AccX,AccY,AccZ,GyroX,GyroY,GyroZ
12,-128,91,-5976,4220,-2773
124,83,20,-6075,5519,-3553
19,10,-5,-15913,-1423,-2950
21,97,103,5076,9295,2740
74,55,32,-2299,4032,-1353
-86,-6,101,2324,5861,2902
3,96,0,-1944,1326,2058
-53,117,31,932,-1095,1533
26,0,-28,8301,-4958,-2822
-32,94,-128,-451,-5139,-8871
68,93,73,9697,10312,-6597
-26,67,-115,7481,1381,2475
7,95,87,-3708,-10000,-2095
-116,102,50,-2111,-2748,-5372
-81,-40,-96,13330,2124,2390
-68,53,58,497,-2799,-1006
56,-31,-52,-2005,-5224,-3735
119,0,-80,3242,-1636,-1160
116,37,-58,-256,-4358,-2277
72,-25,-89,3269,-2901,-1263
41,-49,29,-250,-3614,-2719
71,-92,-18,1670,-577,88
-62,18,14,1405,-738,-1085
117,29,-52,2085,984,840
-32,26,97,-2108,-1428,-926
17,-7,-111,-387,257,-248
38,-20,90,-949,848,-205
43,21,56,-2091,554,-272
82,65,-10,-2637,125,-261
127,126,-107,-2064,181,-272
-115,-100,109,-1917,236,-383
-98,-106,70,-1413,158,-452
-88,-102,72,-1231,-140,-420
-79,-109,66,-1090,-288,-443
-79,-111,88,-1220,-674,-425
-76,-110,93,-564,-388,-271
-87,-114,-114,-932,-775,-386
-78,-110,-113,-821,-611,-325
-117,126,-109,-1024,-908,-465
-113,-115,-98,-1337,-1071,-441
25,-49,28,-5986,1536,-3253
115,23,-97,-4361,4107,-74
-100,51,-107,-847,3026,-3196
-59,-22,25,-6991,-1528,-4318
69,-118,3,2758,5785,-2323
21,32,-14,-593,2414,-4059
74,81,-122,3425,5586,-1044
52,105,125,-396,2268,-1096
-81,-111,-81,-20,1922,-1109
118,-85,-10,5236,-2606,-1979
-128,-42,26,8558,-1705,-5022
-34,-20,12,4149,-2262,-763
-85,75,-33,-261,-5676,-3396
14,-118,82,-3290,-4883,-5443
99,-33,-60,-4842,-1854,-1147
-7,-103,52,14340,4503,3511
-91,43,-96,1259,-3432,-1767
-120,16,120,-4774,-6025,-6054
19,55,80,4256,519,-505
-32,-24,76,2107,-1476,-1372
-115,-54,84,1623,-2535,-2259
15,-51,-92,1016,-2211,-1609
-1,60,-40,2409,-1567,-1557
32,63,-110,547,57,-237
-86,53,-4,-396,-1323,-513
64,62,86,1004,33,110
75,13,-105,18,12,-313
72,42,61,649,1135,658
-11,19,78,-128,577,77
-17,10,92,-1107,-464,-298
29,8,30,-938,-28,-361
67,37,11,-1453,-19,-371
89,71,-11,-1940,-83,-492
111,88,-64,-1951,-43,-674
-94,126,-107,-1969,-84,-599
-93,-106,108,-1515,149,-369
-92,-105,119,-1730,-380,-686
-72,-80,100,-1309,-298,-563
-54,-75,100,-1388,-233,-460
-54,-69,69,-780,-97,-236
-36,-23,89,3548,4414,2861
82,-26,-2,1985,4203,1554
-41,82,114,1874,4763,579
-81,-118,-24,-1117,3587,-1315
-55,-94,52,146,4316,-531
-119,46,38,3451,6299,-805
-25,28,-41,-5707,235,-6336
82,-28,-111,-5463,1324,-5484
-53,-16,59,57,5477,-2637
81,-102,106,-2375,2301,-6047
40,117,-45,568,6151,-4196
77,-12,-100,-3085,3313,-2376
16,97,-75,-987,3510,2288
116,119,117,907,2752,1425
22,-12,-43,2325,-1457,134
-55,-74,-23,5557,-3443,-3462
41,-27,-113,3162,-3196,-2585
-29,-32,106,4038,-2737,-6301
-36,-48,-91,9798,1118,-1206
10,10,47,-10267,-7639,-3554
-114,68,-20,-1850,-1737,482
-58,-78,-23,8481,3031,1955
-75,-124,-50,-2299,-4615,-2092
-116,29,-114,458,-2462,-2149
-74,71,63,3890,-278,-280
-81,-33,-8,62,-2967,-1590
-85,17,-63,1653,-1677,-842
-87,67,23,1529,-2033,-1052
-76,30,121,2815,-2504,-486
-60,-94,-33,2779,-3275,-1048
57,-33,-24,2976,-1666,168
-47,87,-74,1706,-2052,359
106,120,84,2998,1016,961
-84,97,-48,-1930,-581,-552
-88,79,-13,-1774,59,-420
-82,36,-84,-2490,-762,-1126
21,-8,-12,-1235,675,-373
25,13,-23,-682,1100,223
15,48,8,-2066,-95,-497
98,92,-55,-1134,538,-419
-59,-71,-55,-3670,2135,-4877
-35,-122,-39,-687,4400,-3883
61,41,5,-5148,2712,-2497
-18,2,110,-290,4095,584
75,-32,-112,2062,3065,883
18,-31,-22,1182,-140,-348
-128,-42,-21,3129,-2632,-2023
-107,111,3,4070,-3681,-3678
-93,89,23,7432,-3028,-3874
-31,124,106,7993,1549,-647
35,-23,47,-1557,-7820,-1943
-104,55,45,-1428,-1014,-1330
86,-128,-93,5824,2797,2255
79,-101,34,-4364,-5479,-2764
103,73,-121,-32,-2848,-1285
-126,41,82,3972,-678,-684
117,4,-40,1217,-2893,-1092
-95,-3,60,1534,-3464,-1079
-88,57,40,5202,-1900,-125
-43,31,15,948,-2921,-217
-93,-42,35,2523,-1751,230
97,-83,-90,1332,-2504,-336
-101,91,83,1141,168,269
-6,109,90,-297,316,-184
-45,65,-43,-559,819,-221
-54,32,-76,-1302,545,-442
-45,24,115,-1998,-121,-672
29,34,1,-2388,-90,-760
81,67,-69,-1565,544,-226
108,103,-88,-1605,534,-357
-114,-128,115,-1967,226,-526
-122,-103,111,-1388,-89,-534
-98,-110,89,-1219,-336,-661
-102,-112,-128,-1538,-603,-731
-87,-107,107,-1157,-456,-540
-87,-106,97,-840,-400,-374
-100,-92,-112,-1193,-817,-558
-85,-87,-115,-947,-633,-375
-80,-88,-112,-657,-290,-230
-106,-84,-79,-1288,-881,-486
-125,37,68,-5310,1482,-6343
29,-58,2,10,5519,-3859
36,107,-22,-2967,4480,-2777
28,-12,-34,-1700,3669,1624
93,71,1,-286,3411,3541
-121,113,89,66,-491,2052
-51,110,93,4375,-2051,1512
-116,92,43,5684,-5116,-4265
-82,-77,121,6524,-2604,-1717
42,126,98,6008,-1127,-2875
-20,-87,-10,4616,-5727,-2530
-98,46,-17,2141,-3651,-1731
-38,-49,4,1668,-2422,-751
-26,41,64,4098,-3210,-1119
-57,-10,-73,-1872,-3907,-3618
53,-76,83,2744,-1293,-887
-57,-33,-114,2010,-2377,-1590
4,-63,-15,956,-3039,-928
-7,-108,-41,3043,-776,-73
-125,-80,-19,1969,-446,581
81,92,125,-1188,-2602,-939
64,91,121,2866,820,1070
-48,45,69,-506,-1255,-318
-44,33,-69,553,411,468
-67,1,-94,832,1259,481
-105,28,-36,-1158,507,-83
-67,34,124,-1712,542,-628
23,34,33,-1032,705,-199
73,51,9,-2118,644,-748
126,81,-69,-1671,278,-576
-93,96,-93,-1609,526,-670
-69,114,-107,-2019,-147,-840
-58,-122,90,-1484,-276,-466
-81,-108,97,-1031,-328,-489
-88,-68,-102,-1784,-644,-912
-72,-86,92,-926,-549,-639
-77,-112,122,-767,-822,-447
-80,-124,-112,-320,-464,-61
-98,-120,-70,-673,-721,-168
-112,-120,-63,-750,-876,-349
-71,27,-68,3277,4543,2809
-112,7,123,3129,5700,3096
115,-118,-33,2590,8298,2932
-126,44,79,-1564,7542,-756
104,54,116,-4,5403,-3371
-92,-31,-93,-6757,1317,-6896
-35,116,48,-1354,4914,-6190
110,-110,23,-2852,4072,-6156
-23,-35,32,-2474,4056,-5538
-35,117,-16,-3804,3329,-1940
-14,-51,33,-484,5093,1653
7,114,73,6641,2437,3074
69,97,-37,800,-5834,-2451
-113,11,48,10256,-4044,-6217
5,29,21,5702,-1980,1577
25,-5,13,5288,-3446,-2258
62,-55,-28,-455,-8793,-5930
27,98,116,-3445,-3206,-5882
-33,-101,121,6946,2775,-541
104,-19,41,59,-3657,-2999
62,-18,-60,1758,-2207,-2020
71,-41,-94,-439,-1337,-1856
60,-110,-63,2885,-1838,-265
-54,-52,-69,2042,-1164,643
-103,115,29,1916,-1135,448
53,-20,-97,2746,1599,2324
96,-77,19,196,166,-226
109,124,5,-1313,-1218,-503
-90,71,127,-910,-22,-117
-102,98,-125,-1788,-23,-577
-52,-122,90,-3151,-177,-1024
63,-86,-74,-4974,-1108,-1090
58,-3,46,-2726,-804,-297
77,11,2,-453,754,-218
85,-2,81,-1075,12,-495
81,-44,106,-2694,-1094,-1287
-116,-15,-11,-335,85,-66
122,-29,95,-1671,-946,-834
-104,-37,55,-584,-91,-273
-112,-63,101,-1313,-794,-355
-122,55,-65,2652,5537,2226
15,79,-53,-651,5632,232
-105,-49,-89,432,8105,1007
75,34,54,-5237,4203,-3061
60,-60,7,-3871,3857,-3040
-36,-114,-97,-2131,4250,-3369
-54,-28,-76,-6358,149,-5039
72,-79,41,1365,6832,-2515
113,-35,-75,-1606,5541,-3637
-49,-121,-107,-953,4597,-512
6,-5,75,-3091,2704,3405
121,2,80,3495,2330,2101
-124,-88,67,1801,-4863,-3258
38,-97,-5,5442,-3921,-5178
-39,89,82,7886,-2685,-1744
124,-97,107,7276,-202,-6407
85,-22,115,1095,-7187,-1203
-22,76,39,-2020,-6214,-3602
50,-18,0,7950,4432,-229
-18,83,-24,1630,-4182,-1469
-51,-24,92,-314,-3547,-3049
96,31,53,7200,771,2330
-101,21,-122,1052,-3257,-480
-67,18,65,1493,-2022,354
-121,-114,102,1791,-1766,574
87,-88,52,847,-566,633
-18,94,14,741,-151,665
-61,-116,-46,-531,952,229
-47,-103,-100,-2980,-170,-886
13,114,-66,-798,1036,-36
-18,113,-67,370,1291,348
-20,62,25,-1987,-1035,-1213
113,71,-70,-776,401,-288
-110,96,-33,-1436,144,-616
-66,98,-69,-1170,199,-456
-68,105,-61,-1974,-299,-721
-60,124,122,-994,-23,-204
-79,-121,-110,-1411,-569,-299
-91,-108,-121,-1219,-657,-403
-72,-98,-126,-591,-301,-12
-55,100,-63,4176,5228,2172
35,13,-6,10499,11228,4645
-125,57,-19,3062,4782,-1196
88,-94,-116,-8977,-2082,-5564
-94,42,-11,4480,6676,-1664
20,-92,66,-3893,561,-7475
-69,-100,-17,1495,4148,-5902
-122,24,-51,-4814,1572,-7458
-22,103,-121,2736,4931,-3661
-65,98,-8,-4836,1962,-4847
102,59,-22,-1094,2934,328
21,-85,115,967,2310,623
19,84,-13,2167,-1626,-1282
-113,-91,72,4228,-3026,-5175
100,46,-125,3877,-3091,-4537
-58,112,20,8968,-1185,-6072
12,-86,-54,7774,-833,2804
10,117,4,-8111,-9596,-7711
34,-75,-63,1469,1584,-1878
7,-101,-86,7922,1499,1390
111,-34,2,-3265,-5734,-4566
-39,69,-71,4288,-212,-726
-18,-11,-71,1777,-1749,-506
-63,-33,-68,2139,-1641,-962
-46,-45,-56,1622,-1310,-64
-95,-108,103,416,-2438,-247
115,-39,-29,1370,-287,781
8,-89,30,124,-1289,9
31,-110,96,928,1360,1238
-76,-90,37,2172,2277,1795
105,106,123,-1141,-390,221
-97,88,-30,713,547,579
-75,52,54,-1446,-920,-402
-15,50,-45,-119,163,-47
-5,48,-27,-934,-302,-363
14,31,-43,-1535,-818,-686
53,40,-84,-800,-180,-423
73,57,-77,-1125,-180,-402
71,63,-91,-1213,-224,-624
92,68,-87,-1666,-721,-829
-102,22,100,4168,4565,2564
39,8,-101,2373,4399,1592
-26,24,5,2182,5150,962
67,-98,-75,2260,5935,282
-52,-73,68,-950,3886,-2249
109,24,11,-1921,4177,-2725
36,101,48,-3569,3685,-3081
105,69,-20,-700,3652,-5287
98,84,-17,-5361,2130,-5913
-128,-50,-107,2535,5060,-5201
-120,-119,-86,-10992,730,-6953
61,7,6,-4490,3977,-105
-99,-121,-56,5816,5812,5345
-73,61,13,-6019,-398,-377
8,33,-81,3133,-1363,3554
85,56,-64,9136,-2742,-2004
61,-84,-78,2142,-5733,-8724
-63,85,-126,7586,-459,-3172
-83,6,106,6997,-3136,-2605
-112,-51,-51,4419,-4845,348
9,-54,-74,-3513,-5719,-4622
54,123,93,528,771,-820
-42,34,-95,2055,-1397,-956
-74,20,-30,2384,-2258,-1361
-90,38,42,4121,-2254,-427
-6,5,-39,-1713,-3581,-2118
23,-70,-97,4294,-1269,-170
2,-28,-50,743,-799,-359
-74,-78,-14,2311,-888,450
106,-83,-91,1955,621,1026
-7,-76,-24,1141,217,1009
-102,-117,-39,-275,-686,72
-70,80,-118,563,455,247
-94,49,-84,-442,-13,-159
-64,50,-107,-1074,-33,-387
-20,52,113,-1293,365,-801
76,72,49,-1572,864,-719
-126,85,-1,-2625,231,-1104
-71,96,-110,-1817,773,-685
-43,106,112,-1436,382,-564
61,35,-60,5681,5506,3549
-82,36,-93,3785,5288,2483
-18,102,107,2245,4186,1252
-92,-111,94,946,3576,-214
45,10,-104,908,3505,-1986
29,60,-63,-721,2182,-3329
82,0,63,-664,2715,-3181
44,107,-26,-806,2740,-3136
-78,-25,-30,-96,2174,-4888
-93,-22,-50,-1898,1756,-5227
-48,-27,-106,3537,4912,-3394
-47,-66,73,-6293,-1071,-8063
-5,-120,-11,-6521,3451,-3505
-13,117,13,-1606,4200,1638
105,70,-112,1997,2724,4586
8,-115,111,-2672,-686,3356
-128,90,-5,4411,-2248,2058
-42,-122,-79,7954,-2991,-2932
65,37,94,6769,-4497,-6702
53,57,-117,3559,-3731,-4201
-105,-28,-128,7025,-4756,-4196
-47,-122,-107,9262,-175,2950
-1,-30,-102,-9811,-9024,-6190
16,77,52,3607,2143,-550
25,79,88,9716,2070,3123
38,118,-108,-5671,-8464,-4168
-47,0,-77,4089,-732,-206
-15,-17,-122,1730,-1136,123
-94,-85,2,753,-2779,-1177
28,-69,125,-71,-884,-327
-122,-5,50,5153,1532,2206
-1,-85,74,-1481,-2303,-597
63,-104,68,2707,1000,1202
-8,-116,-123,2458,993,1769
-107,118,-54,1197,246,1314
115,-109,-25,665,296,891
94,-122,-2,-235,-183,244
78,92,-27,-911,107,-744
-98,72,-69,-1705,438,-1089
17,92,101,-1825,978,-1402
-127,-27,44,-4548,4880,-1377
-64,-53,46,-4918,-778,-4798
127,102,-45,-1225,2333,-1628
-28,42,-56,3412,3455,-1893
40,23,106,-3129,3405,-3158
110,117,-106,674,6186,685
-61,124,-16,53,3868,1969
-117,0,110,-402,1248,3466
-121,36,87,1339,-2140,2236
-51,81,-71,5749,-3613,162
71,-68,93,6107,-4684,-2819
-87,-86,119,5632,-5080,-3713
-89,34,72,5629,-2783,-3483
-95,26,69,6227,-4490,-406
-24,0,119,-3188,-7520,-3916
70,57,-26,-536,-1259,-4462
102,-90,73,8155,4046,1963
-55,15,-40,-673,-4015,-1579
-100,-36,108,3013,-4392,-1254
23,-70,120,4534,-1975,377
51,-20,44,3025,-1279,956
-94,43,-4,970,-2973,1242
-124,25,56,-521,-1188,-459
82,-21,-96,3592,1355,1513
-52,-100,45,1770,-14,751
-95,97,35,179,-1098,533
111,65,3,187,-562,373
89,66,-5,-254,132,-66
114,76,-15,-1574,297,-746
-70,87,-117,-1201,1167,-917
26,99,103,-2154,1021,-1572
127,116,16,-1667,1642,-1470
-62,108,1,-2797,530,-2042
4,126,-88,-2793,50,-1287
-13,-128,93,-2311,-246,-930
-44,-118,31,-662,-90,-274
-70,-101,120,-1687,-1488,-582
-85,-70,87,-826,-1253,-254
-88,-66,-122,-871,-1592,-168
-108,-53,114,194,-778,205
-103,-45,-53,-4691,2527,-3852
-71,112,-50,-4401,2391,-2938
-104,77,19,-5758,3551,-2783
127,-99,-24,-3354,2878,-3537
75,104,16,56,5441,-2539
-2,-23,28,1857,5832,-1593
-1,54,-61,-3082,4156,-663
105,-40,58,1732,4441,5832
92,-128,87,-409,872,4066
54,20,84,416,-3826,342
21,9,79,9174,-5472,-3678
78,-55,57,6567,-3036,-3727
71,27,-100,4226,-2356,-4770
41,108,-72,4764,-7802,-5666
-45,107,39,3674,-4370,-2706
92,-4,18,-1632,41,-1551
-11,72,76,4532,3527,1401
97,80,0,3191,-1432,709
-26,19,-47,-559,-5675,-2609
-53,6,5,2306,-2122,-1133
-11,50,48,5066,333,1452
-93,62,-83,-1099,-3684,-906
-115,0,13,1771,-1910,-423
-85,123,24,-1197,-2174,-1163
-114,-104,100,3032,1190,1383
-65,-120,-1,821,-400,333
-21,36,-45,-1587,-1529,-765
26,49,50,1769,1499,1397
-84,39,-100,-518,226,125
-47,24,53,-97,872,258
-61,5,69,-1484,-356,-602
8,-4,6,-1760,-676,-733
72,26,-57,-1116,-77,-315
85,51,-62,-1327,317,-447
105,72,-80,-1872,-150,-570
94,97,-115,-2033,-675,-682
115,108,84,-1193,-114,-483
114,120,105,-1392,-442,-545
-125,-116,92,-1110,-338,-434
118,-120,115,-1665,-854,-857
-122,46,22,-8250,-2754,-7083
116,63,80,687,4925,-3757
-68,-3,20,-672,4844,-5530
85,25,42,-4860,4303,-3264
10,-96,23,1367,5799,2384
-31,42,-117,5251,4315,3269
-40,-25,50,-5273,-2405,-2020
-96,-1,81,7715,-4175,-1628
10,75,103,9193,-4632,-2108
-55,-114,-11,5208,-3836,-3078
-58,97,-64,8714,-172,-2261
-52,77,18,-7211,-11551,-4138
-100,111,103,-1984,-3266,-5017
-85,-128,-46,8972,6149,2890
-121,-32,-19,448,-3105,-1994
55,-14,-126,-6303,-5574,-5340
8,45,-30,8108,2566,1764
-67,-51,-109,4155,-1069,1123
115,-51,-30,683,-2762,-377
-122,-27,-14,1211,-2015,438
53,-26,-36,1732,-1145,315
12,-90,10,-1281,-2156,-884
51,97,-125,1243,-497,39
81,72,91,865,899,774
6,114,87,512,866,685
-43,79,-126,-708,-493,-68
16,54,54,-290,316,-18
37,43,60,-934,162,-322
65,37,4,-1101,157,-254
86,46,-13,-1516,-17,-373
123,86,-49,-1566,177,-329
-122,118,-73,-1252,351,-267
-100,116,-92,-1655,-99,-688
-82,127,-125,-1197,-17,-429
-66,123,-121,-1661,-673,-659
-68,-114,103,-690,-228,-244
-86,-113,-95,-1593,-910,-649
-77,-107,112,-817,-591,-342
-82,-117,-107,-942,-884,-345
-87,-109,-97,-765,-725,-201
75,-104,109,-3943,2079,-5080
102,94,-17,-3154,3930,-3343
50,18,-30,-6193,2453,-4035
111,-36,-22,-6992,925,-1457
47,-51,-83,-5906,4048,1177
-127,22,-1,-3259,-157,-3373
71,101,-66,-4820,1886,-2928
39,-94,-52,7744,3187,1899
-123,77,-83,2033,2083,-2833
120,-118,5,7318,3264,297
-99,-73,-50,-471,1135,-1295
78,64,26,157,-1500,-679
-6,-59,10,4452,-2944,-1438
95,111,58,3895,-4631,-2876
-4,-1,-33,6401,-4131,-4006
-94,-124,-41,9844,-517,1511
-117,45,-8,-17482,-13094,-10523
6,95,-63,-1007,2129,-3131
88,-83,97,13608,6931,6489
48,-74,-52,-213,-3854,-1659
-51,-37,102,-6444,-6787,-5718
-65,76,-31,7361,2249,1423
-45,-8,47,8038,1574,2928
67,-62,-120,-3186,-4795,-1928
-111,-30,102,3275,-439,1208
109,-35,-43,801,-1701,700
47,-67,-51,1243,-1643,372
20,-81,-66,1618,-440,448
-27,83,19,-511,-1166,-423
66,57,-104,-648,-40,295
3,71,43,1706,1761,905
-71,102,-104,-528,432,178
-59,85,122,-1740,-306,-536
6,69,21,-1296,227,-449
47,78,-25,-586,1005,-387
86,92,1,-1450,560,-582
-122,105,-38,-1781,204,-971
-90,115,-70,-1342,61,-841
-55,107,-73,-1513,-41,-831
-53,122,-91,-1555,-234,-730
-87,49,-105,6374,5634,4213
28,3,32,1424,3260,2032
-28,69,38,3015,4916,2348
-56,-15,-44,2331,5309,703
110,57,31,-51,4066,-1969
59,96,-78,649,4602,-2341
22,-96,126,-1932,2740,-3880
39,76,6,-2145,2881,-4805
-111,33,-32,-3909,1689,-7452
-77,2,116,-9581,641,-7888
-88,12,-28,-3334,6750,-2936
-84,22,73,5697,7259,-157
-113,4,-1,-5599,2734,-3067
123,-46,96,-330,3916,3820
9,82,9,80,848,3594
-21,-7,7,2252,-1906,724
111,-4,116,8680,-4395,-3487
-47,-113,-26,5716,-4275,-5294
-48,-113,90,8036,-1066,-2191
-80,14,-30,5468,-2941,-535
38,57,35,-7089,-9036,-4614
-32,-58,52,4288,-685,-1043
-8,19,-26,5765,1043,509
122,-85,29,-3464,-4563,-3176
-57,-18,-53,2198,-882,-763
-43,-66,77,1842,-985,-242
-89,-89,88,2291,-1403,-207
-95,-79,-122,868,-1382,-52
-115,-113,-68,899,-1400,120
84,-80,-89,911,-888,344
89,-105,-109,-147,-729,183
4,-121,101,-243,-1122,-109
43,95,64,-315,-927,141
40,121,6,1157,301,839
-15,90,87,108,-521,19
16,70,61,145,144,190
20,52,81,-547,185,-156
54,50,48,-850,405,-180
85,48,27,-1117,296,-328
107,60,-11,-1360,99,-427
126,-28,45,-5044,1408,-4496
-82,-103,59,-3128,3622,-4210
-88,116,-14,-4176,28,-6992
-112,35,108,-769,2015,-2412
-39,62,-11,3413,5640,-1718
21,-97,-70,-3439,3698,-3160
-51,30,-105,-4029,4289,540
2,73,-91,3470,2889,5596
86,23,-91,-537,-1771,2183
-57,108,117,5230,-2817,695
-6,-39,68,8187,-5255,-2084
127,-97,-113,4394,-6145,-3364
-22,-19,69,4638,-3013,-3039
-67,-33,82,9716,-1285,-1
125,-105,-58,-5418,-11361,-1944
-111,47,-4,98,-2976,-3056
16,85,123,5056,2876,789
-98,-75,-102,-519,-3041,-1685
-117,-14,77,2650,-2940,275
124,-48,103,3187,-2537,-184
-87,10,2,1348,-2007,633
67,14,-114,973,-2508,355
53,-9,-7,2317,-651,579
-9,-88,105,-932,-1765,-369
5,-117,123,1310,1007,333
-15,100,-65,-836,-140,-343
18,110,38,1607,1679,1166
-84,94,-105,-1128,-436,-42
-63,90,77,-715,-413,-71
-15,58,47,-1310,-566,-511
16,56,7,-1233,-305,-237
45,70,-16,-1200,-172,-44
70,93,-43,-1560,-40,-416
91,107,-75,-1028,290,-479
103,119,-71,-1678,-134,-730
-124,123,-110,-1866,-641,-776
-107,-127,99,-914,-86,-404
-110,-118,-123,-1134,-391,-484
-108,-112,-125,-1198,-558,-522
-108,-115,-121,-1240,-737,-476
112,-22,94,3450,5340,2278
13,45,33,3420,7582,2309
7,-96,81,1061,5851,-716
8,48,113,-1105,5833,-1992
-60,-120,55,-3528,3780,-3348
-30,7,113,-5962,1501,-943
17,-76,-87,1647,5311,-143
97,38,31,-9433,-2269,-7451
55,66,-42,-3990,4377,-3237
-91,99,39,11226,6038,-1695
-25,-119,65,-3469,3635,-4330
37,-46,33,-485,5786,629
-39,-94,20,3711,3237,3049
-72,3,24,-1748,-1231,2175
63,15,-23,8365,-5861,-3232
-106,119,79,5284,-4893,-3313
-126,21,29,8783,-2897,-5005
124,-38,-61,8192,-786,1652
-114,100,-83,-6139,-12409,-4098
18,68,-52,-154,-2430,-2878
79,75,-124,3264,1862,174
-36,-31,-117,721,-3563,-1192
-99,11,96,4361,-2962,108
-41,69,-116,1211,-1863,83
-30,0,-22,3189,-971,601
-50,66,-20,3221,175,2182
-38,40,74,1302,-1444,917
-33,125,53,-705,-2213,-886
51,-114,114,2614,2443,1628
-63,-120,-42,58,1208,433
-111,126,-126,-375,588,387
-107,86,97,-576,217,-199
-74,86,72,-569,470,-358
-24,82,64,-1317,189,-815
35,91,35,-1505,275,-1105
99,101,17,-1794,278,-1286
-85,114,-31,-1791,465,-1324
-53,119,-58,-1958,200,-1356
-23,119,-98,-1627,147,-991
-18,114,124,-1520,-167,-739
-108,13,67,2986,4844,2337
-9,65,70,3046,5693,2427
30,-85,-16,559,4957,766
-109,22,42,-1454,4082,-933
102,-70,-82,-1407,4679,-2305
64,-73,71,-1607,2900,-3049
30,34,-19,-41,2920,-3917
-122,-115,-128,-4956,-654,-6319
-85,-1,-125,1052,5488,-3302
104,-5,-98,4378,6204,-7617
-21,-74,18,-9168,1739,-6556
53,-54,-35,-3525,2974,3357
24,-8,-44,3638,2532,4004
124,14,-56,5219,-1456,603
106,-126,75,4034,-1793,-1645
113,-6,-102,5145,-4280,-4115
-118,-81,44,7886,-2569,-5744
-7,59,14,10151,-2084,-3058
-45,119,-48,-5654,-8807,-2257
-67,-65,2,-2999,-4550,-3924
9,52,-22,9384,6710,2128
37,-48,-36,-1716,-3460,-1648
2,29,-108,-7199,-4892,-4196
112,-27,-98,8889,2489,770
-89,-41,11,4343,-553,1685
76,-50,17,628,-3344,549
81,31,124,4247,-484,1867
51,-5,122,-533,-2453,308
62,-16,-118,2446,20,1615
-29,-63,2,422,-834,398
-43,-93,-93,1413,265,677
-57,120,-10,-1119,-700,-170
-16,86,79,-496,384,110
-28,86,31,531,1103,398
-48,85,88,-744,217,-136
-30,82,70,-1338,-253,-749
33,85,16,-1158,144,-718
100,90,-1,-1519,210,-884
-125,90,-22,-1555,335,-912
-97,100,-52,-1683,265,-980
81,49,103,2630,6039,-2777
122,-119,-4,-2085,2842,-6621
78,-127,-89,2083,6374,-2799
14,-88,-32,-700,4916,-1450
-64,73,52,-4660,2442,1281
34,113,6,1539,258,2694
11,117,119,8709,-2129,351
32,-33,-125,6301,-5367,-4429
78,102,98,4449,-1919,-2494
2,-68,-88,3284,-4936,-3591
-10,121,37,3633,-2733,-3677
-87,-56,51,2019,-5327,-1173
106,-28,58,4292,369,1642
-108,0,-117,3247,-1196,1250
-14,-31,-98,-586,-3617,-1796
-122,-34,23,1380,-1639,-364
109,-47,98,3189,-2259,693
72,-43,-61,1209,-2650,-330
101,-35,19,552,-2255,643
28,-24,-38,1768,-1397,149
-2,-54,-19,-2280,-2378,-916
25,-113,102,2421,-281,203
52,98,-52,44,-1153,440
5,105,111,2009,817,1194
-91,114,-59,499,190,519
-113,112,-60,-923,-49,-91
-86,99,-119,-1620,-18,-700
-25,89,58,-1309,517,-602
44,109,2,-1518,971,-638
74,123,-35,-1446,1071,-796
111,-128,-51,-1614,633,-997
-87,-114,-82,-1980,213,-1010
-72,-110,-125,-1547,39,-900
-51,-119,112,-1140,-108,-558
-55,-121,106,-1125,-497,-451
-66,-117,116,-929,-928,-274
-73,-106,-120,-734,-958,-69
-95,-90,-91,-707,-1000,-84
-109,-85,-78,-732,-1053,-18
-119,-87,-69,-808,-1053,-37
-37,-95,-74,4188,2813,3778
-112,64,123,3231,2816,2635
111,33,26,3205,3881,2644
62,-37,-97,1542,3159,1957
0,11,87,4840,5941,3124
-74,-112,-49,1870,4153,777
-100,-102,-95,-452,2634,-1333
-110,3,123,743,3044,-2114
-57,14,-83,249,1846,-2870
101,2,-83,74,2298,-2767
70,-78,29,-1851,2906,-3221
12,89,44,-2026,1798,-5404
-99,-108,-31,-2773,2190,-5250
33,-19,-71,-1292,1726,-5202
118,127,-101,-475,3414,-3752
84,66,-24,2608,5403,-1725
-82,-101,50,-2274,4845,-3583
15,22,106,-1632,1979,1977
-79,45,-118,3243,-3991,811
111,-106,-90,8190,-3858,-888
116,-10,83,7061,-3810,-1157
51,-2,-119,3542,-5866,-2451
109,-84,-6,9556,-3374,-261
31,-53,-84,-2350,-6661,-172
96,10,-76,921,-1480,-1576
-100,-32,-80,-1609,-1703,-2769
-97,0,53,-609,-2201,-1664
110,-32,16,-1120,-3528,-2731
-92,-49,-62,1076,-2043,-737
-77,-77,-47,5080,-612,607
125,-26,-53,2109,-2151,461
91,-24,27,-883,-2693,-892
126,-42,-56,2155,-1363,232
76,-79,7,240,-1103,29
21,-128,-42,90,-323,-149
32,99,110,904,818,743
-32,109,124,-401,317,380
-42,108,60,-611,327,166
-39,99,-19,787,1359,338
-42,103,55,-644,376,-110
112,31,76,-1908,658,-7664
33,-123,-106,-2404,2561,-3603
55,-23,-83,801,4234,-1355
-90,-119,-22,-1803,2514,-1144
61,-14,54,-72,825,1140
-33,43,-128,5196,-2062,-1415
100,-22,36,3788,-3437,-2917
42,57,12,5621,-3777,-4816
19,-39,88,3643,-4401,-3321
-61,-36,113,6937,567,-685
54,15,4,-2136,-7058,-1254
-91,95,-116,4570,917,-608
89,105,-17,-412,-2742,-2328
110,-40,82,-2620,-2972,-1545
-128,-65,-51,-388,-2165,-1621
112,-17,-111,2508,-606,-169
98,-35,36,580,-2203,-964
-124,-57,-54,2805,-1078,489
68,-66,-65,1463,-3115,-181
103,-36,-89,2998,-2000,491
73,-64,76,-522,-2555,-224
38,-89,-4,128,-844,53
45,-98,-101,-540,53,-60
12,-95,29,-81,814,271
-6,-85,-34,1851,1694,1109
-68,104,108,-951,-1303,-568
-11,71,31,-337,-910,-12
9,58,38,-335,-410,29
4,61,61,-765,-371,-215
19,81,76,-1570,-514,-502
63,96,9,-1370,178,-327
79,113,-26,-1355,427,-415
104,-107,-63,-1550,545,-586
-127,-98,-83,-1619,286,-754
-104,-86,-114,-1520,270,-711
-84,-85,-126,-1897,-339,-991
-70,-75,96,-1216,-322,-639
-68,-87,106,-1587,-825,-664
-73,-79,75,-583,-558,-202
-86,-79,124,-804,-920,-280
-120,-1,-56,4318,4580,3185
26,-9,-76,2484,3871,2331
-109,89,91,3242,4578,2194
-55,109,5,465,3121,-764
-101,-25,-65,1086,5066,-1240
78,71,-21,-2184,3743,-3174
51,112,83,-1115,2460,-3238
44,62,123,-2692,1492,-5407
22,62,82,-2493,3287,-4617
-5,88,-49,-1797,3949,-5618
-102,102,-35,-706,6491,-4758
-57,27,102,-2776,3695,-3924
9,109,-114,-5304,2553,-1969
-89,88,114,-1821,3397,4327
79,4,-49,9841,2203,5510
-68,-50,86,432,-3152,-1676
39,-22,-36,4314,-4808,-2584
18,-44,-15,4700,-3590,-2315
108,39,-25,3976,-4713,-5061
122,-49,-69,6496,-2222,-2156
44,28,-14,9584,-6193,2809
-18,106,65,-4215,-7247,-4056
60,-11,-38,1506,2536,704
-93,-15,-90,-3413,-875,-797
40,-7,17,-1348,-2505,-2288
100,-30,-99,2743,-1227,-892
-121,-76,-36,788,-1985,-732
-72,-66,104,1477,-2553,88
-116,-50,100,4342,-1225,676
-107,-14,34,-173,-2080,449
63,-2,114,987,356,388
17,-93,123,1582,99,-485
28,95,-67,253,-1296,32
43,86,101,360,-104,555
-21,64,102,869,-120,295
-52,65,-79,-475,-580,-123
-26,52,-103,-1805,-288,-537
23,58,56,-1164,636,-369
64,82,1,-1490,917,-506
97,88,-54,-1483,1073,-520
87,-100,-92,-7420,-504,-5683
-56,122,-43,7733,3042,-159
-75,-36,35,-1552,2806,-3517
25,43,117,2462,5289,-548
-6,72,-10,3674,3462,1262
-30,-2,19,6044,2672,3468
102,11,-71,-281,-241,-515
-54,98,72,1116,-5673,-1877
65,-58,33,4901,-3999,-1898
87,34,112,5748,-6045,-5649
-47,22,54,11307,3175,1323
-125,94,24,4812,-11605,-274
101,-119,48,-5753,-10669,-8492
70,-14,-57,2004,1605,-2682
-122,-115,-48,8796,2369,2541
-81,-60,-38,-2157,-7138,-3035
52,44,123,3396,-811,-714
32,86,55,2782,-1015,766
-77,-6,-77,2451,-2237,11
-89,-69,-104,1533,-1487,1
38,-109,87,3850,1936,1833
-124,123,-17,-1605,-454,-447
-116,122,-20,-701,1060,563
104,94,-48,-1625,159,-170
125,101,94,-348,1404,-35
-99,127,-128,-2476,391,-1129
-10,-109,74,-4035,-671,-1717
126,120,-104,-3144,227,-993
-101,-117,20,111,2064,72
-111,111,-79,-2114,-339,-982
-76,124,93,-1073,332,-572
-66,103,121,-1832,-743,-688
-69,123,71,-739,-172,-141
-90,122,126,-994,-628,-161
-105,127,-128,-716,-812,48
-122,-127,-125,-229,-715,179
-114,118,-92,-724,-1037,110
-126,-123,-96,-301,-683,312
121,-121,-85,-74,-514,233
103,122,-49,-582,-875,-30
48,39,-108,-4228,-22,-6359
62,55,45,-4629,3362,-3730
106,-72,37,412,4810,-3159
-57,97,-113,-1755,5190,-3225
-32,97,111,-70,5146,-128
91,44,86,628,3442,1711
-83,-115,116,5056,621,1024
61,-77,32,2208,-3333,-2632
118,-35,-63,4779,-2897,-3635
-12,-100,124,6445,-5554,-5685
23,-41,-86,10662,1341,-3050
-20,33,-44,10115,-6955,3873
-63,-32,24,-8747,-7340,-6780
90,42,-33,3892,2958,-435
-61,-18,-83,-3008,-746,-2272
118,-35,-9,287,-2056,-1434
-91,-42,-97,4600,-648,547
65,-54,87,3128,-2693,-592
-97,-59,-79,722,-2131,196
117,-14,-45,1520,-1550,278
75,19,-87,957,-1117,269
43,-86,16,588,-1997,-261
88,-115,124,2089,216,767
25,113,-25,234,-289,257
-3,113,-125,484,752,596
-31,81,111,301,979,424
-58,79,84,334,1196,474
-59,75,105,-1477,-9,-350
-1,75,39,-1429,202,-546
40,83,-8,-1059,463,-536
87,73,-27,-1614,5,-846
-116,79,-82,-1142,368,-562
-104,89,-68,-1349,101,-683
-87,104,-88,-1320,-42,-757
-64,108,-116,-1142,-103,-548
-72,108,-107,-1217,-468,-542
-60,121,-124,-782,-371,-196
-72,122,-106,-652,-526,-195
-68,-125,-88,-977,-659,-212
-67,-122,-83,-784,-706,-110
21,113,81,3167,5041,1858
78,-46,-1,96,3580,-1290
48,74,-119,157,4217,-1877
27,-59,110,-82,3156,-3864
34,101,-76,-2495,2214,-5293
68,-42,19,809,4095,-5555
-62,-50,54,-6885,-386,-8317
-117,35,-89,3084,7240,-3009
-7,118,88,-1157,4709,-3110
-28,109,-80,-346,3928,2218
-83,69,-124,1351,1571,-30
3,-105,53,8094,-514,-1759
59,97,-105,5913,-3353,-3631
-70,43,-103,6023,-6635,-4917
8,-103,-1,7798,-203,-1133
-82,91,-8,5278,-6382,-608
40,-89,52,-4093,-4825,-3872
46,31,-76,3744,4045,-202
-96,-1,88,682,-1550,-533
4,5,56,-1763,-4451,-2524
77,1,113,3450,-529,-874
-95,25,43,1370,-1791,-242
119,-11,121,3571,-2308,-404
-53,35,-66,155,-2474,-399
-61,37,97,5634,540,1710
14,13,84,1410,-1471,113
-62,-62,84,-35,-1485,-688
24,97,-23,219,-53,-429
1,73,-116,1111,1298,484
-12,75,-119,817,1523,465
-62,59,-110,465,978,302
-63,48,-80,-1735,-246,-711
23,27,67,-1226,367,-333
58,42,14,-1160,631,-314
86,79,0,-1819,473,-510
115,97,-49,-2266,28,-804
-101,-124,120,-1275,570,-404
-90,125,-124,-1463,-32,-606
-78,122,108,-1035,-37,-467
-74,123,-117,-1273,-567,-516
-121,-51,-115,-6077,-1111,-4049
-110,102,-122,-1718,1680,-1749
-111,60,13,5286,4801,-3217
-69,-29,106,279,3876,-1913
-56,1,-128,3881,4748,1510
101,22,-43,2217,2579,798
-21,-110,-61,2218,96,377
-88,116,21,3020,-4263,-3456
83,-14,-63,2871,-3621,-4585
67,-114,104,8422,-3652,-5279
125,79,-107,9046,624,1355
-26,-65,-10,4030,-6689,-1247
-116,-81,69,-3142,-4240,-2669
59,-42,29,1763,-188,-501
-66,-11,20,2201,-1636,-709
-88,-29,81,1195,-3537,-855
-66,-12,1,4145,-2519,297
-50,-7,-51,1729,-2806,489
-111,69,13,2897,-2020,665
127,70,-1,1695,-1698,492
9,-19,-114,137,-2923,-384
56,-122,34,2374,-518,776
-24,100,106,-312,-277,-209
8,110,-59,436,1757,398
-56,96,-120,145,1648,242
-70,71,101,-188,989,185
-80,63,90,-873,295,-295
-32,67,63,-1699,-297,-840
40,75,22,-1478,67,-805
86,91,-10,-1355,464,-753
127,97,-33,-1620,318,-975
-105,107,-55,-1788,53,-961
-78,108,-94,-1629,-37,-817
-53,112,123,-918,75,-420
-61,111,-107,-1445,-568,-486
-62,113,-126,-725,-534,-101
-76,123,-115,-497,-628,1
-87,-126,-80,-744,-929,-3
-98,-119,-72,-763,-1025,20
-105,-118,-62,-690,-1004,31
101,26,-22,4135,4722,2811
-20,13,-53,2401,4411,2005
86,41,93,543,4042,661
19,119,87,1639,4329,10
-26,-46,-23,150,3704,-1545
-62,8,31,-18,3408,-2860
-32,-25,-54,-1552,2688,-3117
-2,-96,62,-2388,2311,-3367
-62,-29,-13,-2453,1163,-3081
125,-102,-24,-1872,2469,-2155
-61,-124,-66,-3475,1445,-4029
-57,-53,113,153,5526,-3615
101,60,127,-5486,3018,-5079
50,-25,-100,-5875,3942,1397
-117,-101,82,8738,5734,6451
26,100,107,-6193,-567,477
117,-120,45,9736,-1397,3247
11,-56,4,5462,-4818,-3386
75,-112,-12,5768,-4425,-4562
-41,-77,16,6868,-2473,-2452
68,16,-94,6467,-2483,-5601
-54,-52,-120,5750,-3666,2058
90,-124,12,-4445,-3878,-3779
102,-29,-69,5103,1255,1140
107,-79,-59,-1674,-4203,-1808
-110,-15,-70,3558,-2380,-372
-53,-8,121,1895,-3025,-59
-90,34,-75,2183,-1940,234
106,2,-27,3059,-1782,407
94,-24,53,1560,-1395,-23
27,-50,110,-770,-1702,-283
27,-117,-90,1732,-5,216
46,106,-56,324,-195,403
-27,127,99,1434,888,860
-60,93,-46,-435,-928,280
-30,89,76,1100,886,962
-78,89,112,404,841,515
-77,89,-119,-773,188,-228
-43,64,100,-1209,-28,-752
29,43,49,-1304,68,-920
-104,-55,-64,3600,7152,406
-47,26,-114,458,5351,-2502
9,23,30,-1327,4090,-2928
71,-31,-50,-1949,2657,-3257
-119,-58,113,-1184,2949,-2697
-94,-94,71,-2603,2315,-2448
-93,53,-82,-3909,1037,-1131
16,-61,-36,825,3277,1187
60,-76,91,-7364,-4686,-6129
-15,-49,14,-884,14,-2608
98,29,-26,5862,1328,-1436
-64,-63,118,-6246,2001,-6518
-117,-73,30,3348,3594,-242
54,-39,22,3864,4492,2052
-15,38,-119,2104,2805,-263
88,-23,-115,-978,-788,-578
-36,103,54,4571,-4362,-1638
42,-16,81,5741,-4650,-3548
15,-48,36,7783,-5480,-4406
56,120,-53,9437,562,-514
-75,-121,-37,-492,-8639,1705
-40,-40,87,1765,991,-212
81,11,-110,-1546,327,-2317
122,-87,-33,-2521,-815,-1750
125,-37,-37,-2393,-1872,-1889
110,-51,47,1066,-356,-313
57,-84,56,954,-2133,455
32,-126,120,2734,-3517,838
97,-38,-43,3420,-2346,2079
85,89,-128,2674,-2313,1867
38,51,67,130,-4327,195
117,21,-59,2961,-1906,1204
93,-24,98,940,-2349,1083
2,-74,104,500,-1690,244
-26,121,48,503,42,-135
-15,82,-82,696,2020,240
-63,104,-103,-788,1187,-89
-90,102,108,-1588,-55,-585
-53,90,48,-1723,-654,-931
25,95,11,-1563,78,-997
-51,34,97,-7190,2561,-1841
-9,-14,-33,229,1112,-3283
-4,72,0,1186,990,-3015
-93,-63,75,388,613,-4748
-2,44,62,-7,4138,-4306
70,-45,87,1721,4823,-2083
-46,-31,-115,6430,5236,32
38,-28,32,-3492,1092,-966
99,-93,-116,-693,-1334,945
122,86,-96,6316,-6053,-5721
-56,110,105,6405,-1143,-4463
-75,-15,3,7282,-3605,-3232
-29,104,-58,12921,1988,1884
122,42,-128,-7926,-10049,-2504
-51,-55,-80,390,-1410,-2257
-19,-87,92,950,-585,-228
67,11,72,-973,-2461,-1510
67,-55,-41,1606,-2141,-1206
110,-59,-20,2848,-1573,-274
-105,-33,112,2511,-2081,484
50,26,-4,2089,-2427,202
62,-34,92,980,-2761,-232
81,-79,7,1497,-612,118
-9,106,91,492,-893,-54
-12,101,1,-437,194,-225
16,64,-111,163,1081,232
-28,108,96,-494,976,449
-47,99,27,-39,1352,289
-42,77,18,8,841,19
26,53,-1,-717,483,-11
48,41,-25,-655,275,-169
81,55,-19,-884,-100,-337
104,69,1,-1631,-476,-634
-108,67,-58,-1417,-225,-476
-106,94,-108,-535,337,-43
116,101,-49,-1642,-697,-665
-120,107,-83,-1361,-530,-510
-97,113,-121,-862,-128,-171
-106,115,-96,-858,-378,-174
-120,119,-97,-687,-491,-171
-18,63,10,3732,3804,2662
-30,13,115,6023,6100,3785
125,-21,-75,4185,5930,2387
-86,-91,89,5431,8395,3201
-124,-54,127,-1795,3648,-899
-40,-70,118,-1952,2780,-762
-63,53,12,-1521,2826,-1850
-77,52,-53,1047,3539,-2402
-124,-128,53,-558,2640,-3595
-42,-84,56,-4808,2075,-4103
-84,-95,61,-6173,-229,-6320
39,-2,85,9205,6023,-127
100,103,-127,-1873,1387,-6194
-15,70,-82,430,4080,-4513
65,-84,78,-1428,3447,-2651
37,113,-91,1388,3200,641
-51,-12,-17,849,-929,-165
-72,-5,-11,4844,-2729,-3507
12,22,72,2983,-3953,-5285
-84,-82,-81,5324,-3485,-6670
109,-66,61,11577,845,-3343
-124,86,-99,3312,-6849,1825
-21,-67,-38,-6072,-4626,-4555
-2,80,23,6813,5249,1748
119,-78,-31,-1984,-3934,-1815
49,-33,49,-52,-2901,-2369
-36,-46,-72,4569,616,1106
94,-88,-79,3082,-1586,280
118,-31,-46,-74,-1435,-14
41,-45,-10,598,-1571,493
29,-77,-81,-223,-1127,-444
55,101,-116,80,-1092,-625
91,86,68,813,-128,277
41,72,90,221,-107,107
44,66,83,-471,-558,28
56,64,13,822,541,773
10,75,68,-218,107,297
8,76,81,-1262,-466,-281
48,79,10,-1227,-118,-249
69,81,-21,-1105,167,-223
-95,29,-35,4373,4729,3192
65,23,-108,2895,5015,2033
-27,65,5,3208,5710,1499
69,87,-71,1310,4877,-75
8,-100,-98,1079,4696,-449
-84,-44,-46,-390,2129,-2368
8,-56,112,611,2877,-1863
-93,21,94,-368,3731,-2076
69,120,74,-3612,878,-3037
29,-75,80,-803,2764,-3851
30,-52,69,-3627,301,-7182
-60,-56,-48,-4917,3222,-7396
27,-99,-56,3413,6210,-2588
-104,-8,-26,-5898,2162,-2938
-55,120,40,16,4056,2445
-126,-96,89,1211,1839,1833
109,45,-55,4702,-1594,-789
77,-32,124,7661,-3982,-4382
-89,44,113,4447,-4961,-5514
-123,-1,-57,9474,-3528,-6260
-84,33,-105,13974,16,1674
115,-100,118,-7583,-12431,-2837
3,77,-6,954,3857,-1256
-11,14,-93,-550,3,-1680
108,-10,116,1141,-2752,-1643
-55,-41,46,1285,-1835,-1250
-54,-71,124,2124,-1197,-204
-123,-73,-33,657,-2210,-648
-95,-75,-69,181,-1189,435
29,-49,-127,584,-416,17
14,115,-71,-1352,-2111,-717
61,120,-14,1568,1120,510
14,78,-127,-930,-735,-242
34,84,13,532,701,532
-5,94,55,-915,18,1
20,87,27,-1619,-577,-426
65,105,-57,-1494,-148,-238
88,118,-98,-1438,43,-76
88,-122,126,-928,304,-11
97,-119,-121,-1401,-448,-345
-68,29,-99,4030,3961,2473
-79,72,-123,8052,7660,4756
-54,125,46,5682,8123,3097
-46,-115,-104,310,5036,-258
-86,-50,10,1418,6273,-1246
104,57,42,139,5798,-2576
63,17,-86,-135,4281,-2974
-10,118,19,-3940,1555,-3349
-57,-13,18,-5696,1191,-5288
-14,4,27,50,2994,-4511
-21,-44,26,155,3026,-6073
-105,86,64,1900,3609,-4174
100,-121,110,-1539,3718,-3135
102,24,-39,-4738,3601,-644
-57,88,91,1053,1481,3795
-23,1,9,5547,-3276,-1459
98,-75,110,5627,-3971,-6189
-97,125,-35,6827,-4513,-2834
63,-97,40,11033,-1038,-6120
-30,72,-31,6822,-4047,4324
-6,17,109,-6980,-5772,-6185
-46,-111,45,6980,3972,1492
-77,0,-110,-6077,-4029,-3241
-72,39,-54,-2724,-3369,-2170
-51,17,-33,5219,1611,328
-79,6,-94,5575,-25,2043
115,-46,-56,-1178,-4572,-651
-124,29,36,4663,-1629,1004
-127,-27,54,219,-3423,-151
-101,-66,-21,1203,-1503,135
110,-122,-45,464,-755,-9
99,89,-61,-66,-357,-170
100,56,78,-17,732,265
39,93,50,595,1247,839
-32,76,-115,-2046,-1042,-617
33,58,-4,-802,-343,-352
84,53,-14,-1092,-29,-210
92,89,-30,-1233,292,-174
105,112,-40,-1488,56,-566
-115,120,-86,-1238,383,-517
6,-28,-58,4819,5587,1854
-94,39,100,4054,6397,638
78,-29,40,2858,4787,-480
-123,-28,113,-199,2702,-2203
-98,16,77,-1536,1887,-4004
13,14,107,1718,4236,-2577
-88,92,-39,-1183,2248,-4290
42,-94,1,-3577,1060,-3988
41,-2,-75,-3468,-811,-3737
-118,-85,119,-1007,1256,-3903
-57,-99,-65,1136,848,-3601
-81,-61,121,2496,2128,-1815
-61,53,61,-4019,2732,-5065
-92,-21,-37,-1826,4977,-1506
-92,100,-125,-357,2208,2199
-77,52,-46,11430,-701,3005
-43,51,118,2967,-2208,-4709
64,84,46,-551,-6801,-6218
127,-12,-11,8018,-2963,-5291
63,-78,87,8986,-929,-992
126,-41,-43,2155,-6296,161
60,-1,40,-880,1412,-578
115,-39,95,-618,-575,-1158
22,-114,-7,-1834,-1861,-1471
111,-15,47,-1941,-1147,-1557
80,-58,-111,804,-428,-813
122,-11,112,2105,-543,611
56,-114,-59,2812,-2766,186
-108,-108,-58,3746,-1182,2023
-104,-11,86,4135,1293,3283
-67,64,44,1909,-968,1840
-93,-6,107,-802,-2978,263
-54,117,-30,810,-2419,229
36,87,-20,-1188,-2059,354
50,112,124,-645,-480,33
-6,103,117,-453,-819,265
-23,99,117,-1303,-558,-251
0,99,33,-782,-99,52
11,93,7,-714,34,42
13,109,7,-1094,86,-298
-3,34,35,-2379,2339,-5821
85,68,-89,1741,4467,-1807
-93,8,42,2708,4998,-567
38,-117,91,-2052,-1285,-323
-89,17,-76,4758,1899,-1381
125,94,102,4281,-1002,-1937
-41,8,-83,744,-5035,-6377
-33,23,-125,7755,-2339,-3854
-104,108,111,10664,675,-4393
52,-2,-100,3510,-5446,2261
107,-56,-105,-1576,856,290
-3,-20,110,-835,20,-1883
68,-108,64,-3487,-1831,-1164
-123,-16,53,-3134,-1422,-1306
-119,61,82,518,705,125
98,-9,9,1490,-234,518
40,-50,87,2332,-2140,652
91,126,-82,3466,-3266,1218
-58,-69,-12,3682,-1356,3209
101,70,-35,-409,-2194,2307
-27,109,-68,3149,-2182,1427
-75,-39,76,705,-3649,-1135
65,109,-1,-123,-2341,-98
50,102,-46,397,-529,492
-27,106,-27,-591,-570,-88
-31,84,-115,-388,387,-134
-31,62,-128,-941,534,-526
0,62,91,-1591,371,-708
64,80,22,-2014,239,-818
108,105,-31,-1977,470,-740
-123,-122,-56,-2367,164,-836
-72,-110,123,-2922,-367,-674
-73,-94,60,-1300,9,-363
-76,-82,52,-317,424,-67
-93,-91,-117,-2055,-1360,-795
-71,-86,49,-134,-334,-3
-104,-87,-105,-1065,-1186,-359
-104,-81,113,-330,-1007,-140
-106,-100,-121,-83,-879,-56
-117,-105,-66,-472,-1131,-95
46,-89,125,-5520,-1393,-8200
38,94,64,2232,4185,-3169
-27,100,39,-2331,1794,-5758
111,119,110,-500,5144,-1400
-42,108,-79,767,2764,-220
-103,95,-35,3143,-1344,-1661
52,-88,108,5170,-4284,-4179
-71,-36,6,3380,-2552,-1497
-88,124,-107,5104,-4239,-4378
34,89,-109,10735,273,-1538
33,-27,118,4501,-5740,983
12,59,98,-837,-1794,-1820
22,39,88,-918,-406,-709
100,-73,-112,-660,-718,-791
94,14,37,-2709,-2192,-1050
67,31,-101,-847,-2068,-801
60,71,43,2816,-926,11
72,-1,-40,2494,-3080,8
96,54,-8,4667,-1522,807
54,-96,37,895,-3243,161
57,121,60,3806,-2537,-403
-76,-30,100,1753,646,1726
-8,-88,82,-1340,33,-351
-47,106,-93,932,672,332
-102,80,-36,-1531,-867,-519
-36,69,124,-1585,-197,-498
3,81,66,-2135,71,-684
49,-121,-6,-2053,444,-563
79,-101,-45,-1869,631,-661
121,-87,-74,-2198,582,-932
-87,-56,107,-1901,807,-759
-79,-70,89,-1611,187,-755
-75,-73,77,-1232,-327,-682
-69,-72,103,-1245,-741,-679
-57,-73,101,-1089,-808,-447
-68,-79,89,-151,-415,-92
-86,-84,-100,-882,-1191,-235
-94,-86,-100,-693,-1222,-157
-94,-81,-94,-245,-1008,105
-116,-76,-49,-837,-1165,-135
-89,-41,4,3732,4164,2114
59,-38,-35,4942,5424,1603
-9,23,-91,2354,5562,716
126,-122,12,1016,5296,-72
3,-65,-55,1241,5061,-635
-99,-47,-42,16,3389,-1983
-68,-91,-115,-517,1624,-1741
-79,-109,-20,-1737,2735,-2629
-53,-57,-78,-1992,1280,-1594
47,-98,65,-2503,1637,-1530
-119,51,16,-3240,208,-5075
101,-55,-17,-2132,-221,-5968
-10,35,54,4151,3039,-5079
-55,-110,-64,1621,2477,-4967
116,-69,-74,-4438,3419,-5479
69,-95,73,2309,4312,-432
-30,101,118,131,1227,-504
-45,-123,92,3437,-2108,-1720
123,-52,-113,3472,-3376,-4226
-120,108,96,3137,-4331,-3846
-66,11,96,10033,-3371,-5544
-18,-105,16,11409,951,1732
-32,-7,-88,-6258,-9705,-3701
-118,119,-80,6142,2231,300
16,-17,-106,-3552,-1125,-2052
-18,113,-68,-823,335,141
-124,-63,-127,-3648,-1175,-1128
83,35,106,-3621,-1742,-934
39,41,-15,2416,331,656
-31,-34,65,5118,-590,615
12,-88,105,1355,-4892,143
82,-44,91,4456,-1390,1679
41,-44,66,-181,-2451,-148
86,-81,-4,189,-1255,348
68,-92,-116,718,164,580
15,111,118,544,404,73
12,99,82,629,637,414
-26,84,105,-749,-150,-91
-12,83,81,-1130,-636,-367
14,77,58,-1410,-563,-641
-54,125,12,2650,4216,-5513
3,119,8,-1447,4542,-2555
83,-1,24,1885,4974,2196
-96,114,-106,4702,2361,1448
22,-27,-44,396,-780,-162
-123,122,-13,3910,-3702,-3708
28,64,-68,2740,-3577,-2446
-8,-69,44,5191,-4778,-4917
73,-33,-72,9225,-1779,-6443
-83,-125,73,10717,2428,6658
-69,76,-87,-7457,-5087,-3189
-114,-79,67,1116,87,-900
-104,-67,-20,-2481,-1650,-845
50,1,-22,-1621,-1830,-2017
112,29,-81,-1375,-2082,-1132
93,-18,17,3155,-440,390
81,-41,107,4424,-1862,1497
54,-32,11,3813,-2999,1470
51,-10,49,3488,-3589,2065
63,-18,-2,1201,-1502,504
90,-45,34,234,-964,602
57,-76,-27,2285,-513,1427
-29,-92,24,-55,-482,279
-26,120,-76,311,269,195
-44,73,-122,-14,501,114
-59,68,-123,-717,148,-199
-47,76,104,-1108,-123,-414
-10,75,72,-1533,-271,-876
47,92,34,-1887,20,-1085
91,106,-10,-1979,177,-1217
-107,117,-75,-1513,621,-956
-92,107,-72,-1548,244,-1067
-63,117,-97,-1674,28,-954
-43,123,118,-1235,14,-693
-40,114,120,-1258,-450,-522
-44,117,104,-856,-560,-194
-61,116,-118,-972,-1158,-78
-61,-125,-128,-386,-883,287
-92,-113,-79,-845,-1392,145
-100,-98,-85,-526,-1208,270
-60,-83,-58,6290,2288,-2457
-31,-63,126,-143,3383,-4617
49,-116,-120,1653,5714,-2415
65,66,-109,1995,5488,135
-91,105,84,1970,3967,2190
-64,-48,-42,745,-1308,978
-68,-32,-107,4687,-2699,256
-111,123,-42,3625,-4102,-1187
39,121,67,6243,-6005,-3933
-111,119,116,11455,-623,-4659
-87,-105,127,8745,-5488,6802
78,-52,24,-1639,1573,-2027
11,10,124,-3030,-1866,-1803
111,-23,-21,-1602,-823,-651
112,31,-4,-3616,-1657,-1824
95,6,-120,-33,-1228,-1756
86,-66,60,1613,-978,-301
58,-127,-86,774,-2776,133
20,-87,110,5927,-1068,1863
22,-48,-102,3107,-2842,1788
-21,-28,26,-103,-3341,-770
61,-33,-87,2706,-1544,748
45,-85,106,-1184,-2559,-396
100,-71,106,-162,550,225
48,-114,13,1761,1498,618
-25,97,-126,777,-42,372
-37,83,109,533,-442,295
-32,62,-101,-722,-1034,-128
-10,77,-114,-1114,-699,-445
31,90,111,-1602,-96,-637
74,102,48,-1612,456,-790
107,126,-14,-1666,622,-732
-112,-112,-57,-1860,775,-758
-84,-103,-99,-1624,519,-718
-64,-93,-115,-1649,8,-571
-53,-90,118,-1355,-125,-365
-52,-93,103,-1003,-291,-233
-61,-103,118,-1229,-845,-406
-52,-95,120,-602,-788,55
-64,-108,-105,-1023,-1139,28
-7,-86,108,-4984,2588,-5106
-99,11,84,-11390,1821,-1699
77,-128,-116,-3045,1834,-2928
-43,-66,81,1746,4190,-614
-56,32,-113,-1293,3681,-3184
82,-81,127,316,4884,1223
-83,51,35,800,3316,4275
-7,-53,12,-1476,176,2188
74,79,28,2545,14,2444
-23,84,90,3207,-3846,-1453
106,-39,103,7618,-2605,-1998
96,-55,-55,5449,-3226,-2506
120,70,-19,5400,-2659,-3558
-115,18,-84,4780,-3678,-1687
-93,101,-12,3564,-3730,-1498
-115,-1,-49,1296,-2376,-1950
-102,-73,96,2925,-1600,-1146
-45,68,-80,26,-4875,-3467
97,47,62,3524,-2564,-1619
123,43,60,1439,-3923,-1987
86,3,121,890,-3205,-2050
119,75,86,500,-1488,-1792
-128,35,47,1180,139,532
-104,63,-33,33,408,541
107,-28,-70,-1065,-856,-147
67,34,-15,2357,1856,1734
-56,35,-90,-1611,-769,77
-34,40,51,-685,-236,238
-4,55,8,-839,239,212
12,66,-9,-1062,197,202
39,50,-96,-836,722,160
64,87,-57,-1177,181,-90
82,53,-98,-970,-27,-314
105,46,-89,-1308,-508,-297
112,52,-127,-667,-205,-204
88,75,-68,-1489,-899,-656
111,76,-107,-993,-555,-496
121,93,-86,-1220,-550,-464
126,123,-97,-1227,-618,-534
-110,-125,-88,-1099,-375,-410
113,85,99,2074,6074,3177
-65,-64,5,1334,7091,2619
10,-46,54,1050,6666,1258
0,44,-128,910,5899,-1208
17,78,57,-617,3618,-2073
15,26,77,-5457,614,-3897
-110,41,42,-4480,1514,-1212
-77,113,-112,-5022,2450,-655
-59,121,-51,-201,2839,-1777
-101,-67,119,-3835,186,-4134
79,-82,11,4544,5959,-500
7,9,-35,95,4359,-2925
56,-38,96,1298,4988,1002
89,81,83,5016,2360,3205
-75,-29,55,1192,-1974,-53
-67,-50,10,4953,-3599,-597
68,126,127,7094,-3805,-2488
-1,74,-22,6004,-3715,-739
126,15,-18,6550,-3617,-2878
123,-82,6,935,-9664,-1058
87,-45,13,-618,-4189,-4044
-86,22,7,4764,2343,953
-118,-48,-121,-2091,-2200,-1345
-109,-76,125,-1319,-1448,-914
-81,-23,31,-1066,115,116
97,-83,-111,-3002,180,-632
117,91,-24,-3716,333,-1112
-96,-98,92,-4302,-671,-2016
109,68,-62,1554,119,-587
82,74,-42,3675,-930,770
31,-105,-63,1470,-4855,-1091
105,-48,-102,4146,-3261,691
-99,-69,85,4752,-2407,670
-76,-9,41,733,-2442,626
-55,-23,70,1693,-1215,796
105,-98,-7,191,-148,-362
90,-10,-117,2350,1168,12
37,23,-90,462,646,1119
-38,25,-61,-1492,-495,161
-16,21,72,-648,-240,22
-74,72,25,2328,7117,1275
26,41,66,-3104,3043,-2731
-1,26,28,-1406,5030,-1236
9,-2,-36,-4796,1940,-2777
-94,105,28,-6124,976,-1002
32,-47,39,-3956,2256,-971
101,-60,110,-3455,1521,-2656
-27,-47,-63,-7499,2268,-2876
-23,-81,-82,9016,4575,3974
-62,100,-35,-2138,3984,-292
126,127,-76,6219,3958,4046
62,75,90,1770,413,1937
-39,-96,-10,2256,-480,65
23,-106,11,5178,-4538,-4120
-20,-30,55,281,-3385,-2322
-114,-48,-58,4670,-2733,-5384
97,-84,-113,7089,-1600,-6422
50,110,-15,9374,1764,855
-93,82,-23,-2887,-5375,-1846
6,69,-90,2417,1967,-1358
-38,94,-97,-2520,-2261,-1310
-46,-64,13,-1004,-1836,-844
-23,-99,110,-640,36,89
-43,28,13,-1132,31,-249
-97,12,-116,-629,-527,-534
69,14,24,-513,-2067,-459
34,-60,18,3696,-2308,375
75,-82,-93,1062,-3443,104
76,-63,9,4942,-2102,811
88,-37,-62,1267,-2206,481
89,-114,-65,2311,-1688,461
36,-84,30,706,-2761,-62
84,100,16,778,-2210,-455
121,37,-53,1400,-458,199
65,9,-21,1053,197,85
34,-20,-6,186,379,-392
74,-72,-86,-679,706,-161
73,-34,-114,-2169,61,-328
104,16,50,-2849,-65,-649
-110,81,-97,-2100,388,-167
-13,12,120,3185,5491,2742
76,72,76,1673,5144,1733
-107,-56,-122,1689,6057,-586
95,45,-96,-169,4452,-2636
-128,-16,96,-456,3596,-2437
102,113,38,-1240,2775,-3255
123,18,-52,-619,3504,-2923
-40,55,-38,-5047,-892,-2714
-27,-35,-63,-7498,2172,-1883
-55,-104,15,9285,3089,794
-127,43,1,-9412,-4360,-7743
-66,-64,102,159,4647,-2107
-103,46,-6,1788,5267,-1308
-92,83,67,-4719,4078,-1337
39,66,87,3515,4329,3266
-46,-80,-77,556,-689,1013
71,-104,-13,5889,-1917,1244
40,71,-105,2884,-4614,-2665
13,-30,35,6780,-2125,-2931
7,104,-113,3893,-4269,-3406
36,113,-9,2785,-5650,-6002
-81,-88,117,7333,-1541,-1442
103,50,124,3074,-1331,2635
10,101,-114,-554,-666,-2444
-92,111,-127,-1599,-995,-768
-106,106,32,-523,-898,-360
-74,-17,-81,-694,549,146
104,-85,53,-1795,679,-746
-99,95,-29,-3745,-600,-1444
-125,-120,89,-4375,-1841,-2336
94,97,-68,1227,-1234,-365
-32,18,-88,3823,-2104,-1054
58,-28,-110,2511,-4764,-616
125,-82,36,5154,-4345,-1303
-4,1,-111,4821,-1545,1188
-47,-60,-76,-357,-2669,-48
126,122,-25,1156,90,-384
112,55,-82,2003,1762,-150
69,25,-104,1744,1950,328
-21,9,-58,-529,495,37
6,-96,-91,-3777,2321,-4658
-23,56,126,-802,4183,-2794
31,77,-87,-27,5141,-1251
-31,1,-103,-498,4614,1904
-19,-47,127,3009,3359,3864
52,42,-85,3148,735,2708
57,-116,-114,3400,-2786,-441
79,-111,-34,3094,-3639,-2601
46,-27,-77,4851,-2689,-3675
-9,61,-36,4933,-5271,-5654
14,-86,48,8363,-1350,-2635
-46,-53,69,6533,-2826,1395
96,17,116,-401,-4739,-2299
-19,-67,-35,544,-1771,-1837
-21,-85,-105,-1920,-1949,-1945
-48,36,10,-1322,-1336,-2154
-42,47,-30,-414,-2268,-1858
108,52,-62,2626,-2829,-2108
-52,-14,-87,512,-4858,-2261
46,-84,-93,4672,-2376,-1129
95,-33,-2,2269,-88,1101
-128,-53,-28,4345,1444,609
50,-128,-4,3519,1642,1173
-114,-100,54,2441,1648,1741
64,80,-123,-2303,-910,-418
125,49,-100,-26,715,172
-111,49,-79,-989,1045,-460
-26,92,126,-2261,1027,-976
65,98,32,-2873,845,-1454
-78,68,-106,-2570,1150,-999
-49,88,30,-194,1685,73
-83,86,-71,-2362,-765,-1263
-12,105,49,-761,327,-303
-49,91,114,-1487,-703,-617
-83,112,114,-1399,-1057,-575
-71,122,119,-995,-890,-275
-84,121,125,-594,-617,-82
-111,-127,-98,-591,-828,-82
-121,-125,-74,-897,-1074,-207
-115,124,-81,-530,-858,-115
73,81,-123,-7286,2929,-4451
36,-122,59,-5535,4962,-3292
74,-120,78,-10026,-1409,-766
-96,-39,1,3552,5581,1322
-123,-119,-97,223,5253,-468
77,-98,-93,2231,4868,3204
100,-105,-85,3498,5208,3806
65,-49,-10,942,1439,3097
-122,92,32,2710,-2972,2848
-48,-88,-119,3896,-3818,-2203
91,-69,-51,3953,-5754,-5473
111,42,62,7285,-732,-3406
103,19,-65,5905,-5178,-6630
22,30,-48,9862,-3669,406
-122,-111,27,86,-6615,-2068
-31,100,70,1399,-250,-1621
112,61,-37,-549,-1774,-886
-32,37,-107,-1073,-2508,-1812
-45,73,47,13,-1964,-1977
-65,63,-124,-1298,-3939,-2588
-24,-94,53,3682,-1959,-1718
-22,-103,-88,5774,-289,812
-51,74,-34,-859,-2244,-862
-118,81,-101,2811,2257,1192
-6,90,9,948,1586,393
-77,63,-24,-239,716,303
-52,7,-127,-1438,154,41
-13,18,26,-763,934,506
0,38,-4,-1097,771,127
52,95,-52,-1624,520,36
71,92,-86,-1616,65,-516
103,95,118,-847,452,-311
94,67,-103,-1309,-72,-687
-117,54,-113,-960,244,-457
-92,72,-101,-1103,210,-235
-91,76,123,-772,107,-266
-95,72,-102,-1310,-668,-398
-79,91,118,-484,-218,8
-97,86,-95,-825,-664,-192
-89,102,-99,-529,-483,124
23,108,30,7610,1987,5151
-16,12,99,836,338,597
69,-91,64,2721,-3274,-2101
121,124,123,5312,-5030,-4965
117,-93,-100,8462,-2571,-4218
31,-37,-40,14079,5805,6956
-63,11,81,-15699,-8184,-4333
27,-71,40,3629,2468,-1880
-85,6,81,-1805,-2355,-171
118,-21,-92,-304,-1605,323
123,35,83,-540,-1869,-337
-38,-48,-106,-860,-335,-2672
-109,-72,119,608,-1297,-2071
110,118,87,90,-3172,-2017
-9,28,9,6114,-2837,-1678
-68,0,-5,4358,-3875,-290
-57,-22,-91,8060,-4385,960
-53,-45,-106,1261,-5964,-1337
103,-69,58,641,-3256,-743
-104,0,65,2487,-1947,982
-33,-30,-99,2243,-1555,1036
91,124,50,3825,1013,397
-42,-124,111,2542,1225,678
112,94,-66,-2848,-714,-829
-117,20,-3,-1458,-273,-567
-70,11,-91,-1666,232,-755
3,35,125,-3593,90,-1377
103,46,-52,-4095,449,-995
106,-123,48,-871,1210,265
86,120,-127,-1979,-197,-1129
126,-104,86,-1061,301,-798
-103,-107,125,-1296,-24,-785
-105,-127,-124,-1040,-50,-673
-105,107,-125,-1050,-331,-680
-95,92,-121,-826,-601,-366
-103,98,-104,-887,-941,-307
-94,105,-94,-695,-923,-40
-112,124,-92,-695,-836,22
-120,-118,-74,-690,-967,87
114,-99,-77,-624,-737,35
-126,49,-105,5417,-3944,-3243
-104,28,-39,7469,-3875,-2515
107,-38,15,8736,542,-617
-15,-106,70,-5094,-6844,-1121
-128,-29,90,5884,1129,-440
36,80,-30,-2985,-2820,-1559
-125,77,-110,456,-670,192
79,62,-7,174,206,45
98,-3,-113,-2121,-180,-1310
-83,-119,6,-3262,-1539,-2174
114,-128,33,-1562,-2303,-1486
56,69,-76,3756,-1570,-298
35,-28,-113,3920,-4556,24
78,12,26,4558,-4489,-3
-70,4,-31,3886,-4009,298
-29,30,49,1932,-2726,338
-51,-45,-119,1826,-2170,1251
57,-110,119,2130,-1036,597
-11,87,96,1344,537,209
-74,106,41,150,1326,-138
-85,73,-70,-667,1332,-303
-76,32,-125,-663,839,-380
-42,41,85,-724,858,-437
33,51,64,-1847,343,-1078
99,48,-8,-1537,652,-1051
-109,55,-32,-1374,464,-935
-57,56,-73,-2146,-56,-986
-53,79,-116,-1128,52,-412
-64,101,-104,-1841,-511,-505
-79,-122,107,-1047,-270,-296
-91,-119,108,-797,-432,-209
-108,121,125,-785,-874,-224
-115,-124,-101,-678,-1198,-125
-108,-124,-65,-911,-1369,-107
-114,-121,-49,-775,-1017,-58
-112,-112,-49,-562,-497,61
127,-111,-23,-1218,-625,-177
122,-106,-60,-1086,-262,-237
-116,-94,-84,-970,-91,-159
-118,-84,-94,-1039,-303,-329
-87,-20,121,4978,3516,2491
-113,57,42,4381,1435,1112
-54,103,104,4064,-970,-1463
-58,102,52,2280,-2862,-2512
49,-60,-108,5320,-3972,-3919
89,-97,125,8194,-2512,-2350
-3,-116,-110,8973,975,-2524
104,-72,-37,-4429,-7487,-1330
87,-6,7,5431,2141,803
127,-56,87,-362,-2629,-1461
-24,41,-49,-516,-2230,-542
-79,-86,94,-361,-2072,233
120,-51,27,-363,-2093,-1152
-126,-49,-37,386,-1979,-891
-102,-39,12,-454,-3085,-540
59,-8,-6,1376,-2345,-820
64,-18,41,850,-2438,-1454
-121,111,109,1488,-1990,-598
-126,-110,126,3123,-892,643
-78,56,-65,-176,-607,219
95,-116,-16,4377,2998,2514
-59,112,-108,1757,979,945
-90,70,-98,1363,732,942
-111,46,-30,-1620,-709,-533
-43,19,-113,-1268,-294,-453
48,21,79,-1189,586,-431
61,51,53,-1719,698,-819
100,69,5,-1727,688,-970
-88,95,-56,-1981,698,-1073
-52,104,-91,-1628,555,-982
-25,115,-122,-1327,219,-805
-36,100,-126,-1259,-366,-809
-29,92,125,-1162,-752,-565
-18,105,118,-926,-798,-124
30,-108,-113,-670,-172,147
41,-118,110,-439,-217,367
36,-120,99,-44,218,507
33,91,103,290,267,482
93,64,107,825,915,1063
-128,73,115,2637,2774,1704
7,78,117,-1244,5173,-4948
-88,37,42,-1917,4121,-3030
108,62,-38,-2654,3898,1196
-77,105,-67,955,3772,3344
75,85,-18,656,3197,3888
-123,-63,117,7124,480,3360
-81,-3,98,1407,-1625,752
64,74,-62,3080,-944,-186
104,-6,-108,2430,-3436,-3002
66,40,-24,4504,-3770,-5666
102,32,-69,9118,90,-4273
-74,51,-83,5542,-2809,-3610
-46,-1,-20,4008,-4009,1143
73,-81,37,5482,269,2043
69,42,99,-2342,-1077,-1196
67,-17,19,-3309,-2245,-940
61,-26,-37,-1679,-2092,-1880
87,33,126,-90,-924,-804
92,-6,91,2218,-1084,-612
49,-104,-29,1593,-3619,-950
104,-58,26,1991,-2681,131
110,-72,-64,679,-1416,-24
44,-109,-52,1488,-1529,-501
51,57,3,808,-1574,-399
106,-10,-20,150,-498,-247
-118,40,97,1246,1643,1066
42,69,35,1533,2018,904
-27,38,78,718,953,333
-16,29,107,-849,-163,-393
-44,-54,-113,-947,-467,-240
-50,-45,-108,-963,-509,-297
-43,-46,-106,-1021,-477,-291
-45,-46,-112,-942,-399,-242
-42,-40,-114,-906,-420,-230
-45,-35,-106,-1145,-555,-322
-42,-34,-112,-1057,-540,-299
-43,-25,-106,-1121,-618,-329
-34,-31,-113,-945,-397,-219
-39,-30,-117,-934,-368,-268
-37,-28,-116,-1071,-530,-279
98,26,59,2868,4992,3245
-53,33,-51,2066,5296,2977
89,42,52,597,4304,2167
-10,-36,-81,-2902,623,-3772
105,-63,1,-773,2328,-4162
-29,27,41,-2336,1808,-5726
-111,82,22,3268,4899,-3032
46,-76,59,-1219,1934,-5154
67,-123,-63,1789,5381,-2301
86,69,-121,-560,3421,-261
-57,30,74,222,4009,2898
93,-5,-99,4384,398,924
125,92,-29,1605,-3440,-581
-127,-70,106,6907,-2960,-1061
-104,119,-81,4417,-6121,-3391
-27,52,33,8462,-172,-3565
-41,56,7,9512,-2997,1582
15,29,-90,-4173,-6182,-3207
-55,16,49,6130,1122,1907
-78,84,77,-1925,-1916,-956
-84,60,-49,-420,-3122,-798
-54,-34,26,-1383,-2774,-765
-101,-11,-98,2090,-1106,338
93,-1,-18,1744,-2401,106
45,-24,-114,1676,-3113,18
73,-57,-63,2343,-2145,193
-120,-116,-24,226,-1340,353
52,120,-56,2459,-333,1124
61,114,-62,1827,597,1676
-96,107,-27,1641,391,1091
117,101,9,-535,-411,289
-93,77,-54,-492,107,13
-90,58,-106,-894,503,-579
-31,46,116,-1345,817,-936
52,66,70,-2008,841,-1213
-104,55,-45,-1369,972,-1027
-68,44,-59,-1121,812,-768
-53,66,-61,-1498,308,-926
-23,82,-84,-1897,-352,-1005
-14,84,122,-1131,-244,-425
-56,-108,36,4265,4014,3204
-118,78,61,1950,3804,1893
-126,98,-84,1398,4374,1511
94,80,24,741,4884,1340
-7,125,-39,-927,5092,529
-106,-97,-32,-297,5867,-269
98,-47,-125,-455,5820,-495
-77,-68,56,-2064,3973,-1873
-93,-81,-64,-3363,3289,-2185
107,-77,127,-5510,1324,-3091
110,101,95,-6596,3507,-1151
110,-5,106,-858,1837,-2197
-78,17,-24,144,3731,-4011
-70,116,-16,-1879,3657,-2323
23,26,-103,-5,4377,-3
-107,35,123,2967,4869,2968
83,-102,67,5722,-257,2344
70,-20,-119,6605,-1899,-2092
89,9,9,6589,-52,-1533
42,-23,97,1845,-3985,-1385
-115,-83,-101,2205,-5523,-3807
108,-36,-87,6438,-5253,-6381
-49,-84,-40,12935,2343,5481
-18,61,-123,-1029,-4553,-540
71,-75,125,-2483,-1064,-2973
-22,-123,87,-3075,-1257,-1733
-98,-81,68,-434,-1141,-1382
-100,-15,7,-2787,-1487,-1497
96,-2,-123,-1301,-1846,-1362
63,-54,93,2904,-1628,-330
117,-101,1,-175,-2877,-733
112,-52,-70,4063,-598,1043
85,-36,-105,973,-1712,618
69,-71,-73,1611,-2075,337
-89,-111,-118,-234,-689,918
118,-78,12,2503,966,1867
39,-93,102,1225,-156,1265
-34,-122,111,1185,-102,935
-70,108,-75,-1079,-1051,-20
-43,77,126,-989,-548,-117
-21,8,-57,-3630,2191,-5353
-27,-102,106,-3520,3718,-3945
-53,126,-88,-954,6433,-3883
30,126,-113,-5484,2586,-4251
41,-70,43,-1111,5176,-1623
-8,127,93,-3486,3603,-3615
-50,79,-48,7277,7507,3296
48,51,-98,3445,5154,1735
39,47,-46,-4578,-645,570
104,-112,-59,2833,-2550,53
73,-85,120,11212,-6256,-5889
111,-66,-13,12330,2616,3259
58,81,27,4821,-7670,-3096
101,-120,-39,3948,-6447,-1219
-31,-13,86,-3268,-4355,-3634
-64,86,-108,9193,4361,3910
56,20,-119,-4657,-4262,-1992
-82,-33,-115,-1482,-747,-618
125,-61,20,498,-493,-495
90,-17,-44,-918,-1229,-453
6,41,-109,348,-2007,-417
25,76,-65,-740,-3855,-1078
48,60,-76,2071,-3056,-1170
122,34,49,1397,-2895,-545
-113,-15,124,3936,-1318,113
-87,-80,21,699,-1779,-308
112,121,-83,3516,1275,1095
-22,94,42,640,-181,15
-73,54,21,-694,-457,-221
-60,46,-26,-2027,-669,-571
-15,51,103,-1593,407,-461
43,91,9,-1693,1159,-534
84,121,-45,-1699,1389,-627
-99,-103,-99,-1555,1432,-486
-63,-97,106,-1070,1147,-590
-41,-102,119,-1480,29,-633
-65,-94,125,-1603,-548,-806
-43,-102,102,-1826,-754,-744
-24,-90,88,-1248,-378,-177
-58,-76,95,-894,-408,-211
76,9,11,4020,4758,2551
-56,78,-84,2720,5369,3037
9,46,76,768,2749,1216
18,42,72,534,2617,986
-35,60,96,653,3093,10
-55,124,-114,132,3135,-879
-72,-55,-115,274,3842,-956
44,-61,-102,-1930,1745,-2753
78,103,-15,124,2754,-1798
6,96,49,-1077,2634,-2843
36,-115,-13,-2300,2916,-3458
-38,-71,-100,-6449,-25,-2200
124,-63,5,-2504,5301,88
-118,-96,75,4726,2345,-2245
-128,7,-102,-7905,589,-6474
56,9,-83,3375,4509,-82
1,45,-12,-3113,1217,-1436
76,-100,-59,3600,2384,5472
73,-10,7,11117,464,2110
43,-122,-29,-2356,-3761,-5574
-87,40,-5,9471,-1704,-1053
-88,6,-83,6722,-3071,-3684
80,102,19,5898,-5427,-1596
-112,-46,31,6535,-2800,-3001
82,-18,-118,-212,-6075,1702
-23,-11,2,5408,712,-534
-115,-30,-117,-3534,-2685,-1715
-105,-55,123,-1105,-1179,-319
-118,-17,10,-47,111,526
45,-124,-37,-2472,-818,-405
100,-44,-20,-2581,-336,-800
-73,27,-113,-1626,-194,-1137
-70,34,69,-2278,-1323,-1253
119,17,-37,373,-2668,-147
83,32,-52,5061,-1443,1002
113,-17,-45,5600,-2864,2270
119,-31,19,794,-4533,925
-105,-1,-9,1078,-2707,586
-65,42,-52,1381,-965,1626
59,-15,-19,2879,-665,1078
