AccX,AccY,AccZ,GyroX,GyroY,GyroZ
54,-126,123,5243,2867,-4380
-52,21,11,4595,3834,-4512
-120,85,17,2375,4585,-6009
32,-52,-101,2378,4935,-5716
-30,99,40,472,4034,-6866
-78,96,-28,-1492,3764,-5369
-123,117,24,-648,1245,-3573
61,117,-64,-1069,-731,-1633
72,-85,47,340,-877,-1560
64,-22,38,915,-2568,-1266
82,126,-86,624,-1734,-1962
-103,101,45,2162,-3155,-386
59,-120,61,1497,-1911,-733
57,-116,67,1456,-2832,236
-9,104,106,152,-4078,1617
-94,-3,97,-1766,-1678,2102
111,-120,88,191,-3275,3113
122,59,-109,-2388,-1776,2230
-109,-21,-91,635,-1287,-320
-13,-21,-45,550,-927,-843
52,124,-113,-358,-666,-545
18,-106,2,-637,33,-581
18,83,-111,-10,-571,-664
-5,-29,-25,4,-843,-842
-19,-46,-58,-1072,-518,-1045
-59,-81,-101,-735,-508,-1261
113,-83,-120,-1115,-388,31
120,26,-96,-1939,579,743
-107,73,-98,-434,-1014,1563
54,-106,-64,537,-769,1569
55,-51,-81,815,-1235,1663
-65,-61,-49,779,-1013,2283
-35,-74,-92,1953,-1955,1984
11,-88,23,634,-107,1991
-40,96,-93,1271,81,1772
-44,61,-86,347,-1342,2421
-45,6,-22,482,-161,1817
-39,47,-48,450,-86,1078
-112,29,-89,707,-121,248
70,-14,-105,9,28,-634
49,97,98,6025,3339,-3774
-124,89,87,3910,2303,-5334
28,12,-27,3067,4832,-5465
71,-72,45,2346,4097,-5977
-32,-2,-28,484,5369,-7188
-18,-78,-69,1250,4534,-5782
-11,-78,114,-301,2337,-4027
95,-104,-43,1559,-1496,-1464
15,117,82,441,-2483,-979
-28,42,-118,674,-2436,-817
-66,-62,115,2126,-2004,-1594
-26,-63,14,2907,-2225,-1591
91,-26,125,929,-329,-1981
-48,-10,-14,2932,-2658,2480
15,101,-58,-3482,-3334,1874
-21,-83,120,835,-5279,5041
110,-52,-44,-7373,-2314,3350
77,-33,-96,2365,-40,-1457
-1,55,108,2467,-798,-2424
-110,-48,-30,-1190,-1272,474
-77,78,-41,-939,-302,-384
-24,12,92,429,-931,-405
-22,-65,-87,-208,-1350,-384
-51,-80,82,-545,-373,-1039
-95,-99,104,-505,-39,-483
-67,-83,110,-1052,-270,693
-83,-1,46,-98,-365,1791
11,-102,118,-87,-1134,2349
120,-102,-120,151,-2056,2606
-55,118,-88,2198,-389,3025
88,126,-85,136,-74,2810
16,-102,36,704,-1243,2001
88,38,0,-124,-1155,2930
27,64,5,26,406,2034
-39,-50,-87,1445,-642,2577
-31,-13,-113,508,-149,1511
-103,56,-110,-826,5,416
55,-47,119,265,-107,-577
27,114,90,1158,-302,-818
19,66,98,259,329,-1486
-89,-79,60,6354,2599,-4526
-34,65,59,5684,6023,-4453
-86,4,-61,7300,1716,-3601
-40,15,-42,4053,769,-6058
7,-18,2,-944,3452,-9436
-97,-40,58,-80,5452,-6380
-90,86,91,590,3387,-4805
125,-85,106,-2175,2556,-2168
105,-52,77,844,-925,-33
-45,33,-21,321,-2280,-968
-50,-51,-99,721,-1961,-1487
17,14,70,2097,-2952,-1427
85,108,4,2892,-2807,-1499
112,-77,25,2829,-2605,-728
-36,-123,44,309,-689,-537
70,-119,-95,1691,-2604,2574
52,50,-26,-4570,-3269,272
114,-16,1,-2589,-5258,5419
-34,25,-18,-2404,-5367,7089
40,68,-35,-3960,1121,-1423
73,117,-125,3555,-2285,-3240
-63,122,-115,-1254,-96,-63
46,-86,-7,-1775,69,-1060
-19,-59,119,836,-220,-856
1,1,-125,-965,-937,-1243
-68,-87,49,-1328,-1316,-913
-92,-81,109,-1111,-447,-772
-103,-77,-89,40,-730,48
-52,36,-60,-587,-780,973
-46,32,-68,994,-1429,1643
110,84,5,508,-1877,2208
-65,83,51,1605,-790,2656
35,-87,-51,2032,-194,2577
61,-23,-92,495,-1063,2281
10,-29,-14,-539,-411,1639
-65,55,-42,823,-534,1689
-92,46,-93,731,-292,1394
122,3,-115,533,-581,1396
82,3,-100,359,-301,449
54,-4,-107,436,-95,-202
110,-87,-100,3871,5656,-4952
-28,-53,-30,2347,4492,-6433
88,100,108,476,6385,-6278
-29,108,-74,-386,5151,-4586
-8,47,-109,-3283,1841,-3938
-102,19,81,-2375,3244,-2143
22,-26,-23,-1224,936,-1619
-119,37,-123,-1061,-167,-782
-19,59,-83,-166,-546,-1114
86,-114,-35,1241,-1578,-1369
73,22,-7,2098,-1292,-2132
67,-75,-74,2962,-1733,-2279
79,11,87,3904,-2006,-2278
127,-87,-38,4053,-2654,-398
-53,19,123,541,-3042,1693
123,51,72,-2342,-4263,2456
74,-72,3,-103,-7282,3855
-61,-25,-82,-3329,-4042,5226
36,2,-125,2162,1111,-818
-14,50,-78,202,-1773,-2543
49,12,52,-1072,-1106,-751
-70,-31,64,127,-734,-404
-25,-16,-80,84,-92,-941
-32,71,-56,-1818,-314,-1310
-120,-93,101,-74,-993,-788
115,-65,70,-85,-471,-548
77,-54,18,-202,-2175,925
-99,89,-20,-1473,-1740,1605
0,90,49,1178,-1482,1664
86,-61,21,857,-1311,1665
-56,-96,62,1530,-34,1812
1,-116,-42,1349,169,1632
-40,-6,125,-1105,-1425,2474
-12,-12,-57,-12,-451,1437
-94,-104,75,2431,-356,1236
68,-57,-53,661,-604,613
27,103,-69,622,265,-420
-21,21,-108,610,199,-522
-42,-48,121,21,150,-783
-19,-94,123,-423,300,-1132
32,-52,-95,2722,3703,-4059
-71,-55,-92,5155,3965,-4331
-54,-72,-90,4841,3970,-4583
-75,49,-96,3466,3732,-6836
25,-76,-4,277,4978,-7742
-97,-20,-30,861,4011,-6645
83,44,56,-1433,3405,-5459
-35,95,93,805,740,-1949
-33,-125,36,-703,-2041,-250
55,-89,-106,566,-2041,-7
-49,125,-14,1096,-1843,-711
-109,-45,91,3460,-2381,-494
-16,44,-88,2825,-1917,-474
101,15,74,3189,-2538,873
-104,-73,90,703,-4058,3439
-98,83,75,-6068,-1603,-508
22,-66,23,-1255,-6646,5107
77,-32,60,-6992,-2294,2860
-99,-75,-99,-139,-407,-268
51,116,-109,4129,-360,-3561
-46,121,-7,-887,-234,-245
-57,-10,-83,-1404,133,-650
-41,-54,-35,405,-1332,-487
-37,-50,-88,-639,-1086,-561
-59,-62,-115,-235,-169,-873
-66,-35,-122,-898,-815,78
-65,59,-119,-161,-1419,408
-88,69,-53,1215,-1176,1061
44,127,1,-146,-1262,1833
20,87,-12,1190,-639,1997
-75,124,-57,816,-724,2446
-25,-126,-75,977,-572,2277
-48,-90,-76,153,-735,2003
-34,109,-52,1154,-572,1907
-37,95,-82,2058,-204,1488
124,25,102,1448,67,1141
71,36,125,190,-126,390
40,-5,125,-164,333,-388
21,-115,-128,-290,196,-505
14,98,111,-193,169,-589
-18,-51,35,2852,3731,-4507
101,59,-123,5107,4702,-4399
-114,-20,-125,6538,3731,-3689
58,0,-104,947,2713,-7162
119,8,68,-261,5593,-7149
38,17,6,680,4628,-6091
109,-96,-20,-522,3559,-5553
-111,-97,110,-73,2209,-3684
49,11,-36,718,-104,-1862
-108,-122,71,-56,-1473,-479
-29,-29,-47,954,-1746,-396
84,121,-24,2378,-912,-1371
45,-64,105,2998,-814,-892
-122,-17,-62,3561,-1143,-561
89,61,-37,1,-49,-893
24,-49,61,974,-1255,1950
-39,125,-4,-3191,-3802,2661
15,24,-15,-2112,-8438,6727
-69,25,-86,-5257,-4703,5286
-79,-127,-36,1646,1277,313
-23,98,47,1115,-3753,-2056
38,-49,-41,-1041,79,-643
20,-14,43,-97,124,-830
41,-8,-87,-148,145,-1124
26,-20,-22,-822,167,-1335
-10,-65,-114,-504,-627,-1120
9,-31,-95,-1189,57,-981
-39,-30,-79,-689,107,-253
-34,-36,-90,363,-254,736
-16,38,108,571,-796,2070
1,118,-106,859,-724,2348
-90,-89,-77,641,-275,2859
-26,-119,111,1050,77,3061
44,-58,82,671,-781,2505
54,105,-128,826,-774,2346
5,44,-110,281,-588,2614
52,-8,-102,436,-467,2081
-45,-51,-119,325,-351,1512
-72,-48,-106,-418,-153,791
99,-82,127,268,-378,228
-44,77,111,5020,4476,-4806
-93,-4,24,4145,2357,-4646
107,77,20,1308,4737,-6447
-34,-116,81,516,5370,-6173
-6,34,-96,1593,4519,-5403
79,-121,78,275,4073,-5221
-101,-40,78,-632,3030,-3760
-57,3,-66,-663,1593,-2705
-70,-53,122,-538,268,-1253
57,-43,101,-565,-1679,-260
-43,-112,-88,626,-932,-1202
-110,-29,-35,2191,-1057,-1582
60,78,-113,2736,-1600,-1505
111,101,-40,3372,-1563,-1587
-11,-19,126,1858,-2576,263
46,121,101,-900,-3434,1918
-84,-22,-33,-3996,-4350,885
79,33,76,-2741,-9537,3757
123,88,118,-4334,41,1201
24,53,-52,4983,975,-999
61,87,-88,1582,-2371,-931
15,-110,63,-1838,-689,-783
-19,25,75,1053,-487,-1049
-32,40,112,-87,-549,-1078
-93,-37,-7,283,-1426,-958
-118,-53,-67,102,54,-1257
78,-54,-105,-270,-973,-78
105,-28,-60,1164,-554,275
100,3,-91,324,-708,1508
-53,121,-57,-413,240,1637
17,-73,-56,121,16,2064
101,-74,-88,439,-246,2099
-49,-89,-59,552,-494,2452
-57,127,-111,1765,-843,2841
-15,-112,-68,594,-779,2695
11,60,111,1768,-329,2048
-51,41,90,709,-431,1837
-95,-11,93,362,-317,1255
-109,-42,102,570,-158,794
91,-66,88,1044,-300,60
-30,8,-60,3694,2686,-5475
-56,117,-71,2699,4528,-5710
21,6,-100,3276,4605,-5053
34,-37,88,3723,4600,-5793
-124,-62,-23,2688,4419,-6205
-62,-34,4,1801,2990,-5828
99,-28,-61,-476,2719,-6639
93,16,-76,2096,1766,-3402
86,-29,77,1041,520,-3545
-69,-102,-90,991,-665,-1637
-11,-80,-30,1945,-608,-701
-76,44,-127,2613,-544,-419
-11,75,83,2117,-536,307
-63,-14,-104,1889,-1676,2105
82,109,-124,366,-2084,2021
-29,-121,-11,-1340,-4629,4665
-54,81,101,-3886,-5504,2766
78,43,-127,-5089,-5123,1394
-29,-58,34,-111,-2505,3707
82,-126,-78,-1084,-780,-1485
35,-69,54,2587,-760,-2508
-85,-109,123,731,-383,-334
-106,47,117,-381,-997,-516
-81,-45,95,401,-643,-452
-77,-21,-22,-369,-321,-690
-83,-100,-101,428,-378,-484
-95,-96,-127,679,-894,301
-90,-48,-97,285,-375,739
-38,-45,95,1531,-399,1156
13,-17,90,29,-511,2136
88,-66,53,1857,-268,2589
-55,-69,44,2624,262,2946
36,-53,6,1088,1028,3297
97,120,-42,990,1342,2850
-91,96,-42,649,824,3193
-85,-115,-16,222,306,2696
78,-102,44,-386,199,1451
18,116,62,-128,614,849
-88,79,48,342,89,742
-116,11,56,956,-41,532
-98,104,-122,4925,3705,-5387
54,-1,-104,4740,4968,-5453
32,44,51,2821,3176,-6677
-28,41,47,-601,6631,-7960
-5,-44,71,2797,5250,-6218
-73,76,107,44,4644,-5606
73,-16,54,846,1921,-2289
46,43,-28,143,-376,-527
49,-7,-86,85,-1258,-522
0,102,-58,1806,-806,2
8,-77,51,3001,-1210,-99
71,-13,-118,2697,-1743,204
-94,19,126,3689,-1714,935
13,60,64,-197,-3651,2841
104,114,-26,-441,-5538,3517
-27,12,114,-4749,-4393,458
16,41,-65,-2616,-6126,4983
70,-108,-91,-4571,1171,1760
-2,-81,-108,3017,-1142,-3111
-19,-11,30,523,-867,-1235
-112,-62,-21,-455,186,-699
-117,-14,40,-252,-718,-327
-54,5,-1,-856,-543,-757
-51,-75,97,129,-1199,-1130
-66,-84,117,-1533,-1234,-851
-121,-71,-100,-672,381,-886
121,-44,-50,-332,-772,651
-100,-4,-91,1155,-336,1307
-13,45,-107,1720,-300,2002
65,-107,36,1679,-778,2850
-123,-46,71,672,-158,2561
-74,-16,-88,-105,-666,2523
-52,-122,-48,201,-172,2268
-12,-126,-54,-1064,36,2011
-55,46,-59,-440,-208,1921
-91,-11,-98,866,-419,1780
-79,13,-100,460,50,1159
124,68,-122,-864,-151,109
61,-6,123,-93,-472,-351
37,-96,127,578,326,-1007
42,-61,38,4904,5638,-5922
-90,25,121,6411,3891,-3759
-118,37,-25,3390,4503,-5728
-26,-100,0,2897,4132,-6850
-27,57,112,1857,4620,-6150
-5,59,-83,1970,3858,-5280
93,-66,-9,416,2943,-4850
17,4,-44,1232,1674,-2026
26,-120,63,796,-347,-913
53,39,73,1098,-1047,-585
23,76,94,1885,-1151,-888
16,32,-57,3233,-1344,716
-111,117,103,3141,-1187,330
-50,-126,63,263,-2050,1580
-1,-2,-52,-2968,-4522,3247
125,76,6,-4230,-7475,3161
-7,122,-34,-4322,-10680,6600
-56,-69,114,-3242,-2029,923
-96,5,108,4057,719,-3491
-45,94,54,48,-1507,-933
-35,101,43,709,-510,-222
10,-5,-100,-603,-72,-817
25,-59,-42,-600,-500,-996
-34,115,-71,94,-420,-613
-22,-63,-103,-1557,-634,-467
-88,92,126,-74,-668,585
-16,-33,-42,-834,-755,1529
73,-27,-68,949,-1454,2299
106,32,-18,1912,-1161,2830
78,-106,101,965,30,2768
91,-70,72,-947,-336,2880
101,116,-123,354,-1161,2518
90,36,-97,1112,-985,2524
49,61,-78,716,-313,2180
2,-6,125,1116,-481,1825
-88,-98,93,2935,-1042,1910
122,85,70,4054,-1339,1353
76,-119,77,1279,-147,-297
18,70,91,-958,598,-1063
-33,-3,57,-1224,190,-1017
59,111,84,2850,3824,-5107
-27,19,-103,4224,4734,-5135
118,50,-118,4550,4656,-6560
-16,-127,4,-1083,4670,-8107
62,102,30,319,4800,-5974
-56,78,-35,-623,2563,-4675
20,111,31,-159,1175,-2612
6,-28,-123,910,412,-1327
48,61,-31,989,-943,-486
-45,-98,27,1079,-32,-1477
57,-70,-117,2741,-371,-815
-122,-19,-17,2996,-485,-956
98,-46,47,1195,-1409,-198
-75,-103,-56,-2562,-3754,571
7,41,-91,-5059,-8279,246
-34,40,-92,-1613,-9919,3737
62,-114,109,-2076,-282,2972
-21,113,124,5060,1018,-126
18,-6,8,227,-1449,-1933
-52,0,-111,-866,-72,-924
-114,-21,-32,254,-456,-870
-73,19,124,91,-891,-748
-69,31,-37,-498,-1496,-990
-86,0,-72,-89,-1191,-1358
-114,-23,-65,370,-1787,-723
96,27,-26,-202,-1269,279
87,90,29,-658,-1301,984
98,104,-2,596,-1619,1379
11,-121,54,1193,-1283,2050
46,-81,-53,625,-1323,2380
10,-58,26,11,-616,2361
-3,-119,-74,1273,-1600,2474
21,106,-43,833,-1007,2574
96,100,-32,589,-949,2646
46,121,-38,989,-820,1704
-31,86,4,1460,-475,1614
90,-107,-8,526,-438,446
34,99,-38,385,-15,-770
-3,-9,-90,-57,382,-1404
10,-98,124,-90,420,-1625
87,99,-1,2955,4539,-5055
92,7,2,4532,3553,-5112
58,108,19,3120,4745,-6745
-51,82,-69,1074,5064,-7648
47,-33,-109,-412,4776,-6937
-78,-20,5,-559,4074,-6144
-69,-59,-105,-611,2863,-3625
-89,-94,-65,322,1036,-1569
-117,-73,-69,-128,-915,-817
-38,-15,104,-256,-1352,-855
112,73,47,1161,-88,-1054
112,112,-93,2918,234,-1144
109,116,-44,3390,-238,-471
-11,79,51,2455,-1368,1495
-17,76,6,-1253,-4860,2888
96,-108,93,-2949,-4668,3113
-94,-95,89,-4436,-5598,3374
-12,53,115,-524,-7568,3941
75,-77,-28,2390,1696,-485
32,-59,83,409,-2014,-1425
60,78,-113,-885,377,-741
32,39,-113,309,-394,-761
17,-13,-9,-67,-1361,-508
39,8,124,-1577,-1226,-1079
-17,-28,-111,-1469,-754,-977
-41,-38,-80,-978,-621,-730
-77,-30,-13,74,-812,207
-69,-36,-50,911,-1084,1476
10,91,-33,1371,-1081,2234
-103,121,-40,1509,-340,2433
-4,124,-128,1305,498,2876
95,-58,56,97,-251,2746
89,113,98,1028,-995,2747
49,-125,122,278,-345,2414
47,79,-99,-45,-433,1944
-8,-1,116,1015,-199,1577
-67,-51,-117,677,-192,1360
127,-49,-118,32,89,773
93,-40,112,-599,-597,44
47,-78,113,-860,-39,-1136
-125,-80,-82,4423,2358,-5156
-7,-50,-72,3703,5470,-6119
-3,24,-124,4461,4999,-5647
25,-110,-128,4002,4352,-6624
-66,-60,58,1010,4162,-7832
58,26,-50,1516,3954,-7486
-55,107,10,1243,2905,-5343
-111,24,46,133,1215,-2933
74,-88,53,1153,-554,-189
43,121,102,304,-1134,-299
-20,20,-82,1549,-797,-487
-40,103,8,2586,-631,36
18,-88,-68,2642,-1074,-131
79,49,100,1057,-3018,2362
-110,16,-33,-2728,-5072,3742
-93,-70,34,-9390,-9452,4873
-1,54,-87,442,-5199,3673
7,41,82,-4232,-2365,4168
116,-32,117,4471,1064,-2428
-65,-72,28,733,-2527,-3023
-61,50,123,-261,-47,-497
-1,-15,-16,-1208,325,-1071
-31,-71,49,-118,-765,-615
21,-20,-55,-1060,-489,-1285
-72,-102,-91,74,-630,-831
-62,-105,-120,582,-1048,-182
-101,-49,-104,763,-957,1000
-14,-128,-22,-1499,-835,1556
38,60,-9,1664,-394,1146
-105,48,106,1455,-883,1986
-108,-123,-119,-7,44,1994
28,96,108,549,-334,2430
54,-114,119,238,-417,2006
9,114,-90,-68,-685,2180
2,81,-50,273,-481,1774
-36,73,-27,161,165,1299
-94,17,-60,678,-90,1044
111,-22,-78,479,145,678
83,-42,-125,-19,-172,177
44,-84,108,-189,-525,-233
-42,22,69,2360,5300,-4322
53,-60,-110,4434,3777,-4297
-121,115,-50,4747,5698,-4264
124,-40,-112,4000,3536,-6102
-121,-52,78,928,4297,-7934
38,-56,-62,2338,4469,-6388
12,-25,-107,4470,5217,-5597
-57,28,-99,1187,1904,-4739
-6,-68,-40,101,202,-1341
-88,73,-79,744,-665,1172
23,-2,-91,661,-388,1030
26,67,57,1740,-539,877
51,-124,-90,902,-859,648
99,72,90,892,-2463,1932
-9,33,95,-1688,-4966,3157
23,-53,105,-7063,-7029,1888
-115,118,-105,-1991,-10165,6414
53,14,-59,-7292,-3771,1374
-95,60,78,5654,3811,-1795
-40,90,76,1096,-3907,-2889
-119,94,106,-1692,501,-654
-69,-114,-75,-36,138,-556
-48,-37,20,-187,-905,-747
2,-19,119,-870,-1165,-959
-42,-70,106,-611,-1207,-606
-59,-76,104,-951,-1318,-296
-45,-39,-69,-1060,-1527,779
-20,-5,-12,-324,-2027,1717
-108,100,31,1173,-1640,2116
-72,106,-33,1538,-1616,3018
-118,-41,55,746,-1498,2514
124,-121,-57,1926,-770,2675
97,-47,-27,-234,-1122,2191
68,69,-22,1769,-24,1207
-62,4,-84,2318,-634,1635
-109,-7,-101,1071,26,1487
82,1,-91,-57,-137,1112
40,-42,-105,891,-411,692
2,-60,-100,1082,-140,95
23,-78,118,66,365,-1096
-61,-42,43,3105,3181,-4338
-82,120,-72,4347,5575,-5119
121,38,99,5474,3590,-4288
82,52,-16,3351,4529,-6875
-81,18,-97,3033,4587,-7234
69,101,-6,3849,4596,-6739
-111,96,-26,1272,1749,-6146
-67,-6,-6,581,779,-2970
-97,-67,-72,1493,-1917,-66
56,-96,-86,652,-1125,-1158
-18,-67,-50,1397,-1088,8
2,5,-57,1324,-2097,1473
109,-85,-32,72,-1830,375
30,84,-41,-1550,-4749,2361
53,63,94,-4125,-4860,1878
52,-37,108,-2556,-7289,3122
-1,-41,26,-1654,-6457,3979
69,110,-53,-2562,-1843,3297
97,-95,42,1539,-361,-1269
20,122,-53,537,-1049,-2229
116,-95,-90,243,369,-1124
15,-46,-98,-1214,879,-1023
38,-8,15,-791,852,-1675
-42,-107,84,-104,-82,-1712
-78,-50,90,-2025,-401,-1222
-99,-81,-116,-1275,-477,-488
-127,-48,-91,-527,-1232,435
-94,-15,-32,1193,-2093,1504
52,44,-2,2237,-1849,1879
-91,-81,-62,789,-1008,2008
-58,-86,8,744,-1561,2526
42,105,-64,2462,-1070,2181
9,-71,-44,357,-865,1755
-41,109,5,606,-408,1663
-98,59,-24,1299,-144,1514
95,54,-50,1364,-596,1378
59,27,-77,1618,-502,972
37,10,-96,1272,-269,-29
3,-38,126,172,82,-888
-33,107,102,-613,172,-1249
-71,-70,-91,887,6048,-5519
-126,29,32,3464,4729,-5872
-94,37,-86,-1572,8122,-7817
-27,-35,13,2223,6973,-5599
119,105,63,3120,6616,-2999
122,33,-56,1224,5708,-4568
125,50,-11,16,3591,-3694
-52,105,12,-1688,1687,-3469
2,24,97,-4,-371,-882
119,97,-33,-139,-812,-551
22,73,14,1196,-399,-178
-92,-89,-109,2934,111,128
-55,-20,-10,3537,-304,54
-17,64,121,2070,-870,605
37,60,-117,-300,-1825,1070
34,-121,-37,-2316,-4087,2824
-96,94,-64,-4244,-6523,2246
-125,-56,124,-1764,-7517,2985
-106,21,100,-5480,-754,1773
-110,-28,-63,3634,-1576,-1487
24,65,38,839,-1413,-944
-26,59,-35,-728,476,-662
-42,51,-93,344,-691,-1107
-15,45,64,-777,-561,-993
-7,7,-53,-712,-732,-1547
-50,-36,-125,-646,-1302,-1412
-111,-37,-97,-714,-1691,-262
98,-13,-9,-610,-895,93
-102,5,24,235,-1593,1553
-39,71,1,1796,-945,1662
-127,-119,-43,1881,-1098,2535
-33,-23,-91,-336,-1287,2739
40,-90,-14,805,-731,2798
57,123,121,1464,-1213,2618
86,-74,-73,-653,-1433,2442
13,114,43,-510,-640,2097
-8,122,14,382,-787,1462
-120,86,-2,755,-485,836
89,71,-42,366,10,-55
92,49,-63,23,1036,-1481
-39,-107,83,3423,3570,-4649
-25,35,60,3635,3177,-4490
-90,119,46,1197,4729,-5952
-116,90,-67,1623,5385,-5997
-49,52,117,2354,5356,-5911
74,-85,-12,1396,2750,-5546
7,-10,120,670,2794,-4201
-23,8,-82,717,1154,-1562
-62,-93,88,1219,-1252,-860
-20,52,-103,1111,-1420,-631
-83,105,-115,998,-2065,-437
-76,-58,80,3013,-1493,-725
-105,106,-11,1624,-1216,-823
-29,36,2,394,-1599,66
6,43,-84,184,-3650,2672
-113,-33,56,-2869,-3648,3324
-63,62,-86,-2444,-5876,4537
-90,-90,-91,-7952,-1799,4008
-101,-19,-56,2206,1480,-797
-117,65,40,873,-1804,-2857
-60,-93,112,197,-44,-815
-36,0,-56,-716,62,-989
-16,-25,27,-797,-395,-668
11,-39,-120,-1161,-629,-1042
-23,-60,104,-1284,-900,-777
-64,-81,83,-251,-1727,-777
-64,-7,66,2326,-2615,-45
-28,113,-50,255,-1367,1295
-32,-105,-57,-64,-1187,1931
64,-111,-67,1052,-1557,2156
-99,-104,-53,710,-517,2498
-44,-36,-88,972,-494,2433
-25,95,102,1952,-1011,2254
-4,68,-122,1024,-317,2649
1,-2,89,2273,-98,2655
-35,-69,51,3320,-946,2582
-75,-106,51,3835,-724,1742
-98,9,73,824,1668,-936
52,-103,23,-50,1381,-1994
-5,-9,10,-35,-106,-1164
-27,-8,-24,6784,5773,-4763
-84,74,40,3261,4057,-5440
-103,-27,91,921,5138,-6350
113,-92,-33,-743,6709,-7287
-56,69,6,2732,5929,-4120
117,-114,-93,401,4405,-5437
67,53,-66,734,2736,-2602
-53,-41,39,-130,20,-901
11,124,99,598,-1695,-323
-26,-102,-72,1461,-819,-872
-29,-40,1,1350,-2193,198
35,103,6,3341,-920,-1551
-18,-107,-121,276,-2749,918
-37,39,41,-1896,-3579,914
-106,126,-64,-3151,-7064,1763
-128,-44,27,-3124,-6996,3924
62,3,116,-3073,-1447,2752
87,-61,28,2042,-491,-3989
-8,-76,-56,2025,-789,-1735
123,-123,49,-1501,-335,-45
-114,-24,90,716,-1773,-369
-46,41,-14,-653,-1290,-488
-76,27,-21,-1001,-1159,-733
-126,-21,-100,-173,-1699,-613
-53,28,-26,-738,-726,-423
-57,20,22,-800,-1,274
-65,57,4,653,-985,893
31,109,-14,2220,-1507,1556
41,-102,-30,2089,-565,1769
-93,-65,-76,1137,-861,1853
-85,-100,-104,1429,-260,2624
-45,-87,127,1063,-378,2434
18,123,100,891,-308,2253
-36,52,106,437,-399,2103
-66,55,-94,-307,-384,1829
-128,10,-87,243,-276,1342
88,-3,-117,842,-368,829
57,-6,105,457,13,60
31,-21,87,-216,259,-911
4,-89,95,-315,277,-1254
-9,10,45,2426,3832,-4871
29,42,121,3884,3832,-4064
32,70,67,4459,3520,-4737
39,-91,95,1472,5346,-6890
-2,-96,46,3254,7452,-5924
-123,21,80,3701,3489,-4820
50,99,-87,1969,1404,-4253
38,-47,-92,763,-581,-1839
109,7,-83,429,-1228,-694
-2,-19,-16,864,-1277,-611
-11,-70,-50,1185,-990,-1437
-31,105,91,2764,-1472,-725
11,-33,-73,1521,-2476,897
123,117,102,-667,-3803,1695
-123,-59,-52,-3299,-2256,2181
-23,51,52,-3712,-3840,2122
-28,-96,-67,-4247,-7888,4118
100,-88,87,-2508,-3350,5967
-69,-125,93,663,1436,-1226
-89,19,81,1087,-1486,-3700
17,33,-88,-493,509,-578
-41,-31,-84,-1335,44,-569
-38,-53,101,-29,-59,-606
3,-13,-15,-871,-275,-861
-23,-45,-109,-771,-926,-659
-38,-44,-64,-75,-620,-466
-49,-75,-89,859,-1070,105
-33,-32,-86,1029,-1307,909
-23,-11,-100,1858,-1155,1654
109,49,114,2479,-1151,2334
-83,-40,5,4782,-1620,3234
17,67,16,1607,232,1779
12,-61,-54,1817,874,1602
-36,105,-71,1102,611,1892
-41,89,-60,200,916,1711
-73,54,-81,1313,61,1397
-85,43,-28,-66,619,845
101,40,-5,-709,359,497
90,0,3,-433,484,390
53,-2,15,-225,303,18
-117,125,-8,5165,2488,-4820
-32,17,92,5059,3677,-4480
82,110,-90,5762,3799,-5048
-103,73,6,5215,3893,-6746
-72,35,-100,2829,2978,-7370
109,106,85,1559,2690,-5911
20,11,-59,1462,2397,-4246
-25,-28,105,542,-15,-2193
99,-12,27,1758,585,-667
-49,89,48,1724,-1403,6
102,66,-119,55,-1564,-400
71,99,125,2752,-1243,-432
17,-65,21,2790,-1371,61
109,73,-89,2196,-1841,907
-59,40,-101,124,-2098,1564
19,-105,-86,-3823,-3386,3060
-82,48,49,-4396,-4923,3462
57,-103,-110,-4757,-5578,2162
-19,101,-52,-3475,-4496,4022
19,121,-2,5451,745,-3360
-19,11,-113,-52,-1362,-846
120,109,22,-873,-152,62
-58,-52,-103,-462,-499,-103
-22,-42,35,-214,-298,-115
7,-75,-46,-192,-282,-480
34,-78,-125,-374,-210,-647
23,-82,122,-922,-616,-122
33,-90,124,-562,-657,120
62,-39,127,-545,-1097,1213
65,12,-119,216,-949,1811
125,30,125,1098,-1302,2384
-18,60,-113,245,-1090,3205
48,54,-115,693,-650,3333
-104,-18,83,1498,-631,3224
-79,8,94,302,-509,3078
105,-45,-122,8,-901,2716
85,-107,-93,304,-518,2369
-5,-48,-102,-266,-445,762
-94,-29,-104,-446,-81,-100
64,105,-113,916,186,-415
-100,7,-20,4964,5975,-5462
104,-108,68,8393,3374,-2763
-23,-84,3,3218,2243,-8808
-29,70,18,1735,4435,-8352
108,-15,-111,3306,3879,-7898
0,-125,72,1183,3045,-5314
111,-6,2,1158,697,-1481
31,-22,37,295,-1127,-226
-122,-124,-78,1218,-1513,219
-38,-97,78,1130,-290,-1132
-36,48,85,3410,-25,-87
60,72,-60,2320,-699,295
18,-88,70,881,-1861,2041
-41,75,11,-3466,-4687,3822
-31,-126,16,-6508,-5072,2927
-5,-53,-26,-6511,-9126,4689
-33,68,18,-6825,1529,-512
113,21,110,10097,-479,-44
-38,70,-94,-1877,-1498,-1769
-93,61,64,-244,210,-342
-40,-52,112,-1000,10,-456
-15,-118,49,987,-870,-31
-3,-116,-9,-472,-688,287
28,-122,-121,65,-668,-199
46,-108,-103,675,-752,985
67,-65,-97,-483,-811,1164
114,-22,-71,-124,-1294,1951
-78,-12,-46,626,-1086,2445
2,20,-72,1254,-291,2491
104,38,-84,118,-69,2720
85,-32,68,1195,-24,2550
109,-47,69,565,-394,2563
91,-3,69,544,-267,1534
40,-56,77,1052,-283,1348
-31,-87,59,785,-554,512
-112,109,86,31,-49,71
86,1,87,173,92,51
50,-37,76,186,-127,27
51,-65,84,233,250,1
50,-77,68,-162,317,-6
-46,105,-81,2540,2553,-4951
76,84,-114,5368,4564,-5723
50,98,120,4249,3812,-6367
-105,30,112,3345,3846,-7739
54,-13,69,3221,3258,-6041
83,-5,-119,2403,1526,-4487
125,-83,-55,1663,561,-2903
62,119,-79,2055,-1003,-445
-96,-105,112,4,-1514,-776
-8,28,-40,286,-1337,-499
-13,126,119,2180,-1038,-554
-22,-69,-66,1979,-1858,-371
115,117,-84,238,-1577,-13
50,-86,-28,-266,-2895,1778
89,19,110,-4250,-4339,3157
72,63,-117,-4457,-4737,3492
95,-32,4,-2123,-5764,5280
-75,29,-50,-1618,1355,-810
8,-105,110,3212,-2712,-3174
-114,9,-98,61,-286,408
-53,30,-46,-1536,284,-481
-60,-84,107,618,-573,-319
-27,-63,58,-1127,-463,18
-27,-109,-78,-827,-122,-606
-25,-102,-50,-1154,184,-455
-9,-128,-100,-466,-1532,195
49,-101,-117,-104,-1693,388
94,-52,-56,-1425,-256,563
-109,-5,-67,-1391,-304,950
-72,30,-106,134,-1475,2198
-20,-120,-90,450,-1882,2484
44,-91,10,98,-1822,2751
-78,87,0,1088,-240,2601
127,65,117,1713,-1014,2275
41,0,-70,663,-1595,3338
78,-111,41,-346,-947,1855
-19,127,61,618,-382,845
-108,46,-6,1176,337,-60
45,-46,-111,502,325,-863
45,112,106,257,493,-986
-12,8,25,3725,4142,-4333
8,19,32,5858,4220,-4149
34,7,44,5308,3246,-3861
114,-51,10,857,1825,-7122
116,5,-51,419,3407,-6455
-60,-17,89,2338,2172,-4587
60,-40,-61,1119,915,-2632
-120,-6,7,899,512,-659
-27,-32,-9,-143,-111,-471
116,40,-24,1129,-772,226
13,15,-108,-44,-728,-1159
-6,-95,41,2184,-1642,-343
60,37,-101,1924,-2225,-1092
-122,14,-104,1049,-2855,-472
24,-81,20,165,-2434,35
15,-65,108,-1220,-3992,2119
-94,-50,-54,-5440,-4318,1959
125,66,64,-4993,-9910,6721
-94,104,88,650,916,3801
-3,-47,-63,38,-1998,-2658
-91,-54,90,1554,-1506,-1569
27,-52,76,-1709,79,-346
-19,-52,-61,591,-154,-782
-1,-51,105,297,586,-683
-1,-83,-70,-1089,217,-600
2,-57,-118,-1564,-34,-816
-18,-86,-92,-1196,125,-467
-2,-71,-128,-1023,-229,-168
30,4,-75,-1015,-623,244
14,24,-57,280,-1265,1014
99,90,-26,625,-1736,1618
-48,120,-37,1291,-422,1758
-85,-71,122,742,-1643,2233
-17,-89,-53,724,-981,2157
13,-115,-81,408,-355,1975
-71,90,-72,740,-860,2084
-32,14,-91,967,-52,1817
-45,43,-103,-138,-111,1348
-105,-4,-114,195,-126,799
116,-67,-109,953,-57,584
22,81,28,2708,3881,-4685
-10,-14,21,5045,4380,-4411
21,28,58,5311,3759,-4358
84,96,66,2223,3466,-5698
-66,-37,66,2558,3225,-5809
-8,105,5,2126,3399,-5178
-118,-45,15,1227,2337,-3241
-22,36,-108,392,1477,-1560
82,-110,57,43,148,-877
-58,41,78,-538,-312,-567
88,86,9,-392,-978,629
27,-11,-95,715,-1379,-518
-17,-1,-115,1874,-1228,-603
24,21,-32,2244,-1852,-144
-71,45,-99,2451,-1050,-147
-109,-19,20,-124,-2188,1672
-28,-103,-13,-3751,-3273,-1188
-117,107,-37,-6037,-7599,4518
27,14,107,-4906,-8912,4598
-100,4,-74,-588,2189,-598
98,-39,121,2397,-1942,-836
-19,-58,-16,152,-898,-659
-16,-10,28,-1063,241,-830
-47,-107,-44,454,-238,-250
28,-19,118,-407,167,-788
-8,-60,13,-1115,23,-690
17,-39,-48,-673,-340,-855
35,-34,-93,-229,-595,-890
53,-6,-57,-462,-228,-777
22,40,-59,-263,-715,441
26,51,-99,336,-1198,952
29,106,-63,509,-1036,2070
78,-64,-65,329,-995,2054
-51,-100,-38,599,-656,2519
-18,-96,-54,668,-245,3119
44,-104,-86,968,-248,2420
31,63,-106,384,-489,2344
-20,2,-80,346,-206,2312
5,-30,-57,-350,43,1997
-17,-96,-84,280,101,1603
-124,-49,-39,4198,2230,-4028
28,-122,101,3774,3825,-4978
76,13,98,5047,5170,-5077
15,48,23,4514,2545,-4808
-59,-97,28,1641,3126,-7046
59,-56,38,1911,3378,-6196
33,-1,-108,1643,2713,-4770
-113,1,-32,685,1764,-3022
-65,54,69,-3,600,-1457
-31,115,11,-417,-183,-403
117,-24,-7,-208,-703,596
-7,-46,-40,-515,-1116,-370
-31,21,-114,1558,-1507,-339
-29,-119,-70,1662,-2095,-1436
-63,-112,98,1228,-2538,-1030
39,20,-61,-572,-2527,-234
-92,-27,5,-1601,-3888,1305
46,-7,-98,-3846,-5175,1945
-14,-8,11,-3596,-4572,3018
34,-24,84,-1978,-1880,1254
3,-47,57,1483,-179,-2030
22,64,-121,883,-643,-1780
-86,-109,46,-250,-178,-446
-95,-46,-33,-634,-161,-196
-23,9,-86,-189,-63,-380
-22,52,61,-1073,73,-795
-14,7,-14,-461,-864,-717
4,-10,-76,265,-984,-815
-27,63,-56,-1268,-885,-664
-67,18,-45,-1100,-1018,-352
-58,62,49,-1061,-1268,859
-91,57,63,1027,-1712,1966
35,-95,19,1970,-999,2401
-85,-51,-62,1183,-872,2695
-49,-47,-84,940,-184,2577
40,-71,107,1349,-942,2328
18,78,-128,997,-678,2550
-8,98,-77,-827,-10,1792
-24,-25,-128,-56,-488,1782
-72,-101,-107,480,-873,2179
66,35,91,4138,5191,-4634
56,-21,41,4669,4757,-4170
94,75,41,3479,4394,-5018
107,34,-52,2126,2069,-5490
-25,-71,-106,859,1723,-5726
-46,28,74,-206,2604,-3950
86,45,126,381,2099,-2900
33,55,15,-220,1128,-1277
-69,-102,-3,1036,368,5
-117,-91,-46,932,-501,1158
68,-43,-97,-1007,-1202,520
-37,-96,-62,462,-1657,-1064
-47,-91,74,1616,-2354,-902
99,-43,-36,1184,-2531,-1877
-121,74,-59,628,-2495,-1312
10,-41,80,-2191,-1071,-958
-21,-22,-35,-2981,-2800,-67
102,-121,-29,-4141,-3310,1844
32,114,96,-1008,-7612,5905
-92,-27,-119,-1026,619,-1003
92,-34,-79,1388,-2056,-2069
-56,-95,-91,-47,-403,-588
-55,-1,17,-1072,-6,-456
-13,15,-87,139,268,-944
3,-19,83,57,613,-867
-14,-51,-86,-856,-893,-658
-31,-33,-104,-663,-988,-638
-26,-29,-95,-111,-231,-376
-23,0,-99,-97,-507,294
36,108,-85,-803,-998,1278
30,120,-67,796,-944,1665
-128,-111,-59,1134,-1421,2450
-4,-54,-90,964,-975,2733
-5,-9,-62,-295,-180,2735
81,-58,-87,777,-792,2203
37,-112,-111,322,-465,2076
44,101,110,-793,-497,1433
-19,-41,-128,-390,-859,1789
-27,-86,-15,210,-39,2249
-15,-54,-51,907,-117,1596
-16,-40,91,3163,3586,-4374
88,49,-128,4518,4351,-4583
-107,-85,113,5383,4561,-4117
-31,71,64,2502,3600,-6725
-107,63,-64,425,3372,-6679
-9,-113,95,499,4086,-5809
-126,-117,8,2038,3215,-4427
-106,83,64,-26,2189,-4972
-4,-3,-77,522,1101,-2342
126,-53,-60,646,-250,-206
-74,-25,-56,299,-168,-344
95,-9,-126,1018,-1853,1229
-73,-54,120,1651,-1021,-417
-16,61,-32,1274,-1728,-264
77,76,-16,1215,-1359,-947
-53,-28,61,1001,-1561,415
92,-13,123,-3665,-2245,791
4,-14,-57,-2026,-5229,1859
-79,37,54,-1472,-7665,4134
55,-124,11,-3738,-3936,5852
-24,-89,-25,-3228,566,1820
2,29,91,3821,-2642,-3944
94,-45,86,-235,-139,-657
-39,-77,103,-237,-143,-215
31,8,-70,-171,239,-800
14,-49,51,-743,393,-1166
13,-22,106,-2384,-368,-801
-3,-47,-108,-1600,-802,-631
-11,-35,-110,-590,-967,-812
-37,0,-39,91,-1377,316
15,105,-15,-166,-1264,664
122,67,-87,2418,-1307,1414
118,-64,-105,890,-1994,1762
-68,-86,-43,854,-1287,2030
27,-94,-80,87,-1115,2518
35,-46,-14,368,-1199,2143
43,30,-68,2399,-756,2293
11,56,-112,1084,52,2070
-32,41,-120,1141,-297,1679
-107,2,-122,1335,-287,1163
39,100,62,5200,2867,-3795
25,-89,53,1246,4316,-5316
-92,56,42,2544,4885,-4686
39,-13,-42,2225,5310,-4861
87,-11,-118,1726,4400,-5188
101,-57,66,798,4265,-5023
-50,100,47,-1895,4217,-5855
82,-61,104,-1188,3318,-2625
36,27,-91,-608,1075,-1197
-104,-121,-48,-510,-116,-954
-11,-55,80,-523,-261,-637
-113,99,74,-398,-29,-1936
109,-10,-38,2193,-360,-770
-73,-106,-118,1870,-589,-866
-36,-32,96,3093,-1123,-247
61,52,-111,2108,-1155,-69
119,110,82,1351,-2843,1666
-47,116,-119,-1089,-5222,1682
117,-61,-6,-2957,-8094,1417
115,19,-57,-3304,-7559,3854
89,2,48,1608,1683,-1271
31,-53,51,1884,-1540,-1836
109,-50,-80,-280,-723,-588
-106,11,86,-405,31,-544
-116,10,-68,-186,-434,-515
-66,53,-18,-861,-1094,-805
-78,-32,-43,205,-939,-814
-103,25,-57,-998,-892,-472
-124,15,-42,-782,-1115,-11
-16,85,-38,-604,-1610,661
-68,-104,-6,-86,-1925,712
-30,81,112,1687,-1486,1797
96,-75,14,1869,-891,2403
-93,-20,25,719,-1044,2743
-11,-17,58,360,-251,2385
23,-50,-33,761,-645,2227
19,-63,-46,398,-1266,2090
-61,-83,-34,471,-792,1181
117,38,-33,1283,-800,1461
93,-4,-31,1176,66,1356
-3,111,41,3020,3850,-4564
37,50,41,3315,4732,-4715
110,-25,-15,4255,4945,-4664
-116,-103,-55,3300,4335,-4760
-45,5,-55,1195,3498,-5721
-6,-53,-108,985,3341,-4757
-87,-72,43,-215,3499,-3979
-23,69,-124,-522,1948,-2239
12,59,-22,-17,219,564
-91,-61,6,-784,376,-1335
46,-42,-21,460,-981,-107
10,19,-15,455,-690,-1403
-21,30,-89,1817,-1225,-1287
-20,109,55,2537,-1646,-889
9,-83,-5,1325,-1024,-1804
58,24,-64,1104,-1750,385
-64,-66,84,-530,-2534,1931
1,-117,-40,-4397,-5356,1626
-18,-28,78,-6137,-6917,2772
21,-127,-69,-3206,-2528,2046
-32,-86,78,4547,1348,-4593
62,-35,-119,914,-194,-813
79,-76,-29,-872,-1468,1047
-73,99,25,-273,186,-616
-73,14,-103,312,-53,-394
-46,35,33,-893,-602,-371
-23,26,-2,-1188,-328,-730
-40,-22,-54,-25,-511,-329
-46,-24,-94,-304,-983,599
-28,55,-111,-687,-558,935
9,127,-107,-820,-1119,1611
91,-106,-43,647,-1959,2131
-43,-90,-36,704,-1626,2281
23,-103,-52,388,-889,2664
111,-78,-30,-299,-1764,2800
-86,107,-17,1079,-1067,2476
-123,-120,-69,-342,-1082,2203
56,100,1,-497,-1398,1678
-10,-35,-23,1367,-286,1509
-54,-40,-126,1382,-511,1143
8,-57,64,1167,4898,-5420
84,-77,74,4597,5948,-3679
12,-6,-12,4605,3189,-2994
-115,-42,20,872,3434,-5331
46,10,127,1206,3494,-4620
-23,124,34,1236,3463,-4296
-106,-27,-85,480,3027,-4025
12,-27,-85,534,2787,-3130
111,-74,28,539,1725,-1755
-88,-7,-85,-673,166,-695
95,97,39,32,-160,-261
0,-15,76,26,-244,-510
-88,-31,-62,1373,-751,-376
-78,-5,84,1996,-991,-650
-78,93,-40,2104,-2043,-78
49,118,122,958,-1708,-647
-26,-76,-125,-235,-2726,1520
12,-67,9,-2605,-4348,2341
103,-86,-115,-2950,-7660,5280
-107,-76,-94,-9069,-4737,2030
74,-14,36,6001,2050,-1893
-40,75,17,449,-1275,-1616
30,92,-51,-1358,-1039,-592
18,104,-92,-1003,-94,-1603
-5,71,58,-543,-1019,-1492
-17,69,13,-749,-869,-2080
-66,2,6,-235,-741,-987
127,10,-32,-638,-800,-776
91,40,6,348,-1586,357
101,61,58,1380,-1466,926
-122,98,46,2142,-1025,1786
-39,-76,-66,939,-773,1727
-8,104,-33,2354,-875,2660
-112,-86,-109,743,299,2261
116,-126,92,1596,-107,2392
-61,-113,-122,993,248,1847
-109,126,85,570,151,1077
-80,76,78,203,367,487
109,-82,25,1271,268,605
73,91,5,766,533,495
-111,-7,-10,972,3676,-6339
-98,38,-70,2752,2771,-7271
-3,59,-32,3098,4525,-5830
2,-113,123,1439,2588,-5985
62,-12,-126,477,2988,-5843
-83,-37,-14,-642,2561,-4696
45,106,111,560,2249,-1491
27,-9,-93,339,335,-1247
-81,-10,-68,787,164,-145
34,81,-87,1049,-294,218
-39,-22,38,1865,-1489,-434
51,-87,-20,2107,-1475,199
-66,-115,-5,2023,-2556,794
89,-47,-68,-1539,-2638,914
109,90,-62,-1673,-2010,1092
81,-126,89,-4111,-7761,2085
93,-50,24,-5750,-5306,792
4,55,67,-1751,-1677,530
-15,26,85,5251,-819,-786
-64,-40,44,147,-414,-1088
92,-75,-68,-646,-358,-349
-114,-72,-110,-237,-656,6
-37,-5,42,217,-1005,352
-8,-45,-58,-420,-1281,407
-4,-36,-78,396,-1082,-201
1,-36,-96,186,-1005,498
-10,-19,-107,622,-689,791
28,26,-62,670,-1105,2622
110,104,-120,987,-606,2232
-86,-110,-102,1216,-508,2370
9,126,-115,304,459,2125
-4,43,75,1192,720,2178
15,62,46,404,-11,1826
23,-8,60,464,540,1561
-21,-84,12,456,498,1304
-59,107,21,601,-131,1363
-95,66,31,-258,455,1066
-80,58,40,-727,78,1010
-109,11,16,160,54,419
122,1,42,-302,103,311
-66,-98,-102,4836,2857,-3816
0,-114,28,5210,3450,-4833
63,46,34,5322,3502,-5349
64,-54,-40,2000,1720,-6879
74,109,4,1083,2887,-7142
119,116,14,2522,4108,-5507
100,-113,120,1473,2930,-5450
-53,97,-32,-201,2685,-4603
-76,-7,39,-564,1245,-1572
26,-112,-62,-222,113,-803
-102,111,-59,654,-750,203
57,35,-24,-162,-1053,-1365
-48,30,41,1874,-484,-1485
-52,-73,126,2341,-987,-848
-18,-51,-5,2892,-971,-643
67,-114,-98,1198,-1753,654
-54,-113,-45,962,-1678,760
-98,94,106,-2668,-3222,2463
-20,31,93,-3721,-4786,2323
-57,-1,-112,-3711,-6483,4735
61,40,-87,-3980,-1329,2416
68,125,58,2260,383,-1476
31,93,-19,653,-2180,-1398
-74,-58,30,-484,-157,-803
-76,20,-70,-1012,-441,-666
-51,35,-124,333,-374,-788
-104,-14,51,-22,-699,-79
-79,39,32,-489,-910,-250
-64,-38,13,1473,-293,428
-60,6,-59,435,-829,662
-15,-8,-79,958,-684,1119
13,-13,-127,675,-302,1319
62,-42,63,1752,-727,1594
108,-47,42,1219,-468,1578
121,-76,9,797,101,1909
-74,126,-17,1675,-70,2513
-2,62,-50,1104,871,2263
-23,93,-47,472,219,1797
-7,-87,-88,2317,233,1923
17,-32,-31,717,1284,1685
44,93,-30,3458,1933,-5809
-13,-42,-29,5324,848,-6055
40,-49,-17,2171,1113,-6080
-127,125,-24,1772,1532,-6861
45,-96,-76,2206,1828,-6739
2,27,-102,503,2446,-6328
36,83,-98,1088,1848,-2694
89,-55,-77,-435,-111,-918
-70,94,-92,-292,-866,-467
48,2,-26,43,-791,-490
14,60,-89,2171,-569,170
96,-62,60,1846,-398,-593
-102,120,-74,1472,-1618,500
36,50,-28,701,-1802,873
19,-127,-69,-1573,-2829,2408
-56,-27,-20,-5008,-3966,2167
-64,-58,50,-5486,-6392,3618
82,-36,109,-5377,-3600,1107
-88,-121,27,1495,-815,475
82,-113,-9,2827,-1829,-1407
-87,-14,38,-1082,-1104,-672
-115,121,20,273,166,-265
-98,4,113,292,-946,-123
-87,-14,107,30,-137,-130
-72,15,33,-2,-360,-57
-58,5,0,-359,-113,147
-52,-16,-52,117,-513,97
-50,-51,-44,740,-444,592
-28,-36,-76,698,-388,745
21,-45,-103,825,-420,941
33,124,109,1284,-96,1332
77,91,56,1009,-193,1542
127,89,26,526,-279,1679
-87,25,-10,794,500,1679
-62,13,-32,363,454,2175
23,-3,-57,134,27,2659
9,30,-20,580,-130,2839
77,61,-38,-103,1842,1080
35,-53,-53,-249,1081,1334
-34,-6,-11,-516,122,1463
-32,-112,99,1714,2555,-5780
-66,55,-17,2995,1945,-5343
-32,-19,13,3763,2677,-5514
-38,-80,-34,2677,2186,-5224
124,-68,-31,1496,2197,-6634
20,95,-4,1553,3450,-5629
-84,32,-126,190,2464,-5107
6,-86,-91,-1707,1715,-1576
77,23,-88,-1156,33,-374
-95,56,-44,289,263,0
116,-63,-64,1175,-240,-1185
114,-59,-115,1666,-821,-926
116,-67,69,2845,-1547,-1026
34,-68,-47,3922,-2363,-134
110,-1,-82,1958,-2461,-265
11,105,-95,-46,-1845,101
124,12,119,-3784,-4477,1281
-21,78,-126,-4860,-6933,3222
-11,92,19,1375,-11151,7265
-51,95,-95,-3296,3229,-154
68,111,-2,3765,-2274,-2498
2,-59,-41,-334,-1070,-727
-107,-107,42,-387,557,-440
-41,-28,-91,-37,159,-500
-27,-81,74,739,645,-365
-53,-105,-72,-330,-506,-131
-30,-110,114,-1027,-196,-342
13,-80,115,-915,-884,-296
-14,-81,-113,-476,-99,194
50,21,-82,-936,-668,939
87,11,-101,761,-1091,1623
109,103,121,1601,-945,2211
-50,-112,-69,125,-671,2161
-78,91,113,715,-84,2456
-3,120,123,-15,-620,2469
11,40,111,876,-420,2184
-12,13,-117,-123,-189,2341
20,-38,-96,-228,-60,2001
-12,-51,-93,286,66,1757
-55,-39,-62,538,65,1124
-20,117,39,2204,4671,-4926
-6,-66,-68,5431,3953,-4623
-7,-54,-17,4057,3992,-4190
8,-56,-93,3173,2812,-4487
102,-85,-54,3479,3597,-4941
-125,-108,-93,2669,2572,-4765
-45,86,48,-1983,2635,-6103
92,104,35,1211,2002,-3758
-39,-73,-38,239,2483,-2952
72,-86,-17,249,711,-1268
-96,-73,-106,-142,-353,-652
44,81,-90,-178,-903,-436
-70,-76,125,1230,-1174,-883
49,-90,24,2466,-1492,-1051
89,-125,-25,2925,-1670,-515
-31,-95,-37,1125,-1750,-419
-78,-80,80,533,-2464,1416
-119,7,108,-3006,-4369,2778
78,-120,26,-5307,-3921,2743
-64,-54,-84,-4916,-4298,3248
-2,65,93,4819,1111,-378
-25,28,-72,127,-1237,-2185
93,-109,44,-760,-46,-491
-99,-105,-84,480,-1685,393
-28,-1,88,-87,-1416,-71
-45,-58,1,-544,-1779,516
46,-27,14,223,-393,-331
13,2,8,-890,-558,305
10,-63,-7,645,-700,1112
104,22,-56,258,-646,1697
124,54,-121,118,-192,1708
-93,57,-117,390,-656,2109
-24,39,107,803,-140,2156
-28,32,98,-266,555,2029
28,-60,64,619,126,2148
84,-95,49,314,61,2323
87,-116,71,127,-198,2185
65,-97,104,-588,242,1899
34,-77,63,-94,114,785
4,111,68,-579,344,652
-51,118,59,4856,2267,-4539
-47,6,126,5737,4086,-4903
-123,76,-11,3794,672,-5211
-100,65,95,1533,3114,-6849
-72,-128,35,2984,2828,-5150
56,-32,24,1662,3762,-6609
60,81,-120,1136,3346,-5580
-119,-96,-89,449,2124,-2759
79,33,-86,-246,165,-381
6,-38,-63,-254,101,-1058
84,126,-72,-22,-883,-775
43,-128,-51,1401,-972,-316
56,-76,90,2519,-1115,-671
80,7,-56,2796,-1377,-157
-110,26,61,2149,-1732,-287
97,-94,-92,404,-2260,1195
-83,18,-92,-1710,-5552,2331
-76,125,16,-3109,-6416,3026
77,108,86,-3540,-2095,2076
120,75,45,-958,443,-709
-40,-80,-13,3852,-1404,-399
60,-111,-27,-591,-613,-209
-113,-62,-71,-709,-60,-214
-57,-32,78,-345,-721,6
-7,-40,26,-543,-631,-196
-21,-66,-7,-918,-797,-211
4,-82,-17,-192,-584,-121
12,-14,-26,-1097,-704,606
-7,23,-14,-1019,-564,1477
66,68,-14,495,-1001,2101
-77,112,-29,586,-1506,2579
-28,122,-24,659,30,2374
17,84,-84,607,-283,2663
112,87,-110,-620,-211,2878
74,86,-93,-437,-612,2559
103,-12,-72,257,-266,2568
35,-9,-105,-387,-670,2045
35,-106,-53,359,131,2161
-27,-66,-111,276,-188,1438
-77,-93,-124,249,-313,735
-85,-59,11,2718,3784,-4617
-62,45,0,5124,2793,-3441
-80,42,63,5432,3817,-3899
-27,-91,11,3835,1841,-5081
-92,103,69,1378,3090,-6436
-41,-125,51,2148,3483,-5679
24,-78,-11,1704,3127,-6395
42,-71,108,392,3340,-4667
-8,29,34,-132,1671,-1688
26,-101,-71,-848,-176,-676
-80,-7,-33,-258,-314,-177
23,-44,-9,522,-681,-842
-29,36,-49,2220,-652,-1865
-25,-6,82,3624,-205,-1383
30,120,125,3083,-1514,432
-20,94,51,1648,-1536,628
-27,116,71,-1352,-3489,2276
30,-104,98,-1781,-5387,2996
-60,-79,110,-3414,-5935,3841
65,121,24,-4097,-4228,2618
72,-17,24,1069,1491,-321
-23,77,122,2299,-878,-1082
-82,43,33,-652,53,-1235
-117,-76,-41,123,-182,-177
-58,13,89,-376,-282,-520
-21,-9,29,-553,-570,-449
-30,125,-89,-143,-1029,-77
-7,-66,-119,-897,-1480,-27
9,-73,-116,-238,-748,146
-24,52,-86,-1779,-546,369
10,49,-55,-436,-1016,1367
114,48,-90,2073,-1638,2449
-73,-54,-40,263,-812,2772
17,-119,-48,433,-1028,2955
-108,-69,-46,178,-543,2853
83,-83,-41,254,-963,2507
63,124,-12,-492,-457,2056
-20,48,-60,-861,-488,1938
-46,-39,-41,52,-775,2035
-33,-51,-78,712,-130,1355
-26,124,24,4064,3958,-4089
43,32,105,5540,5777,-4218
-58,53,-12,4493,2478,-4102
-123,-80,-126,1993,4572,-6220
-83,-92,59,3114,3435,-5060
52,-24,58,2053,3735,-5256
61,-28,105,1229,2872,-5212
-127,113,-23,-227,1894,-2979
111,93,72,-469,606,-990
-12,8,60,-1065,38,-571
109,125,116,-358,-194,-242
24,99,98,479,93,-985
11,53,-33,1618,-415,-681
85,11,111,2390,-965,-904
-110,-18,-66,2797,-2071,-73
-47,27,-84,2250,-2011,-252
42,-9,-53,1107,-2566,894
-72,-59,65,-1653,-5005,1539
-34,-32,71,-3065,-4955,2967
-37,-37,56,-1974,-4190,2859
90,-5,30,-2484,70,331
103,94,30,4135,-358,-415
119,6,-113,-436,-1647,-264
-104,-66,-74,-210,-46,-522
-78,-76,66,99,-688,563
-4,33,-34,-396,-1298,671
29,-10,-51,-741,-980,78
28,-21,-42,-303,-1383,950
57,-49,-55,398,-752,927
48,-2,-52,-334,-906,1723
-75,47,-84,-220,-710,1945
-74,72,-68,-125,-954,2316
38,65,-70,624,-334,2515
55,69,112,-287,-629,2540
84,90,-106,-352,-299,2676
90,23,127,441,-407,2009
61,31,-107,-932,-129,1855
-28,-32,-111,-239,-415,1685
-29,-71,-99,272,-175,1254
-60,-106,108,703,85,237
-98,-82,-52,5570,2493,-4583
0,119,-123,4326,4129,-4910
-10,92,100,3226,3340,-4684
-113,27,62,667,2986,-6753
-62,-71,-25,1962,4326,-6528
-110,31,-119,1832,5014,-5881
91,64,51,1830,3636,-4810
-126,85,-68,55,2211,-3343
-114,75,47,-412,1127,-1543
-22,-77,10,-197,-340,-602
105,54,-14,572,-822,240
90,-1,26,2062,219,-562
18,76,-75,2580,-269,-989
37,-42,62,2931,-710,-667
41,-54,-63,2222,-2419,-502
-40,113,23,1039,-1386,852
58,-70,49,-1084,-2807,2855
-116,110,96,-2421,-4380,4140
-80,98,104,-5277,-5030,2930
14,-97,-95,-5091,-797,-956
-52,60,-44,3517,196,130
-61,-53,-84,2020,-1578,-455
-95,127,114,-2051,-1872,363
-55,114,69,-1073,-1005,512
-40,-87,59,-395,-886,719
47,65,35,-1546,-514,-173
50,7,49,-707,-648,948
43,54,13,-708,-1493,1151
-108,61,18,-126,-1327,1389
-127,85,7,-387,-1398,1581
-103,78,-16,553,-616,1147
-74,59,-90,656,-1133,1483
-52,43,-88,161,-254,1601
-88,-6,-96,606,-808,2021
19,7,-116,-280,8,1812
-51,16,-123,-218,-617,1639
-82,-23,-112,-114,-442,1246
-74,-44,-119,8,251,978
-88,-124,100,697,-115,1119
-125,89,63,987,154,1078
-63,-81,48,4562,3098,-4406
15,32,122,4902,4042,-4794
34,-8,113,5246,4217,-4745
74,74,21,3158,1937,-5019
-13,90,3,1257,1743,-6920
102,-55,-7,1665,3056,-5819
29,-85,-128,2045,2055,-5383
-43,-75,86,746,2695,-5427
-55,117,-14,1037,648,-1236
-29,36,-118,-131,-598,-678
51,2,-14,-56,-660,-414
12,120,12,1522,-104,-695
-27,-87,116,2443,-819,-345
62,118,22,2705,-611,118
95,93,-122,2251,-1789,1058
8,27,-54,693,-1979,2092
-65,58,74,-2629,-3719,2264
-8,71,-3,-2553,-4867,3109
45,-14,-7,14,-5986,4718
-27,111,8,-4615,-1718,2270
8,-102,-20,-1862,1531,-1467
-108,-6,-103,3479,-2233,-579
-66,-19,87,-210,-248,-311
-36,-11,-61,-558,-243,-355
-5,-52,62,-71,-1064,-121
26,-89,-81,-1326,-1276,-279
64,-25,-88,-1775,-711,-682
-16,-117,-115,-331,-1395,-129
6,-1,-53,-1373,-468,222
15,20,-49,-1446,-1381,1176
29,42,-17,345,-1050,1590
-99,92,-18,1182,-2044,2179
-48,120,-20,547,-390,2479
12,-121,-113,840,-1336,2378
120,50,108,1339,-1067,2910
124,112,122,-648,-868,1986
61,48,-5,-202,-1535,2329
-17,-42,0,1113,-240,2282
-10,-12,-73,1524,-522,2017
-73,19,127,893,-502,928
-48,-16,-83,3881,2098,-4314
-110,23,3,1257,5467,-4942
-116,-48,-112,2054,4393,-4924
-11,-26,-117,1653,5171,-5017
-59,-30,-11,2210,4201,-4656
-46,-70,-27,231,3738,-6131
55,63,20,246,3016,-4959
-66,77,11,642,2878,-2978
37,48,-95,-383,1180,-2271
-91,-27,75,-70,418,-549
54,86,74,6,207,-439
-36,-126,28,844,-188,-71
-84,-80,-56,1877,-29,-13
-49,-122,55,2390,-972,164
-38,-105,-81,2532,-818,241
21,-92,122,805,-2019,1431
-47,-82,-80,-154,-3288,2480
-67,-108,68,-3746,-5045,2829
-4,-39,25,-4072,-6153,1968
7,-65,-78,-4221,-5903,2673
111,-125,122,2516,-604,2783
72,-50,65,68,-1668,-1481
71,87,-100,-477,-497,-1450
-69,-110,121,364,-225,-343
-30,51,-26,-1058,-147,-799
-26,-38,-125,648,-62,-847
8,0,2,-567,-43,-938
-1,18,-92,-989,-881,-946
2,-75,-128,-300,-1514,-651
-17,-19,-58,-160,-774,-100
-51,70,-36,-1497,-784,578
-20,96,-31,-688,-1347,1022
78,104,-41,808,-1809,1798
-116,-48,17,381,-1653,2204
-45,-66,-31,914,-1474,2177
51,-88,-21,461,-957,2516
27,-77,-51,199,-1174,2317
-12,85,14,872,-1028,2376
17,0,-40,1275,91,2489
6,-9,-119,1394,-520,2597
87,-77,110,4325,5327,-4863
36,50,107,5401,5110,-4606
63,12,58,5512,5780,-4274
118,-122,92,3121,3499,-7079
-37,-111,124,2781,3217,-5869
86,-109,76,3400,3180,-5768
-17,53,-14,913,1624,-5505
-73,-73,-42,228,67,-1238
-63,-76,82,1340,-892,-442
102,108,-86,1001,-1064,-763
41,-55,125,1515,-1145,651
67,76,26,422,-1306,483
122,-80,28,-303,-1838,557
94,108,-121,-1377,-3820,2142
-31,-112,111,-2496,-3724,1435
67,90,77,-4150,-7136,2119
-24,9,89,-2345,-5887,2215
116,117,50,-2836,-5488,3157
-38,-75,-2,-888,-1598,1609
72,47,-2,-3021,-467,-966
88,-62,20,2844,-922,-1392
45,61,-31,-1692,364,-824
-46,118,53,758,459,-550
37,15,-127,-565,448,-922
53,-122,-121,2407,171,-1677
17,103,53,1039,-822,-1172
-89,-83,33,-1138,-1406,-607
-110,-117,82,190,-151,-8
-87,18,98,-1176,-1297,1039
-53,10,-91,969,-1315,1209
65,76,-78,1112,-2381,1701
46,72,-91,1352,-925,1839
-79,76,-96,1334,-18,2081
-125,-112,61,955,-5,1625
-115,90,94,1010,-547,1744
-125,28,-90,682,91,1186
106,-32,-80,994,-5,1248
52,-36,-104,963,-926,930
28,-60,-92,950,-330,632
12,-40,-99,35,785,-215
-65,92,-31,2684,2763,-4646
21,31,65,2956,4744,-4488
30,-48,-32,4575,3204,-3975
-113,78,-14,3127,3750,-5545
0,121,-8,1601,3514,-6576
-3,-87,-62,1475,3032,-5417
-75,105,-100,557,3182,-4890
-11,-14,-31,132,2097,-2305
52,73,30,170,802,-324
-116,86,-54,286,-369,-501
38,-73,-53,326,-953,-380
-14,-70,-29,1405,-776,-692
-14,-75,-123,2681,-860,-212
41,12,-1,1614,-1598,-234
78,37,-69,1666,-1482,-575
-42,-79,51,-635,-2722,1639
70,44,-55,-2487,-5677,2151
-59,-75,102,-4473,-5569,2328
116,-34,-92,-3510,-6761,3900
-65,-48,23,-3786,-1014,665
-81,38,-102,5349,841,-1798
-33,119,7,-1274,-1034,-1238
-64,-59,16,-559,70,-548
-50,6,-107,-415,-650,-463
-13,0,48,13,-937,-513
19,45,-34,167,-1084,-612
-18,11,-103,723,-908,-997
-7,77,-103,-1130,-813,-981
-64,14,-120,-158,-1554,-39
-56,59,-87,739,-1286,265
-24,87,-47,403,-1598,1073
-75,93,-95,944,-1365,1464
22,100,3,253,-920,2164
124,12,-71,1497,117,2746
-21,-110,-82,239,-359,2817
11,30,-68,1489,-340,2535
1,44,-43,-1199,910,2387
44,-69,-124,-59,671,2831
48,125,56,1650,-459,2817
35,-78,83,71,-495,1967
81,-57,46,3502,5444,-5287
67,8,-1,5709,3513,-3223
-18,121,126,4072,3833,-3968
99,56,-101,1352,3718,-7447
-107,43,-102,2098,4015,-6479
57,-54,2,2131,4505,-6826
-27,-13,81,1100,3576,-6010
-100,84,103,748,2277,-3587
125,-105,-5,-492,1050,-2618
-107,-25,-37,458,-161,-388
-2,43,-112,1157,-794,-77
-13,120,-112,2058,-324,-227
-15,-100,54,2875,-599,498
34,-10,-24,2632,-843,881
-105,-4,-62,1326,-2043,1908
127,21,113,821,-1868,1150
-95,-15,2,-3268,-4360,2294
29,91,-84,-1402,-6670,4209
27,-67,24,-3784,-7129,3623
10,109,-20,-2399,-867,1658
15,62,-80,3533,271,-2528
56,11,-123,-435,-248,-513
106,-24,10,-292,-74,-85
-50,65,99,-574,-638,-190
-18,-11,-38,54,-1181,-381
3,5,-93,-1147,-515,-819
-4,-42,-93,-134,-577,-376
-12,-3,-92,-75,-1262,374
-16,47,-71,160,-1445,905
35,126,-26,117,-1454,1110
45,92,-22,1165,-1145,1711
102,81,-45,1029,-1212,2279
-70,52,-65,1161,-438,2828
6,57,-97,594,342,2661
122,57,81,-322,113,2671
102,42,-104,-4,-984,2579
61,-12,-42,771,-671,2689
19,-43,-96,1082,-299,2494
-23,50,-113,-1986,-238,1472
99,94,-125,-2711,-1030,652
-73,-101,38,3376,3684,-4455
-7,-122,85,4604,3582,-4470
27,114,-106,4315,4322,-4788
81,108,17,3107,2396,-5586
38,119,45,983,3398,-7414
48,-55,29,3080,3146,-5417
-57,-43,-73,1270,2846,-4770
24,54,10,120,1760,-2336
47,-1,-44,297,57,-419
-70,-59,-70,270,-803,575
40,-128,-54,597,-879,-192
-70,-124,125,2135,-618,90
-21,-59,-46,2127,-896,-523
82,-125,88,1607,-1586,38
79,-2,9,-718,-2576,1793
-109,-123,-118,-3237,-4829,3216
61,-64,-60,-6150,-7687,2833
-110,113,-53,-7649,-7523,1440
-112,-60,-110,4605,3853,1232
124,52,48,1421,-1870,-2983
-10,121,81,509,-768,-675
-94,78,-27,-178,-355,-427
-60,-53,114,-284,-996,-623
-46,-25,68,-5,-727,-748
-7,-77,35,1487,-293,-135
-21,34,-67,-43,-1120,-47
-12,9,-98,113,-641,-232
12,26,-103,-783,-1316,927
-21,0,-103,-155,-1406,1420
67,8,111,1274,-1455,2050
-74,23,97,365,-1620,3038
-49,35,-67,393,-784,3298
-82,20,114,1061,211,3435
-94,-17,80,943,-439,3877
15,-60,100,322,-129,3746
-32,-62,105,35,-1102,3350
-101,-13,-20,-592,-891,2640
-50,-117,-58,-204,-819,449
81,0,-99,1560,-458,-881
16,79,-117,1386,421,-1176
-41,126,54,4166,4470,-3796
6,17,53,4568,3920,-4092
-34,-12,79,5087,4080,-3932
-2,-10,115,5162,3280,-5007
-125,124,-108,2790,2198,-6226
-5,-3,94,2313,2729,-6635
17,51,-49,1404,2968,-5339
-124,-40,18,1384,2405,-3282
-95,-29,13,817,656,-820
-81,93,-48,1025,-1332,391
81,-6,-55,912,-1899,101
43,-125,-67,2864,-1558,39
106,36,105,1219,-2034,-26
76,-46,-66,-614,-1272,515
-93,-100,90,-1765,-3640,2890
84,-102,-2,-6202,-4341,2877
78,41,-34,-5547,-6799,3020
80,-13,21,-3368,-165,-1724
110,-66,102,5450,531,-1463
122,105,-77,953,-2185,-932
-24,1,-108,-333,-733,416
23,95,-26,-686,-1380,1049
36,-91,-51,-689,-2229,92
96,-92,-6,-841,-1457,504
70,14,40,-931,-1534,1016
60,63,34,-638,-1091,1269
-127,100,41,-63,-1621,1549
-91,101,49,431,-816,1424
-107,52,-14,1237,-196,1643
-71,38,-89,1185,-355,1964
-40,65,-107,354,-238,1766
-71,8,-104,857,-97,1950
-47,-30,82,852,334,1425
-67,-77,73,540,88,1559
-101,-120,42,792,154,1248
-103,125,65,202,18,823
-128,80,51,105,245,487
78,34,59,-49,-162,433
66,4,67,232,31,301
45,18,82,-222,79,44
-20,-107,41,3095,4271,-4307
-2,89,-40,5281,1871,-4746
70,68,-124,4389,3461,-4753
54,96,53,2265,1742,-6576
119,87,81,1890,3406,-7370
127,-15,33,2004,3520,-6523
67,-116,-66,1473,2754,-5712
-112,29,-52,169,2282,-3877
-117,-83,-78,1345,96,-301
-101,-91,55,364,-1375,93
56,113,-89,740,-881,-866
2,85,-100,2034,-718,-167
86,104,7,2644,-878,455
-102,-105,-87,2087,-1304,515
-30,-127,-62,-126,-1627,786
-55,-44,-109,-1812,-2753,2705
-10,-97,8,-3871,-6907,4447
42,-72,-2,-6359,-5398,2447
77,-18,59,-3058,-760,-270
-117,-47,-106,5691,-1470,363
-85,52,-23,-166,-1646,-749
-67,-62,31,1895,-396,7
-109,-63,-111,994,-1206,410
-11,42,85,487,-129,69
-32,-45,-16,629,-783,462
-6,-102,-90,262,-573,197
34,97,125,153,805,-88
38,65,70,-846,-49,286
76,107,80,-2585,122,494
122,114,89,-1574,-382,1239
-35,16,-61,-1397,-363,1399
22,-30,124,406,-96,1512
22,30,125,-512,-1408,2338
88,-9,-83,391,-365,2346
106,-3,-77,650,-344,2821
-124,1,119,1218,-38,2205
107,-58,108,1252,-317,2248
93,-117,83,939,869,1841
16,118,44,463,137,1617
-50,56,24,1405,73,1200
-9,52,81,4330,5058,-4485
-10,-13,-52,5945,3088,-4136
58,-89,26,1551,3166,-5914
-45,53,6,2429,3153,-5794
67,69,30,2233,3925,-6423
64,-2,13,1267,4094,-6563
-29,35,-35,239,3165,-3906
22,56,-126,1189,1300,-1678
22,-62,25,1130,-929,-616
62,91,-33,942,-442,-807
1,92,-20,1898,-340,-235
67,63,-11,2522,-375,257
123,82,-107,1717,-1227,1378
22,32,-91,489,-2082,1746
67,19,7,-1934,-4422,3404
-98,127,-58,-4756,-6083,1430
-85,77,-94,-5806,-11115,2929
41,86,50,-6213,-740,474
-15,-25,-4,6046,1295,72
-61,12,-20,927,-1578,-726
-61,-56,17,-625,-585,-428
-45,-91,-58,8,-354,-275
-4,-9,26,-474,-1140,-269
51,-66,-13,984,-1047,-790
41,-56,-74,245,-893,-572
8,-92,-100,145,-1119,403
36,-69,88,349,-1576,844
66,-3,-95,-810,-1772,2477
58,60,-69,176,-918,2488
15,86,-17,951,-1242,3313
100,-126,-94,1577,-180,2669
31,89,-77,759,-681,3420
85,57,-108,1196,474,2508
41,34,98,573,-426,2673
-24,52,74,224,-597,1556
-103,-29,109,831,-711,1224
109,-70,102,1374,-351,540
56,-109,75,1352,-219,-472
28,69,75,861,183,-1191
10,-38,81,248,177,-1300
-10,21,121,5928,2680,-3235
98,108,1,3581,2723,-3719
-66,-123,81,2726,3010,-4371
49,45,92,2379,3785,-4617
125,3,61,2831,3911,-5497
-6,24,-49,1648,3904,-6080
48,-57,126,1391,4113,-5936
-91,-105,-25,315,3288,-4667
-85,-84,18,752,1273,-1536
14,-46,-109,-33,-549,-554
96,29,6,550,-615,-237
6,-102,-88,1469,-822,-227
16,-81,92,2006,-774,142
116,-3,71,1659,-2266,334
-61,10,126,823,-3095,996
122,11,104,-777,-3556,829
-123,-121,-73,-3506,-6912,1361
-59,94,-89,-3436,-4920,1778
-106,52,-125,-3600,-9465,6459
-26,67,-93,-772,2145,57
77,-104,103,2780,-1793,-2027
44,14,53,-1549,-840,-1254
-31,-86,72,-280,-12,-631
-10,-47,-19,86,-469,-680
-25,-51,-119,-29,378,-931
7,-39,-40,-1410,-543,-1020
-38,-67,121,-928,-838,-680
-35,-42,-93,-364,-504,-838
-39,13,-90,-372,-1255,-485
-64,60,-1,-497,-822,617
-69,56,-18,584,-1022,885
42,111,-64,977,-2224,1717
94,121,-9,972,-1132,2307
-62,-82,-53,1250,-957,2394
4,-109,-103,2032,-1165,1941
-33,-120,-65,125,-586,2154
-50,36,-81,869,22,1656
-39,64,-89,195,-633,1648
-117,6,-59,959,-377,1057
103,12,-57,419,34,672
81,35,-98,4780,4913,-4655
79,-67,58,5598,4122,-4500
-93,-30,71,4718,4480,-5335
-6,87,29,933,3830,-7049
-82,-116,41,1554,4885,-6311
89,53,121,1380,3776,-4969
-80,-17,-116,122,3391,-3705
71,-44,72,1016,327,-599
76,34,14,1366,-891,-1178
-3,-77,48,1181,-1526,-1507
-24,-91,23,2003,-1889,-1112
24,-103,63,1978,-2830,214
-111,-40,-67,649,-2196,-54
-125,-125,48,-433,-4174,2419
82,-89,58,-3464,-5099,-769
105,91,-91,-3741,-7496,3131
102,-45,-43,-5160,-3420,504
64,-47,65,-1290,-848,1217
16,21,-114,1586,19,-1792
-56,-119,-74,802,-1129,-1131
-100,-70,-64,-570,-230,-422
-110,16,87,-315,141,-481
-85,2,-10,993,64,-762
-17,77,55,-538,-794,-1005
-109,-112,-110,68,-1196,-538
-80,-17,-99,-1118,-964,-391
113,-58,-100,-116,-2263,590
-84,7,-66,909,-1098,382
-29,99,9,-326,-802,1216
-9,103,4,1264,-1144,1715
87,92,-76,2641,-799,2031
-69,-124,-123,1711,-675,2681
-5,-127,98,1941,-817,2267
55,83,-125,1883,-797,2751
64,120,-108,999,-118,1985
3,50,-106,1193,-84,2227
-22,95,-92,24,-544,1475
100,29,-91,611,-631,910
41,25,-74,106,-320,103
-14,-65,-105,417,103,-611
-34,100,-15,3573,3684,-4071
5,38,-11,3283,4346,-4197
73,14,-11,4055,4511,-5194
-119,78,-22,1618,4022,-5730
-8,41,-16,1457,4414,-6756
46,-37,-42,2125,4431,-5364
-10,7,118,1026,4006,-5919
21,84,-119,576,2350,-2331
-28,82,79,228,-448,104
-104,82,-107,658,-1123,-461
-2,-81,-54,1422,-1001,-583
-70,-107,-104,2473,-757,77
-6,-91,-90,2882,-1390,-238
-112,-100,63,625,-2806,725
85,120,-22,-458,-3547,1449
-118,104,47,-2445,-5590,2454
-22,49,36,-3642,-6707,1052
16,87,55,-4734,-7970,4511
-15,-33,-1,-5825,51,1484
87,13,77,6208,-223,-2262
14,46,36,-884,-1429,-897
-1,-4,-84,-471,511,-1029
-77,-74,37,679,-117,-652
-4,21,110,-706,-127,-645
-67,-72,0,364,-944,-795
-52,-54,-51,-561,-1235,-429
-69,-43,-37,-581,-1369,-349
-78,-65,-8,728,-256,-392
-39,-21,-45,408,-534,503
-3,6,-92,622,182,1605
43,32,-57,1153,264,2171
-18,-61,-66,10,-1102,2349
-74,-104,-14,552,-716,2451
10,-95,-17,-38,-1815,2395
26,83,27,1869,-968,2333
8,53,-82,1223,-36,2121
9,56,-107,786,-185,1588
-84,-2,114,1249,-807,1483
110,4,-89,-227,-628,1113
66,-19,-107,82,-545,438
8,67,84,3781,4226,-4875
20,10,21,3160,5058,-4627
20,-24,-55,4222,3263,-4935
-51,16,-5,3247,5167,-6285
-68,-100,-63,4067,3249,-5489
39,26,31,1332,4679,-7896
12,-32,-128,1490,3329,-4635
45,2,-6,690,2470,-2978
53,126,17,-138,869,-906
-86,-50,-72,946,-530,139
59,92,-124,800,-791,-563
-52,125,37,1463,-1597,87
0,101,-51,2481,-1778,-241
85,-91,112,803,-1943,-980
-51,-115,2,-1084,-2181,310
-3,-6,-69,-1601,-4193,2400
-88,44,66,-5814,-7259,1352
114,-15,-116,-4737,-6977,3210
-38,-1,30,-2177,-7087,4407
104,-37,-112,4153,4151,-2689
12,20,22,171,-2401,-1640
-34,76,96,-166,-172,-82
-48,-65,-87,-900,-767,-231
-24,-101,86,-496,-910,-137
3,-41,19,-838,-551,-673
8,-49,-69,-125,-477,-903
26,-54,-73,603,-888,-426
16,-43,-121,724,-1627,118
42,-8,115,909,-716,269
80,-11,51,833,-683,1313
-91,-30,-107,2160,-1997,2193
20,7,-124,1198,-953,3750
63,62,103,941,-498,3585
-18,-76,62,-274,2,3297
-81,92,13,916,230,3356
29,-83,-12,903,227,1869
-66,109,-92,285,293,526
92,67,-128,-884,-234,-11
49,-94,79,666,-3,-218
61,-98,90,266,511,-913
-3,0,47,3504,4085,-4342
32,95,91,4180,4016,-4685
-83,-45,-95,1611,5426,-5112
-114,83,123,3550,3922,-6054
60,65,122,4621,4307,-5362
-88,-82,101,2589,4511,-7695
43,0,-110,478,3695,-4603
-80,125,112,-463,275,-659
34,-115,-125,-721,-1284,-1619
42,98,-12,402,-2325,-549
-38,51,-86,1559,-784,-1499
-53,126,96,1760,-1005,-1009
86,68,10,1799,-1393,-298
87,-102,-113,356,-2940,482
64,9,-77,-3814,-6865,1354
-9,-59,-19,-3907,-8039,4385
100,-92,-70,-5616,-3919,1753
81,92,21,1335,1376,-641
-74,31,-105,3020,-1673,-2624
-109,-87,-120,-1227,199,-514
112,-64,45,-515,32,-236
-88,31,-75,91,-267,-509
-81,-37,108,616,142,-467
-65,40,-50,-212,-577,-846
-76,-32,-78,-129,-687,-436
-45,26,-99,-398,-1199,-485
-42,34,-74,-98,-781,-530
-33,41,-76,118,-1241,598
-35,52,-117,624,-1073,958
52,107,-91,1227,-1635,2013
75,-107,-122,933,-1602,2476
-85,-111,-36,1143,-428,2887
43,-128,102,1508,-678,2969
112,-105,-100,518,-409,2674
25,72,-42,297,-622,3235
62,96,-83,-412,-168,2652
7,34,-100,127,-716,2540
-43,76,125,-277,-508,1470
-119,-112,-108,-1303,-167,188
61,-46,106,1088,177,-1567
-26,-45,-55,2354,3687,-4438
-35,6,-83,5665,3021,-3911
24,32,86,4034,4956,-4290
8,111,29,2435,3359,-6194
-87,23,85,2608,4478,-5469
-5,-29,100,3357,4334,-5931
74,-91,-10,1863,4310,-5753
-19,60,73,1491,3237,-3682
-15,-108,53,-548,1141,-2242
98,-105,-8,-186,-51,-326
-61,23,-99,84,-1251,-135
-13,-8,-59,857,-1510,-523
-32,-18,-84,1791,-945,-318
67,-8,-94,2504,-2182,159
-79,74,115,1660,-2447,-595
15,11,-5,251,-2590,426
18,-33,-24,-685,-3543,843
-32,-45,-60,-4050,-4569,599
-107,101,91,-6439,-6448,1597
56,82,92,-1842,-4609,3146
-126,28,-75,2468,-220,34
20,-33,104,652,-1625,-1976
-82,-119,-112,-118,300,-795
-92,-27,-22,-350,-121,-591
-105,-21,-111,334,-183,-242
-77,-7,45,228,-489,-398
-42,-10,-46,-428,-94,-508
-27,30,-116,-903,-836,-570
-3,-84,85,886,-1742,-48
-1,15,125,-633,-1144,151
-9,47,-87,-191,-1138,1093
37,108,-60,944,-1879,1833
-116,-83,25,665,-1098,2243
-45,-96,-26,1276,-1021,2327
37,-72,-58,462,-225,2824
-128,-116,109,676,341,2270
5,-121,-107,-271,-2016,2040
-67,72,1,25,-408,1653
-81,59,32,330,-270,1852
-117,0,-46,1789,236,1577
-123,-62,-16,3332,2399,-4770
-23,81,-5,3599,4191,-5283
-110,48,33,4068,4403,-5072
-37,98,122,3698,4733,-6149
-40,-86,82,5137,3634,-5077
-64,-120,117,1599,2735,-7663
48,-20,92,1237,3399,-5639
-114,-22,91,902,2417,-3563
-83,-70,36,6,419,-720
-6,-114,-86,202,-364,-147
119,32,-48,509,-1032,273
8,-120,9,1487,-834,493
15,-65,84,1998,-755,-355
78,-128,-85,2175,-1942,225
-9,-38,-7,1495,-3654,1811
21,-25,83,-1365,-2853,1156
7,-72,60,-3544,-5081,3018
-124,66,-107,-4944,-6418,2388
-112,77,-110,-5886,-5801,2642
-7,-87,14,2646,2046,-108
23,-42,-109,3030,-1709,-1076
-9,-7,37,-1371,-1297,-369
-47,119,-16,524,-303,-631
-57,-50,-96,-412,-472,-229
-29,-74,27,-227,-1118,-200
-7,-50,-36,-719,-723,-302
-3,-66,-51,-93,-745,-179
-2,-75,-82,172,-862,325
53,-75,-99,389,-806,956
97,-58,-101,1240,-1504,2593
117,60,37,1342,-122,1529
-19,37,89,1024,-624,2524
46,0,84,1254,178,2785
57,15,20,897,-745,2797
70,-36,15,139,-612,2943
46,-116,16,638,248,2516
43,16,25,2066,-82,3261
87,102,111,383,175,2990
-7,109,-93,-1362,-439,1140
113,19,-116,920,-164,-1388
17,66,-1,4694,4021,-5269
59,14,88,4203,5218,-5281
67,92,14,3858,3069,-5817
-98,-124,33,2041,3549,-6794
-20,-80,79,2484,3532,-5915
-8,-106,-111,1386,2365,-5023
102,47,125,-60,1420,-3034
38,-58,81,1725,-79,-623
111,-77,38,1068,-1476,7
58,-102,16,1556,-1287,-809
17,-127,-103,2313,-2560,124
103,8,99,2009,-2191,-661
-17,-107,-107,-1041,-3088,1089
99,-20,114,-2413,-4310,1876
-49,29,23,-4606,-6559,1980
33,72,-78,-4322,-7321,3928
49,4,-36,-3084,2136,-904
116,-36,75,5458,-126,-1017
-64,-92,-33,155,-1016,-226
-67,-28,-50,-1324,-198,-625
-69,-53,-112,-59,-342,-699
-46,-40,35,243,-869,-386
-44,-50,-45,41,-1085,-418
-39,-83,-69,769,-254,-470
-24,-101,-84,532,-323,556
-16,-66,87,-296,-609,1283
58,12,105,-862,-1054,1878
-100,5,95,137,-1519,2528
-29,10,122,675,-682,3072
-119,71,113,1652,-1166,3619
-84,-105,123,1645,-771,3093
-71,4,30,-49,574,2334
58,-97,-65,916,11,1354
-34,114,-71,-767,114,1135
-113,16,127,43,125,502
114,-96,88,1346,-178,185
63,-113,79,120,-108,-156
33,58,71,41,-161,-437
33,17,76,222,38,-878
35,-38,82,0,213,-920
-4,6,-44,4653,3816,-4706
49,-5,75,4850,5028,-5322
1,-64,0,4320,2885,-4573
66,-2,-20,1623,2437,-5625
-90,-41,-32,1197,2657,-5977
-115,46,67,800,2700,-4346
28,98,-66,844,2004,-2864
113,-77,43,123,544,-1514
-37,-61,-55,64,-337,-768
-120,46,-78,430,-1261,-67
94,-83,-124,1000,-1390,-174
87,-80,12,2258,-2543,335
93,18,56,1316,-3128,-58
-59,11,-14,1058,-2332,-347
42,121,110,-360,-2931,2277
17,-70,42,-5485,-3889,-439
-110,-50,-105,-3522,-6103,1965
101,-105,-20,-2339,-7744,5579
69,-37,-29,-2220,1951,97
-95,-90,-125,3551,-1869,-2806
-20,-89,30,-239,-606,-898
-70,-56,-34,-1471,322,-640
-76,-75,-91,-98,-758,-211
-28,-42,61,-143,-86,-514
-16,-22,-27,-828,355,-920
-30,-73,-101,-659,-489,-604
-48,-65,-109,-567,-568,-591
-45,12,-73,-2709,-415,283
0,55,8,-2072,-935,916
85,59,62,1302,-1704,1557
-99,117,16,2441,-1394,1921
-34,-26,-51,1533,-1248,1981
24,-20,-31,-337,-1469,2474
61,-83,-38,588,-757,1759
30,113,-43,1444,-1779,2103
21,114,-1,289,-491,1656
-90,46,-69,1188,-537,1304
124,2,-91,1196,-528,1214
75,-54,-120,1213,-76,855
46,-73,-122,928,-406,585
-7,-100,-4,4845,4288,-5075
-41,60,-71,4441,2319,-3572
22,-59,17,2211,2690,-5588
-72,94,104,3067,3251,-5899
33,17,75,2361,4183,-6792
121,90,-101,1971,3896,-6193
7,-2,-10,853,3007,-4653
17,-71,63,41,1717,-2094
-28,57,58,218,-371,284
-126,61,101,499,-1173,69
34,6,117,828,-1451,-640
-55,81,98,2207,-1531,-928
6,70,-41,2398,-1728,-996
91,29,101,614,-2251,-855
10,38,-14,870,-2156,1155
-81,91,-49,-3176,-2409,252
88,-7,21,-4145,-6262,3168
-76,-102,-94,-3960,-10284,4621
43,-104,19,-120,3148,-1842
61,-57,-29,3110,-1423,-1512
73,-47,32,-817,-929,-188
-108,72,37,-212,-269,-876
115,-11,-61,244,-977,-295
-111,15,94,-81,-698,-316
-91,-11,63,-1076,-648,-257
-102,-24,-1,-660,-692,-277
-67,-48,-63,-1019,-1025,191
-80,-37,-53,6,-1127,494
-41,-26,-73,47,-791,879
28,38,-27,145,-1012,1808
105,84,-108,827,-1211,2037
-52,-127,-99,942,-1330,2345
27,116,-103,825,-786,2505
88,96,58,1881,-750,2252
61,80,91,1211,-950,2545
84,15,46,1686,-165,1875
35,-11,30,805,-215,2086
-26,-34,84,1179,-947,1737
-65,-53,126,778,-64,1275
-115,-1,127,221,-199,369
-9,105,-60,3839,2844,-3530
13,96,33,4375,3673,-3740
-50,-78,65,2297,2839,-5345
87,124,53,2220,3208,-5734
-60,121,76,2916,2816,-5650
50,82,12,1661,3767,-6370
93,-77,119,712,3365,-5821
-72,82,-24,376,2148,-3302
-45,-126,104,-76,1466,-2310
-81,-84,-21,93,214,-849
51,21,-16,-77,-582,-206
4,-104,-4,1085,-254,-468
-15,-23,119,1475,-970,-299
-14,26,23,2599,-1002,-87
32,97,-120,1637,-1338,-545
82,-29,-40,1467,-1921,806
56,92,-105,-2655,-4190,2081
-85,100,84,-4466,-5173,2147
-92,123,3,-4048,-6379,3138
102,-123,108,-5030,-7637,2830
-32,-11,-29,2447,2132,-685
118,57,-43,2067,-1765,-1507
28,75,-80,-1390,316,-845
-62,-107,65,1080,-75,-217
2,41,-128,-695,-451,-374
-3,-3,2,-406,-673,-848
-7,-6,-77,-1181,-265,-1259
-15,-16,-99,-1859,-1837,-676
-34,-14,-34,-2094,-2329,-877
-100,-83,-19,729,-1136,-32
-64,-1,51,304,-1082,1112
6,121,-51,864,-938,1025
79,107,34,1767,-1308,2244
-101,-78,-75,958,-555,1585
6,-108,-86,1192,-777,2444
-26,127,83,1582,-665,2205
-5,101,-96,378,-1433,2084
-37,37,-52,672,-408,2054
-55,21,-74,1108,-1139,1769
-88,67,-19,75,-514,623
-23,119,-37,2624,2981,-4497
73,5,4,5268,4604,-5013
18,-60,43,5136,2906,-4733
-100,65,117,1664,4498,-6143
-3,-60,43,2081,3306,-5695
43,-7,-66,57,3167,-6031
80,-42,-60,-222,3315,-5318
24,94,-75,859,2181,-2679
77,-47,5,580,613,-2018
85,25,6,791,-419,-927
21,106,-10,699,-881,-275
-13,58,-107,1528,-1484,-1460
-41,37,100,1808,-1752,-1390
-65,45,10,1007,-2182,-1275
90,95,-53,-156,-2439,-606
85,101,-38,259,-4035,-75
-110,14,-20,-1820,-5558,1211
14,120,-67,-1967,-6326,1939
26,-44,118,-3625,-5380,3309
7,101,-101,-634,-1158,397
-45,-15,39,566,-270,-1981
-37,-30,4,555,-843,-1062
-83,-21,120,-715,-33,-651
-125,-55,30,802,-197,-551
-48,35,-112,385,14,-903
-72,-17,-38,100,-274,-1066
-78,-17,-102,-342,-761,-1089
-30,20,113,-2171,213,-1256
-124,11,113,-1400,-2792,-48
117,11,44,-117,-2223,762
-38,95,-82,361,-1850,1249
18,-114,-25,1349,-2014,1603
79,-84,-101,2417,-902,1645
-113,-17,95,1156,-1603,1793
-91,-94,102,1767,39,1601
98,-121,-64,1208,-347,1576
114,-73,-24,-1169,-937,1580
67,32,-8,1104,-1081,1632
64,19,-84,2086,-845,1282
50,40,-76,983,-650,715
58,94,4,3777,5587,-5171
81,-89,68,6939,4899,-3992
49,-115,77,2307,3980,-5357
-97,88,-106,2975,4839,-5676
4,-77,109,2986,4234,-5484
11,122,-83,1339,3221,-5171
-118,56,-12,514,2183,-3315
122,65,28,429,965,-1161
-75,12,-94,1000,-501,-563
6,-72,110,871,-1085,-843
9,-51,47,2499,-1294,-588
73,71,-62,2203,-1838,-445
-65,-116,117,1931,-2223,-358
69,26,0,281,-2145,-139
36,-37,-31,-2286,-4262,1260
91,9,-50,-5049,-5519,2694
68,37,92,-5539,-6939,2289
-9,-46,45,797,2778,-884
127,-117,19,4776,-1055,-1121
-122,-71,-95,-1827,-845,356
-105,-38,80,-809,-1511,-36
-68,43,114,-1199,-1047,-642
-34,-33,18,283,-477,-686
-42,4,-8,146,-1095,-439
-24,-55,-47,1445,-753,-331
-28,52,-50,-419,-1147,721
-24,-2,-90,728,-698,924
30,64,-98,-60,-1163,1887
-87,61,127,232,-829,2211
-88,98,-128,-51,-994,2872
19,57,-112,735,-1007,3245
-77,30,99,1261,-308,3270
-75,102,71,-637,-738,3060
-117,29,-102,-224,-879,2648
87,33,87,502,-784,2009
21,-2,-119,1036,-980,1624
-89,-42,114,1126,-173,776
120,-63,104,302,-11,28
59,-103,92,81,-107,-728
27,51,92,647,213,-1236
-50,108,-99,2958,3390,-4726
37,46,-26,4920,4329,-4919
5,30,1,4958,3317,-4677
59,-85,-9,2234,2329,-6275
67,-91,27,968,2914,-7365
44,40,-63,2260,3157,-4747
98,-71,-62,62,1651,-3346
-117,37,45,-447,876,-1045
-27,48,-23,684,-104,-358
113,-51,-51,831,-856,-695
26,22,-87,1222,-673,-1571
16,-112,17,2491,-1496,-228
92,-62,-52,1716,-1787,-787
-120,-125,-47,960,-1814,-42
-2,68,24,-292,-2698,1648
13,-40,69,-3541,-5221,1938
94,-53,-100,-4979,-8370,3720
109,48,49,-3464,-9093,5816
108,-76,-11,-286,2750,-1826
42,-104,58,4718,-1954,-4193
-111,-27,125,-1209,254,-68
-118,9,7,-1268,-235,-645
124,-75,-1,862,81,-50
-76,29,94,-329,-360,-310
-25,0,-14,-297,-522,-441
-62,-16,-79,-263,-443,-661
-63,-55,-108,-369,-665,-524
-50,-19,116,-160,-1405,-319
-5,113,-30,-1104,-403,-373
-47,76,1,1290,-496,705
-1,41,-106,1950,-1583,1697
43,-67,-108,-327,-906,2151
114,-94,-53,485,-1483,2691
-50,115,-121,1908,-813,2816
-19,-74,-108,687,-434,2632
26,82,73,1605,-538,2603
15,113,106,-149,-734,2009
-58,21,-79,474,-706,1604
-111,0,-115,997,-267,789
85,-28,-107,731,-275,297
-64,-40,58,4713,2980,-5336
-124,110,-119,3638,4894,-5400
-110,113,93,3052,4802,-6431
81,-106,-115,4491,4940,-6480
76,-34,68,3468,3730,-6682
-29,50,-22,1500,3379,-6885
-37,-71,-73,700,3034,-4838
93,50,-39,754,1804,-3163
103,-18,-28,159,75,-170
-62,-114,-16,-44,410,-533
-55,114,47,650,76,-8
-12,-1,-120,1399,-651,-586
25,-67,31,2406,-1236,158
-119,-99,-83,2159,-1774,379
-38,-84,-44,652,-2261,636
-126,-89,123,-471,-2698,1894
63,112,109,-1638,-2399,-39
93,-123,-92,-4676,-6240,1922
-17,31,-113,-6436,-7990,2372
54,81,15,-104,-6176,3998
-105,106,-30,-1644,527,-1017
65,59,-120,2530,-613,-2054
-89,-98,-4,628,485,-323
-57,32,58,29,297,-570
-18,45,-56,201,713,-919
-33,-68,3,684,-90,-539
-16,-14,-79,-923,-489,-731
-50,-42,-86,-1074,-699,-71
-63,-22,114,-23,-2179,496
-15,50,-68,-631,-1036,-103
-61,6,-35,-175,-174,737
-37,64,-84,-70,-656,1584
123,105,-100,919,-1326,1826
-95,-127,-126,844,-957,2151
-18,127,-103,1269,-1119,2357
72,66,102,1988,-290,2182
37,26,71,830,-643,2668
22,-34,-107,320,-1242,3139
113,-7,-67,140,-311,2429
-9,16,-76,-51,-619,1553
-9,-103,41,4009,4369,-4913
54,22,20,5762,3867,-4934
-70,103,113,5155,4685,-6321
-53,-78,66,1394,3257,-7520
3,84,17,-179,2816,-6242
88,-101,19,1336,4230,-4765
58,-114,2,434,3847,-4555
23,49,-21,-343,1398,-2314
30,123,123,-450,30,-809
-85,61,2,73,-747,-606
-15,-43,46,745,-1048,283
-14,69,-40,2206,-433,-1375
-27,-84,17,2652,-1460,-413
89,-25,-107,2244,-1698,-228
65,0,62,2221,-1650,-36
-61,-93,-37,-1877,-3624,2680
79,31,114,-4366,-6211,2430
-43,-43,-74,-5331,-8450,3232
-8,49,110,-5925,-6997,4139
20,13,-75,2148,3360,-2463
-93,-50,41,2287,-1692,-2538
-95,114,69,-945,-80,-121
-79,15,47,-583,69,-400
-75,-22,-32,1206,-162,-415
-39,1,82,-31,-240,-439
-47,-48,-66,-749,-713,-35
-57,-47,-95,-1122,-798,-282
-61,-34,-105,-956,-1503,12
-40,-18,-51,-65,-963,-12
-17,20,-23,-80,-815,803
12,44,-26,871,-1860,1291
-106,92,-57,1668,-1575,1553
-106,-102,-74,181,-1080,1972
-26,119,-48,1362,-1313,1772
2,64,109,2276,-170,1953
-43,98,86,1442,-729,2114
-18,53,84,1737,-876,1698
-55,52,125,723,-53,1455
-118,-4,114,1187,-373,1118
64,-58,82,1414,-392,637
9,-22,-12,1900,5932,-4748
50,-13,-43,6479,4683,-4556
105,-19,24,5072,5332,-4182
78,30,117,2643,3701,-6656
-62,34,-102,2980,4077,-5100
-17,48,126,2874,3419,-5545
15,-25,-70,1254,2075,-4796
70,-8,-109,-269,1684,-2111
68,31,-62,1460,345,146
-87,-96,87,291,-1368,-460
123,-24,-38,797,-669,-1121
-25,-52,-127,1482,-1616,186
51,-61,50,2583,-753,-198
68,5,-106,1929,-1440,353
-34,106,-41,1777,-2068,1546
9,97,-61,-6121,-7116,956
-77,-22,-4,-4642,-8335,4617
104,10,-103,-3960,-5726,5086
47,32,-47,-6457,-1210,1844
-11,113,-123,6085,1868,-2084
13,118,11,-76,-2235,-1302
-14,10,-103,-1001,801,-790
-113,-3,-55,-541,-1047,-465
-60,31,-10,-300,465,-205
-24,59,-120,-75,-33,-600
-20,17,27,-210,-843,-234
-19,-26,-19,-228,-595,-554
14,3,-77,-1138,-768,-720
-65,-42,-101,-710,-1371,-311
-24,-64,-83,204,-608,6
10,42,113,-1211,-1431,725
36,26,-24,592,-1997,1778
112,57,-1,1465,-1373,2310
7,-68,-76,550,-677,2262
29,-78,-53,777,-1293,2561
97,64,117,3083,-760,2512
119,-102,42,1216,-1094,2150
9,86,-81,1197,-878,1576
-53,-18,-87,1291,306,1285
-124,-15,122,1114,-977,1077
-61,113,-59,2747,2704,-4800
-39,23,16,2396,4259,-4838
82,-40,-120,3384,5257,-5276
123,-16,114,4052,4131,-5382
-81,-41,127,3362,3778,-4600
-76,39,119,1348,1833,-5312
-67,-28,49,-436,2516,-4884
48,60,-24,779,1982,-2940
73,89,74,635,914,-1649
121,-101,17,-815,-221,35
107,-97,42,-383,8,-619
21,-68,127,941,-1401,28
28,71,-99,1553,-1680,-953
33,68,72,2335,-1929,-1441
16,77,-65,2314,-2678,-1089
-122,-5,-88,920,-2938,-548
71,13,21,745,-4412,3054
-81,-35,-71,-1742,-1831,128
59,-25,86,-2764,-5466,2391
-52,-89,-34,-4305,-4561,3299
-53,-25,-50,-2866,-4642,5129
41,-43,3,-1449,-1232,1550
97,-27,-124,2639,-1185,-3700
-11,-50,-15,-572,-366,-983
-69,-41,118,-430,79,-138
-46,73,-20,-144,-193,-395
-37,74,-106,-166,431,-608
-60,11,60,571,-12,-425
-44,-29,-13,884,198,-173
-80,-37,-110,846,-551,133
-68,71,56,2970,-1591,158
-70,-96,76,1337,-341,323
-69,72,31,2079,-280,237
-25,7,17,1771,-710,1278
29,-24,-22,830,1318,1489
125,-110,-36,-1884,1266,1685
-22,-119,-102,-539,414,2328
18,-117,-126,1363,535,2217
56,9,-125,936,137,1849
-7,-6,-29,-495,729,1160
-71,22,67,1365,3094,-5643
2,56,-93,3830,3399,-5036
-58,52,-45,3733,3712,-4630
47,122,-101,2969,2829,-5620
-58,-103,-45,1545,3250,-7228
72,-34,2,3010,4360,-6051
-22,111,-88,2355,2341,-4935
-102,-67,-10,-93,1745,-3432
-128,-113,80,-322,484,-145
-15,-60,50,-432,781,-174
-106,-30,97,952,-591,-1
92,123,118,969,-1105,-1917
7,-57,90,2899,-1549,-555
95,-86,-34,2614,-1850,-302
-51,75,-60,3321,-3797,-628
-10,76,-73,-1415,-3029,192
-28,-45,-112,-2281,-4253,2303
-110,108,32,-4900,-5197,1117
83,-53,74,-6766,-10042,5976
103,-122,-119,-7470,-2469,2902
-33,-84,48,3640,2293,-2161
-46,-24,-43,4442,-3187,-1032
12,111,49,-2851,-531,-488
-30,25,-123,-382,179,-814
-77,-36,-3,1327,-406,-472
-65,16,-116,-153,-408,-550
-72,-2,62,652,-367,-490
-61,10,-36,462,-460,-952
-96,-68,-51,1119,-852,-232
-127,-61,-54,451,-492,357
-113,-91,-114,2162,-917,868
-19,-58,88,948,709,1237
-24,25,52,-472,-449,1021
26,-120,38,1239,-1330,2431
-119,-9,74,1182,-119,1926
-120,-69,17,1674,386,2498
8,117,-10,1807,1834,2901
-7,-74,-30,472,1036,1656
-23,-50,15,4,-858,1404
-31,87,58,605,-112,1109
-15,-75,-23,3258,1715,-5742
-22,28,-3,4546,2202,-4955
16,-118,7,3290,1119,-6277
118,44,7,2145,1407,-6147
-97,90,32,2174,1475,-5544
-79,-103,-9,1748,1744,-4792
59,-125,-119,247,1724,-4694
-75,9,3,-223,516,-2078
115,58,-104,-717,1033,-1616
-94,-65,35,83,272,806
127,113,-26,204,-82,-346
20,-47,-77,928,-664,-926
-37,124,-93,2738,-659,-622
0,-39,20,3506,-1308,580
100,-32,106,1365,-2139,1034
34,-107,-114,326,-1937,2254
-25,-30,6,-3500,-2367,1578
101,-107,64,-4757,-4685,2565
122,62,-108,-6955,-8566,5349
84,-92,55,-2116,-9411,5898
59,-75,-66,-3326,2995,-1343
-84,-5,-67,3945,-2109,-2995
-2,-20,87,-378,-462,-133
33,-80,4,-716,-110,-721
-10,118,-101,447,-514,-402
31,-110,66,-476,-126,-459
-38,92,-62,-587,-267,-221
-11,121,-104,72,-319,-219
-13,-126,-110,-20,-797,530
-3,110,90,448,-1008,1063
112,-47,-99,261,-468,1560
63,-5,-125,-1055,-775,1890
-27,-7,-43,759,-839,1874
-38,-90,35,2751,-37,2392
41,-11,37,1066,-820,2312
-6,-101,25,1252,-843,2725
29,-105,82,1067,-427,2674
22,-30,91,817,-405,1481
-85,-57,113,860,-548,477
126,106,119,821,-25,-56
-122,127,124,3922,1672,-4747
-43,58,-21,2923,3441,-4483
-70,-23,-86,4267,3371,-4691
30,-9,-24,5148,4169,-5374
125,33,17,4678,3455,-5767
-93,-20,15,2582,1859,-5722
-98,107,59,2161,2536,-5081
50,71,-73,1270,1697,-3764
-106,-23,-21,73,921,-1770
29,20,119,48,705,-409
-57,-5,-34,614,-432,810
-63,-70,117,791,-1399,-893
102,100,122,1388,-1825,317
-126,-128,94,2518,-1735,-134
-126,93,-103,2285,-2186,1063
62,77,-54,-723,-1947,308
-17,-39,73,-2036,-2983,1296
-76,-85,-107,-4414,-4205,1072
-100,10,56,-2287,-5782,4201
87,-73,-47,-7440,-5859,891
-35,29,-27,-4608,-869,-882
21,-87,125,5409,307,-990
-122,-51,107,64,-930,-254
-109,-76,25,405,-258,269
-46,23,-69,-166,-142,-379
4,-74,18,385,-880,395
7,-87,-65,-952,-1232,263
15,-96,-90,-422,-731,-87
29,-94,-89,108,-283,434
48,-76,-90,-91,-575,1005
94,-55,-127,428,-695,1375
-122,-71,119,523,-1306,2835
-29,-19,-124,209,-53,2416
55,-21,87,236,-359,2916
88,-26,44,-56,-718,2553
107,19,99,-353,-1995,2168
118,-23,77,1513,-11,2003
22,-3,64,660,-510,1816
-34,0,114,-352,170,671
-115,-91,107,668,-3,456
36,24,-45,1863,2577,-5998
61,104,-2,2868,3718,-5381
-7,-38,-2,5509,2874,-4844
92,41,51,3248,2773,-5626
-67,54,-23,1027,2738,-6555
23,120,-54,1914,3427,-4563
-114,-101,110,583,2262,-4483
5,100,-39,-226,1775,-2361
73,98,-43,664,238,397
-19,-34,-97,-32,-326,-269
90,108,105,725,-1246,60
87,-78,-113,1562,-1050,-547
73,-109,45,2874,-1599,548
-88,-117,-85,2558,-1840,826
34,54,97,493,-2346,823
-22,-2,54,-1613,-2435,1637
-39,-108,-17,-3008,-3521,2712
-39,-47,63,-5446,-3232,1817
120,-30,91,-8752,-6009,2248
-10,48,-73,-3089,-2340,3548
78,68,-75,3659,-732,-3811
-65,-17,-113,202,-746,-48
-29,7,40,-990,-271,-703
-16,-6,-34,5,-804,-670
-16,-84,-118,426,-378,-227
-9,-62,4,-975,-322,-421
-31,-119,-96,-814,-1249,128
-12,-81,-115,-889,-885,-115
13,-75,-91,-66,-774,401
10,-22,-101,-147,-1551,465
109,-32,-90,864,1171,541
124,56,123,-571,-1713,2507
-40,-102,75,508,-1374,2095
13,-81,-96,187,-1677,2171
20,73,126,1899,-328,1781
-21,-2,88,2122,-392,1942
-56,-1,42,474,-430,1902
-67,-7,111,-204,-93,1691
-79,-32,107,417,-260,1465
-119,-36,-115,656,-66,874
99,49,109,2150,3026,-5229
16,112,-78,3604,4309,-5097
-79,32,-110,3809,2703,-3638
-52,62,-78,4081,2946,-3599
0,114,-7,3576,3122,-4545
59,92,-68,3115,1981,-4705
-99,120,-17,1718,2357,-6027
-56,-32,-85,1781,2819,-4342
115,82,52,304,1276,-4610
-26,-2,-47,-232,1021,-1143
-10,42,77,-523,274,989
95,-102,-91,114,-70,367
67,65,30,1818,-1336,-300
96,68,46,1601,-1680,-1436
109,-119,36,2747,-2059,-32
-116,-92,-56,2575,-2554,29
62,42,124,1086,-3516,716
-111,69,97,-3281,-3238,1279
86,50,43,-3687,-4153,305
-25,41,-78,-4386,-5333,2910
-32,-60,-27,-6227,-10403,7236
35,60,22,-2128,2522,459
-8,36,-106,2473,-1908,-2852
97,-101,127,1159,-934,-1529
-7,-85,69,-548,337,-90
-24,24,-12,36,-800,-201
10,2,-66,974,968,-827
-7,8,-42,-537,272,-841
-21,-50,-114,-241,187,-608
4,-106,98,-748,103,-365
-38,122,116,-789,-1251,630
-34,-73,125,-1037,-910,981
66,-3,-112,614,-923,1208
111,67,-77,281,-1321,1863
-94,117,-77,1542,-1081,1542
-57,44,54,3188,-1124,1982
-19,-75,107,-895,-525,1510
-100,41,94,1065,30,1278
-103,-12,78,1153,-405,1596
-115,-65,74,795,384,1381
-92,94,-7,1869,4546,-4416
-92,1,-84,5035,2949,-3963
-36,37,-63,3060,3018,-4502
41,44,-32,3145,2678,-5204
107,-16,-53,3319,2282,-4628
-117,36,-68,1208,1922,-5187
-110,-62,-93,1588,2175,-4075
-6,6,-10,272,1611,-3098
33,-24,80,-291,272,-222
-30,-29,55,-151,620,-598
85,-75,93,927,-960,-93
53,-10,81,1960,-1243,-892
34,-73,54,2134,-1892,-99
110,122,-54,2587,-1997,159
-54,53,81,716,-2883,703
-100,-10,-30,-2025,-2949,1272
-97,-122,-73,-4002,-4335,2828
-100,43,-101,-4793,-4554,1381
18,72,17,-5559,-5664,3751
71,27,-124,-2850,-866,1183
-19,-53,73,969,-426,-2090
33,-75,103,759,-1174,-1303
-35,-109,91,352,-12,-537
-70,-52,-65,-258,-561,-2
-15,15,101,131,-815,-525
-17,-56,10,-231,-509,-383
-7,-37,-65,-724,-713,-772
-13,-74,-107,48,-1056,-576
-17,-25,-101,-1086,-100,-758
-30,-30,-72,-474,-399,283
-24,-41,-109,838,-1081,1109
17,35,-98,1622,-998,2292
104,-122,115,1221,-215,2059
-38,-114,72,501,-416,2525
-45,122,118,494,-476,2669
-5,74,102,840,-263,2482
12,33,87,905,-237,2417
-12,15,-90,-876,-228,2758
-17,77,-82,-658,395,932
-109,-42,-109,1338,-1017,961
-68,-2,-77,3585,3336,-5968
-35,73,-16,3319,3698,-4570
2,75,-81,4092,3421,-4986
-11,34,-76,3427,2729,-4914
98,66,-22,2842,3059,-5333
-124,83,-56,2041,1585,-5354
-100,-12,-60,1518,1796,-4849
54,-68,-77,1964,2374,-4364
-30,-22,89,17,2291,-3210
119,50,113,303,680,-662
-3,-37,-45,-977,63,-662
-119,34,-59,307,-1078,961
31,-81,-92,1288,-1279,-244
8,-122,25,2559,-2126,18
1,6,3,2205,-2022,-556
75,-60,-94,1856,-2526,21
-62,-102,-42,321,-2415,749
122,119,107,92,-1656,812
-96,-5,-100,-3440,-4360,2047
-40,-64,10,-4931,-4209,2422
75,-14,44,-2147,-3493,4435
43,-31,-111,-4165,-141,455
-120,-23,-100,2911,-890,-3051
-53,-92,95,207,-1358,-684
-74,-25,121,-631,-484,-253
-90,50,24,-320,-413,-721
-79,-46,122,875,-1303,222
-17,32,50,-1160,-782,-573
-18,-48,-39,-831,-422,-424
-30,-39,-77,-553,-1506,115
-1,-44,-107,682,-1358,82
27,71,-36,-1116,-765,492
6,31,-60,486,-995,1027
116,42,116,2678,-891,2244
106,-125,50,1021,-1231,2641
-15,-52,-107,462,-46,2351
32,105,124,2135,-552,2808
69,-117,-111,846,44,2417
7,9,115,1002,727,2336
7,25,59,326,26,1882
56,72,35,2815,6705,-4882
-97,6,-112,5517,3846,-3642
-18,111,-46,2234,4371,-4916
-13,72,-108,522,2743,-5202
-12,99,-50,885,4570,-5735
22,-26,-62,3013,5694,-5303
-125,-114,69,883,4033,-4201
-58,-6,62,-177,1692,-1289
31,-45,43,-993,292,308
-62,96,123,-162,599,-435
51,-119,57,1185,-200,-775
-30,104,21,1053,32,-1741
-20,-34,114,2679,-735,-1215
20,115,2,1988,-1964,280
-97,112,125,2065,-1975,69
-64,126,43,-725,-3247,926
-90,89,-24,-2024,-4642,1367
76,99,-42,-3384,-5259,1636
-18,-19,-54,-3228,-8687,5418
18,-23,56,-5216,-2260,2597
2,-42,-81,612,1212,-955
-123,75,4,3001,-3106,-2412
0,-105,111,-1347,167,-998
-47,-94,12,-426,108,-649
-39,-33,108,-115,-170,-658
-19,15,13,-526,-334,-1276
-23,-41,-87,-189,-434,-1106
-39,-37,119,-385,-1399,-831
-36,-63,-80,342,-949,-374
-27,18,-65,-50,-1226,196
-52,3,-57,1508,-935,1105
17,52,-77,2132,-1370,1893
54,102,103,1711,-780,2321
-126,95,104,1624,-726,2825
-11,102,102,837,-92,2892
-3,98,71,1077,406,2482
-7,22,53,1553,-364,2443
-11,15,48,765,529,1799
-73,-34,59,335,-382,1540
-120,-5,88,-352,-49,834
76,-42,92,4714,1720,-4786
17,-94,-46,4136,2977,-5074
112,-91,-17,3580,3861,-6237
-107,91,-22,4966,3547,-7107
-77,25,65,3302,3807,-5989
-69,88,-15,1009,2091,-6555
16,-97,-35,1450,1992,-5233
53,70,67,-60,740,-3146
-125,-115,-35,277,1409,-2424
43,-92,27,558,163,-292
-65,54,-64,456,-399,15
82,92,-120,1135,-1184,892
48,-85,95,1778,-1046,-315
-32,-123,-69,2318,-1738,27
75,26,-15,1757,-2178,1191
-87,101,-6,-3083,-4003,-205
-29,53,67,-5071,-3268,1195
-8,72,5,-4997,-5410,1633
-36,-95,-80,-3143,-7025,2066
107,5,-95,767,-3067,1201
-127,44,-94,5264,-1273,-3090
-78,-115,-79,-285,-487,-453
-86,-99,108,1199,-404,50
-76,33,-102,413,-1073,-220
-63,-28,56,523,-190,-327
-54,-45,-15,-864,-109,-384
-59,-57,-76,-1052,-460,110
-42,-73,-96,-791,-901,614
-4,-12,-112,-877,-597,669
48,43,50,-1005,-2676,854
-118,-124,-115,-1936,-2122,681
57,66,-68,352,-1342,555
119,114,28,399,-779,930
-122,97,-72,619,-1230,1517
-86,-102,-13,1647,-808,1551
-76,114,-82,2210,-490,1428
-53,92,-100,1518,269,1518
-108,35,84,1056,260,1581
-110,12,109,548,-211,1416
-121,-60,100,1345,539,1125
-80,122,-36,4570,2850,-4142
0,-93,-121,3148,3180,-4010
34,-71,-52,3016,3176,-5439
80,56,16,4675,3304,-3828
123,89,22,3862,3201,-4263
-100,41,21,913,2942,-7129
1,53,-48,1750,3046,-4899
68,73,-5,1372,1955,-3741
124,23,65,1040,832,-1092
20,-11,-22,-154,-64,-95
-66,-62,-96,282,-1255,-858
101,-36,-117,1115,-1847,-442
44,-35,109,2024,-1739,-846
11,50,43,2730,-3048,1881
-59,41,-19,1280,-3024,-190
-104,-22,-23,-3273,-4620,2389
-33,16,-59,-4022,-3685,1271
-52,115,-27,-3530,-7168,2653
29,94,0,-3803,-7865,4059
68,126,97,-4810,568,1174
-99,-55,-33,3040,-113,-2575
25,-61,94,918,-748,-1332
4,-15,80,-720,60,-639
-48,-2,-21,361,-283,-568
-33,34,102,31,-203,-764
-34,45,-1,-625,-136,-1106
-70,-72,-115,-378,110,-1179
-27,8,111,-15,1160,-2366
-93,-75,122,-537,-416,-415
105,-31,-121,-689,-2155,1419
-63,21,-90,309,-2320,1857
45,-100,38,-160,-1486,2216
-103,-91,-32,1086,-1002,1828
-19,-25,-76,1674,-988,2288
-46,-64,-33,1624,-1385,2543
-39,124,61,970,-46,2423
-9,68,36,1631,410,2699
-22,66,-2,1641,1123,1985
-59,93,-48,325,1089,1119
91,25,-103,689,-609,821
115,110,-77,3419,2599,-4268
113,63,-71,3279,3012,-3968
-49,91,-33,3305,4108,-4683
12,64,-53,3010,3596,-4388
79,-63,-93,5130,1373,-5536
-69,89,11,1417,2449,-7926
17,-114,-38,1324,2919,-5128
102,-105,0,-173,722,-3179
80,73,107,-776,389,-504
-43,97,55,527,347,1112
115,-109,-102,-410,-1790,486
24,35,-43,975,-681,-1006
-79,24,98,1764,-1739,-1210
-14,-104,70,2330,-1753,-449
109,98,-105,669,-2591,0
-104,28,80,-1299,-2498,334
-103,-46,-116,-2191,-2556,1796
-61,48,127,-3628,-5146,2266
112,-79,18,-3175,-6358,2847
-39,99,36,-5238,-266,616
118,-65,21,1228,-410,-312
48,-11,55,899,-1539,-1042
13,-2,90,-253,-215,-886
-33,-47,46,-242,130,-398
-25,18,-81,-436,89,-615
-1,-44,60,-66,312,-632
-14,-71,-81,-635,-152,-363
-32,-64,113,-1301,-1209,-107
28,-78,123,178,-1064,579
-19,-29,-88,-48,-1429,1046
30,71,-52,-330,-1517,1120
-119,105,-40,-283,-1737,1632
-112,61,-40,1292,-952,2040
-42,-123,-128,932,-1179,2101
42,112,126,1699,-1137,2722
83,-108,106,2291,-1414,1179
-87,98,-106,1241,-453,1391
-96,53,89,430,554,1180
79,-57,74,810,-133,1143
85,110,70,1520,573,1402
-85,-128,-115,2461,2415,-5168
-58,19,-65,2942,2830,-4855
-42,61,-109,2624,1956,-5275
68,94,-100,1380,2649,-5031
88,94,-103,1708,2153,-5123
-108,101,-114,648,2628,-5309
-101,72,52,358,2427,-4987
-38,-97,-107,-311,1386,-3307
42,27,4,-29,-285,-290
-56,-27,-32,-1187,-595,-657
125,82,39,-6,-585,228
10,46,71,684,-646,-717
-93,25,0,2042,-456,-939
-53,-48,126,1733,-899,-709
41,-21,-95,2622,-1937,563
85,30,16,-780,-3511,1342
122,19,-39,-1415,-4391,3347
-82,66,-6,-4580,-3680,797
-95,-99,-119,-3381,-6094,2843
-76,16,83,-4514,-4514,5946
15,7,103,-2296,215,-155
-23,-126,79,3107,-1007,-3735
47,19,116,301,-769,-509
4,26,43,-1858,43,-570
-9,-24,-35,644,-360,-496
0,2,96,246,-651,-311
7,48,-14,-951,-56,-1101
-14,-5,-29,-503,44,-1038
-60,-67,-106,219,-777,-307
-47,-6,-105,30,-1028,-143
16,68,-52,-792,132,-98
-14,62,-93,346,-694,516
-21,53,117,1660,-2067,1290
86,113,-31,844,-389,1496
89,89,119,1852,-749,2310
-104,93,-97,1702,-13,2369
-24,-122,88,81,-21,2259
-49,99,80,421,-607,1871
-29,115,-116,-604,-238,1321
126,10,-115,967,-57,1011
-87,-57,-85,2330,2885,-5375
1,67,-76,3536,4011,-4898
-40,40,-49,4106,3151,-4653
93,-119,20,3114,3606,-5742
-93,-70,6,2514,2943,-6645
41,126,54,2268,3164,-7159
1,-91,-9,2144,2709,-5401
-107,-21,60,346,1966,-3741
92,-75,-12,-1170,-144,-664
-4,-72,-41,-55,44,786
107,-89,95,996,-988,-553
-90,-74,103,1923,-1331,60
0,45,84,2798,-769,194
-122,82,-72,2028,-1085,605
9,78,112,1255,-531,466
-110,97,40,-2151,-1373,1173
24,-45,-4,-5172,-7809,2394
-94,30,124,-6406,-10106,5107
98,-109,75,-6941,-5416,3216
-98,28,-12,624,1258,-412
35,61,-100,3038,-2534,-2204
-46,100,65,-773,-460,-470
-13,-32,58,-659,17,-814
-24,-111,-65,1224,-789,-626
-24,-112,15,99,-856,-762
-7,-65,-91,-1776,-720,-992
-31,-123,106,-1138,-1343,-924
-82,-125,-123,11,-1564,-325
-86,-86,-44,618,-1079,496
33,30,76,-921,-1500,1652
44,34,97,942,-120,1655
-104,60,-72,2121,-1375,2367
-21,123,-105,1449,-440,2782
16,-73,-128,1135,-464,2413
34,87,65,2012,-966,2325
14,56,103,1543,-1010,2480
-46,76,-120,1012,-869,1481
127,-7,-93,563,5,1008
91,-90,-114,983,263,915
64,-90,98,415,106,462
-95,108,5,2476,3666,-5327
-25,11,-66,2667,3910,-4417
-64,24,-82,3563,2662,-4973
95,66,-17,2824,4315,-5531
-125,26,-27,3193,3689,-5347
-22,-78,28,1380,3532,-7036
-84,-48,120,901,2304,-4810
75,-16,-25,373,1184,-2316
49,36,93,-1458,128,-604
9,-56,72,-515,-51,416
-108,-75,33,-140,-457,153
3,66,-55,951,-1003,-526
-65,96,-44,2271,-737,-1116
14,-39,62,1224,-2054,168
40,-71,-118,2234,-2593,-1652
123,-108,-105,1896,-1753,90
12,52,24,-1314,-2658,2698
-81,106,-29,-1869,-3906,979
-2,116,38,-2634,-6641,3556
-78,37,13,-4205,-5682,4357
95,-84,96,-4481,77,-1647
51,-18,33,4861,-329,-1821
-40,-83,65,979,-1057,8
-74,-25,-52,-518,-606,12
-67,-19,109,142,-270,-432
-4,-2,4,-964,109,-386
-38,-28,-101,-604,-979,-331
61,118,125,1611,-1633,484
5,-26,124,-1155,-803,489
-3,22,-96,-1145,-1197,1086
115,-34,-102,1312,-1334,2131
125,116,-113,-597,-576,2167
-49,-125,-89,673,-701,1945
-40,22,-127,2317,-569,2609
11,95,116,350,651,2265
1,78,92,-165,-383,2091
6,24,-124,459,132,1460
-72,-67,109,1713,-41,1618
-97,-76,-127,1168,368,1513
-120,-82,86,717,282,1003
-16,-34,44,1951,4526,-4823
-40,36,-44,4557,3868,-4518
17,117,7,4026,4015,-5893
62,102,-67,2385,2374,-5971
15,-32,-1,371,4186,-6876
-17,-61,112,1012,3891,-4953
-99,-57,18,207,3088,-4436
52,-95,-95,-1083,2359,-2960
109,-69,-51,-1890,722,-1497
-106,32,30,-451,-47,279
37,53,27,218,72,-637
-64,61,-27,1088,-1001,-666
-68,87,-14,1770,-318,-1108
-79,125,-119,2633,-1017,-729
9,-82,58,2578,-1196,-811
103,-55,40,1242,-1061,-1904
94,74,-6,1154,-2119,-851
-17,-50,-81,-219,-3503,-149
-24,-95,94,-968,-5092,1063
-94,-14,-31,-1721,-7217,4468
19,126,-70,-3793,-2254,1835
-3,-1,-127,561,-2,-796
-68,101,-112,2291,-760,-2191
75,116,117,389,-253,-132
73,-41,-34,281,-379,33
87,17,-68,359,-524,435
-122,46,84,984,-333,46
-94,0,1,1717,-58,477
-97,37,-51,118,-3,493
-70,-42,-117,1231,454,506
33,-109,79,2815,215,1640
85,29,29,1173,-62,2208
109,-22,-2,662,191,1301
-116,-15,46,-896,413,2327
-19,-108,19,992,846,1827
8,-24,33,-122,1720,1843
73,127,9,1203,954,2179
106,-118,-7,495,964,2930
-101,111,-4,1498,1183,2271
76,35,5,1334,1327,2140
108,97,-64,2934,2729,-5368
-45,-93,-65,1657,2361,-7639
41,-81,-76,3243,2566,-4639
2,-41,-68,2886,1865,-4492
77,-1,118,618,1227,-5454
91,52,-8,-811,288,-3851
114,32,-104,1027,1317,165
-16,-127,-16,-181,332,-323
-4,123,-18,248,139,-720
-123,-96,-122,2120,-914,35
122,-84,80,1915,-1724,-646
-115,119,47,1922,-1649,-891
-109,33,118,2530,-2785,1327
2,89,-107,-273,-2592,315
-102,-4,-24,-2073,-3283,1570
-32,58,45,-3901,-3225,46
53,34,-98,-4514,-5797,60
127,35,80,-5442,-4752,1840
-103,109,67,-3781,-2545,1196
-99,117,35,3026,-2214,-1030
112,42,-54,2303,-1428,-463
-77,-4,61,-1132,711,-946
-113,-40,-52,-522,180,-864
-107,-100,123,1114,-145,-85
-73,-51,12,-462,-418,-428
-30,-34,-105,-959,-1057,-270
-83,-42,126,-1450,-1985,-560
-48,-69,119,378,-1327,-449
112,-108,-92,-1156,-2569,1316
-93,-56,1,735,-1189,1608
109,122,-54,721,-1255,1777
86,107,-49,981,-938,2356
-20,-82,-98,990,-1061,2118
-2,106,80,2120,-1848,1975
-41,-88,80,1469,-1310,1825
-29,107,0,1040,354,1977
-70,47,-96,1357,280,1261
118,-21,-105,1970,-704,1650
75,-23,-103,768,-192,1212
-3,-36,-114,-240,-675,-12
5,43,-43,3137,4454,-4698
46,-13,-1,5122,5552,-4858
1,-57,-38,5347,4062,-3201
5,-78,37,2867,3177,-5726
116,77,63,3067,3004,-5158
-90,10,67,2368,2962,-4707
78,-25,108,-160,1230,-3189
-47,-109,-41,-439,1129,-1150
6,6,-115,-1064,468,-522
-35,0,-110,71,-95,-36
-110,-89,110,277,-128,-1970
72,94,77,1885,-157,-1568
112,89,-35,2692,-973,-1157
-79,-7,109,3081,-1504,-877
-99,22,-25,2711,-1959,318
-64,46,-79,1418,-1979,568
46,38,-70,-1169,-3113,1860
-120,83,-47,-3625,-5408,2185
-79,64,-78,-3648,-5387,2539
70,104,94,-5234,-7073,756
-82,108,18,-4417,-7426,5237
16,65,-14,4655,2657,-2787
-24,-76,-56,1714,-1313,-1671
-96,-115,74,-832,-566,-32
-59,31,64,-308,170,-511
-60,-33,-45,1030,-769,-108
-45,-16,77,682,-339,1
-49,-63,-10,-61,-468,-422
-47,-66,-72,-838,-479,144
-21,-17,-105,-2037,-795,-14
5,-113,-111,1068,-1933,929
74,-12,-76,795,-1674,946
75,-26,-103,2305,-786,1520
119,15,108,1229,-1052,1847
-67,38,123,385,-777,2442
-42,49,125,919,-64,2467
49,59,92,502,344,2183
38,67,62,-685,305,2012
93,62,55,-1008,284,1382
-86,66,105,128,-1215,743
-51,124,-60,4351,2367,-4087
7,86,9,5410,3211,-4757
36,37,107,4638,3783,-5168
116,117,-60,2615,4468,-7377
-113,19,102,1543,4115,-5269
91,-120,107,2788,3216,-4044
-82,42,-27,445,2962,-4818
125,58,-33,-556,1665,-2207
90,54,41,-2694,932,-1510
-54,89,76,-1246,96,-96
111,-119,9,-10,-886,-1352
85,95,15,682,-608,-1409
-99,47,-34,2072,-1021,-579
-34,113,48,2872,-2136,42
21,-77,50,2566,-2208,-826
32,105,-5,1919,-3211,603
73,84,-60,-516,-3395,-332
-64,123,3,-1272,-4763,1445
64,-123,95,-4088,-5000,280
-50,35,79,-3417,-8221,2390
60,-112,-13,-1356,-6419,5912
118,101,110,-359,-1333,-885
-85,-116,14,1561,-76,-2377
-114,-31,118,428,-80,316
-53,4,-53,-893,-164,-269
-41,-19,-103,525,41,-65
-40,-12,28,253,-199,-17
-39,34,-70,-1309,-859,-399
-46,0,-99,-2475,-700,-1003
-42,-77,-81,730,43,-431
-26,-39,-102,782,-1594,304
-7,-26,-120,1713,-431,636
49,49,-105,165,-956,1245
73,91,107,-44,-728,1337
74,102,-23,442,-1514,1839
-126,109,-44,1032,-522,1884
-109,-76,-50,17,-369,1661
-105,123,-47,201,-592,1217
-117,82,-39,299,31,1059
115,38,-107,406,-211,1089
