AccX,AccY,AccZ,GyroX,GyroY,GyroZ
-82,0,-106,10390,6632,575
-13,-47,-51,-6417,5417,-6338
25,-75,15,-6145,5632,-5106
-69,-120,-92,-8059,1562,-3909
113,-35,25,-11963,-4464,-2827
-43,85,102,-12030,-7543,-2885
121,64,-45,4902,-4763,-2019
4,-25,-90,12848,-1250,6431
112,69,18,3775,-7910,-1788
-39,-108,-103,14757,-1461,-1665
-99,62,-22,18308,9670,12885
59,9,-82,4691,-5960,-9681
67,-81,-118,-1737,893,-12852
-2,-91,113,-5224,2121,-11005
-49,-69,127,-7404,1778,-4914
106,-92,-33,-16127,-10195,-4078
127,84,88,-16967,-13449,-6700
70,119,70,21614,-783,6151
-111,24,-68,6697,-9236,706
75,17,-48,19368,3024,14822
-107,76,66,2239,-4070,4120
-87,12,-41,-9791,-13048,-10258
28,-118,74,10142,5236,-9974
106,79,-89,-2164,-4637,-13923
-28,107,3,1516,3497,-10074
108,-69,24,-4200,-1495,-10004
63,-61,-51,-6612,-2253,-8303
-92,73,76,-18797,-12362,-12612
-101,-67,-51,11105,7143,7803
104,-104,27,8012,-271,2682
-81,-77,3,2351,-7379,-1201
-101,-47,-2,9795,-5171,3032
38,62,34,16630,5240,13171
21,13,58,-3998,-5875,6752
63,124,80,-3096,-9315,-881
-2,57,-100,1404,-3032,2032
-74,-122,-60,1601,-1359,959
104,53,54,971,984,586
59,4,-89,-319,772,-741
-117,-34,105,-3417,-1132,-1443
-74,-68,-118,-5720,-3337,-2408
-50,23,-49,1591,1423,598
17,2,89,2140,1815,1387
4,-31,-86,-2065,-767,-1123
57,15,17,1374,1355,593
63,-71,125,-1086,-468,-736
101,-29,53,33,310,-56
91,-62,97,-624,-404,-434
110,-38,70,-244,8,97
107,-17,85,-356,-181,-70
107,-9,74,201,184,90
98,-20,123,-825,-529,-396
114,-17,56,-26,-47,-29
114,-25,109,-531,-435,-236
118,-16,113,-761,-514,-280
126,-7,60,152,271,114
107,-12,113,-584,-611,-216
116,4,73,0,-134,-22
125,5,85,327,174,114
125,-11,120,-599,-450,-376
-116,1,78,-79,-33,-114
-108,-13,100,-454,-503,-374
-104,-13,78,-54,-57,-104
-100,-15,92,-391,-367,-225
-95,-6,85,-229,-163,-140
-92,-6,86,-120,-97,-82
-94,-9,91,-358,-301,-182
-88,0,79,-49,-1,24
-92,0,91,-449,-303,-209
-90,7,82,-340,-201,-159
-79,8,74,-93,-95,-80
-81,8,78,-240,-187,-152
-77,3,80,-349,-319,-240
-68,1,69,-119,-142,-91
-69,1,78,-202,-255,-123
-69,0,82,-257,-265,-169
-64,0,71,-5,-24,-7
-66,0,92,-289,-259,-117
-60,3,82,-159,-113,-79
-59,5,83,-282,-136,-115
-28,-70,-77,4634,4378,1234
35,-121,-71,8494,8774,3416
68,97,-77,-7342,3070,-6798
-56,81,-22,-6734,3796,-7496
-22,-78,64,-10938,1105,-4759
91,-51,52,-14419,-9512,-3477
-3,110,-46,-8948,-6684,-3614
-31,119,-38,15806,468,9057
42,-6,-41,2751,-7947,4189
47,-56,61,11275,-10771,-6035
115,9,-45,24720,18551,16557
-75,101,-108,-20469,-18865,-13715
-23,-107,108,5149,4547,-8287
-114,25,-72,483,3140,-9126
-56,-101,-70,-5793,1209,-8242
-98,-102,-49,-11589,-2119,-6090
42,-101,100,-23741,-21315,-7317
72,121,107,17082,-2115,-2756
66,-60,23,11475,-2608,12835
-46,-4,-8,3106,-14866,-3930
127,122,47,24028,16350,25175
79,121,-94,-22642,-17086,-14553
69,118,-28,10911,2539,-9600
110,47,-32,1333,-3656,-13307
-120,35,81,585,1245,-10893
-128,40,42,-272,830,-8593
68,-38,18,-5821,-1775,-7785
-87,-12,-13,-15965,-8506,-11411
-36,111,-104,-2964,-3750,138
30,-31,-94,10271,4319,7041
-35,-19,-112,911,-7770,-3621
-55,-69,83,8100,-4836,2610
-32,-118,-99,19958,471,10232
127,85,90,3815,2237,12847
44,55,38,-3247,-8948,-2812
-108,112,72,2114,-3564,3998
-103,19,-107,701,-2625,133
5,54,53,1549,810,2906
100,42,-44,506,256,1147
38,-4,105,69,482,-768
47,114,87,8687,11453,3912
-107,32,27,-11908,-3419,-10290
17,110,-61,1182,7126,-5143
-13,-61,39,-5562,2880,-6587
-126,-126,105,-6645,992,-4525
69,29,107,-10714,-4579,-4032
15,-2,-74,-10864,-9933,-4136
2,1,121,-4446,-5908,-2601
-13,11,-16,20818,32,4795
127,54,119,5426,-10390,-704
83,-48,87,20449,3939,5048
117,92,-94,-8882,-10676,-2597
-51,76,60,4012,657,-6614
-47,-106,-120,4106,2542,-9558
34,-97,-99,-6180,1059,-11342
122,81,-123,-6598,1579,-6433
-48,-39,-59,-8721,-2333,-3706
35,-49,-22,-18703,-16986,-6387
120,-76,37,1163,-11384,-6998
66,19,75,19318,-3914,5812
-10,89,83,7813,-11927,-6809
83,-56,-15,21013,23278,30973
75,66,123,-28968,-22773,-17304
48,-81,-22,20730,8579,-3212
5,44,123,-4634,-6208,-19752
-118,18,37,2991,4413,-9660
-32,-45,51,-537,868,-9264
-57,-59,0,-7922,-4280,-10963
105,95,-79,-26568,-17380,-16932
-103,11,-116,24050,10157,15497
53,-2,-13,5024,-2424,3109
-79,-96,-9,1102,-10593,-4171
96,88,-25,18531,-3048,2448
-97,41,66,12632,6809,16878
25,-65,100,-10126,-13845,-1929
-109,-127,116,3585,-2299,1527
-30,-8,-57,1172,-1465,1403
68,47,88,1534,509,908
52,2,-77,935,1385,-59
65,-52,88,-1170,-65,-1212
31,-92,-100,9156,11219,4338
-73,-61,64,-3131,901,-7206
-80,25,-16,-2593,7443,-6231
87,18,70,-9967,-1053,-9407
-42,73,-1,-11177,-2335,-4253
-71,-121,-19,-9313,-5238,-2066
7,76,-23,-1625,-1160,1947
125,106,70,-3726,-4875,772
111,30,25,9581,-4439,-2157
27,-119,-76,8499,-6035,-519
-67,117,60,10751,-7795,-12414
-64,11,-38,29554,28194,-29487
127,-23,101,-6538,-17627,-23956
122,50,-103,-2023,3383,-7720
-18,-23,-128,-1624,1319,-10231
-69,72,113,-4399,1705,-7196
17,-51,113,-8817,-418,-5110
-30,100,120,-12192,-5649,-1721
-115,-41,67,-10281,-12230,-3131
-61,-2,74,8033,-4508,5242
94,-115,-83,1791,-10706,961
20,-91,110,7795,-12343,-3467
-48,103,-37,23884,13510,22047
67,-77,117,-25204,-15900,-7399
-5,-83,-78,9757,3082,-8143
65,-11,-120,2503,-2727,-12922
45,127,80,-912,614,-12821
85,89,39,-229,2400,-9901
15,-42,40,-3399,-226,-9385
27,85,-44,-11005,-5566,-9711
58,69,11,-17789,-9767,-10498
-99,46,76,11277,7442,9272
37,-50,-112,3027,-3650,-3308
-108,72,61,8008,-3480,-1228
20,-23,57,10866,-3025,3516
73,34,76,16545,5571,12910
-38,-54,103,-1078,-3327,7693
25,-64,51,-3529,-10618,-2510
-72,-57,11,4780,-1087,2975
114,86,-42,-332,-2966,676
-41,-33,79,6152,9938,3136
-46,-47,-69,-2105,4895,-8029
71,-18,-11,-8884,2893,-9074
-44,-14,92,-10109,1677,-3450
9,94,-54,-13061,-8218,-2203
-6,-35,-60,-11851,-10825,-4614
126,9,1,10445,-1557,445
60,-76,80,11019,883,9243
69,-113,52,-71,-13357,-7249
10,-55,88,17013,563,-187
86,-46,24,20771,13890,17628
82,-11,-84,-2259,-10650,-12700
24,118,-64,5235,4376,-9223
-72,65,-29,-2854,411,-12540
-95,-57,-86,-7612,406,-8853
-43,36,-54,-9434,-3422,-4392
45,-20,-15,-21924,-20745,-7047
-43,27,62,11024,-8180,-6868
-31,27,-63,17378,-1005,10610
66,-97,14,3679,-16871,-8213
39,32,109,24334,20121,25441
106,82,-38,-22006,-15892,-5301
-121,-109,83,8769,3783,-9968
-88,-25,-33,1560,-2914,-13043
-57,-53,58,-1927,525,-14055
54,-28,41,-493,1938,-8261
56,9,7,-5244,-992,-8188
85,75,57,-10117,-5328,-8041
44,92,122,-18280,-8074,-10388
56,34,48,13833,6799,8840
-20,12,-4,8844,1121,2804
-105,55,85,-2104,-9191,-4472
125,100,52,8339,-3792,-81
28,26,-93,15651,-2364,2508
-104,-47,82,5819,-2203,6293
27,-66,107,6440,-3371,2880
2,-115,-33,-513,-6723,-210
10,-77,41,3410,-3473,597
-36,44,2,2431,-330,1581
38,-2,-67,965,1337,544
55,115,-98,5060,9551,1805
-90,112,-128,-4830,-570,-8710
-24,114,-119,-2346,6857,-4372
112,-93,-51,-7271,2320,-6668
39,23,51,-6979,1238,-3928
-53,82,87,-9998,-6426,-1602
-123,-90,-23,-13903,-11028,-3528
58,40,-127,9415,-2599,102
-8,-26,24,7557,-15,6973
1,-103,-74,967,-11411,-5102
85,100,76,11139,-4864,-4151
-29,-115,-30,23730,10873,15700
-59,-98,12,-17854,-18612,-11812
-45,-101,-79,6436,1659,-7544
37,-95,-26,1563,3261,-10067
103,89,22,-4285,1620,-11166
94,-60,-28,-8966,142,-7332
69,32,28,-10009,-1925,-3060
56,-117,-28,-19272,-17625,-5204
-51,-59,107,11812,-4114,-2793
126,37,62,11344,-1687,10676
74,122,-34,2456,-16535,-7306
-41,-4,11,24233,8094,11455
125,-13,-114,1236,-14350,3587
117,75,-53,3261,8696,-9755
100,39,-16,-5550,-4722,-16598
65,13,-101,4872,6904,-9842
-36,101,-35,-2627,-469,-10971
54,-84,-76,-4578,-822,-8648
3,-37,112,-17525,-12590,-11571
-12,27,10,-12902,-10745,-8732
82,-111,-84,18516,12979,16648
-11,-106,-123,499,-8714,-4489
-64,5,86,5110,-8182,-6865
-36,-60,-123,20226,1812,1477
10,-30,-51,10503,3274,14070
66,67,-112,2921,-3146,3996
-63,72,12,-2201,-6247,-1268
75,-60,39,947,855,679
-43,-58,90,-209,343,-341
110,34,85,3650,6119,2057
5,-34,-10,1296,3807,-5307
-31,-101,-9,-4506,4236,-7471
29,-87,49,-7768,2300,-6816
85,103,-127,-7919,700,-2858
58,26,6,-9633,-4860,-1556
-37,105,72,-6485,-6322,-1075
-98,103,102,447,-3780,1506
-47,53,30,1731,-6254,56
-87,16,-87,5942,-5298,1545
12,-33,-13,8211,-8776,-1671
77,120,-57,21148,9304,11041
-63,109,22,-14901,-14510,-6587
54,71,90,14436,2727,-5768
-7,-116,-67,-362,869,-11394
-43,104,-82,-2641,2267,-10360
56,6,-97,-8376,-169,-8420
-79,-70,-54,-15738,-11018,-5717
-10,38,121,-19863,-16086,-9641
-61,35,46,27088,5542,8159
-76,107,49,8185,-13138,301
-125,-36,61,13672,3238,9747
-99,-84,-62,23420,-4942,9326
-35,80,-49,-11482,-6961,-18452
17,25,65,10181,3699,-8288
47,-79,-97,482,-1719,-14245
96,-38,104,-1471,-663,-10558
107,46,35,-6698,-116,-8826
-1,95,114,-15727,-9112,-11524
119,-48,72,-3210,-3432,-56
-37,-91,41,10171,6929,8512
-87,-46,1,394,-9792,-5406
-18,-101,30,9644,-3946,1119
53,13,57,14395,-2950,4079
11,44,38,12161,6312,15061
59,112,93,-4834,-7765,3002
-117,-23,106,-1473,-7483,522
115,-106,46,5023,-338,5020
111,57,-59,1917,-1796,2748
-47,-91,76,-340,-830,-1303
28,32,-40,5759,9603,2633
90,-120,-16,-2630,2760,-4635
76,-16,-46,-3721,3607,-4769
-103,-128,5,-8931,1002,-4425
-62,-34,7,-11684,-4833,-2178
-70,-34,115,-13486,-10741,-3289
-83,26,69,4910,-2305,1593
-97,75,103,11764,459,8770
-37,113,102,3778,-6108,-2965
-127,21,-96,16080,1883,-4186
77,-101,-48,2343,-5996,653
72,120,109,5805,1440,-7716
-83,9,-69,-224,3069,-9261
-6,78,-41,-2251,2511,-8171
-45,-52,-45,-8572,-1612,-7168
74,-86,-51,-14385,-12555,-4765
34,90,-128,-13800,-12976,-6716
-62,19,22,19647,-55,8374
87,16,42,2784,-9336,2105
-67,-105,16,7287,-8947,-985
-50,17,51,19504,10979,18712
-67,-59,64,-16153,-15695,-10194
66,127,-98,9325,6274,-5273
-9,77,71,3136,-1057,-15425
-70,-12,109,1499,2484,-10894
-37,23,127,-342,2693,-9540
66,57,-121,-1872,977,-7981
-91,108,99,-7294,-3003,-8519
-51,-37,-120,-21641,-12099,-11380
-85,-62,80,14508,8298,8280
-123,-75,46,6422,-212,1974
-23,-93,122,-1238,-7145,-3384
-5,-97,-63,6111,-4671,-372
103,-98,98,13031,-2190,3056
1,58,89,12159,6745,14873
-6,14,88,211,-4577,5914
-88,109,45,-4599,-12374,836
50,100,96,8085,3412,5512
-6,-78,-88,2915,-519,5283
10,-96,-88,-2007,-3948,260
-52,-78,24,3853,12852,3125
-13,-111,53,-6279,-2367,-10317
-92,-124,-9,-373,5078,-5586
-98,62,50,-7700,-229,-7603
123,-39,-68,-6202,-758,-2925
21,-21,40,-10331,-6561,-1735
82,92,126,-7841,-9136,-3981
39,88,93,11036,140,8971
110,-5,60,4022,-6377,1592
-100,-5,104,4886,-11227,-10438
-114,-97,-26,28021,19209,20661
3,-26,66,-30775,-18364,-13473
-27,-90,-14,21742,3988,-6216
64,15,112,-3684,1332,-12517
110,55,82,-5281,2110,-8261
80,56,106,-8489,-1074,-3321
-54,125,-87,-14149,-11936,-2622
104,-94,44,-8075,-12456,-3710
2,-2,-4,13185,-3690,4487
33,-43,-81,10075,-9470,1593
-94,124,49,11514,-4601,1941
-92,-31,-77,20480,9152,20170
122,-56,41,-17370,-19401,-23449
119,48,-100,14438,4874,-3419
79,121,5,-8854,-4642,-17268
88,86,-48,3772,5947,-8228
2,-12,-35,-3289,522,-9032
39,23,-46,-4476,130,-7422
-32,51,-97,-9824,-3592,-8086
77,80,-87,-18404,-11010,-9723
38,-46,-81,14209,7961,7418
20,51,89,2325,-2787,-2562
91,81,-29,2384,-4864,-3214
-86,48,18,5957,-3392,-368
-64,-94,100,14464,-896,2569
48,44,102,14582,5856,10926
1,61,46,1391,-2543,7585
11,109,119,-642,-8993,1887
-73,7,-43,3943,-3088,3843
-119,100,-5,642,-1907,1474
-101,-105,53,-5286,-2734,-2890
-31,-95,5,-665,1166,-233
-12,-91,94,1641,1118,321
12,-92,-50,-1621,-344,-1037
40,-69,-126,-732,75,-672
46,-39,-112,-1104,-201,-700
69,-30,-116,-1494,-126,-767
105,-20,63,-458,559,-344
93,-12,101,-922,-62,-517
114,-12,73,-612,54,-256
116,-16,58,-312,112,-73
114,-11,63,-288,-95,-67
126,-12,58,-146,-305,46
119,-22,62,135,-351,162
122,-26,83,151,-546,130
119,-37,97,82,-664,147
114,-39,113,233,-516,186
113,-35,-125,94,-461,126
111,-41,-128,69,-250,97
109,-46,-124,-151,-265,33
115,-46,106,126,38,84
114,-49,127,-135,-143,-66
-126,-51,-126,-555,-336,-294
-106,-51,96,-121,74,-74
-94,-46,106,-390,-10,-169
-83,-44,90,-193,156,-125
-76,-45,102,-375,84,-196
-71,-46,103,-978,-455,-440
-61,-34,56,-94,-33,8
-64,-36,69,-91,-119,-29
-65,-29,84,-211,-345,-49
-69,-20,83,-210,-347,-51
-72,-15,81,-144,-278,-69
-71,-16,84,-55,-184,-72
-76,-18,93,-357,-414,-212
-66,-22,81,-171,-230,-96
-62,-19,74,125,-102,13
-72,-20,108,-143,-176,-143
-59,-28,105,-302,-283,-217
-56,-17,89,-317,-262,-183
57,102,-89,3022,7597,-12
55,-43,25,-3762,184,-7138
104,-8,-62,-3030,4906,-6645
37,109,17,-6713,3358,-7110
120,78,-126,-10663,-3721,-4680
-63,49,99,-10513,-6683,-3440
-52,69,124,-5691,-5262,27
-113,43,-73,7052,-2026,3947
87,37,-98,2449,-7007,-1254
-7,8,-13,7926,-7694,-2607
-21,101,61,16364,-5857,-7921
57,-90,69,21249,28093,24785
121,2,70,-4684,-19253,-21337
67,97,73,-4343,1170,-11489
84,56,18,-799,3904,-9926
-72,-33,35,-8707,165,-8390
44,75,60,-12192,-3665,-4683
-89,-127,71,-19987,-15383,-4937
-92,5,-126,13263,-2633,1339
20,39,-78,7012,-2948,10561
-12,56,-55,-896,-16563,-6183
-74,-124,92,15351,-3493,2526
19,7,10,21699,13859,22682
-40,39,-15,-24508,-22320,-17949
46,19,-33,14827,9744,-1908
-108,49,11,-5059,-6834,-17252
31,-25,-95,3240,7735,-9690
26,64,6,-815,621,-11340
-115,-59,-1,-2028,2601,-8286
36,87,9,-6700,-776,-7971
-56,-84,43,-18713,-9057,-10031
-31,46,57,6791,4004,4031
-5,-111,-8,4877,-182,1641
-76,88,62,2090,-6495,-3251
-25,-92,47,10366,-4110,309
49,-124,-77,15299,-3400,5628
26,25,83,12422,5888,15693
-121,-115,89,-7158,-10335,1130
-83,-27,113,392,-6557,417
-92,14,-94,3007,-1930,1857
-95,15,-6,4750,5337,1063
-42,66,-92,3728,7205,301
-80,-56,-34,-6172,3505,-6610
-110,-116,50,-8236,3798,-8966
60,-35,-121,-12392,-2080,-5950
-124,-124,-10,-10453,-7072,-3916
87,-9,54,-3355,-3227,870
-74,-87,-123,5572,-1342,3432
-124,116,-104,1370,-5590,1439
-71,125,-75,5364,-5676,-1922
97,113,6,10344,-6910,-2897
-53,42,-60,20584,10310,8774
-39,-124,-72,-12616,-12299,-15375
111,-112,31,-167,-368,-7709
126,73,37,-2521,4151,-10021
-42,-35,54,-9254,3310,-7531
59,-76,-123,-8625,-203,-2909
-36,-77,-121,-13125,-11029,-1835
-122,-14,90,-12682,-11504,-8900
97,-79,107,21197,477,5654
28,112,-107,3193,-13234,-2044
13,-65,124,15341,-4256,-1777
-20,-50,-26,18931,21835,21538
99,59,11,-9045,-16640,-16809
-28,60,-9,5387,2045,-10263
-8,-113,78,987,3137,-12805
47,96,95,681,2025,-10540
53,-76,98,-2250,540,-9465
-11,21,72,-10591,-6631,-10840
32,-54,-55,-24017,-14126,-14829
-88,-53,-13,19693,15057,17399
-85,32,-50,-957,-8898,-6973
17,72,62,7800,-3544,-360
37,96,84,10290,-3694,2429
-121,-65,95,12768,153,8846
-112,127,28,7484,5435,9357
-105,-24,111,-3754,-12720,100
-121,-124,123,1999,-2266,1595
-51,-127,-97,1310,-1498,1819
94,99,12,1682,1029,1183
80,-40,-117,3522,7968,2570
78,83,70,13468,5967,489
-40,98,32,-8051,9031,-6535
23,-102,-90,-6775,397,-8703
20,100,-51,-13729,-6107,-5857
32,79,15,-17964,-12130,-6137
3,55,49,8600,-1435,3558
-103,-90,-121,11417,-442,6893
-8,-21,28,5030,-8814,-4654
-27,-95,68,20246,2198,-6286
-101,-110,-113,32302,-6840,17410
71,76,-91,1073,3416,-11598
39,-25,-56,-3245,3117,-10899
-110,-98,-58,-6795,1320,-9942
-111,-72,-52,-8053,-1257,-4539
115,70,-79,-15705,-13658,-4757
1,5,88,-6465,-10843,-5568
-10,13,6,16380,368,9723
-71,-1,-67,3312,-12024,-1649
73,-113,-99,13967,-4371,1458
-20,-70,-7,16497,22031,19608
98,103,-99,-6302,-17093,-21120
-113,-19,-106,4907,1024,-8511
-51,-95,121,3540,2162,-11382
-84,-115,-78,-1138,-2024,-11950
-109,-12,90,-1513,554,-8405
123,-67,11,-10754,-6263,-10047
-106,33,106,-16463,-9722,-11631
-29,25,56,9475,9178,9853
51,9,121,1893,-3696,-2977
-73,84,-114,2916,-3345,-1419
-26,-40,-7,6369,-3694,335
-25,111,92,12860,-671,6128
36,-88,68,13874,9334,13041
42,3,122,-11155,-14096,-2407
82,-41,-46,4834,-1341,4564
-111,-69,96,3267,-2328,3861
10,-101,127,-2463,-5424,538
114,98,4,-398,-3054,525
-120,40,47,4156,3356,2142
-9,94,110,5357,13373,6047
123,16,34,-6171,1418,-9612
-38,-37,80,-2073,5038,-6999
-62,28,-68,-7912,2038,-6519
-34,64,-2,-9429,-4709,-4758
-86,-39,106,-11800,-11410,-4753
17,5,-49,-1831,-4449,-2398
-29,125,109,13238,2077,9393
109,-23,119,789,-11616,-7980
-51,-3,78,12488,-4741,-7798
-21,-58,80,-30597,25786,26467
69,-47,-86,-10204,-14048,-19349
-113,98,-128,-310,1939,-7573
115,60,-108,-1040,3030,-9689
-32,-74,-101,-3319,2301,-6990
-18,-74,-81,-9149,-1885,-6483
-113,-37,-126,-11877,-9190,-3296
54,63,15,-11471,-13588,-6055
-96,37,117,16561,1451,7837
11,94,59,3461,-9202,2094
33,124,-127,8070,-11189,-5291
-125,-37,-19,27317,15279,26796
126,-103,-120,-25751,-20315,-16471
75,114,105,16876,7930,-2160
-45,67,94,-2689,-3514,-16237
39,-19,74,5459,5436,-7587
116,-47,109,-3088,-305,-10772
-39,8,83,-1480,1323,-7724
-64,-21,-32,-7666,-3458,-7969
61,93,83,-15368,-9810,-9819
30,-3,4,7156,5272,7025
-113,45,-45,4213,-3203,-2149
-8,122,126,3976,-4736,-1791
20,113,-8,10267,-4789,1644
-110,4,-20,16447,995,8391
-30,-58,23,5074,7585,11869
104,-39,104,-6193,-15986,-2570
-73,-19,-44,3527,-2550,2667
35,-61,-98,2868,-1034,2311
-29,-91,85,549,-1502,1415
-111,67,-106,4185,4652,1774
-44,8,96,5628,2886,836
-96,-60,-101,-10096,1855,-8005
-82,25,-3,888,8268,-4891
105,-40,61,-11211,-440,-7897
58,-66,-110,-14376,-5191,-5329
-7,-117,-42,-11957,-11836,-4167
66,6,-43,10504,2472,7146
-1,106,-68,5485,-1687,5072
-79,78,-12,1227,-10030,-4409
119,-127,-81,13862,-8021,-10557
-6,-50,84,24418,23089,22559
-128,9,124,-1427,-11841,-11582
-114,-67,22,812,2986,-10465
71,-113,63,-2075,3598,-10467
-46,51,70,-9725,44,-8490
110,3,-119,-13062,-4871,-4445
87,-5,-10,-14261,-15064,-3799
-57,-88,32,14343,15,7751
42,-12,60,1182,-5226,4752
-41,-94,49,2943,-12086,-1930
56,20,-80,8559,-6704,2297
-47,-63,68,16492,9124,16235
89,-35,90,-8439,-14144,-4247
-15,110,79,2141,-2858,-8670
57,54,30,-3848,-2384,-17119
91,-13,-86,194,2292,-12335
62,-64,-20,-413,4189,-10198
77,67,-45,-7984,-2086,-10587
-51,-85,104,-13148,-6338,-8587
100,4,0,-6536,-1100,2314
-7,-59,27,3890,1205,1173
124,-38,-119,2982,-3491,-2083
92,72,46,8329,-3995,-859
112,27,-45,13421,-4246,1055
118,-20,90,13964,551,8531
122,-87,76,4118,-1523,2308
-81,37,-86,-998,-11860,628
-13,-82,98,4999,-2002,4465
-113,90,-93,804,-2194,303
-27,12,-116,3665,6626,1041
46,-89,95,3453,9336,2751
102,47,-24,-8252,4097,-7226
-105,-82,25,-8853,2532,-5725
-120,-36,105,-9881,-544,-3158
94,-3,-31,-8196,-5839,-2162
7,31,-14,-8905,-7524,-434
-30,-99,-16,-1248,-5088,-2618
-101,-116,108,13010,-1651,1276
-20,51,-65,6830,-7323,-3030
-40,-78,34,17483,-2068,-3616
-110,-90,40,23693,9817,16452
80,-6,-70,-2157,-5545,-13218
7,-68,-89,-3616,1164,-13410
-26,-46,119,-5139,4105,-10978
29,-15,-104,-11714,-3466,-7989
-6,14,-11,-17927,-16016,-4798
-14,-40,54,3642,-3140,1509
42,-54,-96,12171,-335,8927
-68,-42,68,-6319,-15381,-7848
-48,-41,42,11803,-8853,-14674
-18,-72,55,29754,14925,18886
69,79,21,-32082,-17930,-2393
22,-52,94,8533,4063,-8332
-40,17,55,-5975,-40,-15713
99,5,-78,1303,6124,-10061
46,127,33,-1022,2846,-9334
91,19,57,-3106,2324,-7886
-21,117,7,-5866,-764,-6706
-124,58,106,-11255,-7678,-6939
25,105,-43,-4411,223,-1930
54,72,-82,6288,231,1410
-42,96,85,2562,-4972,-2498
-3,124,77,9954,-2891,741
98,97,64,14234,-1420,5988
87,-5,58,14048,7681,14249
-47,-77,113,-8764,-16227,-1578
-81,39,-128,2407,-1947,1338
87,54,109,5404,-151,5027
-116,-81,-42,-1942,-3242,22
-24,32,26,8814,14246,4336
-4,103,87,-12942,-3797,-11194
-82,-41,-37,35,7030,-3493
120,-8,60,-10025,1676,-5725
-104,47,27,-10898,-5651,-3782
-115,60,-127,-14786,-11155,-5245
-97,46,-13,9113,-575,3035
-78,-50,-57,10876,1933,9561
-117,122,-128,-3060,-11527,-7800
74,-30,91,16558,-2786,-13407
-80,79,127,-31943,29505,32671
100,-23,-64,-1552,-12282,-16086
-41,121,14,-4208,-1704,-12777
-52,118,-83,-2391,49,-11099
115,-17,111,-7621,-433,-5624
14,114,-105,-16455,-8937,-4439
1,104,-95,-18909,-13540,-5559
-54,125,-90,19336,-2633,5310
-50,-102,29,5235,-6359,1504
104,119,-94,10100,-10955,-6265
-21,-27,11,20941,17145,27969
124,-122,-100,-23275,-20557,-11949
-94,-113,93,14251,6994,-7572
97,49,92,-3437,-4570,-15085
89,46,-15,3082,4978,-9710
108,-80,49,-1359,1232,-9742
-100,-18,35,-977,2264,-7949
-27,25,-1,-7782,-2998,-7344
-93,73,-100,-16866,-10977,-10334
-65,-20,-43,5040,4097,4643
-80,-17,72,5964,-1720,384
-62,-79,-123,3607,-5544,-2347
13,43,16,9559,-4713,1976
92,25,-35,16131,-1917,2988
67,0,52,10305,6228,16609
9,101,85,-8224,-11795,-1823
80,106,104,2571,-4178,2063
-110,2,-75,2532,-2012,2511
61,-125,-78,842,-1147,580
48,44,-7,1165,1672,451
78,13,58,4805,8875,2264
-21,-44,-32,-9687,-2368,-8321
78,124,-108,-327,6513,-3571
-71,-48,-32,-8330,1835,-5696
-76,84,88,-8525,-2165,-3263
-55,-105,117,-10328,-7841,-2450
-12,-17,77,-4317,-5415,174
73,32,2,8815,2336,9763
-49,89,61,-4935,-12034,-2415
6,30,49,8452,-7585,-6589
108,125,17,14016,-1670,-2143
60,-35,104,20450,14716,14683
-63,10,45,-8913,-15099,-19305
-39,114,62,-4272,2645,-13492
115,-123,4,-3546,2268,-10350
-35,-29,-12,-7689,-321,-3975
21,59,40,-9926,-3647,-1653
88,-67,8,-14838,-12694,-3299
-62,26,-120,9492,-123,7253
22,80,-100,5611,-1795,7660
74,-88,-105,1047,-12536,1689
62,-51,-79,5698,-5817,6241
-87,0,62,10444,-1403,7524
8,70,-33,3347,5973,8525
43,-120,-120,-9180,-14533,-7670
126,126,-61,6833,772,-8438
-96,-16,-123,-2734,-5137,-13564
76,-61,-68,-3697,907,-13301
1,76,-18,1789,8321,-8537
119,15,45,-4067,935,-9430
54,-47,-63,-10315,-8955,-11681
10,112,58,-13122,-7130,-3638
117,8,-119,10946,7992,9957
43,121,-88,1730,-5377,-2184
44,77,105,1451,-5019,-368
-11,-13,116,4670,-5470,1435
-95,-21,-66,11498,-2899,2536
0,91,0,12049,8241,11236
79,110,-47,-1870,-4839,3326
38,48,59,-1340,-6649,1119
-22,38,21,9244,14738,3033
105,82,18,-14937,-5709,-9105
35,-17,-82,-1725,7800,-2027
32,108,12,-11075,-342,-4639
-11,-33,-35,-14730,-11802,-2699
51,75,47,-10990,-8904,-3909
-84,-92,67,19933,5061,9980
-127,60,64,611,-10292,3774
-18,66,72,-996,-11572,-19572
9,20,109,25338,16852,10295
109,-11,68,-18929,-14702,-4939
-27,-122,-27,17067,2943,-5727
-8,-67,61,-2428,1692,-11174
16,-126,21,-6083,2476,-9274
97,-1,19,-9063,-73,-5788
31,-65,20,-13183,-6837,-1692
-22,28,-33,-9867,-9974,-2356
116,117,-32,10663,-335,6617
-2,36,-55,1527,-6397,3858
-38,-50,-96,-1081,-13221,-3248
56,99,92,11907,-5747,3394
28,97,-47,14510,-1432,8368
-56,77,23,-10608,-11769,3932
-60,119,-8,-1970,1768,-11406
9,95,-58,7006,4920,-9319
-31,119,-82,-15622,-7306,-20065
38,-42,15,-4920,9181,-3491
38,-62,79,-6787,4769,-6018
124,118,-69,-3740,6098,-4604
85,1,-122,-7130,-1545,-4843
29,-12,99,-16244,-11045,-5479
122,-29,61,12573,6164,4443
-80,-104,42,4052,-2039,197
-55,36,-20,-631,-7166,-2959
-31,68,23,7210,-4559,633
23,-69,-20,14151,-2840,2795
101,-110,-19,11737,500,10383
-67,-75,-124,1816,1158,5974
19,-92,-95,-2597,-12879,-1388
84,3,-83,2238,-2515,992
-78,64,43,8040,12121,4702
41,-79,-12,-8271,-2928,-8548
-22,13,-88,-3320,7207,-4311
-99,79,-38,-14257,-1661,-8229
-76,-1,18,-12179,-5971,-2105
5,38,-79,-6223,-7419,-683
-21,125,-45,5274,1903,8088
0,-41,-17,-119,-5934,2541
-123,64,-63,4245,-6647,-3959
-91,43,115,10650,-6247,-835
84,66,-128,13965,-1662,-8862
103,-101,69,29007,-4084,18634
110,68,73,-1350,2210,-12158
31,-123,-37,2454,1630,-10851
-43,-126,-84,-6303,309,-11923
100,62,-128,-9937,-771,-7141
-128,-15,-111,-14062,-10043,-2053
-26,-36,6,-12403,-12041,-4645
118,21,-10,16398,-826,7603
-36,-42,-52,861,-13243,-4049
83,-2,-11,13303,-7369,-1969
-5,-43,95,18045,8748,14583
-124,-120,117,-6329,-14969,-1308
-26,-41,82,-5805,-8434,-17801
110,-35,33,12266,3407,-6948
-75,-111,57,-6532,-1601,-14614
53,112,61,-156,3684,-8516
26,-75,60,-1876,2984,-7203
47,-20,62,-8343,-4245,-8437
58,82,30,-11700,-6107,-6965
9,23,54,5924,5593,7588
79,15,-44,2855,-170,2090
35,-101,-105,-66,-6532,-2570
71,-75,-51,5424,-4761,204
116,3,118,7476,-6561,1040
28,-27,-17,11394,-363,7307
-18,-35,83,5130,402,8157
-42,-4,-111,342,-7813,581
-119,51,-13,-562,-850,3133
-16,97,-106,255,-1846,502
83,-60,-80,7392,12621,1614
57,-98,12,-9648,-2538,-8223
-56,60,8,-62,7944,-4746
-109,-50,78,-9907,2621,-6183
-87,-31,-108,-11807,-3772,-3938
107,21,119,-10849,-6604,-2305
-41,-83,-116,2315,-1543,3987
107,23,26,3802,-4000,1963
83,-22,62,1553,-7417,-1467
-92,104,64,7419,-6888,-4053
39,-34,5,14089,-5664,-10355
-30,80,-56,26550,27043,27564
26,52,72,-3328,-13980,-20129
11,-98,-120,-5785,1760,-12213
-27,99,86,-2193,2629,-9982
-116,53,79,-6925,-537,-6593
-122,-126,56,-11901,-4901,-2725
65,-60,127,-12635,-10569,-3969
-93,-39,101,7386,-1190,4800
46,49,124,6896,134,10531
-43,48,-103,-8194,-17263,-3118
17,-93,56,10062,-8671,-3617
-59,-113,87,23350,6389,16287
-66,-82,-112,-16845,-12327,683
116,77,34,-2095,-2920,-12891
90,36,-74,11617,7652,-2943
-4,32,66,-9875,-6938,-17335
79,34,-100,1476,6489,-7156
-128,113,-18,-1547,2309,-8215
66,11,-77,-3984,1688,-7047
-121,-120,-87,-4746,217,-6061
-46,-35,-51,-14329,-6881,-5835
-68,-118,-51,824,1026,64
-14,-101,-77,8176,2681,4729
42,55,-74,2481,-3434,656
61,108,-20,-547,-6324,-453
66,17,-118,3817,-4825,678
62,17,-12,9587,-2355,4524
73,66,-16,6000,-163,5547
-48,-22,89,27,-4471,4557
69,54,90,4154,-1261,5014
76,-63,-119,72,-4640,2502
19,-56,-105,896,-3844,1196
106,114,87,1146,-1151,1114
90,-39,56,-961,-1360,-301
102,-42,-124,902,1266,484
70,-29,84,520,1672,283
87,-95,72,-1164,59,-1208
-14,-116,-48,-1251,819,-1288
70,127,106,-39,1343,-512
115,122,123,-366,719,-757
-100,121,114,-1068,196,-1265
-51,113,71,-674,220,-799
-37,111,47,-741,-33,-494
-49,122,13,381,335,376
-95,124,90,-438,-711,-35
-107,-89,95,-79,-708,219
124,-80,125,-306,-1008,1
119,-76,117,138,-645,242
93,-72,-112,-112,-736,-97
106,-86,-115,510,-189,54
98,-81,-82,-47,-348,-3
108,-74,-81,-873,-513,-169
108,-66,-115,-886,-359,-371
-119,-41,98,122,482,61
-117,-59,123,-692,-160,-410
-97,-47,98,-923,-250,-500
-72,-30,56,170,253,62
-78,-53,92,-290,-317,-253
-84,-38,104,-1017,-778,-537
-62,-27,35,485,391,208
-81,-36,102,-442,-723,-300
-78,-22,88,-102,-410,-69
-72,-31,87,332,-21,195
-82,-37,-116,-616,-608,-250
-75,-26,90,55,107,77
-71,-32,94,1,-75,68
-77,-29,103,-114,-319,-58
-74,-22,102,-163,-249,-88
-74,-30,110,-367,-436,-241
4,-39,-111,5176,9744,1779
122,45,-65,-2457,3859,-8234
-7,34,-2,-6088,2817,-7705
-19,-44,123,-7260,2089,-4414
47,104,-77,-9203,-4797,-2624
26,-82,116,-10419,-9040,-3095
-63,-8,64,-739,-6535,-1205
-76,-89,14,9490,17,6248
-96,-23,5,2001,-10351,-5625
5,1,-118,10915,-7357,-8548
-89,-65,47,25130,18177,20452
96,-110,89,-24793,-18981,-19475
87,-106,-85,14359,3706,-4352
53,-7,-5,-1427,2413,-10217
-68,-82,-4,-3550,3597,-8073
-124,49,17,-10795,-1949,-6820
30,-4,75,-9023,-3872,-2161
4,106,106,-11334,-8471,-2774
73,102,18,4585,-3677,3143
-61,13,-116,5142,-2893,6306
-59,42,103,-497,-14156,-1912
-19,53,67,8644,-7766,2161
-101,116,-94,19804,5930,13600
-55,-119,17,-13871,-12550,-2496
9,67,32,7340,1877,-7650
72,25,16,-3779,-6510,-14515
-7,-66,-72,7075,7572,-10235
90,-2,72,-2095,-849,-11166
-102,-48,25,1102,3312,-7599
-74,-23,36,-5428,-2665,-8443
-81,-34,-112,-14305,-8991,-11003
12,-27,-50,-7356,-1787,-174
123,-76,-54,7006,2608,1697
-119,24,-51,1268,-3859,-2924
-33,-33,48,5430,-2814,240
-29,-96,-98,8330,-1141,4456
-32,123,56,13257,-2527,5745
93,118,60,8786,2182,9153
-16,50,118,-4139,-11820,1234
-101,-96,-46,3559,-3544,968
19,30,-100,2816,7788,1673
-115,35,-46,-6559,-564,-7600
-106,-53,-97,-4366,4281,-4929
103,3,-30,-6755,3853,-4338
28,21,118,-7162,424,-2217
57,49,-95,-11040,-7504,-2509
-3,75,-90,-6809,-6285,-1389
-100,105,-118,10274,1407,6895
20,61,68,63,-6961,454
113,31,-107,101,-9346,-5355
-39,55,82,21344,-1285,-1961
76,47,-43,15403,22985,19908
57,20,104,225,-13642,-15499
-70,102,-49,-4520,-3225,-14409
-33,-126,62,-1419,2854,-9749
-61,-70,66,-4002,1102,-6263
-35,15,79,-12203,-4527,-5096
-92,1,-40,-17335,-15120,-4474
69,35,-81,4482,-5766,-64
-85,86,68,7548,-2949,9127
73,5,-81,-400,-16341,-9354
-57,-71,67,20436,2115,5010
23,-84,68,24283,15593,26697
39,5,47,-31641,-27217,-18174
-109,11,-2,22127,13526,-3713
108,-40,125,-6955,-10664,-13964
-11,-3,-87,488,3197,-11081
-53,52,-2,3363,6953,-7420
-125,-67,54,-2832,-540,-8988
53,7,-3,-9254,-3856,-7082
-15,-7,-111,-13826,-6047,-7466
43,68,103,4944,5530,6787
-58,-50,23,1410,-1253,-927
-14,114,-54,648,-3952,-2506
97,3,10,3445,-2936,246
112,116,-126,4192,-4510,1482
40,-55,-34,9552,-3849,3259
125,16,47,7147,324,8537
-15,-57,74,1432,16,4986
-70,2,100,-1136,-9316,-399
113,25,20,6671,10630,2783
102,110,-43,-3963,881,-5859
-77,-96,-35,-84,7607,-3839
-38,46,33,-9770,183,-7413
2,-116,76,-8300,-1919,-2364
1,71,-108,-7784,-3989,-313
7,113,114,-2507,-3660,886
-39,103,-54,1903,-3391,3619
-120,-16,-3,1221,-8056,-716
-96,-20,1,7824,-5201,1966
-98,110,-116,8006,-9656,-817
-83,-18,71,19262,13976,13222
75,-41,120,-16789,-16768,-17652
-13,107,-17,16965,4047,-3267
-5,-84,68,-1431,3698,-9520
12,6,112,-1462,2926,-8002
97,81,110,-6777,-534,-6746
-103,-92,97,-10943,-4302,-4368
36,-102,39,-20265,-16376,-7739
-42,-125,100,17636,358,6998
-36,-115,-83,2510,-6418,5843
118,110,-60,1747,-14540,-6935
15,26,101,15384,1986,8272
-11,-102,118,16812,14821,16933
7,-128,-48,-16993,-24067,-13990
53,-75,-3,11434,8674,-2572
43,52,14,-6035,-6182,-15727
42,-53,-97,1355,5794,-8991
-31,15,-12,1939,4688,-9096
-57,-1,-2,-4383,-543,-9935
82,-95,-99,-8132,-2449,-7659
-84,-51,108,-12238,-3927,-6475
66,-15,49,2364,3881,4152
-7,-58,93,393,-905,-451
-44,18,-41,-416,-5182,-3242
78,21,-107,4262,-2505,1124
57,-122,77,5538,-3735,2670
26,43,-22,10627,-3767,4488
-121,127,60,9250,3010,10209
32,100,86,-1568,-5962,3917
-115,-39,94,-1429,-8919,787
82,6,69,4169,-2825,1474
75,-38,-88,1496,-2307,2026
-113,57,113,1156,-1138,567
77,6,11,2789,1734,1149
10,-39,30,-747,205,-98
21,-70,-98,-2892,-869,-1377
122,-57,-3,-70,1495,-417
-12,-68,-35,45,2333,-813
71,-83,-22,-1475,1347,-1671
-90,-69,-110,-1156,1576,-1454
-33,-79,110,-1429,816,-1426
-8,-83,75,-1145,672,-1168
2,-86,53,-1166,77,-739
-27,-95,26,-1003,-444,-624
-29,-81,0,416,-145,67
-48,-91,13,2385,1099,875
-94,-89,-87,668,-360,721
123,-78,-64,-392,-1230,80
-116,-81,-108,406,-675,355
-125,-63,-93,-27,-539,368
113,-71,-69,-1168,-1699,-159
112,-42,112,-373,-1110,174
100,-60,-94,-1196,-1878,-369
112,-36,113,-538,-981,-80
119,-32,106,117,-184,64
105,-38,-113,-462,-342,-196
111,-22,112,-128,121,-67
118,-29,112,-269,-79,-217
-123,-27,86,-15,311,-84
-115,-31,113,-478,-194,-309
-98,-23,104,-716,-322,-459
-80,-11,58,306,565,105
-87,-28,112,-765,-516,-419
-71,-21,66,-81,-115,-82
-73,-23,77,-82,-143,-31
-76,-22,95,-229,-469,-99
-74,-11,73,256,3,135
-78,-18,107,-206,-456,-112
-79,-18,104,-180,-411,-80
92,5,112,-4187,5272,-2939
103,-52,-69,-7051,3479,-6342
42,7,-12,-12297,-644,-3937
87,11,21,-14953,-11415,-2105
38,75,-21,-1219,-2342,1270
-83,36,82,6071,1021,8998
-34,122,8,-4172,-9572,-1951
53,27,-2,6470,-6527,-5284
-32,-52,-117,9808,-7269,-5899
111,43,16,16343,7432,7258
59,32,-11,-17175,-11979,-7857
58,-89,-40,19174,4638,-6940
73,-18,120,-3998,1896,-12953
44,-19,73,-6735,2962,-9084
-21,89,104,-10086,-1295,-5697
-72,53,-97,-15564,-14770,-2692
0,-89,-9,-1959,-7878,-3352
-84,-23,-11,11095,-1101,9137
109,64,-43,1410,-14394,-7025
-128,49,40,14059,-6612,-65
-40,18,119,17558,5601,13232
-61,-21,24,-13113,-10518,-1857
111,-58,109,7731,3606,-8500
-60,31,24,-3282,-4414,-16825
42,-73,-46,4761,9052,-7920
114,70,83,-1597,1106,-10679
-55,15,85,-1318,2669,-8522
3,-65,95,-10157,-5475,-10012
36,-108,116,-19187,-12141,-12205
86,-43,95,5646,6421,7264
87,-19,-108,8505,502,1287
-13,62,32,-445,-6234,-2942
12,-1,-81,4950,-4814,-921
-7,107,32,11117,-4464,-461
-72,45,36,14079,-296,3911
56,-70,46,10539,6912,11150
41,92,-115,-3181,-7785,2932
-85,114,-104,1231,-6128,3
-117,-112,-49,393,-1481,1149
95,-79,-121,-2377,-2596,-1374
26,-48,-7,9676,10831,5221
-124,84,15,-12207,-2183,-10296
-40,13,-30,1489,7293,-4786
106,-99,20,-12203,587,-6885
-25,-103,73,-12689,-6333,-4137
-122,40,-36,-6574,-4995,700
-47,-117,-95,3838,387,8554
17,-116,-80,-92,-7289,-1513
-1,66,-107,504,-8217,-1789
-53,-29,-78,15009,-6740,-2456
77,38,8,20142,15749,14604
-96,-99,-6,-9976,-14136,-12493
37,99,122,-97,-503,-9851
68,16,103,929,4426,-9399
105,-22,-117,-5498,3261,-6164
90,-55,-78,-11721,-2607,-5396
-48,2,-1,-18955,-16279,-2892
34,121,-1,8636,-6279,-29
34,-105,86,9153,-3249,8093
-70,71,-48,3402,-13756,-6115
-26,33,-58,14512,538,5682
-54,-74,101,16396,14895,17681
124,98,-65,-12669,-16029,-17106
119,47,-113,15838,6140,-4300
-94,77,-125,-9137,-7321,-21073
116,112,-29,6483,10749,-6374
12,-64,-41,127,-2025,-12098
44,-94,82,-9342,-4821,-11060
-18,-109,77,-11867,-2610,-5492
23,69,-34,3721,5638,5222
22,102,68,-643,-1685,-1940
0,-124,5,1399,-1516,-361
-31,-74,97,3033,-2328,678
-33,-18,-96,4791,-2846,1726
-57,64,10,5889,-3876,3167
-76,-81,79,6811,-2427,5078
64,9,-69,8352,3833,8547
68,-15,106,-5133,-7485,1368
60,107,-99,3713,-2989,2385
-82,-45,117,-44,-5524,1740
124,-65,-27,4046,7296,3233
66,-48,-13,2279,5368,-2601
-124,50,-10,-3151,3931,-5883
-96,-98,44,-6872,2213,-6966
100,-37,119,-6105,1868,-2590
-52,-97,82,-9393,-5275,-2460
-27,-45,66,-12655,-10104,-2998
-73,-120,-126,9636,-653,5299
-11,103,18,6169,-3833,5486
-8,17,64,2758,-11622,-14844
58,104,-81,25164,18749,16917
83,-17,-51,-15909,-15237,-9496
-41,-127,-74,12003,-816,-9102
-16,70,113,-5170,1412,-11325
-57,-74,90,-6036,1463,-7637
-15,-76,-125,-13898,-5123,-3453
124,-18,11,-18846,-16865,-3082
-48,46,-123,10941,-4350,409
74,26,-55,7499,-6367,4301
59,102,-101,7707,-11008,1011
120,115,112,19023,6064,15876
116,101,-81,-26150,-14254,-7400
-9,23,114,10279,-1230,-13897
0,-43,127,4925,-1082,-8362
66,1,-44,-1522,1172,-14079
-24,-128,50,3151,8611,-8489
-19,-18,95,-2664,-1339,-9163
-37,-97,65,-5843,-2026,-6830
15,79,27,-10101,-7983,-8331
79,7,-104,-8238,-198,2622
-71,-16,-15,15245,7023,9994
63,118,80,588,-7508,-908
35,0,-105,-2843,-11457,-6528
61,-1,-33,14902,-3077,1356
83,87,124,10903,1418,10856
83,84,49,5007,4884,11443
-111,40,106,-8415,-15635,-4196
-75,-121,106,2236,-4689,-186
56,-6,17,6537,3707,4492
70,-121,-112,1702,460,1450
77,-32,56,5216,13290,4861
104,82,11,-9320,-810,-10045
74,8,53,-5795,3908,-6807
-47,-29,96,-7656,1515,-4580
124,28,68,-10557,-7337,-3228
-5,-86,53,-10556,-9683,-2556
-41,-6,33,3110,-1504,1004
-75,-50,126,7530,-687,3838
89,20,-16,4171,-9026,-5860
124,-102,86,10238,-4838,-4619
106,-35,38,29008,22105,19891
81,-32,-108,-10537,-12778,-20653
1,-121,-119,1035,911,-9645
-66,-101,126,-1426,2782,-11116
-62,-43,123,-5540,856,-7991
9,-23,-94,-9704,-3493,-3961
-53,-110,-116,-21256,-18101,-8024
-90,-9,35,13515,349,5856
33,-6,63,5773,-6460,3266
54,-50,59,4232,-14077,-7612
-64,15,-28,24690,10021,14887
-62,39,-80,-937,-9175,5264
-48,-53,-69,460,-1258,-7012
-18,41,20,4202,-2528,-11128
-16,-108,62,430,865,-13436
93,90,14,458,2711,-9090
-63,-20,87,1502,3356,-6609
46,39,81,-6390,-2080,-7151
118,-88,-29,-10700,-5922,-8195
-115,-91,77,-5587,-647,1625
-18,-82,52,9862,5631,6310
-99,18,21,12608,4843,9235
-41,73,34,709,-724,968
-58,51,125,-12103,-11428,-5725
78,-10,93,-2070,-7253,-1410
-57,6,-75,7479,-3014,5320
19,-46,23,7402,-4764,4092
-59,-107,-17,5593,-1805,6010
114,54,-103,-830,-9214,1966
-65,-18,-34,3342,-4379,2126
9,-47,-49,7185,12807,2875
-66,47,11,-8343,-2383,-7178
-38,-84,-62,-1109,7601,-2056
2,85,19,-8283,2916,-4730
-102,50,120,-11391,-2317,-3732
-25,-68,26,-16139,-10481,-4190
-105,-74,76,7203,1823,5905
-88,4,95,3168,-3367,4982
58,-86,3,-6218,-11787,-6036
-120,-1,46,15385,-3385,639
-109,-99,-27,14374,-2346,2785
-86,-20,64,9938,10268,12619
12,77,22,-3026,-10165,-17356
29,63,-74,-979,628,-10338
37,13,-120,-701,1949,-11314
20,27,104,-8350,470,-8918
34,98,-124,-10119,-2680,-2295
57,-100,108,-10638,-8222,-1423
106,-65,-14,-2131,-8769,-1677
14,-107,79,8986,-4184,5735
91,101,-35,6392,-8156,6074
3,-76,-19,2680,-6798,4570
-119,16,30,12169,-1362,5616
-28,23,30,3080,3920,6278
-73,112,-41,-4301,-10542,-12666
-127,33,-13,7777,2636,-8557
-68,-103,8,-2394,-1368,-14406
-10,4,79,1067,3953,-7570
-59,-47,47,-2982,-938,-8392
66,-123,-104,-80,3252,-6770
-76,85,38,-7056,-2950,-6194
88,-113,79,-10992,-4702,-5955
99,-21,32,4467,3524,3389
76,-73,115,4633,-242,1680
63,84,-116,-1043,-5400,-1437
48,27,18,2227,-4951,117
44,-91,79,7557,-4155,4047
-15,-4,94,11075,-2273,6775
121,-128,96,343,-1470,8736
-111,-27,58,-5447,-12550,-4756
-95,-113,0,10606,378,4250
73,68,-24,1457,-1265,2627
88,114,-100,-811,-3791,-80
-95,30,44,2168,-336,1197
98,-25,13,1061,463,533
64,-53,-81,1063,1355,-110
106,-89,-121,-976,496,-747
-75,-112,16,-595,1379,-951
-2,124,-23,-906,927,-1147
75,-117,-70,-1318,638,-1254
117,-99,-115,-979,767,-939
-103,-99,-115,-1643,-33,-1298
-84,-93,65,-875,262,-722
-71,-98,60,-626,303,-436
-75,-81,76,-1253,-554,-520
-85,-64,10,181,114,83
-118,-68,67,-155,-710,-74
-116,-71,71,-271,-1007,-56
-128,-53,70,718,-572,318
117,-56,-127,158,-975,248
104,-44,-120,37,-985,175
94,-42,-112,5,-921,86
93,-34,120,470,-7,314
76,-41,-92,-95,-394,-40
83,-50,-92,-636,-582,-322
93,-41,100,340,261,86
94,-47,-100,-1054,-683,-590
123,-34,88,349,418,-38
119,-43,-111,-762,-309,-516
-105,-41,108,-441,-29,-374
-95,-26,90,-315,145,-281
-91,-24,82,-236,170,-289
-88,-19,90,-636,-301,-470
-74,-16,63,-192,-145,-163
-80,-14,73,-174,-263,-207
-74,-13,83,-232,-311,-130
-80,-15,100,-572,-712,-298
-80,1,76,49,-223,3
-86,-12,103,-239,-511,-116
-77,-7,85,-37,-212,65
-59,-54,-89,3145,5974,1109
-119,105,-84,-10845,-218,-6869
86,-86,-85,-4225,6944,-2261
-92,78,69,-7791,2239,-3041
-8,-3,-20,-11522,-5899,-1365
56,43,5,-8863,-5338,-1461
-51,-55,122,3804,-39,4976
85,25,22,1478,-4677,900
-3,41,-87,2669,-6600,-2253
-8,-16,59,5992,-6877,-2502
74,110,-26,15145,-2518,-3202
-68,82,-33,27661,7798,19713
45,-93,-40,-4542,1180,-11933
26,63,48,-6890,-587,-12234
-70,81,37,451,4694,-7859
-102,-104,70,-8011,1238,-8931
-111,36,84,-10239,-1521,-5017
66,103,72,-14972,-9865,-3063
121,-97,-75,4812,-2687,3010
-98,101,64,6330,1056,10897
-60,-16,-1,-10302,-17510,-7423
90,61,-91,9712,-12017,-12044
4,28,1,23243,10849,18863
21,98,97,6829,-10039,10561
116,-50,-102,-7732,-8146,-11612
5,2,-25,12138,3256,-6310
12,98,56,-5460,-2625,-16552
113,11,32,4616,4746,-7431
-120,-57,68,-2182,1196,-8462
59,-71,69,-675,1391,-6791
8,71,-91,-10418,-5439,-6791
-84,-78,-78,-7964,-5056,-6589
-15,39,-6,4605,5351,6487
59,46,-111,3480,-1014,83
69,51,-39,-264,-5015,-1390
50,-27,117,2051,-4197,340
-27,-120,118,7276,-3154,3753
-46,-55,35,11352,-674,6679
-82,59,47,2428,87,7146
74,109,81,-2484,-10600,504
-5,94,50,5524,-2958,2087
112,2,-39,185,-2463,2548
-5,123,-64,1357,-1141,2163
-107,72,30,1819,601,1617
60,4,-50,1944,1571,345
62,-62,-82,-973,217,-297
115,-91,55,-1684,-221,-509
-89,-93,-31,-637,436,-548
-4,-86,-53,-295,1292,-662
59,-87,-72,-1066,1177,-1089
126,-89,-119,-1074,983,-1191
-68,-89,102,-1282,569,-1322
-47,-95,72,-430,617,-761
-45,124,96,-806,-159,-922
-37,124,88,-1449,-1061,-693
-42,-115,46,-632,-1019,-31
-45,-75,-2,1927,708,1352
-89,-94,109,1784,36,1304
126,-79,-62,-119,-1311,528
101,-57,-91,-173,-1267,458
94,-44,-113,228,-727,355
101,-56,-81,-118,-752,14
109,-60,-94,404,-75,246
76,-82,-56,-824,-801,-504
106,-72,123,196,259,-7
115,-86,-93,-723,-473,-447
-125,-76,-118,-562,-164,-386
-103,-58,-122,-583,87,-391
-80,-42,-121,-937,-33,-566
-66,-26,86,-286,429,-277
-69,-38,114,-802,-171,-495
-51,-30,78,-494,-137,-290
-50,-26,65,-208,-139,-122
-53,-21,75,-175,-217,-63
-63,-13,89,-180,-445,-72
-63,-19,92,74,-358,-13
-75,-16,124,-382,-708,-166
-67,-20,97,364,-135,150
-78,-16,-123,-61,-279,26
-71,-22,-119,-454,-486,-193
-59,-39,-97,4984,6774,2135
-67,-128,62,5727,8629,1684
73,113,3,-7151,402,-8025
89,49,23,-5773,4486,-7041
-122,-61,102,-9367,2142,-5657
-108,79,-99,-13938,-9381,-4009
8,-24,-107,-6612,-4634,-1786
-126,35,70,11295,2027,9841
-93,84,79,-2886,-8578,-2714
-63,-110,-33,6574,-7335,-4962
-13,-64,36,19428,-5576,-3803
-76,-110,-65,16484,-3414,13989
-39,89,-91,4028,6753,-7898
84,-45,28,1261,-1193,-10152
117,-109,-41,-3345,1172,-9819
125,113,-61,-7121,-627,-7423
39,53,127,-14429,-8969,-4031
-30,56,-65,-11525,-9649,-4430
-103,-104,50,12536,-838,8834
-107,-17,86,-3056,-12593,-1735
-87,-62,-32,11348,-13018,-3579
87,-33,-127,23390,14248,20188
-21,99,31,-26078,-20250,-17337
-52,-24,-56,19292,9543,-3790
83,37,-70,-5089,-9367,-16554
-14,86,-49,3702,6409,-8796
-56,-52,25,-2809,1822,-8613
-45,-18,40,1565,3921,-5934
-92,-119,27,-5513,-1711,-6697
-17,48,-51,-19652,-11457,-10965
124,-109,62,15236,8249,7006
6,-69,119,7324,1668,4260
94,-90,54,-2179,-8264,-2709
53,4,119,2374,-7654,-1462
97,-111,77,12664,-1645,6046
-27,-72,66,10165,3219,10160
34,-34,75,-3597,-10228,3215
-115,66,125,-960,-9069,-168
113,-110,23,3606,-5090,948
125,-34,87,1765,-3105,542
-115,23,-55,8606,12095,5558
86,-49,71,-13698,-877,-9306
11,-91,-6,5602,9944,-4519
-115,-57,-115,-9055,965,-9610
-73,68,-65,-10028,-1602,-4685
94,-5,45,-13174,-8445,-4588
-63,-125,-66,-2116,-2735,-28
-120,6,-46,8038,2003,10448
-55,113,112,-7216,-10413,-5733
-105,13,33,14925,-6532,-7422
99,18,12,17541,-708,-255
-20,1,-42,21528,-31640,27420
-4,63,85,-724,-15410,-18649
-97,79,-54,-4420,1232,-10463
91,34,-106,-4154,2477,-10212
-114,-98,-106,-7007,1255,-5925
-4,-56,-75,-15543,-8567,-3664
-113,82,57,-11708,-11787,-5791
-117,86,124,16117,106,8420
-4,114,-113,2974,-9365,979
70,-6,-71,10105,-7817,334
-108,-94,58,20123,22370,30714
114,-93,-89,-21701,-23862,-26106
-122,-103,-12,22830,14443,-7011
-45,107,62,-5483,-10827,-14629
-93,106,-115,8160,5464,-6428
-40,23,-119,-4227,-1838,-10854
57,105,65,-8257,-6502,-8482
106,-103,19,-15737,-12529,-12379
7,64,21,10676,8671,8970
-89,55,-127,3053,-3813,-1917
-125,-68,-124,3151,-4431,-433
45,62,-125,8445,-5692,-176
-112,-52,41,13424,-3233,2474
-113,74,-128,10360,631,6912
62,-27,-81,2593,-4721,5593
97,44,0,638,-3693,-36
-92,-100,68,1326,-1850,582
63,98,-127,2704,3933,1722
-54,-32,115,-2052,-514,-1503
-55,33,-74,4038,4440,1843
79,71,-22,10378,7680,1285
-29,-21,-44,-10106,2685,-7831
59,-106,25,-6326,3873,-6079
-22,-104,75,-10619,-592,-4031
10,95,-110,-10951,-6045,-2004
-1,-12,-69,-787,1080,898
-124,5,-29,280,-1838,2332
-127,79,-104,-6082,-9043,-2809
62,-30,-1,8272,-2966,1399
89,111,-97,7561,-5789,1353
60,16,-95,10992,-8810,-5325
69,-68,0,27621,22659,21143
-69,-66,-9,-15809,-16756,-18543
-79,29,-76,6870,2172,-6429
58,-44,-51,445,1123,-11921
-84,-63,-107,-6379,1797,-8674
-8,-28,-96,-9453,-2607,-5623
-17,19,94,-16971,-15100,-3049
-46,-46,71,1209,-7720,-1981
117,-73,80,11920,-1180,9921
85,23,76,-3931,-18313,-10358
-4,-45,95,16005,-8480,-16832
-10,13,68,19791,19777,30766
29,49,52,-30215,-20882,-13295
-33,6,-69,12733,5350,-10885
-69,1,69,-9047,-5859,-19049
-95,60,77,-10014,-4547,-14021
-118,98,-29,-11700,4427,-3335
102,-81,-10,-5222,7683,-161
-30,-88,-100,-13866,-5353,-4573
4,-90,64,-10545,-4141,-2210
-79,-110,6,13664,4832,5279
110,111,5,768,-7994,-5703
-100,-87,-125,7136,-4583,-4262
4,2,-36,13655,-2398,-1055
-12,-91,-114,10442,-1355,2887
73,93,-87,1291,-5969,-3354
-80,-113,-5,5285,-2824,-2429
-86,-97,123,2854,-196,662
-26,-9,1,5497,11438,4386
-5,66,60,10336,5023,-196
44,107,89,-6432,7917,-7657
-83,61,-45,-8831,-690,-8941
-40,40,-100,-13356,-6564,-5733
-103,72,-87,-8749,-5215,-1055
-8,90,92,4457,1275,6811
72,61,10,-1120,-8262,-2781
114,-3,-57,6465,-4027,1734
62,57,87,8530,-6092,1114
4,41,36,19404,8,2350
-128,104,-95,403,-10656,1121
75,103,84,7991,9301,-6904
-73,-64,65,-3383,-2185,-12872
-10,121,1,-1833,1910,-8879
-111,-45,-2,-6770,-954,-6802
42,-16,-103,-11177,-6479,-4124
118,102,111,-12940,-12592,-4776
99,-10,-57,7061,-3839,2134
23,2,26,7191,-5854,6652
-28,108,-55,2280,-13197,-1474
55,-30,89,20553,5396,11683
-86,-73,98,4422,-14127,5802
86,-63,-31,-4073,944,-9490
37,-17,86,7332,-1008,-8721
-60,110,18,-6006,-4601,-18869
106,84,-6,4707,7602,-6149
-16,-55,62,-2677,-362,-9196
16,-42,-57,796,3102,-5558
-82,36,58,-5153,-2322,-5469
44,6,-69,-6952,-3658,-4517
-15,-5,-87,-806,-1815,-102
-41,-36,-71,5323,-364,2542
-62,-52,-112,1725,-4744,1481
-113,-99,-106,3514,-5449,3054
96,-105,-23,9120,-3187,7086
-120,-91,83,6633,1455,9553
39,-66,108,-1519,-6152,1612
20,47,-128,2078,-2528,2848
58,27,119,330,-844,1986
-33,-19,-87,5303,6786,1905
11,-16,-68,-5005,821,-5496
1,-67,-78,2930,8794,-2449
25,33,76,-4332,3865,-7638
94,-49,-120,-8352,-185,-6284
113,13,74,-10252,-6083,-3363
25,-42,115,-9886,-8707,-4539
92,56,72,6007,-983,5363
41,-52,80,4112,-3778,1675
-19,-32,62,4679,-8139,-2807
101,-87,-73,9821,-7193,-4278
-2,-109,9,27949,15189,17585
91,-97,-93,-24657,-17290,-18561
-60,-126,-85,17017,3089,-3636
-126,-25,88,-6135,1831,-12140
26,-84,59,-3431,3525,-7993
109,-61,91,-10205,-1079,-5647
-30,-42,94,-14409,-11916,-2586
76,33,-120,-7939,-9791,-4792
100,38,18,13678,875,8758
108,100,-72,-553,-13061,-2595
-24,94,-68,6444,-11434,-6642
-13,-85,33,24670,9971,17284
-111,119,75,-25673,-12395,-2691
-38,71,-62,7893,-1827,-8483
86,-13,41,-8834,-5560,-13725
-64,-57,-121,-2601,1337,-13672
36,117,-122,1593,8777,-6293
-65,-46,-34,-2920,1939,-9645
22,20,-21,-4105,2351,-7667
-93,-18,-97,-14828,-7974,-10216
94,-15,-5,-5791,-549,-351
18,-66,-71,6880,2529,4309
-103,-5,38,1087,-5750,-4013
-31,39,-15,6383,-2845,171
-17,-32,-34,10600,-2529,4817
11,-44,-14,12498,-1399,6455
-126,-101,44,6644,3724,9485
-34,27,119,-4499,-10438,564
-113,-54,98,2457,-3709,1527
31,-114,42,9133,12326,4480
49,78,80,-9756,-3806,-10237
125,-44,-18,2285,9087,-4743
113,-122,104,-8696,1063,-9557
-67,69,111,-12019,-7164,-5176
-123,-70,15,-7569,-4805,-3208
54,-46,72,-1679,-2201,2676
-8,46,43,1168,-2890,2588
87,-44,92,233,-6453,-99
10,-16,115,6776,-5214,186
-65,-54,-33,9452,-7054,-2298
53,-61,104,25963,6729,10338
-39,96,51,-7733,-10931,-6405
-19,37,-78,2389,-780,-8979
91,-61,-39,3897,3042,-9743
-115,-102,-38,-5666,-274,-11779
102,-17,-107,-9029,-2708,-7561
-67,-9,34,-15479,-13396,-5529
108,-74,23,-11572,-9136,-6470
-74,-89,-18,16534,-172,5497
18,69,-124,4460,-11253,-4292
94,39,42,11329,-7657,-4236
14,93,-103,20535,9931,17311
-35,75,106,-25638,-15857,-5266
13,-14,-100,12969,5059,-91
-16,26,66,-5020,-6949,-13760
-125,-113,-68,637,4451,-11420
-63,-47,-10,4605,5489,-8226
49,107,76,-2825,-1956,-11004
88,-18,-87,-6792,-1577,-10073
-44,-119,12,-6274,-549,-6160
-25,17,17,1024,4013,2575
81,-28,-34,-986,-2610,-2589
19,10,-125,1095,-2315,511
-75,126,17,1450,-4346,471
114,73,12,3187,-5210,1616
18,-91,109,6428,-4491,5147
-76,73,-121,11243,-996,8558
-67,72,86,646,-34,7673
-1,-1,-111,-340,-10010,-254
109,73,66,10987,15800,5221
82,3,-16,-14830,-3210,-11170
43,29,-35,-5565,6180,-3735
88,-71,106,-13874,-2935,-3244
36,-68,-80,-20855,-14488,-5269
119,53,-75,13860,5026,10242
7,124,-8,7182,1588,12322
-78,45,-71,-17560,-14926,-14284
0,0,0,0,0,0
0,0,0,0,0,0
86,-114,37,-119,278,-60
86,-114,37,-119,278,-60
95,-97,103,-1459,-502,-1017
119,-115,-40,-1197,346,-583
119,-118,-108,-559,834,-149
-118,-75,-45,-956,290,-56
-96,-30,-53,-347,1041,327
-115,1,-14,-218,915,268
-126,5,40,-836,602,-115
125,-19,-7,-332,1522,-24
123,-34,1,-234,1507,102
-123,-19,39,-1144,594,105
-91,-12,-20,-291,1067,909
-119,-44,-1,-479,617,896
122,-57,-11,-1071,239,895
-124,-67,-38,-1297,-379,1143
-70,-67,-11,-617,-759,1359
-28,-35,54,-1652,-1187,1387
-37,-53,-13,-901,-1738,853
-5,-67,-75,877,368,1484
-52,-114,-22,-463,-660,672
-58,-108,10,-384,-1384,572
-45,112,-98,-671,-1213,-89
-56,-88,75,2268,905,1544
-72,81,-68,-570,-1456,-247
-33,112,26,1188,163,461
-9,122,17,2511,763,1369
-9,77,74,1893,361,1121
-21,54,115,1676,414,1090
-19,31,127,1560,850,1151
19,-116,85,854,14149,2979
112,91,-52,-5616,515,-8490
-18,-109,11,-3815,5672,-5429
-32,126,112,-9196,3749,-4994
-96,-65,10,-11649,-5246,-3794
32,27,125,-9801,-6688,-1484
8,-75,110,2458,406,5607
35,73,-78,1496,-3157,2448
-85,33,65,367,-7086,-4695
15,-59,97,8623,-5180,-2665
-125,105,127,14608,-4093,-12237
83,104,37,26786,32631,30383
127,-83,-16,-191,-435,-12200
-95,24,17,-2475,347,-12012
-10,66,24,-3958,3951,-9141
107,14,91,-7746,-180,-5479
-90,17,-62,-9920,-4302,-2130
-44,69,64,-15989,-12543,-3978
92,84,-64,13091,-49,5901
-53,-55,-31,2542,-6198,3319
-30,-66,65,2199,-11388,-2604
124,-43,-108,12133,-4066,2580
79,-104,-128,12519,16464,16730
-90,55,-80,-10954,-18578,-9331
74,-105,93,6127,4064,-6894
-5,-79,-102,-1004,-2222,-18288
-37,96,114,-1623,4528,-10761
100,108,-105,2738,5970,-6563
-53,121,-78,-3734,-1221,-9156
-1,-34,15,-10756,-5283,-9529
86,-3,98,-8430,-2874,-3915
-39,-99,10,-1243,1621,1833
73,-22,59,4426,-2234,-1276
-125,39,-13,4462,-3776,-265
-91,28,-5,9724,-3083,2116
-80,-120,-43,12706,120,9790
-102,-77,82,9220,6239,10803
-26,-43,44,-10386,-18294,-3045
-80,54,113,3445,-2670,-792
-111,-122,-35,6783,1485,5389
17,81,69,5193,5190,2783
-72,-8,23,6342,11994,4663
-62,-59,-64,-5963,313,-8991
110,-12,-14,-4603,3808,-7676
-42,-114,51,-6122,3943,-6499
-41,-70,-90,-11530,-1774,-5713
-51,84,-82,-12517,-6865,-3375
42,-34,72,-7474,-6231,-2293
45,-23,-60,7915,1203,4006
3,90,-64,2538,-4257,285
-47,1,54,5620,-5893,-4097
-47,80,21,11121,-5069,-2823
24,-19,53,23060,15309,12752
52,-65,42,-18114,-11886,-14416
114,0,-56,3455,4469,-7246
75,95,34,37,2377,-10166
-75,-112,35,-5817,2933,-7700
-23,54,-127,-10507,-1647,-4695
24,74,-86,-13230,-10532,-1518
-15,-34,89,-9138,-8801,-4003
85,14,-30,13340,-1022,5567
-44,-120,-111,745,-11052,-2535
-38,-76,92,9401,-8483,-4281
-117,-72,-70,19228,9832,15136
-55,-120,-51,-19238,-14675,-4096
-75,-18,16,13100,6954,-1672
-33,-96,-118,-5595,-2863,-15248
109,15,124,2050,6740,-9253
-63,127,-88,-16,4947,-9933
82,-120,-48,-995,2974,-8603
62,124,-38,-10889,-6204,-10555
69,69,-78,-17246,-8146,-9635
-117,-14,46,9392,10494,10976
50,-54,60,-1669,-3535,-3525
92,96,15,1885,-1747,-304
92,-48,-74,3266,-2956,565
81,-116,-29,6216,-3140,3494
-117,44,-107,7229,-4688,3353
3,54,87,9146,-632,7105
-99,-83,45,6508,358,7418
-110,-72,63,-2894,-6022,2169
108,-91,126,844,-2121,1019
121,-49,94,3250,2004,2967
-23,-15,46,-716,-223,180
50,-56,-121,-1828,214,-708
-105,-64,0,-1786,329,-252
-37,-75,120,-589,1206,130
-31,-100,98,401,1796,234
14,-104,-106,-536,927,-355
86,-82,-105,-1417,393,-768
127,-79,110,-1085,842,-461
-108,-77,114,-1491,469,-605
-95,-65,78,-1477,63,-461
-105,-44,47,-500,697,237
-128,-37,80,-840,-168,99
126,-6,65,-458,-62,281
119,-4,80,-234,53,285
111,-6,113,-518,-418,243
98,6,84,-103,-22,355
79,-7,125,-182,-65,269
91,-7,-123,-418,-141,239
82,5,-118,-619,-54,91
93,8,116,-411,389,250
91,5,116,-235,533,305
91,0,-125,-896,106,-54
107,5,108,-601,498,147
120,22,101,-460,749,201
-122,21,103,-769,480,44
-127,34,107,-864,276,-30
-110,28,98,-757,406,18
-107,41,72,-431,546,210
-113,37,93,-615,203,66
-117,39,92,-671,39,55
-108,43,89,-323,270,252
-119,38,109,-467,66,171
-108,40,105,-192,253,359
-113,42,113,-501,78,185
-125,54,124,-820,-71,-7
-105,53,87,-99,800,439
-116,45,-123,-787,122,21
110,-4,-94,11129,13911,6236
103,17,-86,-17013,-6552,-11140
-34,-127,118,1429,10974,2319
-14,53,11,-9538,1089,-6033
57,112,10,-13310,-3349,-2912
-63,62,-126,-7941,-5582,-1488
-107,8,61,3284,3429,6097
20,16,56,-3776,-5379,-477
-30,-14,-70,3610,-3361,470
23,-77,26,4184,-4748,53
-17,-49,-29,5703,-7091,-4478
68,26,-119,18302,6549,317
18,-3,53,14182,-6797,9508
-60,-122,-23,1776,7108,-10213
-64,-47,90,-1259,-117,-12631
99,122,38,-4468,3727,-8793
-25,-53,86,-7106,724,-6263
3,-24,-93,-10693,-4884,-3657
18,-28,-128,-15965,-13119,-6532
61,-88,117,6740,-2288,235
77,-66,-88,9428,-2349,9151
97,-31,125,-1487,-15068,-6347
109,123,-119,17448,-1485,-2147
-71,-10,-4,24991,15103,24480
-122,126,21,-24007,-19396,-14609
-24,-64,-33,14438,7676,-3987
74,69,-31,-8232,-7812,-18226
96,107,79,1072,7240,-8520
-103,-109,-84,-1244,3053,-9600
95,-26,-109,-7982,-1982,-10042
-31,-95,15,-15244,-7666,-9000
110,-27,111,-5020,-452,-1745
103,-51,-10,-1532,3265,6098
-68,122,-104,2522,-2177,-3614
115,-105,55,5685,-3432,-2015
75,-82,-49,14042,-2426,1794
54,-47,99,11643,262,7623
-23,112,60,6392,2739,8038
0,98,41,-2303,-11532,1051
-27,61,-114,1866,-5747,-1016
