AccX,AccY,AccZ,GyroX,GyroY,GyroZ
-30,-87,36,3412,7083,3428
-17,95,-97,-8200,652,-5993
-20,-111,-111,-3457,6683,-2254
-70,17,-15,-7161,4849,-3388
85,41,124,-7419,3968,-2627
63,-65,52,-12529,-3723,-2497
59,62,-15,-21166,-14858,-4162
-72,-52,7,11229,264,-387
99,71,-50,7967,1670,4378
63,-120,-68,-3010,-4984,-6344
100,125,9,7900,2837,-1142
45,88,74,19742,20114,9487
-93,19,-75,-10548,-7015,-8804
-85,52,-82,-4507,3251,-3646
83,94,50,-4943,2785,-1715
5,107,-121,-19690,-17695,-5049
-115,-94,105,1044,-4145,-7852
-28,-114,23,16636,8915,14917
-63,-22,42,-1784,-3848,-4899
-58,-27,109,3093,-2164,-2364
-97,-91,117,14746,10544,4683
-86,-90,-72,-9744,-6547,-5329
-56,61,102,312,3251,-2347
-43,-111,-118,971,4457,-250
-75,-25,1,-5882,-3034,-2911
5,-93,-62,-15380,-12852,-5491
84,35,-99,8721,1379,-2715
77,-78,-109,11769,2784,2815
13,81,10,2301,-5929,-6143
-114,8,-79,8273,263,-4189
-33,-87,29,6750,-995,4095
-110,-109,122,2744,-1962,1954
31,83,126,-125,-3403,-335
-17,28,119,-39,-482,-178
52,-3,-103,-3797,-2779,-1807
25,29,-110,-824,-1866,-837
-115,85,21,3509,2502,1864
109,61,24,-4157,-2036,-1789
-105,-121,-5,650,106,267
125,73,61,407,-98,59
18,54,-50,4462,11753,5050
71,66,-58,-12148,-2698,-6651
-104,121,-75,-4102,5882,-2010
-119,121,16,-7038,4771,-2137
-35,-55,-97,-9100,2905,-1003
111,-126,124,-16393,-12782,-3284
-33,120,-18,-8484,-6538,-3782
94,66,59,15990,7039,11922
-48,30,83,-3492,-4636,-4489
51,83,-8,2837,-661,-2116
-99,-74,-86,17790,10855,6233
-46,86,-1,-14336,-6522,-7533
-41,-36,-43,-115,4617,-2267
-30,7,-6,-4348,2214,-781
-91,-100,-8,-11043,-7336,-2478
55,102,-98,-15723,-8163,-6349
123,-103,-18,14145,3913,7093
100,81,43,7314,172,2493
-4,113,95,633,-2328,-1621
-70,12,42,9853,4066,256
20,-19,-98,-5115,-3054,-3658
-30,96,-127,46,3322,-3000
103,46,89,-3273,1810,171
11,-73,30,-6255,-3547,-510
10,-85,98,-9066,-6385,-3642
-123,-79,-53,5524,96,725
112,27,-28,6230,629,1178
58,-118,75,129,-4850,-5793
105,34,-72,6080,-2996,-6055
-95,32,-5,9367,-1461,-6675
-56,1,100,9080,2568,4577
101,23,-122,-2174,-5574,319
110,112,-97,3304,256,577
70,-116,-114,-470,415,-569
93,65,0,-3574,-3086,-883
102,-91,-37,-2712,-3019,-305
-107,79,-56,1859,2558,929
-78,45,-95,-1991,-1067,-784
-81,49,-48,2388,1570,1046
-53,-19,79,2218,1298,1037
-69,-62,-80,5464,5241,3113
108,-125,93,-731,-129,-1174
-40,44,127,-4516,6976,-2530
3,119,-90,-7387,4849,-5598
14,7,16,-8577,3576,-2595
74,88,-77,-13399,-4776,-1302
-72,-105,-40,-12449,-9041,-2281
122,122,-111,5517,706,4244
-114,-61,-99,5718,1632,3975
-10,113,-100,-3592,-5615,-5269
41,-128,81,10549,2128,2262
-111,13,-117,21642,4655,7320
-73,115,-34,-3823,2048,-4484
65,-11,-6,-4743,2413,-3915
-20,85,39,-8736,-721,-2117
61,-56,-116,-17650,-13009,-5007
-25,-110,-70,5606,-3208,-3536
-68,32,-74,12507,5921,9069
64,-13,92,-2023,-3640,-2429
-97,-123,-9,6512,1153,-983
97,2,77,19959,6095,9982
-60,-66,-73,-4385,1123,-6403
73,95,-50,-4708,1492,-4829
89,73,126,-4780,-1616,-593
116,77,13,-14142,-10591,-4190
95,-8,-70,1391,-1798,-906
81,-54,91,12994,3752,4156
116,-113,111,-997,-4805,-5094
106,79,-16,3978,-3620,-4407
-43,45,23,10111,454,-2509
3,-74,48,10023,-131,-537
-67,-47,121,-551,-14555,-3454
53,88,-51,5257,4654,3728
-3,21,-30,-1585,-1835,-759
-13,-66,95,-716,-1102,-1137
29,-118,-34,-3570,-2546,-1959
-126,-67,-125,-1566,-581,-340
-115,55,42,1380,2281,1772
97,30,-67,-3191,-1585,-889
-125,-117,-32,-790,134,128
88,2,86,4792,8196,5941
96,-51,-85,-5171,2599,-3287
-2,-14,-65,-4293,6371,-2317
-114,-66,25,-6300,4978,-3548
58,69,-96,-8020,3884,-2609
8,-9,-4,-14292,-8904,-2616
92,21,35,-12905,-9080,-6030
-41,-8,17,11273,4658,9482
-40,71,101,-672,-3464,-2396
11,-75,93,2041,-1563,-1838
-50,122,-96,9043,5844,3187
121,-46,-59,13127,6289,4086
-51,50,-55,-3648,-787,-3893
-23,-89,-42,-3995,2333,-1968
34,45,-107,-6035,-1934,-1337
96,96,68,-16438,-12132,-4504
18,43,97,5032,-1635,-1914
-66,117,-91,10519,5310,8417
-20,119,24,-3730,-5209,-4426
-83,-86,-50,5754,862,-500
-19,-64,-5,12436,9820,3469
-43,113,-120,-7874,-4135,-5498
93,38,-118,-1757,4007,-2323
24,29,-120,-4965,-711,-1330
-67,44,20,-14800,-11740,-3977
62,-5,-116,1027,-3332,-3144
-47,99,-38,11970,5722,7304
40,5,17,491,-3971,-3461
57,-73,-54,2246,-4373,-4682
119,77,-35,10013,1109,-2501
6,116,41,6896,-569,-123
-59,-106,106,2503,-7380,-471
-16,-48,92,7722,-2995,2225
-46,10,-39,-137,-4685,-158
-122,-67,-96,-112,-416,-561
-122,-110,24,-791,398,-587
127,-109,110,-1819,-267,-490
125,-62,-15,-1533,-74,-124
-127,-22,-55,-2587,-1328,-635
-102,67,33,-706,452,166
-28,56,121,-5724,-1308,-4254
-67,107,94,-1335,4468,-2348
33,92,116,-5154,3418,-4025
-122,36,-58,-8504,3387,-3905
11,-88,73,-9321,1372,-2592
-35,1,76,-13864,-5915,-1074
-93,17,114,-10715,-5394,-1969
99,-62,2,5042,490,3641
124,125,-21,2836,-2081,-984
-73,-49,-97,4440,-1184,-1285
-27,-13,86,8359,2111,799
111,-101,55,19437,7798,6276
82,102,121,-3180,1915,-3596
-14,-125,-95,-4396,2750,-3706
55,116,4,-6227,1797,-1155
-110,-78,61,-14330,-11039,-2687
-98,-24,-16,-14725,-2426,-5978
57,63,-57,16764,3933,8321
0,106,-55,3342,-1280,-102
-128,-102,106,-312,-5025,-3581
-7,-126,114,16412,10812,5720
-97,-86,100,-10582,-6315,-9049
122,-38,79,-1630,2877,-3791
-29,44,-98,-2670,3536,245
122,-87,-24,-8520,-3906,-838
-11,100,96,-14632,-7646,-2666
7,39,-70,12380,1713,2352
56,89,38,9959,600,2470
-4,-88,-105,-4113,-6480,-5809
-42,-10,95,4409,-4156,-6519
114,-92,64,12178,687,-2941
-109,-98,24,10855,-13,3387
-59,-18,-126,-2865,-7008,381
105,-19,-89,3929,-2204,657
-52,100,-13,3280,-850,1191
38,-28,-34,-30,-912,-784
66,-70,43,-2177,-1,-845
66,-63,43,-2205,104,-320
52,-44,-65,-678,177,-26
90,-24,-120,-570,-76,-24
-88,-62,101,4459,7463,3138
-102,109,-67,-7826,-338,-5451
101,-36,117,-4568,4218,-3968
-2,-41,-87,-4746,5637,-3784
-57,3,51,-8453,4103,-3903
-53,122,-51,-8645,541,-1597
-65,98,119,-18746,-13147,-3322
-74,-17,89,-1649,-2899,-3189
65,-125,-34,8926,3674,8781
-27,-57,26,-3273,-5148,-5945
-120,-96,26,10530,2854,2123
33,-89,49,18744,14486,5738
116,-90,-30,-9244,-6096,-7739
-46,-54,-65,-4780,3308,-2366
-126,87,31,-3964,3055,-92
-123,48,29,-17307,-14089,-3390
21,5,30,-6980,-3160,-6904
-99,-115,101,15716,5440,9836
5,67,112,-269,-1744,-1763
70,108,-113,1879,-3366,-3499
-107,-25,-119,17535,17117,8215
-75,-72,-82,-7937,-5424,-8284
-22,-83,-100,-4410,2488,-3901
58,77,-107,-2439,2960,-332
-88,-2,-84,-11939,-8637,-947
-66,-74,44,-10904,-5029,-4331
125,-6,-42,13103,4152,6397
20,99,27,4137,-1845,-1224
46,98,-114,-2757,-5242,-6113
34,48,-79,4708,-2846,-5687
-69,-37,5,12625,4690,-3071
-105,-40,70,12473,-825,6810
-128,-11,90,113,-7813,-3590
-79,98,-118,5208,-2406,1866
-65,-27,-32,2511,-3554,-168
12,-128,114,-101,-72,193
-114,-84,10,-657,836,-3
53,-56,-102,-3635,-1081,-717
80,-5,-64,-4097,-1382,-672
75,57,-26,598,1022,629
-60,-9,-75,6975,8229,5012
-113,-70,-86,-10471,-1921,-5253
120,11,97,-5131,4614,-2066
-12,-83,-118,-5331,5842,-1398
-102,-62,-21,-7284,4328,-2100
-76,99,107,-8322,1625,-381
75,3,-54,-15042,-9979,-911
-126,-53,-62,-6033,-2548,-1078
40,-111,76,7293,1416,4976
-111,52,42,-3736,-4846,-4777
57,124,-33,4522,-673,-739
57,31,-12,12583,5854,2405
122,-85,-91,4345,-1654,-1477
-78,100,-111,3166,5151,-1896
-44,-52,-29,-6452,2343,-1917
-87,69,97,-7758,-3762,-1381
65,-4,122,-19768,-12218,-6047
-9,-23,-32,10837,523,-755
-92,86,46,11806,4109,7938
-76,-104,68,-906,-3203,-3529
22,64,125,5509,872,-583
14,29,73,8449,1329,-1351
-94,-66,100,-758,3064,-3098
-62,10,-93,-3122,2989,-2457
-118,99,41,-4027,-203,-322
-88,52,15,-12517,-9471,-2470
-113,-17,-90,-4032,-1688,-1721
-117,53,36,13227,3678,5619
69,83,20,3143,-1192,-1495
6,-102,-98,-2203,-7030,-6528
1,27,-98,7925,-681,-4026
8,123,-62,12132,3828,901
46,125,98,-3061,-10729,-2653
6,31,83,7174,-2459,1140
-102,26,-42,3224,-2622,1076
-21,-58,-17,247,-2250,-633
-45,118,85,-33,726,-415
-113,119,-72,-2815,426,-321
105,-88,-22,-1592,421,522
93,-44,-89,-941,72,411
-69,-14,-41,8182,6737,2949
-83,-36,-51,-10967,-3605,-3649
-49,-23,114,-1056,7399,-2195
125,-69,-112,-8664,4647,-5696
24,43,-23,-7004,4568,-2640
-85,-42,114,-13978,-4609,-1542
125,-58,116,-11743,-8036,-2291
-112,-95,80,1887,975,5564
67,-20,-43,4155,-1113,-460
-61,32,39,919,-2937,-2321
-104,22,-109,10642,3612,3015
42,111,54,18510,2940,4245
-63,-88,-88,-339,3415,-2777
79,19,-61,-5428,2650,-4443
-25,25,41,-8930,3,-2451
15,46,-52,-20926,-16474,-4338
-47,15,-25,13604,-805,-2659
-10,-32,57,9340,6243,10309
-17,-13,-128,-912,-3570,-2437
-109,-16,-106,8836,4287,99
-44,12,116,-476,-1317,-878
-70,118,-88,-1344,3148,-3976
-104,91,-44,-3122,3455,-2107
-103,109,110,-7675,-3853,-1820
91,-15,-87,-16598,-8665,-5054
-111,73,-73,9282,1323,2884
-108,12,-116,10135,1838,5126
63,-19,-9,-3455,-6150,-4792
3,26,18,5602,-2506,-2994
13,-108,88,10004,1624,-4400
46,79,94,9384,-1792,3124
107,-30,70,915,-10212,-2610
100,-69,118,6822,-1456,2595
51,53,-41,1844,-3804,387
-82,-3,-56,1657,-383,8
100,-46,96,-3979,-194,-1631
-79,-69,97,-7247,-2388,-1506
-114,60,-61,491,1219,1724
17,19,74,3182,1131,941
92,-15,-2,-4350,-2141,-1975
32,95,-32,5457,7639,3701
119,-42,-96,-2505,1755,-2126
-71,21,-69,-3538,6852,-1431
-2,-84,5,-9064,4948,-4294
11,-7,-115,-10003,1017,-2033
50,-123,56,-11056,-5873,-414
119,54,-63,-9311,-8264,-601
59,-95,-13,4633,258,2091
25,126,-4,1081,-2417,-1547
79,3,-37,3373,-115,-1444
2,37,-117,13357,6780,3446
-7,79,25,3710,-229,-920
-34,73,-27,1050,5107,-2202
87,-47,33,-7887,546,-3168
25,-51,127,-11845,-8137,-2040
-37,-65,-118,-13004,-5684,-8582
-111,-69,-2,12851,3271,6764
126,-103,-103,5743,377,1772
-39,75,-44,2101,-3170,-3921
113,95,50,12294,7758,5236
-91,-37,-99,-8650,-3805,-5682
-50,-101,-117,797,4578,-2164
113,-44,-20,-2754,3684,-1350
-37,-112,77,-12926,-9473,-2160
-27,-108,-30,-14890,-6506,-7853
-60,-27,96,15139,4783,7683
98,97,72,8634,1499,2185
19,93,127,-5151,-8944,-8630
-18,5,-106,5941,-1722,-8146
-119,88,28,10990,1555,-1115
11,-34,72,9363,2224,5083
98,-55,123,-3348,-7056,-707
-39,28,-128,2612,-578,1283
-21,-85,-113,-376,-1547,-719
51,84,44,-1655,-2487,-587
83,123,3,-684,-1189,-527
115,-41,-113,951,1129,615
-120,-31,-14,-1865,-1065,-764
-99,55,103,-1023,-20,50
-94,97,57,-425,527,171
-39,34,94,5586,9608,4848
-92,-27,116,-11774,2377,-4373
55,-99,-71,-2850,7750,1981
15,41,70,-7977,4432,-175
-92,-56,-21,-13291,-7350,-486
-19,-46,-26,-13739,-6368,-5105
-90,-73,-81,9656,3615,9070
121,-42,73,-1858,-4153,-4108
47,-34,15,2973,-387,-1514
90,97,-82,9847,3311,1206
-112,-32,-64,13594,18698,9377
-70,16,10,-8206,-5750,-7985
-45,-108,35,-5122,2657,-2170
-8,65,110,-10344,-5983,-1024
43,-84,121,-22165,-9801,-10111
75,39,-100,19783,6318,9209
12,-67,-12,698,-1905,-764
20,119,-113,-907,-3440,-4743
20,39,25,11298,5007,2965
56,126,-55,13041,2706,-1642
-67,-70,-89,-2829,3636,-1182
-49,-62,-32,-5408,1603,-2023
-65,96,114,-10660,-7840,-2353
-67,82,-12,-13629,-5521,-8754
79,-95,82,11633,4600,6755
61,-73,-41,5453,1178,572
69,28,16,-720,-4527,-5175
41,10,79,6983,-1222,-4192
-63,-112,-126,6942,-815,-4153
-119,-126,83,8478,-5420,-2161
111,-2,83,5714,564,4273
51,127,-107,-419,-4798,-987
90,-40,-56,1079,-2517,-870
-88,-68,58,-1046,-136,-406
104,-100,-120,-657,133,-145
89,-128,54,-1848,-1209,-695
-106,-18,-78,-622,808,564
-118,25,-97,-826,915,327
-114,92,-97,-2659,-511,-607
-61,-117,42,-1347,336,229
-34,89,-65,2740,6671,3393
12,17,123,-8989,-1716,-4525
-12,-110,116,-4527,5193,-2872
-19,14,-64,-5789,6851,-2410
-63,77,79,-7467,5165,-1756
-88,5,76,-15875,-7306,-834
89,28,-64,-19872,-6280,-5911
84,-124,-64,16432,4991,10734
43,54,58,-7034,-5390,-6398
42,89,-109,941,-2543,-3923
-49,54,62,11853,5435,3931
-18,41,-47,12109,14655,3968
-75,-58,1,-8990,-5955,-5936
-1,-55,-5,-1082,3928,-3751
15,123,57,-5080,2761,-3024
97,-65,21,-21660,-19759,-4424
-9,-48,109,7961,-1484,-7804
46,36,125,11712,9367,15558
65,42,114,-3538,-4267,-4928
107,-8,28,2555,-1331,-1878
46,-38,95,12748,7496,4058
12,-17,-57,5046,549,-1127
71,-54,117,-1096,2583,-2625
-42,41,-99,-4121,1019,-2332
3,12,-29,-9401,-7473,-1170
-128,-58,0,-10503,-4582,-4537
-1,47,-97,13000,3217,3820
30,-128,41,6793,-834,263
29,59,122,-141,-6631,-5939
17,105,45,8568,-2443,-4073
-117,-28,-100,8353,-1497,736
93,-45,111,6044,-5444,2619
-54,-80,-76,1995,-5646,304
53,-103,1,3335,-1149,833
120,-15,-56,1775,1029,-291
61,-60,112,-705,1121,-180
23,-85,-71,-4161,-1108,-536
45,-73,-75,-1307,-178,315
50,-9,102,1008,1667,857
97,31,-67,-1352,383,-365
-78,115,70,6640,9228,4545
22,-78,-63,-9684,-2824,-4965
-17,3,120,-4658,5321,-2820
-6,-46,-71,-4048,6256,-3436
-99,64,79,-7529,4219,-2470
58,-85,-48,-9577,-1420,-1458
-81,5,86,-17401,-12757,-3062
-13,-105,63,3463,-1914,452
-33,116,92,8466,2802,5662
108,64,-80,-1341,-3061,-3059
44,-124,-24,9105,5237,3676
44,-6,2,20365,9211,5949
-91,-2,38,-6203,-222,-4995
123,1,25,-6778,875,-3374
-1,119,89,-11291,-7189,-1708
-103,103,-102,-14868,-5917,-7445
120,-61,-90,12307,3285,6910
102,127,27,5789,665,2161
-93,94,-45,723,-3542,-3333
79,-119,104,9147,4852,618
68,70,107,9714,1658,423
-102,77,-119,-2227,2637,-3182
41,43,-86,-2644,3126,-1963
14,100,85,-5878,-1748,-1208
37,-95,88,-16880,-12381,-4994
-50,74,-53,9951,1138,-736
-127,-14,49,11700,4772,7276
23,-54,6,-3516,-5231,-6707
-46,100,63,570,-5800,-7842
-121,123,70,11944,2405,-2990
-96,-91,57,8517,-380,2201
-34,54,96,6090,-2104,3798
-69,46,-116,2758,-4923,385
112,45,-38,2392,-2706,717
32,-60,123,-1094,-888,-1358
80,-69,-31,-2221,-315,-1224
-105,-109,32,-2986,-819,-523
-113,-29,103,647,1881,996
112,-20,-61,-1254,128,-149
-90,30,97,-1571,-242,-265
35,-123,-119,-4544,5399,-2246
-121,-74,-96,-7213,3822,-4022
-6,51,-13,-7388,4542,-2680
-9,-11,107,-10997,-1954,-1411
-33,1,61,-15352,-8651,-720
-112,35,-101,1187,-1284,2216
59,109,44,3289,963,4183
-71,-42,38,-3055,-3617,-3465
1,19,-5,1838,-866,-1607
71,-125,-2,4260,379,-3135
111,105,-22,21171,13563,10963
-76,-95,-31,-18761,-6385,-8053
-15,-5,-53,1961,4724,-636
-71,90,114,-9823,-5381,-2331
-61,25,40,-16622,-8986,-5538
84,38,47,9771,2088,3523
94,60,84,6699,2164,3751
-25,30,14,-5123,-5298,-4671
7,85,7,6146,609,-517
-74,38,119,10781,6337,4064
-69,-108,-117,-5148,-3127,-4209
27,-17,87,1250,3731,-2010
-85,66,121,-2115,3219,-1307
36,126,-49,-8628,-4748,-1541
-80,59,-16,-13570,-7128,-5169
-114,-90,-102,8063,2688,3426
118,53,-25,9931,4542,5500
35,83,78,-1707,-3794,-2821
5,-19,-114,2963,-3291,-2514
13,-42,95,8070,-1544,-2433
-59,127,115,6343,-2330,173
-75,-26,33,7902,-2929,3585
-81,111,107,60,-6665,-1255
0,83,-112,1114,-3689,244
-51,7,-73,1626,-3052,-78
-91,-15,107,-847,-2072,-897
-95,-61,-17,-1745,-868,-1107
-73,-83,81,-3327,-1360,-1080
105,8,84,-907,-936,223
31,58,28,-928,-745,-192
13,91,-118,6401,7183,4528
-79,-65,-78,-11247,-850,-6014
-96,-101,88,-832,8026,-49
-104,61,-124,-6545,5314,-3763
91,-55,-35,-6197,5268,-2629
110,100,-118,-8324,2827,-1594
-14,-40,-111,-16227,-8945,-2018
22,0,-26,-14802,-7670,-2155
-38,67,82,15439,5357,9166
-95,15,-20,-3664,-4648,-4082
10,65,117,-411,-3668,-4413
52,125,-51,14641,7121,5739
50,87,-57,8976,-1431,-427
-37,92,-55,164,3591,-2678
82,-71,-6,-3666,3085,-3601
-39,22,20,-8413,-1576,-2362
78,54,-102,-18995,-14869,-6249
-78,-27,-120,9798,-517,-2189
-43,64,125,9054,7269,8510
-65,91,-91,253,-3723,-3190
-78,93,-122,5901,-186,52
92,115,-26,17607,4646,5332
-120,-58,119,-1778,1503,-4480
51,109,-127,-2102,3438,-2444
96,-26,-64,-2640,2605,-1195
-90,-36,-60,-9051,-5617,-1228
-7,31,101,-10858,-7010,-4904
110,49,-19,6386,2061,2569
76,73,71,9094,1024,1825
119,2,124,-1316,-5314,-4436
69,-16,108,7134,-3429,-2255
115,103,-23,13208,1800,-439
-29,42,112,8150,-4976,4702
-108,72,-116,-298,-7546,-1016
-102,-53,-68,7117,-1988,2822
-124,-118,113,-34,-3739,724
81,-6,-55,-871,693,-1371
124,-80,29,-3074,1410,-967
-113,-39,0,-2774,1036,806
54,-7,-127,615,1484,818
-3,-27,-88,7559,9847,2398
-46,-19,-69,-11596,-1317,-8845
7,-63,-90,-6088,3835,-4205
-13,50,17,-5855,4336,-2542
-66,5,-100,-11190,783,-2726
49,-30,-50,-15563,-10229,-1871
-121,-47,-57,-9882,-6237,-4244
26,24,120,12055,3044,6350
-95,-123,-9,1322,-1854,-467
-125,-35,-74,962,-1127,-3696
-33,101,12,11085,4892,-74
-64,13,-90,22248,6223,4414
101,-35,-81,-5532,2547,-3958
-55,79,-23,-4079,3500,-3228
-36,-81,62,-14392,-8067,-5011
110,20,54,-18806,-4547,-9813
-120,107,-119,20746,8109,14149
-115,2,120,-363,-4502,-3266
-37,10,32,-575,-2891,-3176
-101,90,38,10026,1532,-316
-114,-87,126,18789,5615,7011
116,82,92,-3289,1355,-4606
70,70,125,-3185,2946,-3439
27,-110,-49,-5264,1922,-2945
-64,83,-15,-14716,-10255,-1878
-76,-30,-120,-7983,-1491,-3239
-46,-94,20,14556,5090,10134
-6,56,28,2645,-1950,-657
21,53,72,-1822,-5820,-3914
114,30,82,6767,-2174,-2616
-85,-95,-36,8463,-2344,-2516
124,32,-56,10596,290,2130
116,1,-80,-1197,-8685,1515
108,1,-110,4042,-2784,1375
-58,120,4,3179,-2024,1510
53,-12,-2,-626,-1712,-579
94,-75,87,-2751,-101,-584
88,-46,72,-3013,-220,-1
50,25,-109,-1381,526,-126
81,70,64,-2064,-631,-283
45,-11,105,5719,8510,3035
-31,3,-67,-9791,-2050,-6213
-67,57,-90,-4087,5049,-2844
-82,122,-18,-6205,4659,-3051
-56,115,106,-7359,4151,-3353
-90,-60,8,-11352,-3892,-989
-67,-16,85,-18032,-10709,-3007
2,95,125,5174,-4034,-422
23,64,42,7889,5787,8189
17,-103,-71,-6508,-6898,-7444
-79,23,-7,7230,1743,94
28,-3,-35,18557,13245,10376
-70,-121,32,-16889,-7004,-8541
-65,-66,-4,5864,6062,-756
-126,29,34,-6456,1397,-2222
-27,-40,12,-19295,-13748,-5744
-5,39,-43,1204,-3782,-4991
-58,93,125,9524,5865,9613
34,-78,-127,-4132,-5509,-4725
90,38,-36,7099,409,-97
-119,-40,-5,14942,5681,4894
-73,-92,-48,-3780,-3396,-2879
-48,39,-97,4202,5009,-1984
88,-8,-43,-3726,2129,-3593
-78,94,-54,-8999,-4867,-2855
-106,15,55,-13993,-8696,-5308
-116,-67,9,8912,3325,3326
95,126,-66,7222,3379,4927
-2,-121,-40,-2551,-3644,-4425
47,117,-96,4406,-2052,-2847
65,-77,-86,6428,-4279,-2796
7,-68,-91,12591,-1298,-4544
-14,85,31,10691,2263,8569
14,113,-112,-3822,-12422,-1544
-11,-42,-40,7305,843,3452
-8,20,12,-3839,-2868,-1667
3,-32,99,-2393,-367,-276
-17,-79,118,-3144,-1890,-1453
66,2,-94,511,1346,407
100,31,-60,-1325,439,28
-46,-31,-109,7446,9897,3952
-49,-97,-84,-9424,-2266,-4209
84,-53,118,-5798,4305,-2284
66,31,-70,-7411,4999,-2195
63,70,55,-6338,5306,-668
21,108,-15,-11048,-3152,-992
-104,33,77,-18558,-12892,-3200
4,-3,-33,8066,482,1944
64,-5,99,4577,1949,4058
-26,-41,-64,-1847,-3623,-4501
48,33,-26,4780,1199,-1044
-66,-84,-82,16366,10669,7476
-45,-75,-24,-13586,-5623,-6648
-25,-28,-29,2296,4913,-1423
-40,48,-42,-6570,-604,-843
121,-4,35,-15987,-12134,-4277
61,125,-69,-2061,-3768,-5399
-53,-45,36,11999,4531,8257
44,-112,-58,-335,-2780,-2034
-4,86,14,1053,-2736,-2856
62,124,-25,16256,9190,4000
19,57,87,-8073,-4383,-3384
-107,123,106,3293,3827,-3428
-106,79,-108,-770,4636,-2158
-126,61,-66,-8077,-1489,-1917
80,-17,55,-16870,-12297,-5457
64,-46,-36,7198,-100,393
-43,41,-87,11906,4693,6884
15,57,11,-808,-3449,-3488
-18,-97,36,-213,-4963,-6040
40,-63,42,9271,-802,-4519
0,30,11,10851,71,-922
-46,-45,109,9227,-3287,4708
-96,79,-62,-485,-6495,-131
59,-118,-10,3484,-1923,1810
123,15,28,2139,-1380,510
29,-64,-65,-2233,-530,-1648
113,-101,-37,-4331,-243,-1380
-116,-94,-13,-3437,-777,-223
104,-7,-17,1867,2362,1367
-87,66,21,5994,5659,2744
-85,56,-77,-9243,-4844,-2855
21,115,77,-3791,5071,-723
-93,-11,81,-5525,6675,-2454
-61,-104,-77,-7617,4454,-2484
124,-57,15,-12574,-2081,-1414
18,25,-59,-17544,-9864,-189
-120,-55,-46,5571,-947,3782
-93,63,-78,2801,-907,1708
-69,-63,-8,-347,-3169,-3084
70,14,44,5901,631,30
-27,-109,-108,15027,9443,2327
0,29,-118,-8524,-3929,-2755
-93,46,-90,-1925,4138,-3932
-102,22,-12,-5239,3714,-2592
13,-1,-23,-15641,-9490,-2298
110,-37,66,-17824,-4721,-9536
76,-38,47,19053,5460,10523
61,65,-43,-1273,-2536,-860
0,-37,89,-2256,-3338,-4845
-59,-51,39,11204,4425,1642
106,38,-5,18282,4519,7234
-75,-90,-103,-4476,2561,-5214
-120,-17,-24,-3764,2469,-3239
58,93,0,-8367,-4936,-2214
64,-119,-18,-13231,-9935,-5969
7,67,-69,8125,3196,6005
-125,-17,120,5489,2461,2524
121,30,-78,-146,-3684,-3960
85,-42,41,5201,-2038,-2961
48,-119,58,7667,-3735,-3744
112,-10,22,12777,-3628,-2349
96,40,16,13989,3308,6505
13,-5,56,-7327,-12790,-858
114,46,-11,4926,1959,2588
-72,-8,82,1362,323,-434
3,-98,-61,-3528,-1017,-2258
-122,86,-84,-5470,-2938,-1649
-116,-28,-15,739,880,812
114,-13,79,-33,647,204
40,-105,118,11219,12270,6547
-66,34,-50,-13703,-1699,-8688
-62,4,-72,-3033,6015,-3382
64,-71,15,-5935,4992,-5121
87,102,-118,-8690,3244,-3405
-78,108,-61,-12051,-5181,-2233
-119,-6,-38,-14143,-9831,-3309
-125,5,-52,4386,436,4548
14,-35,-109,3729,-2205,-2952
121,102,-92,1437,-1074,-1041
22,-87,99,7700,2136,395
-31,-73,-50,17147,10575,6828
-64,79,-16,-11905,-4856,-5855
-60,-47,-8,-1108,4089,-1803
102,83,-25,-9824,-4020,-3340
-41,52,-77,-23057,-13146,-7313
119,-33,-116,17847,5414,6939
-41,-10,-68,5102,764,2690
123,108,-66,-5156,-5473,-6867
-49,-47,20,12663,5446,4786
5,-58,-106,14914,1207,1555
-62,-114,-89,-4221,1958,-3883
-124,-21,-49,-2445,2879,-3054
-62,89,56,-8716,-3803,-2756
-2,-76,103,-15776,-11235,-4970
105,14,-98,7166,1384,1266
-90,-32,59,8732,3401,6125
29,21,20,-4252,-4905,-5132
-36,-15,-43,5893,-934,-4471
11,-119,1,8971,-2093,-6137
55,109,109,9220,-761,609
48,-46,100,13798,-2702,6676
86,-60,-59,-1033,-8088,-425
79,12,7,4516,788,3238
12,34,61,-1597,-2096,-641
34,-59,92,-617,443,-514
58,-61,-51,-3177,-446,-540
70,-23,25,-2659,-367,-606
100,3,-122,-585,792,53
-128,11,98,-510,535,111
-30,23,-36,8999,6111,6762
-80,15,-114,-9805,-2542,-4511
94,-97,79,-5360,4710,-2116
-14,69,96,-3826,6766,-1237
-123,109,-79,-7293,3997,-2717
-86,-112,45,-9492,1267,-1135
-33,-68,-51,-17977,-10566,342
-10,100,86,-4922,-2808,-1319
1,-25,112,9561,3089,7843
-47,48,-66,-5487,-4456,-4576
57,61,82,3473,16,-1346
84,37,126,11471,6502,2865
70,-123,-21,18550,3089,2835
-62,53,-59,-8127,1168,-5061
23,-26,-11,-5410,688,-2542
4,110,-19,-12820,-7743,-1786
119,92,86,-10967,-4195,-6150
-87,-66,-37,12456,3789,8130
57,77,122,887,-2363,-993
-84,2,-108,-312,-1750,-4314
-122,6,-49,7935,2650,-374
115,-28,52,16430,16485,7389
-94,33,-104,-9943,-3291,-6965
-107,23,-66,-3730,2465,-1598
56,-118,-22,-12325,-7873,-1799
-104,-76,34,-13185,-4239,-6285
-22,119,127,15733,3756,8643
84,-51,-31,5814,689,2107
19,52,30,-3114,-5065,-6134
22,-29,-42,5225,-946,-4267
77,95,62,6447,-3413,-5943
76,-70,59,8840,-612,-1091
-89,-124,66,10672,-3108,1086
-62,-10,-50,4808,-3354,2245
63,120,58,5973,55,4613
121,120,-105,-1992,-4246,-1716
40,-80,117,-2288,348,-2289
-126,-63,-108,-1309,2692,714
31,-54,115,-3126,-481,-839
72,-39,-127,-1555,-222,-678
-31,-50,-110,4733,6423,3100
-29,-122,-125,-12573,-1860,-4215
77,-60,82,-1776,7779,722
78,38,-78,-8415,5931,-1910
75,54,70,-8381,3972,-1544
-113,35,-11,-14617,-6394,327
39,-72,52,-9871,-8763,-3187
-92,86,-127,10610,4675,9142
-117,-65,59,-4189,-4015,-4152
21,-49,117,3527,773,-1061
3,56,-69,6529,1813,-1010
89,23,-64,17976,18112,7736
-81,-74,-1,-9320,-4895,-6336
-28,-8,19,-5022,1593,-1613
-118,-124,-111,-14604,-9569,-3264
66,-109,-72,-11665,-2711,-9039
-56,-118,-76,16099,5589,10951
-55,-36,96,791,-1409,-1044
-115,98,-45,2485,-1060,-1750
7,-1,80,10723,7384,3344
-82,34,-60,-6181,-1873,-4150
67,25,-70,-1701,3633,-1729
-8,80,71,-6729,-3823,-1455
60,101,30,-15599,-9728,-4456
53,-98,-23,4639,-1532,-1093
-91,109,-15,11620,4463,6638
16,112,-3,221,-859,-2749
-20,-70,-38,1528,-4084,-6040
59,-105,-29,4675,-2987,-6279
-24,-14,-34,9145,-1788,-3101
-50,8,-43,12643,1829,1984
0,67,-100,-2573,-7813,74
85,49,-74,4814,-2078,837
-20,-69,-15,141,-801,96
69,-117,42,-2404,-207,-358
78,-77,78,-2508,-982,58
69,-13,-50,-1656,-977,-461
-123,62,63,171,937,398
109,48,-127,-1586,-744,-275
111,87,30,-749,-18,-74
126,49,-49,5137,4421,1867
96,90,-128,-7424,-1791,-3447
58,-103,95,-1457,6243,-1223
-8,104,-110,-7041,5747,-3029
-22,127,-8,-7973,5242,-2640
31,82,-98,-11607,-203,-943
52,123,-64,-17648,-12310,-2337
-13,11,81,5860,172,3388
108,123,3,3891,1437,2522
20,-77,14,1718,-1987,-2929
31,28,-43,13380,7604,4813
-17,108,37,5665,-1656,-3524
-90,69,-39,-79,4611,-283
-79,13,22,-4611,2942,-1733
-106,120,-56,-11547,-7027,-3357
-117,31,41,-26309,-5539,-11332
5,-56,11,24139,4791,6962
-27,124,104,3358,417,2917
-85,24,-16,-873,-4038,-4165
87,125,18,12147,6496,4522
-65,10,-35,-2997,-1750,-4901
-5,47,-99,540,3916,-2381
-56,26,-77,-3964,1962,-1613
-61,-117,112,-11615,-8560,-2145
-58,16,-29,-10903,-4990,-5279
-19,127,-23,11117,3316,7881
55,-114,110,5885,1678,2554
16,-5,-14,-1952,-5306,-5928
24,12,-79,5438,-1305,-3423
50,50,1,6896,-4317,-5759
14,-42,67,11903,126,-341
-67,9,92,9546,-6736,4034
-32,-100,-66,-476,-5378,-991
-85,-107,-33,1471,-592,1088
111,4,-60,1439,-197,64
96,-98,119,-3825,-778,-2167
-81,-106,94,-4024,-1138,-515
99,-25,-6,1334,1660,625
100,-12,118,-153,444,63
125,31,89,-862,251,-128
-66,-30,103,6028,6638,3563
37,-21,92,-10194,2828,-3520
-29,-68,-100,-5898,4964,-2203
63,92,15,-5578,4418,211
-26,-78,-87,-12970,-3287,267
37,-29,-128,-14545,-8236,-3552
27,72,-74,9542,2729,7186
83,49,-19,1293,-481,990
-75,126,77,-1633,-3069,-4553
109,87,-31,5603,2552,409
115,105,-60,10120,6814,3710
-3,49,-38,-8039,-1458,-4350
-22,122,-44,1805,4879,-95
2,79,-85,-9090,-5687,-1985
7,-21,-41,-19544,-9418,-6829
-59,87,44,14192,1372,3052
90,38,-94,7078,2849,5043
-54,-77,-106,-4620,-4738,-5677
-30,-61,55,4125,-67,-1584
-101,-2,44,13675,12834,7064
-84,106,110,-12875,-5266,-7299
3,43,-100,-820,4314,-853
-86,81,-12,-6049,-2929,168
-127,115,-22,-14472,-7984,-4407
-110,122,12,2918,-1210,12
122,47,-76,9515,3683,6360
43,-107,-61,-3942,-5138,-4552
37,110,-73,4182,-1725,-3682
54,-122,81,5334,-3200,-6765
-14,100,23,8422,-375,-4336
-90,-99,73,6413,-3976,-1249
-110,87,112,3501,-4845,-2207
-126,-105,-85,5957,-786,1020
39,-95,-1,602,-472,-189
-80,122,114,-1748,64,-566
-126,112,91,-4157,-1578,-779
125,-56,98,188,804,619
122,9,127,-308,839,693
127,47,121,-2164,-658,-757
-88,111,-21,-690,594,495
-32,-6,109,8449,12348,5593
-86,-14,-87,-14898,-5070,-7196
97,66,112,-2354,8490,-730
-99,65,-54,-6040,6116,-2401
-39,75,-122,-12213,585,-379
8,-30,22,-14734,-12814,-3940
-122,47,-61,-5074,-4698,1094
28,22,71,8248,4773,10564
-13,84,27,-5210,2017,-5051
-101,-13,-15,-3000,2998,-953
53,86,66,-15969,-10422,-3798
5,-97,47,-11594,-3956,-8540
-118,96,116,16763,6551,10848
-20,-70,-110,-692,-2274,-1796
-120,-69,-121,652,-2463,-4309
-65,14,-119,11886,8752,3423
-1,69,-79,-5314,-2408,-3430
-124,37,-107,889,4763,-1546
96,35,-95,-7465,54,-2722
58,-119,-55,-16493,-12722,-3754
77,124,-38,5746,-694,-866
-117,104,102,9468,4953,7250
0,-38,-47,-1575,-2576,-3338
15,-106,48,2815,-1875,-3866
21,-107,62,3554,-1989,-4934
-109,-56,28,4956,-3229,-6009
102,-4,-84,10357,3186,-542
-50,87,85,823,-5951,224
-128,-37,90,1612,-1298,-487
6,28,92,-119,-260,-736
-72,78,35,-1804,-1180,-988
-123,-66,80,-5296,-4458,-2446
105,62,9,-188,-1174,-823
-87,114,8,2850,2239,1935
105,45,13,-1750,-1764,-1017
-83,-112,67,1150,1045,962
-108,-126,-81,-1364,-903,-658
-67,-107,51,336,503,304
-88,-126,110,-571,-569,-384
-46,-126,93,-371,-147,-125
-124,-127,72,9350,11425,5799
-99,72,56,-12363,-2618,-6895
63,70,-49,-1048,7397,-3506
65,-83,42,-6989,4578,-5564
-88,3,-91,-10427,-533,-1628
-8,116,-46,-13220,-8558,-1675
-49,116,121,-10677,-7618,-1674
-9,-96,-97,9652,3323,6811
-50,-127,-7,3003,-3224,-1526
65,102,104,-201,-2801,-2640
-30,116,-103,17907,9343,7270
-19,-92,40,-12070,-5678,-5246
-15,32,-59,5797,5269,-2602
-86,114,35,-5281,2922,-2013
-123,67,-67,-14919,-9796,-3454
75,-3,95,-15699,-4208,-9584
127,111,-122,15425,4407,7232
98,-1,111,2463,-2439,-707
32,-122,-9,1183,-4043,-4182
-85,-84,60,20632,10403,7041
-29,12,-103,-15826,-6574,-5604
-82,-106,91,4957,5127,-4099
-46,-108,-107,-1563,3934,-2845
-59,39,-97,-8571,-1228,-1918
-73,25,116,-15296,-12544,-3185
24,38,-91,6174,-1295,-2079
-65,41,107,9775,4647,7753
80,-9,-14,-1771,-5361,-5031
57,-103,-79,3044,-5286,-6991
-65,35,-128,9147,-731,-4309
-99,-79,5,9982,1068,1041
121,30,-128,6793,-3917,5606
-51,42,-59,244,-5196,-737
-112,113,-12,5698,1520,2049
-5,-57,58,-2976,-3224,-2335
118,-84,-70,-3462,-380,-1435
-57,-117,-45,-1969,633,127
-91,-46,94,430,1720,978
94,-9,-69,-2055,-1007,-770
-105,40,53,-1760,-862,-585
-110,107,63,7245,2818,168
-61,115,-107,-6494,4684,-2392
124,74,-88,-6441,5085,-3946
-72,-2,7,-8923,5374,-3952
-14,3,-96,-15447,-7559,-1930
111,-29,-24,-12951,-9889,-3251
-72,-95,-106,9018,3826,9693
-102,-12,-47,-2044,-3637,-2457
-4,73,-109,1708,-548,-715
26,52,-26,7864,2038,38
109,4,-96,15631,11515,5650
-88,125,-37,-10124,-4652,-5753
4,-126,-36,-3408,4065,-2249
127,69,-20,-9900,-5055,-2823
0,75,-120,-26997,-7990,-9320
5,-66,-68,23032,3594,6049
40,-7,9,2144,-440,2226
-81,-97,-115,-2505,-4221,-6219
-24,107,-83,13328,6236,2979
37,8,-64,6259,174,-4599
53,120,-110,-714,5290,-1331
6,-21,-46,-5252,1865,-2178
-15,121,-106,-13192,-8782,-1914
-27,55,-100,-9171,-4325,-5876
-10,-42,-44,10740,3151,8590
17,12,66,1067,-2052,-1374
88,58,-127,-737,-3857,-5107
108,32,93,7335,51,-2297
-69,35,71,4195,-2948,-5670
24,76,7,9517,1020,-3048
60,27,65,10247,-3971,2617
-73,-37,124,637,-6551,-1668
-118,15,-54,3793,-649,1053
-99,-77,-26,-891,-1087,-333
125,-97,4,-3198,-736,-1426
-73,-82,63,-4962,-2168,-657
90,62,-2,-1055,82,326
104,78,42,-285,719,498
116,91,68,-1286,-366,-168
-111,-109,-2,-270,255,450
13,34,53,3093,5757,1827
-66,107,-75,-218,3746,-605
-113,78,115,-5482,7098,-1041
-120,-111,-94,-9340,5044,-2759
-13,97,6,-7988,5187,-2275
-65,-17,-49,-13868,-7564,-39
-17,-60,-86,-15011,-9887,-4895
-70,32,35,13034,4429,8404
95,-91,21,440,-2184,-1998
-21,121,16,387,-1317,-2690
69,101,-78,9811,3869,1269
-42,26,-53,13928,1994,-325
24,52,-100,-451,3891,-1069
-86,-111,-43,-3912,2845,-2527
-109,39,-98,-14941,-8926,-3143
98,54,-82,-22811,-4955,-9445
111,37,-42,22603,5109,9891
-33,118,-77,4858,864,2559
116,-85,-31,-2891,-5123,-3851
60,-110,-39,11202,6146,2106
-10,-87,-120,-5453,-2162,-4615
86,-89,108,-1869,3513,-2365
20,-13,-89,-3836,2092,-947
-67,-91,-104,-13293,-9109,-2259
-67,-83,-105,-9820,-3341,-4908
-89,-1,-73,11494,4043,7816
13,-126,16,5563,-185,426
3,105,-28,-1232,-4864,-5752
6,-83,35,5079,-1818,-6261
-74,54,56,5980,-1883,-3114
101,80,-10,10331,-2549,-283
-79,-87,95,5355,-4803,1346
95,-25,-73,2383,-3728,1172
-11,-102,11,5064,-357,1536
84,-48,35,-1523,-646,-1610
-127,-82,0,-2294,842,-719
116,-90,18,-4190,-1286,-1222
115,2,42,732,622,442
-128,1,97,-1070,-272,-301
-104,24,18,-964,-143,-162
-43,55,36,6821,4701,2730
-128,-14,-71,-10220,-2824,-2608
24,100,71,-1882,6283,-486
103,-43,75,-7497,4618,-3520
-45,18,-99,-8550,3644,-1221
124,-25,-41,-11041,-1908,-186
122,9,-47,-13786,-9050,587
-28,-40,-61,6168,1209,5629
-87,-33,-58,3559,-380,3701
-89,10,39,-4562,-5118,-4047
45,-106,77,3391,-486,482
-67,4,51,10831,4525,1160
90,-104,-38,12642,1858,-1011
-5,-59,-97,-2855,3523,-2205
83,-16,-30,-6963,2035,-2934
-97,-90,69,-15306,-11181,-2580
-11,-63,-49,-11029,-3087,-6780
78,53,105,16637,6266,9753
-25,-17,70,-2932,-2598,-2783
-119,-122,-22,2116,-2645,-3397
-82,68,105,15182,9506,5150
-63,-77,-87,-11477,-4833,-6172
-100,-43,124,189,4232,-3263
-27,53,-110,-4811,1821,-1370
-89,-68,49,-13425,-10921,-2569
122,-74,-5,-2635,-3158,-3244
-70,58,-27,11700,5304,8148
2,12,97,-121,-3132,-2508
15,106,2,1811,-2972,-3998
55,18,-59,6357,-2165,-3236
55,68,23,5522,-4660,-6070
78,-128,54,10411,1482,-204
2,-50,-75,7872,-3745,5039
-86,89,-57,-920,-3274,-391
10,-125,104,3728,1043,1769
19,12,-67,-438,-821,-465
75,-52,38,-2890,-2210,-1019
109,-104,55,-2123,-1014,-866
-127,-59,114,1583,2171,1032
100,-55,40,-2602,-1324,-912
-39,95,57,4131,4183,2464
-41,124,-82,-6730,-2341,-3715
52,8,74,-3960,6163,-1828
119,51,101,-7541,4291,-3256
93,47,-43,-8765,2461,-1180
41,-97,10,-12159,-2046,123
-15,-115,-16,-13233,-8563,407
112,34,117,4075,619,5246
-92,59,75,404,-1761,429
-95,28,-53,-583,-2473,-1644
-32,0,-119,1099,-1661,-2236
84,38,73,8127,2850,1233
-78,-19,108,14406,15107,5643
-122,37,-28,-11510,-5778,-7108
-2,-40,-34,-3796,3062,-1950
4,98,-118,-11641,-6325,-1849
110,-63,-86,-17512,-4978,-8649
68,-126,105,17248,5037,10180
-94,53,58,-614,-2489,-2470
-92,-38,5,2,-3069,-4063
-23,121,68,11183,4236,1060
102,-99,-117,18991,4260,4122
-39,-67,98,-5008,2590,-4361
95,19,-102,-6199,1421,-4074
-66,127,-117,-12622,-7709,-1601
-128,36,112,-13512,-4022,-6419
-45,125,-107,14101,3806,9657
-23,18,-108,1976,-2021,-808
-38,67,-62,-1601,-2778,-4795
30,-9,64,4134,-731,-4609
73,-22,15,5233,-3291,-6905
-37,-47,-70,8835,-1940,-3607
-101,91,-122,8107,-3964,-2268
56,104,-79,5819,-2617,1069
40,-121,20,1757,-1890,-187
13,-83,126,-183,263,-443
-86,-77,-20,-721,1275,162
112,-47,116,-1810,463,136
76,-54,-47,-2397,-1440,-580
101,19,38,1070,1206,596
78,127,69,8728,7423,3661
-21,60,-34,-14709,-2358,-3999
115,-90,84,-931,7108,-391
-77,-30,-115,-6864,4693,-2952
0,31,5,-6942,4652,-977
-109,111,-119,-10373,86,-893
-60,124,-28,-13981,-15612,-479
109,14,44,3950,-234,2023
11,-14,-37,3334,1213,3406
-68,50,-110,-5250,-5715,-6695
125,11,64,8029,860,-706
-64,-59,-104,19863,16592,11291
-33,57,-23,-17267,-8336,-8805
-13,-128,-72,2656,5908,-1287
52,-27,6,-4643,2264,-1927
-65,-99,88,-19422,-16032,-4884
-98,27,20,945,-4288,-7501
15,41,-17,10801,8463,14081
127,94,-42,-2249,-5768,-6238
-115,105,-11,7257,982,-1273
9,120,44,17076,17861,8943
-80,24,118,-9174,-6556,-9594
-49,61,127,-1025,4517,-2490
-53,64,-59,-2707,3070,-1580
-2,57,85,-12198,-8034,-1713
-64,-39,44,-14535,-5945,-4985
-103,22,-91,13281,3767,7292
57,44,40,4722,168,895
17,18,-85,-1333,-6013,-4896
61,-29,-98,6712,-2417,-2734
105,29,7,8855,-2576,-4092
-96,-75,-89,12737,91,134
-19,13,-104,-3284,-10623,-856
107,-125,101,5131,-1698,790
-81,96,-21,3332,-308,1768
-81,9,-6,546,-670,282
82,-85,65,-840,483,-515
79,-39,-69,-2023,732,-282
28,-5,113,-3064,-484,-963
115,-22,-34,-5442,-2462,-1625
61,-127,61,-7231,4858,-2248
51,84,87,-4873,6515,-1212
51,-89,-59,-7924,4250,-2296
-92,-25,89,-12905,-4209,401
-7,11,-39,-12143,-4033,-253
-70,10,81,-8291,-4381,3119
54,54,121,14190,2187,4495
-86,26,91,-4919,-4776,-4715
41,-36,-71,5686,530,-2457
90,9,-60,24393,15938,12310
-81,67,-65,-19342,-9194,-9724
-115,124,-83,1048,5165,-1773
-4,75,-33,-7730,269,-2067
-107,66,-120,-18806,-13578,-4140
-71,126,-69,4044,-3346,-4789
118,89,7,11155,5248,8571
-117,68,-90,-1093,-3384,-3885
-8,40,-73,900,-2278,-6154
-36,-101,-97,20274,19876,11588
-103,-18,59,-13948,-6575,-9409
15,-7,-111,-4344,3649,-2371
79,-85,125,-10386,-5844,-87
-60,113,-31,-17649,-8501,-7038
-65,-8,73,16240,4406,9554
60,-127,95,2336,238,1414
-39,77,50,-1373,-2742,-3999
75,109,-88,7248,16,-4152
-84,15,-68,4927,-1923,-6890
-43,-29,103,8101,585,-4325
-48,-116,50,8792,-4575,-141
19,-21,94,5219,-1220,1236
-61,83,-57,1417,-3953,360
49,-43,-122,738,-79,-1130
-47,-85,-5,-156,737,21
104,-128,-108,-4591,-3105,-1101
96,-65,-128,-762,-939,-620
-115,20,68,1586,1388,1406
107,-1,-96,-2816,-1358,-789
124,83,-39,675,1116,938
104,65,78,-1891,-718,-356
77,94,115,-6824,6127,-1150
45,125,-25,-7922,5151,-1734
-122,117,-111,-12054,59,24
-117,104,100,-13538,-15395,428
20,100,115,3791,-1564,1070
18,33,23,6222,1689,6162
-83,5,-8,-5941,-5199,-4589
-11,-65,-101,2643,9,-885
35,83,-51,2770,-420,-2788
-4,42,44,14315,8176,1023
-31,-66,-101,-6519,-3310,-2695
-123,68,-122,-831,6185,-4816
-56,-122,56,-11947,1033,-3122
-87,6,50,-26661,-19229,-5575
-114,-126,-15,21775,2581,914
67,-106,77,5670,4250,11076
-103,-93,-42,-9455,-6423,-7902
-3,-69,-59,3792,128,-2465
49,-77,96,7497,2410,-732
-18,126,-117,16375,16953,6842
-121,-72,98,-8634,-4279,-7213
116,2,-86,-2006,4158,-2348
102,-110,-75,-5405,526,-646
125,102,-92,-12087,-8329,-1748
98,88,82,-6947,-3414,-4058
-62,117,101,12151,4827,7393
97,-108,-108,2794,-933,266
-28,86,-71,-1639,-5229,-5931
-9,97,-122,7564,-2300,-4177
-18,70,94,8358,-1874,-2233
20,28,51,8346,-6025,-2038
127,-126,97,5572,-5405,-1646
38,-95,-30,3903,-1659,1653
36,-97,-64,2659,-389,615
-107,-10,-109,-171,-54,-783
-120,-89,-40,-1722,364,-136
102,-107,40,-27,1492,934
55,-62,10,-1380,534,188
110,-18,123,-4087,-1787,-677
-117,94,123,1546,2568,1470
33,-100,75,-8187,3587,-3597
-25,-128,88,-4530,7603,-1395
-39,-7,-82,-8381,3622,-2873
-60,35,6,-10441,158,-843
110,9,74,-15028,-10163,1139
-72,116,-93,966,-1307,1637
-101,-31,74,9011,616,5563
-55,8,-56,-7501,-5764,-5595
5,37,4,3037,-1462,-3016
109,-108,-68,14513,8782,2671
95,52,-35,-1282,-2721,-3022
63,104,-126,2079,5230,-2394
-25,-2,-61,-6583,1918,-2108
11,120,24,-11772,-7683,-229
-110,1,-31,-15517,-5801,-5856
69,121,-84,12779,2125,7006
-38,-57,118,4691,-666,1162
-122,69,84,-3444,-4194,-5186
111,45,7,5451,579,-3926
98,-69,-3,16150,17111,7446
-124,-109,76,-8109,-4409,-6441
-29,53,112,-3872,3270,-3376
-85,96,-71,-5652,2097,-1782
-119,-62,81,-19363,-13965,-3511
0,-77,-43,2064,-2691,-4070
-52,-39,-105,16139,6365,11708
3,-87,-31,-3637,-4058,-4050
20,48,13,21,-4037,-3983
53,-87,97,8882,-1503,-2221
-120,-34,8,7658,-4001,-3106
45,-88,-108,8758,-2480,-715
-109,117,-93,5352,-3028,3694
-104,-73,-44,-2645,-5640,-1613
65,-109,-5,3672,-1047,1147
-33,66,-106,3039,-192,1276
116,-87,-94,-1061,-1006,-1654
-78,-116,-108,257,1626,23
98,-103,83,536,2081,570
49,-117,105,-2430,-991,-517
90,-55,-60,-940,-444,-268
-105,-93,73,-8620,116,-3620
-3,-17,95,-5600,5395,-1635
-127,70,-69,-5362,5378,-1641
37,123,55,-8834,3436,-858
10,33,-14,-12951,-4241,-100
47,69,43,-15193,-10280,-2072
114,-53,103,9636,1862,6442
70,98,-126,132,-1252,-324
-77,-83,-36,-141,-2598,-3614
91,55,-100,6757,2195,1635
-9,73,5,12560,10311,2761
-87,-123,-45,-8889,-5172,-4255
-9,12,-56,-816,3768,-1852
43,96,14,-4848,2181,-753
37,-73,35,-16846,-11118,-3776
-46,81,-112,-7806,-4905,-8823
116,72,59,17756,7059,12477
-98,63,-58,-2127,-4322,-3832
-99,-109,-121,1695,-2381,-3279
-94,-113,2,12144,9160,5045
-40,-111,-125,-518,-3427,-4762
-75,-42,105,-216,3921,-2602
6,48,-82,-2672,3844,-950
53,122,103,-8724,-3659,-1748
21,-93,-40,-15433,-9923,-4586
7,78,-46,9784,2781,2492
70,-127,-69,11405,3679,6160
14,-14,-39,-2103,-5285,-5018
44,-66,-48,2302,-4276,-4075
68,90,85,9310,-2648,-4289
-80,-46,53,10688,657,3328
-111,-55,114,7438,-4117,4854
91,71,-94,729,-4210,525
-19,98,17,3897,-1883,2438
18,-117,76,-301,-2868,-947
113,-27,71,1211,1967,-196
57,-37,1,-772,2091,-295
28,-39,-110,-1646,674,-196
25,-4,42,-1533,29,-543
83,14,-24,-567,926,-484
-86,-3,83,-7271,1836,-3709
114,-121,90,-5530,3832,-3325
-43,-118,-108,-6122,4644,-1673
-48,-75,-8,-5479,5976,-1822
59,63,-65,-9953,2258,-1049
102,10,55,-17461,-15533,-1559
36,-95,30,-3417,-5610,-3391
-118,48,-107,10140,4538,8467
-91,-116,-56,-5557,-5382,-5576
38,115,-115,3036,599,-446
-109,-1,127,8515,2029,-555
-13,4,-28,12268,9703,3291
-83,18,-122,-8620,-4009,-4663
61,22,-74,-2730,4317,-1739
-82,-115,-18,-7374,-2068,-1729
100,70,-110,-19910,-13771,-5324
-100,-50,-111,12765,2072,918
-127,52,-128,7768,2771,6719
94,24,23,-3934,-4277,-5246
87,123,-49,7040,854,-799
-14,47,75,15661,13653,6775
96,-86,89,-8370,-6139,-7836
86,61,93,-1953,3804,-2531
-84,87,-86,-3987,2683,-1247
-95,32,-74,-13072,-9641,-1189
115,-45,-35,-7970,-3754,-4201
-113,-95,101,9096,2606,5992
-33,0,38,3450,-910,-283
-74,-115,117,732,-3355,-5042
-24,-64,10,4968,-2609,-4735
120,34,13,6834,-2092,-4560
97,-15,-118,10369,182,-139
42,16,126,5805,-6377,1118
-77,-66,-48,2770,-5878,-557
-115,-81,-60,1887,-1294,-185
-22,43,-81,1952,1258,346
79,-88,105,-90,512,-1195
105,-98,-34,-254,1525,152
88,-71,104,-1659,1361,186
110,-27,50,-3379,-222,-623
-41,-112,-7,16491,11687,5037
-59,-28,107,-11246,-5662,-4813
109,18,-116,-1700,4690,-2182
-22,-121,-21,-6932,1292,-1739
-115,111,-25,-20474,-16189,-3935
27,-66,-95,8787,-1418,-4175
33,-94,-16,12007,4550,9637
113,16,-72,-6388,-5513,-6247
-126,-53,-124,6050,286,-3142
52,124,47,1721,-2702,2636
-63,42,-117,-2980,-4265,-4113
-41,78,-22,6066,137,-2282
-47,-81,-124,3678,-3500,-6957
-69,-67,37,5582,-1136,-3535
98,88,-56,7837,-1635,-1597
-101,31,112,3246,-5090,-1540
114,-51,107,4374,-3263,-660
-80,69,72,5058,591,732
-36,-31,-68,1347,451,-377
-112,-106,113,-1935,-119,-846
96,-81,103,-1320,912,433
85,-77,40,-2698,-370,-297
125,20,106,-2816,-609,-313
121,84,-44,380,1298,699
113,88,28,-885,368,-110
-85,77,-31,-837,242,-141
-86,87,1,-165,451,183
-86,80,81,-1706,-751,-646
-63,100,11,-304,204,-103
-65,109,71,-1376,-770,-488
-60,125,21,-392,-141,-180
-55,124,52,-545,-307,-279
-66,125,57,-802,-521,-430
-59,121,21,-230,-67,-114
-58,125,69,-662,-436,-243
-45,-118,49,-235,-43,-40
-44,-105,62,-250,174,-31
-53,-127,97,-767,-201,-256
-40,125,45,14,288,84
3,-125,57,39,-134,307
95,-3,86,-8734,2610,-2590
-100,13,-98,-4085,6440,1309
85,109,50,-8281,3483,-250
-68,-118,-61,-9287,-2093,2065
19,-125,-26,-17645,-12255,-1379
-40,121,-102,14461,4124,5156
-80,-112,64,-270,-1382,730
-77,-128,46,-472,-2852,-4092
99,29,-77,6151,2557,1055
23,92,123,9814,6434,769
-114,-10,-24,2156,293,-3023
-104,6,-85,785,3135,-603
78,17,-30,-4654,1802,-122
77,85,-15,-10224,-6443,-1167
104,-111,-55,-15590,-7194,-6737
-5,31,-86,13961,2861,5121
57,30,99,5939,739,3060
-80,-126,-16,-3504,-4734,-4912
-128,85,71,13580,8656,2803
79,-124,-119,305,-2217,-4376
-104,102,115,-2899,3688,-2202
-45,41,-114,-4254,1587,-110
-35,-97,-4,-11585,-7449,-2167
-116,100,75,-11358,-4651,-5914
80,-121,-64,14084,4123,7786
59,82,121,922,-2605,-2615
69,-63,56,835,-3355,-5192
94,55,20,6461,-829,-4776
12,17,-81,7495,-1340,-3755
108,-98,67,9244,-2281,-1523
-119,127,103,2080,-6617,-1021
-49,25,32,1803,-2493,-1427
-123,2,-4,4989,1547,1496
-81,-106,-28,-1864,-1485,-1619
-16,126,123,-1852,647,-41
-49,-106,-50,-596,1663,976
-120,-57,-77,-1005,751,216
-102,-3,122,-2764,-1310,-445
-86,67,-55,86,785,423
-108,59,16,-831,-394,-331
-80,-99,118,4678,2633,3851
123,-88,-128,1968,3997,1787
30,82,81,-9927,3431,-1958
7,-82,116,-6608,5900,-123
2,55,-25,-14537,-2296,-719
-40,-67,42,-13678,-12616,853
-124,79,-113,8663,2596,8530
-91,-125,127,3737,846,4569
97,-48,-35,-4905,-5106,-4294
32,-43,-50,1182,-854,-1182
92,11,-37,6251,2521,-836
60,-104,87,26842,14309,10924
-61,-21,-67,-11207,-2315,-6979
67,106,-19,-6170,1641,-1589
118,71,10,-16964,-9935,-3256
-12,63,-11,-8768,-2682,-8389
82,-45,111,14525,5068,11264
22,-89,-65,-2235,-4089,-3629
49,-37,-63,-1067,-2707,-4476
105,32,48,11585,4996,875
-18,94,97,8332,265,487
21,95,50,2058,5221,-1927
37,-23,-104,-4999,4196,-4233
15,122,-85,-16199,-10183,-3210
124,-37,17,-21740,-1514,-11364
-89,-46,-73,24149,7857,16297
-38,124,104,-2671,-4652,-4600
111,-24,51,-1119,-5107,-4974
-89,49,-91,7796,-155,-1577
127,-14,125,5022,-2449,-5469
38,-100,-39,7329,-646,-1310
-26,67,70,7120,-4678,-1199
109,126,106,1981,-5366,-57
-86,59,100,2563,-2515,-157
65,-4,92,1643,-482,-205
-32,-89,91,-1055,-232,-1028
-49,-87,-127,-2762,319,-629
-38,-83,-45,-2265,499,-26
-69,-52,81,-1234,407,214
-92,17,38,284,1069,736
-120,58,75,8488,11202,5323
71,-57,-76,-11131,-4065,-6016
113,-29,117,-5417,5891,-2037
94,-28,-64,-5960,6272,-1013
28,-85,112,-10952,21,-1738
-12,-38,-43,-13158,-11683,-122
-48,-105,-109,-11500,-3125,414
-73,-32,-117,6393,617,3829
61,-90,17,-2056,-4769,-3902
-72,51,121,7484,3320,2925
-23,-5,-69,10957,7488,-39
44,121,-26,1475,-3676,-4265
-48,-81,-114,4648,5814,741
30,-6,-36,-5472,3609,-2686
-20,105,34,-10761,-6175,-2385
53,106,121,-26990,-7055,-9062
9,1,41,21510,5855,9692
-23,102,-72,1075,-1065,-245
-7,-26,-7,-985,-3990,-4815
-19,61,-92,11701,5988,-86
-27,-43,-128,20510,4400,4115
-24,115,122,-6127,2546,-4023
20,-5,-74,-6361,1321,-2991
28,126,-49,-10485,-7037,13
-3,-121,93,-7737,-3904,-4819
-79,55,-21,8539,3699,6929
-47,123,-66,3223,-1919,-1754
60,-125,9,1421,-4503,-5827
-108,49,16,7708,-768,-2714
-57,6,-12,7223,-4317,-4356
12,99,23,7027,-5411,-3218
-118,-51,94,3633,-3141,-790
122,-72,-85,179,-3095,-1252
-81,41,-63,5100,2239,-142
2,93,-121,3097,778,-1122
-46,31,-105,-2452,-729,-945
-41,85,-94,-2542,443,668
-99,-81,-18,-1328,1496,1113
-113,-17,-10,-1323,1186,662
-62,62,-34,-1879,1037,30
-1,-26,-17,732,8978,1624
6,-54,-78,-8813,-1269,-5353
120,112,95,-1052,3239,-1155
100,40,78,-6157,1766,-1443
-2,-123,-100,-5818,1794,184
-33,66,-5,-5404,2614,296
-92,-43,45,-11663,-4890,-1244
-76,-125,28,-16422,-11632,-3936
112,44,104,5526,-544,-854
-93,54,84,7128,839,3614
105,-119,-27,-3738,-4353,-4720
-126,-7,104,4409,1,-1407
-108,-77,-56,3146,2125,-768
-65,-5,65,11740,9227,5597
-98,-23,-47,29,864,-4467
68,12,-83,-1379,4301,-879
32,46,3,-10288,-3830,-4033
-107,-56,-38,-25695,-14292,-7943
26,-90,-17,20635,4965,7073
86,86,-88,4407,-407,4203
-10,-96,-105,-6660,-4346,-6291
-55,-1,-40,4325,306,-1426
122,66,-51,7923,4812,2363
-20,115,94,12340,11692,5094
-50,-33,-118,-10891,-3535,-7780
-1,66,14,-2058,1758,437
74,-65,-71,-18216,-10753,-6134
29,34,-33,1740,-4149,-4699
-19,85,-103,11214,5772,10533
-6,-94,38,-3021,-4004,-4704
35,121,66,3016,-165,-2665
-52,-89,121,5192,-286,-4892
81,97,90,6616,-840,-3879
-121,15,-126,9766,-798,-2594
75,-114,59,9058,-616,2611
-23,6,-95,-2320,-7171,186
42,16,-77,4420,-1903,889
-124,-44,-77,4090,32,762
93,120,-16,-2308,-2492,-1835
-110,112,6,-2246,-1159,-715
22,-91,66,-6785,5773,-1245
-95,-120,101,-7962,8492,-964
-63,-47,36,-11697,505,-1225
-12,-73,11,-12402,-10714,76
93,-79,100,-6996,-3276,901
-61,-13,54,11479,3817,7666
-122,98,-50,-7724,-6032,-4862
-93,-71,-108,6672,-134,-946
7,-1,114,9967,4133,1751
44,18,-114,10783,10314,4243
114,-108,-117,-3629,-2113,-5780
42,-27,-93,-4434,3619,-2457
-103,102,-55,-11781,-6584,-2652
-25,123,-13,-22140,-8899,-7074
99,-56,-73,24079,5659,10934
1,45,-119,2055,-305,1208
123,73,-71,-1431,-5067,-3590
84,-54,-109,10241,5570,-373
-8,-98,122,7833,981,-2346
-3,-40,50,-2694,2683,-2505
-19,-9,121,-3655,3426,-2358
21,-107,103,-9998,-4441,-1591
111,54,39,-15289,-10079,-3455
81,61,-40,9390,2371,2658
-65,45,-118,8564,3709,6298
63,-116,-6,-3242,-4949,-3177
-34,-106,-47,3049,-4211,-2107
-68,125,-88,8454,-2059,-4780
39,127,-100,7939,-2351,-495
-117,108,98,9229,-1571,2992
45,-113,-112,161,-9261,-617
4,32,86,6383,1604,2454
-120,-21,69,5657,887,2267
-4,115,-116,-5377,-5459,-3152
109,-106,42,-5250,-2642,-2223
-26,77,-127,1521,2512,1898
93,-63,-30,3660,4847,1980
111,-45,-17,-6215,-1577,-2194
-20,96,93,-4396,-928,-478
-60,105,-105,435,1789,721
-93,-106,103,6765,6568,4024
95,30,-80,-10331,-4058,-5828
80,112,98,-2929,4058,-2066
-121,75,108,-6169,3791,-2750
-101,104,-77,-6836,4708,-1928
-15,-8,87,-8404,2290,-1186
45,-93,54,-11210,-3092,-444
109,-104,-90,-14360,-8795,-76
-80,-59,69,8173,-797,526
8,47,-97,6045,390,4087
-77,-93,37,-5047,-4462,-5801
50,28,110,6094,1044,-189
-75,-100,-119,14521,7358,1871
48,-34,-63,-4293,-3371,-3246
15,21,-128,2870,4698,-1048
-43,-18,-55,-4116,2769,-1706
87,104,111,-9881,-6766,-1991
-77,-108,1,-19322,-7667,-5164
2,67,-49,13734,1489,3905
21,-29,-6,10345,985,4498
-16,0,-48,-2982,-4015,-4869
-67,4,106,9232,6179,565
109,-61,77,-8005,-5087,-6481
37,-122,68,-3744,2954,-2397
116,-103,126,-6827,1183,-547
-30,-52,-68,-12612,-9647,-977
119,-75,-26,332,-1348,395
30,107,19,9935,2220,5642
6,45,87,340,-2667,-1485
0,-125,41,2080,-2487,-3215
-18,-56,16,5720,-2241,-4544
-43,17,117,5468,-2520,-3599
25,55,-43,10557,-22,-971
43,-82,80,5235,-6080,1365
-90,-60,103,-2447,-7901,-3511
-13,90,-54,4878,-252,1426
61,-101,-82,1847,-1428,-202
-67,72,73,-1166,107,-1365
-53,111,92,-236,2223,659
110,-125,18,-1677,578,406
