AccX,AccY,AccZ,GyroX,GyroY,GyroZ
97,46,102,-4396,918,-5565
35,-13,122,-2644,1135,-4327
123,44,-57,-3632,1324,-3293
-28,107,-6,-578,796,-1554
6,-22,32,-2006,877,-291
-40,-46,104,2672,-1926,2198
91,16,-52,524,580,930
-128,-46,-105,292,-1119,-1663
-60,-6,52,-702,76,-934
-120,-26,-45,-711,-461,-167
-96,55,-96,157,-313,-844
-53,58,125,-66,-531,-767
-33,82,58,363,-681,-96
-70,97,82,344,-1098,852
-51,-89,33,-39,-71,1184
-12,24,66,-1394,-1820,2615
18,67,-91,556,-978,2055
-122,-114,-9,461,-909,2901
-110,-111,-19,1100,-539,1692
-64,34,-12,536,861,2458
-78,-10,96,1230,-250,2219
-82,-49,111,735,-87,2017
-114,-77,114,303,536,1413
120,-118,-128,465,153,1728
119,-62,115,117,42,791
67,-57,105,9,-227,-102
23,-106,-122,81,16,-785
-26,50,115,210,151,-954
-31,15,110,-182,42,-1153
-35,-54,118,-120,171,-1001
-27,-69,115,-414,170,-956
-35,-92,106,-268,-22,-854
-49,-66,115,-546,62,-901
-44,-69,123,-397,197,-753
-43,-53,117,-269,145,-654
-38,-28,116,-209,65,-688
-46,-19,121,-221,165,-640
-60,-12,119,-265,114,-533
-75,-7,121,-387,141,-343
-55,22,121,-563,115,-313
-48,-40,-60,-3580,1163,-5341
-69,63,-67,-1784,562,-4192
-123,-105,-80,-2415,1024,-3801
-11,-94,-124,-1256,474,-2459
71,-32,18,-1765,832,-1428
97,-39,58,-603,25,-871
-36,-77,108,639,-544,14
56,-27,-31,-1531,909,-521
-13,34,-98,1744,-659,811
3,108,-42,-804,148,954
56,-93,-12,-150,-451,492
49,126,14,-374,-347,-1210
-64,16,84,-579,10,-1541
-65,-43,58,-517,330,-1400
-99,-104,5,436,282,-771
-81,-42,-90,63,-1031,-1005
-85,-2,-117,-1056,-706,-650
98,-38,78,689,-1472,-1005
103,13,110,-748,-498,-335
-36,-49,88,-409,327,312
27,-95,61,865,-1288,1384
75,-101,40,1948,127,2873
-62,42,68,1120,-608,3388
126,125,27,970,1270,2817
118,115,16,603,-175,3335
17,104,73,-907,537,2760
-26,14,86,-174,-172,2565
60,-50,114,260,-478,2698
57,-84,105,190,-273,2052
-32,-64,-125,-241,-214,1408
-120,-58,104,-458,53,199
61,-111,100,-141,-170,-110
27,112,90,-504,-148,-431
14,103,65,-112,-133,-1052
-1,40,85,-504,434,-1000
-24,-20,67,-483,370,-999
-10,-44,56,-265,74,-1148
-25,-62,68,-402,130,-1113
-53,-99,77,-462,84,-694
-54,-44,84,-646,170,-697
-2,85,-9,-3907,2183,-6178
83,-107,56,-688,635,-3829
33,101,121,-2957,491,-1973
-81,77,18,-563,-455,-738
76,93,93,-850,-306,-534
95,34,-90,-1816,315,569
-128,-101,-75,838,-568,2409
35,40,28,-87,528,1070
10,-61,-74,-438,-739,-2156
58,-38,67,-450,-558,-2600
-27,58,-128,-1557,-133,-1650
-52,28,41,654,-1043,-652
-45,-108,38,364,473,-1990
-120,112,-75,227,-189,-951
89,123,127,-309,-594,140
56,116,113,330,-665,958
39,-52,66,-197,301,1129
-72,-70,76,722,-173,2347
-66,-10,26,1152,36,2755
-99,79,59,-314,301,3113
-118,-32,-8,2043,-506,3091
-2,88,49,-953,-242,2860
-49,-67,93,371,-771,3071
6,-32,124,-303,50,2464
-27,65,107,1014,-695,2979
18,-127,122,-259,-435,2153
-61,-84,-89,-762,-876,1388
-128,-48,-118,-307,-87,-579
19,119,80,592,-106,-1611
-10,10,90,266,215,-1522
-17,-35,80,-220,680,-1516
-19,-111,50,-187,146,-1376
-36,-123,53,-719,127,-1250
-38,125,65,-745,83,-889
-49,-126,60,-583,202,-773
-51,-105,60,-769,85,-518
-54,-73,62,-633,102,-361
-54,-40,66,-640,67,-310
-53,-22,75,-618,164,-241
-61,11,78,-567,4,-207
-80,57,68,-1571,6868,-2355
-8,-112,20,3258,-3919,-2075
-109,96,80,127,816,-2771
34,-36,43,1325,504,-2759
23,9,-35,1037,-61,-3078
35,-49,-4,612,-889,-4333
58,-72,99,-2457,-1075,-7496
-71,107,-23,-3287,650,-6618
-80,-99,90,-1785,-525,-3689
-18,126,-109,-1353,-293,-2204
70,87,-26,-929,-560,-1311
108,3,78,-1156,-390,171
-122,-122,-91,-857,91,1503
-101,123,124,-407,-413,1913
55,-61,-20,-1366,425,345
-102,-112,-51,1269,-1113,-2748
10,-91,80,-1303,232,-2200
-91,-7,106,822,300,-1151
-76,87,-1,1521,-952,-578
-59,-88,-27,319,334,-972
-113,-127,-126,-315,-425,-359
-122,-104,-128,-1187,272,550
-84,-18,79,-267,-365,783
87,-33,100,388,-114,1504
-20,1,75,-598,-4,1526
-114,-7,55,998,331,2854
-114,79,86,-277,655,2470
-84,38,29,848,334,2027
-115,-43,29,919,-193,2545
-61,-7,43,-593,9,2035
-52,-123,105,-76,10,2290
-26,56,86,354,162,2255
-27,40,79,93,65,2158
-2,-72,93,474,-188,2569
38,39,-126,-322,122,2037
-55,-104,86,-997,-265,414
80,119,67,-724,-407,-922
36,-21,84,349,-16,-960
11,-62,52,-146,-113,-1126
21,-89,45,-491,46,-1389
116,106,28,-5382,65,-7691
32,-112,-14,-4792,582,-7257
-97,117,72,-2069,1341,-3974
-82,56,-73,328,-500,-300
94,-97,-75,637,128,4453
-35,60,-38,-1432,-622,-2022
-115,49,-108,-969,-5,-2012
18,124,71,147,53,1069
-51,-20,115,508,-1827,446
67,97,72,-285,-992,134
-52,14,29,296,-957,666
-73,96,53,-810,-1522,2375
14,-49,31,809,-507,2480
-113,52,65,766,-1548,2906
-83,-116,-124,1094,-627,2172
-18,63,-117,495,-74,2506
-54,87,-121,741,-698,1985
-65,-19,-95,860,-190,1657
122,-13,-116,212,-83,1005
36,-90,-80,300,-676,1121
48,-19,-79,-625,261,253
-12,-80,121,-365,159,-176
-34,116,-112,47,-54,-860
-36,53,119,188,503,-1110
-47,-22,86,24,301,-1279
-48,-63,88,-532,239,-1219
-67,-108,89,-478,116,-907
-75,-105,89,-390,141,-824
-91,-113,91,-242,126,-518
-90,-85,88,-620,189,-217
-85,-42,88,-643,14,-203
-61,1,110,-523,166,-212
-74,19,110,-355,70,-279
-77,35,114,-326,109,-340
-77,39,117,-402,111,-343
-73,49,117,-432,167,-523
-79,31,122,-301,65,-570
-89,24,-128,-315,157,-523
-96,17,125,-317,154,-529
-99,10,125,-367,116,-489
-16,48,-54,-3463,1357,-7337
-70,-69,-17,-3824,772,-9684
-21,63,67,-2359,646,-5343
-123,-81,26,-505,487,-1011
-50,79,39,568,-1157,2684
116,69,0,-4576,-300,6109
-101,-89,38,1481,-653,-4777
-22,67,-35,-997,-839,-2136
72,2,-56,-238,93,-1079
126,-62,-40,1460,-514,-903
-48,65,92,361,-2466,-714
-101,56,-119,-583,-683,-637
64,68,78,-350,-733,314
58,82,123,190,-560,1275
-82,-108,54,607,-535,2182
-116,-26,80,1022,-1090,2396
-67,8,78,-210,312,2601
80,27,39,1513,-1436,2700
-4,5,122,-304,-278,3079
-88,-11,106,237,-362,2806
9,6,-90,-184,-572,2546
-51,-4,-99,718,-533,1825
-107,5,-63,-55,-662,1408
70,-14,-83,361,-22,160
-16,-89,122,256,21,-387
-34,108,99,-104,376,-806
-50,62,73,-394,225,-1006
-47,7,70,-590,289,-1311
-59,-31,62,-566,121,-1233
-68,-62,82,-312,158,-1170
-70,-68,90,-671,540,-1064
-84,-85,71,-518,-33,-935
-95,-88,96,-497,168,-655
-103,-78,91,-411,77,-365
-102,-39,95,-701,76,-263
-100,-16,112,-602,23,-106
-87,-5,-124,-324,144,-66
-85,20,123,-133,237,-177
-79,57,113,-530,129,-215
-81,56,117,-370,103,-280
-86,49,47,3572,-2596,-4470
60,23,-110,157,-209,-5164
-5,44,-75,-3559,-596,-8171
11,-49,-121,-4370,-1071,-7865
-49,-70,100,-2743,1526,-4042
-106,7,-40,-351,-526,744
-124,121,-57,-2021,-144,4564
104,28,25,-1941,90,-131
62,23,-90,-108,-643,-3562
25,84,82,-271,-301,-231
54,119,-68,536,-947,119
-70,48,114,461,-1095,-515
-52,31,43,95,-1172,59
-89,40,103,-1556,-72,1119
4,109,57,-350,-210,1372
38,-107,-2,899,-262,2074
14,-33,81,-72,-1144,2861
-10,29,89,603,270,2647
-16,55,49,644,-390,2295
-62,37,112,123,-799,2529
-47,29,125,472,95,1497
125,-52,100,-36,66,1746
94,-123,115,579,852,427
97,64,-123,459,112,1813
97,-99,112,-197,-128,1376
54,-69,124,-320,-700,237
21,-99,-113,-433,-148,-883
-35,45,121,-226,57,-1058
-40,6,98,-462,141,-1088
-25,-10,95,-694,184,-1142
-18,-32,79,-722,358,-1480
-28,-76,74,-203,53,-1490
-44,-111,78,-146,208,-1264
-71,-122,67,-320,82,-962
-87,-121,67,-531,93,-478
-91,-102,74,-586,106,-187
-79,-61,75,-563,72,35
-72,-32,81,-574,81,157
-59,20,89,-610,66,62
-62,29,99,-392,14,86
51,-118,120,-4979,-274,-8102
117,-86,54,-5788,1095,-7280
-7,81,71,-1937,61,-3269
-18,-123,9,1771,-1332,520
29,-53,-80,-1733,1310,3884
124,-100,41,-1919,-52,1550
104,-121,115,968,-1281,-3471
-25,7,126,-412,-1042,-1306
42,34,-1,-770,-1345,465
-85,-14,-62,1913,435,-1333
-47,-128,93,-1552,-6,-360
-115,36,56,109,-1283,567
-65,-128,86,-23,206,907
-110,-111,36,923,-580,2507
13,-5,67,805,-525,2552
-126,60,27,-263,133,3242
-53,93,59,1291,-339,2522
-8,33,63,310,-217,2844
-64,20,71,-31,85,2004
-83,-100,68,684,-180,2179
-128,91,49,937,-196,2034
-83,78,107,238,55,2169
-104,118,109,-377,6,1507
89,-90,118,-667,-168,655
43,-87,105,-444,-7,-527
5,108,93,-87,111,-1122
-26,27,84,-327,219,-1394
-27,-20,72,-449,225,-1560
-27,-55,71,-481,237,-1635
-32,-106,70,-358,192,-1540
-42,-122,68,-367,184,-1395
-55,124,66,-565,169,-1136
-74,122,61,-472,45,-809
-79,-128,69,-420,168,-498
-81,-87,63,-682,41,-220
-81,-69,70,-539,67,6
-73,-33,81,-647,69,113
-73,-1,86,-478,27,182
-64,22,95,-428,-46,198
-62,53,103,-355,-95,91
40,-58,-31,-6667,-374,-8606
-48,105,-97,-5227,-636,-5036
118,-111,7,-1568,-718,480
58,8,-18,1681,-91,3191
24,-81,1,-2206,2180,3055
83,-34,-89,647,-1689,-2189
-82,-12,84,-1896,-595,224
-110,-22,68,-161,-437,-561
-41,39,15,933,703,-375
35,-89,126,-158,-1057,-364
-45,109,83,269,-2131,586
-35,-93,102,-308,-350,724
-41,-112,108,-561,1491,953
-25,-109,59,1031,-405,2290
112,-85,61,1674,712,2027
86,-13,-47,249,207,2875
63,-13,39,-490,-41,2988
-2,63,-45,2978,893,3067
-98,-92,-5,125,-953,3576
5,-15,49,-1912,-2,1907
-36,-115,-105,553,-817,2527
-93,-68,-115,1731,-34,837
104,-66,115,236,216,135
30,121,79,-417,224,-720
-1,-8,75,65,124,-914
-8,-67,66,-297,184,-992
-5,124,71,-708,111,-1282
-46,58,80,-233,-56,-824
-69,80,88,-588,96,-458
-52,125,83,-579,116,-301
-38,-123,65,-410,179,-637
-49,-105,66,-527,156,-548
-36,-88,70,-696,102,-460
-63,-56,84,-715,74,-471
-50,-53,85,-242,247,-709
-56,-67,79,-125,160,-619
-57,-64,71,-420,132,-500
-68,-56,78,-498,140,-409
-64,-28,83,-406,132,-454
-74,-20,85,-312,73,-410
-55,6,-73,3159,1884,-6114
-35,-4,106,539,-1159,-4269
64,-120,26,-2802,-109,-6405
83,44,-67,-3607,-1575,-8221
-28,-28,18,-4500,-104,-7034
97,-69,59,-1574,-980,-2810
-123,-33,-116,702,-146,1482
79,90,-64,438,1431,4849
29,-119,12,-1343,-2118,-2653
26,117,-24,-552,277,-1719
46,96,48,-527,-712,-206
-104,73,68,353,826,-469
-79,85,-94,50,-865,-738
-46,14,122,507,-1007,38
-84,16,114,-613,-245,576
-124,94,74,-640,200,729
-101,123,65,-222,6,1566
14,-68,70,-114,240,2059
-45,-32,37,186,-394,2444
-70,-3,-110,-100,-600,2918
-76,-10,124,2059,-50,2266
-39,-12,50,732,584,1998
-110,-22,23,-243,-978,2159
-62,-50,-100,-1197,434,1534
-111,87,61,1326,-36,1184
103,86,56,349,-411,1153
75,50,90,-238,-188,1057
52,15,95,442,-187,798
39,33,86,74,-353,576
14,80,112,-644,-328,-86
-21,28,107,185,-58,-722
-39,0,102,-138,-61,-834
-52,-22,101,-974,76,-843
-50,-63,89,-412,0,-1027
-51,-77,89,-690,90,-978
-52,-84,79,-834,144,-1026
-65,-102,80,-561,21,-849
-72,-111,84,-354,247,-765
-75,-105,82,-349,226,-540
-76,-89,72,-459,157,-400
-12,-53,-15,-3473,-2099,-8377
45,-61,46,-4117,527,-8206
-22,64,-42,-47,-1882,-1557
106,56,69,-1791,-242,2923
3,-119,-48,-4246,1321,3800
-73,94,-25,1472,-1372,-5986
30,21,-77,-389,154,185
53,-62,-8,-1038,-80,835
-102,73,-43,534,-1437,238
-40,79,109,612,-1703,719
-37,-120,89,-1483,-561,719
-86,103,90,159,-246,1240
2,-41,40,-278,-376,1675
36,-27,14,994,-566,2107
84,36,69,93,-1015,2341
-66,15,92,145,-194,2486
-56,64,-122,1226,-53,1059
-9,-13,126,1034,821,1550
-68,66,91,-1297,-1300,2551
-123,-6,-52,-374,-870,2001
106,-75,-76,1052,-681,1774
100,12,-65,-673,-283,620
66,-6,-71,-690,-286,-67
-13,-115,-103,-25,-157,-484
-42,126,126,-937,-112,-515
-36,81,108,-988,34,-790
-34,37,105,-741,318,-1053
-45,-21,78,254,355,-1176
-59,-41,71,28,222,-1071
-76,-51,65,-232,89,-862
-78,-54,78,-354,130,-679
-90,-57,83,-100,42,-368
-86,-20,95,-397,193,-402
-81,4,98,-489,78,-136
-86,20,106,-382,79,-154
-78,45,114,-313,149,-151
-76,59,113,-388,144,-196
-73,62,114,-176,150,-323
-77,62,111,-105,74,-424
-86,61,118,-350,152,-536
73,-66,-117,-4858,-32,-7108
66,-79,39,-4259,-150,-8545
-78,-44,-39,-3799,2098,-7058
61,76,44,410,-736,-1205
94,59,69,251,-1143,4548
-119,52,56,109,319,538
81,-35,90,-1269,-1768,-2158
-91,-124,-45,-616,145,-1954
91,-91,76,226,-231,-986
-97,78,-36,240,-897,-866
103,23,-117,137,-1526,466
72,66,-113,-83,-726,734
116,-115,-108,-900,765,1285
-127,-33,98,-131,-440,2098
-19,-70,67,1374,405,1998
51,8,61,-510,-660,2707
-123,10,-116,523,-300,2679
-17,-22,-102,640,-202,2786
15,9,91,839,-402,2376
-18,-22,102,-144,-70,1845
-48,-73,76,381,-507,1775
-96,108,80,1168,-774,1819
-120,96,59,1285,-439,1176
91,74,77,695,-475,1088
65,-94,109,-937,-423,263
11,90,-105,31,-163,-454
-31,-4,-96,493,150,-595
-54,-34,118,424,-165,-835
-55,-62,116,-250,-2,-970
-43,114,97,-326,238,-843
-60,113,85,-105,85,-639
-58,84,62,530,5,-529
-75,-119,73,-560,168,-510
-77,-101,81,-652,326,-631
-62,-108,81,186,232,-415
-47,-96,75,144,82,-292
-66,-88,100,540,-108,-76
-37,-50,103,145,521,-719
-57,-79,83,-15,283,-719
-82,-124,88,57,292,-448
18,-112,-77,-5003,306,-7821
-23,-11,32,-5189,2645,-7451
32,-48,46,-1825,477,-2933
72,-55,126,-554,65,1817
44,49,-72,-161,1865,4617
20,-126,114,-2364,-968,-2451
61,35,-58,1126,-553,-3957
31,-78,121,-994,525,-814
46,-43,82,241,745,-453
-125,114,-11,1115,-197,-1161
-119,103,110,-52,-680,-365
67,72,75,-68,-927,621
58,-112,58,-456,-589,1034
79,-88,79,-23,-230,1436
-108,-34,11,840,-1676,2422
-9,98,-123,657,-504,2092
64,70,-105,-78,-68,2990
115,100,121,1621,-433,2057
-107,-8,110,523,-303,2442
-125,30,123,-554,-25,2117
-109,110,85,1359,-453,2447
-66,127,51,915,-229,1982
-92,-106,123,-902,-631,2050
-113,-57,-84,-916,-617,1036
56,-68,-109,463,-190,-214
-11,-119,127,955,-218,-710
-39,52,89,448,-52,-906
-62,41,93,-453,-48,-973
-78,-8,99,-459,133,-1025
-65,-18,87,-598,52,-1170
-49,-43,94,-533,139,-1272
-65,-64,75,-809,-21,-1258
-80,-78,93,-741,-28,-1099
-103,-98,114,-368,186,-853
-109,-98,94,-290,130,-529
-102,-79,94,-568,235,-320
-88,-56,100,-637,237,-111
-102,-18,109,-606,131,49
-101,18,119,-512,205,-66
-95,25,117,-16,408,-197
-78,-88,9,-524,6389,-3996
102,-49,124,2402,-4069,-1662
67,-66,83,-287,1178,-3518
-125,51,58,-1250,85,-4426
104,-104,-127,-4113,-382,-7806
17,-50,-8,-6030,1638,-9502
-74,-34,22,-2537,1898,-5070
-84,57,81,1787,343,3973
-41,28,-97,-4175,2727,1729
-56,-93,86,390,-1584,-1103
7,119,-32,-1680,-425,-1786
-29,-92,111,829,-501,93
-117,55,6,-669,-46,-428
-19,-81,-52,-210,-187,-1039
-66,70,-109,35,-574,-500
-112,110,100,-839,-862,334
103,-107,116,474,-596,875
-104,-99,71,1153,-607,1673
-90,-25,23,946,-1342,2410
42,-36,106,1292,-1089,2578
89,54,122,72,-158,2796
-37,22,-81,816,248,2328
-68,117,26,2830,231,2771
-49,-86,-28,581,-226,3153
-50,-37,93,-1318,-580,3108
-68,-16,124,7,-960,1879
125,23,-68,387,-995,1186
54,-2,-75,810,-628,-371
-13,-96,-103,845,-138,-1528
-58,25,-118,-115,427,-1816
-60,-53,102,-525,316,-1639
-66,-93,83,-670,-15,-1555
-61,115,108,-571,216,-1513
-77,106,94,-592,192,-1449
-96,84,86,-594,81,-1077
-114,89,89,-539,145,-608
-111,119,83,-569,100,-321
-100,-89,87,-503,143,-198
-84,-43,98,-701,172,-168
-86,-8,105,-585,106,-73
91,112,-62,-3994,-160,-6641
-44,-66,-103,-3732,770,-8486
-8,3,58,-4372,658,-8583
65,-59,-128,524,-1312,-1020
-27,127,-85,-342,-2888,6802
76,-124,-85,-1796,1422,675
-103,96,98,-379,-1915,-2521
-78,121,-50,-613,174,-1962
23,87,62,-211,-521,-212
122,75,18,-23,-40,-441
-73,-126,-64,409,-264,-659
-118,75,-114,210,-570,132
123,60,96,55,-779,494
-49,121,120,-1147,551,1087
-37,126,56,-138,-480,2118
9,-93,37,1407,-1187,2754
-101,32,50,-394,-815,2866
-27,71,90,31,-156,2370
26,-6,101,-2,-1417,2758
42,-74,120,766,-107,2434
32,-79,40,1686,-814,2397
-9,-56,77,401,-1026,2108
-97,-120,120,690,-149,1797
119,-79,120,388,-688,1565
110,-47,-96,599,-415,462
31,-36,-108,250,-242,-775
-28,107,-123,207,-87,-1089
-44,55,122,-563,157,-1370
-58,-31,105,-397,272,-1629
-25,-79,100,-399,245,-1714
-54,115,88,-340,157,-1684
-33,101,99,-633,502,-1419
-43,90,85,-601,364,-1263
-60,112,89,-724,436,-912
-66,-111,77,-689,121,-679
-86,-70,86,-403,-78,-338
-80,-36,100,-356,175,-408
-74,-15,94,-374,205,-327
-62,17,82,-607,159,-408
-65,9,80,-458,-9,-422
-56,-119,-113,-3886,-417,-6439
84,-29,-8,-4205,181,-8677
103,54,-65,-4242,1021,-7450
93,123,127,-187,345,-2337
-87,20,-102,-936,-626,3530
-6,52,26,-1933,1803,4523
-85,-54,-62,-809,66,-4561
-77,-57,-122,513,-1179,-2698
101,45,75,-910,-490,-488
83,-18,22,795,-744,-376
-81,-124,-43,485,-1150,-1375
-57,113,-83,-963,-496,-936
108,31,103,-182,-693,303
83,95,97,304,-489,550
46,121,-106,547,231,1694
-51,-119,63,1643,355,1809
-94,-1,4,-1012,611,3002
-81,53,34,-1,-803,2907
-39,-40,55,1548,-270,3124
-8,57,55,-190,-338,2695
-10,-19,116,-601,-590,2842
-20,-60,-114,463,-148,2469
-7,116,99,1349,-671,2612
-45,115,93,1260,-340,2190
-73,-15,110,-1100,-65,814
53,-47,108,-205,-669,-425
-5,96,-122,810,-93,-977
-40,25,104,123,170,-1210
-32,-11,83,-548,52,-1289
-27,-54,84,-684,-57,-1419
-33,-119,94,-201,180,-1522
-44,-122,81,-415,201,-1411
-60,98,64,-461,78,-1161
-80,99,74,-530,44,-759
-92,116,80,-625,124,-424
-89,-103,84,-651,142,-179
-79,-74,88,-603,133,55
-73,-29,88,-643,103,-14
-59,13,98,-482,209,-124
-60,20,90,-230,188,-214
0,-93,-30,-3956,595,-6124
50,85,125,-3531,981,-8536
-26,55,-16,-4754,1136,-8156
4,-127,-106,770,-472,-3275
31,-60,-103,-49,-1042,4923
-42,33,104,-1491,143,982
39,46,95,-789,-613,-4406
20,19,-120,50,393,-1267
46,-92,-52,-1514,-1038,-580
94,31,80,60,598,-685
120,101,-20,84,-232,-635
-115,81,-81,-286,-356,480
76,106,-126,-790,-292,147
-122,-123,-109,-181,382,468
114,-52,105,-978,-78,1323
-64,-34,108,790,-555,1320
63,-45,74,1522,-604,1838
28,26,38,298,-88,2116
94,-6,72,543,-561,2331
-65,-1,81,425,153,2432
-68,-8,46,788,-180,2038
-86,-71,58,701,-579,2527
-67,-21,101,-137,-102,1714
-111,122,107,489,-399,2038
-128,95,76,808,-292,1802
-117,-102,124,-692,-299,1163
104,-92,112,-850,33,258
36,105,114,27,-521,-259
-34,39,99,541,-138,-695
-39,5,72,-21,-119,-888
-36,-27,66,-784,108,-994
-44,-60,56,-799,164,-1140
-47,-71,66,-609,210,-1232
-62,-93,66,-461,136,-1073
-68,-86,68,-667,30,-873
-84,-88,71,-563,29,-709
-91,-87,86,-328,238,-582
-86,-73,67,-436,175,-315
-86,-52,68,-544,110,-248
-78,-32,86,-307,240,-172
-62,-12,-124,-4652,138,-9096
4,-57,9,-3370,1491,-6189
72,71,23,-864,-997,-1896
-87,70,-46,-1355,145,7455
56,-26,32,907,-276,-474
115,-101,-79,-422,-877,-4018
56,-63,-90,-721,-152,-439
96,55,61,-773,-576,-1114
-57,3,65,428,-244,-610
-97,91,-42,-456,-1093,-600
-97,48,-69,-185,-841,-161
-124,122,-62,-740,-237,403
78,-73,-92,-82,-597,910
-46,-62,-65,1885,-1273,2526
9,72,122,1339,1562,1369
9,69,-12,791,-286,2665
120,40,37,1024,214,2504
-90,96,-20,1034,-384,2362
-99,43,46,436,-15,2060
121,22,67,171,-339,1921
-88,-18,-113,-324,345,1417
-121,-82,89,526,-173,1477
111,86,77,1063,-103,1120
114,92,94,-550,-88,816
59,123,123,-1072,-515,912
29,112,123,-75,-72,-413
-3,45,85,339,66,-782
-8,20,71,-606,-58,-818
-26,-19,70,-742,-33,-972
-33,-29,60,-836,120,-1265
-53,-72,59,-712,35,-1072
-53,-74,66,-654,1,-868
-53,-89,64,-203,66,-772
-65,-58,68,-744,-33,-530
-73,-32,95,-833,83,-386
-79,-15,100,-533,177,-389
-68,9,93,-699,211,-307
-67,28,85,-555,114,-323
-70,44,90,-533,148,-370
-74,57,100,-553,108,-376
46,-64,73,-3687,464,-6350
64,92,6,-3908,439,-8658
75,22,-77,-1804,-1102,-5296
75,3,93,-1186,-1720,-1330
65,5,18,-388,-675,2556
3,-61,-52,-928,1163,5642
-95,-91,23,-2550,-449,-5366
-35,7,54,1381,-430,-2040
32,92,-24,-1491,-826,-267
105,19,20,-438,-482,-675
-86,54,-19,706,-122,-1410
-71,102,-105,-1289,-299,-471
90,89,-123,-1037,-1083,141
-125,-75,-102,5,-992,528
119,-37,-79,583,-665,1736
-118,18,-100,2334,-652,1994
-27,27,47,2478,-429,2265
99,-88,35,-181,305,2663
109,117,46,1435,-26,1980
-126,-53,17,1827,411,2236
-122,-30,-28,789,-169,2321
-80,-116,60,-168,-315,2278
-108,-103,-106,-1190,-219,2278
-97,116,-109,349,-35,2064
-116,-53,120,454,5,943
70,-38,92,-9,-407,227
-17,-120,94,132,-227,-734
-38,69,96,136,394,-1171
-32,7,69,19,264,-1223
-20,-25,60,-834,77,-1590
-38,-68,70,-941,-73,-1556
-67,120,91,-164,98,-1278
-73,-124,86,-595,232,-1161
-81,-125,75,-611,-31,-783
-88,-111,79,-714,153,-525
-83,-67,95,-1116,37,-295
-77,-65,101,-352,243,-232
-85,-17,83,-455,117,-148
-76,18,86,-752,65,-102
-77,29,101,-387,152,-127
-104,30,-6,-4160,268,-6374
126,3,57,-3304,-1428,-5385
-62,-26,-110,-2550,599,-3258
89,19,105,-1528,-431,955
100,-94,-101,516,1631,5027
-120,5,25,796,-1205,886
121,80,-73,-513,-315,-4455
58,-30,-115,-394,174,-1149
35,44,-33,-436,-510,-901
90,101,-16,-177,-611,-777
117,96,-105,928,-885,-914
-119,-107,91,-626,-635,-721
99,119,73,-275,-640,321
110,-80,59,328,-1449,765
-112,-8,-127,1006,-1395,2040
-2,103,-100,-94,-658,1740
44,35,-102,2628,-194,2057
-49,118,0,257,431,2696
-105,90,112,1873,-383,2577
-55,95,109,-319,-109,2297
-76,73,117,-866,-346,1878
-102,-32,-115,727,-697,2186
-112,-19,-126,917,-552,1765
107,27,-94,-320,-329,817
31,-27,-75,139,60,255
11,-60,-108,327,-106,-261
-14,-95,125,102,-236,-670
-13,119,125,-591,194,-1220
-23,55,108,-315,274,-1438
-32,10,88,-300,107,-1423
-12,-1,100,-1064,115,-1587
-45,-49,90,-562,12,-1569
-83,-80,106,-530,41,-1266
-113,-94,95,-300,207,-747
-121,-57,80,-613,15,-372
-106,-25,99,-897,-106,-101
-103,9,123,-817,-414,-68
-91,34,-112,-285,-20,-45
-84,55,-111,-413,156,-96
-89,74,-113,-449,154,-83
-125,10,-67,4622,2084,-4192
-74,-116,-97,1010,592,-3635
116,-36,-62,-657,1984,-3527
42,-29,-65,-2043,-1369,-6654
16,50,126,-3516,-618,-8572
15,26,-114,-2905,-1026,-6991
33,-34,55,-487,-638,-2181
-105,-8,-23,-163,-1262,2559
-57,-61,-116,-2688,589,6873
58,63,18,-3388,-2592,-1218
51,75,5,1817,228,-4962
92,-70,115,-938,-768,-248
36,-18,-15,-1194,-312,-649
-92,72,10,117,-817,-641
-70,65,-34,718,-694,-433
-62,93,127,-271,-343,-16
117,116,108,-649,-1145,1012
-56,-70,-115,853,-1365,2377
20,71,-73,3494,-363,1281
-54,67,7,1706,1053,1674
32,-11,36,420,-7,2944
-83,60,12,768,595,2646
-50,92,99,-193,-883,2953
-62,92,-125,-576,90,2015
-102,6,120,-180,-236,1874
109,-97,108,758,-551,1949
124,-75,122,577,-257,1331
80,-71,124,74,-646,731
58,-72,-120,-93,-3,-657
17,120,111,-88,3,-1369
-47,-30,94,316,-47,-1506
-55,-58,113,-268,167,-1398
-59,-97,75,-322,147,-974
-43,-71,68,-925,113,-1192
-61,-109,60,-578,69,-998
-76,-101,60,-849,332,-724
-74,-98,51,-489,-85,-614
-79,-78,62,-594,7,-475
-86,-40,80,-601,15,-338
-81,-17,97,-579,121,-296
-119,1,-122,-4241,-822,-7432
-31,94,-90,-2505,-1084,-8279
-106,-57,30,-3750,-200,-6368
56,-105,-106,-1547,-2062,315
19,-35,-4,7,453,2593
-10,-54,20,-922,-734,6370
-59,-54,1,-2324,-484,-2286
34,-98,-17,1188,174,-3855
117,-127,46,-951,-71,-1405
64,-14,-50,-721,-334,-649
-111,116,-39,-273,-753,-1057
-113,123,-68,-287,-1209,-187
113,124,-89,-35,-126,-15
108,-107,94,455,-399,956
75,-71,86,1229,-1392,2181
1,12,105,1367,-565,2535
6,83,7,1113,-1044,2787
-30,38,-113,1155,-2,3100
-34,73,-5,1764,346,2508
-32,80,64,-833,-354,3024
-48,16,67,119,145,2266
-28,17,80,-1368,304,1961
-75,15,124,-2367,-769,1458
127,-97,-17,497,-878,1788
120,-8,-106,787,-371,343
59,-7,123,259,-535,-606
-11,91,113,1610,-642,-895
-13,86,106,-602,893,-1697
12,109,71,-3124,1127,-1872
-39,-60,50,-485,-77,-1488
-40,-33,119,-289,205,-1487
-49,-53,109,-131,303,-1281
-76,-61,93,-371,117,-1116
-89,-59,90,-802,183,-745
-97,-49,94,-512,37,-391
-83,-20,103,-257,175,-194
-83,12,96,-421,-3,4
-78,34,107,-419,-53,57
-68,65,121,-423,50,46
-67,81,-125,-442,-20,-15
-52,-94,-81,-3949,826,-5335
-85,95,-67,-4592,-698,-8375
27,116,-111,-1840,1294,-5767
0,-34,101,816,-937,289
-63,-124,-63,-1072,1012,2081
115,-52,-72,1791,-960,3445
70,94,-6,-3631,-1011,-4468
-80,-35,77,-1014,-209,-1311
41,-97,-34,-987,-839,-493
123,67,11,-356,-519,-805
-84,-105,-9,-244,-837,-778
119,110,-37,110,-840,279
102,-121,-68,276,-883,477
-115,-55,-85,864,-199,892
-58,-30,-124,1460,-891,1421
-29,28,103,718,-55,1715
16,23,120,591,-248,2201
107,2,98,1189,170,2410
127,67,70,419,122,2153
-109,-12,66,588,-145,1999
-121,-38,64,546,-166,1832
-111,-74,93,-124,-13,1949
-128,-77,80,307,-173,1580
113,-83,-127,-13,-489,1484
89,-34,-120,-444,-162,355
31,-120,125,677,-485,41
-10,95,123,599,-306,-362
-33,38,104,123,75,-683
-38,28,87,-492,151,-892
-34,-14,71,-761,143,-1024
-35,-37,59,-493,83,-1177
-30,-59,70,-471,114,-1273
-51,-80,63,-707,73,-1171
-84,-93,68,-692,-39,-897
-93,-77,84,-786,65,-645
-88,-58,92,-668,85,-456
-82,-27,88,-653,130,-440
-82,-5,91,-685,100,-335
-84,5,96,-542,85,-228
-82,31,95,-596,120,-281
-40,44,-104,-4967,14,-7530
80,85,-82,-3680,-237,-7529
-71,64,-25,-1425,1054,-2540
-55,75,-43,-155,-1468,1272
-10,-21,-20,-443,878,3803
18,-14,34,1694,-1531,-563
64,-49,4,-2258,360,-3972
64,-39,12,-1530,84,-841
3,-99,-96,-934,-1024,-22
71,100,-17,-597,-74,-357
-83,-93,-28,-232,-69,-937
-83,-119,-105,140,-329,-151
-126,-127,127,467,-1047,825
103,-80,-124,534,-973,995
-88,-13,-110,410,-446,1754
19,7,120,1535,-631,1734
81,18,90,1384,104,2287
-121,25,47,814,-106,2766
-53,83,43,1,-156,2558
-60,0,72,226,-51,2424
-39,-14,89,572,-674,2542
-79,-34,100,728,-399,2240
-74,-47,126,471,-365,2059
-123,-72,116,486,-853,1674
91,-64,-111,521,-714,883
41,-82,92,2,-473,-52
-19,116,84,-866,-184,-985
-71,20,91,-70,99,-1134
-40,-42,83,166,479,-1314
-33,-40,56,-696,282,-1513
-38,-71,65,-837,14,-1582
-56,127,80,-433,91,-1498
-69,118,74,-453,159,-1437
-88,106,79,-480,-42,-1065
-105,115,76,-613,195,-748
-101,-93,81,-926,322,-525
-96,-67,75,-786,158,-290
-88,-18,79,-547,60,-217
-87,9,91,-540,125,-186
-81,29,93,-544,153,-168
105,-35,30,-4514,784,-5523
-18,122,-77,-4850,2011,-9159
79,44,-29,-5640,2545,-8076
-91,94,-86,152,513,-2444
-45,74,-111,474,-1147,3282
53,-121,51,-123,-119,5063
57,3,32,-1559,-272,-5119
95,38,90,251,-123,-1538
-11,-100,-99,-2396,5,-249
85,39,24,99,389,-800
-89,-124,7,607,677,-1396
-79,-88,-107,581,-995,-903
120,-99,-128,-20,-912,34
90,-54,-92,109,-710,503
126,-24,-87,785,-616,1014
121,-26,-121,1603,-418,1468
-8,19,117,754,-1214,2295
-52,52,113,1275,21,2518
-115,-103,109,-376,10,2434
120,28,89,1767,-194,1804
-102,-40,60,1036,95,2078
120,-28,56,-415,-289,2342
-97,-21,85,-55,-29,1717
104,-115,58,794,-449,1815
100,94,88,-37,114,1623
126,103,104,-316,303,1812
107,-58,58,-560,-325,736
43,-72,61,190,-831,-363
7,74,73,1018,-407,-1161
-50,-3,78,386,-81,-1479
-66,-47,60,-429,186,-1399
-65,-66,54,-1011,-6,-1255
-57,-102,59,-797,20,-1145
-62,-93,75,-757,44,-1146
-77,-110,73,-467,124,-1021
-83,-97,74,-740,72,-724
-92,-91,75,-739,129,-514
-101,-69,76,-686,152,-254
-93,-47,84,-543,231,-148
-88,-14,80,-489,124,0
-82,-52,-2,-3674,-255,-6236
-95,16,-88,-4405,389,-7105
-86,-115,75,-2898,431,-4892
13,-22,20,-2320,-451,-871
-11,18,-12,2335,-1464,2385
1,-66,-60,-3563,1058,7011
-40,-95,-8,-3461,-2528,28
97,9,-50,896,1017,-5194
47,65,67,-1595,15,-1149
46,40,78,-392,-417,-648
-127,102,68,1844,-540,-1180
-72,-61,5,-176,6,-1674
97,115,-105,73,-886,-676
26,-108,-106,148,-1124,-13
27,-62,-45,469,-446,915
59,-47,-65,1652,-757,1558
96,71,100,1173,-458,1598
-42,40,-122,2128,-1105,1897
72,18,113,2028,940,2233
58,105,3,598,452,2108
120,44,63,-569,-546,2481
111,-40,85,85,900,1676
-62,46,76,-1903,-601,2207
-125,-45,-111,632,-1183,1910
-88,-18,-38,44,-530,2054
108,72,-96,-423,-466,1
30,-29,-102,693,-688,-168
-21,-112,-115,1101,-111,-233
-53,117,92,132,6,-649
-45,60,92,-432,220,-952
-47,11,75,-908,402,-1232
-65,-15,83,-710,55,-1128
-66,-38,108,-980,903,-850
-66,-33,78,-1068,932,-1043
-92,-54,52,-66,-471,-798
-76,-26,102,-460,-191,-557
-70,-7,123,-576,344,-663
-94,-18,105,-338,-12,-465
-92,-4,120,-514,81,-251
-94,24,127,-576,124,-119
31,120,104,3689,2919,-3422
91,-29,40,877,1519,-3107
-54,72,92,-2180,659,-3199
-78,-69,105,-3032,-964,-5127
-91,-45,78,-4213,-357,-7196
96,-30,98,-1325,-1342,-4190
-120,-50,56,-1429,-1565,-594
60,-9,45,-714,-279,3479
-52,-92,45,-1467,1195,6096
-11,26,60,-3274,-1345,-5215
39,10,-77,1474,452,-3935
59,-42,-40,-1073,-609,-1242
-57,-61,-6,-1093,-475,-113
79,83,42,-344,-183,-333
-106,-94,-46,221,-264,-409
106,-98,-113,-117,-649,278
-96,0,-69,-1314,-363,383
-112,-41,-45,677,-1109,1074
-81,43,-98,1569,-1123,1657
20,81,-79,1459,-111,1168
44,36,49,1539,-583,1943
84,24,96,1031,-612,2120
-91,18,108,426,383,2137
-107,-32,39,1974,-292,2080
-75,-58,76,963,-161,2068
-53,-23,96,-1157,597,2002
-81,-95,45,326,-303,1983
-98,-49,51,345,-1070,1464
81,-76,86,164,-969,1056
46,-78,99,-364,-43,-108
-7,-121,108,-502,170,-620
-15,88,94,-456,95,-984
-18,56,89,-815,121,-1134
-40,12,103,-732,36,-1308
-57,-50,97,282,214,-1319
-54,-54,69,-157,252,-1270
-66,-69,68,-671,70,-1170
-84,-80,70,-685,147,-916
-90,-63,76,-725,221,-673
-92,-53,71,-633,126,-508
84,-107,66,-3994,-869,-7925
-61,90,-88,-468,-23,-6532
9,66,-105,-50,-1063,-1206
67,78,57,478,-2454,1540
-1,-126,-109,-2933,-314,3253
-46,-74,41,-2973,-414,-2529
-109,-26,90,486,55,-1544
47,94,-46,-694,-171,-657
42,-72,-27,136,491,-469
-101,73,-78,362,-288,-341
-61,120,-119,-248,-848,43
-91,83,123,-9,-1144,619
-101,-126,102,471,-145,805
-32,-41,62,406,460,966
-48,25,27,-444,-1643,2915
117,60,-66,-63,31,2173
-26,5,102,769,-510,3013
76,121,-110,1336,1050,1185
26,-15,118,2116,170,2585
-16,89,115,-648,78,2128
-72,-1,116,-22,-338,2366
-117,-32,98,414,-373,1985
112,-80,99,722,-778,2000
101,-90,-123,203,-470,1489
82,-71,119,-445,-52,406
40,-126,88,-212,-446,-318
-2,78,80,-476,-367,-679
-6,4,95,-588,-13,-1039
-8,-32,82,-144,414,-1830
-29,-103,56,-115,101,-1669
-40,-116,63,-696,-17,-1455
-49,125,65,-649,-14,-1195
-59,124,70,-471,146,-927
-60,-115,62,-672,-20,-728
-77,-100,61,-649,-63,-526
-77,-59,84,-776,263,-321
-75,-33,73,-725,185,-273
-66,-6,81,-572,116,-21
-66,26,83,-575,111,-61
-65,50,95,-415,137,-84
-72,3,126,-4008,760,-8181
-38,-41,31,-2523,723,-6763
29,-44,11,482,-61,-2078
-46,8,83,988,-1251,4893
121,40,-66,-48,562,4415
-17,-33,-28,-2779,-875,-5241
104,78,-82,30,268,-1124
83,-7,-109,-1577,-160,-1513
109,14,-11,-55,152,-1097
-104,66,-57,505,-230,-1367
-92,106,112,180,-711,-999
99,86,-116,-483,-716,92
105,-115,-79,-427,-892,831
118,115,-85,1848,-714,1829
-36,-43,-117,1831,-277,1591
36,90,32,-417,-334,2425
63,65,88,81,-1006,3113
-8,-95,110,-18,-286,2324
-73,80,68,1009,-1034,2450
-18,70,-114,-368,-679,2361
-72,18,-121,987,-502,1709
-112,-15,121,862,-429,1436
76,-43,115,186,-212,1093
47,-86,-114,593,-262,798
29,127,-115,1275,192,666
5,-119,80,880,136,2
30,123,104,151,976,-1014
28,86,91,-292,622,-1271
-28,-5,59,131,-485,-856
-21,-8,83,-727,-363,-965
-20,-35,79,-975,-130,-1206
-30,-82,72,-753,-8,-1164
-43,-86,71,-648,9,-1019
-60,-87,74,-615,93,-963
-70,-79,79,-764,128,-687
-79,-59,85,-853,2,-469
-75,-46,98,-475,147,-354
-69,-23,92,-417,206,-339
-69,-6,91,-445,159,-223
-69,27,88,-408,158,-228
-103,-69,-121,-5417,3004,-8239
-104,83,35,-3341,3486,-8740
122,90,-8,-1411,-142,-3066
124,-31,-88,846,-1411,1529
73,98,-62,-1932,916,5924
-96,-12,42,-1163,-2123,796
40,45,28,1537,245,-4641
-128,20,-17,-739,18,-1703
57,-42,-68,267,-820,-621
110,57,-50,1920,-1057,-1841
105,-74,-19,-1496,-139,-1448
38,14,-56,1036,-959,-164
53,85,-64,1212,-812,815
52,-35,-81,-271,-685,1267
89,-72,-79,1667,-442,1974
-80,-14,116,1407,-264,2128
-37,28,94,826,664,2776
117,110,56,416,175,2441
73,82,41,918,-339,2392
126,61,-124,-284,162,1965
105,-60,84,482,418,2233
-122,-114,54,214,84,2218
-73,-81,66,-593,-98,2197
-94,-123,97,774,-330,1661
-127,-33,91,-646,27,570
59,-37,81,-598,-420,-588
-20,71,107,792,-34,-771
-32,70,92,-59,74,-1030
-40,21,82,-445,42,-1159
-26,-11,92,-510,55,-1340
-39,-49,88,-397,-10,-1280
-55,-70,95,-789,180,-1095
-62,-78,85,-598,119,-950
-82,-65,78,-722,-10,-651
-77,-47,82,-491,140,-563
-81,-32,75,-544,30,-450
-81,-5,90,-592,73,-337
-70,4,94,-430,70,-342
-80,24,97,-495,4,-248
-74,43,114,-392,198,-292
-10,107,-115,-2883,27,-7618
-108,47,60,-3190,-153,-6854
-40,-13,122,-1694,-642,-3001
99,78,-104,-1733,-1028,845
-79,35,15,-873,597,1032
-94,93,-112,338,906,2899
31,-110,10,1933,-1935,-583
115,-46,15,-1735,-1290,-2249
70,-42,121,-606,295,-1040
79,105,-2,-593,-76,-549
126,-77,5,-943,-391,-362
-71,-75,2,-245,167,-594
-46,-108,-110,350,-235,-751
-36,-86,-126,-690,168,-722
-100,126,98,-785,-98,589
-91,-87,90,-139,-354,1190
-84,-12,81,3,-382,1912
-4,68,74,1378,-493,1995
81,122,91,-90,-827,2694
108,-97,-127,728,-1,2200
-70,105,33,858,-641,2359
-104,40,53,934,-285,2121
-78,-22,66,-50,-612,2123
-95,-48,87,-171,-77,1674
-105,91,98,665,-569,2161
-92,110,106,598,-18,1799
125,-122,103,134,-319,1509
96,-105,93,-601,75,949
51,-122,88,-1274,18,-34
15,81,85,-568,-5,-1558
-14,-22,98,-159,288,-1000
-20,-6,68,-368,206,-1503
-33,-65,66,-212,99,-1128
-34,-75,59,-392,261,-1254
-41,-74,48,-525,73,-1121
-56,-95,56,-399,123,-855
-65,-73,60,-579,86,-695
-79,-69,67,-437,48,-465
-70,-32,87,-631,221,-351
-73,-5,84,-706,112,-287
50,-70,-33,-2488,-1241,-6312
-120,18,49,-3374,-2225,-5081
78,-23,42,-2717,-949,-2582
-34,-83,-104,-2017,-966,-1002
127,59,107,-2447,4,2018
-53,88,29,-744,425,4548
-55,-62,-10,-3487,-1936,-636
-18,-114,-18,2196,548,-4346
6,64,75,-1230,-655,-200
37,120,-97,-769,124,-440
127,-46,-100,229,-23,-431
-3,-9,-120,-51,841,-1153
-8,114,-48,1120,80,-1688
-53,77,117,-317,-70,-648
-116,78,75,-154,-379,-366
-103,-81,103,-877,-1031,1347
110,-23,-115,921,-896,1743
-30,108,-113,952,-552,2170
70,-103,-116,1187,-598,2262
69,-110,82,699,29,2536
-81,-80,107,1021,-666,2474
-83,99,49,1457,-424,2148
-108,111,107,-679,-153,1845
121,-21,77,197,-438,1897
-121,-59,107,449,-363,1797
-115,-108,126,519,-345,1562
-117,-68,-119,-154,-330,1044
90,-80,-125,-59,-384,392
28,-117,120,10,-447,-175
-6,102,107,-175,-262,-577
-20,65,87,-492,30,-883
-34,36,78,-855,262,-1158
-28,12,64,-778,258,-1388
-38,-19,60,-614,116,-1293
-59,-30,79,-759,188,-1180
-64,-32,79,-654,245,-1071
-72,-40,69,-465,237,-1021
-71,-46,78,-353,203,-803
-81,-33,73,-457,121,-627
-92,-7,84,-440,217,-428
37,-85,20,-3906,389,-6498
11,48,-24,-3637,649,-7537
80,84,80,-3532,965,-5875
-18,-13,34,-775,1384,-1944
-59,-47,-13,319,-767,634
20,10,120,-2398,534,4303
-95,-24,-71,2003,-4475,1536
79,58,76,-680,-137,-4952
84,25,-49,-46,1371,-1328
18,0,-24,-417,-690,-397
79,-127,74,-584,-61,295
-53,6,36,-676,283,-1111
-29,-77,-17,-324,60,-1120
-69,100,-121,-155,-677,-684
-67,-120,125,-126,-350,-676
127,-97,124,-1190,-239,281
110,-80,89,33,-1540,1459
-22,-17,-123,944,-1177,2218
6,-96,104,-320,-671,2356
-102,118,-35,1367,-809,2337
-49,-41,111,133,-113,2601
-99,-102,-83,666,-1416,2310
-69,20,-93,1700,-108,2307
-54,73,110,-795,-74,2253
-96,14,98,222,-1238,1678
-106,-67,-68,531,-868,1701
-110,-49,-44,364,-261,1196
86,-39,-118,1120,-633,395
26,-63,-107,338,-8,-671
-13,-125,107,-560,128,-1040
-18,73,96,-683,176,-1275
-5,4,86,-584,478,-1608
-26,-40,59,-451,200,-1592
-67,-120,75,293,96,-1183
-89,120,72,268,-57,-494
-65,-59,79,-772,155,-789
-64,-59,77,-969,203,-630
-78,-39,78,-798,21,-452
-86,-12,90,-736,45,-352
-83,15,104,-782,14,-203
54,-20,49,-3766,-205,-7475
67,57,79,-4666,-140,-6241
-45,-106,13,-2143,684,-3167
-38,-116,124,-1552,-718,280
49,46,27,-574,303,3592
-128,16,-102,1955,-219,1245
-37,24,62,-1994,-326,-2228
89,-37,-69,-376,-132,-1632
114,-27,42,-478,-74,-911
96,20,37,-651,-232,-336
-39,95,-26,-134,-120,-741
-21,127,-100,281,82,-1575
-25,59,82,503,-640,-1148
-80,107,55,-647,-1568,26
102,-77,116,-352,-841,112
81,20,-80,952,-1449,1850
121,43,-26,1955,-559,2347
-58,-126,102,656,-322,2123
67,93,-21,690,81,2771
-101,82,-107,2177,270,2508
-66,58,-99,1669,616,2932
-57,-7,-4,570,1152,2344
-119,-23,-45,-617,-362,2098
122,-109,62,-739,-911,2089
-91,113,121,-32,-236,1996
-88,111,101,534,-264,1709
120,-39,96,-766,44,-16
57,-73,70,-755,47,-1039
-13,19,80,73,-250,-1177
-28,-10,83,-139,-17,-1182
-34,-15,72,-845,140,-1342
-39,-69,63,-586,156,-1272
-43,-69,62,-739,214,-1117
-59,-72,61,-723,-62,-1004
-64,-74,86,-424,145,-844
-72,-62,75,-455,119,-723
-74,-48,89,-562,128,-424
-69,-8,88,-697,115,-459
-80,-1,93,-485,116,-328
-83,26,97,-486,226,-244
122,112,3,-8171,7,-6340
-86,40,24,-4671,-280,-6690
-85,80,7,-3989,856,-4662
-2,-110,29,-3387,1668,-2607
95,55,63,-1845,-312,-907
-45,-75,41,-2117,27,1241
-101,62,12,-608,-443,2957
-114,127,-36,-127,-648,-121
-2,58,26,91,-248,-3912
20,82,117,-1213,374,-829
34,34,52,-428,-13,-1047
66,82,-121,413,430,-939
-87,-62,54,542,1001,-2028
126,118,-76,269,-1353,-1155
82,102,110,294,-2162,-374
65,-106,-62,-1008,-556,-224
10,-83,-61,-768,318,-17
24,-62,99,580,-11,608
-101,72,64,160,-1787,1399
-56,117,11,1421,-1208,2526
-51,-95,-9,774,-776,2157
39,91,-34,941,-106,2642
89,96,-78,899,-995,2736
-110,38,-65,971,-606,2752
-104,28,-99,621,-520,2785
-11,-70,-104,1782,-591,3076
-39,-27,118,1691,-1298,2560
-110,31,-91,812,-1161,1525
34,60,-106,-379,-461,-273
-20,-62,-107,-152,-149,-1258
-38,90,-93,-231,212,-1483
-27,97,-98,-2042,913,-2281
-69,-60,-124,17,246,-1885
-94,-97,126,230,459,-1732
-113,-102,98,-87,320,-1301
-125,-95,85,-718,401,-827
-94,-77,84,-578,-12,-722
-79,-81,95,-502,243,-632
-99,-52,106,-783,-103,-272
-108,-34,121,-527,99,-275
102,119,-44,-3691,-1218,-5146
124,41,-110,-3947,-1488,-3790
-71,8,86,-2613,-371,-2393
70,31,-106,-3266,-241,-1363
114,13,48,-1735,-294,1033
-10,1,84,311,-218,4487
41,82,107,722,-131,-2695
118,105,-110,-232,-579,-3347
-13,37,-57,-983,-79,-213
-9,63,90,-562,-46,-510
83,-94,74,-615,-39,-351
103,-110,-5,-338,-34,-484
-109,98,-54,1774,192,-838
104,115,27,1171,-2081,170
95,-55,86,-367,-610,-58
86,-74,-122,-343,-226,1162
73,22,88,807,-661,1489
-47,3,63,3294,-2071,2340
16,117,111,1407,559,2385
-124,-82,47,325,304,2647
-115,-110,69,542,-525,2501
-114,63,43,1551,192,1940
-96,-14,67,1324,-686,2412
-95,0,80,845,-42,1695
111,-101,78,2287,-557,1731
78,-96,105,1891,-456,1314
40,-78,127,316,297,285
-16,-108,119,-651,285,-116
-17,113,102,-1580,297,-916
-44,32,85,-646,120,-1160
-53,-27,95,-128,32,-1214
-69,-91,95,-51,214,-1284
-63,-112,105,-721,707,-1045
-72,105,66,-56,141,-869
-85,-122,64,-177,76,-803
-88,-111,75,-488,52,-467
-64,-50,100,-944,473,-718
-78,-48,95,-479,143,-417
-71,-15,102,-452,283,-538
-73,1,102,-561,177,-507
-13,88,110,-4191,-1128,-6842
16,29,71,-3837,-1659,-7625
-22,-28,28,-4239,-313,-6424
-42,104,-50,-2191,-264,-2778
105,65,-46,-696,-552,56
27,120,-48,-627,-119,4611
29,124,93,-251,-484,-2038
-20,-80,91,1174,-619,-1569
98,53,0,-1530,-211,-1869
-4,-121,66,-1243,-6,-82
120,-72,44,-542,-77,-995
122,57,-23,-130,45,-602
-100,-128,-112,-270,-1345,-319
-115,86,-81,243,-385,-192
-108,-72,-116,-455,-615,235
-81,-54,-74,851,-768,974
-85,72,-31,1480,-142,950
-66,16,121,1482,302,1486
-41,10,12,1484,67,2406
24,59,30,1473,392,2279
87,57,23,655,-77,2471
87,-128,94,-982,110,2147
-126,32,-126,9,-397,2124
-118,-26,-120,585,575,1937
-125,-91,53,823,-251,1802
-128,-73,84,-352,-22,1514
97,-101,96,43,-665,748
39,-112,125,-517,-30,-57
-31,60,-117,116,-49,-115
-11,42,-119,262,195,-368
-2,28,111,79,213,-697
-22,-19,94,35,221,-943
-5,-48,74,-141,254,-848
-4,-48,56,-676,179,-857
-23,-63,55,-801,66,-843
-26,-61,61,-486,62,-883
-19,-62,72,-336,212,-877
-48,-51,61,-574,-8,-752
-56,-51,81,-458,127,-563
-55,-28,91,-412,181,-363
-30,80,-32,-3555,-656,-7039
104,26,26,-3231,-843,-7201
-12,-105,57,-3326,-44,-4338
-117,108,56,-1070,-914,-1979
70,-122,-55,-759,-692,1674
46,-75,-71,-3680,-362,2158
101,119,85,2695,-434,-3542
122,-115,66,-996,-115,-1748
-95,55,36,-976,-685,182
38,67,124,590,-5,-614
101,113,115,498,337,-511
-120,-75,8,22,-285,-854
119,121,-39,-587,-381,-146
115,127,-82,-352,-257,10
66,-94,-121,-33,-712,814
91,-97,-120,1537,-319,1381
-93,33,88,586,100,1717
-51,50,64,201,-73,2281
47,63,60,773,-106,1625
-119,60,65,316,-311,1533
-85,-91,-123,-359,-35,2273
-37,123,110,703,-399,2310
-72,-117,99,-51,-395,1859
-119,10,109,961,-865,2043
112,-28,101,1244,-410,1672
90,-72,114,1269,-549,1616
52,-62,-95,911,-408,1084
20,-73,-66,463,441,145
44,-55,-43,-1114,1484,-1301
17,-114,118,-1709,963,-1370
-13,39,105,-102,-248,-828
1,74,111,-1127,-12,-992
15,35,106,-926,303,-1085
10,4,91,-397,383,-1049
13,17,67,-766,240,-1521
-1,16,76,-1122,-16,-1133
-23,-9,105,-209,148,-1004
-25,-9,100,-90,107,-670
-37,27,108,-675,-1,-624
-50,36,117,-603,-14,-267
-71,44,104,-4496,-993,-6819
19,-81,-126,-3188,-837,-4331
-33,32,107,-2279,-257,-1138
82,-99,111,1259,-142,4015
10,37,-5,-3264,1302,2983
103,112,39,1335,-1077,-4941
-31,122,100,-594,494,-545
32,93,-34,-1192,-157,-942
40,67,87,602,-233,-576
122,-38,9,-344,-183,-894
-120,-91,-24,207,-71,-1085
97,121,-98,1220,-1336,-467
107,-22,-98,-703,-900,-54
46,-45,-71,-217,-429,336
110,4,-35,430,-685,544
110,20,-55,501,735,891
-128,58,-107,1254,-761,1776
6,126,126,373,489,1668
-7,80,48,1118,-459,2161
114,61,77,276,-337,2755
-57,102,80,121,165,1937
124,-46,50,867,-448,2605
-118,8,73,279,-467,2302
-100,-70,-86,1033,-283,2758
-66,-73,-105,1723,-675,3473
-14,-105,-79,1784,-257,2638
-93,-128,117,-2188,19,195
44,10,65,-1380,-294,-1499
5,100,104,-399,-73,-1633
20,68,111,-1642,669,-2226
6,-5,105,-938,397,-2225
-10,-60,89,-613,324,-1862
-48,-84,77,-264,262,-1307
-64,-77,56,-234,207,-1026
-77,-51,45,-700,190,-670
-67,-37,62,-628,-25,-458
-72,-7,74,-603,36,-306
-74,14,95,-549,149,-212
-69,43,101,-522,-79,-115
-72,75,-127,-492,67,-82
-88,67,2,-3595,348,-6121
-15,86,32,-3379,489,-7451
-122,4,-32,-3525,-359,-7131
-83,78,102,-2661,-198,-4386
89,11,31,843,-1348,-462
-108,71,-96,-1333,128,4814
10,7,107,-532,-93,1230
-72,66,-60,111,-1647,-4899
-41,-100,-47,-1912,133,-283
58,7,83,-1154,-363,-1024
72,29,108,-184,-608,-792
67,2,90,-183,43,-332
-118,95,23,-878,491,-579
-123,74,-64,388,-32,-452
-122,110,-93,-101,-605,415
-104,-111,-67,428,-411,943
-75,-65,-96,1033,-371,2325
44,113,65,1241,-399,1519
95,126,85,441,-869,1834
103,47,61,839,-529,2203
106,42,57,1048,-736,2775
-51,86,62,382,-587,2471
-57,49,-117,961,-307,2210
-80,36,-126,775,-453,2107
-118,37,-108,486,-329,1722
-127,30,-96,426,149,1311
80,-30,-107,336,395,988
46,-80,125,950,-26,364
31,-94,121,-290,3,-389
-20,98,118,-496,-381,-1288
-46,5,122,235,-215,-1203
-15,-15,-124,-304,288,-1480
-13,-29,103,-764,66,-1577
-23,-91,109,-339,33,-1378
-47,-106,109,-593,60,-1038
-76,-103,89,-570,-106,-845
-84,-67,116,-873,131,-789
-78,-78,124,-282,337,-381
-73,-29,99,-529,73,-322
-68,4,112,-637,169,-285
64,-112,41,-4060,61,-6731
-4,95,81,-4841,337,-7779
-115,29,115,-2598,124,-4250
71,63,63,-1682,558,-1524
17,-15,113,584,-816,4255
36,40,24,1401,132,4819
0,1,99,-4403,-473,-4999
-113,-81,-18,3134,-582,-1749
39,-37,70,-1899,-234,-965
15,25,-115,329,-440,-725
-116,-62,54,20,123,-1188
-75,-71,-29,274,-504,-1053
-90,-95,117,820,-1552,-1139
-127,-112,-123,77,-698,-185
46,-117,121,43,-350,387
60,-79,-125,1154,-1178,1764
83,17,112,956,-210,2038
-39,66,-119,1625,-643,2814
56,67,97,1684,424,2751
-104,-127,72,1585,338,2549
-118,-16,19,1681,389,2720
-80,51,52,-414,442,2478
-128,-30,85,416,165,2161
-92,-71,125,594,447,1715
-119,112,114,1142,-28,1954
-100,-50,123,-594,204,1005
70,-92,94,-239,-220,-100
19,86,99,278,9,-660
-5,21,78,-73,194,-973
-11,-22,76,-242,177,-1128
-16,-72,70,-406,13,-1100
-33,-109,72,-435,85,-912
-32,-86,62,-825,12,-850
-36,-79,64,-719,-27,-715
-43,-53,72,-716,42,-558
-46,-33,63,-585,-107,-565
-35,-11,86,-570,98,-585
-26,4,80,-521,97,-581
-35,22,84,-392,99,-668
-43,46,86,-641,238,-757
-69,-18,-86,-2885,-1335,-7013
-40,-82,118,-2728,-1372,-6441
-67,36,70,-3138,-175,-4628
-17,-17,-112,520,-3118,353
121,78,69,-2688,218,4866
-25,111,113,-186,304,1016
15,-120,-70,1323,-752,-5135
-67,106,-97,-689,-486,-228
-8,0,82,-1286,-494,-360
57,-86,-84,-126,-157,-670
86,-103,81,-236,-408,-88
104,-68,32,-553,-372,-458
-108,-126,-44,1032,-379,-687
123,-113,-95,451,-779,-432
-127,-90,-79,-591,113,-213
123,-96,-99,1111,-864,661
-74,-3,-76,681,120,1016
-111,48,94,1127,-373,2216
68,-118,-116,720,215,2248
118,92,84,1883,477,2343
112,105,42,516,341,2317
-117,126,31,-717,-286,2116
120,111,-108,-578,-686,1889
76,6,-56,387,-197,1852
121,-50,-74,1250,276,2010
-111,-66,107,1383,105,1579
-112,0,122,-740,-218,888
73,-119,-120,1086,-569,821
61,-115,123,1006,-240,-431
29,-96,104,-943,-167,-1157
-22,1,92,-271,-412,-845
-33,-25,90,-132,-158,-860
-19,6,75,-1355,209,-1281
-20,-60,96,-625,50,-1070
-37,-64,97,-251,34,-922
-47,-44,108,-683,161,-980
-44,-47,109,-748,306,-787
-68,-40,92,-419,258,-519
-55,5,101,-421,204,-368
-47,33,103,-415,285,-387
-13,31,-119,-4198,-892,-7434
-89,-12,27,-2044,-695,-7135
-62,-4,93,-2928,-961,-6211
59,-76,48,-2480,-1139,-4287
-8,51,-81,-1292,-2281,-1596
-11,-14,-97,-3155,-1127,655
45,-70,108,-4419,780,5058
-87,24,117,4780,-505,-658
-126,-11,-48,-669,-1069,-2618
53,-68,-90,-1480,-57,-687
9,62,-70,279,-319,-746
52,-105,-74,-603,-50,-447
116,-58,115,-540,-83,-762
-112,107,48,1585,463,-1365
120,108,-104,1519,-636,-1148
92,83,115,566,-783,-194
69,-112,100,-550,-1095,450
51,-89,-127,-93,-390,1307
111,-17,120,725,-665,2005
-23,5,59,2122,-465,2317
-1,54,17,474,5,2644
-37,-69,100,4,-1536,3026
-77,117,109,1608,-124,2812
-69,124,-111,829,-735,2978
-11,125,-124,1363,189,2064
-82,103,127,364,-206,1362
100,14,-106,753,-238,1120
55,-84,-86,1679,-56,1148
48,-57,-108,710,162,195
-5,-92,-122,-350,36,-526
-23,85,-120,-480,101,-980
-24,31,-92,-958,862,-1193
-22,-54,-127,13,471,-1460
-40,-82,98,134,-292,-1132
-18,-81,114,-744,292,-993
-31,-92,96,-554,234,-896
-50,-73,75,-610,8,-700
-48,-53,101,-676,217,-528
-52,-35,97,-375,43,-523
-51,-1,112,-562,115,-379
71,10,-30,-3569,-1510,-5953
-32,37,-107,-3547,-1146,-6035
-118,-57,64,-3879,-1140,-4597
85,105,12,-1682,-619,-1624
38,-44,-81,-3585,464,-538
30,-87,-34,-1612,235,5328
-15,13,-85,1568,-1891,3725
31,-95,39,92,-184,-6517
4,-65,-39,150,-851,-294
51,-114,113,-809,-25,-1419
85,96,-31,392,131,-952
-126,-81,-119,-49,1212,-1479
-123,76,0,634,-123,-926
-126,-128,-91,-25,-260,-864
102,127,120,-351,-968,-520
99,-75,-99,-805,-590,216
64,-25,-104,-220,-204,773
-122,18,-127,921,-404,1362
-55,106,75,881,-1038,2089
-25,-74,106,-102,-166,1965
74,-101,-79,-345,-789,2485
-128,118,-82,559,-375,2182
-103,-125,122,-461,-794,2201
-87,58,-55,-315,-1355,2549
-56,32,-10,-78,-355,2294
-59,41,-65,369,-1095,2179
-78,92,-14,-369,-758,1256
123,13,4,560,-596,899
55,-24,-59,1266,-321,238
47,-25,-92,263,-41,-647
1,-62,118,-326,-39,-1248
-31,90,123,-109,184,-1437
-27,47,105,-115,295,-1468
-43,34,89,-832,113,-1480
-35,3,104,-865,287,-1473
-50,-20,98,-588,39,-1333
-66,-33,121,-374,304,-1208
-78,-29,108,-512,273,-1033
-99,-35,104,-462,161,-585
-102,-13,112,-589,122,-314
41,-66,-114,-3326,-1472,-6068
121,-123,77,-5592,-515,-5940
-94,-65,75,-2672,-944,-4315
-83,81,-88,-1852,454,-1999
-86,112,82,734,-111,2365
-117,103,-50,-1020,1776,4782
-82,87,11,-1634,-2381,-1196
27,-55,-52,226,179,-2927
13,56,105,-794,-464,287
110,-84,70,-587,-301,-908
120,-118,115,-235,-156,-730
-110,-70,18,-858,-344,-726
-110,116,8,649,28,-942
-120,127,-99,1449,-763,-1185
-124,116,-80,621,-418,-425
109,-54,-116,-1262,-123,-25
115,-43,-98,-17,199,701
-86,-30,99,1525,-816,1394
-74,20,91,1272,159,1832
11,102,112,273,-546,2166
60,60,82,1078,233,2416
106,-46,-115,-667,-525,1805
114,117,1,3,98,1909
126,70,-62,1323,307,1628
93,56,-98,-25,25,1482
97,50,-99,-743,-60,1064
83,-45,-88,973,51,807
70,-40,-105,429,-6,424
45,-105,-118,288,150,120
21,123,127,2,-37,-153
14,78,124,-121,77,-434
12,72,-127,-450,260,-746
0,51,112,-440,120,-816
-8,19,121,-302,108,-801
-10,17,119,-284,170,-803
-14,23,111,-458,128,-859
-13,10,108,-374,188,-773
-25,15,104,-378,30,-626
-20,23,116,-312,134,-547
-33,37,117,-388,79,-470
-67,57,-12,-4070,-529,-5796
-95,-29,107,-2063,182,-4082
4,76,108,-2205,-63,-1668
89,91,-105,-421,-1643,1234
105,90,88,-2810,618,3935
64,-30,-127,-1769,-607,-3282
-64,-93,-102,1743,-537,-1680
50,15,86,-486,-17,-1343
3,4,56,-476,-214,-410
101,-50,56,-326,-235,-836
-118,-55,57,-263,2,-615
-116,-78,-19,879,-784,-497
-100,-27,-70,484,-651,-739
-128,-41,-62,-36,411,-622
-121,-24,124,394,-1301,447
-92,3,-74,1204,-269,974
93,36,-113,1347,-926,1588
-72,33,-89,1458,39,1864
-24,49,91,1450,611,3153
-114,-50,73,281,197,1993
-117,-123,91,32,-494,2098
101,94,-105,464,-288,1871
112,13,-108,584,-147,1844
84,-6,-124,328,439,1458
91,-54,118,326,-124,1742
94,-60,-127,381,-44,1244
112,-86,-121,343,-156,827
64,-64,110,-76,-100,-69
25,-113,84,-318,186,-1002
2,81,76,-778,13,-1364
-23,-10,83,-321,-116,-1187
-27,-11,106,-532,329,-1212
-19,-17,97,-357,279,-1335
-26,-50,97,-317,159,-1115
-41,-55,94,-467,193,-893
-51,-36,99,-559,207,-744
-62,-29,95,-472,148,-422
-58,2,103,-553,160,-280
-55,23,105,-351,171,-115
-50,59,116,-571,179,-149
-35,-20,38,7089,5413,-8472
-99,-108,-13,3231,-2246,-3424
-11,-119,68,-1703,3299,-2510
20,98,-63,-1522,526,-3142
-69,109,-97,-1495,-1182,-3567
49,-49,-43,-2211,-2156,-4223
-84,-34,24,-2464,-1962,-4826
-54,-77,114,-556,-1602,-2825
-100,32,-56,-220,-85,-2156
-70,-14,103,-118,816,-298
-76,-76,3,-4432,1525,2490
67,95,-110,3848,2,3058
-71,113,107,-796,-2561,-3614
-118,101,-88,-780,322,-1217
122,51,1,-1006,-285,-970
-120,-108,56,-624,-246,-818
-55,-71,24,-305,-390,-1025
-50,-82,-94,-199,-901,-1380
-47,127,119,63,-1021,-1074
-75,-71,109,-945,-761,-340
58,-118,103,184,-484,646
124,-5,-113,-834,-772,2430
-96,33,-119,651,-612,2259
-7,-121,-88,809,-353,2838
-100,-78,-104,-41,-48,2508
-50,121,-110,1073,-323,2800
11,-124,115,309,-267,2500
-11,93,127,313,-618,2359
-59,52,-120,447,-370,1877
-80,-4,-127,770,-701,1480
-120,-55,-98,956,-543,1262
110,-88,-112,1569,-345,773
62,-99,106,1186,-310,54
18,123,86,-210,-46,-837
3,57,68,-873,198,-1180
-2,18,64,-996,234,-1449
-4,-28,60,-734,43,-1579
-5,-56,75,-359,160,-1623
-28,-71,86,-619,-74,-1445
-55,-81,87,-771,114,-1193
106,-32,-21,3566,2739,-4024
22,-121,-114,-1208,925,-5148
56,25,9,-308,2384,-3505
-65,13,-82,-50,2023,-2111
50,69,-72,-475,937,-977
-98,-117,-13,-1221,-1055,-1079
-1,54,124,-1135,-2154,-4189
106,9,-95,-1000,-2399,-4958
116,61,-57,-1522,-2854,-5163
76,-116,40,-1452,-1809,-2908
46,63,114,-649,-778,738
-83,-98,-106,-1246,358,3029
-55,99,75,-1019,1027,3729
9,-16,108,202,-1356,-3477
-21,24,108,527,-759,-1125
78,-7,8,-1614,-466,-582
127,-88,48,-683,-501,-471
-103,-9,36,-753,-447,-793
-96,-63,-33,-230,-472,-879
-99,-98,-100,166,-689,-658
-95,-58,-111,-461,-743,32
-114,3,-91,-931,-447,154
-93,18,-52,38,-420,1006
-36,92,-66,762,-951,1064
-23,104,-71,972,-536,1736
-2,-108,-41,498,-168,1608
55,94,-84,619,-904,2584
115,123,-54,221,610,2077
-71,85,81,923,123,2089
-96,73,60,-192,-520,2006
-124,33,-120,-756,-389,1948
-109,-25,112,624,-480,1673
-124,-96,101,1241,-1076,1938
-101,-41,-104,-335,-474,1382
108,-60,-125,375,-302,458
38,-96,96,876,-191,-265
12,-119,75,215,-132,-670
6,109,83,-594,169,-1139
9,65,72,-552,155,-1517
3,35,84,-707,149,-1845
-116,-112,88,3582,2752,-4434
-64,90,95,827,1834,-4429
10,-118,-50,-1967,1892,-4914
-9,-123,-57,-683,2414,-3291
-17,78,66,5,1556,-2018
-42,102,-57,-1643,262,-1287
83,-84,50,-580,-1710,-1911
99,106,-95,-340,-2102,-3355
89,103,87,-31,-3015,-3480
-128,-127,81,-661,-2372,-2974
-80,-57,91,-167,-2000,-1582
-99,43,22,-2014,506,-205
28,-102,-36,-3368,-586,1280
84,13,66,350,351,3439
112,62,-4,2270,-1108,-1886
101,124,58,-603,-480,-2880
65,108,84,-1362,-39,-425
108,-117,54,-347,-392,-531
-79,23,44,-283,-331,-572
-81,-10,-23,-709,-100,-813
-75,-89,-122,136,-540,-958
-79,-67,75,-364,-458,-471
115,-93,92,-633,-379,472
-103,-50,98,69,-991,916
-60,-33,121,512,-685,2678
35,82,-125,478,-765,2590
-68,34,-118,1224,-237,3189
48,115,50,764,-147,3391
-106,-128,73,153,-929,3194
-104,112,121,1293,-152,2326
73,59,120,507,-635,2293
25,51,72,369,21,1214
-108,-53,69,823,-684,1218
112,-74,84,506,-56,598
79,-100,99,449,174,69
45,122,75,209,-181,-357
32,103,89,-442,153,-1075
11,25,78,-425,162,-1349
6,-12,63,-345,134,-1490
6,-36,58,-571,-13,-1517
-16,-51,-27,4491,2709,-3156
-54,-100,-106,328,2222,-4811
-34,-2,107,917,3187,-3578
-126,-66,-39,466,3023,-3094
23,92,-59,424,1732,-2452
2,55,-49,-631,339,-2076
-91,-42,-46,-624,-730,-1952
91,-53,48,-1241,-2085,-2492
-102,-88,65,-772,-2708,-4229
-88,-121,18,-103,-3298,-3725
-111,-36,78,-815,-1910,-3036
60,2,74,-236,-822,-858
99,-16,-52,-1314,-683,1454
72,-29,90,-2168,907,5278
125,-42,-30,-919,-698,-2087
103,39,105,210,-891,-2796
32,94,99,-674,-316,-386
126,-47,32,-943,-186,-983
120,-17,76,-941,-399,-261
-108,-3,44,-383,-269,-321
-108,-59,20,793,-121,168
-88,-26,-77,127,-54,-569
-54,-79,85,-53,-145,-287
-76,-74,51,-1090,-498,455
-40,1,53,-544,-549,1010
50,-116,92,75,-1219,859
25,-116,113,-195,36,732
21,-3,123,851,-1572,1964
34,44,-123,-10,-370,2382
-48,98,-69,165,-248,2745
-2,73,-100,1061,-405,2793
14,70,-125,930,-481,2767
21,28,108,1170,-106,2300
-25,2,79,869,-289,1549
-68,-65,84,722,86,1331
-104,-126,50,667,-222,959
109,108,69,713,-837,545
47,-107,96,-343,-62,-661
35,112,88,-866,378,-1518
21,24,73,-303,150,-1456
-39,67,41,2395,3524,-5172
-93,7,43,1360,1029,-4847
31,87,94,1370,4314,-5088
-90,-15,-95,2051,2606,-3373
86,-67,-15,-1184,3523,-2802
-37,-24,-111,-968,849,-2114
-71,-126,9,-1991,-2638,-1744
88,-21,6,-1518,-1961,-4957
28,-19,-46,-1281,-2985,-4812
87,-110,-27,-978,-210,-3234
105,-21,-104,-2298,8,-559
45,58,-16,2809,-1188,1500
8,61,-116,-2935,658,4477
-113,83,-79,1762,199,441
67,-68,46,-664,-879,-2984
-97,-41,87,-1181,-230,-1031
-117,-128,61,-725,-494,-976
-86,-56,85,-218,-562,-719
-90,-57,-22,-486,-1034,-730
-76,-74,-51,-506,28,-1212
-102,-87,-83,-173,-366,-871
-125,-83,-111,562,-1273,12
75,-56,-83,-163,-902,225
120,-24,-67,119,-356,1117
-100,52,-113,1113,-582,1654
1,78,-77,1070,-555,1936
53,77,114,420,-50,2171
-105,114,-110,-83,-350,2327
-105,30,91,1200,-57,2117
-78,71,60,225,-404,2360
-75,25,108,340,68,1975
-71,0,50,511,36,1726
-95,-29,64,583,-458,1422
-97,-5,84,-286,-183,689
100,-28,93,-116,-431,155
57,-98,93,202,-158,-545
18,120,79,-297,-68,-936
-1,72,71,-456,-14,-1140
-11,21,59,-631,153,-1332
-22,-18,56,-422,45,-1165
-12,24,112,2964,-1587,6408
8,-96,-44,-3962,3451,4198
-19,-66,13,1992,-3719,-7389
30,-81,92,681,-1124,521
39,-85,125,-637,52,-592
-105,5,108,-368,-477,-627
-66,11,50,-489,221,-1051
-97,-58,-76,-1571,-244,-375
-72,-48,-71,-1028,100,-447
-44,-30,-85,-553,767,-1124
-92,-66,114,-290,-743,402
-96,20,115,-105,-1233,962
-1,29,-67,2351,-1209,2257
15,56,83,1446,-909,2366
108,126,98,529,-1962,3259
-11,66,-87,1968,217,2918
-8,66,85,173,773,3012
25,44,48,-220,-317,3327
87,-7,84,640,-312,2942
87,82,115,-172,-137,1563
-26,-8,115,748,-592,954
-100,-40,110,754,171,-81
85,103,56,448,391,-757
42,-9,27,554,139,-613
-2,-37,39,24,-206,-602
-5,-71,51,-145,98,-574
-11,-61,69,-381,-111,-523
-16,-42,77,-634,-49,-634
-23,-29,88,-682,-14,-746
-34,-38,104,-385,66,-679
-43,-26,95,-619,89,-642
-39,-5,95,-889,19,-712
-49,1,109,-583,136,-725
-53,-1,106,-435,216,-620
-61,34,114,-571,66,-681
-62,12,123,-54,315,-838
-57,3,112,-354,297,-756
-73,0,101,-558,242,-691
-88,9,107,-637,190,-643
-89,7,119,-529,326,-601
110,-46,24,4457,1924,-4604
56,-54,-113,2906,-470,-2949
7,-68,75,1677,-533,-692
31,-19,72,-1462,1430,180
74,-81,-16,-3570,371,295
-59,-114,97,248,-1181,26
14,-82,-49,-933,269,-755
-108,6,-62,-186,8,-795
-127,-5,-78,-569,371,-656
-102,-11,-109,-415,100,-487
-112,3,-128,-143,380,-508
90,-28,102,209,681,-471
84,-31,43,-317,-72,135
103,5,45,-1119,-168,705
113,92,72,-1641,-466,67
-122,26,-118,-1265,-53,406
-44,73,-104,-1504,-73,169
-41,46,-99,-1005,105,361
-36,36,-102,-481,219,389
-49,51,126,-319,250,407
0,70,-119,-147,-57,-138
-35,74,-121,29,8,-608
-73,56,-105,-306,-13,-844
-103,27,-96,-323,16,-526
-116,30,-98,-229,121,-453
-102,51,-104,-316,114,-461
-103,59,-107,-443,95,-457
-111,55,-99,-200,30,-549
-106,45,-96,-80,315,-684
-117,37,-115,-266,135,-547
-124,33,-109,-240,139,-484
-122,47,-103,-312,246,-560
-114,37,-112,-115,164,-567
-114,35,-106,-200,200,-535
-124,34,-110,-112,121,-555
-126,38,-104,-270,170,-539
-128,44,-99,-406,104,-517
124,47,-89,-313,169,-549
-128,41,-86,-232,208,-546
-125,53,-97,-492,121,-584
-47,55,-51,8573,3588,-6671
-39,36,-45,-1195,813,-5007
-101,4,-9,3112,2409,-3394
-111,-100,-113,-1544,1829,-2435
14,-14,-6,-2400,-514,-4066
-90,67,99,-3588,-3186,-5730
57,-121,-110,-2369,-2297,-7373
75,-37,-25,-1445,-1097,-3236
124,95,-79,2551,-36,377
-40,38,12,-2367,1791,2656
115,28,-47,804,-654,2677
59,117,28,-2246,-892,-4006
81,-13,7,744,-169,-551
67,57,-9,-1452,-482,-134
-108,108,11,-472,49,-397
-35,-46,-98,-193,-661,-900
-39,121,96,-520,-950,-398
-93,93,70,440,-1468,646
-85,-55,102,-518,-391,898
-68,-38,87,861,-928,1695
-15,22,89,1117,-728,1674
28,44,76,522,-196,2477
-99,61,112,-428,133,2434
-65,63,85,835,-251,2384
-36,37,94,84,-776,2767
-22,55,-108,-156,117,2184
-30,-22,89,1312,-318,2108
-64,7,68,865,-705,1279
97,-63,118,571,-512,914
72,-30,-126,-389,331,-243
18,-100,101,110,46,-579
-15,88,75,252,-154,-869
-18,58,89,-325,192,-1067
-9,31,90,-621,152,-1261
-20,-14,71,-361,139,-1702
-19,-57,87,-436,156,-1818
-53,-116,89,-474,159,-1429
-80,-118,79,-474,236,-1083
-91,-103,74,-541,95,-650
-88,-81,87,-480,212,-357
44,54,-36,6681,-1415,-3493
-69,96,25,1996,2462,-4879
-90,-31,-66,915,3001,-3474
46,27,76,125,2355,-2426
-11,-35,-14,-208,1120,-1913
-1,119,91,-1837,-1582,-2538
-15,-21,-8,-2871,-3314,-5502
-74,-75,-63,-3013,-1915,-8169
-109,11,-64,-3202,-781,-5291
56,105,-126,515,-52,128
75,-19,-70,-1140,1426,2973
-107,-2,89,606,718,3525
6,-55,72,-1382,-1502,-3030
-28,-95,-55,160,-499,-1260
43,-58,-103,-747,17,-89
-63,9,57,-808,-697,-283
-67,127,-4,-223,-283,-43
-7,-69,-96,154,407,-1004
-23,-128,103,-327,-487,-185
-62,118,67,-466,-453,431
-51,-54,65,-1909,-562,1392
12,-6,104,-181,-306,1068
-110,-119,-94,-673,240,1216
-121,65,119,1474,-363,2170
-40,127,-119,-51,-1654,2925
2,-98,-29,-374,-365,2770
51,84,-91,534,-1236,2968
74,51,-99,736,-799,3140
55,102,-125,512,-1712,2249
-59,63,-105,347,-1163,996
111,-21,-64,328,-335,706
63,-28,-117,552,151,-316
17,-101,115,356,-147,-639
7,65,100,-9,391,-945
16,35,87,-476,751,-1336
23,-2,48,-517,393,-1506
12,-68,45,-315,6,-1468
-9,-92,65,-198,213,-1245
-24,-89,61,-518,106,-1058
-37,-93,69,-594,97,-767
81,41,74,-3216,-2149,-5153
91,63,16,-1991,-69,-4725
-119,-75,-125,2605,-2387,1035
-63,86,47,-1464,2091,3535
85,-45,126,1170,-1053,3099
-63,-2,-60,-1249,-1263,-2744
-24,-3,-61,173,-149,-1554
69,38,120,-1624,194,-338
-78,-84,54,-26,-277,-387
-7,-9,-46,-974,73,-561
-34,-107,-82,-251,-161,-610
-72,-126,84,-754,-825,341
-57,-90,123,-930,-372,739
-8,-24,-115,-675,-336,1137
49,17,108,581,-792,1417
105,50,-109,706,-339,1722
-72,68,94,122,-1231,2181
-75,25,101,888,-288,2110
21,50,58,-541,-1231,2642
37,-4,107,1338,-445,2303
26,-74,24,1354,-548,2331
20,13,71,-1010,-414,1697
-39,-54,-91,174,-419,1679
-64,44,-97,565,-457,304
103,-13,-89,899,-199,-283
26,-120,112,689,276,-849
9,84,73,-255,45,-908
-2,0,77,-82,212,-956
-1,-16,55,-461,544,-1140
-7,-61,40,-202,20,-1053
-14,-88,50,-101,194,-815
-23,-69,52,-370,188,-865
-20,-59,51,-527,285,-758
-15,-61,47,-151,192,-609
-31,-31,44,-175,-61,-539
-42,9,81,-557,46,-406
-13,36,71,-515,282,-813
-18,8,71,-134,95,-906
-31,-2,83,-381,159,-813
-57,-3,83,-422,222,-746
107,-124,-86,1276,3516,-5234
16,-56,79,3473,903,-3334
-66,-37,46,557,1976,-3240
68,126,-98,-106,1546,-2198
-77,33,66,-1017,1988,-1922
-70,-30,107,-510,1237,-6
9,74,85,-323,63,-828
-65,29,-37,-1641,-1241,-2910
30,43,25,-1936,-1739,-4441
83,-6,-78,-2203,-1779,-4198
69,-101,-97,-1738,-1330,-3887
-114,83,109,110,-1201,-2171
127,-59,18,-528,481,-12
20,-87,94,-1274,1105,5077
-106,-126,30,865,-2866,-2821
-26,-111,14,-1595,-261,-2266
34,-125,5,500,-154,-548
61,-119,68,-367,-263,-358
122,-19,75,-843,269,-522
-105,-81,14,341,-45,-341
-102,125,-79,295,-165,-252
-84,-39,57,-1136,-1086,-157
105,68,-88,-359,-733,1149
-101,-75,-118,-529,-231,1364
36,35,-107,-686,-643,2254
127,107,-98,182,-872,1999
-56,89,-75,837,-1240,2252
-13,113,-115,531,-525,2095
2,48,-110,1504,-304,2274
82,28,-115,2221,747,1075
101,-48,79,1823,1037,2237
52,0,-2,535,-450,2319
9,36,59,-307,-1331,2082
-97,-13,114,700,-1039,1094
108,-39,-106,824,-137,552
86,-39,118,613,175,-200
26,-116,89,603,-99,-765
10,86,109,123,64,-1083
4,25,106,-74,182,-1293
8,-30,88,-503,122,-1372
3,-98,111,3755,2392,-4325
-36,102,54,904,2209,-3498
80,108,-46,-196,2642,-2636
-94,-120,50,89,2650,-1709
-13,-80,-80,-821,1887,-1401
-124,-59,103,-966,781,-785
87,-55,95,-1172,-797,-1242
62,53,-76,-897,-1411,-3410
105,79,29,-2232,-1366,-5040
-28,-24,-61,-1746,-1190,-6156
-110,-59,55,-829,-768,-4819
-8,-91,-21,-41,-2092,1354
47,6,-72,-3316,287,3747
118,46,-30,2094,-196,240
-4,-128,-78,-749,-1514,-3069
-112,36,-79,233,-291,-1029
25,114,87,-1242,-539,-361
96,-16,-41,-134,-143,-720
-109,59,94,-569,82,-1013
-97,-56,32,322,387,-1170
96,78,122,-245,-931,-402
81,101,69,-528,-1504,651
87,114,112,-601,-1186,1228
-71,10,118,-578,-1039,1485
-13,77,-72,268,-1180,1506
75,-111,-35,882,-1169,1345
80,-85,-66,522,-900,1355
102,110,-37,1566,-366,1316
104,-84,-108,-914,-628,1513
-127,76,-15,937,-788,1595
-110,45,119,2104,610,1235
102,83,18,1038,-1027,1276
91,39,123,830,-624,842
66,-6,-99,893,160,614
40,-35,-111,986,57,371
5,-43,121,140,267,-201
-15,-82,-118,-282,102,-208
-29,112,118,-61,177,-487
-30,108,98,-596,270,-696
-35,89,83,-1023,315,-857
-125,-42,-126,4239,2545,-4891
95,-104,39,2566,1019,-4272
-23,-119,-3,-1584,2718,-3766
-81,101,42,-349,2248,-2508
-59,-71,106,-1389,2146,-1298
127,-114,76,-973,743,-616
125,-77,108,-578,-712,-1255
33,-2,9,-805,-1821,-2888
53,11,-109,-2223,-1307,-5384
99,-99,56,-647,-2254,-5530
-6,-61,83,-1575,-2615,-3752
-41,-1,-102,-1302,-288,129
46,47,-35,-997,1149,7107
-117,72,122,701,-2248,2239
93,43,-125,752,-834,-4336
-51,-104,30,-536,-903,-750
-72,117,24,-2043,536,-873
-120,-101,65,552,-520,-1229
-110,-65,90,-958,163,-558
-75,-22,27,-160,39,-909
-67,-102,-61,857,408,-481
-94,-32,118,-329,-936,-844
112,78,101,408,-669,7
-95,110,96,-180,-365,1082
-42,-79,73,-1478,-915,1219
27,9,83,295,-773,2313
-111,44,110,-650,-2131,3066
-55,92,-70,-99,-867,2648
99,120,0,-104,-1281,2962
125,119,-35,630,-643,2132
75,-88,-21,-623,-1366,1957
40,-121,-21,308,-849,945
-78,33,-82,1821,-699,638
103,-1,-117,1231,-763,578
69,-9,-119,957,-700,25
18,-32,-96,471,262,-293
-8,-64,-125,-149,409,-660
-40,-107,-122,-27,135,-893
-30,59,-125,166,954,-1036
-31,27,78,-34,411,-1150
