AccX,AccY,AccZ,GyroX,GyroY,GyroZ
32,90,-94,-4431,5890,284
114,72,-123,-8357,3043,-2953
1,78,37,-181,2824,-1127
83,104,-63,-2428,539,-3805
97,117,-22,-2955,2600,-2059
104,-95,-59,-2927,-1629,-1464
-105,102,10,-3856,-2562,-2252
82,-23,105,2156,-5273,-3601
-62,-107,-59,11508,2596,4757
-59,105,25,6594,6367,5045
0,113,118,-12912,-7575,-9739
-5,64,-23,739,2326,875
3,-30,24,12604,7611,7116
-83,-81,121,-2872,-1888,-1759
-121,54,-31,698,-565,672
61,-54,50,4554,335,1191
104,-76,-45,5627,-1718,1761
98,74,-15,1169,-1336,1252
68,43,64,4232,-3488,1358
75,-9,-7,2920,-4291,231
79,67,-19,3351,-3555,-116
-8,99,-36,361,-3546,-2993
-44,-46,-27,4261,-2160,-202
-35,-44,-127,5197,-684,1137
17,-114,22,-341,689,199
-85,78,-14,-3008,1185,-430
117,103,89,-2514,-975,-116
-127,-123,94,3364,1951,963
-101,85,101,212,-45,-3
-86,-126,56,694,817,600
-69,-122,49,-538,35,-91
-51,-108,-3,705,764,460
-82,-109,0,345,468,178
-70,-125,0,-96,-106,-55
-59,-117,-42,987,502,339
-68,-119,24,132,-31,-21
-63,-114,31,21,-147,-111
-50,-107,-28,1130,743,307
-69,-122,35,69,-52,-144
-57,-117,1,411,156,-16
-71,79,-123,-8056,1684,-2593
89,-26,-34,-5631,6906,96
50,69,55,-5547,5237,-272
79,83,-69,-4633,2677,-1857
-110,13,-80,-4384,-2451,-3156
-21,-9,-34,-2693,3138,-720
105,-74,63,-2385,-1156,-2765
-69,-120,-117,-1054,-519,-1368
-50,-11,-53,973,-5102,-2420
107,96,64,10932,2536,5258
61,-20,-50,12430,8950,5465
-80,16,107,-17197,-9366,-10604
-63,-45,-82,-396,122,-493
-77,-120,-17,10706,8512,7022
-26,123,51,-1145,-127,398
-1,45,-28,-2187,-3335,-2382
121,35,-41,2971,-1048,498
88,-34,-127,7202,-187,2161
115,19,38,5796,-3651,181
-63,88,111,7442,-2341,2855
37,-10,-64,2174,-4578,-843
-7,122,-56,2233,-1739,94
74,84,96,-2655,-4431,-3256
-52,-14,-69,6416,-2096,99
-13,-48,89,6325,2458,2565
-97,73,-115,-4085,-129,-1623
-48,-121,-97,-6249,-2134,-452
120,-89,17,1474,986,41
-66,-126,-118,3399,1483,1386
-90,-125,93,-318,45,-2
-70,-99,35,-215,299,93
-68,-101,-23,536,459,270
-72,-96,-17,563,459,187
-75,-104,7,-27,45,-69
-71,-105,-31,510,250,63
-66,-102,-15,583,307,10
-52,-112,2,370,166,-18
-48,-103,-15,751,500,111
-43,-117,16,58,-14,-84
-46,-109,-17,553,312,91
-41,15,-104,-7092,4414,-2936
84,-38,-109,-7135,3477,-3128
123,94,-53,-7674,1138,-3202
-67,27,6,-6166,1249,-2656
64,-37,-93,57,792,-1489
107,18,3,-2381,-2860,-4040
105,29,-79,5866,-2185,-5736
67,-76,22,9276,4320,6119
106,-16,32,6332,11295,6962
-112,-79,87,-11935,-7973,-9121
8,59,90,-7761,-4018,537
-88,36,-52,11202,4641,2735
76,64,-47,5612,105,986
-21,-31,-24,2587,-2171,-1144
115,-85,-88,9316,-1117,684
56,-126,-115,9335,1426,3868
90,-28,-78,-382,-6245,-13
-65,-30,102,2093,-2371,-713
90,-117,-113,720,-2806,-2130
-30,-47,16,3354,-2419,-1399
23,-3,113,6386,2589,3112
-48,-113,92,-3495,38,-1453
-76,-55,-58,-6954,-2847,-953
83,-8,115,-2904,-1986,-943
-49,-6,-47,6775,3003,2281
-41,-88,91,1709,1180,1187
-64,-85,-106,-1554,-440,-470
-44,-63,-59,1155,951,496
-61,-86,-28,1006,356,165
-51,-82,-4,528,256,144
-48,-94,17,53,-235,57
-36,-90,-28,1170,712,421
-47,-100,44,41,-2,-18
-27,-103,-8,734,552,326
-47,-110,1,454,126,88
-39,-104,-1,637,412,183
-22,-109,3,413,253,109
-26,-111,2,496,186,108
-16,-100,5,462,447,204
-17,-90,-15,473,286,145
-93,-22,93,-6101,3648,-1752
87,58,-36,-7410,4433,-2537
60,-39,122,-7945,955,-2190
29,69,-100,-2348,2617,-2670
59,109,51,-3387,505,-3096
16,-31,52,-2322,-2064,-2889
-49,69,-54,2908,-2392,-2494
89,97,-100,7992,-206,557
46,73,-27,5262,8300,8703
-107,36,34,-4794,-1652,-5135
-68,-42,85,-7606,-3947,-3721
-51,0,-63,5186,2974,3843
-94,47,-35,5463,162,1783
67,115,38,608,-1193,2193
-12,0,74,4261,-2600,-400
98,55,12,11048,-905,2245
-99,-103,-72,8859,-2199,2360
-102,19,-4,1881,-4154,388
-38,115,55,5290,-3046,115
-54,68,9,339,-1886,-1180
29,-40,-119,2398,-2293,561
-124,20,-62,6599,1009,2127
-102,57,-62,-1801,123,-1358
7,37,37,-9547,-2669,-1577
107,-113,24,169,-480,-541
-56,94,-117,6328,2820,1640
-56,73,-1,-2883,-735,-467
-85,-118,-33,-1373,-489,-192
-71,-111,-87,1728,882,613
-66,-107,23,-439,56,-177
-50,-115,-33,567,617,202
-69,-126,-16,-290,-24,-150
-31,-120,-82,1243,630,355
-33,-124,10,514,393,91
-46,127,12,339,277,37
-40,-126,-1,467,406,30
-35,126,9,588,287,25
-26,125,37,249,140,-86
-18,121,20,225,160,99
-42,-128,-24,180,182,96
10,-57,-36,-5335,3541,-4745
52,64,48,-5717,-115,-5378
-9,65,-90,-12876,-7872,-5967
61,50,-66,-11246,1499,-6321
-17,-87,-39,13893,3483,6432
-63,24,91,-6623,-3120,-5865
45,17,111,1268,-3956,-8172
7,111,-29,11179,4734,5348
-2,-58,70,8745,11990,12906
57,-2,-6,-12653,-10334,-12065
-24,72,-115,-5349,-793,-1158
-8,-39,-66,7085,4640,5794
-111,99,101,6551,2800,3709
11,-24,12,-1665,-1711,-740
25,-95,-20,898,-2405,-960
-74,26,31,8751,752,3348
-79,-102,-68,7281,-2092,2645
-73,-3,-54,3711,-3438,1442
-65,10,52,4194,-4142,106
98,-110,127,4779,-1479,-372
-6,98,9,-250,-1349,-1221
-43,-16,-82,3403,-2093,481
126,-79,-77,4971,1139,1758
-56,91,25,-1616,1508,-461
-78,84,69,-5416,-1687,-1050
-87,112,118,-1897,-683,-489
-53,93,74,5187,2064,2047
-67,34,116,432,441,94
-49,88,119,-358,-303,-183
-19,83,66,-104,81,-125
-10,92,23,748,899,330
-21,94,51,-282,146,-11
-23,111,1,571,437,229
-50,117,28,-369,-121,-334
-20,-122,5,335,-36,-130
0,-121,28,102,93,-92
-14,-119,15,-197,73,-156
-20,-104,-6,344,223,195
-31,-93,-24,538,301,120
-45,-100,0,20,-326,-219
-42,-94,47,-7702,2552,-3085
92,17,71,-7306,2329,-3346
74,66,-45,-12675,577,-2660
-65,3,17,-2722,2694,555
49,-35,47,-905,-2341,-3314
-25,-127,122,-1649,-2880,-2203
-107,86,-41,6780,-565,-376
-122,-73,-99,11194,4187,6331
42,-18,90,2069,4429,1769
-108,-80,-11,-7583,-1654,-5003
-121,-108,-112,-4101,-954,-976
11,-12,72,3634,3167,2473
113,0,22,4649,-185,1326
122,-3,48,-57,-1981,-217
-60,-26,-9,7522,-1541,-157
-114,20,100,11311,-708,3173
-83,-69,84,6364,-3384,2832
121,-30,-2,1334,-4136,-1395
22,-128,-123,1437,-282,-339
58,86,-119,-1062,-4620,-2429
12,31,-26,2486,-4845,-2005
50,-117,-30,11618,5465,5002
104,-39,-57,615,3376,96
-77,85,-40,-12008,-4270,-4459
-82,33,19,-5131,-1587,-1380
-69,4,11,10669,3968,4286
-84,53,-86,2091,2219,774
-90,78,46,-5292,-2553,-2238
-32,-45,118,924,551,388
-44,-94,-24,1241,847,774
-86,-98,45,-811,-290,-606
-14,-78,-11,1866,1420,319
-19,-83,105,-52,890,-95
-13,-69,73,-740,775,-125
-39,-83,-30,-298,332,-39
-46,-101,-69,829,188,-24
-19,-106,-16,877,101,92
11,-90,43,969,311,256
3,-89,61,335,316,35
-5,-84,57,62,22,33
-101,-13,67,-8356,748,-3370
-115,-3,-36,-7233,1816,-1738
100,95,-77,-12909,2129,-896
-82,-1,101,-5542,-1267,-2253
-11,-100,-39,2579,2160,1748
94,-85,-85,-1162,-3262,-2960
0,62,-10,-1593,-3645,-4341
-27,111,-78,13126,3297,2693
64,113,73,5100,5723,5923
-36,83,91,-4066,669,-2524
-69,107,-74,-4875,-2660,-3232
36,94,-92,2146,3097,1419
-11,28,4,5465,1645,1580
-119,-36,123,3138,-28,1189
113,106,68,1273,-1204,84
117,-58,-60,7927,342,3265
105,28,-95,3293,-2732,48
-85,25,-17,5316,-2766,1852
-107,-15,-24,569,-3736,-637
-61,54,84,3404,-2506,-84
85,37,13,385,-3137,-1994
-90,-36,-48,2721,-2610,-458
-110,-26,6,5738,1373,1174
9,-121,-15,-2198,-272,-564
-39,-103,-54,-3474,-379,-919
-105,-116,-65,494,674,-40
-61,89,-67,1622,1041,568
-70,111,54,905,674,377
-57,127,62,362,467,226
-48,-122,54,-258,234,-117
-38,-103,18,734,588,400
-39,-111,5,-26,321,-43
-31,-99,-9,502,426,237
-33,-95,-11,390,357,125
-29,-106,8,290,178,-3
-24,-90,8,138,126,26
-25,-99,-30,894,423,259
-30,-105,21,241,5,8
-30,-96,2,620,373,158
-35,-100,35,334,196,22
-30,-84,119,-9234,2629,-1577
69,-45,-24,-11433,-540,-1126
-33,-121,-80,4083,1385,-877
126,81,-38,1745,-542,-201
119,-6,34,-7171,-4227,-3867
-23,85,6,4487,-1678,-2503
41,-24,-52,18361,10607,10334
31,60,92,-6803,-1698,-3410
-110,118,-8,-6764,-2241,-3693
79,-110,-99,4090,3997,2406
123,-80,-23,5405,3235,3159
-95,-66,28,-251,-2198,93
85,-114,53,1683,-1650,-184
-94,-108,82,5117,-968,1145
-54,-32,-77,11840,1200,4874
-101,43,-106,2486,-2490,1596
63,92,-75,3222,-4905,511
-20,5,119,-457,-4103,-1585
94,76,16,-402,-5642,-2874
48,53,-77,7225,-1828,-564
4,39,-111,8760,5162,3650
5,44,69,-6021,-1763,-2627
-65,-83,17,-9428,-3490,-2163
103,-21,-58,1644,1386,-156
-110,117,-113,6324,2598,2350
-84,102,-51,-906,206,-92
-74,-98,124,-1616,-4,-472
-22,-58,-36,531,950,444
-41,-64,27,-226,851,97
-47,-49,0,-320,368,-23
-38,-55,-41,-298,248,-169
-29,-68,-47,471,329,129
-32,-59,-5,163,132,54
-26,-57,-18,313,212,69
-37,-60,-7,307,-31,102
-27,-63,-22,1013,310,313
-29,-79,36,510,99,233
-28,-69,31,455,155,298
-45,-73,15,803,194,328
-34,-57,15,997,363,293
-114,-33,119,-7528,2186,-3479
-73,117,100,-10471,1288,-2405
27,112,6,-7819,1264,-1408
-100,-118,-20,-3459,-135,-1266
52,87,53,-4864,-2193,-1888
-34,-76,-127,3039,-1035,-3
-3,-33,-46,8441,-1700,-1682
89,-1,-65,7987,4625,6226
123,108,-12,4194,4720,2118
49,-27,-17,-12565,-6716,-8077
68,9,-84,-3189,407,-344
-98,58,-96,10259,4768,5368
-88,-76,113,1532,-1800,-1031
87,-18,33,1563,-1734,-309
50,-24,-106,8816,-158,956
-71,-127,127,7411,-1377,1420
23,35,80,4054,-1956,1822
-63,-65,50,-480,-5074,-1377
61,92,53,5212,-2130,384
-57,64,-55,86,-3246,-1910
-70,-93,-9,5762,113,1079
42,-100,-70,3423,1328,1457
-83,48,-104,-4968,-368,-1899
-63,-125,75,-2880,-503,-496
-74,112,74,144,590,-161
-57,-117,-104,3090,1341,1449
-83,102,62,-35,289,-191
-45,-124,35,61,257,77
-29,127,-12,177,418,134
-40,-120,-19,757,578,337
-52,-120,4,236,191,-21
-35,-120,-5,265,212,-10
-34,-117,-1,91,35,-38
-34,-102,-20,796,414,221
-33,-116,5,408,227,45
-43,-111,12,207,37,-66
-27,-114,-5,618,319,103
-29,-108,5,792,552,195
-35,-113,35,-247,-164,-218
-19,-110,-36,912,600,235
13,4,81,1424,9644,2845
39,64,-84,-8803,667,-6251
0,-83,-90,-6819,1320,-2423
55,-76,98,-11091,-1833,-3693
-108,-124,-44,-6832,466,-929
114,-81,115,3035,744,446
126,14,120,-4941,-3394,-3289
45,-6,-117,6712,-1400,-665
69,7,13,10764,4199,4023
106,-16,36,2848,4853,4103
-57,-121,97,-3908,-2043,-3763
-11,-14,-114,-4435,-2171,-2980
120,93,-93,4832,5428,3648
44,85,30,2073,401,1178
113,-91,-111,950,-2067,-169
76,-75,-49,3949,-1190,66
-85,-126,-77,8665,80,2414
-57,-127,26,5895,-1729,2892
-78,-98,-55,2534,-5422,261
-43,117,102,1820,-2995,612
19,86,48,2118,-3910,-1641
-101,-107,59,2738,-3129,-1746
32,-62,112,5929,30,942
22,-128,-122,447,1411,683
-69,22,-73,-7152,-884,-2255
-108,-79,-121,-3929,-1894,-55
-111,-70,-43,5438,2255,1875
-89,123,28,1644,920,728
-93,-109,109,-1359,-368,-454
-66,-97,-56,138,379,67
-60,-98,-82,1348,738,565
-72,-103,-19,-89,106,-167
-59,-110,-18,519,334,-4
-59,-113,0,224,262,-100
-43,-126,-12,348,160,23
-36,-121,-24,659,420,289
-43,-109,-2,537,347,183
-42,-108,-5,212,270,41
-35,-101,-23,552,377,224
-47,-96,-24,100,99,-82
-77,-63,-81,-8684,3372,-4440
107,-23,-123,-9261,5669,-3943
-30,24,-101,-10042,-2597,-6774
87,118,-17,-6504,-205,-1458
-105,38,79,1130,1170,-434
-116,98,30,431,-630,-1313
-102,34,4,3703,-3219,-2571
110,-58,102,9723,2275,817
5,60,-35,8545,6272,7471
56,-111,16,-345,3167,-1698
68,90,-39,-12970,-6166,-6854
-15,104,-47,1369,2468,1789
47,-4,-70,11294,3767,4025
-75,112,-84,1029,-2898,-865
114,-60,2,5947,-1019,694
-39,70,-119,7406,-560,2752
-64,115,-88,5494,-1127,3391
40,-38,44,2196,-5035,-13
-40,-7,-91,3006,-1263,1091
-30,-17,88,-1267,-2914,-1038
4,91,-72,2246,-3485,-1220
-78,-73,-48,5791,-267,219
102,-99,-48,5157,2243,2020
-78,58,55,-5613,-628,-2189
-40,-116,123,-4625,-140,-732
-102,-122,77,858,511,420
-65,98,-88,3522,1581,1172
-59,96,114,-399,-37,-80
-40,-127,49,158,561,53
-29,114,32,-825,-18,-442
0,121,-71,1627,1098,678
-36,104,39,-74,-159,-96
-20,114,-6,659,291,155
-31,114,48,226,-38,-17
-32,122,24,605,405,145
-33,126,51,219,141,59
-33,-128,33,199,73,-14
-30,-126,23,451,227,115
-26,-117,18,640,516,186
-15,-121,25,365,272,68
16,124,27,-5064,3796,-2744
-111,79,-128,-6249,2947,-4391
82,-49,122,-13967,-3890,-5613
-46,-59,-122,-2694,2898,129
-81,99,-6,679,1148,-139
21,-35,-116,-3970,-3117,-3826
-24,-68,127,1195,-2193,-1457
45,-32,-125,13466,1627,-256
18,-14,-103,5056,5234,5920
20,-125,12,-1719,2202,-1925
85,61,-84,-11709,-6316,-5829
-42,-25,-24,5712,3581,2151
102,-61,15,9499,3618,4451
117,-72,-33,1572,-812,366
28,-100,84,2676,-1677,-21
-115,-55,-25,6756,272,2045
105,83,-102,3683,-2823,935
-124,107,-66,5485,-2791,1359
-30,56,26,3251,-2866,587
9,83,106,1556,-3287,-970
82,-40,2,1127,-3312,-1399
43,4,68,6226,-1970,-479
-48,-28,-78,6445,3255,2154
-79,0,94,-5702,438,-2171
-86,93,-120,-7699,-4465,-858
100,127,125,5338,2058,174
-29,109,3,6202,3930,2451
-121,48,54,-3267,-1241,-915
-87,98,50,-2134,-656,-607
-32,127,126,2582,1607,1250
-90,99,67,-594,-50,-230
-62,122,-22,612,618,223
-55,101,6,79,301,-45
-53,108,-11,808,480,245
-40,96,10,89,206,-86
-39,102,11,788,376,225
-35,97,32,-179,107,-198
-18,98,17,686,324,257
-31,99,13,370,350,162
-38,108,20,266,161,121
-37,100,-41,2923,5916,1571
34,-26,-109,-1807,4632,-369
-22,-96,109,-5496,2664,-2291
-85,-45,112,-1669,7374,-203
-56,-26,-91,-7598,2956,-5339
0,-57,22,-9612,-428,-2922
-94,-124,6,-7001,-673,-4330
-106,-22,-14,-965,2337,-269
-76,95,97,-2636,-1331,-2121
-10,-75,-119,-800,-4035,-3802
-51,-3,-38,11261,1729,-192
26,65,-70,10226,5322,6873
-2,88,76,-3049,2495,-2290
-107,86,-95,-8755,-4099,-4426
41,-72,-123,-2824,270,-313
-126,-22,-91,10951,4615,6248
121,-5,93,3465,513,2203
-29,74,127,-657,-3711,-1116
114,-25,-87,8365,-127,2701
-84,-79,87,6283,-830,3106
98,112,4,1716,-4069,434
-86,126,60,7619,-1079,1589
-24,34,97,-920,-4555,-1708
-75,-111,29,3514,-1840,414
-102,117,-22,659,-989,-270
30,62,110,742,-354,239
-31,39,7,-1042,197,-428
-63,64,101,-903,179,-232
-81,84,-14,1247,332,538
-56,74,60,1500,798,494
-55,105,114,391,480,430
-55,111,66,217,505,171
-55,110,43,4,253,102
-54,110,6,269,165,-73
-43,120,19,809,508,301
-43,113,41,171,151,-88
-26,110,7,817,468,191
-37,106,58,-305,-255,-286
-21,113,-12,1163,473,283
-31,106,67,-22,-58,-171
-5,15,118,-8489,1095,-3552
-40,-75,106,-4305,3736,-863
23,-27,70,-10618,-1406,-2443
-86,32,77,-3426,2312,-164
-58,127,-72,-1254,893,-920
-26,-99,111,-4255,-3129,-2573
-56,43,-10,4152,-2250,-2407
110,-38,-101,13947,6336,2995
12,19,86,2326,4914,3015
105,13,108,-7872,-3816,-5803
77,68,-95,-6469,-1714,-1710
-117,108,2,4633,2826,2094
-33,-46,6,4529,108,2526
-1,79,-30,5937,-513,674
69,71,56,8660,-445,3299
-106,100,53,5238,-2530,1704
-123,117,-104,1699,-3955,854
127,81,-27,3304,-3588,-103
72,106,51,3167,-2310,-645
-78,-105,77,2206,-4451,-1506
44,36,94,7421,-187,1996
-82,-97,-115,2992,2697,1029
104,20,69,-6923,-518,-2799
-34,109,45,-6969,-2482,-1511
-119,-61,106,4527,1876,841
-79,106,-34,4693,2218,1861
-75,48,-18,-2689,-1270,-1420
-19,-118,-27,253,784,254
-54,-117,-4,710,998,370
-63,-101,27,-1150,-118,-519
-35,-65,-71,858,749,310
-60,-77,25,-343,-91,-337
-29,-63,-44,662,461,118
-33,-65,8,151,245,-32
-44,-54,-21,246,217,-82
-51,-57,-13,403,121,-93
-39,-55,3,63,-70,-157
-24,-57,2,436,331,53
-36,-52,13,324,363,80
-42,-47,8,164,290,-26
-14,-93,67,2709,7923,771
7,7,-66,-3981,3778,-947
78,71,106,-5226,2965,-1946
-59,86,-117,-3150,4484,-1745
-58,-29,-31,-8949,3157,-4438
-65,125,13,-11828,-1182,-2328
-110,-81,-32,-6479,-614,-3867
24,-67,95,2153,1596,529
-5,81,-81,368,-2963,-2714
-96,-124,57,8813,-1126,-4110
111,-9,-41,12004,6544,8492
14,125,-51,1742,5689,949
27,-85,92,-10878,-6776,-7664
105,81,-49,-7191,-588,-891
74,83,49,12107,5694,5943
-128,93,39,5682,1964,2331
-9,-117,-69,-1280,-3669,-2106
119,-60,-43,9863,-1219,2409
2,-91,31,7102,1384,5331
89,-120,-40,-1941,-4935,-488
119,-15,-76,6157,-3665,2082
37,88,-56,2511,-2310,53
82,42,-70,839,-3886,-2065
-76,-100,74,5022,-1198,633
77,98,-14,2023,517,1285
-89,55,110,-3245,280,-833
100,71,119,-3931,-1645,-1386
125,97,108,534,-364,-731
-12,-121,-69,4257,2062,2022
-102,126,-97,-634,346,-119
-97,-115,32,-944,-27,-479
-68,126,-47,8,377,-95
-47,-128,-61,869,706,445
-66,-120,-13,-249,80,-70
-52,-111,-57,400,465,110
-55,-108,-37,381,308,77
-41,-111,-37,659,531,71
-52,-102,-4,541,259,148
-53,-117,-22,76,110,-189
-36,-108,-29,1199,760,487
-53,-41,39,4442,4767,1591
-111,-83,-48,3269,8466,1050
-95,-28,-107,-8312,-134,-5750
-70,-80,117,-4605,4093,-2921
2,106,-79,-7331,2476,-3257
-115,-64,5,-9339,-1112,-2357
73,-110,102,-2946,875,-2758
-69,127,-14,-5614,484,-1819
-20,-49,-43,-6287,-2816,-2125
82,18,28,830,-2774,-4280
94,-101,41,15144,3970,-982
-21,118,102,7681,5643,7666
53,-23,-44,1285,4406,77
-59,30,-55,-13176,-7723,-5840
-7,-42,81,-1775,893,409
-44,-53,95,13439,4591,7457
61,124,-39,828,-2541,-864
43,-83,101,1010,-3738,-566
-110,14,-120,8452,-1162,2554
-100,-57,-107,7113,-1806,2060
-106,99,-89,2021,-5107,-606
32,118,70,1448,-4702,-2318
9,-27,51,2651,-5335,-2673
72,-128,106,10935,1136,2737
124,114,6,7560,4686,2990
21,66,-3,-16582,-4482,-8860
-55,116,-124,-1667,866,3393
77,-90,-72,13078,5183,3356
-104,17,-74,-2430,-514,-976
-84,80,-78,-6248,-3029,-2010
-49,-84,49,2930,2058,991
-34,88,5,733,1217,430
-45,94,0,60,132,-68
-42,109,3,870,543,359
-32,100,-7,-75,78,-7
-46,113,7,406,294,236
-51,115,-7,248,365,74
-59,-123,8,577,323,273
-31,-127,-14,684,487,39
-19,-124,15,1760,963,675
68,-71,99,4775,6232,551
91,-43,-7,-3591,3805,-2868
-28,30,-128,-3840,2069,-2347
37,100,79,-3259,4029,-2012
121,53,-10,-7463,2289,-4114
72,-99,-36,-6492,2348,-3748
20,57,93,-9397,-82,-3054
-52,-21,62,-4599,39,-1730
37,-89,-43,-4072,-1686,-2643
7,-10,73,74,-2592,-3759
-116,54,-16,13414,2076,1805
-53,-10,-58,9699,6212,6544
-11,-18,-93,-4425,699,-2709
-109,87,65,-6408,-2656,-3437
8,-112,-40,626,1524,740
34,-75,99,7217,2674,3464
116,-66,-87,1018,-754,-55
101,-59,74,2640,-1810,1615
79,12,-42,6386,-262,2183
-95,114,121,7487,-1482,2423
-57,-110,112,3712,-1760,2611
114,86,-4,2524,-2678,-89
-6,126,-20,702,-3846,-575
56,-108,89,3153,-4053,37
-126,-53,105,5061,-1816,569
47,-73,-30,4451,1759,1586
-105,58,62,-4826,-889,-2223
-110,71,38,-3507,-1984,-823
-89,-119,93,4559,2288,1702
-85,67,-80,-900,-261,-243
-69,-116,22,813,1013,476
-57,122,37,-158,315,39
-66,-125,-28,885,851,380
-65,111,6,-313,60,-206
-52,125,-28,1543,695,569
-54,116,48,-272,-14,-189
-47,113,1,679,434,208
-53,121,25,621,443,169
-51,104,38,124,110,-40
-34,114,-1,976,572,383
77,78,-117,-7116,2919,-4696
-58,7,-128,-8892,1795,-4295
-15,-96,-35,-8108,98,-3870
124,43,99,-1463,1446,-1911
-16,109,-102,-3128,-2154,-3503
-7,-120,-109,329,-3167,-2955
-33,-46,22,8961,508,842
-113,-116,107,9047,5159,5641
-91,-90,-115,-3271,738,-417
85,44,-36,-2158,747,-1841
-34,82,-116,-1929,-498,-429
-119,56,-83,3990,2226,1533
-50,97,122,2042,40,667
44,22,6,2688,-927,-77
64,-12,-100,6819,-638,1267
-37,-63,19,7487,-437,2415
-107,-84,53,5372,-1992,2409
-121,118,34,302,-4362,-1322
54,-99,-90,3639,-2547,-560
-98,-111,-46,1315,-3020,-1077
-124,-34,53,5296,-110,1160
-2,-97,2,1096,-435,-246
-42,79,82,-1759,-296,-1085
-104,69,91,-1747,-735,-828
-57,75,-27,71,-42,-178
-54,-100,-26,2455,1677,1269
-80,-128,107,-1346,-363,-487
-35,-70,-42,818,1186,473
-44,-77,-11,265,707,338
-55,-64,-44,549,661,216
-51,-77,0,93,50,-108
-19,-69,-51,1634,1051,570
-35,-86,87,170,222,-142
-19,-98,39,-326,1,-267
-17,-97,-7,863,497,330
-25,-95,0,875,368,270
-44,-95,51,67,-205,-197
-20,-87,27,620,285,82
-26,-93,41,412,169,37
-27,-90,47,374,293,81
22,-66,-113,-5597,5074,-1030
89,122,-122,-8026,-1929,-2241
95,-89,124,-10223,-2817,-4481
-113,-74,-65,1190,-264,-2496
31,-49,90,4722,-749,32
51,68,20,3712,-2610,-770
76,-101,-96,16355,5890,4247
-54,53,85,-2343,4131,2446
-37,48,62,-3203,-698,-3759
65,33,-17,-3316,-1128,-2301
-69,28,-89,2606,1861,1229
43,15,125,2169,871,899
124,-64,86,1507,44,897
127,13,-1,4273,-760,1130
-41,60,10,8059,754,3502
-73,47,-2,2291,-1964,1691
-69,-18,-22,2445,-3080,1590
-87,78,-42,3335,-3253,1613
100,14,68,3002,-2958,-630
47,-124,-67,795,-796,-88
-32,78,-128,-1015,-5115,-2385
-78,-49,-34,4169,-605,680
89,-113,84,2923,1677,1576
119,56,-113,-2538,-1361,-1449
-109,51,36,-1497,-807,-1048
-38,105,-89,2431,1705,1093
-79,65,57,315,157,-112
-52,106,31,411,527,195
-56,110,27,-2,309,-31
-56,125,-11,312,359,58
-51,-125,-21,508,429,119
-51,-126,19,334,350,-65
-47,-122,37,177,429,-118
-25,-117,7,218,826,39
-44,-104,36,-689,-147,-353
-26,-86,-25,1267,900,433
-40,-88,56,-260,18,-310
-36,-74,-2,179,283,-39
-42,-68,-14,477,190,64
-32,-55,26,362,153,24
107,25,88,-5792,-1053,-3274
96,96,-7,-4997,-451,-3640
18,120,-33,345,4053,1359
-93,-109,101,-443,886,-1028
-1,-72,103,3145,931,-617
-40,39,43,-1059,-987,-363
-30,106,47,-2145,-3308,-2550
-76,-88,-80,6365,2552,1660
35,-9,-90,4067,915,2020
-43,56,-69,803,3394,1207
-42,112,1,-2191,124,-1700
88,-43,-84,-1643,1691,-434
-96,118,-14,1978,3064,2267
-121,-108,-36,-299,-791,-21
88,-114,44,-1782,-1680,-381
36,-89,25,1766,-1983,190
-127,-29,-70,9653,11,3351
-115,73,-105,6792,-1609,2474
-123,-88,-54,2937,-3868,1898
82,30,-26,4829,-2826,1147
70,77,94,10706,-547,4007
21,-10,-53,-6986,-5668,-5588
-94,44,-92,646,-2818,-2320
122,88,-79,7674,652,22
-91,54,75,2130,-2067,1442
-90,76,-3,265,1218,-429
-82,39,-89,-3039,-242,-1101
-68,15,-66,-2548,-791,-838
-42,49,-2,1671,2104,820
-85,65,-91,-1176,134,-282
-59,-120,70,-648,364,15
-58,-76,97,-366,765,76
-60,-45,100,-1642,-25,-542
-33,-12,11,-109,762,-13
-31,-27,52,-756,372,-294
42,-22,-2,350,1112,513
37,-19,29,476,1025,443
21,-6,21,578,1221,355
18,-19,29,-520,240,-344
52,-40,-30,816,618,294
40,1,-92,-7797,621,-4876
3,19,-1,-5820,1236,-2969
29,-124,-111,-778,2072,-1213
26,-24,-112,-408,-858,-1904
-94,13,-116,-287,-1602,-1609
71,117,-104,2492,-1350,-1300
-55,-128,87,8045,922,-311
101,-115,31,7723,6199,7410
68,52,-41,-2915,1542,-2895
-107,55,-94,-6096,-4974,-4468
79,14,-68,2596,1582,1528
-16,97,-120,7656,5489,4444
-59,-118,8,-2594,-4170,-1318
-108,3,61,40,-269,1121
32,-4,-32,5741,-175,2357
23,-94,110,3792,-2711,619
86,-93,45,5614,-1640,1133
-128,-109,-9,5957,-2347,2150
-120,36,122,3026,-4476,341
-7,-115,-106,3905,-3274,629
94,-83,82,1661,-2328,-1465
-50,-8,-74,6482,-1508,2185
10,-33,-89,1892,-1192,1264
74,59,13,-652,1783,-525
114,16,84,-2831,771,-247
53,2,72,-270,304,277
92,25,14,4285,2759,1694
91,26,15,-695,77,-220
-68,55,112,-242,680,-289
-68,42,96,52,486,34
-45,15,40,-270,262,-325
-16,40,25,661,697,422
-27,54,23,451,205,271
-74,48,52,287,-243,26
-51,37,28,1378,555,578
-80,55,-115,54,-182,91
-85,28,79,-65,-98,-125
-65,16,40,1009,540,498
-69,28,67,794,434,559
-93,21,71,934,540,458
-53,127,96,-6591,686,-4550
-47,-25,93,-4601,715,-2786
49,-61,-87,-3692,1006,-3842
59,39,75,-3312,1221,-2897
-45,27,125,-2502,1403,-1502
-112,-93,-37,-4091,-1834,-2276
-1,12,-20,-4930,-5076,-3938
19,107,-5,14234,4909,2836
45,-34,-93,4105,6659,4577
68,19,116,-11196,-5268,-4825
-84,-50,50,160,112,-2111
36,-23,16,11036,5658,5904
63,19,-121,2273,682,1987
-112,113,80,552,-2109,581
95,36,94,3741,-1598,1665
-47,-66,86,5179,-2758,2261
-82,-105,52,6997,-960,3727
120,-9,-96,4061,-4871,1958
-72,96,1,4839,-1624,2328
-126,-64,31,4036,-3804,927
5,-96,-84,1578,-3985,-2511
-17,-95,-30,8748,-1526,1754
42,5,32,3647,985,2483
1,39,12,-4199,65,-3216
-16,-81,37,-6172,636,-1669
-113,-15,-35,581,-1106,1477
78,38,-25,6802,3595,1147
-89,-3,123,-3252,-1131,-750
-56,91,34,-1158,480,-100
-60,82,0,2151,1816,644
-107,42,-105,-746,-220,-552
-38,52,37,256,657,-10
-34,50,39,878,967,257
-62,59,107,-435,-226,-386
-19,64,5,1182,948,323
-49,65,104,-265,-230,-262
-26,75,44,674,219,33
-40,71,112,124,-284,-78
-43,65,74,187,-67,-42
-39,72,66,682,348,337
13,-77,-24,-8614,2706,-3496
6,-46,-113,-6987,2877,-1909
73,-47,-91,-2275,984,-4370
-67,56,-21,-4416,1108,-2115
97,-54,-7,-2465,-2479,-2776
63,-43,-1,8957,-1902,-3988
-84,75,106,11354,6056,6017
7,-79,120,2772,6606,3587
-51,-19,-45,-6294,-4577,-5524
-43,-89,-26,-7279,-4398,-4012
117,89,17,8580,7088,5843
-41,-121,-56,9076,4278,6179
-71,0,45,-3868,-5915,-3376
74,-97,-20,3468,154,1416
74,18,-2,4938,651,3367
-14,-90,94,3593,-2998,204
75,123,104,5998,-2003,1359
74,120,96,2896,-3434,49
-64,97,15,1374,-2250,-1255
32,-98,59,2265,-2753,-1705
-87,-33,83,1418,-4853,-1458
16,5,55,6553,-430,902
39,-42,72,-1200,633,-216
-83,105,94,-5185,-844,-2034
121,-70,-65,-632,-139,123
-123,-127,-67,1115,553,313
-93,-56,43,18,-128,689
-114,-11,-2,-911,-16,-76
-101,23,-32,164,753,429
-87,24,-55,-1368,-224,-421
-90,52,-108,835,853,548
-97,2,-44,-491,-249,-354
-59,-7,-100,241,231,3
-90,-27,-78,779,89,169
-109,-50,0,-776,-934,-461
-95,-31,-58,686,165,264
-122,-27,12,-304,-440,-250
104,-5,9,-535,-479,-557
111,-17,-24,-260,-221,-553
102,-4,0,-1193,-1047,-856
17,-99,9,-5089,4054,-2080
-32,-24,-97,-4770,62,-3373
-2,-98,-4,-3523,2967,-2183
-128,89,-3,-2940,955,-1963
-57,-13,-25,-3638,184,-1590
-13,-51,71,-3263,-3514,-2085
59,42,46,2480,-1906,-652
56,13,106,8041,1248,1808
112,-11,-79,2791,5244,3379
-105,101,-27,-4021,-1133,-3674
-9,-26,-4,-4328,-2697,-3191
-40,-110,-102,2564,1833,621
50,62,-79,13436,3423,4954
-59,-18,3,2670,-1702,-222
101,-39,-67,-457,-2881,-1675
-84,10,-10,8618,25,1733
-61,-48,58,6869,-1360,1165
-84,98,88,729,-4682,-2661
72,86,69,4607,-1421,86
-108,32,-116,1194,-1562,-424
-110,117,85,1026,-2971,-553
-128,127,7,5508,322,1318
-9,74,-6,336,706,331
-54,6,43,-4704,-1040,-1321
-69,70,-24,-270,273,275
-94,108,-34,3132,1739,1652
-92,90,98,-1654,-292,-313
-52,126,-56,29,470,248
-87,110,-40,1084,701,500
-59,82,-57,-316,69,-31
-77,94,-58,776,449,333
-40,95,-39,781,519,233
-46,90,32,-60,-111,-127
-36,81,-11,704,485,225
-50,73,8,226,368,119
-61,92,-9,363,284,165
-48,107,2,337,393,115
-49,114,-1,483,460,243
-51,113,5,-5,304,-63
-25,127,-36,684,626,295
26,-58,51,8857,6286,6236
-107,26,24,-4725,-1281,-4157
33,-29,-28,-4848,-1715,-3019
-119,-19,-29,2496,3276,1761
-85,-109,31,3368,2284,2227
-85,-110,85,-1672,-2351,-704
120,-16,38,2111,-458,680
89,-56,-43,2599,-1211,1105
52,-72,-90,6654,-679,2073
24,-122,112,3597,-2768,526
117,68,-68,4513,-2137,779
-84,107,92,4264,-2545,686
-60,12,91,2653,-2975,-589
78,109,-77,2882,-2355,113
83,68,57,79,-1975,-1460
120,115,9,3585,-985,1170
-36,61,-113,2354,-359,267
-72,88,-82,-518,611,-56
-117,58,47,-2110,535,-803
-76,75,101,-798,1063,138
-63,105,66,-134,997,490
-44,-127,46,-129,1052,347
-35,-36,81,-968,799,135
-21,-9,50,-1754,-33,-469
-1,-38,-60,-236,700,-102
7,-60,-29,284,793,173
12,-69,14,-993,-90,-222
12,-53,-90,1190,911,656
-26,-62,20,-439,-429,-234
0,-63,-40,560,191,196
-26,-71,-20,999,342,424
-34,-93,13,284,-220,-46
-12,-84,-1,807,100,219
-11,-88,38,700,-118,20
-17,-107,33,858,-35,142
-29,-125,46,1013,79,142
-34,-125,76,679,71,130
-33,127,64,615,188,98
-46,125,54,791,384,82
-42,-124,80,134,51,-106
21,2,127,-5456,3752,-829
-47,-40,-24,-4100,4704,-1216
-51,0,-114,-7607,1945,-2723
67,17,94,-4521,2087,-1627
-48,54,-32,-278,2453,-1942
-32,6,58,-1037,287,-1478
37,-81,126,-871,-2171,-2603
-11,101,-27,719,-3311,-3147
108,-97,53,7766,89,-4136
-81,-13,-15,9796,5972,8921
74,81,-78,11062,7471,1569
-70,69,83,-18782,-10794,-11694
69,93,14,-108,3314,2808
-47,69,9,8918,4151,3415
-41,1,-36,2821,2357,1676
26,103,-7,-1758,-2615,-1807
64,-11,8,3888,-936,399
101,-68,-8,6078,-623,1281
106,-101,-42,3392,-2686,454
-113,-98,-62,4141,-1939,287
-52,-126,-1,4298,-1838,850
-62,75,-107,2599,-3937,-717
70,68,58,2461,-1469,-102
-121,109,12,332,-1957,-623
-122,-37,7,4221,-1145,1117
10,96,-108,2383,-101,465
-70,66,105,369,1571,44
-99,75,57,-2288,448,-507
-77,84,66,-1016,481,-155
-82,112,-6,1977,1783,756
-85,96,-120,-868,-130,-390
-33,-122,14,751,1255,384
-35,-110,74,-261,545,-76
-6,-94,26,-400,371,-116
-9,-80,-7,587,925,227
-4,-99,15,-66,250,-148
3,-97,-4,654,485,193
-19,-95,28,338,-42,-47
-10,-111,11,998,190,216
-26,-108,56,527,-259,26
61,-54,109,-4409,5554,-3057
-11,68,86,-7114,-1038,-4837
1,-9,-40,-596,4816,-1351
46,-79,-50,-3527,538,-3959
70,-98,63,-5579,-1188,-4511
-44,105,-46,-5227,-1807,-2470
-46,101,-69,-1107,-1380,-1462
81,-39,127,7309,-5235,-5316
105,-46,68,10296,6679,8626
-17,-5,-93,12624,15042,6266
82,-121,-105,-22481,-17609,-16435
124,13,117,-1999,3074,583
-3,84,111,15853,6952,8129
6,19,-70,7622,5717,4554
-74,-96,93,-7297,-8361,-4722
-24,7,14,299,-3164,-2497
-36,55,109,11294,1750,3517
-76,-15,-11,6290,-120,3076
84,121,-44,694,-4694,-1204
-33,-50,-31,3729,-1448,1039
3,112,4,2307,-2404,-474
86,-90,-38,2791,-2633,-416
-43,-71,54,5336,-2346,1096
89,-57,-45,5111,373,2338
108,69,-105,-1553,-657,-1089
124,62,51,-1167,2059,-162
-124,53,-28,-2358,116,-655
122,79,62,9,952,-116
-83,89,44,672,1617,504
-71,-127,74,-695,865,-144
-22,-119,6,-352,920,-188
15,-88,-4,-44,795,-108
15,-90,5,-202,134,-385
32,-108,-35,690,688,38
-1,-109,25,259,140,-32
3,-101,29,34,-104,-176
29,-92,8,1068,534,340
-11,-97,63,422,-82,9
-17,-99,63,429,-88,166
-32,-97,62,702,156,220
106,-79,73,4668,9850,4704
-127,-77,12,-7816,2234,-4916
41,-69,-41,1640,6090,-2070
15,-95,-8,-6593,2820,-6619
-28,118,-124,-7709,558,-4603
-61,-112,-60,-5661,142,-3338
53,56,113,-1022,472,-2863
13,-120,-122,1140,199,-1020
-17,-111,70,-1107,-1105,-934
-65,0,-85,2362,-2592,-1651
57,-18,60,5460,-362,659
89,-84,-7,3204,2456,2051
-1,96,-119,-1903,2437,-782
-84,-106,84,-1794,-1512,-1316
-8,-91,-27,344,141,319
121,-69,105,4421,2255,3217
126,60,-84,1722,-1283,868
47,5,19,1903,-2921,-228
66,66,-103,6658,-1042,499
111,21,50,8617,-1683,453
-41,-53,-70,5350,-3445,558
5,-65,-13,3070,-2931,-73
-109,-111,-33,2961,-1857,42
-102,-105,125,2410,-1120,506
75,-75,-63,4672,-944,1751
-101,103,124,423,-1090,55
-107,54,-72,-619,2046,-374
-117,55,41,-1675,1986,-253
-120,73,-66,-1586,1264,-518
-112,-115,102,275,1796,335
-74,-102,-124,-1593,302,-796
-17,-43,30,276,1679,-82
3,-22,109,-908,591,-677
48,-17,37,-211,1368,-482
68,-30,40,-369,1065,-741
86,-43,12,315,894,-417
79,-55,29,-49,229,-273
62,-68,-12,412,-111,-219
55,-70,-3,853,-467,139
48,-73,24,861,-869,159
1,86,114,-7508,576,-1949
-38,44,-36,-3459,574,-796
32,-78,-64,-720,-2734,-2798
97,-113,-46,1031,-1739,-3472
-84,-26,-52,10334,1095,-3522
13,-110,-4,4086,9292,8274
3,50,-46,-5091,-327,-3871
-28,-89,-79,-2036,-3477,-851
-25,-13,-18,-889,698,-231
-49,104,-4,6290,2222,2196
6,-109,15,5637,-100,1478
-58,-125,78,3742,-1716,2
74,-79,41,4952,-997,395
-91,23,-107,6020,-1948,1742
-106,-33,79,5070,-2828,368
-8,-107,-96,3263,-2866,-1118
-128,-30,-118,1935,-944,957
44,-32,63,338,-3315,-1221
89,9,-30,6005,-1212,635
43,-47,-31,3623,103,1450
-124,-116,44,-2131,-98,-1108
-77,72,-23,-3051,252,-757
-124,77,45,63,608,288
118,104,71,1675,1234,855
-110,113,-91,-1551,14,-173
-68,-62,68,44,1360,608
-64,-13,94,-926,914,53
-26,10,24,-922,975,-197
-9,11,-24,-327,910,136
-5,-5,-30,-543,360,-256
35,0,-59,717,1165,320
0,-20,13,-260,247,-367
26,-27,-30,-5,376,-25
24,-48,-29,109,16,-17
19,-46,-49,829,208,270
16,-67,-19,1033,140,388
-7,-68,25,702,-222,306
-14,-88,28,884,-59,244
8,-84,39,1052,247,476
0,-84,43,1215,201,484
81,-34,109,-3981,4216,-2448
31,13,125,-7947,3152,-3819
-7,116,121,-8361,561,-2349
49,-34,-48,-6755,671,-2546
-73,41,18,-4228,119,-1454
55,101,-19,1725,-720,-35
10,71,127,-1121,-2658,-1102
-125,56,59,7024,-1854,-1154
-91,4,-35,7836,1946,3158
-25,-127,110,4131,4745,2608
68,-39,-61,-4957,-435,-3184
38,-115,-25,-4193,-2482,-2092
96,-12,-54,2297,3383,1616
105,79,-5,1973,1022,1583
-126,20,-96,-211,-508,124
60,-49,34,2162,-1636,846
42,-13,-71,5918,-1609,692
-94,-61,-23,6387,-1094,2022
-74,-38,-73,6316,-1209,2868
127,97,26,3463,-2487,1349
98,123,-88,1812,-3207,-484
4,-111,38,2592,-2390,-609
115,-96,20,2962,-3653,-954
-34,-75,95,4202,-2814,123
-127,-95,-38,4142,1264,1502
-96,27,111,-1687,-178,-1153
-48,13,52,-1264,712,-16
-106,-38,75,9,628,198
-113,6,99,1514,1210,1203
-108,50,-64,-1176,190,14
-42,118,35,82,1430,648
-81,-127,28,-15,1220,319
-102,110,36,-843,39,-371
-40,109,-48,1192,1257,464
-44,90,64,-854,-314,-440
-6,114,-48,1612,1198,408
-27,76,82,81,-217,-154
-18,86,5,1175,223,72
-22,91,53,742,249,56
-45,87,81,-190,-325,-338
107,0,85,-4276,3288,-4055
-118,104,-72,-1841,5583,-2937
-60,122,-4,-5321,1471,-5056
85,-106,-47,-3243,1964,-5066
-117,-93,76,2308,2171,-2488
-87,92,-21,3476,129,-1566
50,28,114,-2136,-1798,-3068
69,66,94,603,-2361,-1907
-39,41,-97,6808,-540,-650
-17,115,64,3847,-1325,1640
-48,65,-91,1108,3939,3031
-33,106,104,870,716,-1332
82,-92,-77,368,-995,-1819
50,21,-53,-1939,2881,850
79,-13,38,203,266,1411
101,98,57,1554,-827,990
61,46,-2,1009,-2918,579
-58,21,61,6374,-1398,842
105,-128,-73,6624,-1530,1592
97,-51,-7,8009,-1124,4408
-48,114,126,-79,-5400,-246
74,106,96,3271,-2037,-765
-109,94,-19,2102,-3192,-1391
40,100,116,734,-3748,-1741
111,-101,108,4053,-2216,629
27,103,-111,302,-327,221
-110,92,39,52,1053,-69
121,106,-22,-2498,-363,-190
97,99,77,-674,-58,-138
-99,-103,16,738,1687,876
125,-92,79,-1662,207,-281
-69,-25,-27,-1040,429,570
-111,-23,-95,-256,658,166
-90,-17,-73,725,982,531
-95,-49,-4,-870,29,-262
-49,-56,-116,863,850,568
-81,-79,-72,637,55,283
-75,-82,-52,973,355,444
-90,-96,-11,565,-30,133
-68,-106,-8,1119,273,312
-10,-57,-119,-6145,-1722,-4062
-124,-67,-71,-3264,-615,-2932
17,-44,4,9369,3315,2930
-45,-1,-72,1926,-2223,91
-102,67,-23,1496,-2399,-895
-37,-122,-13,3144,1196,2253
103,-44,-99,527,2823,951
55,-125,72,289,449,-1481
94,-9,-71,-2420,2216,-702
101,-107,114,89,-617,1260
-15,-74,46,-1373,-1607,-737
-93,122,-73,-1298,-2192,-902
-79,113,-15,7574,-1639,742
46,-95,14,11211,143,3176
77,-10,-77,8704,-1647,4694
11,55,-114,596,-4563,486
116,97,-62,2873,-1270,1711
-120,86,35,1138,-4244,-1102
82,-60,93,3243,-2791,57
61,-62,-54,4850,-11,1315
-24,77,109,-1793,-1167,-1088
-66,27,-50,17,1123,788
99,2,-112,-342,572,-377
116,8,96,20,115,18
-113,22,25,22,101,-50
-77,61,22,1288,976,719
-97,56,79,231,341,120
-90,69,75,21,503,-29
-90,65,59,150,357,45
-94,98,58,-480,-40,-327
-85,87,2,112,147,-199
-56,82,-9,579,422,225
-82,93,49,212,94,39
-68,109,27,647,466,251
-74,109,53,398,275,106
-77,116,49,512,327,209
-78,116,43,373,341,80
-68,116,30,794,576,247
-68,114,63,-106,144,-141
-43,112,-12,1130,830,418
-116,29,91,-2932,3106,-4450
-80,-22,29,-4548,3166,-4631
111,85,-34,-2934,2577,-4458
-82,114,-57,-6737,202,-4376
-118,38,38,-5602,332,-2096
24,-121,-88,5013,2029,389
52,121,-117,3155,-538,-469
69,59,87,3769,-2301,-959
36,-98,-35,5730,396,1754
-49,76,69,3454,6064,3614
-104,-5,-100,-2665,-1077,-2935
-54,98,127,-5936,-2152,-3115
-51,127,-108,4536,4306,2693
-4,-52,-16,442,-240,628
12,8,89,-1569,-3479,-1359
14,-108,116,6153,540,2075
-9,48,-122,7128,-647,1060
92,-124,94,7397,-1739,1626
127,-123,104,5842,-2105,2556
85,110,-60,3605,-2289,526
-40,18,25,3058,-2712,1552
4,-113,95,-39,-3393,-703
64,-122,72,51,-2027,90
6,-124,-31,2326,-180,953
-115,110,40,841,-75,-35
123,69,-24,-13,232,250
124,87,-111,-386,470,308
121,97,116,200,336,99
-102,-121,60,1603,1627,910
-117,105,-96,-723,18,-330
-76,115,55,164,1016,154
-31,103,37,-828,438,-150
-30,-112,-20,121,640,345
-23,-122,-16,442,798,279
-18,-122,5,-34,435,238
-42,-109,-18,896,845,513
-37,-117,47,-706,-37,-105
-19,-95,-71,1599,951,832
-55,-122,42,-357,-680,-90
-11,-123,-54,2095,966,909
107,-22,122,-2993,2922,-4776
126,53,-48,-4670,2243,-6579
-12,53,48,-4240,2543,-5337
1,-53,78,-6763,96,-5225
49,-94,-12,-1118,1576,-1049
119,11,45,-1394,-1077,-914
124,-72,-77,2506,-1534,307
-73,-98,-102,4067,175,-1252
-107,109,116,3618,1579,2864
-113,-109,98,-1526,1655,239
120,-74,-50,-1015,-968,-1305
-27,50,-26,3842,2128,1386
-65,61,84,1108,1959,1035
-30,-60,-24,524,-2064,370
104,-126,7,4266,-1286,506
62,76,-53,5492,-1340,488
-121,20,-41,6308,-1240,1328
-62,11,110,8277,-647,3046
-63,-4,108,6843,-3132,3465
74,1,-114,-2407,-3739,-1098
-71,-62,6,765,-3160,-1774
91,-71,4,6774,-1821,352
86,-49,81,4206,-1660,1859
77,85,-125,-2093,670,-1948
-50,26,34,-4887,1823,-1117
-112,89,73,-2209,-238,181
93,73,-124,1966,978,260
-95,99,61,2177,1328,794
-83,124,-53,-1520,-14,-496
-51,-104,23,-1019,672,-228
-48,-107,-30,6,756,334
-29,-72,-32,343,718,464
-56,-42,18,41,555,28
-60,-46,14,-244,473,-187
-43,-43,21,-437,309,-292
-47,-53,-26,78,384,-311
-52,-76,-17,256,-13,-196
-20,-82,-27,1000,511,178
-28,-78,25,1106,460,329
-48,-76,83,-471,-659,-339
111,105,-36,-4246,3856,-3527
21,-21,-59,-5515,2632,-3416
22,5,18,-2212,4120,-2235
77,-16,-126,-5193,-345,-3288
-44,-58,-33,-4967,386,-4240
-42,-99,42,755,1496,-1171
-8,6,118,-97,-657,-1939
-2,-20,-47,-1020,-2529,-1782
121,-25,65,6698,-372,-34
126,-123,60,6327,996,1576
35,-91,-123,453,1705,2275
117,57,-112,-1466,3216,-814
-96,-33,-112,-5827,-1899,-2995
-38,-13,-49,-2048,-1155,383
63,-61,7,5821,2810,2155
-54,44,84,2614,-286,459
77,59,-19,3483,-1503,503
84,15,-68,6772,-2055,697
-52,-103,28,5784,-2086,1242
-70,-52,-40,5380,-1657,2395
114,103,85,2600,-3686,503
-53,-115,-88,3026,-2613,780
-14,-57,53,3195,-3574,-994
-72,-12,-114,4570,-3248,-688
-100,12,83,4649,451,2772
65,95,-98,-3754,-350,-2772
-22,46,-28,-2784,2189,-393
114,41,35,-359,735,134
125,28,17,1841,918,299
-85,57,121,1636,1263,496
-62,83,-47,-1491,121,-357
-34,118,30,70,1198,259
-40,-122,40,-157,677,136
-37,-105,0,212,569,238
-50,-99,25,-154,80,-56
-53,-88,3,582,524,141
-64,-96,35,-65,-52,-226
-40,-104,5,795,412,110
-14,-104,37,865,486,251
-44,-106,76,561,116,-70
-14,68,-57,-6942,3227,-2326
76,22,8,-218,6369,-490
41,-77,-72,-7723,2318,-5822
59,95,-48,-5085,3563,-3422
-100,110,42,-6125,1464,-3745
-88,53,-2,-4276,2678,-2138
6,-76,-84,-1125,1703,-906
-85,111,32,4613,-60,-1162
-45,-66,93,-1880,-4394,-3105
109,-3,115,-237,-3912,-4752
80,-103,-101,8717,6326,6225
90,106,-114,5474,6532,3302
88,53,-73,-8923,-6087,-6980
80,-21,49,-2081,24,-904
-73,118,62,8992,4795,4039
-88,29,-58,1425,-1809,-786
45,-49,111,407,-4034,-813
56,48,39,8115,961,2538
65,14,40,5197,-1087,2191
33,-74,-65,5906,-3331,1394
-113,99,58,5778,-2327,803
-54,-81,84,2086,-3250,347
-17,118,-8,-1070,-2688,-2560
-121,-14,-62,7198,-166,1247
88,-126,-47,6164,-111,1654
-101,-98,25,3631,3716,512
52,100,108,-3290,1205,-1541
-102,80,88,-3776,354,-1156
-56,41,37,-1361,870,-713
-45,53,44,2540,2249,951
-41,54,-48,-1978,112,-813
17,126,23,-314,1175,-75
15,125,44,187,1187,-73
26,-102,63,-417,537,-77
13,-95,11,94,328,-129
25,-108,14,596,374,57
21,-120,40,357,46,63
9,125,34,895,76,188
1,119,68,743,-229,216
-2,119,74,981,-173,371
87,-128,81,-4699,5578,-3381
-12,-92,8,-4347,275,-3410
118,-29,-73,-1455,2893,-3978
92,76,-70,134,232,-4018
-47,110,-103,31,458,-2033
-98,20,28,-2565,-1294,-1873
-119,10,110,-1140,-2789,-3262
35,114,38,6705,122,-1834
-12,108,83,3362,977,3686
117,73,-47,279,3360,2151
40,-106,-69,-2648,-2319,-3358
54,30,-70,26,1403,-60
7,117,111,6281,4472,4479
-112,119,-36,1842,-644,1078
50,-8,-121,1895,-3584,-477
105,-5,-28,4814,-1099,912
117,-79,109,7586,-363,1835
-125,-71,-116,5537,10,2964
20,97,94,-537,-4807,168
67,-105,-39,2817,-2067,843
114,84,9,-212,-5144,-1829
41,-61,-80,3588,-4030,-1550
-111,39,100,8800,1338,3301
108,-74,-1,-2212,-1320,-1203
-128,103,66,-3179,2593,-1628
-44,120,111,-4915,93,-494
80,121,-103,-222,-457,21
-103,-122,-92,5401,2735,1747
-79,125,-58,-1732,58,-329
-61,-74,59,-1818,-72,-486
-72,-36,-61,1301,1415,669
-82,-63,26,-679,188,-385
-57,-45,0,228,696,-47
-44,-47,0,410,738,8
-46,-38,42,40,430,-264
-23,-44,22,87,523,-318
-20,-69,14,269,385,-152
-24,-75,-4,684,328,46
-9,-74,15,830,198,175
-24,-74,44,1055,290,259
0,25,-50,-5910,1086,-4605
-95,69,-54,-3091,2713,-2693
67,56,-124,-3960,992,-3353
-13,17,38,-3773,724,-3377
-24,-71,-63,-3857,1082,-2848
-41,109,-104,-2795,358,-1768
-80,58,-92,688,456,-347
-116,-124,73,2809,-675,-376
75,37,-15,1552,-2702,-1971
118,117,69,4811,2058,1271
-94,14,-106,443,1910,2722
59,-83,44,4730,5126,1660
-103,70,-27,-8315,-6632,-5860
5,119,-26,-1933,-237,569
105,9,-11,9765,4387,4309
-63,21,-87,583,-813,304
-21,-6,7,1448,-2327,28
88,27,116,6715,-22,1990
46,8,12,6459,-1196,1843
90,101,2,3464,-4739,286
-108,127,-68,2561,-2888,-326
15,-34,-111,4806,-2095,137
-107,33,64,5741,-1874,-72
-52,26,-122,5336,-4218,16
5,-62,-80,2814,821,491
123,27,-112,-4235,898,-2540
-23,23,-25,-3070,2346,9
-102,28,119,-1268,1070,-297
-92,54,54,938,1676,227
-50,117,-102,-1334,472,-413
4,-84,54,-352,1073,49
-2,-28,63,29,1187,163
-9,0,90,-2361,-264,-957
38,19,-50,169,1242,224
-7,23,-11,-102,930,-100
-18,23,-19,-796,-51,-478
1,10,-82,1148,455,5
-2,-10,-35,1588,193,227
-9,-41,32,470,-772,-354
25,-52,-6,2427,334,512
7,-119,93,-4409,2255,-3951
33,-84,-106,-2087,4452,-3294
-33,126,-90,-7852,-151,-4214
92,-102,-105,-1802,2812,-3309
126,80,118,4196,3395,-41
115,-38,82,-934,-310,-2209
-117,-58,111,4599,137,-307
112,3,-119,-47,-1756,8
-78,-56,-26,-1649,-4272,-5008
22,-94,-100,5915,892,3912
-84,-96,-76,6322,7146,4752
110,75,-74,-4202,-3918,-4885
-25,36,-97,-2864,-1920,-2251
-33,29,104,6112,5692,4317
106,116,72,-1837,-1451,-1331
47,44,99,1073,-2291,1603
-28,22,-24,3934,-543,1707
-1,-71,0,4514,-695,1578
-23,-25,96,3940,-2247,1480
-29,-111,-76,6308,-2291,1336
55,115,109,1876,-2962,449
107,9,10,2302,-1527,-454
-48,-83,-79,2539,-1535,-439
-22,104,-117,2741,-3091,-887
81,71,-76,2632,-1453,870
-60,117,-75,1268,1081,1490
-15,96,-79,-70,972,-439
24,77,58,-1712,276,-1084
-91,79,101,-1099,139,-55
-69,-120,36,482,1307,522
0,-72,90,11,1080,413
-2,-40,71,416,1491,19
-2,-74,76,-670,673,-556
4,-112,32,-424,398,-516
43,-97,8,313,767,104
58,-86,25,738,1148,391
12,-98,43,274,443,175
-19,-120,36,526,-95,-22
-2,121,41,750,-313,152
18,-126,54,1008,-141,666
-42,82,1,-3691,3982,-3951
-61,-118,-127,-2704,1932,-3633
110,-89,18,-2931,1477,-4753
-97,-91,-30,403,1549,-3087
-59,109,22,-258,814,-2216
11,52,118,-2299,-2582,-3065
36,-110,-104,625,-4758,-3289
-86,-65,-87,8175,1224,1118
85,122,27,4402,3910,5118
26,-60,101,-2922,1164,-1580
-113,37,-13,-1196,-560,-1824
11,61,-3,670,564,-79
42,5,64,2804,5026,3182
-60,-41,-58,-289,49,127
119,56,-60,-321,-1917,29
58,53,-5,2998,-197,796
36,-53,-92,3276,-2055,1479
26,-6,-62,8149,-475,2949
89,105,-67,2431,-3594,1180
80,-57,-37,7386,-1039,2958
-11,-40,93,-4,-2172,188
19,102,112,-1395,-4263,-3192
3,-115,111,7131,-1657,1023
96,-17,-109,6960,-800,3750
99,39,-23,-1874,-4223,157
51,-31,96,-2158,262,-2145
-69,108,-53,-1434,1943,-1664
-64,113,102,787,2000,4
-100,116,-105,434,1323,-425
-42,-102,-78,-1908,229,-965
31,-39,27,139,1411,187
5,-36,63,-352,866,-199
28,-21,37,-216,1045,-50
23,-1,38,-405,751,-236
39,-7,7,-160,835,-111
43,-24,-18,357,882,265
26,-43,-5,307,90,415
23,-50,-6,976,-140,754
-7,-69,41,937,-429,688
-11,-76,78,1112,-405,914
-30,80,6,-2185,8024,1214
-99,86,124,-3603,2124,-4082
-44,45,-108,-934,4306,-3034
71,-45,-49,-3445,779,-5327
101,65,77,-2184,2623,-3926
82,-5,-74,-1224,3414,-2232
77,-106,-50,-3249,-255,-2608
11,58,37,-1279,-60,-1230
-4,50,84,3761,-88,1271
-110,6,23,3597,-1091,197
109,92,109,1491,-2826,-2372
-119,-68,101,795,360,2245
92,-122,120,3844,4157,2286
118,-62,47,-2531,-585,-2334
-6,84,23,2786,4612,1444
75,-111,49,-2768,-1743,-1628
-62,125,109,3624,161,1180
30,-101,32,3564,-900,1441
2,74,-13,2290,-2665,1137
-35,55,101,8220,-516,2626
23,-17,-56,7734,181,5069
-94,-33,112,-529,-4731,-549
14,45,-51,1649,-2295,694
121,61,61,1432,-5164,-740
93,-128,107,4466,-2726,1588
94,72,91,2646,2431,2207
-18,-120,10,-1789,-637,-2199
-112,-1,-123,-1406,-642,-1126
-94,36,14,3524,2577,1820
75,-6,-33,267,444,263
-112,28,-112,115,839,77
-45,38,101,682,1297,646
-64,81,119,1266,1584,608
-32,84,-84,-906,-143,-784
-14,91,27,1161,1346,728
-74,76,111,-344,-127,-405
3,94,96,187,407,23
12,97,91,419,519,306
-12,93,77,512,438,238
-21,88,80,476,429,277
-114,-81,34,-7649,-735,-3933
-50,126,109,2955,4061,-1084
23,-80,-96,4862,5371,-12
10,-66,87,-2654,206,-3573
64,-30,73,-3016,469,-2769
-94,-1,-74,-492,1254,-228
27,46,78,4530,960,1104
15,-110,-85,3363,523,2074
-105,-102,-44,-3666,-6202,-3736
-69,-22,57,1095,-1868,-1333
-30,-93,-118,6299,3883,4010
-46,18,34,-762,1669,-561
103,0,-23,-1662,-895,-2150
57,109,76,9,1980,-230
28,-33,-83,2814,1243,858
68,-9,49,2076,-1770,-165
28,-47,-58,3755,-492,1784
-105,-84,-20,4724,-1768,2104
-62,100,72,6145,-303,2686
9,28,78,1916,-2041,2414
-100,119,54,3536,-1839,1793
-30,57,-111,-1094,-1762,-863
21,-119,-14,2185,-1699,357
114,-128,-7,-1050,-3212,-1651
-48,-118,-23,2704,-2712,-1003
105,-102,-103,1872,-242,1181
-116,123,-110,786,2520,622
93,-104,84,-2823,730,-1262
-76,-111,114,-3649,-951,-1628
-41,-43,102,1772,1645,1063
-67,-84,-6,2355,2010,1394
-101,-110,-99,-1683,-957,-920
-34,-29,-5,841,883,319
-34,-48,67,250,433,86
-41,-24,72,-48,390,23
-33,-44,6,806,557,179
-6,-32,-65,3886,2617,1657
-77,-111,-57,-1236,-1324,-938
-18,-38,-4,1868,946,596
-37,-88,117,198,-541,-253
34,-76,-62,7295,3995,4075
-1,-48,15,4626,2728,1022
-67,-58,123,-6269,-1848,-3403
-41,-119,122,921,2578,273
-30,-127,-122,-129,2553,286
22,-118,60,-916,-236,353
-115,57,-83,-1096,-1416,-741
80,38,-66,4059,228,481
73,39,31,5087,-719,1314
56,-97,-80,3918,-3041,383
123,-110,-34,4218,-1393,1719
75,63,-115,1169,-2853,286
119,48,-51,3735,-963,1276
105,12,81,-55,-2624,-156
-73,65,-67,1635,-3139,-284
12,-111,-46,1991,-2661,-46
49,-47,35,3255,-999,1169
-94,-94,-63,628,-519,-36
-90,-121,14,340,1778,212
105,80,103,-1228,-9,-609
112,101,-20,1119,547,281
-99,93,19,1220,975,463
-59,95,35,1056,1155,535
-75,76,91,-1016,-308,-503
-32,119,-78,1906,1599,950
-90,78,77,-871,-681,-488
-52,103,-16,919,484,313
-63,109,69,140,163,80
-59,125,30,624,498,197
-47,-118,52,553,551,265
-71,-110,59,-359,-2,-186
-58,-115,-19,1206,863,455
-87,-120,49,52,-79,-94
-49,-115,-5,1585,894,470
-62,-119,100,-366,-228,-391
-26,-112,33,465,425,29
-17,-128,30,863,582,197
-33,-123,64,-17,-28,-128
-12,-125,8,890,536,312
-31,-114,54,512,263,153
67,109,51,-6407,1790,-4252
-89,-8,24,-6531,1601,-2664
46,-81,-79,-2458,1844,-1913
-91,-95,41,-2778,2879,-1002
-115,100,99,-5762,-318,-1497
-61,14,-61,-1713,-918,-1190
-65,19,120,3422,-1087,-767
33,7,86,5915,-44,-352
27,-120,116,4969,-917,-1911
-122,69,-93,2008,-213,3041
-115,-40,20,2151,4674,1061
-33,2,-84,-3273,-2768,-3438
-126,-37,-90,-414,2760,117
-7,-62,-106,784,2741,1445
25,47,100,-1242,-1794,425
69,-12,-29,3004,-255,935
31,20,-34,3664,-1241,842
31,-20,-55,4938,-2228,1080
111,-2,24,6355,-2141,1948
96,-59,-17,4048,-3679,964
-100,108,117,1475,-3992,-1361
52,-91,-13,5385,-2366,1118
47,-100,-38,2400,-3872,-679
-123,-71,-72,4982,-1654,553
-4,-121,90,3402,369,1246
83,46,99,-2285,526,-1588
-52,-38,-83,-3918,573,-694
113,32,-23,1996,1393,1206
-76,37,97,801,1009,489
-63,99,114,-814,808,96
-84,105,22,-8,1451,235
-73,119,48,-1370,73,-263
-12,-91,-65,1367,1540,620
-53,-105,44,-142,357,-219
-54,-125,4,-149,14,-418
-24,121,-4,573,350,81
-46,-128,43,-137,-240,-237
-18,-119,2,1010,426,183
-34,-105,71,409,23,128
-53,-107,69,-53,-248,-168
-57,-75,65,-4934,1298,-3981
-89,0,25,-2175,1818,-2532
20,-76,96,-2602,177,-3307
-39,-120,55,-4425,-358,-1931
-114,67,-43,-2888,-1457,-2423
4,4,38,6986,-1940,-549
103,-6,-2,6530,1458,2371
66,-45,38,2719,2067,3091
-43,-21,-45,-2078,-6,-1751
-66,-4,-61,-1237,106,-1436
52,33,91,1398,528,436
-41,-19,30,2078,3084,1522
47,-88,-96,-2141,-1780,-543
-65,50,46,289,-1525,156
87,-9,-95,3052,-930,739
26,-14,96,5678,-730,1318
22,-10,-54,5829,-1327,886
6,-69,42,5726,-2776,381
-85,-106,100,5456,-2035,967
19,-95,-126,-186,-4833,-818
117,-81,71,397,-3961,-1444
-21,35,34,8506,-926,702
85,53,-86,6218,1124,2798
30,-80,47,-6788,-366,-3712
-44,64,53,-7445,-1664,-855
78,-128,-28,5072,1860,1125
-66,56,4,3922,2974,1235
-83,122,73,-2830,-650,-462
-49,-72,45,-1667,582,-146
-31,-40,-61,1207,1913,1096
-85,-90,37,-1342,-85,-324
-33,-48,-63,1017,1358,812
-16,-70,-27,281,1141,252
-18,-33,-10,2214,1227,978
-50,127,72,-1475,-947,-851
20,-105,-92,2656,1530,1138
-12,99,89,95,-612,208
-9,117,23,1758,665,682
-28,98,-124,851,79,560
-43,94,97,767,172,321
82,-82,31,-5247,2352,-3025
-116,3,107,-4516,2454,-1527
-115,62,-121,-5414,686,-1981
-121,55,3,2198,5527,14
-72,-64,-26,5731,4875,129
-53,-82,-50,-7487,-542,-4297
-8,-11,30,1904,2654,-242
-37,91,126,-7469,-3637,-4252
-88,20,15,584,-2697,-3290
-24,-64,125,9502,897,630
-119,-35,-29,4256,-246,-386
-112,105,104,992,-2184,579
-92,-39,-70,6230,5254,3364
99,88,-3,-2556,1413,-1929
-31,16,-120,-2263,1254,-724
-127,-8,76,825,1010,1941
79,-4,108,-2039,-3057,-493
-2,98,-118,2440,-1537,-153
-4,91,38,8771,-1325,1114
-124,-41,-63,8993,-890,2967
-1,-100,-113,5161,-4937,3152
-80,-87,104,-1591,-6716,-2919
-61,106,-117,8057,-1593,2240
0,-117,105,2107,-2176,-821
-68,37,11,6339,-3531,1986
-35,28,-73,3981,666,959
28,-83,-71,-3754,1280,-1735
69,109,82,-3831,788,-1427
112,96,13,-2995,-482,-654
104,94,119,3994,2247,1258
-106,82,89,2415,2063,858
-75,-123,-18,-2083,18,-586
-44,-97,61,16,1192,163
-34,-109,58,8,1063,153
-39,-102,30,118,796,164
-35,-110,36,6,658,47
-22,-104,20,-199,229,140
-30,-114,-26,1057,557,359
-32,-117,20,1029,202,481
-43,116,62,562,-394,163
-115,-88,67,-6408,2475,-4515
-36,101,80,-6894,1292,-3388
124,124,-28,-15907,-1941,-3049
-20,-5,49,1659,3638,-576
44,31,-40,5241,596,-83
-45,-20,-56,-1,-144,-1169
-6,87,-42,672,851,-359
-65,-59,-66,4913,-2449,-1410
113,125,-28,5323,2420,3605
60,-55,59,-1889,354,-190
-82,-101,-98,848,2204,449
-49,-55,105,-1327,1404,-1565
10,-29,-25,-788,2459,1012
57,94,78,-2561,-1569,-696
-101,53,15,-1145,-2122,725
66,-118,73,6928,904,1534
78,-23,-88,4644,-2533,604
-111,29,-116,7156,-2411,1317
-21,-27,60,7813,-1581,3202
-42,-116,-80,2648,-5157,926
-98,-79,89,1800,-3362,-769
27,-61,33,2429,-4654,-1448
13,7,48,7271,-277,842
85,47,125,3683,2271,3085
-9,71,-41,-3582,-1141,-3190
-46,-8,-116,-2001,1145,-284
125,5,-16,2021,2115,751
-121,-49,-125,-281,-466,-432
-13,37,22,977,1614,527
-53,58,111,-757,101,-156
-32,96,23,-74,534,59
-25,94,-33,849,1170,367
-77,97,52,-508,-581,-237
-38,95,-49,1369,856,435
-70,86,56,1159,409,346
-76,79,107,-659,-792,-488
-31,89,-3,1442,810,436
-58,82,101,435,196,20
-43,95,64,499,450,72
-51,90,71,36,-47,-129
12,88,101,-7379,2143,-3069
122,12,22,-2460,5526,-2443
-20,105,-111,-4163,2405,-4196
-83,124,79,-5882,326,-4252
-39,43,-46,-1409,3266,-1291
-25,18,-6,84,2253,-251
68,-44,-82,1015,-6,-480
-86,24,97,-828,-4431,-2521
-20,62,-115,3254,-1172,-1373
-80,-66,-69,4266,1830,3077
19,109,-51,1227,3749,2035
-9,54,-77,-2059,-1875,-2997
-19,-82,80,-706,27,-1191
88,21,66,2958,4614,2810
78,-125,-91,-1101,109,-479
-98,-1,-50,-193,-2123,-188
111,56,-13,5217,966,2002
10,-18,31,3493,-1568,640
61,-48,-30,5618,-1909,1374
118,-69,66,3648,-2940,868
-70,-65,92,7153,-2329,2155
126,-70,60,2135,-2809,1144
-120,64,87,-1024,-4449,-2197
95,-35,-107,7135,-1300,1531
-112,-89,56,2831,-3329,-42
40,124,8,3575,1598,1175
94,0,55,-4710,217,-2551
-44,34,92,-3436,102,-480
-124,57,-123,2653,1763,1180
-95,48,52,1874,1212,811
-86,99,-95,-740,422,95
-75,127,49,-83,989,222
-56,124,8,329,948,555
-50,105,4,684,1108,54
-32,126,35,276,764,-208
-18,122,8,301,669,-53
-27,110,15,395,319,-148
-15,90,-12,969,339,237
-28,86,57,378,-305,6
-19,101,49,1112,206,227
26,-70,124,5853,11597,4564
31,99,-59,-7516,-2135,-5876
72,65,-117,-1746,1870,-2916
4,104,-73,-5838,759,-4381
-38,67,-63,-4467,1275,-2720
79,95,33,-2948,2883,-2836
51,-21,-93,-6557,-1174,-3018
101,-124,-54,-5992,-914,-2401
104,55,-90,2575,456,1907
100,62,-118,4430,-806,1011
-52,2,-24,5046,-902,-116
74,-94,-108,975,-986,1579
83,95,-25,3678,4116,2031
79,-42,67,-3781,-1942,-3518
24,111,114,-396,441,-608
52,23,63,4212,5057,2809
53,72,-66,-2601,-2595,-1213
-99,59,72,2298,-1136,-219
121,43,-33,5489,-583,1635
78,-23,69,3892,-2161,314
118,-80,78,5760,-2098,1659
124,123,119,4549,-2430,1780
106,62,127,1617,-2930,807
56,-128,31,2078,-3217,-509
-71,73,-8,3669,-3691,-1314
112,109,101,4587,-1731,203
98,118,70,3180,-784,1040
-97,61,-20,-1906,1293,-1122
-48,18,-106,-2653,1024,-642
-87,103,-40,1144,1587,779
-99,75,6,1278,1140,643
-66,90,46,24,783,266
-63,115,25,-92,491,181
-60,-119,-16,469,606,192
-45,-127,-22,844,808,346
-78,121,49,-167,-179,-242
-29,117,-21,1107,806,289
-40,119,32,1056,507,393
-51,85,58,-269,-355,-416
-23,107,9,1365,744,420
90,53,-108,-7803,-197,-3568
43,66,-29,-5466,1342,-1316
-67,-107,-90,-2763,1195,-1289
-73,27,-79,1666,1073,-97
-101,52,-108,770,1652,869
58,-22,121,-3275,-4663,-1915
76,14,-30,2269,-1806,257
32,13,106,6567,1595,1018
55,-53,-40,4894,2926,3388
15,-97,-107,-1569,-369,-1713
104,-12,-2,-172,877,-901
25,98,-73,-146,1828,18
-68,-118,-95,-72,1190,-98
62,-125,41,-544,12,166
-115,-6,79,-692,-1716,-686
-121,40,-101,4729,-174,2116
125,-24,-65,5751,-1218,2410
-110,-49,53,5516,-1778,2869
115,-93,-7,4747,-2093,2283
117,-86,-100,3013,-2552,2058
66,83,-7,-73,-3288,-466
-64,73,23,2962,-2441,1236
0,101,66,2199,-2743,315
37,-76,110,4291,-2438,1338
-26,-107,-13,4098,377,1315
37,74,68,-188,1694,-1142
-109,49,82,-1772,2097,-897
-102,46,-71,-1865,650,-781
-103,21,-4,497,598,-61
-85,46,67,1760,1064,884
-79,50,-77,-1234,-446,-539
-26,122,45,1138,1327,352
-44,102,122,-741,-70,-453
-33,114,17,601,610,68
-50,108,61,131,-52,-191
-29,111,48,705,284,47
-30,104,93,499,142,-99
-26,108,94,192,-74,-110
-21,105,70,813,301,110
-36,119,122,97,-75,-62
-28,-67,104,-5451,2326,-5157
-100,-39,-97,-3694,3614,-3741
-5,-76,125,-7147,-1348,-3689
-102,-5,-25,-5250,-435,-3502
85,97,-82,2506,2147,1626
-37,-81,-109,-794,-1998,-537
-54,-116,-80,1802,-2309,-739
-116,-121,27,3523,-1440,106
-119,28,53,4363,1786,1369
35,-53,106,-889,1131,-624
-97,-13,108,400,1506,-172
-21,83,-47,-2125,371,-1156
9,-55,69,668,2587,1106
94,-105,36,533,1105,718
-43,53,-89,912,-817,665
99,86,-10,3103,219,596
-91,98,-54,3896,2163,3457
12,40,-125,7399,340,3802
40,8,-20,523,-5179,178
-123,70,-126,4711,-3495,1595
-95,-118,98,3912,-2270,1785
90,28,-20,165,-5707,-1681
50,-92,-33,4198,-2772,-301
-95,-37,84,5743,-919,1972
-27,-85,47,1982,-567,908
90,-126,-41,-704,1252,-812
-99,68,1,-606,2582,-324
-111,42,-110,-3658,-411,-976
124,75,-42,-1472,-902,-446
-54,-105,125,4819,2500,1916
-63,87,-65,-868,338,-224
-45,-116,21,0,607,70
-50,-115,2,496,708,279
-53,-123,4,248,216,-69
-24,-127,-11,1446,939,509
-57,106,73,-150,-295,-230
-41,113,29,1045,362,246
-43,109,78,450,85,-4
-48,110,76,490,74,66
-40,110,57,1120,501,341
-117,-89,17,-5418,3435,-2485
-126,69,-74,-6211,3176,-3574
85,-59,124,-7382,1107,-1839
127,112,4,-8391,635,-2155
24,126,24,3012,1549,-1412
66,5,-43,573,-654,-2378
-13,59,-51,531,-2931,-93
33,28,47,4948,-727,-2351
-121,-123,-128,4782,1064,2656
102,-60,57,2679,3707,2499
97,-86,0,-1700,365,-1764
-5,-12,-89,-705,502,-478
27,-92,89,-216,1964,686
113,-45,60,836,1472,826
3,58,-8,-1899,-1777,-581
102,-85,-45,3138,-70,487
53,123,-68,6465,-427,1235
76,39,21,4957,-1956,-67
-92,-51,107,8629,-1292,2232
-94,36,-48,2465,-3858,1162
-127,29,120,1787,-2948,-409
-40,56,-77,3569,-2227,-585
68,121,-12,3241,-3927,-953
-63,-25,-128,5694,-3274,597
74,13,-120,2220,1524,2375
-10,95,121,-5888,-718,-3662
-34,108,56,-6282,-1014,-676
60,-91,46,3367,2054,681
-123,126,2,1404,1128,108
-77,-39,109,-2979,-617,-290
-83,52,-76,-1341,594,-95
-82,72,127,80,1089,217
-84,55,-113,-1457,-107,-544
-83,69,91,973,552,206
-58,33,-97,200,180,-74
-50,30,-84,1083,889,224
-83,7,-11,564,343,-29
-57,-25,-26,34,201,-303
-31,-23,-52,948,555,300
-51,-33,-21,657,337,110
-125,40,-67,-6892,959,-5862
76,-92,-71,-4097,2080,-4139
-110,-33,91,-9810,-1002,-3794
-70,-97,81,-9285,-193,-3995
-110,-25,-126,3609,1885,242
55,7,111,5743,1074,198
90,-8,-20,-1444,-2923,-1137
57,-43,54,3151,-2176,-3163
-40,-35,-14,1444,-1181,544
83,65,-78,2381,3168,3952
-7,-108,-46,3848,4638,1299
74,49,-128,-4440,-4175,-3832
64,88,33,510,2870,1022
-108,-19,9,1116,1601,753
-13,116,-58,-1510,-3295,169
50,23,88,5792,-422,21
68,33,114,7374,-446,1026
96,-102,6,6387,-2265,1377
-117,-95,-20,5915,-1654,2585
-126,91,34,2545,-4041,781
-91,118,55,1109,-1883,-1071
37,-85,-8,3447,-2529,-882
-111,-42,91,4755,-2469,708
54,-58,11,2774,-356,445
-53,85,32,-1122,404,-1405
-22,-23,-51,-2148,1289,-913
-66,-17,71,-254,556,-73
-69,-5,10,1199,793,544
-55,42,94,23,153,392
-41,98,72,28,789,322
-56,-128,26,-204,538,289
-84,-122,1,54,238,146
-74,-121,-1,277,273,69
-60,-119,18,400,443,127
-62,-123,1,963,769,235
-66,118,58,-377,-218,-308
-34,-125,-10,681,530,129
-39,120,45,44,-79,-146
-27,-128,19,395,344,10
-17,120,8,667,470,225
58,-34,-88,-4456,2109,-3601
115,115,7,-5515,68,-3306
47,10,-119,-5099,1576,-2047
-57,-105,112,-25,2437,-1824
-55,70,-30,-2723,331,-2480
-2,-10,-94,420,-93,-1143
-36,-66,81,2370,-173,-763
-51,46,68,-254,-3864,-2018
54,84,-67,3727,-1914,-34
-105,-101,119,2485,2626,3712
41,103,-105,3882,4356,629
108,-91,-13,-5190,-3692,-3502
75,-55,-41,1599,2817,1352
-17,-61,0,3484,3337,2488
-3,99,107,-1729,-1243,-1356
-96,63,51,-922,-2312,344
63,58,102,5081,-30,332
90,-19,-106,6623,-1715,979
-120,-89,87,7243,-1608,1960
-97,117,90,2559,-3954,1002
-127,122,3,4192,-3154,149
-31,110,108,3064,-2992,-86
30,-106,-18,1346,-1741,-512
-102,-23,47,5793,-1071,490
86,-77,37,5503,-261,2208
80,75,93,152,1451,-1828
-46,2,-125,-3128,2194,-729
-88,37,-47,-1412,1012,168
-120,-31,77,211,315,-53
-59,3,97,742,1046,606
-56,60,-107,-920,218,78
-17,113,53,243,1054,340
-35,-128,63,-391,804,71
-46,-123,23,-505,292,-135
-59,-125,-24,363,388,-124
-45,-128,14,467,131,-84
-31,119,26,645,180,-97
-12,109,67,895,317,-70
-21,110,98,-8,-174,-251
-12,110,54,693,258,11
108,126,-127,-6581,2342,-3942
-114,-44,32,-4383,2884,-2837
80,40,-95,-4929,2969,-2791
-45,25,-89,-7894,-157,-4269
-111,-49,63,3333,2787,-501
-54,-21,-29,-1282,64,-1681
25,-21,-59,355,-1628,-810
68,19,8,1749,-1364,-300
-71,30,5,5603,-776,-200
-92,125,117,3209,-1040,1967
122,-99,-99,1005,4040,3030
-52,17,-61,-456,1482,-1168
82,-35,2,-1339,-1153,-1445
52,-120,124,116,3792,1202
113,61,-107,-811,-735,1160
-8,74,-114,1111,1227,294
-44,12,113,194,-1638,510
115,96,-2,1225,-1440,425
86,48,-118,3866,-2036,978
72,101,-116,7320,-2021,1522
116,-4,67,3467,-4226,217
-125,-63,-75,8780,-2968,873
-85,-74,113,650,-3301,-462
10,67,104,-2052,-4612,-3897
31,-3,-89,10764,185,2317
112,57,-61,3535,369,3261
9,34,-21,-3399,-1484,-3225
-10,56,-19,-2338,2676,-278
-74,56,123,-3151,-77,-434
-104,71,-88,1778,1331,608
-76,103,56,2140,1679,1121
-34,94,-112,-1855,124,-513
-27,-87,-34,1480,1872,986
-62,-125,68,-1535,-746,-567
-25,-100,-63,1290,1014,456
-36,-119,28,860,531,319
-47,126,54,421,346,15
-40,100,32,947,436,216
-54,99,62,636,5,87
-40,88,86,621,-84,89
53,47,76,-4292,2864,-5024
-21,17,-90,-3951,2943,-3391
-40,91,106,-6198,1851,-3491
35,22,-21,-7750,-757,-2804
-94,127,13,-2016,721,-2196
-15,-5,-12,6032,-197,-385
37,-50,117,-1312,-2838,-1182
-12,-72,-116,5768,-165,-916
1,103,-61,3870,-1078,-425
4,33,12,1453,363,2156
-80,-128,70,2919,4373,1782
4,-35,-12,-1755,-2331,-2055
39,-125,68,2699,4709,1213
-31,94,55,-1782,-134,39
67,73,-37,-353,-157,696
-100,-71,59,1860,-1911,769
14,-4,-65,3345,-1378,851
10,-115,-37,4308,-2620,796
41,-19,24,5732,-1850,1919
2,106,8,2590,-4075,82
74,-128,43,2860,-2224,682
84,58,-12,3208,-2455,-445
-21,95,62,2966,-2289,-948
97,-60,70,3115,-2718,517
97,-109,-95,4391,-1684,514
-41,-115,1,2477,2238,836
116,6,-24,-2319,1398,-1784
-55,27,-48,-2577,1315,-786
-88,11,-12,-2424,-1083,-573
-76,90,-106,2973,1035,1338
-65,81,85,596,404,341
-71,-108,84,-748,327,-2
-73,-90,29,-68,495,44
-68,-94,-27,1051,1286,289
-91,-111,43,-9,295,-215
-74,-128,-8,544,-18,-161
-35,125,13,1261,633,201
-41,113,89,248,47,-221
-14,96,55,497,273,-48
-17,105,57,895,478,301
109,-82,-122,-4941,2207,-2902
-18,-26,-28,-2103,1159,-1523
104,-78,-104,-4813,704,-3459
125,-124,-125,-3318,-217,-770
-125,35,-63,-2127,865,-614
14,4,51,-3081,-4991,-2156
40,-11,12,-464,-3279,-563
-98,123,102,5601,904,456
-119,-15,-36,3468,2311,3458
75,-55,-122,-987,181,-1157
67,-94,-25,-4358,-2459,-3417
-41,39,111,1958,753,224
25,-18,-125,11627,9100,6368
60,-68,30,-4788,-2020,-3932
81,-47,-106,-5280,-3282,-2365
-95,103,126,5746,1690,1158
-108,-76,-32,5992,-450,1490
70,-87,37,5374,-1298,1077
95,99,-88,5131,-1945,2413
70,-120,71,3685,-2342,1804
59,74,115,2390,-3883,736
118,25,-35,2937,-3215,26
-43,-94,29,2741,-1539,-632
66,-126,103,2585,-3008,-780
82,-89,-75,4584,-803,1346
-66,88,28,-913,274,-933
-52,38,43,-1633,2000,-839
-53,25,99,-2496,528,-124
-102,35,-32,-1611,-729,-477
-46,-123,122,3936,2086,1848
-65,112,124,-580,165,43
-58,-100,40,-545,365,7
-74,-96,-36,394,538,249
-78,-110,-53,1424,972,369
-85,-110,49,141,-39,-173
-51,-126,14,236,46,-306
-37,115,19,1127,633,73
-44,108,77,-200,-228,-313
-2,97,-5,1050,601,292
-23,103,47,959,491,347
-91,73,86,-6269,3115,-2098
-54,42,123,-329,5096,787
34,-80,32,-6741,1112,-3519
27,-74,-39,-6414,1244,-1942
-12,21,-105,-7484,348,-1106
68,-57,100,-6303,148,-2402
87,79,77,-37,692,-733
-26,-4,-39,1845,1121,-694
78,-51,-4,-4134,-5558,-3524
105,-37,-101,4736,-2152,-5332
41,44,44,6503,2400,3196
-47,-12,-80,3398,5616,4709
78,-59,-112,-1127,507,-1655
-45,-22,-105,-5626,-3755,-2506
42,-35,96,4822,4155,2682
-14,54,-94,4877,4628,3714
-15,-90,98,-2608,-1797,-764
-87,94,-113,-967,-2153,-710
-123,79,91,6109,545,747
-114,35,-70,6726,-1234,1079
-112,-50,24,8960,-115,1708
-1,80,-29,5799,-1700,1850
-87,-28,120,4887,-1744,2791
69,38,40,-3193,-4191,-2639
14,9,1,2179,-1527,745
37,115,104,4473,-907,2096
54,-125,88,2331,-3505,31
60,-50,-120,5956,643,2298
110,95,102,-1768,-494,-1542
-56,41,-22,-714,3142,-325
-72,36,-59,-753,2143,-43
-93,13,126,-303,768,-365
-35,38,70,974,1294,279
-30,63,-106,-1036,153,-404
17,89,48,-214,695,12
14,116,34,209,834,-93
23,114,35,-65,269,-202
18,-128,17,784,591,116
2,107,55,-88,-340,-300
17,110,27,1114,244,240
94,81,-62,-5191,3841,-2603
77,127,89,-3613,3122,-2682
28,-32,38,-5909,2576,-2114
94,-2,-62,-10792,-1106,-3117
27,-106,-44,2933,577,-1278
53,-22,104,6885,-300,-2965
-98,-82,-79,751,-3021,473
-5,-8,46,382,-3379,-4060
63,-117,-52,4390,924,3737
-124,32,-8,6480,8437,4556
-82,-67,-83,-6484,-5941,-5330
-20,67,21,-5331,-2164,-1189
-73,89,-29,8358,5053,3834
49,-78,120,4794,2005,1442
60,6,-49,-343,-3055,-2014
61,64,-49,4030,-1336,-730
-109,35,2,7741,-534,821
-81,-86,30,6154,-2345,711
-71,-97,-95,2358,-3334,761
-76,-109,-92,2980,-3629,-392
88,-107,-23,5358,-170,2127
-2,-97,-110,1355,-1041,432
-63,-91,70,2957,-1059,120
-84,125,-119,3097,262,1062
-127,76,-115,229,1279,-372
-114,66,15,-195,1827,-284
-120,43,-57,-557,797,-280
-118,24,124,555,862,-4
-66,21,-125,404,732,-125
-41,60,-124,161,1013,93
-51,93,-94,-1366,-223,-572
-4,124,18,174,766,11
-19,116,64,-305,362,-160
-15,-115,38,8,469,-9
-11,-101,54,-304,210,-86
-20,-88,13,42,134,-152
-8,-92,7,693,376,67
-16,-92,54,119,-134,-134
3,-98,19,1007,390,303
-12,-105,71,61,-277,-123
82,-103,37,-8347,-948,-1631
-119,-62,37,-3002,1057,-1218
104,23,49,2508,871,-684
-37,-52,-51,772,709,-361
114,-83,-119,-405,-716,-216
5,-85,-47,776,-1130,-753
-34,99,90,-452,-1932,-3237
-102,80,-72,461,-2882,-1381
87,-63,60,1837,880,3173
-63,108,-3,4017,6044,3157
33,-11,53,-2304,-2187,-2917
82,-104,-73,-1189,278,-334
-24,0,-37,4011,3907,3145
-30,45,-26,195,-1255,134
96,13,75,405,-2794,-58
72,-14,93,6484,-893,823
123,6,-60,8154,-558,2728
84,-89,-56,4694,-3128,2204
-12,97,49,4139,-3780,1379
-16,74,-43,1104,-3623,-733
-124,28,-105,1602,-2299,-1227
-14,-117,-56,5654,-900,485
108,109,-40,1033,-4836,-1143
-114,-73,96,6451,1425,2740
83,106,89,-327,1285,-1223
124,23,-92,-1870,1519,-1191
-82,30,-61,-2339,1088,-249
-101,10,88,-2207,-737,-716
-54,72,-64,2027,1886,1073
-71,86,110,-348,495,118
-40,-127,53,-18,887,223
-44,-91,31,100,950,288
-61,-96,3,-360,141,-207
-47,-105,-24,717,563,125
-27,-112,25,516,366,49
-25,-127,38,595,292,1
-20,124,46,798,304,78
-21,110,72,799,124,134
-31,107,82,451,-14,4
-28,113,72,784,180,201
57,105,111,-5731,3811,-2686
64,-5,-31,-508,6046,-1635
-107,-36,-62,-8021,625,-4437
113,-20,41,-9918,-295,-2251
-50,-14,-98,1567,3340,930
122,-65,106,-2030,1065,-1264
110,122,-8,-2346,-1305,-2011
-76,-54,-5,-1641,-3901,-3216
94,22,119,4712,-2468,-2518
-39,-120,-117,4431,-159,-226
-115,-1,105,2262,2381,3576
70,107,50,-27,3280,240
78,24,100,-2029,-2012,-2396
66,-19,-1,-251,947,264
-2,11,-95,4643,3137,2352
57,126,-53,106,-553,380
123,3,14,1427,-2165,-341
56,69,116,8407,176,1934
64,85,98,3655,-3103,-651
-112,108,-49,6982,-922,1213
-97,16,-47,768,-4178,-42
108,65,84,471,-3762,-3084
80,-125,-115,3221,-3745,-1914
-32,10,-15,6861,-1167,1357
116,16,21,3782,839,1435
53,45,67,-4030,-134,-2363
-76,87,-103,-6584,-1398,-1474
107,-58,106,219,-89,267
-112,-119,113,5100,3255,893
-72,120,-85,-2551,-799,-623
-72,-30,-10,-344,778,330
-107,8,19,-899,60,-298
-101,35,-34,-514,249,-125
-128,42,-10,-846,-229,-535
-109,70,-20,-646,-204,-468
-82,55,-45,-481,122,-171
-104,76,-26,42,151,14
-108,93,9,-651,-138,-327
-99,91,-45,529,383,79
-96,86,3,-311,3,-205
