AccX,AccY,AccZ,GyroX,GyroY,GyroZ
126,109,-69,7754,4680,2667
-25,-7,-123,3970,1668,-630
2,50,-2,1967,3912,-3553
-4,-98,-44,-6904,-689,-5761
-52,78,-65,-3969,582,-3911
-65,-25,58,-6929,-257,-6424
-45,120,110,-6421,1546,-5737
124,-109,-84,-4541,3323,-5099
-70,57,-23,-4699,2918,-5278
-114,102,-35,-6897,1148,-5587
-29,126,124,-11513,-180,-5094
24,-90,-86,-4755,-67,-302
-66,-43,-61,15842,2903,6420
-56,57,-35,5917,-4602,-770
57,36,63,14822,75,6168
85,-37,-2,11073,-1090,7306
-121,109,10,9375,77,6475
-41,60,-70,3449,-1321,3742
21,-54,114,1504,-6143,-640
-55,14,-11,2187,-4241,-127
13,-115,75,6713,-802,2079
8,103,100,4540,-432,2774
55,-54,-94,2795,615,852
13,120,52,2398,1959,311
-20,99,-64,1587,2148,520
-37,17,111,-650,405,-468
67,45,-35,372,1440,262
101,49,-75,-952,424,-19
-125,93,32,74,1122,286
-96,102,-12,154,1176,532
-115,-107,-30,1486,1805,959
-110,-114,44,-446,332,-267
-76,-97,-26,1398,1196,698
-89,-109,42,44,227,28
-69,-89,16,850,675,369
-72,-86,25,767,632,364
-72,-92,44,392,345,159
-60,-90,2,1309,912,649
-86,-102,62,346,202,237
-79,-86,23,1148,740,568
-79,60,61,8563,6740,3468
-96,71,-43,-6700,-2262,-2527
-39,4,-64,-1869,3738,-1842
-114,43,34,-3368,3198,-3465
-15,63,-22,-4848,2992,-4362
24,21,11,-4290,3192,-4623
0,-93,27,-4804,3145,-4319
50,-86,-16,-3765,3801,-4699
-112,84,53,-5044,766,-6007
-77,17,24,-6051,2979,-5243
-15,-71,-24,-7078,2238,-4571
-39,93,113,-13616,-3394,-2374
-31,-23,124,15579,4085,8977
117,-21,22,7430,-4227,907
47,-77,70,5432,-4805,-263
-88,114,-127,12603,-352,5694
44,27,-5,11995,-913,6728
-46,-84,125,8421,-198,3029
19,-70,-124,1236,-5994,924
11,-22,-79,7642,-1849,1662
59,98,-37,6281,-1274,2770
-43,-84,-108,5285,-485,2728
123,27,-39,574,-1481,1147
35,-107,40,3764,1805,1035
-64,77,80,486,583,-101
-3,26,-87,-1140,153,-671
68,-1,-45,993,2014,458
77,25,-85,1115,2178,775
79,43,-81,-384,751,-230
127,74,113,-457,724,-129
-82,108,32,500,1339,435
-76,116,40,121,639,217
-43,124,7,603,860,549
-54,-116,-25,1218,1376,746
-77,-119,43,277,386,116
-61,-102,4,740,604,385
-67,-117,2,896,563,339
-63,-116,28,944,455,413
-72,-122,54,710,376,347
-64,-124,23,1488,1008,680
-84,81,74,5828,3413,1697
81,45,101,6945,5431,4713
117,-14,-100,-7324,-1039,-5328
36,-43,-8,-2008,3764,-2136
-36,28,-35,-5197,2514,-4479
6,-19,-74,-3957,3226,-4286
58,3,-16,-5992,3429,-4915
-105,-52,-5,-2338,4012,-4523
14,105,78,-7437,409,-6855
-43,-29,12,-9654,450,-5028
-40,-28,66,-2686,4824,-791
59,84,-39,-4895,-15,-1316
-88,44,123,-10364,-5205,-2976
-64,-109,59,20858,2797,11044
45,4,64,-806,-7716,-5977
-84,22,123,13315,933,3645
113,121,-106,13444,152,6250
121,120,-96,7821,-1234,3762
16,27,-83,4056,-4115,1136
3,-82,13,4835,-3897,-902
-117,-95,-30,7083,-597,3570
-124,121,39,3096,-2002,394
-84,-20,7,885,-2970,-1377
62,-105,77,5175,1936,1830
-77,88,-16,5415,2523,2708
-22,53,109,1150,902,549
-14,56,126,-210,1978,553
11,106,6,-245,2160,411
35,74,-109,-752,1240,-572
-121,71,39,1461,2346,422
-111,78,121,7,1085,153
-75,92,27,151,971,90
-62,89,4,389,732,30
-54,94,21,1158,724,389
-43,92,21,1021,645,429
-49,96,63,416,146,194
-40,106,25,1328,642,620
-50,110,53,965,489,514
-45,115,39,1256,573,734
-60,116,65,887,126,611
94,51,32,9786,7230,3515
-89,-2,-11,-11237,-4777,-5350
93,56,-87,1821,6997,-170
-110,-49,83,-6015,2203,-5534
62,75,120,-4161,2880,-4323
40,7,-101,-4584,2928,-4842
-59,-1,-50,-4918,2135,-4751
-15,-45,-4,-5000,1562,-5472
97,119,5,-9123,-455,-6302
81,4,-97,-6177,3712,-4124
14,43,14,-3471,2611,-2103
12,21,0,-14055,-2718,-4819
19,105,58,19715,3697,10151
64,107,-20,6538,-3506,4341
36,48,-1,4563,-3979,3158
-94,8,109,13666,41,7776
-114,-31,24,8065,-1595,3916
-41,-108,21,4430,-5009,880
47,-96,115,5804,-2398,1504
99,-92,21,4891,-3609,1151
111,65,122,6352,-1814,1711
97,-65,92,7008,499,2925
-90,-122,-4,4563,1599,2339
0,-64,-46,-961,-417,-956
31,-11,98,2388,2367,-595
102,18,65,3856,4744,1797
-14,68,-30,-2363,754,-838
87,107,-21,-5470,-2126,-1260
-107,109,110,1452,1364,494
-124,118,-74,3797,2391,1885
79,109,-38,-1720,-748,-615
-109,-104,16,-892,77,-345
-57,-119,-91,2040,1733,925
-72,101,17,1309,955,579
-82,106,49,844,376,500
-80,117,28,999,521,543
-89,102,71,356,50,266
-78,125,13,1407,899,776
-85,-120,49,744,392,492
-73,-97,74,984,342,553
-91,-41,47,6013,4387,2255
56,-128,78,-611,1547,-1491
-127,-125,-32,-5414,714,-4240
93,58,42,-447,5958,-3311
-17,-76,81,-6368,1342,-7167
60,-33,-72,-3725,3913,-4815
112,64,-49,-7318,-6,-6013
111,-109,112,-8743,-572,-5052
-55,-70,20,-1459,5039,-3251
-40,112,111,-2971,3223,-4322
93,47,47,-3405,986,-3615
-8,-27,8,-8920,-4981,-4875
60,38,-67,16315,1799,8357
-43,119,-89,7380,-1666,4119
-122,-56,-95,8411,-1855,3912
96,62,51,12368,-764,6821
120,91,39,6240,-2680,2697
-26,20,7,4343,-3051,1516
-85,4,-110,6773,-1291,855
60,22,65,4963,-2285,1471
75,-83,-20,4675,-2205,2505
-87,119,101,4607,-1045,2677
54,10,-63,1791,-571,741
34,65,-45,-1381,340,-976
79,13,16,1508,2248,676
75,19,-69,2867,3575,1313
33,62,52,-793,1101,-103
107,112,-90,-1387,1148,-183
-110,-108,24,-33,1520,310
-105,-118,0,758,1646,457
-115,-121,19,359,851,178
-98,-114,-6,772,670,296
-82,-118,6,955,595,362
-70,-117,19,1194,727,477
-57,-125,50,918,437,379
-52,-122,32,1259,699,569
-58,127,61,1048,401,501
-70,126,61,1008,380,551
-81,-120,61,959,413,527
-86,-119,63,844,350,488
-21,-117,-33,5835,3645,1895
106,-98,-85,1944,2475,1242
122,81,10,-6470,5,-3870
101,27,20,-1093,5131,-1610
-73,40,-66,-6065,2008,-5111
-34,90,-128,-6678,832,-4730
-68,-13,67,-4395,3103,-3915
-4,117,-77,-6199,1602,-6073
-124,34,-57,-9429,-148,-5824
101,70,97,-5276,3018,-2757
-83,4,-53,-1456,3308,-603
44,-51,71,-7644,-1570,-3077
-98,52,-45,10486,736,4476
30,17,-49,9688,-1451,4758
22,-85,-41,2534,-4634,648
-120,14,44,12227,255,6874
41,9,-85,12619,1384,6971
-99,8,121,2091,-3140,1515
-128,-15,-25,2086,-4841,-1310
51,13,83,6273,-2888,197
-70,-98,-27,6234,-1107,1960
-109,-123,-32,3795,-2722,1832
-29,49,30,5008,-310,1650
121,-100,-118,3463,335,435
-106,42,23,717,1646,165
74,80,66,907,2945,1224
0,52,36,-140,1112,272
27,41,-85,-285,631,-201
122,22,67,1360,1552,734
126,44,75,1701,1867,1034
95,74,-93,-38,582,-62
-100,86,87,-372,370,-196
-61,85,-11,1098,1166,376
-62,89,47,476,588,183
-53,91,22,700,639,236
-46,97,12,881,671,397
-48,96,21,864,499,424
-64,104,42,716,438,298
-56,111,33,785,540,362
-61,116,28,1012,675,490
-65,-114,-104,8831,6527,4804
-23,21,-80,-12240,-4255,-5526
81,83,38,645,6917,-264
-106,-61,-8,-5222,2470,-4627
26,86,-127,-5152,2909,-4289
10,-37,124,-3864,3976,-3933
-119,-89,-50,-2167,4656,-4490
-16,71,65,-7387,-295,-6856
-88,32,-40,-8440,774,-5614
-51,-57,72,-5711,2144,-2297
62,-113,-115,-4641,-637,-584
121,36,106,-6515,-2533,-2712
-23,-34,-110,20607,40,7839
-28,-83,122,857,-6138,-1753
119,34,-27,13900,1663,6701
7,75,107,16595,6793,10135
-115,9,72,-2602,-7225,2332
6,-3,-15,-728,-8474,-2242
99,-97,-32,8531,903,2372
-110,-113,-117,3372,-5155,438
117,-58,92,6669,-1354,1816
-38,50,-88,4884,-781,1951
-94,88,-111,-771,-616,-1528
-103,75,42,2050,3035,1294
85,-18,51,-10,765,297
70,12,-105,1858,1335,1200
21,91,-53,2110,1802,1328
44,77,-43,-1615,-245,-485
100,107,30,1279,1537,818
89,98,63,736,1153,400
103,97,65,212,745,49
-113,102,18,273,709,120
-82,108,-20,731,859,383
-82,106,-4,741,839,226
-64,110,-5,539,706,233
-57,111,-20,876,710,415
-60,109,-12,941,648,454
-65,118,-1,861,398,509
-81,126,6,837,416,456
-83,-125,15,701,370,493
-101,-51,103,7020,7526,2126
-17,-85,-56,-7729,-2274,-4744
86,26,-62,-1721,4269,-2049
-3,-61,32,-2894,4086,-3997
74,-108,-5,-4322,2595,-4851
15,-20,-80,-3575,2933,-4609
115,-89,-74,-5506,970,-5311
-55,117,103,-4361,2640,-5019
93,24,-104,-3824,3324,-5702
-94,-60,-58,-5897,1644,-5517
-108,90,101,-8948,-2140,-3753
83,72,68,-4978,-3672,-480
-32,116,-96,20759,2364,10515
-96,69,-72,-841,-7583,-1972
93,6,3,11004,-16,5336
-37,11,-118,12886,-1251,5972
10,70,103,4948,-2714,2889
-44,118,14,3228,-5481,-331
20,-35,-96,6585,-3752,-193
-69,-123,30,6891,-1057,1726
109,-45,112,5365,-347,2760
-98,17,-57,1743,-934,-10
-87,113,83,1821,991,220
70,50,-104,1332,1911,761
28,61,83,-218,612,206
65,23,121,-934,0,-169
74,69,-9,3708,2428,2014
24,53,-44,449,109,249
104,91,107,1003,1166,612
105,83,-120,-60,512,41
-79,123,22,801,539,355
-44,-86,10,731,510,343
-28,-77,-16,1017,757,508
-35,-75,0,634,544,327
-26,-80,-24,869,631,454
-30,-76,-18,783,575,404
-26,-69,-24,968,754,502
-25,-67,-24,891,742,477
-30,-69,-16,704,477,354
-19,-55,-20,768,643,366
46,-70,-103,4488,3985,1964
-20,92,76,2860,2527,575
11,69,-123,5052,3475,1665
-110,-98,-28,7728,6792,2633
-78,100,-124,-7275,-2690,-5025
-25,-118,-78,-672,3727,-2760
101,86,-9,941,4802,-3593
-67,82,95,-7886,-2394,-7805
-19,3,88,-3020,3632,-5159
-106,43,65,-5520,895,-7164
48,-15,-3,-5955,1526,-6511
-73,89,46,-9851,-435,-6539
-10,88,-77,-7117,1664,-3173
-70,24,107,-7791,-942,77
-117,37,-84,12356,1867,5244
7,65,-104,7419,-3153,245
-87,6,39,12039,-542,5823
0,-43,-94,16180,1390,10946
-20,32,-54,6088,-555,3816
13,-126,-112,301,-6711,2148
-94,-113,91,5955,-2930,-308
-21,-66,49,4512,-4409,1546
-6,-82,75,5200,-1711,2580
17,-80,-12,7970,2010,4266
-18,-101,52,-2800,-2763,-1992
-69,106,-118,-1804,-378,-70
105,-103,111,5504,5342,3384
-60,2,-63,-3400,-2230,-1848
93,62,83,445,1350,426
104,72,65,3591,3029,2015
41,46,3,-1896,-969,-789
-114,88,29,1100,1374,580
-85,84,92,173,831,218
-63,99,17,575,1183,435
-60,98,14,379,823,355
-68,113,20,225,530,168
-50,-122,-25,930,1070,538
-63,-111,21,416,521,291
-59,-98,-1,754,847,374
-57,-107,-30,1318,913,601
-27,86,-20,5660,4610,2525
-125,-9,78,2456,3090,1390
-93,38,18,-5685,1615,-2968
-120,-35,-44,-1697,4855,-1971
15,-39,19,-4138,4238,-3863
108,30,87,-4918,3977,-4839
-3,40,101,-4532,3570,-4792
79,50,-93,-4333,3405,-6456
6,110,-125,-10373,-1103,-7105
-59,14,14,-10151,1423,-4777
113,119,114,-4206,2865,1592
-103,-119,-73,-10022,-5553,-2783
-17,-97,-41,23421,3533,8445
-2,66,-70,2933,-6087,-1774
-86,25,111,10306,-978,3753
-16,-110,-57,17228,-71,6253
76,-24,-32,7767,2066,5117
-80,41,49,-226,-6757,-907
-113,66,-12,3257,-4654,-1659
-37,-53,-51,7951,377,3190
94,112,17,5153,-973,2546
-113,-21,-60,3070,-1962,1142
104,115,123,812,447,-437
-128,31,-69,374,2077,319
83,67,35,-1608,226,136
59,90,103,175,888,530
82,100,5,2120,2320,1316
79,98,96,462,483,317
118,116,72,670,752,271
-94,123,25,1310,1578,657
-93,122,44,438,848,190
-65,116,13,632,713,250
-61,111,5,904,707,363
-64,-128,19,764,672,318
-57,-124,37,424,498,218
-56,-118,22,738,590,358
-64,-108,17,1021,691,530
-71,-103,37,763,550,377
-62,-107,37,713,492,378
-60,-103,35,727,484,462
-44,67,83,8192,6904,3873
-22,88,-56,-8969,-2652,-4057
114,-86,-70,263,6169,225
-128,39,61,-3499,3405,-3261
24,-103,-2,-4506,3017,-4090
1,23,9,-6137,2396,-5158
-78,33,7,-3268,4965,-5695
94,-93,-126,-5922,2179,-7008
22,75,119,-10621,-506,-7344
32,114,-46,-8804,772,-2891
-56,28,32,-9590,848,1250
33,-64,-75,15540,2253,6914
-82,20,-24,8051,-3622,379
71,-122,-101,7042,-3104,2385
-6,-2,-96,14614,-13,7338
-12,118,-75,10671,1957,4796
26,9,35,3035,-2483,3552
-116,-96,-125,711,-7253,-1250
3,13,-89,6030,-2939,300
-88,-82,82,6576,-1478,2341
26,113,67,5558,-741,2272
53,-63,-48,1181,-973,-756
110,105,-24,-296,902,-385
118,7,52,854,2006,250
109,47,-60,1194,2575,1271
75,106,-118,1625,2894,1354
75,94,-69,-745,342,-196
-113,100,61,438,700,148
-54,96,12,1620,1651,796
-69,101,108,91,357,99
-57,106,31,964,810,319
-59,92,78,177,-14,143
-49,117,44,376,483,563
-31,-112,18,1016,1155,832
-63,-96,9,1405,1360,850
-78,-108,63,472,170,341
-63,-118,8,1089,741,588
-56,-127,28,1193,692,680
-71,-121,58,889,517,508
-63,-122,38,1246,780,650
-57,127,-83,3944,4649,2717
10,-72,-101,-5599,-470,-3204
-11,-60,-25,-1221,3899,-1801
-126,108,18,-3327,3581,-3400
-27,-119,40,-3911,3387,-4175
-109,40,34,-4810,2348,-5526
41,75,46,-5707,1744,-6668
-67,-27,63,-7221,1187,-7072
-65,49,95,-12412,-639,-6651
37,16,45,-6899,2716,-643
-57,38,57,-7661,-3987,-682
-39,-38,-32,22968,2439,8562
-23,114,105,3234,-5363,-246
98,76,-123,10453,-932,4752
-43,-35,127,18014,1470,8851
8,40,126,6425,3303,5580
110,-32,-3,-2776,-10005,-1348
-76,120,117,6504,-2643,-83
123,-49,32,5094,-1238,1805
54,88,-47,3094,-2455,1226
-43,19,-37,4417,-435,1062
-87,-97,9,954,-343,-278
-121,58,94,3613,2604,1340
43,22,-80,-51,903,141
85,54,1,-173,1713,539
96,107,103,1090,2993,1186
69,76,-117,-1120,149,-244
100,109,15,1549,1244,613
-109,87,95,688,793,227
-73,119,62,670,1150,417
-62,118,70,221,628,64
-39,-127,7,1052,1282,490
-63,-113,61,254,505,88
-47,-110,32,376,581,98
-29,-108,0,1040,991,525
-50,-108,22,783,609,361
-46,-109,19,936,463,460
-53,-103,45,808,278,429
-51,-96,35,1196,750,577
-59,-99,54,946,537,509
32,79,-97,4643,4449,1371
21,-124,26,4616,5776,3640
107,120,-119,-6023,7,-3354
76,49,-69,-176,4632,-385
111,-81,-8,-3614,2302,-2818
-101,-116,107,-2403,3172,-2223
47,42,33,-4757,1569,-5144
54,19,33,-3261,3636,-5082
-49,-8,-34,-3531,3221,-6700
5,39,-80,-12269,-1852,-9159
16,-33,11,-12975,-1377,-6288
92,80,-41,-8618,-16,2994
27,63,-60,17832,3359,9328
-123,88,28,9398,-5019,-866
3,-17,-92,6391,-3605,2038
-100,39,110,17193,1299,8394
48,38,-74,14254,9786,9036
22,-35,-111,-10653,-13883,-3457
68,-87,-43,5456,-3263,-2107
115,-36,118,6631,-1383,1239
96,63,-114,3620,-4137,-281
83,86,-104,5215,-514,1019
-13,-31,18,4360,740,326
-76,37,35,1291,1307,-420
-113,40,-128,690,2393,595
114,-4,63,-2824,-536,-499
108,65,-14,3084,2591,1709
78,20,-63,87,306,12
-101,63,97,304,895,509
-90,98,73,471,1201,623
-89,108,39,425,1237,511
-77,123,18,539,1086,475
-75,-114,31,80,538,210
-52,-107,-23,970,1077,567
-56,-105,-1,820,896,403
-52,-106,18,512,424,289
-48,-101,-10,1061,741,428
-55,-112,41,208,-78,31
-44,-97,-18,1235,727,557
-55,-111,26,788,411,373
-87,-99,-82,5201,4820,2060
125,118,-60,-6646,-1686,-3112
104,-28,126,-126,4790,-277
102,127,-87,-3657,3009,-3896
-122,1,87,-3407,2873,-3928
107,4,-36,-5223,1415,-5688
96,-62,17,-4456,2655,-6561
47,83,72,-7720,451,-7842
-85,-43,84,-11938,-1158,-7079
-71,-117,88,-5832,2967,-2299
-90,-41,-124,-16408,-1495,-2015
95,23,-105,20405,2996,7243
97,-12,35,2352,-6145,-505
-71,-63,47,11049,-510,5568
-117,-67,-71,14884,271,9044
-120,-4,-106,3820,-6526,-828
101,37,-109,6054,-5708,-1880
6,-23,-85,13555,919,3822
-103,-63,107,8492,3423,7274
62,97,-72,-6624,-8471,-6430
-109,-20,-26,1502,1315,-390
75,-13,-83,9798,6701,5315
12,61,105,376,-1482,131
39,32,-101,219,-1711,214
79,53,-2,3432,2933,1879
-2,30,-110,-138,823,-21
50,70,16,-685,832,-95
95,61,-108,242,1582,338
118,59,-123,150,1329,56
-83,99,89,338,1467,331
-80,97,101,-122,950,-73
2,-71,53,766,1307,451
-63,118,119,29,-158,-465
-36,97,81,354,434,73
-17,113,42,-631,425,-21
-16,-96,6,294,1016,557
-54,-21,34,-814,-7,-27
-50,0,-81,1568,1146,606
-78,10,64,690,-818,-123
-88,-66,42,2726,667,349
-68,78,40,-3768,4310,-2425
-50,100,-50,-2612,4074,-1804
39,15,-59,-4344,1474,-3514
114,5,-110,-7303,-809,-4552
-34,-62,-39,-1031,3336,-5025
9,78,127,-7478,607,-6523
1,-79,23,-7655,1422,-5183
-94,-123,-101,-7351,1539,-3716
-54,71,93,-17391,-4909,-2081
39,-96,26,22434,4547,9027
18,57,-121,5991,-4019,1565
4,-38,-44,8214,-1753,5495
42,-59,-98,13533,1505,9226
-34,110,-127,8851,-917,1068
-48,-76,87,34,-7091,-1171
-43,-34,101,3829,-5975,-2982
-38,28,-110,8694,-3619,197
-32,-14,51,7015,-2182,1536
48,-67,106,7383,1270,388
36,-112,56,-687,1775,-3240
-55,-125,0,8031,6180,4202
-109,-125,90,2113,2156,1650
-119,-41,5,-3969,-2878,-1465
13,46,-79,2767,2522,1675
-14,63,52,1312,2496,949
27,94,47,-1978,912,-859
-127,-97,-126,-256,2807,104
-111,-44,-106,-1979,1374,-747
-98,9,39,-2514,369,-1552
-38,22,-63,-547,1166,-777
-19,34,-29,-902,428,-671
-10,37,-78,-15,734,-237
-6,24,-84,1133,1190,358
-34,24,-29,816,679,148
-40,11,-23,975,310,79
-29,-2,-37,1646,285,432
-33,-32,-6,1775,45,556
-43,-50,31,1552,-335,689
-37,-50,33,2081,27,979
-48,-57,88,1730,-241,984
9,115,-100,7736,6033,4488
63,126,-58,-9669,-2203,-4400
-13,-121,-90,-108,6510,-226
87,-28,32,-4002,4379,-2892
-51,83,-44,-4563,3661,-2915
107,-101,-61,-3638,4371,-3593
-9,29,60,-5659,2383,-4714
112,39,63,-6897,2129,-5932
-34,119,93,-12555,-2029,-6620
-20,108,61,-5619,4453,-2203
-24,55,42,-14705,-2755,-3035
0,58,-84,17171,3296,7984
59,-107,50,9790,-3288,2733
121,123,-93,6327,-3023,3605
-58,-91,114,13591,-446,6542
-10,3,-109,4524,-4689,236
-122,66,36,10604,-1481,1453
-95,-103,86,7351,827,2253
-81,120,59,2039,-6585,392
-57,-87,-128,2899,-2486,1095
-109,78,-96,6232,501,2323
-65,-98,88,1924,-1059,34
-28,114,105,2907,2828,871
-117,75,-100,455,862,503
101,25,10,-1156,-1080,-101
94,60,67,4718,3014,2427
4,33,83,14,-369,20
73,42,-51,-447,-78,-451
-83,55,84,1593,2107,981
-83,55,-113,493,1064,467
-89,42,112,675,1204,307
-59,28,48,506,1809,93
-11,65,75,166,893,351
-29,85,45,-285,478,121
46,-125,-49,1332,2107,1105
-19,106,-18,1011,1500,812
-77,-125,56,-156,53,111
-4,-118,-91,1659,1300,766
-54,-108,50,1465,147,553
-109,116,124,7,-988,-427
-31,-14,45,4164,3902,2750
-62,-100,102,-5960,1455,-3735
15,-105,85,-356,5188,-483
-15,34,-48,-3816,3085,-2849
11,-17,-101,-4768,2289,-3481
-59,104,-46,-6089,2753,-4949
106,-26,64,-6675,2383,-6165
-4,113,-99,-13091,-1990,-7804
-53,84,13,-10708,1398,-2524
95,6,125,-4243,3358,1796
-116,-112,46,-6894,-3828,-1900
-103,-1,80,22978,483,5387
110,0,98,6679,-3603,1089
-8,-42,-29,14118,473,7917
-119,-110,-39,8379,-3965,-535
-42,-23,-113,6467,-3889,974
50,-42,82,7710,-1159,1829
69,114,-76,5891,-1129,1095
-12,-112,14,4830,-940,461
53,-79,-31,-883,-918,-1529
39,-84,109,1120,-783,205
-34,92,-30,5543,2313,1738
-114,-3,-75,2067,990,622
96,33,-116,250,861,529
121,22,24,-598,332,384
126,43,109,970,1340,955
96,52,-100,14,551,308
-122,81,98,-674,379,173
-114,112,-4,1240,1822,719
-101,116,60,-209,403,224
-87,-117,-3,342,862,279
-77,-98,5,150,514,38
-83,-88,-6,38,249,-28
-59,-89,-47,290,237,126
-65,-76,-29,538,439,176
-47,-53,2,562,517,171
-49,-67,-16,830,747,341
-55,-71,-11,752,701,357
-56,-57,-1,154,165,173
-41,-49,-49,811,634,456
-120,13,7,7508,5257,4099
-29,82,80,-13794,-2237,-6864
-64,116,12,-2679,5363,1212
102,-84,34,-1604,5553,-552
78,-79,68,-6636,2759,-3902
45,-8,-12,-4355,4576,-2728
27,-36,103,-4932,3000,-5278
-46,-29,112,-15501,-4328,-6612
-43,110,32,-7866,6287,-997
119,51,48,-8127,621,-1749
-21,-90,12,6136,-1828,-1765
-67,-69,-46,18931,575,7853
-113,77,40,5652,-4209,3279
-69,-114,-82,14908,-1127,5099
59,-21,-127,5589,-3735,361
-109,116,80,4127,-4965,-1274
123,51,58,5663,-3760,-1278
116,55,33,6167,-657,-1108
-76,-125,2,7771,1801,1532
88,103,-43,-2440,-1521,-2158
51,66,69,4867,3825,1671
106,-40,-45,-632,634,-198
-110,29,-26,-923,1213,505
-98,78,56,2074,3011,2241
85,43,-78,-383,217,-134
-98,83,56,1243,1480,537
-57,111,105,122,1123,514
-44,124,17,224,1295,291
-42,-128,27,102,773,189
-31,-112,-5,437,757,298
-8,-110,-8,447,547,251
-8,-103,-21,959,689,446
-34,-106,18,248,122,168
-27,-103,-17,1037,516,480
-37,-99,1,1003,468,466
-51,-92,38,815,304,437
-52,-88,11,1066,676,509
-65,-91,55,676,364,346
-67,-87,36,804,558,400
-51,-86,34,645,420,361
21,117,-24,5084,5167,2178
-53,-39,112,1239,3950,1490
-59,111,63,-3656,1113,-2494
61,40,-56,-1242,3418,-1499
-126,-59,-11,-2151,3522,-2358
-127,30,43,-3414,2553,-3348
99,-44,30,-3210,3083,-3792
-116,43,114,-4556,1882,-6440
78,63,-125,-5909,1040,-7749
-20,83,107,-9760,316,-7150
81,14,-80,-5244,3313,-1722
7,-70,-98,-7096,-990,-1332
29,-119,-3,2721,-326,1429
29,116,50,15393,-1700,4458
124,-46,-94,7263,-3876,2311
-11,-66,-63,16591,1446,9041
-40,9,-91,7392,-340,3290
32,74,-28,1079,-5844,672
43,-65,-86,5465,-4325,49
-109,95,-19,6061,-2909,1091
100,22,97,9317,1740,3321
-101,46,-15,1590,-1223,159
0,117,8,-2028,-2417,-1722
-62,-102,-101,8910,5915,4105
-81,43,71,1784,1114,657
10,7,-11,-2359,-991,-1067
99,66,-95,2283,3298,1371
49,14,43,-528,531,-161
93,39,-81,481,1208,343
113,55,-83,353,1147,149
-116,77,-112,120,1170,-85
-90,74,-125,-268,978,-375
-40,109,80,-167,1100,-234
-17,124,58,-280,963,-278
1,-116,12,296,1179,73
-11,-108,24,252,701,0
-10,-96,2,242,297,79
-7,-87,-7,636,433,313
-8,-68,0,977,451,459
-6,-73,16,1294,442,545
-1,-104,-101,9228,6798,5793
100,31,-21,-10515,-2936,-5679
91,-8,-85,489,6773,-581
113,94,18,-3365,3042,-4255
-38,-9,-16,-6278,604,-5980
45,47,-117,-4498,4151,-4714
125,83,18,-4281,2932,-6133
17,31,-126,-10036,-897,-8180
-65,44,14,-10610,1124,-4980
38,26,-27,-3829,4942,163
-71,-13,39,-15143,-3270,-3771
73,-13,-82,22730,3419,8556
16,-56,1,6981,-4776,601
-74,-110,28,10063,-1094,5161
-12,21,-31,14915,1516,9098
38,-77,-29,4342,-4220,3489
-65,-29,-16,3075,-5104,-733
102,-18,5,5730,-4308,470
90,61,122,4711,-3009,130
0,96,16,6290,881,1066
53,-79,121,564,-343,-941
-2,78,112,3755,2111,1544
61,111,-114,4120,3522,1991
10,37,-34,-1282,32,-652
59,54,-96,2219,2332,1249
7,49,-1,1696,1724,884
39,34,15,-1883,-698,-1149
-96,78,70,1515,2261,799
-110,76,-61,-999,490,-484
-52,-124,69,340,1770,102
-40,-118,89,-404,1251,-278
-4,-100,39,-380,1193,-179
10,-80,0,341,1199,223
10,-77,0,235,783,233
10,-56,-12,841,774,452
9,-56,0,910,664,512
0,-67,26,721,99,386
-4,-79,6,1198,206,673
-19,-85,14,1489,320,861
-35,-91,39,1266,77,779
16,-101,100,5922,3296,2509
-93,113,-6,6829,6600,5121
-59,-99,-111,-10402,-2945,-6956
-73,-66,38,2127,7311,550
112,13,88,-4395,2342,-4727
-46,70,-38,-3366,3284,-4312
-50,112,20,-5347,1589,-5173
107,-128,-56,-3620,2690,-3780
-61,109,-17,-5044,1743,-4637
61,32,4,-7094,722,-6121
127,33,-81,-6054,3496,-4540
-18,102,-15,-1114,3427,-1620
26,-114,-10,-15239,-4037,-5337
12,65,-107,25740,5421,14432
116,82,-70,6197,-3935,4505
-27,-104,-7,-1734,-7583,-273
96,-117,121,14076,1795,6952
14,-23,76,12862,2840,8227
-52,-121,-27,-501,-7020,1020
-33,-105,-63,3140,-5875,-1442
-80,82,-70,6359,-3290,1954
49,-90,-112,5216,-2575,1195
-29,25,84,4077,-908,779
-13,-123,35,-651,-373,-1878
-47,-125,60,6716,4563,2707
-59,82,39,2592,2814,1229
-35,21,-35,-2919,-82,-1150
63,71,-93,975,3077,785
81,79,-65,467,2385,392
96,80,-87,-619,640,-580
-103,82,79,816,1367,81
-61,90,110,17,876,-56
-44,106,69,223,934,49
-32,121,53,337,966,49
-14,-121,38,443,746,196
-24,-120,32,546,487,298
-33,-112,21,543,434,296
-45,-108,30,797,280,403
-57,-99,44,772,54,349
-52,-99,17,1585,705,735
-92,-44,66,7356,8092,4116
109,-86,-56,-8317,-3717,-4709
16,-82,-87,638,5824,-793
66,37,40,-3804,2334,-3502
-67,-125,-44,-4516,2680,-4589
-8,9,-2,-4271,3723,-4561
-96,-43,48,-2344,5251,-4921
-5,9,123,-6018,1457,-8390
-45,-102,97,-9596,-906,-8236
-65,-113,-40,-6446,3547,-4413
-66,78,-56,-10266,-3433,-2348
-39,126,-39,6855,910,1854
-125,-99,-92,18167,1203,8187
-64,21,79,1213,-5709,1293
-83,-67,120,9109,-1647,3194
-41,114,-123,15058,1421,7369
-66,-120,-44,6170,205,5433
62,7,-82,-269,-5788,28
106,37,-77,4097,-3035,-140
13,-74,53,4001,-2233,1136
26,95,98,4799,-1321,1759
-71,20,-22,5468,57,1770
49,-24,-127,4774,1138,2001
12,35,-52,-3556,-2757,-2339
-114,96,21,-917,1366,706
74,113,111,2843,4132,2032
31,114,-81,1089,2508,872
58,-102,-125,554,1958,346
82,-115,-126,-526,622,-360
-78,123,13,746,1022,219
-46,96,11,1058,913,437
-47,112,59,635,280,202
-47,-120,88,343,62,75
-30,-111,37,773,540,522
-45,-106,50,764,525,493
-63,-86,38,1341,887,838
-75,-94,64,948,450,615
-65,-97,38,1540,882,937
-54,-122,46,1486,943,989
-56,123,36,2281,1611,1223
68,-47,81,7577,4220,5091
76,26,-105,-7426,-2125,-4633
30,89,47,-1058,5106,-2007
2,1,-20,-3789,3598,-4205
9,-50,-93,-4171,2218,-4918
19,-2,-59,-6251,1391,-5876
-59,113,-31,-5402,3010,-5118
-30,1,34,-9059,57,-6839
67,65,5,-9113,1862,-5878
-96,-45,49,-1026,6671,-1268
106,125,19,-13578,-4038,-6061
35,66,-51,7138,1504,2436
37,117,-69,14847,1101,8755
-29,87,84,1036,-6562,256
-29,-91,89,10643,132,5535
78,94,-106,12999,233,7408
-76,2,116,3574,-3689,2856
40,-122,-39,3145,-4992,-1201
22,14,41,8206,-457,979
49,59,100,3316,-4457,206
62,-55,89,5841,-1230,829
3,-120,51,8575,1544,2820
-32,-100,-11,-2260,-1902,-1854
-55,81,-112,2483,2243,927
66,95,-127,5125,4505,2767
-44,31,25,-3380,-1159,-1438
111,-102,115,-1639,1298,-18
-120,-98,18,3666,4349,1873
99,78,-7,-1826,-61,-987
-65,-127,-15,809,1621,511
-82,88,37,207,471,159
-61,103,7,883,592,465
-44,-126,28,979,524,508
-47,-127,71,656,262,339
-43,-111,39,1381,850,720
-51,-123,57,1358,684,673
-55,120,85,954,399,677
-67,126,70,1316,613,777
-70,-122,79,1343,716,767
-77,-123,92,1150,556,712
-8,75,87,7471,5641,3365
-18,28,100,-365,659,-1060
-69,-21,118,-3521,1690,-2526
-69,93,12,-3813,3039,-2991
63,69,-93,-3870,3519,-3627
65,36,-82,-4403,2568,-4327
3,-97,-112,-6084,817,-5081
89,23,72,-6562,1357,-5033
3,-75,85,-5740,2123,-4755
-37,-71,122,-4975,3856,-5069
48,-118,-95,-4678,1762,-3870
50,70,-24,-13693,-5444,-4881
101,47,-101,20267,4685,10307
36,-91,-59,6810,-2750,4615
63,100,19,455,-7605,-1773
-93,83,78,15574,2491,5690
56,39,-125,11413,1574,6712
41,36,-33,1090,-5323,1487
-55,112,-123,53,-6318,-2010
81,-126,-37,7931,-1514,406
120,-19,35,5681,-3844,-463
115,77,6,5679,-1743,-297
108,-102,105,2070,-336,-1329
122,26,-78,4048,3676,573
-82,-26,-43,4201,3968,1846
68,-42,67,-394,618,69
113,-45,85,364,1196,839
109,-52,53,-348,902,302
-100,-4,-18,-1280,605,280
-73,68,72,-574,1931,548
-76,89,29,57,2019,717
-104,123,30,959,1977,694
-112,-123,-123,-1721,-446,-1179
-10,-102,-66,-114,1002,-153
0,-126,-82,1359,1489,499
-13,105,-14,1201,576,427
-40,123,50,505,-370,-154
-39,-121,54,553,-439,-103
-27,-114,53,768,-253,38
-41,-117,57,1051,150,195
114,-83,25,5287,3940,1921
79,-47,-114,-3115,-656,-1890
-30,13,-40,-629,4238,-613
87,-54,15,-3837,3202,-3048
84,-76,-95,-1439,5004,-2339
114,44,69,-3775,4160,-4712
-95,-54,116,-5850,2277,-5257
-98,-34,-61,-5912,2008,-4762
-94,-46,-24,-7465,317,-6351
44,61,-35,-7082,2429,-5803
86,-55,113,-3172,4904,-4053
120,-96,19,-11863,-3022,-5563
99,82,-7,3863,536,1138
60,-97,-107,16325,327,9003
19,-121,16,2705,-5664,333
-7,69,107,13984,1864,7029
75,-34,-74,10541,-4,6718
-80,-19,-106,1131,-5798,385
-99,76,-87,4107,-3577,-856
52,-112,-78,6649,-1354,1203
67,-19,123,3353,-4018,300
61,111,-100,4735,-2096,302
58,23,45,3545,-849,566
50,-67,-35,4190,3787,1548
-62,19,-8,5908,9280,4440
61,52,66,2413,3031,1321
-98,24,7,-3781,-2721,-2093
104,110,-81,-4250,-3124,-1051
-112,-112,-72,1248,1390,650
-94,-110,-52,4198,3662,2143
101,99,-61,-715,159,-408
-102,-125,27,1005,1100,336
-82,98,62,695,615,146
-37,93,47,1426,936,711
-60,90,76,1283,662,601
-75,87,100,784,138,324
-68,102,80,883,200,417
-72,103,84,1145,492,572
-81,108,95,935,341,443
-81,124,108,736,334,351
22,-123,87,6312,4608,2304
-102,58,-62,8911,7418,4620
103,-6,-14,-9304,-2232,-7176
76,-61,-35,2029,5347,-1810
121,49,-105,-3431,2692,-4828
-18,-117,47,-1694,3519,-4166
-123,-48,26,-4103,483,-4779
18,112,-73,-2741,2456,-4773
123,-14,-9,-3510,1500,-6703
41,-22,39,-8612,-423,-8931
127,-60,-34,-6078,3081,-5608
-72,-81,-49,-6245,399,-2636
83,8,72,-98,-363,-774
-70,29,91,16841,2651,11102
-116,-19,90,-326,-6007,1357
-94,-75,44,7070,-1057,3973
124,-7,101,12929,1097,7429
52,-59,119,6392,1828,4793
70,125,-82,-2555,-8605,-894
116,123,6,6101,-1661,133
43,-17,102,6943,-1341,1908
92,-73,68,4891,-4025,1487
-88,-22,-51,4357,-3701,1933
0,85,94,5739,-443,1840
102,-80,-28,3120,446,922
42,-1,46,-319,1472,-456
-3,80,60,2494,3533,1499
-38,95,65,339,1666,182
26,92,-37,-1365,178,-622
82,91,88,18,885,115
126,71,25,1354,1734,589
-107,72,68,658,1101,280
-90,89,49,514,788,175
-72,94,33,633,780,262
-79,111,41,391,554,137
-71,119,15,861,676,432
-93,-122,48,476,312,156
-77,-117,28,1162,671,556
-91,-119,52,840,388,348
-91,-119,73,597,224,260
21,-128,122,6259,6238,3401
42,36,-109,-4775,-129,-2526
-8,109,-27,-608,4248,-1231
-95,15,23,-3854,3002,-3692
11,13,-58,-3484,4004,-3731
0,-48,52,-6038,1355,-5704
-63,34,-14,-5847,2366,-4714
46,-98,7,-6407,2565,-5857
-79,109,62,-9591,877,-6854
-39,42,-99,-5178,4204,-2605
-113,-89,-90,-8938,-2135,-2846
-25,-21,4,4036,584,1118
38,-11,-125,14217,-1031,5776
3,-103,-16,2619,-5692,-540
32,-6,85,12482,709,5252
-40,-39,-53,14175,2781,8122
-21,102,33,3994,-1429,3987
-124,-42,-85,278,-6817,-1133
-18,57,1,8139,566,1344
83,-107,95,4502,-1817,2320
66,47,-22,1749,-4989,837
18,96,108,6319,481,2566
97,-3,-120,4246,534,2137
49,-5,-88,-2077,-1428,-2155
-94,20,-35,2159,3407,1494
48,53,-10,2915,3605,1570
12,58,123,-2437,-855,-930
125,104,61,-1070,241,-95
-111,99,-37,1757,1959,846
-107,97,73,494,925,272
-85,127,28,586,860,268
-65,118,22,451,742,96
-46,121,0,635,614,242
-46,120,-8,1179,748,463
-58,118,39,771,324,285
-66,-121,65,376,63,128
-55,-111,17,1487,1081,641
-69,-121,81,548,280,260
-68,-109,42,957,552,472
-74,-111,73,499,192,262
-41,-107,24,7413,7791,2956
18,-40,-82,-5338,-2033,-2897
-20,67,-106,617,4271,-674
52,-128,70,-3727,1785,-3458
-76,41,-80,-1773,3871,-2627
-114,-94,56,-4185,1785,-4439
106,48,19,-4951,1713,-4700
-16,110,-3,-5674,1037,-4837
96,62,-21,-5501,1555,-4760
118,111,125,-1727,5598,-3301
86,79,-78,-3116,2760,-4606
117,-128,114,-11665,-4885,-6945
65,100,102,6420,2357,3836
79,-89,12,13546,487,7825
-126,5,-15,-622,-6346,-1682
-18,99,-40,11538,561,4589
-14,-39,115,15656,3902,9816
99,-4,2,3718,4700,5712
-20,33,-1,-6126,-12264,-2271
103,47,82,9587,1943,1160
-13,88,-77,6376,-300,2154
6,-31,115,2865,-4386,1434
109,-35,-118,4205,-2605,2181
78,71,35,3192,-1722,2666
14,-38,55,5188,1292,1979
-13,38,61,-1810,492,-2374
108,82,21,-724,2569,597
83,103,101,-2,2398,734
67,57,78,-500,193,-76
94,91,-29,3909,2091,1418
104,55,-65,-903,-689,-591
-80,95,49,613,763,266
-68,84,38,1405,1243,502
-78,89,83,438,477,166
-63,96,36,1025,971,463
-67,98,54,598,439,285
-66,120,35,1216,870,630
-80,116,86,162,70,102
-70,-117,29,1023,757,566
-78,-105,29,1151,921,579
-26,116,9,9329,8648,4033
116,124,-22,-7193,-1664,-4217
-39,-33,-46,-752,4184,-2435
-99,9,67,-2484,3137,-4208
-6,-8,17,-4273,1939,-4727
-42,-86,-29,-5398,1351,-5335
71,-32,-9,-5914,1721,-5803
-51,119,12,-6515,1215,-5812
71,0,29,-7739,1508,-6157
-120,9,-64,-4836,4374,-2968
40,-112,85,-7136,-1039,-3229
-6,-98,91,-5172,-3551,-1531
-13,71,-107,18902,2643,7511
-53,-64,-50,2905,-5097,-243
-13,-66,-87,9534,-895,3845
-66,23,-115,15299,1675,8160
-30,87,-73,6549,-419,3555
-78,56,-111,1312,-6240,-683
-14,-98,-106,5535,-3546,-1010
-117,4,-13,5904,-2355,1056
81,103,-61,5447,-596,1577
-37,-17,47,4915,-69,1141
-108,125,-113,1755,-61,-363
127,21,-59,-14,1129,-298
97,58,23,1462,3005,768
104,41,11,-847,861,35
-120,84,72,222,1726,594
-125,69,31,2046,2042,1091
121,50,123,326,249,193
-85,88,74,506,490,309
-64,100,51,769,748,403
-61,101,50,836,887,359
-67,108,71,282,333,124
-56,124,14,1041,835,471
-66,122,46,779,571,339
-64,-128,47,501,260,277
-64,-110,14,1249,795,567
-63,-110,52,924,569,430
-68,-110,68,521,301,235
-61,-104,30,1056,723,469
-18,89,-28,5060,4339,2336
107,8,-122,2084,3396,1565
71,7,68,-4646,637,-3575
121,-94,-83,-1095,4478,-2238
23,-121,-11,-2834,4198,-3961
19,109,82,-4504,2775,-5748
-12,-13,93,-7737,587,-6506
109,59,-44,-3603,5130,-5173
-23,89,110,-7612,332,-7429
-57,-33,55,-11851,-47,-7176
96,-61,-78,-5840,1244,1086
-99,-48,70,-2574,-1223,-1556
25,103,22,19911,1656,6686
16,25,-1,3775,-4425,1587
-2,-71,-97,9195,-1289,3655
-33,-101,-106,18486,3404,10876
-80,-127,-9,2832,2166,3415
-124,-82,-67,-2649,-10911,-1850
-69,102,-11,8081,-191,1253
-101,-90,57,6406,-544,3344
24,84,41,3057,-3979,2596
-65,52,72,1032,-3825,893
115,-106,-4,3956,536,931
95,21,-9,813,1475,-586
90,48,17,2658,3854,1436
3,58,113,-1859,56,-598
106,108,-60,-3355,-1567,-696
-111,-99,-107,2335,2988,1468
101,107,19,1561,1712,811
117,124,48,597,705,364
-112,-125,22,354,308,81
-78,-125,-7,1114,880,337
-68,-125,-5,1212,797,468
-75,114,48,440,121,89
-64,-128,22,1016,621,444
-72,-128,45,746,379,311
-70,-120,42,825,384,399
-77,-105,44,892,465,431
-78,-104,36,909,622,491
-87,-92,41,512,379,273
102,72,-120,5599,1942,4119
-48,-32,121,-4468,-3,-525
34,28,113,-2215,3765,-605
-68,-95,103,-2707,4428,-1289
18,-126,-94,-4639,4132,-2930
-103,-105,-38,-4307,4674,-3026
87,47,21,-4255,4682,-4145
-77,65,120,-8108,1113,-7030
-47,5,76,-13180,-1253,-7329
-12,47,-89,-4079,5374,-1222
94,35,-39,-6509,658,-2128
-65,7,-116,-4943,-2615,-1597
1,-88,68,20612,2057,7378
0,-37,28,1986,-5576,-1375
30,-42,-102,10296,-439,4024
-35,-65,6,12478,253,5163
9,36,120,6815,-397,4619
-116,-63,28,-1391,-7285,-3300
-90,-61,-80,6485,-1144,-939
102,-47,-106,3359,-1968,-742
22,67,-89,2886,372,-380
-16,-118,-28,1528,139,-1226
61,34,66,1671,929,42
-4,19,50,1443,282,195
-48,-27,-30,880,-559,484
-96,97,70,3348,2617,1590
87,83,-25,167,-34,-26
-109,-118,82,978,916,490
-115,-120,32,1145,854,415
-99,-121,29,1087,614,439
-77,-117,44,680,308,409
-61,-100,7,1554,1003,743
-67,-106,32,978,637,497
-64,-99,5,1337,959,649
-73,-97,26,1088,621,582
-73,-100,29,530,124,277
-42,-82,-36,1377,1032,647
-48,-90,26,776,238,374
-52,-82,2,1194,899,551
-37,-102,22,602,253,274
113,94,81,8203,6473,4103
29,-21,77,9025,7794,4772
7,108,-2,-7517,-4779,-5071
-59,109,121,-1049,2450,-2989
-110,-113,-14,-4112,1468,-4616
-8,116,-54,-5260,299,-4768
63,9,93,-4025,2496,-3705
-35,-19,125,-3468,2266,-3731
44,-1,-96,-3987,1402,-3971
52,94,-65,-4165,1195,-5326
-2,-122,-17,-10142,-804,-7999
103,-51,18,-9892,392,-7102
28,84,-57,-8973,-1547,-1577
59,-51,-2,9857,2286,6723
-59,-76,121,11923,-1252,4358
-72,50,-65,395,-6223,-3611
72,7,-97,13439,2753,5251
-81,23,-110,13243,1108,6937
-76,-62,-45,4016,-3489,1123
106,117,114,858,-7276,-2899
27,35,6,9225,-160,-3696
-82,-54,31,11926,4514,4856
-110,-106,-112,4425,705,3286
28,99,-118,-416,-664,-2109
-13,22,85,571,903,322
-112,-5,-92,-499,14,-227
-114,11,-14,-386,-369,151
-117,75,-115,436,801,491
-114,84,120,540,537,464
-97,124,97,1047,1169,694
-111,117,-126,-551,-342,-188
-69,-112,23,1350,1032,767
-37,114,56,1639,1138,963
-45,-123,86,2087,1753,1282
-86,111,-67,-455,-219,-85
-31,-123,27,1053,1154,580
-47,127,94,204,235,205
-36,-104,42,895,779,428
-35,-103,59,685,346,368
-32,-96,47,1046,532,491
-65,-58,-104,5429,4713,3178
43,-16,-32,-4836,-1190,-3264
70,-22,1,-594,4037,-1202
-58,95,60,-3185,3475,-2999
43,35,-15,-2709,4309,-2782
-7,-17,61,-4804,1923,-4407
-22,83,-32,-5341,2532,-4137
83,106,-23,-3182,3571,-4243
-57,-120,103,-9665,-1025,-5820
126,66,-29,-7100,3406,-4218
-62,-4,-59,-3915,4906,-2973
-105,99,44,-13946,-3874,-5523
-8,122,16,9867,2709,6053
-58,-88,-112,6474,-3532,-665
-113,-83,127,7550,-1718,795
95,-92,85,12683,1000,5336
-31,-26,111,14185,3863,8792
70,-84,-37,-50,-369,3205
-33,-10,64,-5569,-12605,-4309
97,82,-67,10417,1496,-2559
-54,-80,-69,15528,1970,4573
88,10,7,4889,-5067,3662
121,30,-101,2786,-4107,2640
59,41,-66,4521,995,728
-126,-66,-104,-2052,-567,-4427
-23,57,-75,6465,6319,4023
-53,12,18,-689,625,-265
28,-26,116,-3655,-2778,-1782
-100,88,-60,4132,4105,1867
107,27,-12,346,1260,43
-114,66,-42,-1640,-316,-826
-23,94,13,1520,2068,723
-50,77,95,536,1222,236
-42,86,65,591,1058,245
-30,84,42,787,729,352
-33,83,64,462,239,276
-29,102,32,1038,542,574
-49,119,62,793,189,468
-49,123,41,1326,515,664
-65,125,79,951,212,543
47,92,-18,12374,10023,5262
54,-54,66,-6439,-1865,-4308
31,-1,-76,-233,4999,-2436
-58,-90,38,-1316,3277,-3844
-1,-39,20,-5983,-200,-5931
112,32,96,-4286,3218,-5257
79,45,41,-6061,2210,-6596
-58,-99,32,-6271,2438,-6691
-2,-8,90,-9354,262,-8069
-36,30,83,-8649,1857,-5297
-109,-17,-11,-6422,1918,-194
-34,116,-6,-3388,-997,-585
20,120,54,14047,311,5536
-69,61,61,3584,-3844,339
-41,-11,-112,9226,-658,3490
-78,57,-94,11736,1086,5996
-96,-19,-60,9146,-679,4674
-27,-122,-44,3241,-4895,1114
3,43,-69,6013,-1434,975
38,63,5,5123,-4248,-313
-32,44,57,6074,-2891,1796
-85,1,-4,7299,265,3533
70,39,-45,4039,650,1982
-105,26,127,-4078,-3547,-2606
-98,96,-97,7181,5663,3359
-52,50,-62,2382,3004,1405
-48,9,-80,-3520,-2210,-1910
70,102,90,2363,2763,1033
91,74,-7,-510,1016,-338
-112,102,120,-789,850,-454
-66,106,1,1678,2330,727
-84,84,104,21,527,-189
-51,103,48,309,579,38
-25,111,13,1107,1021,415
-30,118,52,704,516,275
-29,-124,39,848,560,372
-37,-120,54,617,209,283
-40,-108,24,1235,603,594
-49,-113,47,1279,529,602
-61,-122,95,492,-228,295
-32,-90,13,10466,9485,4847
44,-23,18,-10601,-4321,-6859
55,-64,-116,2129,6650,-118
112,53,111,-4140,1809,-4707
-45,98,-43,-5016,1422,-4591
-84,82,-79,-5403,1624,-5549
82,-47,-72,-5422,2381,-5898
-42,40,-3,-5707,2328,-7887
-17,-19,113,-9578,-151,-7502
40,-117,-27,-9592,-689,-3932
15,-74,16,-7087,-439,3826
-5,-74,-94,9571,2086,6209
-16,104,53,6987,-3603,-1943
-70,37,72,7572,-2286,266
-27,1,-104,10585,-177,2507
-6,114,51,16208,4505,8676
-103,-11,107,-906,-5134,2138
15,94,-120,-2614,-10254,-3741
-17,72,107,14224,4006,2570
-61,122,-36,6465,-4032,1608
19,-73,-116,6885,1508,2615
-11,101,-107,-3817,-3283,-3977
3,28,-63,529,1170,476
95,53,28,2879,3270,1723
63,-27,107,-3033,-2368,-1786
-108,125,11,2224,2542,1540
86,97,-118,601,962,515
118,121,88,622,892,412
-108,127,73,441,682,383
-88,-118,29,1295,1227,663
-106,-105,86,416,492,203
-86,-98,51,508,435,220
-70,-95,19,1199,930,463
-76,-105,67,644,394,285
-69,-93,40,990,660,467
-63,-83,44,959,715,467
-62,-86,52,892,581,459
-65,-79,49,1022,707,511
-72,-77,68,632,317,350
-64,-68,25,1320,977,650
58,85,21,4890,3545,2102
-26,99,57,9113,8111,4946
104,-42,36,-4728,-2252,-3013
-79,45,-28,-1412,2483,-1790
61,36,84,-2094,3049,-2684
-88,-7,16,-2698,2973,-3150
116,90,43,-2868,3384,-4077
87,25,-73,-5349,2553,-8208
114,-111,123,-6903,935,-8184
81,0,93,-10729,-536,-7942
28,68,40,-8068,2355,-4136
-62,-4,8,-6977,245,516
-108,92,84,2017,770,1981
-69,-87,20,8020,-470,2367
-108,14,-47,3869,-2761,-835
-17,10,56,8768,-664,2704
-60,-71,-107,9393,-970,2479
-18,-45,114,11425,-1375,4640
35,17,118,9354,280,4011
19,113,-98,5380,-2998,2119
50,59,-20,6353,-2472,510
-90,37,-39,5547,-1767,3437
-9,90,-119,3680,-1814,1928
73,-115,-61,1429,-359,-757
-53,22,4,2118,1911,1100
104,37,-125,2659,3107,1671
21,17,-106,-780,-417,-72
58,43,-62,926,1510,483
99,62,-87,1278,2042,607
123,79,-61,-1150,72,-542
-85,84,49,1054,1512,372
-84,69,83,581,886,230
-70,83,57,1131,1204,362
-58,82,86,525,520,124
-37,86,76,751,552,229
-27,99,64,1065,796,427
-26,103,72,1017,649,490
-43,99,97,620,208,286
-38,114,64,1028,565,563
-47,119,78,940,455,523
-6,127,-53,8555,6953,3847
-9,90,-72,-24,1599,-323
127,55,45,-2648,1727,-2527
95,110,79,-1808,3491,-2830
-37,83,34,-3799,2821,-3988
-26,123,-57,-3718,2613,-4501
-79,-12,-26,-6127,1183,-6406
60,-103,-60,-7574,310,-6914
-1,-75,-50,-4252,3907,-6413
32,-66,84,-8239,1611,-5915
48,-121,15,-9158,432,-3982
27,17,5,-7785,-1150,2438
66,98,-97,11051,3083,6897
39,35,-94,4223,-3969,-456
-106,95,43,5545,-2957,-338
-29,74,60,8944,-819,2198
-13,111,107,11091,216,3506
13,-57,-113,14887,2193,8670
-5,-36,-64,4393,-1818,3597
-109,-5,82,2076,-4873,313
1,-22,-17,7434,-480,1755
73,-99,28,3983,-1958,3045
-89,-20,92,1259,-2335,599
118,-69,-27,4382,1229,1686
15,67,85,703,299,-40
53,69,-51,-1640,-598,-327
83,66,4,-1150,-155,-231
-125,115,0,3310,3858,2058
54,103,-82,933,1671,779
47,126,-92,-421,238,-172
-125,124,31,1416,1520,354
-91,108,101,-2,430,-134
-55,118,39,1099,1264,373
-48,113,71,589,658,124
-32,126,30,1221,995,470
-43,118,71,692,355,291
-45,-126,58,875,401,397
-50,-110,51,1154,628,554
-64,-110,82,740,234,370
-62,-100,60,1104,594,526
-38,126,88,7665,6545,3886
-84,76,-44,-7275,-2452,-3436
-33,-116,-2,-950,4699,-941
-99,33,86,-2753,4673,-3054
-33,93,94,-4956,3203,-5176
35,31,54,-3260,4337,-4827
-53,57,109,-6733,1276,-6973
51,42,67,-7819,1469,-7509
7,58,105,-11506,466,-7360
16,6,-106,-5116,4428,-551
-94,-21,3,-11084,-1149,-423
79,29,-62,12872,2887,6134
82,-105,79,6425,-3444,806
-82,79,121,3888,-3726,-640
-19,-95,59,10177,-109,3284
2,110,-108,12378,436,5440
101,10,126,10788,2272,7091
-35,125,0,5638,217,5581
-111,7,-117,-4108,-9219,-1820
-110,33,0,3239,-5796,-3747
14,56,-109,10182,-1461,2031
113,-80,97,4449,-2115,1328
-86,-29,-106,3342,-220,-953
2,37,-29,2025,2326,-197
-124,92,106,5134,5067,3114
-59,60,28,-269,1076,136
10,30,39,-1244,-92,-235
55,57,-123,2170,2888,864
59,53,27,-1307,66,-772
-111,97,121,-27,1418,-62
-80,107,101,98,1565,-55
-42,-128,92,-327,1157,-214
-25,-104,48,-533,979,-200
-8,-92,3,562,1278,332
-15,-97,10,182,875,217
-7,-94,17,229,507,214
1,-79,-19,1118,989,713
-9,-94,26,1107,307,712
-25,-105,44,845,-139,651
-31,-94,13,1724,429,1201
-113,79,-44,-3838,2219,-5104
95,-110,-66,-3563,2824,-4692
-38,-51,10,-5019,1497,-6038
119,-16,32,-7815,839,-6484
83,-63,-57,-7264,2821,-5534
-83,59,-76,-888,6047,-589
-97,110,87,-9169,-3808,-4304
23,8,3,9180,1913,4436
-114,-83,37,8543,-1110,5495
32,0,-93,1055,-6126,-1401
-61,65,-64,9789,-642,3670
20,-66,104,12684,-123,7149
-10,-1,115,6115,-440,5583
3,13,-118,439,-7125,664
6,72,42,8747,-1805,2503
76,110,104,7571,-2219,2355
-15,53,58,4218,-1568,2348
44,24,-101,1423,-2255,-813
-84,-28,-20,2294,1260,423
56,-47,65,5298,5332,2999
127,126,7,3277,2441,1834
92,67,56,-1182,-1615,-360
-88,43,96,-1040,-883,-599
-1,100,-25,1294,2388,692
-18,-124,46,-1356,672,-1012
64,-31,-103,-1485,710,-1124
109,11,103,-2179,62,-1499
-113,54,24,-2137,-258,-1452
-36,44,-94,-398,662,-427
-24,32,-108,1212,1814,804
-63,19,-21,824,1077,324
-62,16,-18,1221,1151,503
-62,-10,11,1159,484,387
-70,-28,27,1121,142,480
-74,-46,50,1194,-156,680
-84,-54,60,1241,-152,754
-64,-32,65,1210,-136,975
-86,-46,66,1895,427,1179
115,-83,79,2130,487,1212
116,-94,-113,1634,107,1316
-39,-97,126,6499,6200,3911
-61,77,-76,-5569,-900,-3093
-98,121,-47,-200,4165,-1424
103,35,72,-4536,2304,-4500
-46,-13,-2,-3575,3470,-4108
-65,-111,76,-5061,2036,-5389
111,-53,16,-5534,2769,-5069
-26,94,46,-6104,1648,-6215
-92,61,61,-8419,1268,-6470
-29,1,-81,-5290,4236,-2577
-125,-104,-44,-7082,-1288,-1913
-48,78,-108,-75,-1778,906
-81,23,26,13596,678,5371
-120,91,-96,1845,-5170,-622
-44,28,76,11110,-269,4419
117,87,-20,12441,6051,7554
10,100,-25,-3868,-9618,-691
-64,54,99,759,-7002,-3613
-30,-78,-98,12169,3949,2449
-15,-3,77,7098,-636,1261
21,102,41,2836,-4745,-542
52,14,-36,4122,-1058,1323
-90,-113,4,4028,1884,685
-89,-65,83,-830,42,-100
110,27,39,1773,2276,1190
14,51,29,280,640,54
94,67,-105,-1076,-620,-377
126,-117,-41,2655,2524,1521
95,94,87,806,449,308
-106,110,23,1800,1183,739
-103,101,89,908,371,307
-80,99,87,746,369,339
-75,107,76,947,587,519
-104,115,93,-1,-222,53
-78,-119,25,728,480,380
-94,-109,45,1273,799,629
-115,-99,68,652,432,297
-89,-95,33,1171,930,568
-105,-92,91,-43,6,23
-69,-87,-1,1296,1114,639
70,57,53,5780,4843,2446
-58,-71,-74,13042,11074,8485
-16,-5,33,-13703,-4634,-9100
-55,-23,-63,2761,8465,-439
-83,-110,-52,-6613,844,-7193
-69,-91,65,-3241,5228,-4162
27,-23,-124,-4326,2290,-6155
-122,-96,79,-7002,907,-7307
67,-109,55,-7805,824,-6339
24,88,-83,-4015,5082,-2621
-67,-70,109,-6454,-39,-2528
-122,92,-117,-4924,-3224,136
-23,-58,-21,17498,3018,8707
89,-29,-18,-1405,-7962,-3834
63,87,112,10528,-157,2019
98,102,3,11866,208,3473
75,29,-112,11115,-344,5464
101,102,5,3503,-3369,1953
0,-72,37,4427,-3373,123
106,-100,59,6334,-2177,682
-109,76,18,3596,-2956,1498
0,-120,73,3997,-339,1517
-107,110,70,5712,3285,2570
23,-18,-106,98,459,-383
35,22,-84,-1090,319,-352
86,-17,-19,-659,470,-5
113,4,42,1732,1963,1171
79,33,-99,384,707,281
120,57,107,466,808,156
-87,68,65,754,1168,154
-65,64,50,696,1002,114
-50,58,53,623,732,133
-36,60,31,865,709,376
-47,66,65,221,62,36
-34,91,13,1131,835,574
-60,91,46,816,390,379
-69,103,62,578,224,302
-67,112,34,1048,648,519
-81,116,68,907,486,420
-76,119,71,805,535,399
19,-112,-16,6304,4192,2098
108,-28,-24,13199,9262,5043
-54,101,-36,-8027,-2879,-6744
-15,-15,1,390,3105,-3773
126,-10,107,3974,3743,-3659
-108,45,103,-6968,-3247,-7924
99,2,32,-9749,-4827,-8068
24,-63,-109,-5844,823,-5533
104,124,-91,-7901,85,-6972
72,79,-53,-8742,1296,-5338
-105,-11,-101,-7556,2172,-3257
73,-33,-45,-8967,238,356
6,-77,-98,9102,1741,3736
-37,104,52,6568,-3078,-416
122,67,1,10424,-770,5255
12,21,-93,8967,124,6471
0,62,110,12946,1356,9652
104,-67,-119,6859,5111,6093
-116,121,58,-5252,-13476,154
29,91,79,10012,1716,2108
112,-99,98,5094,-431,4431
-28,63,107,-1852,-6677,302
-120,99,76,4548,-130,2474
18,-58,31,1623,-531,-399
78,94,-66,307,1040,-741
-108,69,-20,1106,2684,893
101,73,-80,2381,3038,1395
57,76,-6,176,688,426
89,89,-103,-468,-111,-128
-128,106,73,309,621,187
-93,124,42,1099,1327,597
-97,-128,65,83,520,-55
-72,-125,25,487,619,149
-56,-122,2,1170,902,459
-65,117,49,644,284,213
-56,-126,35,934,445,426
-66,-117,54,622,254,290
-69,-111,55,711,409,335
-63,-107,38,1043,721,569
-82,-97,55,755,541,390
-56,100,10,6782,5148,3532
45,49,-116,-5968,-1539,-1944
-9,-84,-2,-1176,5072,-1584
-89,16,43,-4580,3334,-3001
-15,56,26,-5569,3720,-3899
28,95,-116,-4483,5229,-4403
-32,-127,0,-6012,3734,-6251
109,-44,-38,-7925,1178,-5546
-47,65,90,-8480,1542,-5591
-2,-2,-42,-7599,1731,-3173
-108,93,5,-8493,630,1829
39,30,97,11791,2302,5297
91,-85,-36,8860,-2451,890
-100,-36,-96,5018,-3194,838
-124,105,-36,6869,-2524,779
-63,-117,-69,12047,447,4449
-53,-97,51,9061,2595,4066
-117,97,-96,-894,-7563,-2439
125,38,97,3239,-4198,-2301
84,6,45,6480,-719,346
34,43,-5,6389,3401,2441
75,106,46,-470,-816,-1331
100,73,-86,-188,-180,-907
-100,32,5,514,421,116
-91,67,-83,473,-121,377
112,-127,43,3767,2563,1824
115,90,-48,106,-484,-10
-86,126,15,2906,1865,1608
122,118,109,2274,999,1029
-128,107,-127,1542,203,592
-122,108,96,1725,546,525
-87,99,81,1656,639,617
-88,119,97,959,724,489
-75,113,87,572,408,224
-72,-127,41,925,815,455
-73,-127,53,617,565,310
-78,-115,37,780,408,309
-68,-107,32,789,693,361
-54,-107,15,1072,764,498
-38,-122,-4,1676,1161,643
68,94,-47,5459,4007,1355
67,99,-124,12925,10899,5441
55,-71,59,6166,4787,-1004
9,-112,114,-2904,531,-4846
21,-21,-110,2279,2378,-4073
82,17,89,-6214,-3442,-8354
-3,114,86,-10029,-2225,-8954
-53,-78,102,-4911,2776,-7683
58,103,-87,-15460,-4487,-10534
-47,17,-5,-6397,2902,-1724
-19,-108,45,1213,8793,2665
-70,53,-40,-8090,-858,-4019
-91,72,-108,-1015,-958,1016
-90,25,-113,13244,91,2930
38,127,45,4977,-3226,-145
123,-47,81,11805,74,5383
56,68,-102,14461,1365,9175
22,-110,-106,8269,994,5880
98,48,-89,218,-7010,1178
-108,4,13,9015,-199,3386
-69,-9,3,6830,-2416,4132
30,-62,-93,918,-4387,3079
82,35,-127,1448,-2371,1220
67,107,15,3718,2322,691
41,67,81,217,716,696
19,46,-122,-2309,-604,-449
39,100,-88,1022,2305,597
62,102,-117,80,2263,-13
-124,99,65,-2037,51,-741
-107,-128,-109,2586,2244,1198
-113,84,51,600,91,-20
-50,94,8,766,611,271
-51,91,31,571,499,263
-60,103,15,854,629,354
-66,110,9,1072,562,459
-73,114,44,765,361,370
-78,124,42,922,592,433
-82,-127,43,812,428,392
-85,-121,44,792,412,394
-80,-113,29,1204,853,543
-14,-125,-120,5248,5099,1803
-89,27,22,5561,5004,3233
41,-19,93,-5325,967,-4368
74,87,58,-1559,3678,-2558
-70,82,111,-4738,2739,-4302
101,39,38,-2443,5289,-3079
-50,-51,-72,-6309,1636,-6202
85,30,112,-7152,1935,-6447
-23,93,-37,-10056,-497,-6358
14,115,121,-10106,1688,-4315
78,-107,41,-981,7422,3269
9,2,-110,-5907,34,-1293
90,-22,121,1075,-413,348
-112,40,-49,12723,117,4058
-104,47,119,3565,-4472,-1663
22,101,68,9754,-1064,3009
-9,55,-127,11491,-182,4130
59,91,-93,13505,865,6930
67,-87,-27,4314,-1427,4460
34,60,52,3126,-4899,32
87,59,33,6090,-1167,2757
7,99,45,1546,-5429,1037
-81,3,-103,4725,-362,1330
101,-69,52,3122,781,767
79,18,30,-701,-502,-1355
122,60,64,483,1289,296
112,-15,-29,-663,-234,78
77,99,72,3149,2617,2161
27,80,-1,-1614,-872,-575
125,120,-9,570,1150,308
-121,124,-3,2353,2383,1203
104,85,-122,-1236,-778,-686
-75,-128,-77,1782,1500,771
-104,107,55,344,53,56
-91,124,20,749,577,223
-65,116,4,1040,763,475
-90,-128,33,805,519,293
-79,-128,30,794,526,422
-86,-115,33,779,552,376
-83,-107,21,952,685,466
30,92,10,5444,5589,2767
125,-89,118,-3330,542,-1490
17,-52,8,-1105,4239,-763
-94,102,52,-3123,3505,-2249
-46,58,-31,-2820,4255,-2539
-34,-44,40,-3974,3727,-3944
-95,-67,105,-3536,4194,-4883
81,-10,-58,-5527,2650,-6519
-13,-62,-42,-9450,-275,-7271
-14,-123,84,-9461,1223,-5937
-98,-93,-44,-2987,4941,2507
-25,-4,-19,-6937,-2252,-1451
55,51,-22,15871,2597,7929
105,11,-122,925,-6610,-1655
0,-109,45,6208,-3119,437
69,21,64,12217,520,4165
29,21,-34,12624,1946,7506
47,74,63,2214,-3647,2903
-30,74,-18,4291,-5022,-203
74,-4,-102,7211,-2563,660
-69,-104,-82,5827,-3503,1793
40,-86,20,6965,1257,4525
-52,-31,-64,-2334,-3277,-2160
-126,22,-126,1629,2182,-1281
-86,40,61,2711,3721,1571
69,17,120,-620,479,130
101,36,-46,-776,-211,-127
-94,80,85,171,985,606
-91,94,43,660,1190,852
-114,110,21,837,1113,463
-103,117,34,803,569,361
-102,124,45,652,441,90
-74,111,18,1324,774,586
-97,106,101,503,99,61
-72,120,65,951,611,410
-62,116,63,1083,790,483
-73,116,86,551,410,291
-53,-123,46,970,779,543
-67,-120,75,395,437,242
-45,-110,13,1106,932,627
