AccX,AccY,AccZ,GyroX,GyroY,GyroZ
29,123,-49,8233,8056,2734
90,-9,-84,-13094,-1661,-11797
-39,-37,-74,3286,7709,-3916
-100,-18,-36,-2836,1137,-8976
-70,37,91,-2153,2695,-8320
-41,-10,115,-1795,3514,-6535
-96,-77,-15,-1673,3428,-4606
-18,-43,105,833,3406,-409
-101,-49,22,2074,2225,3085
95,-100,88,4400,2876,4523
7,-105,-38,-1049,-1053,-1419
33,-76,-77,-1368,-667,-397
-36,-117,127,745,-164,1568
-62,-106,34,-2094,-3068,1765
-111,87,-108,-3443,-5887,2746
126,73,-42,2546,-5897,4923
-64,61,54,7011,-3306,7627
28,-100,-78,6793,771,9906
30,-91,116,-4175,-7758,1629
43,-30,-19,1343,-7640,1152
122,102,53,9931,3397,7822
-85,32,-48,677,-616,-1147
83,-44,-18,-4349,-1877,-2818
-28,-98,119,-1259,-502,478
1,-113,1,4214,1912,1568
59,-101,-2,663,994,485
67,110,-64,-1358,-254,-654
-111,83,24,353,205,234
117,97,2,1745,1480,1433
75,51,71,-83,-31,268
111,88,19,383,100,551
75,117,0,1542,706,907
40,89,-126,-453,-704,-204
83,125,30,1434,1069,836
45,-127,-122,77,446,-207
105,119,64,631,810,123
118,-127,97,-82,157,-112
-98,-128,63,124,442,-137
-81,120,52,326,747,80
-71,117,21,754,940,301
119,-71,-64,2428,8645,1165
-78,120,-64,-5575,79,-8602
-125,-101,69,3186,3792,-5251
-12,41,-122,-1662,1927,-8424
32,9,-85,697,3396,-8642
-128,44,-77,-5152,235,-8647
109,-109,-44,774,5509,-3227
-71,-94,-51,1286,2883,-993
-107,27,-41,839,1099,1455
30,122,-115,3231,1784,3898
117,92,-20,-1170,-808,-387
27,-14,-79,-850,-237,790
-125,-47,-51,-950,-543,2292
80,44,-33,-2681,-3245,3242
94,-32,-103,-1614,-5504,4515
32,-122,116,858,-6790,4772
-59,120,-99,6306,-4422,5470
-18,-87,19,4741,-4338,6668
-91,-28,90,-1227,-5643,1970
15,9,103,6246,-2438,4232
-92,-97,-100,3398,1412,2206
-10,12,27,-2336,54,-1984
-42,-79,-12,-174,1356,6
-62,-115,-99,440,42,272
1,93,-120,1083,974,261
84,-115,-106,866,1774,320
120,112,-72,-1639,-584,-1065
-61,-108,19,622,818,242
-83,-103,83,762,862,386
-114,-106,-121,-754,-393,-542
-75,-93,36,1138,1027,572
-113,-99,126,-317,-249,-130
-106,-77,82,279,232,228
-101,-66,84,220,112,157
-94,-60,73,765,583,424
-109,-59,115,-32,-53,23
-97,-57,85,148,83,112
-81,-56,60,602,486,429
-106,-54,122,-397,-208,-161
-77,-46,68,757,605,502
-50,-32,-99,-7171,1447,-6803
111,106,-95,1864,7170,-3969
8,-31,-23,62,3510,-8080
96,-52,78,-2895,721,-9978
-110,81,67,-4598,1136,-8581
-125,-95,-57,1341,5726,-2281
-102,-27,-29,1614,2732,-1502
-127,-6,-47,3013,2418,3027
-3,-94,-39,2450,2277,3741
81,100,53,-2546,-2308,-1436
120,8,-61,219,256,1419
-70,-19,0,-1241,-950,2313
84,103,-60,-1765,-2961,3912
-124,-74,-124,-1551,-5453,4926
-99,69,66,1470,-7587,4825
-121,10,-95,9285,-719,8819
-59,-57,111,1717,-5644,7960
-50,4,67,-7373,-9848,-3700
-18,89,-14,10173,646,2137
-30,-60,61,9340,6801,7648
104,-56,-72,-12833,-7740,-7837
23,-35,-22,4366,4240,1727
22,76,-82,2348,2609,1111
34,57,12,-1444,-697,-838
-103,121,37,2162,2510,1083
117,74,-96,-196,538,-275
-108,80,117,-1026,-630,-522
-40,111,11,1495,1180,812
-91,117,-98,-782,-555,-214
-86,-108,49,940,821,555
-111,-118,127,-250,-218,36
-114,-86,73,440,495,306
-126,-82,115,-123,-35,-59
-112,-61,109,46,173,-36
-53,-53,91,713,741,414
-55,-58,121,188,477,143
-81,-88,60,923,924,358
-108,-114,118,-766,-505,-304
-54,-78,45,431,383,513
-73,-40,86,360,409,499
104,-71,-81,-1024,2575,-6505
-128,-99,-26,-1976,1536,-6211
97,64,74,916,3705,-5415
105,-74,102,510,2581,-4651
-14,-126,72,569,2590,-1328
-71,2,92,2592,2404,1818
30,-71,-15,-783,-134,862
107,-31,87,73,46,1101
-1,-29,102,-794,-740,-83
-38,-11,83,531,479,1507
-35,-87,-73,-1429,-1438,1976
-70,-37,120,-2574,-2706,3551
-34,-128,-50,-1923,-4613,4862
-37,-58,96,1634,-4626,6340
106,85,-100,5870,-1587,8759
89,-8,44,344,-4113,6007
-106,115,43,1293,-2944,3574
-41,-79,112,-2560,-6626,174
84,-81,-109,3873,-3605,2395
39,78,113,11069,6344,4557
6,-97,53,-3687,-1673,-2840
50,65,62,-4601,-1299,-869
-2,26,54,3890,1302,1977
13,-13,3,2132,1153,1048
45,20,42,-1597,246,-308
66,31,-124,78,757,27
-113,0,71,462,918,166
-127,3,99,278,259,241
-114,6,91,456,429,264
-112,9,106,178,224,290
125,28,107,312,135,204
124,35,126,-36,159,103
-123,56,108,92,159,197
-120,66,113,15,215,148
120,80,102,-257,122,-56
-122,102,63,105,105,60
112,110,106,-630,-468,-455
112,-123,84,73,11,-125
99,-125,-117,-1078,-649,-814
124,-98,72,-504,-185,-322
88,-116,76,-1910,2797,-5651
124,15,4,1394,4328,-6018
-114,81,-54,-2363,1609,-7974
101,100,30,3929,4150,-7360
49,-116,-76,-3562,549,-8910
7,-7,111,-2803,2188,-4145
-2,106,127,3783,4047,2088
47,-118,3,3586,1863,2952
81,-34,-66,1589,96,2157
-10,58,31,-1796,-1455,-480
65,-122,-40,-542,540,2519
0,-51,-54,-1706,-901,3732
-58,93,-110,-3241,-3721,4111
-58,-77,57,-5151,-9171,3158
-117,-73,29,8255,-5236,5003
-40,29,-37,10433,3112,9216
81,0,120,-4836,-9221,2998
-78,73,88,2747,-5992,1230
-73,111,97,9906,4618,7428
-4,70,-8,-5685,-4604,-5321
-119,-2,95,-795,1311,-175
-122,97,-95,2234,1450,722
-99,96,9,649,277,432
-12,-109,-6,52,941,-2
39,-63,-77,805,1710,200
59,-101,-55,-1562,-227,-978
85,-97,72,-715,309,-350
88,-51,98,-367,253,-137
112,-26,94,-470,427,-218
114,-22,88,-324,635,-142
114,-18,49,-510,44,-208
107,-12,24,440,111,179
102,-9,78,56,-178,2
114,-12,72,324,85,180
112,-5,96,175,-78,217
116,-10,71,848,463,535
105,-17,111,357,40,373
113,-23,101,424,164,522
117,-24,101,558,292,653
122,-14,94,888,629,814
-57,100,-63,-579,3951,-5738
75,123,-63,-1110,3680,-7255
103,-110,-66,-2269,2539,-7902
103,122,93,-4057,2514,-7569
105,91,94,547,5093,-3761
122,67,115,1977,4082,-1478
-94,-9,-96,-970,473,-436
-98,-56,-64,3545,2715,4106
-1,-99,40,494,-9,861
-27,-56,89,-526,-1623,-117
-100,-41,75,-1494,-991,2021
41,30,26,-1870,-4039,3136
99,-10,-66,791,-3684,5009
95,96,-36,1832,-4854,5291
75,28,-18,5341,-4275,6792
-17,-123,-70,5308,-2937,7470
66,-125,125,-3218,-7249,1352
6,119,-4,3543,-3680,2903
-108,78,112,3720,-321,3687
17,27,-122,-558,-400,-1728
-51,-107,-126,-1652,1312,-1424
-53,46,-119,-1870,-2782,-1453
-12,-75,-18,5463,2818,2162
-2,80,49,-1194,-731,-1093
51,-109,-76,-2594,-1581,-1227
108,-121,13,-657,-142,-127
107,-84,13,411,641,834
76,-90,46,-535,-114,-131
99,-53,31,-134,315,717
72,-48,51,-540,-178,178
93,-25,10,146,535,818
69,-30,68,-782,-327,-2
85,-11,31,79,363,515
89,-18,46,117,168,303
94,-15,62,261,385,359
108,-19,52,104,332,360
125,-18,51,316,518,773
108,-29,74,10,-84,246
-124,-33,40,647,661,569
-112,-30,65,426,506,743
-2,73,44,3037,8535,1735
71,127,-128,-2733,1952,-3789
-67,29,-126,1275,5983,-3250
22,122,-32,-1207,3716,-7827
-113,-40,7,673,3986,-7936
-112,-55,-95,-3595,1018,-9277
102,-65,72,-4409,2013,-7250
-104,10,-92,2159,6112,-468
-85,112,-37,1596,2565,368
-73,-2,17,3865,1822,3476
120,86,5,1075,675,1967
68,-101,2,-730,-1663,-294
-125,8,63,-2080,-393,490
-105,-34,-1,-1720,-1774,1801
88,86,-124,791,-2509,4979
115,-90,-40,-1273,-5095,4840
94,0,-73,1356,-6705,4678
117,-116,20,5833,-3797,7228
26,-118,49,755,-4611,4899
107,-15,79,-646,-4882,1914
-50,22,48,1866,-5704,-262
-87,83,-12,8621,4510,6668
-55,18,-75,-6046,-4689,-3874
-100,-49,-62,2298,2422,154
-2,76,-42,1065,1184,117
22,88,-94,1119,763,542
69,81,-78,1017,976,47
126,85,-83,94,587,-249
-99,56,-86,-1708,-835,-1091
-54,109,50,310,619,445
-76,97,72,275,425,507
-103,-116,93,-244,53,315
-117,-81,40,434,447,571
125,-61,80,-91,-122,148
117,-48,49,478,319,242
117,-63,80,54,-115,-52
-118,-69,66,702,510,288
-125,-88,106,-180,-125,-209
-99,-79,77,293,358,89
-80,-82,57,675,582,341
122,45,-83,-214,3287,-7313
-9,-43,62,-304,2821,-8244
98,21,123,-970,2618,-7648
106,119,38,-1752,2508,-6097
-96,104,-81,2658,4870,-2017
-68,-47,-11,1052,1849,361
-65,-89,-24,2070,1587,2904
43,33,47,-1935,-1289,54
-74,-95,-102,662,-662,701
-28,-21,23,-1606,-615,1456
-48,3,-67,-966,-1887,3037
71,-79,-117,-391,-2376,5288
89,-28,-80,-1686,-6474,5221
32,-109,77,4304,-3654,7255
-112,-70,-84,4695,-2453,7887
-49,-104,101,-2539,-7322,1899
-83,95,34,2889,-928,2889
111,5,47,1653,-2909,2449
0,-100,-43,1891,-393,1317
-110,0,-99,106,427,-326
-36,-58,18,-741,251,-636
18,-116,109,310,353,-13
43,117,46,2197,978,1099
42,111,-78,460,-187,148
88,117,-101,815,492,107
-81,94,-111,428,717,273
-82,83,96,209,471,136
-74,96,29,1657,1073,1082
-106,83,-128,-307,-525,84
-77,121,59,1023,632,815
-99,121,107,578,298,532
-109,120,78,801,473,599
-128,105,97,297,24,316
-115,116,83,721,528,462
-94,112,84,970,772,547
-114,90,-120,76,111,-37
-103,93,95,567,542,233
-97,91,103,295,310,60
-95,96,121,82,82,-56
-92,109,116,-109,71,-171
17,59,-81,-1481,6291,-9070
-113,-8,-73,-6008,1929,-10472
9,-10,-5,-7484,1870,-7573
75,-58,-102,-2332,5286,-4093
56,123,59,1653,4667,-1202
-106,-5,46,-555,399,702
85,30,-20,7317,4621,6766
-63,118,17,1488,727,1184
61,-92,123,-2542,-2445,-1544
-46,-76,-28,86,700,1773
-123,-104,9,-2336,-2706,1669
14,119,-120,-3193,-4738,2770
58,51,-8,3715,-3776,5654
109,98,-109,3295,-5849,5833
85,-108,-64,7917,-2462,6680
63,-27,20,3014,-4355,7497
23,28,77,498,-5985,2199
-71,-90,89,6983,2033,7119
-97,-36,35,-85,50,98
-89,-25,56,-166,84,161
-85,-29,36,-234,263,79
-73,-27,-7,452,642,358
-85,-19,15,-85,43,120
-76,-11,-14,576,391,286
-78,-9,36,77,63,159
-82,-6,23,300,312,185
-79,-14,30,127,135,114
-75,-7,23,269,243,163
-54,-13,7,539,445,313
-61,-7,13,467,330,270
-58,-1,27,229,59,99
-52,-7,21,434,271,241
-55,-12,29,232,267,148
-52,-11,20,289,242,183
-50,-8,13,529,473,275
-47,-18,41,-62,1,81
-41,-11,2,761,586,416
-45,-14,38,146,156,156
-40,-10,18,299,306,247
-45,-7,23,121,191,122
-13,51,9,2532,8124,1478
65,44,-111,-4837,3860,-4505
-108,6,-123,-454,5039,-4433
124,23,-58,-92,3216,-7439
41,-26,-53,618,4435,-7154
-19,-97,85,446,3355,-9139
125,69,76,-4261,1169,-8539
-15,-68,-105,-3524,2094,-4220
-44,-68,115,2927,3404,3200
-57,55,-107,2646,2226,4162
-78,29,125,2683,1043,2708
73,92,34,-1315,-2527,-1170
-48,-41,13,-1644,-675,1287
-60,-4,-76,-257,-1710,3239
4,-113,-54,568,-2045,5266
-17,23,81,-1562,-3988,4630
-105,21,-13,-43,-5167,4369
-76,-32,-89,3287,-5569,5415
-114,95,18,7460,-1344,8022
0,-4,-104,-5349,-8561,-433
-19,-119,-28,4977,-4400,3077
-69,-64,-125,3738,1300,4692
-67,11,87,-1881,-949,-3643
15,-70,45,868,2877,67
-3,87,-53,-1412,-333,-350
14,-124,45,1726,922,767
106,106,-93,615,840,481
114,-93,111,1296,1640,529
111,126,-74,-1241,-733,-950
-69,-115,68,439,873,250
-66,-120,87,160,605,82
-86,-85,58,821,999,549
-107,-97,110,-467,-347,-219
-90,-69,49,722,400,498
-107,-67,95,269,53,188
-109,-64,115,-87,-179,19
-99,-45,68,1185,859,596
-110,-76,-115,-330,-348,-155
-93,-58,82,895,610,463
-94,-81,-117,22,-19,44
-66,103,111,-607,3795,-6118
-96,19,117,-2761,2169,-8443
42,-89,-103,-3827,2615,-7720
-110,56,79,-1815,3743,-4093
124,-37,-78,1196,3851,-551
42,47,-81,830,1062,1479
-22,-108,120,2855,1022,2315
-3,-104,-56,2165,1045,2072
57,-110,124,-3014,-2836,-552
125,-25,-56,-947,-1978,2186
56,113,102,15,-3356,3890
95,-39,91,1226,-5619,4451
88,-83,121,5465,-2535,7421
-91,83,-8,3162,-3141,6543
66,-75,92,-1475,-5699,2569
-111,-104,3,1951,-5548,2514
-67,-47,94,3431,-2942,4147
-103,-91,-98,310,-1373,-544
52,-1,103,1086,2015,-729
-74,65,-123,-1147,342,-997
21,102,-65,-1524,-757,-290
51,-100,63,1883,1247,970
101,-89,-79,870,1306,509
87,-84,-65,-868,-202,-514
-123,-78,92,466,705,166
-116,-73,-116,254,730,285
118,-55,126,730,973,244
116,-62,-83,-300,105,-296
-94,-62,109,332,344,58
-92,-77,117,93,18,92
-91,-65,90,567,323,447
-91,-52,126,159,61,358
-78,-35,126,421,326,504
-48,-23,-128,663,422,783
-78,-28,108,875,662,709
-89,-58,-126,180,7,356
-65,-73,84,825,342,669
-62,-77,123,599,187,604
-65,-83,117,784,453,668
-60,-98,-123,357,196,531
104,-79,-123,-1809,3822,-5070
-46,102,-92,1607,5398,-5264
-97,-42,-38,-3600,2529,-9438
88,39,-39,-6415,582,-8776
-112,-106,-29,-139,6132,-2081
45,49,-93,4616,6336,181
74,56,-117,-949,-142,-556
-74,-71,-30,2451,1863,2600
83,21,-93,2526,1989,3452
102,107,18,-2236,-2385,-634
-118,43,-66,-133,658,1274
-43,-46,52,-1281,-1446,2369
79,65,-2,-1902,-2396,4454
93,-69,-44,-2363,-5213,4776
69,47,96,1063,-7651,5058
80,-117,-61,6417,-3150,7215
-89,94,69,8188,-2434,9650
-29,99,52,-7708,-6510,-1533
-97,-91,55,7916,-1157,4165
69,58,-80,7549,4992,5411
-59,46,-48,-9103,-7765,-4611
-72,-32,-34,-1579,37,-1651
94,110,3,3979,4945,2099
6,77,-54,936,1308,354
22,93,-46,-110,95,-59
95,86,-127,807,873,-43
-128,79,-76,-680,-148,-450
-82,80,98,202,640,178
-92,106,92,62,669,195
-113,-116,95,-654,-181,-213
-97,-102,45,-436,-130,-170
-85,-93,17,418,141,441
-101,-87,62,595,365,511
-122,-86,99,363,153,364
-124,-63,96,437,349,269
-110,-86,101,-19,-64,112
-113,-69,82,147,99,232
-109,-69,76,207,208,69
-97,-66,84,211,188,87
-84,-69,68,233,214,135
80,-95,117,-3431,2049,-4792
-30,-84,48,676,4869,-4000
52,47,-45,-761,3909,-8097
-87,-56,-126,-1967,2683,-9121
-12,50,-34,-5526,734,-8753
-77,44,-33,-1567,4255,-4047
-119,72,35,5239,6752,1384
-50,-46,62,1989,1063,538
26,-118,-4,826,485,1359
39,120,-35,698,-297,753
-2,-100,-29,-185,-434,503
-95,-58,3,-109,-1,1567
92,-29,26,-1123,-1339,2175
39,61,-43,-1532,-2376,3984
77,-102,-60,-1072,-4091,5383
106,-13,-76,256,-5428,5819
53,-85,8,5712,-2970,8424
40,-72,87,-4467,-7394,2746
16,109,-86,332,-8002,-901
-109,-75,-54,12919,3950,6709
127,-50,-66,654,-2557,4064
-70,58,64,-7141,-6352,-4784
37,-80,-80,3986,4890,1438
15,118,-23,2104,3499,1702
-64,98,58,-3125,-2091,-1186
18,95,75,-176,-814,-752
-125,-128,18,2307,2134,1339
70,93,-48,-2382,-1350,-916
115,-105,27,-550,143,19
-124,-99,-1,831,1104,577
113,-84,54,158,535,132
115,-69,70,-159,79,149
99,-55,65,-114,27,0
117,-53,53,251,337,97
125,-63,56,345,323,206
122,-55,51,659,527,317
-128,-67,81,194,156,91
-128,-51,93,-297,-158,-97
-116,-41,53,442,563,321
-121,-57,66,195,43,86
2,24,86,-432,7308,-2977
-41,18,78,4488,5920,-3276
42,-95,93,2016,1288,-6816
94,-54,11,-287,1121,-7400
-5,-45,60,550,2618,-5123
103,-19,-5,3298,3652,-1456
77,16,121,543,1088,-485
-88,-61,21,254,434,1658
-87,-81,-14,-328,-1012,1334
-45,-59,-46,-399,-1623,1760
-32,82,-21,-678,-1207,4297
10,-125,-22,-1166,-3039,5054
105,-51,-67,-1211,-4970,5510
-73,-18,-127,3514,-3340,8154
40,-111,-126,3722,-1763,9055
-78,-29,100,-2868,-6276,2924
29,-121,-65,1872,-7355,2349
87,48,-22,10282,3628,7644
-123,116,-21,-8292,-6559,-6628
26,-91,-24,-2328,1278,-1448
101,-79,124,6842,6493,4185
107,86,18,4516,1763,1853
-44,-2,-111,-3181,-2518,-2501
127,89,-122,423,1161,-21
-74,18,123,426,933,-192
-61,43,99,813,1208,432
-72,44,-93,-1278,-234,-605
-29,102,6,871,1362,716
-50,90,76,-116,190,111
-66,125,32,447,531,388
-75,119,54,-292,-390,-30
-77,-124,36,759,128,535
-109,-120,96,158,-289,35
-103,-122,94,63,-349,59
-104,-114,76,649,264,279
-117,-123,122,-19,-216,-138
-113,-120,109,159,37,13
-113,-112,110,-110,8,-97
-111,-92,121,-381,-85,-250
-81,-62,62,492,874,237
-92,10,89,-3000,3037,-4074
3,108,3,-1671,3289,-4135
81,34,-89,-2820,2562,-5569
39,-97,-85,-1597,2254,-1842
-16,69,110,8692,8893,-1041
-34,-29,65,-10886,-3565,-15132
42,29,13,-16433,-4476,-8916
-104,17,-45,9449,6601,8295
120,63,43,15867,6087,10513
-77,94,29,-1185,-144,779
-105,-99,-105,-5857,-6177,-1346
112,-125,123,2334,-362,4833
-118,58,108,3118,138,1399
-38,-116,52,-2466,-1372,-3509
-30,127,43,-296,510,-1187
68,84,106,546,513,537
49,115,-113,1200,862,220
106,127,-108,1408,1377,321
96,117,-12,-1298,-362,-1155
-91,97,100,-2060,-1327,-929
-78,-87,-32,2208,1765,1425
118,-118,-92,-704,-355,-141
-121,-47,88,8,382,208
-122,-63,69,213,235,203
111,-52,102,-236,-128,68
114,-43,80,57,227,124
126,-37,76,127,119,180
118,-25,82,10,99,13
-126,-26,72,143,283,41
-115,-18,80,-4,110,-74
-106,-22,54,245,276,80
-117,-22,69,-208,-80,-167
-105,-20,42,368,156,152
-105,-8,75,228,46,101
-107,-12,96,-92,-142,-10
-109,-11,63,540,551,324
-115,-13,80,-4,89,50
-101,2,59,323,267,202
-94,-2,77,96,122,138
-94,-5,73,150,260,174
53,-34,58,679,3015,-7806
96,-15,-62,705,2933,-7465
-28,102,21,1577,4264,-3559
-63,121,-4,3745,3595,550
18,-60,-113,-369,-46,312
-67,-123,8,-395,-553,1501
-32,124,-117,-80,-214,1140
-107,-3,-80,-415,-304,37
-65,-43,-48,-377,233,1089
-95,-42,52,-1767,-1201,2410
46,82,41,-2506,-2611,3783
62,-19,-48,1115,-1880,6733
12,-12,115,-3742,-5316,5175
-22,67,-58,-40,-5962,4816
116,-83,111,4635,-4743,5980
-98,127,30,-794,-5785,2158
63,-26,-93,9159,-814,6007
123,85,-103,1329,-335,5442
104,-70,117,-2977,-4742,-2837
-67,-121,60,1848,2418,-587
9,95,-12,1182,2052,664
-50,94,-64,1943,989,717
38,-5,-15,-234,-26,-843
-105,30,-128,1469,2098,446
-84,-6,-55,-798,-21,-725
-51,27,81,-222,148,-31
-67,75,75,652,552,448
-96,85,118,-127,-163,41
-119,118,116,38,-49,101
-115,-124,112,-27,-10,52
-101,-117,75,1228,848,659
-126,-125,-99,-505,-359,-267
-104,-105,109,97,198,9
-86,-98,94,468,578,232
-99,-117,-126,-569,-343,-193
-79,-86,55,556,623,376
-83,-77,54,449,368,207
-85,-78,92,-137,-379,-78
-75,-56,83,132,58,124
-78,-69,70,169,301,2
34,-2,38,-4241,1071,-4999
-2,71,-77,-1294,3563,-4738
53,-53,35,-1735,3539,-6240
61,-103,54,-1654,2628,-7508
85,123,12,-2472,2465,-7583
-97,81,126,-2686,3724,-5206
-104,-54,-98,1139,4868,-1246
107,-25,110,2074,2614,774
-70,107,-72,443,871,2369
-8,13,-20,-459,-1803,369
41,-107,-60,198,-1068,1060
41,-20,-24,188,-620,2569
-24,70,-69,-1,-2215,4105
27,-104,119,1561,-1249,6197
-67,-92,26,-958,-4635,5155
-80,4,-39,1452,-4558,5074
-118,-115,14,4794,-410,6974
-38,96,60,-2569,-5957,2550
51,23,48,-213,-5818,410
-38,50,13,8235,-1084,4214
23,37,90,4911,-162,2939
67,121,-74,-4861,-2485,-2661
-57,-103,69,-5081,-2583,-2805
11,113,-86,4190,1746,1504
-18,107,-92,1909,766,626
42,-128,-40,-1062,-96,-380
47,-118,104,42,354,172
78,127,85,-1380,99,148
67,-76,33,-180,342,794
89,-54,108,-1994,50,833
89,-15,21,-541,909,677
88,-29,36,-140,634,311
95,-19,52,-23,689,293
-119,-22,48,362,961,588
-123,-27,57,856,1023,650
-102,-40,95,265,630,449
-103,-49,96,154,142,300
-102,-40,69,685,585,432
-95,-46,108,-267,-227,-141
-69,-33,24,1538,1239,824
78,43,-101,-1896,4395,-4818
-30,99,-22,-2298,4904,-7408
41,127,-43,-2595,4424,-7649
-7,-51,57,-5007,1679,-7210
-65,-10,66,-3867,3746,-3015
-109,-20,84,2518,5049,2204
-109,-128,65,5641,3665,4474
-98,40,24,3603,1102,3050
-19,54,-73,-3827,-3411,-1284
-53,11,-62,-54,-417,1482
-30,-5,-17,-77,-1845,3525
115,70,-20,-905,-4306,4138
-31,68,-113,2282,-2856,7069
113,95,93,2119,-3704,7237
4,-103,-49,1199,-3689,6333
-107,-49,-5,2255,-4213,5147
-71,112,56,-316,-4642,2471
-83,71,-10,1673,-4580,2612
-64,-41,-105,-101,-3325,357
-109,-42,-14,829,865,-1193
-29,-118,49,3776,3838,1262
-67,87,110,-789,491,-753
25,81,-83,-588,-257,-246
64,-126,93,2157,1743,783
100,82,-27,-1132,-251,-1028
-84,99,86,154,840,-172
-60,104,88,273,806,114
-53,121,63,199,571,94
-80,-116,93,-374,142,-155
-68,-98,62,-44,23,33
-72,-74,49,586,548,348
-90,-76,89,97,27,26
-84,-85,69,425,25,262
-91,-79,87,591,69,281
-106,-85,-114,-244,-497,-79
-88,-83,89,686,298,378
-95,-82,-125,77,-34,170
-100,-73,105,531,389,380
-108,-65,126,-103,29,49
-94,-52,85,426,482,322
-68,-50,61,-2383,3281,-4733
40,42,-128,-1790,4045,-5882
-120,-80,-89,-981,3678,-9754
10,53,96,-6357,1678,-8675
-87,17,100,-5752,3426,-4818
47,74,-6,5695,8549,2983
-11,-28,-33,950,1230,-122
98,77,-72,1900,746,2539
54,103,-56,2107,536,2201
-55,-121,98,-2100,-2586,-842
104,6,-80,455,81,2947
-5,-6,-33,-348,-2084,4095
65,110,-18,-856,-3439,5129
78,-20,-38,-561,-5647,6046
64,46,-56,3293,-5274,6838
24,53,56,7799,-612,10881
-78,-73,-120,-6016,-6195,1813
10,112,-128,-3670,-10108,-4140
-1,-47,-53,8517,-211,1182
-97,-87,45,5539,2687,4205
-126,-98,125,-4664,-1425,-2753
-45,-38,-36,-1449,909,-100
-24,-105,-109,1094,938,639
-34,90,-58,-519,-283,-730
117,125,68,398,1318,499
92,-86,96,86,1012,190
97,-90,106,-1127,-371,-726
-117,-67,-1,794,938,368
-121,-83,59,46,324,70
-124,-78,36,366,382,187
118,-74,69,186,-68,23
-118,-65,64,475,231,275
-123,-67,83,201,96,135
122,-59,77,345,189,208
-118,-47,65,771,507,370
-123,-65,105,-109,-179,-26
-117,-59,62,1061,752,559
-116,-66,115,-363,-100,-122
-99,-48,48,521,591,301
-98,-58,75,160,163,88
-39,56,90,-2725,3548,-3741
84,2,101,-1967,4235,-4554
-98,-74,-103,-1707,3643,-6064
120,-59,72,-1173,3550,-6713
106,117,11,-2692,2256,-7215
77,44,-113,-4924,978,-7374
104,99,-89,1701,6119,238
119,-61,109,3668,4022,1670
-83,-36,42,1933,924,2405
-51,21,67,985,-888,1988
-102,119,72,-1410,-2745,1000
-114,104,-21,218,-1263,3882
-11,-68,-33,249,-1864,5336
40,22,-24,-113,-3081,6182
20,73,-1,617,-4487,6162
-24,-68,55,4606,-2809,7627
81,96,72,-1013,-5349,2585
-61,26,38,5555,-1881,3089
-14,114,1,4069,-620,6757
89,-121,-118,-9536,-12386,-4875
56,119,-71,8793,5174,3242
-62,15,-8,3666,4209,1792
-106,54,-5,-6031,-3057,-3708
15,-128,10,1589,1340,967
28,84,93,3296,1848,1280
55,68,36,-2560,-944,-1420
-122,-106,69,713,1295,161
-122,105,118,-673,226,-351
-89,-107,46,-403,538,108
-95,-90,27,415,612,445
-115,-88,59,-44,193,-75
-108,-73,54,192,186,65
-104,-70,74,104,-4,82
-114,-67,72,336,311,129
-101,-68,77,328,216,200
-96,-61,95,105,128,126
-76,-66,52,762,669,515
-102,-69,92,132,22,115
-95,-60,62,636,314,364
-100,-71,91,323,83,193
15,-56,-10,2736,6606,1502
118,-65,-120,-3137,618,-1977
-98,-74,24,-179,3993,-672
-110,120,-99,-1940,2942,-2960
-48,111,121,-1359,3507,-3871
-24,30,123,-720,3440,-4779
-73,-2,97,378,3358,-6174
-48,-87,91,250,2875,-7964
63,2,-24,-1736,1989,-7499
-59,113,24,1194,4887,-3488
-25,8,26,3772,5013,465
107,-3,-56,1276,1908,1395
-36,-32,-57,-2102,-1441,455
26,-83,-101,527,-460,1203
24,18,-30,-656,-1256,892
74,13,-25,-242,-894,2046
-37,35,-71,366,-988,4579
-55,87,-28,-1075,-2698,4761
-65,-59,-65,1100,-3624,6252
-71,-21,-19,1649,-3118,6304
52,97,-116,995,-1504,6613
-16,-28,-73,-375,-6763,2628
-103,61,24,4542,-1399,5095
87,-10,-116,-336,-5685,1338
48,-79,6,2163,-1844,1071
-97,37,54,-1250,-630,-1103
-38,127,37,730,1685,-414
17,93,-66,1069,1875,69
45,102,-87,636,761,499
68,105,-98,-203,-5,-207
114,-128,93,848,868,283
-127,99,-105,-861,-398,-569
-87,-117,30,1270,1136,721
-123,125,-120,-404,-291,-202
-103,-103,63,798,671,420
-121,-106,115,-447,-364,-219
-111,-87,77,671,421,408
-125,-90,127,-50,22,1
-115,-81,106,192,223,138
-110,-70,95,404,401,221
-82,49,-48,-2399,3472,-6766
-95,79,-18,-3805,3078,-8497
100,49,-117,2308,5697,-5686
67,-35,35,-5085,218,-9654
117,117,76,-314,4541,-4080
-25,92,-57,4339,7274,1069
-112,82,-113,1489,2400,1815
-105,34,99,2523,2235,3555
-52,-2,74,-2808,-2154,-349
-37,9,53,612,-515,1270
-19,8,-99,-8,-75,1350
-43,35,33,-1748,-2074,2846
-3,98,4,-1709,-2827,4222
0,-85,-41,534,-2753,5661
-55,-46,65,-292,-5771,5300
-33,53,-52,5189,-3847,8186
57,-68,59,-444,-1073,5937
-111,-101,30,-967,-6262,1609
55,24,107,3151,-2605,2530
16,-126,47,175,-4205,128
-21,66,-48,663,-686,490
-66,-61,-110,1055,1214,-142
5,102,-7,1084,1694,-182
13,122,-75,1112,1281,524
28,113,-32,-639,125,-484
117,-124,122,81,701,-59
-103,113,120,19,579,-202
-85,123,87,286,731,106
-79,124,83,-37,229,32
-93,-103,78,94,221,152
-109,-94,94,-552,-495,-103
-108,-46,53,979,729,579
-126,-70,-123,-235,-259,-98
-117,-50,84,711,534,366
-127,-60,-124,-49,-91,-77
-110,-59,97,510,336,228
-112,-60,126,122,139,46
-94,-55,119,24,142,18
-87,-47,91,675,700,350
-77,-63,121,-129,-13,24
74,11,-112,-4248,2786,-4484
22,-69,-55,2335,6666,-3781
2,2,15,-2230,2138,-8756
93,5,50,-2216,2124,-8093
103,38,46,-402,4151,-6807
-79,-86,12,919,4651,-3300
-63,-54,-44,3490,4405,669
124,87,-126,1903,2561,2837
-9,16,-100,-53,-85,1484
83,-119,-62,-633,-744,168
-53,-70,-32,-338,-350,-84
-9,-73,-43,27,176,1636
-101,-24,-63,134,-766,2889
-93,49,-12,-800,-1452,3661
-110,98,-36,580,-994,4651
60,-41,85,-481,-1101,5329
-87,-118,-115,-3975,-6430,2217
84,-13,46,4265,-1269,6771
-18,-83,94,1618,-2290,5516
-121,-74,125,-1262,-3047,2619
127,118,45,-107,-5849,1099
-114,67,23,1661,-2221,598
-51,123,-114,4903,-505,4012
-62,40,-13,2143,68,765
-84,-57,-41,-1463,-508,-2159
77,80,3,-3058,-758,-1484
116,89,-74,2560,1339,1514
66,-108,100,3136,1926,2031
41,95,46,-2512,-1596,-1427
-105,-110,18,1448,1303,836
-128,92,95,619,476,486
123,121,102,649,451,468
117,-128,117,188,36,137
126,126,107,367,232,227
-118,-128,104,585,392,342
-115,127,-128,131,173,66
-108,-125,85,470,426,263
-103,-113,92,516,373,242
-98,-108,116,13,-116,-57
-89,-105,81,717,550,312
89,-49,95,-1056,3868,-5837
71,47,98,-1824,2551,-7603
-120,-89,40,-1862,3552,-7853
-42,84,-84,-4725,1491,-8224
93,38,-86,-3052,3475,-584
-3,-12,-86,9486,8127,5581
58,-55,-35,3447,2410,825
-122,15,-54,-2466,-2549,-509
93,-86,-30,-183,141,1056
31,-55,-81,109,-456,994
60,-24,12,-744,-1139,1985
-38,25,42,-867,-1692,3899
-6,118,14,-1767,-3000,4494
7,-40,-95,-1071,-6076,4600
-40,126,102,6573,-1910,8760
-102,-8,110,176,-4421,5734
102,99,117,-452,-6014,3444
-16,-123,-55,2305,-8329,1187
-75,-15,57,7849,-965,4202
48,-1,-13,-1950,-362,-1845
71,122,30,-4677,-989,-4777
-122,96,-31,3941,4283,2677
-49,90,-105,4069,2033,2337
-53,54,117,-2320,-2034,-1581
101,113,-101,-502,415,-535
-92,85,80,1442,1784,864
124,85,-80,-876,-55,-523
-86,-118,48,674,942,516
-120,-120,115,-645,-186,-274
-98,-92,40,460,540,345
-121,-84,94,-161,-119,-97
-105,-76,64,422,269,177
-107,-86,83,255,144,114
-105,-83,94,432,231,233
-112,-83,99,151,-26,14
-103,-85,97,419,248,268
-110,-83,115,197,91,91
-100,-72,104,359,285,256
-98,-74,105,302,193,139
-89,-63,88,486,407,359
-109,-122,-120,-2496,6187,-3162
107,106,-38,-622,5269,-5318
-87,38,-17,-923,3963,-6449
57,-110,74,921,3325,-7251
59,108,7,-1209,1946,-8682
-3,-76,-125,-943,3756,-5271
-116,-19,-4,-823,2874,-119
-75,123,93,4347,3863,4729
-121,-34,38,1743,-89,2384
-120,-73,8,179,-438,231
80,-52,7,-2326,-1730,-165
113,-21,-63,473,-745,2884
-14,29,-17,-110,-1491,4338
22,-105,-2,-864,-3268,5071
-51,29,-6,1108,-3204,6648
-116,-34,-67,-3513,-9005,2555
48,-15,67,8171,-1479,7683
-94,-9,3,4377,941,8765
39,-25,98,-7048,-15090,-2382
-17,-31,-45,8961,-358,3906
-107,19,-56,572,981,742
0,-105,47,-4220,-1459,-4335
43,-90,53,5101,5759,2337
-34,29,4,-616,-664,-459
-14,87,-112,1193,594,521
62,83,-18,-171,204,-680
127,98,-66,-653,289,-725
-64,70,115,-18,448,-32
-80,111,119,565,954,348
-76,125,-89,-1105,-184,-368
-61,-95,29,988,1178,708
-103,-90,111,-405,-29,66
-100,-65,61,217,251,253
-110,-44,86,349,247,257
-121,-32,113,274,386,58
-122,-44,-124,-454,-288,-502
-88,-54,55,951,542,241
-89,-77,127,244,-49,-3
-83,-72,117,699,340,223
-76,-99,-90,-83,-298,-97
-90,-128,-72,2523,6071,1953
-3,-29,116,-561,5134,-3344
-39,-81,-73,-4255,5011,-8650
49,39,-40,-2363,4357,-8075
39,94,50,-4113,2832,-7595
-122,-83,104,-4149,3508,-5658
-108,-36,-71,2418,6510,117
104,46,68,3849,3774,1598
-75,12,85,963,824,2023
92,7,-90,2668,1388,2131
-45,-25,107,-973,-1367,72
107,-24,4,-18,-305,1035
79,-62,37,-693,-1535,2273
-14,31,16,-1385,-2653,3527
-10,-82,-38,759,-2697,5563
-64,-59,91,-3146,-6514,3060
-34,4,-112,2208,-6772,3488
38,-97,-31,10595,-1105,8506
-75,111,60,-3375,-6642,2957
95,-124,0,3447,-4260,1453
-85,82,87,5374,486,4152
102,91,-82,-1813,-2497,-1295
-99,-100,122,1263,1753,-217
-20,100,15,1387,2175,353
4,68,-17,187,393,45
49,95,-89,748,1088,58
96,86,-49,-186,370,-605
-117,89,-75,-631,131,-723
-58,89,108,37,470,-157
-61,119,117,-14,591,24
-67,-120,110,-260,45,-128
-72,-92,70,405,424,351
-92,-78,117,-25,107,27
-81,-71,98,311,193,242
-95,-59,105,399,255,230
-91,-66,110,434,233,241
-98,-62,-123,181,10,59
-88,-64,-126,235,56,130
-85,-61,115,647,445,322
-100,-60,-104,-64,-144,-98
97,-88,81,-2016,6260,-2738
-49,-64,94,581,6897,-2569
108,41,-36,-3558,2111,-7903
-48,-4,74,-1655,3652,-7138
-79,63,-108,-2541,3026,-7594
53,60,-20,-2531,3358,-7927
31,-119,-40,1044,5689,548
-63,59,17,4321,4932,2697
-58,-3,-84,2055,1371,2812
-23,17,53,-898,-1324,239
62,-16,106,-211,-725,-441
65,-20,-75,191,816,453
-35,-109,-15,326,-172,1302
-19,-63,72,-1619,-1680,2590
8,55,-41,-959,-2847,3901
58,-103,-110,544,-3706,5099
-116,10,-65,1064,-4953,5939
-121,92,-75,5104,-4126,7612
31,56,-65,4292,-1064,9291
59,-21,-121,-2220,-6457,2445
-40,-84,66,2575,-4157,3500
-4,94,108,2266,-1715,2737
-34,55,62,-1709,-288,-2767
-74,-71,37,-385,1895,-967
43,124,30,2369,2887,1143
-34,-123,-99,2547,1071,1093
-6,75,38,-1472,-1139,-1602
-121,92,-101,-461,168,-850
-91,61,111,-35,400,-318
-94,100,96,571,844,146
123,-118,-102,-566,143,-309
111,-71,-79,-1166,111,-684
-83,-69,60,733,1584,202
-89,-82,74,751,1158,384
-110,-62,108,40,251,-140
-85,-61,107,-348,-223,-250
-75,-48,96,114,172,-36
-77,-43,103,212,278,27
-73,-59,103,112,-23,45
-82,-50,98,612,264,384
79,-107,97,-1011,6755,-2382
-119,-100,-89,1414,7192,-3477
-109,-34,8,-4097,2651,-8719
-122,-28,-50,65,3014,-6712
69,53,79,-1160,2385,-7086
-35,65,-67,3227,4777,-4830
-124,-12,119,1948,3496,-2454
-52,114,-123,1486,2711,470
-64,73,-117,2341,2222,3042
-20,20,-128,-2323,-1507,-362
-126,-54,95,1684,687,649
76,-31,-3,-1491,-719,-210
20,-40,-47,439,-400,1889
125,0,57,-802,-1093,2768
-124,28,-1,-937,-2658,2818
-127,76,-112,1846,-3108,4770
118,-118,-49,-157,-4104,4759
126,-63,-65,1516,-2235,5601
-17,-73,108,308,-5941,4245
60,30,37,2755,-1341,5417
-4,-24,-16,-789,-7012,1325
-67,-45,104,3715,-4351,1038
-66,87,-123,11153,3768,6480
7,55,-50,-3808,-3275,-3857
-63,105,-34,-9050,-4397,-4896
112,-115,92,5448,4065,3224
-31,118,124,6489,4422,2506
-41,21,-57,-4505,-2989,-2553
103,-120,110,-2333,-763,-1069
-95,-115,-55,3094,2742,1670
103,103,-97,-746,-46,-319
119,-97,75,-238,182,-135
105,-80,95,559,833,57
111,-90,-101,-1351,-113,-925
-89,-69,-13,1501,1588,783
-123,-92,114,-299,-115,-267
-95,-70,71,266,382,52
-79,-64,69,508,573,207
-93,-74,111,-278,-201,-207
-83,-55,60,613,392,305
-53,-49,124,756,7872,-2157
-46,-117,-41,-583,5347,-4606
-87,-11,-19,-4138,1222,-6650
78,-9,126,-1752,2431,-4381
85,-23,-7,2553,4132,-4824
-6,-121,70,4842,3834,-6211
-73,-7,82,-529,1954,-4445
-53,-115,124,2642,3225,227
-41,29,103,1711,1812,1864
-105,62,71,-1036,-805,604
-20,-74,-46,180,-245,738
29,-12,-6,169,153,636
2,-64,56,-667,-1057,1496
-82,-16,20,-702,-904,3295
-68,104,-31,-529,-1967,4031
-84,120,-91,-208,-3838,4530
-18,116,-118,45,-4500,5122
-69,-3,-28,2030,-3940,6348
-74,77,-5,3542,-215,6574
67,-6,17,-3406,-7371,1194
-66,93,117,2408,-8513,-353
85,6,-66,10505,2650,6987
-87,57,-25,-1431,-1148,-2644
-68,116,-29,-5436,-1175,-4800
-75,63,-23,2781,3047,2375
-69,-121,101,8243,4230,4485
-97,19,45,-5770,-3799,-3584
82,-117,-44,-3513,-1584,-1861
-51,-109,-99,3083,3480,1660
-126,91,-116,-58,534,6
-114,-127,101,-771,7,-395
-84,-107,34,392,407,296
-96,-96,54,236,187,157
-101,-87,68,141,122,89
-104,-81,55,630,241,320
-122,-81,105,-1,-286,-90
-111,-81,91,262,124,84
-115,-73,110,152,123,5
-101,-84,93,431,310,211
-106,-91,111,33,-30,50
114,29,-127,-2652,1153,-6450
-34,88,110,588,4102,-6421
22,-103,40,-4,3281,-7541
13,82,114,-754,2477,-7688
110,114,-18,-78,3577,-6030
-122,2,10,-2261,2284,-3129
106,32,-95,735,1335,1675
-14,31,56,10098,6379,8645
-14,-79,11,-7315,-6103,-4413
41,75,88,369,1086,1714
-88,-93,-20,-606,-757,2798
-30,52,12,-1488,-613,4382
-34,-128,18,-2906,-2971,4317
35,-8,-97,-467,-2937,6205
42,47,48,-400,-3969,6316
-64,-68,66,1061,-3875,7268
105,-3,-72,1375,-2091,5556
-99,100,-80,-1097,-7002,2633
-66,-96,-54,3380,-5662,3141
-24,68,-91,1268,-961,1972
38,-62,121,-6080,-2259,-5758
-101,110,108,1733,4253,1339
21,117,-74,7297,4735,4583
79,-84,39,2981,1572,2309
-100,64,1,-8248,-6241,-5509
108,0,22,-436,1682,-393
-69,-85,-56,3524,3730,2011
106,-127,-94,23,947,-487
-102,-95,-114,-1457,-357,-994
-29,-88,27,356,874,41
-36,-89,77,89,510,-30
-57,-55,77,-309,118,-218
-53,-41,62,-130,177,-100
-55,-26,43,419,381,123
-67,-39,67,447,104,174
-76,-44,82,292,-201,112
-89,-38,113,73,-287,80
-97,-28,96,626,246,303
-95,-44,125,48,-196,94
-100,-20,95,778,578,468
-23,4,118,-1844,3786,-4781
79,-118,-101,1403,5173,-4263
-124,-7,-29,-2389,1394,-9248
41,29,-19,-1079,3585,-8014
-72,14,102,-266,3842,-6730
53,-31,86,307,4107,-3630
106,43,-83,2650,4287,1209
-21,-70,-37,4521,2645,3239
87,-27,61,-1613,-1789,-507
-105,-42,114,456,-273,312
84,-125,-28,-418,-123,542
85,-110,-25,-410,-360,2417
-26,35,5,-1624,-1313,3526
-12,107,-68,-1554,-2392,4528
0,-28,-62,-592,-2545,5752
-60,-71,57,-2151,-6888,4083
74,43,-124,5076,-1590,8175
67,-38,65,739,-2406,6434
38,-17,-44,-247,-4759,2680
125,108,-98,2040,-4198,2941
20,-10,53,1872,-2790,1623
125,67,26,-952,-198,-1774
-5,124,40,-692,834,-1472
35,-122,66,3095,2789,1907
-36,75,-5,-537,-1023,-405
41,119,-81,306,503,-376
-120,85,-105,328,767,-65
-116,85,125,175,605,-23
-92,99,108,-106,443,-23
-71,115,66,74,512,115
-75,-116,62,319,514,337
-86,-101,72,153,278,217
-98,-83,94,-596,-327,-210
-92,-52,23,978,831,554
-113,-77,102,-434,-420,-264
-108,-57,64,360,100,118
-98,-75,86,573,219,221
-106,-80,113,34,-51,-18
-93,-75,103,127,153,25
-82,-72,91,414,405,300
-20,-94,-79,-3538,5152,-4993
87,-123,-103,561,3965,-4644
-41,-18,-42,-1166,2896,-6275
20,-112,52,-2978,1266,-7535
-21,-63,-116,-426,3270,-5580
116,45,71,2564,3839,-5680
-81,-26,78,2104,3333,-4751
70,-71,95,2304,4032,-1886
-108,-105,-108,275,2544,150
106,22,-37,1080,718,1939
17,53,-96,1262,-719,1266
-28,-120,-27,-1229,-1520,-141
-48,-69,-74,435,835,2037
78,-59,-35,-302,-576,2439
-52,6,-44,-1379,-1272,3795
-44,50,-52,-1815,-3349,4593
-18,-65,-98,-581,-3269,5630
-57,10,105,2772,-3178,7172
76,76,83,1118,-2912,6095
-38,65,24,-1542,-5137,2713
-66,30,87,2867,-3610,3466
-50,81,8,2641,-1550,3733
-31,-62,65,971,-1185,785
111,0,-56,-390,-119,-1137
-10,-101,24,718,1505,-268
72,102,-70,-706,119,116
50,-81,27,2434,1360,1485
38,-110,-79,909,127,52
74,-119,-66,-519,-461,-683
111,89,-118,-89,-358,-492
-115,90,126,399,377,72
-95,97,-122,185,556,203
-93,114,126,-242,196,71
-90,-98,89,174,545,350
-77,-93,62,258,511,495
-105,-56,67,604,581,570
-120,-58,76,231,149,126
-104,-56,88,-57,-167,-6
-105,-63,55,735,435,218
-103,-77,107,121,-187,-14
126,14,70,-6616,-1505,-4098
85,-86,127,2198,6935,2514
-97,89,93,-1193,5124,-1414
-82,-79,116,-1430,4619,-3203
-50,-110,-66,-1300,4113,-5080
51,33,-113,-503,3691,-5860
51,61,66,1157,4202,-6966
-126,-97,61,3163,3879,-5500
-5,-62,74,1473,3377,-3747
8,-109,41,4353,4151,1812
-37,-29,8,-1386,-11,424
39,-128,-32,-821,-679,1137
-89,-25,106,133,-659,376
30,7,-127,-114,148,352
-68,-81,-98,542,-60,1382
48,-84,10,-1661,-1288,1702
-50,-21,-72,-1069,-1940,3508
-28,76,-53,-709,-2374,4849
-63,107,40,-2645,-5116,3419
-27,-38,-100,2972,-3950,6002
-120,99,-79,1481,-2697,6178
52,-1,-50,1169,-3412,2901
99,34,-77,2162,-1873,4018
69,-51,-63,-385,-4670,500
100,-79,61,3884,-942,2739
-60,12,17,-555,-1849,-527
-34,-59,84,331,612,-777
29,-128,-34,1189,1552,68
37,106,-101,1785,1419,759
23,84,-33,-12,-163,-208
79,97,-63,86,298,-169
123,96,-76,-147,396,-271
-94,107,-115,53,767,-30
-85,116,107,-6,540,37
-82,-120,101,-181,409,24
-68,-105,74,-224,202,137
-73,-80,59,473,482,500
-92,-64,89,77,213,136
-94,-45,80,257,255,137
-94,-43,102,-45,-43,-66
34,21,103,1307,7382,-2301
-46,-93,-91,-4694,1680,-8388
-84,26,-110,1115,5614,-6441
-65,78,55,-2284,1335,-8693
-111,-19,98,-4936,1064,-8649
-118,71,57,3931,7847,-616
-55,19,-4,4039,3800,1168
-21,89,74,811,662,922
-17,57,30,-86,74,1116
77,112,-53,-1099,-1467,470
-55,-48,-93,782,-154,2668
65,-18,38,-1664,-1900,2315
-24,94,-76,-155,-1573,4535
-33,-124,-68,-1041,-3826,4446
-22,-22,-110,-394,-6144,4615
-36,119,-115,6223,-2129,6590
-81,83,14,-887,-5218,3568
-25,115,-92,2479,-5071,2257
97,124,-17,5126,-2730,3827
114,63,-87,2382,-810,2854
30,20,71,-343,-12,-1535
-47,-76,50,2312,3058,281
-38,-105,-3,1300,2177,208
-44,-120,-8,-513,158,-811
39,107,-35,-1902,-655,-1504
-94,101,80,567,1124,-4
-64,81,95,1173,1322,292
-68,110,-89,-343,284,-370
-42,124,-116,-661,129,-411
-26,-112,62,286,637,181
-62,-85,91,8,343,164
-82,-62,109,-219,-41,-66
-85,-43,81,358,277,197
-88,-42,97,338,100,134
-98,-44,104,492,186,158
-95,-50,-125,123,-154,-88
-81,-45,114,534,283,230
-89,-58,-114,67,-131,-26
-80,-57,-127,294,83,123
-76,-55,-117,274,214,210
-41,-30,-90,-1365,4798,-5101
78,-18,-48,-1776,3759,-6791
-119,-92,-82,2034,4658,-6944
-90,91,25,-4366,424,-9957
-72,-111,-6,-2244,2376,-7604
49,31,4,5036,6628,1367
-88,-86,-36,3296,2761,2995
59,75,56,1745,1361,3028
-123,-100,87,-2427,-2193,-1023
7,-9,-91,726,213,1136
-91,-43,-10,-497,-473,1209
-111,-45,-20,-902,-1058,2451
-26,11,-48,-1167,-2257,3814
1,116,-61,-1168,-3647,4289
84,-74,123,1086,-6202,4851
105,-81,97,7643,655,9789
122,-124,87,-1156,-4132,4685
-128,-113,-25,-1745,-7930,2044
33,-111,123,5629,-3035,3814
104,107,-119,2469,-1031,2950
27,-35,122,-3137,-1917,-4206
5,-127,29,1018,2464,-141
79,81,-128,1847,3237,1260
9,122,99,2478,1412,2082
-32,-122,9,-952,-1014,-1029
75,121,-74,-1171,-362,-1240
-66,75,22,464,677,119
-109,91,69,1420,1124,609
-124,95,-82,-775,-407,-484
-82,124,81,345,609,158
-91,126,92,128,411,199
-107,-100,100,1,267,134
-104,-79,87,-1,322,122
-110,-72,77,369,405,125
-99,-77,88,73,96,43
-94,-74,80,140,35,42
-94,-64,84,403,342,115
-77,-77,95,94,-1,48
-81,-62,81,400,361,143
-76,-73,100,15,-66,54
-101,6,-95,-2220,4583,-3684
-57,-107,-34,-678,4377,-4604
-79,23,-54,-231,3652,-5108
107,26,54,786,2830,-5945
-113,116,-124,425,1989,-5305
-12,-121,-115,5398,6210,-1562
48,68,-101,1960,1579,-2190
105,-74,-92,-445,1067,173
1,95,3,247,16,1160
-35,110,-88,407,-426,578
-73,-63,-13,-664,-354,-240
-26,-85,-29,-590,201,1268
-97,-75,-5,-729,-717,2699
14,4,28,-1930,-2042,3717
89,113,-54,-1228,-3129,5000
117,-46,-55,-64,-4890,6053
104,83,-46,2764,-3533,7716
-59,3,-24,290,-3982,6890
106,-3,-26,1418,-3272,3923
125,97,46,-928,-6634,970
-115,49,-48,4028,-2074,2990
-77,126,18,1601,-407,54
-114,-71,121,1557,1871,-861
7,73,20,-302,813,-417
18,113,-108,2853,1634,1716
-28,101,56,522,655,-444
98,52,10,-2838,-1056,-1979
-62,79,26,1756,1802,968
-112,54,-105,-35,496,-64
-107,115,-119,-1213,-105,-465
-78,-118,43,385,733,211
-106,-88,97,297,425,-157
-78,-93,58,744,761,274
-93,-99,87,-253,-153,-107
-94,-70,64,469,190,212
-97,-75,117,-178,-152,-211
-75,-79,92,170,126,70
-77,-80,98,235,184,159
-86,-69,91,441,278,258
-83,-65,111,-35,28,82
10,76,-56,-2312,-5623,3987
106,73,74,3012,-4188,6078
75,-52,31,3765,-1735,7844
-61,-38,68,281,-4357,4072
84,-73,79,-2027,-5647,1347
96,19,40,5128,-3478,938
-98,-38,-74,8295,1593,5575
59,4,-27,-7110,-5344,-2997
-82,-33,17,2741,2458,558
-27,-61,-32,4872,4572,2337
-70,73,112,-3925,-1411,-2338
49,-94,55,424,657,288
103,126,23,2269,1836,502
-120,91,-70,-579,55,-802
-63,85,67,67,336,-396
-74,102,91,81,156,-128
-85,125,112,-429,-119,-331
-75,-122,78,375,343,168
-87,-112,94,332,312,295
-107,-86,119,-14,90,103
-106,-66,94,213,289,154
-104,-57,123,-210,13,-35
-97,-47,71,775,608,370
-102,-57,126,-238,-50,-150
-72,-61,75,322,320,214
-77,-51,97,171,252,117
-67,-63,98,-77,52,91
-73,-49,58,549,459,378
-83,-47,87,31,-148,136
-73,-36,61,701,402,473
-84,-29,87,384,181,234
-79,-35,103,135,-33,82
-79,-29,90,310,254,147
-73,-43,86,524,211,241
-69,-40,96,426,290,216
-65,-46,111,103,48,95
-61,-39,92,358,318,178
-55,-40,92,277,222,221
-57,-35,100,-11,16,41
-49,-29,77,342,242,214
60,-16,-115,1635,7974,-3014
108,41,-44,-5700,2492,-8896
9,-27,-93,-457,3175,-6355
-13,73,95,-2042,2240,-6616
-65,119,23,1216,3681,-5403
68,108,-2,3807,6438,-1521
35,-58,-106,2779,3655,-733
-93,-127,-31,-1023,-2,-489
-89,126,-32,739,515,1065
15,-118,-31,-75,-580,137
69,-96,-49,-278,-420,880
64,-91,-13,-732,-910,2273
-47,-2,-11,-799,-1295,3916
13,108,-66,-677,-2625,4924
32,-96,-102,300,-4052,6164
57,27,-92,2089,-3577,7493
104,-123,126,1743,-1972,6203
2,-50,67,-3317,-6585,3371
-110,23,-35,4292,-2988,2654
-35,103,-16,3583,-1765,4689
-37,-41,-102,-1321,-4522,-380
-109,24,-87,1188,266,-668
-43,-115,110,702,1322,-95
-17,77,-38,2146,2135,657
-9,106,36,420,927,-274
103,92,11,-2842,-467,-1894
-84,108,85,-1232,208,-507
-62,-119,-48,1963,2059,1134
-110,127,126,-749,-340,-265
-90,-92,48,56,187,149
-93,-73,52,442,266,336
-118,-70,75,174,-85,75
-110,-65,82,204,-77,107
-116,-57,86,691,337,259
-115,-74,124,-77,-151,-80
-101,-66,82,824,454,358
-113,-76,-116,-153,-154,-126
-87,-77,89,624,371,366
-110,-65,-120,-109,61,-19
-85,-72,96,271,299,238
29,2,108,-1427,5776,-3158
108,107,-113,-1599,5278,-4046
102,44,-43,-1046,4165,-5572
77,-124,62,-3829,746,-7189
-74,100,-6,1742,5302,-3787
68,-115,22,4941,4813,-5746
-89,9,10,-1825,1520,-5401
30,-72,27,1372,3354,433
70,-112,-17,3637,3443,3152
59,-23,83,-2797,-2307,-503
-128,-70,38,1699,83,1042
-51,-81,-18,-957,-368,-347
-48,-104,-35,773,432,1479
-110,-107,75,-1796,-947,2549
-29,4,-20,-1208,-1468,3804
-35,127,-60,-100,-1759,5342
-78,122,11,-2848,-5449,3229
-58,-25,-77,772,-5534,4454
-79,36,60,4285,-3822,5972
45,74,51,-1044,-5231,2943
-125,-88,99,1667,-5987,348
-127,-87,123,8244,75,6944
59,-119,-74,982,-2008,3338
-36,35,73,-1236,-1441,-3393
-22,-85,75,2152,2945,216
-19,65,53,146,893,105
9,72,-115,1301,1108,619
34,102,-16,-57,372,-342
103,106,-57,-186,617,-565
-71,58,123,-486,479,-549
-78,99,83,29,538,52
-79,111,79,95,332,117
-92,-107,95,-291,-86,-29
-89,-100,77,161,38,157
-97,-85,73,525,324,339
-113,-74,114,156,22,125
-124,-69,127,-134,-140,-178
-99,-68,95,480,373,218
-94,-82,100,650,431,297
-98,-86,-110,-114,-45,-49
-57,5,122,1720,4835,-4902
57,83,93,-3573,1706,-7467
-43,76,-35,2375,5037,-4853
46,-52,-63,-1356,603,-9051
-45,111,8,-1363,2321,-5512
-127,-17,-13,-119,2925,-1066
108,-23,-74,3978,3051,2799
-50,67,20,-45,-58,1095
-25,-104,27,-1383,-1214,-191
-63,-3,-2,-1415,-936,1290
-29,-44,-9,-2093,-2958,2249
110,-91,108,427,-3212,4874
113,-39,99,-33,-6242,4891
94,-115,44,5077,-4254,7350
34,-14,-74,4153,-353,7969
-93,47,103,118,-6447,4062
-120,-25,61,1500,-2621,2370
43,-50,11,1010,-4561,439
-26,69,-48,2457,521,541
-35,-64,-118,659,1884,-203
-6,109,-53,-877,681,-247
8,-103,71,2493,1233,1490
12,96,-47,-198,-789,-504
66,122,-66,148,103,-302
105,95,-95,-513,104,-604
-93,89,77,829,1098,253
-108,95,122,-155,266,-20
-93,105,87,-240,129,-73
-83,-124,56,207,370,293
-92,-102,56,94,256,294
-105,-83,63,-2,251,161
-107,-66,51,288,301,254
-110,-56,48,456,334,252
-114,-63,82,32,-6,-44
-94,-68,63,263,291,132
-92,-69,55,447,296,163
-94,-73,83,223,161,54
-84,-79,86,87,51,-23
-72,-70,70,341,340,178
-80,-74,76,133,136,153
13,10,-128,-3495,3461,-3399
119,80,58,4512,10237,-1994
13,19,-66,-8563,-1139,-11731
-67,-120,-106,-293,6192,-5006
86,50,44,-3944,1313,-8210
-113,-13,111,-937,4419,-3387
-90,-104,24,6648,6580,3150
-37,-109,102,2090,1478,2179
127,48,-97,-1611,-1877,-734
-128,4,-32,743,194,153
-49,-32,-50,836,670,416
45,-62,4,-82,208,283
-93,-91,0,41,-105,997
39,-62,35,-797,-714,1716
-1,-37,41,-2166,-2212,2711
80,61,-32,-2675,-4653,3895
122,-64,-118,-939,-7313,3973
-22,-26,13,7008,-3760,7778
-114,107,-123,5466,-646,8424
-90,-102,110,-2703,-7691,3785
117,-120,24,-39,-7317,-2007
-90,9,1,9704,574,4063
-107,-1,-7,-3891,-3371,-1941
-60,124,104,-561,1640,-1024
-7,-77,100,5742,5486,3444
123,88,65,-900,-545,-378
5,78,127,90,155,-504
79,92,99,1663,1730,479
82,28,-47,-1765,-1200,-1402
-70,56,30,1168,970,500
-106,46,126,-268,-143,-91
-118,92,85,399,418,196
-123,99,95,80,181,68
-116,119,79,296,294,170
-115,-123,72,249,357,239
-123,-113,83,114,145,97
-114,-110,76,34,29,87
-110,-101,57,376,358,218
-102,-99,59,341,310,208
-106,-99,70,66,98,54
-41,65,-86,4786,7382,2144
47,86,89,-7337,-1360,-8584
79,42,23,2115,4595,-6104
77,-23,-107,-3784,3251,-10404
-111,68,-72,-2148,3851,-9745
-105,114,49,-7640,1060,-8792
17,-47,-3,-4667,3701,-3051
-125,98,42,3278,4603,3594
114,-17,96,8074,4541,5553
36,-63,-49,2263,1228,1793
-100,18,92,-3953,-4423,-2012
-124,-22,47,1901,1658,2396
-124,-92,-22,-2599,-3012,1324
48,45,-114,-3930,-6690,2360
116,42,-61,2401,-6213,3941
34,-87,48,8453,-3759,9557
96,5,-56,7059,2399,10209
64,-103,109,-2125,-7863,3831
32,74,35,-887,-7055,2387
-57,107,-21,8158,872,6938
-34,109,-37,-2216,-3334,-818
47,-6,-114,-3803,55,-4447
63,-73,112,162,3034,980
-19,-10,11,4435,3172,3152
-47,-126,-23,-501,-931,-867
77,-111,60,2190,2306,143
125,57,-93,327,653,-195
-119,73,-107,-222,-270,-81
-104,91,123,-290,-67,-160
-85,114,95,51,255,314
-110,-126,82,145,301,64
-88,-118,65,316,516,564
114,-78,101,-203,-38,130
127,-67,76,-315,-184,-38
-117,-56,44,511,475,331
-112,-53,62,449,424,309
-113,-66,84,263,191,33
-76,-80,52,758,536,494
-102,-74,69,292,297,168
-96,-71,98,-217,-255,-50
50,-124,-68,746,5751,-6347
127,-79,-24,-1166,3689,-7602
6,-10,125,-6102,1316,-7105
-56,8,86,-5697,2331,-4513
86,82,-93,4156,6297,2622
-30,44,25,4874,3387,4135
-107,97,-81,4629,1861,3094
82,63,-19,-4658,-3948,-2898
38,-12,-94,1165,1828,1831
120,-90,-28,-220,-385,561
-39,-99,2,-1838,-2368,1703
-108,-31,-52,-1732,-4153,3566
33,-114,111,986,-4462,5641
100,-73,-75,4694,-2140,9248
-110,0,10,1185,-3104,7750
-119,-92,108,-51,-4417,4758
-119,17,45,-1101,-4714,3542
77,-65,6,778,-5413,1915
-37,60,-28,4264,100,2796
15,68,89,-1410,200,-1372
-127,-66,82,-3131,-1786,-2149
-44,-103,108,-477,-1082,-837
28,-82,52,3784,2354,1616
12,-123,7,-1284,-440,-748
85,116,-127,-1876,-765,-610
123,-128,38,168,982,887
92,-112,-125,-1703,-495,-244
105,-62,41,-90,288,361
109,-61,41,537,647,522
113,-56,73,172,278,441
104,-37,31,1328,1093,510
116,-46,99,324,170,68
-124,-51,100,-49,340,-29
-113,-51,41,1010,765,302
-111,-57,96,339,221,86
-115,-56,90,63,0,-149
-91,-59,60,421,363,301
-97,-52,78,81,88,233
-90,-51,62,351,263,290
-100,-48,91,-148,-53,66
-120,-13,23,-2553,2437,-5543
-82,18,116,232,4179,-6209
32,56,-49,67,4488,-7612
-44,-108,119,-725,2913,-8191
22,-107,-98,-2884,2276,-7088
78,69,33,1415,4455,-1614
24,-82,60,4547,3943,2643
-90,-65,95,1460,701,1834
-120,-67,39,-5615,-3682,-1071
-82,-125,-103,2946,2059,1614
-104,-24,89,1277,-126,1455
11,61,20,-994,-1740,2364
-82,-50,-48,-1046,-2435,5139
16,-115,-46,-1128,-4264,6178
95,-60,21,65,-4807,7256
-99,-20,-105,5477,-1016,10630
-96,-104,106,-3448,-7759,3550
104,-6,89,2598,-7779,3926
-12,109,-93,9293,5655,8254
61,31,-110,-10187,-6187,-10048
-95,53,-21,3475,3539,2103
-28,-46,-7,7558,4665,5884
96,83,-117,-2420,-2875,-2631
107,-80,-84,473,607,12
117,48,-80,970,628,-45
-122,37,-63,877,923,328
-109,38,-63,-524,-380,-394
-83,79,-120,298,329,259
-104,99,-108,-318,-13,-105
-112,-115,103,109,320,130
-96,-105,90,266,394,225
-99,-91,96,215,328,115
-92,-94,89,241,248,82
-77,-96,89,204,247,90
-87,-89,110,-29,-191,-99
-79,-83,97,237,156,204
-91,-91,127,-569,-468,-255
-77,-69,56,1101,804,629
-99,-78,-111,-408,-401,-178
-76,-57,75,763,684,484
-57,-44,10,846,3481,-6216
36,-27,-11,-760,2066,-7426
117,0,51,619,3001,-6177
-107,-65,-30,716,3184,-4644
-107,72,-124,2387,3048,-1959
105,104,-98,2623,1923,601
-65,-9,5,1763,1530,2323
105,0,81,-4110,-2717,-549
-60,-89,61,-176,-1062,2143
-34,-54,77,94,-338,4263
-115,47,-110,-1119,-1581,5884
107,-38,-36,-1657,-2254,6814
10,-126,119,-3360,-5672,5206
6,58,97,870,-2512,7076
-92,-94,33,-1396,-4567,5014
-99,-40,81,-149,-6598,669
-15,54,-42,13199,4018,8623
-74,108,-116,-3350,-4047,1040
1,106,-96,-3076,-3605,-2563
12,-40,-106,4357,4297,1535
4,-127,31,299,1395,526
-3,97,-107,-298,-286,-190
37,-127,96,3720,2225,1509
55,58,71,-1519,-1016,-1189
-86,85,-98,-1193,-194,-820
-43,98,52,1646,1824,787
-76,81,-88,-1044,-193,-588
-50,-121,39,472,623,283
-79,-117,110,-2,221,-115
-75,-91,118,-266,124,-186
-71,-82,106,-184,220,-281
-45,-80,50,753,766,350
-71,-85,109,-201,-225,-140
-60,-66,81,399,187,134
-61,-72,118,-187,-188,-117
-57,-56,77,639,476,339
-69,-71,-125,-447,-320,-118
-63,-42,77,477,269,315
-79,-37,102,283,223,161
-81,-27,103,251,254,94
-2,108,38,-2087,2647,-5466
98,-20,43,1199,4528,-5807
-111,-23,96,-247,3574,-7418
-90,38,-26,-1754,1719,-8000
-32,-23,107,-4063,1461,-6430
-17,-71,114,-376,4004,-2203
-64,14,-115,4040,3127,1985
16,-34,97,3112,1012,4577
-98,74,15,-1270,-1012,1898
-103,-23,26,-3990,-4886,1154
77,81,-1,4100,-65,5112
-121,111,-11,-349,-2745,4794
111,-85,22,-961,-4459,4071
95,80,107,1039,-4097,4914
-16,75,16,-2039,-7006,1544
-42,0,-103,655,-6609,-1153
-100,-54,-43,9723,102,2811
101,13,-65,4933,578,3740
19,75,-76,-1106,-4036,-728
-112,-102,-16,7685,644,4497
-40,-82,61,2799,-45,3100
75,-24,27,-1279,-1336,-2128
-44,-114,51,1941,2587,-478
31,60,47,-60,1915,-477
64,37,-38,-857,869,-514
103,56,124,1364,1753,357
-120,76,-17,-428,888,-522
-83,105,-40,-2628,-396,-1146
-67,-86,75,-1551,-332,-644
-51,-81,-7,-1567,-603,-708
16,-76,-87,2719,2470,1825
-48,-89,38,2170,2025,1437
-125,-90,-71,-198,-406,101
-113,-70,-111,-871,-1212,-226
-84,-66,72,332,-248,305
-78,-70,88,813,141,516
-93,-65,119,856,270,502
-104,-74,-99,6,-268,72
-89,-75,122,505,321,277
-87,-80,-128,325,227,208
-92,96,-35,-2969,2145,-5145
76,39,-63,-905,2875,-4859
-60,2,80,-1992,2552,-7051
-41,-116,19,124,4032,-6584
-88,87,32,-1702,3074,-7512
-104,-13,51,-1609,3665,-5190
-125,-25,88,3001,5782,-1535
121,62,-122,3778,3875,1052
-51,-98,55,1598,1696,2153
101,-48,-121,-4019,-2908,-1202
-1,-77,-31,835,-807,1719
104,127,45,975,-5,1241
92,82,-29,-1291,-1948,2097
-110,-31,-37,-2081,-2494,4086
-107,-109,-81,1586,-1462,7123
47,-97,127,-3065,-5337,5326
76,98,46,-500,-6560,4644
-17,41,10,5165,-4521,7491
-113,-107,-48,4785,4086,9071
-25,63,122,-9672,-16697,-3671
-22,94,4,9895,246,-296
79,82,12,7292,6477,5681
45,84,121,-5624,-3514,-3569
-46,-35,-125,4345,3061,2573
-89,-45,-47,4175,2952,2459
-128,64,114,-2099,-1470,-1967
31,104,-98,1606,1847,9
-125,-9,-40,-1449,-158,-1400
-85,30,75,669,923,253
-76,37,108,126,407,4
-62,75,88,-133,3,-82
-99,97,93,-372,-154,-159
-111,-127,69,-216,-97,-154
-128,-96,52,335,190,64
114,-97,77,25,-200,-327
-108,-76,78,256,245,-52
-100,-76,97,130,-44,-265
-109,-88,62,547,497,32
-108,-91,99,-236,-161,-261
-82,-53,82,53,175,-129
-125,-78,-26,690,3997,-5824
-51,-82,90,-1979,2086,-6551
-5,15,56,-1242,2835,-7500
0,-43,18,-2275,2175,-8256
70,71,106,-2563,2780,-6401
57,-56,118,4107,6973,-1327
61,76,95,-2838,-92,-4184
-127,-120,75,-3211,-488,-535
-115,-74,125,7634,4593,5591
93,55,-52,1826,977,2323
-103,32,64,-4668,-3445,-1990
7,-91,80,862,393,2942
47,-73,-26,-2599,-2791,2813
116,-125,101,415,-2789,6020
123,-41,-112,868,-4051,6649
49,-99,-1,739,-2798,8187
121,-67,34,1972,-5259,6083
90,-125,-35,1491,-4313,5564
127,-39,-9,-327,-6075,451
-87,-33,-60,6048,1238,5873
51,-65,-75,-2907,-4073,-1899
-66,12,45,2173,2171,782
-61,-95,25,1882,2358,957
-49,-117,14,-142,450,169
-12,-89,-72,-311,-288,70
12,-66,-98,1260,1015,490
40,-110,-30,-485,0,-468
86,-96,-102,171,892,-148
118,-107,-87,-767,327,-585
-82,-93,87,-4,753,-22
-67,-87,68,81,389,70
-75,-71,104,-282,92,-153
-58,-42,77,171,460,50
-68,-43,105,-269,-63,-138
-77,-27,83,123,272,-4
-84,-38,94,115,73,52
-90,-37,96,62,-120,91
-96,-31,88,433,103,279
-106,-36,126,-104,-353,121
-94,-19,95,825,379,550
14,117,65,-2108,3288,-5420
41,52,-126,535,4651,-6383
88,-70,-111,-1684,3478,-8256
-26,-93,-100,-2184,3468,-6392
-52,-102,0,752,4833,-3086
-75,44,-107,829,2853,-1369
100,112,50,2006,1988,1656
93,54,90,3477,1970,3761
-120,10,56,-3397,-2935,-1457
-66,-23,66,1236,1123,1434
-10,-72,-89,33,-4,162
0,-118,-59,-950,-1053,553
-12,-120,-65,-966,-1890,2913
119,-54,-98,-1454,-3363,4106
-30,-103,111,1459,-2939,7218
-95,-48,-33,1271,-3835,6975
48,-73,36,1812,-2386,7940
-92,57,10,-2157,-3961,4526
-9,-2,-123,-1990,-8044,849
6,43,3,9885,-502,4925
-34,12,-120,4708,1747,6065
114,90,-124,-11304,-9227,-6624
-39,-7,-127,1628,2598,-27
-19,-80,104,8185,6642,4655
113,123,-117,-1582,-319,-895
-44,-109,-3,-1785,-804,-1241
88,-99,119,590,1206,127
106,113,-86,-595,581,-665
-97,105,102,-388,563,-387
-79,127,71,-161,440,-466
-96,-87,120,-1477,-591,-912
-117,-47,94,-1735,-597,-1009
-94,-7,41,846,967,437
107,-21,-127,-1067,-887,-639
109,20,78,-297,-270,-39
109,21,81,-80,-158,-72
100,27,113,-376,-467,-32
105,27,111,-463,-272,184
-124,40,115,-650,323,1274
89,15,-119,-717,-611,-394
6,63,-37,-2047,2975,-8516
-34,-1,-99,-1353,3834,-7441
-51,15,30,-1319,3572,-6800
-44,-90,109,-3492,2502,-5592
-27,-10,79,2157,5397,47
-41,108,-126,2489,2563,2371
-82,71,2,1092,636,3616
-22,120,-4,-1491,-1448,229
31,-33,-116,-1096,-2303,14
7,-42,124,-108,-1404,3662
-38,21,118,455,-2383,5885
-97,-6,-70,-138,-4081,7668
77,25,28,701,-3870,9348
-26,110,22,5306,5295,12256
-101,-68,-126,-12023,-17340,-6154
71,109,84,9127,-601,2504
51,88,42,5053,1047,8158
74,-116,125,-4981,-7114,-2425
-83,119,-18,4965,3668,733
1,-64,74,2256,3017,408
8,96,-6,-2022,-1495,-431
-5,-119,66,1923,758,1032
35,95,-50,1180,452,371
70,112,-56,537,826,-159
118,64,-69,-150,64,-405
-82,61,100,917,945,544
-113,74,-87,-642,-220,-319
-71,99,68,681,865,451
-87,120,-116,-699,-324,-165
-74,-112,48,499,609,358
-91,-109,92,-330,-159,-43
-87,-82,38,532,493,361
-96,-100,101,-330,-316,-97
-70,-79,34,824,708,530
-87,-86,98,-120,-112,28
-67,-84,43,708,418,391
-73,-99,87,-128,-322,63
-49,-94,23,858,322,626
-75,-94,90,213,-191,385
-76,-83,77,444,87,415
110,83,-127,-3267,2094,-6536
99,29,64,280,4243,-7509
-67,-48,77,1306,3818,-7807
-43,92,47,-3240,619,-9370
5,81,-5,-2992,2965,-6249
11,12,4,1371,4472,-1366
-50,-10,-124,4580,4654,2952
76,56,-101,3890,2209,4350
-76,-20,73,-4637,-3572,-2386
-88,-52,-1,2766,1597,1659
0,106,-82,-520,-42,19
-56,-116,-77,-258,-372,1001
-60,88,-30,-1885,-1352,2098
-82,-60,-122,-1420,-2215,4840
-2,-125,127,-1081,-3290,7162
-66,-117,-72,215,-2841,8234
29,-98,38,-2985,-4105,5562
109,4,-63,-2102,-6704,1267
112,3,11,4047,-2089,3959
-81,-8,120,3430,-2902,3998
-120,104,24,1068,-2779,3607
90,-35,27,306,-2488,-156
-106,21,-85,1498,1799,-655
17,-115,36,68,1782,-171
-13,-118,111,957,683,761
1,97,-101,126,-425,-265
82,-114,118,1382,1436,559
103,103,-56,-1039,-576,-856
-81,98,58,550,715,298
-110,113,79,292,435,214
-115,-123,90,-208,17,-11
-99,-106,59,263,349,329
-121,-82,81,-47,-28,58
-107,-72,53,570,582,407
-120,-75,92,-94,-45,-33
-93,-76,40,697,538,413
-102,-73,86,55,203,103
-84,-80,59,346,219,226
-105,-69,84,-137,-142,-69
-78,-65,31,815,644,484
-93,95,-99,-1644,3431,-7772
77,49,-82,861,4679,-7986
-10,-65,104,-3728,1542,-9893
10,-58,79,-4515,2106,-7573
29,-8,-76,3333,6906,-179
-73,15,-66,7982,5165,4789
70,-78,-81,3105,1513,2592
-62,-76,104,-6188,-3835,-2290
22,-61,-14,2829,2272,2736
14,118,-36,-1114,-635,-14
-8,-109,-91,-74,100,1752
76,-126,-10,-2928,-1296,3302
-91,41,-87,-2922,-2754,4809
4,78,56,536,-2011,8237
-61,-126,-21,1095,-2529,8190
79,94,107,1670,629,9553
-72,-73,75,-4191,-5518,4657
-17,-120,-61,-1430,-8499,2953
68,99,-72,9180,-753,5108
31,-17,-19,-7353,-4073,-4001
-52,28,117,-5793,-2057,-2810
90,32,32,8203,7163,6217
16,-65,-62,4444,2518,1730
-102,87,-46,-3285,-3185,-2766
91,-106,-128,-272,746,-517
113,39,70,1317,1026,136
122,68,-102,390,686,78
-88,80,114,-707,-285,-727
-52,111,45,595,1000,418
-74,113,86,-30,639,125
-99,-117,103,-934,-471,-178
-97,-68,34,518,283,242
-110,-72,52,567,110,236
116,-80,79,-499,-844,-402
-122,-75,57,244,131,90
125,-72,62,57,-10,76
-97,-44,67,461,380,238
-58,-19,107,238,395,345
-122,-37,80,436,437,-42
-92,-91,-119,-403,-55,-199
