AccX,AccY,AccZ,GyroX,GyroY,GyroZ
21,73,24,5418,13115,5397
-24,53,97,8801,15525,3163
83,-38,89,-6316,6912,-6211
52,-36,22,-8132,2843,-7407
-50,-105,30,-12928,-5431,-5755
43,97,96,-9532,-386,-2966
-78,-101,-48,3989,-1286,-287
-74,-128,5,13853,-281,1341
-47,7,8,6672,-6346,-503
72,54,96,19036,23338,26321
125,-57,-87,-29328,-10541,-19089
-4,-118,47,10865,9169,-291
-66,59,95,-19900,-16204,-14122
-72,15,19,-2069,-266,-11049
-83,11,87,25757,11324,16556
4,20,-55,12819,15465,16138
-98,-33,30,-19065,-8688,-16445
15,63,40,18393,5534,-7021
-121,96,-70,-8579,2926,-15057
-101,-18,38,-6887,3259,-9364
32,125,-106,-15582,2386,-1204
-51,7,13,10355,2514,2526
-46,-36,98,16590,-13,2661
-99,-128,10,7963,2951,4731
65,64,-96,12132,-4376,9865
-83,-93,-90,-6404,953,-8875
-96,-5,-58,-1330,-831,-3856
76,-45,51,-13949,-10783,-3470
-15,-41,-11,-6837,-3620,-5449
-84,-45,-3,20826,-3338,2697
-117,73,46,23376,4793,12089
-98,-45,-31,-13301,-8918,7359
75,-68,-71,-581,-9988,1183
74,-58,32,583,-2701,-1241
8,18,-1,-1437,-3414,529
-112,123,-58,9361,7106,5070
-84,-55,0,-3720,-280,-3998
-67,106,50,-10971,-4805,-4921
63,-67,113,65,989,47
47,-113,23,5651,3278,3150
75,-61,-76,3615,6189,914
-15,106,-86,10926,17286,6266
-119,-15,68,-8968,2040,-10963
72,-128,24,-3144,5433,-7024
85,13,39,-10191,541,-8249
-83,45,-101,-18312,-7804,-6269
-108,-126,-103,-5043,-3598,-3308
-68,36,-105,21940,4567,3339
75,-95,29,8050,-5451,1647
-33,-25,9,18200,15741,20704
-98,-70,63,29210,-4351,-13232
114,57,-70,20470,10208,-1164
-59,-48,-122,-18139,-11149,-17603
-82,49,-57,22914,-5161,-12010
9,42,29,-19610,15170,15443
7,-1,-20,14969,-599,6767
114,-78,106,-29727,-5873,-6881
90,-113,-81,25155,11132,-3332
7,69,74,-11661,-5303,-22607
73,116,57,-3055,9007,-10982
-2,-81,-60,-18038,-8,-2296
-96,72,-106,2311,-239,-1785
-41,-85,12,16976,1798,5260
-118,-81,-5,16880,9546,8601
-37,72,107,408,-8902,8902
-81,-66,-61,-4201,4696,-7112
-66,62,-113,123,20,-4144
-7,73,124,-7943,-6751,-3143
-95,-1,-37,-11365,-10218,-2671
65,127,-101,7366,-4168,-4203
-57,-57,-96,17969,-4262,3974
115,52,-122,17177,9065,15597
-5,-108,-60,-8800,-9318,4812
-27,-84,121,-2364,-6304,-918
-76,102,-47,745,-4796,1988
33,83,-83,1068,-2916,1600
-125,104,19,6968,4521,3014
-49,-15,-39,-2671,-402,-2687
-105,93,60,-9076,-3982,-3580
22,-105,-8,-2395,-101,-858
23,-57,-52,6740,4303,3635
-55,101,86,-1341,-226,-1097
41,-76,-26,-2743,-901,-1443
81,-70,-124,119,753,-60
73,-90,-100,-344,430,-30
56,-101,-103,-23,136,-179
66,-89,-66,-982,-579,-433
93,-55,-104,-199,27,-148
92,-61,-67,-712,-222,-339
110,-55,-114,-4,229,-19
93,-49,-100,-335,-99,-165
90,-52,-77,-507,-464,-350
104,-42,-93,-73,-90,-125
102,-39,-68,-466,-378,-297
108,-37,-91,-13,-96,-108
107,-40,-75,-345,-184,-204
114,-41,-84,9,31,-49
124,-41,-54,-843,-465,-185
-124,-12,-116,410,520,112
126,-18,-53,-666,-313,-337
-113,-10,-101,-447,-167,-247
-105,-15,-111,-62,87,-61
-105,-24,-89,-616,-417,-284
-92,-2,-126,207,288,131
-96,-16,-91,216,82,55
-100,-25,-57,-1117,-802,-488
-90,2,-125,168,195,88
-95,-10,-85,-287,-175,-128
-92,-4,-96,-256,-134,-95
-102,7,-84,-343,-66,-187
-75,-6,-95,49,154,34
-79,0,-99,-191,6,-133
-70,0,-101,-190,-78,-120
-71,-1,-87,-548,-274,-244
-61,5,-126,215,201,88
-68,-2,-81,-639,-376,-275
-66,14,-120,35,103,0
-74,9,-85,-313,-118,-149
-65,12,-99,-112,9,-57
-67,3,-83,-438,-267,-257
99,-6,90,7101,11514,2355
-25,-56,-43,-4742,2243,-6805
49,79,-86,1065,10099,-4012
-85,81,41,-9286,1203,-11091
-37,86,104,-15434,-3852,-5977
85,36,-86,-11690,-2491,-3833
119,69,51,-2410,-1264,1244
-18,52,-49,19593,1144,-572
-32,113,-63,7553,-5363,2823
78,41,92,26764,23346,27669
-114,-11,-31,-29250,-10382,-22439
9,92,56,10013,8891,-1430
-26,-88,108,-27206,-19112,-17474
-117,-89,-51,-92,2063,-8471
20,-119,-56,29950,8652,20811
79,66,-33,11210,7188,9738
124,-16,-52,-20739,-5689,-12710
115,-95,-36,19097,6184,-7649
-39,22,-41,-11922,2120,-17354
52,31,-58,-10335,4694,-9165
81,-8,19,-20205,2146,-397
-97,-58,21,18372,-1056,2853
27,7,-26,28336,1295,7089
72,65,-123,4870,6186,16809
-54,123,43,-15880,-9960,-11669
-17,-104,-86,2301,3855,-3879
89,-90,75,-2541,-467,-3178
-128,-123,-8,-13426,-10861,-4052
-33,118,14,-1509,-4213,-3717
5,-99,77,20064,-5992,2162
-70,58,10,16746,-762,7829
-118,76,-39,11561,8634,20907
93,-46,41,-16355,-16870,-11619
3,-12,-37,7419,720,3460
-80,15,37,2725,-29,4103
-122,-123,-86,-682,-1084,1401
2,30,-26,658,2143,-1308
-97,-119,-62,-4513,-859,-2735
3,-106,-26,-3621,-618,-1402
72,-88,-3,2467,3151,1432
127,-53,24,6411,10101,2715
-17,-58,-5,10125,14199,568
86,30,-128,-3833,5159,-11078
-89,-77,48,-6363,1581,-12613
106,-95,-35,-12815,-967,-10553
80,39,77,-29732,-13537,-8682
66,-89,96,31168,11513,8013
87,79,1,4198,-7304,-2663
-66,-15,-126,11179,-7412,-2036
59,75,17,-30074,-22450,-15743
-103,122,76,-26229,-19093,30979
-27,87,49,7098,9570,2662
119,54,16,-25683,-15795,-8735
26,81,42,10166,684,-6135
-49,0,-17,31084,9479,14153
-18,95,120,25833,-5171,-16780
-16,93,69,23056,18497,-1018
111,81,4,-4448,-7059,-22365
25,61,-20,-25887,-7701,-9935
62,23,-97,-710,3030,3321
-50,3,0,26437,5132,11724
-97,-36,58,8326,3482,2954
30,-1,75,1056,771,9762
64,-4,-98,-13949,-2898,-12585
-11,-76,-53,7464,5411,-968
11,27,48,-9544,-7676,-5503
55,-18,100,-12512,-6429,-4599
-43,117,-41,6389,-4340,-274
69,-36,-108,14956,-4990,2864
-44,-91,100,16472,1060,9625
105,93,16,6420,9440,18039
-25,-95,49,-13093,-19617,-5011
77,53,1,-982,-3383,-1330
-126,11,112,1231,-5395,-10
-8,-36,-116,14663,8621,8605
31,-22,-30,2093,2172,186
-74,-123,-29,-12115,-7351,-7706
-10,-36,49,-5298,-1762,-1701
65,-60,-92,6608,4353,3440
-25,123,79,-410,607,-263
71,-36,-59,4918,9056,924
105,-111,-44,7106,15799,3989
83,-75,76,-2207,6688,-7422
-45,-33,120,-5097,1786,-10927
22,-128,-31,-6965,2275,-7867
-126,-108,-104,-24697,-16054,-11957
-109,-69,104,15521,7363,4995
49,44,63,20756,-15,8467
-60,-21,-116,-1025,-10806,-4732
-119,124,-118,-25500,-26161,-18858
-30,124,42,-20457,-14804,-30147
56,103,11,984,3440,-3091
-45,97,27,25860,-24650,-12932
53,89,-76,-18509,4526,3769
68,-20,60,20554,6777,17558
61,2,51,-30144,-3203,-8931
-115,-2,92,19150,11364,-2916
-1,-123,112,-6660,-3156,-21321
-49,-114,-20,-7604,4654,-14174
-126,-125,79,-16439,1027,-1847
-28,-47,-40,10997,3360,7402
-81,49,117,16418,-133,2468
36,74,124,14797,6063,8364
42,-7,1,-1860,-6690,2540
-85,-121,-93,-5299,1381,-7134
-2,-123,-24,-235,225,-2679
-33,-85,42,-12976,-9363,-2625
64,112,-75,-9656,-3175,-5295
-117,-53,48,14627,-6237,-1763
-4,65,17,24798,-3565,4162
102,-16,-124,12579,11857,23418
-76,-8,58,-17394,-17781,-8330
-13,112,68,2779,-5440,979
-95,-56,-90,8082,3506,6072
-116,118,25,-84,67,142
-94,20,91,-2158,-505,-2273
-62,123,-112,-4730,-2596,-1889
-88,-100,-78,-1771,-440,-1046
-21,-58,108,4574,2729,2360
-24,-83,-98,-2087,-368,-807
94,-52,55,3975,9187,5500
109,19,-43,6534,10599,2527
-63,-19,119,-2929,3170,-8549
92,-61,74,3345,8535,-5164
-45,93,-124,-16162,-5873,-14982
-45,34,-72,26687,-11630,-21870
109,-78,46,-32159,17856,22943
-59,-101,-79,-2084,-18098,-13811
119,-122,92,15778,-1905,-3531
121,41,-93,-30844,-25413,-21309
35,-95,79,-10133,-13173,-21135
81,36,81,-4592,1924,-4978
24,42,-60,24992,-18829,-17032
42,15,11,-19037,7359,7216
56,-61,6,13992,5922,12922
-48,105,82,-28745,-2802,-14807
-82,-11,120,23434,9300,-4356
116,3,-83,-5800,3982,-15199
-88,-62,76,-9218,1148,-8687
13,-121,-87,-21729,-167,-7959
101,-99,57,24387,6586,6794
-46,-113,17,11618,521,6131
6,-13,-98,7793,4857,7255
40,-114,-19,-19911,-1972,-4157
-88,8,69,15024,8676,798
-55,26,100,-9036,-6525,-9733
-5,31,-19,-11750,-9598,-5768
-59,53,16,-8271,-1978,-5517
90,-124,8,14844,-4561,-168
70,-83,13,24461,-4428,3307
118,2,-46,15497,12663,21524
-113,-67,-84,-24489,-17066,-5138
106,-60,-95,4958,-4586,-678
98,-96,-78,9724,1584,5843
83,46,106,-3904,-3406,-1392
88,-20,39,90,1071,-147
-101,-122,-61,-2085,538,-684
-88,84,58,-1657,-608,-1023
-12,96,-44,1193,1457,449
-28,81,98,-2083,-869,-894
86,8,14,11731,17859,7321
51,-70,65,-9206,1583,-12791
-25,18,28,-971,7187,-6799
-14,73,17,-9016,1588,-10536
71,80,-14,-21353,-11606,-9309
106,-120,-46,-1100,-2344,4259
-25,-91,-36,20581,4346,4216
84,44,124,1616,-9843,-6322
-92,-116,67,20837,5062,7144
-100,-11,-124,-31231,4282,-4063
-83,14,4,14428,8554,-2612
-19,-63,-70,-12604,-5233,-14470
-13,-39,55,22678,-19957,-15074
10,-88,-9,-8212,8328,12654
-53,16,-8,9644,-4142,8090
53,-15,82,9633,8767,15620
1,-28,52,-17799,-7349,-12726
52,-127,-54,20262,8168,-3967
80,106,-101,-9111,2117,-13378
-22,-44,52,2645,6575,-12241
-54,-101,49,-14121,373,-10141
70,77,26,-28763,-139,-5923
-86,-84,63,-30593,7917,16080
62,56,99,13653,865,-419
-49,46,45,-1880,-4028,7028
54,-85,-41,3329,1778,4386
-92,36,-52,-3578,590,-5993
-66,105,74,680,953,-4001
-69,-42,59,-12057,-11107,-4585
-91,-105,72,-11959,-995,-4368
53,-73,-31,14032,-4524,-3127
-106,123,20,21512,-4494,2700
-74,60,107,12858,10790,18951
-59,-5,37,-17779,-17061,-11555
-52,110,42,7543,-622,4049
43,-6,-102,-733,-789,1008
-31,-67,88,-2602,-3686,-1969
104,-114,-127,574,435,263
-64,123,126,-505,38,233
-99,-103,69,-1021,-627,-631
-73,95,39,3101,7421,2214
-123,24,-9,8196,17048,6223
-12,106,50,-8452,1496,-8660
-73,-24,83,745,6941,-4030
72,-21,17,-9739,825,-8803
-66,-27,73,-17981,-8047,-6119
45,-111,62,-4752,-740,-343
-94,-95,-41,10878,434,1759
8,62,38,8790,-4728,-2701
21,-36,0,9740,-5171,-1026
-36,38,72,-30803,-28480,-27154
-20,4,-114,-18927,-17664,-23497
-96,-96,98,4211,8118,2199
-125,-34,-60,-16373,-11220,-8748
-54,-58,39,-20999,-2775,-11639
-123,125,114,32034,2659,10590
92,108,-117,19610,25179,19806
-64,-16,86,-13863,-8601,-16917
49,88,-59,18311,12464,-2133
81,71,14,-18138,-5331,-18582
117,-21,49,-7011,9338,-5246
-55,-15,-24,-10575,5824,3045
63,-94,-85,18065,4272,7763
27,81,53,10067,-4077,-1696
86,39,121,6183,809,5419
-32,-78,-115,18884,7714,16788
-115,123,-88,-11727,-2540,-14099
109,-29,-81,2939,3509,-3100
45,-41,-96,-15587,-11125,-6330
-18,-37,-97,-12962,-3475,-4421
-38,-3,117,10083,-3747,-1356
-110,-68,-113,18256,-6458,-3924
115,9,-89,22058,8042,16040
49,65,85,-13023,-11876,7971
56,125,125,-6637,-13866,-10687
113,111,118,8090,-747,-1181
-112,116,56,19085,12076,15710
-104,-31,-98,-12056,-7219,-6164
-83,-67,91,-10299,-7284,-6419
122,-88,-122,4310,4821,3005
55,-11,103,10051,14718,5157
96,-102,38,-8669,2323,-11234
-54,62,96,581,9241,-7454
-64,15,21,-14468,-4961,-11426
-58,-62,-44,-24036,-13186,-12057
43,6,110,17048,7297,7622
-25,54,83,18237,-3665,825
97,-6,-93,6369,-7083,-1758
67,117,-38,-26088,-9640,15367
95,-69,-107,-17610,3185,-17801
-97,72,26,-7100,-1836,-3357
-109,-12,-70,27361,-8320,-14500
22,-16,124,-17999,9264,12335
2,-67,90,19670,27383,25226
68,-9,67,-15660,-13216,-23515
-59,-29,81,14093,6071,-7570
36,28,44,-12816,1610,-17808
4,92,-23,-19063,-1132,-4607
-68,10,-71,-10713,-1599,3278
-101,-122,-128,26179,4315,7056
-16,91,56,17522,5097,7016
28,60,15,137,1707,12697
-83,-90,58,-12850,-5301,-13834
57,79,-41,9480,8437,-1668
-20,27,14,-13990,-12330,-9168
81,-4,-28,-22863,-7434,-5520
112,12,-106,19005,-1079,-5487
-81,-11,-48,23150,-5713,-1609
-51,-88,-58,15952,7629,19864
-21,21,-10,-13554,-7419,3069
-23,-23,98,-5594,-16854,-4405
17,-32,-13,10923,3425,4652
7,-120,62,2935,4246,5996
37,-33,-34,-4108,-3776,-3978
101,-125,85,-4257,-1212,-2808
-44,-124,-104,744,692,531
-52,114,-58,1712,1472,598
-3,107,80,-2604,-756,-1481
55,-97,-115,-737,500,-263
50,-80,122,408,879,165
2,-62,-44,10446,19774,5629
-84,127,119,-9288,2139,-12399
84,93,41,2118,6875,-6342
-35,-122,50,-11241,-1944,-11353
67,-112,-16,-21521,-12859,-11207
7,-41,106,5812,-510,1476
115,110,87,23826,367,3552
96,-73,-22,6859,-7825,-3747
43,-53,69,-31042,-7217,18333
19,97,70,-13183,3727,-18250
-69,-74,-121,-4418,304,-2309
8,-122,28,25671,-16766,-13290
98,54,-33,-17123,395,1132
49,-43,-127,22041,-23973,-23119
80,106,-84,-20932,-15706,-30245
-84,-27,40,18146,8796,-978
49,-38,-45,-11837,-361,-18087
3,50,90,-5531,8741,-7706
72,-88,46,-12347,2456,106
12,-70,94,6777,1860,1202
34,30,-35,13762,-735,1356
35,109,17,18666,8134,8211
-128,30,64,3663,-5441,7395
78,-55,-67,-7989,1513,-6893
42,-54,1,5076,3544,-3601
67,-2,-109,-11553,-10417,-8281
112,-118,30,-12419,-6708,-4642
-66,-55,37,5507,-1107,-1287
-45,-11,-95,10161,-5751,-685
117,-33,-122,22861,-3714,4669
6,122,-9,15867,15633,23488
111,-114,-81,-21117,-21228,-4678
-124,-102,60,6958,309,2111
90,127,-19,2046,-4752,3113
-97,115,98,5602,373,5267
21,-42,102,-6131,-3143,-3346
39,-42,37,-6685,-2269,-4156
7,94,106,-2343,979,-571
-61,-56,48,8049,5156,4349
92,126,-121,-581,1254,-1251
-34,-89,116,-7427,-3817,-3305
46,44,6,-257,839,179
46,-15,35,1840,1431,772
23,-43,-60,-1466,-835,-652
44,-27,126,-308,-88,-158
31,-35,-125,61,83,60
25,-19,-68,-23,-286,-240
34,-26,-41,-543,-581,-481
46,-50,-68,-492,-344,-295
70,-60,-98,93,125,98
59,-46,-72,-170,-74,53
77,-45,-66,-473,-322,13
106,-10,-91,413,340,445
84,-23,-67,-279,-48,29
75,-44,-102,-1,-4,67
82,-52,-63,-908,-695,-121
107,-21,-106,-76,46,230
123,-29,-95,268,447,315
-117,-50,-82,-435,188,97
-113,-66,-126,-322,94,109
-93,-42,-102,50,-28,277
-94,-40,-68,-711,-347,-40
-104,-53,-117,73,314,260
-99,-45,-78,-609,-243,8
-94,-40,-121,70,159,119
-102,-43,-94,-208,-30,-15
-93,-62,-97,-537,-434,-192
-85,-35,-124,204,214,102
-84,-41,-87,-464,-352,-281
-78,-36,-111,96,67,-67
-89,-53,-76,-814,-543,-427
-73,-26,-117,407,117,50
-76,-36,-71,-757,-511,-445
-74,-25,-91,-446,-295,-279
-74,-8,-99,-330,-117,-234
-82,-12,-98,-360,-145,-333
-71,-7,-109,-394,-198,-289
-71,-16,-105,-543,-345,-348
-69,7,-127,23,117,-54
-72,2,-95,-763,-398,-442
-127,-19,95,6285,10658,2091
-120,38,-106,1860,9621,-3685
60,64,46,-686,10461,-4586
-97,-118,113,-5681,-462,-12669
-47,-18,-41,-14473,-2757,-8575
-46,-86,101,-16786,-9873,-9410
118,-122,65,14432,5651,6093
-91,41,-115,8817,-4221,-2437
-8,-89,111,9534,-3891,486
76,7,2,-23661,31302,-16548
0,-127,79,-21784,-13250,31846
18,70,64,-2592,2569,241
-43,98,109,25211,-14889,-13930
38,-71,-23,-15989,1650,5971
36,18,105,13448,-606,8162
-20,37,39,-20137,343,-4388
56,-59,-120,11507,12033,-3053
-17,69,-89,-8712,-4197,-20527
119,104,-69,1599,8958,-13545
-83,118,-111,-23489,-6966,-5383
39,50,39,-1663,523,-2917
101,9,78,27679,6665,13882
-82,15,43,12243,21821,11262
-19,-37,-69,-17713,-14440,-9244
66,87,-86,5746,6145,-3233
-51,-18,-40,-4642,-3461,-7477
-86,-7,-123,-17041,-12625,-6407
-39,32,3,-3181,-1245,-4940
-40,60,15,16764,-3793,1450
104,56,122,20844,-5986,1599
-5,-101,-55,19735,10324,21906
-65,81,-84,-28482,-20338,-5279
0,90,114,4655,-6035,-3233
-98,-68,34,12099,4599,6848
-25,-105,87,5473,4120,5880
-5,-1,14,-8806,-6624,-7331
-40,-38,123,-5872,-1589,-3179
95,114,-2,333,2145,1238
-10,113,90,3850,2226,1694
20,95,91,-2442,-846,-1163
-101,47,21,10253,15611,7028
-78,112,108,-3078,3308,-10953
110,-52,46,-1617,4827,-8924
14,2,3,-9174,73,-11133
106,-87,-56,-22217,-12212,-12209
-8,-41,-14,7487,4008,2168
108,110,-63,24890,2004,4803
-114,-19,23,3866,-9558,-1228
43,14,-13,30604,-31196,-22125
-92,45,20,-22134,-21156,-30226
-36,-23,109,11419,13453,5781
94,-111,94,-17443,-12195,-10974
34,74,21,28700,-1551,-15098
-55,-34,-44,-17697,6010,8163
-98,102,-49,28782,-9222,16448
-64,114,122,-12405,2144,-15657
-53,-26,12,-2208,3680,-10608
-73,20,81,-6205,3743,-11804
-14,-86,87,-8752,3891,-4661
30,89,-126,-11932,1682,-817
109,-100,65,10941,1825,1354
39,-118,82,15172,-799,1992
20,86,-11,7414,4139,4476
117,-74,65,11298,8824,13898
79,35,12,-12654,-6155,-15232
72,-73,124,9126,8424,788
-54,94,-34,-13974,-10524,-8651
-99,123,67,-16911,-5648,-4360
-51,-56,113,11442,-2815,281
-72,-19,127,13291,-7667,420
86,-87,6,15295,-3624,6835
-2,120,116,13883,14822,22557
74,81,-75,-23888,-17390,-8283
41,82,-128,8977,-1295,4571
54,16,-84,6884,6051,8072
-66,127,-34,-4254,-4219,-4185
95,-78,106,-144,682,-2283
3,95,54,99,660,419
-55,94,-18,977,893,278
-66,-116,19,798,741,27
85,-87,106,3401,6344,3586
-71,-69,78,13118,22231,8610
-45,-57,42,-5173,-369,-11556
-104,-96,122,-2590,5629,-6806
105,-22,78,-7917,1264,-7703
-35,38,92,-16412,-6696,-8105
-81,-29,32,362,-2102,-1770
126,-111,-82,9541,1436,2407
36,-123,67,7055,-5055,-2068
-9,4,-65,9695,-5486,117
-93,-87,-43,-30863,29182,-31615
29,4,-118,-14054,-11642,-23455
57,-91,73,-4217,-406,-1959
-87,-95,-116,-32048,-11645,-15575
86,27,-42,31827,4963,8520
50,9,83,11496,3452,8001
-7,-127,30,-30287,-3074,-7646
84,-45,-42,17660,16675,1314
-7,35,-66,-1238,462,-17354
51,-20,90,3322,9426,-10878
-127,20,-24,-19329,-8125,-10248
66,9,-46,-3237,-3220,-2093
5,-98,63,22175,9701,12470
-65,-108,7,7881,-1495,4375
102,119,-119,12910,10925,15394
-59,-6,62,-17032,-3571,-9682
-80,10,-68,7982,3664,-4137
85,95,-21,-8713,-7320,-7854
-79,-120,-78,-14137,-7880,-6951
-83,15,-114,-1677,-2676,-2445
-70,73,-19,13271,-5857,-1760
120,122,45,17748,-4972,-807
-25,107,54,18526,10799,24141
71,54,-57,-28334,-14203,-4618
-103,-75,-89,3049,-8617,-1309
89,-13,46,8111,446,4129
-16,-87,41,1039,-2360,3613
-76,110,-67,-2493,-518,-1426
91,-108,-14,-3897,-402,-3046
-89,117,42,-3860,-1292,-2126
79,-30,3,16798,13414,2713
68,14,-10,-6173,2744,-11593
105,32,-3,-7157,2461,-10129
-25,75,-82,-15531,-883,-8103
112,21,76,-12610,-971,-2695
18,-56,-118,6439,5838,4286
-31,110,-65,-8525,-7259,-5358
78,-85,-118,6191,-3760,-12303
-121,110,-125,24205,1820,9872
-126,-71,119,9771,-551,9197
69,-96,-21,-24459,-1359,-3072
75,-90,-114,13685,12448,1091
25,1,-105,-18262,-8836,-12831
-74,-56,85,29155,-9743,-9532
-100,-22,-39,-19311,-1719,8120
-114,54,-56,17666,3586,6281
90,100,-29,-31859,-3750,-5872
87,-30,34,22516,9006,-6532
75,126,112,-8581,2337,-16634
-115,79,13,529,8620,-11325
66,-107,-115,-26583,-6167,-6880
-12,-58,-91,10833,4052,3330
-100,56,74,29103,1472,10519
71,-31,-12,3066,6199,6789
8,116,84,-51,-9316,5429
100,103,-63,-3260,9418,-5552
15,-68,16,1152,-1682,-8582
-5,67,75,-11841,-11789,-7841
86,-86,20,-17599,-2741,-6395
11,-60,34,12016,-423,979
34,-43,46,16226,-6621,-2746
109,-9,-117,19957,4205,14628
58,-115,5,5844,10179,20272
123,-64,-5,-17301,-21662,-11181
106,60,-8,6598,-3499,1723
16,60,-29,10210,5390,7632
-30,-123,76,-8802,-6665,-4648
64,-31,-9,-8634,-4083,-4834
-28,-75,17,1737,2309,680
-86,92,-104,3363,2172,1759
87,2,-30,3856,7638,1337
40,-12,-101,15050,22966,6252
-52,-26,123,-6295,-3017,-15293
-109,21,0,-34,6881,-7932
82,-36,22,-15334,-4148,-11472
-57,-11,86,-23635,-13265,-10195
55,-32,100,19026,9170,8269
-101,7,-124,8361,-6672,-1650
113,90,120,9310,-6725,-1932
52,35,-21,30220,30278,-23569
-105,51,35,-21632,-17574,-26109
-64,-32,-44,13426,12177,4305
-55,106,-51,-21135,-11977,-12539
36,-28,-93,-22124,-1226,-11162
54,59,65,-28972,988,9669
1,41,106,23003,-28596,-32242
-97,60,-45,-10348,-10869,-20724
-106,-104,-121,7601,4231,-9461
-33,36,69,-4146,6195,-12045
-111,-118,-35,-6780,5416,-6792
-55,59,106,-20140,-3291,-5615
65,59,-17,21532,3565,5433
-47,12,87,20689,1956,9826
71,65,17,5810,9241,13268
-72,66,116,-6681,-9503,-5222
12,61,-6,670,6377,-1969
-104,102,6,-1159,-611,-6487
-3,86,-37,-11738,-7701,-5786
-51,111,-85,-10717,-4166,-3175
-9,95,124,8595,-4138,-1704
-26,3,-75,15061,-5610,1494
-46,-49,84,22480,4989,14820
117,88,-18,-6194,-6995,10215
28,47,38,-8066,-9881,-3824
91,-76,80,2995,-4323,1702
115,63,-79,6129,-2070,3541
85,28,90,2617,-504,3585
-127,71,-2,-5523,-2558,-3753
-78,92,116,-5908,-591,-2519
-89,-82,100,2653,2445,1754
39,43,125,8065,14367,2818
-128,-5,23,1984,5936,-6855
95,68,91,-1164,4068,-9690
60,74,7,-3746,4587,-11139
124,-27,57,-9789,416,-11300
-31,-58,43,-22267,-11306,-8499
-75,-53,93,4037,908,2638
-32,60,-76,9792,-2007,141
-18,-6,-3,11712,-4516,-2739
64,93,39,15046,-3617,5744
-22,-121,115,-23743,1927,31005
-37,54,126,-11139,5412,-18152
-62,-52,85,-8085,-1133,-7774
-79,-11,-51,28132,-19557,-13147
-57,-35,54,-25069,5358,5462
83,-127,116,17291,891,14277
-110,21,-35,12395,4523,18082
-96,80,-128,-2156,1450,-13370
-80,-15,-17,-7782,2753,-14602
-61,36,-24,-2665,7031,-12857
-86,-8,54,-12506,5377,-7332
53,104,97,-20631,-1442,-2180
-73,-112,26,32286,6502,8430
78,103,52,20605,7640,7076
-98,39,-89,-4584,-4877,7497
-102,-58,74,-4090,1778,-5970
8,13,-55,2353,2129,-6531
25,-48,-84,-14845,-10375,-7873
100,-62,1,-16688,-3694,-4436
76,25,103,10678,-3100,-1315
110,-79,-101,19039,-6422,-1593
17,47,121,20649,3535,10886
62,-74,-4,-4694,-4689,8136
-8,53,119,-8006,-16538,-6682
6,-94,115,7624,-1179,2376
60,5,52,10213,3733,9672
95,108,99,-11685,-9008,-5127
53,-46,124,-3929,-995,-2808
-13,-79,-120,5343,6709,2638
116,107,-97,187,1864,-416
-73,97,-106,-5137,-2208,-2852
34,-50,-119,667,1757,248
28,-87,-27,-444,837,-618
61,-45,2,-1870,-544,-1270
100,-18,-68,-895,61,-847
119,-21,-43,-1108,-112,-781
-123,-20,-100,-448,549,-320
124,-20,-73,-972,-201,-564
-126,-11,-126,-129,130,-147
118,-34,-114,-134,-250,-39
-113,-18,-69,-563,258,164
110,-25,-44,117,-575,174
102,-26,-25,664,-400,398
112,-43,0,-462,-1174,-29
123,-23,-46,655,-505,505
68,-55,-2,-407,-1074,-44
102,-45,-37,744,-80,639
101,-46,29,-539,-550,351
80,-42,-51,342,572,484
62,-51,3,-747,-199,-89
67,-37,-42,-911,-181,-247
126,-65,-116,87,214,84
-128,-52,-98,-134,23,133
-107,-33,-46,-319,-149,-169
-71,-37,-37,-732,-91,-223
-42,-27,-67,-624,147,-6
-34,-19,-108,249,763,334
-98,-33,-64,-728,-8,-314
-77,-20,-87,-588,20,-258
-62,-5,-84,-366,22,-238
-53,9,-73,-236,-30,-173
-57,-23,-85,-365,-330,-179
-59,-20,-114,759,346,388
-75,-23,-33,-352,-541,-257
-66,-13,-37,-244,-300,-254
-55,-11,-25,-735,-537,-430
-31,-6,-67,46,171,104
-44,-9,-51,-129,-18,8
-70,-25,-64,-175,-87,-42
-73,-39,-84,-116,-284,-11
84,125,66,2989,8560,2829
-65,-124,-45,6597,15595,6914
52,-112,-57,-4546,6152,-5279
-110,-13,89,-4830,5132,-6434
58,-9,47,-8653,1610,-6843
-35,57,22,-14449,-4643,-6415
26,118,-57,-3977,257,1615
64,19,45,6117,-575,-387
3,50,88,12323,-3045,-1934
-55,-119,6,9284,-4542,5647
47,66,94,19931,9693,19332
-10,-4,-115,32559,-9243,-16864
29,49,118,13977,10668,4026
-40,8,96,-14647,-9051,-8815
-64,115,-19,-28076,-4320,-15885
-39,-99,16,-26299,3859,7163
0,101,-76,-29189,12286,-26279
-95,-46,18,-9506,-3234,-21804
-91,-34,57,-109,4099,-11835
83,39,89,-8791,2250,-14727
-48,-44,114,-16463,-1636,-4626
-83,-11,-99,-1138,2997,2927
109,39,-104,14063,3443,3929
37,121,43,8379,-2487,1822
-110,-95,67,9703,3456,3589
119,-58,-92,10514,-1944,8825
-104,15,27,-6118,3157,-7914
-29,24,111,5482,2934,-3625
-4,52,-122,-14370,-13163,-6294
-62,112,15,-15081,-4164,-5070
104,44,-79,13738,-3705,-986
-87,-127,-120,17158,-6327,-452
12,-117,-6,16007,9830,22676
-10,27,60,-7538,-7668,2990
-13,107,56,-6832,-13395,-3927
61,11,101,5700,-227,2162
21,-70,22,2562,-1711,2745
8,-8,-49,71,727,-156
109,83,64,-3588,-1022,-2515
-46,72,23,-2612,-857,-872
-47,-107,-107,11347,15246,3401
-81,-59,-73,-4606,9128,-4888
81,-95,-98,-5818,1437,-11622
112,-77,-63,-13228,-1345,-10042
67,-84,54,-19070,-5940,-7035
118,33,-10,-1928,-2017,2190
-96,-86,94,13329,226,-2717
31,65,5,16281,-1314,-3217
-61,-32,93,13292,-3792,8174
-92,42,21,-9500,-77,-2354
89,70,-108,-1807,1826,-6448
-95,-107,5,-5095,-1636,-2663
-60,-96,59,31949,-5388,-15364
-58,-88,67,-28578,-1004,4525
-106,42,-48,27657,23981,23149
-114,-53,107,30053,-9132,-21683
-106,-51,-38,32766,9029,-913
45,-58,117,-12332,2978,-19837
-42,73,87,-1592,10092,-11313
-109,3,-122,21616,-14886,-9135
72,12,31,-15109,11480,17786
-107,68,40,15223,-226,4833
50,-75,-37,-628,-931,11124
-50,122,-52,-7284,-3448,-6154
-72,49,-41,4906,6306,-3555
99,65,42,-7146,-4483,-8668
107,-30,114,-16367,-9840,-7291
40,41,91,-8592,-2089,-5595
120,-2,-21,19833,-1795,4092
-114,76,-87,16459,-7009,-2782
120,-121,47,17683,3384,16785
96,62,-116,-24082,-8370,-2870
-37,-58,36,1794,-14297,-3479
-58,-46,30,10429,6761,5249
1,37,32,-3892,-3967,-317
-10,-75,116,-6098,-4338,-4203
32,89,111,175,2054,-709
0,-95,-97,3972,3919,2755
-45,34,-107,-3164,-1772,-2085
75,-90,-86,-920,314,-470
96,-75,9,2365,8559,1221
-48,-17,-75,10907,13854,-2846
-21,120,91,-2354,5977,-8447
50,46,85,-7847,-604,-14334
-88,-30,-15,-19098,-10013,-10330
-14,-100,-72,-15578,-8982,-5347
28,-46,-92,25236,7615,5587
-82,41,41,7135,-8130,-1854
-103,-109,-34,16293,-3393,-1896
109,-87,-92,-27383,-14873,19623
-17,-2,68,-10558,8230,-9396
-95,-74,-85,3677,1875,-6897
64,104,-47,23469,-17734,-11588
8,-121,-93,29436,2778,-670
-123,123,23,31666,11810,19725
-123,35,-26,23752,-6009,-18224
-58,13,46,26917,18439,1610
-79,-83,32,-14366,-8591,-25610
-80,-36,-82,-21933,1231,-6873
-45,-90,-47,3837,4363,6963
8,95,-8,16037,445,2049
13,-101,74,10313,-4869,-589
-59,-26,87,12910,7030,16709
-100,83,-89,-21299,-3347,-13235
68,-15,39,15416,11797,1509
-104,-62,59,-11941,-8444,-12485
-39,-78,112,-17005,-7602,-5000
-47,47,17,-7906,-1371,-3915
-65,124,96,21507,-4806,1588
-27,-44,67,14440,-6052,1200
-128,86,17,17478,4557,17998
-43,-8,8,-7908,-6222,4367
-68,33,118,-4974,-15884,-1545
-104,8,70,9068,2839,2593
-85,-13,-112,-1789,-2972,1918
-79,-57,-67,-6056,-1327,-5552
85,65,-31,-2124,3158,-872
5,108,114,2979,3625,2331
-68,63,40,-915,137,-627
35,113,1,-2483,-1466,-1417
-115,45,82,6384,14819,4136
28,99,-90,2805,14192,-2324
-15,-39,-90,3,5291,-7378
78,44,108,-5090,854,-11862
35,-88,-97,-16271,-6347,-10063
63,14,49,-19766,-5184,-8542
23,-12,-89,23141,5796,6673
73,-66,-50,9103,-4335,1515
79,-25,-128,9090,-8546,-1653
2,-84,112,-31979,-22589,-18718
-85,110,78,-17827,-17768,-29737
5,-51,125,-830,2732,4048
52,120,18,-21967,-13036,-8253
-15,34,-30,20852,-2114,-2076
95,-110,-127,27029,20157,22034
117,69,-106,27597,-8416,-18001
-101,-35,116,29840,13900,932
28,125,-126,-12841,-4051,-21820
-109,79,-57,-3038,9494,-8550
119,2,59,-19580,-3168,-4201
35,-111,100,1486,-468,1062
73,9,-90,20214,2265,3557
-121,84,91,13051,3488,4864
104,-63,-127,4652,4277,13455
70,-77,-10,-12140,-2960,-9967
25,-30,111,11538,10131,709
-125,-36,105,-9734,-6474,-10979
-84,-94,-121,-16774,-8488,-5426
85,-12,-122,-16297,512,-6686
-90,-58,117,29638,-5923,1927
-115,-124,11,15440,-7177,-149
-98,-67,14,17910,4506,18129
36,-14,-86,-18306,-8032,29
32,-108,56,-691,-15871,-4735
-69,69,-98,12265,1436,5310
-29,-21,-35,4239,5035,5297
-126,9,13,-17291,-6125,-12914
-105,-73,116,-5176,1030,539
-40,-46,32,13592,7482,9122
16,21,-113,2771,4596,-222
-86,2,-114,-4704,-3816,-2579
64,105,15,-4549,-1971,-1795
82,-120,51,2403,2699,1276
27,81,18,-1157,-56,-719
50,-112,-56,-1148,-369,-642
74,125,-120,-266,-28,-332
53,-116,-105,-181,-112,-404
47,-85,-63,-335,-801,-825
51,-71,-17,-704,-1260,-921
11,-71,-44,-1247,-768,-1107
70,-43,-54,-1736,-645,-805
69,24,-85,-652,145,-435
38,26,-64,-716,241,-664
70,82,-31,-2131,-1043,-1133
103,127,-125,-362,154,-345
22,67,-89,-858,-46,-1122
64,78,-72,-1185,-316,-965
103,113,-63,-1994,-717,-987
-114,-120,89,371,812,-1
113,118,-95,-149,307,-353
99,105,-67,-1080,-541,-829
109,91,96,17,101,-293
101,68,124,238,-225,-47
108,56,-108,147,-531,49
106,63,-86,332,-433,159
96,52,-55,149,-504,-32
102,50,-39,-176,-514,-88
109,47,-51,-27,-247,15
106,43,-45,-38,-186,-4
92,37,-40,-428,-213,-216
86,32,-62,-448,-14,-244
95,33,-69,-671,-84,-321
115,44,-96,-532,130,-170
110,56,-127,84,565,-92
-107,67,-61,-788,-457,-485
-28,118,-57,-418,-26,-40
-69,74,-102,48,669,-122
-95,34,-97,56,676,-68
-83,26,-68,-1248,-564,-415
-44,47,107,150,313,402
-50,83,102,6768,12915,2881
103,-116,-72,-483,10873,-4012
-8,-26,87,-5296,5159,-9517
-45,-10,44,-4862,4143,-9233
112,-46,-72,-21957,-6249,-11599
-81,47,19,-23341,-2191,-6650
97,-47,36,28899,7293,7312
93,-5,2,4285,-8978,-4853
-105,-36,99,10460,-6007,-3748
24,-49,103,-31746,-16641,-14941
-123,12,-111,-23041,-24909,-32434
83,92,-5,1897,5885,4658
96,60,-6,-19021,-10011,-8066
-39,-76,24,5661,-2765,-7640
-89,-123,-24,24344,2127,7529
-9,-31,-56,19614,23514,-32076
5,2,-17,-9780,-11392,-23326
-108,-125,8,10472,5490,-6873
-79,-105,-104,-3420,8206,-13916
-31,67,98,69,6075,-11165
-126,-107,10,-21335,-8389,-6545
-31,42,-65,-882,2018,-1220
11,-28,49,23086,4041,7086
38,-95,-121,10694,5757,3306
-37,-87,-127,2665,1149,8838
-55,-115,-25,-14226,-556,-6593
-90,116,-24,10961,7787,-2312
-37,-19,51,-7278,-4540,-9803
-100,-18,81,-15647,-9079,-6003
54,-52,-100,-12679,25,-6048
-61,84,61,18230,-790,6976
12,-19,-97,8122,-9222,-1634
-16,8,-77,16649,-1477,8283
-92,-33,-81,12049,14306,17893
-46,92,82,-19696,-23928,-7937
-80,-105,122,3708,-4747,281
-16,2,90,9219,-583,4563
99,-66,-96,2579,1948,5490
-7,29,37,-9926,-4730,-7369
-17,-56,19,-3405,1292,-1860
10,-82,71,4370,5432,2098
-67,44,86,-1373,109,-1402
50,122,-29,-3805,-1730,-1628
118,-33,63,1746,1841,1088
94,-80,-8,-1569,-538,-892
98,-21,-85,-451,192,-247
66,-23,-56,-1342,-601,-765
76,-23,-112,-327,-24,-255
68,-30,-94,-397,-177,-179
63,-36,-73,-236,-252,-117
68,-29,-54,-214,-352,-119
74,-35,-27,-300,-444,-108
77,-28,-40,-314,-273,-126
81,-28,-32,-470,-333,-138
83,-15,-48,-237,-147,-20
84,-3,-49,-165,93,-20
96,-5,-43,-362,-131,-118
96,-5,-46,-712,-307,-346
116,4,-83,31,294,38
120,-10,-63,-269,-18,-111
122,-4,-69,-147,-46,-95
124,-4,-55,-540,-361,-289
-118,0,-94,210,144,34
-122,-1,-52,-379,-282,-214
-114,-5,-61,-169,-154,-138
-112,1,-61,-74,-5,-55
-107,-5,-52,-127,-52,-92
-101,-6,-46,-366,-164,-144
-100,1,-58,-129,-3,-57
-101,1,-51,-221,-44,-101
-93,0,-47,-340,-88,-129
-91,9,-58,-247,-19,-119
-86,0,-51,-483,-115,-215
-76,8,-73,-196,154,-55
-73,12,-70,-408,-101,-157
-68,14,-74,-465,-189,-169
-71,21,-92,29,-21,5
-81,9,-63,-302,-369,-178
-75,13,-85,227,73,77
-78,2,-37,-486,-501,-265
-113,96,72,10269,16883,4230
-21,56,24,4452,8603,-6942
-112,-116,104,-5890,2132,-10472
-128,-93,-10,-8668,2072,-10147
120,94,-61,-21405,-10345,-9081
-5,95,115,-4861,-6450,-706
124,-45,76,23068,4076,2915
-26,-30,110,5785,-7569,-5032
43,-122,23,22648,23580,28536
-48,-87,-31,-32335,-8215,-14648
-56,43,23,-6233,-5973,-4021
-26,13,47,-15474,-6349,-10270
118,-89,-32,28304,1847,8647
-112,42,-36,15424,440,3588
107,-75,-115,9277,-4284,5392
-52,-106,-80,-4127,8852,-6686
-89,-77,-86,-1103,-1511,-15280
37,74,-64,709,6809,-16129
65,-52,-126,-8368,3207,-12097
-9,49,127,26072,-8834,-8983
11,-103,-64,-27936,4362,13399
-50,75,-94,14676,-2213,1926
62,-42,-91,4370,4084,7013
-18,39,84,8779,-3732,9687
-90,7,-56,-5977,4429,-5652
-25,101,-99,5534,3336,-6123
118,-117,-105,-11736,-8629,-9584
-84,114,-112,-18963,-8691,-4880
88,-32,41,3705,-1178,-3069
-59,-5,125,18179,-5596,4431
79,64,10,7730,-9621,-5631
109,-5,-60,18154,4978,17122
102,-105,-78,-2084,-8610,5743
-61,114,81,-13010,-18206,-8867
-117,3,99,8006,-2537,-2703
-78,-31,-50,12140,6056,8798
-70,-27,-102,-3215,115,-1047
4,-123,125,-9476,-3371,-6077
61,-19,110,1917,5118,1463
-10,110,-86,691,2659,615
-94,-127,-39,2243,8430,1610
-19,18,-16,9060,18606,7961
53,94,-33,-6223,4463,-10974
11,115,20,-1878,5289,-9733
102,-57,67,-9972,-103,-10367
-115,-46,-127,-21762,-11338,-11924
43,104,122,6352,1210,5214
79,-39,-50,18048,1893,801
-109,-70,-29,5048,-8329,-905
-112,-101,-97,24762,20658,26013
-83,6,31,24480,-6639,-14471
-13,-38,-101,13212,9084,2053
-127,-5,13,-23172,-15329,-11652
106,52,49,-15781,-1147,-12733
-35,72,-113,32089,5117,13810
48,100,101,16257,27436,24168
-79,2,-121,-13762,-15109,-21177
77,96,40,15026,7934,-3960
19,61,-112,-11415,-388,-15502
-68,76,-31,8541,11178,-9564
-98,-22,57,-16719,-4047,-9502
-80,56,112,-30735,1020,-8717
-15,79,42,-23563,8610,14613
39,-6,-5,7657,12809,6819
126,34,-50,-2797,-6583,4405
-85,-123,55,-4895,384,-7506
-92,-112,77,3883,3972,-3075
-70,-54,115,-12985,-10280,-6678
-86,29,-69,-13213,-4067,-2511
92,-96,-28,8771,-3269,-1807
64,108,-102,17744,-8085,-522
-43,85,-15,18205,1575,9877
114,102,4,8299,13431,20325
77,120,4,-16314,-22014,-10519
-108,-84,63,3146,-6191,-148
84,-66,-27,15381,4821,8929
-72,-21,105,389,1712,-162
4,-72,-27,-15562,-8209,-10337
72,-11,29,-2840,1692,-622
25,-96,-49,8045,6044,4801
-50,-56,-101,10485,15863,5872
-38,98,86,-5864,5282,-6817
102,-30,30,-2788,5433,-6160
17,-13,100,-5660,4283,-8588
-100,6,15,-13155,-1248,-8929
-79,77,-51,-23001,-9917,-6436
-89,9,108,7987,1832,1896
125,28,97,19886,127,-1490
-84,4,-116,7309,-7814,-2756
-50,14,36,-29067,-25599,-15459
64,-20,-55,-22957,-16429,-32686
-3,-18,94,-1429,3946,-3816
119,-63,-119,20421,-15479,-16416
-60,-108,6,-9455,6161,10119
82,-114,-95,7275,-5152,4934
-28,83,-72,15885,11706,24331
-32,-46,22,-15958,-8983,-20322
87,124,59,20717,14319,-2344
63,-82,7,-13288,-1751,-20529
-13,-81,-5,1554,11100,-7810
72,-24,65,-23477,-11734,-8401
93,58,100,11231,3994,1831
-64,-16,67,23169,4132,9678
30,-99,-74,6670,8275,7300
-77,-36,-112,2310,-7057,5139
-76,-7,-22,-3111,3610,-7776
-105,44,-37,-492,-772,-7389
-113,54,48,-11962,-11038,-6900
-116,115,73,-15299,-4921,-5170
100,-94,86,8893,-216,204
8,-29,-69,12181,-7447,-3593
93,-84,-112,22421,-4175,1464
-55,-120,96,17706,10176,24176
11,-11,-69,-22700,-16052,-3784
-113,-5,91,6251,-5923,67
-86,-35,43,3831,-89,3796
45,49,79,-2199,-1501,-17
46,-68,26,-990,2564,-1779
-74,125,-78,-3060,253,-1624
-18,-103,-63,-1714,478,-446
91,-26,6,5460,10222,1465
-74,80,80,13044,13589,1077
125,90,-101,-5164,6808,-8455
103,110,97,-6299,1382,-14322
4,-83,17,-17184,-4781,-9722
-59,93,-24,-19889,-4802,-5418
51,-127,-3,15834,5144,6772
-9,113,38,9209,-5517,-5529
-21,-118,-80,11715,-6449,-12
-104,31,4,-30672,-25875,-16110
-60,102,-79,-24676,-18980,-31115
-22,-115,63,9187,10786,-1049
73,-121,50,-17913,-10124,-14142
115,27,-11,-31224,-4642,-10818
-16,16,-49,-26087,9271,10583
-89,81,100,8676,-9282,1949
86,70,-47,22754,-6490,15877
-83,114,30,-2975,9627,-8961
-79,-63,55,-9661,-2639,-18279
87,84,-87,5781,11339,-12735
-12,20,-73,-11616,675,-9394
-38,115,14,-25719,583,-4681
21,35,65,30039,4694,9125
-13,-126,126,17286,2330,1745
28,8,44,2084,3566,11347
17,-98,3,-7738,-2779,-4757
-78,-87,23,6393,6207,-3569
-10,44,9,-6431,-3906,-8445
123,-87,2,-13841,-9716,-5937
-12,-30,108,-10362,-1214,-5466
80,27,61,15282,-1972,2027
-26,-92,-45,17418,-4622,1327
-77,-27,-58,18043,5535,15722
16,-59,10,-9090,-7422,4071
27,-59,37,-6343,-15284,-2956
119,-128,-26,5534,-1528,1377
-34,-28,36,11127,4609,8341
4,55,73,-2454,-324,-806
-119,-60,-123,-7984,-3941,-5941
-24,-60,-63,-1533,1791,-857
-35,-28,-109,10371,14643,6355
-94,-8,-19,-5407,5242,-7234
-103,-76,53,-771,7687,-6953
46,-34,5,-6142,3699,-10844
-64,-84,-36,-14232,-2426,-11925
-102,80,-23,32652,-10493,-10040
28,112,-86,-30931,10641,14676
103,-16,29,6418,-6378,-1364
-78,-1,66,7283,-7636,-4649
50,-25,116,-26038,-29553,-21762
-126,-91,109,-28733,-13647,-26784
-92,-57,59,20757,4457,132
-97,-40,-31,-24452,-9870,-10707
4,116,-79,-22055,-3161,-6491
-70,101,-36,-30114,2374,11389
-39,25,73,7099,-5692,-844
-62,116,-4,18645,4253,19665
40,88,-120,-2944,1692,-10812
96,112,34,-11026,1161,-14775
39,-70,-2,5816,9638,-11571
-79,61,72,-6967,1473,-14870
-124,-29,-41,-29020,-3399,-6136
-68,-97,33,21745,4398,10886
98,52,-63,20403,10,5603
19,29,-98,2692,4674,6773
-126,63,76,5085,-1838,6799
103,47,-55,-4671,3374,-5559
22,-100,-92,1904,1679,-4842
97,-14,-33,-14536,-9861,-6990
-12,-19,56,-11723,-1888,-4208
-46,123,27,5366,-4628,-909
-57,-12,78,12129,-6666,-1910
60,-105,-44,16203,-4936,-2304
88,-58,11,20870,12282,22766
66,-16,42,-24682,-13756,-1412
-79,91,24,4385,-9878,-1068
98,-91,-53,1389,-3226,-882
-46,-103,123,2022,156,2439
105,63,-37,7886,7094,4034
-66,11,-45,-2286,686,-2088
-118,-114,13,-8180,-4457,-3852
15,-69,121,-926,1040,-842
71,-118,-116,1741,2729,885
68,127,1,-2112,-248,-1106
113,-93,95,63,651,88
64,-91,-78,-951,-657,-618
80,-59,-104,-1002,-808,-583
89,-43,123,-141,-327,-230
67,-43,-59,-211,-761,-303
52,-42,-17,-702,-1002,-506
70,-41,-53,-582,-436,-327
79,-41,-91,465,408,61
66,-42,-20,-307,-287,-277
77,-40,-27,-621,-331,-338
87,-40,-64,-303,-3,-193
87,-25,-71,-219,14,-157
90,-23,-57,-732,-327,-383
117,-15,-100,220,360,103
106,-21,-56,-453,-178,-221
114,-9,-71,-382,-107,-215
-125,-11,-83,-92,97,-43
125,-10,-72,-297,-221,-154
-126,-2,-74,-293,-123,-161
-114,-12,-68,-182,-111,-98
-117,-7,-69,-309,-150,-159
-110,-4,-74,-157,-82,-62
-113,-8,-56,-473,-275,-178
-108,1,-83,-93,55,-28
-111,8,-66,-300,-136,-173
-104,0,-63,-491,-236,-257
-97,8,-86,17,215,-19
-89,2,-70,-419,-135,-173
-86,8,-74,-358,-121,-198
-86,12,-78,-191,3,-128
-80,6,-66,-402,-238,-225
-70,13,-98,188,242,82
-79,7,-52,-533,-276,-257
-69,12,-79,-86,62,-73
-70,10,-66,-326,-124,-164
-67,14,-77,-246,-48,-112
-93,-16,-62,4079,9812,1609
103,-48,-8,5644,25216,8012
-52,-118,-116,-3399,2845,-9416
-39,108,80,-2168,4314,-10169
-116,14,72,-12575,-2852,-10303
117,49,-108,-24736,-14928,-8297
-53,56,100,16693,7109,7465
17,84,112,13764,-4942,-7219
-18,-115,-88,10184,-4764,-96
35,-110,-73,25386,-26301,-25630
24,80,40,-31421,-17056,-26353
126,117,-122,6049,7260,651
48,-32,-44,-25197,-15560,-9781
-27,1,-29,12998,-532,-4973
-38,84,-36,26174,3972,12146
-67,23,-123,-10573,-3232,-3100
67,-22,44,8398,15651,-2151
-71,-33,-25,-5790,-2144,-16421
-41,28,98,-1176,6445,-12076
-90,-41,-34,-10608,365,-4238
56,-95,36,-16331,-1974,-5841
11,-97,56,28247,4371,1927
60,-40,-80,13066,16923,13245
-10,-114,-68,-7894,-11123,-5113
93,71,24,298,4550,-5040
3,0,94,-2077,-1709,-3263
-89,-101,19,-16650,-10599,-5551
-84,-38,-44,303,-4326,-6030
32,6,-54,17777,-4642,-1834
-59,109,88,21705,-2696,4989
102,10,70,15225,14885,22067
-8,46,125,-21152,-24181,-8511
105,-74,-64,4726,-8307,-4290
99,-91,20,12298,8110,10522
-18,108,-126,-7320,-756,-7886
4,114,36,-11294,-5027,-3280
-73,6,103,5588,4238,3106
-97,48,-45,2833,2453,283
32,96,-101,-4445,-1916,-2417
-124,-77,101,-97,1251,314
37,68,-112,8131,17386,6476
97,-47,56,-1259,5911,-7323
-50,90,5,-11418,-332,-8839
18,-38,63,-4694,3745,-3809
71,-11,-19,-16862,-7454,-7214
-5,-56,28,-12160,-5720,-8469
-17,-127,105,26127,7075,6520
-86,-120,93,6426,-2203,1925
-3,-83,-47,29289,29945,-32690
-65,-2,-93,-32657,-23201,-27894
-85,-70,53,-10895,-6409,-1893
26,52,-94,8985,-924,-3127
-11,53,-34,24781,1463,6091
67,89,12,12725,29840,26860
15,-91,60,-9223,-12722,-18526
69,91,97,14477,11617,-1784
23,57,0,-5566,2259,-13743
-93,65,52,356,6008,-12548
102,63,98,-11029,635,-12230
120,-48,42,-29492,-1238,-8668
-90,-12,88,31842,7516,14956
39,51,98,10360,-2968,-2213
-47,106,-42,3468,-2398,4776
-42,48,63,14496,18158,18985
52,14,-16,-8701,-6845,-14180
60,-127,-105,2024,3773,-2093
-103,-64,-101,-11445,-12643,-5264
-56,-54,-37,-16682,-806,-7014
-128,1,85,17092,-5132,741
-28,-32,7,16371,-7181,45
52,-113,-93,18639,9368,19295
78,-37,-1,-19176,-10428,2275
35,-82,100,-3115,-12155,-3826
-82,93,-99,5400,-4216,641
81,-94,-34,6617,2976,3863
34,-73,66,-4190,118,-4466
38,73,-33,-7060,-1623,-2367
72,125,44,983,2862,1801
-52,36,-73,1474,1092,412
33,113,42,-1562,-515,-985
-29,78,68,7318,18482,6060
41,24,100,4183,8760,-6027
-107,-54,62,-4961,3042,-10037
108,-95,35,-3522,3046,-8185
111,-67,-106,-13897,-4859,-8538
75,-67,-23,-21699,-5759,-8553
78,42,-127,22055,3986,6274
85,55,98,9621,-4885,-551
91,56,74,7389,-7978,-896
4,104,-71,26474,23447,25181
-25,-94,-39,-24161,-14378,-18093
-56,-65,-75,13011,12454,2116
70,49,-58,-15970,-11171,-10206
100,42,69,-32479,-1833,-12190
-62,109,-76,-26794,1284,7873
-52,80,-95,27205,25984,21124
46,-34,-126,-20066,-13538,-21502
-112,-96,58,16554,12289,-2280
46,-63,105,-7199,657,-17453
-84,119,-4,-3750,6593,-8785
39,76,101,-19397,-4796,-7087
-51,-67,-92,10640,2616,907
-60,-14,102,23034,3143,6000
58,16,114,7025,6461,11634
-120,83,88,-6589,-4020,-3147
-98,-119,-107,229,3477,-5495
24,-111,-15,-4384,-2205,-8350
110,34,-20,-13073,-10729,-6732
65,-78,-86,-10155,305,-5024
-69,0,-66,10266,-172,4304
16,-76,-65,9387,-9002,-2767
-111,-75,-55,19716,-6508,1141
82,-110,-40,17431,12824,21639
118,-18,-62,-277,-148,-135
121,-11,-59,-263,-33,-155
122,-8,-53,-487,-179,-241
-126,-4,-77,-237,68,-133
-126,-3,-67,-491,-251,-212
-120,3,-88,-196,-54,-85
-121,14,-77,-244,-56,-138
-122,-73,-89,8955,16111,4094
-11,-4,34,-1013,7964,-6828
18,60,-122,-7064,2266,-11144
16,21,5,-5929,3927,-8060
-38,12,127,-14811,-3997,-8609
-12,5,-77,-23786,-6135,-9551
-67,-59,-100,27693,7226,8247
-5,-6,-79,8448,-5575,-1862
112,39,-63,11736,-5874,-1509
-28,57,72,-22245,-12428,17419
18,-95,30,-20764,4023,-19782
104,109,-116,-1795,2416,-1297
31,-118,-49,29647,-14037,-12105
-58,-4,-124,-20606,2770,9416
33,-77,23,15569,4347,11206
-99,116,124,-30768,-4574,-8780
60,-90,-46,25754,12092,-1928
10,64,-95,-12392,-1829,-21292
-54,-62,-20,4696,13328,-13775
-52,-37,-33,-32291,-16752,-10461
24,82,121,10169,8951,8217
-102,-58,37,22227,-1223,7938
-96,-1,-15,1060,-4618,588
-118,-96,106,18093,13349,14609
-91,-3,-56,-21074,-6031,-12780
-79,104,-45,16346,11004,198
73,98,49,-20154,-14533,-12458
76,44,115,-18568,-4242,-5484
-46,69,-41,1963,67,-6162
-80,93,41,29334,-4432,87
-65,68,107,14096,9239,19547
-27,116,-27,1160,4079,18548
-81,12,-60,-12849,-19563,-6903
-68,-20,74,5842,-5431,14
100,-108,76,7287,-50,3202
29,24,115,453,2114,1466
-27,125,-37,-12164,-3336,-7042
26,-73,115,-3994,-688,225
-42,-34,-91,6440,4638,3875
-97,74,121,-1810,-489,-1550
-21,-48,24,4690,10792,3255
-22,-20,-40,9522,15847,3806
48,-55,-122,-7822,1646,-11615
21,-17,-23,-1699,6822,-7624
-112,-20,-16,-11990,-1045,-9930
31,-15,18,-20962,-10180,-8573
45,57,-50,3938,2843,1920
80,92,125,16614,-701,1363
-19,-127,-75,5063,-7626,-2704
84,14,58,16993,-460,4822
-20,-115,10,-16271,959,-1761
71,47,-9,4564,1562,-4482
72,93,-128,-3230,481,-3557
-28,-42,21,-25633,-13921,-12730
-61,7,-66,13715,322,-2801
123,86,33,22273,-317,12898
80,-96,-12,7692,16126,19127
-51,86,8,-7337,-6019,-15261
70,83,-26,-1127,4404,-10666
124,108,96,335,6492,-12316
-36,8,105,-3486,3559,-13895
-2,28,-57,-28454,-9507,-10831
11,111,122,11764,8646,9211
114,-68,-43,21455,1193,6304
80,58,-45,5234,-3099,1635
107,85,111,10291,4129,10868
-40,112,22,-21241,-5161,-6612
-21,48,-9,11050,7639,-907
-118,53,73,-5073,-3185,-8503
-62,-45,-84,-10688,-6361,-5721
-20,-32,-57,-9985,-5197,-3213
-63,-84,119,2886,-4085,-3353
97,-101,93,13650,-6005,-2073
-123,39,15,14910,-5143,-5034
-8,85,53,27279,24965,-32024
-39,68,-64,-30241,-25611,-13709
-108,-111,108,5136,-9413,-2284
63,-124,-43,13828,5381,6885
-62,-103,-56,-5693,-4372,-1302
16,-121,-86,-8190,-2743,-5599
81,-121,-25,8222,15638,3633
44,-113,75,-5080,4038,-9894
-108,-78,122,-1596,5981,-9196
-15,91,57,-10600,-1037,-11151
-114,-24,-103,-22533,-11812,-11188
83,62,-106,7646,6265,2401
-122,48,117,25939,1384,8797
-30,3,66,1546,-13189,-1255
90,54,-53,23414,22814,31147
-25,13,-49,31964,-12021,-17742
-116,-103,20,14478,8197,1311
108,-84,-53,-9183,-5935,-6871
-109,45,-60,-29628,-14403,-10836
28,4,-34,-24877,473,5336
103,-30,-35,25295,22361,20841
-76,-122,65,-32292,-14009,-21779
104,-75,-95,28504,20486,6446
-97,-87,35,-15731,-8999,-22258
-18,5,-118,4670,11438,-8463
19,-56,35,-345,4103,-9021
-13,75,13,-18982,-5702,-7909
6,-14,58,7544,1430,-1542
61,-17,-39,22832,3565,11948
36,1,38,10843,8589,7021
7,74,71,-9483,-11126,-140
-101,-67,-109,-6323,3749,-4343
-33,-39,-41,6954,5145,-2368
60,6,107,-8651,-5064,-6943
124,-82,-110,-8184,-3468,-4216
-62,12,14,-5446,-4173,-103
-66,55,-13,4402,-5875,-1962
-35,-51,-118,11770,-6835,304
90,-86,117,21737,5051,17373
117,-70,-47,4457,-1950,12204
1,16,103,-18356,-14650,-5568
99,98,29,11796,53,5430
-92,-74,65,-1946,-4429,3871
89,39,-17,-1144,-1706,-591
-86,0,56,1445,3980,-1508
-110,-124,-10,-3056,688,-2199
126,-30,65,6059,11753,2258
49,15,-84,6047,10902,-1567
49,33,86,-3171,5987,-9124
80,5,76,-3128,3668,-11806
123,85,-25,-15347,-2725,-11061
19,-67,83,-19045,-9544,-11177
97,-1,-80,15913,6819,7361
-110,116,72,12450,-4400,234
33,-104,-80,6861,-8410,-1579
-39,65,52,-27893,29498,-20949
-106,44,30,-24675,-14047,-29291
-6,-101,12,11378,11272,3792
11,113,-76,-21340,-14538,-13760
69,-90,14,-14097,-2506,-10817
123,-55,115,31401,5965,12599
-60,55,-16,9024,11586,15102
84,-48,-57,-25860,-10983,-11316
-9,-94,-3,22610,15770,4085
-66,-74,50,-10757,-4134,-17219
74,-50,81,8310,11453,-8293
35,85,-12,-11214,1406,-13203
0,110,62,-22103,-3144,-5990
-88,-84,5,15103,4376,8735
93,-42,-50,18161,581,3435
-103,-28,-21,12028,4484,7316
126,106,-111,256,-1272,7905
-40,41,-47,-10639,-2445,-6688
6,-42,57,11471,10205,-1000
45,75,-9,-8711,-6935,-9795
114,-35,-55,-11312,-4470,-5251
-72,8,-20,-675,-1549,-1124
72,-62,-17,7114,-2935,3564
-95,14,-118,8461,-6401,4194
74,62,92,12590,347,12820
3,-110,35,-2599,-519,10633
-109,82,100,-9366,-11008,-2044
-69,34,7,5101,-3210,4051
-106,-126,-46,-1632,-5719,-409
-75,-46,-101,8018,3595,5811
7,104,17,-5300,-2199,-3247
34,118,-66,7243,13792,8067
-12,6,-100,7165,8821,-50
-81,-109,84,-1325,8100,-5846
20,-122,62,-3706,5146,-9325
-29,-20,102,-12243,-415,-9606
44,-69,-73,-16620,-7783,-8453
-59,127,-65,4598,1341,2203
-63,87,66,12128,-1365,3500
-101,-103,27,3257,-8407,-4696
42,9,-102,9386,-5209,-87
104,1,53,26365,14278,21123
97,-127,-24,-25072,-6077,-11943
46,20,107,12342,6793,-1731
-12,-81,-1,-15106,-6636,-11476
14,71,56,-31680,-11202,-15385
-122,-42,28,32720,10878,13714
-124,-6,-18,6339,-4674,-666
85,-119,68,18419,-726,6080
-39,72,-26,1784,12394,-1161
-90,110,95,-7480,1075,-17153
-41,-48,65,4937,11022,-8015
-71,-85,-105,-14394,-1387,-9452
-82,96,-88,-12649,-1260,-2553
90,-121,-75,23510,7672,12439
96,27,-3,6807,-1035,2246
-83,-74,-112,5572,-528,4874
89,-113,-83,-11051,-4481,-4386
-40,37,77,5502,4597,-1729
115,118,-68,2667,3738,-1710
88,60,42,-6402,-5963,-5748
-36,-124,-128,-12756,-9205,-3714
-84,73,-71,2796,-2964,-3165
-123,71,127,13618,-6118,1369
-92,-91,-37,14566,-3074,7191
26,-38,48,12126,12084,16744
-80,-98,122,-14745,-18495,-4053
-13,-10,22,4307,-2981,1523
73,-1,13,767,-4367,1117
-37,109,-13,4107,125,2852
-26,40,-24,-1286,618,-1629
102,93,30,10246,14020,5281
50,-35,25,-4054,4553,-7976
-2,-90,63,-1040,5686,-9023
46,66,11,-6213,2739,-11048
6,39,-2,-16713,-3978,-9856
30,10,-48,-18469,-4251,-7785
98,-95,4,18193,4943,6754
103,33,25,11914,-3954,-2150
64,-92,19,7992,-7256,1297
13,1,-116,22287,9668,14711
-57,-11,-109,27027,-5440,-12089
103,-17,-113,15810,11296,3351
-74,-102,66,-8213,-3313,-9474
-32,69,116,23747,-14056,-12046
85,23,8,-15410,6,4502
72,-117,17,15658,2969,10204
2,51,-117,-17657,-1962,-1593
-71,-86,103,5390,5855,-3694
-107,-119,14,-3311,-812,-12981
-30,-15,-89,2042,9167,-11161
74,95,-117,-1765,5181,-12578
79,6,9,-26032,-9368,-7467
64,-91,-43,8790,4289,-982
56,-80,-106,23237,4768,10345
-53,-21,110,10697,13961,9604
-97,127,125,-2843,-13076,2681
-79,-66,-100,-5981,2612,-5959
-23,-120,100,4035,3939,-4756
88,123,112,-9349,-5668,-7360
-128,-84,-59,-12170,-5813,-4833
11,74,89,-3156,-1873,-1708
-112,-94,-83,9094,-3100,1758
-72,-116,97,9006,-8081,-531
71,10,42,16475,-556,8053
-51,-20,35,7991,7305,14784
-17,-106,74,-13805,-16328,-3088
-13,-118,-34,3070,-6161,1175
-52,-64,-73,7131,-1443,5460
-16,21,97,556,-893,1590
-108,29,-16,-4571,-677,-4431
112,95,16,10149,16876,6574
-72,11,59,-3811,5551,-8039
31,-79,-106,973,3938,-9449
83,97,12,-7783,602,-11295
-89,0,-83,-12735,-2332,-8651
79,20,20,-13944,-5446,-5882
-68,-96,26,8361,1570,2513
-74,108,-32,12509,-2476,318
-2,71,65,9368,-6054,3710
118,-27,43,30486,27199,-28992
-121,-101,41,-24909,-18125,-25972
-85,80,127,4869,8443,3949
-62,4,38,-16043,-11009,-5503
-58,-34,3,-7678,-1408,-8798
-67,-75,-118,27405,1742,11021
-23,94,79,12116,26865,21742
7,-128,63,-8032,-10418,-17727
-123,-111,65,11025,7424,-6646
108,18,-106,-9366,2260,-14461
-30,-127,117,6430,11590,-7787
-60,63,101,-20664,-8115,-8507
-116,-86,-7,-14285,857,-5290
28,89,19,24995,5269,9054
106,81,76,19223,4941,5340
-127,-58,-125,394,1968,10882
-111,25,3,-10554,-2347,-9080
45,81,-124,8598,7383,-114
-5,14,1,-9165,-5578,-8383
53,-39,23,-12759,-6758,-4938
114,-105,107,-4370,-412,-917
-22,-124,59,7965,-4284,1627
70,-1,-118,8628,-7911,-1127
99,69,47,16812,-4721,6061
-64,100,24,13141,12448,20892
53,71,98,-18775,-19965,-7175
56,-10,-114,2860,-4903,-918
104,109,-115,1993,-5046,-380
-45,-111,39,10225,6787,6486
-46,-36,75,-2663,-702,252
-123,-87,75,-9506,-6560,-6021
87,105,-22,12221,16808,6718
-6,13,41,-10381,3023,-10725
37,118,7,3192,8358,-5604
25,97,46,-9058,888,-12053
-72,77,-25,-15240,-3286,-9236
50,-36,-119,-15820,-5425,-6943
114,97,-28,16637,4841,5804
122,46,-78,13295,-1284,1801
9,-95,-68,7661,-7637,3344
-120,-16,77,26027,24655,30385
-69,-25,127,-28419,-16283,-19953
121,-86,-16,7745,8013,1474
63,41,87,-11513,-9835,-6697
-19,107,108,-28387,-6315,-12466
14,79,-20,-26190,2901,6966
-46,96,-7,9553,26189,22114
99,-45,-92,-20663,-12870,-16352
65,-103,-91,19793,13808,826
3,48,-7,-10816,-1254,-16802
-86,36,-8,7020,11588,-10675
13,52,-116,-20698,-5069,-10620
-97,-13,31,-20967,887,-4933
38,109,-110,27698,6464,14238
-73,39,-90,15169,-2596,419
-127,55,124,6127,3528,15261
-13,-121,10,-13751,-5292,-7189
-82,-22,-1,1962,2859,-3345
-117,2,-93,-1270,1464,-4539
-28,-3,44,-6982,-5291,-6778
-44,6,98,-12971,-7247,-3466
-84,-88,65,501,-2557,-3303
-80,39,116,13205,-3654,2431
42,-49,-109,11110,-8129,-202
-81,99,-100,16802,5880,14998
-78,19,111,2350,-4163,9715
44,83,24,-8484,-12520,-5048
23,-109,-8,5118,-1503,2967
-114,-14,72,3288,-698,4847
-80,-101,-4,1788,194,-301
-101,24,-97,-2264,-32,-3081
-52,96,-52,-6426,-1840,-2914
-48,91,119,-2112,-454,-610
-33,-107,19,6174,3649,3108
-28,105,-44,-2444,-593,-1472
63,-40,47,-4245,-1794,-1798
89,22,68,2286,2973,1221
54,-77,52,-2238,-289,-1475
107,-16,-116,-662,631,-440
111,-56,-121,-556,131,-475
-128,-60,-124,-22,0,95
112,-48,-70,-642,-660,-142
111,-20,-93,26,-238,115
83,-14,-73,99,-420,20
74,-27,-40,-197,-682,-97
73,-34,-40,-243,-782,-66
77,-33,-58,561,-37,254
75,-48,0,45,-408,135
75,-45,-9,-125,-203,-11
78,-36,-13,17,69,39
75,-48,3,-542,-274,-273
97,-38,-45,61,372,23
100,-39,-15,-548,-51,-298
112,-23,-39,-490,103,-273
-124,-11,-51,-477,114,-313
-113,-2,-54,-504,75,-364
-102,2,-68,-310,203,-327
-85,2,-66,-491,27,-356
-82,0,-54,-544,-145,-336
-71,0,-82,-171,10,-122
-80,10,-70,-192,-74,-118
-82,7,-58,-265,-222,-167
-82,8,-55,-209,-189,-96
-89,4,-36,-594,-591,-257
-77,20,-83,379,326,249
-100,9,-26,-453,-381,-210
-88,16,-52,-176,-63,-29
-89,19,-53,-143,-80,-81
-89,20,-48,-124,-33,-71
-80,10,-52,-160,-29,-121
-79,13,-51,-68,20,-73
18,-64,-97,12401,17265,4640
-75,105,68,-756,7553,-7659
-1,60,74,-6716,936,-13065
-37,-111,-47,-9958,939,-10283
87,-10,-100,-22478,-8424,-10113
19,-34,-113,6763,2430,4348
-4,62,-110,14983,-758,-226
-49,123,-53,8510,-5949,-2085
-4,88,-115,17125,4643,10890
-126,112,71,-21253,-315,-5484
-63,104,106,525,-346,-7306
-16,110,-89,-11184,-6926,-817
29,102,-12,-19093,-4609,-10001
-39,-99,-66,31272,1861,7750
126,-111,-68,13361,11128,5130
116,-49,-82,-27690,-4211,-6213
-17,-84,0,23096,15037,1537
-56,-66,-65,-11074,-5743,-20721
-103,1,-70,4722,12196,-9959
12,-20,119,-9302,2451,-11073
-10,-116,-44,-29484,-9365,-6780
-102,-20,99,24385,5923,10172
104,101,4,14741,-1474,1351
-2,-101,34,14058,4035,7200
27,36,-124,1488,771,11875
-83,-4,-50,-12949,-2155,-8229
-37,45,121,11607,8187,-2054
-13,-18,40,-8913,-4635,-10783
-94,-51,44,-12094,-6556,-4221
-115,54,56,-12285,-1888,-2805
114,10,-2,8561,-3002,158
121,31,-111,11954,-8884,-3613
-73,36,-99,21726,-1531,6981
9,108,52,10832,14669,22595
17,-15,94,-22616,-23423,-7798
-71,-110,-54,8762,-2012,1387
-33,-35,-54,11775,5103,8781
-96,-80,121,-13819,-10941,-6008
40,-22,-43,-3485,-398,-2175
20,-111,-91,5672,7475,2941
-94,67,74,-5464,-2773,-2878
15,-66,92,518,530,326
68,-63,-35,-1063,-45,-350
99,-16,-83,-605,415,-366
99,-49,-126,-558,476,-380
84,-49,113,-362,-53,-298
61,-57,-122,184,-524,-222
60,-55,-56,-81,-715,-358
54,-50,6,-1222,-1103,-833
78,-51,-60,229,167,-173
79,-70,-24,-219,-198,-134
64,-55,-30,-187,23,-173
74,-51,-25,102,55,-5
91,-53,-20,-587,-225,-214
102,-32,-58,-24,238,54
102,-24,-53,-359,-51,-131
111,-22,-55,-516,-219,-221
115,-13,-62,-407,-225,-116
110,6,-77,58,102,-60
117,-12,-41,-635,-451,-368
-126,-5,-86,5,153,16
-128,-14,-54,-347,-200,-202
-114,0,-58,-271,-19,-136
-116,-8,-65,-111,17,-227
-101,-9,-57,-497,-368,-246
-99,-10,-87,50,50,41
-110,-12,-50,-314,-226,-96
-107,0,-77,92,94,55
-108,-6,-45,-451,-364,-236
-96,2,-58,-243,-64,-103
-106,6,-51,-464,-148,-266
-94,3,-74,-18,86,-24
-88,4,-57,-354,-49,-166
-85,10,-75,-134,8,-157
-70,8,-65,-317,-96,-152
-73,11,-71,-202,-31,-138
-73,13,-61,-416,-248,-270
-67,13,-72,-153,-34,-118
-61,10,-77,109,194,5
-66,4,-47,-308,-130,-165
-4,40,-27,6664,7233,2067
91,51,-23,679,7642,-8208
-122,105,-11,-999,6769,-7441
-99,2,6,-6025,2918,-11787
44,-44,-63,-13825,-1213,-8188
4,-1,78,-22006,-11018,-8487
31,88,104,15530,4965,5853
-31,5,89,16652,-2862,-826
-8,85,18,5531,-8465,-5245
50,-82,98,21734,15806,17762
123,-121,-78,28789,-11203,-14742
-43,-75,51,4521,2671,3675
114,124,99,-12398,-8803,-3985
-82,89,-115,8794,-1906,-3466
58,-57,-127,21902,4827,5263
-97,-39,-68,-31336,999,-5585
-97,-46,21,15477,14597,157
-89,-66,17,-3852,-4118,-18096
69,96,-39,5794,12385,-12168
-122,65,-77,-4468,2620,-10122
-126,-73,26,31398,-12058,-9617
-111,-1,-108,-29366,6484,6425
54,49,-45,27768,2643,6971
-62,98,113,-4662,529,12434
-92,67,-53,-9223,-3410,-8138
-43,6,-54,4034,5747,-2498
35,-36,-77,-4349,-1126,-5750
108,-69,111,-13117,-10135,-5238
88,9,84,-8557,-1622,-728
92,101,-108,10188,-5752,-1444
-51,24,28,15957,-8836,-3293
25,63,-38,20183,8830,18989
109,23,-102,-19189,-8545,-555
40,-42,119,-2508,-14248,-5161
-75,43,-29,12562,1530,3446
-114,-41,67,9691,6583,10613
-74,55,78,-11429,-8898,-7481
60,4,-35,-5161,-972,-4097
92,-83,92,3166,6088,2208
-48,101,36,-78,1979,-386
5,-25,19,10572,19901,9892
-101,-4,38,-9607,4403,-10662
-23,-126,68,1338,7202,-6633
-20,45,82,-5880,4954,-8428
99,-108,-125,-11297,378,-9235
100,-70,54,-28751,-16113,-15705
-26,51,66,31042,13758,16521
-57,-28,-18,939,-11296,-7959
87,-26,124,13954,-6206,-7977
-122,19,87,28547,-26583,-26945
113,11,54,-30035,-20854,-20982
-122,-67,40,8472,8634,3142
69,58,-22,-26812,-20313,-7748
27,95,73,11806,2005,-11338
-40,-64,113,20253,2541,10560
-5,126,-95,11311,14077,16741
-118,-45,52,-17690,-7087,-10841
-62,98,-86,10822,11814,-3573
-68,-90,41,-2166,1097,-13511
115,-28,22,4344,8620,-10686
-46,114,-124,-1892,5215,-12920
104,9,-72,-20425,-8348,-8384
-69,3,-72,-8822,-1006,-5360
99,-12,-50,27963,7057,13229
115,-124,-96,12658,10814,7006
120,-128,-28,-3751,-5868,7352
-77,111,17,-5040,-1400,-4588
-48,84,56,3115,3914,-3312
-94,12,-84,-3716,-1750,-6800
-121,77,112,-10596,-7478,-5174
108,21,-6,-10111,-3451,-2466
94,-115,90,7566,-2139,-779
-6,-59,66,12917,-6939,1284
87,-52,-106,14414,-1590,11528
-114,86,-119,7826,9859,15414
61,127,-121,-19666,-15091,-2463
7,-37,39,-1081,-9719,-2896
-92,42,-83,9750,-992,2504
-91,-105,25,11078,7807,11070
23,96,92,-12697,-9032,-8343
19,-53,108,5123,7110,2659
-123,66,-69,-514,1402,-1538
-37,-116,-120,-4728,-2079,-2932
93,0,-81,-866,874,-450
-127,-1,-37,-1091,791,-936
-111,25,-67,-854,875,-841
-102,4,-93,-926,705,-851
-121,-16,127,-569,362,-733
-116,-8,-114,-1180,-619,-782
-94,-10,82,509,4,279
-73,-18,-104,932,-49,606
-62,-3,-36,1136,-86,1263
124,-24,18,9,-958,532
99,-51,-15,594,-332,595
102,-62,52,-644,-1063,255
121,-50,-20,213,-308,753
82,-57,7,-399,-852,538
63,-37,-30,-134,-682,706
26,-19,-7,-421,-1105,484
-6,2,-10,420,-626,698
-69,-44,16,-159,-556,-184
-7,-3,62,-866,-289,-322
52,23,5,-816,820,-598
92,-3,-62,476,2441,-610
-114,-9,22,-1372,935,-1495
1,13,-56,-787,928,-998
10,-16,-62,-528,608,-845
-1,-38,-68,-536,207,-702
14,-21,-52,-688,-143,-484
23,-9,-63,-567,-357,-271
8,-1,-77,-37,-193,145
-5,-4,-64,-39,-355,373
-23,0,-65,-35,-580,417
-35,3,-63,163,-796,700
-59,16,-33,-195,-1114,561
-67,23,-67,1151,102,1185
-114,-8,14,173,-319,569
-115,-19,-23,532,529,710
125,-51,-4,-175,-30,53
-89,-71,-8,452,540,367
44,47,114,9719,15188,5322
-74,-62,-9,-6227,5728,-8231
-123,109,37,-2283,4825,-9921
36,-119,73,-8228,1078,-8870
116,7,-89,-12970,-2038,-7108
33,127,34,-12689,-4107,-5901
-71,21,44,7923,3116,4947
85,-61,-91,7555,-4123,-1513
78,-40,-127,7721,-5553,-1480
123,42,122,10625,-5034,2553
33,110,-85,-21436,7548,30336
-25,-40,-47,-12249,6033,-20895
102,-24,-38,-12522,-1629,-10926
-75,68,20,28900,-24440,-14378
-16,-105,-31,-26626,8263,8461
-90,-52,-95,16134,-2964,6594
9,121,74,4098,3234,11159
27,22,115,-20044,-4395,-8688
93,-114,-100,14807,4604,-8436
27,105,76,-5307,5887,-12909
99,74,47,-911,6876,-15283
-93,12,73,-25550,-7504,-7972
41,6,119,4474,5985,5470
53,-36,77,22557,2129,8157
-14,103,-93,2253,-4452,2740
14,-64,8,8632,167,4309
-65,118,13,-21667,1698,-3039
-72,44,-2,6728,6809,-1823
-20,122,17,3129,462,-5517
-34,-86,-30,-10922,-7590,-7415
-83,-48,5,-14686,-6969,-5254
-74,13,-119,4071,-2724,-937
100,18,-18,8978,-7369,-1153
101,50,-83,16520,-5646,663
114,66,-46,15777,8719,22766
3,24,12,-23997,-9435,-1527
45,112,6,-1743,-14770,-2914
-77,89,-83,8978,1369,2890
61,64,51,6366,3147,7706
48,92,86,-6972,-4979,-4411
