AccX,AccY,AccZ,GyroX,GyroY,GyroZ
44,97,-70,4372,5761,1192
27,-22,-95,-2603,2670,-4075
-89,86,6,3345,5884,-2189
-6,-113,58,558,2346,-6021
-6,-4,62,796,3105,-5909
122,16,55,749,1568,-3997
103,53,2,-1513,1753,-3239
68,-57,33,10735,15161,9369
-96,27,56,1699,6747,-1100
14,110,-27,-13686,-2481,-3191
-105,-127,-9,1333,2237,6264
-60,10,-122,-7147,-1468,-1063
85,-106,-111,1457,-590,-4401
-83,-83,-7,6036,3223,4826
-117,-16,-61,-3800,-1501,-1736
-113,-76,-83,630,161,-515
103,39,45,2087,-2381,-3106
7,-90,122,-11157,-9634,-8615
-30,-55,-125,-8289,-7065,-8975
-15,-8,81,-8873,-6210,-8282
89,-63,-123,-3578,-3328,-6826
115,-37,53,10677,70,-2061
-89,-12,13,13295,-1171,-3314
72,34,-60,11054,2448,6368
-68,-26,-106,-317,-3726,2618
-63,-125,117,1488,-4464,311
85,-81,-98,8809,2606,2840
-59,-83,-114,-1808,-637,-1570
12,-56,-103,-8638,-2059,-2668
31,48,87,-2144,53,-62
57,-34,-95,3066,2199,1170
75,-34,88,1145,776,678
84,-41,122,-1179,-286,-333
122,5,26,-179,566,122
126,5,46,-289,237,-62
-117,24,71,-104,613,82
-125,4,65,-1450,-191,-444
-107,16,-52,1019,795,577
118,6,48,-244,-254,-181
-114,27,54,-117,-75,-55
-2,71,-63,3671,6518,1161
-36,99,-124,4250,7225,78
57,66,-73,-2726,2400,-5730
-19,127,-18,3556,6532,-4844
35,-85,22,2216,5122,-4719
117,26,42,-4230,-369,-5065
24,39,-1,7173,11029,3620
-72,59,-62,8716,11835,4709
-117,-32,121,-10811,-4241,-2794
-105,44,-106,-9974,-5059,-156
22,-14,-107,-2699,1225,-2004
-34,-80,63,9530,2262,2979
-29,28,-30,-2711,-386,-127
125,57,62,-882,93,26
109,79,45,1029,504,27
-97,58,-125,-1710,-2159,-1904
113,-91,-63,639,-1640,-1971
99,-67,79,-8086,-8686,-5043
-52,-41,-25,-12893,-10453,-7995
-97,-56,-3,-3066,-7541,-9166
-8,11,-49,5971,-5104,-10523
-97,113,-70,3613,-1638,-3015
52,-57,87,9900,3996,3410
-101,-91,99,5384,-1104,1918
4,-121,-108,1443,-1995,-243
-114,37,81,5394,3800,1095
17,-53,-58,1016,1629,660
-6,-121,-108,-7248,-3589,-1965
4,-50,66,-1126,-699,-183
53,5,-42,5512,2916,3040
5,-51,-2,-1427,-238,-366
40,7,-125,-1322,-307,-316
83,22,39,78,818,457
88,30,33,-63,709,370
82,29,46,-564,39,-129
105,36,0,236,425,187
111,26,31,-277,-127,-198
120,30,22,106,90,-5
117,24,36,28,-15,-98
123,15,39,222,160,-5
-97,77,88,4918,11677,2690
22,-81,-53,2664,4741,-3612
-121,-64,-20,-1976,4695,-5634
12,-121,-18,1304,5154,-5202
96,-77,94,2394,4982,-2866
114,-110,-47,-42,2237,-1460
65,82,-37,571,4715,2152
112,93,-45,3215,6271,4499
92,24,-90,-392,4154,3882
-2,-101,39,-5846,569,2176
118,-10,109,-8918,-3661,580
58,113,88,-2710,696,-1180
84,-42,73,12977,1537,1016
-39,104,107,-3503,95,1177
33,99,52,-4606,-996,-1476
3,75,20,4748,-285,-1960
107,93,-23,-8196,-6392,-7563
11,-115,92,-10335,-4699,-8407
-17,59,-15,-5041,-2765,-8094
20,-31,19,-2279,-2107,-4234
-91,-23,32,-1493,-2079,-4599
-115,113,-89,6834,77,-2281
-99,112,-65,12677,315,-814
118,-27,-42,11143,3682,5601
32,-116,97,-2175,-5736,1909
-77,-18,21,-802,-6217,-1459
7,-111,124,6594,1055,2663
107,24,42,3200,923,1906
-37,-109,23,-5474,-1684,-2655
26,-12,33,-3767,-1621,-338
49,-17,9,-992,457,168
24,-24,-42,2744,1723,1584
9,-40,79,1229,471,508
47,-19,-109,-469,-243,-322
100,-23,77,5,340,46
114,-28,40,126,500,114
104,-35,52,-189,27,-135
121,-30,29,47,122,-42
-128,-31,42,125,112,-33
-117,-32,51,-71,69,-24
-118,-100,-19,9472,13114,4404
-70,76,6,-9224,-916,-7107
-75,77,-93,7056,11098,-910
-17,61,99,-335,3479,-7043
24,-107,-100,-683,3538,-4715
-97,37,-89,-2003,3250,-2245
-88,80,15,5469,9373,4227
71,-93,-115,7193,8570,6174
83,41,91,-9319,-1606,-1770
98,47,-62,-17798,-6424,1577
50,-45,-93,13497,989,-2004
-7,-7,-5,2350,2130,3598
32,30,-17,-3791,-1368,-1689
41,-121,-31,4072,1461,278
53,-127,-89,1140,-335,-1567
-36,-83,116,-1121,-2049,-3046
14,-21,-85,-5575,-8674,-6447
28,-28,-2,-17306,-8218,-7731
-114,20,-59,-1721,-5111,-7074
121,-102,-106,-1581,-3931,-6335
62,82,-68,5678,-3457,-8103
-93,-119,-8,11962,4684,-1437
50,105,-81,9426,3410,5428
-76,115,-107,-369,-5893,-155
48,-47,89,936,-4364,-678
-108,81,90,6981,4675,2443
-57,-84,44,-1900,738,-827
-37,-32,-121,-7796,-4661,-1543
-79,-15,70,-2333,-1581,-590
52,-3,-112,6383,4364,2239
44,-38,-68,-671,542,462
64,-12,96,-2636,-638,-1030
98,29,-49,1658,1516,1188
57,-2,93,-1323,-353,-436
94,22,25,-229,13,27
100,11,-3,451,546,291
94,11,41,-231,-95,-72
105,17,24,9,-37,-40
117,8,19,271,109,105
115,9,28,339,145,120
106,-24,69,1220,8459,3167
-41,72,-125,4329,11597,3127
-47,-9,-91,-9774,511,-5915
-46,-23,-23,-517,7754,432
27,-112,-87,-1101,5531,428
-39,101,122,-4266,1212,1764
-18,61,64,3212,10156,6550
80,-61,64,15881,12176,8383
120,100,-103,772,9493,858
-38,-28,119,-16107,-6610,-1865
-28,-111,-104,-13086,-1129,-2018
115,63,56,10845,2303,5447
-29,102,23,859,375,-1464
61,-121,-96,-2640,-815,-1000
-11,-19,80,3149,612,-340
4,46,35,-3755,-3448,-5475
-1,94,49,-4363,-4394,-6898
-88,-101,-56,-8980,-5061,-8227
-120,16,-64,-7383,-3851,-7131
30,-35,-68,-5632,-3620,-6305
-61,57,103,1830,-704,-4136
-32,88,48,15965,497,-813
-123,-52,17,11169,3696,4932
80,-85,57,6109,-937,5769
98,-10,104,-4311,-9509,-2303
18,91,77,2802,-1330,456
66,55,101,3196,121,2683
97,-47,-116,312,-557,227
62,-61,8,1029,1230,412
32,-79,16,-1995,-690,-320
41,-90,121,-1989,-994,-808
80,-88,-27,1195,963,528
93,-105,41,1089,635,358
102,-80,90,-328,-61,-115
-126,-86,33,22,294,-103
-113,-84,8,135,459,95
-113,-79,6,-284,50,-98
-107,-78,-13,115,200,61
-106,-69,0,89,213,19
-104,-72,22,-294,-124,-128
80,25,-32,3952,9396,1582
-78,59,-118,-1935,4752,-1927
58,-33,103,-2757,5939,-3047
-28,-111,-76,-3540,4792,-4709
82,-53,-95,304,5956,-1767
40,107,44,-4849,2850,-842
55,61,-37,1046,10573,5408
-6,-20,19,22587,16573,15750
-80,89,3,-5120,1521,-4272
-102,17,57,-23040,-13401,-3684
83,-95,22,-1980,1164,-558
-71,-99,-67,11970,4430,8419
-49,-12,83,-3587,-2722,-4380
-69,116,55,-2837,-577,-1049
104,-74,17,4115,1449,1707
38,120,-59,-1858,-1413,-2596
105,-33,-111,-4234,-3370,-4206
-10,95,101,-5313,-5083,-6448
112,-59,60,-5966,-4718,-7016
55,-1,-22,-4903,-4033,-6615
-72,-110,-14,-2251,-3836,-5211
64,-17,-26,-233,-2909,-6004
-118,66,83,12433,187,-3663
-102,112,-27,15173,8544,6069
-101,59,105,2223,-485,5600
105,-24,70,-6484,-7556,-2204
-105,-72,50,6522,840,2298
112,48,104,4352,2130,1797
0,-85,-78,-1724,-80,-1096
38,-13,-22,-2363,543,64
23,-32,107,-799,192,-25
32,-83,51,-295,-383,-238
80,-63,23,1349,993,600
99,-68,-128,-560,-75,-103
-114,-40,49,583,1071,201
-99,-48,90,-418,354,-308
-75,-52,41,-431,296,-225
-65,-51,15,-206,148,-104
-62,-48,8,-94,42,-12
-76,-34,22,7,-36,50
12,-34,-99,4835,6929,-865
25,-100,-111,-8103,2052,-7510
16,112,-45,-5055,3680,-5370
91,-38,-49,-4640,1900,-1965
-90,-61,-10,-3359,2057,2542
5,-5,-77,-439,4198,4219
117,-87,94,14876,12396,15679
-50,3,-105,2298,5652,251
122,51,-69,-9809,-4638,984
29,-65,-98,-6162,-672,359
17,59,-73,8620,2494,3199
2,-125,-15,-1014,-806,-1868
96,-78,70,-842,-143,-303
68,-15,43,748,-505,-2891
-56,101,-81,-3434,-5392,-6921
-104,-61,-57,-12749,-6957,-9096
45,-91,-109,-6917,-4372,-8275
-50,-20,86,-1418,-2606,-5209
92,-34,85,2022,-1412,-5880
-108,33,82,14048,-937,-5452
36,-94,118,15124,6281,6257
-61,43,115,2357,-2358,5446
-119,-81,115,-5463,-7171,-3212
-42,-92,87,4243,612,2168
110,12,109,2980,1590,1369
-4,-57,88,-1019,769,-412
10,-34,-36,-2662,-336,-272
9,-60,90,-1399,-1098,-301
42,-50,-34,2696,1507,884
52,-68,-120,157,-26,36
73,-55,115,36,265,16
103,-68,77,11,380,-119
125,-73,62,-339,277,-130
-123,-70,22,336,421,180
-128,-73,67,-808,-457,-355
-103,-51,-1,514,467,329
-120,-53,46,-197,-33,2
-112,-44,23,70,114,104
-121,-41,32,-115,-79,-8
-117,-32,13,302,152,118
36,59,48,-8296,1466,-3673
-84,-67,-53,7460,10798,728
34,95,-117,-405,2517,-8815
127,2,24,863,4218,-3520
118,-124,101,-6021,971,-2265
8,56,116,5040,8801,10306
83,65,122,713,6051,3991
-3,76,26,-5237,-1434,3764
24,-113,53,-4969,-294,2878
-3,-85,103,-10149,-926,-3953
-34,-34,-28,16731,1804,-352
-89,-117,127,-5306,526,2591
-56,-76,-120,-4170,-1802,-3714
-108,-45,108,4458,-3142,-6638
-29,-36,110,-6315,-5566,-5940
106,-109,91,-7798,-6316,-7465
-119,-117,-104,-4505,-6689,-6669
-42,81,110,-7337,-5390,-8627
2,-113,-97,9360,815,-4714
53,-119,-20,26303,7583,3333
-79,27,-112,5738,1755,12460
-110,72,-108,-13296,-15440,-7354
-12,21,-117,7520,2174,2143
-67,-87,105,8124,4383,4045
-24,-74,-76,-3056,-2032,-1888
11,-39,121,-6399,-2402,-1508
16,25,69,-2780,484,304
-12,-36,-71,1909,1624,1208
-2,-45,48,1549,1007,370
39,4,110,891,894,482
74,-13,-125,-1702,-357,-829
-128,-9,-13,829,937,340
115,-25,66,-451,26,-193
-114,-31,-6,388,472,160
-127,-32,56,-172,-106,-39
-118,-20,27,245,204,199
110,-16,57,-124,-161,-38
114,-10,68,-204,-161,26
110,-2,54,-209,-126,-61
119,-2,30,482,284,102
-102,96,36,8230,19773,4386
42,-31,-19,-11180,-6350,-10498
-53,-3,-79,-325,6205,-4186
-3,-45,-62,-6307,1082,-5176
-12,31,2,-1912,3634,120
16,-79,-3,-4252,2406,3219
-78,32,-51,4679,8064,6530
102,-41,96,3319,6536,5663
-108,-15,23,1888,2333,5797
124,40,53,-4395,685,2723
63,-63,-120,-11789,-5914,2697
-117,-106,104,14714,1176,-1120
103,-39,11,-119,1473,607
82,95,4,-6304,-1202,107
-91,21,11,5023,1130,-1808
0,-104,-9,-4665,-3796,-6944
13,20,-113,1075,-3130,-7714
51,87,-65,-9762,-5827,-6447
59,-56,0,-17596,-5941,-7953
48,-77,31,-1904,-2536,-9656
-43,-115,12,11316,2408,-1542
-43,-80,-88,16185,261,-3109
-91,36,-123,13315,4820,6056
-126,-26,124,611,-6220,1417
-93,48,75,-366,-4869,422
-10,-1,-11,5615,-175,2355
63,-68,-116,1983,-1071,-578
101,90,8,-2492,465,-1035
47,-63,-84,-193,3977,1870
-24,-113,-8,-3349,-1011,-1037
32,-94,60,-1806,-641,-359
92,-29,-72,2616,2294,1196
91,-96,64,-967,-127,-471
123,-63,-43,999,866,404
124,-75,53,-624,-328,-339
-113,-70,-1,50,136,-49
-125,-61,50,-459,-269,-220
124,-49,83,-1058,-652,-393
-128,-45,67,-910,-279,-263
-127,-42,38,-709,-281,-204
93,-5,114,1673,8079,2632
-74,48,89,398,10348,2162
13,-69,-126,-9267,670,-6233
-22,-87,5,-5534,5148,-4023
-52,-35,64,-6714,417,-2214
25,-26,81,-7777,-4064,2401
82,-30,20,10026,10063,12665
3,15,108,522,5630,8432
-62,74,66,6200,4313,6963
-101,13,-121,13905,12147,11498
113,-121,-77,-17781,-7733,-6454
-32,24,107,-16782,4001,-6395
74,-64,-12,21056,7020,9362
-99,123,105,-5019,-4750,-6785
96,-3,22,-5009,-623,-3573
-107,2,117,1084,-4143,-6214
90,104,124,-13453,-7901,-7737
96,-115,-103,-9973,-3178,-8755
60,70,-95,-3950,-2607,-5823
-4,64,-74,985,-484,-4803
-52,-112,-83,10237,900,-3293
-118,49,-24,12178,1933,-4937
84,114,-72,6890,-875,2982
-8,60,91,3652,-2076,1361
-102,83,98,2265,-3526,856
-39,-104,-79,5431,2369,2933
-41,-42,78,-46,252,-1046
48,-119,-72,-3237,-1459,-768
52,-116,82,-1796,249,470
15,114,6,1615,1570,806
29,77,124,37,-423,-372
127,-116,123,-195,159,0
-106,-100,101,-282,622,134
-108,-91,90,-892,218,-136
-90,-70,16,-319,589,135
-99,-47,35,-509,287,-37
-99,-44,28,-672,7,-228
-88,-39,0,174,457,161
-106,-35,35,-120,43,-96
-96,-38,36,-121,-119,-126
-34,24,-70,-1251,5878,-3643
-124,13,96,-374,5252,-2858
-4,44,-128,-2319,1052,-2110
112,51,-61,-2624,2776,1761
-2,21,8,3522,7702,6326
-63,-76,85,896,7010,7405
-45,-101,0,6269,4781,4986
-116,107,71,-7074,-2251,398
-70,64,-44,-14440,-4180,-1324
123,-120,19,17270,3933,3314
27,-18,44,836,1447,842
56,-121,-21,-8684,-3213,-3091
73,43,119,7191,374,-3005
-54,99,0,-1876,-5502,-7233
-70,92,-50,-11889,-6693,-6996
39,-85,-126,-3646,-4563,-5967
-38,11,-83,-3480,-5747,-5572
43,116,49,-1163,-4866,-6138
-72,87,-4,13792,389,-1788
65,20,100,18098,7434,3745
59,124,-111,606,-2734,6477
73,79,38,-7836,-9624,-5270
38,-83,-35,3863,-514,1511
-36,-118,16,7294,3965,4151
11,-56,19,-589,-918,-1122
49,-98,91,-1666,40,-731
88,-96,113,-953,1553,483
65,-105,82,-347,463,398
50,-116,41,309,328,-1
100,-81,76,335,382,232
126,-79,75,-791,-62,-395
-90,-76,6,215,602,142
-90,-81,16,-65,419,-56
-83,-91,1,217,380,0
-89,-86,39,-258,-174,-164
-77,-84,3,293,132,53
-92,-79,49,-137,-206,-89
-88,-72,33,112,6,71
-94,-60,41,117,119,47
-94,-62,63,-155,-141,-78
46,-31,-57,6800,16113,3212
122,32,126,-1740,-648,-7323
87,67,56,3229,6501,-6360
-115,45,99,-1716,592,-8859
-57,-106,94,-987,1597,-3544
39,-52,-124,3344,7989,3283
115,-60,46,6190,9152,4823
58,-44,108,-3209,1785,1172
106,-50,-21,-6071,418,2603
-87,47,-45,-13999,-4297,2283
21,7,-73,9925,811,-1868
26,-63,-41,725,850,1261
-124,-114,98,-1511,-674,-1304
97,115,87,1706,-1057,-3515
54,101,-55,-5690,-7164,-9284
-22,38,38,-9615,-7205,-6660
-21,55,61,-9454,-5748,-5700
76,-107,40,-225,-3125,-6026
54,8,-61,6305,-2788,-7852
60,79,7,10802,3662,-2071
-59,-48,39,4803,238,2175
-17,62,-47,-176,-6843,-2286
-34,101,50,1270,-3811,-1857
39,98,-97,4958,2817,1896
94,-67,-7,1607,2386,658
33,-44,110,-1759,675,463
-56,-10,-42,-2286,-1077,-37
-76,-34,51,-412,-779,-268
24,-4,29,2916,1886,1140
44,-3,-46,-1208,-314,-157
62,28,64,468,1073,502
61,14,67,-399,238,48
73,15,40,-1,418,100
103,9,9,661,781,264
100,19,53,279,486,234
93,4,54,-31,71,-119
115,-4,54,-146,-304,-121
122,4,24,543,269,187
114,-1,61,215,-35,-16
118,-7,75,-117,-240,-140
-101,44,111,5831,13261,4850
96,-93,-87,-4969,447,-7144
-4,-3,-25,-2748,6559,-5611
47,-128,8,-1111,4422,-3577
-5,-59,-50,-6110,-812,-2974
71,92,15,1258,8839,4496
125,96,23,11759,11575,8999
22,-7,71,-1798,3667,765
103,-52,-118,-9409,-3492,1293
118,23,-9,-11113,174,3776
-98,-55,-40,11544,420,746
79,53,-45,-4172,-1632,-3014
-97,-86,-27,3572,1854,1489
-48,-8,-54,1914,-140,-2699
-98,74,-2,-5559,-5566,-7973
-46,118,-48,-6438,-5028,-7740
-64,-85,28,-5261,-3864,-4800
-22,41,-10,-7017,-5499,-6429
-118,-5,97,-1457,-2375,-6245
-44,24,59,10317,-899,-4481
-65,122,-39,12532,5370,2420
6,107,46,7694,693,5677
-75,86,103,-3767,-10072,-2304
-111,-25,-74,746,-6754,-3644
55,-36,-12,8851,3417,2644
76,0,27,4312,3668,1405
20,81,73,-5856,-2671,-2746
30,-81,-27,-4477,-2645,433
-72,91,-83,2845,1431,79
69,74,91,1859,1255,40
108,-96,-72,-341,712,714
53,-87,95,-1239,452,-235
77,-66,45,-1118,244,-44
78,-46,32,-1480,-240,-348
127,-11,-44,216,831,530
-121,21,41,-508,43,246
-125,40,6,57,664,332
86,12,4,-244,217,63
79,10,24,-871,-399,-276
112,23,-45,480,374,177
76,-46,13,-2361,9284,4804
86,-107,-87,4959,13248,2465
126,-29,8,-7352,-248,-10290
123,59,-35,2400,8791,-1752
-33,-113,-99,-938,2014,-3354
84,-3,-6,-4908,-2962,-149
117,-46,-21,11300,12830,9168
8,50,108,-2720,8309,2669
5,70,-117,-9995,-6470,3370
-18,-42,-15,3500,3443,4148
-37,90,-109,-3532,-1075,-1439
94,41,-33,1989,-1671,-3010
-42,-49,59,3559,2354,2643
-11,17,26,-1121,-2485,-3967
-23,46,-78,-3340,-3520,-5662
-67,2,-26,-3369,-4062,-6301
123,-31,113,-2998,-3844,-2639
-49,-126,88,-4454,-5999,-3543
64,57,121,-1139,-5590,-3266
26,-70,-71,6928,-6462,-4701
-44,53,23,10542,-463,-1502
52,7,-25,10815,615,8942
102,45,115,-8062,-10089,-4736
-19,-107,9,493,-6707,-2632
43,107,-25,12291,6642,6644
-103,34,67,4562,3152,437
-67,124,-97,-8295,-3437,-4748
60,77,-68,-7860,-3871,756
-90,-68,107,1948,1396,-294
34,-79,-45,4937,3282,1193
72,-29,-40,-1367,53,190
71,-10,106,-1539,-54,-406
90,3,-25,369,1011,416
72,-6,2,-413,35,-16
90,-7,-16,118,128,-43
111,-21,18,54,-16,-112
-128,-16,21,159,190,186
108,-19,38,30,53,-35
107,-18,46,76,17,8
115,-23,49,-46,-60,-2
-7,45,-49,6321,6858,1051
87,-91,-110,-7513,-3674,-5672
11,119,59,-1285,6678,-1604
41,65,84,-4635,4546,-6837
0,12,-114,-4086,5923,-3942
-53,-104,-107,-3316,867,-3616
-39,21,-12,-6353,2442,-1655
-54,-37,-12,12133,14063,12962
30,20,-44,-4243,6663,-341
-83,68,116,-4687,995,6803
-75,-6,95,-2945,-38,5183
100,82,86,-19083,3360,-6099
-117,52,86,22318,1048,223
80,-14,-101,-3404,893,2781
-69,-88,-9,-8558,-2731,-3206
43,105,-22,3485,-2031,-4669
-11,-56,118,-9545,-6879,-6767
42,55,60,-10362,-5365,-8432
-21,117,-105,-5521,-4541,-5505
112,106,-95,-2963,-3648,-5893
90,-127,79,2679,-656,-6072
-85,-87,67,18520,2017,-3396
-4,63,-54,11253,3724,7018
-107,42,108,1468,-5394,2456
-86,-114,74,-2266,-7641,-3613
67,-98,50,7463,3181,2385
71,41,-26,4396,4274,2153
-35,97,72,-5128,-3079,-2972
63,-115,0,-5269,-3764,-58
2,-87,68,3928,3009,950
64,117,87,1741,1751,457
59,-126,-32,-2748,-987,-815
-124,-71,-25,107,873,391
-123,-69,6,-118,689,311
121,-56,-14,138,730,322
112,-48,14,-419,58,25
-116,-38,-22,-12,289,140
-120,-37,-16,290,248,158
-116,-48,17,-109,-81,-74
-105,-58,2,218,145,99
-19,50,-96,-1825,5639,-4833
29,115,-1,213,7690,-4467
14,103,71,-2648,1352,-4819
-51,-101,76,-4435,-1808,-1777
65,49,-95,113,3073,2804
127,3,-110,12215,13990,9426
-86,-18,36,-5745,2688,121
109,-112,-83,-1892,207,4867
-66,-64,-102,-5267,1523,2513
91,66,118,-11085,-140,5333
36,-5,-113,9254,-510,-2710
103,-18,90,656,113,193
71,-58,-83,-2311,-271,-430
-54,42,23,3639,206,-2994
-92,124,-54,-2765,-3639,-5736
95,35,5,-1214,-3950,-6151
126,5,-101,-6512,-6318,-5747
-11,61,-52,-5866,-5543,-6628
-61,21,91,-1937,-3715,-4922
-2,105,-19,12423,1181,1156
-11,19,-16,9936,4735,3234
-46,71,76,2843,-885,5544
42,124,53,-1362,-6111,1090
-119,-48,-128,2340,-1796,2322
-76,89,-121,2109,-1084,1722
110,82,110,900,-970,1805
0,-7,33,441,-479,576
10,-47,-7,117,249,-63
42,-77,-56,-721,214,-244
64,-99,127,-1166,-95,-126
88,-94,33,1178,1504,460
111,-114,118,-120,289,-145
-112,-92,82,-96,448,-138
-76,-103,71,-505,196,-247
-52,-99,23,39,491,82
-64,-88,45,-216,101,-24
-62,-75,35,-215,51,-26
-67,-63,34,-149,42,15
-73,-55,25,135,168,145
-81,-52,54,6,30,45
10,55,68,1234,8972,1044
36,-53,98,-2795,4166,-2046
-22,-26,-99,-2667,5646,-4740
35,26,29,294,7217,-4122
-124,-98,117,-2950,2660,-5799
7,-91,53,-6079,-1930,-1233
-5,-20,-29,-4778,-312,3409
-67,123,125,14452,11425,13011
20,-107,-57,811,4459,3503
-50,24,100,-6308,-1238,6255
-64,-100,-38,-13051,280,3544
30,108,-61,15756,-3412,-5431
98,-101,-18,-2605,1634,2899
48,-90,-123,-5084,-1187,779
17,-17,-45,3021,844,-2792
-73,84,-59,-4267,-3743,-7575
-113,-43,-34,-11187,-5370,-7935
-28,-39,-66,-3275,-2985,-5552
-95,61,44,-6286,-5787,-5071
16,-57,-111,-2680,-2698,-6961
-101,41,32,11853,710,-2114
121,61,-45,16544,7679,3460
122,-125,54,3080,-1231,7345
28,87,69,-4484,-9581,-3914
6,-46,118,4684,-76,2104
-69,78,-42,1777,-126,1770
0,-11,-54,-26,-708,-298
31,-83,18,-739,441,-257
30,-53,-61,-1307,98,124
10,-61,94,-1227,-427,-257
43,-74,19,1590,1072,421
76,-73,87,1019,968,481
103,-74,111,-295,372,-39
119,-63,73,-202,360,-33
-122,-55,70,-611,-37,-162
-108,-46,17,116,572,90
-111,-55,44,-368,67,-91
-114,-42,24,-153,67,-19
-107,-26,29,-115,118,-71
-104,-23,27,-14,113,12
-126,-4,63,4434,8866,1894
-47,81,100,-5225,388,-3730
-40,48,99,-2875,5792,-2701
40,-100,-96,-3528,5885,-5396
-61,-80,-34,-1817,5264,-2493
40,116,121,-9168,953,-1670
60,-105,-92,113,6752,6964
-48,71,-38,5961,8226,7943
70,-110,41,-1584,1849,5421
108,-7,127,-914,915,4988
-53,-119,41,-8914,-3448,2023
-18,-71,-54,1704,1211,-323
27,-55,27,6981,1345,864
27,109,30,-6045,-2102,-1499
-4,-18,6,3085,480,-1963
104,120,-44,-2468,-3402,-6727
-65,-102,25,-3585,-2230,-6493
-123,1,-112,-3676,-3702,-5750
16,57,88,-6545,-5079,-5979
123,74,-14,-8174,-5510,-8486
83,6,55,4590,1,-5743
14,-23,-21,20524,2241,-15
-54,-72,21,13966,7038,8352
23,39,-108,-4532,-7633,999
-94,-108,34,-3027,-7471,-2776
87,-72,-11,7166,2730,3999
127,-117,-121,5145,3089,3664
-98,-56,-27,-644,-28,-654
-17,-42,43,-1828,-42,83
-23,-72,-74,-2441,-783,-301
6,-109,12,-654,-235,230
30,-91,-23,3379,2267,1421
19,-114,-68,-1123,-482,-591
118,-94,66,-384,277,-526
-85,-111,46,26,705,-91
-77,-109,34,53,619,-138
-80,-111,52,-391,24,-358
-65,-99,20,-177,115,-116
-62,-91,23,-4,194,-13
-56,-83,24,104,354,66
66,69,92,-6110,-178,-5561
-81,-35,78,-641,9586,-3273
-2,116,-68,2110,4595,-3337
29,111,-102,-5131,-418,-6265
-99,-11,-31,-10527,-4418,-3646
18,12,101,-1537,6696,6021
-3,118,2,9218,12650,13688
-21,39,-99,-1157,5300,2621
-39,61,85,2858,3267,5405
24,-16,110,-14716,-3191,499
-27,-69,-2,17897,-2903,-3197
-77,-97,33,-3753,1812,2384
-37,-29,14,-699,-2517,-6675
103,43,2,2319,-4078,-3840
-28,-18,21,-3499,-8148,-4606
79,14,-31,-10881,-7902,-3751
82,-28,82,-2289,-6146,-6684
-127,96,66,2354,-4283,-5379
-41,-80,48,16008,-510,-2258
-30,65,-23,15023,7438,9015
-11,-1,-80,-4926,-6690,1473
-2,11,-6,-5163,-7909,-2353
13,-49,-108,8125,3401,4760
-21,-60,60,9468,5554,3556
-97,-89,112,-2069,-816,-1830
20,-55,88,-6607,-2745,-1272
-9,-36,53,-4777,-1774,106
10,-48,85,6080,3337,1793
58,-107,123,1681,2122,284
82,-104,-7,-2547,-1307,-1053
-82,-57,-11,-59,810,69
-92,-103,34,-646,-94,-365
-73,-96,-4,-54,323,-37
-56,-89,25,-671,-10,71
-77,-72,2,32,428,147
-75,-66,8,124,158,222
-112,-62,42,-280,-526,-207
-90,-48,43,-113,-515,-141
-87,-45,34,265,-77,104
-105,-63,62,32,-231,43
75,43,-28,2326,8723,1879
80,14,-111,-6981,-531,-5867
-52,36,-120,-3651,4747,-4417
70,-12,-114,-2068,5100,-3219
-118,-3,-4,-449,5324,-2336
-34,17,67,-3633,-644,-2470
-63,67,117,-1424,6272,3081
-52,51,94,17491,15788,12911
-107,24,61,-2590,5150,-3069
18,62,1,-13093,-4658,-1061
46,19,10,-8472,-2343,3704
-36,14,-85,11011,6282,8091
17,-67,55,-1966,-882,-2384
115,-19,-80,-7820,-1943,-3543
68,-70,-121,9213,2665,3484
-119,51,60,-4064,-4781,-8160
69,-64,-37,-3781,-4115,-7833
-42,116,-114,-4893,-4552,-7488
92,-29,-14,-8186,-5346,-6949
-59,-47,123,-3332,-3596,-5904
-108,17,81,2819,-1612,-3713
-105,-6,122,10903,-1368,-3341
67,-36,-51,12182,3748,2185
-10,-30,-34,8801,-962,7005
-55,-76,-115,-5303,-7278,-2115
12,-2,-124,3265,-1629,-72
-14,-52,27,9424,4828,5034
-57,-54,124,-606,-367,-292
-3,-93,-117,-5211,-2118,-2014
52,-5,94,-834,1917,770
35,-72,59,542,1703,674
47,-106,92,-196,59,-326
107,-89,33,744,893,236
-120,-84,90,-163,343,-99
-94,-80,66,-173,209,-174
-73,-80,53,-189,267,-214
-55,-88,24,188,284,58
-74,-79,50,17,-20,8
-83,-74,67,-496,-467,-266
-90,-48,51,140,-18,15
-96,68,-1,2850,5647,1773
108,-51,89,-8202,-722,-5478
22,43,102,-7303,4451,-2461
38,-128,-83,-2745,4530,-1070
4,107,-16,-3089,3363,-28
-26,-55,-11,-8684,-2431,-502
-87,-58,-21,-3869,5184,6260
-45,13,-49,16813,12653,16835
-56,69,35,-1985,2833,-2784
62,61,-87,-4021,-213,3955
-36,-30,-125,-3406,1165,6835
37,-104,17,1269,1012,3370
-118,72,-119,-1099,-2153,-2523
-124,-46,-16,1449,1219,1103
-23,-65,115,717,12,-1222
-37,99,-55,547,-1071,-4224
4,-119,-120,-4403,-3595,-7663
-67,67,-18,-2835,-3523,-6974
-121,-114,117,-10615,-5752,-6997
-83,56,-50,-8312,-3076,-6749
51,-80,-45,-1626,-2245,-5917
37,-120,-60,3787,209,-6206
119,106,13,10401,1726,-6277
-105,1,53,6793,2434,588
-105,-45,79,-746,-7265,-3843
-35,76,-24,6566,987,233
123,31,54,5433,4162,3243
4,67,123,-2051,-200,-557
-80,-91,-86,-3506,-2656,-1024
-82,-98,125,-1905,-1845,-1414
36,-28,-40,4914,3807,3035
-31,-55,-57,941,653,612
-3,-29,-57,-391,-6,-320
59,-38,-126,-404,-215,-321
95,-35,56,877,899,504
85,-47,102,-2,-43,-2
96,-48,68,267,333,116
99,-60,68,255,211,280
118,-50,86,-221,-160,128
127,-16,12,1446,1099,971
52,-57,70,-5184,3247,-4085
122,-98,102,-1430,6866,-3173
0,81,-4,-3606,3611,-3399
-101,30,90,-8706,-2335,-2930
48,19,111,-12278,46,4040
46,-39,6,23842,14414,17008
12,98,-69,6009,7091,-2691
-60,57,-31,-8856,-611,4418
26,126,15,-11519,-2920,4341
79,44,-54,3347,1524,-1190
-74,24,81,5667,-503,-2115
68,49,-69,-5883,-1435,-3040
-57,-117,-3,-261,-4315,-6610
15,110,-70,-4933,-6152,-6193
69,-93,0,-10479,-7897,-5583
71,-90,-1,-4623,-5408,-7748
-9,32,0,470,-3710,-6094
-104,64,8,9142,541,-8403
-21,-50,-96,12674,10148,643
39,21,-57,3749,-4665,1039
102,-106,-37,-754,-5639,-1806
-21,110,-93,5693,3159,1671
31,-78,-29,-69,1959,-905
55,81,-113,-5943,-5369,-689
-42,-107,-99,226,640,64
90,127,-72,5087,3110,1856
56,-107,-60,-1456,-127,8
57,-76,30,-1327,-394,-24
61,-38,-63,1588,1208,1397
12,-47,54,-740,-303,-43
45,-28,-21,544,690,494
44,-36,-5,414,439,338
40,-45,15,108,182,20
69,-57,1,216,284,88
85,-64,-9,451,418,111
90,-68,11,108,133,-22
113,-77,-8,306,319,75
114,-84,7,105,123,-8
126,-85,-9,239,274,107
125,-79,8,74,105,40
2,-64,16,1197,9079,605
14,96,-118,2365,10729,1645
43,-67,-71,-3618,947,-7544
-94,-72,10,303,5627,-5116
75,102,-76,-6178,-1879,-4076
72,-3,-90,-5922,995,-1670
-33,-21,54,3640,8044,7410
-19,-96,111,6252,9657,4403
-34,120,106,-6580,1008,-75
-126,16,-14,-4247,1103,3753
-113,-72,94,4229,4508,9348
121,26,-72,-6443,-1824,-932
-49,97,-73,-3749,-64,-467
-14,-79,-36,5415,1168,1660
-111,-43,8,-995,-922,-2576
4,103,-117,-271,-1956,-4907
-81,54,-17,-4423,-5678,-8982
-87,55,120,-4133,-3018,-7092
96,-43,94,-1540,-3612,-5368
7,-63,81,-5302,-5189,-5147
121,-84,-123,-2065,-3561,-5310
-58,-81,10,8841,1010,-410
-61,70,-89,14992,-1174,-1872
-81,42,82,9158,230,5537
84,125,-122,-2383,-6799,-175
33,115,18,-1368,-4850,-2227
94,120,2,7291,3044,3531
80,-10,-2,2682,1382,1502
-28,106,-32,-4820,-1707,-2261
42,-70,-43,-3359,-725,170
10,-107,31,-53,750,218
34,125,-1,2463,1775,988
43,-102,-116,-452,164,-52
80,-71,81,100,773,156
106,-76,63,-852,151,-364
-128,-66,14,-138,531,5
-121,-72,1,-420,233,-204
-119,-63,0,379,359,167
-118,-64,21,-92,-63,-110
-102,-61,24,-90,-20,-78
-95,-48,18,3913,10970,2038
17,94,-53,-6129,-235,-7651
-110,76,-38,-1317,5461,-4518
-6,27,65,-1725,4033,-4468
-24,-120,-77,-5401,-1820,-4767
-110,23,55,-6469,-1853,-1622
-121,-55,67,6459,7580,8266
-115,30,102,5408,9856,8013
40,126,-71,-4564,2098,2961
73,88,29,-4726,-243,7179
-86,22,93,475,1112,4427
31,112,-18,-3971,-1867,-6055
-43,57,-74,6713,1115,-71
88,63,27,162,891,1399
-22,116,-119,-3315,-745,-1636
83,-83,29,2166,-10,-2635
-53,-28,-93,-6421,-5394,-5933
69,-123,-126,-9140,-5755,-7899
23,104,-126,-6297,-4243,-8339
-4,70,-92,-429,-1189,-5023
78,31,69,-535,-3727,-7302
113,32,15,613,-2158,-9155
-16,97,92,13916,7189,1077
62,31,-118,21805,14008,11941
-123,-105,-80,-12083,-10688,-1819
-10,-71,-42,-2726,-6970,-1424
-112,17,9,10988,7160,4607
-12,-43,-82,3425,4577,2600
-93,124,9,-6143,-4586,-2443
-31,-2,-79,-2567,-1140,-529
72,-27,-37,4544,3996,2302
36,-118,-42,-1172,241,-779
87,-73,-112,-1464,-91,-997
-91,-67,33,802,1386,-79
-80,-96,-121,-974,25,-831
-44,-85,80,-631,134,-647
-35,-77,57,-712,43,-607
-21,-78,32,293,363,31
-43,-79,66,-362,-357,-168
-48,-61,48,467,-27,203
7,-61,-67,5004,7548,2121
51,-65,29,-441,7065,573
23,-97,80,-4823,2337,-5143
109,99,-117,697,8931,-4733
21,-43,-46,-3881,3384,-5977
38,-37,102,-4895,1886,-3131
-119,-76,94,-7154,-536,1600
-2,38,5,7790,11198,11140
-104,-106,-124,-2723,4225,6151
33,97,91,4980,1612,10003
68,92,126,-13047,-3941,-3047
-49,-10,-123,1206,241,-1682
3,111,39,6905,2513,1690
-85,-1,71,-7670,-3974,-5033
-84,-123,-27,-2652,-2575,-6519
-34,-114,-54,-6803,-5094,-7801
82,-21,0,-7047,-4312,-7966
0,49,-40,-5189,-3889,-6767
43,-65,20,-2917,-1907,-8265
108,-64,26,2615,-888,-9629
-99,-97,-126,11396,6362,-3898
-1,29,-20,15410,9054,7452
-101,38,127,5868,-937,4622
116,-109,-101,-1027,-3999,-416
18,6,80,5057,3349,1092
19,121,-71,1206,1816,1160
4,92,82,-1149,-525,207
15,-128,-120,1536,2328,974
33,113,-56,-72,928,-19
64,-112,-89,-282,928,-86
118,-105,-110,-878,386,-665
-81,-93,93,-412,957,-456
-48,-88,97,-625,678,-552
-20,-78,77,-670,496,-497
-17,-76,51,-468,232,-454
-8,-70,38,-199,121,-253
-14,-67,37,-85,-185,-61
-30,-64,34,519,18,126
-51,-46,99,469,71,86
-66,-43,-123,203,71,-75
109,-102,84,-5217,1235,-6735
12,-103,127,952,8931,-2956
-84,74,-71,-5041,1760,-5526
-89,-44,29,-6392,-2015,-3124
-7,114,13,-6914,1899,3088
37,-111,-2,11548,13807,11304
-16,-36,44,-9394,2601,932
-75,-107,122,5764,3100,12539
37,-4,-68,-7880,-652,-1178
-62,87,45,-16658,2257,-3449
80,-103,-55,19003,3371,1701
-81,-125,-45,-6781,-2891,-2887
64,118,-111,-5629,-4528,-5806
-99,106,-108,-1802,-5796,-8220
-36,-56,56,-9151,-6460,-6388
3,-39,102,-6470,-5076,-5667
101,33,45,-345,-3490,-5174
-91,50,80,7500,-1135,-5481
49,38,-125,15575,3814,-5039
-50,42,-39,11873,5277,11319
-23,-92,-126,-7462,-10352,-4031
-67,-53,-5,2356,-4145,-598
-57,83,45,8868,5592,4094
-35,-69,110,-1821,-58,-776
-24,-121,-75,-7267,-4264,-2357
-19,-59,-27,-2602,-1324,901
7,-86,112,5771,3840,2012
7,-103,115,1137,1829,68
48,-84,-89,-1928,-705,-607
97,-72,10,-319,438,-99
-127,-80,-26,198,754,157
118,-78,9,-438,29,-174
-122,-63,-6,-312,174,-163
-105,-67,-38,371,487,146
-125,-63,30,-637,-417,-269
-105,-54,-37,539,523,232
123,-51,33,-148,-232,-81
-124,-49,24,-148,-97,-94
-117,-47,0,403,295,136
-118,-45,26,124,210,44
118,-89,88,2182,10583,-202
79,59,-95,-1176,4302,-5050
78,-124,-73,-2439,3967,-6126
-54,-48,9,-7327,162,-9123
76,-113,107,-15932,-6959,-4421
-120,-74,61,-11148,-95,-407
0,-101,-64,21894,9225,16404
-54,-68,102,10884,16831,10950
67,-6,116,-9621,-1119,-1841
-116,-51,-40,-14662,-4221,3784
-103,-89,93,25981,6946,16531
-33,-13,-41,-13501,-4723,-11257
118,-6,70,-6651,990,-5036
23,41,93,13337,4035,7398
118,42,-37,-3841,-2381,-4529
77,48,114,-2413,-2031,-5279
37,84,-118,-3780,-5494,-8281
-4,-107,66,-8674,-4688,-7864
119,-78,-95,-2904,-3538,-4969
-55,-55,-125,-2864,-4724,-6269
124,80,-8,5716,-2197,-4758
16,92,64,15796,922,-2365
9,-119,-86,12102,3994,8373
-65,-86,-61,-5728,-11344,-1954
-57,-33,-3,-1820,-7085,-4604
123,-104,-18,7915,3969,2930
94,-50,22,1720,2907,1285
-6,-124,-69,-4514,-570,-1318
-1,-69,-89,-2545,-535,666
-36,-109,0,1351,650,348
35,-86,58,2259,1730,1039
35,-77,-93,-807,253,77
60,-55,62,-563,352,-114
98,-66,30,-693,52,-216
125,-52,-28,348,699,228
116,-55,30,-183,247,-62
-128,-41,9,-58,133,56
118,-45,11,-329,-188,-89
115,-40,-3,275,92,82
106,-38,43,-150,-153,-114
-105,21,-51,4072,14094,1272
-128,-58,33,-973,4759,-6292
69,-89,-118,3016,5112,-5570
-48,27,-77,-2526,-165,-7295
-54,-5,-90,-6132,-1610,-2645
15,-105,-32,-2252,3958,4179
-36,4,-21,6825,8575,6952
-53,60,117,-5868,2217,1811
-74,76,105,-1151,3740,8574
88,99,108,-2796,3191,6937
52,-30,44,2931,-5241,-9090
33,84,57,1340,2000,2758
-21,104,21,-906,-929,-258
-46,-36,115,-2503,-2311,-4300
-11,1,95,-5374,-6109,-7381
-67,83,98,-5335,-4769,-7436
-108,70,-85,-171,-3394,-4364
-64,-65,33,-2639,-7097,-4401
55,-72,127,-1706,-4569,-5571
-97,82,-123,12628,-957,-2664
-7,-22,13,11204,8893,5160
68,-9,126,56,-4491,3320
-128,31,96,-2670,-7762,-1794
-7,123,99,4110,446,2649
41,18,-119,4565,2523,2089
-24,-89,-56,-1168,43,-1178
38,-65,69,-4850,-2156,-1307
-3,-21,31,-4062,-2558,-262
-1,-28,126,4244,2498,1320
39,-26,58,2718,2352,597
47,-62,-28,-2663,-1386,-1027
98,-22,4,187,690,69
113,-56,6,261,353,31
109,-52,34,-84,18,-162
-128,-54,43,-372,-296,-190
-114,-49,5,425,427,217
-126,-48,49,-251,-158,-63
-128,-36,50,-443,-187,-129
-123,-28,8,433,414,359
114,-31,46,-17,-4,-33
11,-44,-6,6674,15503,1786
-125,94,-77,-6896,-2634,-9497
42,59,-61,-5537,3613,-8134
60,32,92,-7848,237,-4307
71,-35,89,100,6956,4482
3,98,-123,5354,10105,7353
-112,17,-113,-4392,2930,922
3,-71,-67,-6543,-3994,6059
29,89,67,11189,6586,6331
58,-104,-68,-9417,-3461,-2447
97,4,4,3606,1015,-865
-75,-80,-107,5219,2736,3429
-53,86,116,-8758,-4757,-2621
-2,78,-90,2931,711,-2801
-30,24,-105,-4408,-4658,-8488
-58,-81,-59,-7494,-5256,-7912
-111,-42,-94,-8949,-6041,-7301
-75,9,-9,-1529,-2642,-6268
-23,47,-11,13215,408,-1011
7,100,-18,10131,637,-2190
-3,60,-1,5149,-5309,808
-25,-15,21,1535,-1495,968
-106,-22,27,1397,-1595,1537
-106,111,-36,2596,-733,-13
98,-128,-114,1670,1302,-435
110,-119,45,-2095,644,620
10,-70,-69,-2230,-750,628
-32,-105,56,-804,-698,-633
44,-43,6,2271,1746,982
40,-63,-113,-1030,-229,-167
78,-48,5,214,879,191
72,-42,47,-570,164,-43
93,-42,-5,-52,429,3
101,-36,9,-214,101,-84
108,-39,-3,-201,87,-122
118,-31,-2,40,232,33
121,-34,-15,373,319,114
113,-29,42,-473,-237,-225
-125,-34,-24,714,496,284
119,-37,42,-234,-177,-155
9,77,110,1547,12319,1979
-47,41,-68,3715,9210,-4804
-11,111,-21,-3808,4882,-5719
31,-41,22,-588,4439,-5213
-99,-67,-21,-6408,-1633,-3359
56,-51,-98,-6119,-3582,1467
-20,118,49,11301,10046,11168
117,84,50,2335,9270,6525
-23,-92,35,-8806,-5015,3088
-104,-35,-111,5663,2864,4718
-67,-16,-112,-5578,-1447,-2039
122,75,-10,3838,-597,-1938
-90,35,-119,1087,971,1141
6,115,-29,-415,-560,-1302
82,-34,-117,-213,-2401,-4991
121,45,-123,-5430,-7217,-6722
-70,58,107,-5917,-5473,-6159
49,73,-69,-5801,-5718,-5153
-75,-10,82,19,-3564,-3979
-110,-45,91,11098,-3102,-3112
69,-89,-18,13126,4333,1268
-40,-9,45,3601,-4208,5439
29,-57,-96,-5782,-13025,-4738
83,59,110,3959,463,65
-58,-47,38,14118,9912,6840
66,-74,-36,-5219,-779,-3076
-30,-81,-49,-15598,-11715,-4111
110,-105,-100,2435,4020,424
30,4,-126,12636,6868,2991
3,-90,-107,-5442,-2322,-1139
4,-55,117,-4827,-2499,-1015
65,23,58,3486,2646,1474
51,-74,32,-797,-93,-387
72,-37,-12,-137,197,-108
89,-53,-14,59,147,-67
86,-54,8,-551,-65,-307
99,-50,-1,119,142,56
98,-40,-11,364,420,145
94,-47,13,33,-38,23
92,-46,22,-88,-16,-51
-11,94,100,3060,7291,620
64,-23,-29,4587,9506,154
35,65,-40,-3794,1046,-8528
-70,-57,-32,-328,5844,-6351
72,18,-11,-446,3836,-4482
-77,60,-42,-6030,205,-3631
-68,24,24,-1288,7002,5980
98,-19,66,1865,9513,7115
-24,-113,117,-8623,-3665,4832
84,59,-110,8109,2574,5629
-9,-23,36,-12896,-3658,-4631
72,69,-79,7896,-407,-2615
-15,72,116,5567,4556,6281
-126,63,125,-6935,-3393,-3511
-12,49,-7,2781,-1446,-4840
8,59,124,-2072,-4883,-5887
-82,91,-61,-8802,-6718,-6854
52,-54,-67,-4623,-5744,-6316
-30,-93,107,-2776,-5123,-5366
102,-24,74,2575,-2989,-5351
-114,75,113,14147,-1665,-6867
82,-44,-57,15009,8661,6678
-65,104,-24,-2203,-3974,3124
-79,-64,-126,-1266,-5350,-1335
-83,107,86,5558,3076,2199
5,-34,-98,2858,3241,1725
-45,-85,-62,-5837,-2485,-2046
-2,-19,-82,-4722,-2853,-21
-13,-17,-124,2375,1760,779
20,-48,39,2089,1982,492
51,-43,-72,-1302,-584,-479
115,-35,30,-149,570,-88
-124,-47,19,61,489,-66
-122,-54,30,-184,75,-206
-98,-50,18,-143,86,-82
-100,-50,33,-181,-10,-153
-87,-50,17,146,173,24
-101,-48,52,-422,-233,-165
-99,-38,4,501,295,266
-111,-34,59,-239,-222,-60
45,-126,-62,8847,12704,4373
-124,39,125,-356,3709,-7801
64,-70,121,-3174,1376,-8829
-92,99,-39,-1379,1182,-4609
59,-57,-18,-520,5259,-41
109,-102,-36,-256,4403,1028
115,-95,-67,250,4317,2852
104,-7,77,735,4696,2663
-83,92,104,-10658,-2720,3972
114,-36,60,704,814,3815
-29,-60,-11,1201,-1919,-4140
-21,79,18,1404,1398,1911
45,96,-82,-70,-406,-522
36,-7,-97,-2501,-2019,-3807
25,31,80,-5493,-5584,-7108
-94,76,78,-4845,-4675,-7034
13,87,-8,-3229,-6434,-6474
-119,103,-103,-2296,-4493,-5845
125,-77,-87,8100,-3329,-4631
2,32,97,4969,-2951,-1921
120,61,-62,5979,103,-556
-92,-47,-62,3663,-639,1632
91,-58,95,1585,-4002,93
-25,110,-80,4836,874,1005
31,-74,-96,1934,2615,-169
-16,-58,-121,-1780,1339,631
-40,-61,8,-4183,-1532,-251
-18,-50,10,-1430,-822,-462
46,-11,-41,3692,2487,1595
37,-59,-90,-1770,-448,-636
73,-11,17,209,891,313
75,-26,52,-896,-37,-329
102,-6,-17,131,524,225
87,-8,5,-285,-206,-175
97,-5,15,-139,-231,-172
100,-4,28,130,30,39
100,-8,43,-348,-79,-90
98,-9,33,-29,21,8
99,-1,25,199,232,159
80,-2,68,-427,-341,-186
-119,-66,-12,8177,17890,4365
-38,-88,95,-10913,-4049,-12389
-20,-52,-53,4781,10095,-1450
-76,-78,55,-330,2746,-6323
-80,78,98,-4403,-2162,-4150
-125,-52,23,-2113,2591,603
-79,22,32,10642,11882,9612
87,86,-85,-10486,-919,-186
-108,27,122,-4233,228,5910
8,28,-105,1394,2619,4858
-61,-115,53,-5980,-1169,-569
55,126,-75,4136,-93,-1143
51,119,-106,382,-57,-553
-58,103,8,-3595,-3440,-6007
-121,-73,-38,-9875,-5527,-9769
27,6,-30,-1835,-1795,-4515
71,44,63,-5596,-5474,-6008
124,-18,-84,-3522,-4482,-5962
-49,51,-94,1804,-412,-4668
30,126,-106,13820,2693,-1812
99,119,-30,17857,11965,9697
-119,-55,103,-10851,-17935,-5489
73,118,105,645,-3455,-1676
54,31,-41,6155,2358,3257
101,-37,-76,1648,-107,899
5,-58,-113,-410,-160,-423
40,-83,-29,-1418,412,-391
47,-65,-111,-1632,-57,-204
56,-68,66,-316,451,-44
109,-63,33,861,1534,535
103,-63,104,-1079,35,-233
127,-45,11,-181,183,6
-112,-41,25,83,259,83
-110,-22,62,-356,-11,-32
-108,-15,35,82,273,85
-120,-11,57,-226,5,-7
-124,-6,44,69,152,23
-110,-17,38,309,220,65
-112,-17,60,183,92,19
-108,-20,68,82,28,-32
-16,-124,-8,9920,9900,3267
77,78,-74,-7573,-2213,-10041
111,91,-57,-4834,5367,-6954
40,-126,20,-4883,3162,-5358
-7,19,64,-3042,3731,-1999
-63,-18,117,695,7936,5433
-79,-32,108,848,6632,4689
-60,52,36,-3619,183,5161
114,-42,48,-1837,2681,3583
20,-57,-61,-8779,-647,5527
-47,-44,-93,7682,-309,-3306
39,-41,-104,803,456,-125
34,92,-66,-1486,-645,39
-46,-126,89,154,31,-1156
10,-56,64,411,-1254,-2557
-88,-5,-128,-3767,-5518,-5308
-59,47,123,-6363,-6014,-5964
126,12,119,-2321,-4648,-4776
-41,-99,-98,-921,-6480,-5266
69,-111,100,-306,-6133,-5192
-76,90,104,11236,-1887,-3066
-124,13,-16,11005,5620,4087
78,-86,-84,-950,-5094,1115
-43,-29,38,-1716,-7417,-2009
-35,-31,54,6547,1084,1851
103,-9,29,4565,1661,968
79,88,-17,-3769,684,-2552
125,-81,0,-3563,306,1427
-38,-107,0,779,961,726
32,122,29,1447,1134,444
54,-71,-124,-598,143,233
83,-57,38,-372,350,135
85,-46,50,-479,154,-37
113,-43,2,-492,267,-22
104,-36,10,-404,60,-40
112,-25,-26,312,408,122
114,-37,13,-184,-53,-178
123,-38,11,22,-48,-41
-124,-37,1,244,197,24
-121,-44,28,-34,-50,-104
74,-31,91,2384,9283,318
17,-97,-44,-5271,2599,-6849
-109,-58,-13,-6000,2542,-7883
-31,44,-16,-9654,-2690,-5173
19,77,125,-13855,-5113,-1715
98,-124,16,9931,5772,8350
-53,91,-19,14974,12240,13771
-55,-51,-90,-4781,5497,4098
-31,-27,93,-4450,-769,6362
-32,-120,1,1663,2109,6159
14,49,60,-9176,-2070,-5929
55,-43,109,9942,2358,2742
-56,93,-108,-2933,-1527,-1609
-76,-11,52,-864,-82,-2697
74,-99,-109,2271,-2168,-5970
-72,105,-97,-8742,-6506,-6954
-104,113,42,-9705,-5025,-8187
2,-58,67,-6299,-3947,-7182
-83,78,35,2200,-2137,-4869
-40,-91,3,9039,84,-3444
34,-28,101,18047,4028,-1518
6,-72,-44,8007,2303,9861
-62,18,112,-5101,-10548,-2939
-13,-32,-89,2328,-3410,480
-27,70,-96,5434,886,2462
82,-123,54,-577,-880,-1030
65,111,54,-2330,493,-329
7,-86,-103,-1250,920,424
-1,-101,122,-855,-576,39
50,-80,-17,1817,1785,518
60,-87,-126,-777,37,-296
91,-82,41,-95,409,-66
113,-89,38,-383,51,-283
-117,-86,6,162,390,44
-119,-87,47,-590,-239,-269
-112,-71,6,153,256,104
-122,-66,34,-387,-170,-146
-115,-53,-5,579,421,385
122,-51,51,-537,-247,-210
-125,-43,18,276,265,182
26,-15,-112,3655,7688,112
124,29,34,6002,11982,1092
-104,-96,113,-2068,1160,-7841
-61,60,-46,5424,7499,-4352
-64,-110,120,684,-474,-7147
59,5,118,-3377,207,-4395
89,-35,117,2404,7676,807
-114,41,-84,-7076,2332,416
-29,63,34,-6675,224,6971
99,-27,121,-1258,240,3115
81,-123,43,-5572,629,661
-14,24,-101,5758,-538,-1904
-61,74,-97,-414,417,770
30,108,-104,-668,-443,-477
34,9,-94,-22,-2391,-4868
-48,77,37,-3961,-4758,-6038
-86,-62,-104,-894,-5168,-5311
-31,-72,56,-6968,-8593,-4486
27,-77,67,-2920,-5996,-6738
-88,95,-5,8020,-2028,-3869
104,-19,-122,14954,6584,2523
-49,19,55,2947,-1991,5668
-118,0,117,-7886,-11770,-5336
6,-41,-58,3912,1288,297
-48,-7,-43,11555,7319,6615
-96,-24,123,-3155,-1613,-1561
-48,-88,-57,-9247,-6009,-3733
18,67,-108,-175,1148,1475
24,-73,-53,3624,2864,637
63,-64,-98,-869,-201,-243
90,-24,59,-567,148,-10
99,-29,19,-21,378,60
113,-26,16,-66,243,103
102,-18,35,-246,90,37
99,-7,32,-319,-74,-56
106,-3,4,251,234,159
98,-9,34,15,35,25
101,-2,47,-97,-52,-1
110,-6,33,93,139,-17
122,-2,31,385,325,212
-6,59,-58,7342,15039,-276
-96,-87,-32,-9830,681,-9192
-20,-112,11,2194,6789,-3174
8,-59,-10,-1462,3212,-6064
-33,-13,98,-5746,-1382,-3922
121,-110,-118,-6852,-762,737
-110,-15,11,4072,7432,6578
23,-74,23,4921,7603,7523
-50,92,104,-2420,2055,4501
71,-44,-81,-4945,-2149,3731
22,-53,68,-7415,-90,1846
12,49,90,7370,-30,-3811
-93,-103,-128,2783,2148,-100
21,76,60,-3085,-1371,-840
33,-6,-124,-1132,-1080,-4571
27,70,-125,-5337,-4611,-7622
4,123,61,-3444,-2933,-6754
107,25,64,-666,-5114,-5095
-121,-31,35,-6334,-7810,-5784
-8,-126,-3,395,-3703,-7246
-67,-112,-86,12002,2050,-3423
-79,-105,-96,21797,12787,6933
-7,95,-110,-11533,-14643,-1586
-43,9,33,-3136,-9311,-3881
66,64,-51,13651,7376,6249
-15,-20,-127,4568,2244,1109
12,43,-94,-9828,-3390,-5330
89,75,97,-6493,-2236,1855
-60,-49,80,3444,2432,1170
-17,-91,-17,3891,2255,383
66,-69,-28,-1579,-799,-158
78,-38,65,-1078,13,-292
85,-31,8,54,559,90
92,-31,23,-316,173,-55
93,-44,22,-455,-126,-301
111,-32,-2,451,292,125
111,-40,42,-241,-104,-106
119,-42,26,66,55,7
115,-37,39,83,28,31
120,-36,50,-21,24,35
67,-115,33,7140,15742,1360
98,115,-31,-6668,-2272,-8362
-81,-118,-33,361,6566,-3817
65,-28,-64,-5136,2348,-6484
-33,-60,-18,-4482,1632,-2923
106,-43,-97,-6426,-872,-1448
-32,-116,98,428,3776,4360
21,-82,15,6357,8433,7362
26,-122,-38,5026,6998,6972
-78,-28,6,-7518,115,4212
-105,108,33,-7087,-1699,5474
79,-48,-44,69,-666,-3858
69,-45,-40,8524,1049,1122
-31,-58,85,-3569,-651,-1138
-31,81,-50,-2114,-1924,-4955
-17,46,114,-5515,-4330,-7573
-2,103,-96,-5703,-3825,-6526
88,109,94,-9041,-5070,-5292
-65,-103,-45,-10134,-4204,-6404
60,53,19,3586,-343,-4672
-96,-26,13,16735,1356,-1512
-62,91,-122,14486,6552,-3591
117,102,112,1959,-5847,5639
108,93,-125,-2550,-8702,-2767
97,32,-81,6925,2078,3030
63,-100,-76,3845,983,204
94,59,66,-6733,-1344,-2693
94,-34,-36,-5562,-1565,1976
-119,-60,-55,516,265,-235
12,-67,-8,2539,1739,619
43,-27,-124,-44,866,82
70,-23,64,-1170,131,-199
74,-24,7,47,640,-33
94,-38,17,-163,193,-150
113,-44,27,-260,-102,-266
-125,-44,17,205,236,19
-128,-46,44,-250,-144,-77
124,-36,31,77,67,27
109,-27,59,-349,-303,-115
110,-25,35,-52,-3,2
35,-45,74,6661,9393,733
63,97,-121,18141,17838,4603
82,-52,8,-11886,-7182,-14834
-61,88,-17,-1768,3047,-7333
-91,-8,-97,1600,5151,-3658
36,-110,-36,-736,3884,-2998
-94,-75,-90,172,7959,3932
-62,14,36,-892,5630,3568
-50,8,23,-5730,993,3937
-33,-10,-28,-15590,-2793,491
-61,-80,38,11506,-117,-1592
-108,8,-61,6482,3665,3432
-14,66,-76,-8002,-4001,-1806
56,-101,5,2738,949,-577
60,-33,55,1159,-2852,-6031
99,4,-31,-10330,-7593,-6910
-99,-126,32,-5436,-3598,-6628
105,46,-42,1921,-4245,-1768
-89,126,-12,-1252,-5865,-4166
-128,58,-101,6233,-5109,-2194
21,70,-4,13118,5550,-651
-25,-124,81,-859,-3541,5999
18,6,68,-5562,-9883,-4702
-14,-116,77,2324,-4391,-1384
31,-54,37,7285,2495,3149
118,-58,-6,3058,1280,204
101,101,-84,-3075,410,-1438
118,-49,-78,-3387,-543,1588
-38,-58,-34,1169,442,523
0,-61,63,1733,689,174
79,-37,-98,-1470,-387,-246
99,-21,5,488,1343,587
76,-37,35,-571,104,-241
102,-23,11,-258,189,-89
120,-33,-3,54,257,-78
-128,-36,35,-509,-160,-315
-115,-40,2,195,121,33
-119,-39,41,-175,-106,-73
-107,-34,17,189,282,153
-126,-22,43,-183,-139,-3
10,-112,-70,8169,13827,1131
96,59,-62,-4359,554,-8513
-121,17,-14,3757,6340,-5169
-79,-31,-13,-13330,-901,-9912
-57,-46,87,-12395,-657,-2694
-85,1,-12,5906,5644,5826
-111,33,17,14244,12514,12651
-99,79,121,-3213,5141,1585
-103,-115,-119,-3191,-764,2211
-103,-126,-32,-3827,293,6874
-12,-31,111,-7461,82,-1780
16,-71,77,9745,-145,-2511
-98,-64,-61,-949,884,2544
-56,-105,-116,-1455,-991,-1828
13,75,92,-1507,-2369,-5122
97,-84,52,-2908,-5609,-6918
9,82,49,-6034,-6611,-4289
-22,44,-79,-8192,-7423,-5324
39,27,50,-4325,-6614,-6329
86,96,3,4478,-1709,-3920
-24,57,50,15760,2752,-2720
-53,-121,-91,13523,5181,7236
46,66,-78,-4845,-11182,-1867
20,-103,20,-2246,-6984,-3320
23,26,-67,9238,5296,4810
32,-54,-23,4721,4223,689
46,58,61,-6499,-1802,-3494
114,-1,111,-7044,-3284,891
-73,-26,96,3672,1680,899
17,-118,19,2335,1531,-404
-128,-65,-95,-944,44,157
101,-57,44,-522,423,88
109,-60,2,-158,538,-102
-125,-51,1,-75,230,62
-124,-47,5,-152,43,-158
-113,-50,8,-121,-5,-95
-101,-50,4,40,133,-1
-112,-47,17,11,2,-38
-118,-37,40,-325,-181,-146
120,-20,50,-564,-454,-162
-69,18,105,7203,16553,3081
-114,-39,50,99,2163,-9261
56,-41,-106,210,5853,-4806
-57,-2,-115,-3741,-413,-8106
-95,60,9,-6970,-1193,-4314
55,4,-79,-1821,1169,-710
-13,11,24,9645,13751,11673
119,-50,122,2850,9643,4068
-27,-22,-98,-11493,-3709,-1373
60,60,-109,-1994,-1642,7205
-94,-18,-113,-1299,2145,2715
63,-125,124,-4124,-1183,-4345
-85,-17,-21,9379,2191,565
36,-6,-113,-2054,-1699,-3375
-64,-121,-109,-8267,-4524,-7270
-88,55,-58,-1427,-2015,-5868
-71,-54,-54,-5705,-3699,-4666
-45,-63,17,-6585,-5186,-4568
97,-90,122,-2087,-4167,-5804
-126,-122,-40,10136,-705,-2375
34,-102,85,21056,3520,-537
-10,23,-22,3318,1497,10126
30,17,96,-9673,-12612,-5931
5,-71,53,4266,-3018,437
55,-88,62,8293,3380,4518
-13,-101,96,-12,680,-878
29,-120,-37,-7382,-2265,-3137
52,26,-6,-4271,-1131,1078
-60,-86,-126,3612,1453,751
25,-97,18,3190,1634,195
71,-55,2,-2274,-749,-478
94,-60,59,-950,293,-350
119,-59,-25,700,1127,443
103,-60,49,-644,-206,-256
127,-50,18,-639,-111,-307
-99,-47,-32,466,422,326
-127,-50,26,-160,-13,-39
-115,-34,21,-34,107,65
-122,-29,19,22,112,31
-119,-33,19,45,86,90
-122,113,122,5818,13421,1838
124,-112,-43,-5351,-1065,-8662
-105,-66,-68,-3673,4218,-8427
33,101,-14,-10101,759,-8070
74,-70,-10,-15027,-6978,-2665
23,-16,73,3992,3699,3752
32,49,116,25748,18333,22384
-75,-116,3,-4231,6163,-4873
45,-94,41,-8741,-3561,2421
97,124,71,-2420,267,6675
87,-35,-44,-4773,-2253,-3985
122,-63,107,7859,768,-760
73,30,-13,713,616,-311
92,127,40,-7272,-6167,-6517
-96,-60,117,-10509,-5909,-9398
111,23,-88,-4242,-3565,-5904
-25,87,-50,-2517,-4717,-4899
26,68,-112,-362,-3459,-6282
114,1,82,7744,-1077,-5639
86,127,-70,13444,3783,1178
-81,39,-106,4675,874,3927
97,-118,-85,-677,-10804,-2602
115,88,-50,5846,494,1128
75,-115,-35,11586,8687,5076
-82,50,-50,-8819,-3893,-5607
36,-5,88,-8949,-5365,659
92,-12,21,3741,2298,265
47,-105,-24,4728,3448,744
96,-86,-41,-1297,59,-16
-127,-74,54,-646,661,3
-110,-79,-3,4,887,-40
-102,-89,-6,-20,373,62
-93,-87,-2,147,338,7
-75,-76,12,444,580,249
-96,-70,63,-889,-404,-395
-79,-65,-26,674,409,298
-100,-64,38,9,20,-29
-89,-66,38,-261,-202,-150
-84,-66,13,499,333,186
-97,-56,77,-554,-332,-152
-72,-107,-17,-6905,687,-4565
-68,68,-9,1088,8279,1568
-122,-5,-111,9286,6244,-4004
3,15,-115,-6962,4888,-5873
-10,94,-80,-2442,3841,-2998
118,-115,76,-5162,2612,70
-51,-20,-101,-2427,1679,3594
91,-48,76,4087,8922,7628
28,-77,-45,4164,5463,8414
-88,45,31,-3772,-2044,4208
118,54,92,-16046,-5322,-6444
-119,47,-105,12341,554,-3641
73,-105,-110,5778,5976,2856
-22,96,21,-17109,-15678,-10164
-64,-46,-104,-11284,-3651,-13012
-8,-87,106,4621,-2564,-4033
-103,-116,-16,-59,-3717,-5043
-93,27,-81,9439,-572,-5416
-35,48,-52,15214,7812,4766
-107,37,-97,4256,-887,5786
-73,16,-117,-5594,-9935,-4110
-8,-127,109,4703,944,1030
-115,-15,-124,7375,6149,3938
-24,96,88,-4637,-1231,-2263
69,-60,17,-4693,-1139,330
28,-41,-74,726,1747,987
27,-95,66,304,510,-20
103,-56,45,452,1225,250
-112,-47,86,-570,427,-144
-78,-53,10,128,873,-106
-47,-72,7,254,839,-77
-32,-79,26,-186,192,-194
-38,-81,31,-84,-136,-217
-30,-75,39,92,-27,-37
-53,-79,59,-100,-208,-96
-56,-67,65,82,-164,20
-69,-59,87,-342,-404,-132
-57,-49,61,495,318,343
-77,-43,86,-48,93,45
-68,-44,75,-39,147,84
36,-115,35,2750,9822,-48
113,114,114,9512,8099,-231
91,-55,-49,-5850,4467,-8687
54,64,28,-4855,2333,-7999
-45,65,52,-9226,-2466,-2554
110,106,40,-157,2632,1750
-11,72,92,11277,12495,12775
-59,112,90,-7429,2474,2106
58,-121,57,5088,3022,9759
3,5,69,-2358,1864,2287
-116,90,-41,-11994,-3237,-6256
5,-62,-50,11479,1547,389
-111,-60,-77,3409,3286,4331
-57,-41,107,-8037,-5242,-5692
21,62,-48,-5718,-5016,-8875
23,-73,60,-4500,-4498,-7156
75,-124,-74,-4543,-4880,-4778
110,-15,-113,-2754,-5845,-6037
48,89,65,3205,-3460,-6071
-21,33,46,16446,986,-4362
93,-2,92,12645,6502,10886
0,100,118,-4787,-10124,-1390
83,16,54,-1562,-6366,-2146
-52,82,65,7460,3761,2368
103,-80,10,1313,1936,486
19,-112,-99,-4519,-838,-984
-4,-58,-98,-2792,-1100,181
-14,-72,-54,1865,1518,649
27,-57,112,639,932,487
70,-32,-120,-706,352,-109
110,-13,76,-444,844,35
120,-34,19,-213,705,-2
-114,-29,15,-302,500,-13
-107,-28,14,-304,42,-151
-99,-33,10,-67,71,-92
-80,-22,18,213,102,140
-105,-21,58,-90,-146,-16
-104,-29,25,569,365,291
-114,-30,62,153,100,118
-111,-18,76,23,-3,57
-2,-98,20,7463,13716,1455
-18,20,-52,-8786,-4753,-9891
6,-114,-76,5166,11584,-2868
-117,-106,24,-4240,1186,-9090
-105,77,15,-2039,1516,-3527
30,-98,122,-10943,-2121,-3749
79,46,-1,6120,8569,12304
-55,13,31,-167,6398,7351
8,104,41,-1574,-416,7142
87,31,36,-4616,-788,2711
-108,102,96,-8286,765,-3916
-121,-107,-94,15043,1296,-449
119,-91,-92,-4888,-848,1143
-84,27,-65,-5371,-2392,-4534
68,-21,-19,-1354,-2866,-8013
-34,-126,-51,-5304,-4736,-7290
62,-64,66,-9433,-6311,-6687
27,-64,-104,-5048,-4508,-7581
35,-4,124,43,-2198,-7027
116,99,-57,12161,2462,-4428
7,-82,42,24048,11255,4270
-119,-33,10,375,-7414,5378
-15,96,-71,-8249,-11639,-5526
51,68,-52,9040,7086,4666
53,-1,-111,6433,6131,1485
2,18,41,-7834,-2449,-3788
52,22,-104,-4441,-2002,2184
-63,-56,-115,2468,1799,575
48,-94,74,796,499,-1
82,-52,85,27,541,241
81,-60,73,-615,137,-190
112,-55,15,125,381,0
119,-53,25,-275,166,-189
-126,-67,1,166,278,-73
-117,-60,35,-225,-41,-100
-115,-62,24,-27,44,-31
-112,-63,15,189,72,45
-117,-52,50,11,-32,103
-115,-53,37,75,87,67
-121,-47,52,-266,-106,-51
52,-57,86,-3682,2967,-6694
-12,104,15,-7791,2454,-4858
-104,-107,39,-1281,5531,38
58,-46,107,-2496,8113,3313
51,-102,14,-6820,3548,6200
-47,-68,94,2849,6148,9195
-44,-95,115,-1073,2055,6778
-88,81,43,-13137,-4361,-1628
3,-5,-128,9684,-36,-3174
5,-14,127,5165,4455,4981
-119,32,-37,-5906,-3898,-2466
-3,-35,37,269,29,-2302
-63,35,-30,-3034,-3808,-8245
9,38,-9,-7414,-4317,-8495
-3,-106,19,-2875,-4953,-3709
-19,-4,-118,-5037,-4952,-5016
119,82,9,3116,-3399,-3671
-48,115,105,9358,-1170,-4612
87,-46,-23,11751,5443,9011
4,-54,30,2087,-3682,4048
70,65,2,-6256,-11885,-5741
63,-104,-18,6836,1009,1647
0,60,63,6453,5090,3512
19,86,23,-2194,-191,-1192
11,-92,71,-6733,-4978,-1340
-87,-11,11,-60,-564,-537
57,-88,13,2658,1780,432
56,-65,-73,-502,208,-96
76,-62,79,-134,458,-141
78,-70,89,-700,83,-391
112,-51,47,-532,185,-79
120,-23,45,-469,48,-36
-127,-15,28,43,431,187
126,-5,57,-100,223,213
124,-10,48,234,555,341
-121,-8,50,-29,388,357
-127,-17,17,460,418,388
-101,-38,35,383,348,493
-82,-32,31,641,567,647
-78,-54,24,641,358,503
