AccX,AccY,AccZ,GyroX,GyroY,GyroZ
21,33,58,4485,3477,-2672
-116,-72,-52,4284,4224,-4065
83,-10,66,3252,3888,-5727
64,50,92,4962,3312,-5721
-120,40,-98,4895,2495,-7311
69,-128,-26,5335,3844,-7923
100,-39,-56,3317,3351,-4098
-82,-103,-95,1292,2502,378
4,56,-38,-105,637,1684
50,127,52,-6786,-5425,4387
56,-106,121,-10937,-14441,7492
31,98,-5,-7557,-8426,1353
-19,111,56,-274,2816,1181
-26,117,101,5045,-1479,-3406
46,-98,-75,-1122,3744,-2657
0,-32,-46,3166,-1111,372
-87,18,73,3702,-401,-213
-43,71,-55,2193,243,1347
63,73,78,-1659,-5115,6012
44,117,12,-3434,-2500,9978
-82,61,120,-3527,-576,3336
76,-93,25,-1704,-2550,4161
-111,-86,62,-963,-3022,3109
-51,24,23,1141,-3256,612
-111,-50,-68,570,-1347,296
63,119,-52,-365,-169,646
91,108,-67,-860,656,535
58,44,-57,832,-397,111
61,37,-96,-157,-198,-169
47,15,122,-974,185,-115
48,-11,114,-324,57,279
68,-5,104,48,-59,299
77,9,92,-17,-246,170
94,20,92,-620,-39,-4
100,36,90,-1033,132,-170
80,-11,110,200,-177,71
92,26,96,-489,-55,60
105,24,103,-443,-3,122
101,14,100,32,-109,137
116,18,98,-106,-29,184
123,23,96,42,-111,320
-111,54,80,-415,37,-67
125,38,80,-308,-3,-220
120,4,89,9,-67,192
-122,23,79,-455,-30,101
-115,18,80,-353,-58,141
-110,12,87,-41,-165,207
-98,24,82,-171,-57,149
-102,27,75,-47,-76,77
-101,31,69,-331,-102,50
82,38,-126,6434,8430,-4087
-24,120,-75,7213,6697,-5793
121,-59,-42,6677,4049,-5624
35,-29,114,6932,4670,-8405
63,-109,29,5808,5518,-9633
75,58,14,1242,4189,-3631
-40,-2,-67,-495,2972,-180
-91,95,-6,-11524,-9763,5457
111,-8,-62,-9055,-19794,7575
-25,-74,-95,-10697,-212,-660
-70,-52,-123,4635,-1356,1686
-96,-24,-124,4390,1347,-4225
54,-98,-126,-1492,1527,-1702
-51,126,-125,1953,-901,-290
105,70,-3,3590,-2030,365
10,14,-40,3225,-3714,4744
34,118,33,-869,-6742,9238
73,11,-126,-3364,-2512,5888
12,79,73,-2189,-1739,1674
80,-56,71,1088,-1173,2589
70,-102,62,307,-555,3141
75,11,-107,27,-448,908
68,-127,-94,81,-1551,1242
-83,102,-91,-331,-235,694
-128,46,-105,1502,237,865
69,30,-127,1536,-304,119
38,-14,-125,625,-527,-137
42,-42,-126,31,-52,70
58,-49,117,-427,162,218
83,-38,102,-818,11,549
80,-8,93,-1035,-215,570
90,14,88,-1084,-203,228
115,6,92,-700,64,-531
120,-42,86,425,218,-868
78,-62,86,412,-252,-364
90,-40,77,-585,-89,-95
111,-40,84,-699,13,-141
98,-26,86,-451,-29,-76
101,-16,86,-253,69,-86
122,-12,84,-205,159,26
-128,-2,83,-98,30,345
-125,8,82,-98,-103,325
-119,9,84,-24,-15,298
-109,25,78,-425,-28,167
-101,26,83,-408,-11,90
-92,22,87,-215,-60,71
-97,24,82,-153,-32,-6
-97,19,76,-75,-26,-12
-90,12,74,-13,-60,8
-76,11,70,-123,-59,-104
110,83,35,5864,3992,-3543
42,-114,-116,5284,2435,-5588
49,91,-31,2873,4131,-7300
-14,-60,-22,2837,5191,-7661
-5,68,-64,-231,5238,-8530
-74,-47,84,-1979,5179,-7599
-1,92,21,-3220,5216,-6164
46,10,118,-3518,3905,-4535
-34,-63,120,-1708,2504,-3364
-31,-47,69,-170,-616,-418
-81,86,-54,3553,144,1605
117,-103,-91,4493,1709,2352
12,84,-68,4849,1165,2646
106,-23,-9,3012,437,3756
87,43,9,-2431,-811,3873
-111,71,17,-7555,-15153,5157
-41,-23,-80,-2675,-19569,6707
-73,-82,-107,-3720,-3041,3207
-16,76,-28,4019,2897,-4785
-73,124,123,-1918,313,-1511
85,64,-121,1372,2994,-2144
48,54,6,2909,4189,-2089
126,28,-119,2566,2343,-2276
-80,-54,87,4101,1121,-1106
32,-93,5,3411,2510,2935
-72,-22,48,-3070,-3214,10447
56,59,-6,-2352,-2632,7355
-100,39,5,-4763,-6343,6332
-53,28,13,-632,-884,466
-106,95,-9,-2443,-2700,5085
55,48,-35,-550,-2699,3266
107,-59,-77,870,-3993,3661
71,91,-36,1697,-995,-40
-57,53,-87,689,603,-2412
-74,-90,-37,1816,180,-1060
-60,-85,-65,1258,-212,1243
-48,-90,-81,781,-59,1209
-21,-87,-109,270,242,659
0,-66,-122,-767,381,541
14,-53,113,-970,224,354
6,-50,121,-493,-216,176
12,-52,122,88,-132,139
17,-50,124,163,-86,-31
23,-52,115,-35,-42,-147
37,-61,113,-181,-101,-207
20,-65,122,-224,-272,-6
29,-56,109,-199,97,28
46,-48,97,-427,154,-195
61,-52,88,-473,17,-201
59,-57,92,-256,-167,-20
58,117,-95,1798,3984,-4692
35,34,92,922,4532,-6814
-10,13,126,1884,4430,-6313
-94,-5,-94,171,5240,-6965
-59,-46,126,-1017,6398,-6754
52,82,64,-2233,5113,-4746
-127,35,-81,-4569,4535,-4366
81,-68,119,-3245,3682,-2481
-48,1,52,-2373,2749,-2545
64,-100,-31,-2269,1464,-1556
-107,105,68,132,1808,1308
-49,-15,-31,2861,3346,1570
-16,-64,15,4397,2240,3254
-45,-104,-50,4614,1441,4185
95,-68,-124,-143,-1574,4985
13,68,-89,-5293,-9782,7688
124,58,-116,-7611,-17654,9906
66,74,-113,-12494,-4918,-260
-46,-13,-46,5089,1655,-236
123,94,-115,4026,1472,-4139
-100,-116,-2,-2647,938,-1696
-121,-110,-32,3114,-919,-653
87,-52,32,3618,-708,-1177
-43,-26,4,1772,-1338,1240
80,-67,119,967,-3504,5073
26,66,-85,921,-2681,8270
-100,-126,30,-1417,-3560,6792
110,11,106,-1560,-1992,3441
76,-94,-7,-974,-1526,3450
99,39,107,1526,51,550
61,0,-29,-430,-401,737
-30,107,-40,530,-2005,257
-22,14,22,1004,-2408,203
71,56,0,-818,-705,546
34,28,-5,319,-141,1148
0,16,-60,1363,50,705
-29,19,-114,1008,-41,243
-29,17,-112,-574,-183,19
-30,0,-113,-1176,-179,-314
-19,-25,-108,-925,-43,-93
-1,-27,-117,-735,141,-128
13,-38,126,-363,152,-93
15,-43,104,65,-4,-5
16,-29,101,-249,-139,111
22,-27,105,-57,-140,294
28,-14,106,139,-174,286
40,-1,97,-97,-36,162
51,-1,83,-196,40,30
64,-6,82,-236,-51,52
61,-3,86,-317,-31,22
-108,-96,22,3883,2863,-4788
-97,-88,-107,5154,3147,-5747
-59,-76,-65,2718,4860,-6402
-60,97,-123,2314,4973,-6874
-17,125,92,871,4952,-6608
73,-90,-68,-1158,5035,-6632
-83,-38,55,-3414,5210,-4489
-2,-76,-31,-2309,3103,-2306
-85,92,121,-840,1672,-1389
96,-61,-95,2510,1111,134
68,110,-123,4147,363,963
117,78,69,5133,-409,2595
-55,50,-88,3592,-276,2048
107,102,-121,-2213,-4981,4923
48,25,56,-8710,-11399,7527
16,85,49,-4331,-11147,4636
-73,121,27,-1100,-629,2487
-8,-90,-85,1758,934,-5782
-122,50,65,-213,2720,-2784
30,-15,-75,286,-93,-169
-72,12,113,2884,885,-1776
-9,83,76,1852,742,-370
26,28,-19,2239,-893,252
-108,-30,-31,2076,-1734,4265
-25,63,23,-165,-4611,7223
-82,-83,-48,-2035,-2433,5388
-3,76,74,-1394,-725,2666
-81,-17,4,-658,-2623,3156
-18,-106,-60,-724,-2680,1870
-9,33,-112,-581,-1638,909
-35,-112,96,328,-1251,1218
8,-83,39,-433,-625,1359
13,115,-10,-223,-773,536
-9,127,-47,-1044,-886,480
-25,48,-58,319,-921,588
-9,14,-95,576,-438,422
-4,30,-110,-449,62,99
-1,29,-127,-816,93,-32
0,-13,-127,92,-99,91
10,-13,126,167,-34,130
16,-3,114,-10,-13,211
21,-10,109,188,-110,263
35,-4,105,69,-84,228
38,-10,105,358,-41,334
50,-36,111,1019,-29,312
71,-40,101,726,119,298
68,-34,84,-128,21,124
66,-44,83,-196,38,138
73,-50,77,-95,122,156
77,-54,66,108,78,220
85,-1,2,4051,4140,-6056
-99,21,60,3627,3964,-6421
-47,-90,-10,3310,6724,-7008
117,-48,-95,4031,7102,-6820
-43,-107,87,-1218,5673,-6813
-96,-27,26,-2617,4051,-5327
-110,112,-14,1458,43,-723
-100,112,-15,1811,-544,-655
-16,101,2,3858,256,-1720
42,-110,44,4509,1264,256
33,-104,-126,4521,1018,750
-10,-37,22,-235,-3022,4066
-81,118,-11,-10891,-10319,4537
-25,68,-27,-3596,-19454,7360
75,-21,80,-7425,-958,3439
62,37,-36,2831,1305,-4788
-8,-27,-106,1665,1387,-2142
126,84,29,1112,4941,-2218
124,-40,18,3021,3159,-1123
-42,41,-6,3057,1505,-1139
17,60,-48,3136,2004,-1686
49,8,-118,2396,1609,-259
-68,-78,-31,66,-554,3436
-119,24,-98,-3053,-5237,9550
-43,126,-78,-2847,-2390,7332
-111,-51,-118,-1965,1239,4854
-11,78,99,-1583,-3538,5193
47,-24,70,-645,-244,908
-87,10,99,492,-2173,1400
-25,-17,83,-1387,-1489,1081
21,-113,74,-524,-814,2077
74,124,57,193,27,1252
26,-99,16,50,-80,800
19,100,-22,900,98,529
-1,-50,-51,1920,-664,1669
-19,-42,-37,515,-1764,2414
72,-50,-68,-546,-55,-580
64,-57,-58,-315,598,-367
47,-74,-73,44,-116,74
46,-62,-87,-299,-307,282
62,-57,-100,-243,81,162
65,-56,-107,6,-81,216
80,-53,-105,-29,6,-3
86,-59,-103,232,123,77
92,-51,-103,-71,130,-473
120,-34,-98,-209,480,-521
122,-22,-100,-39,328,-217
114,-13,-101,-126,18,-101
124,-10,-107,-282,-237,180
-128,-19,-107,-241,-238,191
83,-88,113,3463,2466,-5353
-9,-3,-26,3855,3040,-6005
-50,68,115,1715,5114,-7115
113,96,-85,627,5515,-6143
-68,69,-46,620,6280,-4621
-37,-119,-78,-1303,5455,-3469
-17,-21,-20,-3027,3266,-1969
8,-118,19,2119,559,-261
35,57,-42,3731,-632,-892
-54,15,-93,4709,708,-1214
9,2,-32,3984,1141,1477
-35,-58,28,2726,-904,4031
124,64,-69,-105,-3029,3747
47,118,-9,-13478,-12876,7225
127,30,-37,-1876,-16344,6752
-33,-88,118,-5175,574,1963
22,-64,-113,1830,3,-4596
106,74,89,1163,3981,-3755
-37,25,97,314,1210,-1387
2,-51,116,4268,1509,-1578
-30,34,101,2624,1760,-1655
-52,-12,-73,2728,510,85
-117,26,19,-1783,-4295,7716
4,29,-83,16,-2466,9527
30,93,46,-2131,-331,5609
125,106,-54,-2641,-1821,5340
94,-108,-106,-1468,-3943,5078
63,-78,96,372,-3148,2500
-31,-32,80,567,-909,1362
-19,-115,89,2764,-43,2386
99,-108,-88,2026,419,700
29,-112,110,-1350,206,-1215
-8,-11,115,-1297,-436,-1280
-43,-88,-111,-1101,-897,-595
-22,-59,-109,-1256,-519,108
-6,-39,-120,-1150,-96,55
26,-39,127,-447,218,-8
43,-35,119,-264,70,-258
28,-25,-128,-578,-353,105
11,-13,-108,-29,-272,534
17,-5,-118,426,-11,600
52,4,106,454,171,522
63,18,84,-94,85,262
77,19,77,-488,47,-48
77,5,81,-437,14,-161
73,-7,81,-114,-4,-60
74,-11,75,-1,1,-54
85,-10,76,-203,-77,17
89,-7,85,-346,-99,115
94,0,91,-303,-9,110
-103,5,1,3307,2410,-4873
127,-102,110,1103,2751,-5987
-3,15,97,1244,5695,-6547
-101,78,-117,846,7137,-5815
98,-34,-55,2484,8534,-4753
14,-35,71,-3371,8459,-4719
54,-21,-35,-3975,6817,-3216
102,-94,-91,2189,661,-738
-76,-57,107,2670,-1531,226
80,124,122,4117,36,-1462
108,93,83,6999,2055,2249
-50,121,41,4294,-1604,2775
-93,-6,115,-863,-4166,3543
-113,-10,16,-9941,-14851,9434
-20,19,84,-8549,-13326,4986
109,-31,8,-1498,-730,6643
-47,-36,-10,3287,4295,-7420
-123,-92,125,-945,3010,-4254
96,79,65,2143,2535,-1694
-31,-39,-103,3569,1700,-1391
127,-30,-59,2419,-1103,-1741
-60,72,-45,1160,448,254
113,-101,13,2443,-1258,1631
-34,42,119,949,-4482,5793
-119,-3,61,-519,-1663,7115
123,51,-25,-808,-1495,4776
63,-100,-79,-709,-3765,4935
123,82,105,126,-3648,3050
124,100,124,-426,-2247,2904
127,-83,105,2205,-334,1247
87,64,33,2273,170,1823
-4,106,-75,-389,-339,852
-4,43,-109,-430,-662,131
-44,-51,-108,400,-479,48
-48,-57,-126,68,341,74
-39,-60,107,-384,386,38
-47,-65,119,-475,-299,465
-23,-37,-109,-914,-248,433
1,-34,-108,-616,-150,234
6,-37,122,-271,223,-100
6,-44,90,-65,341,-116
17,-42,68,-263,203,-12
25,-32,66,-533,-223,70
38,-29,73,-569,-174,65
42,-24,81,-461,-48,50
49,-22,78,-173,10,56
48,-15,76,-151,-25,15
58,-20,70,-72,39,-20
61,-25,63,20,-64,68
69,-19,68,-69,-71,166
-34,-38,104,2319,3693,-6718
-100,-66,-51,2368,6744,-7113
-125,-64,-119,5390,7185,-8210
-101,-61,-52,-1428,8875,-8738
10,-2,-113,-3615,6334,-7338
100,4,-69,-1007,882,-2274
-95,88,97,1585,581,-1005
23,-18,-55,3083,802,-1569
-81,9,85,4098,1218,-111
-37,126,4,2560,-82,2051
-55,109,-61,-10600,-14972,6861
-4,-123,-30,-4161,-20751,6667
13,17,61,-12808,-5420,-275
-16,-118,71,3361,4752,-532
-104,-78,-54,5687,-329,-4942
-110,-70,-123,-2044,4832,-1819
-75,-2,-67,3436,-505,-89
-65,31,-85,5483,-1937,-770
-7,2,44,6226,-3179,-597
-105,-51,105,-109,3516,4926
91,16,114,497,-1244,6373
126,8,-58,-2800,-1877,5326
-77,7,5,-2142,-1370,2637
-70,-125,-5,-358,-2562,4151
109,10,-125,368,-2203,3543
-103,-22,82,1225,-753,1881
-111,-41,12,1403,502,96
34,-88,-33,700,71,227
31,43,-44,654,-160,-419
34,9,-57,-310,117,-48
30,-61,-91,-180,-123,223
48,-47,-92,-493,-240,155
64,-55,-73,-92,-304,232
78,-50,-67,6,-122,146
74,-35,-89,-192,-23,401
82,-32,-99,-69,-355,393
88,-32,-118,-268,-414,222
98,-40,125,-457,-278,-107
95,-45,110,-647,-354,52
85,-46,106,-696,-587,320
87,-42,106,-692,-375,143
101,-32,100,-577,88,-92
102,-25,98,-400,34,57
108,-24,91,-246,-107,40
111,-12,89,-397,-73,98
117,0,89,-534,5,233
118,8,87,-375,36,143
127,18,78,-312,25,76
-120,23,75,-468,-17,65
-114,30,80,-595,-73,103
-76,30,-117,1667,3164,-4699
-23,-64,-80,2332,3866,-4869
-109,45,-4,1479,6454,-6083
3,-53,34,1468,7140,-6944
-4,21,-114,-3791,10090,-7483
52,110,24,-4439,5598,-2632
124,115,83,-27,2796,-2908
30,38,-63,4936,-1714,1418
93,-85,114,5225,582,1850
120,119,17,6714,3121,1353
-15,-40,62,1577,-621,3471
56,64,-103,-8834,-7954,2028
28,106,118,-2315,-23875,12637
116,117,-113,-8182,-1074,4052
-16,64,-37,1007,2477,-5054
-15,-48,-66,5307,625,-3398
106,-110,42,-2208,2261,-3628
94,-20,-13,628,132,94
56,-56,11,5718,-2322,-821
18,-48,-119,172,-423,368
-72,41,-70,872,-458,640
79,-19,115,-1358,200,2749
-57,-10,68,-906,-2708,4950
-72,28,-71,-1416,-3700,3552
23,106,8,-2455,-2359,3613
90,43,-5,-1196,-3315,3645
-1,69,-16,-1322,-1357,1535
-35,47,-61,-1767,-1964,2053
51,-36,-113,-635,-227,631
-26,-114,-114,473,-1456,599
37,-102,78,-282,522,74
10,-91,73,-459,-21,46
30,91,41,556,143,-20
36,79,6,-4,-344,201
72,97,-35,-1347,11,-225
69,50,-26,-714,-315,-185
53,23,-13,443,-896,303
69,50,-30,-272,-529,229
73,32,-38,48,-798,284
91,33,-33,518,-16,-30
72,26,-35,1010,239,59
93,55,-63,182,533,-19
110,35,-68,290,271,158
-114,22,-64,618,202,-86
-122,26,-44,103,-146,-118
107,12,-32,-146,-283,202
80,-1,-45,-142,-413,378
121,-17,-48,95,-648,855
-98,-14,-45,-39,-2,170
122,13,-62,-624,-187,313
-91,-13,93,2008,4358,-5140
-116,10,-14,1419,6523,-5826
-83,116,14,2834,7563,-5563
-106,-109,-35,2528,8235,-4768
-6,-48,120,-4157,7742,-2994
71,105,-116,-2794,6657,-3021
-30,86,-96,892,637,-1129
86,-121,-24,5292,-2861,599
-39,89,5,3438,-1529,482
-117,45,-82,3424,-137,281
-114,-56,-110,-1882,769,421
66,51,-98,-11900,-25369,9986
0,33,31,-12786,-7895,2655
60,-84,38,3267,1687,991
96,-19,-42,5542,799,-4166
-66,87,-42,-862,5825,-2570
96,34,65,1961,914,-519
19,24,84,5342,393,-1769
121,-75,-105,1729,362,228
-37,-14,-114,2458,-739,1238
15,18,-108,406,-1471,3032
37,-108,53,-1370,-2019,6567
92,95,-68,-1738,-1656,5249
103,126,-70,-1139,-1487,3684
103,-81,-66,-597,-1109,3039
-105,114,-109,-1472,-1440,2081
-62,5,-119,-225,-979,1510
-49,-62,100,-395,-797,1567
-20,-123,44,-569,-824,1178
12,-127,52,-197,-890,1082
26,62,57,525,-845,929
48,89,16,-507,-3,377
25,70,-24,-662,-242,-52
31,51,-46,-638,-221,-280
32,21,-52,-121,-225,122
43,20,-54,-155,-214,190
67,28,-63,-321,-104,15
73,31,-69,-418,-217,-56
87,25,-78,-354,-317,46
62,13,-85,-198,-543,130
95,16,-94,-304,-258,94
101,21,-98,-378,-406,264
70,38,-121,-555,-391,118
81,69,-118,-993,-273,-226
115,68,-102,-267,-89,-48
-123,59,-114,431,98,257
105,37,127,779,-62,348
96,30,-126,223,-171,230
100,41,-119,-623,-76,7
-128,18,-116,-56,230,105
108,-47,70,1177,3925,-5318
38,-109,-94,819,6277,-4637
-72,-66,37,3765,8631,-4602
91,91,1,6034,8360,-7016
71,-67,68,-4916,9098,-9783
-1,27,-97,-832,-787,-3041
-9,78,-90,1707,-3217,1894
19,-54,-106,3202,-152,-777
33,-53,6,4179,1304,297
-51,105,-77,5147,2011,-98
104,21,-108,-603,182,1176
71,-103,125,-11352,-10540,6555
-66,67,-43,-7505,-22538,11740
25,-105,41,-8061,2077,-2646
-34,8,-42,6798,660,-3373
33,94,-21,1668,2385,-2878
42,-82,20,1295,715,-543
-126,45,24,2365,-187,-137
113,31,-75,3834,-1126,667
-13,119,-24,533,-3396,3931
-23,88,-104,-2304,-3731,4717
63,2,96,-1472,-2045,5733
69,-49,67,-207,-2202,4350
108,-50,-31,-816,-2348,3515
-32,94,127,-204,-1232,2707
23,33,49,374,-1299,2718
79,-84,-42,965,-491,991
40,97,-51,1061,-762,1114
39,73,-72,382,-264,100
25,9,-72,251,-142,307
47,6,-88,-604,0,216
40,-15,-107,-682,-168,147
18,-50,-122,-235,-361,190
20,-49,-128,-307,-257,127
38,-42,127,-422,-135,204
30,-71,-123,613,-35,584
55,-39,108,107,112,492
68,-8,96,-944,-82,180
64,-17,106,-626,-185,167
78,-32,111,66,-12,164
83,-27,101,192,31,104
82,-16,90,-265,-57,-22
89,-25,91,-243,-15,-4
88,-34,93,-47,-40,32
96,-24,94,-311,-24,58
99,-26,92,-155,6,81
112,-25,87,-160,7,88
114,-14,87,-276,-66,79
125,-17,86,-170,98,45
127,-14,81,-202,-25,52
12,-116,102,3045,2975,-5328
-78,104,86,2804,5086,-7037
-7,-96,109,4217,6265,-6022
79,-124,21,5077,7217,-6420
88,2,-70,2143,7538,-7724
-5,63,-27,-3901,8629,-6159
99,20,74,-130,-1685,-1237
6,48,125,2443,-2095,-1642
64,79,-72,2639,5198,-3046
-45,-24,-50,3192,5084,1734
-108,123,100,151,1519,1507
-79,83,9,-8589,-11275,2032
64,49,-4,-10261,-26122,11238
-24,-80,20,-9406,-1222,-5544
116,-103,-68,11605,3663,2611
124,120,-61,2331,2519,-4813
112,-88,79,2990,29,-1385
66,-105,-107,146,1572,-1399
-98,-82,-20,5947,456,-1146
-20,11,-64,3644,-832,-877
-46,-38,20,605,-3241,3935
126,71,95,-2329,-5352,8632
22,63,28,462,-3689,8370
83,69,70,-1211,-2546,4535
57,11,70,156,-2624,4416
-55,-110,-103,-896,-3071,6108
-1,-36,22,-1010,-1676,3230
-23,91,-82,639,417,511
117,13,126,1971,1213,433
89,35,-36,2523,-1040,1906
51,104,-68,868,-998,1477
19,105,108,-791,330,-857
-20,14,118,-692,170,-1128
-25,-64,108,16,60,-701
-9,-78,102,223,-11,-342
-11,-71,102,-85,-111,259
-25,-36,103,-378,-268,721
-1,-14,105,-515,-185,462
37,3,109,-654,36,95
60,3,110,-354,91,-95
48,-10,98,54,-35,-199
54,-7,88,-231,378,-649
61,-4,84,-295,340,-178
76,3,78,-206,191,-13
83,4,79,-129,-22,-224
98,-2,83,-309,-63,-257
87,-10,85,-392,-184,-46
89,-7,86,-545,-127,138
92,7,86,-612,15,160
98,10,92,-23,-41,304
-73,122,95,3420,5252,-5067
-83,5,59,4732,7687,-5149
24,26,77,6933,11508,-7396
-65,22,10,8095,8562,-8128
-65,-7,43,-4374,6622,-7330
-101,-45,-92,-113,1491,-3607
-70,5,2,1064,-2821,905
-28,48,-19,3301,532,-2660
107,73,117,4054,1326,-1493
-11,-114,-29,-1085,-1269,2544
96,61,40,-1097,-299,1904
-95,-39,-11,-11107,-16728,11696
-121,-41,-56,-5595,-13526,4982
-37,-118,-42,-7166,3663,600
-108,40,-1,6065,1960,-6744
46,-20,-124,1104,1976,-1886
4,115,85,103,678,-859
-30,114,26,3722,-450,-505
-127,67,80,5092,-2989,50
-16,-128,-6,1799,-5375,4110
101,49,-15,-1551,-2444,6805
109,38,69,-764,-3541,6351
21,87,110,40,-1428,4885
26,44,59,-236,-1442,4652
20,31,123,1688,-696,1448
19,31,59,635,-548,1951
25,108,2,1948,-181,1506
24,21,-95,1589,-211,1204
6,-33,-105,980,-654,1100
1,-36,-110,-151,-568,694
12,-42,-113,-1034,-82,318
30,-56,-128,-1032,367,-99
19,-84,-126,-332,45,-335
14,-98,-122,37,-200,-76
23,-82,-125,-321,-80,15
40,-70,121,-689,78,-32
45,-69,115,-529,-28,54
53,-65,114,-251,2,86
57,-53,112,-264,8,111
69,-45,103,-208,83,62
71,-44,95,-184,-6,24
89,-46,96,-124,-35,93
78,-39,93,-121,-67,58
90,-36,93,-273,30,25
99,-38,90,-301,3,54
102,-37,86,-240,-11,65
115,-32,81,-338,33,88
127,-27,77,-370,-73,160
-114,-16,89,-425,-87,174
116,-8,91,-205,-59,91
-45,-98,-34,-795,3261,-5508
13,-6,-78,-1282,5368,-5235
-48,-68,-5,2536,6455,-4153
-108,121,16,2637,9018,-5829
57,85,27,225,8252,-7602
15,-94,-80,-3131,6657,-6671
70,110,-88,1835,140,-3785
71,-68,-25,3606,-2621,322
-20,-21,-105,4035,2426,-1148
73,69,12,4608,1954,1679
-10,-9,124,1484,-791,2813
-104,-96,-97,-3087,-8103,5744
-85,-62,100,-5605,-17104,14300
-114,44,107,-6353,-11879,696
89,-39,-93,9834,1363,4684
126,-33,-85,3378,-517,-4922
61,1,125,-4580,4834,-1573
113,-84,-75,1843,1239,-662
-78,109,-53,3345,1005,-1147
-27,121,-25,2049,-783,-323
-110,56,76,2183,-201,229
43,19,19,1862,-1206,2234
68,121,86,626,-2256,4697
100,88,108,1663,-3308,5824
-62,122,-25,-487,-554,5143
-103,-44,96,2291,-2550,5364
104,117,-73,-1016,606,3328
108,-44,111,-452,-1234,2832
-108,-61,59,-845,-1288,1350
124,119,106,1040,-866,1997
22,105,1,2057,1290,656
-31,-76,-33,4067,-56,863
-46,-127,-33,2412,-991,1466
-35,-113,-61,-1099,-254,664
-13,-103,-91,-2719,318,3
10,-105,-126,-2941,265,-364
15,123,-123,-990,50,-492
16,98,-110,806,-150,-90
2,116,-112,1065,-248,254
18,-117,-119,41,-38,366
37,-103,-126,-674,185,450
50,-82,121,-836,-71,505
54,-61,119,-715,-154,582
50,-43,114,-420,-84,259
55,-51,97,8,97,-21
57,-40,90,-253,-111,8
99,-48,96,7,18,-292
101,-82,76,418,-10,-713
68,-83,91,-121,-469,-524
75,-95,94,-317,-72,-297
-110,106,-81,-1434,1309,-5725
8,27,27,-888,2993,-5838
-82,103,106,1768,4632,-6336
-73,-125,65,2980,6539,-6659
106,35,112,80,7530,-7245
48,-70,102,-5203,8163,-6751
119,-97,-120,-4177,3946,-4536
30,104,-117,-1626,3109,-3440
-110,47,-1,2946,539,-632
-52,-94,69,3542,94,146
18,-102,-2,5282,86,2227
73,-23,-105,1019,-1180,3297
-31,30,-105,-2005,-3381,3378
-73,-14,-117,-11962,-24152,11397
112,30,29,-12273,-6258,1624
37,-54,4,13741,-185,1760
77,-93,27,1970,2577,-4659
73,15,-103,1041,2091,-863
108,-45,4,725,1617,-904
101,79,-77,3606,-315,-1095
-64,97,-100,1979,-243,436
-24,42,78,1703,-2947,1943
119,115,104,-594,-1879,5896
-32,-61,32,-203,-1285,3524
86,-39,-47,-3140,-1841,3718
-10,-128,84,-1038,-1988,2821
-15,106,77,317,-795,4109
26,81,41,672,-835,4012
66,-66,-59,3157,-545,2347
61,-47,116,1971,357,1282
15,-45,46,563,434,472
-9,51,29,493,-688,394
-17,-61,12,1732,-948,641
-19,-99,-1,1522,-1467,1336
33,104,15,706,-1714,627
19,-123,-29,-913,-322,-124
31,113,-97,-1122,1043,-866
82,72,-109,-297,891,-166
78,98,-101,563,153,861
48,-90,-92,-233,86,345
83,-77,-82,-528,186,124
70,-98,-67,46,-274,-107
94,-82,-63,-15,-212,-271
-105,-68,-61,-132,-75,-100
53,-78,-94,-228,-176,-214
109,-81,-107,-441,47,-95
-122,-82,-114,-307,-248,204
125,-68,-116,-323,-37,-133
-124,-64,-120,-340,196,43
-78,-67,-123,59,227,-205
-13,-113,-60,787,5727,-5249
-33,-93,4,4186,7609,-5983
71,-110,39,7452,6160,-6336
1,107,-51,-615,6959,-7301
-119,60,-120,-4745,3823,-5794
103,87,-73,-678,-954,-2510
42,44,-118,1827,-275,-1001
91,30,70,2313,-822,-1346
118,-79,-66,5495,1086,1822
-49,-1,-30,5362,1263,2601
34,-89,-79,1549,-42,3407
13,-101,51,-6172,-1889,2659
55,3,65,-16794,-10183,9296
24,-8,48,-3004,-21340,9854
-32,74,-92,-3044,9173,2544
-3,-14,-75,8734,-3639,-5359
-93,-92,104,-2399,3568,-1704
-125,-114,-112,672,-736,-222
-60,59,-4,2425,396,-1962
-110,-5,16,3368,-395,-1879
30,113,-64,1267,37,-668
-91,25,-11,1494,-1775,1462
48,114,29,345,-3243,5295
-26,38,-31,-258,-5605,7523
51,42,86,-1249,-840,3541
18,59,62,-696,-672,5220
22,-114,-115,381,-2412,3297
52,65,110,133,-2087,1438
86,-44,-3,374,211,730
28,83,-22,1963,-395,1885
2,52,-57,2296,-318,1469
16,-11,-58,2100,-6,632
59,-34,-79,680,274,-123
51,-88,-80,-21,-158,-161
1,-111,-103,-676,-397,-13
-5,-114,-104,-810,-340,-81
-9,-126,-117,-479,-129,115
5,-106,-114,-330,-29,301
52,-100,-126,-241,203,235
47,-78,-128,-392,-24,213
43,-71,124,-222,-25,70
60,-75,124,-113,164,-133
99,-79,121,-88,177,-45
59,-43,95,-276,32,126
89,-58,84,-48,140,-182
107,-73,88,46,-13,-43
96,-71,88,-144,-210,-120
96,-70,102,-219,-82,-74
108,-63,107,-272,82,75
117,-58,94,-183,94,-3
38,60,1,780,3618,-4549
78,-66,31,2246,6267,-4343
-97,-85,-33,2783,7856,-4544
-125,-82,43,3616,7655,-5512
-50,-6,-54,-3767,8198,-5439
114,90,-36,-2818,2621,-2943
6,-4,-71,202,-3367,2132
-84,-112,78,3024,-1862,-2012
-104,-41,-43,4240,-1188,-3162
-16,-82,47,5333,335,-2305
117,-59,-22,2701,1035,354
-29,-75,32,89,-761,2045
111,-122,105,-6377,-9413,5118
-29,47,22,-9963,-16291,9556
20,-76,113,-11368,-6449,-1168
-76,-116,7,12250,4181,1877
22,-121,67,3248,-2172,-2637
-121,-24,-99,-2526,1422,-3050
-59,48,-13,27,-152,-1523
109,-81,-51,4294,-2711,1133
-48,40,81,2939,-2812,1832
11,111,-89,235,-2839,5078
107,23,-88,-359,-4077,6274
53,-65,109,-882,-3072,4974
105,-106,107,457,-1951,3347
95,22,45,1678,-596,2709
114,-95,126,2825,-72,2644
-90,62,43,4484,-46,2996
-59,-33,120,-1114,1321,1214
50,-50,86,-2802,-139,-1437
5,-3,-112,108,-971,-1555
26,-35,-93,1399,-661,-205
23,-33,-106,885,-201,-114
6,-81,-110,432,-202,-269
3,-90,-97,-104,-408,95
29,-73,-107,-447,-117,41
45,-62,-110,-632,-10,-156
49,-69,-113,-475,-31,-78
57,-77,-116,-168,-106,112
45,-50,127,-274,-129,216
65,-33,108,-595,169,269
77,-31,101,-461,-47,176
85,-14,97,-456,-128,254
82,-2,92,-528,-113,99
85,-6,89,-345,-14,-137
96,-18,85,-67,9,-159
96,-17,86,-233,-139,-14
107,-10,88,-363,-24,-10
121,-14,85,-242,80,-24
-127,-11,83,-290,39,86
9,-4,-45,2013,1934,-4635
29,11,-97,1228,3841,-5418
-21,-119,13,1195,5392,-5744
17,-117,-6,2093,6149,-5752
35,77,46,1423,9121,-6761
89,-85,-102,-1509,8997,-4953
-27,-60,90,-3040,5655,-2097
-37,-67,85,-911,-1040,-941
23,10,11,2917,-96,-3099
89,78,85,1763,-1575,-4211
-25,122,-126,4059,1512,-1295
-7,60,-60,1078,1119,469
-121,49,-26,94,-571,1980
66,81,8,-3231,-9715,6997
69,19,-97,-8267,-20688,9489
100,31,36,-9046,-5568,2865
71,-105,-2,4654,1664,-683
32,-123,-82,4870,3682,-5593
92,-128,112,-997,2756,-1506
54,15,-79,4253,1115,-1093
-48,55,-75,2802,640,-1213
-25,67,116,1979,-1160,1940
6,-3,-41,3,-2323,3317
69,-125,56,-1187,-2869,5501
119,45,48,780,-3410,5899
48,5,-61,-196,361,5972
-48,-90,114,-784,-1202,5008
95,59,12,-1774,-1846,4050
-84,22,39,-1112,-2129,574
119,-112,72,2023,-1256,1289
75,-95,-31,1257,764,787
-7,74,-87,538,251,-398
-15,-52,-69,1528,-419,-102
8,-88,-80,1096,-183,37
23,-40,-118,-1606,158,-566
23,-89,124,-1431,-92,-368
21,123,-121,94,-329,26
43,127,-120,609,-165,223
32,-99,-125,-67,-185,267
39,-82,126,-597,-49,236
55,-76,123,-476,-87,261
64,-71,121,-58,-20,344
68,-55,112,-153,-2,291
68,-36,99,-430,66,150
82,-42,92,-378,122,13
80,-50,85,-85,14,21
100,-48,76,-127,60,-75
99,-52,72,-135,-62,-64
100,-54,77,-135,-84,-39
104,-49,80,-279,-37,23
49,102,124,1844,3079,-6192
-58,-114,-18,3471,5194,-6913
127,12,47,5059,7095,-8208
-12,-77,46,-2002,8294,-8433
-56,-16,-60,-3712,7365,-6721
125,-6,109,1187,671,-2570
-47,-94,-91,3146,-2542,-243
33,-43,-104,3293,-636,-2670
-26,-60,31,4404,1546,205
-13,27,77,586,259,1596
25,-16,-55,-5589,-2717,1199
107,105,-19,-12119,-22837,16482
-127,93,49,-5891,-5151,1114
10,-93,20,2888,-234,3288
55,-112,-106,3379,3092,-8115
-122,112,9,1415,790,-2875
-14,-17,34,-3240,-2169,-562
70,-81,23,4723,-2955,1172
83,75,98,3470,-1728,1542
20,-116,-47,1694,-986,1441
98,-128,-115,-973,-1402,4825
97,46,102,-360,-2901,3472
-125,63,63,-630,-1251,3558
-125,-89,-96,-1279,-1641,3683
-52,56,75,-433,-1181,4263
36,-109,61,954,-1003,5188
59,68,35,1933,-369,2010
86,22,-61,960,-572,764
93,-21,-64,806,-776,616
96,-6,-109,138,-239,54
54,-14,119,-634,-118,-875
30,-72,123,-414,-116,-996
30,-88,123,98,-104,-209
38,-87,111,238,44,345
38,-59,112,-167,-43,99
57,-48,124,-271,-101,135
79,-50,-120,212,74,16
76,-47,-123,299,72,0
83,-37,111,-285,124,-217
103,-39,97,-744,219,-379
100,-29,97,-902,48,-409
111,-36,107,-508,-16,-234
103,-30,127,-285,-130,-94
123,34,-128,-1594,202,-160
-113,41,-128,-1305,434,-358
-124,35,-126,-402,35,-151
-121,41,-124,-215,36,-255
-120,36,-114,-520,305,-506
-101,90,111,-1394,204,-138
-108,93,116,-755,-80,-28
30,94,-55,4057,4118,-4254
-44,29,82,1887,4361,-4635
-44,-120,-35,1257,5517,-5202
-94,28,-51,3932,6927,-6574
33,-44,-81,2504,7429,-7662
97,-11,7,-3463,4692,-5289
87,-40,-120,-1729,-521,-705
60,-96,13,1241,-292,-10
54,-55,36,2619,-2287,-358
-118,5,78,4689,-1181,-766
-99,-114,-38,4406,-1427,71
52,-122,-47,4775,-2068,139
-28,23,-63,-1409,-1994,428
64,79,114,-4323,-7052,8386
76,-76,81,-9824,-13380,13466
21,-101,-89,-9569,-5287,1658
107,4,-69,2881,2037,-2386
118,111,117,2453,1310,-3862
-26,5,-91,193,2592,-1719
-55,77,-63,1938,-191,-242
70,121,9,1875,-608,-1205
114,72,-65,1272,-1442,455
55,-8,-125,1789,-2266,2416
20,95,-93,229,-1840,4930
-113,-119,52,367,-2943,4899
5,-3,93,-64,-3539,4647
103,95,-3,-421,-2737,3673
-56,-80,-107,-1191,125,3451
112,21,74,132,-882,2439
83,24,15,-466,-829,861
22,99,8,2725,-605,902
17,81,-65,2189,-60,735
-2,31,-96,1818,-117,263
-1,-21,-117,1081,40,124
2,-80,120,-1,96,-407
6,-117,118,-367,-186,-475
3,127,123,-781,-111,-18
6,127,121,-749,47,-38
23,127,120,-514,6,-1
35,-118,117,-249,-143,163
39,-114,123,66,-137,173
44,-99,116,-164,-6,254
46,-71,102,-676,35,324
46,-63,88,-448,51,170
71,-59,76,-164,169,65
76,-60,65,0,59,-141
78,-63,66,-56,-8,-121
86,-63,60,-256,96,-110
93,-72,55,-259,-27,-79
92,-67,59,-375,-121,1
32,98,108,2522,2060,-6056
25,48,99,825,3164,-6937
-45,106,-9,483,6280,-7422
-110,-2,-94,4538,7970,-7641
44,-21,125,451,7973,-7979
-70,-92,-45,-4721,6121,-6851
81,-84,75,1547,-1819,-223
-60,60,63,3852,-3851,-474
-41,20,-18,3062,-2565,-2852
42,13,-18,4125,-145,-346
-56,50,-92,599,-967,1033
81,-3,42,-8052,-9225,5687
38,80,-41,-6472,-15524,9891
68,-54,-43,-1090,-4830,-948
15,30,26,2217,1816,1823
38,78,-128,1502,458,-4010
-106,13,-78,690,442,-1794
-61,104,69,522,-1295,-312
-79,100,-20,1566,-1037,-106
76,76,-64,3060,-2553,988
98,-98,-121,1154,-2009,3640
21,-36,-33,590,-2647,6178
85,82,-35,-291,-2290,7004
74,-120,60,-286,-2355,4354
-120,108,77,-962,-2322,2921
-113,54,12,-753,-1798,1685
-126,-58,-112,964,-871,1230
105,127,-48,1014,-352,1139
80,95,-69,494,-529,1162
63,83,-99,405,299,672
48,-2,96,1415,267,-121
50,-45,111,1157,-512,-614
13,-85,127,817,-790,-444
-18,-106,-114,171,-537,-290
26,-89,-122,-862,334,-127
51,-77,116,-1172,687,-107
54,-65,101,-992,303,-106
62,-64,100,-473,46,57
76,-56,93,-209,172,144
90,-39,86,-187,159,159
81,-16,88,-392,11,81
77,-8,93,-296,1,-49
106,-11,92,-221,64,-40
108,-21,101,-120,-155,85
93,-23,96,-46,-39,42
115,-26,79,-188,149,-73
-123,-21,76,-452,-42,161
-125,-18,77,-101,-102,153
-124,-11,78,-62,-84,6
-123,-9,83,-273,-52,-42
-81,80,38,2963,933,-5078
27,-25,79,1612,1261,-5402
87,-61,-72,3181,5948,-6151
117,-89,-56,6396,7360,-6217
-79,80,76,1610,8822,-7907
105,33,-83,-3605,7999,-7248
-95,-92,-6,460,645,-3228
122,39,-95,2522,-1377,-1028
1,79,-66,3746,-756,-1435
-36,48,-83,4502,629,-1000
-90,36,110,1183,-1196,1301
32,-115,0,-5933,-6338,2886
-46,20,4,-11791,-15784,6676
45,-18,59,-1464,-12633,951
1,-14,-89,-865,-205,4007
107,118,-127,6148,3823,-9944
-110,-127,-55,-1142,2183,-1241
10,20,-19,2254,-2846,-609
-45,90,-92,4333,-2705,2067
-103,-62,-18,1031,-4138,3000
-103,78,12,-1870,-3700,5328
15,-93,83,-146,-4355,5313
-69,13,102,1839,-2703,4010
-76,25,81,2085,-1051,3919
61,-95,110,1438,42,867
-16,-85,-85,1052,402,-47
9,78,112,41,355,336
30,12,87,-829,-261,191
14,-20,126,-25,-1322,415
31,-30,-116,321,-922,620
32,-1,-120,-186,-54,130
34,-6,111,-325,572,29
41,-29,89,72,422,157
35,24,80,-503,-107,669
57,50,73,-865,-203,-148
64,31,100,-664,-175,-586
64,0,98,83,165,-618
72,-34,93,430,154,-732
71,-43,90,-126,-33,-414
50,-38,73,-690,-133,-154
61,-26,87,-929,-222,375
81,4,91,-795,-189,551
95,40,98,-961,-91,406
115,63,96,-935,126,192
116,48,94,-66,41,-47
102,36,87,517,-62,339
107,65,76,-123,-116,130
120,63,78,-408,91,-60
125,38,77,-1,155,-7
-124,31,71,6,63,-42
-49,-16,-27,2034,3112,-5089
27,-107,114,3202,1648,-4356
-4,-101,116,2310,3858,-4806
113,-109,47,2633,5770,-5634
-127,0,66,5451,7390,-7663
-79,-58,-82,2460,7382,-5614
37,-82,-18,-2818,8088,-5809
122,-100,13,-846,1103,177
-62,-20,-89,709,-2783,-313
45,69,-67,4008,-2035,-1603
-92,96,-26,3756,-957,-3058
68,14,-7,4148,-686,-344
-15,-95,-51,-1307,-299,793
67,-20,39,-7381,-3980,1846
42,-57,20,-11060,-21305,8889
-102,-6,94,-8609,-6490,2311
-115,83,-13,8164,3174,-2009
27,33,102,3414,1276,-4860
-97,32,-111,-775,1947,-2221
-119,38,109,1938,-1025,-624
-47,64,-115,3679,-3384,-180
77,89,52,2874,-4439,1205
58,56,-87,1783,-3265,4267
-88,84,-127,-522,-1507,7600
75,63,79,-397,-2281,5768
-74,117,73,-218,-2182,3016
122,-52,41,1579,-745,2153
66,91,97,1089,1029,2126
-18,-65,-57,299,-235,1099
51,-16,-83,-3087,518,688
52,101,-84,-613,-105,590
35,35,-84,1919,-634,733
31,30,-108,1924,-604,225
32,0,-125,800,-640,150
23,-28,127,-611,-781,260
16,-41,124,-1119,-597,218
19,-57,120,-959,-192,113
37,-57,108,-360,268,-2
39,-52,93,16,214,-89
45,-49,79,10,-4,5
43,-45,77,-186,-119,121
61,-39,83,-295,55,166
71,-31,84,-454,-33,470
83,-18,78,-486,-17,497
80,-9,74,-436,70,115
94,-7,73,-269,134,-121
104,-16,69,-68,16,-79
104,-15,65,-92,-56,-61
99,-16,64,-183,-63,-20
110,-20,65,-167,53,38
67,4,-126,2241,1817,-4428
-1,-98,-30,2302,1089,-4937
20,95,-105,2047,3350,-5752
-33,-9,45,2331,3793,-5457
-13,126,-90,1707,4644,-5237
-38,126,-103,1704,5057,-4604
-116,-4,-109,367,5979,-4708
113,-42,52,-2007,6186,-3674
-24,-9,118,-822,3584,-2159
60,-125,21,1370,-500,-1432
27,-4,-2,2001,-2570,-684
-48,-21,-65,4212,-399,-2165
-11,-24,-26,4311,-136,-1364
85,24,88,3489,1021,691
6,48,-58,1013,-938,2024
-98,45,-13,-7824,-2607,1187
-11,-52,-121,-8226,-22304,15257
-102,-123,103,-18737,-7709,-3086
23,114,-94,7833,1997,-5023
-42,-6,119,7092,1702,-3423
-29,-37,61,-5082,1688,-2694
115,21,124,3536,-3379,150
10,84,-39,2320,-3057,417
48,93,-125,1131,-2651,1587
-71,-18,-96,1966,-3376,3127
79,122,-92,1777,-2699,4742
2,67,51,1805,-2859,4397
-91,36,121,373,-1723,4703
-65,29,-100,-460,-16,3229
101,-96,50,315,536,1821
2,-22,21,1389,-488,1581
10,92,-37,2363,-71,1313
37,-16,-99,3027,771,1139
36,36,111,316,795,424
7,-9,122,-773,64,441
-3,-66,121,-971,-97,498
4,-78,119,-735,61,118
6,-92,113,-323,69,-78
19,-96,112,-142,-13,-291
30,-112,109,189,-47,-130
23,-109,105,31,-86,-53
44,-99,99,-361,-17,-53
61,-103,93,-406,24,1
47,-89,86,-611,-142,178
49,-66,99,-511,-164,241
64,-68,103,43,95,227
76,-50,89,-210,83,9
82,-54,77,-153,15,-102
94,-65,70,-115,79,-63
87,-61,59,-256,26,9
13,69,117,724,2352,-6108
123,43,-124,2383,2642,-5736
99,122,-7,731,3409,-6181
10,-57,113,-417,5878,-6633
-105,44,57,751,7245,-5332
2,23,28,1770,9856,-6068
-24,-47,105,-1409,9932,-7115
-54,113,-44,-1935,5418,-5152
-101,38,6,1136,-5421,1362
91,122,126,4742,786,-832
-120,-52,-109,4891,726,-189
-81,127,-119,3481,1082,3344
-2,125,-48,-3914,-5064,3524
-91,18,3,-11001,-15486,12328
119,117,55,-4226,-12347,6021
60,72,36,-5177,-1393,1617
-106,49,-63,2941,2355,-7205
0,78,105,3547,2569,-1867
-75,-122,75,-1572,-1317,-768
68,77,96,2985,-2954,1009
-128,-118,-48,1998,-2714,976
53,-94,-8,494,-2168,2179
124,-68,-67,655,-1454,3381
-31,2,44,621,-2823,5174
26,-67,-110,-1100,-2703,3746
-117,-43,-50,-797,-2093,2588
116,119,-106,-130,-1711,1962
92,40,92,664,-812,1312
30,-26,5,231,-360,1040
-2,116,-40,946,25,742
6,61,-74,1065,-37,894
25,4,-110,1046,-155,979
37,-19,-122,894,-219,823
43,-26,117,-67,-54,480
45,-19,106,-983,169,94
39,-42,99,-540,117,91
44,-57,97,62,-55,120
52,-52,93,178,-83,75
63,-51,92,-8,-52,6
67,-50,83,-256,-1,-94
68,-53,82,-345,-63,-125
70,-61,84,-137,-29,-81
82,-63,84,-72,-26,-59
87,-66,85,87,-94,28
82,-56,86,-128,-29,23
90,-54,78,-288,81,-28
109,-62,85,-125,41,157
100,-50,76,-190,-26,127
104,-33,75,-527,136,183
118,-31,64,-315,225,115
-34,-122,-37,145,1806,-6251
-46,58,37,-773,3557,-5388
-17,-108,-36,1058,4553,-5482
57,-39,-34,-111,5296,-5982
-23,-119,-106,-3308,8429,-5491
109,-101,-105,-2180,6043,-3754
12,-22,-65,-99,-1069,-2595
-52,101,49,3438,-1716,-1481
-1,18,-55,2420,-2153,-1254
-122,-72,-109,3940,-393,-650
-1,96,78,1558,-21,1531
102,21,9,389,637,1884
76,-81,79,-9563,-10901,9394
-89,17,0,-6537,-19350,7587
-110,-43,69,2469,3920,1815
73,111,-115,1835,-2048,-6868
119,75,-16,-28,1283,-1829
33,126,27,-1119,1035,-501
102,78,-30,3365,-1463,-854
-66,116,-57,3198,-3261,1736
-125,2,-75,4400,-3771,3426
-2,76,-37,1851,-2204,6080
-110,96,5,-538,-1245,6188
-38,-105,54,64,-163,3784
61,-58,88,-140,-347,2152
-71,-27,-19,903,-1709,1799
-11,63,-5,2802,-426,2040
51,23,-39,4250,-207,2179
118,50,-89,1655,496,837
54,-1,-124,-336,588,-375
28,-100,114,-887,534,-694
19,62,99,-800,472,-648
1,44,114,-434,-114,-171
-6,46,116,-76,-162,450
7,104,122,-789,-126,648
42,-120,106,-1433,116,353
55,-89,80,-1393,-216,-83
40,-67,86,-759,-593,2
49,-76,104,66,-342,203
48,-73,102,211,35,92
51,-57,84,-137,197,173
49,-51,73,-373,-4,119
57,-47,65,-335,9,5
81,-49,56,-373,117,-179
85,-53,62,-412,-197,14
82,-44,58,-308,-2,-88
94,-55,50,6,110,-297
92,-54,47,-165,-46,-128
97,-47,50,-433,3,-4
107,-47,50,-279,132,45
69,-51,56,1854,1959,-4730
74,23,86,281,3116,-5588
-82,90,-80,194,3893,-6030
-63,-113,-21,226,6455,-5003
92,-114,88,3528,7976,-4803
53,8,64,1873,7595,-5078
110,-41,76,-3526,7644,-4902
100,-121,95,-3651,5075,-3497
77,-104,119,2386,-2104,-980
27,97,-8,5318,2590,-1368
62,30,32,4822,330,1433
-44,122,35,3483,-316,3123
96,45,33,-4006,-3330,2256
-79,-96,-89,-14783,-9949,8956
-54,89,-2,-6742,-16932,6897
25,99,126,120,6422,1556
26,31,122,5174,-4406,-7392
78,-24,79,639,1705,-1975
33,-51,104,-1696,-76,-1811
-63,0,44,3213,-2453,1340
58,88,-96,2341,-5489,3010
-96,-126,27,334,-4009,3566
-28,-103,-58,-3329,-3539,5681
6,-60,108,-1985,-5665,4110
31,6,121,-1430,-1158,2030
99,77,-125,414,-1566,1817
113,75,-89,-130,-724,1200
73,22,37,-8,-1051,793
-15,125,-7,2633,-2010,1065
-26,20,-60,4624,-1764,1701
43,57,113,2515,-22,726
43,96,77,-1390,1742,-691
37,34,58,-2166,1652,-1030
31,-49,68,-693,621,-597
22,-66,83,1067,-494,302
12,-46,86,1008,-829,627
40,-9,97,-163,-398,393
60,9,97,-1092,166,185
60,9,100,-839,104,57
78,0,103,-195,-11,-180
70,2,95,-205,-118,-265
74,6,90,-465,102,-376
88,-30,80,113,136,-251
86,-25,80,34,-120,100
83,-10,79,-160,-95,297
96,-3,72,-169,109,121
111,-3,69,-157,56,133
111,1,71,-122,-67,114
121,0,72,-107,107,67
115,3,70,-188,-6,116
18,-64,-92,4491,338,-4001
63,123,0,678,1775,-6448
52,-100,-23,1320,2221,-5675
-41,-16,-47,1157,4493,-5329
101,74,108,1846,6341,-5472
127,86,80,3162,7056,-6508
-39,-104,91,-3290,8276,-6760
100,59,0,-983,4582,-3290
-41,-65,-17,-382,-2583,-1558
35,69,-38,1890,-1867,-1000
50,39,5,2856,-1036,-3606
69,17,-123,3961,272,-2286
10,-6,41,4591,2115,-815
-25,-90,91,-2365,-1154,1524
-17,107,125,-10489,-17021,16623
116,-112,95,-7258,-12194,4593
-79,-71,126,7016,126,1358
25,-117,50,1807,2325,-7097
4,104,-39,2916,2966,-1364
-43,124,51,-181,-3726,2938
53,100,-72,2101,-3600,967
-106,-123,-128,976,-4145,2774
-64,-128,-21,1479,-3972,3642
69,38,85,673,-2812,5770
-37,-43,74,-332,-3039,3433
-64,-18,55,229,-1149,2257
124,125,-20,918,-465,2209
69,30,29,567,138,1514
-7,-107,-36,1681,-696,1280
-30,38,-50,2676,-680,1471
22,-3,-107,2202,206,1423
43,8,-121,321,569,768
42,1,108,-956,583,50
-2,-37,104,-1123,-93,-612
20,-88,112,-109,-30,-680
28,-102,112,121,17,-461
14,-95,106,-71,-96,-231
27,-95,110,-158,-126,-217
39,-93,112,-262,3,-205
43,-86,105,-451,10,-130
42,-82,102,-424,-38,-34
46,-76,102,-261,71,71
60,-67,91,-182,222,205
72,-56,81,-275,146,315
79,-39,73,-311,35,348
99,-29,75,-239,121,214
115,-29,75,-98,77,130
97,-25,72,-2,-103,94
96,-25,74,-60,-25,-12
115,-25,83,-188,68,42
-94,44,26,2133,3508,-4666
-72,80,15,4564,4368,-5212
-13,-112,-112,6498,4289,-6189
120,-69,-18,4911,5153,-8093
-75,-5,0,-2139,7867,-10395
-93,-74,-113,-2741,4647,-4829
38,-87,-56,-328,-986,-2015
102,-67,-122,2322,-4213,-1701
-83,-44,-127,4670,-3159,-977
0,96,41,6117,-451,186
-20,106,-53,2005,1890,1650
-39,7,-19,-9835,-3969,4913
-5,-10,-118,-6306,-17083,12019
72,-25,-49,-4050,-14044,5667
28,-17,-102,-10477,2567,-1062
42,14,-20,10776,1871,-4205
-48,99,117,2042,2247,-776
61,38,-64,1748,640,163
-62,109,110,1430,-1846,1920
-79,-86,-89,219,-4005,4382
-119,-39,30,-743,-5719,5139
-87,-112,-49,-2845,-2979,5297
15,-37,115,3279,-5074,5975
-112,60,-15,3649,1722,8460
-79,-126,-56,-2213,1353,4735
54,-77,88,-1820,-1429,-1824
32,40,69,1298,-39,-5046
40,112,-111,5362,-665,-2170
44,80,96,4603,-348,135
-13,104,76,1118,430,692
-22,-109,102,-1658,221,284
30,-124,106,-2561,213,-198
64,-127,97,-1589,244,39
59,127,109,-47,-127,4
57,113,113,1274,-317,55
54,-111,109,310,-310,95
59,-89,98,-875,63,-41
77,-81,72,-1446,278,-101
80,-65,63,-1493,-50,-100
76,-48,73,-988,-259,-103
85,-57,93,167,-42,-5
83,-39,85,121,39,98
90,-29,75,-91,66,25
103,-46,71,283,110,51
115,-47,56,143,108,149
116,-35,48,-305,-46,88
123,-38,57,-230,10,136
-125,-32,56,-119,120,84
-128,-25,52,-144,33,-85
-117,-41,48,130,73,-190
-102,42,119,2423,2694,-4155
-84,-3,123,3337,3406,-5012
-92,-47,-40,2416,5653,-6963
74,-116,91,4196,8289,-8480
18,-96,-24,122,10572,-9348
67,18,-31,-6373,4561,-5056
6,-98,-86,2199,366,-135
119,35,108,3527,-2672,-106
-80,-29,104,4047,-1407,-1296
76,4,41,4945,917,506
79,-19,73,1013,335,-645
24,70,-57,-9448,-8557,3391
-123,-86,-15,-6626,-23013,11349
-63,-37,10,-10757,-5035,1845
102,-118,24,6211,2236,-2891
120,50,-100,2520,2678,-4496
-19,-65,6,1085,1511,-1042
126,-96,109,1802,-160,-569
-45,105,-58,3494,-1031,-211
77,-103,126,1887,-1886,2127
31,-120,-65,325,-2590,3952
41,116,-83,-1066,-3853,5281
-5,92,109,-653,-2566,3724
-30,74,43,-692,-1863,1278
105,-79,4,-1085,-2913,1768
-55,61,-76,-499,-1209,2238
-20,13,113,-196,-1398,1814
18,-92,60,1349,-777,996
27,-102,-2,1212,213,1587
8,105,-61,1551,-302,1316
-12,72,-127,211,-887,557
14,60,115,-1235,-321,-189
20,5,100,-454,437,-18
17,-31,94,984,341,75
29,-23,95,747,-89,324
40,-5,104,-20,-107,188
41,-21,115,11,115,48
48,-44,114,339,141,-241
61,-51,110,-71,-4,-135
67,-17,107,-924,-60,202
76,-13,98,-781,28,158
100,-8,87,-305,93,-40
111,8,83,-502,-151,-424
116,-1,96,-582,-25,-545
85,-21,111,-199,-56,-309
77,-22,108,93,180,23
-127,-27,82,112,444,37
-128,-17,77,-438,-165,587
105,12,90,-625,-150,778
118,24,89,-104,316,414
29,17,30,575,2069,-6682
71,-58,108,4299,5410,-7060
10,-19,-9,3636,5831,-5424
-69,97,-95,2658,7255,-6581
1,75,-90,245,7633,-7215
-20,126,-88,-1752,8220,-6825
72,-5,58,-160,4304,-4409
-120,98,125,2264,274,-3302
-36,-125,44,3711,-1881,-1011
-17,17,89,4844,1655,13
-125,-101,-67,2596,304,4020
35,14,-103,-4527,-4629,5281
-87,-107,-17,-11527,-21465,8807
116,-54,-106,-2991,-10912,3566
67,-45,-92,1665,483,5066
77,26,72,6353,1065,-8616
-35,126,-61,-648,4896,-3708
124,-117,116,-1265,-1694,-1269
-40,-47,11,5983,-2115,-406
68,-105,-120,2260,-2264,835
-37,-127,0,221,-2302,2451
96,-87,122,741,-1820,4338
-63,90,-16,-221,-3034,4426
40,20,58,-1308,-1584,2645
-44,94,-8,-527,-2072,2920
-6,-4,-61,258,-1029,2005
67,38,-101,-969,-99,2674
79,-29,88,-201,-308,1173
74,111,2,925,-524,789
61,-9,-35,3910,-1136,1587
73,-64,-85,4381,-634,2033
49,-38,-115,1316,-233,747
8,-27,-109,-2169,25,-215
39,-61,-118,-2612,234,-54
41,-69,-119,-1184,151,323
38,-71,-114,779,96,431
67,-63,-122,1097,11,132
72,-47,-126,120,-76,-249
78,-47,-122,-803,254,-442
65,-49,-124,-705,218,-365
106,-45,-128,-235,500,-243
127,-52,117,372,473,-490
-110,-65,122,904,465,-1092
-109,-43,-110,160,36,-604
-99,-41,-111,-173,52,-399
-120,-54,-111,-161,-132,-361
-96,-50,-108,-526,-60,-79
-120,-44,-101,-127,-109,28
125,-43,-83,1304,-292,238
-100,-19,-83,861,-23,-6
-53,7,42,682,3481,-4865
-3,119,-72,894,5994,-5127
-36,51,-72,3044,7928,-5435
65,20,-85,1747,8757,-5522
-124,-29,-84,-2361,9689,-5596
-88,-74,-43,473,3055,-3369
-6,-3,16,627,-1593,-966
35,12,-94,3922,-1574,-2875
-87,-125,-1,6379,668,-3110
24,33,-12,3883,-960,1034
48,-95,-45,-1652,-2754,4516
-55,19,-67,-16545,-9180,10530
-104,-112,121,-1761,-13183,5200
-2,-39,94,-2050,1655,1207
-69,67,-94,5678,-186,-6362
115,24,15,-469,2070,-2749
-8,76,47,-221,-1967,-413
-28,-6,37,4592,-2185,1357
102,-102,-63,702,-2808,1976
-77,-76,-17,-1072,-1572,4740
-56,116,0,-904,-5236,4254
77,-86,78,-1055,-2068,3115
105,31,68,-939,-1136,1457
14,-107,-18,-1588,50,501
-36,38,104,-859,-1817,917
-5,-62,39,171,-1829,1390
47,-55,-2,-985,-1857,1932
41,108,41,1069,-2096,1381
96,-122,-16,1042,19,698
60,116,-80,856,957,69
40,69,-118,608,403,-571
59,34,115,45,118,-370
75,-19,101,372,-163,-100
69,-30,95,570,-333,121
34,-53,101,795,-913,371
28,-75,118,565,-755,376
62,-61,-117,-186,75,522
96,-47,-120,-295,319,394
79,-49,93,-93,295,-223
91,-75,81,54,258,-493
105,-70,83,-419,98,7
93,-65,83,-257,4,406
93,-48,82,-260,33,318
99,-36,84,-224,-90,400
109,-17,87,-382,80,281
125,-13,90,-223,35,326
-121,-7,75,-51,24,114
-119,-17,69,72,-50,-208
-117,-18,73,-256,65,-237
-105,-38,74,4,106,-180
-125,24,45,2697,-59,-5278
-100,85,74,686,24,-6682
-1,12,77,934,1286,-6131
102,22,-13,202,6757,-6445
-36,22,-108,4108,8529,-6893
38,-47,-78,7009,7909,-8627
72,-86,-23,-3670,6416,-9610
53,-46,114,2175,-4621,1149
-1,-44,-25,5625,834,-371
3,106,-58,3694,-2342,525
-62,-85,66,3523,-993,1525
-117,-84,-86,-4085,-2883,3327
25,11,-12,-10813,-9189,7130
-11,96,17,-8163,-16964,12202
105,-103,27,-2139,3148,3
-108,-106,-45,2743,2626,-2829
-56,14,60,6012,-272,-3963
-105,88,5,-937,1160,-1766
32,-80,-88,-1625,819,-278
-92,96,-117,2434,-1526,531
61,-102,-126,2476,-4811,3714
-102,119,-11,-2969,-4167,5298
-21,2,-78,-2783,-4584,5532
92,-45,96,4,-3497,3561
-107,-38,79,-1949,-3926,4175
-16,76,91,-100,-2573,4236
-22,-113,-125,1324,1142,4087
85,42,21,3339,561,-815
68,110,113,2507,246,-3010
102,38,113,85,360,-1199
68,-55,78,237,362,-380
12,-93,49,245,-143,430
19,-88,53,499,-354,1058
46,-59,87,-140,-607,1031
109,54,123,-2588,263,-266
-118,7,-102,-901,930,-347
124,-22,-110,1023,165,108
114,-28,124,1216,-370,-47
99,-33,-128,274,-346,-138
106,-50,123,-94,168,-21
-128,-57,-123,-203,383,221
-126,-33,-116,-428,112,411
124,-14,-121,-444,61,150
-102,-26,120,-81,459,-255
-97,-35,101,-8,309,-15
-105,-32,99,-74,-34,232
-93,-19,104,-108,-25,206
-77,-21,110,233,18,139
-78,-14,114,31,-145,14
-84,-20,112,-142,-206,-207
-117,-31,69,516,2575,-5950
-57,103,43,-723,5171,-5913
30,24,-32,-112,7367,-4122
5,97,1,4058,8842,-3322
16,-84,-69,2447,9521,-5203
110,-37,-46,-3762,10836,-3836
-118,58,-33,-1829,8266,-4018
54,-67,-22,1418,-5245,922
-22,28,15,5659,-1220,-2463
-74,-73,-37,4474,-175,2035
-121,35,-36,1828,-1405,2576
24,-34,120,-4644,-7092,984
-101,57,77,-6917,-21821,6555
52,-73,34,-2294,-9644,5944
-20,-108,-51,-2021,6251,1018
107,56,-75,6559,-787,-5867
59,-85,6,2668,3320,-1804
-124,33,118,-1823,-2574,1356
111,50,-64,2742,-2112,760
-5,-70,9,2177,-4441,3911
-97,6,-125,-408,-2214,2823
-45,-91,-12,-1385,-1681,3033
-30,127,80,149,-3229,3049
32,64,41,933,-1248,2383
-120,9,-36,206,-3289,2473
-68,-97,113,730,-3829,2261
83,29,72,2843,-2743,4802
-53,108,-52,1509,427,2941
53,-48,61,-1026,2053,-88
5,120,32,-841,1463,-1570
-22,-3,49,1508,166,-1300
23,-94,85,2568,-576,-625
4,-92,88,1484,-610,-329
-7,-94,89,382,281,-979
16,-73,108,-900,530,-732
6,-60,122,-1411,-337,108
33,-59,-111,-1131,-435,221
71,-63,-114,-540,124,-15
81,-79,119,319,284,130
70,-71,101,179,-145,171
61,-68,84,150,-310,337
64,-54,83,-275,-54,273
63,-56,68,-171,112,139
73,-63,71,194,3,365
81,-44,73,-62,-12,461
103,-38,68,-103,128,274
105,-41,64,28,-26,122
102,-44,66,179,-27,40
108,-46,71,-144,61,-141
108,-67,67,120,53,-150
-69,-28,73,1226,3370,-4006
54,48,-127,2284,3888,-3996
7,-10,-78,3057,5826,-5342
-30,-126,-60,3802,6836,-8282
-122,-101,103,-1907,6988,-8475
64,8,-98,-6635,6161,-4008
3,-64,41,216,2645,-2525
-72,11,-117,2511,-428,1754
25,27,115,3978,-287,-181
-45,59,25,3748,173,1779
-106,-81,-66,-339,-2468,1490
51,75,-20,-7612,-10891,4096
-6,-89,69,-5152,-20889,8903
-50,-102,61,-4232,-351,3064
102,78,-63,1669,922,-4706
45,26,-121,1157,2130,-3211
104,116,-122,535,15,-1493
18,83,-94,544,-1139,214
-60,50,63,4126,-1551,-369
108,-82,-71,330,-515,1175
70,89,-66,507,-2185,2018
-96,-63,-59,-662,-3285,3204
-107,20,-27,-1330,-5012,4187
61,83,80,-573,-2300,2695
68,58,66,-353,-2040,2722
73,-1,-62,195,-3489,3003
119,-18,-126,297,-3552,3288
87,57,37,-1195,-2433,2120
4,-94,30,3251,-592,-234
-29,113,-108,2309,1388,-2411
-7,-3,-124,1619,1557,-1319
2,-52,115,586,1189,-550
-21,-102,110,758,123,382
-13,-99,110,411,-386,398
13,-79,113,-456,-176,200
31,-75,111,-707,80,122
32,-88,112,72,-43,123
35,-82,112,221,-97,160
45,-75,117,162,-41,216
55,-66,108,-188,136,184
56,-57,95,-432,132,72
65,-60,84,-280,68,20
72,-61,85,-110,29,-15
85,-62,82,-35,115,-49
89,-64,79,45,-35,-115
95,-71,84,71,-20,-134
96,-68,91,-159,-22,-114
103,-71,92,-221,33,-109
106,-71,89,-182,27,-66
111,-70,84,-153,48,9
1,-64,71,1533,2550,-5021
72,104,-53,2311,5424,-6328
61,-81,96,4533,7005,-7496
56,26,24,5634,7721,-10122
-123,121,-64,-4405,7457,-11019
-51,-85,-93,-931,876,-5716
107,-28,95,2910,-2062,-285
64,-86,122,3819,-944,-399
-55,65,77,3308,1454,493
-78,75,-119,559,-1594,2425
116,-17,24,-4450,-5224,2485
18,61,-92,-11065,-21054,14603
104,70,86,-7710,-6428,593
7,97,-4,8901,4027,-3346
-57,38,-116,146,1743,-4785
-82,-29,84,1526,-359,-367
-110,6,11,1914,-2196,1410
0,19,101,2836,-2553,1527
-65,66,-102,88,-4243,3843
91,-84,97,-64,-4871,5211
115,-47,69,-449,-2424,5882
-61,6,51,-363,-2289,2422
-92,-73,25,-212,-2183,2946
107,-116,-85,-849,-1056,1498
53,36,93,200,-789,801
4,-112,-13,1911,-432,874
7,-126,-75,1484,3,661
9,91,-105,895,-10,390
12,36,-123,639,-83,243
2,12,-123,226,-187,41
14,-19,-126,106,18,53
20,-30,109,-154,166,126
26,-31,93,-268,97,72
28,-31,91,-295,-20,70
46,-30,91,-299,41,42
52,-31,88,-134,25,29
53,-26,87,-160,-52,49
62,-20,86,-270,12,-20
68,-26,81,-157,27,-74
75,-29,75,-92,-11,-7
78,-21,75,-292,-80,12
86,-22,78,-255,47,-55
94,-24,79,-202,15,-10
98,-21,76,-199,-11,-4
103,-20,77,-182,52,-6
109,-20,72,-152,63,62
113,-10,63,-264,60,68
116,-10,60,-162,60,27
-128,-12,57,-104,90,71
-126,-4,54,-177,-24,71
-26,-3,-114,2961,2351,-5335
59,98,-73,2587,2706,-6459
-48,-26,-68,3741,5720,-7296
-105,-115,89,3842,6079,-8567
-106,-112,44,1323,6916,-9407
118,-86,48,-4310,8102,-7596
63,-12,-22,837,1612,-3816
64,120,25,3877,-3001,260
-98,0,-73,4334,-47,306
-20,93,35,3013,721,1932
-37,62,105,-566,-2246,1881
-110,114,92,-10396,-8094,9519
-51,-96,119,-6478,-19406,11514
31,10,46,-14484,-2085,1828
116,-88,-1,4706,3205,-6534
34,39,35,6883,1665,-5531
-115,90,17,-2443,1231,-196
-128,85,91,2790,-3522,2558
-39,-79,-78,2261,-2398,969
94,25,23,-930,-3091,3384
-67,67,-72,-227,-2805,3277
57,-64,-17,-1273,-3061,3336
78,-58,65,-185,-3022,3112
75,-119,-68,83,-1943,2964
45,107,-102,87,-2183,1800
62,-34,20,1764,-562,1477
25,106,-18,4248,-330,1884
1,-83,-65,6889,-75,1785
78,-72,75,2882,1669,814
77,-40,-124,-1210,1277,142
59,-97,91,-3375,343,-501
51,125,79,-2655,-318,-500
58,126,83,-1367,-230,-151
37,-114,96,93,-231,282
34,-91,96,414,-173,287
57,-70,104,179,-142,24
84,-78,109,-55,32,-291
87,-91,105,-70,85,-276
78,-105,94,33,12,-230
81,-104,94,-96,-17,-57
91,-95,94,-287,72,20
100,-84,85,-412,104,23
102,-74,81,-433,51,-8
106,-68,81,-303,13,-14
116,-62,83,-248,28,26
125,-56,85,-178,75,-22
-119,-56,79,-112,27,-25
-120,-53,78,-242,-27,-37
-124,-46,79,-417,-12,-35
-128,-39,74,-480,38,-29
84,-38,-96,2378,3125,-5732
53,81,-27,2556,2974,-5385
98,73,123,2429,5852,-6841
-6,-66,-36,3632,7592,-8337
-13,65,79,4426,7646,-8491
73,-107,-5,-5145,8269,-8275
-18,32,70,-2717,6008,-4937
-66,-71,-118,2578,-157,-356
-73,102,69,3208,-2146,1163
-82,95,-40,2097,370,-86
-111,-33,70,2676,713,898
-82,-114,-70,-946,-2427,3155
49,-82,23,-8624,-19831,12337
66,-112,111,-5836,-10371,4747
-122,36,97,-4831,-2090,2477
-80,-36,-28,3498,3850,-5732
1,-62,20,1929,2739,-3259
109,73,59,1294,2081,-140
-76,-23,6,1496,-1053,-2
-97,43,-78,3443,-5312,-78
46,-112,106,157,-4790,3857
-71,13,-77,-210,-3997,6928
37,5,89,-254,-3446,5005
94,127,96,-850,-2402,3972
89,-95,26,-119,-1974,3276
99,59,114,280,-1555,2939
65,113,21,3724,-689,1365
89,85,-72,3836,352,782
53,-118,101,989,1155,125
37,58,88,-329,499,-381
24,-47,97,-560,-424,-153
14,-54,91,-614,-541,70
14,-46,97,-720,-382,-163
39,-71,90,-312,70,-705
55,-85,90,-104,99,-580
47,-92,83,-72,-230,-249
15,-70,93,-457,-529,-79
26,-59,100,-877,-146,-90
43,-44,103,-940,83,52
61,-38,97,-341,87,197
66,-26,84,8,84,133
74,-17,72,-122,87,69
80,-10,60,-290,132,69
83,-16,52,-78,96,41
105,-21,58,34,12,141
98,-6,60,-159,-27,158
87,8,77,-469,-66,201
123,17,82,-562,322,108
-118,9,57,-113,479,-88
-114,-3,40,312,166,-112
-66,21,24,4319,1458,-7006
-11,-80,71,7269,7145,-9401
-66,92,25,7519,7313,-10121
38,-83,-9,2155,7053,-11264
36,-22,-24,-1384,2755,-8949
-123,-109,116,785,-3488,-799
-88,-90,-42,4165,-658,494
-15,-46,49,3467,1820,-2349
-77,-79,-38,1,1586,-1186
81,105,-82,-4387,-3929,4134
65,-94,-66,-11142,-19700,15817
-57,40,95,-7292,-8932,2736
118,-102,5,267,3544,1118
-84,116,99,6804,616,-7087
99,102,-58,479,552,-1599
-82,108,3,-41,-1579,415
-53,65,-64,2672,-4297,3350
75,-39,14,651,-4631,6178
36,-67,-41,-2165,-3384,4105
-21,6,28,-1135,-1857,3311
-76,-70,21,50,-2036,2161
91,55,-110,1391,-2130,1832
99,7,36,548,-989,2116
-99,-65,-67,422,71,2338
112,-104,-102,1772,-845,1435
89,117,-125,1687,-673,572
43,30,105,1955,-194,123
40,22,81,284,505,-567
36,-23,74,-364,464,-644
41,-75,77,-185,150,-454
56,-93,76,195,26,-314
62,-97,77,65,-48,-232
67,-84,81,-469,-55,-148
72,-86,85,-441,22,-84
80,-84,83,-276,73,-17
89,-73,81,-195,3,149
80,-59,75,-257,-42,84
92,-47,71,-350,157,106
112,-49,57,-270,204,112
122,-38,58,-368,-36,342
-128,-20,57,-217,207,75
-127,-23,46,-15,179,-143
-120,-31,39,-40,-103,-59
-119,-27,57,-174,-211,4
-124,-31,58,109,145,-192
-112,-45,49,215,76,-216
-112,-46,51,-128,-193,-13
-112,-36,52,-332,31,59
-96,-4,38,-389,84,-195
-109,-23,39,199,-270,-248
-39,-86,-126,2416,3039,-7110
98,-115,85,1132,3609,-8460
110,-102,-5,1261,6152,-9294
-125,-85,-94,3890,6988,-10302
105,-82,-128,-2796,6559,-12256
-14,11,-42,-5522,5097,-11059
-98,-84,90,-699,554,-2343
19,-93,-66,3398,1443,2095
51,-30,51,2933,509,1881
111,25,29,2944,2374,2676
-117,45,28,311,-3005,2766
124,19,-34,-3937,-14161,6957
-92,117,7,-9173,-27233,12687
3,11,-112,-8293,-2765,-4104
-60,-90,-4,10931,5605,-2797
48,-51,45,1742,331,-1827
59,5,-81,431,81,-1561
-51,-48,51,-702,-1853,1666
-68,30,-3,4031,-2391,1548
-121,-94,-50,2699,-3385,3788
57,-92,65,1805,-5624,3161
-8,-122,-64,-169,-4767,4603
-8,55,-107,-186,-1731,4072
77,-66,28,1618,-2184,3386
21,-65,-86,2657,-1377,2923
83,-128,-28,1766,1167,2290
122,87,120,1856,1409,1660
68,88,85,1027,-54,1253
7,66,79,305,-403,-116
5,-22,87,162,85,-1127
-21,-101,123,348,-82,-865
-22,-102,-122,81,-251,-45
-16,-91,-115,-217,-99,153
-2,-87,-124,-82,210,33
44,-98,101,61,528,-549
60,-121,105,-109,-23,-423
24,-109,111,-516,-376,182
26,-94,110,-484,1,324
45,-81,98,-203,266,227
59,-65,83,-64,103,-2
74,-66,74,-86,-11,-234
66,-73,77,-165,-59,-156
65,-81,73,-54,57,41
76,-73,65,-172,36,173
102,-60,65,-374,-40,209
110,-42,66,-389,-89,96
83,-37,79,-204,-188,-137
78,-61,83,391,75,-15
107,-44,66,-160,136,-161
126,-43,54,-623,91,-177
-65,-86,-8,6193,1980,-7428
-6,-121,125,5924,4476,-9973
-106,3,-31,3821,6976,-10023
77,112,-90,2223,7345,-9536
74,61,-17,1304,7129,-7641
-40,-17,45,-1102,-2438,-1453
-17,-20,-41,6188,-33,-1169
-19,54,108,5075,113,43
-104,12,-94,2696,1649,404
-103,-46,82,-5621,-5836,5477
-119,-86,-15,-11344,-15144,10184
85,-68,-5,-5368,-14072,6826
117,-67,84,-7942,1444,2253
17,38,27,1719,-992,-3006
-61,41,79,3324,-369,-3713
14,-48,40,-1290,935,-1809
-55,114,-123,1708,-2198,804
103,-102,8,3223,-2909,2260
75,-122,124,-1556,-3332,4081
-4,-82,66,-82,-1593,3979
-89,96,55,-2333,-1010,2248
102,-12,59,-1198,-2393,841
91,82,36,-476,-1234,1035
24,-3,-104,-287,-1188,80
58,-10,98,-280,-1072,606
78,-33,39,91,-886,149
94,-38,-30,-650,154,195
44,-101,-16,591,-277,-19
61,111,-63,439,33,-76
62,115,-93,-315,-393,-462
63,80,-108,325,-882,-314
58,-3,-126,2551,-1338,807
52,-83,-126,4245,-1427,1434
71,36,81,-394,120,528
107,49,80,-3454,851,-154
95,-40,66,-871,321,743
74,-45,74,833,-311,814
77,-27,42,995,-198,473
79,-26,42,159,-172,442
99,-15,49,-783,-20,591
118,9,58,-1188,48,578
127,18,63,-808,12,148
116,17,71,-104,-192,-36
115,5,81,475,-200,-252
113,20,80,-520,44,-540
102,7,71,-681,201,-597
-119,-24,64,-191,345,-542
-108,-36,47,380,216,-169
111,-29,36,338,-193,-75
125,-24,39,-91,-13,120
-37,-106,-57,3135,3943,-4813
36,-127,98,2555,4935,-5214
73,-33,-57,2615,5963,-5585
34,102,-106,2585,7005,-5750
-100,-64,-56,656,7265,-6821
101,-49,-22,-2074,8177,-4982
22,64,87,-2223,3150,726
-75,-79,50,1935,-2825,-2160
-117,94,111,3322,-1750,-2534
-26,41,59,4400,-237,-2830
5,67,54,4731,1609,-1284
-17,23,70,3585,1474,2623
40,-121,69,-2892,-3352,2409
44,-100,120,-15854,-18758,15247
-119,114,-93,-959,-8784,2075
25,-68,70,-5461,-2688,994
-25,83,-52,2997,3141,-5364
-101,76,-92,938,313,-1094
-82,-57,31,-529,1373,-899
-59,2,-20,1047,-127,-762
-33,-124,55,3149,-696,-162
47,-110,90,1290,-1972,69
48,25,40,1626,-3391,2026
-123,-121,-110,425,-4274,4279
-52,107,-88,-1034,-3025,4976
30,-5,106,174,-3649,4151
100,-71,71,635,-944,3378
50,-87,-39,-952,-1953,2804
42,-4,92,-426,-2019,1795
17,67,97,3583,-1130,1963
68,103,-59,2479,1896,426
20,117,-94,105,1089,162
6,-18,-113,1489,-142,127
27,-94,-119,1107,-522,-263
37,-115,-123,501,-229,-110
27,-125,121,-439,-55,-306
12,126,125,-900,-216,58
16,-118,121,-747,-218,468
41,-93,115,-425,-116,467
41,-69,109,-363,-126,279
68,-62,107,-230,-23,-169
70,-69,97,-143,124,-233
69,-73,88,-125,-6,-109
74,-69,75,-301,21,-71
84,-57,75,-646,-54,60
87,-43,74,-562,-4,-30
88,-38,71,-292,-44,-129
95,-36,70,-330,-31,-164
93,-31,71,-395,-68,-115
106,-34,71,-216,106,-113
-50,-127,0,2607,2401,-5840
34,-103,-5,1218,4167,-6554
35,-5,125,1505,5252,-6365
43,112,-44,254,5968,-5898
-124,-66,-48,599,7090,-6085
-9,3,89,2537,6981,-6739
48,42,-19,-1431,8112,-8397
124,-10,95,-651,-3241,-554
-105,103,-14,2038,-1485,1306
-106,-118,70,3897,917,-246
96,44,127,4347,1243,677
69,-4,-109,1061,-1746,4080
-19,-3,19,-5975,-7368,5907
-31,104,75,-14705,-15699,10819
-89,-97,35,-7276,-9209,724
122,-7,111,5999,2554,-184
108,113,-65,3475,181,-4374
71,-28,-45,2182,623,-629
-115,-95,108,-285,-1106,23
-56,105,38,3638,-2072,1414
90,-78,-50,1274,-3518,1382
58,-9,-39,-36,-3697,2092
93,87,-125,-209,-3079,4522
-21,-58,21,413,-2606,3278
10,-74,-56,-279,-1591,2164
-31,64,-76,733,-1841,2520
16,-49,86,1613,-953,2869
72,-66,-24,48,-141,3003
82,76,-121,1055,57,2060
61,12,-125,2996,-552,1186
38,26,-119,1800,-657,721
16,28,125,-464,226,-618
16,-45,-123,-214,330,-599
2,-102,119,425,138,-128
11,-83,111,-272,29,-237
29,-97,102,-224,64,-95
44,-104,96,-64,14,-91
43,-101,98,-165,-83,-122
41,-95,98,-294,-89,-81
56,-89,102,-438,17,-22
50,-79,102,-480,0,16
65,-66,111,-276,222,92
88,-52,89,-317,205,92
87,-47,65,-223,26,8
94,-43,56,-241,44,-122
95,-45,55,-290,-63,-12
94,-38,62,-300,-1,-21
114,-27,60,-363,88,-71
113,-24,57,-307,-69,-75
119,-20,60,-268,-37,-133
-92,112,-105,3273,2699,-7064
121,-83,54,4649,2246,-5519
46,-84,114,4579,5383,-7000
-91,-57,-62,4781,6833,-6151
-58,109,-24,3167,6258,-6022
43,88,-115,1591,5984,-6305
75,-36,-82,-1823,-1226,-3630
-41,-46,-23,370,713,-3090
81,-82,6,3381,634,-1900
-26,-1,-24,3867,-59,-2039
-34,72,-105,4726,1022,-2259
-126,-36,96,3274,1738,-484
-78,-7,-99,-2656,-1007,1095
-3,-35,2,-10081,-11382,10366
30,-95,-47,-6255,-16930,9493
-23,59,97,-15615,-3905,-3019
-108,-55,-22,11230,469,-2122
-28,-7,101,1624,246,-1910
-28,105,45,-2785,-83,-572
-57,25,67,3730,-2816,1225
-16,-105,-52,1261,-2408,1611
48,-83,-69,215,-2584,2518
32,-57,91,164,-3746,5045
-18,-112,-24,-528,-2532,4631
-79,85,39,-1251,-685,2420
-3,-50,-11,-399,-2368,1694
12,71,103,349,-1286,1014
29,-39,-58,473,-485,2044
47,-120,-65,1321,-816,2617
48,2,-50,3797,-1286,2851
97,-48,114,3958,34,2227
89,58,95,-912,1003,106
55,15,81,-2576,689,-843
22,-77,94,-1284,-74,-549
24,-96,105,634,-153,230
50,-78,88,677,76,319
60,-36,71,-363,94,-55
82,-63,66,-199,102,-213
59,-68,73,11,-294,-129
66,-67,86,-56,-170,-236
79,-67,89,-217,-5,-318
74,-67,86,-331,10,-278
91,-71,74,-328,70,-294
90,-69,75,-275,-100,-139
91,-62,76,-302,-69,-78
100,-47,88,-432,-67,-22
101,-37,87,-410,68,54
107,-30,78,-261,192,-31
107,-28,67,-170,25,6
118,-26,68,-229,98,136
-103,-39,-105,5756,2184,-4863
53,40,119,6744,4009,-7056
-56,-115,73,6260,3816,-8341
-34,-85,33,6231,3598,-11692
-102,123,-25,239,6097,-7003
-90,71,106,513,2610,-3219
122,-51,10,-1385,-382,-2080
-33,-123,127,2801,-1743,-2455
-122,78,-13,2720,-3239,-1980
-69,-92,116,2987,-758,-4157
102,117,-126,2928,2812,-842
108,27,-53,-460,-1349,5030
-34,26,-80,-9501,-10344,11330
105,-75,15,-6780,-15875,12007
-10,115,36,-4423,-2195,-1204
5,-123,-26,5185,1042,-251
75,-108,115,1213,784,-2646
-3,-94,-47,1347,-43,-694
-125,-62,61,701,-416,1399
72,-92,-2,1297,-2051,1468
45,-56,-23,-71,-2809,1778
124,16,56,-700,-2452,3563
-81,109,112,-143,-2574,4008
45,-52,-105,527,-1788,4129
66,-67,-118,822,-1025,3015
48,-106,99,-28,-1028,3071
75,-95,-12,-1665,-1532,3102
65,49,-61,-1504,-2138,2183
7,94,-72,2188,-802,-542
0,-14,111,3188,153,-620
21,-31,122,1718,206,52
34,-59,122,781,231,797
28,-91,101,280,258,422
59,-95,96,-500,302,220
49,-53,87,-1608,245,375
73,-42,56,-1529,453,-56
71,-48,54,-504,182,-155
74,-55,58,346,-62,-125
79,-46,60,251,-219,-111
76,-32,65,-377,-48,-192
84,-39,62,-342,136,-311
94,-58,64,39,43,-201
93,-61,65,218,-82,28
100,-49,71,-90,43,125
118,-38,57,-323,276,95
112,-31,51,-420,-8,103
-128,-26,53,-321,89,52
-116,-24,53,-180,185,44
-126,-25,46,22,16,86
-113,-23,48,115,90,57
-102,-11,125,3566,1767,-4539
-70,-2,-96,1387,2844,-6946
126,95,95,5570,5292,-8498
6,98,-32,3269,6987,-10675
-100,-117,-18,-1400,8233,-8481
-2,1,-60,-2416,5376,-4487
105,-78,15,-1639,-526,-1787
-38,-110,-26,1789,-1565,-216
114,28,-41,3966,277,-1608
-81,94,-118,4918,1536,1115
-49,89,-7,3181,2009,2215
-10,108,48,-5081,-2194,3330
105,46,45,-11432,-14966,10334
-11,-123,4,-5616,-17436,9195
7,70,-59,-788,2887,1154
-7,-66,57,1597,5431,-8502
17,-25,-55,1135,-983,-900
-85,48,-39,290,205,-543
-80,119,111,1495,-183,664
-126,74,108,1674,-2704,2121
50,-47,-60,30,-4941,5472
11,-24,-123,-1325,-3247,5858
-115,-95,-35,-1369,-1836,4229
87,-19,-30,903,-1231,3200
70,-60,88,-900,-1144,3321
70,17,-1,-151,-1248,3221
75,86,-5,3153,-1705,3323
-105,100,-51,2355,-88,2132
116,118,61,-90,1602,-442
51,24,76,-857,469,-1699
41,-65,90,-194,-225,-1425
47,-92,92,-132,-222,-572
35,-76,80,-303,59,5
37,-73,69,-275,167,-228
65,-69,66,-363,31,-258
66,-57,79,-622,-247,-88
67,-51,95,-494,-183,42
76,-53,99,208,-31,342
93,-37,82,103,205,262
88,-12,79,-574,99,280
107,7,73,-945,151,214
111,4,65,-436,212,148
119,5,51,-38,142,35
125,5,39,45,-14,-50
126,6,40,-106,-76,-122
-122,0,46,-129,-19,-148
127,-4,54,-191,-106,-71
-128,0,60,-317,-9,-97
-121,-1,66,-255,34,-45
-117,2,70,-239,21,-15
18,35,-100,2318,756,-5187
-56,-71,-45,2777,3416,-6338
24,-108,79,3958,5083,-7209
-4,-126,-82,4731,7786,-9014
-57,58,-103,1924,4620,-9032
-49,14,-91,-5121,4696,-6516
-53,30,26,792,-1724,-1843
-8,-43,119,4094,-601,-3369
126,60,-59,3152,266,-2204
-112,-104,84,4152,4014,317
-37,0,27,-2582,1875,4005
31,31,-1,-8820,-14116,9978
3,125,-118,-6240,-18451,13595
-117,49,-47,-8994,-1655,-1122
-75,52,13,2387,954,-2858
96,-56,-63,4513,2000,-6132
84,-64,-58,311,1979,-950
-99,-119,-57,351,-1015,1492
68,120,-82,2951,-4190,4725
-65,38,70,380,-3909,6839
44,100,33,-3936,-2706,3846
91,10,90,-1017,-2529,3617
120,80,42,1683,-3383,5110
-1,-113,82,4376,-2940,4504
12,28,125,44,-107,1749
96,30,88,-2091,630,418
32,122,77,-143,1061,-493
39,45,76,1434,601,-1082
30,-14,60,1981,93,-1053
8,-60,70,1406,-411,-419
10,-60,83,-19,-296,-138
18,-64,86,-907,80,-224
44,-75,82,-893,223,-58
58,-65,77,-509,98,16
71,-60,64,-47,11,-29
58,-43,57,109,-142,48
44,-35,59,-187,-160,-171
41,-34,63,-373,-51,-285
-110,-50,71,-261,381,37
95,-26,45,-366,-13,128
70,-17,43,-282,-147,-196
97,-23,45,-439,192,-240
81,-30,37,-233,31,40
100,-28,29,68,147,107
112,-24,24,148,27,105
-122,-12,27,-226,25,105
-118,-2,32,-484,-25,157
-128,1,37,-244,13,33
-127,6,36,-155,73,-120
-125,3,33,-350,17,-142
-77,-62,-105,2561,4034,-4473
74,125,-54,5083,7252,-5904
-87,-103,55,5919,8061,-7378
23,-12,-124,811,10366,-8930
-97,-64,115,-2118,6633,-5308
-112,85,-97,1254,-3036,-3031
78,-16,116,4742,-316,-1627
95,76,29,4994,1226,-378
-49,59,81,2934,1298,685
-60,47,-99,-5088,-3326,2314
51,-117,111,-16058,-19926,8868
91,-118,30,-1220,-10949,3924
108,90,-28,-2738,3359,368
127,80,58,5726,-1123,-5192
-15,-98,-37,266,852,-4057
-102,62,-9,447,-1046,431
98,86,-7,3657,-2544,712
85,117,-48,3479,-3313,3109
76,107,75,-1190,-2765,3055
-71,17,27,-1591,-1321,2898
-73,125,87,765,-904,3073
-54,-120,-33,-761,-299,2437
-81,-60,89,-498,-61,1392
-108,-15,-25,-390,-1312,2030
-67,-54,-4,-666,-2028,2809
27,-104,-21,144,-1480,2596
122,-128,-11,1081,372,428
85,-119,-16,243,-160,820
80,97,-43,334,91,527
74,70,-88,-322,210,-3
79,25,-117,-115,-165,131
83,-2,-127,49,-375,348
79,-19,114,66,-476,611
88,-50,107,601,-443,954
79,-69,112,531,-523,1062
62,-64,124,-261,-608,506
76,-51,125,-961,-184,46
88,-52,117,-650,193,181
94,-56,103,-12,209,11
95,-52,90,1,127,-123
109,-54,75,-102,178,-69
105,-56,69,-55,79,4
109,-60,68,74,-4,-11
117,-54,75,-119,-20,57
121,-49,76,-198,20,62
123,-46,73,-136,29,71
126,-35,72,-201,-2,33
-122,-36,73,-126,38,43
-118,-32,72,-143,61,5
-109,-31,68,-130,104,7
60,58,-70,2368,2014,-4277
71,45,-114,1375,3863,-5018
-41,75,58,2348,6814,-4248
-16,104,84,3331,9017,-3352
-42,8,-122,2060,8981,-3481
93,-9,105,-1084,10323,-4988
-27,27,-12,364,5890,-5905
-59,103,80,4533,-2093,-3232
-125,-22,2,6027,1423,-1088
23,1,83,5182,3899,288
52,107,-85,1922,4170,380
74,-108,-36,-4131,-3546,1805
-30,77,-88,-9996,-28235,13906
-92,-9,79,145,-9021,8646
-1,-106,-72,-1384,7643,-4276
-22,-78,28,5485,-2511,-3251
-60,-5,76,356,-1641,-1058
-57,109,-111,-2635,646,-378
125,-11,107,2317,-2524,2272
31,124,-54,2162,-5854,5198
-60,-46,111,-792,-4731,5029
65,-123,-16,166,-1690,3723
13,1,-12,1549,-324,4057
12,25,95,-1385,291,3108
-5,65,24,-359,-643,2193
84,-15,-6,-114,-384,2047
99,-96,-81,812,125,1821
84,102,-106,1678,-77,1716
56,43,-102,2642,-522,803
63,-71,-120,3199,74,165
54,-51,122,536,158,33
24,-70,124,-1092,-53,-209
37,-106,116,-1124,45,-12
58,-103,112,-458,201,13
71,-102,100,127,61,-111
74,-99,110,260,-125,-135
70,-96,106,14,-36,-141
78,-105,104,-25,69,-277
94,-107,104,-2,4,169
88,-88,98,-256,-44,109
97,-68,93,-534,29,-20
103,-69,88,-379,112,-20
109,-73,83,-77,41,-13
118,-81,79,255,68,118
122,-83,70,317,98,147
120,-69,66,-129,-53,27
-128,-83,76,38,46,5
122,-69,76,-227,-75,-7
-121,-70,80,-216,96,-24
-116,-71,79,-75,69,-15
-82,17,122,2450,3363,-4911
103,87,7,3872,5783,-6097
-115,105,85,5952,6583,-7666
121,26,118,2236,6711,-10183
-89,-108,4,-2213,7605,-11126
116,-89,-93,-1482,1205,-5904
52,-78,-56,3566,767,-1451
117,56,-15,4842,1920,1537
-86,86,-93,4081,1930,3663
-5,105,-26,2124,-2211,5132
112,40,-91,-8988,-12501,5521
70,-38,51,-11470,-20172,11097
-61,-52,-38,-6731,-4985,373
3,-51,-101,9532,6369,515
-21,-63,63,1995,-629,-4312
-111,-117,-71,171,-879,-1606
-71,-38,-61,220,141,1650
-93,76,126,3521,-2126,2403
-104,-43,-43,-10,-2798,5063
-77,115,-59,-1012,-2387,4356
63,51,47,-1419,-3039,5668
79,-39,78,763,-3977,3762
-26,11,-10,2,-2514,3229
120,108,125,1887,-593,1297
76,7,-43,902,269,1181
43,-29,-125,101,447,133
-3,99,90,1383,-35,-83
1,-3,82,880,-38,-320
6,-48,84,620,-181,-222
23,-60,95,-222,-177,-315
49,-48,99,-848,207,-653
75,-28,114,-1085,723,-1616
52,-8,88,-1010,-303,55
59,-3,87,-228,-143,210
87,6,80,-116,214,52
70,1,71,-311,-113,81
78,-4,66,-376,-100,138
82,10,59,-640,-113,469
79,8,49,-314,-134,17
79,6,58,-76,-68,89
113,5,65,58,175,279
114,17,40,-182,96,147
93,14,64,-270,-153,95
119,20,53,-330,213,63
115,18,43,-125,78,-121
120,-2,40,267,-3,-114
121,-4,47,140,-62,-118
124,-3,48,-81,50,48
-97,-12,46,54,98,111
126,-17,40,285,-148,200
5,-107,-25,5585,2175,-4823
91,97,19,4917,3680,-5862
-77,-114,-88,5127,5395,-7412
-97,118,110,5175,7647,-8974
-57,-124,103,876,7362,-8337
25,38,8,-858,4760,-7843
56,-94,-59,2277,726,-4647
-33,76,-94,4845,1283,-1201
75,-106,-53,3687,2841,568
-44,-110,6,830,1809,2334
-114,-12,53,-4158,-4722,2478
-114,14,-20,-11876,-21011,10709
77,86,-89,-5782,-15946,5996
-61,50,-108,-8141,7546,-1908
-19,43,-55,11303,-2564,-3423
75,-29,-91,619,1933,-3302
101,-125,35,294,-728,874
-116,-89,7,2251,-1890,1474
-81,-88,-26,1718,-3639,3642
-95,109,55,-1544,-3410,3870
-52,26,19,-2979,-3266,4391
-8,43,71,-102,-2797,3762
60,72,23,-1038,-2025,3001
-2,-97,-12,-107,-2381,2001
48,10,40,-133,-632,1600
48,-101,-59,442,-792,1491
104,123,-98,576,-368,1325
116,83,121,1183,-180,1444
78,76,118,1251,-375,673
42,23,-115,1661,-677,282
48,-57,-125,2069,20,333
58,-43,102,350,582,56
57,-47,85,-669,273,-12
60,-65,88,-735,-100,-250
84,-76,90,-305,141,-268
91,-80,83,-9,97,-357
95,-84,78,16,-133,-322
89,-83,82,-192,-132,-282
87,-81,85,-377,-38,-165
82,-73,93,-369,-40,35
108,-70,95,-56,147,166
-123,-60,85,14,153,226
108,-36,61,-331,-34,17
116,-32,62,-512,121,-108
-121,-50,61,-89,121,-21
-126,-46,58,46,-55,108
-128,-34,61,-70,49,43
-113,-37,58,-15,153,74
-115,-35,56,-44,-22,128
-111,-29,53,-167,62,97
-105,81,118,4257,3293,-4455
-124,-107,-11,5666,4854,-5816
-5,-43,106,5181,7139,-7746
24,-106,-66,10,9846,-5685
13,86,61,-1747,3940,-2200
122,-122,51,1629,-921,-837
44,-57,-22,4655,-1733,-2792
70,36,8,6018,636,-3468
-51,58,-103,4100,2327,-2376
14,-85,-69,-800,744,-882
-100,99,-90,-11103,-19927,9714
-2,117,72,-5065,-19673,8468
86,42,2,-7757,4147,-1312
-106,-124,44,6974,1695,-4922
6,114,34,1559,61,-1959
123,7,89,479,141,-13
75,-71,-17,1148,-2233,1322
-99,14,65,1180,-3360,2448
103,114,-81,-397,-3065,2956
-18,0,83,-596,-2036,2261
-43,-39,61,1070,-2558,2580
10,-45,-74,741,-1038,2972
-6,-110,113,417,-490,3036
28,41,22,732,-1,2728
53,-84,-40,1394,-491,2790
89,-124,-68,2008,-402,1853
87,-126,-107,1201,-112,1384
36,84,115,267,-643,937
50,13,122,-162,-756,430
47,-36,121,-414,-204,-70
45,-66,101,-615,377,-366
45,-72,96,-509,310,-417
62,-71,91,-488,75,-271
70,-69,93,-362,-63,-357
73,-72,96,-233,14,-326
78,-68,94,-286,133,-233
100,-65,86,-333,251,-103
111,-63,78,-232,248,68
111,-59,69,-16,156,181
109,-48,65,2,76,191
112,-38,68,-226,82,179
113,-36,69,-142,79,216
116,-32,72,0,63,185
-102,-30,73,14,176,159
-109,-22,69,-26,-65,163
122,-11,68,-180,-132,28
-114,-11,66,-200,186,-93
-96,-32,70,171,154,-195
-104,-40,71,353,34,-192
-83,-46,71,86,198,-230
30,64,22,3415,1266,-5063
-75,-120,112,2489,2080,-5742
-46,-55,125,2001,3901,-6044
-17,57,89,1995,6287,-5957
-62,-62,62,4585,7996,-5825
117,58,-109,1694,7408,-3551
-61,-9,-93,-364,-639,-2060
-42,14,46,3092,-1407,-2356
74,81,-124,5576,-2560,-2380
-104,-93,-58,4910,-831,-3507
-42,-21,-55,3937,1610,-613
-44,-17,73,-2399,-908,2446
116,-19,-43,-10259,-12086,7564
32,34,-21,-13079,-18602,10477
-1,-126,113,-5563,-2544,-972
25,-98,1,9454,4031,-830
-8,-117,-70,1729,-354,-3808
-126,124,-32,-984,-713,-1399
-81,-114,-91,1337,-1179,1255
107,80,58,3697,-3361,2278
59,-84,-44,42,-5850,5653
-95,90,-47,-1776,-3949,6007
-20,82,110,-2428,-3236,4875
-19,-86,101,755,-2745,2790
-52,47,-26,1657,-1777,3169
-16,-44,-12,2277,-243,3434
-23,-26,-91,1689,614,2457
-125,-10,90,196,343,542
60,67,82,1422,-384,-1045
35,-19,84,2274,-630,-496
20,-24,97,818,-478,-235
22,-13,122,-1096,-176,-328
42,-33,123,-1268,249,-496
51,-53,115,-388,364,-371
67,-67,94,454,343,-433
77,-74,73,580,238,-471
88,-81,59,166,152,-465
93,-82,60,-426,-61,-278
90,-77,67,-508,-165,-78
88,-68,76,-416,-110,8
90,-54,78,-503,-11,140
97,-34,84,-605,40,317
-128,-10,70,-555,197,279
127,1,60,-420,4,25
118,6,64,-261,-158,-107
124,1,76,-186,26,-146
-127,0,75,-160,154,12
-127,0,66,-132,58,77
-119,9,55,-211,115,9
-112,10,49,-270,104,-52
-7,-99,-53,2192,2281,-6562
122,21,5,3215,4638,-6299
115,29,80,5390,7331,-6222
96,45,6,4059,8464,-7288
97,-22,5,2462,9370,-7850
49,-91,-83,-1342,582,-2841
35,-49,-48,2331,343,-1640
114,106,72,4419,-1374,-1279
99,120,-20,4468,755,-2767
-119,-30,-5,1975,1416,-73
-52,75,-80,-3691,-2308,175
-18,23,-45,-8933,-16015,12284
26,73,-18,-4019,-11840,8740
-23,-28,49,-11420,-1060,-1574
1,60,122,7081,3330,-4154
61,104,-68,3326,-286,-2336
-36,113,118,-998,-269,-1219
-60,92,-105,1641,-3469,1465
36,45,-86,2491,-5455,2745
123,-56,28,3023,-6340,5590
-76,-109,-95,-2268,-1587,5374
-119,-82,-45,-1514,-791,3593
53,-68,-81,1250,-1944,3322
89,-57,56,-1407,352,1742
38,6,-26,-150,-746,2061
59,-125,-43,1834,-1011,2348
90,-99,-98,1619,-199,1662
67,-84,125,648,-147,833
46,87,108,959,-36,32
53,29,85,779,358,-591
42,4,70,-146,402,-678
22,-24,68,-451,-62,-472
47,-45,77,-155,-21,-347
65,-55,75,75,158,-312
72,-57,62,-81,184,-179
76,-49,59,-457,31,-132
76,-46,62,-503,-60,-95
83,-44,63,-301,53,-79
91,-43,65,-90,84,79
93,-35,63,7,-35,207
94,-22,69,-138,33,251
111,-13,65,-239,193,161
117,-10,62,-178,97,149
123,-9,55,-98,147,78
-125,-10,46,-14,138,24
-125,-12,44,-3,27,-12
-121,-13,43,-75,81,-23
-115,-18,41,-91,57,-10
-114,-18,41,-110,-18,7
-106,-14,46,-190,24,-17
-98,-90,-23,2634,2366,-3160
47,49,-64,3161,-133,-3965
65,-44,28,3430,3783,-6181
102,-50,19,5346,6033,-6454
-69,21,-110,6795,7172,-7238
98,-2,-101,3373,9469,-7562
-126,-54,20,720,6079,-6239
-51,-72,-39,681,-277,-3264
-13,-10,120,4131,-1948,-1359
-31,119,-7,5004,912,-1727
-8,-22,6,4245,1992,713
-114,-112,-41,1086,1594,2283
-16,-126,109,-5414,-5246,2524
76,-70,-60,-14277,-23985,11020
55,-103,79,-3407,-11494,5269
29,50,29,2089,7328,492
112,-95,9,2963,-2335,-4904
-111,91,96,959,-1136,-1322
-100,119,-28,-554,-1305,503
-114,-64,-43,2073,-1395,1333
-83,24,93,1004,-4067,4299
-74,25,-25,-1858,-4646,4932
112,-124,77,-1944,-1420,2454
-16,-46,67,10,-2897,2770
71,-31,-49,-1194,-1539,2293
32,68,104,-197,-1291,1012
44,-66,7,627,-783,1187
110,103,-114,1434,182,1469
127,-110,111,138,235,1332
115,104,108,1021,-422,1014
85,69,98,1260,-564,-232
66,3,116,980,-48,-874
60,-53,122,224,284,-446
62,-59,98,341,282,327
69,-53,75,188,65,376
90,-41,60,-19,138,254
98,-38,55,-112,69,-6
100,-46,60,-100,-45,-81
106,-52,64,-199,21,-70
105,-50,69,-272,13,-7
113,-43,73,-381,80,-39
115,-38,73,-387,111,-50
125,-41,64,-148,95,-64
-125,-38,59,-124,75,0
-111,-36,56,-129,80,11
-121,-4,66,-744,-13,132
-127,17,65,-845,215,-16
-114,20,55,-753,121,-200
-91,28,47,-666,209,-300
-93,24,46,-326,134,-334
-89,15,-107,2734,2130,-5584
-62,95,93,4084,1303,-4915
-48,0,12,3054,4948,-6305
-124,-120,-106,4138,8126,-7099
-124,-75,109,4164,9660,-6956
-15,9,-17,822,9500,-5740
-34,44,-88,-567,1285,-3647
-14,6,-38,3045,-1645,-1128
111,-121,42,4607,-613,-1367
62,63,-115,4705,755,-2069
-99,-61,29,2853,2448,-1857
-59,-37,69,-1315,501,2561
-40,75,-11,-4987,-13357,8313
40,14,-104,-11928,-25147,17875
91,85,127,-1370,2652,-1794
92,102,-125,2523,1957,-2985
8,-93,127,2953,604,-2894
54,-11,-78,-625,226,-1223
80,46,-116,-49,-2632,782
38,15,-45,2269,-3391,2560
-57,19,-109,-223,-3899,4954
91,31,-35,-1820,-2609,3839
-121,-37,98,-661,-3106,3026
79,76,39,1009,-1128,1233
-65,-91,-94,-614,-512,716
-82,-55,39,-99,-43,1800
-33,-62,-55,726,-349,2128
-18,-120,-88,1495,-1310,2132
60,63,-104,1705,-1146,2129
102,22,-93,1955,-522,1774
106,28,-100,1255,101,1113
75,48,85,-574,1078,-515
63,-14,67,-854,848,-1207
76,-75,68,79,423,-758
58,-90,67,448,-151,-117
57,-67,72,-208,-308,65
71,-53,78,-692,-41,-11
86,-44,74,-715,155,-88
88,-40,75,-434,42,-123
90,-41,78,-122,-85,-36
98,-35,84,-68,-71,0
101,-25,86,-279,45,23
112,-24,77,-194,210,32
113,-22,70,-90,162,79
122,-19,58,-125,94,109
125,-13,51,-206,23,110
125,-8,52,-231,31,74
-123,-8,53,-211,75,52
-120,-2,53,-215,-74,52
-123,1,67,-202,-45,-27
61,-99,88,6572,2726,-4224
47,-39,105,8035,6430,-4509
54,2,-7,8243,9811,-6973
-17,-128,-19,4368,8593,-6641
80,72,103,1606,9114,-3087
-43,-54,-41,-416,-770,-5528
35,64,-104,2519,-1609,-4969
-27,105,50,4807,-533,-2473
106,-127,-41,3635,338,-3111
-95,-19,-51,2712,4157,-682
-103,-29,90,-841,954,3715
-13,119,89,-3595,-7391,4873
-120,-51,-110,-13395,-25255,15305
85,115,-123,-5014,-6385,-3369
123,107,28,408,6443,1706
71,-124,46,7296,-1248,-3783
-34,13,74,3537,-1883,-1368
-114,37,-55,-1376,-2182,2310
-115,-107,53,1640,-3480,2665
-64,90,-41,-633,-4732,3775
61,85,90,-710,-2101,3801
30,26,65,-573,-2033,2285
10,116,-39,294,-1544,1377
-62,-77,102,895,-1004,937
-2,95,8,1198,-415,2429
-98,34,-49,2293,-112,3915
55,94,-48,2072,-115,4847
-69,-69,-96,-152,-470,3028
43,113,101,-228,-933,-658
-5,-39,100,236,-600,-3622
72,-71,124,57,329,-2093
88,-86,98,-227,846,-10
61,-96,98,470,81,196
70,-112,93,934,-190,-138
79,-97,91,155,-46,-161
53,-95,87,-551,-73,-185
45,-89,88,-944,-1,46
73,-74,85,-849,241,428
115,-47,87,-693,295,545
114,-21,77,-350,190,336
127,-31,65,341,273,-221
-111,-42,61,255,267,-261
127,-32,57,-376,14,81
119,-12,66,-733,101,87
-121,-28,59,15,506,-205
-127,-38,50,266,257,-121
-114,-30,62,-237,1,93
-97,-16,73,-526,247,66
-76,-24,81,-50,379,-9
-104,-42,97,755,96,-490
7,86,88,7579,2546,-4585
-83,-92,-81,7564,5817,-5723
108,-4,110,7435,9921,-8301
108,-2,37,3170,11168,-7558
101,-73,83,1968,8144,-3179
107,-65,-21,-1592,226,3825
-73,-20,5,3942,389,-1580
-80,-88,-118,4868,-3011,-1915
117,-102,93,6276,-354,-680
-52,63,67,3614,837,189
89,-104,119,-2827,-5905,2117
87,-24,86,-12408,-24524,11502
36,118,125,-7787,-18656,11600
-26,-17,110,-1231,4781,-958
-59,48,-116,1008,5612,-6035
-47,-19,107,5541,1769,-2232
-60,-57,-14,909,-859,973
-94,36,54,896,-2403,1977
-24,38,79,-202,-2844,2701
6,124,-89,-833,-2673,4049
36,-94,48,420,-3413,5322
-111,-15,-28,-14,-1210,3477
79,100,-122,203,-2206,3347
109,-105,-2,1846,-906,2478
-64,77,-50,2811,143,3220
-93,113,-127,972,397,1821
89,59,97,168,-149,8
64,0,98,-333,-131,-732
61,-77,90,-109,252,-852
60,-93,91,-91,153,-601
67,-86,102,-486,-55,-361
83,-117,105,271,34,-317
74,-110,101,323,1,-123
89,-98,91,-188,212,-307
100,-95,83,-278,320,-110
109,-96,63,-99,232,-104
124,-86,69,-104,-9,80
125,-68,75,-256,-20,147
117,-53,75,-329,8,-21
116,-49,80,-261,47,5
-127,-55,72,22,221,-41
-116,-56,69,135,39,45
-111,-45,67,-109,28,60
-110,-40,67,-266,49,-65
-106,-50,66,-24,142,-19
-102,-51,50,-25,144,-75
-98,-44,54,-237,-82,15
-94,-35,70,-276,-72,32
-95,-32,75,-197,64,-45
-95,-29,67,-179,147,-33
47,54,61,6559,1005,-3870
-37,-2,-19,5032,2108,-5044
-58,-123,-92,6439,5423,-7789
4,39,-20,8075,6577,-11254
-83,-85,5,3062,8844,-9340
66,-91,-17,-1258,-1264,-1505
89,-25,47,802,357,-2608
-38,-48,-98,5381,526,-2746
112,15,86,5325,2363,-1852
-107,95,-35,4068,-381,-171
-74,-63,-71,-3250,-1380,2886
18,-45,3,-12284,-14043,7842
-19,42,-14,-10925,-19749,9901
-52,29,114,-17087,-1468,-5436
-38,-61,-21,11152,971,1105
-107,-107,-28,4307,-1815,-3645
11,95,-63,-885,940,-2977
-6,-79,-57,235,-568,972
-125,91,97,2673,-3015,2946
65,-31,-42,1324,-4827,5851
-57,-46,28,-1619,-4509,4925
-31,102,73,-2023,371,4046
104,119,67,2266,-2478,5028
-3,107,127,731,-1232,4095
48,86,51,4927,-1539,5369
101,121,91,3167,1114,3651
-121,-59,6,-1257,1059,-886
59,-23,40,-1296,127,-3689
105,-116,98,842,-655,-1986
53,-117,-128,1035,-1240,73
16,-73,127,-216,-850,514
26,-51,114,-1348,85,-165
61,-42,95,-1684,774,-496
91,-56,86,-724,592,-415
91,-67,84,422,18,-157
96,-55,85,318,-251,-129
102,-33,88,-493,-165,-295
104,-41,93,-508,64,-291
101,-51,88,-123,86,-120
109,-42,75,-159,65,32
119,-30,65,-418,79,23
118,-24,62,-248,-23,100
123,-19,67,-28,-20,86
120,-14,70,51,13,113
-127,-14,67,123,119,87
-121,-16,59,3,80,50
-112,-21,57,-76,34,139
-117,-17,55,-170,27,210
-108,-13,55,-204,102,207
-100,-2,54,-312,113,134
-61,42,104,6459,4221,-3894
-101,-111,125,9159,6927,-7928
-20,-115,87,6578,10259,-9758
85,28,-124,537,6036,-4282
-126,-64,26,-1010,-1702,-2823
35,-67,95,3120,-1063,-2133
96,54,-67,4554,-873,-4026
-42,-88,55,4345,562,-2547
-121,87,61,1659,491,782
-23,109,117,-9441,-9086,6903
45,-51,38,-11171,-22224,11110
45,-102,-76,-15665,-4177,-3002
87,-45,60,10733,2947,-1639
81,33,-34,1373,1725,-4227
-64,-120,-117,601,-2539,1113
-92,121,-64,3145,-338,422
22,99,-107,543,364,514
-117,39,126,2040,-1003,2384
-62,58,116,1001,-1653,3261
3,-109,56,-1478,-1049,3598
-42,-121,-65,13,-3503,3908
61,-84,-54,-1128,-1157,2533
75,82,-75,443,-541,2793
127,-52,37,1937,120,2799
124,-81,-35,832,-444,2243
108,90,-47,1567,-789,2017
71,27,-73,1652,-865,2157
42,6,-82,467,-1157,1097
53,-54,-97,-297,-650,-431
47,-110,-97,-589,8,-1033
68,125,-110,-418,517,-636
50,119,127,-219,218,-300
60,121,116,168,28,7
81,-119,101,-60,187,-255
90,-112,87,-436,149,-375
80,-120,79,-404,-47,-202
88,-118,82,-366,-85,52
99,-92,92,-471,-58,203
107,-75,94,-316,5,239
111,-64,97,-86,-16,195
108,-51,98,25,-29,117
123,-49,97,-135,109,1
118,-43,92,-290,143,-3
122,-38,76,-426,180,-91
-117,-43,65,-342,197,-76
-109,-40,55,-334,64,-91
-114,-30,52,-445,8,-74
-109,-29,54,-392,74,-37
-107,-24,55,-260,48,-2
-103,-14,59,-226,-51,96
-95,-51,91,1738,2522,-4939
-81,-45,-26,4605,4986,-5058
115,-49,-4,7490,8513,-6843
-108,-96,27,8474,7769,-9132
41,42,121,-2294,8779,-6706
121,-27,55,1565,-495,-3812
-27,8,-33,3069,-2884,-1593
76,11,108,5333,-1474,-2619
-106,84,104,5140,172,-1213
21,48,-6,126,-1088,1796
0,65,64,-6013,-6432,3667
48,115,-58,-10888,-18459,12066
40,45,-53,-4947,-6129,1004
40,-120,57,2860,1631,532
-95,121,59,4635,2424,-5702
-94,78,75,488,776,-913
90,113,-64,749,-497,-545
22,76,-61,3705,-1739,1923
56,-106,-53,1829,-4012,2588
-95,-119,38,-1692,-2903,4273
-29,-62,-57,-547,-3604,5353
-70,30,-71,71,-3141,7001
-98,-90,-18,2325,-3286,3087
-88,-7,93,-2441,212,-10
42,-108,89,1868,73,1376
46,86,-28,4033,-267,1990
37,26,90,3822,-383,1233
61,77,64,-1088,400,-32
57,20,43,-1891,746,-415
34,-62,50,-464,353,-329
23,-74,75,566,4,-62
34,-45,89,-182,-59,-65
54,-28,89,-875,44,-81
63,-32,91,-778,67,-294
71,-31,90,-589,95,-284
72,-33,83,-303,96,-215
75,-27,73,-236,81,-104
88,-24,66,-305,151,-97
96,9,56,-1164,200,-193
104,47,56,-1736,213,-296
105,48,70,-1025,48,-214
106,35,83,188,-42,1
115,50,76,-38,87,-13
115,58,69,-442,108,18
-126,77,68,-645,136,4
-126,88,73,-565,69,-47
-124,72,83,288,23,46
-115,77,80,-55,39,-9
-114,63,77,71,71,51
-111,51,68,132,112,72
-12,15,-68,3193,3588,-5251
77,57,-11,5959,4736,-5042
-118,13,5,5747,8586,-5405
101,7,10,5797,8709,-7743
36,-56,110,165,7991,-6207
48,-29,64,-373,3753,-4486
101,93,32,2015,-2627,-2236
127,-69,-93,4290,-193,-3565
-116,69,80,4140,1193,-4302
86,-118,79,3033,3030,-815
68,-36,-78,-73,-1389,2209
113,78,-19,-9873,-17928,9162
-127,-76,-10,-6691,-20571,10185
41,98,127,-10088,2148,-2909
-12,39,50,11463,381,-1513
-97,-116,75,1995,1784,-3994
-127,127,-120,1376,998,-226
-5,-122,-9,-135,-3112,1716
-94,21,48,4210,-2005,3768
110,117,-111,3466,-1911,6259
-61,94,44,-3482,-1349,5876
-75,-48,82,-3993,-2656,2989
-77,-32,70,-471,-2960,3050
-120,13,-44,2014,-1971,3276
-87,29,-5,845,521,2679
112,-48,-95,835,621,973
55,95,87,340,247,-770
59,30,90,155,11,-742
49,-62,90,1008,-226,-193
42,-63,103,921,-337,108
53,-57,127,375,-116,-292
87,-85,120,167,361,-709
80,-96,121,-45,444,-853
98,-101,-128,67,270,-506
123,-97,-98,17,-239,-246
104,-95,-113,-330,-382,-8
87,-85,-126,-755,-447,114
87,-89,102,-614,-184,339
99,-87,95,-12,30,457
115,-74,87,-53,56,408
112,-52,86,-309,-32,543
107,-36,80,-444,18,586
118,-22,72,-444,124,371
-126,-15,62,-159,238,-28
-110,-16,61,-143,226,-355
-116,-23,57,-299,6,-335
-114,-45,58,51,-108,-199
-121,-45,57,49,-23,-194
-113,-43,59,-144,31,-165
-112,-45,64,-178,-33,-91
-60,25,-43,2735,1654,-6729
70,106,-112,6012,6568,-6448
-70,92,-78,7780,7281,-6047
-38,85,-89,7187,6653,-4891
-19,82,48,2034,6904,-6057
83,50,125,-3493,4570,-2441
-85,126,-9,358,-3864,-154
-27,90,-40,759,-1374,-4608
54,-72,75,4847,-1413,-4126
-3,-5,30,4790,-354,-4454
47,-121,-26,4384,1731,-2309
-68,20,119,864,1872,-734
101,-68,-44,-4411,-7562,2036
62,-14,92,-8996,-20712,11716
55,-102,114,-2797,-10256,3079
-44,-74,1,-731,4649,-1975
104,47,123,5313,1954,-3805
117,63,-6,2450,1510,-1762
-38,-113,78,-639,-1758,548
-15,66,-27,2519,-3186,2497
83,-67,-56,819,-2622,3048
93,48,88,235,-3416,3843
-102,-50,-109,-566,-2808,3774
-43,-32,19,626,-3440,4467
12,-64,-27,325,-1334,3445
95,-16,-111,-2084,-1071,3520
102,109,56,-1581,-1463,2078
83,45,50,-790,-1055,1907
49,-14,0,738,-540,1179
28,-63,-40,1751,-174,164
29,111,-87,2792,301,-558
24,54,122,1582,146,-755
18,18,102,-140,226,-764
32,-31,109,-104,198,-370
28,-63,105,399,58,-51
43,-49,102,99,-48,179
52,-37,94,-143,67,43
59,-40,88,-123,119,-36
64,-45,78,7,68,194
73,-42,76,177,26,263
83,-33,73,132,7,287
87,-26,75,-60,22,210
88,-22,74,-152,50,120
94,-19,69,-176,125,37
115,-9,63,-535,159,-108
110,-1,51,-701,133,-462
120,-29,76,-402,-131,-456
118,-24,92,-419,-34,251
96,-7,78,-117,182,300
-126,0,61,193,252,129
93,0,-81,3517,2331,-5274
94,-34,-30,5078,3763,-6386
-44,-16,11,6070,7782,-9487
-103,-126,-62,4308,8164,-9718
-62,-113,-1,-253,8009,-8416
9,56,75,924,5025,-6786
-23,64,-57,3995,-3115,194
43,-84,-54,5598,172,-1302
85,-8,-11,4841,1192,-2489
-25,-71,-13,-4302,-3296,988
-25,103,-109,-19024,-23240,19162
-82,49,113,-3757,-9209,4492
-69,105,45,-2323,7552,-446
40,-119,4,9443,-1882,-6359
-52,-80,60,1972,491,-2565
-95,-120,10,-912,-373,99
13,49,-9,3734,-1858,1735
-32,-111,-23,2097,-2585,4106
28,-121,42,-143,-2203,4828
80,73,-75,-2888,-1525,4176
116,-14,-64,-1041,-2606,4376
-82,107,-107,1018,-1212,4231
126,104,49,-58,-1161,3219
93,-92,-12,2502,-806,2013
-71,-15,-71,3792,-570,3553
-66,-8,-112,2890,155,2708
90,56,92,-113,330,1091
29,41,69,-3034,739,-1079
69,-51,75,-2035,636,-1332
48,-106,105,-247,-103,-1013
41,123,125,1454,-462,-416
53,126,122,1284,-178,-320
59,123,122,444,131,-600
74,114,123,-232,118,-560
92,90,-124,23,172,-440
99,81,118,237,139,-105
90,94,112,3,-2,23
85,104,104,-166,-51,-17
93,-125,97,-445,-124,186
109,-102,86,-693,88,447
105,-88,93,-262,-37,219
117,-92,86,402,231,292
121,-80,85,175,106,163
-123,-72,77,-94,214,62
-108,-84,66,-110,200,-187
-114,-84,68,-409,-4,42
-108,-68,61,-574,123,29
-107,-72,61,-131,33,-80
-119,-71,64,-12,-7,47
-98,-54,65,-242,80,-85
-98,21,-120,3475,982,-5736
-12,-100,-58,3760,3088,-5932
81,-44,38,5382,6524,-7701
111,36,-38,5837,7551,-7723
-121,-8,-127,3791,8529,-5759
78,46,-114,582,925,-5309
-64,-72,-100,1399,-3336,-3053
-60,11,-38,4030,442,-1263
-121,-59,46,3442,324,252
49,-78,-41,1595,-2211,1614
-103,11,60,-3092,-4217,886
77,-124,63,-11633,-9543,4696
-35,2,-33,-4479,-18030,9351
116,-13,37,-4209,7494,-1495
-111,119,-123,8507,-1031,-4201
-12,99,23,2232,-1411,-1492
-70,55,-78,-774,-428,-201
121,52,-72,1700,-1409,2053
44,109,-117,2650,-4061,4070
35,50,108,-626,-4624,7045
-30,16,48,-2267,-2631,4764
117,87,85,-2610,-4363,4078
-85,-110,20,1913,-2249,3000
-109,29,35,3619,132,2202
74,-65,61,1771,918,1126
-118,106,50,1050,603,1385
-77,11,-125,2492,-686,3511
115,-121,74,-109,-419,1599
43,108,39,-1403,158,-1606
53,-35,112,233,810,-2912
85,-83,112,1308,883,-2107
74,-72,107,472,172,-797
74,-90,108,282,-146,-393
97,-108,104,271,245,-447
87,-102,98,-220,16,-199
88,-72,95,-804,36,1
100,-71,94,-450,212,190
114,-71,91,51,135,540
122,-44,95,86,-36,726
118,-26,99,-60,-68,405
125,-22,107,-202,-159,544
115,-32,97,-102,-90,332
-125,-40,82,-130,222,-112
-115,-41,76,-139,397,-387
-119,-37,69,-402,152,-194
-112,-43,69,-309,33,-194
-106,-41,73,-228,107,-64
-109,-35,70,-225,57,-28
-101,-31,68,-214,71,-16
-98,-28,65,-185,-7,27
104,78,83,1940,3665,-3882
62,95,45,5030,7152,-6525
48,-11,-42,6065,7409,-8756
-8,-108,-26,-3355,9381,-6120
58,115,-34,-2797,4176,-3375
79,-15,-76,2609,-935,-723
54,-112,65,2795,-1834,-1859
-128,-78,-126,3569,1805,-1492
-127,122,-111,4135,3014,-899
5,-124,-74,-495,371,611
45,-22,3,-11731,-23003,10760
-87,-29,68,-4196,-13563,7480
-59,69,45,-3695,3196,-311
28,40,-78,5105,538,-6023
91,-1,120,4008,207,-2774
-85,58,-67,-804,-292,445
29,-112,-82,835,-1945,354
73,-116,45,1245,-2910,2178
-100,-16,-111,-76,-1488,2618
-52,104,-74,-1341,-1984,2664
78,94,-42,-413,-1621,3255
64,96,-8,379,-2084,3250
61,69,1,597,-1717,2766
98,-21,-99,534,-735,2749
-127,-30,86,-325,-1068,2478
-105,-84,36,766,-827,2054
122,-107,-54,1826,303,875
69,108,-79,1931,526,-346
83,39,-97,1465,860,-629
75,-32,-104,871,157,-298
70,-54,-105,211,-182,-118
93,-64,-90,-402,-377,237
100,-63,-81,-470,-3,105
82,-41,-70,-864,405,-214
80,-44,-86,-663,-222,-232
120,-40,-88,-168,114,-265
-115,-37,-97,38,258,-284
-107,-47,-120,184,-43,-113
-91,-46,-125,-32,-12,-333
-107,-21,-123,-736,205,-1144
-111,-10,-124,-797,200,-687
119,-8,-118,-113,-128,-80
-117,13,-100,-141,-9,-38
-104,37,-106,-406,89,217
-100,34,-105,-188,-157,409
-91,28,-109,-83,-109,258
-99,17,-120,-71,-135,157
-98,9,126,-114,-80,287
-99,3,110,-179,-153,738
-99,0,113,-2,-37,245
-81,27,-36,1776,2422,-5078
-43,-115,68,3758,4492,-4974
-94,97,-96,2707,8472,-7699
-31,81,-92,2415,14347,-7528
97,-16,-122,1112,10650,-5956
124,-124,1,-694,2167,-4362
98,3,49,-314,-933,-785
48,37,10,3759,1514,-351
-126,89,-78,4157,777,-1293
56,2,-109,3781,1767,-232
48,-67,-1,-19,-1460,3259
-30,-106,18,-7311,-9411,4636
60,69,6,-11327,-24318,9196
29,74,-80,-323,-3485,2230
-10,-75,-93,1996,5292,-1600
-89,-89,126,3258,2574,-6965
52,-57,20,1893,3279,-1181
-38,123,1,1836,-1546,1294
107,91,-60,3699,-4764,3727
76,-112,24,1513,-6092,5245
-5,99,-39,-3180,-3598,5101
59,-125,123,750,-1464,4483
20,21,43,1010,-1768,3986
-2,-105,-115,257,-1036,3056
83,-77,38,3466,-127,4723
-125,-24,-61,2466,212,3710
39,-48,90,525,-79,801
10,69,81,-652,-1,-1787
14,-16,91,-75,325,-1816
33,-80,101,279,223,-776
42,-86,107,430,-160,-586
47,-121,120,543,-486,-521
-18,-77,-123,-880,-685,-140
21,-73,-128,-1297,-48,-448
50,-94,111,-796,433,-305
47,-84,94,-403,353,-2
40,-64,73,-400,121,64
51,-51,70,-314,252,112
102,-66,59,137,480,281
89,-33,65,-213,-30,750
86,2,57,-624,7,616
102,11,68,-488,27,77
118,-3,66,-1,197,-196
124,-5,63,-89,81,-130
119,-1,61,-317,-80,-130
116,-11,70,-21,-33,-153
109,-21,76,227,83,-60
114,-12,72,-149,162,-14
125,-10,63,-352,226,26
-124,-12,51,-216,218,98
-70,24,-23,2674,1131,-4393
71,23,70,2930,2063,-4686
-79,-68,-87,5148,4170,-5569
15,55,123,5320,5597,-6447
-6,52,123,3699,8685,-8629
117,-63,44,726,7100,-5381
68,104,-15,193,2803,-2905
80,127,122,3582,-2079,-823
-84,89,-107,5953,-562,-1404
-61,93,-31,5163,460,-2556
91,-104,-7,1846,4250,-2906
-18,11,-70,-4944,-3364,3155
97,-103,96,-11458,-24313,11457
-7,-116,-100,-4335,-16146,7200
114,-33,-32,-1221,9392,241
-3,1,-56,4734,-115,-5689
6,60,-125,4792,-283,-3457
66,-58,10,-2532,550,-377
126,68,120,2153,-1692,1587
111,50,74,3149,-4299,3240
86,-53,-17,139,-4772,5515
-53,58,58,-2356,-3191,6352
-83,65,98,284,-1750,5299
-88,-98,57,1641,-3137,5748
73,-26,-113,2371,-1594,4648
127,110,-45,-75,2141,2756
-68,92,32,-918,1938,272
6,-127,69,1530,-1230,-968
72,66,89,1230,-984,-389
66,36,76,356,39,-80
40,19,69,80,264,-323
36,-22,85,740,-39,-439
58,-66,101,1423,-80,-876
93,-58,126,698,387,-1472
108,-56,-123,-464,172,-841
97,-68,-112,-982,-347,-949
90,-83,-117,-640,-150,-748
99,-63,-122,-555,149,-244
103,-52,115,-335,114,267
104,-41,95,-366,-87,584
107,-25,83,-472,-337,1119
110,-17,77,-588,-318,868
109,1,75,-625,-99,446
126,5,68,-334,285,213
-128,1,67,80,222,144
125,3,61,84,49,162
-124,10,55,-188,88,53
-116,3,57,-142,144,1
-117,3,55,-210,68,-52
-112,0,59,-177,72,-92
57,-107,-15,-1787,1664,-5112
-3,-1,115,1150,2331,-4646
-76,-47,6,2541,3336,-5902
-44,-93,111,2135,6055,-6720
82,-15,25,3799,9536,-7878
-10,54,-104,2185,9928,-7700
-99,-109,-77,-521,7979,-6785
-51,-119,-116,959,2239,-2965
-62,-26,95,2339,-5209,1503
30,76,-79,3970,4134,-1797
-2,122,97,3615,3699,-2500
-75,-68,111,261,1792,-754
-110,37,-53,-12979,-16386,7838
-33,43,-104,-1386,-20771,18499
59,-21,13,-13021,4706,-4820
20,-119,-88,8578,1432,-3446
-21,0,83,3967,-2598,-1455
22,90,90,-2060,-183,-1030
105,-96,-111,-270,-2213,1274
-93,123,-95,2224,-4331,2661
-40,-128,-74,-619,-5043,6760
-33,75,73,-2578,-683,4038
78,64,72,-1130,-2893,3329
105,-123,71,1285,-2098,3831
-118,31,-5,1399,-1253,3434
-10,42,16,-1089,-507,2205
-85,59,-35,-1841,-665,1216
86,-63,-64,511,129,-954
71,84,-100,2379,486,-1591
75,21,127,1845,105,-1127
56,-47,114,1286,-305,-414
41,-70,121,647,-533,60
40,-90,-126,260,-503,150
61,-76,116,-582,61,235
70,-68,107,-631,265,285
78,-68,100,-202,161,237
84,-55,99,3,32,352
90,-44,95,-3,111,380
94,-33,90,-75,119,259
103,-29,80,-113,151,53
113,-30,78,-197,88,-63
115,-35,74,-203,85,-100
120,-32,70,-391,97,-86
116,-33,67,-281,97,-39
-128,-35,65,-55,84,-141
-112,-32,62,-96,14,-92
-117,-32,67,-137,-13,-86
-124,-34,69,-155,69,-64
-119,-36,64,-140,147,24
-113,-33,55,-119,60,103
79,66,-118,1710,1786,-4813
-103,-19,-120,1318,1618,-4532
-30,-1,-126,3158,2498,-5530
-107,84,-105,4414,4803,-8566
-50,-114,25,4248,7001,-11736
35,54,39,-1584,9180,-12101
69,112,-81,-7269,3460,-9686
-85,-20,104,5,913,3049
10,-105,78,3219,-1534,1853
125,-39,-99,3435,487,-628
-128,-77,79,2400,470,1830
4,31,-17,-539,-1946,1427
65,-13,-76,-5284,-7510,4489
-90,126,19,-6978,-23024,13871
-54,82,26,-13469,-1680,773
-116,117,75,6687,994,-4201
94,-71,-61,2484,3100,-4435
1,18,1,542,2706,-1752
34,117,1,4814,-1120,2898
118,-78,117,779,-3622,2999
-33,-66,-10,-1197,-3395,5767
48,-80,76,-1880,-4731,4937
94,88,74,-2093,-1536,4073
0,-91,59,299,-3383,3219
-103,-102,-84,-836,-1296,2186
-126,39,77,429,-271,2365
87,-24,-7,1114,-354,2041
48,-85,-114,1202,-282,1041
43,95,116,1612,-179,-303
31,44,91,747,167,-812
25,-14,102,103,289,-931
63,-23,102,-377,726,-1167
43,-15,114,-677,162,-334
43,-33,-123,-150,-260,-32
51,-35,-127,264,50,54
68,-23,119,43,158,161
84,-26,107,258,66,140
89,-26,98,409,284,-263
106,-28,94,68,258,-218
98,-25,102,-270,5,-180
109,-26,106,-219,77,-57
116,-23,111,-120,156,29
125,-17,98,-206,233,-88
122,-13,93,-185,219,-177
-107,-9,91,46,613,-493
-94,10,89,-247,459,-44
-105,17,92,-243,-31,42
-108,19,90,-209,-167,-2
-90,17,94,-329,4,-126
-94,11,93,-253,-30,-8
101,84,-102,3276,1513,-3929
-99,-94,-16,4165,2833,-4639
-81,19,-74,4362,4890,-5864
-5,-62,-112,3832,6772,-7679
56,35,-118,702,7564,-7494
19,112,-10,-1042,4404,-5718
-4,68,-39,1281,986,-1742
-106,-66,120,4242,-820,-399
-24,94,-108,4735,308,-32
66,-85,87,4222,986,-158
64,26,-9,-1018,-1605,-1722
-121,-97,78,-9301,-10783,3445
-32,7,-125,-7137,-19297,12234
65,61,62,-7627,-968,-2220
-76,-128,-41,5323,3317,-144
-51,-101,-64,4421,-458,-4258
89,32,-7,-949,2000,-3379
-71,93,-5,505,-579,755
92,30,95,4213,-3527,2357
88,-88,-91,1006,-5974,5961
-102,-90,-16,-2463,-3996,5508
-23,-104,100,-2117,-3029,4289
-18,-42,78,400,-2311,3861
88,77,60,88,-695,4555
-11,-123,126,2729,-952,4480
53,13,24,948,-487,3514
-112,48,-114,-267,-354,767
41,-102,83,191,-651,-1837
70,11,100,1605,-227,-1763
28,-46,95,1658,-163,-599
-15,-45,98,612,-338,54
17,-48,122,-249,-309,-252
49,-76,-98,-294,-324,-600
40,-122,-101,418,30,-810
43,-123,-89,-31,-11,-166
29,-105,-114,-326,228,656
40,-79,116,-529,319,573
95,-33,83,-1172,626,610
106,-5,64,-1172,624,513
107,-4,71,-289,386,191
115,-18,60,708,-27,-134
116,-12,77,175,-448,-438
106,-22,97,-292,-342,-537
105,-37,101,-301,53,-393
113,-27,91,-619,332,-115
113,-23,79,-425,130,-93
123,-17,81,-229,129,8
-122,-18,71,-75,218,71
-124,-9,60,-14,38,207
-122,-3,60,7,-57,255
-63,-81,97,1045,1519,-6096
-25,52,17,4278,2157,-9332
-52,98,108,4171,5430,-11067
-50,11,-18,1034,9385,-11793
49,-28,-54,-1254,7863,-8833
46,-77,90,-4672,5490,-4917
116,87,-114,-696,-1006,1218
-85,127,68,2527,-1045,-622
21,-6,83,5458,1777,-2116
74,-37,-68,3979,1182,-116
46,-39,11,836,-4298,4542
40,-35,-23,-9920,-14171,8247
-105,71,-8,-5492,-19049,12448
-56,-55,-108,1253,-3185,355
-21,13,-5,2069,6556,-1904
63,-44,-14,1453,2331,-7661
-8,-61,101,793,2076,-3154
-49,79,-121,1428,-161,2486
113,51,-11,1607,-786,4431
1,-88,-74,1418,-5019,7680
-128,120,62,4495,-4751,7533
-66,71,120,-6494,-4259,7888
-121,55,77,-2813,-2399,4034
-93,127,115,3917,-1353,1443
-56,17,-21,7010,1592,2170
-38,125,-43,3708,4149,1047
-108,-107,-13,-391,2480,-351
23,-45,57,-894,-1261,-1325
12,-75,109,-772,-2343,-904
13,-37,120,-1760,-1640,-445
18,-18,119,-2260,-40,-365
16,-7,123,-2235,958,-584
37,-7,105,-1501,1077,-465
47,3,101,-416,246,-122
60,26,92,-258,-9,-22
77,82,73,-984,356,-148
71,59,70,34,236,-37
72,59,66,448,-105,214
85,85,68,-212,-94,92
95,89,83,-494,83,-46
95,89,96,-545,78,-140
109,102,100,-1165,289,-291
111,78,100,-433,193,-176
113,72,89,-352,69,-62
119,77,83,-274,129,51
125,74,81,97,83,91
-125,84,81,-20,69,59
-122,83,88,28,123,47
-114,82,85,-66,171,37
-114,77,78,-61,120,28
-52,107,-18,723,3715,-5702
61,-42,17,2966,3741,-4335
-98,-1,-7,4405,7556,-4934
103,-128,121,3902,7629,-5717
-7,46,83,-567,8722,-6989
120,0,-38,1989,5548,-2471
53,-75,-42,3089,-1740,-1437
95,-119,-93,3476,-1108,-3646
79,-108,-85,3713,1913,-3930
95,88,7,1209,1781,-1411
-44,-55,64,-583,2614,-1430
-103,-117,8,-13944,-24243,13592
96,80,91,-6820,-13606,5748
-83,-26,25,-1739,7496,1062
-43,51,6,4916,-1893,-6153
92,-7,-11,1510,1436,-2803
16,62,-25,-881,1379,-1046
123,13,-30,3348,-3172,2218
-98,109,-77,175,-4485,4502
-95,-10,-93,-2172,-5869,7019
-78,-55,81,-1917,-2312,5066
-8,34,69,-233,-1562,2453
-113,108,37,266,-1550,2101
122,34,-114,1021,-1770,2790
-125,-86,18,1791,-1098,1394
98,-69,-73,380,-574,839
50,91,-127,516,-343,514
54,12,127,1249,-103,-211
46,-50,117,1076,186,-554
40,-97,108,442,484,-505
75,-91,112,-216,839,-665
67,-112,121,-158,64,-395
76,-101,-125,-389,-359,-29
86,-106,-119,-315,-142,-198
94,-98,125,-297,247,-110
92,-92,112,-120,192,89
99,-81,100,-63,94,77
98,-66,96,-141,-6,47
117,-49,104,-554,128,41
-125,-44,107,-409,175,164
-122,-16,102,-380,158,96
-128,-22,96,68,250,-138
122,-28,93,171,198,-216
-104,-43,94,8,115,-147
-95,-31,100,-502,121,164
-105,-18,95,-387,82,123
-115,-19,89,11,161,-73
-93,-22,94,166,190,-93
-85,-31,83,79,88,-42
-89,-26,83,-297,-13,83
52,-22,12,1269,4967,-3250
-52,103,51,2145,8172,-3232
-51,11,-23,3042,8598,-2159
-22,52,88,3117,6371,-1354
-77,-64,119,2835,6544,-2070
36,-96,5,798,4395,-2209
-109,-34,-95,3143,-2720,-1745
11,111,-71,3001,16,-4175
40,-55,-45,4098,1279,-2577
-61,44,83,2086,2614,-2384
-75,72,-97,-2872,-2905,-133
65,28,49,-10840,-22360,12674
-118,-120,53,-3446,-9920,2723
-27,-26,-56,34,3639,794
-50,-110,1,3123,2755,-3233
80,59,30,4965,328,-3299
-57,-125,100,-1401,1493,-1559
-55,-75,-97,-24,-1369,1817
63,106,-59,2174,-4554,4078
97,72,118,-1073,-4486,5578
-72,6,79,-1933,-2990,3749
85,5,76,-767,-688,2772
-19,126,16,152,-2339,2261
4,51,-111,-541,-1624,1317
34,-111,31,487,-640,1196
122,-123,-28,1082,543,1349
112,-66,-57,617,-6,2231
65,-121,-71,1734,-301,1423
55,66,-84,2256,46,364
55,-10,-87,1633,-105,459
33,-86,-96,674,-699,681
25,-92,-109,-488,-428,123
36,-109,-122,-824,80,-303
58,-97,-126,-1087,310,-531
77,-119,123,-256,440,-386
92,-109,121,68,451,-321
88,-83,110,-461,85,-67
96,-74,109,-417,-16,78
107,-71,93,-40,83,176
109,-47,88,-522,-56,-48
115,-35,90,-641,-49,-109
120,-51,93,-54,53,-149
117,-48,91,-106,106,-40
122,-47,93,-58,49,158
125,-36,91,45,35,250
-121,-34,82,166,120,142
-114,-34,77,119,92,74
-114,-37,73,10,67,15
-114,-39,74,-81,84,27
-109,-37,75,-144,95,29
104,35,-78,1695,4027,-3181
-56,-94,15,3872,5757,-3268
28,-90,-78,6696,6614,-3846
-68,90,-59,8765,7915,-5225
-27,-20,64,893,7902,-4058
-118,101,31,3381,-15,-3900
-66,83,-29,3193,-1846,-3218
17,-78,-55,3485,1169,-848
-23,12,27,3019,1532,557
77,-6,-72,2172,854,76
-81,6,9,-355,-1575,-2296
96,-87,70,-8624,-9885,3976
-94,-8,-103,-5877,-21530,16888
-118,47,-69,-3392,-6209,462
-93,81,-101,-1581,6103,-212
-127,-44,-10,3864,-1563,-3980
93,-65,-82,3128,2102,-4631
-40,-51,-7,-1171,533,-219
23,64,-81,2255,-783,870
-99,119,-108,1413,-2391,3961
-52,-27,29,-483,-1886,4059
53,25,81,-3217,-2040,4824
-115,7,-18,74,-1889,2702
106,46,-72,-1720,-2572,3571
-65,57,105,-120,-1498,1563
-16,37,3,-1189,-1681,3253
96,-70,-34,461,-144,2134
-108,-76,-33,362,84,2244
124,-61,-15,493,-363,2081
101,-63,-71,825,144,575
36,-128,-92,796,-385,-743
56,72,-91,-298,-414,-856
55,39,-110,-982,-244,-482
42,-15,-126,-455,-63,-101
49,-29,117,553,20,86
67,-14,106,106,114,82
81,4,86,-717,220,-115
85,-17,90,-191,19,12
90,-12,88,-57,-9,172
91,-2,95,7,-84,307
97,3,94,-53,-12,261
106,3,93,21,106,184
111,0,83,94,159,90
113,4,76,-147,130,3
120,0,73,-177,123,-11
126,-4,71,-74,111,-47
126,-5,71,-72,93,-80
-123,-6,70,-178,123,-87
-116,-10,71,-104,87,2
-117,-10,72,-71,99,5
102,-59,9,1475,2722,-3925
-28,-22,-97,3450,3955,-4543
-8,-29,97,3053,8152,-6848
85,108,72,1909,10733,-7054
122,-42,91,1936,9331,-4058
-71,78,-5,-557,3937,887
-95,50,-75,1536,-23,511
-102,-116,-93,2614,1692,-965
52,-103,56,6142,-262,-1937
-116,28,-117,4960,302,-1885
-94,61,-35,2561,-557,-1630
-21,10,-91,-2054,-1007,-1091
-78,-98,71,-6942,-14430,7963
100,-9,28,-11316,-21456,13030
17,-94,-21,-9066,-5404,-2204
-66,12,96,7787,9650,330
-109,-125,-65,4420,-268,-5229
-128,45,99,242,521,-1940
67,126,-87,923,-130,1460
100,110,-69,1225,-3119,3165
71,20,-125,-1039,-5281,5285
-85,-18,68,-2659,-3994,3504
65,-15,72,-1294,-2954,3446
25,117,74,870,-3295,3210
109,121,-88,79,-1138,3045
110,-45,77,3354,-1017,3661
102,-36,-29,2284,-665,2493
69,-81,-120,24,-196,481
49,99,77,-1508,539,-1225
57,27,86,-623,834,-1269
47,-9,87,-100,412,-810
30,11,88,-936,-20,-545
40,10,87,-900,-25,-287
59,9,87,-583,130,-269
70,28,87,-718,120,-308
66,42,94,-1050,67,-297
71,36,110,-562,58,-40
73,53,118,-267,60,38
91,71,107,-411,179,31
101,85,92,-422,166,-47
108,89,78,-552,134,-219
109,86,81,-706,103,-248
108,83,86,-471,140,-139
111,80,92,-313,116,-39
119,83,94,-212,94,44
124,82,98,193,19,91
-125,90,96,57,36,87
-121,89,89,126,133,32
-112,85,76,-58,128,-13
-109,79,71,-119,96,-19
38,-104,-101,3098,3055,-2974
-7,88,101,3138,3593,-4279
51,-13,-111,3758,5454,-3918
-75,-71,46,3541,7601,-5010
-17,-68,-97,3126,10888,-7248
-104,9,82,100,10218,-8347
-3,-38,113,-1207,-363,-683
-63,58,59,3250,480,-562
-14,-2,110,3995,1342,-981
23,60,-2,4263,2986,-293
-87,112,-77,1117,-2003,1090
-73,-4,-79,-10342,-12899,3100
47,63,-91,-6230,-22718,10694
94,115,58,-10450,5071,-4992
89,-35,125,7644,1226,2239
-38,-79,-22,4978,456,-1850
38,126,35,65,1020,-2491
37,84,49,277,248,387
-23,109,-36,1597,-2418,1078
-74,-112,23,509,-4854,4298
-106,48,-1,-1910,-6362,3829
77,118,55,-1368,-3144,3263
89,-109,67,468,-5506,3143
-69,18,17,1734,-903,2988
-120,-19,-88,1720,59,2874
94,-25,52,569,-566,2213
49,-49,-55,73,-272,621
24,125,-101,293,-124,-102
21,31,122,1126,311,-262
16,-12,99,485,329,-467
15,0,110,-823,-85,-480
36,-36,118,-349,-126,-558
39,-68,125,173,-45,-514
45,-60,115,-374,219,-477
49,-70,104,-341,212,-236
64,-65,90,-192,118,55
71,-45,88,-377,-10,100
78,-38,91,-375,-20,9
78,-37,99,-7,52,102
83,-35,97,116,107,179
90,-29,85,176,127,218
97,-22,78,17,108,179
110,-19,73,-112,140,44
105,-16,78,-159,43,-10
118,-23,82,-142,228,-122
126,-24,75,-213,235,4
123,-22,62,-122,92,2
-124,-18,60,-169,151,-36
-117,-16,56,-206,148,-23
-118,-14,54,-163,-6,-25
-88,-106,-14,1684,3038,-5019
-22,75,-102,1528,4067,-4548
104,-110,99,2140,8147,-5303
-43,-106,-53,4281,9991,-5165
37,14,92,2755,8939,-4796
44,-19,-70,-1339,4957,-4044
120,5,-89,-639,-775,-1455
80,63,-41,3481,930,-552
-27,122,0,4413,170,-1079
119,91,-4,4714,2682,-718
103,78,-73,2841,2268,589
-91,-77,47,-3216,-6167,652
24,4,56,-8370,-19421,15439
-56,-67,126,-3379,-9164,2122
112,-77,-101,-3865,5532,-1905
-54,-9,104,5702,-1321,-1825
-112,40,-6,1509,38,-1863
65,121,-107,-1491,-822,-958
29,63,-116,2091,-3135,2130
63,-91,-11,267,-5270,6361
91,33,-71,319,-5862,5661
18,53,52,-1881,-4711,3808
119,-90,-5,254,-3086,3752
-65,-49,-78,2349,-1303,4945
-116,-84,-7,3521,1408,4726
67,66,-91,897,1358,4166
102,81,95,-1129,-84,627
-19,78,110,1021,-1192,-3147
32,19,121,1320,-428,-2725
36,17,101,38,626,-702
18,21,89,-920,462,39
28,-36,102,383,-2,-973
42,-91,93,1274,134,-1012
52,-94,90,416,111,-527
47,-66,80,-1036,112,-164
47,-66,79,-1096,27,-55
46,-56,81,-452,-19,365
68,-30,90,-281,16,501
82,-4,83,-456,184,432
93,17,74,-468,154,313
97,20,71,-224,130,124
107,19,64,-10,129,-34
109,20,60,-198,111,-276
107,8,64,-130,74,-227
113,-8,69,140,134,-118
112,-6,66,60,124,2
122,0,61,-254,168,-94
-124,-2,60,-265,152,-52
-121,-6,59,-78,131,-7
-121,-3,57,-27,130,23
79,-92,-126,3564,3439,-5447
-4,101,-28,4646,5318,-5604
47,53,-128,4219,7604,-5723
-53,-12,113,4412,7962,-5116
62,4,60,5365,9282,-2690
82,-123,-98,518,4194,2356
84,52,-113,722,-1828,-1498
-122,-8,-108,2772,-1163,-2875
48,-11,112,5351,-1970,-2405
41,3,91,4613,-1170,-2164
32,104,68,2823,-427,-641
119,14,12,-3412,-3482,-659
-51,119,43,-12423,-14785,4572
-112,2,109,-6422,-17209,8546
25,47,56,-5258,468,-1609
-60,21,-55,8979,6436,-1099
-30,54,-72,2518,-593,-3293
61,-70,101,-458,245,-944
67,-61,-8,1262,-1826,2528
120,-63,12,1597,-3592,3103
-90,84,-103,-1772,-4316,3489
-44,-77,25,-2770,-3163,2268
64,-52,82,-74,-3333,3890
-125,-51,34,-127,-1592,3392
101,-104,-96,-1920,-1574,1645
80,11,120,-49,-1628,226
87,-96,114,2580,-1239,2395
-124,-78,-52,2767,-354,2618
70,-81,-111,828,-616,136
44,101,121,372,-208,-1009
52,23,114,-24,300,-1013
57,23,94,-1012,494,-662
53,14,91,-1022,161,-437
67,27,90,-1375,78,-589
96,-92,62,-4873,716,-1326
87,-109,71,-3377,511,-1048
71,113,-117,-127,28,-147
79,-122,-112,337,-181,90
85,-105,-115,-367,28,206
99,-86,-114,-843,319,-89
102,-84,-107,-173,175,-150
106,-99,-110,553,-68,128
112,-82,-124,-123,92,0
117,-101,-127,32,118,54
122,-111,120,-26,41,6
-128,-109,119,-261,129,-18
-119,127,119,154,86,68
-119,-126,114,-31,91,78
-122,118,108,78,116,-24
-114,114,110,-69,89,13
88,-119,31,6247,1458,-2792
-75,38,-4,7770,4306,-6266
81,-26,89,2553,5772,-8033
22,-90,23,894,8951,-5570
48,-55,64,4238,9480,-2464
-8,-63,34,1068,7259,-747
-12,37,83,292,2904,-3488
-97,65,93,3272,34,-3112
-124,4,55,4884,596,-2343
72,13,110,5012,179,-2716
9,-15,85,3154,1131,-885
-47,-122,-19,1647,1840,-45
-19,-12,-8,-2155,-4475,473
48,64,-54,-7839,-20591,10466
44,25,121,-8651,-17025,8271
-48,73,29,-3197,880,-39
-16,73,114,962,3930,-5118
-51,6,69,6326,462,-3376
-2,-122,-9,-670,1917,-431
22,-105,-103,1780,-3661,825
11,51,-16,3306,-2009,1190
-97,-78,-22,-29,-4435,3202
-57,-12,34,-2291,-5770,3705
-110,61,47,-1371,-7932,4375
-28,86,-110,2302,-1745,5010
-97,-103,8,2098,1223,4687
22,-88,9,1069,1683,2870
63,65,115,748,-67,-283
-6,120,-127,2266,-1539,-1240
-18,-62,-90,3335,-1813,-988
-16,-23,-76,856,-170,125
-5,-50,-66,-615,995,336
7,-42,-106,-1977,579,-315
31,-56,126,-1947,103,-527
44,-80,116,-869,131,-257
55,-57,87,-552,328,-111
59,-33,72,-549,361,-164
69,-8,57,-838,274,-212
92,37,45,-1764,369,-411
104,99,57,-2510,331,-496
92,57,101,-274,-86,-207
91,50,110,295,-181,-164
98,74,100,-928,201,-219
97,54,108,-307,246,23
105,57,111,139,54,184
118,75,102,98,135,187
121,86,87,65,178,62
-124,84,76,15,135,3
-123,72,74,51,106,-4
-120,69,72,-72,76,-13
-112,39,70,5130,1783,-2730
-18,15,-19,7395,5164,-6232
-40,0,54,7145,8507,-8202
107,-51,-118,6010,10565,-5979
-44,24,-89,3452,7832,-1423
-121,-57,-26,763,3793,-1597
6,75,98,1185,-693,-3029
14,-70,78,4307,-1501,-1214
-27,68,75,6237,-1657,-2344
-92,-17,-91,6652,-716,-3580
10,118,51,793,1600,-2170
-69,114,3,-716,-5224,4115
-98,-37,103,-8990,-18662,14837
-11,127,-29,-7342,-13486,8333
-67,102,-65,-416,2365,1378
8,-108,98,5286,3233,-5681
-56,84,-45,4576,-114,-5213
36,-108,-111,-3490,1128,-2613
-55,80,-99,1844,-2130,2810
123,73,-9,2077,-4731,4286
-53,96,-119,-1902,-3418,4838
23,66,103,-2286,-2251,3715
88,-4,70,-56,-2456,3437
-102,6,19,-798,-1009,1848
41,96,-19,1401,-874,764
70,-126,-2,-497,881,854
13,1,-97,-1067,21,-94
17,-103,-108,311,-592,333
36,109,-108,841,-452,573
51,65,-108,1593,15,925
67,74,-123,408,151,626
78,48,-127,156,-63,398
89,22,120,-47,-121,245
97,15,115,-336,87,69
105,0,101,-238,251,-93
95,-20,92,-86,173,-224
99,-30,91,168,114,-83
108,-17,92,-534,140,-90
127,23,78,-1600,251,-195
111,4,86,-461,160,29
121,4,96,226,131,222
-118,23,90,170,228,122
-110,29,87,-8,152,-25
-108,27,90,-1,189,-188
-112,31,101,-229,311,-164
-91,23,96,-155,243,0
-92,36,91,-503,-73,36
-89,33,101,-361,119,-48
-85,34,102,-341,204,-106
-75,33,89,-338,306,-270
115,-66,-73,1789,2871,-3419
-55,81,75,4628,4631,-4785
-106,48,-113,6237,10899,-5879
-24,-107,73,7028,11840,-5301
-49,124,121,2958,10450,-5053
-11,-44,-67,1164,5136,-4594
49,-112,-99,2058,-720,-1869
-35,108,-23,4395,-449,130
122,-57,19,5997,1900,-364
-50,-37,-54,4942,2163,635
60,40,-106,-854,-3795,2997
24,-8,-20,-10894,-14904,5394
-25,-51,72,-12090,-19762,9700
-52,106,71,-1550,-3452,1175
15,76,18,503,5609,-3156
-119,32,97,7036,1615,-5490
88,115,6,958,-1943,192
76,-117,-12,2082,-1813,1013
40,-118,-71,1515,-2461,1579
34,43,-108,-1680,-5884,5529
-88,-69,34,-1979,-3830,4071
-31,-38,81,-1451,-5025,1785
-83,-3,85,-1507,-2269,4343
-120,45,-17,1211,-2342,4460
114,-58,-47,2278,-573,911
106,-69,-101,323,501,-756
-125,-118,-111,439,708,238
74,112,124,376,-134,872
45,71,117,975,-562,217
42,37,123,1220,-438,107
40,-11,-126,2044,-179,321
53,-9,118,884,76,-6
52,-18,117,-179,260,-123
48,-39,108,-392,308,-126
69,-50,95,-256,483,-205
84,-53,78,-203,442,-228
91,-50,67,-260,194,-182
94,-42,72,-406,39,10
99,-34,75,-321,91,35
113,-21,78,-355,127,-78
112,-10,79,-502,79,-168
120,-13,84,-386,114,-228
124,-14,82,-277,156,-158
127,-13,75,-218,114,-133
-125,-7,68,-250,122,-117
-116,-7,66,-241,154,-117
-114,-6,65,-199,92,-34
-106,-4,63,-133,149,-32
-107,-5,67,-71,47,57
-107,-3,68,9,75,186
