AccX,AccY,AccZ,GyroX,GyroY,GyroZ
-84,28,-36,2453,2305,-3660
-61,41,43,3145,2393,-4441
106,14,126,1671,2995,-4655
98,17,118,1184,2709,-4403
-103,-120,65,598,2862,-5338
98,-23,-13,334,2777,-4982
13,-40,-124,-950,2108,-4788
-85,-41,102,-875,2272,-3805
21,2,82,-125,1786,-3082
-64,68,-9,282,1068,-1586
54,-123,-114,1411,-86,508
-124,126,34,2427,-676,-16
97,0,-15,2562,-1327,-644
108,-56,-50,4361,-1191,-1268
100,53,-47,1567,-2371,-294
74,77,90,1120,-2239,2325
5,-67,89,-519,-2673,2636
80,105,112,-1190,-2841,3019
67,69,-7,-1087,-3928,3311
-128,16,21,-2982,-3099,1606
66,-44,109,-1906,-2813,2553
-113,-71,94,243,-2305,2409
62,115,65,-190,-1707,131
-109,-72,47,1882,-924,-1282
-99,120,38,306,502,-911
125,-71,30,1776,324,368
-101,-42,-37,1130,-217,-79
-52,-57,24,589,-386,124
-50,-66,-36,827,-1295,-12
-12,-84,-113,766,-1289,387
-14,-21,-103,-53,-1016,927
-72,-13,0,756,-2142,1769
22,48,-1,2186,-1374,2169
14,111,32,1867,-404,2413
34,47,-1,3595,-380,2871
-93,-128,31,1971,304,3393
-84,89,-15,2717,730,3051
-78,-128,98,2242,-283,2589
-116,-35,26,3367,1212,1956
67,20,47,1594,805,1233
9,-100,19,1796,337,676
11,-115,-6,172,56,-86
27,74,-29,-315,-91,-539
45,-6,-61,-199,180,-710
70,-25,-60,79,200,-694
84,-35,-78,7,-71,-786
99,-50,-73,-144,52,-785
102,-46,-75,-281,-54,-769
114,-59,-83,-66,247,-547
108,-40,-98,-163,-111,-309
-113,-15,-21,2219,2317,-3522
109,31,-74,4377,5022,-4878
79,46,79,3816,4109,-5439
115,-127,80,4147,3177,-6500
-110,24,-12,2931,1427,-7267
-49,-28,67,-975,776,-9436
-104,-44,-76,164,1988,-5731
29,54,8,52,1012,-3381
123,121,44,2767,115,751
-109,-12,-18,2005,-1497,439
46,61,55,2291,-912,-624
62,16,24,2985,-352,-154
-79,-34,-62,2035,-1397,2000
107,-98,103,645,-2409,2843
88,62,-123,-1570,-3545,2817
-33,-85,34,-2002,-5794,4881
-75,125,-78,-3999,-7144,6344
-101,75,-102,-2345,-732,2005
30,108,100,3151,525,-1513
122,-108,38,2275,-1158,-1685
98,-30,29,-262,-101,551
127,38,27,1584,-55,-138
-108,0,-94,264,-324,-244
-106,-21,45,311,-875,-372
-82,-100,-31,1007,-686,-223
-102,-64,-103,188,-451,169
-71,-1,-18,-51,-732,1064
-22,-34,-36,1843,-655,1603
-6,126,26,333,-401,2623
31,83,10,1877,-272,2832
-121,22,-11,4421,165,3838
-102,-34,-71,121,-315,3269
-69,94,61,2069,-452,3757
-43,-6,42,3614,240,4037
-19,119,39,203,434,2313
113,97,41,730,-702,1595
79,-47,12,1644,70,132
50,-84,-11,259,347,-606
19,71,-16,455,86,-549
19,3,-32,424,238,-355
42,-7,-50,137,282,-505
66,-11,-76,-337,177,-542
100,-25,-83,-260,-4,-441
98,-44,-92,127,164,-352
92,-7,-96,-254,118,-424
100,-3,-110,-58,235,-22
117,30,-113,-178,41,-213
127,39,-116,83,201,-50
125,66,127,-117,147,-165
-126,62,-126,3,209,-27
-106,-41,-19,2427,3272,-3545
56,19,-49,4871,4289,-4219
97,-89,107,4409,3420,-5504
60,-65,83,3510,1515,-6022
-120,113,-79,1538,1502,-7336
-127,125,42,-189,470,-7898
56,119,74,-854,1090,-6546
-62,-53,31,-479,1277,-3398
-126,28,33,-600,375,-651
-3,121,-11,772,376,-134
87,-25,-32,343,-635,432
74,-95,-66,2143,-153,-149
92,-92,-117,1356,-232,-1077
95,31,-23,2876,-831,508
-125,-16,-25,2080,-1019,1490
-107,-76,-101,106,-3728,3488
59,33,117,-1819,-5494,4195
-97,-105,19,-695,-6417,6288
-39,-13,33,-5398,-1602,2125
-57,12,-128,-152,374,-657
-34,-22,47,6351,501,-619
74,-108,13,-1166,-1613,210
86,-24,10,1108,-259,-275
98,-50,-41,1707,350,516
100,-6,81,1477,-1421,963
-122,-92,18,1410,-826,1044
-84,-117,-40,1428,184,898
-49,83,-88,1120,-398,1461
-33,-76,-106,-1392,-892,2084
35,-35,105,-467,-657,1865
116,50,-40,780,-1004,2254
-101,49,-83,1065,-388,2172
-113,117,29,1410,-1119,2918
-4,65,-62,2174,1050,2547
-41,122,-52,1020,-401,2490
-74,-1,-11,2140,874,1997
-92,68,53,791,152,2088
-118,-63,35,2850,776,1511
72,-18,26,1012,181,554
53,-41,12,-1421,116,-607
26,34,1,114,85,115
37,80,-30,-220,-191,64
86,55,-55,16,475,-299
120,53,-91,18,682,-869
117,3,-77,921,189,-415
-123,7,-93,355,293,-434
-100,18,-101,-329,244,-556
-102,-8,-103,200,142,-310
-101,26,-111,-247,155,-343
-89,14,-104,266,137,-49
42,110,-58,3386,3445,-5026
3,-66,89,4810,5494,-5984
-97,-114,-118,4883,2868,-6562
-84,40,33,1915,1702,-7571
-12,-71,87,145,1701,-7543
120,-78,-126,-241,1412,-6995
13,-88,39,-570,1570,-4612
-41,-76,-39,1580,714,-287
-45,-3,48,1526,-748,232
70,96,-96,1612,-509,0
69,60,-77,1827,191,-1324
85,116,-4,2698,-130,926
-35,119,-123,704,-666,1458
7,-124,-113,-241,-2782,3969
108,-128,-6,-4106,-5356,3999
-92,-10,18,-1898,-8457,6329
127,-86,-103,-5515,-5539,3980
64,-75,122,1061,1316,-591
-81,-92,48,6050,80,-2588
100,-76,22,-2346,-441,204
93,16,31,1115,244,-218
-93,46,-53,399,168,-653
-124,-62,91,1523,-582,-7
-89,-5,-35,-163,-550,-320
-108,-78,1,1153,-672,358
-68,-64,-19,1165,-470,762
-75,31,8,364,-455,1470
-15,79,56,1034,-1170,1823
21,2,-128,2591,980,2138
92,10,-85,2655,1740,2586
-121,21,-99,1815,608,3684
-94,95,-122,1213,95,3559
-98,66,-13,919,13,3285
-60,81,3,244,-229,2955
-77,5,47,1271,-72,2641
124,-4,74,870,-345,2235
83,16,71,135,-296,799
38,-56,69,635,266,-349
61,47,0,1219,908,-340
36,24,-5,941,-9,80
68,4,-40,663,631,-78
83,39,-56,-414,4,-496
109,9,-63,-319,-90,-527
123,8,-83,-516,37,-786
119,-7,-80,-244,113,-572
122,-11,-99,-29,223,-465
-117,15,-102,-184,153,-397
-104,24,-102,-184,78,-335
-112,31,-102,-191,45,-202
-115,37,-103,-26,332,50
-47,35,-106,3143,3180,-4132
68,57,84,3853,5249,-4849
-93,98,-107,5524,5487,-6888
-85,92,123,4073,4705,-9822
2,83,-10,2337,676,-5031
91,-77,6,1937,448,-5809
118,92,-105,-700,404,-4768
-126,60,12,2017,1009,-870
-83,42,-125,1376,1045,-1269
-4,-23,-118,1985,90,344
-61,-78,23,2412,-57,1332
-72,-121,-37,2560,-576,532
114,55,-55,2107,-831,3285
57,119,-40,75,-1242,3017
14,-99,70,-2655,-4124,5335
-21,-30,89,-5184,-5376,5686
77,71,-119,-1371,-6703,6136
-35,-10,-103,-9063,-3173,1725
-63,104,111,5085,1518,-1138
87,-57,32,1587,-459,-717
62,104,33,37,-723,-115
108,67,28,-257,863,-319
-73,84,-98,84,173,-664
-84,-25,52,1714,-455,-219
-104,-5,-14,513,-841,-58
-47,-73,-37,1195,-271,179
-117,16,33,-213,-1000,1314
-54,1,11,975,25,1536
-39,34,-23,2472,-675,2269
75,94,-39,2167,-209,2496
75,97,-34,1205,142,2851
103,80,-4,374,-222,2856
-105,21,37,417,-648,3625
-47,57,90,-21,-522,3506
-7,71,118,347,-194,2970
-27,105,59,641,-129,2153
114,103,31,850,-363,797
72,26,9,690,2,-96
58,-94,-21,1360,181,-149
70,120,-61,479,304,-492
72,85,-77,37,139,-657
89,36,-82,222,168,-645
98,22,-86,165,90,-547
124,15,-94,149,295,-448
-126,21,-97,-83,55,-542
-126,12,-88,81,41,-210
-123,43,-98,-221,264,-152
-118,70,-105,-389,153,7
121,105,-54,-472,-351,41
-88,98,-48,122,686,-22
-12,106,77,5330,4113,-4132
124,-16,-75,3693,4475,-6243
116,-51,117,3245,4674,-5940
30,-79,95,3420,2754,-5758
74,-46,37,1642,537,-7341
-102,78,69,881,912,-6948
-81,69,-46,832,-237,-4344
-108,-114,23,0,361,-2306
0,-7,-103,2133,-546,-121
114,103,-43,1572,-660,-408
50,61,-120,3250,36,-629
65,115,65,1760,-450,-1114
70,-12,14,2330,230,-123
46,-108,9,230,-1455,3561
-120,78,69,-2732,-3094,2634
21,123,120,-2606,-6254,3750
62,-76,35,-3638,-9083,6363
-90,-23,-115,-841,-1872,3423
90,-12,94,2124,-284,-2727
-61,84,37,3497,1328,-1694
92,-19,22,1074,-17,122
83,38,14,630,141,344
-90,-36,74,1359,885,-267
-99,-24,-55,-158,-415,451
-63,-74,-48,308,62,851
-67,-9,-80,42,-1035,1584
-34,-35,-59,1804,-243,2091
34,-115,-13,288,-1886,2792
6,28,-85,2048,-24,2558
-104,-126,9,1043,-282,2927
-113,54,-88,2331,-229,3346
-67,-96,60,578,-322,3141
-30,16,-14,2418,514,3238
-107,-69,56,-895,-650,2480
96,38,126,975,-323,2067
71,30,74,1791,620,1024
81,37,40,-85,243,-48
-5,-9,39,-2171,-741,-953
32,59,-43,-292,418,-378
24,80,-82,-503,-167,-339
75,32,-111,775,870,-286
109,41,113,1072,1009,-294
-128,38,104,699,325,-241
-126,51,113,-45,92,-427
-127,34,-102,413,181,-170
-118,45,-117,101,253,-160
-118,72,-121,-422,-51,-100
-121,89,-86,-117,0,58
-113,93,-100,182,354,67
-99,121,-114,-209,133,50
-35,-84,4,3956,3733,-3769
94,67,-32,2823,4245,-5310
119,-113,1,2908,4247,-6155
80,-61,26,3536,2172,-6438
98,-52,-118,1549,1185,-7158
117,-119,16,-390,877,-7633
-65,54,-74,62,887,-5473
-84,79,95,-744,1061,-2847
87,-57,-81,1137,-67,1141
-49,-100,120,1231,-265,-211
47,-50,-70,2151,-122,-318
71,103,124,2456,30,-1040
84,-50,-4,2384,-452,498
-2,52,102,1821,-1144,2083
20,-120,56,-1145,-3643,2914
65,21,-91,-1403,-5894,5125
117,31,-92,-942,-7219,7877
-85,107,65,-5874,-3015,1596
36,56,105,1517,1489,-53
-106,-87,49,3997,-878,-1047
113,-121,22,-438,-251,63
100,70,26,-111,-535,256
-93,49,-67,282,285,-39
-79,-17,79,789,-584,-271
-77,-34,-28,163,-1134,-101
-70,-78,-40,363,-1075,166
-67,-72,-23,1034,-364,594
-64,-34,-16,1351,-846,1559
-8,75,2,1793,-308,2061
31,97,4,2365,-930,2813
85,51,-56,3347,764,2819
-91,-89,-4,1328,-34,3541
-59,96,-64,2092,771,2885
-103,78,62,899,37,3174
-99,4,7,1704,480,2894
-121,8,38,1138,194,2621
72,79,20,-556,-259,1345
44,13,34,252,-681,259
45,-91,6,937,687,-477
-6,76,-25,795,360,-711
18,45,-29,190,132,-479
75,1,-65,87,375,-676
107,-26,-89,30,123,-794
122,-44,-96,-34,298,-578
-128,-42,-107,-26,76,-640
124,-43,-111,-43,19,-276
126,-22,-119,-102,287,-268
123,-11,-117,36,78,48
127,29,-125,1,163,370
-125,53,-127,-5,172,334
-94,-59,13,2174,3376,-3636
66,-6,-79,4277,4639,-4318
3,-24,-27,5094,3578,-4921
0,119,-42,2284,1960,-5989
43,-65,-73,1267,2093,-6916
-5,-11,-102,1516,2345,-6200
-105,-38,24,607,1502,-4340
-48,108,-114,-863,874,-2358
-24,82,74,-24,628,388
35,121,30,327,562,187
-82,-26,-35,622,-439,-561
-94,-78,-81,2014,72,-1472
-97,14,-24,3146,-595,-1271
-112,-122,112,3339,-1414,-1685
-125,-37,-99,1772,-1616,-2
-37,118,2,749,-1071,1559
23,-53,-94,-2478,-5601,4322
-34,5,89,-2755,-5612,4920
23,64,6,-1901,-8011,8060
30,-118,120,-6650,-2302,1072
-108,19,108,7155,1584,-2905
66,98,23,542,-403,-890
40,-27,33,-607,-455,659
126,59,32,565,343,1
-85,40,-114,753,52,-452
-66,-14,41,714,-305,-628
-71,-63,-54,546,-1106,-430
-64,-94,-55,699,-635,379
-91,-36,-42,682,-737,1194
-97,-24,-101,1993,-452,2156
-31,-28,-15,627,-2051,2698
19,18,-28,3981,-272,2714
-113,-91,40,995,-123,3591
-97,77,-8,3143,557,3745
-52,116,45,2564,592,3714
-46,124,62,1205,640,3207
-84,67,63,371,117,2190
86,59,105,408,-328,1875
57,-4,59,1261,345,860
7,-4,17,-216,-578,-353
1,-115,-27,-566,-314,-539
46,46,-68,-405,370,-932
63,5,-78,540,515,-746
80,-22,-98,867,554,-620
93,6,-111,-19,348,-713
105,-8,-100,27,71,-408
114,-6,-105,-67,234,-428
109,10,-95,-67,93,-46
111,32,-106,-200,171,-37
109,78,-102,-330,160,46
-112,-38,9,2794,3492,-3382
-93,108,-107,1470,4317,-5004
-111,-57,-69,1589,4894,-5368
102,48,96,2251,5161,-4524
111,9,-17,3867,4234,-4725
48,81,127,2613,1903,-4893
-20,-20,32,2107,1351,-4366
64,41,-124,621,-290,-2364
-46,-101,43,1835,-37,892
28,-102,-77,2404,38,607
-114,88,-1,2901,-905,1531
16,0,-68,2382,-1901,871
49,45,-125,224,-2227,395
70,-48,24,925,-2413,2956
-25,24,-123,-1962,-4705,3675
-127,-62,-118,-2063,-5379,4585
77,-94,-40,-2927,-4000,7053
3,55,77,-3367,-1633,100
-75,-49,55,3542,-105,-866
-128,82,24,2313,803,-679
-128,59,21,-310,498,128
-95,56,109,559,168,-135
-39,-11,-49,-103,-794,-468
-90,-95,-26,1411,-606,548
-91,-63,-49,517,-1164,766
-12,10,-48,869,-448,1419
-97,40,-10,361,-1102,2004
16,23,106,2004,-1121,2331
-113,28,-53,2763,2133,3051
-120,-124,-30,1536,329,3253
-52,104,-60,1028,-325,3700
-119,89,-16,991,-289,3424
-56,77,9,872,161,3297
-91,110,20,461,-384,2361
95,77,50,115,71,1083
81,29,41,-400,1021,-999
33,-28,31,-181,296,-773
43,-125,8,652,-94,-292
58,122,-42,-202,-155,-89
95,102,-84,-631,99,-929
124,71,-98,-66,276,-650
-106,78,-98,-395,426,-959
122,53,-105,458,57,-156
124,69,-111,-64,79,-189
-114,91,-103,-88,176,143
-108,96,-96,317,14,214
-109,-126,-102,-92,144,134
-102,-127,-109,44,119,245
-102,-124,-114,292,-67,334
-101,-107,-122,45,141,426
-82,-112,-104,3786,3238,-2724
15,-79,11,3991,5406,-4102
39,28,122,2858,4906,-4932
46,110,-87,3043,4149,-5470
4,-33,-109,2622,3858,-5843
-94,-43,52,3032,3025,-5845
82,-60,-42,1351,2344,-6317
-6,75,66,1080,1117,-4345
-73,52,-112,-563,743,-3196
45,-106,8,1237,282,255
-104,-105,-97,981,-121,44
123,-113,108,2004,-636,769
86,86,34,2606,-165,528
-71,31,-45,2227,-1091,1091
26,36,-105,1189,-1469,1202
127,-9,-66,1342,-2915,3549
-126,-121,34,-429,-1974,2216
25,-61,95,-3361,-4935,3329
25,7,-27,-1107,-4708,5431
28,5,-56,-3397,-6886,5060
-91,56,85,-2267,-2359,-339
-64,-37,59,4720,3566,-3017
24,-19,27,-1257,-112,-1320
-24,-67,34,22,-414,1145
61,-33,15,388,367,529
-90,81,80,637,329,-223
-72,-28,-28,1649,-738,-432
-66,-51,-106,908,-1970,-159
-47,-64,-119,-157,-1152,59
-71,-14,-45,-169,-1314,1133
-70,-73,-17,2130,-1926,1844
9,-75,13,667,-1562,2326
-9,98,80,2305,-1017,2273
93,123,24,2569,-248,2830
-104,126,37,3402,25,3426
-124,-91,74,1848,286,3205
116,78,72,2095,489,3069
-116,80,73,1083,999,2894
88,63,64,1242,152,1510
-2,44,57,153,-570,451
30,-96,29,597,422,-329
27,-111,-31,-457,123,-682
36,80,-50,-525,-179,-625
74,16,-57,385,398,-797
82,22,-70,-13,265,-849
113,6,-85,-161,47,-810
112,-14,-89,182,235,-627
118,-16,-98,120,326,-359
105,-6,-110,224,179,-189
119,43,-107,-270,140,288
-32,-68,-119,2840,4352,-4431
-38,-35,-11,2347,4476,-4292
-23,-127,92,1622,5346,-5420
-66,-5,-127,1734,5043,-5317
-109,27,114,2602,4311,-6148
106,-22,-7,2063,3151,-5438
84,-29,-103,1051,2264,-6959
-4,-71,-13,430,684,-3367
-123,-72,-2,757,667,-795
-64,94,-95,1956,-269,1449
7,125,-95,1783,-659,1134
60,99,95,2120,-439,514
96,86,43,2224,-411,-668
116,-37,-38,1979,-758,82
49,-116,-16,1560,-2183,2060
-116,-94,-84,176,-2020,3143
-48,53,71,-2217,-4868,4568
127,-97,34,-1883,-5967,4335
-29,33,-100,-2464,-5582,5531
-79,40,-66,-4374,-4413,3435
-106,-15,-106,611,934,-2668
-90,42,62,4239,568,-1117
106,-123,31,469,-3,-122
82,17,14,5,-147,381
127,-69,104,-594,-2041,-189
-73,-66,-1,1553,-625,-1005
-101,-15,-40,73,-1125,-620
121,-110,28,1245,-674,215
125,-69,-11,931,-498,960
-78,-30,-7,2039,-1463,1999
-37,50,-5,2049,-945,2525
-10,79,35,1738,-951,2453
-128,94,47,1753,95,3487
-109,27,-39,3606,877,3353
-39,10,-16,2377,-72,3739
-32,113,96,-106,-938,3590
-84,6,74,2359,164,2437
87,121,64,1056,-159,1254
14,46,34,852,-40,-420
-10,-59,24,769,281,-600
-7,91,-24,666,411,-694
22,80,-50,-253,257,-983
44,59,-64,-626,-33,-1114
82,0,-84,-29,71,-1046
122,-11,-97,-18,343,-959
-110,-24,123,-9,-127,-811
118,-18,59,-372,-71,-687
70,-19,88,-23,-84,-129
47,69,127,-350,-83,-96
65,64,112,230,533,54
117,-126,-63,3974,2397,-2744
-19,-97,-38,3031,4112,-3971
43,12,23,1223,4534,-4689
114,93,57,1504,4438,-5686
122,21,73,1181,3841,-6188
-8,2,-21,224,2701,-5700
-97,-94,119,71,3366,-6338
-39,44,69,522,3369,-4129
72,47,-23,-89,1739,-3711
-35,84,103,685,817,-1395
-87,-104,-13,1152,-330,844
84,111,13,-659,-310,19
-126,94,48,872,-110,431
45,65,-15,2316,-39,709
83,47,-104,2592,-336,-188
-125,-61,-5,3294,-153,113
50,-104,-94,2263,-2007,2672
10,-73,-60,899,-1422,2429
-52,82,-12,-727,-3788,4641
93,-79,108,-3009,-6287,3705
82,-101,-24,-2240,-6722,5334
4,101,119,-3773,-2536,3730
10,7,80,778,-50,-920
22,-93,44,3516,987,-2069
78,60,24,-1154,70,397
-126,-13,16,853,585,-95
-99,36,106,419,-63,-590
-62,-18,-34,621,-1027,-466
-87,-71,-58,776,-1929,-88
-99,120,-55,1316,-689,-100
-94,-70,23,1016,-1188,1179
-59,-44,-30,1289,-789,1464
-39,72,65,1704,-1263,2275
84,32,-89,3521,736,2520
50,-45,45,1517,-1106,3312
75,-89,55,1767,-471,2136
84,30,126,2079,512,2929
108,57,108,1461,92,2370
115,-56,109,1906,776,2406
90,-7,53,708,673,1822
53,-60,59,1439,328,384
17,-41,19,-437,260,28
12,125,-11,107,78,-12
31,72,-45,397,-39,97
52,55,-63,-229,-76,-299
70,15,-76,271,417,-509
89,14,-88,260,492,-583
101,-5,-93,623,92,-419
119,-4,-80,484,84,-450
-128,-4,-85,93,157,-502
-74,-117,96,3516,3617,-3475
12,-51,7,4086,4297,-4390
9,30,87,1815,5322,-4627
-17,61,119,2915,4506,-4944
-43,-57,61,1578,3665,-5886
-65,-115,-53,951,4007,-5924
100,105,-111,776,3445,-5781
-21,51,32,-156,1745,-4353
-128,-125,-101,-62,385,-1775
12,-56,-64,1532,-348,276
90,94,119,2348,-57,1023
-108,-53,-85,1488,-1156,327
105,-24,98,3034,-375,-188
-89,-119,-7,2195,-450,-798
-46,84,-45,3420,-753,1183
94,84,-78,1235,-957,299
-117,69,-107,405,-1894,2829
127,106,-116,-956,-3398,3776
-81,-81,122,-1228,-5623,5362
121,27,-92,-4245,-5825,3125
3,82,79,-608,-1191,764
7,20,47,2884,802,-186
-35,6,25,171,210,-609
-8,36,28,908,347,-21
86,11,-109,20,-50,127
-122,-77,32,446,-1113,343
-80,-94,-64,176,-1310,269
-103,-80,-55,-48,-900,865
-91,-94,-51,460,-1068,972
-62,58,34,301,-1612,1386
-65,90,115,1666,-1092,2332
-31,100,57,2418,-294,2197
7,102,12,1978,-149,2288
45,55,14,3088,913,3100
51,97,-59,1721,171,3397
39,-98,41,777,-316,2741
88,44,11,1843,837,2807
57,4,46,1600,497,2525
67,22,63,149,69,1956
53,6,82,-315,-289,914
17,-43,65,-58,121,151
27,115,-9,253,583,-254
14,77,-11,486,-186,-367
76,32,-52,799,224,-583
103,32,-94,-113,624,-598
100,-21,-97,183,284,-593
112,-30,-104,281,228,-273
122,-6,-108,19,36,-275
119,-6,-109,101,155,-40
123,27,-111,-149,82,-47
-101,-53,-66,4352,3334,-3244
9,7,19,3068,4789,-4424
-3,40,-116,3598,4409,-4481
46,-95,-116,1876,4680,-5682
20,13,106,2068,3633,-6797
-27,-53,-33,659,3205,-7127
123,25,126,-2868,820,-7218
42,4,-10,100,2185,-3771
46,42,77,-420,1138,-1761
-111,-100,8,869,-63,614
-29,-44,26,769,-576,682
45,17,33,1566,-280,573
56,0,-50,3256,631,395
118,-34,32,3041,881,-711
-101,117,-128,3070,107,692
99,102,-42,1986,-263,1258
-66,53,-24,1159,-2926,4367
54,120,-1,-579,-6219,4064
-36,61,-111,-2509,-7875,5277
-62,107,22,-4814,-7869,2965
61,67,123,2098,1526,-212
76,30,37,3349,-451,165
28,126,23,-617,-555,-42
66,-10,23,705,594,-19
-128,35,-76,196,-360,-262
-74,-21,43,615,-1134,-675
-128,-99,-21,270,-1074,-508
125,108,-4,1516,-652,497
-120,-65,-28,674,-875,1208
121,-7,6,1430,-1444,1935
-27,57,-1,1884,-1194,2295
-96,-8,-100,2702,-128,3112
78,-17,35,240,-1232,3323
-125,81,-8,2612,285,2743
-128,101,-100,3029,-213,3440
-60,86,104,2560,960,2916
87,-116,120,1110,-100,1969
17,53,125,835,183,1156
1,-17,44,991,599,461
-16,-33,17,123,-188,6
12,-124,-16,-72,-261,-199
62,15,-66,1698,894,-481
68,33,-90,538,594,-964
84,-35,-91,146,176,-892
88,-43,-83,-161,-33,-471
97,-50,-80,-73,42,-254
105,-32,-84,-22,127,-240
102,-13,-90,131,-65,-93
115,30,-99,-302,258,137
111,41,-105,-120,25,185
-123,-76,113,3456,2150,-3630
-65,53,-46,1354,4607,-5347
-60,-13,-3,3293,4450,-5174
-47,27,-25,2293,4568,-5344
-44,25,-95,2033,3885,-4450
-24,-38,75,1844,3042,-4521
40,127,-18,1436,1054,-3604
103,-37,-21,-1212,1209,-4113
-6,-122,-71,-200,1666,-2336
-47,-17,36,133,1165,-310
-57,-47,-56,443,521,-169
41,-12,93,1563,-594,315
-105,57,67,2273,-700,-715
-95,-14,14,3990,-808,-1171
54,31,-99,4422,-7,-1160
-80,-28,-112,295,-2031,202
-14,72,74,735,-355,912
-38,44,109,-243,-3826,4946
-44,-67,-104,-2020,-6133,4818
-52,-97,107,-2524,-7950,5235
78,57,82,-1037,-8830,5495
-81,87,84,-567,1398,-1408
-34,42,51,5093,1627,-2222
27,89,18,-287,438,-91
48,7,-41,-580,-14,12
114,0,66,-261,57,-246
127,-34,-25,141,-505,-439
103,-84,-4,932,-1338,85
-124,-112,-36,1189,-445,555
103,23,9,12,-946,1426
127,25,-118,1306,-1178,2159
-36,-8,74,3067,714,2407
55,54,-44,2870,1072,3243
118,-107,-127,2346,1177,3701
52,-40,18,1099,-1379,3438
118,-107,-1,1110,-7,2442
27,54,102,1642,-301,2290
104,22,-27,1324,891,2299
65,-44,-5,1542,-51,1910
50,-25,16,656,98,1156
26,-90,-3,749,344,263
25,-110,-20,2,584,50
37,92,-13,-77,561,72
85,0,-35,632,407,-250
64,10,-52,36,-159,-639
88,-49,-31,433,99,-350
105,-34,-73,70,439,-411
96,-51,-76,196,-371,-429
101,-29,-82,-74,-183,-92
127,7,-109,-384,334,36
47,42,-25,2438,3463,-2760
-96,10,-118,3874,3031,-3488
-58,-128,32,1105,3514,-4650
-46,90,-113,3238,4284,-4708
45,-105,-128,4075,4641,-5106
-10,12,115,1990,2578,-6694
-15,-13,-43,1232,1271,-5599
-69,-115,6,1204,1421,-5168
-42,-57,-108,1004,495,-3759
-104,-65,24,385,318,-2415
-79,49,-41,668,-1065,-52
2,-103,-47,1673,-346,587
99,-72,-103,2792,926,-349
76,67,-29,2653,-114,-505
23,-58,-94,3468,1085,-188
104,-118,-97,1664,-1577,2260
126,-65,-36,543,-731,2369
-48,-36,54,-1594,-4820,5327
-14,116,6,-2274,-5448,4083
29,-82,-8,-2952,-7903,7832
1,2,69,-3290,-3423,2210
124,-62,60,2077,976,-2093
97,-80,24,3156,1648,-1959
54,71,18,-396,159,-523
87,-24,-79,903,59,-242
99,-45,8,840,-1486,-37
127,-62,-47,-434,472,-844
110,-54,-12,-783,-162,-229
72,-37,39,-239,-1027,199
97,71,73,-955,-752,721
61,21,124,410,-1507,1424
-88,82,-95,1199,-858,1983
-99,92,-80,640,-1166,2551
-54,-104,-79,1395,-972,2739
17,-44,-52,480,-531,2089
-5,-34,-26,-194,66,1638
-42,0,17,-882,-388,596
-20,-87,19,-1000,1037,-186
-49,37,-7,64,73,265
-21,-42,-64,-38,93,860
-3,-31,-84,429,-883,874
53,-33,-83,292,272,758
39,-38,-70,756,-251,627
68,-31,-80,177,394,117
81,-85,-87,895,603,546
86,-78,103,361,75,156
103,-73,98,106,211,35
115,-96,86,446,-77,201
-117,-115,75,813,95,411
-127,-113,68,1106,-183,544
-69,68,89,3781,4563,-2565
18,-82,-126,2459,6458,-3833
17,-53,-22,3256,5935,-3600
-21,40,79,3453,3948,-4975
54,-81,-32,685,4661,-6012
-79,-99,-126,1687,3862,-4679
66,-87,56,1589,3299,-4522
-59,-14,-117,778,1359,-3914
119,-33,83,802,-38,-1883
-21,26,66,847,-633,370
38,108,-110,1339,-513,1052
90,23,90,1891,80,541
91,30,-61,3004,140,-585
-128,-118,58,3223,-245,-357
19,34,17,1797,-572,-76
117,-104,54,2253,-267,2026
99,-15,61,-341,-950,2663
-71,62,-55,-861,-4548,5582
-76,-84,30,-2050,-5682,5637
-120,-86,-99,-1396,-8429,6915
-90,15,88,-4157,-691,-191
-61,-98,39,5120,967,-474
81,-51,25,-1131,-321,-129
101,-29,27,707,348,-237
-78,-1,-96,34,-177,164
-94,-17,50,-283,-1452,-30
-47,-127,-57,771,-833,-107
-58,-72,-39,-489,-856,623
-68,-81,3,368,-1154,1280
-30,7,16,1208,-1339,2033
29,86,21,1232,-578,2464
12,68,31,2331,-407,2840
114,-85,78,1247,-981,3474
-91,123,51,3056,583,2907
-116,-106,33,1641,359,2874
-115,-128,69,1275,-90,2304
59,95,119,828,-58,1996
51,35,104,830,314,1233
46,-40,52,1190,815,752
36,-49,36,443,136,440
59,-126,12,397,115,24
69,92,-7,54,84,-335
63,5,-16,590,-84,-270
98,-13,-37,57,324,60
115,31,-47,-231,119,-320
-124,12,-52,378,149,-443
-122,5,-61,122,221,-407
-125,8,-59,137,184,-33
-113,24,-67,12,160,-14
-109,42,-83,37,136,46
12,-123,23,6570,3932,-3700
-11,-41,80,3840,3701,-4060
9,26,112,4258,3132,-4783
78,-123,86,2984,1882,-6606
109,-123,7,2807,875,-6817
35,102,-81,1710,739,-5884
-94,82,26,1844,1008,-4921
14,-65,-67,1832,524,-3125
-112,-2,107,741,27,-1902
-31,-22,42,-244,-449,-50
91,12,30,148,-179,933
-70,-94,-9,802,-33,436
105,-84,99,1541,-664,91
-69,-31,-26,2929,-527,731
-28,-115,-93,2757,-1785,1145
69,121,119,1335,-1456,1425
-91,-81,-37,160,-1562,1628
-27,-94,49,-229,-2493,4452
52,43,-114,-2939,-5580,5988
-50,99,-60,-1912,-6208,6190
-50,12,124,-3857,-936,-72
50,82,50,4258,1397,-441
65,8,27,-72,27,-125
83,38,21,1147,711,82
119,33,123,-375,-862,293
-118,-22,-7,102,-1988,285
-87,-12,-13,-458,-1224,159
-106,-58,1,659,-675,828
-102,26,13,231,-788,1139
-53,73,-9,306,-679,1589
-23,77,-7,2091,-810,2215
-28,105,21,2019,-985,2507
12,-113,7,100,-268,2662
76,-120,52,973,182,2616
-93,14,16,2884,268,3435
-110,92,13,1471,112,2792
-91,88,94,762,-2,2497
-125,118,75,271,356,1273
38,15,97,983,-515,1092
42,-21,27,189,-45,274
43,-71,5,238,25,0
92,120,-69,-10,554,-473
102,127,-70,-617,-157,-571
104,68,-95,171,160,-598
115,40,-101,461,387,-688
122,31,-109,192,302,-443
-120,38,-118,10,159,-359
-109,53,-107,-169,12,-193
-110,55,-112,-6,132,-35
-113,79,-112,-160,16,18
-70,-54,-97,2752,4139,-3568
-35,-28,21,2804,4713,-4597
-51,4,76,4205,4853,-4171
111,65,63,3037,2315,-4415
-85,-86,-14,1857,2367,-5294
125,107,-74,1802,2171,-5080
81,30,100,581,1535,-4963
-53,-41,-34,275,1711,-2809
27,-71,97,380,960,-489
116,0,-48,1461,229,293
-92,69,26,2013,-818,-63
-114,49,-23,1931,-875,-1880
-63,85,-83,3737,-376,-106
77,-20,71,1887,-1579,-416
-6,125,84,1600,-1557,2406
127,-8,-99,-1311,-4745,3364
102,-59,41,-2790,-7044,5196
-78,82,110,-2670,-9028,5674
-70,-14,-90,-4087,-919,-1493
-93,62,87,5809,1634,-129
23,107,28,1685,-167,133
23,22,24,-152,-94,207
86,15,-51,-143,-432,10
123,6,85,64,-643,-196
123,-30,21,640,-719,-660
121,-74,6,1206,-637,183
121,-76,-7,1171,-877,634
120,15,15,-262,-1229,1165
-114,-4,37,1082,-519,2000
-91,29,56,2659,-805,2655
-20,122,-1,1837,-268,2963
30,-44,79,418,-637,2871
61,57,52,3429,69,3306
104,-96,74,743,245,2986
-124,43,46,1888,375,2917
100,83,48,241,236,2241
111,10,95,1304,371,2462
88,106,65,546,223,680
2,10,80,492,-348,193
22,-78,30,246,-45,-108
28,127,6,242,-200,-308
78,36,-45,243,825,-786
89,15,-61,480,641,-316
106,15,-66,225,237,-239
112,10,-53,168,151,-136
-126,22,-63,75,301,-124
-123,30,-71,21,89,-18
-126,41,-77,-31,102,180
-123,64,-73,-24,122,184
-112,84,-83,124,196,195
-63,-79,-66,2685,5328,-3768
-69,-27,45,3954,5694,-3816
-26,103,101,4079,6280,-4400
65,98,107,3167,3296,-4218
54,-91,120,2523,2885,-4975
0,0,0,0,0,0
0,0,0,0,0,0
0,0,0,0,0,0
0,0,0,0,0,0
-40,5,96,0,-47,40
-40,5,96,0,-47,40
-41,8,110,42,-122,-19
-40,1,108,-2,-75,54
-36,10,109,-21,-116,8
-34,5,107,14,-60,-38
-35,6,105,-44,-91,-26
-33,5,108,-32,-39,-13
-32,0,108,19,-95,-59
-32,11,97,-302,-238,-53
-34,-1,115,-39,-182,82
-27,-1,119,71,-41,146
-25,-1,111,128,-54,7
-27,-1,107,-20,-118,59
-34,-6,109,56,-164,47
-28,-9,112,103,-62,91
-24,-5,109,103,-81,92
-23,-12,110,158,-71,96
-19,-30,107,366,-19,195
-13,-66,93,1139,35,511
-8,-78,86,1200,-139,666
6,-89,71,826,-199,634
6,-115,58,1070,-212,565
-5,102,46,1073,-32,696
-8,114,36,433,-312,660
14,-120,47,406,-387,696
37,-105,69,320,-101,391
17,-91,72,214,298,-55
-2,103,66,740,408,78
15,100,72,676,733,-98
48,126,105,1073,769,-144
89,-124,-93,1399,1401,-438
124,-106,52,1543,2599,-1129
-56,-92,-81,2543,4034,-1671
-32,-75,30,2508,4378,-1589
-40,-5,126,3166,4519,-2466
-10,111,-95,1809,5529,-3245
-45,-70,-74,1898,4212,-3412
-38,114,101,-923,2885,-5826
-53,3,24,-1059,2721,-4877
48,-39,-67,-755,2441,-4260
123,-61,117,-344,-4092,3718
46,-76,-114,-1449,-5870,3413
89,-48,-56,877,-9015,7613
71,-14,5,-5985,-3432,2935
16,35,52,-2449,-543,-1090
-77,86,79,5038,789,-826
92,-56,-118,210,-404,-5
49,-100,45,-116,-647,186
80,-111,-80,-18,-233,-161
116,-116,100,600,-409,-501
120,103,26,1117,-480,72
101,-117,26,368,-1146,1097
90,-116,-7,644,-1035,1654
112,-79,38,1115,-1586,2566
-100,2,47,848,-1691,2850
-123,-14,117,1373,-1004,3278
-27,54,-113,477,-1219,3681
63,-31,-84,3427,-132,3795
25,50,-88,1609,-1110,3795
-28,-61,39,-358,-1371,2043
121,34,8,2519,148,1262
56,44,-50,1420,192,288
4,-81,-123,751,-16,-296
24,77,-113,1058,270,-333
46,38,108,530,342,-448
57,-5,85,-211,-80,-517
73,-28,77,-324,-285,-389
85,-43,67,-44,-190,-301
100,-60,56,335,67,-406
86,-29,53,-195,-284,-167
92,-27,54,-265,-179,-77
87,10,49,-371,-297,-44
83,22,50,-153,-195,10
96,41,46,-68,-102,2
88,62,29,-112,-295,-89
96,67,30,-323,-190,-196
96,49,20,202,-118,-145
97,55,20,103,-218,-39
102,64,13,-80,-162,-45
99,64,12,-6,-203,41
92,82,10,-197,-261,90
108,89,15,-116,-139,93
90,101,9,-43,-184,226
99,127,10,-117,-90,117
113,126,2,117,-72,29
110,-121,-3,-78,-154,21
109,-120,-7,-91,-49,-61
111,-126,-14,29,-82,-46
119,-125,-21,49,-39,-39
122,-124,-27,22,-85,-50
117,-70,-41,2463,2372,-3510
-39,-65,78,2064,4593,-4100
-46,-53,65,1592,4538,-4581
-6,-4,104,1848,4599,-4458
17,67,118,2025,3545,-4682
39,-126,99,1790,3530,-5085
6,105,52,427,2909,-5911
-52,15,-57,158,2135,-4724
111,47,21,-188,846,-2795
-30,-50,87,306,472,141
1,32,55,467,-880,1416
74,-34,87,768,-587,-45
-113,-22,29,2874,-8,269
-11,98,126,4051,122,-524
-66,-2,-16,3691,-561,752
-43,-26,-28,1614,-1580,2202
-108,37,-115,119,-4032,3663
86,112,13,-1540,-7127,5452
-111,100,-77,-2095,-8514,5830
-99,-15,-43,-5644,-4807,2411
33,-79,98,1153,1928,-1508
-54,-49,19,3028,1125,51
-100,-109,58,-611,-1492,111
-20,-96,108,700,-260,141
8,-81,6,442,-1827,64
-46,-108,-25,-99,-2111,1069
-48,-59,36,-1039,-1464,624
-12,-52,96,1510,-1948,2042
-5,0,87,3021,-946,2400
23,121,-105,1615,-1758,2849
-104,-119,125,1202,-37,2955
99,-112,-110,1473,-1109,2918
-107,-128,-64,1944,-777,3378
-91,-97,-68,1833,-631,2380
116,91,-23,1323,-64,2009
96,53,-85,1176,153,1501
42,9,-93,1371,-307,1066
28,-32,-121,445,-243,300
31,-87,106,127,-89,-346
41,126,84,-23,0,-408
59,82,53,-73,-21,-498
68,62,34,73,-29,-469
83,64,27,-304,-50,-572
97,30,22,35,-48,-440
95,32,12,61,-50,-385
99,33,11,-67,-99,-202
97,48,3,-45,-141,-97
90,60,4,-215,-252,131
75,98,14,-527,-419,183
72,117,22,-181,-210,182
0,-124,-128,1960,5255,-4071
28,124,-73,2775,5145,-3603
75,-50,-66,2131,4691,-4532
-88,-57,-104,-187,4351,-6064
-62,113,117,1273,4849,-6199
45,-95,35,2116,2619,-4507
-104,-40,102,-1287,948,-3439
-30,44,-66,619,416,-221
35,111,110,810,-676,531
66,-45,-53,223,-1068,218
-43,-37,-106,2735,-344,117
-73,-111,-24,3991,-495,343
101,-106,117,2607,-580,-930
-6,23,39,2878,-1470,2305
-30,50,123,1533,-1707,2618
22,33,-56,-1904,-6524,4474
54,-117,-2,-2969,-8401,6096
46,-109,52,-5017,-8264,3762
-84,88,-127,278,10,-1347
95,35,74,6451,1975,-1071
-87,53,-91,-53,-1426,-336
-32,-124,-2,191,-878,474
-24,-32,-107,-586,-1629,63
12,-102,25,715,-1200,89
-1,-53,52,-119,-1431,262
-30,-65,19,179,-1628,958
-74,-13,91,305,-1759,1365
8,-8,69,1718,-1701,2007
-9,20,117,2541,-940,2367
46,45,81,2072,-812,3041
-128,113,-117,1043,-823,3079
109,74,-88,1551,-938,3374
-70,27,-66,2565,-1081,2731
-74,34,-65,2820,-1376,2666
-122,-70,-84,-520,535,1079
61,71,102,530,740,81
22,-89,78,2138,27,-405
10,-127,37,901,136,-434
22,79,20,548,398,-459
32,71,36,128,3,-540
73,32,37,241,165,-694
81,29,42,-21,-129,-617
82,7,49,39,-258,-561
85,-9,32,84,-50,-359
83,-8,15,-92,-42,-175
77,-9,11,-64,-232,15
76,12,8,-90,-104,229
88,26,0,34,-109,411
82,58,3,-143,-261,413
82,85,8,-115,-151,330
122,74,-16,3091,4329,-3004
121,-124,111,4433,3668,-2295
80,-70,-87,2570,2970,-3507
-49,30,-51,2969,3013,-4441
28,88,-87,840,2494,-6629
-101,100,85,869,3355,-6909
99,-30,28,1077,2944,-5534
10,77,-118,-112,1816,-4262
60,104,-77,-911,615,-1629
108,38,70,1284,-695,2033
-94,-77,112,729,-804,291
-119,0,-107,1576,-634,-274
-71,-116,13,4535,302,212
57,86,95,4364,31,-448
1,-4,-103,3197,905,-339
-1,-52,24,1343,1717,1563
-58,-54,-96,-1719,-2902,2371
116,15,-1,-4187,-8504,7312
-82,-73,43,-1402,-12874,13248
-55,-117,-126,-5062,-4222,890
5,-63,25,-664,2298,-1730
-8,-24,31,5718,332,-1080
-34,77,41,520,275,-554
-19,-91,-109,647,-560,82
21,-126,85,1245,-1036,672
5,-99,37,-208,-1447,1054
61,-65,20,-239,-1437,1065
32,-46,43,522,-1688,2084
-5,-20,82,1645,-1139,2636
-117,-52,-71,3294,523,3369
85,102,5,1039,-641,3856
121,-126,69,1126,-546,3508
-34,44,122,1510,776,3940
-26,60,-87,1295,1330,3777
45,83,-73,1092,561,3634
-90,-55,-77,-665,-1440,1631
87,-121,-103,-414,-1264,125
65,-44,101,650,-275,-395
73,-116,67,375,-106,-922
10,62,61,581,44,-798
0,-25,8,1084,498,-212
31,11,3,313,97,-113
75,41,2,-438,-53,-277
110,42,17,-268,-212,-235
102,37,31,-183,-393,-451
89,27,30,-90,-220,-323
83,20,20,-107,-144,-305
80,27,18,-137,-171,-193
88,37,16,-19,53,-119
87,56,17,-180,-210,134
65,0,24,2670,2671,-2830
89,-116,-112,2852,2785,-2781
126,-47,-126,3268,4833,-4290
26,-45,-21,4238,3204,-2910
-101,52,-63,3236,2724,-5142
70,-111,112,710,2110,-7240
-91,12,-3,779,2108,-6360
-93,-9,-90,263,1783,-3832
-85,-122,15,-413,525,-1988
-122,79,-59,-1,226,-548
108,-124,82,1741,50,374
18,43,29,1264,-845,-1292
-28,41,15,3083,-171,-869
2,-9,-80,4267,-366,-1208
-122,90,-120,2841,-695,-1060
31,-11,-87,1698,-611,444
10,-106,-32,861,-2127,4075
42,-64,42,-1916,-4353,4141
-107,-101,-88,-1661,-6254,7783
119,-122,-49,-3791,-5503,263
103,-104,117,1910,-299,-402
-90,-30,-71,3922,818,444
-98,-55,-26,982,-1744,1526
-38,81,-125,1302,-1113,1129
-41,-29,107,-1460,-1211,1050
-58,-17,106,-1416,-1631,589
2,39,103,-258,-1490,946
-58,-6,111,1551,-981,2013
-28,52,-122,423,-1189,1978
11,14,111,694,-1416,2637
8,-18,-81,1886,-866,3925
88,59,-118,1535,317,3485
126,111,-92,1017,-707,4089
-69,87,-109,884,326,3458
-90,-113,-42,584,-893,3303
-126,-52,-34,-471,-697,1669
46,-72,-45,-116,-708,317
22,64,-120,894,-604,-450
30,-24,102,297,-439,-1060
106,106,37,-294,370,-973
83,84,26,-83,18,-632
49,70,9,-52,-245,-571
77,63,2,-248,-8,-859
95,49,26,44,-150,-210
94,53,16,220,-56,-236
96,72,19,-87,-42,-148
93,93,31,-404,-298,66
70,-120,36,-449,-323,141
66,-113,35,-114,-46,212
81,-95,27,157,76,349
-98,124,17,2699,3721,-3250
-68,-110,-66,2969,4559,-3534
-40,119,-24,3800,5200,-3255
7,-48,34,4835,4960,-4129
16,-111,-38,2465,1861,-5838
-62,28,98,150,816,-7827
-66,105,43,-527,1436,-7019
-125,103,19,1539,2010,-2780
-30,-98,-13,982,-769,-133
28,13,109,458,-1461,888
93,-102,24,1530,-621,1115
-79,6,-52,1595,-83,-247
-88,114,3,3978,236,-29
-55,52,104,3109,67,-443
60,-36,49,1277,-658,-182
118,116,-104,529,-626,2615
1,-74,6,-2223,-4217,5371
-32,16,120,-2721,-6726,9044
111,-78,29,-3012,-7105,2395
37,66,-119,-1290,78,-518
-85,59,77,4581,-210,210
-77,-86,99,-372,-1140,-667
-39,-24,-8,997,98,-1027
5,-102,101,1489,-995,-462
20,-63,50,-845,-1367,-317
-62,122,54,-433,-1473,252
-77,-90,104,-311,-1610,1079
-24,-114,108,1315,-997,1667
5,-34,96,901,-1204,2383
-4,-14,-124,-428,-1721,2300
115,-55,90,1197,-378,3165
-115,27,116,1002,-1226,3748
106,68,-51,1090,-938,3781
-42,81,-82,2337,-287,3654
-84,-8,-36,-544,-177,2216
100,-107,53,567,-628,1357
69,-98,15,152,578,-294
29,83,-94,142,-104,-278
-17,-44,110,-66,-946,-199
50,-126,65,109,-261,80
114,-119,56,-819,-510,-231
94,96,7,-310,-554,-486
59,84,7,-318,-476,-437
93,84,11,-424,-357,-447
73,112,22,-756,-669,10
34,-103,24,-1097,-939,11
18,-66,30,-963,-751,-93
46,-33,36,-722,-339,3
79,-10,15,-636,-337,58
92,18,14,-638,-458,19
102,88,-77,3454,1762,-2860
-87,96,29,2820,2699,-3609
-18,88,116,2872,3526,-4141
42,116,-84,4294,4016,-4272
19,-61,-94,4324,1754,-4619
48,78,70,1269,149,-6226
95,-48,28,-1223,1133,-6401
6,18,-29,474,1603,-4131
70,18,3,448,947,-2944
-83,118,-76,1404,374,-658
15,49,119,1547,-551,564
-118,92,125,753,-891,614
54,-93,33,3287,-77,867
15,-48,-79,3163,-788,33
43,82,86,3286,-811,-117
-95,33,99,2174,-543,159
-55,-58,-42,669,-160,1652
-16,117,40,-1566,-2862,4013
-97,14,122,-4688,-6113,4708
12,89,-55,-2026,-10575,8260
24,-44,-82,-8371,-992,-999
86,-16,105,2340,-19,-1100
-37,-42,33,3603,404,-283
-20,-20,51,1250,-188,45
-27,-51,-95,-120,-1263,74
36,117,47,266,-1194,-85
56,-127,66,61,-1811,775
11,122,37,-156,-1162,1162
16,-9,80,-250,-1005,1941
77,-48,39,2998,-1238,3162
99,56,75,2561,-386,3841
-97,-104,96,2059,-376,4156
16,106,80,3164,1121,3923
-18,-87,56,737,536,3836
-3,38,60,2331,-4,3952
-8,49,124,1001,-406,3581
-119,-38,-83,-1008,-980,1821
59,-101,-99,334,-784,-87
42,15,-128,528,-119,-667
18,-102,88,93,-40,-800
27,105,44,245,-30,-863
49,69,30,277,-176,-1127
106,13,17,255,-81,-1217
113,-1,21,36,-458,-1175
101,-11,33,-345,-632,-1234
95,-52,41,-230,-421,-964
71,-29,30,-668,-432,-374
77,22,9,-1117,-677,-226
68,53,32,-792,-274,-54
71,71,-19,-168,178,38
-112,45,-74,2956,2451,-3138
-17,77,94,3175,3468,-4081
31,-121,-113,2688,4720,-4499
8,-121,-61,4416,4113,-3937
-118,-112,-72,3381,3568,-5602
-69,-110,85,1210,1279,-8010
-46,23,13,16,929,-7246
68,-71,-100,717,1687,-3577
60,29,22,1082,739,-696
104,-69,121,1308,499,1229
58,74,66,755,-498,92
21,126,3,2639,-97,850
37,-102,-126,3260,-629,209
-39,105,95,1845,-764,53
97,8,-116,2021,-1256,1755
59,2,-36,63,-1853,2331
50,-14,30,-1812,-5455,4433
-72,-91,-116,-3220,-7261,5681
87,106,-64,-7667,-6066,1528
-113,11,-110,2502,-60,-770
-58,-21,81,6205,1880,412
126,60,87,-1212,-1223,43
-59,-49,-40,-691,-1047,125
4,-47,107,-635,-1757,-248
45,106,-12,573,-1906,-1
-16,104,0,-300,-2214,960
-50,120,42,51,-2302,1455
3,-41,85,612,-1562,2058
44,61,105,2036,-1483,2466
84,63,49,1818,-468,2722
-105,-50,70,1762,-772,2927
-96,-101,-85,2426,-1242,3102
-97,-75,-25,63,-640,2502
-79,2,-52,2665,-69,3361
-116,121,-38,352,-678,2474
126,87,-85,691,-209,1812
62,87,-104,360,-395,712
65,44,122,84,91,-153
26,-56,126,489,-156,-253
46,-104,97,640,675,-326
56,-122,75,315,398,-435
78,91,57,120,-434,-648
116,80,47,-219,90,-718
125,67,39,-74,107,-766
120,46,31,-1,-159,-573
126,49,23,-249,-17,-482
120,50,16,-215,-129,-300
126,51,8,-51,-137,-88
-128,81,9,-290,-207,53
123,95,5,-179,-243,96
-89,-68,76,2039,3533,-3962
4,-73,-125,2030,5356,-4415
31,-113,115,3949,4467,-3927
99,-46,120,3235,2948,-4790
-76,68,60,1732,1815,-5745
-85,9,-1,315,1599,-5840
97,-19,-70,-314,1413,-5608
-90,-2,66,-360,979,-3441
-1,-9,-24,-384,836,-1281
-3,-76,-90,-228,-267,1007
-91,-77,-50,48,-248,572
44,44,-44,765,-342,457
-20,48,107,2369,-2,-291
-40,-55,-34,3629,-445,-544
11,102,122,4096,-675,-604
119,25,31,2960,-1683,-476
52,-120,19,1957,-736,2262
66,113,-91,-1289,-3828,3744
112,33,127,-4035,-6449,5529
19,57,70,-2879,-9879,7210
6,-127,76,-4934,-399,-2443
-28,-50,120,5650,1121,-455
-55,-100,-109,1998,-105,463
-97,-81,11,-629,-921,-150
-16,120,-99,-54,-799,361
9,-96,79,74,-1609,60
-7,82,60,507,-1725,150
4,68,37,1204,-739,1007
-4,-108,84,56,-1503,1882
14,-31,76,1281,-1562,2549
1,58,-103,1517,-454,3020
-125,52,116,1782,-385,3175
-110,-103,78,163,-512,3140
-91,102,-107,1698,-882,3433
-14,33,77,2571,44,3513
-85,102,-93,805,-707,3115
-63,-39,-125,2411,-441,3222
-94,75,-49,-248,-1358,2706
120,46,-76,1087,154,1144
45,26,-109,1805,-160,-24
18,-84,-127,1329,-4,-321
14,97,127,224,87,-724
22,46,100,353,62,-563
59,24,86,182,88,-682
69,-9,69,-31,-297,-594
85,-18,69,-185,-225,-442
94,-19,68,-206,-185,-486
80,-28,54,-155,-230,-350
75,-25,39,-239,-222,-138
75,-16,32,-276,-239,84
-116,-75,6,1585,3533,-3976
-103,124,84,1985,3709,-3791
-34,-120,77,1998,4581,-4422
-6,-70,89,2539,3480,-4414
25,-49,65,3023,3343,-4418
69,-5,-16,944,-484,-3381
-30,84,-69,-953,1299,-5945
-120,-94,81,282,1270,-4213
33,68,-16,210,1461,-3797
-75,-121,-74,1030,383,-997
65,27,-110,-255,-268,-366
105,-71,-45,1145,-648,1329
-6,84,-114,1983,-99,421
-109,-100,37,2547,-152,-196
-66,21,107,3736,-657,-111
51,-122,21,2249,-891,388
-95,92,77,153,-1635,2796
-42,-46,-121,-1180,-2777,3494
110,48,-13,-2360,-5362,4659
-72,99,20,-2115,-7721,6169
-107,103,123,-7177,-2835,-176
53,-75,92,3691,-1074,663
-37,21,52,1575,-364,-909
-57,-49,-20,41,-754,169
-18,-72,80,129,-577,-260
46,-60,-109,396,-656,-938
34,119,78,806,-1093,-826
-4,79,36,878,-1135,-131
-39,65,34,839,-1035,987
-82,-76,72,-1030,-1672,1570
-14,-72,-126,1282,-1379,2857
23,1,40,2353,-314,3004
96,108,-121,2305,-1154,3766
-64,121,47,2324,-284,3349
-87,119,-125,1926,-794,3460
-36,-11,77,2683,-98,3427
-50,-37,3,-1506,-1635,3171
-91,77,-61,1923,-103,1235
54,60,-21,1880,-429,926
44,-12,-111,1230,407,-92
14,-98,96,1051,63,-289
26,126,81,-369,-11,-481
43,26,91,152,37,-458
50,-9,95,376,-113,-113
99,19,105,-536,-268,-2
40,44,67,-1137,-487,-238
54,8,44,-117,-63,-315
80,0,30,140,51,-351
77,34,23,-19,-103,-108
71,32,15,-14,-143,-42
-110,-95,28,2091,3913,-4253
-115,-125,107,2945,4828,-4090
-109,-105,126,4578,3658,-3399
-102,50,118,3373,1759,-4686
-14,37,75,1636,1871,-5752
67,-102,-16,1751,1501,-6044
4,-75,-118,775,967,-3978
122,38,20,359,387,-1317
118,107,-58,481,9,-120
-95,-78,-106,1321,158,803
16,16,75,1611,-9,-661
25,-52,13,2150,-813,-501
68,-78,-30,2976,7,-925
75,37,-105,3231,-147,-842
-11,10,-115,1920,245,311
-11,-55,-11,-1286,-1526,3280
110,35,-109,-2619,-3704,4715
100,-15,91,-5607,-6918,6597
87,-121,38,-7392,-10649,7205
25,124,113,463,3923,-4859
56,-83,23,5802,-790,522
109,-68,19,-1135,-1227,587
102,-38,46,-47,-993,31
-20,-43,-53,332,-561,295
32,-23,108,-522,-1437,-117
77,127,11,204,-1303,-35
-8,-89,65,216,-1774,622
21,111,67,1105,-660,1227
-29,7,-115,-313,-1054,2349
26,-4,76,2207,-394,2985
89,91,-119,2025,-338,3664
104,-85,49,-162,-298,3440
-93,-96,-114,1893,-327,4131
45,8,62,4040,929,4019
15,-116,61,245,199,3508
-16,7,-101,1878,-688,3590
-64,99,-85,-35,-516,2488
30,-102,8,33,-824,1104
29,46,-37,935,13,-240
34,-76,-87,577,-11,-131
25,101,107,-782,-341,-639
48,67,103,-479,-200,-700
111,-6,73,505,506,-566
115,4,50,35,-97,-733
112,-20,46,-294,-229,-664
99,-23,40,-537,-516,-506
108,-18,45,25,-243,-263
115,27,43,-353,-281,-410
100,16,63,-247,-578,-106
98,21,65,-124,-44,101
-86,87,-71,2121,3807,-3463
-22,44,101,3810,4677,-3544
-38,91,-44,3000,5326,-3693
-73,121,33,4560,5393,-2821
-101,-2,2,3948,2701,-4395
-57,50,-58,2602,1870,-5809
7,-51,74,1697,1571,-5681
-1,99,-65,-157,709,-4967
109,-112,58,2,391,-1894
73,41,-123,1883,-237,1572
-95,-112,17,1897,-282,202
-1,-28,-122,3274,-880,-335
52,-42,60,4600,-1070,223
-72,78,24,3248,-972,-310
89,-31,101,1845,-983,1777
123,6,-11,51,-712,3078
85,27,51,-1919,-4214,3491
-99,-21,9,-3894,-7746,7482
66,17,-15,-7757,-10567,4837
55,-93,101,-937,401,-2254
-113,-68,79,6766,872,-1237
-124,41,11,-814,-916,118
-93,-27,-125,-109,-162,-192
5,-25,-66,384,-186,-818
89,-120,29,1456,-923,-655
28,-96,2,-99,-2296,-178
-9,65,9,474,-1838,1208
10,105,15,793,-1243,1691
-109,13,81,-174,-1815,2832
26,-49,59,3232,-516,3499
-86,65,-1,2868,91,4304
-82,-53,70,1689,-1050,4527
71,-116,-96,2098,96,4751
83,-44,-107,1928,410,4422
13,-68,-66,2024,-330,3888
-113,25,-80,-1467,-1096,2087
12,-41,-39,-140,-1381,932
22,-8,-91,1007,-125,-629
15,-49,116,-79,594,-1237
37,92,70,515,504,-852
74,54,21,410,74,-969
97,6,54,343,-468,-978
80,20,39,-835,-277,-1080
82,-28,46,-205,-175,-611
90,-28,25,272,12,-580
92,-24,24,79,-23,-324
83,-15,3,19,-112,43
77,10,-1,-100,-229,95
77,46,3,-159,-174,530
87,85,3,-208,-71,467
-109,112,-33,3660,3094,-4165
-61,-125,116,2383,4496,-4795
-35,120,-100,3306,4942,-4749
-2,-76,-63,3080,5089,-4623
4,57,-53,2422,2892,-5543
80,-113,-114,867,2199,-6586
114,-5,11,446,1633,-5446
-37,-108,51,343,1022,-2208
11,87,-56,-315,-14,-592
64,98,-127,92,-658,410
-109,-61,-87,763,-449,752
16,-5,75,1718,-429,-72
-19,-74,-43,3233,-516,170
97,17,92,3814,-751,323
-79,-42,-27,2639,-1916,996
79,-61,-8,1106,-1957,1646
75,-63,-117,-284,-3954,5215
45,53,127,-1749,-4793,3829
-47,96,-80,-2785,-6415,4837
-96,-30,63,-6810,-9480,4308
-73,25,119,-3586,-803,189
-120,-127,95,6827,2329,-2778
-55,99,20,14,-1361,-366
-70,-92,-101,1211,-365,-699
-56,-50,83,55,5,-526
-18,-60,9,1112,-299,-816
12,-125,122,1556,-91,-893
-3,98,71,1534,-191,-217
10,35,-10,1267,-476,502
6,73,-50,-276,-1419,1581
-38,-125,-56,-859,-1565,1911
-39,-76,60,486,-1773,2894
124,-71,14,2925,337,3293
94,-79,-107,-346,-1238,3487
-75,46,102,1889,168,3499
2,67,-112,2374,-290,4464
19,80,-113,1309,464,3886
-16,-113,-120,307,-607,3244
112,7,-55,-1725,-2029,1071
70,66,-73,1161,-650,-183
45,-97,-100,2297,236,-321
27,124,96,699,569,-503
34,83,66,316,-36,-273
52,42,61,442,-46,-272
74,36,42,228,101,-355
65,20,33,119,-276,-325
69,21,46,-209,-251,-169
79,25,42,-307,-192,-140
75,37,39,-450,-232,-71
85,38,27,-185,-169,-122
-118,86,-14,2875,4277,-3985
-62,84,62,3804,5061,-4015
-75,-125,-89,3990,4948,-4096
-121,-55,-59,3347,2889,-3660
-47,71,-88,2843,2180,-5278
33,53,124,1568,2234,-5844
46,-34,78,1413,2027,-5599
21,-116,111,-198,887,-3799
58,8,26,-947,908,-693
115,71,-81,671,432,1055
-82,37,89,133,-401,-10
58,-2,34,1943,-275,-63
-24,-3,-52,2777,-801,-677
54,123,89,4438,-851,-85
117,9,39,3667,-1421,-244
70,-118,31,2859,-1697,2061
-105,82,81,757,-2274,3715
23,-31,-31,-2105,-2978,2617
85,-33,119,-3409,-6906,4999
-68,-1,115,-2357,-6724,7973
112,101,-37,-6319,-8521,4423
-20,-39,-123,2340,1914,-3555
-26,-52,54,4478,-282,-1534
-74,51,-2,-1344,-611,-229
-87,-106,-94,899,-99,1
-56,-37,27,109,137,-379
-24,10,-106,-338,-1010,-684
15,-125,38,710,-988,-483
2,-105,2,292,-1497,-432
-42,76,22,967,-1407,545
-41,-128,37,752,-1016,1308
-54,-37,76,554,-1421,1757
-34,19,-106,1612,-1274,2762
74,7,63,3170,301,2586
61,-99,103,951,-478,3141
-116,58,70,2591,49,3218
-80,73,115,2910,-540,3936
-60,42,-99,2351,692,3135
-8,22,-111,2024,734,3304
-115,65,-72,1349,-605,2280
14,123,-29,-170,-1152,535
20,-73,-80,777,313,-283
23,124,114,547,455,-386
43,85,76,268,106,-463
73,33,42,138,-61,-723
82,7,56,108,-204,-816
91,-25,42,94,-25,-763
88,-29,55,-284,-439,-688
91,-51,52,-229,-243,-624
76,-37,63,-391,-399,-159
-44,-91,96,3419,4455,-4298
-10,-109,-104,2131,5184,-4744
-33,-120,-18,2468,5144,-3924
43,-10,57,3141,5250,-4181
0,-108,54,2584,3062,-6180
97,-76,-93,762,2848,-6855
-108,-41,-37,-450,1983,-5559
9,-50,0,-701,421,-3351
-13,19,70,298,-720,396
63,62,-100,-87,-1419,945
86,-109,-24,290,-582,278
91,-98,95,2601,-18,438
-88,102,-101,3701,-203,-161
67,17,-20,3715,-1037,306
-71,41,-37,2177,-1356,967
-113,46,-128,1569,-1336,3408
-17,-102,-107,-1667,-4679,3555
-59,44,-84,-1440,-6304,3848
-5,31,73,-1281,-8781,5817
59,-89,-47,-6418,-6281,1887
5,-1,-107,2732,1693,-2018
35,-49,56,3235,88,-674
-64,95,0,-451,-1399,-242
-37,-44,-115,-305,111,-124
-24,-62,12,921,-384,-645
-3,-124,-118,607,-641,-422
-8,-89,71,-159,-1364,-758
-42,93,76,958,-741,-45
-36,95,77,1316,-676,616
-64,-82,70,480,-1065,1398
-70,-66,-122,1475,-900,2197
61,-50,81,2069,804,2169
59,17,4,1670,-167,3175
65,109,84,518,-1127,3243
-84,58,107,1790,-516,3324
-78,96,122,1063,-552,3226
-78,25,-64,2216,-525,3373
-48,66,105,1259,636,2630
93,87,-101,1067,-720,2088
27,33,-81,717,-810,790
11,-65,-78,1137,178,45
19,-98,-93,516,277,-214
17,105,-107,218,-113,-432
40,61,107,-116,-45,-487
72,35,84,-228,-43,-646
88,-4,66,245,-2,-587
85,-24,38,196,-83,-473
77,-21,46,-183,-218,-246
69,-6,30,-456,-217,-360
86,17,67,-206,-244,-115
101,-8,-20,550,3535,-4511
-104,-96,92,2486,3492,-3806
-76,-66,-76,2157,4498,-4052
-33,-90,-66,3616,4030,-3805
18,8,-111,2269,2898,-5067
43,42,15,1191,1363,-5096
-8,25,-58,-457,622,-5674
-27,-88,61,-612,1622,-4709
53,-98,-33,-105,893,-2172
-120,18,90,-168,-928,-462
-45,18,-79,216,-716,760
76,-102,-1,1097,143,644
-82,-66,112,2270,8,-81
-104,47,-115,3768,-408,73
58,-70,18,3077,-1961,822
-55,-120,-45,1286,-2529,1633
-124,-75,79,279,-1529,2295
100,-12,-62,-1382,-3660,4884
53,1,37,-2707,-5797,4191
-123,-118,-95,-4600,-10070,5408
-48,34,95,-3090,-244,-1200
-64,74,94,5854,2235,-2742
-65,-52,11,-28,-848,-472
-81,-104,-89,9,-829,79
3,-36,7,-499,-50,-687
17,-73,-118,691,-894,-800
21,-87,73,92,-1858,-516
-5,119,32,748,-1683,-584
-23,-126,87,748,-1038,451
-95,-91,126,-10,-1247,1082
-94,-102,-100,2217,-1441,2227
-1,-18,95,2938,57,2664
-15,72,54,173,44,2628
48,-82,-79,426,-2703,3253
-126,100,-86,1540,-672,2649
99,77,10,1153,-849,3409
-42,-7,-109,2444,33,3228
-100,65,-36,1073,-973,3299
-91,114,-51,1038,-805,2073
90,101,-37,979,-372,486
33,15,-63,235,53,-837
-3,84,-101,1656,160,-342
6,65,89,385,157,-120
24,82,57,-734,-94,-301
63,75,74,-510,-360,-98
89,69,66,192,44,-267
91,73,52,-127,-147,-689
88,25,45,17,-50,-480
88,15,33,0,-117,-345
88,17,35,-7,65,-142
-96,101,26,2523,3180,-3604
46,48,-122,2290,5561,-4112
19,64,-61,2354,5484,-3590
36,-98,25,3705,5078,-3327
21,-11,26,3894,4398,-3941
23,-128,-34,2383,3750,-5657
39,49,111,3089,1949,-5227
-10,127,-51,1654,-504,-3618
-85,93,70,-1982,-501,-3719
121,19,-40,1138,181,1971
-94,-114,-89,391,-347,521
-26,68,75,1439,-1102,-54
-70,-54,-58,3137,-335,-400
24,87,57,4913,-1039,1065
-29,-48,123,3356,-1682,833
110,0,54,-245,-2534,1541
-61,-124,-88,-452,-3767,4355
-42,-92,-86,-5140,-5334,3055
-101,-63,63,-2158,-8338,6762
51,-40,45,-7288,-4529,-350
-27,-92,123,5891,3346,-1314
-122,-44,42,2335,-1246,-34
-101,47,-54,-1347,-443,5
-59,-4,95,253,-44,-219
2,-2,-30,395,-379,-169
33,-8,-125,520,-1224,-358
11,-106,84,808,-1196,-155
24,-113,47,331,-1464,363
-20,-124,46,959,-1583,1092
10,-12,92,138,-788,1259
-25,0,113,1098,-1922,2572
-17,34,-95,2478,-86,3045
-121,26,-2,3176,1127,2400
-118,88,104,1860,-363,3260
-106,9,55,1622,110,3032
-91,12,-115,1444,-387,3539
-104,70,-107,-332,-696,3330
-82,-100,0,-586,-1198,2609
115,66,-59,1242,-74,1238
65,67,-97,-269,-119,0
24,-48,-117,40,-447,-256
37,104,92,70,11,-488
51,87,84,-295,-147,-554
67,39,56,-59,-98,-427
74,4,42,261,-11,-258
80,31,36,-161,-35,-288
81,22,19,-129,-106,-217
86,19,25,-16,-208,-47
82,34,33,1,-107,95
113,47,21,-19,-49,155
76,72,-105,2954,3124,-2965
-86,119,2,2743,3472,-4428
1,-103,101,2193,5774,-4387
-6,-47,-85,3039,4923,-4690
-39,17,-67,3129,3227,-4648
12,96,-125,1631,1917,-5823
8,91,81,882,1592,-5926
-28,-1,-10,318,1509,-5478
-99,-51,121,-267,1154,-3138
-24,4,-56,-353,220,-695
7,48,116,218,-604,934
100,-20,-111,1681,-176,706
-93,42,78,1436,-550,-879
-116,-106,-111,4623,45,-732
-52,43,21,4447,-1366,-377
-120,-102,15,2801,-1408,191
100,-113,-77,246,-2467,1901
-83,64,-99,564,-2207,4697
49,49,-84,-2771,-5116,4253
-53,75,57,-2814,-6727,6161
124,-52,-39,-4014,-12702,5525
88,-88,120,-2132,-243,150
-98,-7,105,5850,2363,-2944
-9,57,48,69,-259,-380
-57,-42,-27,77,59,-82
-20,-50,37,494,73,-336
13,-71,-111,266,-507,-787
39,-81,31,285,-576,-511
-11,113,-32,433,-1604,60
-40,-115,40,632,-1968,1070
-32,-83,54,1039,-769,1351
-8,30,85,1684,-1120,2390
-32,49,90,2345,-1129,2509
79,98,-121,1881,-1162,2974
-86,58,70,3653,1155,3070
122,78,89,2732,-1138,3085
-112,10,-79,2032,35,2898
124,77,-59,1830,451,2861
105,-112,-4,950,63,1446
26,74,-64,418,57,452
28,-20,-88,551,151,-17
36,-97,-126,308,-124,-228
32,53,90,-87,-260,-497
89,20,81,-800,-280,-221
57,0,56,-829,-467,-191
50,-18,30,-140,-162,-353
50,-23,21,16,-112,-76
61,1,18,-235,-333,62
84,39,14,-240,-301,-11
91,47,22,-42,-182,-90
102,-106,-80,3526,2703,-5394
-23,-69,110,3526,5084,-3882
-94,113,-93,3441,3354,-4401
10,19,-124,1687,2931,-6022
63,69,49,911,1779,-6319
-104,-59,-44,-825,1725,-7683
-71,26,-80,-163,2984,-6379
27,63,-90,10,2011,-4301
81,78,31,-1407,860,-1979
66,-45,93,-670,-526,767
-58,123,-117,-45,-712,1239
27,-40,-82,373,-530,236
106,-53,70,1912,-454,-177
-89,59,-96,4013,-408,-463
-42,30,24,3629,-915,-437
104,-54,-40,2894,-1242,1047
-42,-36,-13,392,-2677,2226
96,122,-89,-741,-3235,4042
-16,51,94,-4248,-10172,4642
-61,-119,90,-4517,-8843,2509
-45,-63,21,209,-2206,1120
-84,-61,105,5545,1823,-2466
-33,-120,56,927,-483,-266
-97,121,-4,504,-528,547
-43,-54,111,606,-293,102
-3,-75,-86,537,-245,-274
12,-71,24,377,-1062,-730
-5,-117,22,770,-1677,129
-19,99,7,744,-1369,324
-48,-52,127,241,-2080,1386
-13,-66,123,2290,-927,1937
-31,-7,85,2533,330,2141
55,49,123,3276,-1490,3082
91,34,66,3079,394,2678
83,112,-102,1494,-143,2905
98,67,-82,921,-106,2970
-106,16,-67,1683,570,2716
111,-4,-98,1175,466,2509
96,-2,-60,827,-364,2140
65,0,-77,405,-172,1227
23,-3,-77,4,-497,354
20,-106,-117,332,-72,-168
23,69,-128,233,-262,121
19,45,76,239,-169,-174
43,29,68,139,327,-537
48,22,49,140,50,-453
65,-13,56,415,-26,-206
70,9,47,-107,-100,-530
65,-21,57,-30,-278,-314
41,-12,65,225,-1042,-713
-79,95,-37,3727,3818,-4060
-54,-105,84,3826,4710,-4761
-26,-42,-58,3488,4694,-5284
-58,45,-40,2420,2506,-5955
60,-76,-15,1455,3089,-7211
-82,116,-93,1688,2914,-7155
-35,-16,-19,514,1506,-5023
-72,20,25,-2077,-11,-2721
-118,-47,81,1504,609,1841
-5,-11,115,-685,-845,73
68,-28,-102,973,-645,328
-45,-31,87,2110,-478,-294
-46,-108,-32,3318,-592,-469
29,-65,90,4067,-1255,602
-83,50,-40,3542,-2056,1574
93,6,-37,159,-2671,3057
-30,31,105,-1460,-4690,5016
115,-83,-97,-3491,-6410,4922
-19,-1,-12,-3491,-10092,5559
29,49,86,-4313,-2624,822
40,6,117,3452,1803,-2512
42,111,60,3848,738,-756
-113,-25,127,-730,-1325,314
-48,-80,58,-23,-292,211
-3,-51,-82,552,-1073,28
12,-115,88,935,-470,15
26,-83,26,281,-946,-115
-19,115,75,1498,-1361,1150
4,-99,50,933,-693,1355
-36,11,-119,525,-1642,2325
50,-54,52,2491,25,2117
17,111,-49,308,-1873,3366
-100,69,74,2392,1644,2396
-119,100,85,2833,-787,3386
-76,89,93,1706,-286,2316
99,18,-119,1522,-40,2711
83,32,-39,896,-752,2180
90,13,-91,429,129,1090
73,-37,-80,1487,114,679
55,-86,-113,827,63,68
44,-84,-126,-833,-405,-142
39,106,74,-669,-319,-364
109,44,61,-422,-324,-732
95,21,69,-266,-139,-205
35,24,39,-316,-344,-207
65,11,41,136,-196,-324
91,6,26,23,-61,-121
78,16,34,57,-273,36
88,60,26,-383,-154,-159
80,59,43,-149,-403,106
-61,99,-18,3024,3650,-3788
-3,65,94,4198,5169,-3665
-39,73,-105,5186,3557,-4398
98,-52,-71,3608,2402,-5789
-58,29,-111,683,2699,-7410
-115,103,30,1823,2118,-5370
16,-27,-68,550,1394,-4289
102,73,19,-809,317,-2803
127,42,-100,-2230,-906,-606
27,-86,-41,-434,-470,271
-111,26,-45,283,-869,569
-24,113,-100,743,-1207,-710
-74,74,95,2393,-1329,-779
-67,15,-57,3106,-1715,-1554
-49,67,23,4308,-1555,-601
6,-101,22,1582,-1884,-740
-64,44,88,2529,-991,2198
-14,-56,28,-1414,-4536,2601
-38,-74,-30,-1982,-5377,4880
110,99,-103,-2790,-7378,5379
-69,19,-85,-4385,-3383,717
-96,44,102,3915,1961,-1690
-9,-77,54,1419,-244,-428
-63,-84,-119,228,-436,218
-10,-71,34,631,193,-142
14,-59,-107,1013,-423,-257
25,-107,52,874,-670,147
6,-95,41,208,-1044,400
-35,-75,74,300,-1454,1075
2,-14,95,614,-1230,1450
-8,54,-96,1216,-1497,1868
0,-5,-25,2210,252,1404
104,47,-98,1841,532,2482
46,92,72,544,-652,2801
54,97,-89,459,-977,2432
99,66,-102,235,-866,2774
90,26,-79,1192,-278,2458
-115,12,-117,1006,-380,2279
70,67,-61,-254,-1006,1373
59,-29,-28,900,-315,1268
61,-30,-53,390,-204,687
55,-69,-92,672,-12,204
39,-98,-127,140,-168,-117
65,99,103,18,-121,-233
85,79,76,106,26,-270
81,81,76,-52,-203,-325
109,52,55,168,24,-307
104,60,55,-243,-260,-316
112,41,47,-9,-112,-247
123,36,38,95,-25,-123
-64,-125,-26,3202,3680,-3329
32,75,-94,4097,5184,-4096
36,106,11,3897,6220,-4428
-31,-85,37,4553,3795,-4346
27,35,-35,2692,2676,-5196
-124,4,96,2693,1502,-5720
118,-26,23,1611,758,-5839
12,-68,115,596,-47,-3353
57,-105,44,-8,85,-21
26,-7,-31,-212,-320,397
70,-3,-104,1185,-112,473
-13,9,-9,1589,-1025,-756
-20,-116,-118,3335,-1326,-105
101,-33,28,4036,-1543,229
-89,69,-62,3046,-1587,543
-77,-32,98,330,-2392,3235
-125,11,113,-2420,-4822,4340
38,92,0,-5321,-10779,8169
85,119,47,-5794,-4055,2381
47,51,-105,32,612,-648
89,124,74,5069,-497,164
3,91,-60,-896,-1363,-719
-8,-79,-50,1403,658,185
14,-24,-26,1122,-722,244
19,-66,95,7,-1203,-174
24,-122,47,774,115,-690
-4,96,-2,865,-1196,861
-5,-83,38,-160,-833,1208
-2,-27,53,1046,-1306,1644
33,-89,-50,2404,-22,2089
11,122,124,-426,-2171,3440
119,74,24,2105,418,2318
-127,-116,-79,1095,-546,3004
-91,33,58,2200,545,2174
104,44,-119,456,-96,2746
-109,117,-104,-584,-383,1887
-128,46,-45,1323,-220,1840
89,35,-116,577,-18,919
99,-6,111,139,-553,357
118,-71,-125,-256,-445,329
32,101,64,158,-42,-289
37,79,46,-9,-42,-144
83,68,42,77,4,-130
102,64,53,534,0,-82
126,48,12,712,335,-218
81,70,25,-537,-722,-238
102,43,30,-587,-327,-120
109,30,22,230,29,-176
95,41,24,57,-124,-64
122,29,9,297,32,118
-117,-89,124,2440,3320,-3268
-48,45,90,5210,4382,-3031
-106,72,-110,3809,2840,-3560
-76,80,-98,2583,2369,-3933
-51,105,-124,2549,2348,-3875
-63,-25,65,1922,1740,-4804
18,29,-13,2124,1529,-5079
32,41,-123,657,876,-6370
-1,36,84,-52,420,-4574
41,-74,-16,-420,406,-1380
27,-19,-37,210,-510,894
-87,-88,-25,470,15,413
-6,28,101,1241,-738,-38
-38,-31,-7,3142,-374,-212
-65,-106,57,3177,-1738,-1044
-13,-34,14,4027,-1426,-576
-57,49,-20,3444,-1245,1669
-121,-13,-79,-1316,-3036,3538
-55,-72,74,-847,-4289,5270
18,74,35,-4473,-6831,5143
82,14,41,-4111,-5336,3578
104,101,121,-2924,-712,-1419
27,-122,94,5433,-49,406
-116,86,-2,-349,-527,-295
96,-78,-56,549,-334,474
-56,23,73,-126,122,-128
-39,-56,-33,921,-331,-85
-5,-32,-114,413,-714,-66
0,119,42,1017,-468,-261
-27,-111,55,303,-1344,574
-1,102,21,955,-938,902
-15,-49,69,260,-1584,1579
-9,-8,46,677,-707,1809
50,11,99,1322,-1334,2404
73,67,103,992,-616,2810
111,107,-93,1818,-771,2945
-41,24,-128,2457,130,3013
-71,75,121,1683,-557,2857
124,-3,-54,1530,-451,3463
-91,125,-52,906,101,1740
102,91,17,1192,-26,1563
5,79,-45,-153,-647,271
-28,-33,-48,-4,-1225,250
55,83,-103,70,320,-407
61,77,95,-425,25,-347
91,23,61,-46,-248,-257
93,-5,55,436,67,-164
81,3,49,176,132,-62
90,10,32,20,-117,-63
93,13,42,160,-23,29
-109,-79,-72,2625,3425,-3512
-115,103,67,2997,4070,-3565
68,102,-45,3057,3628,-2797
-116,111,-52,3275,3705,-3339
-61,8,-21,1985,2774,-4256
14,89,127,1107,1568,-4759
88,61,-13,-372,1244,-5060
46,126,84,112,1123,-3426
-94,42,-29,-1544,317,-2758
-29,-49,-77,-1184,-86,-1532
-14,45,-67,-820,-248,46
126,78,-33,-405,-518,593
-10,-72,-65,974,-667,283
-83,74,33,2360,-2124,136
-51,101,-84,3489,-1811,-2362
-75,-47,97,4631,-1902,-1547
-35,31,-29,3143,-1708,223
-36,44,0,1017,-1494,1645
-101,73,116,-1950,-2894,2225
-31,-38,115,-3750,-4888,3816
90,-112,-50,-4136,-8617,3099
-70,2,-98,-2442,-3662,137
-115,-1,-115,5676,991,-1488
-22,-13,65,350,-534,74
-94,-49,62,368,-317,200
-1,-22,-22,1047,635,-40
29,-40,16,1088,-156,-100
58,-40,88,975,-1844,43
79,-111,7,579,-1682,-457
15,92,23,703,-608,-153
-55,64,50,1651,-1364,1368
-39,-107,22,387,-936,1541
-76,-51,-128,1137,-933,2839
66,17,74,2592,-161,3048
90,104,72,1732,-873,3271
-125,114,-107,1305,-785,3338
-60,69,-123,1900,-438,3238
-113,77,-70,891,-505,3047
-87,45,-84,1881,-132,2627
106,0,-107,1444,-18,2210
44,26,-103,601,-575,1654
33,-12,-95,1314,-126,18
50,-110,-93,1118,161,-513
21,76,-104,307,-19,-437
33,25,126,-249,-164,-415
70,22,97,-684,-121,-315
93,22,42,-700,-262,-694
63,-25,44,-21,-429,-540
45,-12,54,-513,-212,-319
70,19,50,-690,-238,-182
113,74,-14,3245,2853,-3071
-72,81,111,2691,4227,-3663
-42,77,-64,3745,4096,-3673
8,-59,-74,2307,3124,-4633
55,9,123,1153,2404,-5102
99,23,-15,98,1576,-5702
50,-57,-94,223,2044,-4681
-92,-96,61,551,1410,-3974
117,-6,-38,1038,749,-2240
-1,80,-86,-307,-113,-1026
-8,69,20,-688,-699,112
73,53,56,912,-181,1510
-56,-93,-42,958,159,290
-97,-80,0,3039,-593,270
20,-120,122,3705,-982,28
73,50,3,3334,-1836,421
-94,16,-65,3667,-2005,1433
70,9,24,807,-1846,1848
-94,-8,-115,-2475,-4647,2163
25,47,-15,-3822,-5842,4161
-74,52,68,-4904,-6983,5165
-17,44,75,-8587,-5087,-425
3,-40,-74,9415,2306,-309
-37,-8,53,1273,535,-826
-110,-39,-97,-1415,-1797,646
-14,-46,70,632,-618,284
-4,-54,-71,844,-1185,317
51,-77,37,581,-1074,-443
2,-122,-9,764,-1343,-242
-40,-107,64,447,-1778,1177
-38,-95,76,530,-1771,1407
16,-19,113,1635,-1592,2256
47,124,-72,111,-2667,2488
53,75,4,1866,-1754,2579
-108,52,110,3394,61,2608
-125,82,106,2697,-340,2481
-87,-20,78,3513,-517,2852
-70,93,-77,749,-495,2343
119,32,-8,1740,-231,1820
98,40,-55,1234,482,1076
21,-28,-73,1041,-390,-345
36,-112,-120,476,-179,-324
29,83,104,-310,-162,-289
20,44,83,90,-283,-425
33,58,59,-563,-236,-516
78,23,39,-434,-278,-521
105,0,35,115,-134,-465
114,20,31,-333,-134,-239
68,31,24,-405,-644,-114
78,26,7,-119,-203,4
-60,46,5,2755,3077,-3763
7,21,35,2867,4280,-4494
61,118,124,1961,5115,-4489
91,-87,-121,2323,4461,-4580
111,93,127,2035,3052,-5609
118,116,48,1927,2574,-5581
70,-23,-12,2497,1701,-5225
-34,107,89,574,639,-4014
78,67,-26,195,236,-2010
123,59,-110,108,-8,312
64,-25,-92,-170,-1309,838
-75,118,125,1747,-894,295
-124,87,-11,3494,-1177,-114
25,-83,-114,3529,-869,63
10,-81,5,5826,-295,3608
3,55,-18,-438,-3479,2772
1,-64,-18,-815,-1793,2938
-21,54,47,-4058,-4022,3240
69,127,24,-2428,-5056,6506
93,31,-67,-5009,-6728,4678
-124,-116,95,-3093,-2079,-1227
-50,-118,91,6259,1155,-1511
-22,39,56,-1859,-1282,969
-6,61,-23,382,24,-101
67,-52,-7,2013,82,-340
28,-93,90,1560,-1820,32
70,-119,8,1060,-1984,-149
-4,91,15,1071,-1773,577
-11,106,20,1177,-511,783
-21,-117,18,1232,-859,1974
8,-32,24,1378,-809,2424
19,-29,59,2440,-227,3146
-127,77,6,1358,242,3066
-74,87,75,2151,-703,3358
-53,67,84,1124,570,2982
-32,-1,72,2306,262,2965
-80,12,81,2117,85,2407
107,53,101,869,-70,1320
24,115,-123,-919,-708,618
36,-74,115,498,21,-551
35,113,83,709,143,-747
17,1,34,738,39,-1022
105,-78,47,196,18,-556
-123,-39,52,-957,-448,-332
17,-48,31,-818,-880,-232
38,-76,44,74,-77,-379
82,-52,36,194,245,102
82,14,19,-235,-355,392
55,46,11,-316,-369,13
55,59,-1,-223,-45,-7
116,98,95,2252,2507,-3754
-42,65,3,3303,3697,-4128
28,37,98,4341,4685,-5051
80,101,104,3198,4313,-5984
-128,-44,50,1709,2846,-6233
-43,24,-61,517,1696,-6489
-112,-32,-105,195,1549,-5844
37,-106,79,631,1143,-4632
93,111,-27,728,717,-2235
-80,-67,-107,-116,-496,46
-18,11,-78,-1537,-1469,118
47,98,-30,785,-385,703
-65,-75,-105,1564,-1014,-24
-12,82,36,3718,-302,97
3,-11,105,4557,-1245,588
34,-2,37,2198,-2170,-384
49,-28,91,2956,-1243,899
-93,90,-60,-2806,-2491,893
-2,-126,115,785,-3572,4533
-14,91,17,-2261,-4304,5511
1,-45,-21,-691,-5482,5819
4,82,-5,-6696,-5249,1870
-41,113,126,609,-379,-168
43,24,60,4445,923,-97
-6,70,-21,23,-348,-70
-29,-59,67,373,-430,389
-3,-34,-61,-243,-525,190
-1,-97,123,554,-979,391
6,-126,25,419,-770,479
-5,121,31,780,-964,1154
6,-69,39,-53,-1096,1435
52,5,33,-90,-923,1662
46,85,66,303,-1327,1487
107,-11,72,2831,-999,1780
101,87,86,1054,-1270,2215
88,22,97,1587,-703,2321
-104,26,86,1378,-803,2526
-93,26,-95,1032,-376,2533
-97,-5,-76,1285,-5,2633
-82,83,-59,1086,-474,1667
112,-4,-94,1853,157,1048
41,-5,-77,298,-463,408
8,-102,-109,177,-461,173
29,-103,126,-793,-453,-160
44,104,96,-673,-411,-324
74,54,70,226,318,-499
91,51,29,93,314,-656
114,7,9,330,52,-638
109,-20,-8,322,54,-494
100,-18,-3,-190,-252,-246
-18,-119,17,2437,4308,-4594
-18,90,116,3108,4272,-4291
7,-91,-126,3237,4421,-4359
32,76,118,3623,2249,-6352
0,-17,-35,2280,1216,-5332
14,-67,115,1113,863,-5324
-62,58,-115,18,1002,-4332
75,-46,-125,240,1537,-2435
-94,102,-9,576,1135,-576
60,11,-98,-658,-530,513
-41,5,65,-87,-899,719
25,-116,49,724,-1104,538
-72,109,-17,2286,-1526,-192
-73,6,-124,4018,-1548,266
5,-41,37,2547,-1856,-542
83,22,75,550,-1815,-261
28,39,101,-577,-1585,369
12,44,120,-806,-4045,4670
-48,0,12,-1935,-6233,5175
1,-64,-66,893,-9404,8288
46,-33,-80,-4672,-3365,2944
-107,14,106,3845,1937,-2304
47,81,48,2347,-447,-1187
-16,9,-99,-742,-172,-254
-5,-34,18,-610,-86,-119
-7,-70,-107,272,-856,-221
-21,120,21,963,-819,-264
-34,116,14,1266,-1343,350
-41,-71,-6,-375,-1115,741
-36,-71,21,742,-930,1509
10,-23,13,1143,-773,2014
71,-53,24,1551,-1530,2499
-18,6,121,1653,-1723,3291
-91,42,116,1803,-429,3192
-22,46,-101,2055,-80,3468
-43,38,-119,1909,-174,3769
-19,-19,-94,2561,-348,3910
29,-109,123,690,52,3357
67,83,-118,-1905,-1401,-447
31,-116,-88,3511,-693,-1231
18,121,112,986,461,-649
14,-113,71,-1556,200,-883
22,32,86,-65,-474,-536
77,63,67,-393,108,-552
62,34,31,-148,217,-797
66,-36,-16,641,279,-677
89,-9,-10,64,-15,-316
99,-10,-34,-65,-260,-168
76,16,-32,-539,-646,-5
103,46,0,-994,-702,107
109,127,-117,3405,3170,-3516
-15,-114,-6,2831,4067,-4612
-64,15,24,2992,3889,-4347
-81,9,26,3310,3534,-4691
-29,-98,7,2010,3400,-4449
-20,-5,-14,1660,2133,-4447
-11,-104,40,-1184,1954,-6329
-10,33,0,-391,2397,-4642
122,-61,77,641,1693,-3244
26,-41,-51,1035,-65,-1123
91,-74,-78,-1502,-1832,-920
-9,78,5,-17,-288,503
58,-89,-78,413,-796,-86
-112,-35,35,2754,-590,-324
-80,-79,-76,3569,-1125,-664
27,55,53,4399,-1895,52
-76,32,-82,3418,-2076,535
-58,83,-84,1845,-1148,1717
-45,84,1,-488,-957,1667
-116,119,65,-2889,-3212,3038
126,68,95,-4123,-7045,4413
112,-24,89,-3697,-9998,5410
70,-26,-86,82,735,-1103
89,46,75,6060,2250,-1760
-122,95,-27,-555,-1319,-846
-103,100,58,979,-277,539
-9,-51,-119,241,-1400,-434
27,-127,4,580,-895,-127
-15,120,18,769,-1822,649
-42,-111,35,101,-2294,1196
-7,-6,53,-230,-835,1178
-48,-46,114,2463,-1070,2364
77,-18,10,2295,-962,2355
56,24,93,1533,-1852,3185
-110,-1,122,2910,-567,3593
-69,70,89,1961,-262,3342
-38,113,-100,1196,-546,3759
-1,65,-43,1920,157,3660
-58,-10,-37,-421,-213,2811
26,-13,-67,-682,-1521,184
1,-11,-81,1909,-490,-1063
11,91,76,1318,1150,-1151
1,108,32,-568,458,-933
15,16,40,237,-231,-482
31,-7,25,126,-156,-210
67,12,30,42,27,-251
107,-5,19,404,70,-196
88,35,20,-208,-352,-286
55,7,28,-89,-311,66
45,38,36,-274,-218,356
-123,52,-69,3210,3119,-3853
-52,90,39,3850,3785,-4484
-74,-98,-87,4661,3693,-4332
-76,-52,-95,3934,2253,-4241
26,58,95,1357,1101,-6662
90,120,44,1458,1375,-5525
57,124,-40,1687,1400,-3522
-120,-85,-123,-2162,511,-3173
0,82,32,-182,617,-102
40,10,-51,-420,-29,105
-15,66,-63,-347,-205,-344
-85,29,-54,837,-138,24
-83,5,-47,810,-433,-145
-86,69,-66,783,-594,-617
-116,23,122,1663,-850,-218
89,-7,41,1905,-1554,-564
-6,-88,-72,3366,-1010,-834
96,-87,22,5855,-235,747
20,-76,42,3744,-1418,977
97,30,69,-717,-2133,2264
-107,-71,21,-3911,-4166,3589
-100,-128,126,-3875,-7330,7043
122,51,127,-1444,-9411,9516
-9,21,101,-3928,-1501,-2230
123,-56,70,7080,2155,-1592
88,42,15,-210,-830,-70
118,-117,-101,1463,115,265
-62,-40,-7,529,952,825
-8,-83,65,1088,-926,490
-3,-107,28,450,-1430,551
35,91,-12,42,-690,529
-4,116,22,320,-864,1630
37,118,-15,539,-1172,2034
74,-58,0,433,-1152,3090
13,77,98,-756,-1602,3319
-51,24,20,1820,340,3289
-44,125,99,1299,-1427,4041
-21,75,103,2215,239,3702
30,122,-84,2066,-378,3520
-29,107,125,1454,562,2557
-123,123,-112,1815,-487,1733
33,70,-117,1199,-626,451
0,-65,-110,819,22,-263
7,-118,121,478,310,-207
33,127,92,-246,-38,-514
66,49,93,85,-413,-620
90,1,75,315,244,-671
88,2,43,-110,-1,-928
112,-49,34,72,-218,-520
105,-48,42,209,-303,-561
89,78,-86,3702,3136,-3138
-122,-118,-5,2996,3781,-3790
-100,-78,71,3600,3561,-4565
-71,-52,111,3337,2821,-4347
-42,8,-123,2326,1746,-5472
28,42,99,764,1707,-6454
45,0,-54,896,1671,-4546
-97,-121,52,-398,556,-2464
-8,18,-106,623,422,385
-30,-111,18,603,-558,100
61,-38,-58,1691,-1193,-206
-63,-72,71,3309,-1411,-528
7,10,-54,3894,-1390,-724
-71,-125,124,3395,-1775,973
-10,-109,-40,31,-2799,2894
41,-2,-66,-2085,-4370,3026
-125,-123,-27,-1900,-5932,5114
-9,92,9,-2581,-8786,6315
35,70,36,-6564,-3781,1060
-66,-80,-117,4089,1210,-1286
-22,-13,57,2562,16,49
-82,104,-25,-407,-586,-185
-44,-4,81,429,-46,-120
18,-39,-101,1247,-132,-619
32,-104,9,793,-1004,-415
6,120,-35,682,-2115,243
-20,-122,-6,-22,-1757,911
-75,-81,22,-262,-1370,1193
-50,-18,66,1158,-1565,2478
25,35,56,2487,-1285,2709
16,78,126,1825,-841,3211
126,-87,-99,2069,-1062,3625
-40,60,112,3803,863,3109
127,-93,-76,850,-1075,3360
-91,77,-97,855,193,2319
127,-89,-99,-237,-412,1590
89,49,-101,1600,-170,383
30,-27,120,988,96,-188
67,-121,83,414,327,-191
80,98,66,-49,-92,-188
42,78,63,-346,-459,-138
33,33,27,-45,-24,-413
66,-8,3,511,177,-432
97,2,2,379,-90,-161
97,3,7,429,-172,-183
79,7,10,118,-197,-137
80,7,59,207,-199,278
70,44,38,-88,-51,248
78,79,32,-429,-464,247
85,92,36,-527,-413,311
123,-9,120,2155,3745,-3426
-107,33,-57,2936,3623,-2940
-62,109,53,3611,3923,-3985
-64,-96,78,3480,3333,-3814
-74,-2,113,3314,2737,-4085
-86,18,52,2443,743,-4740
-17,32,29,1040,855,-5376
-75,-100,-58,877,813,-5025
97,-93,104,1435,579,-2155
-90,-83,-67,1759,-112,1014
32,26,-126,951,-472,1214
-125,-116,28,1549,-570,497
-13,-121,-108,2354,-1452,349
77,30,52,3114,-1681,179
126,-58,22,2629,-2006,678
-40,83,20,2084,-2121,1776
42,50,102,-792,-1160,3015
-107,-53,70,-2752,-4749,3701
-121,18,28,-3043,-6498,4843
-65,-7,38,-1968,-7916,5080
62,91,91,-4041,-2423,-318
52,-125,96,4267,470,-464
-69,114,38,1502,276,-775
116,2,-71,183,-203,-22
-75,-32,-13,376,-190,-186
-16,-79,108,674,-269,-326
3,122,19,1136,-1083,-203
-23,110,-3,108,-1270,374
-72,-105,49,-177,-1314,708
-43,124,32,1172,-203,1258
-5,-35,63,1468,-1020,2766
-19,-9,54,1545,-67,2451
66,49,123,1211,-1055,3790
-110,81,47,669,92,3619
106,100,-122,1824,-747,3878
-64,47,-106,1946,163,3680
-39,-103,-124,-114,17,2852
-84,89,-87,1287,-467,2224
74,99,-79,-67,-330,749
42,-7,-68,1121,-106,428
34,-99,112,813,189,29
35,-119,77,-484,-284,-241
76,53,50,324,-19,-213
59,34,53,364,-164,-146
59,34,42,104,-86,-194
85,31,51,-108,-390,-295
85,8,65,149,-11,-286
97,10,55,213,-3,-198
91,11,44,50,-186,-54
96,13,29,-26,-104,113
120,123,-94,2670,3307,-3950
-33,75,95,2761,5426,-4214
-61,53,-86,4085,4775,-3727
-74,-116,-33,3471,3773,-4064
-67,-50,-68,3562,2245,-3925
-35,-1,110,2064,1337,-4147
-46,26,7,-10,-314,-5304
-26,-128,-88,-173,421,-4108
111,101,-2,888,911,-1306
-68,-1,-58,-772,-712,236
-6,101,-25,-773,-490,397
24,-80,72,1364,-1020,872
-74,74,-73,1765,-1783,-755
-63,2,41,3573,-1966,-1077
41,30,16,4131,-1811,71
-61,-43,73,1180,-3343,963
72,-28,104,-98,-2225,3137
-95,84,-73,-1115,-3417,3010
-121,-99,-5,436,-3947,4338
74,124,30,-4153,-5753,4755
-44,-124,95,-4970,-4502,1840
107,86,41,1614,-876,1207
89,-49,86,579,-1174,-471
51,67,48,1383,187,-971
-13,5,-71,102,19,-407
-16,-34,-22,527,455,-803
24,-71,-121,1226,50,-735
22,-102,34,1620,-153,-371
5,88,9,1144,-2369,1075
2,104,-41,-266,-1591,867
0,28,3,-1674,-1744,1474
-8,-85,82,1902,-1904,1839
103,42,22,1062,-794,2078
15,-106,-107,12,-2284,2836
-92,53,73,2363,-247,2239
120,-107,-120,946,-1802,2911
-106,44,-76,2008,-216,2149
-55,33,-124,2159,12,2390
-98,20,-89,1552,157,2088
121,16,-95,1689,601,1203
95,-1,-88,1134,133,1103
35,16,-112,-259,-459,364
22,-93,95,449,-342,-262
48,113,79,351,-256,-476
92,50,36,191,101,-661
109,20,20,451,77,-702
108,-8,8,547,-152,-695
106,-32,9,266,-152,-610
110,-50,15,134,-209,-315
93,-49,12,-21,-303,14
-80,-108,-65,2414,3543,-4055
-22,85,56,3458,4825,-4775
-100,65,107,4708,4001,-3482
-39,-127,124,4398,3798,-3820
-80,-37,125,3292,1489,-4353
-17,55,71,2516,406,-5147
6,0,-1,1270,44,-5556
-35,-45,101,53,-320,-3415
53,48,-66,556,-277,-567
-124,16,105,229,-699,87
-88,93,68,233,-721,11
12,-122,-18,2028,-951,281
-9,101,74,3006,-1045,-110
89,-31,-29,2944,-1760,-158
-70,112,-66,2234,-1828,1435
-88,-121,26,1575,-624,2905
33,-109,-92,-4252,-5824,2857
88,-8,55,-2321,-7339,4934
56,21,-126,-4491,-9798,4861
-99,37,96,-4652,-2676,826
-71,85,108,5403,3586,-2989
-43,-102,31,2813,-609,-456
127,-29,110,-877,-111,622
-61,13,6,-714,-1012,-373
-5,-55,-78,673,-499,-51
0,-40,49,249,-1031,-712
-8,-122,46,1397,-576,-52
-77,118,71,1690,-841,993
-76,-75,42,663,-163,1164
-55,-37,57,752,-891,2422
-5,13,8,1602,-686,2550
33,27,76,2242,-760,3317
105,100,51,934,-413,3321
-83,59,67,2683,226,3322
-75,37,106,2218,-503,3731
-66,100,-122,1014,59,2768
-90,6,-51,1659,-171,2924
-114,67,-128,-445,161,1830
48,84,-100,-851,-1229,1321
43,-3,123,37,-234,-113
34,-45,-115,712,-31,-803
37,80,97,936,218,-920
44,26,73,-96,-114,-637
57,-5,48,-146,-223,-293
84,8,33,-641,-259,-443
88,-11,16,-283,-217,-382
77,-8,6,-377,-255,-177
72,18,-5,-344,-204,-111
80,27,-10,-164,-288,174
77,56,-10,-217,-298,56
-112,-107,-57,3047,3158,-3951
-121,74,6,2929,3392,-4043
-112,92,45,2796,3705,-4397
-99,-119,67,3403,2727,-4168
-82,8,78,2196,2014,-4819
-20,68,19,1027,1185,-5942
13,61,7,567,1443,-5993
8,90,-84,1116,1342,-4128
94,-25,-30,-545,131,-1687
-99,-67,-116,223,-33,1365
10,-121,115,604,-83,986
-9,90,46,991,-858,-143
-75,33,-20,2523,-792,-922
-59,122,-113,3408,-1235,-335
87,-51,24,3676,-1194,-342
-34,-114,-36,2444,-1668,900
-71,-71,91,-516,-2339,1774
83,121,-52,-1417,-4925,3669
2,108,105,-3794,-7138,8414
30,34,35,-3358,-12627,9364
-27,6,-128,-4565,-412,-1001
-5,-20,88,7594,4077,-3657
-71,-30,-37,1087,-721,-489
122,-22,98,-1099,-858,145
-73,-68,74,492,156,-5
-24,-18,-71,330,183,-508
-4,-74,75,877,-47,-565
-6,-101,40,428,-603,-301
-16,-124,41,499,-726,385
-27,-90,49,294,-1460,1104
-20,-49,54,188,-836,1497
-33,-7,101,544,-1262,2478
15,-5,50,2103,-657,2480
85,86,124,1473,-875,3363
107,84,78,1717,98,3049
-112,116,-128,1582,-715,3452
-71,33,-97,2367,-91,3096
-106,4,-107,1215,269,3426
-56,17,-86,1482,38,2922
-113,32,-123,553,-164,2020
59,70,-66,-477,-1302,1081
37,-58,-74,644,-516,290
41,-122,-109,532,-240,-123
24,83,106,-466,-266,-650
42,11,80,-58,136,-574
54,-4,56,109,140,-614
85,-28,34,299,72,-529
88,-21,27,25,-149,-400
88,-23,27,-107,-233,-409
84,-26,44,-59,-221,-186
-110,90,-101,3150,3067,-3666
-72,25,29,4878,4561,-3839
111,117,76,3544,2730,-4438
-106,-95,103,2195,2767,-5161
-68,-89,124,2808,2568,-5037
-10,-5,113,1090,1527,-6149
67,-94,67,1792,2113,-4750
4,-19,-101,2085,1600,-3127
56,55,6,360,-469,-908
100,-85,-99,405,-26,540
48,58,-16,2108,-757,681
-45,-85,-95,2290,-1210,-677
45,96,15,3986,-1489,-277
-65,-36,-21,2895,-2152,-314
86,99,3,1841,-2598,2565
109,38,-124,-1306,-3596,3946
67,87,28,-5288,-5516,1931
54,-39,-54,-1794,-6684,6681
74,10,-67,-4226,-10927,7881
91,-3,99,-2152,2792,-4449
88,-28,77,8157,1508,-4220
-109,-27,-31,-612,-1039,-160
-127,-84,70,-407,-1332,106
-100,-61,40,241,-656,-359
32,-77,98,992,434,-1358
-27,121,21,1286,-1433,-426
-38,84,15,157,-2073,658
-69,8,6,568,-2134,1704
-42,77,24,606,-1252,2559
-27,-39,82,99,-2154,3239
124,26,59,2321,-777,3612
-119,11,-101,560,-1890,3202
-25,84,108,3609,30,2994
15,-114,-118,3287,-266,3696
2,76,78,3010,227,3365
-51,126,-116,2257,-530,3381
123,-75,-118,1064,-599,1502
52,106,-95,2171,-3,593
-7,78,-87,1599,-512,-113
-28,-40,-107,615,-89,-828
0,-123,127,163,-152,-1109
77,-31,93,753,448,-1319
96,-59,92,262,83,-971
87,-85,73,-154,-197,-679
94,-69,77,-756,-419,-527
88,-88,73,-371,-224,-82
72,-54,55,-557,-386,137
68,-30,53,-457,-354,416
80,-3,45,-267,-194,495
64,30,42,-171,-271,512
-116,-116,-39,3875,3778,-3876
-65,-125,93,3292,4676,-4473
-35,-119,-38,3877,5639,-4503
-71,-56,-25,3889,4128,-4213
-52,-117,-57,2522,1944,-5645
70,124,-84,1531,1750,-6516
-106,-41,89,1659,1572,-5221
33,122,-90,293,605,-2406
15,-125,-21,-729,-117,506
-50,-70,14,746,-417,1803
14,-87,-78,1503,-1561,609
-27,0,104,2750,-1365,-695
19,-117,4,4462,-2110,107
-98,43,2,2533,-2105,-394
55,-22,71,849,-2867,1662
120,98,17,-1787,-2480,744
-61,20,-58,-2274,-6475,4022
-28,-118,110,-2155,-6507,6064
92,-49,-36,-3771,-8439,5189
-98,110,127,-251,718,-1640
7,-66,81,5165,416,-1822
-30,-89,-30,610,-1149,55
-50,-90,62,108,-686,-172
-12,-58,-85,-107,-1122,-441
29,115,82,1477,-943,-107
-10,-108,35,185,-913,-11
-42,-88,72,1328,-1555,1160
-14,-42,53,1082,-548,1905
-73,32,96,1292,-364,2344
76,10,46,3121,452,2335
68,-123,-124,1101,318,3486
64,-121,106,1456,-301,2965
4,-109,28,-390,-1472,3184
127,2,-68,880,551,3107
-75,44,-126,721,-325,2758
123,109,-105,-1252,-1649,1616
89,-15,-68,655,-510,1007
58,-30,125,811,60,349
36,-55,92,-32,-395,-155
47,113,92,955,187,20
64,115,49,735,169,-67
56,105,71,249,-429,-361
76,61,71,420,128,-307
108,75,61,-369,-87,-437
91,40,49,-88,-297,-343
99,28,50,-31,119,-326
113,30,27,58,24,-149
117,31,14,-79,-175,111
115,63,20,-278,-264,97
124,70,19,169,44,23
-70,111,-67,2404,3477,-2825
-17,47,70,3791,4880,-4380
-49,115,-68,4477,6061,-3409
-96,-82,12,4632,4799,-3689
121,17,27,4103,1724,-3967
-18,96,-31,2334,1262,-6080
6,-89,127,1040,1060,-5307
-55,-38,-50,639,755,-3513
-62,24,-100,569,-63,-67
53,87,-8,1376,-596,198
48,114,109,3099,-1733,745
-11,4,58,2047,-2266,-1255
29,73,48,3983,-1576,743
-104,101,-10,2115,-1517,172
-58,-60,22,334,-2334,3309
93,77,-38,-2539,-4993,3010
80,-33,-72,-1313,-5620,7059
107,-52,4,-3196,-8971,4939
46,-1,85,-1143,-238,-1870
81,-56,41,4284,1045,-1183
-38,12,96,145,-771,-270
-24,-63,-49,479,-1844,620
7,-62,104,252,-2102,204
46,-52,69,375,-2401,618
12,-75,84,629,-2190,1131
-2,-87,47,930,-361,1177
-21,88,114,-139,-3265,3329
49,0,14,2854,-496,2363
34,-105,-63,1391,-549,3788
-74,-40,111,2070,-203,3305
-93,-26,-56,1694,-674,3146
-62,-84,-5,1852,547,2611
-81,-86,-102,1882,613,1750
74,122,121,767,-463,914
49,-36,93,382,-535,468
28,-90,100,258,-237,325
9,-102,77,-365,-84,233
41,-109,59,-598,-484,-153
49,70,34,364,-194,-408
79,1,48,1038,750,-59
-114,88,4,393,555,95
100,71,23,488,-407,-337
100,76,40,-364,-72,-259
84,33,45,73,-247,176
92,85,45,-542,-446,136
109,83,21,-240,-21,-181
98,87,-1,-60,-92,-312
-111,40,-47,636,331,-171
91,75,-4,-254,-706,230
126,75,-27,218,132,115
111,57,123,2220,3127,-3607
-99,41,-76,2290,4532,-4061
122,43,27,3535,4285,-2788
94,88,120,3123,3610,-2989
103,124,-97,3792,3495,-2938
109,21,-93,3390,2063,-4129
-122,37,116,2522,444,-4708
-36,111,6,471,337,-6810
-16,86,-101,-162,1002,-5155
57,-9,42,-276,289,-957
-88,-2,75,180,-276,440
124,-115,-32,1401,-1144,1430
-67,-74,107,2495,-1521,398
-93,79,-12,3370,-1633,-630
116,-117,-117,3353,-1813,1507
-124,-113,-76,-412,-3426,2174
-30,-89,82,1177,-4771,6448
44,42,42,-4030,-6705,3065
-123,30,-63,-3468,-8678,5938
-42,-61,49,-5107,-1893,3011
119,-12,72,3571,690,-3404
106,-117,60,1680,-911,-915
-8,-39,-46,-952,-702,148
32,-31,87,554,-11,-292
20,-28,-125,323,-604,-484
13,-60,27,388,-2276,-676
-62,42,45,1777,-2371,653
-7,-89,-6,11,-1921,901
-59,57,76,-447,-2220,1252
-32,-10,88,2037,-1723,2118
23,75,111,1593,-777,3167
109,-97,-106,1686,-1338,3264
-48,120,-120,2293,-586,3250
-45,-103,-97,2637,-823,2956
35,72,126,3584,260,2685
-19,45,57,2889,56,1999
107,82,-64,707,-1754,616
31,-94,-86,1387,-171,366
12,-67,-126,507,523,583
15,-72,75,25,226,157
42,-116,61,-35,-343,-36
61,115,34,249,-105,-589
88,127,19,-662,116,-1144
110,14,10,297,-14,-1301
102,-14,3,390,-36,-1059
97,-24,12,-43,-89,-765
83,-45,21,-180,-403,-292
61,-42,9,-313,-242,18
76,20,14,-818,-303,207
74,58,25,-704,-467,672
119,-91,114,2219,2900,-3803
-66,23,-8,3516,4538,-4498
-30,46,58,3266,5906,-3705
-90,35,121,3885,4585,-4062
-54,-102,-104,3792,4062,-3910
-26,50,-82,3549,3191,-5609
-6,40,120,2309,1011,-5967
-7,-22,50,1972,673,-5401
-96,-53,-113,384,-53,-3824
27,-23,0,-806,-426,-492
115,-22,125,1336,336,1756
66,-17,-56,943,-1247,437
-27,-65,97,2702,-1243,-183
-3,114,45,3354,-1296,-156
-94,-73,-30,2768,-1816,532
84,-114,23,1564,-2208,1705
-78,-96,-41,-2803,-2540,-67
80,41,62,-1202,-7214,4686
-48,-50,0,-806,-7932,4727
-60,102,95,-1984,-10661,5481
2,-64,120,-913,536,-1274
98,-6,77,5037,857,-1594
-86,-43,-17,995,-61,-156
-79,1,121,-647,-280,133
-55,-102,-30,987,-47,167
-41,-86,76,707,-878,203
-18,-117,6,317,-998,331
4,-109,-3,-39,-112,-706
31,-49,60,205,-358,422
-8,-1,90,649,-1844,2162
-30,26,111,1275,-1381,2797
37,97,-101,1086,-1381,2850
78,99,102,2364,-1301,3810
61,-96,-43,1614,-1380,3151
-50,40,86,2767,734,2700
114,-120,-97,837,-1065,2864
-123,70,-110,1439,-490,2361
92,17,-79,1292,-394,1482
51,12,-79,1537,-95,927
31,-35,-106,1020,128,289
14,-96,-114,665,90,243
35,97,104,225,152,-199
32,90,91,-483,-297,-387
57,42,74,66,-108,-381
83,15,59,424,89,-622
85,14,41,-82,-73,-529
91,-13,34,-37,-235,-577
87,-25,33,125,-123,-294
95,-17,26,-48,-23,-2
90,-6,21,-136,-365,116
67,84,109,2529,2391,-4088
-108,84,-55,2345,4946,-4678
-87,66,14,2848,5131,-3621
127,86,121,3792,4495,-3812
-115,-51,-91,3806,4093,-4184
119,-16,-78,4492,2739,-4366
-107,39,-116,3121,598,-4792
-60,-103,82,1550,-366,-4831
-75,-88,-34,-286,-107,-2878
24,-25,-11,229,556,707
31,-108,94,843,-526,721
-22,-17,101,1954,-1098,-264
-39,-79,-50,3704,-1553,-318
-79,12,-127,3837,-2167,78
-107,-123,-68,2352,-2561,1083
12,-64,54,882,-2691,2813
-74,6,-24,-2206,-5317,3778
16,-86,127,-2759,-4564,3735
46,115,22,-5224,-8998,6440
-52,-102,81,-9844,-2637,-3022
12,34,-64,9270,3576,-1202
-124,-126,-39,1583,-639,696
110,112,76,-5,-1879,532
-30,-80,-14,-90,-689,724
25,-40,-125,903,-1151,86
24,-82,57,1573,-1926,343
24,117,-17,1428,-1141,404
-41,-48,47,-402,-798,666
-28,-112,77,1539,-1677,2626
15,0,60,1933,-758,3067
81,56,64,2044,170,3451
-84,-113,54,1510,-1576,4211
-105,-125,-126,2264,-769,4126
-22,-66,-64,814,-849,4032
8,-91,-69,1632,-671,3218
-90,-113,-57,1082,-737,2131
112,117,-88,523,-437,1303
40,16,-119,1424,-179,21
22,-41,121,630,115,-574
4,122,108,460,-175,-507
2,72,97,55,-76,-394
36,44,76,81,30,-407
53,34,59,1,-99,-429
66,24,53,-247,-265,-333
71,12,43,55,-25,-384
81,4,32,39,-49,-461
76,8,29,-232,-145,-254
72,1,24,-23,-191,59
71,26,20,-209,-156,120
73,49,7,-76,-190,183
64,49,91,2607,2591,-3838
94,58,-118,2811,3836,-4425
-109,87,-29,2267,4578,-4888
-90,-101,63,1362,4440,-3898
-52,99,84,-46,3122,-5852
-70,-61,107,2611,1967,-5463
-13,118,100,1758,3473,-4813
99,-74,25,1320,1182,-4277
-6,69,74,-826,-1850,-3364
27,-71,-58,-1367,-394,-368
84,20,99,1266,427,1496
57,-85,-7,1656,-284,751
-1,-111,83,4122,-975,844
66,96,-13,4014,-1919,2
114,-93,-127,4473,-2377,1844
-63,18,-15,921,-2310,936
36,-22,110,707,-3026,3706
61,70,-23,-1276,-3995,3251
39,-120,65,-1567,-6376,6919
85,-113,-47,-3822,-8393,8669
93,1,-52,-4336,-1025,-780
-117,1,104,5392,-455,-1734
-18,22,50,706,-642,-310
-69,-1,-51,-692,-426,210
-60,-35,81,617,-247,-45
11,-36,74,70,558,-1029
-9,-91,7,612,-866,-634
10,41,-45,1959,-1336,-90
0,121,-60,39,-1618,1326
-25,-82,-27,-70,-1510,1858
6,-126,36,-752,-2750,2260
31,-64,81,4048,-1182,2249
49,66,123,1778,-347,2410
-121,91,-111,883,-767,3435
-40,-40,-104,3629,-76,3631
4,47,-107,3218,245,3952
56,-109,109,1802,194,3385
-126,-54,-114,400,-1233,1287
52,-124,-92,293,-540,-178
39,111,-121,2328,863,-738
8,91,83,1283,656,-378
13,64,66,182,70,-476
33,-13,74,300,-311,-374
58,-31,68,152,100,-400
57,-44,75,222,-322,-375
64,-34,69,-86,-146,-64
76,-46,71,285,-279,-111
61,-35,68,286,-188,167
79,-5,58,46,4,56
71,-7,57,266,-407,61
