AccX,AccY,AccZ,GyroX,GyroY,GyroZ
-58,117,84,5800,2157,-3652
-89,124,3,5206,4737,-6103
-3,-59,5,1849,-1083,-6648
-34,81,-51,5772,2098,-7047
-14,59,126,11158,6205,-5999
-81,-68,43,-4954,12373,-1710
-26,119,56,-12618,-6859,19417
27,54,-106,-11136,-16641,-508
-41,63,-46,4432,-8416,-2941
-49,-18,87,-2307,16376,-3224
30,-118,105,-19342,-10283,15311
-115,-13,-67,10867,-5108,-5842
-21,-95,40,7944,7570,-12684
73,115,-77,7347,1450,-18341
-87,82,96,4583,-1126,-11169
-4,-42,116,12183,-1374,-6645
-71,66,44,-8117,16526,-2408
34,101,22,-946,14718,-6214
-26,-107,-46,-14460,-3053,13560
126,39,66,-6141,-8111,13826
-15,65,-122,832,-4175,4891
23,-70,-63,-1974,-416,1534
111,96,71,-4981,884,337
83,36,89,-1988,-1023,-330
107,73,-6,-1673,26,102
31,41,-46,-1313,782,384
-70,108,69,-2080,2491,1112
89,-91,122,-2828,4048,1382
-114,103,118,-4114,5160,2634
-51,88,-48,-5993,4013,3854
56,112,33,-2341,1864,3808
-123,-76,-100,-2707,2390,3316
-42,-86,-51,-3131,1591,2002
-81,-109,79,-1844,-469,1557
-18,42,-123,1777,-342,1896
-37,-80,-90,4357,-527,2544
-43,110,122,3317,221,1459
-54,126,-124,-117,830,652
-77,88,118,-2062,715,-156
-108,64,107,-1585,-45,-203
-105,55,111,-720,-130,-69
-101,59,116,-114,-94,-164
-112,71,110,99,-77,-47
-109,76,108,207,66,-13
-111,41,109,1026,-63,-152
-97,25,113,1007,-201,-158
-91,24,111,734,-122,-57
-80,38,107,214,185,8
-92,32,98,35,130,-233
-97,39,94,-188,160,42
-89,27,113,2140,1727,-4568
-87,-12,73,3784,1103,-4639
-89,-11,-6,5276,2747,-4394
-10,91,-92,9156,5033,-4583
-43,-54,-104,6656,6821,-3271
72,79,56,1972,8189,2828
37,121,-85,-7249,387,11395
24,45,52,-7672,-9328,6290
-108,101,-98,-4130,-7670,-751
38,-120,-104,-1227,-2738,-6450
-18,-119,-14,-1701,408,-7025
-110,120,73,1892,1518,-6986
36,-85,94,-1399,4721,-5662
-109,-33,44,2695,6421,-4720
60,-91,119,9266,4724,-4105
25,124,28,4291,10842,500
82,-71,97,-5828,11989,-299
104,105,51,-717,-2277,11605
-78,-102,123,-1432,-608,13081
-20,-52,59,-1273,-7489,7890
82,105,-82,-2648,-915,1668
-107,110,64,525,-430,1329
57,-91,-69,-4618,1367,497
-94,-35,109,-2964,3932,512
78,-88,-28,-7997,4995,2609
9,89,-125,-6339,8025,3666
-27,69,-13,-9667,4094,6965
35,118,-88,-6840,-38,6294
-19,-123,76,-766,755,2619
43,55,-56,2261,585,2847
-4,29,-108,1241,-539,1781
-19,113,114,2430,-206,961
30,124,87,1473,-885,1610
-51,15,59,1549,-913,-86
-99,-48,80,-915,-144,-1400
-123,118,120,-1202,6,-745
-113,43,119,279,284,-166
-90,66,85,582,253,-147
-73,-54,41,-3050,486,-593
-101,-84,15,-1932,-389,69
-91,-70,39,-262,-363,297
-77,-27,56,-384,-20,-104
-76,-36,67,141,198,-206
-89,-47,67,202,-127,53
-76,-36,71,243,-71,62
-78,-74,71,1094,84,-102
-77,-75,44,887,137,152
-69,-70,23,321,184,109
-80,-76,29,211,26,162
-72,-98,41,646,35,320
-41,-118,69,-2793,877,-4635
1,29,103,-84,1170,-6029
-65,96,67,1348,370,-5910
95,-20,50,2605,2850,-4725
23,-44,5,10339,3262,-4103
-125,-55,97,5416,5344,-5840
-67,22,63,3903,9669,-3124
-98,79,-114,-2423,5091,8819
70,0,-119,-12515,-6226,13204
56,32,-13,-2944,-7893,-969
97,109,-105,-938,-4150,-4716
-95,-120,29,-2191,465,-5663
-114,66,-27,1160,1676,-5558
24,23,-62,-2102,3835,-3175
86,52,-94,243,4807,-1558
23,-6,-48,-317,5474,2516
29,110,-90,6115,5136,2762
49,-50,-119,1905,12323,-2371
114,-72,-27,1580,-3159,18799
-32,-35,94,-2651,-5743,11253
92,-67,32,7185,-6437,3527
-31,106,-34,-5056,-1345,5326
51,-125,45,-2504,-1371,1739
-84,-31,-91,-2490,-379,28
66,75,77,-4144,2268,1293
-26,14,-128,-5216,3764,278
109,41,-15,-6488,3661,2569
-28,-80,26,-4773,4827,5672
-20,-95,-34,-3083,9320,6914
34,11,-67,-4096,2729,8892
88,-41,-115,200,2549,202
0,-68,25,-1128,3157,3457
121,-115,27,-9,-577,1439
-3,-58,36,3715,-2486,-176
-36,-60,97,2151,-2824,-159
14,-82,94,-155,-886,-926
-45,-120,118,-772,-132,-462
-92,67,118,747,344,-209
-87,71,98,1213,862,-219
-56,95,96,586,663,-478
-65,107,124,8,-347,-555
-69,81,-88,-326,-893,-801
-59,126,-83,-2074,-338,-555
-37,125,-107,-1796,452,55
-53,119,114,-503,104,440
-65,-120,88,363,-304,464
-45,-96,67,110,-71,179
-28,-80,53,-344,212,-93
-63,-70,58,-510,6,27
-69,-64,70,-441,-53,40
-41,106,64,4942,1421,-5251
-112,-59,126,7857,5284,-8809
58,-117,68,7984,4767,-8908
33,65,21,1635,7282,-5432
11,-97,-11,-6764,1542,18224
37,-109,100,-10043,-7922,12681
-111,2,44,-8025,-7700,593
66,-63,-77,-1277,-1366,-5871
-107,82,40,225,1732,-7697
-116,-3,-78,-933,3600,-8831
-69,127,70,-3921,7495,-7094
-5,121,-23,7242,8031,-7706
46,1,-89,-3348,16218,-6508
-117,112,21,-1891,10096,12278
-56,109,44,-8300,-5778,13491
20,54,-9,2991,-11149,13574
37,76,48,-2439,-4000,3540
98,-86,116,-2922,-578,1488
49,-80,93,-1580,1264,14
-119,-87,86,-4052,1340,481
-15,7,116,-3376,2939,2000
-7,-68,-38,-4996,4670,4963
2,22,93,-2601,4749,4693
-98,-99,-8,-1153,7922,5017
79,40,103,-4702,6452,5895
63,62,80,-228,1482,3295
62,-105,69,-509,-974,3902
-91,10,80,884,521,2826
-97,-7,108,625,569,1569
-1,25,73,965,-241,165
-124,-87,97,2806,-1149,-1537
-89,15,-42,3245,-1205,-1901
-40,-11,-33,950,-36,-1483
113,-22,-5,-745,-106,-68
94,-11,-42,-1358,169,1138
-128,24,-70,-1490,-80,1586
-84,67,-105,-1320,-189,1084
-96,97,121,-997,-35,-242
-85,65,104,126,331,-1162
-79,29,111,940,261,-929
-88,25,114,657,-17,-604
-97,28,105,308,-142,-528
-87,28,90,248,264,-99
-67,38,80,-90,437,182
-61,56,78,-528,-42,251
-93,94,90,-780,-151,34
-55,-118,112,-648,639,-945
-2,-92,103,-173,920,-387
-39,-102,107,487,-4,-132
-48,-86,110,247,-219,109
-48,-92,47,8366,1360,-5928
27,-59,124,11626,3074,-9848
16,4,-67,3982,6820,-11313
-118,111,116,-5106,15358,-2202
33,48,36,-17227,-7132,21798
-124,-9,-106,-7346,-11716,949
20,-50,-111,3444,-1713,-4244
73,-113,25,-1548,-224,-4403
7,0,86,4311,2280,-5470
98,85,58,-1258,5280,-5479
32,78,119,3295,5193,-3770
107,25,71,7532,5257,-4271
-21,120,53,10754,9082,-8269
46,64,-72,-4228,12884,12273
-68,-110,55,-17750,-6713,12474
114,20,-39,4438,-11253,8748
41,-1,87,-487,-3493,3609
107,62,120,-4204,-1860,1831
74,-46,1,-2762,-1956,1971
98,75,25,-1982,-565,357
-27,33,-7,-1708,653,812
126,54,-70,-2420,2468,1667
42,74,-18,-3240,4937,2669
101,-121,8,-3126,6740,4528
-53,-3,94,-1960,4607,8694
-87,24,-3,-1072,6383,6913
-56,-117,-39,-3668,3206,3677
-74,61,64,-2699,2582,2876
-58,-94,55,-179,-785,1926
-78,84,79,1336,-2292,-1230
-46,-81,103,2458,-1319,-913
-100,-112,70,1985,177,-524
-127,-118,85,731,478,-787
-115,69,82,671,566,-820
-120,49,75,635,66,-496
123,44,87,173,-536,-29
-97,15,111,505,-97,45
-79,43,93,88,474,-262
-80,45,100,-203,-128,-745
-79,16,114,153,-295,-323
-71,28,112,37,93,-319
-78,64,98,-735,-95,-7
-77,89,92,-850,-33,-40
-65,101,83,-411,131,-155
-76,98,77,76,39,-228
-75,102,79,173,25,-148
-59,112,87,-51,250,153
-61,-124,75,-219,192,226
-65,-108,69,-310,100,210
-57,-94,65,-312,139,232
4,76,16,-4061,1913,-3701
-33,38,21,2286,1563,-5284
2,-126,65,3910,-1127,-4853
53,102,101,3536,-70,-3917
50,-32,-36,14559,1588,-6989
-84,-127,94,4096,8748,-6782
-6,-84,48,-5528,7043,4921
-43,7,95,-10529,-10105,16600
44,19,44,-14872,-6702,1488
-9,-49,26,1279,-4032,-5224
91,38,52,-845,-789,-5534
-108,-21,-20,-893,1196,-5395
-69,21,-100,-227,1868,-5355
-120,31,62,-289,3593,-5142
-62,-72,16,1097,4805,-4408
71,-42,-69,9515,1159,-4043
-74,-10,-25,16863,2409,-10244
112,34,-68,-14793,28702,-2350
116,-41,79,-23749,-2698,17477
-128,-44,85,155,-12934,13681
-41,70,-6,-994,-12694,2044
77,-5,112,-1511,-40,3710
19,-25,-96,-5093,866,866
-38,-11,-54,-2775,584,1040
69,-25,80,-1319,926,-507
-8,-70,74,264,2210,-56
28,-13,-114,-876,6733,797
75,-102,-42,-3161,10727,1686
13,54,-72,-4596,9843,4300
-36,122,-41,2834,7221,5044
-1,89,-52,2188,3634,980
126,-38,74,-1773,3096,1214
-75,-44,32,-4251,629,726
16,-82,-3,-2010,-1229,271
-95,92,83,1084,-2211,-962
-41,97,-126,1027,-1077,-221
-65,83,116,529,1,8
-94,60,109,431,445,-139
-100,38,119,1091,112,-123
-92,40,-120,1063,-225,-77
-87,46,-86,655,-346,-238
-70,10,-53,1199,-5,-247
-77,-4,-67,1144,355,27
-84,41,-76,-456,86,4
-68,43,-84,-1077,81,-116
-57,40,-103,-669,203,-256
-58,33,-122,102,159,-101
-63,52,126,69,70,-61
-58,63,115,-132,175,-172
-64,71,112,-50,55,-353
-107,-98,-48,2618,1406,-4660
32,45,-104,11808,1317,-4396
-38,-86,-102,4627,5627,-7847
26,73,78,-5169,11184,1388
59,82,99,-3881,2406,14393
20,108,125,-13377,-10196,4668
17,-110,-56,-920,-5544,-1799
51,-106,74,-1195,-3676,-5367
-109,97,-58,624,238,-5722
69,-27,-51,32,2382,-5729
-36,70,-119,538,5011,-4578
-116,-121,-10,5473,5437,-5399
102,77,95,7257,10022,-1057
9,-14,98,-10509,12935,7863
-62,-103,105,-8906,-6213,16327
-79,16,103,-955,-12099,4478
34,109,126,1266,-5168,1992
75,-48,-24,-1220,-3915,1806
-100,80,102,-2191,-2446,1516
41,-52,110,-1876,-1787,415
-97,70,-86,252,-261,650
97,-126,-125,-2017,1082,918
-4,43,48,-1440,2776,1402
-64,-73,53,-2536,5496,2826
-83,53,-59,-687,7611,2684
71,80,-111,144,6227,2688
20,-45,46,525,5098,1716
87,86,-122,-481,1630,472
95,-15,76,-2174,1455,1154
-78,-62,82,-1917,1764,1147
-64,-41,102,74,720,148
-92,-105,-96,387,33,205
-99,118,-7,22,222,44
-84,114,20,20,452,132
105,96,26,370,-66,-66
-112,87,39,155,-209,95
-124,-125,39,-893,377,252
-113,114,34,-44,456,42
-73,79,61,951,286,-88
-110,85,66,511,68,167
-110,111,63,-389,257,48
-112,86,42,-403,478,-65
-65,98,30,-106,240,-74
-21,69,31,906,-90,-109
-66,93,77,428,-377,27
-88,108,82,-437,246,48
-72,80,55,-406,283,244
-56,88,45,146,-52,-11
-70,83,51,298,-87,141
-80,109,42,-406,-32,222
-35,-119,13,-5204,-1968,-1857
67,-107,-46,-2819,-2564,-2135
-87,72,22,-2377,-1735,-1817
21,-116,-30,-1180,-883,-2244
-57,-35,25,9761,397,-5058
83,82,121,12074,1195,-12894
-25,-61,2,1804,7634,-13719
-52,-122,27,-5431,19387,-11113
-52,80,84,-8406,-4827,26414
103,-75,14,-16917,-14886,6875
81,-34,-72,-615,-5907,-3439
-93,-68,-24,-632,-3331,-2886
44,-15,-51,705,1239,-6908
120,-67,-20,-748,3625,-8458
-59,116,-48,3703,3368,-10408
85,-102,-112,12218,6647,-17935
41,83,-96,-13267,16194,-3975
-119,-18,59,-5416,-1083,20380
-19,95,-104,-2775,-8814,13495
87,74,94,-3699,-4210,7188
76,43,-99,-5932,-1082,-25
118,115,43,-1423,-802,-1123
-54,-20,-111,-524,-870,463
-96,37,105,-1512,1397,70
69,17,27,-708,3084,117
1,108,76,-425,4833,1003
103,24,90,-1284,6064,1828
-28,-125,121,-621,5864,1448
89,21,-32,-1794,4075,2860
-44,20,-62,-1527,4614,1387
27,-35,78,100,4196,2048
-29,123,-10,187,-123,1046
29,119,22,-1376,379,929
46,121,36,-1337,1097,768
10,20,90,1034,418,296
12,28,95,1001,320,-72
-15,27,111,74,-148,-212
-11,-2,125,-737,-387,-183
-20,-19,-115,-195,-566,-304
-17,-5,-117,-387,-82,-93
-23,19,127,-813,-162,-220
-29,19,120,-452,-175,-54
-22,29,115,-291,152,51
-26,53,99,-451,111,130
-19,68,86,-521,218,210
-19,65,85,245,298,145
-10,57,71,919,349,348
-15,54,73,735,84,282
-16,70,84,183,-110,-67
-24,56,88,169,178,34
-26,-115,-17,5011,-635,-4073
32,-71,76,6787,-3,-6256
0,108,18,11964,-5,-9802
46,-85,106,10929,189,-13337
-12,59,-55,-1038,9805,-3412
-79,96,75,-19254,8865,15666
65,18,-122,-9434,-2897,12483
47,-90,-80,-10081,-6664,441
-39,-75,99,1049,-4071,-5062
5,24,86,-2720,-898,-4935
50,-90,113,13,3685,-6311
-91,-107,-13,484,4361,-5384
63,-26,99,609,6527,-4623
-9,71,32,5062,7049,-4122
-7,66,29,18155,8979,-8132
-118,-122,-64,3943,11859,-4162
57,-85,-88,-17787,-1110,8936
-35,-45,41,-3977,-3754,11822
109,121,-71,-4518,-4108,9207
-113,-90,-23,-581,-3242,3955
-37,-127,72,-3545,-3199,3150
-78,-86,35,-2465,-2326,2099
84,95,72,-937,-1292,1102
29,106,80,-1320,45,599
-66,45,47,-1458,2044,447
-81,68,-100,-2893,4888,689
-100,72,99,-2906,6090,1078
-31,-48,65,-2378,6335,1987
50,-106,-65,-1013,4170,2234
87,-49,-113,97,842,2276
117,-126,31,-4407,2400,1468
107,-29,84,-855,2327,1326
115,-74,-87,1363,1440,728
115,-93,-10,675,1253,139
-127,84,34,615,1011,228
-87,29,84,488,1205,364
-57,-4,123,667,1000,307
-44,-3,-104,875,737,123
-53,-5,-81,951,302,53
-51,-26,-43,704,-164,-154
-64,-27,-13,266,-228,-57
-46,-36,-4,37,245,-21
-35,-40,-22,220,482,41
-47,-40,-39,202,121,145
-38,-22,-50,-228,82,87
-50,-41,-55,11,-257,256
-68,-46,-60,114,-166,104
-54,-37,-65,113,329,-300
-39,-46,-69,406,219,-287
-35,-43,-70,292,-41,-100
71,-124,-48,-6482,-2935,-1733
98,-99,0,-4090,-3156,-2426
67,24,-8,-3458,-1124,-4450
37,-106,-104,2993,-481,-4759
67,62,13,7047,6492,-8180
15,125,-107,3846,11011,-10049
-119,-40,103,-9534,19420,-4335
-110,-109,-35,-5659,-18386,23786
-81,-38,-60,-9280,-8191,2776
-107,-43,101,1283,-3468,-5160
116,9,-21,-1200,-1517,-4808
-98,82,-118,2346,1214,-5719
-67,51,-95,233,4583,-8112
-51,41,7,3881,6946,-7974
118,-60,52,8481,8799,-8103
-78,-91,-97,-14531,17293,961
-114,53,-51,7811,-1050,18048
80,36,81,-14930,-8574,8298
51,-34,-69,3554,-9675,7991
57,96,-114,-5584,-1679,1905
-126,5,-120,-2011,-2875,506
5,113,-86,-1168,-1700,734
-110,49,-47,-991,-1343,500
52,26,-43,-495,829,1434
-7,102,90,-2369,3625,1681
-105,-20,122,-2713,5685,2920
-6,-117,-123,-4064,6351,3271
106,56,-98,-2420,3696,3709
42,-124,-17,-86,3183,2949
-121,115,-112,-1533,1905,2558
-44,-8,-96,36,1723,1767
-7,-116,-2,-90,885,2168
66,10,23,-978,1014,1715
104,-46,9,-156,1055,1370
37,-13,36,-45,-84,1400
4,-7,29,-113,-385,146
-8,-61,63,1096,-285,-175
-11,-120,87,1497,131,-323
-38,122,90,714,-127,-517
-37,119,94,-307,-293,-441
-1,104,100,-393,-231,-523
-9,93,110,248,-35,-184
-33,103,115,255,184,-142
-36,124,106,-155,222,-106
-3,113,98,164,241,-174
-3,102,101,477,73,-43
-9,-126,97,70,131,17
-13,-118,93,-342,202,-1
-14,-118,83,-291,78,-50
-9,-118,81,-60,114,20
92,-42,77,8470,1882,-3459
-3,-7,59,11107,4724,-9819
123,103,42,1432,6954,-7255
-72,60,-37,-8565,8766,8325
-9,69,12,-13934,-1995,14726
10,66,84,-1646,-9990,894
-55,-124,-57,-2474,-5445,-3589
73,93,46,3,-2883,-7386
10,-112,-126,-334,771,-8142
123,-26,44,-1192,3879,-8426
74,65,45,2793,3851,-7933
63,-116,-90,2763,9536,-8378
21,-45,-107,-6881,16216,1246
19,10,-28,-7718,-1336,17825
33,36,-90,-2286,-12308,9490
116,-103,60,-2133,-10863,10163
-13,23,45,463,-2970,1855
-117,1,87,-5006,-1648,1901
70,47,19,-1961,-509,-217
21,63,13,-1925,205,-509
-63,13,-19,-1730,841,558
-127,46,127,-2445,3079,950
11,96,38,-3215,5682,341
-79,-93,113,-2700,4163,2391
-35,97,127,-2359,2299,2667
69,67,4,-541,2401,1111
-54,69,-113,-673,2283,1966
39,39,-48,-636,2200,1489
109,18,-44,-100,2503,1863
-83,24,-31,-913,2427,1640
30,10,-9,330,3209,1843
7,-76,122,866,2049,2346
-19,84,-74,482,1006,1801
5,20,-32,-661,522,938
33,46,-37,-2240,501,826
33,52,-70,-2361,521,450
2,-14,-73,382,161,316
-27,-2,-61,1428,-276,216
-52,28,-64,549,-366,-176
-62,15,-66,95,-183,-230
-46,6,-84,-111,291,51
-52,9,-107,-239,309,83
-31,4,126,-76,50,-33
-32,10,-128,-4,-281,5
-43,25,-83,291,-631,386
-21,46,-90,52,-10,348
-48,50,-121,-161,281,-317
-76,27,109,158,312,-643
-36,3,108,518,361,-388
-23,5,108,276,226,-23
33,67,-114,-3060,-2367,-3995
-117,-91,-39,1232,-2995,-4641
-34,29,67,423,-943,-5301
43,72,97,5411,-581,-5836
40,-94,89,8922,3606,-7467
20,33,-22,1800,10135,-4413
-13,92,-39,1458,8033,2462
-120,77,71,-8326,-2347,14861
-28,-62,9,-8366,-7411,3632
-125,0,-79,-3550,-5205,-2171
-68,-83,39,145,-1546,-4990
32,-63,59,-662,993,-5375
37,110,26,163,2601,-4646
-26,103,28,399,3169,-3803
33,-72,-117,3959,4937,-7528
-32,-40,87,9813,7636,-10741
74,-76,66,-6973,18408,-205
30,-118,-92,-13734,-5292,24149
26,8,-127,-5586,-14397,8169
-61,8,118,2816,-12894,4842
-22,121,-34,-889,-4432,-44
-104,-3,-10,-2103,-1611,2379
50,-103,-31,-2146,-2407,1092
-88,81,3,-1030,-655,1550
101,102,-72,-2480,800,962
-2,51,-103,-1245,1799,797
-97,45,47,-254,4969,1793
-68,-125,3,-877,7210,2422
33,10,50,476,8179,3614
3,77,46,-752,5811,2863
-62,-103,112,443,5670,3071
74,-56,-43,-1025,3682,2341
39,120,99,-2024,2272,2216
8,72,-96,-1402,1391,2019
-82,18,-72,795,269,1192
121,-26,-62,1775,-339,-376
104,-87,-9,968,-619,-1063
127,88,59,302,-550,-1044
99,87,100,-261,-747,-306
110,89,103,-750,-313,-420
112,88,88,-887,106,-360
102,85,69,-540,132,-280
124,83,60,-9,127,24
124,106,72,345,-100,262
-126,120,71,79,246,171
-122,-114,58,-521,358,45
-122,-121,34,-290,361,64
-116,123,33,417,157,39
-110,108,41,992,-40,61
-99,106,52,790,57,80
96,47,-79,4879,-888,-4551
-48,-72,92,11302,1986,-9427
-50,-103,-116,6047,6664,-9470
-21,90,114,4562,9185,-7187
53,23,-68,-2623,4945,11765
57,56,115,-15514,-7271,15020
-103,93,-22,-14804,-7435,3058
15,-80,124,3637,-1863,-7359
27,65,-82,-1269,949,-4622
-65,-108,-37,231,4202,-6719
69,-17,-48,2352,4922,-6820
-68,106,-92,6775,4915,-7514
-29,54,-89,17550,-2845,-13479
-64,26,-3,-12072,20987,-10252
54,-97,8,-13727,1326,18710
-79,74,-40,-7745,-10515,16893
98,-19,116,-2863,-6984,5051
63,-66,101,-302,-5184,3736
88,-20,31,-3012,-427,1049
84,-24,110,-636,354,-1544
107,74,46,-1411,1539,205
-25,96,-31,-1047,2811,604
121,57,-77,575,3993,1335
-111,-114,-71,2298,7100,2664
-101,63,-94,-3785,10504,2167
53,-108,-53,-1050,4616,3335
27,29,-34,3708,1743,3628
13,71,-83,704,2952,1096
27,-46,-41,295,2915,-138
-11,82,84,-817,1588,169
-22,46,105,-317,333,1308
-71,63,113,-607,118,796
-103,69,70,-1592,849,169
-79,63,61,-1526,525,-58
-91,-13,83,1033,-874,-769
-95,55,109,1233,-1448,-422
-70,86,107,-88,-396,-349
-79,90,119,-658,93,-505
-93,33,117,413,453,-377
-88,41,115,789,363,91
-79,52,-125,584,-305,148
-74,70,-121,-69,-213,469
-84,100,111,-752,286,710
-89,-125,51,-1435,577,571
-112,104,30,-337,-15,-296
-75,82,31,356,257,-366
-39,83,41,218,435,-116
-51,79,62,-346,494,598
-71,70,86,-454,225,626
-87,59,90,111,85,342
-116,60,74,1777,-2936,-4473
33,-119,106,3299,-3276,-6314
-124,37,110,8815,-1875,-9159
-36,-113,37,9950,705,-12091
-20,126,110,218,7441,-6252
-37,22,-85,-7004,12577,4072
4,94,84,-13799,-693,14406
-95,-106,-89,-6221,-9122,4683
-115,111,32,-4626,-4497,-3029
-116,-62,41,-452,-2436,-6600
36,21,-29,-1287,1038,-6241
116,-107,-117,1321,4670,-7330
-42,1,30,3350,4122,-6167
-122,-94,1,7964,3086,-10086
80,-105,40,-5075,17352,-8250
19,-8,5,-6706,2826,21292
-120,23,96,-17246,-11138,8925
80,-38,-74,6112,-12759,11679
-95,-75,7,-6430,-2826,5141
90,48,-120,-775,-2273,2615
27,46,112,-3062,-742,876
-127,-125,115,-652,-489,274
32,-24,104,-738,1103,126
-49,-55,42,-730,3417,414
108,57,19,-3286,6600,1211
86,-45,-124,-3047,7533,2239
-22,17,94,-3923,5998,4994
-85,45,-62,-2088,3338,4854
106,40,-61,-630,1840,4314
-31,14,15,-1791,1343,2317
4,60,57,898,956,2099
-88,9,96,1902,793,3128
106,-28,-126,2303,-275,1978
30,113,111,2820,-199,914
-37,37,99,1881,253,-20
-42,36,117,-84,513,-270
-65,4,126,-339,173,45
-99,-19,-103,276,-348,516
-86,4,-94,569,-260,616
-78,18,-75,762,-212,65
-83,-47,-77,1775,167,-495
-94,-46,-63,952,-52,-418
-103,-48,-59,223,-107,29
-90,-19,-71,-669,226,332
-85,-11,-89,-610,347,197
-80,-3,-116,-401,230,-144
-71,13,-128,-354,-132,-333
-73,15,-128,-169,-40,-279
-78,15,-123,104,-59,-304
-72,18,127,185,70,-137
127,-46,100,4895,-616,-3583
26,33,-98,9755,-312,-4891
-97,81,94,11454,4192,-9693
-8,-9,-128,-2026,10243,-4444
115,-94,27,848,5722,7992
-124,53,-15,-13674,-7552,13743
-46,64,-114,-7870,-9053,3097
-110,-72,120,965,-2556,-5488
29,-36,-90,-1224,-197,-5015
20,-117,-12,-149,932,-4697
-2,-94,-28,596,2574,-5347
-87,66,97,7129,3039,-6719
-16,108,48,7643,5886,-9789
-120,-121,104,-223,15691,-7074
-92,121,-76,-8912,3023,14494
-36,-12,-20,60,-8716,12611
19,-66,-100,-7261,-6327,11075
-105,-65,-79,112,-4162,4547
-14,68,106,-2695,-2428,242
-26,-80,-71,-1995,-691,702
79,72,-119,-1011,212,-151
-14,55,118,-802,1319,664
127,117,-11,-4163,3427,182
30,81,-42,-4255,5380,2127
10,-6,116,-4428,5280,5082
61,3,-125,-5773,5143,6737
-56,103,10,-3978,2627,5557
-126,90,-35,-119,1096,4619
-12,-79,80,2862,1108,502
58,91,49,3002,1298,2131
56,78,15,164,1658,1421
9,-47,24,-229,825,918
-18,-113,47,1446,-92,1628
-91,-88,68,1020,-716,564
-120,-100,107,473,-344,-848
-91,99,-98,859,481,-1339
-64,62,-73,982,972,-1254
-68,36,-61,827,818,-42
-68,55,-51,263,164,-8
-59,50,-43,-30,-200,-205
-47,48,-51,-170,-250,-36
-46,44,-66,-179,-53,2
-56,42,-82,-204,-104,363
-52,54,-98,-283,2,460
-60,82,-106,-460,117,156
-56,90,-114,-175,188,199
-55,82,-117,466,96,63
-50,87,-124,271,133,-50
-51,92,124,-171,27,17
-49,93,112,-326,12,-30
62,-58,5,4344,801,-4390
109,-91,-55,10087,1442,-6218
4,-46,94,3542,6366,-7019
-60,-23,23,2429,10934,-2426
121,127,-122,-5724,3444,14041
103,104,-120,-18217,-8212,8190
-22,-61,-37,-5006,-10324,-1616
-40,-89,90,1073,-2244,-5522
31,-22,-11,950,386,-4862
13,-21,-97,1372,2800,-6166
-58,-103,48,1189,4945,-6884
91,-59,-53,8310,3066,-6262
-126,113,85,16848,5012,-12551
0,83,30,-16442,20745,1519
-2,-102,46,-15746,1690,21663
-123,-31,-8,8301,-11906,8894
-119,-101,57,-1527,-8601,2719
71,109,2,-1061,-1185,2627
-97,75,-86,-4656,1401,1384
-78,63,-91,-1947,42,571
100,110,113,-2659,1301,1241
-14,93,-68,-3352,3645,591
-75,-55,127,-4442,6293,2017
-9,-47,24,-4928,6191,4209
109,-114,22,-2791,4666,4397
22,43,82,-1532,2614,3207
-52,-117,-44,1386,1864,3260
-17,-87,-1,-1478,1338,2053
8,-4,51,783,1070,1729
-106,-78,57,1741,1508,2479
95,-43,65,1005,458,1975
-18,-38,56,247,-429,775
-111,-84,86,159,-761,-312
-93,107,119,533,-302,-649
-85,54,-126,911,32,-686
-109,5,-106,1120,-109,-297
-108,21,-98,220,-209,-28
-101,31,-98,-448,-144,-147
-82,23,-99,-531,63,-120
-90,26,-113,-297,73,-10
-88,37,-128,-186,79,54
-85,49,115,13,106,120
-95,62,100,-87,125,24
-82,71,91,-132,118,4
-79,74,92,-2,57,41
-77,77,96,163,66,29
-66,83,88,126,230,-54
-64,92,80,-102,159,-142
-63,90,77,-121,-2,-42
-76,105,79,-196,112,1
-66,17,110,5275,1891,-4540
39,-44,-6,10031,6463,-6237
9,-86,-4,8901,9831,-4299
101,-54,-116,2185,9117,4211
79,-94,-59,-13460,-12028,15204
-31,105,-48,-11157,-10778,105
93,-26,100,-3531,-6248,-2215
-125,-60,73,-1665,-1834,-2634
37,-8,-32,2720,1234,-4210
81,56,26,1381,6998,-8336
64,2,-59,9285,5322,-12937
105,-60,69,11466,8963,-18695
-82,-114,29,-6339,20443,9412
94,117,68,-12117,-8879,14582
-34,-17,-69,5221,-9969,12975
-7,-85,57,-7790,-2144,6373
23,-74,57,-1882,-2897,3287
17,32,102,-4371,-89,1353
56,-52,47,-995,1802,-201
25,-55,-4,-200,3196,396
68,11,54,-1221,6585,2118
121,-125,-26,-2020,9561,2964
49,-65,-104,-3659,6919,2933
-85,-18,28,-159,2391,4365
79,31,56,-2581,3642,3482
-2,29,64,-2875,2491,1491
-6,74,-80,1558,281,985
-55,-102,-12,4204,-135,257
-44,74,95,2565,-287,-458
-102,50,-101,35,-172,-85
125,18,-106,21,617,833
-102,57,-112,-62,795,600
-46,104,-121,-1214,396,317
-65,-94,122,-2554,-347,-116
-67,-114,97,-2311,-736,-371
-26,123,93,-1104,-155,-935
-27,119,86,-193,250,-952
-60,105,65,671,215,-409
-58,120,54,482,17,-83
-35,-120,50,-110,-11,-92
-65,-90,61,-859,-524,16
-73,-49,82,-1597,-441,-15
-51,-35,82,-1471,109,-286
-54,-42,75,-374,408,-227
-61,-45,63,691,272,-48
-51,-43,48,722,169,-23
-50,-28,50,45,-2,72
-57,-22,48,-351,62,42
-63,-25,48,-169,143,-34
-48,-27,48,-26,126,30
111,1,127,-2858,-1234,-4130
-37,62,-35,-134,-1280,-3378
-107,-6,-127,4104,829,-3602
-55,-69,-20,12138,-418,-8505
100,-65,-67,4260,3340,-9451
8,-54,43,3529,8118,-6771
-115,67,-20,143,6952,6747
59,123,-15,-17827,-584,13897
63,34,63,-5195,-9715,5836
79,-124,-119,-2677,-3316,-2989
19,111,22,-535,-93,-5344
-37,-101,-1,-1177,1830,-6872
16,-65,102,1430,1181,-8140
-55,-57,107,2616,1527,-6916
28,4,-80,10397,3736,-10927
90,-83,52,-4167,19034,-5905
115,-91,34,-13822,522,25646
117,44,74,4341,-5370,8397
-108,-94,-111,-1545,-8064,2797
-29,-120,-2,-2134,555,648
109,111,-76,-704,-1318,719
45,95,49,-1766,704,1953
-121,118,-36,-3559,1193,1442
36,59,-112,-2288,2171,2089
-31,-32,-57,-3906,5240,3192
80,53,-42,-5677,7129,4123
-72,-47,16,-2032,3837,5816
-50,31,-75,-1001,3320,4490
-95,5,31,-354,2462,2980
-57,123,61,584,1790,1602
-38,22,75,1270,1139,1839
-82,-25,64,973,804,1615
54,-5,48,205,-121,585
-23,-69,95,493,-932,-110
-23,115,124,1405,-750,-132
-34,72,-101,1593,-337,-341
-35,33,-87,1251,253,-310
-61,34,-87,294,76,131
-44,41,-84,-254,38,-4
-35,43,-88,-85,126,-229
-47,34,-92,323,4,-545
-15,25,-83,426,-11,-544
-10,23,-75,312,-14,-367
-25,32,-81,-26,106,-78
-37,43,-88,-233,209,111
-17,60,-111,-307,422,232
-15,75,-125,-334,219,225
-16,84,119,-179,73,142
-10,88,115,109,1,-169
-29,77,110,394,39,-306
-23,-88,47,-2465,-2746,-2855
-40,-17,-83,-1578,-961,-3656
-21,-92,-39,3654,-1307,-5316
-3,-38,-50,13013,-1934,-14466
-5,72,120,9071,-3348,-18774
37,-101,38,-10157,13369,-8092
-21,57,29,-650,11610,8697
61,21,29,-29050,-2472,24449
106,-63,6,-10543,-12672,7901
60,-100,-115,2719,-2883,-7887
59,62,87,-1968,2112,-7451
96,113,-105,-846,4281,-10345
107,-42,65,2365,1302,-11775
-112,13,33,2802,6404,-13216
35,37,58,3917,15884,-11834
53,-49,82,-15680,6010,24847
4,-104,-30,-15984,-13648,10918
-86,4,-30,9287,-12549,2586
-106,-110,-92,-1448,-3684,223
9,-108,92,-388,-1180,1698
17,-102,115,-3140,-582,1323
-85,-7,-127,-1839,511,1055
122,37,44,-2139,2119,1263
-70,44,-107,-1710,3092,864
-124,51,-90,-1343,5070,623
-64,-109,-125,-1956,5652,1210
103,34,-112,-1665,4347,1162
-11,119,-78,1069,4276,1274
103,-62,-43,-678,3635,838
-64,68,96,1997,3554,601
-31,94,-68,133,3669,696
-25,62,43,486,2448,951
13,2,-72,479,1743,812
53,-18,-27,-372,1563,522
95,122,-38,1413,2339,-41
32,-75,-26,1261,1477,503
-35,-60,5,857,-189,10
-37,-73,46,356,-775,-358
2,-114,98,294,-805,-379
-9,120,103,660,-452,-353
-10,-105,107,201,-151,-275
-14,-107,106,545,270,-470
65,-110,100,641,729,-245
0,-74,110,74,-125,-576
19,-38,89,-355,162,-693
35,-64,84,134,-179,-361
51,-57,81,171,-341,-205
31,-51,80,-88,-401,-82
29,-34,65,-407,178,-82
23,-16,23,-894,434,118
40,7,-25,-6097,-420,-3097
-21,-35,126,-1982,-1710,-2113
-74,36,-84,-2540,-1701,-2035
-101,-3,-20,-2653,-1210,-1584
-120,-3,54,-2610,0,-1709
6,-91,-109,266,-698,-1532
-87,-84,-96,4133,3235,-3047
-119,-9,117,4997,5011,-4479
-59,-109,-57,9445,5414,-5854
-73,-98,-47,9239,9064,-6887
-66,-103,45,2675,11143,-895
-39,38,-84,-11975,-1515,20033
-30,23,-17,-15584,-11406,12155
83,44,90,-2491,-3003,-4562
116,-89,-108,-1395,-1157,-3067
-57,59,7,-1333,2109,-3805
-12,23,-17,1224,3288,-6725
-1,6,16,4669,1550,-9310
96,-112,-63,5338,601,-10091
43,97,-22,7302,-1895,-14177
50,-26,-108,266,16239,-20168
67,-6,-25,-21597,11590,16320
-68,-113,40,-5161,1830,15036
-55,37,103,-4941,-12763,11238
122,23,47,3987,-4139,-664
-127,24,-83,-5390,98,3197
88,-119,-12,-398,-1446,1692
23,-29,-98,-3464,1897,60
-112,107,47,-4005,2609,196
-24,114,116,5,3296,311
-95,-33,63,-279,4169,1902
-93,-23,75,-1380,5504,1061
69,93,121,-2580,5919,2179
-120,-46,7,-2765,5403,1790
37,-6,83,-1847,4340,2654
92,40,-116,-1413,1617,2026
-123,-25,-13,263,2543,2081
-19,-106,93,726,2649,1739
-60,-126,-114,49,843,971
-23,44,-98,683,862,1351
-30,15,-90,694,882,1147
-49,24,-80,291,949,-458
-65,0,-81,530,668,-444
-124,9,-34,-117,-582,-506
-81,-2,-11,-156,-528,-559
-73,0,3,57,-123,-160
-85,23,-28,-56,462,54
-70,17,-44,51,306,-194
-67,20,-55,-2,-22,-132
-65,21,-67,-97,-86,-79
-55,-50,-126,4208,4353,-4517
82,-99,-112,11170,2114,-4193
23,-120,39,10297,2983,-6958
0,-43,-77,6508,7597,-6628
-95,29,-69,-4386,4739,8284
-53,108,5,-17767,-4994,16524
57,103,17,-11394,-8838,4653
-48,52,122,-1708,-2648,-4785
65,13,1,177,-3059,-4688
-33,-41,82,-1847,86,-6143
55,40,26,336,763,-8425
-109,107,-53,-763,1603,-7902
18,82,57,3826,4265,-9308
-101,19,58,9320,7132,-11820
-104,-27,-46,-16894,25764,-3624
-7,118,-127,-16309,-6455,20768
124,102,-18,2377,-15386,12291
28,84,-121,-2396,-10901,5407
31,37,-33,127,-606,1218
-114,126,71,-3876,882,-46
86,49,-89,-425,-90,-425
50,110,-114,-51,421,590
-26,-99,82,-1095,2023,317
-124,-68,95,-2917,5374,665
-93,-54,-82,-3084,7960,868
14,-77,-110,-3986,6827,3293
-51,71,-65,-1661,5062,3897
82,-101,75,1560,3128,2883
31,-109,-44,596,4064,2127
0,45,-3,-1003,2824,1316
-17,-78,73,-1199,1241,1046
72,76,-91,-667,129,1634
-99,120,-68,-899,499,2348
109,-56,-100,-1049,982,2069
-44,-91,114,654,239,572
-75,105,-113,1746,-840,-266
-81,79,-99,1290,-778,-577
-79,52,-86,559,-265,-756
-68,69,-93,-772,34,-398
-87,89,-101,-1395,-289,-529
-78,101,-110,-1101,-312,-919
-60,90,-121,-413,-95,-828
-60,77,125,197,-272,-541
-74,68,113,455,-233,-286
-85,88,110,-135,-151,-111
-90,103,106,-568,8,15
-97,121,111,-480,53,448
-81,-125,114,145,214,864
-46,-120,101,577,464,867
-58,-90,71,179,292,427
84,-30,-73,-5149,892,-2407
-80,13,-56,-2610,-271,-3533
35,-21,80,-2014,1415,-4042
58,63,118,-578,1052,-2989
-5,-125,106,6003,2137,-1909
-106,-3,-115,12148,7429,-5738
45,-108,-15,14979,7429,-10322
-74,121,82,-10110,14615,-6149
61,-114,104,-5122,-6761,23380
-64,114,60,-12272,-12419,6835
78,73,-127,-1080,-3199,-2919
27,66,117,626,-870,-5445
101,67,108,-1831,733,-5061
106,103,-113,128,2174,-6754
-29,-118,17,1439,3513,-8787
54,109,123,4472,4686,-9191
125,123,18,12360,6056,-9124
17,120,93,-21665,21213,3664
9,35,42,-9915,-7483,24030
54,21,-58,-1963,-11571,7048
-38,8,106,2123,-9339,1613
95,7,-59,337,143,-1830
-38,-34,-42,-3858,-1647,926
112,55,81,1002,-943,-1555
40,-118,-5,-853,-65,-871
-10,6,6,-218,1469,-746
11,80,123,-2076,2579,-63
110,38,12,-3044,4291,1020
-75,58,-87,-4662,5975,2405
32,-93,-112,-6941,8231,3793
-75,98,-121,-7013,6313,5819
14,-79,-41,-2002,1437,5135
-119,-22,-70,-358,-344,2811
124,-35,-80,-1394,-533,1049
45,-95,-106,-797,-237,745
-46,-25,-106,2393,-95,1041
-56,-92,-125,3475,-6,1048
-84,-106,-128,2043,-150,624
-110,112,125,20,85,-503
-120,49,-126,-192,-43,-728
-113,20,-117,-141,-186,-575
-116,23,-109,-264,-286,-393
-117,34,-116,-376,-148,-332
-118,49,-119,-476,-6,-343
-99,60,-127,-555,183,-377
-103,65,121,-266,182,-145
-105,76,113,-43,122,24
-101,93,114,144,49,47
-89,79,104,660,350,125
-82,94,94,294,279,133
35,-26,26,5777,-1857,-4697
52,-10,114,6385,-1937,-7330
18,-65,-27,8684,-2279,-11727
-10,-96,-64,1113,7372,-11219
-113,-124,-58,415,12699,-4660
105,12,84,-12307,1302,18079
-82,72,-2,-7927,-9287,8820
-28,-24,98,-8306,-5486,-2211
40,117,-37,2169,-2463,-5247
-83,-65,-88,118,829,-5836
-123,35,-98,-1747,3488,-7000
122,-53,118,448,6205,-7068
72,-28,-100,6834,5409,-9350
61,-26,-82,7040,8329,-5737
-37,51,91,-5493,13645,10239
-127,122,-31,-6981,-2542,20954
33,54,-65,-644,-11535,9534
-74,-47,-74,1697,-4657,316
-56,113,32,-183,-2615,2363
-36,-107,54,-39,-1012,1781
-125,33,88,-5538,159,3295
-71,109,48,-3414,508,1656
-35,109,-11,-2343,976,1694
96,-21,77,-2850,3225,2639
39,90,119,-2594,4556,3277
-108,-6,-3,-837,4262,4309
43,-120,-44,561,5031,3974
-30,103,-64,1776,3830,2935
-40,20,-121,-635,3913,3492
-44,-5,-89,-2477,2452,3090
54,-51,17,2169,1622,2902
61,-113,67,3473,654,1729
14,91,100,2827,42,1416
-73,-108,-110,-1062,-299,721
-113,103,-114,-2178,-316,223
115,58,-122,-1045,-165,378
89,45,-126,92,92,146
75,52,-109,589,-145,-253
90,55,-106,283,-64,-468
109,36,-107,28,129,-770
119,-2,-113,490,277,-586
101,0,124,303,162,-321
124,16,115,-307,140,-151
-124,22,111,-364,129,5
-124,28,100,-136,164,58
-128,54,92,-230,39,117
112,64,100,-5,1,285
-116,78,103,-74,316,351
-88,118,76,-616,329,209
-96,-117,73,-881,-138,-143
-31,67,-85,3777,-320,-4130
44,15,-77,8990,369,-5436
17,-85,16,19739,-1158,-12260
10,89,-94,-3244,10760,-9884
-113,44,85,-2369,1807,12792
11,-107,113,-22722,-6974,11790
-108,-31,72,379,-5260,-128
-18,-44,94,-553,-255,-4101
98,-32,-7,-292,-181,-3875
-114,-95,-123,1021,1280,-5100
29,-30,-1,1687,2753,-6835
50,48,69,4531,1989,-6972
-23,122,-8,8744,2025,-10280
-28,102,114,8197,11711,-12083
-114,66,-59,-13695,30328,3197
-72,34,114,-29304,-21988,15583
115,65,-103,3335,-15322,4260
-43,-67,-52,2987,-12053,1323
-75,-72,-62,-3011,-718,3124
55,-112,94,-4871,1124,180
88,9,100,-2020,-590,452
0,116,1,-2172,8,703
-127,84,-30,-765,1637,1389
50,-80,107,-702,3775,2549
57,-97,-31,-731,7234,2585
19,118,-47,-334,6099,3863
-63,117,1,1829,5605,3281
-82,-48,25,820,3453,2693
-87,-34,-53,4759,808,2148
104,-12,-15,437,4092,508
-19,69,-42,-650,6035,994
-57,-66,60,2831,2584,1114
67,-17,-99,1738,2,550
-82,11,-66,-47,-1625,-338
-77,25,-32,-1591,-1693,-945
-17,21,-43,-2353,-626,-551
-25,9,-68,-2004,-505,-298
-124,37,-94,-1128,-567,-24
-101,68,-114,-652,-53,90
-41,75,114,-4,522,282
-62,70,108,370,87,131
-88,83,115,-18,-386,90
-67,99,108,-489,-57,-106
-56,93,99,-245,251,-4
-32,93,86,61,351,-3
-40,101,74,195,119,-56
-49,101,68,227,122,-70
-83,97,76,244,-60,-45
-73,104,71,-29,249,15
-66,109,64,-117,143,6
7,-100,-60,-2504,-1478,-5137
79,92,-62,-188,-1721,-6156
-37,119,69,1017,920,-5751
-44,-121,66,3757,5262,-4021
-122,-55,63,5983,9444,-3083
-76,14,50,4100,9454,478
36,77,-77,-2659,2168,8425
62,39,-23,-9437,-8172,7207
61,96,-106,-4438,-8795,-2443
-60,-33,21,361,-3122,-4410
9,-53,-74,164,1184,-6148
73,-97,121,1951,4431,-5931
54,125,39,-1047,5003,-6147
-7,-83,-40,442,4154,-2273
-68,37,-61,-834,4763,2081
67,-108,-76,3813,4692,3406
125,6,83,88,4968,8993
-60,21,-7,-8413,-2677,17326
-43,-54,123,5933,-7871,2352
-121,-40,-115,2338,-9288,1513
16,125,-25,1196,-6071,2881
-38,-126,3,-2820,-5119,2966
-94,-70,4,-434,-1962,1386
9,-37,-51,-1699,1735,498
38,78,-25,-1906,2798,1348
106,30,-26,-2031,4807,2017
62,-108,-63,-2962,7601,3422
-105,125,-119,-5871,8738,5660
0,59,-54,-6236,10707,8981
-111,-56,-100,1018,1962,4096
103,-125,116,807,-1833,494
18,20,63,1114,80,1715
108,7,30,134,1331,1635
-3,-12,-5,-462,1108,598
-85,-59,2,-379,-168,70
-106,-85,41,314,-1200,-521
-110,-98,77,574,-980,-327
127,-117,114,1222,-283,-955
-116,97,108,1680,496,-930
-99,71,96,1075,631,-990
-102,66,103,35,-15,-738
-108,38,125,131,-570,-779
-115,47,-122,-71,-478,-359
-107,86,-115,-837,-261,-146
-93,106,126,-1050,178,12
-96,115,113,-570,195,13
-87,-122,103,-71,97,144
-85,-117,97,306,156,87
-87,-99,85,-20,109,102
-90,-88,79,-315,106,36
96,65,87,2461,2410,-5003
-78,12,56,4930,4520,-3893
-44,56,-30,5962,6377,-2224
-124,-84,-114,3274,6340,2583
21,47,-78,-3790,-741,8307
100,-60,-7,-5355,-6013,6533
56,2,64,-1865,-5029,-2059
80,-80,-61,27,-3656,-3304
76,-78,11,-1445,1020,-6431
-2,-121,124,2070,1409,-5323
-28,29,115,1214,1489,-4797
-32,15,-28,5020,1162,-3356
37,-2,-70,1383,5994,-3387
-40,39,117,4628,10848,-496
-81,102,62,14134,8903,1187
10,-111,1,-14488,3572,6059
-59,53,54,5633,-5356,15949
-103,-77,51,-1098,-5052,8191
-71,-2,-89,-2864,-3034,6458
67,4,17,-665,-1536,954
15,87,10,-4659,2754,937
-88,14,86,-2322,792,-219
-123,-13,89,-1543,2913,961
-7,50,-122,-2284,6580,395
0,-106,3,-4065,7935,681
-83,110,86,-1878,7999,1380
-101,29,-56,-1280,6797,3210
-115,105,11,-998,6619,3271
18,-56,49,1405,875,-264
78,-79,87,-745,-340,1324
16,125,62,-1082,-21,1613
-69,64,62,-369,-17,721
-105,67,64,-558,22,18
-113,36,83,315,-177,-149
-121,-17,-116,1902,-408,448
-118,12,-100,904,-131,-44
-96,6,-92,76,77,-344
-118,-41,-70,269,-317,-110
-120,-22,-73,-63,-300,-88
-112,-15,-86,-285,-14,-187
-104,-28,-98,-206,-23,-396
-108,-27,-104,-68,-11,2
-99,-5,-118,-266,205,88
-95,0,122,-151,222,-46
-92,15,111,-249,220,-21
-95,25,98,-294,229,-34
-90,18,97,-111,148,-51
-85,18,101,-123,24,30
-95,48,81,-363,160,45
-88,47,67,-25,275,-88
52,-13,-34,-3536,3517,-1469
5,-109,-104,-205,2525,-4437
-10,81,-128,-2814,-3074,-177
-74,-123,-89,-787,-994,-4566
-36,52,-110,-2787,2085,-5000
-38,-21,-114,590,1408,-5034
-95,112,65,3547,2632,-4261
-88,-89,-62,3848,4935,-4187
94,15,48,4132,6140,-3264
-65,58,-121,3333,6670,-1090
-54,-14,19,-2796,5533,9317
-95,-18,85,-5625,-4982,12820
66,1,-110,-8366,-8691,672
29,-3,-26,-3146,-7227,-5146
-21,1,73,-1312,-2278,-6510
60,-90,-51,2,844,-6417
103,38,106,-797,2926,-4658
111,100,28,-626,4720,-3918
5,-41,15,2867,5574,-4726
75,12,21,6113,10576,-4428
102,-58,0,-1927,19449,-2025
-120,-92,-21,2827,-1955,20599
-36,-84,-128,-6451,-7104,10313
116,87,35,-3002,-7582,6730
38,-46,-53,-864,-3881,1075
73,43,-117,-547,503,119
-15,108,-89,-2899,605,-231
-78,34,51,-1915,1544,813
78,-7,-45,-1281,2610,639
-18,82,-47,-1727,5245,1549
45,-104,42,-4862,7413,2784
-127,-70,72,-2582,4934,4320
76,111,7,-2767,4468,3879
-53,81,61,-576,2900,1893
-12,-87,-12,540,1200,1284
1,58,5,644,1012,1215
34,-6,10,831,832,704
-19,-87,46,406,-60,286
-59,119,82,245,-765,302
-45,120,103,24,-452,793
-44,75,114,729,1,880
-63,83,122,377,-102,366
-63,98,-126,-438,-44,366
-75,58,111,452,252,134
-70,47,106,690,377,-145
-65,55,89,-44,461,-194
-68,38,76,-303,119,-243
-69,32,83,238,-48,7
-57,54,79,-154,260,54
-67,53,83,47,-109,-191
-100,65,-1,-3188,4154,-2606
87,-60,85,-1333,-1934,-2568
126,2,118,-3182,-2027,-4743
66,-52,21,-2410,-3711,-5879
-94,97,-127,177,-234,-6084
78,70,-113,1976,1963,-5288
-47,-93,126,8897,4448,-5626
-117,34,21,-948,9767,-3154
-41,-15,-108,3178,8614,2863
-29,-39,78,-3165,-1208,12319
-24,59,-61,-9638,-8352,5184
-22,-13,-70,-3868,-7787,-1804
52,20,55,-2283,-2023,-5859
-80,-83,-46,339,1937,-6574
-61,-117,-95,585,4354,-6625
61,-37,-6,-315,8007,-6543
68,8,49,1406,13085,-6110
-97,-101,89,-2231,17150,1347
-120,43,-51,-5436,-9611,24614
-64,-78,-71,-6596,-9405,6114
22,-17,-82,5131,-14503,1661
87,-68,1,-2375,-2579,1145
110,-99,0,-1405,19,1376
-31,-26,-46,-2188,906,-29
-106,-54,-11,-565,2351,-421
68,31,121,-1128,3289,819
-1,-30,22,-3882,5957,2319
56,-5,-63,-6128,6788,3770
-77,31,60,-3574,2829,4302
111,89,25,1382,2535,3478
-111,-82,-126,-1742,1154,2909
-53,19,-111,524,2311,1900
-52,-77,-2,-96,707,1061
-15,75,11,403,611,1156
2,-16,30,394,426,342
1,-67,42,551,540,170
-10,-110,58,849,143,122
-22,-115,82,186,143,351
-25,-119,91,-516,204,-120
-26,104,104,-15,110,14
-32,84,124,383,133,314
-25,84,-125,112,305,201
-31,65,-126,264,111,-83
-26,77,118,-100,211,214
-27,79,106,-166,29,149
-28,81,95,69,118,24
-27,82,91,192,69,-155
-30,81,91,211,-103,-116
-25,92,96,-57,51,-20
-30,98,101,-61,94,-15
87,2,-45,-240,-3914,-4222
-127,70,103,-2631,-2540,-5596
127,82,119,-1156,-1149,-4719
80,58,125,6399,2513,-4426
42,66,50,5488,7586,-6265
126,68,-50,-718,11187,-2502
93,-83,-93,1928,4523,7103
122,-89,48,-8230,-8111,11795
-34,-33,80,-4860,-8015,792
-78,-15,-67,-1442,-4813,-4382
7,-52,-8,-2515,-1280,-5326
-68,13,-17,-820,1638,-5247
55,58,87,-938,3626,-4421
-79,-112,22,328,5268,-3530
-120,-37,95,3681,7636,-3186
44,91,14,1056,15591,1849
23,109,14,-2568,3255,19851
-122,-61,-64,-3871,-10526,10207
-36,35,68,1815,-9930,-291
97,-37,6,472,-5263,-387
40,-86,-35,-4783,-2653,2289
-126,-41,-36,-2613,-969,305
-39,22,121,-2585,-183,477
77,19,-42,-2090,738,541
20,-4,-115,-2153,1604,1126
-3,27,29,-687,4746,2807
-50,70,50,-2925,11239,4006
-119,-35,84,-3943,7861,6952
33,-18,109,-3080,4166,7187
50,-75,86,-606,610,3088
-79,63,-121,244,553,2714
-50,59,94,556,92,1969
3,21,43,1330,-349,-171
-79,-111,80,2236,-1302,-1324
-78,50,-122,1885,-1391,-1125
-82,16,-109,1431,-368,-1033
-86,0,-93,988,320,-630
-90,-13,-77,363,146,-274
-91,-25,-72,237,-383,-43
-83,-8,-76,-425,-390,-80
-88,0,-89,-847,-380,-294
-92,-34,-86,194,-120,-124
-91,-22,-101,446,364,324
-101,22,-124,-26,342,419
-81,45,115,-620,386,242
-67,44,100,-283,374,182
-71,42,84,255,269,27
-70,57,79,0,64,-179
-74,65,84,-360,17,-297
-76,68,93,-344,9,-270
-101,-96,55,-3890,3394,-3360
-124,-111,-56,-4111,2723,-5041
27,-16,-54,-1310,1011,-5668
91,57,-125,1180,-1761,-5366
58,-77,79,1629,1259,-6066
33,-97,43,3852,3204,-3758
-64,-50,-58,7899,6053,-1798
99,13,-101,674,9000,1373
-50,32,27,2307,4819,6205
-55,-3,121,-10391,-10098,11233
40,5,64,-3141,-7513,51
8,28,-52,-3043,-5240,-3979
-93,6,-21,-3825,-2245,-5112
115,126,-73,-1011,1379,-5291
-48,-22,-68,-3086,4309,-3825
26,-110,-45,-194,5111,-2801
16,-62,-45,-380,9254,-905
97,67,-79,2745,9517,1552
91,66,120,6055,14216,-767
-15,-84,-93,-2344,4286,16538
-11,27,111,-4638,-7541,12340
-109,107,-125,2259,-14006,5264
97,-96,-9,-65,-6599,3163
-113,63,102,-3408,-1565,2307
-114,-14,100,-2968,-1821,2159
45,48,-32,-1598,413,-127
-44,63,103,-2307,1366,401
112,-13,92,-1694,2938,593
15,-47,-93,-1439,5674,1186
100,33,113,-2438,9257,2426
57,124,109,-5695,12131,5021
-91,80,-86,-2674,7144,9162
77,90,19,-854,480,3090
6,-23,-90,-1404,-1048,2825
-91,-118,-93,-534,535,2007
-20,7,57,1132,761,41
-113,102,51,2602,-177,-947
-126,11,85,2750,-982,-1524
119,6,-119,1082,-1107,-778
107,-8,-107,-45,-147,438
70,5,-82,254,67,424
117,13,1,1088,-367,567
-128,-17,-36,1565,-111,205
119,75,-55,-868,53,1
-126,54,-108,-1545,790,-467
-128,-22,117,379,949,-274
-128,-17,101,893,536,-143
-123,14,120,112,-289,-101
-114,21,119,-201,-302,-12
-104,14,-126,149,-76,-61
107,-85,-47,-3357,1866,-2993
97,39,-50,-2977,1060,-3924
-97,99,86,-1922,-203,-3739
-98,-93,124,3515,-2004,-4478
76,-72,118,3176,-3445,-4697
86,16,-7,12456,6235,-8927
31,-99,124,2268,7895,-7577
-64,96,39,4064,9344,-1894
119,49,-52,-3668,-1348,15128
-31,-41,-6,-10733,-9901,9421
-127,90,42,-6143,-7173,-374
-125,-99,73,-253,-1352,-4864
-116,87,-18,-841,1758,-5789
55,32,44,-1285,5035,-6769
-21,14,-12,1646,6451,-7155
-22,75,-115,3505,8072,-7416
-60,-119,83,6548,15230,-11286
124,-47,-34,-6883,6125,18934
-8,41,106,-16782,-6580,19877
89,-10,90,4803,-11627,-372
-88,-12,-16,157,-6716,812
113,-106,43,-482,-3605,1800
35,30,-26,-1270,-2044,1151
80,-42,104,-632,780,239
-126,-88,-55,-1358,2118,-331
62,-90,100,-3203,3020,959
-9,114,112,-4608,5627,1703
5,-67,-93,-4634,7162,3083
127,62,87,-2782,6800,6103
70,-6,14,-2063,4851,7428
69,-47,-47,838,2743,5466
-114,-62,-13,-145,1764,2272
80,-41,46,2745,-136,1527
4,108,108,2163,-821,671
-6,98,100,588,514,352
-52,119,70,-1081,1310,41
125,93,54,-1046,349,-222
93,59,91,269,-755,-275
104,30,-118,1152,-1088,-460
112,35,-89,826,-964,-338
71,56,-96,-107,-284,-130
92,84,121,-1267,706,-391
114,65,90,-1043,789,-732
-116,44,81,2,331,-554
-125,40,96,832,-374,-300
-120,61,103,349,-342,-70
-122,88,107,-474,-48,-106
-115,84,98,-208,323,-11
-119,90,92,145,159,58
-109,105,86,4,158,45
-109,-39,-70,-5163,5407,-3738
-56,28,-31,-3225,837,-4471
91,79,-105,1122,-1409,-5837
-121,-21,4,-606,-71,-6252
44,-34,-88,1552,1537,-4451
-60,-107,9,11996,798,-5847
-21,-69,-78,2791,10449,-6243
-27,-85,-120,6026,9880,1022
-4,-5,-4,-2037,4193,9513
-97,-62,-28,-12730,-8298,10337
-89,31,39,-7977,-7169,-1040
-58,-10,-93,-4067,-3131,-4485
4,9,-37,-1393,-447,-5317
46,46,54,1787,2461,-6025
-24,18,58,2593,5140,-7481
60,-2,-6,5868,5959,-7865
-20,-106,-110,6932,11977,-11606
-112,-61,-39,-4906,20919,-3965
-87,70,98,-17859,-9086,27200
-114,-69,-53,3845,-11821,7211
20,-99,52,1019,-5470,2215
61,-46,-59,-3354,1049,2001
-95,13,83,-2174,-646,248
-65,-80,-120,-3255,1410,-12
46,73,47,-1769,1761,-352
-16,100,-81,-2527,2891,592
-97,-66,125,-2958,5395,1447
25,-113,24,-3593,6743,2730
-81,85,-39,-2047,4879,4244
32,99,-6,-4043,5562,3552
80,85,-110,-4908,2037,2737
96,-76,8,-720,9,2704
114,54,82,3754,-1700,2724
92,45,51,2607,-1235,900
47,-33,51,2305,-262,666
-18,-103,75,1804,135,847
-55,-118,71,797,29,170
-97,82,79,612,-352,-505
-123,56,109,-331,-502,-1014
-103,21,-121,-190,-317,-1028
-74,-8,125,182,243,-729
-84,-1,113,52,205,-197
-92,34,93,-563,148,2
-76,57,68,-769,261,-380
-51,49,67,-288,260,-374
-58,38,64,502,21,-27
-103,66,68,354,-748,324
-74,93,73,-120,-95,196
-72,101,65,-74,428,-64
-69,96,64,130,481,-225
94,-99,-2,-6133,1439,-3201
-15,-99,-95,-6816,6232,-6403
95,90,48,-1321,495,-4951
-54,117,123,-341,-4119,-4845
23,-38,90,769,-779,-6659
-98,-18,-42,876,1293,-5077
126,-64,-91,7171,5085,-5118
-4,34,106,2094,13193,-3338
-82,-41,-16,4638,8239,5262
-55,74,-53,-8685,-12806,18695
-33,82,-10,-9341,-7809,581
-27,-14,126,-415,-2693,-7059
-99,95,59,-2371,1492,-6246
-98,-39,-99,337,4378,-6272
-99,111,-115,2463,7340,-7006
-128,-122,43,-436,13532,-4224
44,59,6,3598,15362,75
-19,102,115,-4313,3982,18754
36,6,49,-15488,-13271,11130
15,120,80,11424,-12576,1315
-6,-9,-128,-6155,-7558,2880
-15,-118,-42,-4312,-554,1712
32,-72,-46,-1062,-963,-528
-21,25,-33,-1541,1125,422
-33,-48,-49,-4181,4250,1447
58,-62,-88,-2274,5817,1559
106,-12,35,-4088,6152,3604
-81,-115,-4,-1914,3422,4686
111,-37,73,-522,2163,4134
28,29,84,238,1643,3030
-62,13,123,437,2671,2468
-21,-60,-54,709,1594,2107
-7,12,79,2104,384,1242
-4,-90,112,2618,-117,1228
-12,-127,112,1642,-255,1253
-112,81,110,495,-13,179
111,43,126,-32,386,17
118,-1,90,59,790,-126
-102,3,88,181,260,165
127,4,108,731,-199,104
-118,20,116,399,111,-180
-106,37,-128,-648,25,-413
-96,1,125,-346,12,-220
-100,17,111,-502,24,-8
-98,26,100,-652,274,-172
-86,27,90,-363,365,-423
-84,17,93,164,157,-372
-84,29,93,242,12,-191
-87,43,91,-71,32,-114
-81,50,89,-148,185,24
-80,11,74,-3549,-1418,-3616
79,86,17,456,4,-4315
55,19,-117,676,2918,-4726
52,-23,67,4157,4069,-4849
83,-69,30,6688,8410,-5187
21,-85,-10,4347,10894,-1459
-58,7,111,2285,7699,5721
45,-26,-68,-6420,-8490,11168
-53,48,-41,-8463,-9497,986
-9,-75,-108,-3130,-4521,-5378
-59,34,-16,-3076,-1088,-5189
-61,-56,-99,2174,5290,-5477
70,-19,83,-1296,7371,-4758
123,41,-123,1451,8244,-5207
5,-80,115,111,11266,-3814
109,92,112,2041,17310,3385
-105,43,-31,-3429,-668,21505
27,-32,36,-2593,-10225,9848
7,111,-124,1379,-11315,6008
-73,24,-83,-1599,-2642,1725
-5,-59,-52,-4008,-1704,1762
-125,-85,73,-3805,-206,650
-71,95,6,-1658,604,-378
-60,26,-21,-1337,2455,-59
-109,-117,41,-3636,4801,880
116,-100,90,-2819,4787,2738
61,-121,115,-2571,6061,2036
-1,58,-14,-1187,4847,3164
-74,-85,-4,-577,3779,2043
-11,86,-118,1497,1801,1898
-20,15,-3,149,1206,2098
-6,-13,23,-633,1238,1694
2,-61,60,-171,985,1290
-31,-34,53,-549,541,642
-70,-70,40,-17,-89,-276
-84,125,81,891,-180,-528
-88,94,-119,452,-92,-483
-77,83,-92,-328,35,-638
-48,59,-82,-418,12,-317
-53,51,-92,-384,-20,60
-88,93,119,-872,-590,591
-89,117,107,-402,-57,-312
-60,95,101,760,541,-335
-72,79,93,815,-165,-28
-67,117,94,-685,114,-229
-65,105,88,-753,192,-222
-54,107,81,-129,270,99
-71,-115,85,131,73,61
-54,-113,84,335,280,-10
-49,-115,73,349,185,-192
12,-13,5,-2322,1612,-5123
-57,-50,87,2742,-51,-4826
-41,3,41,4352,1072,-5240
122,124,-28,5913,3367,-5147
-2,93,88,4785,6469,-2298
-120,-38,23,450,8463,1491
-69,59,96,-2360,1795,9685
-35,-12,15,-11053,-7339,8768
4,-14,-10,-9129,-6986,-3472
81,43,-95,2001,-2762,-7158
45,127,-36,-1875,132,-7620
-34,3,-31,240,2271,-6910
-63,-33,67,-5,5708,-6514
-1,-11,-72,31,9107,-3144
-28,-81,-33,5965,10151,-4182
50,-47,82,2973,16037,522
100,-110,-39,-3713,-3117,19809
59,63,-108,-2346,-9018,12136
-112,122,126,-1271,-7886,6696
-65,32,42,-524,-4222,2848
-80,-96,93,-1862,-1476,194
-114,-38,-19,-983,394,296
-73,-54,-93,-1738,1342,312
22,109,33,-2839,2333,733
-10,111,69,-3543,5362,2469
-10,20,-16,-4664,7538,3331
40,-39,-81,-4450,5425,5936
-4,-110,78,-2429,4660,6580
123,59,-24,-1773,2179,4687
78,-80,44,-1137,828,3818
52,-67,52,2514,159,1940
120,-31,127,6207,-792,1944
63,-72,125,6733,1360,2426
117,-81,50,-64,2585,-612
119,125,100,-1720,-372,-823
85,-22,-47,-52,-2442,52
-126,-29,-36,416,-689,-85
-106,-7,-59,99,976,-200
127,16,-61,-356,101,-283
-118,-5,-74,-155,-308,-232
-103,14,-78,-940,-125,-204
-103,-18,-93,-813,8,-669
-101,-35,-102,-211,113,-564
-85,-28,-118,61,157,-106
-105,-2,-118,-112,-107,279
-108,28,-124,-329,-10,312
-91,56,124,-292,216,82
-94,47,119,412,100,-87
-91,59,115,260,119,-165
-89,62,101,45,189,-211
-72,75,-112,-2445,-4163,-2071
93,-2,-2,-2824,363,-5744
82,78,93,1414,190,-4351
117,-20,59,3022,2135,-5352
-105,122,-58,6379,3505,-5399
118,47,-18,8500,8147,-6481
79,89,-84,1908,13062,-192
124,-27,29,-3777,1861,12022
-90,-75,-4,-8997,-8398,9325
106,-94,-66,-7969,-7167,-4550
10,-37,-11,460,-4291,-5447
72,-5,9,-1350,309,-6040
-85,77,-85,2387,3629,-6186
-43,-85,85,129,7137,-7559
80,116,-127,3337,9407,-7474
-91,-81,110,3285,14339,-9030
20,-27,-43,-8570,8330,19767
-79,-88,-7,-14631,-7148,13329
77,-19,-117,10678,-15407,5862
-30,-103,30,-4065,-9282,1578
127,-39,15,-352,-1102,1240
-57,-106,118,-2382,-364,574
15,27,93,-881,1109,1637
65,-128,29,-2063,1088,722
5,122,-56,-1658,3518,934
-49,-48,-115,-2892,7221,1589
55,112,-121,-5079,7101,4137
100,72,-21,-4699,3768,5369
36,-99,116,-3919,2696,4740
0,84,89,-1383,1232,3527
67,-33,124,22,251,1281
79,-120,-128,1219,-793,1462
12,28,86,1203,-764,511
-39,-23,78,382,-439,311
-55,-68,102,343,-503,645
-68,119,116,1493,-197,919
-70,-126,122,949,135,592
-80,-119,96,-151,501,56
-94,121,84,-734,280,-242
-92,103,81,-339,81,-167
-96,94,82,215,40,-120
-90,97,79,287,112,-226
-94,109,80,-148,31,-169
-87,112,82,-226,93,-184
-79,113,83,-75,124,-204
-79,119,81,-69,43,-169
-81,-128,82,-153,60,-161
-76,-128,83,26,186,-160
-71,-122,72,12,173,-81
-75,-115,63,-15,85,-70
39,-128,2,-2497,1927,-4115
111,-111,-81,-347,-696,-4605
-71,-80,-101,494,-444,-4761
-19,59,47,10022,-791,-5925
113,-101,10,12342,-1448,-14408
50,114,41,-2209,14124,-6974
75,-50,124,-1530,4257,14832
81,72,-81,-12363,-9285,11048
-90,-21,-95,-6101,-8315,-915
-21,16,-104,-3151,-1776,-5663
70,-18,-8,2622,1129,-7735
-1,-69,1,527,3865,-9804
81,-1,112,1511,8091,-8663
97,28,-127,8768,10110,-12325
17,-87,-99,-2871,12327,15506
-98,-93,66,-13466,-8167,18227
-37,58,101,63,-10944,3784
21,-23,-74,-546,-7510,936
-10,93,-109,-453,1031,-1829
101,-80,29,-95,-387,-1218
-45,50,-24,430,3090,-702
-93,-127,8,-2921,5392,-695
91,47,57,-2275,7516,-97
-115,28,46,-3802,6032,2437
-109,14,-48,1799,3108,2428
24,-15,124,3269,3854,994
34,59,82,-173,5095,-151
101,-119,-89,1680,5874,-151
-102,-28,84,385,3590,328
75,-49,-45,-1527,2123,-628
5,-45,-19,-2722,194,182
-27,-83,-20,-1966,-699,823
-46,-93,-31,-1371,-848,764
-55,-95,-36,-924,-418,21
-71,-28,-86,-1983,356,-490
-57,-64,-112,-916,309,-572
-70,-85,-111,280,-215,-424
-69,-66,-76,555,-519,-69
-35,-45,-95,-102,154,-199
-91,-10,-106,-691,-147,-144
-70,-8,122,-396,181,-85
-52,-12,113,156,340,-146
-52,8,92,104,115,-107
-43,37,82,-200,30,-68
-49,40,80,-174,153,-156
-70,42,68,49,100,-222
-57,46,58,-53,29,-327
-55,41,55,104,-78,-279
-49,45,52,56,22,-133
-60,69,43,-249,59,-227
-80,-109,-97,802,-2490,-6311
-68,35,27,1690,1146,-6352
-126,34,103,8269,7045,-7966
54,59,60,7167,6932,-6247
-31,73,0,2908,9747,-168
103,-111,-16,-9691,-1460,13969
45,-48,-7,-6393,-4773,7159
-43,-105,15,-3045,-6649,-3723
36,-31,-17,-3181,-5757,-4978
-40,-113,-38,-1568,-973,-7450
36,-111,-43,-1838,1682,-6506
-91,36,-45,816,3289,-5107
121,-100,11,822,6175,-5379
86,-27,-97,850,11931,-2777
-76,-101,-121,1827,14279,2050
-52,-122,-78,1494,8048,11475
-58,-116,-85,-13953,-7679,13281
-29,47,-108,4457,-4815,7711
121,37,33,-6660,-6733,3022
68,-12,70,-2225,-3405,1565
-88,2,-105,-1783,-2161,358
-83,-41,-23,-888,268,-260
21,-55,-70,-1290,335,-635
-81,-101,-113,-1709,1915,-367
111,-78,61,-3421,6206,48
-55,-55,44,-4469,7875,228
69,51,88,-1700,5647,3381
23,-64,80,-59,3588,2676
-67,-44,-122,1343,4252,2420
13,5,46,-1892,3905,2232
77,122,-89,370,1998,2313
110,-122,21,-908,1551,2513
74,-74,-19,-2280,1334,1325
-48,-73,-40,-1819,327,630
-91,127,8,-260,-311,69
-68,33,89,1432,-431,-770
-58,35,100,1135,-49,-812
-57,24,86,262,134,-614
-86,22,92,-588,-208,-40
-77,46,96,-1139,-103,-147
-63,63,100,-1104,78,-705
-54,24,98,287,301,-610
-54,48,82,523,259,-182
-52,80,60,-61,207,-128
-48,99,50,-181,157,117
-52,116,58,-316,66,85
-42,-119,60,-530,182,-108
-29,-102,57,-581,225,-320
-37,-111,55,-328,186,-430
-39,-120,55,-37,178,-272
45,84,-58,1499,-3929,-4411
15,49,115,2415,-3603,-6750
83,-76,-127,6406,-4552,-8257
-66,19,-1,6887,-614,-11936
90,45,104,335,6420,-10254
-87,-112,68,2071,9960,-1405
-21,-61,-28,-4986,9077,13476
42,-89,34,-9565,-4747,9013
53,-52,28,-5982,-6940,3840
8,-105,127,-5823,-4763,-2976
-48,10,49,-3225,-2556,-5565
37,-113,34,-3347,1203,-5554
67,-79,-30,-2214,7270,-5490
19,121,-95,2518,11540,-6251
-81,50,-38,9644,12008,-8418
-46,-24,21,-2660,11708,3536
37,18,19,-14198,-6832,19416
38,83,-82,3107,-10809,10299
-10,-36,8,244,-6845,3276
-65,81,120,-3749,1280,1436
-36,-89,68,-186,-740,213
21,-112,-120,-3119,2543,187
69,11,15,214,2168,-1422
5,60,-120,-605,4632,-960
-6,87,-59,-2284,6233,-1134
-90,-36,0,-4524,7124,1024
55,97,87,-5288,6367,2837
-52,-45,8,-3516,4924,4714
-3,-86,-68,-425,2083,2963
57,88,60,1300,1601,605
84,60,84,1435,732,267
7,42,99,708,-292,-25
-11,-5,-118,399,-665,161
-25,-23,-115,573,-510,-56
-47,7,-118,-260,-193,186
-70,12,-110,-619,-496,-250
-64,-22,-98,366,-382,-66
-72,-34,-94,963,79,-178
-77,-8,-104,162,305,-335
-95,-22,-126,-49,291,-388
-79,-34,122,141,-20,-548
-51,-23,109,-105,77,-353
-56,-24,109,-95,-179,-405
-66,-29,107,197,-44,-177
-65,-15,100,110,52,-171
-56,-4,94,333,24,-49
-51,12,87,18,33,-227
-58,29,81,-142,-90,-193
-57,37,71,-98,161,-139
-56,41,64,-21,109,-386
25,-58,40,-4157,1503,-2546
18,73,67,-5293,1018,-2554
49,-78,21,-3688,-973,-3136
-48,-15,-72,-2066,-2467,-4160
126,20,-97,1651,-183,-3995
96,102,126,6742,-1340,-5819
3,-3,98,7040,1878,-11604
65,23,-96,1307,10418,-7294
-24,38,-48,4274,12609,-11702
-22,-94,10,-5967,10123,9245
-65,-110,-77,-12666,-2811,23857
-109,-81,-103,-16798,-12622,10247
92,-104,51,1,-3586,-7744
72,31,33,-4868,-106,-4078
-37,104,-126,-149,3556,-9728
10,-89,46,-2764,6390,-11396
-55,15,123,2753,7569,-14229
-40,122,-83,1169,17684,-12476
31,69,-97,-6433,8449,17667
34,-36,119,-7681,-9460,20988
78,117,-94,676,-9494,4209
86,-32,9,-2427,-1734,201
109,26,-29,-1573,-1164,1949
44,-85,94,-1488,876,-754
96,64,60,71,3100,-1340
-95,86,-11,-1020,5154,-1228
-54,68,-49,-1137,6070,685
115,-58,91,-3251,6424,3598
10,117,96,-4651,6895,3450
-128,7,54,-2701,3353,3034
-2,-48,94,1576,1834,2699
3,82,118,4005,2912,639
-4,73,-11,1152,2331,639
13,-83,-14,-3655,1133,467
64,69,-127,-3856,1226,-445
62,100,92,-2470,-345,193
-7,-127,65,-601,-863,339
-41,111,60,714,-696,-934
11,79,78,1487,1115,-1203
8,64,117,801,1691,-1245
12,127,-112,-436,-9,-87
14,95,-115,608,-360,604
6,81,-109,1205,320,-30
-6,92,-116,300,22,-273
-26,120,-107,-899,-708,-75
2,113,-96,-511,-366,-309
-11,101,-94,594,275,-479
-16,100,-110,631,336,-263
0,127,125,-254,-9,161
-20,-107,103,-824,-539,329
72,-43,60,3671,2821,-4068
96,63,26,7814,6899,-4633
109,3,82,2612,9889,-4999
126,-18,-96,2879,9881,-846
-42,27,98,2428,4255,7548
79,-17,39,-13248,-14705,17721
26,-64,122,-8076,-12067,605
-12,-17,75,-5882,-5016,-3042
-116,-122,-71,336,2442,-4628
-75,96,109,1293,5078,-5452
-71,-60,-91,-113,7136,-7019
87,63,-78,2153,8119,-8401
-115,56,-107,9151,9464,-13846
-82,86,-122,-5660,15940,-7091
122,51,-12,-10210,4021,26034
-18,96,-33,-3012,-9544,13936
-20,-40,-39,4024,-11152,6054
-48,104,-111,-4404,-2203,4249
-112,-63,6,-1965,-576,695
112,51,58,-826,1398,-446
28,85,106,-1959,4314,-1203
-61,73,-106,-3594,5068,-1030
-91,-48,27,-3127,8292,-11
16,14,109,-5443,8604,2638
90,35,124,-4384,4737,5632
-56,-15,126,-3508,1377,5756
-20,92,40,-921,853,3624
-17,-97,-104,2005,505,737
38,-105,110,429,970,771
39,111,90,334,769,1684
-28,80,100,428,-98,1554
-94,123,88,-466,-536,197
-116,91,110,-89,-549,-512
126,-2,-114,1414,-275,-705
-113,-31,-107,1843,-22,-715
103,-24,-75,1016,-619,-367
112,20,-68,-724,-170,-156
121,4,-98,-989,427,-723
-128,-10,-119,-815,323,-837
-124,-33,-125,24,42,-548
121,-23,124,474,-44,251
-127,31,116,-590,59,218
-95,63,95,-951,409,225
-101,71,79,-498,334,43
-106,81,70,37,162,-135
-87,87,66,209,101,-332
-84,92,66,45,72,-274
-94,93,67,16,29,-275
-87,96,66,3,123,-277
-87,101,66,-44,56,-289
-124,80,-40,-2488,-4266,-5262
119,-7,65,-2074,-1870,-5335
-79,-30,117,658,1129,-5572
72,94,119,12807,4013,-7789
-101,-62,70,5181,10080,-10779
-114,-107,-77,5365,10978,-1216
84,-77,-63,-10688,1862,19107
-44,-54,-1,-13310,-5959,10562
120,-48,113,-3198,-7071,-3923
-88,-7,-31,-1434,-1945,-6963
81,100,-37,350,1246,-8236
-101,30,6,1296,2898,-10008
18,98,106,419,6389,-8486
-115,-58,98,5516,10250,-8439
-20,-6,105,-9623,26637,-4665
48,98,13,-10813,-11167,23427
60,110,10,-15416,-9632,870
-15,-93,-72,10698,-10953,2803
93,22,-61,-8649,-4482,1775
87,47,-12,314,-1904,1142
-18,61,29,-1435,-3,-381
-42,0,-101,-2491,766,145
-101,-58,-7,-2162,2892,852
-123,-50,-91,-3022,6753,1852
14,82,23,-5760,8644,3860
110,-87,64,-683,4299,4537
125,-66,57,727,3196,4373
-67,63,110,-1453,3848,3822
-104,-90,-11,-41,1357,2116
-125,-11,108,1739,-783,1442
100,-99,113,1694,-985,1719
38,94,-128,1338,-634,898
39,31,118,1503,639,876
-22,63,111,-373,922,-34
-53,43,115,-829,106,-695
-71,-28,124,496,-273,-485
-83,-6,127,754,-270,72
-66,33,127,-98,43,-134
-44,29,104,-521,423,-714
-52,5,102,35,77,-552
-82,-9,108,695,-159,-96
-87,16,-127,328,-88,97
-60,34,119,-98,315,102
-51,37,109,239,231,136
-57,10,114,828,-2,-91
-59,27,122,3,37,-235
-65,33,126,-391,158,-199
-62,37,108,-171,257,-34
-46,58,80,-366,281,-214
-47,69,63,-386,172,-285
-127,103,63,-3095,1148,-4703
85,18,-81,-588,-2430,-6070
-81,68,43,-427,-389,-6343
124,-105,61,1870,1245,-5412
-65,-59,75,6261,7575,-4627
88,105,-93,3758,11309,-2571
120,6,21,3875,7730,4780
-24,9,115,-6537,-4257,12087
3,-105,96,-9265,-7804,4925
-125,-7,43,-4286,-5814,-3838
92,78,22,-2407,-1777,-4282
10,-87,-79,2798,2990,-4909
-12,43,-39,1785,5852,-6333
-109,-60,-103,5218,3160,-5407
96,53,-82,4589,9045,-9914
25,50,-50,1751,12674,1720
96,-40,-8,-4671,659,23240
70,-126,46,-7853,-11766,5703
-62,25,-25,6917,-8982,-4206
10,-24,-51,-3547,-5461,5274
80,-60,59,-3415,-2114,14
-102,63,67,-332,-333,-655
85,-102,-23,-1330,1694,-403
40,113,79,-1687,3272,571
-83,61,58,-533,6207,1180
-26,80,33,-3765,10507,1745
111,38,12,-4851,8390,2952
101,118,-47,-4913,3435,6533
-60,56,-78,-3226,-34,2742
16,104,41,180,-517,1692
122,-13,119,2185,-638,2855
76,-30,99,2806,-477,2172
-10,-85,122,4012,-541,874
-114,37,77,5258,-92,-127
99,21,-68,2838,-474,-534
105,2,-52,178,635,-778
112,-20,-77,-2015,854,-385
99,-40,-116,-2006,156,143
97,-26,-124,-1334,-488,-38
96,13,-102,-783,-829,-344
125,9,-97,-27,-232,-517
-117,7,-114,349,426,-630
-114,21,113,56,436,-630
-122,22,106,-110,155,-228
-128,29,100,-144,-70,-174
-111,47,92,-303,86,-234
-105,50,83,-192,179,-216
-99,57,70,-149,148,-118
-116,83,69,-278,-120,34
-104,88,82,-124,81,-82
75,-73,22,-3546,3345,-1458
125,84,97,-3945,2484,-2045
38,-67,90,-2171,-418,-2091
31,31,13,-3487,-1597,-2713
-49,-60,-76,-1571,1848,-5396
-62,107,-79,3348,371,-5326
-48,-45,70,4974,1670,-3839
103,0,-10,10624,6039,-7185
-103,104,41,5517,9387,-6206
-78,-54,38,183,6827,4479
41,-83,-109,-7823,-9214,14484
-77,112,-27,-9527,-7376,2846
-1,-74,16,-682,-3068,-4420
-59,-85,101,245,2046,-5733
119,38,-116,4375,3550,-7787
20,77,-32,2926,5673,-11419
-126,77,6,-752,9272,-12993
-123,-74,3,-1808,15217,-4266
42,23,-101,-15078,-6249,30001
59,16,101,-13998,-2386,9743
-104,111,-50,8840,-14299,-1688
94,-35,-127,-8140,-6080,3489
110,-32,-7,-4471,-1783,-49
101,57,38,674,-793,-3245
8,-86,-121,-355,239,-1350
-115,-101,4,-1648,3099,-420
-120,42,-97,-5617,5263,934
-100,84,39,-4565,5219,2791
58,-14,-34,-2843,5204,3083
77,-72,-16,-2463,5364,4528
-7,34,95,-3665,2628,4841
117,116,69,1568,-182,3781
-74,99,94,134,-792,2042
107,20,78,190,-381,1606
47,-48,99,-28,-248,859
20,-97,102,637,93,663
-33,-113,81,1190,41,48
-79,112,75,1378,-131,-329
-73,99,89,781,172,-203
-72,87,72,469,427,-423
-70,75,63,521,331,-415
-61,56,66,547,-578,-291
-82,30,72,740,-844,-373
-97,26,97,504,-565,-639
-68,18,113,66,151,-637
-72,14,93,81,401,-608
-80,8,83,183,-132,-475
-65,37,82,-87,136,87
-65,68,85,-518,509,-65
-68,73,70,-602,-17,-391
19,54,70,5715,-769,-5683
-69,-46,-9,7405,3607,-6587
-48,72,-111,9120,4418,-8134
-128,-50,-72,1340,8806,-4825
61,-27,-111,1838,6923,3635
-123,-71,-25,-9402,-3463,17404
-87,55,-7,-13507,-9239,3556
-4,-31,28,-2154,-5913,-3978
-37,-67,59,-1564,-257,-6212
108,-27,91,630,1769,-6048
18,-27,84,2421,4136,-8530
-98,125,-20,2160,5922,-9187
-63,0,72,8100,6610,-10157
-61,-36,25,-8408,17698,-155
117,-110,127,-8362,3118,22358
-34,-48,66,-3004,-7613,11321
30,15,-100,-3819,-6019,4612
123,-30,-91,-991,-4311,552
56,-78,42,-1928,178,-706
-4,66,-100,-1431,1686,-1282
107,82,-19,-2360,4066,-838
84,15,69,-1614,4853,265
98,79,27,-2093,7001,902
4,-106,108,-4495,7861,2567
-98,46,-118,-4386,5720,3647
-39,59,102,-694,1807,3073
-104,-26,29,-305,1379,2182
-83,-43,55,-623,1065,2734
-86,-99,97,-257,739,2713
74,-44,92,-567,344,1757
-56,-58,78,216,-466,-36
-82,91,-120,2096,-751,-569
-79,11,-105,2346,-298,-759
-89,8,-111,678,-74,-949
-81,-1,-117,-719,-102,-915
-80,-16,-128,-1181,-430,-760
-70,3,-121,-1343,-515,-765
-65,20,-120,-1440,-231,-783
-74,59,126,-1656,232,-460
-81,50,111,-25,349,195
-72,74,89,733,69,268
-54,108,73,557,212,335
-50,118,62,77,309,36
-56,126,53,-266,229,-112
-54,122,55,-159,146,-99
-56,119,54,206,145,-122
-49,124,50,206,147,-174
-63,-121,57,-8,-69,-155
-49,-122,70,55,140,-238
-42,-127,69,133,182,-302
-84,-33,-34,-3347,4406,-3820
10,55,102,3364,-1425,-5989
-11,-57,58,193,-4506,-8635
-74,55,-5,4372,-954,-7672
-74,-127,73,12196,4030,-14177
110,-30,31,-5460,6956,-9378
79,-64,43,2714,9287,1064
-31,27,115,-10777,-2108,23146
44,45,121,-14615,-10770,6267
5,10,-92,-275,-3940,-6905
-79,-98,94,-581,972,-7723
-24,122,-107,2713,2098,-9349
39,67,-31,-742,5580,-10200
66,114,60,-533,8947,-8800
125,-79,-16,3017,11253,-7599
-99,-114,31,-3868,11645,18757
-57,-98,-88,-18099,-6013,16748
55,-101,42,6146,-10044,1059
-62,90,-63,-1958,-4532,2201
-75,-35,33,-423,-2069,221
122,-23,90,-2887,604,525
59,-123,127,-1167,944,69
-11,-117,7,-31,2749,-746
-93,-99,-68,-1038,5828,-451
27,-34,55,-199,5965,607
-14,-30,115,-2124,3622,1612
43,-79,-46,335,3276,961
-93,-53,49,-1515,3197,530
-53,112,-113,-768,3182,940
-12,72,-50,-1434,2670,1423
51,58,0,-1984,1976,1921
26,78,103,-274,-906,2548
12,-124,103,-83,-110,1006
5,-64,47,-1133,915,-113
-31,109,67,34,186,101
-24,120,52,-1194,119,-263
-26,-111,25,-2489,130,-556
-54,99,50,-741,-250,-418
-64,79,66,785,4,-224
-86,66,58,1439,231,-191
-46,98,57,534,388,26
-17,106,50,-327,333,-135
-36,102,55,-577,-146,-480
-36,97,68,-435,3,-522
-40,91,68,-238,163,-440
-44,89,78,325,-5,-78
-39,97,85,520,63,114
-38,114,79,350,295,134
-37,-124,62,-313,410,0
-33,-114,49,-562,347,-97
