AccX,AccY,AccZ,GyroX,GyroY,GyroZ
-98,-34,-112,3710,3343,-5609
-58,106,-115,5462,5607,-4534
78,-75,70,3375,5442,-4502
-65,80,0,4935,4011,-2382
118,-69,28,-4489,2854,1288
-108,-38,34,-697,1998,5654
-55,-57,41,-5857,-1626,6547
-104,-111,117,-1480,-6179,6199
77,37,-39,-2006,-5806,-1448
-1,86,22,5555,-2302,-3674
63,8,-122,-1780,-2943,-6258
104,56,-106,-338,1319,-5397
48,-28,-1,2064,5393,-3748
57,52,122,-2059,3744,-1577
-106,22,-50,-1573,3685,3477
-93,-7,-115,-2417,3263,4713
107,-19,101,-3976,-479,6806
51,-16,75,-2404,-1996,2697
-114,-40,66,-3828,-4026,1940
-113,-70,-108,-2954,-7368,-31
-73,33,-71,-3606,-9409,-641
5,63,19,-4037,-7979,-962
-35,78,68,526,-6339,-2271
51,-123,9,-1232,-2909,-467
-122,-17,-25,-739,-3976,-515
-121,-110,-59,-319,408,-200
9,-48,106,-451,-901,105
-10,61,67,-1041,633,573
-35,115,107,-492,358,1794
-46,-26,-119,-1713,1275,2048
54,48,24,-2917,2372,1916
113,76,-64,-1077,1874,2377
-43,13,127,-1130,1970,2543
27,87,66,-685,1781,2887
-99,7,-6,60,1573,2279
-86,17,90,41,-4,2849
-113,-33,87,620,1404,2309
-14,-109,87,1386,1397,2379
-84,-32,-105,-698,-19,1585
-24,110,-114,1903,852,1766
-59,12,-121,3085,502,1268
-70,23,-94,1132,332,785
-93,-53,-91,599,-294,214
-108,-103,-42,448,-391,-166
-115,91,-26,403,-231,-238
-96,58,-19,153,-181,-276
-73,68,-28,-389,-613,-469
-71,54,-21,-389,-601,-555
-86,28,-15,-310,-629,-524
-81,15,-13,-45,-349,-579
-22,19,-65,4109,3524,-4953
64,61,125,5100,3145,-5015
113,87,13,2553,3538,-5050
111,96,-119,3493,2466,-1999
123,53,46,-1645,3598,349
8,38,97,-3372,2603,3114
-81,103,23,-3134,1721,6998
-85,126,-109,-696,-3584,4677
24,-85,-42,-1848,-4176,3788
-69,-124,27,253,-5441,-1911
46,7,52,911,-4709,-4269
-50,-98,-56,-628,-3073,-5261
-78,30,64,-955,548,-5046
75,-54,83,583,3318,-3687
-56,89,-86,-859,4077,-2585
-40,-38,127,-2646,5626,743
74,-37,-92,-2800,5568,3229
91,-105,22,-1226,3296,5598
14,-14,-95,-3205,-287,4070
-36,-114,-96,-3088,-2844,3320
-29,56,119,-5082,-4599,1667
100,76,-38,-2470,-8494,372
52,-27,-25,-4946,-9503,-771
25,-75,15,-1131,-7975,-3047
38,-104,-2,-2058,-1716,-1826
-5,47,-123,-222,-2113,-915
73,-116,-10,963,-277,-666
117,14,-56,-896,-238,390
53,69,66,250,-652,313
82,-127,50,-577,324,260
89,-106,124,-1284,-424,1676
78,-112,114,-1519,1665,1940
-84,-36,-70,-3022,1411,2288
-35,74,-114,-1791,1139,2135
63,117,52,-762,2503,2261
92,-8,52,94,1128,2162
-125,62,29,180,786,2529
-63,-72,-8,2883,1268,2243
-111,99,37,-452,425,1918
-61,-28,12,-24,1258,1055
119,-64,45,654,841,1641
-108,-19,-127,-47,723,864
-96,-49,126,281,776,845
-119,-88,-78,1371,338,508
-113,-93,-62,626,119,442
-111,105,-59,786,145,305
-117,98,-38,117,-207,108
-127,92,-43,-544,-448,-203
-110,58,-23,-166,-510,-435
-100,22,-25,-31,-423,-575
42,-126,7,5645,2011,-4564
76,57,85,4844,1346,-4935
96,125,-13,1028,1795,-4926
-127,88,112,2262,3108,-2799
28,-78,-47,1187,4003,-258
89,-76,107,-2251,3945,1675
67,100,-68,-2927,4270,4853
86,75,-35,-7049,-302,5029
-35,-77,-70,-3646,-3661,4068
-115,-54,-14,1120,-7136,1688
35,114,65,1394,-7105,-2918
9,19,-42,-2054,-4584,-4072
106,1,-49,-1100,-1132,-4695
-87,29,-14,-297,2368,-4090
116,24,-89,-288,3756,-2711
55,-77,48,-1385,4581,200
103,-81,126,-1202,4426,2110
124,118,-38,-314,4653,3785
-20,69,-39,-1861,1207,4196
101,-39,-10,-864,-1210,3464
-60,51,-100,-2698,-2358,2595
-54,95,94,-3069,-6096,1098
-28,57,-126,-2501,-7835,515
40,-53,93,-1124,-7764,-943
31,-66,100,1601,-6176,-1039
-114,-78,-104,-1679,-2781,1128
-33,-51,-95,-188,-1587,-136
15,-13,1,267,-797,245
120,29,-128,-734,477,397
-2,-107,-67,-398,370,204
68,108,-57,-1393,695,659
69,-107,-32,-3546,1004,1075
125,-20,96,-2318,2029,2272
-99,-16,-26,-4442,1956,2400
-71,-45,-127,-2591,1708,2521
17,22,92,-4898,1575,2420
116,109,47,-2457,3071,2681
-68,-117,-115,-3535,-174,2454
10,111,30,698,-1070,2553
-37,57,75,-346,-1201,2915
-6,6,-117,832,-84,702
-91,-27,94,2287,-632,1616
-107,-48,66,1772,-58,851
71,-128,20,1107,81,442
89,49,-5,1154,116,164
106,-1,-19,1106,239,-253
125,-70,-26,876,-29,-366
-111,-101,-37,461,-124,-614
-103,125,-29,64,-408,-757
-98,73,6,220,-280,-744
-111,-52,-59,5781,3975,-4941
67,-84,113,6598,1381,-4911
45,-117,13,1377,1275,-4887
73,-65,-67,3522,2952,-2009
110,2,29,-779,3868,135
41,-105,71,139,4411,3831
117,102,50,-1793,2731,6281
-60,97,-60,-4538,-1055,7866
42,24,64,-2882,-4758,1439
-27,-112,16,3148,-4915,-1871
122,59,-42,-2940,-5237,-3452
-28,35,12,-1976,-1830,-4357
80,30,-4,1288,882,-3744
-16,-27,69,1330,2678,-2689
-18,112,125,-303,3894,-759
87,73,100,-64,5396,871
92,-11,-104,535,4508,3194
-46,34,-93,-4470,3077,3872
108,-127,-64,-382,-275,2635
-57,28,-42,-2057,-5586,1545
88,-99,-16,-8305,-9950,4084
-30,68,103,-1900,-8929,869
-25,3,66,-2747,-6436,123
21,43,-58,-1022,-1244,262
-15,-35,-86,94,-1875,-209
-85,111,6,-40,-53,-381
61,121,116,-323,815,-332
45,-112,-70,-405,828,-397
23,-79,124,-1104,191,563
53,117,-109,-938,1731,154
80,-119,53,-4142,1835,241
-94,106,-21,-4799,2114,958
-45,-64,116,-3720,1820,1501
16,24,-78,-311,1216,2140
86,102,102,-1291,2258,2162
84,13,76,-1379,744,3205
-118,-87,124,-1433,-40,2142
-72,114,46,149,1430,2052
118,84,124,1846,-63,2244
114,66,-76,1022,134,1538
127,47,-79,723,762,1309
126,34,-1,875,-186,1090
123,-2,-34,803,179,225
106,-17,-38,-33,-294,-70
92,-115,-30,231,-518,-237
89,117,-18,73,-530,-415
104,66,-22,188,-236,-413
111,39,-27,46,-488,-469
92,35,-20,-239,-526,-383
91,21,-22,-306,-307,-274
50,22,-105,6286,-3976,-4178
109,22,82,3443,1494,-5280
12,-87,35,5340,-1382,-4972
-11,-48,20,1528,890,-5495
-64,-99,35,3915,2410,-3154
-2,-43,103,-647,5382,-680
124,-63,-7,-4716,3800,2391
60,-48,-27,-1327,1580,7689
-22,-28,-94,-5596,-2046,6532
54,112,-32,-2280,-5411,1065
-112,-66,-94,2389,-4420,-3859
-113,-32,118,32,-3223,-4209
85,106,93,-51,-575,-4904
11,-70,-45,1261,2546,-3647
23,-116,4,1327,4327,-2178
75,-34,-9,-82,5014,-87
0,-34,-45,-799,6301,2521
-19,-30,63,-2953,2937,4860
-42,-87,85,-5132,-358,3311
-22,24,80,-2898,-3670,2133
-87,-102,-50,-6592,-8015,1444
-3,-33,39,-4030,-7527,-864
-90,-75,-53,154,-8843,-2112
-46,-29,-55,-1543,-4735,-99
-88,12,47,-1809,-1901,196
48,-60,-63,-505,151,-379
41,32,-96,-48,-304,230
-52,-90,-88,288,381,-248
-53,-47,-75,-828,1083,-282
14,-64,122,-1926,798,303
58,116,-113,-2119,2004,1175
34,-61,33,-3231,1658,1422
118,-9,-70,-3213,1550,1709
-76,77,116,-2406,1213,2029
32,-114,126,-220,1357,2266
68,23,118,-178,766,1892
107,-35,-120,883,563,2618
-109,-107,111,-2196,1082,1548
104,111,89,-193,26,2457
-96,-119,-65,2061,101,1518
-116,35,-109,3163,994,1385
-114,-1,-116,1541,594,1216
111,-46,-102,662,658,1054
125,-55,-69,658,477,1007
-122,-79,-55,534,-61,619
120,-77,-52,5,-454,407
112,-96,-21,-309,-919,-88
94,-104,-14,-781,-493,-706
116,98,-3,-221,-347,-915
117,46,-4,116,-354,-619
-55,0,122,5000,1477,-3422
-116,33,-51,7781,-1302,-3605
30,-95,-56,4670,-557,-5534
-35,-74,-73,3658,-682,-5111
-51,101,8,2995,2609,-3086
41,-45,-77,1893,4732,-692
74,73,-55,-580,5295,2656
-14,94,41,-1944,4516,5894
120,66,-96,-5927,190,6462
-67,-100,-111,-281,-5887,1044
101,101,89,-2037,-5678,-2066
79,-109,126,-1753,-4259,-3619
-125,-94,76,-1129,-1188,-4772
4,-101,51,912,2399,-3966
-9,96,20,901,4275,-2380
12,45,17,-619,5326,-26
-84,-19,-84,1676,5613,1069
61,-48,15,-264,2176,3295
33,22,-60,-5953,363,3544
-64,-125,3,-2637,-1384,3306
42,-121,116,-3721,-4254,1286
-76,73,-91,-5132,-8184,863
-39,-27,-105,-3426,-9594,755
-33,63,-71,-3051,-7305,-389
24,-32,70,-2846,-1928,212
-29,51,60,561,-1478,-210
-111,-7,26,-1246,-726,709
11,120,-102,-131,384,105
-35,-11,-13,-424,462,69
0,23,-127,-215,320,112
41,-48,124,-1432,1175,699
17,-59,72,-1899,904,1497
45,-25,23,-3722,1524,820
111,-20,-72,-3286,1560,1783
-121,96,125,-1814,1777,1198
-37,-2,-62,-1537,1609,1164
20,22,-85,314,399,2465
4,-61,-85,-1375,-131,2134
75,66,-117,844,554,2090
69,-103,-86,-388,-11,2169
48,102,-59,946,356,2116
-120,86,-59,2153,346,2028
108,81,-72,1289,559,1082
111,101,-70,-125,-49,725
63,27,11,164,-336,436
83,-9,28,890,-14,150
80,-82,8,973,-136,16
92,-115,7,301,-245,-475
90,95,-8,415,-275,-262
90,73,-22,-142,-219,-298
91,83,0,4041,-5412,-4155
115,-16,-43,2845,-531,-4945
-122,-58,-16,3801,-1051,-5535
92,-123,-87,812,2400,-5264
-93,-97,49,3536,2883,-2823
67,-61,52,1608,4701,-1202
-61,-98,-97,-1377,4542,1954
118,43,-85,-1691,3066,5818
86,6,-117,-160,-615,9007
-34,63,-99,-5543,-4678,3084
118,-59,-91,1223,-3686,-2918
-119,-14,103,1231,-2147,-3398
91,-35,103,-2006,-1864,-5377
-25,-63,80,-101,898,-3944
-128,-111,-68,1122,2578,-2210
71,-38,2,989,3481,-106
-75,59,98,119,5034,1916
55,-125,25,-2145,4556,3378
50,-41,-115,-4107,2316,6747
70,53,-84,-1644,-1305,1446
-18,5,71,-4257,-2765,848
95,87,-124,-5812,-6569,-2486
-86,91,118,-4762,-7348,-1474
108,54,107,-2490,-8414,-2910
122,8,53,-1665,-5308,-531
-123,-89,-115,-1884,-2114,-203
-39,-83,-7,252,-429,-449
20,-122,-15,-618,766,86
-56,28,2,77,314,62
-56,110,85,143,1426,-912
-34,27,80,-2149,484,-132
41,10,103,-4985,2442,262
22,116,-69,-1955,941,1877
101,48,-39,-2876,995,1480
-17,-57,120,-2699,1852,1507
-2,-6,-78,-750,538,2082
72,100,-70,-245,-36,2738
111,-63,-50,239,-265,2430
-124,-57,-72,85,281,2169
-110,-107,-78,1850,508,2215
-101,120,-106,2718,-287,2489
-126,-125,-78,390,125,1298
-95,73,-104,-6,653,1282
122,21,-64,1042,-409,1344
-106,45,-48,827,-130,611
-127,1,-19,901,127,190
115,-50,-29,810,-301,45
97,-75,-26,41,-343,-203
117,-123,-26,-351,-336,-575
119,88,-35,206,-166,-601
103,0,41,4573,-4560,-4283
83,-89,-4,3669,-499,-4093
95,-102,-112,5095,-1280,-4353
118,-14,-75,2272,420,-5148
-4,-109,102,2058,1328,-4312
117,-40,-75,3501,2928,-1927
-89,-87,-99,1438,4303,670
52,-48,-5,-1723,4992,2903
29,91,33,-3118,2913,6474
79,39,72,-2808,-3329,7410
-94,-86,53,-3831,-3485,903
101,53,65,544,-5395,-1868
9,122,-118,-1915,-4460,-4336
90,-54,-30,-2900,-2365,-5100
-18,125,-23,414,613,-3910
-75,18,41,324,3284,-2975
110,-85,76,52,4016,-1383
-54,-108,103,-657,5189,923
125,124,-77,-1092,6241,2511
-95,-100,-128,-1271,3207,3855
-55,106,62,-1404,398,3000
21,42,-18,-3529,-2010,3368
-62,110,103,-3709,-3175,1516
-81,-9,90,-6895,-7590,741
-60,66,-79,-5920,-8984,-178
124,56,-61,-4480,-5517,-3077
66,48,-54,244,-5665,-565
-74,15,65,-1930,-1124,-383
-61,114,36,150,120,227
45,118,74,-52,-177,237
-45,1,-70,-373,737,222
-61,110,86,68,1126,-412
-2,59,71,-607,945,-388
55,22,122,-2063,1752,585
115,-36,9,-2888,2812,1332
113,94,-98,-4476,1287,2039
-8,-82,63,-4056,1480,1112
27,17,-123,-987,-193,2951
68,-55,-79,-2348,-84,1826
-115,-19,-23,-614,448,2213
121,-40,3,2155,-681,2876
-84,-55,-13,1038,-918,1706
-75,94,-82,2191,135,1580
-91,61,-92,1939,343,1683
-67,61,-68,1159,198,1392
-57,6,-90,1614,598,1193
-84,12,-52,797,-466,453
-123,-58,-67,1010,-538,127
-113,-69,-48,-15,-275,-232
-125,-124,-38,392,-364,-542
-44,-76,-7,3106,-7565,-7423
9,5,-38,3654,-5000,-5880
92,-98,101,2594,-1998,-5691
-118,7,-92,2584,1059,-3607
-44,-32,-117,2031,2674,-1990
-27,111,77,1695,5486,850
122,79,69,888,6197,4540
58,62,-36,-760,6250,5507
-87,61,-8,-7280,-2810,2078
113,9,-95,-152,-4159,2053
68,-120,94,-3101,-5375,-2930
-37,66,73,728,-4378,-4028
44,61,117,-2116,-438,-4378
-2,54,80,-185,2108,-3637
36,98,45,2297,5144,-1687
-105,45,-49,1411,5493,-113
-44,90,36,2536,5694,1796
-74,-85,-113,-3926,4758,1593
97,-90,-57,-4595,1030,3768
-35,-94,-9,-4533,-1495,608
-126,8,89,-3402,-7740,-121
-72,-47,36,-7109,-9286,267
47,34,-81,-3810,-8181,-1437
60,-113,11,-2128,-7785,-588
46,-6,-27,-962,-865,-571
24,-29,86,-906,-767,57
-6,85,112,891,-105,280
-125,-114,-23,-273,718,-204
-85,58,-33,37,1032,-446
19,76,-98,-2194,1833,-484
-8,-20,61,-2649,710,1098
-5,53,84,-3124,1057,1247
-11,120,-9,-4377,1638,717
34,109,-11,-1131,1015,1329
78,-6,-11,-903,1315,1880
102,66,-30,839,1014,1949
-61,-98,-78,-394,1547,1914
-18,-104,-113,-114,1066,2046
-3,-109,-75,54,350,2538
113,11,-94,-980,490,1757
72,-52,-41,647,-172,2180
120,-71,-14,1342,-423,1580
123,126,-30,1971,112,1159
108,-103,-11,1018,339,918
110,74,-43,1071,-27,713
102,65,-30,195,-550,24
102,-5,-34,-185,-257,-446
97,-37,-25,-241,-403,-565
107,-83,-12,201,-257,-531
122,-106,-19,-24,-210,-576
24,-7,69,2767,2202,3890
74,50,96,-1647,-2079,-952
111,68,64,1793,-3469,-5007
73,-15,-113,5978,-1689,-4662
38,119,55,4681,-2647,-6020
12,72,-118,1688,122,-5765
68,100,44,3211,1794,-3004
13,47,-125,1114,4279,-965
89,-67,84,166,4456,2163
92,87,97,-3236,4790,4128
-72,-50,88,-3657,2652,5853
92,-76,-10,-3653,-1861,6366
0,-6,-65,-2373,-2126,-168
120,75,48,77,-6708,-1728
-127,-109,-88,-1349,-4645,-4894
-86,-80,46,-1693,-1941,-4928
-117,39,1,1830,1213,-3981
56,-100,65,721,2860,-3314
50,-20,-4,448,4420,-963
-56,99,-52,904,5789,1167
26,-104,-99,-105,3842,1856
-61,-100,110,-1925,2543,4167
82,-91,117,-2659,-1053,2791
-30,-90,111,-5040,-1493,2102
117,-74,-105,-6304,-5905,125
-92,-72,-31,-6900,-8199,-1473
94,94,-120,-2421,-9910,-1581
106,72,67,-1686,-7678,-1130
19,-20,-78,-1128,279,-337
-21,-59,116,-2170,-982,639
58,76,62,-245,1202,-144
-122,-19,29,-83,-370,609
-94,48,-17,46,835,-128
-80,16,-6,-375,1860,-121
66,32,98,-2612,3538,-436
31,25,23,-4922,2235,-163
42,-11,-40,-2343,934,2342
-112,-57,-53,-1661,388,2796
124,-113,-33,-1042,-336,3116
27,97,-72,1557,2015,1696
121,-83,55,-534,1166,1982
45,77,81,2564,144,2146
52,-83,-89,1063,-1148,2028
80,123,90,488,1394,1093
111,72,112,1128,1148,1674
84,83,111,1734,418,1577
109,107,-83,316,106,1003
95,37,-88,14,235,376
47,-24,-23,819,-1033,55
42,-45,-49,1012,-483,98
-69,-111,117,5214,-1973,-3742
33,-71,44,5801,-405,-3506
73,20,40,6358,-1344,-6128
47,-13,-18,4769,-1248,-5742
-72,-39,-1,3801,2422,-3166
-115,-22,-88,1138,3880,-551
-62,3,-67,507,4113,1489
94,61,-116,-906,4655,3246
16,-125,127,-2356,310,5753
122,34,-23,-6775,-1425,5340
-2,69,27,-5446,-3646,412
-100,-28,122,3883,-1818,-3955
72,41,-52,-356,-4908,-4366
-51,79,-116,-1466,-797,-5420
8,-114,59,632,1249,-3620
-83,-70,44,10,2809,-1964
-57,87,53,74,4156,-16
-13,23,55,-170,4414,2016
80,-91,17,-979,4491,3025
-1,1,7,-1851,1812,3803
76,21,-30,-2848,-335,2634
15,-41,89,-5803,-3560,2393
124,126,-127,-3365,-4167,-854
7,-101,12,-3844,-9656,45
-119,106,26,-5135,-9874,-637
-111,44,125,-1093,-5767,-576
78,10,-1,-1152,-2380,-66
-100,-106,76,147,-1683,168
118,67,39,-717,-180,359
-54,-35,-121,-143,-113,483
-31,37,12,-690,1573,-380
-14,-10,-111,-467,485,-180
42,-17,-128,-2853,1633,846
-2,-77,70,-2230,1326,1641
49,30,-19,-3549,1668,1989
113,117,123,-2700,1457,1821
-124,-64,-96,-1510,1670,2008
-53,32,-91,618,367,2620
25,-90,-121,-131,722,2103
61,-37,121,155,668,1751
22,-82,-102,1422,116,1930
43,-93,-84,1198,549,1468
37,90,-104,1317,1105,1149
65,25,-70,1933,460,1810
91,15,-107,1303,345,1204
89,20,-65,264,-248,861
109,-40,-64,215,-8,442
87,-48,-47,57,-250,-14
81,-95,-47,254,9,-311
107,-105,-55,-119,677,-1196
-87,88,62,3193,1685,-3443
-85,-82,119,5159,-304,-3610
-51,102,119,1946,1161,-4923
-42,18,77,2757,2575,-3786
-105,102,-64,3014,2463,-1659
-88,43,92,-1141,3916,415
-12,73,-127,-836,4048,2834
-37,-28,-111,-1456,2826,5525
83,107,-25,-2918,-3404,4981
-25,-113,-99,-4639,-3615,3367
1,96,46,-495,-4674,-1240
37,65,-45,741,-3798,-3754
101,-27,55,-752,-3795,-4404
-108,-82,14,-1855,-355,-4606
-35,22,100,873,2962,-2922
-58,-59,88,-78,4545,-1634
13,-105,-102,391,5645,423
-77,-93,-79,-805,5788,1796
32,-110,92,-1158,3835,3831
59,-127,-60,-4070,1108,4338
33,-69,-86,-3474,-798,2849
86,-20,48,-4435,-3152,1060
-85,-49,54,-3639,-7028,-1187
24,57,5,-3524,-8980,-1900
-98,60,94,-1809,-9405,-1208
-89,49,-26,-2395,-6154,-273
-40,-124,-102,-1855,172,-129
52,112,18,-403,-1918,-71
60,61,-27,-449,703,-138
-30,-60,-11,431,-1133,369
-70,26,-20,-78,1459,-189
-33,-5,84,-1082,763,-66
-14,-28,-120,-1972,1087,-37
17,-49,16,-2364,1857,1294
67,55,-67,-3213,1504,1928
-126,91,-121,-2637,1252,2473
-38,-20,83,-893,763,2413
-30,-118,125,-1794,80,1849
-8,112,-97,-139,615,2398
23,-118,-86,1269,338,2524
99,-42,-81,537,747,2226
104,-124,-124,2300,978,1562
111,101,-105,1741,269,2177
112,42,-89,1728,171,2058
124,83,-83,878,65,1582
116,74,-62,419,-26,496
90,-17,-36,872,-206,237
82,-91,-25,810,-52,-127
103,-127,-40,547,50,-399
109,82,-41,451,-224,-567
-33,6,-63,2978,-1457,-4506
76,-86,33,2883,-677,-5553
63,-47,74,1053,1608,-5475
121,100,58,2434,1817,-3369
-43,60,-55,1943,4452,-504
-104,83,-3,1106,4336,1604
60,-52,-46,-2433,3943,3813
-86,-78,-106,-2077,412,5995
-63,39,48,-2681,-3700,4912
-90,2,101,-3054,-4775,-292
125,75,-97,-3843,-5082,-3171
11,-71,-90,5345,-1278,-4466
119,26,-25,-422,-1460,-4902
-39,17,-120,434,1654,-4274
-81,38,-108,1633,3670,-3082
-42,-83,-62,283,4267,-1843
41,107,-103,-677,4586,1048
44,119,8,-1191,5098,2269
62,68,-109,987,2555,4445
-76,-41,86,-4003,262,3514
14,-104,0,-1763,-2422,4223
-68,16,-34,-5886,-1657,448
-96,42,-108,-1401,-5100,-1213
48,84,-5,-4720,-9949,-2556
-8,-77,-44,-2315,-8706,-788
-28,-19,-119,-1345,-5247,-221
-37,100,10,-2186,-1379,233
-68,65,-45,-21,-916,472
60,99,-125,10,266,381
-20,-31,-73,330,-192,621
-21,86,110,-575,1283,391
17,69,42,-1666,429,530
46,19,28,-2207,1501,872
60,8,-24,-2010,1356,1236
114,28,-111,-2904,1490,1581
-118,-47,118,-3949,673,2179
-74,120,-103,-4068,-590,2861
7,99,-94,-4794,162,1719
-4,-28,124,894,-1256,2577
56,-28,100,2424,404,2271
-114,-76,-41,3731,707,2238
-86,-109,-77,2943,275,2503
-36,-125,-30,1560,100,2324
-36,45,-24,2440,240,2486
-68,18,-9,2309,-445,2228
-76,8,-54,1274,48,1054
-108,26,-37,-271,-367,47
126,-86,-51,18,-525,-427
-117,-102,-24,95,44,-792
-108,81,-41,950,112,-1062
69,64,-108,-2351,-1023,-4706
112,-79,-3,7520,1458,-4411
-39,-118,-15,5570,2012,-5070
-101,-108,-80,4150,-414,-4566
122,-17,119,4136,3246,-1723
65,16,-123,762,3071,675
117,45,-39,-77,4052,2858
124,8,-66,-3308,4462,4923
-87,30,-63,-3197,-1592,3360
21,-122,29,-2515,-5750,3511
47,-11,-75,-1098,-4181,-1237
87,104,-125,593,-3252,-4009
84,-118,-67,-239,-2472,-5403
90,91,-5,-858,280,-4552
-90,-92,-23,1407,2690,-2856
111,-85,48,1071,3188,-1541
-45,-112,92,337,4855,323
48,-61,-103,-102,4310,1977
83,-16,32,-2343,4595,3235
27,-100,-2,-2135,1117,4562
111,31,90,-3069,343,2664
-88,-96,-6,-4768,70,2070
41,-80,-8,-3729,-7775,-529
-39,70,53,-5057,-8726,-3063
-112,19,-21,-3977,-9225,-2947
-104,-121,-60,1351,-4726,-2908
-126,-108,17,-1397,-1905,-855
-1,-65,-95,-543,-1256,-288
86,-123,-59,145,-788,298
-72,113,8,-1601,-44,608
-88,-47,-61,57,10,-133
-31,-9,-113,-1968,1978,479
-5,-24,21,-1983,1179,1489
33,68,-71,-3816,1209,1991
70,77,117,-3196,1130,1700
-122,106,-106,-1123,378,2363
-26,112,124,-2528,661,1974
-27,85,-93,463,240,2324
38,-62,-112,782,308,2048
81,-65,-100,943,349,2133
70,-91,105,1567,1203,1782
120,58,125,2941,594,2029
127,37,92,1734,1006,2024
-98,69,-127,482,753,1573
-89,-44,-117,1425,421,1875
-96,-33,-61,976,-301,1622
-106,-44,-70,322,-260,861
-127,-12,-64,-912,-117,-189
115,-59,-36,-483,-446,-665
126,120,-39,457,-21,-724
115,-21,35,1659,-3773,-5910
-79,-51,108,5223,1054,-4290
58,53,69,4864,-1190,-4638
6,105,85,1515,904,-5612
-52,-39,-8,3445,2358,-3274
-75,31,27,2035,3911,-1333
-50,68,93,928,3955,670
74,37,46,-1791,3858,3189
-9,-104,28,-3408,2124,6306
-115,57,-15,-5657,-1844,6248
40,-123,-19,-1048,-2831,2315
33,-119,32,-474,-3886,982
-41,-85,121,613,-6670,-3043
-68,71,45,-1257,-4061,-4747
40,15,64,-1858,-2868,-4631
88,-16,-102,-1745,1506,-4553
-40,34,16,367,3862,-2895
-66,79,25,-396,5113,-1619
42,28,-127,-570,6379,1138
-119,121,117,-67,5640,2686
45,-82,112,-1145,1313,4719
-10,60,-77,-4325,-683,3010
-61,92,-110,-2301,-2982,2728
55,-60,-76,-3586,-4232,443
7,61,-1,-5018,-8998,310
-98,123,-94,-3298,-9066,-2103
-73,-61,27,-327,-7594,463
-122,111,16,-4704,-957,-122
70,92,59,567,-1794,-180
113,-12,111,-668,201,107
-79,111,-110,-101,-220,936
-19,4,-37,-922,1146,-71
-33,0,-105,-1253,725,524
40,16,87,-2371,1779,1169
66,-17,-22,-1918,102,2236
38,108,-61,-2858,1313,1368
88,125,-125,-1489,1084,2355
-61,20,-105,-1457,944,2150
-15,3,-128,557,740,2731
48,-72,-94,-826,960,2666
111,-112,103,965,1846,2383
116,-76,55,2087,858,2522
-106,18,-106,-88,-290,1777
-113,-105,103,1329,480,1418
106,109,-69,2257,-271,926
77,39,-91,1776,82,786
70,19,-54,481,165,335
79,-45,-37,1068,-163,394
61,-63,-25,735,-355,-38
100,-101,-21,-66,-9,-475
117,10,-94,3192,-2329,-4111
61,-103,29,5338,-2791,-4189
9,-120,-90,5581,-2554,-5305
20,3,31,2194,25,-5029
-120,84,-1,2824,658,-2334
76,-20,-79,894,2419,-959
66,-77,-83,667,3802,1576
36,31,29,172,4401,3799
-27,26,65,-3719,280,4389
-86,20,-98,-5727,-931,5570
-126,-95,-8,1352,-4666,-742
-72,86,69,3294,-4662,-2080
-75,-52,-126,-3168,-3831,-3363
100,-46,-122,-1404,-1409,-4112
-26,-66,104,219,1235,-3600
-59,-24,-43,503,2734,-2346
-51,-109,46,-923,3872,-860
51,83,-2,-1209,4943,1306
66,71,86,-545,3506,2347
-11,-71,-30,-2410,2892,3909
-12,-42,-17,-2814,611,3706
-46,67,-101,-2858,-217,1817
-73,-67,17,-389,-6136,-597
26,-25,-117,-6031,-8644,673
-47,-74,71,-2554,-9884,20
-59,-76,54,-2859,-8069,-3
24,-78,91,-1783,-1556,182
-36,122,-114,-780,-2097,-337
-15,-66,108,-129,-1317,501
4,-63,-106,-1365,220,583
-60,-5,0,-133,-182,470
-56,39,-103,-1305,978,56
-43,-14,32,-2179,699,6
22,85,-3,-6300,1356,-321
23,-45,-9,-4418,455,778
40,97,-37,-5473,-77,1235
42,-109,-50,-4396,-831,2228
99,-12,13,-2196,12,900
-85,26,118,37,-213,1731
-96,119,-117,-651,-789,1917
-36,-66,-54,63,-410,2377
39,-63,-29,530,-496,1945
40,-80,-74,54,-412,1996
45,-114,-55,939,-497,2210
94,-88,-113,430,-498,1777
96,-69,-87,-68,-1019,1615
92,83,-97,1274,-630,1784
112,71,-113,1158,-641,1743
95,84,-112,106,-1257,1744
104,19,-92,1470,-1480,1453
23,-12,-47,6394,324,-3735
124,6,69,4623,-898,-4886
43,-92,104,4491,721,-4664
-54,-104,55,2644,2328,-3172
-53,-38,75,1351,3489,-842
8,38,-99,-313,3547,1692
72,77,-67,-469,4025,3683
110,-31,-34,-1548,899,5573
-14,-116,-100,-3498,-1859,4681
-123,105,69,-1412,-3715,1424
-91,83,-64,-2759,-4971,-2291
123,-115,-19,917,-2953,-4678
-12,99,-9,-687,-1492,-4559
121,28,93,-1574,999,-4333
-19,-56,-62,1798,2033,-2544
-70,-109,23,734,3106,-1131
-26,-80,-89,-755,4150,744
67,-81,-51,-854,4095,2003
94,-49,-3,-1543,3069,3442
-56,105,99,-1494,613,4023
-3,49,-51,-679,-499,3418
-121,-81,-125,-2785,-2512,1866
-46,51,53,-5642,-5543,-490
-56,92,-39,-3781,-7084,-1461
6,52,-67,-1132,-10342,-1805
-1,28,115,-4632,-5796,-1141
-87,29,-5,-1522,-3916,-867
100,-87,-87,-622,-1836,-668
31,61,101,148,-1392,42
120,25,11,-327,735,24
0,-112,-2,-131,66,395
29,-101,-14,-1270,1167,680
70,-110,-71,-1591,1114,781
120,-97,102,-2902,2249,1632
-92,-82,-45,-1253,2021,2067
-70,-1,-91,-1096,1496,2344
54,-93,54,-1646,2535,2412
-119,-117,18,-550,450,2664
71,127,107,-1316,52,2038
-119,72,-86,-157,581,2422
123,119,-91,547,785,2423
-116,102,-55,1246,267,2419
-60,82,-91,1807,496,1803
-120,-11,-74,2346,-268,1739
-118,48,-67,-14,188,1006
86,-56,-32,1624,181,888
67,-65,-38,1339,16,664
79,-92,-20,568,231,14
101,-103,11,337,104,-560
78,69,7,1016,-274,-522
38,-40,-91,5263,3047,-4224
-10,4,-64,5131,1672,-4049
-13,36,-74,3496,2466,-4193
-35,87,82,2230,2433,-2139
-52,96,-42,2532,3493,-526
-63,92,57,-1812,3785,1590
102,-101,23,-3372,3551,4056
-76,-91,120,-1236,-2168,4856
-25,-84,15,-2925,-4698,3881
99,51,-48,690,-3980,-1290
117,70,-52,1179,-1914,-3475
-54,-23,-112,-468,-2147,-4850
-82,8,-50,164,-8,-4150
96,29,43,855,2180,-2602
-6,-32,-114,327,3087,-1012
-25,-64,-97,-681,4854,1201
74,-30,-43,-531,4260,2701
73,7,-38,-1512,3505,3719
-33,-63,65,-323,657,4867
81,48,79,-2569,-970,1517
42,-71,19,-5805,-3710,1623
40,9,29,-2879,-4719,-714
-125,85,-33,-3155,-6856,-1325
9,121,-83,-5503,-8788,-1021
-57,101,-100,-2252,-7495,-2202
-91,83,80,-1049,-4447,-380
1,0,3,-2006,-2361,272
14,-77,98,435,-743,-329
81,97,-61,488,-345,176
-41,14,6,-482,818,608
13,45,-101,-907,745,298
31,-79,117,-935,1614,58
68,-60,111,-3180,1754,711
102,124,-13,-1578,1819,1783
-122,77,-89,-3031,863,2591
-24,111,-120,-1237,631,2658
6,74,-67,-1534,75,3013
63,-42,-124,3211,563,3169
-87,20,-19,-332,118,2817
-93,125,106,1016,1658,1749
-101,-122,-96,991,378,1791
112,41,110,1595,458,1997
115,104,-85,819,-109,1384
115,-4,-111,2197,636,1119
116,20,-92,815,69,382
90,-42,-84,619,-462,123
83,-99,-42,213,-502,-313
98,109,-34,168,-100,-532
96,70,-40,264,-272,-684
87,32,-38,216,-409,-633
-87,11,82,1813,-3074,-3452
-61,-11,107,4593,893,-3576
-39,-87,-63,5962,1191,-4381
-68,-49,-5,3856,1149,-5479
-74,-101,-88,3224,3060,-3699
89,29,-34,3533,3013,-1827
123,-3,-2,-1353,4402,282
-34,31,-93,-1283,3393,3874
-76,-56,48,-2719,1535,5850
-11,-72,-12,-5300,-3630,5372
-22,-11,-105,-3350,-5163,1441
11,-37,127,3831,-3102,-4156
-89,-92,-106,-354,-3258,-4075
32,96,8,-703,-604,-5313
-56,-22,83,695,2207,-3785
-29,-10,95,1385,3315,-2502
-44,-117,-128,938,3494,-773
34,-101,-24,-718,4809,1103
110,-97,-16,-1593,4075,2445
25,-62,-15,-2805,2353,4577
83,-17,-110,-3953,-349,4615
-18,36,6,-2489,-978,1966
-48,40,64,-4595,-4362,-10
86,-68,85,-3309,-7695,-1389
-108,-76,43,-3336,-8604,-1770
93,7,-90,-4989,-7336,-1334
116,99,-58,-619,-4443,-1314
15,-29,87,-2297,-2160,777
-63,120,-9,120,-1270,-53
-9,61,116,304,1022,-127
121,31,-29,-212,100,157
-98,53,-58,-69,1588,-273
-74,21,-115,-561,1355,-271
-19,-30,96,-2366,1088,16
5,9,24,-3814,1435,1460
31,1,-47,-2790,1239,2496
92,-54,-94,-1923,1181,2643
-104,46,-95,-1591,442,2072
-31,98,-41,665,284,2495
-8,-60,-63,149,644,2306
52,-72,-49,937,429,2443
89,-42,-84,927,619,2108
84,-60,-54,733,39,1981
120,-121,-38,1764,291,2106
91,-92,-74,1297,244,1465
107,-102,-51,1274,56,935
95,55,-71,2005,321,705
72,21,-55,1026,-46,200
74,-31,-68,294,19,-193
86,-60,-45,-233,-390,-548
16,49,44,6772,616,-3728
16,-93,-62,7209,-1672,-4573
10,19,35,3832,-1663,-5451
-20,-33,4,1848,1718,-4224
8,-104,106,3129,1043,-1920
-5,40,-92,94,3962,-188
77,115,7,-1783,3779,2361
-17,-93,-31,-2356,2709,4697
54,-118,-20,-3238,-1004,4831
-3,78,108,-2007,-4165,3462
30,-127,31,-1547,-4575,-1369
-123,94,41,2647,-2859,-3693
-81,-99,-123,-843,-2234,-4933
-14,-116,-28,-547,216,-4229
-71,75,43,489,2958,-2696
-63,-8,15,811,3780,-1217
-25,14,121,544,4477,452
94,104,-64,-337,4655,1415
-106,-88,9,-1215,3873,2406
-117,-74,-110,-1897,2696,3254
13,98,-10,-2264,154,3714
96,53,1,-2933,-1702,1775
83,-28,3,-5366,-2765,995
127,4,-105,-3410,-5017,-2470
-38,-9,-80,-1380,-6480,-3741
-87,86,-77,-866,-11692,-1814
-127,-89,-28,-2911,-9015,-1227
70,-39,54,-2738,-650,-1339
17,-50,71,187,-4057,-395
-103,113,65,75,851,-678
-32,-28,91,209,-1159,671
-44,-87,24,-1195,845,60
-97,-25,-61,25,331,119
-46,-30,-95,-770,1826,-146
-44,-68,-108,-1318,842,468
17,-47,82,-2875,1171,1086
34,-54,-12,-2640,1102,1941
90,58,-79,-2543,774,2011
83,-69,-64,-2134,97,2455
-64,-53,-120,-163,2092,1802
-40,68,-29,931,186,2674
-4,64,114,1360,1305,2200
36,-88,-64,17,883,2353
47,102,-114,1689,366,2418
70,124,-78,187,912,1509
106,29,-96,611,1279,1770
86,-21,-81,1679,516,2228
124,3,-73,1276,251,1542
-117,17,-70,402,391,809
92,-75,-53,1432,-276,609
-17,45,-56,4064,3130,1713
18,-103,52,5737,115,1798
-90,-46,14,-1555,-987,-3035
54,28,1,4478,-4270,-4189
-3,97,-118,3962,-3795,-6689
114,-77,-109,2120,-823,-4983
-50,107,110,1799,868,-3142
37,55,22,401,3130,-1194
78,-125,38,1574,4660,1324
-38,-39,45,-998,4862,2706
-7,-85,107,-2252,4272,5224
-44,67,103,-3329,440,7298
0,-7,-15,-3933,-2326,2329
103,-60,-54,661,-4567,681
-85,99,39,1392,-3827,-4212
-47,52,9,-2516,-3547,-4859
120,25,-126,-1096,1626,-4663
-47,-74,104,853,3200,-2747
-49,66,25,553,4175,-1179
-1,54,-104,-1402,4757,2192
119,102,74,-1064,4371,2570
16,11,12,1173,902,3738
17,22,13,-2087,-1830,3096
53,-53,-76,-4622,-1862,2072
109,82,79,-3265,-5500,345
-72,1,-94,-5455,-9423,-182
90,-102,6,-6293,-11169,-1975
111,-27,-102,-2468,-5330,-2105
41,88,-69,-2926,-3837,-217
4,-85,52,-589,-481,-554
102,-121,-110,989,-1848,-100
7,-98,46,-942,1356,468
-104,39,33,-127,-547,398
-60,98,42,-478,1228,42
-43,-17,3,141,1574,-183
-12,9,-53,-1643,1547,425
40,11,74,-2773,1651,1157
37,-37,0,-972,1674,1698
67,87,-46,-2020,847,2042
-82,113,-113,-619,1506,2010
-119,-62,-66,1305,503,3141
13,95,-114,-140,2385,2409
73,116,94,858,1403,2701
67,-88,-119,897,743,2850
107,-53,-118,830,647,2601
112,-39,-112,2047,-131,2128
-127,-4,-98,21,182,552
66,27,-126,1370,466,-73
44,-50,-83,1492,-200,22
54,-122,-90,1225,-87,6
35,11,126,5272,-337,-4243
9,64,120,4419,-1660,-5264
13,69,-66,2608,472,-6141
63,-115,-27,3908,714,-4119
-126,-37,121,1763,4484,-1666
-111,-2,113,-830,3944,444
7,-18,-27,-1190,4706,4373
-74,-60,-114,-884,1810,6868
95,-7,-15,-3869,-1451,5286
-52,78,12,-3152,-4371,2069
-116,-111,5,409,-4777,-2591
38,-91,58,-724,-4122,-3897
-96,-99,-27,-3781,-2240,-5455
-38,121,116,-215,1946,-3420
30,-82,-37,1740,2631,-1949
40,118,-46,729,4851,-777
-107,90,-62,-852,5541,1926
122,-74,66,-2552,4704,3192
95,59,112,-2863,1844,5969
112,-7,-72,-3129,-1216,3569
95,-38,8,-2857,-1641,904
-92,-71,-7,-4820,-7352,-943
-103,-57,42,-4427,-8771,-1059
19,46,-32,-2862,-8807,-669
53,43,95,-2905,-7225,-1922
36,-91,5,-1147,-259,-349
-35,-104,94,-763,-1932,268
-23,105,-68,429,673,78
-111,74,-112,-878,737,333
-126,-100,-13,-422,92,0
-74,127,35,-2023,2129,-407
-54,63,-105,-3210,1544,301
-42,5,71,-2224,1413,1645
-40,-116,30,-3470,1432,1630
44,-79,-29,-2605,1306,2003
115,22,-51,-1164,1245,2298
-117,-62,-27,-3807,179,2077
-49,-53,-7,-2704,-110,2449
47,28,-125,230,-1431,3067
66,100,-74,195,-894,2527
122,80,103,1465,-108,1982
87,44,76,2716,-654,1938
87,-27,57,3149,-512,1914
94,-88,-21,3363,114,1515
-128,-86,-21,2300,454,1249
104,-117,-21,1065,-263,246
90,33,-13,788,-242,-345
83,1,9,90,-267,-482
86,-57,-6,228,-69,-552
104,-79,-6,-93,-322,-700
121,24,-29,6555,-1085,-3395
53,-58,102,3309,189,-4898
104,27,-114,4045,-718,-5179
28,106,-73,1829,2229,-4682
-119,34,65,2691,2341,-3202
63,67,-127,1293,4289,-950
117,32,-44,547,4421,1343
56,-107,-115,-2187,3829,4063
-22,45,62,-2897,1059,6157
-104,70,-69,-4098,-3894,5310
24,-115,16,-4972,-4427,2758
126,63,-103,1201,-2987,-2662
-36,4,-88,2230,-3495,-2927
-41,-5,-54,-1084,-3010,-5542
66,-40,-85,1061,80,-4493
-76,-35,28,308,1219,-4216
-72,-116,74,853,3341,-2725
-87,89,-86,-296,4538,-518
2,111,-10,-626,5473,1609
-54,-114,-48,-257,4830,3189
-73,87,-9,295,3194,4635
-53,30,70,-4997,-188,4918
-16,120,-22,-707,-811,1447
-127,31,-93,-4357,-6664,664
-20,111,-14,-5143,-9547,-647
-72,86,-55,331,-8949,-1853
-26,109,-28,-1349,-7071,-85
-37,42,-79,-1818,9,-1338
-15,-27,-66,217,-656,527
61,-99,118,409,415,-1
-43,72,-121,8,-722,503
-13,117,-125,-1113,1556,-86
71,107,54,-1696,454,446
72,-113,57,-3414,1020,1186
86,-84,-56,-4343,1276,1663
123,-47,111,-3301,1253,1969
-103,83,89,-1512,735,2190
-64,63,-106,-3348,472,2032
-12,13,95,-127,1528,2277
92,-116,-119,479,332,2911
68,27,-54,-1432,6,2033
-116,-123,-73,1624,860,2189
108,-63,-81,494,13,1731
118,-96,-38,430,192,1390
117,36,-83,2193,609,1333
95,62,-38,1230,-76,1112
-124,17,-61,498,480,355
119,22,-20,7,-263,-44
116,-68,-28,308,-237,-302
126,-89,-34,-3,-366,-734
23,-33,-51,4326,-4467,-2781
-112,-44,-1,5679,396,-4986
-15,125,-79,4608,-1277,-4986
-90,46,-42,1102,762,-5076
40,-94,-60,3073,1988,-2799
51,-46,13,1862,3760,-875
115,49,76,-1195,4325,1367
61,90,-18,-1701,5040,4169
-84,17,75,-1199,1403,7119
-35,-42,65,-3755,-3476,3362
7,59,12,-2008,-3900,810
29,-18,25,-434,-5039,-3417
98,-80,34,-406,-4545,-4791
123,-83,84,-3595,171,-5369
-39,-61,113,1299,2245,-3117
110,-67,-82,-437,4069,-2165
-2,-125,-66,-58,6895,171
-104,1,-90,-1348,5433,2080
66,34,-113,-1927,4666,3798
-108,-52,-84,-1982,719,4845
91,-61,-84,-3301,-812,1762
-97,-110,-113,-1172,-2950,665
-67,-41,-34,-4072,-5190,-1516
58,-72,-3,-1208,-8554,-1528
-64,81,-62,-3617,-11395,-227
-49,71,-3,-2886,-7114,-1992
-125,56,35,-126,-1688,-232
79,82,-35,-1254,-962,-119
90,-82,-46,-170,218,169
-82,-121,-112,624,-60,-78
-7,-70,-95,-648,1220,-76
56,-120,60,-685,1265,-223
75,-94,38,-2507,854,645
78,-114,-4,-2359,795,1854
97,37,-86,-3083,802,2027
-125,65,-94,-2371,483,2233
-101,-81,119,-1513,970,1683
-23,-13,-120,-639,507,2356
13,65,-128,147,541,2393
15,-83,-73,-1306,546,2027
117,-46,-75,-2056,838,1726
61,-80,-60,-1345,-96,1880
114,105,44,1233,-147,2595
-105,-42,-5,663,-388,1887
-103,-100,37,1871,-105,1537
120,77,-30,2085,287,841
92,44,-23,1386,-138,551
96,10,-26,151,-109,38
121,-26,-9,-218,44,-428
123,-80,-9,511,-99,-433
-116,19,-80,7526,1743,-5104
65,-50,-1,4981,-462,-5163
-27,-49,9,2409,2285,-4872
93,121,-125,2965,2885,-2216
105,62,40,-1370,4973,-730
-57,63,-10,-849,2972,3045
-62,-105,-26,-2414,2086,5773
8,-29,11,-3530,-3131,5407
80,-44,25,-5631,-4872,1065
81,78,52,3822,-3514,-2090
-21,84,54,480,-3384,-4290
-88,39,-13,-1513,-2047,-5757
24,-5,-96,-828,1034,-3845
-83,-82,107,860,3284,-1662
-62,-73,-55,627,4005,-10
53,-32,-26,-241,5493,2218
-56,115,19,-1224,4315,3374
40,-96,92,-2384,3968,4467
93,79,-85,45,-200,4755
-111,-51,42,-968,291,1637
-109,-2,2,-3739,-3555,1023
-86,-69,49,-4251,-7735,-2253
-24,98,82,-979,-12730,-1715
-62,47,26,-3021,-11150,-1184
25,-56,94,-222,-4084,-835
81,109,-84,-2475,-718,11
41,-70,-62,-444,-418,320
47,3,117,-224,196,380
-1,-80,-40,-559,585,279
-9,-40,-85,-1170,1414,322
90,-55,54,-3268,1035,809
89,-63,-6,-3528,1234,1759
116,-22,-127,-3350,1612,2470
-85,96,90,-1867,743,2684
-63,-33,104,-942,674,2619
25,-121,-117,-1220,1142,2517
81,-126,102,523,1306,2921
79,-36,-98,586,356,2606
-89,-91,-89,845,1211,2322
-60,-113,-125,609,1042,2004
-56,127,-68,1497,-57,1955
-102,49,-41,1214,46,1533
-123,33,-40,677,-173,895
-117,-40,-53,899,-71,492
-126,-116,-23,955,-113,-125
121,101,-22,744,-48,86
109,95,-23,175,-259,-61
118,106,-24,-341,-372,-459
-108,54,-29,261,-8,-506
-110,17,-26,293,-129,-397
-19,-121,-114,1675,-5490,-1618
19,120,9,1354,-2969,-3718
-127,58,-89,4563,-1415,-5112
13,46,62,1969,-1110,-5792
-76,-57,-120,1246,2085,-5164
124,-33,-64,3220,4233,-3109
-32,-87,101,1392,4755,-46
10,-117,1,-823,4232,3187
-6,114,56,-4609,3558,6765
-27,-108,-78,-5256,-2226,5785
11,-120,-34,-2213,-2593,2317
32,-45,103,3441,-4303,-293
75,-47,96,-3099,-5986,-4278
35,80,54,895,-3486,-4567
-74,-15,115,-1971,-1284,-4567
10,-93,64,55,798,-3781
-36,59,-71,-946,3932,-2325
-78,78,-70,-302,5239,-66
-4,-91,64,281,6045,2665
108,-60,76,-443,5247,3821
29,90,-65,-825,1442,4955
55,-112,110,-2916,-425,1662
125,-42,-89,-3920,-4985,2005
-59,-23,-24,-3258,-9522,1123
120,83,122,-4615,-11007,709
-109,-9,10,-1325,-8938,-874
-32,-12,11,-1990,-2610,196
92,46,36,-1288,-1551,357
-5,-77,65,-421,-465,25
-25,52,-15,106,317,164
-72,-115,52,283,699,-162
-64,-32,18,-1428,2040,-40
-10,-95,-76,-1220,1345,109
27,-30,117,-4819,1707,981
36,-124,41,-3659,1929,1615
51,43,-56,-3863,1424,1874
120,56,-71,-2150,959,1920
-70,122,-75,284,1341,2192
-45,-54,-60,874,1108,2824
16,-90,-117,-1878,789,2528
86,-109,113,120,1079,2083
34,-87,-95,586,-143,2497
56,-90,-20,1721,438,1711
62,91,-64,1800,956,1480
92,51,-35,1372,1121,997
96,-20,-57,782,539,1197
77,15,-37,-30,-446,512
65,-1,0,-495,-583,296
60,-63,5,334,73,83
64,-88,1,502,-136,-86
-105,-107,13,5601,2611,-4665
112,108,3,3651,1698,-4184
-120,33,-65,1922,2935,-2984
-32,-36,-34,355,4731,-441
45,82,-50,-3043,4166,2284
-32,-50,107,-2296,3464,5398
-23,-19,24,-1941,-1567,5755
-21,-113,-41,-3582,-3326,3605
-28,66,-73,989,-4383,-172
-14,-4,19,1621,-4108,-3061
-55,32,86,-2214,-4082,-4776
59,93,-13,493,254,-4299
-43,119,68,712,1384,-3152
-93,103,-123,623,3387,-1906
-82,-9,-35,65,4775,174
26,64,-67,-128,5764,2075
76,41,76,1083,3146,4688
-97,83,65,-5168,1131,4008
-37,-95,-51,-3338,-1391,2948
-57,-90,126,-6216,-7443,396
-89,-34,4,-6166,-11151,645
97,-24,7,-1671,-9398,-1748
-75,-95,-74,-1335,-7225,-78
-34,114,65,-1361,-1075,-82
-15,89,-81,-875,-849,553
86,-46,-70,-163,380,382
-84,-92,90,234,427,521
-89,38,2,-1000,1786,128
-61,25,-105,-1667,1237,229
2,-3,91,-3518,1913,851
-20,-50,64,-3281,1810,1382
7,-36,37,-2114,1785,1693
88,82,-28,-1281,1234,1895
-127,-76,-69,-2613,1320,2053
-68,26,-62,-2074,1002,2436
-10,23,-81,2057,862,3208
-6,-18,0,-425,332,2553
96,-119,-68,1149,1668,2110
98,-104,-107,1223,675,2587
121,-83,-47,773,-191,2031
-127,74,-90,1814,565,1474
78,80,-59,1290,-39,831
72,49,-51,283,-269,350
58,22,-21,-102,-298,-154
58,-55,-15,362,-285,-308
72,-71,-15,143,-122,-580
73,121,-14,378,-247,-626
67,91,-1,189,-332,-558
71,67,-12,78,-60,-362
69,47,-14,96,-132,-237
23,20,21,4392,972,-5299
1,-61,-100,7312,307,-5066
-120,-95,121,3676,720,-5677
47,-29,-58,1955,2066,-2563
-111,-80,20,1652,4757,-314
-26,-28,-7,-95,3707,2091
-104,75,-53,-2173,4076,5099
-128,10,124,-3014,-69,5622
-112,-15,-34,-2563,-3697,1649
-22,-99,-89,-388,-4150,1391
58,-122,10,-2693,-5706,-3550
47,120,74,352,-3698,-4337
-92,75,-31,-2114,-1776,-4522
-31,47,-21,883,1283,-3392
-59,-22,7,-284,4069,-2440
-71,-75,-11,-406,4588,-567
86,-68,118,-979,5840,1254
-124,-74,-108,-418,3886,3318
90,28,-45,-2585,3156,4082
-114,-34,-8,-2675,403,4556
95,-20,-120,-4001,-952,2564
-112,-118,96,-5837,-5394,0
58,-105,115,-3174,-5951,-1669
114,-123,9,-1870,-12020,-2045
87,88,-30,-2439,-6954,-2261
-114,-40,-52,-1751,-3291,178
-9,-118,-40,-2512,-939,-23
67,79,68,-231,-424,156
-93,110,-71,-274,-38,382
-79,-32,-5,548,816,-78
-97,62,113,-1026,761,-77
-56,31,113,-1907,684,381
-47,19,114,-2068,1064,609
-18,7,12,-3836,1984,926
-16,-25,-43,-2865,1079,1771
51,-102,-50,-4162,569,1801
94,-10,-33,-1816,-265,2419
-89,85,-19,287,648,2395
-18,-92,-20,784,-79,2984
-8,5,-10,-616,218,2169
51,-80,-17,1231,202,2569
97,-57,7,1740,298,2358
122,-122,-51,2510,882,2188
-110,-119,-52,662,435,2265
-127,45,-33,1267,-535,1806
-121,99,-10,1183,214,1202
115,100,-29,589,215,258
118,37,-5,715,-401,-316
103,-58,-13,1387,-206,-330
94,-108,-28,801,-102,-624
57,83,-65,7354,1429,-4168
-74,42,2,4891,956,-4027
102,24,-75,3626,1197,-4519
96,66,84,3397,2911,-1579
-118,-19,-110,1451,4489,181
18,9,-94,1305,4670,2665
-115,-17,-122,-1977,2421,4982
48,113,0,-6291,-1072,5979
-120,-21,-59,-3537,-2557,3766
-116,91,-110,-669,-4925,-1162
67,-46,-108,-690,-4806,-4186
34,108,104,-206,-2880,-4860
5,100,8,-2134,-644,-5090
-38,41,27,-520,3108,-3123
110,-120,107,1455,3365,-1550
-59,-75,114,571,5487,347
32,-33,-99,-494,5493,2066
-74,73,94,-2878,4057,3127
-102,70,-106,-620,1714,5759
-54,-102,-21,-3226,-269,2918
-41,56,-40,-6788,-1157,-915
82,-85,-74,-5312,-8565,-2695
-52,-115,37,-2987,-8928,-3863
87,-59,-32,-646,-9287,-2651
108,-67,-86,1549,-5803,-2409
-123,78,43,-1308,-2024,3
-17,62,-89,-831,-1769,459
81,6,-4,100,-296,169
-66,-67,87,-431,-284,475
-107,60,-14,-994,302,314
-85,14,-29,-715,922,55
-45,10,-127,-1867,783,475
-40,26,92,-3004,529,1251
-35,4,60,-2515,1264,1942
4,107,-26,-2340,1184,1756
16,-26,-37,-2760,470,2217
81,6,-19,-1296,915,1860
-100,117,-12,-1122,497,2532
-64,-104,-27,1124,812,2463
1,-2,-14,268,235,2147
34,-9,-18,1423,471,2332
35,-92,-65,2282,883,1651
78,-89,-104,1319,674,1461
60,52,-95,1874,541,1323
73,69,-57,901,-35,1690
101,4,-41,1376,270,1433
106,56,-41,235,-214,591
92,11,-15,294,-152,128
89,-39,-13,541,43,-92
90,-102,-38,741,50,-374
109,-23,-49,8256,469,-3938
-30,96,-88,4057,-1069,-4865
-68,66,-74,3041,984,-5198
61,102,121,3959,1708,-2662
94,37,-17,1441,4194,-955
-109,88,9,-1402,4761,1080
107,89,117,-1392,4608,5604
4,26,67,-4521,2047,6788
-56,51,2,-4894,-5024,4153
121,117,-82,-1116,-3802,-1318
38,28,-31,1396,-3733,-3842
8,57,-115,-559,-3045,-4866
55,-85,-67,-1329,-468,-4851
-93,112,60,-183,2369,-3389
82,125,57,1263,3952,-1630
-95,-71,-121,614,4626,-50
50,-47,-67,-1007,4978,2039
-6,27,-119,-1454,3685,3122
-118,100,79,-3095,2025,4615
-16,-23,79,-3329,-1063,4316
112,64,114,-2842,-1715,931
-35,36,-119,-2256,-4401,-421
-51,103,-111,-3830,-8984,-2516
102,-39,-67,-3058,-10743,-1092
64,41,118,-4515,-5459,-2525
86,25,-99,-2344,-2513,-1008
-67,-116,30,1170,-709,-1541
109,93,47,-779,-87,377
-83,72,12,323,-894,672
-104,1,-66,-873,112,412
127,-1,-76,-163,393,307
-79,-11,123,-1490,512,705
-54,9,65,-3297,1045,1511
-27,43,-7,-3379,1158,1715
24,-122,-31,-2509,1078,2249
48,-32,-27,-1960,492,2041
-104,-103,-35,-2532,444,1790
-73,-122,-30,-464,1024,1927
-15,-109,-21,2522,-356,3033
53,78,6,472,-160,1650
74,8,-29,394,1015,1717
37,-16,11,514,188,1754
-125,-54,11,970,800,1650
106,-91,-11,1579,728,1425
-105,-103,-22,1332,357,1165
-107,90,-72,1043,465,616
118,72,-62,396,-79,57
106,11,-60,523,-16,131
120,-29,-57,476,100,-176
-116,-40,-55,254,-139,-203
9,-10,97,6445,2713,-4460
-76,28,-104,4924,949,-4599
-13,-1,-94,2269,3095,-4478
-70,-23,70,2815,3406,-1611
-70,118,-119,978,4320,200
33,111,118,-2778,3904,3025
-18,-36,89,-2729,2786,5709
-12,90,124,-5695,-755,6310
-26,-90,-50,-272,-5604,1282
100,103,8,-742,-4465,-258
-41,-97,-39,-724,-4223,-3238
117,-110,8,-158,-3244,-4644
-50,-85,-84,-703,-1087,-4698
89,-111,39,-592,1635,-3786
4,-49,107,509,2994,-2648
-51,-94,-105,-283,4402,-715
7,-84,-59,-556,5328,1271
-118,-24,-117,-556,4175,2916
-121,-6,-81,708,3111,4555
-101,110,37,-999,723,4968
93,22,-66,-5291,-1194,3811
72,55,58,-1621,-2745,1015
94,1,111,-5761,-6098,-278
-67,-68,31,-2964,-9638,-1810
-117,-12,-26,-4538,-7021,-1849
-76,111,-11,-3520,-9337,932
6,44,-20,-2479,1962,-1536
-114,-123,69,813,-1511,-67
-33,-39,-49,783,-1277,544
-27,-47,39,-429,1621,-109
-107,-27,83,168,340,35
-39,-40,113,-1195,1076,-65
-20,114,107,-1082,299,78
49,-36,1,-3639,1043,1299
50,-29,-41,-1973,561,2749
92,1,-106,-1156,1653,2522
-98,39,-122,-3188,827,3157
-20,57,91,-1711,2011,4870
126,37,-113,-3129,-763,1652
72,-7,-13,680,-1431,3088
-116,-23,-110,3295,-776,3484
-67,105,0,572,1554,1624
-80,-30,-37,2550,491,1613
-106,-88,-79,3625,307,-212
89,118,-102,2683,93,487
55,2,-64,1622,-55,231
77,-47,-55,162,157,-86
99,-115,-41,-213,-45,-592
109,94,-30,372,-154,-427
122,68,-35,-37,-229,-516
-125,106,-128,414,4546,3434
99,10,-102,-2677,-4189,-1135
-94,61,-22,2245,-2924,-864
-100,32,22,4210,-3757,-2369
-76,-28,-87,2820,-2447,-5311
-17,82,-123,2953,-2177,-5032
-32,-125,-40,1449,278,-4454
62,44,55,2010,2067,-2056
5,61,63,1203,3559,-664
103,6,-68,-223,4579,1627
74,79,-126,-894,4528,4139
-43,-121,-31,-1431,689,7024
75,2,-107,-5578,-3921,4380
16,94,52,2481,-4434,-1919
-4,94,115,-623,-3802,-2667
-13,-96,-120,-1453,-3390,-4874
35,-90,-5,-594,425,-4390
-52,65,47,372,2511,-3196
107,122,54,448,3406,-1745
-100,87,-124,-417,4960,46
69,67,30,-1079,5155,2250
98,113,56,-1867,3617,4011
16,-88,-61,-3915,1639,4884
120,44,-3,-1072,-1187,2411
89,22,-120,-3553,-2203,1183
105,-4,-9,-2690,-5398,-1554
-44,-128,9,-4009,-8894,-751
68,-99,99,-4406,-9641,-744
74,-69,-25,-4050,-7609,-1817
-115,3,70,450,-2073,-511
55,71,70,-2163,-968,113
74,-82,-70,293,-17,437
100,31,-127,-865,835,-90
-92,-49,13,-180,1374,375
-94,4,-61,-1266,1036,441
-13,33,108,-3036,1723,928
-4,2,33,-3260,1409,1633
17,40,-44,-463,837,2728
57,-73,-46,-1554,1406,1912
-98,81,-84,-3123,1660,1420
-94,11,-74,912,688,2813
47,26,-28,-468,788,2379
72,-41,-92,1254,958,2375
103,56,-54,300,614,2073
122,-54,-80,2043,524,1751
101,-69,-87,1168,474,1142
88,113,-69,1138,384,853
96,7,-61,2353,1012,941
83,-13,-70,1724,-59,1194
104,-19,-64,374,8,724
13,52,50,2259,-2219,-4461
76,31,36,2805,4,-5392
88,-89,5,2426,201,-4210
-17,11,-121,1941,3062,-2783
8,11,-89,1035,4325,-256
113,10,-80,-500,5118,1458
-118,16,13,-256,4165,4639
-118,-24,125,-1960,-157,6033
44,-65,-99,-5588,-1862,5538
127,-121,-40,-797,-4015,-578
114,11,-86,-1198,-5890,-2670
-119,16,25,-2065,-5109,-5098
-84,102,-94,-2256,324,-4947
-16,-47,-56,790,2418,-3552
-55,-96,-35,178,3940,-2329
-16,-124,-91,918,5424,-351
-121,-31,-81,-449,5952,1005
-9,-34,-78,-443,4849,2655
-51,48,92,-823,3103,4669
-70,-48,78,474,-133,2892
67,-44,124,-5384,-1097,3181
-62,-48,-122,-3325,-4845,-646
119,63,58,-5386,-6487,249
-123,13,79,-5255,-7271,-1801
94,7,118,-1699,-11456,-1775
127,-15,86,-1510,-4375,-493
48,-102,15,-2466,-1855,-85
-68,89,-23,-151,-1847,213
7,-6,110,251,-177,93
126,-30,122,-548,848,20
-84,-7,-7,-1550,323,365
-82,2,45,-3126,1367,699
-28,-91,-94,-4250,1946,1351
17,-2,24,-3937,406,2903
96,-49,-3,-4180,538,2816
-86,-70,38,-4439,-139,1930
-36,109,43,1289,216,2487
64,-35,-75,2298,-578,3731
-126,-95,20,129,850,2014
80,91,-1,1757,-122,3071
92,63,-21,2677,233,1952
100,14,-95,1731,577,1750
127,-85,-28,2600,509,1292
118,58,-61,2167,462,1392
89,50,-35,934,-67,1041
109,1,-29,1218,-533,1003
87,39,-23,156,-767,169
86,-29,-42,237,122,-292
98,-79,-43,450,-40,-467
100,-121,-46,204,-284,-683
-14,39,-6,3266,1183,-4390
-8,103,96,3911,305,-4064
-11,-102,91,2736,2113,-4262
39,-106,-64,3470,2514,-2238
-120,16,-28,1033,5109,-245
-36,62,-93,-478,3909,1828
-3,109,-5,-585,3540,5208
-13,-109,25,-1102,-1577,6120
69,-21,-104,-5508,-2697,3938
-16,-15,-99,1498,-3656,532
41,75,27,-879,-4714,-2369
-12,-15,1,-1003,-4063,-3972
123,15,107,-290,250,-4327
-50,-73,-71,-401,573,-3624
-126,87,-44,821,3856,-1891
-118,78,-57,-150,4385,-488
20,59,49,-989,5055,1592
109,51,32,-593,4414,3443
-6,60,116,-2220,1684,3601
42,123,-97,-2599,-1578,3273
111,46,-104,-3220,-2188,1375
122,106,102,-3230,-5605,75
-108,51,62,-3372,-7783,91
45,-41,-103,-2947,-13491,811
113,-14,53,-6246,-5972,-258
91,58,95,-611,-4527,-166
-63,121,42,-1340,-108,157
-117,-70,-12,1457,-1321,398
-54,-42,94,-183,1121,264
107,90,17,-482,466,330
-70,114,76,-1127,2401,-535
-60,38,78,-1750,1274,-73
-14,-51,40,-3509,2216,875
4,-72,-100,-3584,1556,1909
43,-52,89,-2879,1379,2594
85,-128,15,-3368,1227,2530
-79,-106,-49,-672,1180,2587
-36,106,15,-808,340,3339
57,-9,0,818,460,2939
114,2,10,929,878,2641
97,-20,6,776,734,2884
-125,0,-12,1808,780,2551
-103,-14,-41,2453,212,2007
115,-80,-75,2672,401,1625
101,-75,-84,533,-234,980
87,120,-88,316,-76,-31
66,33,-44,602,-606,-580
71,-40,-34,837,-418,-743
70,-70,-12,114,-534,-919
67,113,3,114,-511,-935
-86,-67,114,7147,621,-3552
63,24,-124,5374,-288,-4469
-37,89,-118,3723,1572,-3635
-57,71,16,3117,2889,-1480
-21,-6,-10,437,4085,590
-125,-20,-59,-554,3720,3775
45,-23,111,-2768,1330,6052
-125,53,-81,-4635,-2882,3947
109,-81,-121,-1522,-5317,1109
-5,84,-19,-442,-3916,-3818
-11,48,-127,684,-2867,-4093
11,-100,-44,-1282,866,-4070
60,6,48,901,3701,-3108
-48,72,33,2233,5248,-1147
44,-50,-21,131,4661,4
-94,-76,-69,219,5142,1577
65,-17,-97,-1205,2674,1922
123,65,-27,-905,619,3267
-80,44,-125,-1689,-743,2686
72,-108,-87,-4833,-3132,931
45,12,-26,-5955,-5406,1034
105,-102,-48,-3114,-7595,-950
2,-99,54,-4145,-9154,573
29,-106,13,-2879,-6005,-44
7,-21,2,-2966,-2472,-63
-3,-105,-90,-858,-73,-813
-58,84,118,160,-633,110
-55,-30,23,258,1710,-285
-126,120,6,-1069,820,-239
-88,106,-33,-871,1750,-453
-72,-123,-94,-3662,539,175
-43,-12,-57,-1992,1855,1021
-77,45,-113,-1826,1714,2079
-3,-30,61,-2538,1053,1857
65,-65,-16,1304,1368,2656
119,-92,-29,883,1347,1649
-41,-6,94,4362,2631,1732
-25,100,52,1100,686,1635
-22,45,91,-200,1779,1224
39,51,38,-698,1915,1322
39,112,100,-1123,897,1307
55,-116,120,-126,542,1611
87,-124,-109,947,26,882
84,87,-84,1019,10,833
72,52,-101,546,408,241
59,27,-83,399,-266,378
58,1,-49,274,-559,112
79,-24,-32,302,-55,30
65,-54,-38,200,-181,-174
64,-70,-43,-120,-207,-103
-115,-34,-88,2539,-3093,-4039
-7,127,-42,2978,-4516,-4334
65,63,35,1985,732,-5903
8,68,-46,2825,1135,-4254
-66,-105,26,2580,3673,-2266
-44,37,14,1704,5152,-383
-110,105,45,-533,5417,1325
-28,-87,113,-1940,4800,5116
-43,-90,-73,-1147,-371,7187
-13,103,68,-8611,-6158,2238
30,2,-87,2119,-5092,-931
26,91,-8,-1563,-4840,-4753
121,-77,113,-558,-988,-5255
-98,71,9,237,1109,-4020
73,-115,-21,858,4531,-2282
-120,122,111,-795,4926,-375
-19,-104,-66,-1169,5276,2865
122,82,-71,-1944,4049,3815
120,-32,-53,-1423,1635,4360
-93,58,-8,-2372,-66,2237
-31,-23,105,-2626,-4260,1486
-50,1,-52,-5770,-7683,-1602
45,97,78,-2782,-10982,-1320
-50,76,-19,-3743,-9909,-1933
50,-35,98,1346,-4837,-1639
29,-86,65,-2438,-415,-235
112,-13,48,-296,-684,525
81,1,-111,719,660,-458
30,57,67,-98,29,313
67,115,89,-950,1935,152
104,-120,-81,-1412,1273,15
-122,106,-71,-2535,2000,678
-93,58,103,-1894,2277,1478
-90,-109,27,-2980,1607,1456
0,-72,-28,-2106,972,1995
71,39,-31,-1374,1165,2162
83,-82,-21,-1684,871,2316
-119,-57,6,285,1061,2250
-27,44,10,-570,1746,1675
12,-56,-86,1931,2419,1536
42,10,-94,2105,837,2622
112,100,-55,296,556,2018
101,32,-103,815,395,1569
79,37,-52,248,-393,1376
93,-29,-38,425,-177,828
113,-88,-58,1024,119,60
114,-128,-66,625,-333,-391
100,37,-62,353,-352,-749
101,-10,-55,89,-154,-885
91,-63,-28,283,-470,-540
-26,-5,44,7186,1164,-3725
111,-30,54,5439,-1754,-3344
88,-47,-65,4318,-482,-4444
-43,-33,-43,3279,1549,-2713
-33,7,92,2567,2686,-1608
27,10,78,2623,3586,530
116,65,114,-759,3864,1838
59,37,118,-1912,2482,5196
-31,-41,-83,-4328,-2187,6568
95,-89,-82,-1392,-3840,-233
8,60,-67,-2412,-4697,-372
120,92,71,-424,-5340,-4850
-84,-60,64,-502,-921,-4117
82,-22,-17,-875,-260,-4292
97,-38,36,375,4204,-3072
-121,95,21,2173,4202,-1301
-1,-66,-53,895,4841,-310
100,5,-104,-1552,5103,569
-7,31,-55,-982,2822,2912
97,4,-6,-654,1419,3244
-102,31,-57,-833,182,2728
13,-79,-126,-5188,-968,1659
-10,109,-113,-4240,-3550,162
-124,42,-74,-2907,-6717,-1776
102,119,67,-4724,-12208,491
16,126,66,-4698,-7064,-4136
80,41,42,-660,-3932,-744
-16,-85,106,-2097,-1936,-88
109,104,59,665,-144,11
-108,-107,9,-961,115,523
126,42,9,117,237,191
100,43,19,-958,1002,423
-113,27,-42,-1587,817,812
-76,26,-43,-3446,2295,1649
-35,38,57,-2385,1572,2448
43,-39,-12,-4233,1129,2732
96,77,1,-2329,-53,2992
-47,-69,10,-812,726,2861
24,114,-118,-244,-425,2710
62,81,107,1505,688,2490
96,-116,103,559,233,1998
108,80,58,1474,543,1519
72,29,48,2221,426,1836
92,60,38,979,136,1133
105,-74,2,1829,925,839
90,-82,1,714,-167,573
100,116,-28,693,-45,357
124,69,-34,179,-232,-138
115,6,-30,450,110,-436
121,-20,-29,249,227,-359
23,-85,127,3347,-3037,-2762
-31,-127,-111,4826,754,-3321
-25,119,62,4914,653,-3584
-15,-96,6,4159,1542,-4270
-71,-101,-89,2678,1872,-2940
-100,40,1,2420,4268,-676
-1,61,50,-1887,4482,524
-14,121,-89,-2200,4144,4658
28,-32,-26,-136,-999,8047
40,-86,-30,-3668,-3228,5516
7,72,-2,-1512,-4450,-22
36,23,-126,-657,-4708,-1208
-37,24,112,-1827,-4690,-4226
-1,-4,35,-2335,-1711,-4467
-8,127,-67,-355,1058,-3781
97,-61,18,828,2745,-2799
112,127,-13,1,4076,-1199
-57,94,32,-430,5122,900
61,80,86,275,5006,2166
61,-93,-49,-754,3307,4190
-11,125,6,-2376,1893,4080
-114,-119,112,-3109,-1005,2810
43,106,87,-4596,-2858,514
-67,-55,-117,-5320,-11050,169
91,-72,-28,-6149,-10062,1419
80,-76,-78,89,-7784,-2224
33,-47,108,-2906,-431,-69
-59,63,-84,-1060,-901,-27
60,19,85,765,737,191
-56,-40,-41,45,-930,587
-112,47,-96,-524,897,598
-75,81,95,-948,847,-43
-8,24,95,-2580,1589,194
16,29,13,-5416,2239,750
39,-23,-92,-3172,1596,1934
99,-58,-80,-4090,995,1985
-74,2,-95,-1682,312,2164
-35,-96,3,-488,-312,2674
70,2,7,-710,883,1795
54,9,27,240,114,2158
95,-9,49,1111,255,1987
-110,-47,22,1430,612,1806
-120,-59,-19,1419,330,1406
-98,-98,-40,1202,70,1181
-114,66,-66,1263,335,824
-117,85,-58,425,-221,507
-128,29,-67,524,-66,315
124,11,-40,216,-235,112
-118,-15,-50,260,-28,-73
-122,-16,-51,-104,-300,-323
39,97,23,4329,-2523,-1405
11,112,126,6219,385,-4307
-8,120,22,4944,-873,-4185
-83,126,90,3874,571,-4673
81,-61,12,2466,2738,-2124
-71,-56,-6,616,4432,-281
42,93,19,-1224,3232,3178
-93,-23,-65,-2594,1858,6297
7,-73,19,-7172,-2254,7042
27,-126,-1,-629,-4506,-600
48,57,87,1165,-4484,-3165
106,42,-30,-144,-4462,-4055
108,-97,73,-2857,-1958,-5479
-120,118,-7,-292,3212,-3446
87,121,-15,2121,3826,-2041
-52,75,-77,1213,4534,-320
94,80,-31,-1261,5599,1635
-49,96,-61,-3286,4576,3179
-74,79,91,-4528,2534,6012
-92,-106,-66,-666,-958,1377
-107,-37,30,-2638,-2764,2056
-57,-118,15,-6847,-11011,-792
30,-86,-93,-4557,-12161,597
-2,-67,-19,-7145,-8520,-1138
26,-3,38,973,-3604,-1269
-12,31,-70,-1854,-1295,-115
94,-85,-127,-821,12,544
-119,-11,-65,1094,-139,-241
95,64,90,-149,897,225
102,99,-22,-805,1261,-75
-109,110,-97,-2173,913,447
-86,83,-59,-3327,2027,675
-76,42,116,-3240,2123,1491
-33,72,50,-2258,1773,1686
8,-86,29,-1596,1350,2199
-128,78,-65,-2062,1901,1891
-87,-126,-84,-1172,1225,2341
-15,-107,-61,1312,682,2509
37,-84,111,3043,857,2210
41,-42,-101,623,630,2160
38,-116,-120,400,1250,2056
91,-91,-88,33,525,2054
-128,88,-96,884,824,2046
-99,122,-41,736,-205,2399
-79,107,-85,1008,-31,1649
-78,-106,-67,257,-449,402
108,92,-53,218,-444,-461
104,24,-33,353,-99,-564
108,-17,-45,341,-99,-682
116,-46,-72,-15,-232,-786
-2,95,37,5607,-173,-3324
2,-89,-42,7514,1665,-4392
-81,57,6,3944,138,-3843
-20,119,-113,1945,4030,-1535
88,22,115,1578,4424,961
41,-40,62,-1010,4397,3357
70,-57,18,-1760,2207,7304
-36,-68,91,-6373,-5376,853
42,2,5,-1357,-6253,1945
102,-41,27,-1401,-4810,-4189
-78,-85,-17,-695,-1804,-3800
-45,43,13,-841,3,-4165
-114,79,27,592,3623,-3390
-106,-45,40,1172,3723,-2077
-41,-126,-5,518,4827,-437
0,-112,62,-244,4351,1350
88,78,-113,311,4180,2572
-12,-1,-58,-2248,1965,3851
113,74,-106,-1112,445,2258
113,105,46,-5180,-2810,3171
-53,127,-15,-5425,-5368,113
-112,-36,-31,-1234,-10025,858
4,117,75,-8220,-10181,2829
43,34,58,-1925,-8406,-211
97,-9,48,-2471,-471,-141
-61,-55,125,-847,-624,124
23,-123,107,150,-835,206
-70,107,-52,-338,416,123
116,-68,70,-102,1179,-626
-114,-98,59,-1758,1521,-221
-70,71,30,-3500,1966,143
-79,-14,-23,-3044,2022,1420
-67,43,-113,-3110,2109,1807
-11,-125,72,-2131,1079,2552
74,-24,17,-1449,1726,2341
-99,92,21,-454,874,2996
27,-126,-69,572,2069,2393
27,-85,-64,1393,19,2792
104,-17,-56,1708,457,2748
-111,14,-89,834,949,2009
110,-32,-44,1106,552,2199
-84,-65,-105,2291,317,1937
-115,-73,-101,1876,24,1095
-127,-104,-119,899,179,718
106,79,-123,806,154,-152
94,53,-93,119,-523,-215
79,-17,-56,180,-519,-494
68,-28,-46,-274,-554,-682
80,-47,-24,-702,-467,-769
58,-79,1,-873,-751,-659
2,111,-124,5023,-1896,-2941
25,2,3,6391,2141,-4020
-114,35,71,5725,-1291,-4312
6,89,32,2115,2661,-3980
7,-107,98,3722,3735,-2030
33,2,19,-794,4819,-178
106,118,-81,-1245,3359,4397
-102,81,-121,-2761,380,6298
60,-19,31,-5806,-2991,3508
-67,93,-50,-350,-3879,1917
-80,89,-50,-1323,-5620,-3512
18,-51,-102,17,-4763,-3529
106,-71,117,-2274,-822,-4677
-62,105,-13,808,2410,-3686
12,-14,-22,737,3821,-2540
46,-81,-86,-94,4617,-748
-109,-57,-114,-195,5707,537
105,-80,-44,-99,3760,1555
90,69,-88,-724,3432,3489
116,23,34,-2392,928,4085
26,-49,-7,-1866,-305,2040
51,-4,81,-5631,-4589,1765
-93,91,-113,-4844,-8472,724
52,-117,-93,-4560,-11653,1662
50,26,-70,-7153,-10083,-834
126,-52,85,-271,-783,-664
-108,-36,-101,-2800,-1514,1301
-124,-101,61,439,464,-257
-128,9,-87,35,959,168
123,45,-48,20,417,359
121,108,-20,-1361,1407,476
-67,92,-77,-2947,1894,496
-40,21,126,-3069,1151,1415
-37,79,92,-3474,1585,2190
16,-118,-18,-2879,1403,2401
52,-2,8,-1431,267,2943
-97,-102,-2,-1511,1419,2070
-19,-60,35,239,198,2884
10,38,52,115,185,2459
93,-12,20,1770,906,2500
82,-16,-85,2686,79,2008
102,27,-2,1355,-250,2072
-107,-127,-68,3019,874,1596
122,-33,-61,1248,-264,1340
101,-76,-71,430,-246,673
56,115,-31,404,1,-55
66,66,-32,318,-90,-306
70,31,-37,-29,-196,-589
95,-46,-35,414,-52,-795
93,-72,-48,237,-181,-951
49,25,-66,5384,-1150,-2509
-16,-78,100,6693,1501,-4262
-89,-39,123,5095,126,-4027
86,-100,-120,3667,1016,-3881
46,-107,54,2628,3114,-1382
93,-48,112,708,4182,242
-2,-112,-24,-580,3961,3426
44,35,125,-1777,887,5613
-128,39,-38,-6921,-2442,4570
115,-86,111,-650,-4412,1166
95,28,58,-3558,-5125,-2720
-93,-32,85,1703,-4602,-4215
-83,76,-49,-2989,433,-4536
-92,-15,-60,-133,1866,-3580
-48,96,-60,-256,4674,-2802
81,17,98,307,4681,-1168
-83,89,-75,-1096,5103,557
-35,101,-25,-978,3577,1957
-81,118,-4,-1199,2810,2853
-52,-43,-90,-1646,736,3210
75,39,0,-849,-695,2834
97,-5,-93,-3199,-2652,2234
95,-57,91,-3447,-5242,392
0,-118,-96,-4590,-8872,298
76,10,63,-6630,-7246,-2617
68,-46,12,2008,-11174,-893
0,19,12,-3499,-1642,-290
-103,69,-97,-1291,-1786,454
-107,-14,-53,207,-543,166
-65,-77,-63,-301,193,532
-76,2,-10,-170,738,-169
-98,7,77,-1577,1139,793
-23,41,-92,-3486,2639,-187
-24,87,46,-3899,1220,1947
50,-102,-39,-3230,1188,2078
114,21,-78,-2571,885,3011
119,-71,-24,-2639,-669,3093
-14,-41,-54,-752,1427,1782
20,27,29,2051,-854,3761
79,-122,15,17,1129,1886
87,24,-38,1818,1049,2131
111,23,-58,1426,675,1982
125,-38,-78,1874,428,1742
-120,-52,-115,1654,60,1295
119,-95,-96,1469,-194,683
98,125,-60,908,-324,322
78,45,-61,759,170,-19
83,36,-52,104,-323,-322
112,-17,-47,-282,-352,-679
123,-55,-43,-365,-474,-769
73,-76,-103,5031,287,-2765
-58,-41,74,8356,1133,-3960
-21,68,17,5770,-43,-4869
-53,64,62,3981,1455,-4105
89,-19,70,2195,3109,-2476
-10,2,-69,268,5152,-430
76,104,-15,-1608,3754,3404
-121,-128,103,-1181,1744,6198
82,-79,-117,-7961,-2835,4849
-94,108,33,113,-4753,1151
80,-118,17,-3116,-6333,-2961
-54,-104,117,1708,-4679,-4112
-90,-111,60,-2579,-1786,-4237
-14,-103,-7,98,2291,-3465
106,-69,-87,658,3575,-2491
-78,-64,-121,-494,4695,-652
-36,-94,-119,321,4648,750
30,82,-57,-791,4460,1418
-56,-97,68,2320,2571,1944
47,-61,31,-2322,1208,3969
-51,-59,117,-5579,609,3344
-12,77,-118,-3551,-2692,2763
95,-111,22,-2711,-5130,-67
121,39,-41,-3263,-10942,780
60,-110,-25,-3203,-9379,864
-117,73,-61,-5018,-6290,1384
8,-105,110,-2354,-241,-487
-69,65,-43,-593,-195,-211
-71,26,-10,89,-1024,422
-70,-77,-39,-65,1501,177
-114,17,-16,-840,-239,562
-57,12,50,-2305,1840,698
-34,19,-111,-3169,1809,1405
-44,-3,83,-2303,1876,1975
-3,-108,11,-3481,1371,1859
56,-119,-31,-1557,1343,2431
-110,80,12,-873,695,2895
-18,-106,-75,-377,1803,2449
23,123,0,1605,367,3008
-117,120,-69,3848,820,3033
-79,-35,-116,2655,563,2803
-48,-47,47,1603,1346,1390
-124,-113,93,1513,544,1506
116,63,90,1683,929,586
84,40,114,1599,571,571
71,26,-127,327,-386,420
66,-6,-92,-124,-659,-343
77,-51,-46,248,-189,-752
79,122,-45,728,-147,-652
81,113,-47,122,-613,-669
-98,9,-4,5533,1060,-3647
65,63,16,4129,442,-3284
3,-122,59,934,1153,-3564
44,-35,-20,1705,2652,-1889
100,68,-113,3032,2925,-813
-121,-35,43,2166,3821,557
37,107,113,-981,4960,1897
-98,40,-84,-1446,2262,5306
97,-51,71,-6317,-696,6043
84,4,-98,-2331,-4956,2933
-33,39,-48,-1841,-4771,50
-119,-20,-96,1605,-6158,-4427
-98,-22,-9,-2670,-734,-3685
-22,18,27,1621,1524,-4088
-94,-113,7,636,2242,-3503
-36,-12,1,821,3884,-2130
-57,-24,-33,-998,3887,-154
24,-12,2,-867,4581,1051
20,6,55,-719,2699,1485
119,26,-85,-1232,934,3580
13,-88,-5,-2122,-496,3827
94,10,116,-2679,-892,1737
77,103,-16,-7515,-7606,1383
115,39,-90,-6489,-12884,1648
-41,-4,76,-8395,-9170,-2290
40,64,18,1353,-3689,-1322
-51,61,75,-2173,-2020,425
105,69,54,-645,-134,-42
-34,-53,33,451,24,216
-79,42,-120,-908,1393,-16
118,48,58,-1052,914,566
-85,82,36,-3524,2798,803
-64,28,-112,-3492,2245,1734
15,80,54,-2257,1847,2537
98,-96,-32,-847,1541,3379
-47,-87,-36,-2210,698,3133
74,89,39,-2011,375,3232
114,-12,121,3007,1193,2671
3,6,-10,2906,2233,2157
-20,-86,-96,1159,765,1810
-67,57,-111,3029,275,2417
-70,24,120,1774,614,1105
-100,-82,101,1592,375,761
-124,-124,98,1148,-106,349
127,66,111,881,-58,-203
-120,54,121,-27,-455,-432
-120,0,-111,111,-596,-618
126,1,-73,-684,-809,-952
110,-54,-64,-130,-637,-1101
99,-80,-41,-122,-717,-933
50,-103,82,5405,910,-5535
-40,67,-33,6707,476,-5059
81,10,-27,3743,2027,-5244
53,117,-123,3456,3384,-1882
82,-72,-96,612,4740,375
35,-5,-27,-1958,4509,3125
35,-121,96,-1133,2855,6451
-73,31,-111,-1890,-2387,6662
-43,-65,1,-6022,-4722,2584
-19,-111,101,1668,-4713,-3589
115,-61,-79,168,-3760,-3989
109,-48,54,-3491,-1373,-5334
22,-99,-100,867,2897,-3742
-57,-38,70,931,3075,-2956
10,-15,125,-179,4706,-1576
78,23,-78,-1529,5096,-279
-125,-5,-31,-641,4708,1576
-9,58,-118,-2446,4350,2785
-128,-73,22,-2150,618,3772
15,122,46,-4343,-1064,3307
50,103,109,-4886,-3833,1129
-88,-12,89,-2683,-6371,-821
-67,-113,3,-3670,-10520,-249
10,35,-76,-4604,-9840,-739
39,70,54,-441,-9940,-3188
-52,-92,-113,-2044,534,1745
27,-33,1,-1637,-1581,742
-95,-77,119,863,-75,375
109,97,125,-330,1900,345
76,-92,-114,-943,-321,209
108,86,24,-1544,1116,891
-76,53,-6,-1052,2189,-477
-51,54,126,-2338,3421,1437
-18,98,-41,-2922,1584,1860
124,-30,-108,-4711,2082,1884
-119,110,-111,-7571,873,739
-80,73,43,377,-897,3569
33,66,113,-458,-488,3489
87,-63,-93,-2121,-579,2499
126,95,-85,879,-299,3047
-75,105,-71,3949,-1142,4043
8,127,38,4017,173,2230
-41,-54,-24,393,-49,344
-124,-81,-3,3139,-505,641
106,121,-33,2818,-228,281
113,49,-77,1448,378,-370
-123,-5,-73,316,140,-797
126,-48,-55,50,-206,-644
-108,-91,-38,-6,-401,-598
-115,-94,-22,-256,-551,-750
102,-31,22,6967,3113,-5473
-112,-67,25,8419,224,-4707
64,-35,13,3001,908,-4735
123,-84,-52,1685,3397,-1882
-62,-56,35,-12,5301,-370
-109,-123,-122,-1438,4841,2239
-38,-39,80,-1779,1949,6247
59,80,-104,-3275,-1759,6139
-28,99,27,-744,-4125,1026
-105,53,-102,-3353,-6843,684
-90,121,-21,-864,-5628,-3584
-36,0,75,-2439,-1469,-4089
25,39,-58,-334,1072,-3793
-79,79,54,-462,2822,-3428
-86,107,6,-197,5242,-1345
-10,82,-29,-418,5950,625
96,90,-123,-1137,4768,1227
83,22,126,-5204,4221,5207
-113,49,89,-8905,-906,3668
66,-64,97,2378,-3536,269
-33,-111,56,-4757,-9863,558
96,21,56,-1968,-13109,1627
23,82,-71,-4879,-13015,1767
-84,-66,30,-421,-1955,-511
47,-88,81,-1320,-2386,734
-53,57,-68,-172,1842,-114
-17,-63,-99,441,-255,88
-95,-10,-126,-709,1738,154
-96,2,53,-1565,1963,772
-62,-8,-39,-1697,2256,756
-54,101,125,-4654,2256,1618
-4,-2,14,-2394,3086,2095
59,-102,-44,-2750,2275,2502
-107,88,-97,-2821,2014,2995
-29,-56,-92,-2075,1879,2827
47,57,-5,-1801,820,2419
111,-26,-6,2086,71,2691
113,58,21,847,162,2107
-110,-62,-55,2545,939,1916
116,-21,-94,1862,-130,1655
-127,-60,-127,1630,56,832
82,-116,-93,1020,-250,291
66,74,-75,900,-64,-379
67,50,-51,462,296,-451
67,6,-34,180,-590,-198
68,-13,-27,-436,-890,-312
70,-29,-19,-743,-795,-445
75,-75,-7,-438,-261,-657
71,-113,-13,285,-9,-593
66,-103,-18,-53,-129,-360
-76,67,-107,7674,-559,-4258
61,27,106,5510,-918,-5420
-122,-43,13,3034,3481,-4229
-126,82,-88,3059,3410,-1827
-22,59,108,145,4166,562
82,-35,29,-24,3779,3532
92,-25,7,-811,1290,4946
-63,-18,120,-4764,-1415,5820
-123,12,52,235,-5878,1063
-39,101,-13,-1369,-5033,-608
-6,3,-65,-2787,-4772,-3158
11,-9,-60,-1972,-577,-3565
-88,-87,99,913,2590,-3885
-50,22,-113,-216,3196,-2744
-26,54,-82,-303,5116,-902
-26,56,64,-922,5271,1380
43,85,88,738,4346,2612
-80,29,-36,1733,1916,3588
103,80,18,525,260,1030
-75,-8,-87,-3585,-1744,2375
24,-23,73,-5973,-5277,2867
-80,90,30,-6955,-9366,4771
10,-128,-118,-5827,-10568,2888
92,-125,95,-1497,-6922,1123
83,-50,119,-3594,-1534,1839
70,94,57,-463,228,371
79,-19,120,351,645,-238
-85,113,56,-46,-749,219
-46,111,-119,137,2352,-110
-35,-111,28,-1323,1676,-66
-18,102,-16,-3168,3773,278
-15,56,113,-3710,3358,992
44,-122,-62,-2540,3032,1294
67,-95,-59,-636,1823,1921
-115,-94,-75,-3008,1599,1576
-70,95,-22,-401,1147,1870
-23,-65,-27,-484,1041,1932
6,-77,-50,645,865,1910
18,-18,-37,102,802,1698
56,-91,-54,1604,1069,1641
77,-109,-75,2465,312,2007
95,-99,-103,1604,30,1471
90,120,-64,928,-288,1219
79,103,-53,174,-304,479
85,71,-33,95,-101,145
76,19,-13,253,-332,-132
66,-4,-10,86,-333,-323
72,-37,-13,-111,-171,-437
73,-59,-19,-118,-186,-536
73,-80,-11,-28,-399,-508
13,-2,56,1967,-3318,-3732
-26,-33,-47,7557,2935,-6565
125,-84,28,5150,-1038,-5261
125,54,-3,1834,3754,-3131
49,-76,-41,730,3526,-219
51,30,-76,-488,3903,2195
-22,-100,-57,-1276,3724,4741
-70,112,-96,-2060,53,5653
56,-17,14,2728,-3559,1213
59,72,-105,-3760,-4931,2188
101,115,77,-2959,-4652,-3982
86,106,102,672,-2198,-4044
-88,-27,4,-2289,1103,-4077
105,8,-38,270,3177,-2489
-113,-18,-36,-214,4383,-1190
-39,-35,-62,-582,4836,632
55,42,-94,-874,3906,2515
54,63,3,-1072,2744,3164
-75,-19,107,-1865,405,4576
74,45,54,-1444,-2075,3301
11,-105,-3,-749,144,687
127,-100,-5,-1306,-3375,-1220
-10,90,-38,-2761,-11249,-97
50,-54,37,-5602,-11434,2959
71,90,42,-4185,-7241,-1304
-88,-110,54,81,-1278,-399
-70,-125,88,-1305,-1949,493
57,-1,-47,220,249,726
87,84,-91,-1544,-581,664
119,35,-87,-582,1144,856
-90,80,21,-2227,2004,441
-63,70,101,-3376,2172,1226
-59,80,51,-2301,1500,2093
30,-21,-2,-3369,1244,1830
51,-4,10,-2394,868,2904
-107,93,29,-1270,408,3030
39,-3,81,-535,499,3015
74,9,25,698,933,2833
121,85,57,666,-99,2947
-63,72,-46,2842,451,2955
-61,-128,-59,1763,-323,2056
105,-75,-75,3136,-111,891
107,89,-92,3792,333,1442
126,84,120,1459,568,498
122,74,-92,288,54,451
126,20,-91,158,-321,-321
-127,1,-61,-284,-447,-728
125,-60,-51,-49,-166,-903
-126,-82,-24,-588,-374,-1157
96,99,-3,-102,-370,-949
9,121,0,3411,-2143,-4895
102,117,-122,3980,-646,-4769
-50,-11,-103,2759,2435,-3059
-49,35,-118,1874,4073,-1367
23,36,-78,-281,4276,1186
-103,-28,11,-1624,4402,3737
-47,-114,82,-1380,-178,7166
82,-103,-83,-2802,-4796,2857
72,-60,-47,-1245,-4409,-463
-116,-9,87,-1132,-3124,-3892
107,-6,117,-2315,-2108,-5373
-87,84,-86,-768,1397,-3899
-63,-47,-115,181,3713,-2617
-100,127,-124,1029,3705,-255
-74,-57,-73,-582,4354,1235
14,34,-83,-1622,4144,3500
-91,-110,-48,-1139,3448,3931
12,77,-11,-539,561,4302
88,-72,61,387,-440,3145
127,-19,-66,-9016,-2913,-109
-111,34,-82,-2544,-7821,-2801
87,-1,123,-3755,-12476,-1414
11,37,-32,-6190,-9130,-2759
82,-113,0,-669,-3618,-1090
16,-67,-128,-2407,-727,-425
-100,75,120,614,-1410,-246
-91,109,15,267,497,189
119,-39,-116,-338,-211,681
107,-19,-127,-1328,1625,983
-116,38,-14,-2074,1289,1015
-71,32,-84,-2348,2194,1526
-44,113,30,-1753,1694,1973
28,-27,0,-1869,1478,2535
30,32,-35,-836,686,2800
-102,-31,-27,-1562,822,2540
-38,-95,-47,1292,1259,2376
-8,40,-57,799,738,2363
78,-9,-47,1748,827,2169
75,-29,-100,763,1110,1648
85,-50,-66,819,775,2018
117,-84,-112,1827,575,1669
-125,-53,-73,1591,430,1202
113,-89,-108,867,167,617
95,91,-80,586,-16,88
106,26,-58,590,-115,-213
91,-68,-47,1084,166,-6
113,-92,-60,447,60,-17
-128,-108,-62,-75,-182,-317
-111,118,-64,-48,-123,-82
120,-125,-51,-568,-277,-85
93,-96,-98,1873,-4682,-3347
29,-100,-103,1777,-1913,-4997
18,45,-118,4735,-1959,-5264
-61,-27,-72,2984,475,-4968
-16,-28,-22,2873,3684,-3101
57,51,107,1296,5356,-923
-35,93,-51,846,4929,1341
-41,-83,69,-4154,4621,3652
-107,-5,-3,-2596,-778,7695
-59,94,88,-3477,-3868,3337
-48,78,62,1080,-5341,230
123,-81,-124,-1684,-3662,-2852
66,-38,-71,-1574,-2373,-4555
-26,-40,-57,1219,1710,-4261
113,-40,-85,631,1342,-3249
-124,11,3,124,3504,-1772
-118,-95,-58,154,4161,236
-40,60,-11,-1676,4148,1992
41,120,79,-1317,2704,3061
23,16,124,118,1349,3407
76,-74,84,-677,-1063,2988
34,72,-113,-2551,-715,1396
17,-112,-12,-5466,-3413,-275
-41,-13,-86,-3215,-8947,-2343
53,-58,-86,-4711,-11135,-25
10,117,17,-1864,-10591,-2543
54,-126,-59,-1478,543,-1568
17,6,-80,-1921,-4369,1472
77,16,93,-295,2557,-373
108,-18,50,1244,-1581,637
45,-92,11,-1123,1975,74
74,105,124,-814,246,158
93,112,-37,-2473,1353,525
-97,85,-105,-2875,1597,1130
-81,77,98,-1491,1415,1852
-52,-60,55,-2347,1405,2454
20,61,-21,-2130,752,2250
84,90,-5,-591,740,2556
-92,6,-11,-1721,799,2239
-67,8,16,363,-215,2403
-1,74,63,589,414,2003
41,7,8,1495,1143,1507
44,1,-35,1192,243,1749
72,-20,-19,1131,-117,1710
106,-86,-62,1896,772,1371
94,-43,-46,1000,-86,915
89,-113,-48,943,14,834
86,112,-29,528,26,584
103,88,-42,501,108,174
88,53,-45,482,58,-148
16,61,-24,5597,-2426,-1445
81,-18,102,2083,-2083,-2457
-43,16,-78,2878,1422,-4463
113,-79,-15,4382,1446,-3391
94,-113,-127,3104,2776,-2475
51,-118,-59,2749,3446,-238
-109,118,-56,-106,4581,1146
52,94,44,-1775,3220,3661
-120,123,-120,-1426,824,5669
29,114,32,-1427,-2611,1825
-19,-105,0,-4324,-3944,2818
95,-108,-4,-2660,-4441,-1804
88,115,-120,356,-3576,-4770
42,17,-108,377,-1762,-3912
-101,57,-29,-1318,1883,-3670
39,46,-23,922,2717,-2050
-102,-7,-84,1321,5349,-530
-9,-113,-125,-813,4169,772
106,-96,-48,-699,4288,2208
116,33,12,-495,1354,2598
-69,66,43,-254,1213,2801
107,-21,-84,-2369,422,2676
-23,-5,-10,-5527,-1191,1060
91,8,-124,-1375,-3745,-912
11,-74,93,-2627,-8694,-2655
119,-44,-67,-721,-11514,-1427
25,72,46,-5971,-9160,-1194
10,9,-92,-695,-3446,-885
-57,122,61,-1175,-2247,-312
-126,12,-46,-116,-480,191
-117,-18,-66,-372,-589,348
104,26,106,123,1298,187
109,109,-70,-584,466,166
-126,44,-56,-782,1360,235
-82,94,-121,-2403,1814,637
-65,55,81,-1615,1904,1641
8,-82,-44,-2413,2547,1939
61,-50,-66,-946,1642,2386
-53,-108,70,1777,2553,1968
-12,-120,107,-523,930,2366
32,72,20,-214,2004,1814
79,-64,67,-391,290,2261
125,-128,94,1596,1279,1760
-124,101,43,1675,1642,1188
-99,65,58,1762,655,1676
-109,11,50,1399,787,1267
-110,33,75,374,546,1031
-95,-17,87,411,559,914
-117,41,115,-771,-597,518
-114,40,123,-924,-605,-388
123,119,6,5217,-716,-3045
-19,12,-93,4339,-159,-4107
31,-5,55,4038,900,-3486
68,-38,-98,2663,3647,-1707
120,51,-107,1453,3999,26
-4,11,54,560,4344,2264
125,57,7,-2121,3094,4615
122,-123,59,-6190,-382,5936
-119,-123,115,-507,-3192,1518
-120,-110,-43,-1742,-4938,571
-99,55,-67,-4010,-7208,-4361
75,-49,15,-1553,-289,-4550
-30,26,71,232,-375,-4083
-110,85,-116,1139,2551,-3231
-32,36,16,911,3589,-1910
13,13,76,65,4816,-576
60,4,121,594,4954,954
-70,53,74,-484,4745,2407
-123,50,-114,-1618,2434,3625
-24,12,-44,-1164,193,4529
96,-73,98,-763,-1302,2303
-24,-103,72,-2887,-3910,1485
-90,93,120,-1722,-7634,581
64,-52,-122,-6707,-11153,1101
35,54,20,-487,-10768,-352
110,-101,-42,-4086,-2447,87
-52,56,-107,-694,-1650,-397
-41,-101,-100,-292,-124,-563
-81,8,44,-762,168,539
-99,69,106,152,1695,-102
126,-51,-72,-1355,760,648
-82,32,-79,-3257,2143,202
-62,3,58,-4429,1883,1230
-14,-6,-9,-4002,1519,1869
6,-99,-24,-3905,708,2548
76,-88,0,-268,838,2579
-74,-94,0,-2294,846,2220
-8,-79,1,570,465,2657
26,56,15,-1056,483,1968
69,14,-14,-849,1093,1736
50,65,40,-1119,-224,2092
84,5,70,82,294,1547
119,97,61,-535,163,1304
93,92,102,-1060,-541,494
48,-7,-97,-10,-107,1
42,-27,-53,-91,340,120
67,-67,-100,588,503,-114
92,-78,-118,-284,51,-615
111,75,111,135,657,-517
104,25,77,798,226,-246
-26,71,-21,5973,1220,-3496
-77,111,-90,4296,354,-3311
106,36,43,4760,2344,-2670
111,57,-77,2743,3058,-1405
-36,-19,-42,1405,3635,-9
-19,101,-2,453,3066,1451
108,10,-78,655,3285,3432
127,-109,-67,-2271,422,4128
-91,-77,101,-1383,-3437,3068
5,39,-125,-3125,-4759,1391
7,-85,51,-2606,-5443,-2320
12,-15,125,-1304,-3359,-3561
-108,-64,0,485,-445,-3552
-3,40,76,-1498,-179,-2935
-40,-1,119,197,3087,-1827
-35,74,-93,12,3033,-744
20,106,17,-366,3862,46
24,70,54,98,3835,864
-18,34,-41,1040,3378,1887
-94,47,112,-440,2318,2777
41,56,43,193,1107,4265
-12,96,-123,5353,-559,3755
-5,-59,0,-2808,-479,1789
-60,-29,-79,-7583,-6490,4089
-69,-88,-37,-6373,-11259,2972
-118,-49,-18,-6085,-9738,-178
-27,113,35,-2959,-4225,63
27,99,-32,-1637,-744,29
32,15,106,574,-42,-243
5,9,-14,-903,-182,872
14,51,-100,-418,2049,213
-2,-121,-13,-1596,2069,362
59,-68,-85,-3961,3155,771
101,-8,-37,-4311,2375,1844
-95,64,-99,-4002,1697,2544
-26,-23,109,-2651,1075,2265
119,36,-124,-1094,1618,2765
-92,0,-109,-977,723,950
98,-36,-25,-499,222,2451
92,39,-10,-86,-156,2818
115,-103,-36,2468,1248,2978
-102,-99,-44,1860,243,2777
-59,74,-96,1794,568,2373
-40,-118,-63,1005,-160,1752
-80,65,-105,1461,-506,359
-117,-16,-44,763,-256,-495
-123,-96,-62,559,109,-346
106,-115,-27,160,-565,-554
-121,103,0,-207,-635,-655
-113,83,16,-301,-383,-923
-11,-124,-104,-2092,-3348,-3884
-74,90,78,5786,-730,-2536
-45,-83,-63,5239,1352,-3876
50,-76,-69,3969,-368,-3473
68,44,108,1596,2562,-2508
56,-82,-17,1934,2712,-1195
99,110,91,1979,3083,-98
-106,100,-22,10,3026,643
-16,92,33,-1885,2628,1977
1,-57,97,-1492,1555,4292
78,85,-13,-2964,-1413,4192
-22,-35,2,-4386,-2674,1003
-66,60,-45,238,-4361,297
16,87,-119,-2304,-3849,-2533
-31,124,9,1127,-2116,-3012
-99,-86,-103,265,-825,-3544
120,-93,-1,256,874,-3011
98,-29,97,912,2275,-2005
94,-120,-122,688,2942,-812
-115,-90,11,-59,3319,60
-44,-91,-111,-289,3705,1017
-30,-94,31,-358,3039,2017
-28,-89,-1,-129,2567,2953
33,-86,15,921,2130,2584
-128,59,-50,-2014,-1755,3902
104,-108,-116,-2510,-1521,1637
0,-29,31,-2409,-3694,1247
31,69,-89,466,-5970,788
-122,102,-107,-4489,-7679,775
68,-127,-11,-5825,-7989,-126
56,11,98,-1064,-5493,-835
-73,103,56,-2014,-2797,-220
-107,-75,69,-1671,-761,-90
20,112,116,721,143,-442
-95,-36,126,986,-136,-486
-108,-69,-63,-492,1345,305
-102,-56,-91,-2270,578,366
-65,-100,-44,-2792,742,-8
4,-104,112,-2581,2012,1973
38,3,30,-3002,1698,1813
63,83,-45,-3425,1009,2735
119,31,-66,-3229,828,2886
-30,-99,-18,-2994,1170,1996
12,126,-23,852,1153,2317
81,-16,48,1194,-581,2767
112,25,-11,-727,801,1856
71,-58,-20,1035,443,2499
94,1,9,657,-606,1998
122,-81,-27,2003,475,1590
120,-91,-25,1896,62,1249
117,-12,-124,3782,-2881,-4083
38,107,-46,3481,153,-4839
-27,-35,86,4342,259,-4552
-101,-49,11,2802,2070,-3602
19,-60,110,2836,2401,-1754
92,104,-122,309,4821,-76
-54,49,-76,-710,3482,2597
100,99,100,-1007,3169,5028
67,94,95,-3442,-1542,5144
-29,-59,24,-3838,-3507,2929
23,49,108,-3148,-3448,-977
12,69,-51,-601,-4673,-4170
74,-58,59,2392,-2257,-4604
71,-100,-7,-1035,-1142,-4942
-124,25,103,76,1588,-3747
46,-22,92,779,3488,-2117
-111,-75,-114,-119,4508,-449
10,-43,74,-1293,4810,1691
63,90,91,-3418,2953,3245
-62,-58,-94,-2368,1719,4848
42,70,111,-2024,-1102,4136
56,0,38,1400,-1395,2579
50,108,89,-5484,-2177,446
-55,-71,111,-1071,-7536,-4280
-113,95,-53,-1853,-10845,-2521
71,-8,90,-1036,-9435,-3545
-89,-82,-19,-1556,-7699,-470
126,-111,-115,-2077,-52,-406
6,-20,83,-505,-915,504
7,5,15,178,-91,621
-106,-55,114,-541,60,931
103,19,27,-832,689,747
-104,100,-47,-2819,1273,839
-61,27,-76,-3098,1455,1347
-38,53,84,-2974,1797,2132
0,-128,-29,-2094,993,2617
59,-33,-29,-1122,716,2995
-117,126,-40,-1164,1002,2540
-44,-89,-60,743,829,2675
56,98,-107,3266,1625,2388
49,-72,100,2009,1013,2766
108,-38,-113,-61,1067,2544
114,-93,119,492,991,2452
-86,-75,-51,349,54,2450
-83,108,-81,1520,669,1810
-97,111,-70,1824,389,1299
-106,94,-93,814,-99,541
105,40,-100,443,-183,-494
89,-12,-88,208,-432,-856
115,126,-45,512,-350,-1142
47,-108,58,3371,1698,-3330
23,-73,-104,4549,1025,-2723
18,-51,62,2795,2130,-2824
34,-14,-69,1946,2606,-1236
116,19,-6,1467,2863,79
-34,-80,99,132,3607,1608
61,53,-120,-384,2436,3999
-60,-103,84,-6102,-235,4916
-45,-24,75,-4526,-5405,2377
-5,-118,-95,-1447,-5002,-796
2,-103,-1,958,-3853,-4899
28,52,121,599,-553,-4294
-8,-44,-37,-589,1479,-3865
70,56,-76,1361,2243,-1946
-91,15,-96,974,4698,-768
-78,49,125,-290,3794,745
22,87,-90,-764,4015,2050
81,97,45,-199,2857,2799
59,107,-19,-779,1639,3921
-75,23,65,-1446,-647,4275
22,122,61,-1275,654,2055
-30,-51,-25,-4087,-11859,664
64,57,79,-6782,-11245,-663
27,30,-71,-730,-8153,-1923
37,127,49,-3088,-3288,6
-76,-28,-36,-705,-1491,-174
74,-67,-12,-254,-327,-2
92,-54,115,-902,95,488
69,75,-18,-667,580,331
102,124,-56,-1369,1130,-63
-103,109,-91,-2338,745,385
-92,55,114,-2561,1299,829
-78,118,84,-3156,1218,1724
-49,107,9,-1450,1489,1743
24,-52,-43,-1311,998,2073
111,101,-77,-1811,1027,2190
-116,-104,-57,-303,849,2645
-34,0,-92,-182,1403,2317
53,37,-87,1405,594,2369
66,51,-112,91,1413,1655
120,-31,-109,1711,710,2017
-116,-97,115,1743,1243,1866
-110,-81,-103,1009,371,2018
-82,-107,127,1098,126,1349
-100,-95,-69,518,-327,573
-106,60,-89,950,200,135
126,36,-63,466,-109,-141
-119,-42,-69,429,-88,-267
-109,-67,-57,191,-91,-475
-111,-118,-55,387,56,-426
105,-58,124,3424,1183,-3444
117,-25,-81,3778,1941,-3400
32,80,79,3226,2547,-2025
77,127,117,1126,3919,-391
-68,-28,87,-435,4173,1996
-99,17,-90,174,3190,4999
1,123,115,-6523,-973,5891
-48,-92,-120,-3690,-5111,1658
97,-17,-26,-2189,-4964,-663
109,53,23,2597,-3960,-5144
-34,84,-103,164,293,-4116
-101,111,-35,-442,361,-3994
-54,64,-45,855,3318,-2674
-84,-105,-125,1027,3391,-1101
-43,-68,77,-1763,4443,786
10,-96,-101,-305,3916,2867
109,17,-85,-344,2261,4082
-34,7,22,-2366,891,4448
30,69,-38,-1338,465,2882
84,85,20,-782,-1645,1225
63,-36,-109,-5978,-4632,-359
-73,108,5,-3437,-13363,175
-26,-103,112,-5627,-10343,-71
28,95,4,-2930,-4777,-1112
7,5,-89,-1817,-450,-689
61,-90,-56,-1217,-543,-246
-68,74,4,-837,641,-41
61,-34,90,-923,340,59
90,103,-1,-1254,1353,283
120,-95,-104,-3574,1821,-57
-119,80,108,-3638,2071,916
-98,93,32,-3432,1009,1580
-38,-94,9,-2333,1116,2212
20,4,5,-1790,967,2222
-102,-106,-21,-624,913,2817
-21,7,-3,-167,449,2832
97,90,-38,550,179,2904
106,116,-19,1318,-151,2618
-118,-128,-24,348,276,1845
-121,14,-16,1103,464,1729
-108,125,-35,3497,763,2229
-32,-70,-111,1252,538,1856
-77,-75,-55,703,-472,1264
-112,-125,-43,779,-376,848
-101,95,-56,510,92,23
-92,43,-64,112,-208,-309
-100,-7,-52,194,-389,-511
-101,-41,-62,-96,-199,-787
-109,-89,-16,99,-188,-816
-104,108,-46,721,140,-690
-2,-126,-48,-5196,-1092,5150
32,-27,90,-1960,-3141,1833
-68,-126,25,-1667,-4657,265
-17,6,-67,-4874,-3760,-3264
-36,-31,2,3899,-2714,-4620
37,15,-50,-1745,1059,-3953
67,-103,19,735,828,-2933
107,7,38,829,4227,-1683
-89,73,26,287,3644,79
-69,122,108,-203,4112,1261
45,-60,92,-199,3824,2178
37,-65,-66,-1170,2470,3392
-72,-32,30,-756,691,4104
123,125,-100,-3053,233,2692
5,20,-107,-2961,-4642,-222
-76,120,-46,-2127,-9412,-679
90,-106,72,-3507,-13617,1200
7,-11,44,-4380,-9332,688
4,-111,-67,-3098,-547,648
89,53,-80,-1369,-1072,-480
103,-34,105,-413,-502,57
111,0,89,-687,114,195
101,83,52,-578,730,326
107,107,-44,-1406,1421,-261
-113,55,-12,-2559,1644,468
-84,24,-107,-3605,2534,997
-79,18,35,-2433,1794,2183
-30,-40,-19,-2778,616,2526
61,66,-5,-1432,532,2639
-124,-72,33,-266,483,2775
-1,47,-9,1476,270,2620
48,116,31,-242,226,2522
37,97,26,987,807,2055
106,64,18,1691,953,1922
-124,-17,-75,2628,1343,1416
116,-56,-104,2498,442,1610
-127,-75,-124,955,283,1317
124,-50,-80,-835,-180,656
118,-124,-53,193,-334,313
122,109,-41,401,-220,-174
125,34,-50,434,-67,-610
-128,-19,-46,375,-173,-624
116,-80,-52,326,-279,-573
116,-83,-57,-195,-145,-514
111,-105,-55,-208,-158,-394
103,-108,-60,-101,-60,-225
110,-103,-62,-120,29,-23
105,-99,-60,-155,-100,138
114,-78,-62,-121,51,201
109,-64,-63,-139,45,350
-125,-126,75,3065,1758,-3359
52,-10,-112,2890,2024,-2412
94,27,7,1820,3974,-629
-67,-16,-10,12,3690,938
58,-81,125,-393,3357,3713
-93,72,104,-2323,1719,4900
106,-47,-64,-5927,-1115,5193
122,-20,-116,1228,-4564,400
56,-43,-119,-1280,-3767,-125
35,-61,25,-4130,-4575,-3829
45,-61,-25,1424,-2553,-4987
16,-115,-66,-799,-180,-4194
35,124,19,-1386,1533,-3019
2,-68,-76,471,3973,-660
24,54,-63,311,3529,913
114,-54,-48,-770,3586,2270
-35,5,80,-1307,2935,3526
18,54,-43,-210,1559,4011
-3,18,5,-3265,-360,4369
13,8,-17,-3501,843,14
-94,-74,-39,300,-3993,1457
-18,-42,58,-2796,-3346,-3045
-62,-36,68,-2833,-11646,-2852
-30,118,-101,-2515,-9661,-1681
4,118,126,-3323,-5045,-139
-114,119,-1,-2159,757,-375
-3,113,101,-221,-629,-63
-118,-81,-15,468,200,42
75,118,110,176,-508,580
87,-6,-61,-1434,1494,87
121,-11,121,-2388,1852,-460
-95,-103,106,-3157,2164,214
-75,-93,18,-4370,2348,1211
-24,17,-46,-4953,1102,1840
42,35,9,-1417,-38,3012
-110,-52,38,-1900,713,2046
9,27,34,-1517,1076,2281
93,55,117,26,1183,1700
105,39,97,1793,-648,2515
-104,-106,-111,1093,-1238,2803
-89,74,121,2166,-564,2256
-93,83,55,910,57,1879
-84,41,12,629,-349,1205
-101,-61,11,1990,-185,1131
-109,-84,-6,1479,-388,785
-107,120,-29,706,11,108
-96,83,-40,144,-60,-232
-93,35,-42,141,-109,-555
-95,-24,-49,278,-224,-585
-93,-48,-46,197,-286,-827
98,-93,93,-2429,2842,5359
-102,106,70,-6431,-2627,5361
126,54,-35,-3016,-3499,2206
-107,26,84,-3395,-1906,-2797
-85,-82,21,1345,-6089,-4687
-75,-21,-53,-1281,-2278,-5490
-61,56,-94,-414,1148,-4033
-117,-35,84,725,2485,-2729
43,-116,-11,1145,5485,-515
-128,-40,-98,352,4325,1291
23,55,108,-345,4595,2801
62,-4,103,2800,1577,4288
89,103,-74,296,1557,4327
42,102,-52,-1758,1120,1640
43,-89,-77,-8557,-2363,1369
-38,-30,-95,-3698,-11217,-2855
-35,10,-121,-2301,-14487,-654
23,14,93,-3171,-7739,1787
12,115,107,-3821,-1499,497
64,-47,114,-30,1889,-863
-12,45,19,508,-868,278
-128,43,-85,-263,2250,-80
104,114,-8,-787,1259,547
-106,-32,-37,-1861,2941,272
-57,-52,-117,-2485,2838,537
-9,109,18,-1853,2830,1273
9,-41,-8,-2690,2133,2031
-120,27,113,-2966,2756,1870
-87,86,-119,21,871,2678
5,-7,-126,-1858,1421,2054
53,25,-96,-431,541,2084
106,4,-74,1462,491,2207
114,61,-82,775,423,1534
105,-33,-98,1422,526,1606
-110,-31,-96,703,571,1699
-68,-56,-102,1024,556,1556
-76,-48,-78,754,-440,785
-97,-83,-77,505,-454,240
-108,-107,-56,73,-473,78
127,77,-48,588,-241,-349
-120,61,-46,232,-353,-516
-112,16,-52,304,-62,-709
-127,17,-41,-433,-156,-985
116,-35,-29,43,-413,-691
115,-71,-41,190,-324,-550
105,-100,-45,-64,-275,-479
88,-90,-49,-453,-332,-167
82,-91,-57,-461,6,46
86,-76,-57,-213,44,377
96,-32,-56,-499,-51,578
-115,81,6,4027,-754,-3362
-74,112,-79,4165,348,-3694
123,117,31,4250,1578,-3216
-108,-117,88,2352,2535,-2529
103,-116,-110,2673,2581,-888
-117,-4,39,1491,3666,884
-100,55,-46,2425,2745,3681
1,-115,9,-3227,901,4440
95,116,112,-4051,-2640,3647
-77,-64,31,-4245,-3251,1634
50,91,15,-6292,-4743,-1842
-93,41,73,-474,-4169,-4916
97,-61,-128,-755,-2144,-5397
-111,102,112,-1985,-312,-4882
-119,-45,-21,1014,2091,-3134
87,64,18,-947,3826,-2057
71,61,60,-82,4608,-415
-32,73,10,-486,5492,1306
112,86,70,-1153,4930,2684
-74,68,56,-1054,3094,4431
9,-32,-29,-1963,1101,5086
113,-24,100,-1464,-1337,3723
-43,-61,-6,-3815,-2180,1658
51,55,5,-2623,-4841,-1513
-32,-128,77,-3827,-12917,-1591
43,-118,-77,-7890,-9279,-1202
77,26,-112,-710,-4919,-2474
2,-17,12,-2117,-544,-1871
-108,39,104,823,-730,-557
7,-67,-125,-618,-730,701
108,103,31,-1191,-8,764
58,32,0,-480,371,769
92,6,-1,-2182,947,1150
-114,3,-40,-2664,804,701
-8,89,105,-2815,1289,2638
12,-121,2,-1664,1138,2714
74,34,-30,-1437,441,3142
-55,-54,30,-3102,-149,3346
-12,9,30,-1026,607,3090
117,17,-42,1681,1538,2174
-95,-111,-31,690,336,2948
-105,44,127,2389,318,2474
-64,113,-127,819,351,1642
-97,-9,117,1957,-53,1683
-98,-79,-127,3023,-1,1071
-105,120,-125,2034,89,1020
-128,34,122,2098,102,674
104,58,-92,581,-457,669
104,4,-75,-59,-291,-41
102,21,-36,-1041,-569,-421
-92,-4,86,7607,1303,-4179
56,-94,-101,4745,2593,-3194
-86,56,98,2624,3508,-2634
-14,-13,-12,996,4200,-767
42,17,23,481,3772,1969
-116,53,70,-1984,4192,3140
44,94,48,-2344,1597,5452
-64,74,-99,-4967,-3191,2858
-30,88,-127,-2195,-5492,1163
-37,-17,84,-2262,-3435,-1409
58,117,35,-2083,-3738,-5421
-43,-111,-49,2597,-2065,-6107
-72,112,7,268,-488,-4859
-43,110,106,-980,2518,-3059
-110,-54,103,436,4226,-1213
-56,26,-4,-97,4578,549
64,98,72,-995,4516,2536
-59,-84,-98,-555,3509,3822
28,2,-54,136,1088,3863
-7,91,-34,-1379,452,4542
-117,12,116,-244,-35,2911
28,-27,-42,-2790,-2520,1115
93,-10,-44,-3899,-7038,-345
-105,74,-8,-5549,-12286,55
14,117,-95,-5899,-11396,-288
53,62,-42,-2316,-1582,-831
-89,43,-22,-1170,-1083,-922
-124,-65,112,-761,-166,47
-80,98,108,-377,-608,660
60,77,-1,-764,498,663
97,119,-36,-1380,1305,22
-119,113,-76,-1832,1699,406
-64,117,103,-2307,2271,655
-42,120,33,-2247,2510,1276
0,-102,-27,-2604,2303,1273
99,24,-62,-2883,1183,1875
-82,31,-82,1056,694,3022
-12,-55,-58,-1181,709,2222
87,-29,-93,-1140,1685,2427
-89,-3,-80,-1028,2224,2427
-88,46,23,-423,3,2300
-25,46,44,374,-607,2684
-50,55,13,-474,-800,1862
-42,-3,45,710,-466,1419
-57,-113,8,2390,-247,1417
-67,115,12,2124,-621,1065
-73,83,-37,1097,-201,360
-96,33,-14,-7,-405,-315
-99,-18,-17,-13,-384,-344
-107,-34,-10,-135,-343,-393
-27,17,-111,4842,2875,-2884
-30,72,-36,4887,2300,-2454
-23,-37,-52,3415,3373,-2203
-26,73,102,2897,3738,-1150
-52,-95,-70,1727,3797,533
-53,-117,0,-307,3012,2942
-16,-95,90,-1655,1202,4401
123,-55,-104,-3704,-588,4190
11,-30,-103,-1800,-4216,2387
-81,87,103,-632,-4159,315
-3,-13,96,-2565,-3909,-3349
-122,-108,65,938,-2580,-4857
34,72,-116,-940,-607,-4633
95,-99,-62,-1154,1433,-3385
75,-28,-59,745,3414,-1705
21,-5,-43,-57,3378,-478
-14,35,6,-120,4066,1077
86,112,-117,-875,4693,1925
110,-102,41,-466,2702,2997
-53,-123,-119,-573,694,4866
90,53,55,-1471,-874,4394
-106,99,125,-2268,-1763,2679
-4,24,97,-3533,-5590,1610
-20,124,111,-7632,-11262,-1222
-45,120,86,-4657,-10481,-1479
-8,111,58,-3895,-7436,-2110
-88,63,-33,23,-3257,-913
-67,-9,-7,-1233,138,348
-30,109,-27,127,-1393,-36
84,2,109,-179,334,346
-11,119,-24,-534,953,466
41,121,-71,-276,1278,511
64,118,-35,-1673,2351,1003
-111,84,65,-1935,2354,1791
-56,-56,-64,-3385,2459,2543
-15,22,81,-2132,2144,2908
79,-100,32,-1276,2077,3096
-92,-12,83,-1248,1010,2983
-93,-87,-125,-1459,-416,2875
-62,-88,-75,790,532,2772
-72,-65,-75,966,486,1899
-128,88,-65,1537,604,2170
-78,66,-74,2141,662,1874
94,-50,-65,3310,94,1150
-106,-3,-13,1280,97,759
109,-125,-39,2060,279,285
81,-127,6,1024,-337,74
85,48,5,388,-219,-178
86,61,22,-909,-507,-504
103,7,19,-418,-309,-632
-112,-35,-118,3438,1149,-3599
77,96,-2,4512,1506,-2823
16,118,-30,3130,4006,-2089
-93,63,-64,1754,3644,-1120
-46,-12,22,1734,2810,708
10,-89,94,-200,3900,1450
86,-111,-31,-1993,2082,3670
36,78,-36,-3402,223,3909
15,-23,-4,2414,-1865,3174
20,-127,42,-2026,-5898,2119
-102,8,-90,-3220,-8599,-2143
-112,61,35,1196,-1607,-4660
-109,-77,-121,-199,56,-4596
32,-59,-62,-10,1464,-3732
-15,-101,-78,944,3455,-2294
0,-71,-6,344,4086,-1162
34,-82,72,835,4741,135
76,-49,-110,352,4566,1142
60,-83,68,-502,4396,2823
56,35,31,-1194,1670,3664
47,-80,13,-449,-657,2464
55,-43,-5,-2626,-2214,2210
-94,22,98,-1970,-6021,2029
-29,-60,-84,-5697,-10035,4409
122,-50,116,-9450,-9209,1726
-117,102,-46,-5303,-4036,-2036
-50,91,-2,-610,-2926,81
111,95,117,-1395,-436,-650
7,-99,36,1009,-275,38
-62,-83,16,-1451,37,666
-104,-49,-13,59,630,506
-8,46,112,-2363,931,-37
-5,-19,-128,-2943,1345,726
20,-3,5,-4570,2049,1439
25,47,-47,-3630,674,2583
78,-99,-33,-1426,173,2525
-94,41,-6,-554,378,2343
-12,-125,-33,-794,1197,2007
32,115,-71,948,677,2168
100,-80,-43,511,702,1979
85,-124,-107,2227,536,2238
72,-115,-8,2072,-212,2672
86,-72,-56,-547,880,1632
105,-117,-30,-156,-81,1563
115,42,-24,1814,77,1270
95,48,-9,1198,-200,800
103,-4,-41,480,293,57
91,-40,-30,175,-99,-168
94,-88,-32,329,-143,-224
111,-115,-43,131,-22,-491
-73,81,118,2751,2099,-3485
69,-106,-81,3730,3325,-1886
104,27,-21,3124,3925,-528
-99,-83,-1,1795,4424,1024
75,-104,45,-2440,4063,3456
12,-39,-72,-3009,1464,5918
-113,9,-89,-8157,-5085,4183
-6,-29,103,-3633,-4822,306
-30,-56,-22,1897,-1991,-3681
62,-36,-31,-1099,-4999,-6224
-54,43,37,1940,975,-5497
10,72,-108,1195,952,-3336
-127,7,-126,-770,4156,-2280
-68,-17,126,5,4202,5
46,-125,-112,-205,4959,1860
-120,-6,25,-313,4799,2683
63,98,117,-448,4219,3776
25,83,-42,-841,1311,3526
78,-76,-46,-1948,-1501,3725
45,23,-99,-3575,-3851,182
11,23,-20,-4161,-9005,-1129
117,-54,-119,-6637,-12133,-1123
9,76,96,-4393,-9362,-2511
30,-33,25,-3028,-4937,-638
1,-95,-51,-1217,-1646,34
56,-85,54,-807,-368,303
-120,65,-87,583,-479,-78
92,-123,-109,-153,842,98
-126,-91,-9,-170,1295,-124
105,-81,-76,-436,510,450
-126,-114,-63,-45,1447,287
-104,102,-119,1046,2051,577
-41,89,-32,786,2694,711
-3,76,117,1500,2573,1041
36,87,32,1121,1797,886
91,108,17,237,2421,954
-110,118,22,-1082,2636,477
-56,44,-32,570,2975,1495
36,-83,-9,686,1502,1415
98,-85,3,326,2236,1215
-111,-116,-33,498,2141,990
-78,121,28,-21,1250,1297
-59,-85,26,-1500,1704,752
-66,-117,69,-45,757,858
-56,-14,87,-1619,453,851
-55,-25,-126,-744,-109,689
-60,7,-119,-692,-104,252
-108,9,-50,-434,-869,101
-108,-34,-36,61,-320,50
-102,-71,-34,316,4,-86
-85,-125,-44,4535,1609,-3856
-89,-101,-61,3375,3337,-3658
-120,119,-15,2626,3654,-2174
-80,-57,46,2923,4066,-187
-18,121,-113,219,4273,880
-110,103,43,-2187,3170,3531
-49,-78,-32,-1985,-1159,5730
82,-92,-125,-5474,-3829,4978
-79,23,86,-3782,-3836,685
-5,50,69,1097,-3544,-3743
30,2,51,1126,-3114,-4163
54,-31,11,76,85,-4176
-110,-19,53,384,1831,-3193
95,101,122,150,3930,-2185
-93,-2,13,878,3802,-214
-17,63,96,-615,2899,1059
45,69,50,-339,2534,2678
-45,106,-38,-491,1992,3634
109,38,117,-1030,1008,3548
40,-118,-33,-3072,-1040,2074
104,-16,59,-773,-2819,1128
-94,58,37,-5691,-5715,-309
-74,94,122,-4344,-10703,-199
-14,-58,2,-4670,-9326,-1365
30,-87,99,-3663,-8450,-2561
-84,-116,125,-1817,-1281,-827
36,-72,-97,-586,-1034,369
50,-52,-69,-475,728,35
54,-40,-75,-261,313,369
44,12,108,859,1797,139
83,-108,-28,-864,1829,197
-104,-107,19,-3537,2860,550
-27,78,87,-3999,2268,1591
24,38,3,-1428,1012,3123
52,87,2,-3518,443,2800
-125,92,-32,-953,825,2995
-20,26,-10,-1003,736,2545
-4,-2,-34,398,642,2600
84,103,61,-579,72,2906
117,28,6,2107,925,2741
-62,47,-8,1948,517,2611
-25,-6,-63,2625,575,2609
-30,-115,-114,4987,-793,2750
-50,36,47,-436,-214,-134
-124,-116,-123,207,-96,-175
120,2,-107,1123,34,94
-124,58,-98,-918,-19,-990
-111,-27,-81,-267,-286,-931
-126,-72,-45,264,-714,-969
126,-110,-44,363,-394,-1011
-115,-123,57,4546,1555,-3155
-13,-70,126,5570,1922,-3881
90,-116,-79,5402,2719,-2845
-98,19,28,1684,3987,-1294
38,35,-30,596,3953,1089
119,51,-70,-1279,2600,3310
-115,-124,-68,-2897,815,4714
-14,-91,39,-4525,-2425,3264
-118,122,93,-166,-3688,1741
91,-77,17,-3942,-4871,-892
115,4,29,516,-4464,-4166
28,-107,-50,81,-3102,-4641
118,-4,48,-906,-695,-4395
-95,40,-88,105,2307,-3021
-105,-15,93,294,4100,-1405
-109,2,38,-181,4218,179
31,86,-37,-633,4536,1791
108,64,56,187,3704,2524
33,-55,-94,-2333,2141,3256
-80,23,116,-824,1231,3539
108,127,-85,133,-1137,2953
-62,12,3,-4456,-2228,1989
-95,37,-5,-6674,-6636,-1117
-113,50,-71,-5540,-12227,-2417
15,-112,116,-3911,-9294,-4006
83,-111,100,-268,-3763,-1716
-52,-33,121,-2178,-1059,-968
120,55,-111,-1387,-963,-94
13,-45,5,-343,517,-166
-124,-120,-123,360,699,-97
96,52,2,-1705,645,100
-110,45,-50,-3643,1758,896
-104,-18,85,-3006,2244,1450
-6,40,-57,-2078,1563,2348
49,-56,-93,-2349,1281,2756
-82,46,115,-263,902,3340
0,-34,114,-1135,771,3070
50,2,125,71,381,3118
114,39,-99,997,565,2968
-84,-18,-89,1470,1112,2698
-20,-79,103,1478,1771,2289
12,121,102,2536,513,2803
-18,124,102,1620,-452,2042
-30,-79,-108,-599,-84,814
-76,54,-91,351,-191,323
-102,3,-60,802,-570,-181
-99,-47,-66,356,-292,-546
-116,-116,-49,-120,-350,-787
-111,89,-47,-135,-140,-661
-117,67,-58,-190,-202,-642
-72,-47,84,5365,1374,-4012
-120,-17,124,4081,379,-4049
-127,116,96,2765,2269,-4159
30,-51,-49,3677,2184,-1634
49,-87,5,2248,3301,743
-114,-5,75,-895,3387,3244
-16,-110,94,-2802,3505,5992
-92,-42,-65,-2089,-540,6604
29,82,102,-5790,-3345,575
-92,-121,-52,-1868,-6187,-1138
-109,-72,-93,-196,-4215,-4977
-79,-30,-81,-739,-1477,-4452
-34,-12,-128,-2123,737,-4302
88,-56,-27,-329,3496,-3571
-87,-33,-51,2556,4087,-1497
-80,-70,5,969,4219,-611
87,-123,78,-751,6128,1493
-31,84,96,-689,4555,3840
42,28,-108,3296,3305,7163
30,106,-41,393,884,1199
65,-115,28,-8481,-735,4231
-107,-7,30,-6271,-10712,1993
9,-19,-116,-9902,-10331,3896
-19,-22,80,-2762,-10280,-1086
78,126,114,-1543,-1932,-457
-89,125,74,-1419,-615,220
67,80,9,-776,-118,147
88,39,-69,-302,-210,372
56,93,-118,-255,1442,25
67,-89,-9,-1226,1053,41
116,-96,-79,-2962,1589,319
-105,83,-77,-2709,2012,655
115,57,-119,-1722,1505,1459
-73,118,87,-1476,2179,1506
-6,-89,28,-578,2099,1714
62,4,-54,939,1777,2091
-116,86,-128,746,2517,1841
-33,-99,71,227,1612,2262
20,-44,61,121,1561,1857
61,-73,81,522,1510,1464
97,99,86,1299,1974,1504
125,89,83,889,1432,1627
-117,-124,87,198,432,1720
126,123,118,562,-152,1101
-101,120,122,56,197,527
-108,87,-128,-53,46,13
-124,15,-94,496,-390,-268
120,-18,-74,25,-430,-638
99,-75,-55,-58,-360,-727
104,-100,-48,-121,-269,-487
84,-42,-77,4928,1171,-4029
-13,-97,-112,3401,2301,-3430
10,91,-5,2858,2922,-1753
88,95,10,1686,3869,386
3,-5,14,-1178,3648,2878
-69,127,-75,-2538,2030,5548
-58,-7,-113,-9050,-3144,4655
-66,-114,-52,-1914,-5768,585
114,22,-26,474,-3389,-4012
-24,52,-55,1439,-1875,-4172
-26,54,-75,-1124,1163,-4152
109,-44,-66,2485,1968,-2579
106,71,20,1130,3903,-1421
-63,34,-17,-1015,4056,81
63,35,-40,-678,4263,2332
-125,111,26,228,3167,3594
109,-84,100,-497,1656,3264
-91,85,14,-1172,-166,3589
-34,-24,84,-3513,-533,1411
36,26,127,-2339,-8606,156
-77,83,6,-5786,-9749,-1990
28,-41,39,-5409,-15314,615
61,116,-32,-2638,-4795,-1122
64,-9,56,-1282,-1425,-278
-1,-116,3,-495,-1405,71
47,24,-108,346,-119,410
-95,18,-99,-886,-6,294
105,6,-64,-661,2313,203
93,79,64,-2227,1341,639
-107,58,-39,-3051,1979,1564
-86,87,119,-2984,1416,2017
-37,-74,33,-1623,1046,2873
3,46,9,-1366,1026,2687
64,-126,-30,-520,1072,2459
-107,-17,-42,-1143,1314,2302
-71,-72,-66,1199,1399,2429
-4,86,-25,-719,795,2276
59,0,-32,799,1386,2140
82,46,-73,612,611,2000
114,4,-50,1346,12,2066
-122,-78,-59,1876,560,1617
-120,-82,-81,1569,540,1280
-115,124,-86,1572,39,923
-125,122,-87,261,-206,299
126,72,-68,-50,-241,-420
114,21,-45,274,-431,-394
110,-39,-40,488,-207,-528
117,-58,-53,338,-347,-720
113,-88,-48,-8,-525,-572
97,-121,-26,-218,-403,-470
-123,-109,-93,3416,1164,-3677
-31,75,-95,3856,1883,-4076
-45,19,70,3650,2145,-3331
-90,87,-40,3716,3675,-1624
-38,16,1,1334,4367,773
68,-55,-48,1023,4219,3774
-67,93,111,-3596,1823,5781
110,-14,-104,-6978,-2839,4802
-94,58,15,-105,-4454,1757
26,-18,-106,-6482,-5395,-2499
-62,-88,-51,1427,-4205,-5384
18,-25,93,-2287,-725,-4944
10,109,-103,-1292,2308,-3278
-111,-58,-118,195,3931,-1648
-66,28,3,-1052,5203,243
7,93,2,373,4326,2415
-74,-13,56,-1340,4118,3058
-82,-44,115,617,1834,4403
26,-113,57,-931,569,3746
92,-74,-89,-1559,-1261,3090
123,-84,80,-1458,-2516,1364
125,-70,-22,-4004,-5884,-188
-50,71,91,-4262,-11728,209
21,123,-113,-4520,-11885,-804
82,74,-41,-1620,-3452,315
-77,80,-123,-2069,-1300,-563
-54,43,-70,-82,1368,-635
125,61,-124,-882,-638,935
101,-36,49,-102,1042,167
114,76,117,-932,520,368
-128,28,-122,-523,1770,79
-105,65,-115,-1765,1436,403
-39,28,61,-3018,2703,916
-1,54,-31,-3141,1678,1553
98,103,-92,-1327,2646,2939
-43,62,-115,-454,1611,3465
65,-20,63,825,1482,2627
-107,-1,101,-937,1823,2590
-99,-14,93,1065,599,3130
-9,32,-103,-344,670,2633
-25,-12,-117,616,630,2455
14,-67,-81,2376,351,2370
-4,-90,75,2195,430,1104
-52,-90,108,482,-303,-107
-81,38,-118,732,-239,-206
-110,-50,-83,672,-336,-512
-114,-91,-71,493,-314,-499
-125,113,-46,143,-307,-600
-114,78,-45,177,-201,-552
-102,76,-39,-78,-261,-422
