AccX,AccY,AccZ,GyroX,GyroY,GyroZ
-11,15,-55,-2034,3249,-4807
126,-97,90,-1912,4213,-4226
2,83,75,-1277,4486,-3135
13,-10,90,-1332,3810,-1871
83,48,11,-283,6012,-494
20,-126,34,-392,4080,-140
12,2,-48,-1296,2615,1763
67,94,-82,-1427,406,2816
103,5,127,-1131,-1010,3606
38,35,72,-217,-4044,3128
86,47,90,-1968,-5165,-3979
51,92,-126,338,-3049,-4229
-39,39,-61,172,655,-3678
-67,-78,-107,33,2355,-2549
103,-110,-79,213,3781,-654
82,126,10,-120,3276,1276
-50,-66,-29,-540,2764,1492
-29,8,8,-1207,464,2668
21,9,32,-912,-892,3521
-81,99,65,481,-2898,3026
-108,70,-54,-750,-4476,-908
-100,53,31,302,-2623,-3131
-100,-78,-39,571,780,-3378
-127,-41,-60,468,2393,-2943
112,-41,-61,691,3234,-748
29,-5,109,-397,1412,-266
-100,102,40,-691,114,-223
-115,-111,-38,-630,-164,548
68,-83,-63,-157,-1171,1104
-115,-13,110,-790,-4150,2038
-113,-2,-101,-440,-4708,3418
-14,62,-83,-2,-3145,3124
-79,48,32,1608,-3064,3712
-25,-86,-20,763,-2044,3451
-83,127,10,2160,-1680,3085
-58,-85,14,1058,-932,2532
-113,87,-2,927,-120,2038
110,84,10,686,-782,1661
73,-90,-41,1658,-117,2072
43,-117,-71,1110,-750,1912
32,-87,-86,-94,-780,972
49,-84,-55,-315,-302,257
63,-123,-98,200,280,-140
60,102,114,-162,154,-515
86,65,83,-160,-6,-516
113,22,74,140,153,-477
-118,33,47,-210,168,-653
-128,-13,37,14,-5,-569
-126,-14,19,-59,156,-35
-125,15,-5,-178,-28,77
99,-18,-126,-2900,3237,-4873
93,26,76,-416,6475,-3272
66,-86,81,-212,6040,-2123
92,36,51,-998,5604,-1549
-119,-55,-51,692,5148,2152
-81,17,-123,-2167,840,1630
-44,-27,112,-1163,143,2723
-79,-59,3,-814,-2844,2814
-22,116,124,-767,-4936,-2217
35,75,60,545,-4996,-3624
-43,-49,-20,1779,977,-3118
113,-128,-110,-66,2049,-3836
-6,72,-69,808,4175,4
25,-77,112,5,3379,576
-16,-14,41,-815,2605,-29
13,-42,59,-2223,585,1441
77,125,3,-1952,-70,3504
-14,-55,20,-1945,-3328,2938
-7,-95,-110,39,-4116,-824
52,-108,-124,1045,-3534,-3101
2,-65,-40,1749,-210,-2920
106,46,-46,1419,2009,-2053
117,-34,-32,635,3577,-860
70,113,71,442,2995,249
-18,24,-105,-1113,480,-171
-20,65,-19,-1005,-746,328
18,-69,-41,-1083,-3800,2204
-37,15,55,-478,-2929,2123
-79,8,106,-534,-3488,2635
-58,-42,-111,713,-3193,3716
-36,19,-127,-154,-1697,3239
-95,101,-48,771,-3106,4164
0,63,-114,929,-1035,3173
-43,-117,-38,604,-1364,3238
-51,93,-45,1167,-645,2796
126,66,-11,952,-483,2133
-110,-6,-58,1067,602,1830
62,-1,-106,675,-488,1027
50,-27,-111,134,-444,220
58,-74,-124,-81,-86,-163
64,90,105,403,175,-295
83,66,100,308,156,-410
102,36,70,62,130,-434
122,1,52,-14,27,-321
-120,7,49,-133,11,-239
-119,13,40,-252,-148,-168
-127,12,34,-89,3,-73
124,29,26,-130,25,-43
-128,31,23,-14,-113,84
-125,66,24,-408,-231,164
120,50,-94,-2741,1819,-6529
116,122,105,-3821,4896,-6389
-19,104,76,-926,5978,-2727
-18,-125,76,-489,5500,-1576
76,82,53,-874,4390,-428
-116,39,92,-826,2153,1747
112,-115,-11,-1200,1066,1551
26,85,122,-1373,-992,2597
-109,112,64,-628,-3009,2945
93,67,-115,-70,-4460,-79
42,-95,91,1249,-3058,-3469
31,-102,-74,1201,274,-2506
68,-7,-86,311,1514,-1838
-42,-63,-64,247,3392,67
-53,22,-29,-359,2349,-188
-120,29,-32,-1082,1710,-89
-57,-19,96,-1279,780,2338
-5,109,13,-1484,-53,3044
-119,-26,92,-2872,-2582,2563
-83,-11,92,-753,-3977,629
-120,-43,21,965,-3803,-2486
-13,-72,74,528,-2213,-5830
62,-14,-64,2508,2571,-1235
25,2,-65,1401,2621,-531
-102,-53,-70,290,2764,-833
-3,-75,-89,-466,1954,-172
56,49,-89,-664,710,310
56,-53,-4,-1347,-1662,128
-12,-35,0,-1675,-2367,1144
-63,-59,-45,22,-3331,2335
-34,-41,31,18,-2417,2567
109,1,-112,-758,-4799,4070
-65,-39,123,1492,-1791,3391
-69,-99,-98,-675,-2148,2967
-88,47,-81,1161,-1660,3680
-54,-123,-10,530,-1526,3102
-13,81,-45,1142,-1039,2980
-120,89,37,459,-1039,2495
-75,18,-55,1331,174,1985
84,40,-96,-245,-879,1183
18,-3,-35,55,-820,1012
55,-48,-68,605,304,458
66,-27,-112,-90,-37,-340
52,-71,-109,-81,-51,-600
65,78,101,543,627,-632
99,64,70,115,321,-724
114,41,47,-277,-5,-552
-111,3,31,-15,225,-368
-114,22,19,-236,-47,-151
-115,28,24,-263,-116,-20
-87,51,79,-2473,2199,-5518
25,-31,-40,-2014,3123,-5688
-48,10,70,-3162,4664,-4931
-63,105,96,37,3710,-1669
-92,-80,127,-425,3372,-497
-40,42,119,-226,2917,1800
11,-120,-37,69,1435,2198
-63,-25,-124,-812,-14,1758
57,-94,-124,-475,-1721,2083
-96,-80,-39,-811,-3131,174
86,37,3,373,-1664,-724
-108,-50,35,1390,-129,-1020
-65,76,78,-125,556,-2230
-27,95,-117,261,696,-1185
-3,74,57,620,2717,-832
-88,-42,81,-26,2020,44
43,-82,-114,-374,1338,1416
-111,55,21,-628,520,2181
47,30,-62,-1414,-1995,1864
-109,85,-29,-1466,-2678,-111
-93,33,-83,459,-1327,-15
9,13,51,486,-1469,-2170
-60,8,13,1057,-45,-2060
-46,-71,-24,1028,1565,-826
124,85,-116,681,2157,-509
55,68,-61,123,1212,-626
-122,94,3,-1067,-105,-500
-4,83,71,-1073,-31,-47
0,-73,-94,-1631,-2865,1691
6,-14,-119,-1010,-2967,1368
-67,-7,15,964,-3695,3250
-80,-22,98,1198,-2356,3046
-75,37,-126,-13,-2597,2798
-67,44,-119,665,-2370,2564
-67,84,-87,81,-3276,2570
-39,86,-31,862,-1565,2983
-93,75,-28,1046,-1082,2814
-93,72,-16,1484,-1093,2596
-98,33,-42,1491,381,2349
96,43,-96,1661,-426,1645
45,23,-85,915,-331,846
27,-24,-70,783,-171,97
18,-77,-112,-44,83,-244
40,-46,92,-1834,-9,-1344
54,116,111,-750,-196,-1061
106,49,76,-109,368,-830
126,42,57,154,165,-776
-126,24,28,-16,148,-728
-126,7,28,-112,210,-512
-117,0,17,73,83,218
-80,14,-127,-2677,3110,-5044
44,-48,55,-1648,3360,-4831
-42,121,81,-2199,4397,-4420
22,-21,87,-1160,5035,-2667
30,4,-61,149,5278,-775
53,27,-87,874,4512,1371
51,60,-28,-767,1524,1472
95,-103,-124,-1324,245,1787
52,-104,6,-741,-2336,3593
120,18,-128,-942,-4654,1099
95,48,-61,-166,-4027,-1999
-14,91,-56,1718,-119,-1920
68,33,-72,402,1321,-3011
58,-96,-67,890,2978,-1390
-91,-32,-11,418,2948,-586
70,-74,-30,-606,1587,-75
-73,-82,68,-1303,1013,1349
-16,85,-66,-1014,92,3258
-40,-78,102,-780,-1996,3522
-1,-120,123,-1870,-3610,-2346
123,-67,-121,1314,-3263,-2079
73,-120,-94,1229,313,-1296
114,26,4,1065,1162,-1458
101,-110,-72,1102,2719,-971
115,81,-62,759,2060,-546
0,70,-16,-120,839,-1666
93,108,31,-1751,520,-433
76,-124,-41,19,-1170,1775
37,-34,-23,-313,-1991,1373
-77,-44,94,-622,-2949,1982
-101,-34,110,-942,-2665,2583
-121,-18,-104,-270,-2865,3502
-105,31,-85,423,-1665,3670
-126,-119,-78,-366,-2266,3560
-100,101,-21,1332,-891,3735
-59,108,-55,478,-903,3632
-115,71,-7,790,-602,3624
-57,15,-48,1513,42,3503
-112,78,-77,155,-371,2503
64,75,-83,-218,-858,1715
52,-5,-108,574,-343,877
28,-29,-125,635,-233,162
57,-61,109,-442,49,-743
76,103,105,311,295,-677
86,52,95,480,112,-580
-115,-71,86,1049,313,-175
-94,-43,69,251,189,-321
127,-43,45,-384,-102,-410
-119,-65,33,-143,-87,29
-124,-31,25,-178,-94,244
73,-107,99,-5100,-1463,-2454
104,87,28,-3557,-40,-4150
108,77,36,-1412,2018,-4778
-32,85,-29,-2436,3466,-5885
-127,-55,68,-1449,3552,-5390
-2,94,62,-2434,4291,-4324
-72,37,-96,-654,3785,-2668
69,39,-24,-1319,2866,85
84,-20,59,-270,2103,2195
-101,-103,-32,-717,1471,2675
-12,-13,-118,-541,89,3290
63,-28,53,-503,-1694,3441
85,120,103,-1269,-4438,405
98,116,-56,239,-3616,-2400
-36,108,-96,2055,-187,-2130
13,96,-107,42,103,-3709
-13,-24,-116,272,2705,-2703
80,-56,125,543,3453,-731
-10,-102,78,-164,2677,35
103,103,-125,-1117,1345,1539
14,-31,49,-853,927,3115
65,-117,4,-1613,-368,3515
-115,-114,-92,-1189,-2138,4563
14,-101,61,-767,-4628,243
-56,105,111,-893,-4974,-2241
-15,-128,-104,1807,-436,-2314
74,27,-52,223,1062,-3900
-98,-82,-79,763,2648,-2339
-102,48,34,929,1822,-1011
108,20,-73,-201,1614,-976
118,-62,61,1535,577,1550
75,-88,1,2266,-1061,3569
-3,-13,0,-616,-1807,3361
-51,32,47,-1837,-2105,2830
-46,126,49,-1058,-1847,3624
20,-28,86,-304,-1064,3969
-2,-7,40,-209,-516,3628
36,46,20,110,-596,3628
60,-1,6,1619,-510,3846
-39,67,91,1239,-658,3967
-18,66,95,687,313,2904
-94,64,121,292,82,2466
112,101,-105,196,-415,1481
40,12,-79,743,-46,749
20,-28,-92,208,69,-18
32,-78,-122,-446,-165,-558
78,67,100,-55,47,-854
95,22,78,23,65,-866
110,-33,62,-211,-29,-780
119,-73,46,-208,-40,-548
89,88,44,-3912,544,-4845
74,83,16,-2871,1627,-5249
-100,44,-98,-2915,2742,-5806
24,126,72,-2063,3516,-4389
76,-35,82,-1741,4276,-2783
42,-43,-44,-873,3991,-1010
41,125,-3,-326,3039,1058
111,120,102,-255,2402,1802
-63,-107,-17,-257,1534,2265
-17,-40,-75,-673,-288,2567
4,-98,-119,-1049,-1635,2577
24,-77,-72,-120,-3553,742
-22,84,-69,343,-3227,-2753
-12,70,92,1544,-438,-1918
29,-26,-69,62,549,-3894
-19,116,-97,273,2797,-1835
-3,-47,112,396,2823,335
24,-66,56,-703,2459,-360
110,-55,-86,-1165,1403,1317
-40,20,61,-1003,769,2564
1,3,-49,-1563,-782,2616
-110,14,-61,-1451,-2863,2228
119,63,45,-952,-1454,-680
-126,-6,-67,1812,-2979,-1609
87,-17,-77,755,-1858,-2685
86,-30,-9,923,1146,-2234
-28,-61,-43,817,2820,-110
56,-66,121,348,3030,433
69,38,-3,-566,1442,88
-116,-100,58,-845,175,526
116,-79,-15,-300,-467,386
-68,-84,82,-824,-2618,1145
-119,-75,112,-1426,-2773,1578
-75,-69,120,52,-2731,2995
-108,103,-93,-2822,-3313,2145
-102,20,-79,388,-2442,2191
106,104,-5,396,-3665,3799
-100,57,8,2584,-2142,4094
122,93,-17,1143,-1772,3555
-74,76,-41,1551,-893,2995
102,65,-41,1071,-578,2578
82,39,-49,1130,-452,2015
66,-3,-86,1483,185,1655
29,-32,-106,997,-119,1000
41,-62,116,257,-52,472
62,-73,108,-902,-219,-574
89,99,83,-87,80,-711
79,61,90,33,-238,-843
94,-8,81,40,-103,-681
96,-30,75,-128,-120,-423
66,-128,103,-3714,-1346,-4756
61,106,-93,-1687,2310,-5516
54,35,99,-1743,3570,-5113
-35,-52,73,-1929,3255,-4933
-95,66,80,-1473,5334,-3176
-47,84,75,-224,5513,-1996
65,-8,-39,453,5332,1113
108,-42,-18,-675,2003,2332
-101,86,-76,-1233,316,2802
-98,-79,87,-1245,-2331,3500
-15,117,103,-806,-4270,906
-13,-111,126,-99,-4851,-3833
-39,10,94,1933,-567,-1521
14,-52,-97,746,778,-2298
-68,23,-99,120,2688,-1541
70,-60,104,244,3526,267
61,-61,34,-368,2882,260
21,-64,-7,-1588,1188,1447
-122,81,-104,-1508,-314,2933
-82,-58,-14,-230,-2020,3681
76,103,-1,-1456,-7211,-1827
79,-8,50,1059,-2515,-3391
6,-5,-50,1345,259,-2184
79,-7,-70,502,2905,-529
-47,-84,-73,1405,4234,1480
19,13,87,367,2466,337
-57,118,4,-815,-75,-89
-79,113,-22,-150,-956,449
28,98,-24,-34,-2390,1940
114,-118,37,-1302,-3437,2411
-123,-107,89,-167,-3188,2993
-75,-59,94,396,-2260,3278
-58,-10,117,844,-1268,3335
-62,21,83,-351,-1748,3404
-59,42,126,1076,-1275,3898
-80,35,-121,2568,-586,4203
-53,93,-89,988,-381,3650
-61,75,-127,306,293,2661
-104,14,120,1178,-501,2777
103,69,106,83,-335,1209
44,50,80,-776,-223,-43
13,-64,93,-12,-345,-396
16,-121,91,79,65,-479
53,81,62,-26,103,-856
86,48,47,-77,-114,-871
101,13,48,-123,-137,-907
88,-91,72,451,-245,-739
114,115,47,911,899,92
100,-63,9,-270,135,142
90,-16,18,-884,-477,207
-111,-120,-13,-4649,-1009,-3953
70,-37,15,-4179,961,-6080
-17,14,-26,-2742,4367,-4722
75,68,60,-448,4548,-4058
99,-42,73,-1310,4135,-3059
57,-1,-22,291,3551,-807
41,73,31,120,3108,893
-115,50,88,-21,3439,1516
-56,88,-121,165,2185,1174
-25,-81,-20,-1098,348,1627
-46,83,-32,-451,-755,2397
-77,7,49,-2273,-5242,1957
-45,1,77,740,-1822,-1592
-72,-108,-37,1233,-1301,-2213
119,-79,-114,667,-486,-3274
26,-50,-105,1157,2531,-2365
-61,-38,120,904,2640,-680
-115,-70,98,-441,1643,-340
71,-72,39,-1351,1013,-7
61,-42,-43,-499,755,2587
79,-110,-78,-1120,-146,2366
58,-3,102,-1068,-1741,2410
90,24,-73,-503,-2816,-258
50,-94,106,724,-2469,-1790
30,-50,36,546,-395,-2621
90,96,-40,1942,1152,-742
77,105,-76,1139,2479,-725
108,14,-81,479,1752,-519
48,7,-9,-419,643,-196
-118,-28,16,-110,-185,878
8,31,-29,-1407,-1219,1035
-124,91,91,-1513,-1973,1935
78,20,-94,-1619,-2961,2950
-49,27,-96,-257,-1648,3168
-98,112,-44,-1291,-2497,2689
-41,61,111,388,-1818,3333
-121,110,-30,95,-3291,3405
-5,75,-112,1372,-660,3289
127,59,-69,1477,-1633,3314
-63,10,-110,1722,-315,3190
-120,34,-112,620,-337,2721
110,-7,-98,407,-950,2260
103,-27,112,83,-121,1709
50,0,-111,-92,-697,933
45,-34,123,-208,-199,-103
43,-72,-127,-157,312,-397
47,-125,95,-206,-157,-748
92,83,78,-204,475,-1092
100,47,45,-48,52,-974
-127,28,32,-484,281,-1036
-121,-106,26,-5404,-499,-3351
65,19,64,-2583,1011,-4516
71,-65,-34,-1234,3580,-3517
86,-114,87,52,3745,-3640
-50,-126,76,-952,5233,-4846
-79,-14,83,-26,4079,-2807
-75,104,52,-711,3985,-1137
20,1,-78,-441,4230,-234
89,-91,-24,-713,2851,916
-102,-92,-83,-480,2371,1618
-89,-86,119,-827,1130,3125
57,12,66,-30,783,3948
42,2,-64,-1579,-2693,1164
126,-8,-52,-610,-3749,-815
43,78,-123,688,-3267,-579
66,42,-105,629,-2779,-3505
58,66,-80,157,-277,-4388
94,61,-62,933,2870,-1412
123,1,-103,318,3146,-3
-85,15,-89,-469,3128,-433
100,-54,-64,-1558,1997,545
-38,16,-109,-1299,1248,2829
50,-96,94,-1609,1011,2944
70,-56,-75,-1527,-1702,3196
-68,28,115,-521,-3593,1009
115,51,-35,-424,-4455,-2706
105,102,27,1333,-3693,-3851
72,-4,-72,219,-424,-4182
-120,-110,-26,1478,3785,-560
-49,-99,-64,1007,4155,961
-48,-35,127,-55,2438,5
111,69,94,-1827,252,-176
118,-83,41,-320,-660,1236
-48,45,81,-684,-1975,1173
-25,-74,38,-180,-1327,1263
-96,-99,98,-700,-2054,1941
102,-111,99,-621,-3834,3164
-126,-49,111,-157,-2957,3711
-35,-68,-127,1174,-2134,4151
-88,113,121,-521,-1574,3405
-53,25,123,1022,-431,3586
-51,73,-98,671,-1220,3483
-102,78,-67,1198,80,3483
116,83,-66,496,30,2793
125,104,-98,-599,-104,1846
76,52,-115,-178,-838,1479
106,59,111,-221,140,13
37,-32,98,-414,-485,-418
19,118,112,-108,-100,-307
46,76,79,605,159,-101
-2,23,81,-2517,932,-4844
27,-52,15,-1372,3324,-4462
-76,-67,72,-1685,3992,-4466
53,67,70,-1756,4526,-3128
90,-87,15,-868,4765,-1739
-127,-5,111,-267,4690,-162
-71,100,-127,-398,2828,1746
13,-126,27,-397,1179,2027
54,12,-83,-1293,-651,1642
-7,70,115,-468,-2659,1634
-42,83,-21,-569,-4033,-1377
-18,78,-1,549,-3443,-2917
-32,-23,-64,1275,407,-1076
56,31,-84,1080,1368,-997
-19,-105,-69,464,2651,-1250
65,84,7,449,3367,-660
-48,18,51,-539,2169,-411
122,-22,99,-1532,995,819
-100,87,76,-1666,-7,2515
-27,6,-9,-2471,-285,2834
-87,75,-60,-53,-1560,5385
-112,-127,-88,-1379,-4402,-1003
-95,-51,-127,698,-3520,-1801
51,21,-127,877,-237,-2349
112,-41,-30,543,1266,-3079
46,38,-20,1307,3072,-475
-66,124,-55,46,1681,534
104,-42,-67,-182,-158,471
-29,32,-40,288,-1144,1739
51,-66,-105,1544,-3246,3107
-25,22,-43,-1014,-2239,2113
-74,115,84,393,-2355,3078
-69,-63,72,-323,-1883,3555
-55,-29,118,367,-2147,3671
15,67,36,-1010,-1171,2716
-71,54,120,1037,-1045,3190
-39,19,81,854,-582,3492
-50,23,-106,1802,180,3239
-27,-3,90,1476,771,3065
-89,44,89,-214,-352,2570
108,70,97,-584,-925,1674
88,11,115,683,-138,919
16,-7,105,603,-54,-91
35,-85,84,564,353,-535
51,125,64,39,106,-729
85,51,50,-29,-129,-930
99,2,41,139,-73,-903
104,-30,37,98,-109,-681
104,-50,32,-165,-193,-543
102,-49,35,-474,77,-488
-126,53,-28,-2578,1850,-4550
-103,18,113,-1889,3114,-4817
-76,-106,-16,-1305,3074,-4141
-26,46,34,-1857,3650,-3487
-2,-109,51,-1450,4307,-2129
0,23,-70,584,4289,-78
55,-102,51,1186,4152,1105
-89,89,87,128,2435,1188
-51,116,8,-674,1374,1392
-70,-40,-55,-1072,-657,2120
-86,35,-88,-616,-1679,2394
-49,19,-42,-397,-2981,-381
84,103,102,689,-2605,-434
29,13,-113,325,-2392,-2426
47,34,-114,734,-8,-3020
83,-6,-83,485,2160,-2021
115,10,121,523,2994,-113
109,18,127,-456,2551,-509
26,-2,-102,-1486,1176,-174
-96,38,84,-1282,834,1832
-19,-78,10,-1219,-238,2843
-15,-82,-91,-1333,-1462,2321
62,-83,-90,-1697,-3813,153
-106,-104,63,-613,-4727,-407
-9,113,-31,2059,-841,-1942
56,26,-85,1191,-542,-1838
85,26,-80,808,2481,-2320
-6,0,-82,1071,3967,-1120
49,-101,59,275,1846,-19
-100,76,113,-222,-6,-70
82,57,0,577,-1237,-788
-11,-93,27,-319,-3044,-170
2,-58,-90,-890,-2469,1916
-101,24,87,-25,-2633,2603
-75,-17,117,-2805,-2802,2142
-106,43,-81,-203,-3635,3504
-86,92,-27,654,-1717,4451
-58,-68,-45,-122,-2083,3043
-83,-80,-16,1338,-1804,3418
-65,-65,-40,783,-1223,2901
107,110,-4,1579,-1386,2835
-101,37,-52,2653,-201,2882
82,38,-52,1632,-350,2527
52,42,-58,1235,-757,1606
41,-5,-82,623,-18,800
40,-21,-86,262,-21,52
39,-96,-89,742,-51,-591
35,99,-113,337,-10,-745
50,56,124,-128,-216,-573
99,1,109,371,168,-430
1,-19,44,-4731,-542,-3677
35,114,1,-2132,1409,-4279
-36,101,-127,-2579,5058,-5252
-72,-77,56,-1742,2910,-4665
26,-17,120,-1327,4253,-3363
1,86,-121,-1030,4076,-1739
41,9,-9,-590,3811,234
90,-30,60,325,2609,1502
-47,-30,122,-41,2568,1319
7,-42,-63,-327,400,1715
67,49,-77,-624,-1234,2320
83,36,104,321,-3504,2923
32,12,-88,-944,-5389,-1840
4,-108,96,1691,-158,-2289
39,53,-78,739,231,-2543
105,125,-86,508,2289,-1396
-85,14,93,448,3078,14
-85,-18,103,-434,2247,-151
108,-48,-125,-1020,1346,979
-78,52,46,-1168,427,2517
20,18,-71,-1376,-766,2662
113,-22,121,-1629,-4842,-742
-112,66,120,567,-2936,-1244
-12,113,41,1062,-993,-1094
71,-111,-57,675,681,-1845
117,-114,-66,851,2567,-776
-55,-27,57,673,2900,438
-72,18,54,-594,1348,-66
75,54,103,-1056,49,531
-106,-5,11,-562,-983,670
29,30,6,-439,-2772,446
-101,-69,0,274,-3231,1282
-102,113,123,1808,-2857,3515
-99,-37,107,-246,-2723,2711
-122,-33,-112,538,-2717,3681
103,50,-75,-166,-2396,3079
-40,14,-82,2290,-1213,3980
103,109,-36,642,-1242,3046
-47,80,-90,1716,-750,3545
-121,61,-86,1155,-1,2858
-114,87,106,174,294,2219
73,6,112,933,10,2088
59,20,116,215,394,751
18,-33,-118,870,187,157
24,-94,-127,1317,-340,224
7,-96,-97,631,-650,-550
64,96,102,169,-212,-1140
108,61,76,-328,374,-1004
127,-1,51,112,318,-835
127,-59,37,516,-147,-811
40,81,-121,-4814,-18,-4568
118,-38,72,-1189,3374,-4118
-80,-114,-72,810,3789,-3588
-55,-73,20,-1725,2168,-4876
58,-4,18,-1022,3660,-3118
45,74,-91,-745,3854,-2098
27,-20,53,-199,3235,-668
38,115,-69,16,3072,438
77,79,106,-90,2128,1818
-127,112,62,92,1464,2667
-63,-66,-25,-479,267,2882
-118,-50,-90,-1442,-1983,641
-97,-90,-16,-1199,-2947,-660
-127,3,-66,215,-1688,-570
92,8,104,-12,-2583,-1193
99,81,38,-297,-121,-3528
-125,87,-74,67,1377,-2667
86,50,112,362,2589,-941
56,-16,-97,239,2749,402
-43,-56,-48,-1045,1533,429
112,-11,89,-1463,754,2195
-47,90,45,-1893,136,2853
-93,8,19,-1542,-3143,2536
-32,86,113,-927,-2415,-1246
107,26,-26,1419,-1546,254
86,-78,-115,928,-1828,-1335
80,-8,112,723,-164,-2787
110,-33,-47,1383,2317,-1437
-110,-18,108,1279,2782,-717
124,-28,118,-117,1883,-229
19,-36,-25,-324,1507,-388
99,31,-127,-551,-142,180
108,-46,120,-1194,-953,1695
-8,28,127,-353,-2680,1420
-105,65,-98,-1019,-2955,1042
99,1,-105,1011,-4220,2985
95,93,-83,-1497,-1867,2604
52,50,-18,862,-3043,3172
113,-96,-30,-300,-1599,3800
58,111,-10,627,-2239,3879
35,103,69,122,-1664,3231
-128,-122,-11,-75,-388,2900
43,70,7,908,-1676,2268
81,3,-62,945,-444,2121
37,-27,-65,897,-576,1443
56,-21,-102,37,-61,789
38,-55,-106,285,-339,347
41,-91,-126,392,-249,-24
65,-125,108,153,185,-459
84,103,85,-65,-125,-323
98,85,-84,-1629,3155,-4609
49,-16,-80,-1112,3290,-3202
19,109,-109,-783,3461,-2126
-17,-49,96,-229,3312,-771
-6,-119,-5,-155,2563,465
41,84,-99,-155,2068,1546
-107,118,15,-716,1363,2499
-79,10,-80,-808,-169,2263
93,71,117,-1196,-1938,1921
-98,10,-37,463,-2690,133
41,122,86,-94,-2820,-1904
19,-7,-5,696,-1907,-2165
69,-39,-57,163,883,-3037
-53,105,-71,463,2163,-937
73,-71,0,406,3004,562
-27,-46,22,-917,1976,51
110,-20,-112,-964,1456,1568
-51,122,15,-1023,440,2587
-59,110,-89,-825,-613,3169
-25,110,111,-1209,-4023,70
91,65,44,60,-3093,-551
126,-13,43,1438,-2287,-1679
64,79,39,-321,-2015,-3410
-43,-97,-41,1109,2604,-877
-92,-9,-78,1537,3414,609
-88,12,-112,256,2781,325
16,31,-80,-842,914,77
90,94,63,-141,-373,1160
55,-109,29,13,-1215,1305
-51,118,45,-569,-2082,1672
-104,-98,105,-1443,-2438,2763
-58,100,114,-59,-1824,2929
-50,-4,-97,-322,-1034,3266
-57,-29,-128,197,-1475,3986
-78,88,-113,-415,-1844,3755
18,-14,102,1706,-504,3935
-42,80,120,615,-1056,3597
-116,51,-71,-119,-731,3084
-42,-19,111,844,723,2850
106,13,-87,315,-645,2218
114,-33,81,204,185,1482
54,6,101,-381,-457,871
43,-61,83,337,-25,135
49,-82,89,370,71,-495
62,116,74,301,53,-727
82,61,68,-294,-75,-1063
99,6,72,-193,-288,-1006
110,-24,65,-186,-275,-790
113,-62,62,-72,-161,-520
111,-59,48,-206,-102,-331
-106,-28,-46,-2732,1421,-4756
-107,-65,56,-2682,2292,-4720
-26,117,-116,-2116,3180,-3955
-40,54,-33,-1488,3174,-2914
-53,-46,13,-1099,3392,-2019
0,69,-73,16,3864,-1074
34,-108,6,435,3496,429
57,72,-98,464,2551,1593
-39,-35,30,846,2193,2762
-39,106,-23,-1136,122,3368
-49,-126,-50,-824,-1261,2282
1,96,-86,-1022,-2765,-26
106,-116,60,-248,-3030,-1885
94,5,19,1024,-2514,-1285
49,113,93,-15,-542,-3273
81,-118,-73,352,729,-2999
87,-100,108,993,2189,-2063
-125,5,108,-233,2758,-312
-29,-71,-39,-393,1845,1026
62,-38,123,-1203,944,2030
-68,88,24,-570,445,3266
-110,20,-45,-1419,-1089,2557
4,95,-121,-595,-2738,2097
-18,27,13,-571,-2816,-820
-26,11,-89,725,-2615,-1492
31,83,30,100,-1345,-3188
77,40,-58,893,1221,-1402
21,113,-57,979,3147,-699
56,22,-39,843,2783,-7
-58,30,-39,-703,1365,-360
30,68,65,-1156,-66,173
74,-126,16,-426,-1118,970
-14,-119,12,-120,-1818,1913
106,119,89,-376,-3097,2821
126,-122,99,-721,-3066,2952
-41,-103,93,495,-2328,3755
-52,-46,106,-243,-2651,3607
15,-1,105,47,-1431,3804
44,-9,82,1629,-1356,3978
-23,115,-125,245,-1384,3623
53,-16,46,2452,-289,3298
-107,118,-94,-595,-1227,2737
-102,19,-117,937,-341,2335
123,0,-127,1759,359,2002
72,54,-123,672,-166,968
14,35,121,-211,-399,50
15,-52,126,-146,106,-346
22,-99,97,-310,425,-541
63,81,72,-56,579,-782
90,38,58,-202,364,-1194
-16,34,-123,-5625,2082,-3787
-43,-102,-80,-2478,-1409,-3252
-84,-43,-113,-1911,1368,-3068
41,-115,55,-239,3976,-3312
78,89,29,-89,3061,-2830
-68,62,30,-746,3147,-2766
-49,-45,-9,-1135,2944,-2639
-23,-122,-87,-935,2962,-1799
-33,75,113,-934,3466,-1025
-25,0,22,-355,2903,-74
-3,-41,-44,-42,2664,1116
41,-104,126,220,2009,1812
82,-57,2,-546,261,2763
-127,78,-32,-783,-1098,1796
2,-95,-1,-643,-2857,845
-30,-14,-95,413,-1329,-1069
-57,-108,-12,1226,-1898,23
105,71,-118,307,-1347,-2264
105,89,-125,238,483,-2304
-86,127,-128,829,2257,-403
-89,53,-26,225,2178,-252
-77,-23,-12,-383,1607,-135
19,-7,-81,-1179,921,1106
-121,97,87,-743,377,2395
116,2,18,-1047,-507,2316
28,-13,-67,-1041,-2331,1358
-14,-38,7,-454,-2605,-357
29,-54,-61,1217,-1248,-557
97,92,125,711,-1652,-2054
117,80,79,726,591,-1764
-85,76,-71,1411,2210,67
-83,2,18,53,2013,-389
95,19,-105,-290,2096,-306
4,51,-38,-480,1470,921
49,-102,113,-835,431,892
45,8,28,-879,-907,668
-61,62,-11,-506,-3779,352
-112,44,28,-2098,-4019,8
126,111,78,894,-4094,2365
-95,-80,-111,441,-2549,2765
68,-17,-65,696,-2951,3355
89,63,-19,-349,-2215,2886
-93,48,-63,1994,-1078,3541
71,-122,-14,492,-1186,3222
-111,58,-71,1881,-215,3114
84,51,-42,524,231,2672
-99,-55,-106,2138,649,3099
104,-42,-122,945,191,2484
73,28,-125,-1572,-904,1216
52,-20,-115,-453,-704,678
-76,-23,106,-1221,3194,-4561
-9,-93,-79,-1413,3045,-4419
19,52,-6,-1388,2688,-3785
-24,-86,-29,-1483,2457,-2661
-38,38,-95,-524,3160,-903
3,-78,36,378,3468,274
31,-111,-96,-29,2712,575
86,109,11,-496,1755,1308
102,116,-31,-688,346,2515
-85,-33,-69,-179,-279,3576
-126,82,110,-907,-2684,2240
92,-117,51,-1067,-3013,-1657
-14,62,5,353,-2041,-1305
36,-124,75,676,-705,-2106
78,-76,-81,522,823,-2114
-10,-60,-85,874,2316,-1073
-16,41,2,403,2656,-292
125,10,85,-189,2138,82
-19,-4,-61,-867,1591,430
72,76,107,-1002,291,1881
-127,-82,48,-1097,699,1773
88,104,-51,-1140,-1305,2252
-53,-127,-80,-1023,-2877,443
-55,-39,47,506,-2084,34
-11,-114,1,846,-2166,-2339
61,49,54,871,-1134,-1763
-127,82,-79,1086,1812,-944
23,-88,-107,1081,1948,-371
49,42,-30,213,2366,-452
-88,-9,77,-538,1556,-20
28,17,-54,-392,1077,928
56,-84,107,-843,-920,980
41,-16,40,-700,-1503,796
-47,-33,16,-551,-2905,911
-96,-51,67,-651,-3490,2183
-29,-94,39,-193,-2260,2156
-108,10,-105,-63,-3297,3118
-108,-14,94,1149,-1321,4162
-119,113,-57,-329,-2826,3619
-25,42,-110,1974,-379,3905
-112,-128,-46,1126,-1029,3862
-33,45,-108,2014,310,3100
112,119,-41,132,-356,2495
67,68,-34,95,-206,1672
49,-9,-63,1189,425,1286
30,12,118,-468,152,-257
51,-47,99,-1402,-180,-1200
67,48,101,342,190,-556
77,34,66,33,197,-436
102,8,49,219,128,-414
12,67,-42,-3652,727,-3767
-33,119,-51,-1362,420,-4076
-82,126,-119,-1636,2928,-5177
102,-40,100,-763,3178,-4754
-4,79,70,-1255,4310,-4456
41,41,85,85,4609,-2294
38,101,123,656,4760,-310
99,-75,119,472,3841,1820
-52,-10,101,-826,280,1614
-67,52,-93,-1394,-1981,1416
46,-9,-13,-676,-4595,194
-116,-113,-126,186,-2859,-1766
5,-38,67,571,-1564,-1799
8,-82,-58,129,1605,-2234
-43,-104,-83,1172,3497,-193
64,11,14,346,3145,-70
-70,-10,-123,-821,2033,-184
97,13,113,-1523,251,1440
105,-20,-109,712,-2212,3267
-53,-9,-26,-421,-4501,798
80,-90,7,-156,-2593,-1801
53,108,-30,523,168,-1868
109,102,-32,1011,2533,-151
-61,53,98,725,2865,810
-32,49,66,17,1391,-36
-121,36,-59,-1556,-714,553
-87,70,-84,17,-2880,1593
110,-100,112,-1027,-4654,2196
57,-101,-46,-1405,-3473,2220
-44,-53,109,453,-3309,3886
-39,72,-59,1193,-1943,4269
-14,-96,-3,646,-1260,4210
-64,-59,-49,485,-1023,3594
-128,-72,62,479,-2516,3657
-10,-80,-94,476,147,2814
-106,90,123,2692,-659,2140
67,-126,-120,-94,-142,995
60,16,-123,814,117,282
33,-61,126,1264,270,67
27,-106,101,265,148,-306
66,107,110,76,185,-729
120,86,76,-290,374,-1003
-111,-9,56,123,298,-781
-123,-12,29,-427,85,-508
124,-27,15,-220,-235,-274
-120,-12,7,-256,-130,64
-109,-4,0,-50,60,156
127,21,2,-161,-233,331
126,60,24,-409,-204,354
122,83,30,-122,-2,435
27,5,-27,-3837,-201,-4639
107,50,115,-2166,1109,-5749
99,-115,55,-2089,4363,-5967
59,-102,67,-485,5276,-4083
105,75,73,437,4702,-2384
71,-80,-111,37,4455,-1654
70,-46,43,833,3454,657
81,-30,120,-414,1382,1489
84,116,-41,-1172,-742,2306
-52,42,-101,-140,-2489,2238
91,-83,110,-856,-4439,-1596
-96,-94,-5,481,-2305,-2308
-64,81,-59,65,-681,-2375
49,-21,-115,452,2727,-959
-92,32,-120,889,3641,309
69,-80,-22,363,3036,456
-24,-92,-42,-1536,1173,1264
109,81,10,-1181,-448,3254
77,10,124,336,-2213,2076
14,104,59,-1861,-5365,-1055
66,94,82,88,-2644,-1671
4,51,11,1016,1457,-1457
-35,13,-57,1300,3470,-767
60,56,-16,576,2450,-497
93,-56,66,-952,-409,680
-80,16,-64,-744,-1632,1039
-100,109,-124,-260,-1421,1472
-62,-115,26,-795,-2150,2287
-69,-66,45,-125,-2799,3468
30,3,54,-142,-1385,3387
-24,34,93,325,-2204,4054
-27,45,127,353,-650,4029
-6,-94,-116,-275,-1347,3547
-37,108,-81,781,62,3607
-34,100,-76,1167,-239,3223
-93,-82,-81,-452,-307,1793
123,66,-98,563,-85,1320
70,-43,118,1044,348,942
71,-58,95,668,92,365
80,-89,77,-61,-206,-351
111,84,87,-94,-111,-634
125,27,77,194,18,-595
-128,2,66,-188,-153,-579
-123,-34,62,-22,-112,-398
-110,-31,53,-27,60,-289
-105,-28,46,-29,99,-89
-109,-7,29,-273,34,108
-114,19,25,-345,-86,197
-106,33,26,-218,26,277
-112,64,23,-213,-27,302
124,-72,-38,-2898,292,-5746
107,79,-44,-2391,2544,-6172
4,86,77,-1050,4867,-4705
-62,83,30,-420,4656,-3161
-97,87,63,-566,4471,-887
-70,8,-107,89,3682,1387
-54,7,14,-50,1871,2314
-8,97,79,-1672,-14,2300
27,-85,-19,-438,-1875,3403
84,-118,47,-1489,-3645,-849
7,-9,-120,385,-3191,-2756
-13,-55,78,30,-1614,-2870
6,-120,-96,-468,1484,-2106
68,18,-78,1247,4406,324
-126,22,-64,175,3386,254
-105,-50,-118,-665,2757,544
114,-10,-115,-1983,-101,2206
-72,13,8,-1435,-1124,2434
-15,36,37,-1620,-5802,125
-29,8,-15,-194,-3144,-2814
33,-34,-77,723,-664,-2514
67,-49,-53,1187,2698,-702
124,-15,-91,2242,3788,1691
-105,12,89,737,910,1003
111,23,67,-873,-1223,72
-62,72,-109,-1273,-1061,-556
92,59,-108,452,-1980,1988
-105,117,0,441,-4301,3590
-64,-63,34,225,-1984,3197
-69,5,119,217,-1477,3355
-74,84,103,-345,-1333,3240
-68,69,111,447,-1573,3680
-4,96,-116,551,-979,3396
-37,80,-62,1218,-351,3755
-83,127,-49,452,-887,2949
-95,19,-47,1088,275,2778
-121,-13,-86,1587,517,2115
91,31,113,-1,-7,1187
56,-7,93,-553,-240,58
60,-88,96,425,113,-329
72,117,77,463,140,-442
76,87,56,-232,-136,-695
103,42,55,-203,-125,-694
122,-1,52,31,-19,-632
-128,-9,46,-298,-54,-741
-121,-22,33,-153,51,-494
-120,-16,28,-125,-94,-269
-122,-20,24,-130,-29,23
121,10,18,-333,-108,201
124,25,17,-255,-73,271
-107,52,34,-4066,142,-4591
42,60,-3,-379,294,-4336
37,-111,-89,-1243,1984,-4913
49,121,35,-997,2790,-5711
-59,-94,-8,-1196,3462,-4946
-75,73,-115,-303,3738,-2441
-88,69,-3,113,4077,-11
-59,41,122,169,3341,358
-108,8,49,-609,1706,1113
-23,-1,-103,-442,1184,3376
18,39,23,-1036,-1361,3330
-128,-16,14,-1273,-3280,153
19,-8,46,430,-2606,-1834
21,107,-96,119,-1975,-2514
19,39,-41,-300,492,-2860
78,-114,-91,1579,3686,-406
-128,-1,-52,453,2689,-365
110,-109,-122,-1027,2057,-270
-45,-83,-39,-1896,871,2643
31,-124,16,-447,-816,3632
79,28,-54,-1496,-3925,353
-111,-109,-42,-324,-3317,-1709
36,3,-76,284,-2208,-1833
49,106,-6,656,971,-1646
61,60,-63,2110,3595,795
59,25,-2,1100,3017,377
49,-7,120,-736,1081,42
121,28,-67,-1466,-1087,1122
102,-117,-99,-1769,-3785,1359
-65,-121,-117,-420,-5270,2458
-6,-123,12,284,-1438,2186
-114,-12,-105,-304,-2515,2873
-48,-10,105,989,-1387,2982
-39,68,-116,538,-1423,3144
-9,30,127,1584,-1003,3372
-49,77,121,539,-690,3037
-49,64,-126,765,-50,2936
-83,96,124,130,-445,2527
-114,56,-91,326,-54,2003
125,-10,104,1146,235,1502
74,-26,113,648,-107,966
61,-65,103,273,-191,405
73,-90,92,-23,82,-132
78,104,76,-103,37,-528
85,51,70,52,-19,-510
108,14,52,21,111,-504
114,-3,43,-275,-104,-446
123,-26,31,-157,-45,-317
116,-13,22,-281,-43,-230
123,-9,6,-209,45,-10
-55,102,-43,-4163,1680,-2403
59,-16,-100,-2342,-827,-4214
66,116,103,-3670,1780,-4630
-71,-59,97,-664,3908,-3935
36,-118,46,-781,3864,-3646
73,-19,-19,-675,3843,-2889
49,67,-30,-1103,3778,-1654
67,-59,80,-219,3445,-338
92,-114,-97,-2367,3557,719
-123,-6,0,-763,680,3646
22,-48,-24,-1464,260,2589
90,16,-71,-1177,-2135,2106
-91,61,43,38,-3213,676
13,-9,17,1100,-1749,-1786
-38,91,-100,838,-1438,-2098
54,77,-78,834,1461,-3144
-96,7,-72,511,2720,-2793
70,-115,53,847,3016,354
67,120,-8,-170,2203,571
-52,-108,33,-1485,373,891
90,61,-41,-1198,-760,2357
65,64,-77,-914,-2370,3164
-13,50,-18,-1432,-4999,-196
-90,35,54,744,-2903,-2538
-13,-56,-124,2460,-1165,-3163
33,-110,-101,529,2051,-1629
23,-77,-71,992,3137,624
118,1,8,3,2769,598
95,-21,-75,-481,519,1160
-82,59,-34,-263,-1389,1299
-59,80,123,811,-2168,1875
-22,85,120,118,-4205,2778
-42,-106,-56,-951,-2446,2732
-59,-52,68,616,-1807,2948
-74,73,-127,-331,-1920,2980
-61,39,101,669,-1044,2729
-43,50,-120,1508,-888,3522
-90,106,-86,411,-1098,3179
-72,53,-81,1118,209,2875
89,48,-51,945,-253,2800
119,63,-92,769,180,1979
71,19,-119,850,215,1276
72,2,109,-632,1766,-1287
39,-48,98,-69,330,-60
36,-111,118,527,-659,93
71,-118,90,-833,-635,-668
111,63,81,-159,105,-954
-128,24,72,229,181,-554
-105,13,51,177,137,-543
-110,12,42,-46,-95,-539
-114,116,-11,-4908,954,-3303
-55,14,-63,-1927,-1114,-3196
-12,82,-35,-1904,2306,-4591
86,-10,85,-915,4218,-4121
-89,-80,71,-964,3524,-3927
92,60,98,-1730,4180,-3178
74,-45,21,-3244,3501,-2734
78,42,101,-1237,2992,-208
-106,-108,-85,-248,3044,2008
-82,-54,92,-73,1266,3048
-22,43,1,-471,374,2712
-64,26,125,-552,-1449,2225
-2,55,-91,-519,-3610,337
-99,-82,-89,578,-3005,-1717
14,-98,91,793,-1121,-2561
62,99,-52,785,801,-1827
-90,29,-65,1187,3433,16
31,-48,-5,416,2787,800
-11,20,-21,-964,1435,15
-99,88,36,-1316,732,898
-55,-43,-39,-328,-290,2083
-125,-114,-120,-1051,-1839,900
28,-46,-15,-496,-3566,265
-108,51,-17,820,-2448,-1843
82,-107,53,365,-775,-3059
98,-82,-13,1087,1929,-1846
17,-31,-56,340,3196,389
92,-44,-10,317,2621,1218
58,10,0,-1505,958,482
-122,80,78,-1409,-970,1248
100,-47,-31,-722,-2716,1781
15,-13,-80,-121,-3562,1979
-83,-17,42,-366,-3021,2094
-106,6,121,94,-2489,2789
-106,-42,-65,1242,-1513,3142
-97,55,-122,-273,-951,2818
-121,63,-24,653,-1837,3602
-41,85,-89,603,-836,3035
105,68,-9,27,-1277,3258
-98,19,-47,424,-639,3245
-119,97,-44,-262,-868,2521
125,58,-40,952,-491,1612
82,57,-117,389,79,454
24,-20,-92,373,-348,93
36,-103,-92,456,529,96
29,-128,121,-57,136,-327
72,96,114,-230,43,-381
118,50,104,-49,584,-375
-126,44,61,-126,312,-477
-123,19,56,206,200,-266
-110,105,1,-2548,3551,-4661
7,-40,78,-651,4017,-3917
107,-124,75,-1561,3993,-3644
-64,96,52,-218,4886,-1467
-124,-40,-105,243,4272,76
-48,-95,-33,192,4078,513
17,-102,34,245,2544,1302
25,-91,-116,-1280,239,1198
-43,-114,11,-737,-2421,2157
-22,-50,-58,-1376,-3041,-333
-110,126,-104,531,-2818,-1173
-6,55,15,602,-1244,-2310
41,-3,-72,637,623,-2216
-112,-38,-83,585,2564,-1316
-71,9,92,459,2348,207
105,39,100,-217,1120,-127
37,36,-111,-1440,2198,202
-90,92,-69,-847,376,2769
-38,10,117,-465,-573,2757
-113,-1,96,-719,-1897,2068
43,60,-67,-769,-3866,-426
-39,95,-34,363,-3242,-1975
5,102,-52,566,-755,-2388
90,17,-73,904,2471,-1671
-125,16,-48,1166,3867,-162
-38,-80,-116,388,2059,657
46,14,127,-1770,-730,657
115,-117,-15,-927,-1960,748
121,-53,-78,468,-1174,1415
-52,-66,-10,177,-2390,2026
-59,-64,3,-840,-2169,2235
-84,-64,60,775,-1588,3981
125,-30,119,327,-2446,4025
-33,109,97,-776,-1313,3488
-21,93,-121,1863,-1181,4292
-66,-66,-13,352,-1459,3115
-75,87,-75,9,126,2670
111,89,7,-662,-1646,2152
113,10,-54,628,26,1467
52,41,-30,-19,-675,858
45,-72,-90,743,369,523
27,-71,123,32,-34,78
42,-110,108,-362,-239,-202
63,114,90,-187,189,-331
87,93,60,-116,170,-534
115,69,35,-338,-34,-654
124,45,19,-198,101,-609
124,25,14,28,-17,-341
125,21,7,-178,85,-299
126,27,9,-217,-25,28
-1,44,-84,-2057,2968,-4295
-5,-96,41,-1211,4087,-4268
45,22,53,-775,4412,-3584
31,95,-4,-65,4889,-2624
1,83,92,992,4745,-712
26,9,-126,152,2947,974
84,-40,-19,-916,1979,1630
97,91,74,-1677,-752,3113
101,-92,0,-766,-2338,2760
114,106,44,-707,-3967,632
95,67,86,-324,-3434,-2306
27,90,27,-414,-2810,-2783
85,7,-98,-1721,913,-2758
85,-15,-99,965,3876,445
-123,86,119,601,3929,-150
49,72,49,-1129,3017,-358
16,-46,11,-653,1755,2124
-128,-75,112,-1501,-556,3091
-127,-76,-1,-653,-2359,2503
-52,1,126,-821,-5549,-177
-1,52,-33,-74,-3109,-4062
14,8,-77,-20,-1847,-4558
-78,87,-80,503,2769,-2028
-5,90,-68,2833,4372,2791
39,-46,-110,1045,2952,1230
-115,30,-76,-1476,1499,-1
-63,90,32,-326,-444,1747
-126,-108,-80,-183,-1860,1946
-41,-72,-19,-1446,-3611,1997
-35,-46,39,-1131,-2502,1996
-12,-69,61,766,-1369,3234
-62,5,116,-235,-1888,2824
-35,24,59,203,-682,3245
-76,85,-101,-183,-1826,3281
-27,48,-128,1255,140,3111
-87,76,-60,50,-575,2938
-75,9,-103,38,-433,2492
103,14,-40,-522,-774,2025
126,0,-51,-59,-65,1354
88,-31,120,183,174,712
51,-46,90,-112,-464,56
62,-106,80,30,-215,-153
85,104,45,-115,40,-312
99,82,29,-91,-39,-605
123,60,22,-205,-97,-731
-124,21,20,-74,-74,-601
-126,14,36,-106,-85,-420
-124,-9,16,205,239,-302
-128,-6,1,-44,-46,-33
126,5,-4,-435,-36,249
41,35,-128,-2168,2634,-3968
106,-58,-13,-672,2754,-3637
-8,-92,87,-1868,3223,-4020
107,46,82,-1278,4122,-3111
-103,-74,71,-634,4359,-2031
-102,-61,-124,587,4661,-392
-40,74,-53,342,4031,1213
64,37,18,229,2839,2796
-87,118,-126,-1510,74,2468
-92,91,62,-365,-2337,4708
-43,35,-80,-1207,-4076,-220
-89,115,-70,-281,-3764,-2986
28,104,93,1091,-1173,-2841
60,22,-67,249,1008,-3131
77,40,-80,747,3127,-708
100,-19,-51,258,2700,532
38,-28,-14,-919,1900,-451
-93,1,68,-1819,194,1350
-27,116,-30,-1536,-199,2649
-87,110,105,-1526,-2206,2342
-102,-125,-56,-560,-3531,575
28,-31,-127,341,-3331,-2777
-16,-79,110,1486,-844,-1777
75,-102,-56,1419,2579,-1734
66,83,-47,1104,3057,-857
-83,-44,-79,671,1884,671
68,21,-65,-511,-188,-83
-100,83,-7,-1305,-796,210
111,38,-104,758,-1303,1842
-79,110,11,-367,-2951,2797
-58,-61,48,-1102,-2420,2395
-46,-3,93,-396,-1613,2597
-109,6,-127,1008,-2543,4239
-64,46,116,73,-1149,3513
-50,111,-111,1129,-1385,4292
-33,-122,-87,1439,-686,4111
-112,-112,-70,511,-982,3036
-90,58,-86,1328,216,2937
91,15,-65,1333,328,2463
75,47,-124,436,89,1183
43,8,117,144,-245,219
42,-78,105,183,-48,-316
46,69,95,293,-41,-477
75,6,72,447,142,-525
90,-6,66,-187,-92,-380
117,-9,55,-766,-196,-314
97,6,65,-731,-350,-661
-123,-64,36,273,546,-500
112,-47,15,-250,122,-139
-121,-24,27,-496,-430,272
36,61,101,-2763,2509,-5085
19,-36,-21,-1326,3452,-3906
80,-51,72,-2070,3278,-3918
-53,85,105,-2206,3436,-3471
16,-78,110,-1101,4237,-1415
39,3,-46,40,4103,107
-69,114,-44,-60,3997,1828
24,117,54,131,1966,2592
97,-18,-50,-1348,349,2000
10,-69,127,-551,-1826,2834
36,71,-40,-694,-4035,742
-102,19,-88,650,-2117,-2293
2,26,-25,1488,-2063,-2177
51,-1,-68,-148,448,-3364
-127,-98,-79,381,2997,-2406
9,-114,48,156,3337,720
-27,-59,76,-769,2560,265
-100,-14,121,-1933,851,1160
28,114,38,-1488,756,2512
39,57,-98,-1508,-1186,2909
-112,1,93,-429,-3835,1312
-13,0,-16,1095,-3950,-1831
85,66,62,1610,-3057,-2138
33,68,-16,421,-158,-2030
105,71,-65,1537,4031,133
-86,39,-91,1287,3800,197
-19,33,57,-332,1536,-251
103,-13,121,-744,-776,823
-85,50,-2,-748,-1595,1280
67,110,-78,-654,-2343,1765
-88,-104,-24,-1775,-3012,1990
-94,-19,81,-1306,-1847,2174
-104,-53,-87,965,-1706,3470
-128,91,-73,-2084,-2234,2495
-116,89,-54,517,-1776,3352
-72,-97,-77,-3,-1459,3094
126,-115,-97,485,-1343,3066
-122,-112,-38,317,-1881,2568
127,62,-49,761,-223,2355
81,33,-13,1015,-1085,2388
81,4,-50,598,4,1776
51,36,-65,196,-571,895
38,-10,-80,13,-345,219
38,-89,-112,-17,38,-55
36,-120,118,-204,-53,-70
61,111,94,-135,35,-262
105,81,65,-45,233,-486
114,64,65,10,94,-399
-121,40,46,266,263,-442
118,33,33,11,6,-352
-97,40,-103,-1690,2820,-4483
18,-47,16,-1231,3309,-4021
124,103,78,-1616,3804,-3901
-51,-117,99,-1097,4922,-2275
-73,-51,-18,-441,4505,-950
-61,-120,51,-173,3849,766
-105,101,-29,-207,2827,1810
-27,-105,106,-730,2081,2307
40,42,-44,-1174,-520,1078
6,19,-83,-1667,-2079,1057
36,-17,-8,-143,-2966,471
92,-112,-95,-358,-3462,-977
68,69,-64,571,-2432,-2478
77,-127,-37,590,320,-3265
-55,-93,-57,311,2241,-2768
1,-75,-126,901,3427,704
-43,-110,103,-166,2428,911
-116,-69,112,-1304,1084,1484
-23,55,43,-837,768,2840
-13,89,-124,-1765,-1462,2561
-116,-43,-124,-828,-3253,800
7,-49,3,282,-3014,-841
4,71,-72,374,-3482,-3238
67,-119,-36,1066,1402,-2035
-112,45,-54,988,3049,-396
29,-35,108,873,3372,656
-17,26,50,46,1745,-116
109,56,-110,-1234,1521,-566
88,-97,76,-176,-1338,1539
34,-54,11,-660,-3163,2177
-68,-98,20,-1081,-4289,2691
-13,-85,30,-702,-2729,2883
-52,15,100,-107,-2069,2796
-110,67,-90,13,-1916,2879
-79,43,107,1244,-1294,3077
-87,86,-82,607,-1754,3374
-61,78,-87,734,-797,2922
118,92,-13,408,-1270,2887
-90,8,-76,1086,115,2525
78,54,-59,-192,-630,2060
67,2,-70,218,-197,1614
46,-35,-91,609,374,1168
30,-18,116,-197,-196,542
48,-57,95,-205,-182,14
61,-95,64,-304,-150,-523
85,94,41,-37,-34,-586
96,76,25,-237,-23,-707
106,47,14,-170,-119,-725
119,26,14,-414,-198,-602
123,14,13,-363,-127,-452
-38,-62,-19,-1250,2873,-4113
-1,98,42,-1493,3213,-3507
54,-35,60,-948,3886,-2489
58,17,-49,-780,3959,-1300
74,-63,110,-406,3754,453
-117,-105,43,-437,3296,985
-32,98,109,-12,2474,2382
-7,-50,5,-1571,-224,2219
-1,126,-12,-1123,-1014,2425
127,20,-25,-366,-3100,1195
27,-92,-124,127,-2828,-982
109,27,70,1434,-2585,-1446
93,-126,99,354,-1443,-2651
94,123,-49,87,1611,-2972
-123,4,-62,1028,3569,-492
-93,-64,-83,-330,2551,371
52,-1,-22,-510,1029,391
-24,34,60,-1353,1366,1091
-22,116,-56,-935,45,3605
-16,-92,107,-732,-1157,3008
-16,32,50,-907,-3860,207
59,122,21,-173,-4105,-1225
62,-17,-96,527,-2444,-2056
52,-17,-3,-256,-181,-3321
4,-73,-74,790,3380,-1455
118,-91,37,1763,3605,583
64,-95,-97,-375,403,1502
-96,47,90,-786,247,590
86,98,18,623,-817,1858
-69,103,16,-393,-1950,2230
110,-97,94,-1313,-2369,2315
-56,-79,33,-1151,-2571,2726
-99,19,84,-1026,-1813,2727
-67,36,92,-113,-1747,3092
-40,69,63,1116,-674,3551
-97,92,-125,674,-1960,3374
-63,72,125,868,-223,2945
109,116,-69,60,-837,2578
96,72,-16,165,-654,2138
95,13,-49,519,668,1676
60,-19,-92,546,-14,1618
84,-34,-125,-199,294,758
55,-56,103,-600,-379,246
73,-93,94,-465,-400,-234
89,127,79,-262,-7,-458
106,84,57,-249,-53,-627
120,59,52,-599,-177,-794
-118,52,40,-1844,105,-983
119,-23,26,-5,-207,228
-123,59,21,-268,87,45
54,-105,94,-735,3603,-4208
125,24,124,-685,3700,-3463
-107,95,109,-574,4836,-2513
127,-106,-68,-84,3967,863
-32,72,-16,-39,2969,1711
-14,104,-102,-1079,1479,1518
57,-119,70,-1369,404,2469
90,-117,-58,-2025,-2215,2654
31,-54,-31,-787,-3074,815
124,-98,93,189,-2757,-1183
-78,123,87,714,-3466,-2041
53,-27,-79,952,-500,-2861
83,-111,-51,1074,1457,-2910
47,-73,-57,635,2622,-1923
-128,-27,23,534,3255,-176
67,107,-25,-1077,1950,372
-105,-61,-85,-1607,858,2142
2,50,-124,-1461,941,2563
22,37,-22,-2208,-1083,3299
-50,-95,-92,-1742,-3520,1411
107,33,-24,-215,-3246,-955
-109,-25,-39,1556,-3101,-2041
38,-44,79,-49,-2836,-4312
79,56,-74,992,2820,-2056
-66,-66,-35,1998,4670,426
-58,-50,-63,207,2130,-158
73,-40,-56,-1202,244,115
-103,34,61,-465,-389,1465
74,105,36,-259,-886,1787
-29,127,48,-929,-2027,1671
-119,-14,78,-2122,-3103,2230
-46,-91,90,252,-2300,2928
-58,11,120,-698,-2193,3079
-18,36,107,-886,-631,1895
17,54,-128,71,-1747,3440
-39,126,-76,-263,-2204,3520
-79,120,-38,163,-1751,3053
-105,112,3,57,-1594,2911
-72,46,7,1337,-76,2586
-88,41,-84,1206,-434,2148
74,-2,-94,694,-564,1445
60,-11,-110,273,-638,832
60,-41,-122,-39,292,-230
46,-88,-128,-71,157,-365
58,-122,94,1,-34,-487
94,124,69,-820,-229,-896
104,77,88,-522,23,-675
-118,31,41,260,327,-643
-109,55,17,-399,66,-696
-110,35,5,-552,-87,-511
-46,-27,-88,-5740,661,-1955
-104,28,47,-2938,428,-1988
-26,-80,-80,-674,570,-1737
28,-49,50,-823,3428,-2709
106,-61,96,-341,3413,-2811
-122,-87,76,-1300,4380,-3479
-44,-3,84,261,4440,-2910
-117,117,59,24,4018,-2179
100,-76,-79,-242,4254,-968
91,127,0,-688,3152,270
-99,-106,106,-707,2482,1642
-54,-83,3,-968,462,1706
-3,-8,-43,-1432,-573,2466
-70,62,-68,-978,-2960,2059
104,-8,-101,-752,-3041,-1003
-19,42,-105,1983,-712,-1416
52,30,72,890,-1055,-3306
-127,124,-57,694,861,-2974
17,65,-58,592,1920,-1215
69,-124,26,126,2628,377
-39,-104,75,-440,2231,924
82,-33,-78,-916,1427,1914
-5,88,11,-1091,491,2556
19,50,-127,-2103,-1859,2264
53,13,-103,-2882,-4994,-786
58,0,-7,75,-2558,-3053
28,1,71,537,-2161,-4210
30,86,-75,951,1503,-2483
-13,76,-72,1412,3108,1255
19,-93,72,1002,3089,1716
-46,-4,22,66,819,1044
50,35,117,-545,366,1134
63,65,99,-356,92,1446
15,124,71,-1282,-1442,1917
-58,-34,72,-1894,-3450,2190
-21,-32,94,-501,-2470,2870
-24,21,-125,-87,-2188,3226
9,-25,117,3200,-1603,4701
-21,-90,88,-1026,-1566,2276
-75,0,98,367,-1592,2993
-79,10,-69,214,-1891,3239
-44,27,-58,-178,-1526,2919
-63,15,24,751,-594,2816
-111,48,-36,-16,-563,2089
58,-128,20,-696,-1158,714
35,-10,-15,1109,690,529
13,-21,-90,677,293,145
0,-59,124,26,-409,-320
66,-124,79,-409,28,-613
94,99,44,-606,80,-790
123,30,23,-1248,3031,-4072
41,-80,54,-537,3938,-3985
119,112,63,-1372,3396,-4106
-34,-84,20,-1088,4434,-3311
-106,-12,-106,-656,4293,-1456
-125,-117,0,-920,3515,40
-40,-128,97,-321,3213,1875
68,-62,-63,-583,1313,2224
-121,43,63,-1169,-1345,3167
-67,111,127,-867,-3225,2100
-31,7,-113,-451,-3000,-907
105,25,-88,1362,-1720,-1972
61,-45,-38,684,77,-3582
-94,59,-59,856,2159,-2327
-46,-38,109,688,2767,-612
-107,-76,-125,-464,2173,-284
52,-108,-33,-1103,1933,1065
-8,-50,71,-1433,955,2583
68,-103,-17,-2225,-1012,2995
46,20,-95,-1397,-2643,2718
98,-4,-26,-625,-3238,-456
-56,-47,-49,1239,-2588,-1658
64,14,32,828,-1529,-2471
86,-123,-9,1093,1572,-2249
108,54,-42,1374,3384,-612
-114,-80,-34,618,2202,269
114,-86,-51,-615,1079,564
-98,66,86,-753,-414,893
115,123,3,404,-1612,1508
-57,-54,30,-1901,-1878,754
-120,-49,109,-1404,-2616,1753
-50,21,84,-863,-1883,2376
117,68,-83,-782,-2834,3069
-90,30,109,544,-1938,3613
-108,-121,-46,269,-1763,3779
-19,107,-89,1882,-597,3952
-114,-92,-74,-298,-1485,2858
-128,85,-28,772,-1184,2576
120,21,-42,785,130,2247
61,43,-41,186,-242,1800
49,-42,-118,304,-82,1492
53,-43,-103,141,-320,773
67,-53,-111,68,234,27
67,-87,103,-204,72,-286
78,-122,89,-534,-312,-542
103,72,64,-178,-45,-549
-119,61,45,-391,74,-644
-113,50,25,-193,30,-572
-118,38,15,-123,-103,-416
-113,40,14,-158,-44,-283
12,-58,-79,-1736,2843,-4155
99,111,62,-1712,3058,-4545
-128,27,92,-1204,4287,-3356
88,-103,29,-307,4083,-2162
101,-34,-116,432,4663,-387
-81,120,-41,450,3744,1128
-34,68,73,29,2318,2085
-1,121,-59,-1169,202,2561
-12,66,-112,-830,-1520,2976
-92,-106,-125,-457,-3086,1127
29,-85,52,-379,-2891,-2437
-95,15,106,1431,-2198,-1417
42,47,-16,337,11,-2949
-57,-69,-53,1197,3178,-1112
-68,-11,53,577,2857,187
-19,-62,2,-429,2094,307
126,-55,92,-1626,1300,1655
-37,67,-42,-1122,133,2789
-18,-93,61,-690,-2041,2855
-9,-43,-89,-770,-2901,131
-38,-12,33,846,-3499,-251
-6,-59,7,-95,-2353,-2094
75,-39,-22,1224,1592,-1355
-5,-45,-40,1898,2780,225
93,76,-45,1359,3087,-156
-34,27,-51,634,1077,411
44,22,52,-817,-1350,413
98,-58,-26,-1845,-1170,737
77,-72,-63,-874,-878,1866
6,117,25,-1320,-1639,2478
-5,-58,56,-1735,-2167,2682
-4,-10,49,-968,-1615,3020
5,66,-128,-682,-1615,3138
20,80,94,-383,-962,3409
-57,-106,-68,-554,-1829,2728
11,64,-94,703,-939,3382
-90,106,-44,-443,-422,2542
-71,50,-79,338,-674,2375
122,50,-61,-410,-967,1684
100,-21,-72,852,12,1302
81,-23,-116,757,-25,746
63,-33,115,-130,-203,-81
81,-92,87,-815,-50,-554
102,108,84,-414,-90,-620
123,48,65,352,144,-404
-124,27,33,68,104,-406
-116,14,22,-166,-60,-367
-107,13,9,-260,32,-314
-115,11,4,-165,-65,-77
-104,29,-1,-146,140,102
-38,-52,-41,-882,3274,-3846
70,-102,16,-927,3143,-4226
100,52,-5,-1059,3748,-3800
78,115,-89,-693,3657,-2506
48,-42,40,-549,3479,-1020
53,118,-71,-508,2831,367
123,77,83,-41,2560,1895
-84,100,4,-482,1381,3090
-34,-40,-51,-1284,-280,3039
-29,85,-114,-1257,-2622,1557
-117,-104,19,-616,-3713,-1555
3,-118,-18,1001,-2158,-1881
-5,-64,-123,380,-1559,-2834
57,-114,-78,605,2176,-2534
30,94,-98,1305,3364,-303
127,-55,103,281,2704,356
14,-79,-77,-1421,1275,527
-113,-26,86,-1297,846,2379
16,-87,-52,-1294,-140,3247
-22,-28,74,-1382,-3126,2115
70,-4,-74,-1757,-4993,-3193
-52,71,-31,-191,-5685,-5952
-57,-91,-115,-1341,-1369,-3763
-120,34,-113,2582,4624,2473
-70,9,-89,1354,5423,1970
-114,118,-48,166,3698,710
109,95,-94,-204,2383,-466
-123,109,26,-1221,-576,434
-87,-115,-9,-430,-1158,1121
39,-82,-2,-842,-2976,1656
-35,-48,47,-869,-3553,1684
-48,-20,107,-303,-2384,2765
-85,-24,-42,1802,-2621,3690
-70,59,-100,54,-1859,3216
104,116,-32,128,-2051,3823
-89,72,-36,1217,-1407,3899
123,122,-32,-228,-964,3270
-120,47,-41,562,-1149,3321
-108,47,-45,1157,89,2570
81,112,-61,-452,-867,1429
35,-5,-52,544,50,643
40,-57,-109,1022,817,863
21,-78,93,411,58,101
53,-127,82,-291,71,-379
81,73,61,-192,26,-297
97,25,50,-64,-154,-545
107,13,48,-91,74,-483
107,-11,39,-50,-63,-234
115,-10,33,-25,49,-177
115,4,27,-285,-21,-79
124,65,-119,-1806,2654,-4121
-47,18,-33,-1069,3256,-4553
122,-89,11,-983,4401,-4281
-76,-34,46,-806,3971,-3630
-87,6,-56,-781,4773,-2342
-128,126,26,-405,3529,-57
-62,77,122,-591,3383,1222
18,94,29,-573,2004,2508
77,-33,-92,-1279,240,2601
3,65,69,-1472,-2377,970
39,-22,-80,-810,-3424,612
-110,93,-123,255,-2816,-441
13,-68,-4,660,-2071,-2145
60,-62,-58,812,1157,-3124
-55,82,-68,1310,2488,-2092
47,23,58,766,3131,-1211
-49,125,46,-148,1879,533
81,-123,-95,-1346,1146,1208
-20,-4,43,-946,942,2922
-13,-76,-68,-1720,-855,3121
-78,-9,-117,-1078,-2941,1837
22,79,24,-851,-2253,-218
-88,79,-30,1450,-2719,-653
41,35,12,-236,-2011,-4442
126,-99,-64,417,894,-2774
-106,109,-68,1514,3739,-235
-99,-61,-53,1167,3419,584
-10,-43,15,-468,1172,966
68,28,-109,-740,-407,1590
110,31,16,101,-1044,2222
109,81,-24,-910,-735,2137
-36,-79,67,-1843,-2520,2104
4,-26,7,-2268,-2165,2441
0,-78,47,970,-1311,3998
-36,70,74,-547,-1493,3757
18,-127,45,-108,-1435,3327
-96,116,-125,627,-1604,3715
-63,-111,-122,-272,-630,2870
-120,114,-35,494,-648,2297
100,99,-20,100,-5,1607
91,112,-65,-569,-212,533
46,-66,-89,283,-332,282
68,84,123,537,455,646
83,-116,79,-1169,-133,176
96,100,62,-461,-343,-186
110,51,61,559,360,-45
-127,46,41,81,313,-116
-127,43,24,-233,-189,-103
-119,27,23,-42,42,19
117,47,24,-331,-111,88
34,-20,-79,-1354,2361,-4775
-114,104,-7,-1145,3211,-4131
-124,-62,-52,-669,3519,-3151
72,-94,102,-291,3831,-1377
78,54,-26,-222,3446,661
105,51,94,144,2066,1763
-119,-126,1,-1088,1141,1896
-34,-30,-102,-434,310,3420
-24,-49,115,-1203,-1210,2460
-79,126,-46,-761,-4000,-1108
20,-48,-59,287,-2010,-1877
59,34,6,814,-939,-2597
85,-33,-35,267,693,-2974
80,-84,-77,1310,3362,-1203
58,-28,-53,284,2565,-125
7,-116,-60,-1033,1206,259
102,-55,104,-1930,367,1611
-66,86,20,-1279,470,2917
-87,-55,112,-1292,-1492,2822
-59,42,-86,-730,-3403,141
-93,-124,64,608,-2061,-767
37,3,-114,373,-2303,-2211
77,-26,-54,775,607,-2223
-74,-56,-46,1416,2752,-1058
46,-35,-128,789,3246,-641
-57,-22,-115,-16,2011,646
125,37,-109,-878,1380,-159
79,-106,-97,-784,-1895,1000
41,-10,-20,-747,-792,1224
124,-62,41,-728,-2793,1500
-77,-96,63,-375,-2658,3218
-52,-106,97,36,-2671,4220
-88,-89,-106,177,-4003,5036
37,86,25,-2653,-1616,2551
-20,60,-66,1119,-2685,4155
44,120,-121,258,-884,2445
-79,102,-66,-6,-1313,2789
123,33,-27,442,-1653,2746
-72,3,-45,1255,737,2487
-121,41,-128,1086,-95,1861
71,62,-115,38,-951,1164
52,-34,-126,803,83,488
45,-38,104,203,96,-209
47,-93,85,-275,-2,-589
66,90,85,-208,155,-679
88,41,60,365,271,-683
95,43,46,-156,60,-657
107,-7,28,-63,1,-386
105,4,21,-198,-121,-149
110,0,1,-236,38,-143
113,58,-74,-1228,3238,-4289
-33,-2,8,-193,3264,-4510
54,-80,61,-1235,3643,-4515
82,25,66,-774,4050,-3556
56,96,-31,-565,4065,-2478
-17,-101,66,-823,3149,-654
78,-76,-13,-693,2429,738
-86,-84,-97,-340,2681,2314
-29,-51,31,-1176,942,2787
2,103,-66,-1418,-858,1886
-15,89,113,-1272,-2212,1656
-35,31,-32,362,-2907,29
81,119,-105,142,-3148,-1968
60,-11,-97,771,-2138,-2262
38,-29,-53,727,191,-2036
-106,1,-80,938,2676,-1080
-105,77,72,557,2786,-380
-121,-33,79,-588,2091,-235
-3,-63,-50,-937,1811,1575
-128,44,-115,-428,1114,2354
-95,-113,74,-1937,329,1871
-81,69,-85,-1325,-1012,2729
-69,-39,-122,-1357,-3754,-71
30,11,33,1424,-1578,-627
-43,-32,-116,523,-3580,-2041
36,41,86,-140,-1338,-2876
-122,41,-42,1070,2130,-1753
88,-121,-61,1110,3176,-1143
126,-15,-45,675,3382,-179
23,-116,-18,330,1245,388
126,-3,111,-658,139,1304
105,120,65,840,-540,2842
11,-62,21,-1246,-1431,1788
-106,-71,65,-2178,-3189,1987
-31,-110,28,-1466,-2668,2689
-29,-86,106,-372,-2175,3794
-87,14,126,-1234,-1993,3367
-37,39,-89,220,-1598,3716
4,69,-113,190,-1416,3398
-74,-120,-28,-352,-976,3691
-51,82,-54,614,-731,3260
-73,96,-67,47,-336,2736
90,93,-57,-147,-1320,2063
97,20,-93,886,-99,1364
33,66,-120,-424,-656,560
10,-16,123,-252,-561,-46
35,-71,107,-326,321,-485
60,103,96,419,140,-308
102,27,67,547,390,-290
101,32,45,-300,416,-405
61,-101,9,-1492,2905,-3931
-64,24,4,736,3735,-2933
112,-31,-86,-733,3603,-3669
94,-109,98,-871,3378,-3268
82,22,35,-347,3789,-2187
52,-120,-18,-689,3829,-1738
112,50,-70,-462,3714,696
85,101,84,-826,404,2786
-128,41,43,-1639,-361,2546
88,74,-32,-944,-1409,2483
116,82,-29,-322,-2980,-724
50,18,78,1016,-1989,-387
-125,-32,29,1120,-1595,-1091
124,32,71,500,-215,-2840
-112,-40,-73,831,2361,-1355
111,-27,46,394,2678,-50
-62,-80,58,-429,1968,220
56,-20,-59,-1833,898,383
-113,113,108,-1703,-2,1232
103,82,-3,-2346,-897,726
-21,54,-44,-671,-3104,2340
62,14,49,131,-1650,-75
-22,38,123,1462,-2187,-315
115,-128,104,2080,-442,-2021
-114,85,-126,1915,686,-471
-88,73,-18,881,2415,-991
95,-43,44,493,2439,233
-112,-51,69,-398,1585,335
92,-119,111,-476,-408,18
117,-121,58,-1179,-794,253
35,20,-47,-815,-3067,2567
2,38,-23,-421,-3447,3096
36,121,5,-1173,-2947,3240
-37,19,115,-1478,-3092,2911
-51,67,-107,148,-3086,3718
-3,-99,-61,-508,-2035,3389
8,-89,-52,571,-2059,2956
-114,-28,24,-315,-2698,3222
-106,-115,7,1174,-833,2443
113,-64,11,575,-795,2124
73,34,-27,2674,982,1793
25,86,-127,1049,266,1228
-7,34,123,271,-317,503
11,-42,106,-295,68,10
34,-72,88,-392,28,-347
66,-121,75,-143,125,-574
98,70,56,52,242,-516
111,56,39,6,180,-471
123,48,24,-243,158,-654
127,17,22,12,-6,-302
68,-56,62,-921,4305,-5357
-86,126,83,378,5518,-3452
93,87,-123,-580,4630,-1423
7,-27,127,-724,3011,1176
40,31,20,-435,1989,1572
-112,123,-103,-1882,821,3064
-37,121,-22,-13,-1307,4693
-124,-96,17,-1609,-4611,-1110
-27,125,106,626,-2600,-2446
50,-58,80,-232,-1278,-4548
111,-34,-31,841,2942,-3273
9,49,-108,1731,3904,651
68,80,13,-193,2631,479
-115,91,-39,-1543,1120,1638
106,5,-83,-1378,-2712,2708
-73,87,65,78,-4250,602
103,5,-31,1188,-2490,-2496
79,42,51,976,1422,-2617
-38,20,-12,1828,4291,802
105,-64,-57,756,2688,1033
104,-61,-122,-650,-852,564
-41,-14,-48,-1782,-1246,485
-27,40,126,-2046,-2335,1876
69,-119,-68,-1687,-4407,3392
38,48,82,-1380,-2328,3005
-27,-114,-48,-57,-2531,4000
-42,-18,-63,311,-1949,4285
-62,-33,-42,-19,-2100,3345
-40,-126,-64,692,-2166,3645
-92,-112,-7,836,-964,3593
-64,123,-64,1017,-1055,2683
112,-109,-69,148,-271,1715
60,104,-76,720,190,796
31,-25,126,1846,700,632
13,-32,59,-90,344,30
50,-52,47,-1289,-287,-593
85,123,30,-315,-156,-665
124,69,21,-168,146,-814
-126,23,16,296,86,-670
-117,7,11,23,52,-485
-126,-12,4,-181,-131,-383
118,-1,16,-182,-89,-82
125,12,6,-51,238,189
116,55,-3,-365,-44,323
-125,76,-2,-280,-59,276
125,87,-11,-318,12,392
114,119,-1,-407,-41,312
119,-119,9,-47,87,360
117,-96,6,-362,-11,211
123,-104,8,172,114,115
-83,31,90,-1424,2185,-4473
-120,-4,-3,-1121,3662,-5236
-84,114,22,-1044,3379,-4721
-80,-39,-40,-1257,3699,-3707
105,0,107,-458,3878,-1482
94,127,-3,-120,3448,106
-127,61,-112,171,2671,2094
-76,45,93,156,2258,3657
-11,-104,-5,-1222,346,2940
29,7,97,-1303,-2514,1419
65,47,-104,-1016,-3382,-1251
80,-102,115,37,-3206,-1896
30,41,42,641,-1083,-3163
78,-17,-46,136,1433,-3527
10,43,-88,1114,3888,-302
122,-106,106,470,2870,1439
51,-75,-59,-1381,1610,450
-81,-3,105,-1546,583,2452
7,-19,-50,-1534,-781,2690
-107,99,-91,-1513,-3082,1618
89,-113,-67,-210,-3683,-1543
85,119,-22,122,-2927,-3102
52,76,95,-438,-2047,-3119
98,114,-74,856,2619,-287
-99,-123,-94,1619,3511,1499
-101,-91,-74,319,3416,479
71,-31,-67,-911,1631,824
-38,-115,-46,-853,-1019,1409
119,-32,-56,-1326,-2538,1519
-32,10,20,-896,-3440,1887
-47,-52,85,-101,-2603,2687
-47,-35,94,115,-2506,3053
-113,26,-116,-395,-2305,3024
-59,74,-110,-541,-2191,3033
-48,51,-79,1397,-1691,3706
-96,-108,-35,-243,-1205,2917
-65,57,-63,744,-641,3000
-108,94,-53,34,-503,2381
92,36,-48,436,-668,2204
111,24,-102,-29,39,1450
63,41,-114,30,-527,684
55,-18,108,87,9,-38
51,-73,92,15,33,-323
68,-112,71,9,67,-430
91,98,40,-25,116,-598
99,68,25,4,51,-567
115,44,20,52,184,-482
121,27,3,105,176,-401
117,35,3,-220,-37,-153
122,35,0,-202,-34,-59
-19,41,95,-1034,3492,-4479
70,-45,12,-162,3084,-4701
-29,102,79,-787,3650,-5010
-107,-61,82,-1132,2900,-4507
-24,-57,-23,-235,4842,-1267
-46,-11,125,90,3569,1362
-3,91,-13,-717,2470,777
8,-119,-106,-1270,662,1723
-10,11,96,-1474,-1275,3322
-86,62,-97,-1154,-2408,1961
34,-24,37,-587,-3261,-1214
-55,-104,36,577,-2222,-1658
47,-27,110,999,-408,-2021
-100,-91,-57,651,1281,-2403
-80,-124,-102,1393,3571,-1214
37,17,-62,381,2536,238
-15,-21,-69,-301,2296,-329
42,-38,65,-1178,811,2086
-90,54,3,-732,731,3023
-60,58,-102,-1143,-1040,3060
98,71,111,-1519,-3242,574
4,51,18,-295,-3003,-642
-4,16,14,470,-2429,-1119
98,-117,89,2,-1851,-2685
28,2,-37,1350,2625,-1512
-17,23,69,1812,2773,-31
-112,-65,48,675,1258,550
8,-26,85,-1524,-3,626
96,21,-79,-1064,-1116,948
12,107,-47,-1137,-2016,1904
-105,-55,35,-1149,-3279,2244
-14,-66,31,164,-1151,2664
27,-34,91,268,-1261,2555
-41,35,-104,-699,-1318,2877
7,24,-127,182,-1195,3551
-31,101,-103,372,-1250,3681
-30,95,-106,6,-1517,3239
-74,105,-46,593,-419,3311
-92,85,-62,704,-33,2507
123,86,-68,82,-69,1595
106,27,-107,613,60,1037
58,-29,-124,792,-169,223
60,-85,102,351,219,-231
75,118,71,171,261,-421
-121,56,57,486,285,-504
122,29,31,432,39,-641
-118,5,26,252,58,-613
-86,-30,32,277,65,-418
-96,-39,28,351,-167,-56
-107,-7,43,-419,-363,-70
-27,-25,45,-1300,-4316,3630
45,-44,73,1391,-2547,3658
20,64,-123,-452,-2385,4336
43,-128,-119,882,-824,3720
-11,-68,-61,283,-1244,3448
-78,125,-60,691,-369,2883
-68,96,-56,473,161,2696
-76,19,-108,842,659,1842
96,34,-118,-121,-215,590
16,11,-80,-1082,-801,115
41,-47,-103,-124,-38,150
45,-47,108,-39,330,-127
86,-81,42,-486,181,-645
110,115,22,-122,-168,-609
-118,52,18,587,-64,-568
-98,-5,6,661,232,-597
-114,-25,-3,289,24,-357
-118,-18,-5,-244,-157,-458
127,-17,4,-473,-122,-181
118,2,12,-348,-191,292
120,39,22,-354,-6,495
-126,93,14,-547,239,227
116,-115,48,-903,374,54
120,-103,45,-180,57,772
127,-54,24,-416,-477,596
-121,-63,7,-585,-457,-23
-115,-89,0,-113,164,-324
-124,-120,-9,521,321,73
-120,-128,-16,458,49,135
-118,126,-24,27,-35,95
-114,-126,-14,-312,-23,28
-111,124,-9,99,96,222
-114,-103,-8,-289,-16,132
-115,-99,3,-177,26,248
-113,-91,-3,-47,177,260
-105,-76,-15,-184,100,114
-96,-78,-16,-137,81,112
-94,-78,-18,-54,70,56
-87,-81,-21,7,189,60
-91,-82,-20,-134,28,35
-93,-83,-22,-192,45,113
-84,-81,-17,9,124,56
-82,-76,-20,-118,71,119
-85,-73,-22,-167,-27,120
-81,-70,-19,-146,63,76
-82,-64,-16,-175,39,85
-77,-63,-17,-138,3,92
-74,-63,-15,-91,33,96
-78,-62,-17,-150,4,90
-77,-60,-13,-94,43,87
109,19,-92,-546,3025,-5451
-64,-105,-18,-1402,2891,-5168
-27,-55,15,-1211,3949,-4102
-33,-51,-45,965,5318,-1786
-19,-32,3,1017,4742,250
7,111,25,11,2250,2056
52,-65,-68,-1540,761,2076
106,-37,-5,-1891,-1187,3555
112,65,4,-1499,-2211,1832
-27,-81,105,-748,-3521,-531
120,99,-55,230,-3484,-2421
-25,-119,117,237,-888,-3188
74,-95,-82,432,2158,-2789
-106,98,-119,1012,3561,-663
-82,-35,-122,449,2940,-103
124,119,114,-1449,1527,693
0,98,3,-885,857,2800
-92,-4,27,-1548,-686,3918
-84,-6,-35,-1845,-4288,283
4,-37,-120,-296,-3109,-1759
36,54,67,1138,-2117,-1613
38,105,-86,944,558,-2364
-78,-11,-29,1691,3179,-1061
-59,61,-107,1157,3536,-489
-73,-66,116,12,1952,-118
-126,-3,119,-1175,241,321
-27,80,21,-1226,-391,1184
-50,98,-113,-1433,-1982,2026
103,-70,-77,-1366,-3305,2669
24,-16,24,-1394,-3687,3163
56,-34,49,-429,-1891,3712
-62,-74,-25,-1042,-2860,4048
4,-97,-77,499,-1484,4176
-50,-43,17,218,-2242,4121
5,105,-71,1380,-532,3363
-105,-76,-30,-398,-1076,2723
-114,69,-69,611,-426,1923
120,25,-105,1279,471,1313
85,43,91,583,27,331
58,-25,76,260,-138,-398
82,127,73,268,260,-574
94,75,72,22,2,-613
105,3,48,-45,324,-404
121,-4,46,-64,304,-336
-125,-14,35,-34,0,-135
-107,-10,17,-371,224,-72
-114,2,14,-224,164,89
-120,18,4,-167,-3,213
-111,59,-8,-348,362,-10
-98,71,10,-320,552,-5
84,34,76,-2871,-827,-4319
-128,65,93,-1566,1660,-4259
-18,-42,-92,-513,2976,-4205
99,-55,-60,-1340,3092,-4647
-72,10,-48,-291,3680,-3762
-104,95,-93,17,4205,-2396
70,90,91,664,3367,-839
-124,-4,-97,-305,3286,356
-104,-26,32,-3,1748,1653
-78,18,-80,-872,1440,2316
-62,-39,95,-844,-267,3302
-57,-66,67,-932,-1192,2656
28,-58,109,-1329,-2905,351
-54,-112,68,-132,-2684,-596
-48,-78,122,-401,-2335,-2721
-112,3,-103,-581,-249,-3539
86,92,-91,919,2661,-2200
36,104,91,1215,3441,-1093
-53,-74,55,-252,2126,-272
35,-94,-42,-1350,1664,647
-73,-81,46,-757,1866,2667
18,-50,16,-1739,47,3271
-20,22,-89,-90,-2734,2314
-70,125,55,-1660,-4136,-1439
31,28,-39,1162,-2847,-928
83,-105,-125,-84,-1723,-1957
-95,125,-64,861,775,-1381
-11,106,-58,2343,4114,-331
-105,45,-88,1258,2207,-247
-5,-52,-104,-1369,580,-100
-103,-59,-59,-1399,-66,1484
-88,19,-108,-233,-1264,1897
64,-121,-63,-1498,-1899,2219
25,-92,24,-344,-1507,3225
47,-55,49,651,-1709,3933
-11,-9,91,-906,-2766,4336
59,47,111,-443,-987,3519
69,60,113,1440,-246,3765
-20,-83,112,-665,-523,2864
-54,102,122,250,-1302,2500
107,70,-34,191,112,1973
-120,8,-120,491,653,1645
69,-8,-112,621,-324,919
70,-83,111,765,414,461
63,99,87,332,197,9
76,68,65,-561,24,-53
98,55,24,-938,-154,-307
117,5,24,62,-91,-380
-124,-9,17,446,251,-242
119,-11,7,60,-131,-258
-100,81,76,-2227,1852,-4124
-106,111,-39,-1599,1639,-4473
-28,85,84,-2412,1937,-5260
27,-62,-46,-1091,2745,-4135
118,-70,9,41,4082,-3006
31,-75,-81,673,3741,-1477
78,73,17,317,4109,-456
124,-22,53,436,3030,963
-79,-36,-123,-551,1538,1922
-23,81,-34,-1885,-480,2670
-38,-7,-107,-1714,-2832,2205
-100,-25,100,-1405,-4027,-798
1,112,-15,691,-2137,-2403
-98,41,-72,410,-253,-2958
94,-75,121,63,1693,-2671
125,116,-126,831,3246,-1120
-50,-125,88,571,3206,352
91,117,92,-742,1943,1111
-32,-61,-68,-1418,708,2500
83,-35,-43,-937,-764,4748
94,-48,-95,-1697,-5255,858
-91,-76,3,-999,-3786,-3161
107,108,-4,409,-1873,-3386
114,-76,-94,579,1267,-2326
91,-50,-100,1734,3013,184
51,-36,84,1075,3389,50
-31,-87,39,-469,2525,472
-100,-43,31,-1269,502,1580
-16,37,-93,-656,-1062,2716
-14,82,111,-407,-2236,3243
100,-98,-67,-456,-4173,3672
84,-18,-8,-880,-3734,3424
77,15,34,130,-2969,3611
6,127,-120,245,-2218,4083
9,-125,-101,1877,-550,3785
49,-128,110,2214,720,3427
-61,-83,124,516,0,2754
-105,-103,-105,289,-303,1665
74,37,-118,756,461,1223
40,-19,117,-142,654,547
38,-9,96,-979,342,108
61,-94,72,277,103,-613
102,87,44,-77,268,-953
109,14,25,109,91,-636
109,-19,17,238,25,-383
124,-29,2,-50,92,-262
125,-20,-3,-315,-60,-274
123,-23,0,-157,-44,-51
117,-10,4,100,-35,201
111,8,9,146,-51,381
-101,-70,127,-5077,1293,-2769
62,30,-124,-3347,-310,-4875
-117,-37,-57,-1616,2769,-5230
73,-9,95,126,3942,-4322
13,41,62,-232,4091,-4314
58,49,61,316,4702,-2774
42,73,-87,840,4733,-1277
65,-97,110,835,4019,827
55,-50,92,-1338,1196,585
22,91,-72,-1853,-915,1983
13,-114,-96,-231,-1862,3184
11,117,87,-1012,-3284,-597
-5,-14,-82,684,-2359,-1710
-68,52,-87,827,-769,-1482
61,44,-106,449,1613,-2831
59,-46,-101,677,2568,-1602
-114,-50,-65,362,2948,-217
15,-105,-45,-777,1800,323
-94,-110,47,-1407,1625,1713
19,31,-126,-1528,51,3035
89,97,-5,-2111,-2006,3135
-91,-15,39,-1421,-3621,542
113,84,99,918,-3305,-485
17,-4,80,1337,-1395,-2723
61,-119,-48,1338,1528,-3146
122,16,-35,1571,3389,-802
-116,-106,8,1165,2515,432
109,103,-128,-1213,433,758
-88,-25,-88,-781,-2439,2357
-87,98,127,-1885,-2193,908
8,-102,-86,-898,-1845,1499
-45,-103,35,263,-2699,3471
-36,-25,36,-731,-2539,2933
-50,-31,50,631,-1900,3902
-55,112,94,-58,-2173,3847
-13,-118,111,1212,-692,3254
-37,-126,-114,1257,-393,2889
-88,43,-128,791,355,2691
-99,61,-111,214,-103,2499
-106,-10,-118,667,296,1901
115,-12,98,427,-2,1324
67,6,98,-297,-618,384
65,-83,78,163,-72,-456
73,101,68,77,184,-622
80,53,43,-46,65,-547
100,7,28,-92,66,-347
106,-7,19,-192,41,-357
115,-17,7,-89,225,-260
122,-22,-6,10,134,-216
120,-21,-7,-134,49,0
-85,100,-102,-1495,2971,-4341
-117,-48,-39,-1021,3185,-3648
121,0,-77,-159,4249,-2338
-127,32,-1,821,4433,304
-82,-24,101,51,3029,1003
-54,-4,1,-1226,1505,1576
-29,-117,-49,-1754,15,2680
-27,-26,-125,-2123,-2146,2209
15,69,-63,-994,-2806,385
-29,-85,44,593,-1975,-758
-82,-124,-49,1021,-2682,-1571
26,34,56,908,-788,-3008
117,-76,-51,955,2039,-3183
123,-124,-85,634,2802,-1727
-121,-124,-122,-62,2038,-274
-31,107,-19,-2010,1143,496
-79,-73,-116,-1458,1736,2602
46,117,-9,-2147,153,2741
107,102,95,-2104,-2006,3854
125,97,-113,-1411,-3605,788
74,-82,-102,1317,-2366,-1301
46,-21,-42,1225,-1723,-3103
65,73,-46,1638,260,-2781
32,13,-31,1554,3266,-771
56,-126,82,1314,2683,1298
-35,-86,73,10,471,621
-87,-42,90,-678,403,418
-89,-29,18,-27,15,1400
118,0,-32,-981,-1449,2180
18,-108,-19,-1389,-3176,3199
13,-99,-31,-1205,-2962,3694
3,-29,28,-148,-2304,3589
46,12,31,282,-1652,4252
-33,100,109,1225,-1421,4401
31,46,49,2362,35,3733
18,-78,52,1346,976,2562
-117,89,96,159,128,1911
87,-12,-82,-801,3,1726
101,-49,-88,-224,818,1100
84,-29,-106,230,182,773
57,-42,103,-236,-322,-197
61,-67,89,-2108,353,-352
97,16,31,-143,506,-298
108,50,25,353,-17,-470
-102,8,-11,400,367,-783
-103,-5,-9,-210,-13,-526
-127,-8,-26,-402,-217,-284
-124,-15,-6,-144,-274,-145
125,-28,2,111,-34,154
117,31,4,-629,-150,258
119,72,81,-2932,1230,-3927
-83,-124,31,-1289,3331,-4466
-69,81,8,-281,3030,-5251
9,-38,71,-617,3150,-5102
-128,-23,74,-213,4412,-3763
118,10,25,250,4363,-1973
98,72,82,261,3563,378
-27,7,63,-198,3217,1347
115,-2,-75,-426,1258,2148
-83,42,64,-2997,-1299,1845
-46,-81,-23,-1051,-3211,4047
-3,3,-48,-1173,-3742,220
-35,18,-12,1384,-1595,-1507
-70,42,87,739,-1177,-3319
49,-101,-104,97,763,-3838
50,-8,-113,220,2383,-2345
-122,-69,19,831,3146,238
48,-108,41,-218,2963,-1
-78,116,94,-1245,1602,1518
-127,-43,-74,-1582,602,2882
-95,-27,-26,-2790,-1968,3043
79,16,23,-221,-4391,1376
-17,-47,71,1303,-2911,-3935
18,12,58,465,-2050,-2853
63,34,-50,1559,2350,-1190
105,-70,-46,1651,3386,1110
-105,-63,-84,1107,1850,1179
85,-78,95,-1065,-498,737
-108,-30,-20,-1917,-735,1379
-101,-15,-104,-522,-1238,2123
22,98,-57,-183,-2343,3374
-5,-15,15,-1806,-1555,2716
24,-19,81,0,-364,2533
14,50,86,-46,-1635,3320
-41,90,89,-1300,-2086,3289
-30,24,117,724,-1372,3833
53,22,78,1682,-396,3820
-36,109,-128,-400,-899,3228
-50,42,109,180,-705,3158
-94,76,-112,-84,-625,1986
118,57,91,1059,284,679
66,23,75,688,229,-347
47,127,64,574,247,-294
67,99,51,-276,272,-511
84,50,23,-281,157,-701
121,30,-3,-559,44,-827
-119,28,-2,-846,-351,-1116
116,-7,3,-359,-637,-1132
107,-52,0,239,99,-202
83,-19,-2,-225,124,75
-74,-115,46,-2318,1950,-4683
4,-24,-41,-159,2830,-4712
-126,-111,91,-281,3445,-4677
-30,-8,64,-225,4325,-4137
-24,30,26,179,4782,-3321
-75,-48,-33,-199,3715,420
-71,4,90,-1095,2637,1120
55,104,-61,-1228,1594,2265
122,-15,97,-2705,-115,1571
115,-16,-8,-1856,-3036,2864
-24,-5,17,-1682,-4444,-106
31,-127,75,1811,-2192,-1228
5,-9,119,1122,-1047,-2937
66,40,-86,946,1257,-3256
53,-85,-93,961,3164,-1938
63,-57,90,705,3244,-472
52,-123,34,-917,2587,-328
-96,-61,-97,-1889,2003,466
36,29,30,-1875,933,2295
100,107,-99,-2103,-1636,3307
-69,-4,-96,-1160,-4326,712
27,10,73,-65,-3353,-1358
35,-100,-75,2003,-2240,-1793
50,104,-59,1096,-107,-2748
119,107,-55,1415,3240,-1188
-86,1,-54,1096,2904,-64
-101,22,-107,-172,1249,-563
-12,-60,12,-1065,1361,-352
-13,117,-52,-1175,-795,1441
-106,-77,-49,71,-2432,1957
-33,-59,-18,-432,-2975,2201
-62,-56,31,-453,-3052,3035
-60,-70,84,-146,-2708,3326
-67,69,-94,-374,-2238,3259
-90,-117,-71,-306,-1420,3033
-82,125,-25,1120,-1295,3234
-30,-94,-94,617,-433,2729
85,127,-44,177,-1341,2613
-81,78,-91,586,-368,2008
88,9,-94,710,-251,1905
95,-7,-99,1690,33,953
51,15,108,-63,-169,701
20,-23,121,-673,-719,670
29,-73,120,-152,-436,1094
65,101,95,157,52,84
69,106,61,-422,554,-553
98,73,34,-217,608,-204
120,43,11,37,45,-469
126,40,-1,-151,56,-249
-123,33,-3,-170,109,-350
-106,-9,2,-527,3304,-4832
-19,102,126,94,3492,-4097
-24,-13,-128,-835,2685,-3513
38,4,15,-677,3117,-1673
91,86,123,-254,3627,1209
-100,105,4,-570,2288,957
1,118,-117,-999,1509,1405
-109,-51,-35,-1595,271,2714
-8,-41,-123,-1824,-3043,2954
23,0,57,-219,-2205,-391
12,17,-108,1913,-1544,-1179
107,-6,96,1579,-1485,-2192
127,-27,-110,1472,444,-2401
-95,70,-6,683,2513,-1490
-54,-82,36,69,2747,139
6,-125,32,-1128,1747,193
-89,-78,-76,-2089,988,1344
76,52,74,-1935,537,2173
-91,-33,-92,-2032,-2230,3670
-110,-81,-102,-683,-2923,-559
95,61,-32,1174,-3591,-1111
18,84,-34,1340,-2256,-3487
100,47,-8,1411,1498,-1727
-63,-34,-16,1256,3434,417
-73,-88,-43,499,2281,245
-80,-40,-110,-1226,684,202
-103,103,-32,-1127,-1500,1075
101,-125,-30,-741,-2009,1765
4,112,10,135,-1581,2212
-120,-3,49,-1990,-4286,2474
-99,-62,22,654,-4016,4102
-67,21,89,-213,-2010,3091
-55,37,82,1066,-1963,3538
-52,74,110,2555,-153,4026
-114,107,-103,1757,-487,3112
-28,85,44,-480,1492,2038
101,88,98,-1515,-689,2634
91,79,-104,-472,-609,2144
116,14,114,814,417,1506
57,69,66,-327,-527,274
47,-10,67,-235,-482,-207
59,124,65,332,258,-364
70,94,36,281,172,-406
75,80,13,-464,-241,-543
102,40,14,-602,-70,-591
101,3,10,254,245,-333
97,10,1,54,60,-176
98,30,-6,-469,-71,-227
85,33,19,-345,-28,-72
92,63,12,-387,509,240
-6,1,-67,-1333,3693,-4874
23,-121,4,-1135,2726,-4800
119,73,68,-2895,3957,-5553
15,0,90,-1326,4283,-2612
-14,-44,-42,-1276,3688,-423
37,-61,85,-698,3970,1187
-52,-72,-98,-179,3136,3342
98,-10,42,-1176,1386,2190
-127,117,-59,-1837,-1144,2301
25,25,-52,-146,-4032,2478
-26,32,96,-181,-2347,-1692
51,-44,117,1964,-1856,-2036
114,101,-121,1776,556,-2387
-117,-41,-10,1321,2414,-1567
-97,126,77,573,2871,-40
-81,-128,107,-388,2030,299
84,-111,-40,-1414,1053,392
10,6,80,-1599,670,2716
95,32,-65,-1859,-1480,2906
-54,-10,75,-1184,-4051,-37
59,30,-8,815,-3027,-743
63,82,119,1650,-1957,-2459
91,-66,-25,1404,636,-2554
-101,-45,-2,1169,4152,-58
-11,-106,120,1263,3419,981
-104,-29,-31,62,1191,-9
-106,21,14,-973,-1033,901
126,3,-15,-38,-1742,2594
50,-111,-103,-1214,-2338,1575
-69,-117,15,-606,-3681,2459
-45,7,-22,-2296,-2710,2243
-108,105,76,1989,-2252,3887
-68,27,101,-1382,-1695,3118
115,100,90,-1062,-1734,3223
-111,104,-109,516,-1759,3758
-22,30,-128,1841,-379,3764
-107,-78,-82,-122,-383,3235
-95,-53,-85,-924,-1,1560
126,-80,-93,454,11,563
37,81,-116,230,38,-651
3,-56,-122,194,-151,344
12,-108,103,629,-4,844
60,-111,63,132,277,-57
87,-125,43,-180,103,-252
108,99,36,-286,48,-207
121,76,12,-298,119,-295
115,69,16,-211,-36,-183
119,66,6,-37,58,-175
124,75,1,-326,-4,-122
122,69,-2,-286,-83,25
77,10,-27,-893,2017,-5347
-67,-124,42,-448,3016,-4509
-33,-29,15,-511,3453,-3943
-80,-88,-86,-556,3770,-2649
102,25,78,-593,3297,-583
110,15,28,-1228,2761,950
31,111,98,-1167,2149,2686
89,16,-2,-2156,192,1944
53,54,-108,-1895,-1531,2314
118,27,-42,-848,-2172,814
18,-116,79,425,-1680,453
107,-107,12,630,-2954,-888
116,70,-6,827,-839,-2964
-119,-19,-10,1074,662,-3260
124,-103,-37,976,2833,-1647
105,-49,53,638,3038,87
60,-98,89,-825,1905,24
-109,-80,-31,-1777,1467,868
-20,88,70,-2067,80,2424
30,88,-36,-2183,-879,2883
-75,-116,-78,-731,-1790,1977
-98,92,-66,188,-1148,1070
-37,-98,5,428,-4620,-1725
84,121,-90,527,-2945,-4129
102,118,44,1275,2099,-2742
33,97,-24,1411,2418,-746
65,40,8,1440,892,286
112,-35,-97,-804,338,-585
-64,-7,-29,-1266,422,1112
-103,-2,-78,1111,-723,2629
1,88,3,-537,-1813,3251
-64,98,67,-1061,-2511,3695
6,-127,45,-318,-2365,4605
-23,0,44,-1497,-2958,3879
83,37,21,-848,-598,3041
-12,108,-119,26,-2094,3751
59,96,62,454,-257,3057
-64,-99,-80,-128,-1842,3066
-65,119,-95,760,-605,2062
53,123,-9,-97,-53,1500
79,24,-55,1031,1042,1706
44,13,100,1374,-98,1202
50,36,79,-353,-437,-350
76,-68,57,-398,605,-808
96,100,35,42,969,-724
79,38,32,286,-96,-823
101,17,23,-169,-241,-432
-120,16,14,-542,35,-504
127,13,19,-321,-35,-389
125,27,16,-255,-13,-37
13,-66,28,-862,2798,-5112
65,37,21,-752,3381,-3992
-17,-92,-18,-1597,3064,-2598
10,29,-54,-910,3464,-823
60,-91,88,-317,3937,399
-104,109,-58,-232,3123,1692
-35,99,60,-1046,1218,1941
26,-46,0,-1888,-466,2262
-23,-75,30,-1538,-1991,2426
111,-21,-8,-792,-2982,1237
18,39,94,711,-2634,-1326
93,-85,57,1605,-1538,-1693
89,105,113,864,-328,-3831
124,-87,-38,1088,1682,-1927
-98,120,-66,477,2634,-23
-13,102,-104,-1213,2416,83
-113,-89,-109,-1871,980,1548
42,-120,-35,-1445,549,2381
113,-57,26,-1691,-1642,2376
-78,-93,45,-500,-3937,1227
-55,-109,-42,211,-4119,-781
-55,43,25,1395,-1659,-1670
41,-18,-51,959,291,-2010
116,-80,-78,972,2934,-1106
11,2,112,1736,2787,693
18,-41,105,876,2690,-182
-109,-58,-100,-1123,1170,212
-22,-58,-29,-1167,-1306,2399
-45,-38,-92,40,-1683,3475
78,54,-29,-426,-2944,3757
1,-88,14,-511,-3418,3247
34,27,17,-2443,-2284,3064
-83,-21,63,-238,-3539,4199
18,72,72,1245,-515,3873
-65,-43,-71,-130,-1393,3329
-49,80,-113,1089,426,3030
-103,-99,-45,-247,-284,2647
107,53,-86,1112,239,1794
67,-74,-99,-1407,-303,466
29,13,-126,-194,-315,-130
33,-77,-125,1277,414,-271
53,124,63,902,916,-402
70,92,10,20,304,-485
104,73,-3,-625,-29,-577
113,39,-8,-358,-165,-424
122,14,-8,47,-66,-402
120,-4,-10,499,133,-128
109,7,-2,218,-202,-87
92,10,5,-344,-41,95
95,46,10,-453,-93,181
82,78,-44,-2434,1602,-4353
-95,64,117,-1123,3276,-5211
-40,-29,1,-821,3321,-5009
3,-123,67,-1231,2873,-4433
60,23,73,-1288,3738,-3076
48,117,4,-551,4130,-2052
53,-41,77,-236,3781,-542
59,-108,-38,-316,2759,524
-107,92,111,-320,2961,2079
-13,80,-26,-1299,826,2892
24,-39,-40,-1927,-825,2917
52,-47,-76,-1718,-2356,2437
-52,110,-32,799,-3062,1626
61,107,50,-824,-4660,-2806
22,-12,-72,1038,-2211,-3260
30,33,-32,617,412,-3369
-88,-49,-98,245,2136,-2603
120,-106,77,742,4000,-284
-26,-122,74,-327,2377,207
87,-108,-65,-1323,1674,891
-81,3,107,-1463,690,2450
14,-82,-7,-2018,215,2568
-22,44,68,-1951,-3113,2659
103,-125,107,-729,-4443,-1094
-42,63,-112,684,-3613,-4556
12,15,99,458,-2169,-3532
40,-68,-61,1120,2978,420
86,-38,-71,428,3609,221
-121,-28,-31,603,3272,1056
74,1,-79,-534,1135,698
123,38,54,-436,-1390,1851
-120,78,-37,-1491,-2590,999
22,-113,-70,-1695,-3328,1668
-77,-53,37,-898,-3784,2754
-67,-53,92,1482,-2609,3934
-49,20,-110,1027,-1282,3494
-15,31,-100,975,-547,3846
8,71,-127,2091,-354,4182
21,124,94,426,-820,3408
-31,97,-128,525,-961,3175
-119,-109,-99,3,-385,2379
69,117,-22,714,-281,1449
86,-10,-100,1306,786,1131
13,-8,-117,217,-292,442
29,-59,-124,-418,-453,-254
53,120,119,-462,-83,-514
73,33,71,-247,233,-404
73,27,44,-597,-100,-321
79,12,39,-538,-129,-147
108,7,16,-119,175,-119
105,-23,-41,-2026,4299,-5041
-54,48,-43,791,2377,-3686
40,59,27,-444,1919,-5152
-85,-55,84,-593,2653,-4588
57,55,108,-599,4285,-3133
124,96,77,173,4345,-2036
-78,-101,-104,-516,4373,-547
-3,14,-55,-527,3366,1375
34,44,-112,-1118,1812,2133
51,-121,87,-1744,14,2354
48,-66,-19,-2295,-1495,1532
102,77,-63,-1028,-4198,-208
-21,-31,42,700,-2470,-1422
127,96,-20,1355,-3317,-2534
64,-68,-38,961,-1206,-1447
63,-17,-77,903,727,-681
-85,-78,-56,783,3192,-1860
-22,73,12,205,2921,-817
-95,-59,36,-327,2179,222
91,-103,-111,-1678,1262,892
124,-109,-17,-137,92,296
-123,-95,-23,-75,72,326
-121,-81,-23,-125,70,257
-123,-79,-24,-54,95,249
-115,-72,-26,-56,108,195
-112,-76,-32,9,130,206
-111,-68,-38,-138,95,131
-107,-71,-41,-36,87,89
-103,-72,-43,-85,83,53
-100,-78,-44,-39,57,62
-100,-79,-46,-55,68,47
-85,-60,-36,-117,58,177
-86,-60,-42,-110,73,125
-88,-57,-42,-34,87,111
-82,-52,-46,-137,57,58
-83,-62,-44,11,66,61
-80,-62,-46,-115,100,86
-78,-63,-49,-42,60,90
-77,-60,-49,-146,71,109
-75,-58,-47,-115,28,123
-79,-53,-45,-117,61,122
-73,-52,-46,-73,76,129
-74,-46,-47,-148,48,123
-69,-47,-48,-14,84,100
-71,-42,-48,-127,51,84
-66,-48,-48,-24,77,92
-68,-48,-50,-110,77,83
-64,-47,-51,-89,75,110
-66,-43,-53,-118,37,84
-61,-44,-51,-92,132,96
85,-84,-121,-2745,1686,-4026
-109,-37,-111,-497,4051,-5428
127,-103,-31,-2077,2567,-5978
-46,-8,83,-1650,3086,-5118
69,-79,95,-1018,4429,-2387
-123,0,88,-157,5028,-1123
127,-107,125,-208,4030,431
-51,91,-100,117,3084,1988
73,111,6,-685,1923,2041
-89,20,75,-1898,-437,1683
48,113,38,-963,-2932,2185
-66,-36,-114,-74,-2881,-666
109,41,-80,1372,-2270,-1429
53,17,-21,683,-1657,-2467
63,-121,-58,1092,1449,-1734
-54,54,-56,758,2423,-882
46,-12,-12,-103,2670,-9
-2,-70,7,-1185,1689,122
-76,-27,69,-1926,690,1064
-9,115,-33,-1555,-19,2437
7,3,99,-1057,-1461,3231
118,43,41,-643,-3050,261
-66,-34,-67,712,-3966,111
12,-9,-77,765,-2697,-4732
34,-4,-61,637,600,-2092
100,125,-77,1365,3203,-695
49,-1,-95,732,3330,-449
56,-76,71,-232,1732,-102
10,-77,81,-530,601,877
5,6,-118,-724,-791,1448
4,-103,-67,-954,-2536,2437
-108,-91,20,-1334,-3528,2381
-81,-23,49,-322,-3103,3706
-61,-24,89,1584,-2895,4254
-54,30,78,77,-1468,3997
18,38,71,572,-1273,3521
-9,77,40,1182,-780,3916
-108,-123,-89,174,-2018,3583
-7,86,79,873,470,2585
91,-100,-73,-1299,-1085,2257
-83,22,123,-635,1987,-334
83,123,-90,-650,1083,597
19,-17,122,1833,-294,849
-13,10,116,-446,-1274,553
46,-105,85,-58,139,-417
66,102,66,232,677,-456
100,32,43,559,450,-190
119,46,22,-210,116,-469
124,23,27,93,5,-329
126,24,12,-316,281,-138
50,110,81,-2102,1648,-4484
65,-128,-88,306,2901,-4563
-32,97,56,-259,2376,-5825
-89,-101,90,-330,3380,-5018
-46,-78,99,-170,4489,-3466
-63,-42,16,-407,3805,-2156
-62,101,26,-853,3306,-513
-48,92,-91,-1239,2145,686
29,-123,-4,-1341,697,2065
94,36,-72,-1531,-784,2263
76,59,-117,-1189,-2139,2479
26,45,-53,-215,-4576,-803
71,86,-3,1742,-1095,-835
66,-128,105,1465,-597,-2868
102,-24,-43,773,1479,-3950
61,4,-47,548,2668,-1293
13,34,-51,5,2926,361
-104,97,-42,-1684,1491,682
-7,-40,51,-1403,1037,2470
57,13,-118,-1521,-489,2424
32,69,54,-560,-2037,2835
5,115,111,-479,-2979,-326
-83,-53,49,1529,-4330,-1029
51,-52,77,1031,-1561,-3118
87,0,-26,1124,2750,-1249
3,4,2,957,3547,-166
-80,-32,-22,231,2842,-342
-114,13,-115,-818,723,1332
-46,-66,7,654,-497,2324
-8,-116,-90,-1459,-1129,2424
-128,-3,-121,-2159,-3627,3156
106,70,-65,-1320,-3651,3738
103,-63,37,-355,-2232,3635
34,101,119,-2785,-2756,3075
102,3,87,58,-1446,3881
33,-99,-28,108,-2685,4535
51,-116,15,1547,-592,4042
30,-23,-11,309,-133,3219
-27,-35,-69,1163,61,2269
114,-27,-101,249,-441,722
15,3,118,1288,-381,416
26,0,90,-63,56,-65
42,112,81,202,196,-377
64,38,54,845,437,-477
92,22,30,199,384,-480
106,-6,3,-26,139,-528
109,-16,7,-295,31,-234
98,-7,2,-325,9,-29
104,15,-2,-13,95,-38
118,29,2,-105,19,-46
76,57,81,-560,3528,-4774
8,-93,90,33,4075,-4050
95,-14,116,-77,4743,-3234
77,25,49,40,3744,-1263
98,111,103,-702,3059,-270
-71,126,12,-373,2654,1032
45,-124,-77,-474,1977,2061
-64,-38,-61,-2113,-794,3088
30,64,63,-1331,-2838,2718
-57,1,-124,-445,-3605,-574
-124,5,81,1045,-2398,-1879
79,36,-57,739,-1844,-3111
82,-89,-40,946,1498,-2601
-11,15,-39,83,2678,-1047
93,-60,7,-430,3192,515
70,-44,30,-1373,1974,190
26,-8,69,-1773,723,2101
-120,-77,5,-1982,-84,3271
-114,-58,8,-1315,-3522,2105
-87,17,99,-625,-4559,-2017
126,-51,-48,1808,-2457,-815
8,115,-73,1275,-1834,-3246
71,-1,-71,1013,3604,-1458
-2,13,-23,1208,5203,214
10,-71,-54,575,2912,234
-28,-107,-111,-1409,-47,668
108,8,-25,-727,-1462,2596
18,0,-43,807,-3090,4226
56,95,-108,-1614,-4006,3563
11,65,-24,-393,-3077,3675
44,26,23,-1678,-2242,2891
-51,12,101,-128,-1450,3644
-54,-100,-55,-297,-2341,3626
28,67,118,2047,310,3568
-127,-68,-13,-598,-494,3080
-40,74,-100,783,375,2753
116,-89,-94,-528,-137,1656
111,116,121,188,-40,718
42,14,80,283,204,-39
45,-73,63,223,306,-91
58,-125,41,51,165,-184
102,76,26,26,226,-344
-125,31,3,221,254,-234
126,22,-3,-108,130,-263
-126,10,-6,-107,176,-3
114,26,-6,-74,72,109
112,48,-5,92,86,120
124,71,1,-211,-65,249
127,95,0,-130,307,70
-123,79,7,396,423,184
