AccX,AccY,AccZ,GyroX,GyroY,GyroZ
15,-8,-91,1325,2735,-4558
-42,14,-61,1773,3768,-5139
-83,105,-41,2067,4203,-4526
103,5,15,1898,4857,-3272
97,57,47,1070,4971,-335
-14,-125,-51,-166,4526,1122
63,24,68,-2240,3460,2766
37,-113,-53,-3601,-429,2432
48,-54,-77,-4955,-2980,-785
109,11,0,-1800,-6266,2285
22,2,-16,1523,-3420,650
106,-97,121,3560,-873,-4124
-123,44,-83,3857,1166,-4685
-71,43,37,2272,2648,-4345
-43,60,91,556,3620,-2553
92,92,-117,-1617,2853,199
-97,109,-55,-4246,774,2800
57,10,-52,-4076,-2014,1946
-91,100,-124,-3015,-4512,688
69,44,-89,944,-4930,-1001
-30,110,12,2074,-2051,-2194
57,104,6,2340,-1774,-774
95,73,-97,2085,-4595,783
25,88,87,-64,-5583,568
30,32,46,-2574,-4792,3937
43,45,123,-699,-5770,5432
-24,-20,-75,-4,-2826,5300
43,51,-85,410,-3134,5662
123,83,-104,1581,-2646,4199
-85,-32,28,4477,-1165,2458
112,26,-52,2185,-345,-182
-12,118,-82,2299,-314,-1807
0,23,-58,1194,50,-1621
-2,-32,-44,106,104,-1306
-6,119,-46,703,2,-934
-25,92,-44,1541,15,118
-23,115,-62,1453,188,1152
15,-86,-85,613,196,1243
35,-54,-92,-427,197,362
39,-78,-93,122,-75,-254
43,-103,-95,547,-110,-259
52,-102,-99,-167,19,-330
49,-113,-99,-174,-76,-119
61,-118,-94,120,-60,56
72,-103,-97,171,-5,23
79,-96,-107,139,-46,-7
85,-92,-116,96,-50,-11
92,-84,-118,-64,-17,-59
99,-83,-115,-34,-44,-95
104,-86,-113,16,-18,-43
126,-86,-60,-2190,3438,-4325
-120,102,108,-361,1448,-5622
-62,45,30,676,2443,-5077
111,98,-100,805,3330,-5976
20,102,-64,1700,4466,-4910
29,8,-26,1334,4731,-3310
-68,-121,39,-361,5664,-846
112,-91,72,-2578,4204,2500
80,65,60,-3259,1326,2516
41,-48,76,-4199,-1782,714
-64,-126,94,-3223,-6120,-2365
1,82,-54,1608,-3342,-3364
69,-38,126,3628,-781,-3706
86,19,3,2382,4038,-3765
-102,-16,34,1224,4235,1412
-80,-106,62,-256,4015,270
-46,105,1,-2664,2468,447
-57,-34,40,-3483,-201,2594
41,-114,-118,-4572,-2579,491
-73,61,127,-3576,-5856,-24
32,-53,-117,-959,-7883,-346
115,4,-115,1726,-2273,-75
-42,33,107,5247,274,-2137
11,-56,-122,4399,1846,-3468
112,-52,-42,3293,2670,-1493
-87,52,-17,576,189,-659
29,83,-84,-1051,-2232,-177
57,58,-72,-1941,-3945,1409
-71,-80,108,-1284,-4935,2649
31,98,38,-1507,-5685,4576
39,27,58,-614,-8013,5006
-114,-82,-9,-855,-6583,4875
50,-26,-123,-803,-3414,2360
108,51,74,3766,36,315
47,13,-49,3621,-172,914
-22,-72,30,2657,-773,707
-45,-13,-30,-1878,-1307,311
-86,94,19,-59,203,-787
-96,-13,-4,478,1153,-958
-94,-26,-47,636,157,18
-74,-17,-81,816,11,263
-44,6,-104,324,179,41
-47,8,-102,-102,-288,-12
-27,11,-83,-149,-22,-40
-24,9,-78,-72,29,-91
-12,-3,-95,-12,43,-28
-6,0,-113,-47,68,-43
2,-13,-126,128,40,-30
10,-14,-118,273,-48,76
21,-8,-116,299,-25,70
58,1,-10,-1130,7320,-4537
87,49,-100,1119,3346,-4650
-7,95,-76,-422,4123,-6346
-12,-84,-16,1969,4667,-5153
-43,115,40,30,7547,-3692
-115,94,95,-1098,5735,-199
100,-12,-11,-85,4391,3581
38,41,118,-1337,1628,5332
-111,35,-107,-2714,-2463,941
-19,22,-4,-2304,-6610,-413
-31,7,84,1156,-3751,-286
-124,-2,59,3061,469,-5631
-83,-16,55,2665,3901,-4620
-15,99,67,1061,3833,-1915
54,35,42,-1388,3259,-1108
125,-5,115,-2802,1775,1914
-101,45,66,-3965,-845,4160
-32,114,-51,-4139,-4383,3660
-67,34,10,-2000,-7624,1384
44,-39,70,3844,372,-3728
62,-74,47,2117,2446,-5157
-50,-43,-120,1488,2531,-1103
62,-75,-56,37,898,1252
-101,-71,46,334,-3829,1967
118,15,-39,-813,-2781,1888
-98,76,-104,-913,-3855,4646
-71,-40,65,-1506,-4184,5036
-114,-101,-56,-2215,-5376,5344
-9,-64,28,-1591,-3629,3724
15,112,40,72,-3155,3094
74,98,-16,-780,-2424,3173
1,127,-114,2872,-2741,2089
6,82,80,4059,-972,360
10,54,-17,2035,714,-726
7,-18,-79,-740,1548,-1188
1,-92,-86,-521,1074,-708
-2,120,-85,789,90,148
14,-104,-85,545,-286,729
33,-82,-83,138,-106,409
40,-81,-82,406,-51,286
34,-75,-73,679,-193,177
45,-59,-69,-54,86,-236
58,-74,-81,-180,191,-377
64,-100,-97,-237,28,-280
77,-89,-95,-480,15,-125
72,-74,-84,-229,-30,-56
92,-71,-76,252,109,-9
102,-61,-91,179,19,1
108,-64,-101,241,-29,9
109,-59,-105,193,-74,23
44,33,-102,-1242,6628,-6959
-98,-80,17,1328,850,-5797
56,39,-74,2134,3509,-5165
-62,107,-47,2025,3012,-5022
-38,93,-17,507,3960,-5407
41,-14,45,-184,5678,-3092
85,127,42,-1653,3903,1823
-37,52,-20,-2174,3149,2727
-117,62,28,-3082,-693,4364
112,-60,-109,-4086,-3403,-906
57,-110,117,-1004,-5101,-1635
-126,-115,-32,1412,-3492,435
105,-111,-66,2985,-1064,-3539
121,-4,-81,3782,441,-2693
-106,-117,-10,1777,2903,-2805
-45,87,25,246,3141,-1676
-9,-63,-85,-1161,2699,209
57,-44,42,-1826,2005,1042
-103,47,12,-1816,1246,1862
27,86,-95,-3494,-593,1094
121,-111,-86,-3312,-3979,278
63,-99,-1,-1334,-4135,759
19,24,108,438,-3265,1891
54,109,-7,1676,-2277,-489
45,48,93,2716,-1329,-1771
59,-125,-43,2922,946,-2318
116,96,-37,2301,1830,-1787
-60,-105,-41,1365,1948,-858
24,-40,122,839,2376,198
-105,-27,19,-466,1320,554
23,66,-109,-1285,311,1202
122,-83,-3,-1600,-471,63
63,32,-99,-2655,-2220,576
-128,-112,-98,-2481,-4729,2880
24,-24,0,-1553,-3466,3522
-5,-35,-28,-3188,-4420,3506
-51,4,94,-1558,-2797,2035
-25,-2,81,-83,-1625,3758
77,-128,70,2062,-1308,3500
-105,38,-80,472,-1530,3055
-36,109,57,367,-2171,2757
-17,-22,-32,1313,-1932,1659
4,-64,-40,1159,-902,563
31,-36,-22,52,116,229
15,-46,-10,911,-18,920
-30,-30,20,1742,-631,798
10,-9,-15,54,184,-257
32,-31,-63,-1623,585,-957
39,-95,-92,-803,161,-555
40,-101,-80,446,-318,275
80,-39,-93,-1302,2604,-4402
-121,-89,-28,-31,2823,-5567
-14,-67,-13,-798,-156,-6076
87,111,-20,2377,1306,-6791
-79,-16,-127,694,3296,-8213
-28,-81,-99,149,5483,-7038
-7,89,-11,-159,5137,-2788
87,-39,-43,-997,3860,514
9,21,-26,-1840,3500,816
-62,16,99,-2471,1968,583
10,26,-29,-3701,-172,1005
9,-97,23,-4248,-1934,1087
12,-39,38,-4422,-3462,1994
51,88,90,-2152,-3874,2438
-87,2,-99,-362,-3179,-255
61,-81,-38,3519,-2674,-1419
109,111,75,4544,-96,-4041
-114,80,9,4239,2094,-4464
-37,-87,82,1934,3772,-2814
15,-75,35,-354,3228,-1094
39,-101,-12,-1726,1948,186
75,75,16,-2921,1566,243
111,-128,-4,-3343,577,1042
-66,-23,-13,-4011,-565,1578
16,-58,-87,-4547,-2875,1995
62,29,-86,-3171,-4166,1133
-82,-64,84,-1906,-6051,-1228
-21,-64,-94,1160,-4420,-1501
-93,60,105,2533,-2151,-1897
-76,27,119,3911,-795,-2691
-3,107,-95,3380,1658,-4654
-76,118,-40,2855,2097,-3306
-5,117,-33,2139,3064,-2132
-111,72,28,1093,2125,-1239
24,68,-88,443,1418,-299
31,104,89,-839,1105,483
38,116,16,-1732,871,571
-13,-77,-59,-3539,-1161,1470
-128,36,-54,-4875,-4037,4350
58,-71,8,-2719,-3246,4584
56,29,119,-3768,-4113,4631
1,-7,-94,-1831,-4871,3259
66,37,-36,-1092,-4257,4786
-11,110,-6,1123,-1819,3344
5,45,127,1263,-1156,1582
-21,112,26,1259,-949,1734
2,10,-25,582,-25,1252
29,-43,-19,1218,-12,1126
50,-24,-32,498,13,735
26,-58,-32,595,-413,326
-59,108,-64,-1930,4376,-6436
32,19,38,-929,872,-4493
116,-101,6,1822,2328,-4793
24,99,61,2229,1958,-5625
-5,120,-122,1178,1616,-7093
43,-8,-112,-255,2949,-6493
100,116,-115,-612,4031,-1964
63,-65,-127,-1133,4112,382
28,8,89,-2834,4009,3522
19,50,-55,-3681,1872,4308
-128,-117,65,-3495,-2415,829
82,40,67,-3915,-6185,-3090
-91,-112,-101,10,-6785,-190
-114,19,-52,2534,-1910,-2149
-3,28,-126,3933,1370,-5148
57,30,-104,3553,2979,-3083
-70,73,-25,1052,4380,-2658
40,126,2,-817,3584,-1084
20,76,101,-2086,2809,675
-15,-67,53,-3024,1758,2680
91,-68,21,-3496,119,2367
101,-125,-77,-4283,-1825,1882
-63,17,8,-3666,-5808,2787
-81,77,22,-1018,-6175,-470
-117,-45,-97,984,-5181,-1786
116,120,96,3692,-2387,-3884
-110,13,114,3224,620,-4797
56,-83,-87,3468,1904,-2340
-119,103,-32,3040,2355,-2266
50,73,105,1251,1377,-2250
-98,61,-112,-299,895,-239
-120,66,53,-1418,74,2166
116,110,-17,-2686,-304,3274
-45,27,-71,-4441,-2158,5247
78,-102,-74,-4352,-4494,7283
-100,-71,40,-328,-4278,7134
22,-104,123,-1690,-5663,7215
-106,77,92,133,-2033,2056
92,-103,35,3452,-274,688
3,25,-16,3611,-185,-140
-18,-63,-58,2286,666,-729
26,112,-17,1084,622,321
37,127,-17,221,113,1452
-13,-124,-26,-229,-760,562
-34,124,-1,277,-1032,218
-15,-124,14,998,-80,204
1,-98,-25,123,693,-333
11,117,-74,-885,520,-616
25,87,-91,-492,147,-297
34,85,-94,74,-91,193
30,114,-57,5325,-1082,-3456
100,-4,107,-1443,-2126,-5841
-26,57,-110,-3590,-625,-9970
-115,14,-13,-3747,1968,-11161
-25,24,52,-5117,6796,-6657
-27,-23,-75,-1157,5792,834
126,-72,41,-3205,3844,4330
50,-67,-47,-3959,546,4154
58,45,28,-3874,-3978,-1348
75,75,108,-2924,-6455,-2587
86,-69,78,1237,-5711,1215
-24,50,-61,2329,-885,-3428
9,83,-105,4008,2428,-5445
81,-45,-80,3626,3987,-1951
-16,1,-9,377,4236,-1879
74,-92,-107,-1092,3318,18
-127,119,-73,-2671,2621,2305
-60,-63,113,-2754,-66,4498
71,5,89,-4575,-1222,1016
-38,-50,-114,-4011,-5202,2039
-93,122,3,-712,-5991,1281
-53,-53,-63,777,-3263,-2358
118,-120,127,3674,-954,-4257
-10,-30,-113,3575,788,-4633
96,-54,-55,3415,2563,-3104
72,41,-27,4956,445,-1558
-11,117,93,541,3882,-2259
121,69,-95,-897,3173,-298
-82,116,56,-2264,2152,660
125,-119,3,-2650,534,303
68,32,-88,-3950,-1786,1345
-7,126,-33,-1387,-4540,3120
28,-92,-33,-1109,-4744,4820
-79,-58,82,-1239,-5015,2301
121,31,75,-1363,-3227,3303
-43,57,-98,32,-1850,3445
67,75,-88,-819,-804,5240
-83,-65,-119,919,-2453,4672
60,-96,29,373,-1425,3052
37,47,0,585,-521,1255
-2,-62,-47,1989,-80,188
20,-74,-62,948,601,-146
32,-88,-66,558,387,417
2,-106,-65,543,-449,665
-10,-73,-37,424,-784,741
7,-63,-27,609,-101,65
40,-80,-82,-439,646,-589
45,-113,-113,-953,384,-585
53,119,-120,-109,-158,58
52,-115,-108,138,-402,294
62,-4,-15,-2276,3968,-5568
88,90,20,220,1286,-7076
-64,118,-12,438,3076,-6398
-110,-46,-93,36,5516,-7815
119,103,-53,2138,6151,-5632
88,55,-10,-326,4860,-2927
-68,-51,-128,-3618,3779,1410
-82,63,21,-3255,2109,4598
90,-85,17,-3576,136,3360
-3,-56,94,-5152,-4507,-1655
21,91,-64,-119,-8041,-2824
-88,83,41,3349,-2932,-4883
-25,-10,-80,4274,841,-3527
42,-78,-81,2584,4507,-3102
-124,-53,-19,566,4329,-1030
124,120,-49,-963,3849,394
-111,-69,13,-2950,3090,1528
47,-95,-35,-1744,970,4839
23,-35,2,-3065,961,988
30,111,69,-5641,-3314,-207
55,102,72,-712,-8704,2176
76,-12,-44,2331,-3540,-2763
-39,-87,-97,3547,-1932,-4863
18,120,-98,4478,624,-4218
-75,-85,-78,1896,-22,-2020
-95,-103,-31,2118,-304,-1030
-39,-2,-28,1104,-1117,-208
-97,42,110,550,-1222,1170
-29,32,57,286,-2126,2999
57,-75,-106,-912,-3337,5538
40,58,74,205,-1490,3600
68,-117,-28,526,-356,4263
37,-42,-51,-312,329,4688
70,3,-41,203,424,5048
-70,80,106,2397,963,6187
-10,-70,18,2137,85,6170
12,25,2,-461,-1510,3107
-39,-54,-20,251,-1980,152
-12,-97,-7,1410,-888,-1015
-2,-71,30,396,202,-752
-26,-101,14,-351,381,-307
-32,114,-25,-331,124,-157
-3,120,-52,-650,83,14
7,122,-52,220,-120,425
12,-111,-47,559,-171,442
28,-76,-45,11,40,111
34,-76,-65,-290,200,-77
37,-84,-83,-257,44,-136
51,-92,-87,37,-89,-30
61,-84,-82,-92,-18,-134
-111,-10,-125,-1374,4000,-4780
-61,-88,45,-2377,3332,-8040
-38,-44,42,-23,837,-8239
62,-34,-80,654,4653,-7250
16,115,-77,-403,4905,-7255
60,79,-57,-2904,3533,-3594
-123,30,-34,-1726,3234,2531
-95,-21,-85,-1947,3175,3444
40,-103,99,-3292,198,2487
-65,-93,-59,-2714,-4700,1550
96,-24,-120,-1774,-7323,-88
-57,29,11,1526,-4318,-886
-72,22,-77,3289,-289,-2831
29,-55,-110,3670,2844,-4052
98,-96,-73,2573,4172,-3052
99,69,22,-20,4470,-1714
-22,-59,41,-1605,3117,-390
117,119,36,-3233,2578,1666
123,-21,87,-2408,-773,4509
-86,104,-90,-3716,-2887,1816
-47,52,25,-2573,-6916,2232
-107,-61,-103,-410,-5055,-479
-33,-63,-98,2440,-2794,-1295
-71,54,-117,4740,-208,-5950
19,-109,-95,2803,-1370,-6169
111,-35,-78,-754,5012,-3022
-77,17,-1,-154,3160,380
10,83,75,-1401,4305,477
12,-46,-59,-2543,2131,473
-75,30,2,-128,-1690,1059
111,84,15,-484,-4184,1322
2,-70,-72,-756,-5545,3907
121,90,-126,-1055,-4747,4711
119,45,42,-1121,-4011,6234
55,-72,114,1164,-6445,7632
-117,-73,84,525,-3896,5484
53,103,-35,338,-708,3180
18,-117,77,1192,549,2009
-37,22,-8,2386,471,-96
-48,-42,-30,1874,154,-826
-28,-72,-9,378,61,-343
-46,-95,18,762,-324,865
-48,-98,12,1451,-195,681
-34,36,-48,-1677,-710,-316
-12,-39,-69,-836,-57,-505
-4,-96,-76,377,604,-243
-10,-115,-95,410,401,9
5,-95,-91,56,83,296
21,-78,-73,143,-152,267
36,-47,-58,-34,-89,30
125,-20,125,-199,3185,-5627
-28,25,27,-1462,3292,-7232
-57,2,-34,1759,1186,-8426
-63,-121,-104,824,3580,-7875
-85,-11,-60,-999,4706,-8042
92,-12,-31,-366,3904,-3936
12,78,-77,-1561,2907,-1261
75,-78,-95,-2085,3488,2515
-33,-104,-57,-3661,896,3615
-92,-60,107,-4727,-2939,1963
-120,79,-40,-3657,-5725,-378
75,30,-77,-39,-5305,482
-30,61,16,2826,-2145,-2149
57,97,-79,3992,1715,-4716
95,70,-66,2646,3675,-4060
-20,-67,11,130,4296,-1961
-97,14,46,-2032,2911,817
-84,-127,-72,-2815,2206,1671
-47,48,-68,-3548,-480,3249
-92,-40,-77,-3360,-1135,2743
127,93,4,-3383,-4082,2190
-51,109,-13,-1595,-5766,744
-30,-16,-30,674,-3475,-1974
-88,-89,-112,3455,-1444,-2731
15,41,-106,3705,801,-3279
85,89,-63,2708,2965,-3141
42,-54,15,2028,2836,-1070
120,-57,78,1240,2143,-58
61,-50,-62,51,2119,395
-16,45,12,-118,911,615
-44,-74,-56,-1662,-869,-540
105,28,-119,-2555,-1123,1885
52,-98,-38,-1848,-3589,4188
-56,-106,55,-2245,-3171,3321
-56,23,104,-2696,-5235,4403
-67,-107,-88,-333,-6395,7941
-50,-111,-24,-220,-3315,6551
39,35,-30,-75,-3450,4614
48,-95,92,2548,-183,343
19,38,-6,3083,1056,-303
18,-66,-66,2547,1479,128
20,-41,-63,-229,848,204
-12,-52,-58,-1424,-197,119
-6,-105,-58,327,-609,658
1,-127,-46,2620,-559,1041
16,-54,-53,308,119,-256
20,-93,-73,-280,239,-476
19,126,-78,-149,-68,-299
25,126,-80,-226,-57,-144
32,116,-87,179,-21,72
-55,-86,-10,-2173,4559,-6722
-104,-17,-100,-192,1682,-7791
-128,95,-105,1535,3172,-7078
53,-125,-118,1504,4487,-7904
61,38,-68,-162,4478,-6323
96,14,114,-2024,3777,-3737
37,66,-56,-1292,3691,-133
-69,-80,53,-1641,4264,2375
89,-39,87,-3218,1844,4686
-12,-43,-119,-3576,-1754,2381
89,-1,53,-4551,-5458,-1843
-22,-94,21,-676,-5705,-168
-5,60,52,2276,-2917,-1174
73,124,-60,3680,1004,-4101
108,18,-53,3072,3039,-2764
-88,-103,0,1420,4138,-2153
-55,115,-59,356,3248,590
77,3,127,-2173,2484,1561
59,86,70,-2758,550,2821
-8,-34,11,-4003,-1413,949
-89,13,-57,-3530,-4077,561
61,-60,25,-1225,-5327,833
90,58,-36,1019,-3238,-920
20,-75,-79,3033,219,-3583
78,35,-73,3140,2099,-3185
-90,110,-2,1650,3873,-3035
102,-124,-96,-259,3591,-277
-49,76,70,-1093,1366,1460
117,119,47,-1225,-110,63
67,4,58,-1549,-642,-166
43,0,34,-193,-1572,2327
-112,72,-54,-1193,-2084,2639
-34,-86,-34,-2082,-5804,3056
120,122,-87,-2953,-5833,4166
-22,-104,49,-1910,-8490,5287
-57,-88,80,944,-5791,6137
114,-38,84,1336,-3374,3224
112,-19,-11,-568,-1040,1996
-14,-30,-118,3036,-1015,1385
-65,63,53,4411,-695,1082
-15,104,-6,995,951,237
-35,50,-24,-1003,1012,-231
-72,-11,-10,-70,-486,185
-61,-29,-2,986,-456,367
-20,-23,-54,142,583,-321
-20,-34,-90,-892,708,-609
-13,-64,-102,-442,281,-315
6,-74,-99,422,-170,308
5,-42,-91,196,-342,197
18,-23,-73,79,-130,63
-49,-13,-42,540,2069,-6747
24,45,24,1002,747,-7352
-95,-14,123,545,1427,-7477
35,-36,120,461,3033,-8212
11,86,-77,-1588,4011,-5711
17,12,121,-3865,4110,-1031
96,-27,93,-2387,4455,3484
32,36,-67,-2879,3024,2909
80,16,68,-3671,-2080,1624
-75,-18,106,-3507,-5649,-2271
-42,-51,-108,-64,-5739,-51
-44,92,50,2194,-1869,-2539
57,28,-59,3049,1853,-5014
83,-38,-57,2715,2387,-2877
-122,-12,-9,123,4187,-2092
-124,110,-103,-1403,3319,1232
-15,-126,-37,-1922,2582,2407
-92,-11,124,-2916,830,3082
41,13,51,-3960,-1569,1004
-74,-42,86,-3473,-3576,565
18,85,113,-2809,-7055,-1070
-43,-59,-18,475,-3980,-1541
-57,-51,-105,3125,-1230,-834
4,17,-118,4469,2753,-4613
117,115,-57,3290,4383,-3155
-26,-98,33,1309,4524,-1400
-63,-38,-119,-1315,3031,649
-71,-88,-87,-2228,1834,195
-42,-99,-96,-1108,-270,1686
46,58,65,-1417,-1051,742
41,-125,6,-1212,-1871,1702
81,-60,83,-406,-2133,1247
-21,34,-70,-1342,-3709,1564
59,119,-27,-1751,-4261,2668
-118,117,-12,-1373,-6286,3043
-82,-91,57,-181,-6654,3772
-4,-109,50,600,-6559,3897
-41,-81,-4,17,-1618,2895
-90,21,-82,2075,-772,1215
-106,-115,78,2467,-528,1319
-90,55,-1,1239,58,1000
-69,53,-18,-299,193,764
-99,19,35,275,-1239,1105
-69,11,41,1294,-681,788
-37,-1,-48,698,1268,-627
-28,-51,-92,-73,1254,-644
0,-89,-102,-47,420,112
1,-91,-99,129,-411,471
-11,-30,-102,-1050,-445,429
-11,32,-74,-1249,-194,-112
112,54,1,1499,4281,-6645
-23,-98,73,-567,487,-3976
74,54,-127,759,3396,-6863
21,-96,-122,-319,4140,-9021
83,-31,-76,-1964,4992,-7453
-125,-53,-1,-3192,5665,-1071
0,30,3,-2237,4038,3989
72,69,-104,-2956,2574,4007
-58,-14,16,-4120,-3918,476
98,56,74,-3408,-6717,-112
107,116,76,1140,-4618,848
52,-33,0,3682,-595,-3614
97,84,-45,3597,2248,-6105
-115,35,-7,1912,4189,-3874
113,110,65,-931,4420,-140
77,-31,27,-1506,3653,1242
23,66,-88,-3348,1113,3486
-41,-44,110,-4507,-1323,1813
-61,100,3,-3876,-4758,409
18,-19,112,124,-7490,2581
-66,30,-36,596,-4053,-567
-39,-64,-99,2688,-1265,-4242
8,25,-106,2947,1661,-5434
112,120,-61,2040,4068,-3728
-69,112,25,711,3831,-447
1,-94,68,-851,2072,823
-86,-64,-103,945,1517,1617
6,127,119,-174,1372,1008
-32,43,-20,-245,-129,253
-121,-110,124,-1002,-2465,1521
-101,120,12,-839,-4961,4209
-3,-53,95,-1636,-6238,6386
-92,-93,24,-3809,-6342,6097
-89,-4,39,-375,-4677,5846
-21,-26,-81,3310,-4853,5683
88,76,84,2979,-352,-856
-81,-12,-107,3050,1677,266
97,4,3,3475,1197,629
117,19,-94,3768,1313,483
-31,-38,-31,3825,1246,2042
66,5,-15,2624,1959,2845
65,41,-3,2907,1116,2420
8,66,-20,1975,-895,294
6,93,2,-1357,-949,-1064
-18,-12,18,-1868,-285,-1256
-59,-53,20,-1415,-402,-564
-60,-44,8,-1424,-448,-311
-7,-10,-23,-531,-34,323
-9,50,-40,-299,80,-150
-8,55,-61,263,-23,-391
126,2,104,-3757,1700,-5519
106,-59,33,-5690,5364,-8267
76,-126,-24,624,3797,-5420
40,63,-37,866,5804,-4693
66,24,18,-716,5399,-3899
-91,-29,36,-951,3932,-2324
75,121,-40,-2303,4071,-448
122,-56,9,-3488,2187,2322
-108,-42,-3,-3987,-3332,2530
-52,-15,-48,-2950,-6826,-911
-98,-12,44,568,-6571,-1261
-20,-87,83,2087,-2644,-1070
-2,-49,-52,3436,2271,-3405
71,-63,-47,3080,4169,-1457
-114,91,-4,2783,4992,-1158
-12,-112,-24,-724,3836,572
45,85,67,-2158,3320,1471
93,-95,-55,-3721,763,2597
-59,95,71,-5155,-2343,-384
4,-73,28,-4285,-5130,-1694
-52,102,82,-1070,-7394,19
29,-3,15,2203,-1112,-2307
72,108,-58,4276,2206,-3966
-126,23,-33,4000,3533,-2046
-79,-85,9,1857,3303,-2509
76,34,-98,494,3290,1876
121,-35,-91,-547,2747,1559
57,18,-110,-1146,643,-884
26,83,92,-450,-531,-852
-110,83,23,151,-1428,1465
-38,27,-77,-313,-2439,2128
37,37,70,-1780,-3806,6071
-98,-104,86,-1045,-5623,8191
-97,54,49,-3231,-4506,5409
-121,89,29,-1174,-5486,6661
81,-97,-60,2122,-3436,8154
-111,-67,-103,353,-3019,4789
-6,62,11,-642,-770,-1353
-33,-108,26,574,585,-1464
-44,-33,-16,2315,1588,-34
-54,-40,-90,1690,556,823
-67,-29,-77,-259,-669,667
-34,-49,-101,-1001,-461,400
-41,65,-29,-1829,-706,-120
-27,20,-1,425,481,-363
-42,-29,-113,-423,410,-222
-33,-43,101,-927,6,-42
-26,-52,110,55,-60,-97
-9,-23,-112,283,-79,11
-2,-3,-97,235,-131,119
78,-100,-74,-792,1519,-6415
73,-89,121,-4374,4560,-8513
-29,88,-56,102,4979,-4997
33,-125,-11,-1740,4658,-3275
79,44,2,-1703,4823,209
12,33,-56,-2197,3989,2768
-64,-49,-103,-2815,3096,6143
-22,37,-45,-3501,-1536,3483
-94,-127,-95,-4842,-7068,-3405
76,-88,2,-353,-7769,539
116,99,25,1178,-3028,-706
12,-69,-75,3106,1506,-5903
101,-67,-59,3462,3098,-3102
-93,83,-3,952,4840,-3689
-123,-31,79,-180,4294,-682
-92,59,-123,-1070,4048,2341
18,-53,124,-2688,1224,4543
-60,110,12,-4689,-1423,2024
87,64,-59,-4492,-5461,539
-91,31,40,-882,-6346,1117
-50,25,15,1572,-3147,-2550
-1,-82,-95,2464,317,-5429
75,-23,-75,1954,2224,-4067
-99,79,-20,-668,4506,-2513
114,-42,-91,-775,3089,212
27,99,-12,-1240,3270,443
-67,-76,-56,-1216,2397,1242
38,66,116,-339,-95,1817
-55,-114,86,691,-2208,2108
43,-108,29,-131,-2072,766
58,-127,-12,-507,-3859,1725
122,-94,43,-771,-7371,5012
79,-7,124,-954,-7789,6423
-78,37,-102,-33,-6157,9870
-123,-119,62,1386,-3887,4246
-97,-52,-89,-1220,-494,1610
17,-22,113,-151,760,930
-48,36,50,3804,166,436
-22,-17,-28,3541,639,-153
52,-33,-50,1295,1061,171
23,-6,-52,-1565,472,457
-46,-26,-42,-1758,-982,-130
-45,-103,3,1721,-1059,549
-27,-53,-17,2094,-47,166
-9,-25,-71,-761,670,-509
5,-68,-116,-2009,586,-621
5,-102,-107,-379,23,-153
12,-99,-86,654,-307,127
22,-55,-66,214,-148,85
28,-62,-80,274,98,-37
-120,81,-44,-2270,3079,-4364
-114,-33,10,-2118,3745,-5438
-43,-91,-41,333,2620,-4674
90,-1,-105,987,3405,-6629
-7,-76,-96,1697,5098,-6586
-6,69,-46,804,5333,-3865
99,-55,14,-920,4782,-1114
100,112,-64,-1670,4102,2497
59,119,68,-2809,2628,3265
85,23,-8,-4037,-2740,1959
25,2,4,-3893,-6552,509
53,81,4,743,-4900,-523
26,-52,-22,2789,-1571,-3440
42,-9,-76,2722,2128,-5625
121,58,-39,1241,4266,-2848
24,85,33,-365,4458,-921
33,16,-75,-1688,3923,319
56,-89,-16,-2229,2815,2438
74,6,112,-3042,-731,3934
17,-123,104,-4841,-4836,-465
-95,-122,1,-1151,-7825,1614
-50,7,-68,488,-4434,-412
-119,-54,-92,2546,-1604,-2285
8,-5,-114,2793,1494,-3960
89,-68,-72,2018,3574,-3332
75,70,20,1030,3917,-1290
117,65,-100,1434,1659,-118
107,81,125,1026,2140,246
-82,-111,37,-561,1760,135
-110,-76,27,-840,462,630
73,-60,-43,-1042,-402,1310
-50,9,-94,-1861,-1305,2918
73,-95,-96,-2827,-4526,4389
-20,15,34,-1567,-5847,5398
-49,-86,99,-3444,-5772,6675
-81,-90,-79,-1453,-5470,5884
33,101,-44,160,-4303,4789
47,79,-81,-922,-2799,2872
-20,-79,-127,1847,-1243,622
0,69,32,3917,1646,-650
23,-42,-71,4390,2132,-635
83,42,-85,-1148,1897,255
-2,-6,-113,-2613,-5,286
-35,-110,-106,937,-839,5
-5,-80,-75,1046,-464,-31
15,-43,-85,-575,419,-375
12,-73,-82,-137,144,-164
15,-85,-80,249,-136,28
30,-79,-90,207,-29,132
35,-76,-106,175,49,58
-62,115,34,-895,5143,-5006
85,-80,-18,48,4164,-6484
-13,99,-108,2382,1805,-5219
-103,-14,-56,1917,3043,-6371
-54,-19,-53,708,3697,-6262
-3,-86,-31,-1387,3231,-5489
6,-59,-109,-2303,3423,-2061
25,43,-105,-1670,2842,240
64,89,32,-2931,2666,3229
-124,77,126,-3869,-1144,6535
-107,93,90,-4808,-5140,-50
46,-55,55,-2699,-8346,279
48,96,68,924,-4482,-1822
-43,-61,-92,4080,-917,-2716
23,-10,-114,3984,3141,-4360
119,-10,-53,2137,4981,-3829
102,69,35,357,4440,-1410
18,-55,71,-888,4315,-745
-87,30,5,-3162,2649,2646
124,-119,113,-3872,-280,3928
103,17,-127,-4671,-1973,2229
77,41,-29,-4441,-6849,1399
-24,-85,-50,-160,-5594,-1021
43,-30,-72,1993,-3860,-2020
-45,118,-124,4072,130,-5070
46,-99,-89,2644,2724,-5221
-81,-26,-2,1815,4641,-2690
-22,-34,27,-57,3257,-294
83,-40,61,-1030,2914,13
-112,-114,101,-1186,1203,248
-89,48,-8,-154,-1105,691
-44,108,-54,300,-2662,1077
96,-66,61,-1051,-4374,4012
-92,-127,123,677,-6687,7103
-119,48,35,214,-5827,8049
115,-33,-117,-1842,-3614,8029
-82,-10,-49,-2894,-3170,4650
-33,119,14,-1506,-2511,1860
82,52,-51,-523,489,1148
6,-79,121,1631,528,227
-59,34,-22,2949,380,-615
-44,-41,-53,3351,-112,-184
9,-33,7,2146,-951,1949
49,8,-55,346,707,1525
-8,1,-69,-74,253,-26
-38,-72,-75,521,-173,-474
-3,-105,-89,347,288,-213
8,-99,-105,-792,398,-413
19,-108,-110,-504,59,33
10,-93,-98,66,-433,330
89,-121,-63,-2681,1835,-3852
-87,118,69,-1682,2881,-6581
-54,88,-51,-1228,1805,-6738
25,9,-98,69,3640,-6527
61,-34,119,890,5805,-5059
39,70,-103,-795,5545,-3770
72,8,-115,-2070,3688,-644
65,73,76,-1714,3308,749
89,-19,-81,-3123,2210,1754
-96,40,-75,-1920,-4095,4507
11,-67,-128,-4311,-5934,1203
-119,59,6,1359,-5043,745
0,-41,-54,3294,-703,-3226
23,119,-96,4832,1763,-6823
120,32,-71,1919,3541,-5279
-21,50,-14,-459,4342,-3314
-109,-24,25,-1958,2797,935
117,-90,-50,-4383,2400,2148
-71,8,-124,-3473,85,4090
-97,45,-112,-5033,-3596,1249
28,24,-128,-2845,-6887,1450
-63,-113,-90,195,-5795,238
35,3,-94,2224,-2609,-973
-51,-104,123,3278,259,-4171
43,-119,-90,3134,3092,-4392
-31,8,-24,352,4364,-4551
4,-5,-34,-747,4042,-1072
8,-28,-76,-2662,1763,2447
-32,-99,-83,-2010,1553,1744
33,105,110,-955,-72,-160
90,97,36,42,-801,391
-97,96,-54,436,-2294,1546
5,104,-113,126,-4625,3433
-47,127,-40,-1962,-8012,8515
11,89,64,-973,-7443,10227
88,41,-23,486,-3469,6248
-33,5,-37,-2899,-440,2609
102,49,-20,1150,-886,1163
6,90,64,3142,404,-25
-94,-18,-45,2573,724,-1395
-22,85,-86,3129,1235,-737
-104,85,11,2140,178,3078
-89,-72,-14,296,616,4114
70,-32,-46,-401,88,1433
-15,-52,-64,-368,-402,-869
-1,-67,-69,-896,-88,-1560
38,-93,-81,-1718,613,-1399
38,-103,-96,-1353,360,-707
20,-97,-81,-200,-401,-26
31,-76,-74,7,-250,125
-121,-105,-41,-3526,3018,-3794
-13,-107,-72,86,4203,-7027
-32,84,-115,-120,4225,-5208
-87,-76,-53,1638,6920,-5680
-101,116,6,2192,5777,-5415
-99,4,72,-706,4282,-4742
-63,-120,31,-1036,3968,1311
-29,-97,-29,1054,3348,5290
-20,45,-103,-3738,1286,4435
23,32,61,-5644,-6927,-367
-107,60,-4,-53,-8631,1153
26,34,-125,2668,-2511,-2527
37,93,-65,2395,1760,-7164
101,-95,-41,1259,4508,-3335
40,113,57,-1047,5517,-212
23,-55,34,-2101,3865,1263
59,-54,-49,-3648,1871,2725
71,-6,-66,-4436,-2829,1034
-59,-83,-41,-3163,-5635,665
40,44,-10,-380,-6437,1976
29,-14,-28,1600,-3958,488
-23,-95,-106,3105,-874,-3303
34,-34,-83,3669,2033,-4306
-109,92,-18,1377,4940,-4216
-104,-22,67,-260,4275,-164
-75,48,27,-1591,2627,738
93,-49,104,-1722,1423,-1128
104,3,39,197,-795,-548
115,92,3,578,-2205,251
-123,109,-128,99,-3586,1956
-71,83,63,178,-5705,4109
-70,-51,-92,-1070,-7119,5647
-73,48,65,233,-4722,3749
114,-95,-85,112,-3726,5545
-64,-82,-122,-1090,-2204,5540
41,-42,-1,3715,-1083,3252
118,-111,79,2868,877,2894
113,75,-4,1442,1028,2564
58,80,-96,-1408,505,1216
2,35,-88,-1760,-349,-530
-13,-9,-61,-551,-531,-439
8,-30,-30,818,-195,-165
25,-26,-45,969,236,-274
19,-47,-62,425,201,-650
18,-79,-59,507,-4,-243
19,-91,-55,529,-42,172
31,-76,-60,290,-19,328
45,-66,-71,284,-101,265
58,-61,-76,159,-66,173
65,-56,-87,34,-17,-21
-94,39,-22,-40,5286,-7248
-83,-28,51,174,4588,-6474
94,-66,49,1258,-1500,-4140
110,99,-23,3,2134,-5392
30,57,-113,2210,2055,-5619
23,101,-93,326,3493,-6957
39,43,-29,-933,5725,-3125
73,19,53,-1280,5714,1539
59,-56,113,-2300,4733,3899
70,103,-56,-3931,-2394,4383
116,100,-70,-5650,-7797,-245
-68,-2,-2,48,-7951,984
1,47,-67,2648,-3143,-2850
-76,-48,117,3033,177,-7942
18,33,-114,450,4606,-6163
44,-16,-42,-989,5116,-1001
-4,19,-4,-1873,4096,245
-87,40,101,-3744,4326,784
47,-19,10,-5142,2636,4145
-121,-42,118,-5115,-2992,4435
114,-36,-33,-4535,-7139,465
74,1,-45,57,-6576,-1960
-36,-65,-73,3623,-2998,-3453
-6,56,-94,3691,2673,-8310
123,-14,-49,1496,3969,-4088
-37,124,39,299,4514,508
63,49,83,-1182,2600,610
41,-64,-118,-721,1628,495
117,67,16,1517,499,562
-51,-128,-63,2248,-1658,-4
-37,123,45,330,-3106,1208
-41,30,-23,-683,-4185,3426
-117,46,70,-2228,-5287,6754
75,-72,-18,-2103,-3041,7472
-74,-17,-1,-3547,-5194,9183
-93,-121,123,-1690,-3290,5274
111,-57,63,-1504,-3122,4549
59,-119,-43,1786,-1782,1375
115,37,65,3454,477,843
-81,74,-14,2049,1439,851
-89,82,-102,582,1646,1166
54,35,-112,114,-101,-56
6,-30,-89,-57,-1173,-627
27,-48,-68,437,-984,108
36,-45,-66,653,-416,551
38,-46,-53,637,-117,118
39,-69,-52,727,40,-78
35,-80,-51,668,76,2
42,-84,-63,401,-42,120
51,-90,-74,177,7,-21
-103,40,123,-1971,178,-6318
-57,-121,-106,-1969,103,-8017
56,-109,16,-290,649,-7609
81,81,120,-2578,4156,-8758
20,5,105,-1436,5088,-3553
-17,44,10,-1625,4794,134
-7,32,-15,-4480,4516,4312
6,52,101,-3488,1550,7080
-17,66,38,-6972,-3502,2623
-118,92,9,-1844,-9180,517
72,-31,-54,-1087,-5436,-1438
-124,-67,-128,3117,-2242,-5821
34,40,101,3321,2843,-7948
42,-10,-114,978,5740,-4352
-86,-66,-30,-388,4846,-536
-32,-97,-37,-1980,4038,371
-40,-18,29,-4022,4249,2112
51,35,-100,-4150,922,4316
-84,-52,-57,-6873,-1955,1783
5,53,-22,-3025,-8753,1859
60,94,-23,284,-6918,-121
-47,-98,-126,1289,-4452,-1943
121,71,109,4325,-935,-4474
-64,120,-102,1579,2147,-6677
2,-36,-50,1695,4490,-3633
93,24,-3,-125,4434,-1894
-118,37,-15,-964,3096,-195
93,-41,107,-1499,1858,-589
-49,42,-82,-656,-1057,187
-127,31,117,873,-3344,1139
-126,75,-115,86,-3765,1254
-58,-69,-55,-1126,-5414,4942
-67,-12,52,-1113,-6515,9208
-23,120,-6,103,-4473,8663
-101,-37,-2,880,-1951,5736
-31,90,-101,1577,-1154,5542
-65,-31,56,902,-154,2367
32,67,-13,-316,-2218,896
96,-40,-105,3095,1063,152
5,9,-65,1129,434,-903
19,-26,-97,-1201,1469,-1525
21,-105,-95,-288,969,-1034
24,123,-89,628,153,-172
28,-92,-87,-105,-408,197
32,-76,-89,-390,-257,-64
48,-91,-85,-28,-56,-278
52,-93,-81,10,-108,-218
59,-83,-72,-224,-162,15
75,-76,-70,124,6,151
72,-58,-85,167,93,16
54,30,-45,-1249,2419,-5120
-45,-19,18,147,1811,-6245
80,-67,124,1236,1808,-6609
-113,-25,58,-1305,1054,-10385
-57,-58,117,-1095,4667,-9101
86,42,84,-3312,4319,-3002
15,-90,-2,-2991,3868,-145
-128,-76,-46,-2675,2551,3132
21,-61,99,-1862,308,5939
-84,64,-87,-3634,-2561,2822
6,-111,66,-3221,-6208,1812
37,86,94,828,-4947,440
-25,-128,-57,2855,-1951,-1863
11,-111,-109,2459,1130,-6038
84,116,-77,1372,3479,-4589
53,-31,-19,-388,4042,-2678
-34,-64,51,-1319,3426,-25
-76,25,-65,-2191,2739,935
109,49,-94,-3295,1146,2605
-3,-22,96,-3638,-993,2885
20,69,-28,-3726,-4500,3579
-67,49,118,-792,-5333,2397
-105,-94,-76,1136,-3276,-165
0,70,-56,3330,-1037,-6287
76,23,-55,2611,834,-5592
-68,25,1,1629,3984,-4059
14,-87,-93,-136,3591,-701
20,114,-109,-891,2221,1430
67,-100,-111,-711,1462,1209
0,-26,125,-961,-80,1184
113,-48,58,-444,-672,2656
-44,58,-80,-2096,-1530,3506
114,-120,-74,-2327,-3616,4714
-19,48,0,-2403,-6362,5587
8,-80,-2,-3709,-3557,5479
-74,-104,-105,-1622,-4154,5357
90,62,-98,375,-2362,6052
73,-87,-111,2385,-2535,4254
-60,77,38,3502,380,2205
-19,-5,-86,3338,3250,120
-73,-14,-119,694,3069,-779
96,-109,-107,1143,617,231
31,54,-105,2087,-1336,1017
57,39,-84,1759,-1171,797
62,71,-69,87,-349,71
70,79,-59,-659,6,-384
62,87,-60,-926,-153,-586
63,122,-64,-1790,-114,-978
71,-90,-101,-2801,115,-1424
84,-69,-120,-2632,20,-1327
105,-91,20,-642,3357,-5162
33,-93,-59,691,3010,-7357
86,103,-3,-468,33,-8575
-69,-118,115,-116,3737,-6426
77,-100,-122,-2121,5644,-4966
89,-53,-101,-2628,4645,-1976
94,-27,-68,-1974,4302,548
-4,-11,110,-2057,4239,4426
31,40,-96,-2517,101,5762
-52,68,-117,-4543,-4789,-1670
97,17,-88,-1153,-7250,-697
37,122,47,745,-2881,-552
41,-40,-59,2823,1041,-5370
88,-6,-51,2948,3898,-2558
-89,113,6,718,4464,-1220
8,16,-81,-745,3568,-412
89,83,-96,-466,2537,2124
10,-88,102,-2641,1576,2517
122,80,82,-3777,-665,2439
46,-44,-5,-5038,-4217,350
-82,78,-72,-1019,-7033,805
117,65,9,2255,-2725,-2408
-43,-85,-101,3504,-1121,-3046
42,70,-90,2839,2137,-4107
-108,-19,-17,1751,4140,-2532
53,82,4,707,3556,-379
-50,-27,48,-270,2467,103
-14,-106,113,455,2042,1246
-124,41,113,-833,1995,152
11,-65,97,-2005,-523,494
66,84,13,-2121,-3390,2357
-107,-7,12,-2823,-5434,5591
34,37,25,-2266,-7441,6972
39,-116,93,-4194,-9509,8918
-100,-77,104,-2698,-5657,5720
-89,26,-28,-2227,-3539,2937
100,26,89,3665,200,860
43,-64,120,4604,1871,-604
12,69,-58,3316,1518,-884
46,69,-70,-682,1213,-463
14,112,-78,-3523,311,-322
-29,-25,-76,-578,-502,-266
-9,-48,-60,2041,-363,574
20,-9,-86,1154,197,527
32,15,-104,-52,325,233
29,0,-91,167,-196,265
39,3,-70,435,-343,266
52,10,-69,10,101,-255
61,-9,-92,-364,203,-353
60,-27,-106,-217,-55,-165
125,119,6,-1897,3328,-2901
87,-99,-119,1397,2426,-3056
23,59,-64,-2663,-180,-5875
-96,122,119,-1835,2695,-6942
-80,118,-119,552,4679,-5287
41,48,-109,-1933,6478,-4519
-40,-67,-36,-972,6828,285
-70,-105,-30,-1586,6031,2371
121,73,7,-2510,4457,3197
4,56,125,-4576,-1296,3066
18,45,48,-3512,-5743,-105
-16,-128,-42,-886,-6470,148
-27,125,75,1371,-2977,-1963
46,-51,-47,2790,1021,-4864
97,98,-35,1980,3971,-3793
-78,-12,26,565,4969,-2465
109,86,-108,-519,3890,-512
-58,-14,-25,-952,2831,1708
96,-92,-93,-2252,2331,2683
82,-47,6,-3492,-432,3420
41,14,34,-4852,-2925,989
-113,-45,91,-2904,-6670,871
-108,27,48,820,-5215,-1126
62,-73,-66,2655,-2983,-1980
10,-1,-94,3181,1301,-4144
114,44,-36,2578,3472,-3219
-27,63,44,1136,5045,-1987
31,-16,-26,-45,3800,-441
95,28,-48,-1232,3001,688
17,-36,117,-548,258,-132
61,88,63,2365,-2220,-1029
-123,97,-118,2616,-5910,1116
-96,5,95,1008,-5507,2600
-16,-47,79,-324,-4075,7528
-90,70,40,-1,-5008,10528
99,125,-44,-1169,-3399,9197
-56,-29,65,-674,-2833,5506
-29,83,-66,490,-1149,3273
-103,77,-74,4238,-1654,2606
-20,42,36,4978,1153,2537
-77,-78,-82,743,3109,988
12,101,-100,-538,1148,-1090
-72,109,-64,2267,-1328,-1386
-21,108,-31,1998,-1455,-85
-4,-107,-31,-88,-206,431
-14,-78,-57,-1610,573,45
-11,-79,-73,-1280,226,-295
-2,-84,-71,-406,-275,-438
6,-105,-39,757,-521,-428
24,126,-39,1324,-260,-349
121,42,-83,-3977,1868,-6378
23,-112,38,-1115,4375,-6911
121,84,-48,496,496,-7520
75,20,90,-906,2485,-8227
84,-120,101,-2147,5711,-5394
-92,96,-96,-2090,6561,-782
85,-72,-65,-2218,4729,-358
68,-56,75,-2455,4711,2753
-61,61,-18,-3918,-644,6849
-47,37,11,-3792,-4267,-130
28,97,-89,-2693,-8000,439
-65,126,46,696,-3660,-1944
51,-19,-84,2452,-1247,-5539
-60,-72,-115,2638,2784,-6790
54,-82,-79,1353,5232,-3473
68,-102,-1,-582,5191,-408
38,11,42,-1133,4075,2524
94,118,-64,-2664,2102,4209
-56,8,120,-2694,-105,3933
72,-43,-67,-5934,-1698,977
-70,49,60,-3143,-7612,-442
-85,60,-113,-622,-6200,-1676
77,48,-83,2520,-2360,-2801
-84,-111,119,2737,1113,-6181
46,-79,-103,2310,4381,-5532
-9,-119,-7,718,5207,-1295
-99,41,-109,-1044,4222,401
-57,99,-101,-1385,2960,995
94,32,-25,-702,-4,1135
-56,-42,43,4111,-3142,3148
35,-51,-59,2506,-2444,1247
-115,20,84,-1494,-1749,1642
44,11,119,-1584,-2985,5116
34,-108,-106,-1203,-2907,7602
17,29,83,-4,-2592,8051
27,-30,-111,-2144,-2799,6195
-9,43,-55,-1681,-2339,3981
116,-126,-95,1889,-179,3360
-121,-32,94,3426,1200,2155
11,-20,-6,735,2761,986
-25,102,-82,-3524,2645,804
42,70,-101,-1626,-866,457
-20,37,-48,6390,-3271,1686
33,-113,-73,4341,-1881,1099
14,-62,-44,46,10,-867
13,-115,-62,-2285,1284,-1560
24,93,-93,-1454,664,-584
26,115,-88,-859,-295,-167
43,-81,-78,-1241,-482,-638
61,-32,-81,-2335,11,-1129
80,-58,57,-3120,3255,-4072
-6,-112,-30,439,1878,-4569
-91,113,106,1004,2791,-5537
-123,-72,-119,1668,3227,-5528
-52,-53,-99,-319,4515,-5298
-31,-3,-52,715,5149,-3203
-115,-13,-92,-1297,3774,-1459
0,-20,72,-1518,4226,2500
109,40,-119,-2680,2114,6560
-1,-9,-92,-4408,-2666,1844
41,-19,-11,-3494,-7228,-392
56,-4,52,285,-4206,419
-83,16,-57,3495,-2195,-1300
41,-95,-90,3313,1494,-5404
116,-79,-50,2536,3218,-3698
75,83,36,1140,4223,-1648
-30,81,124,-156,3700,1804
10,98,55,-1373,3402,1967
118,21,116,-3390,608,2814
111,31,-45,-5678,-2985,1172
0,122,-11,-3936,-5374,1779
-93,24,-47,38,-4033,-1811
-27,-128,-87,3146,-1962,-4357
5,63,-93,3002,896,-5615
100,90,-49,2668,1629,-4573
15,101,-7,980,4272,-1526
25,-127,18,-301,3864,342
-98,44,-104,-1124,2515,1475
11,26,50,-1880,-89,197
109,109,-74,-632,-2112,442
-113,51,-112,135,-4368,2546
103,31,117,-530,-3611,4205
38,122,-54,-2082,-3185,5586
23,11,64,-2859,-2054,5133
-25,-103,-82,-2976,-3646,5742
93,33,-25,49,-2861,5547
31,10,-42,813,-2811,7077
100,-105,70,3371,-1147,4017
0,-46,-33,1607,862,1141
104,-1,-105,-2074,1053,-1069
33,65,-94,-977,434,-2278
59,-31,-74,1042,18,-1562
46,-50,-78,744,-466,-791
25,-69,-78,321,-601,0
29,-67,-88,-89,-193,-3
40,-69,-103,-394,93,-377
57,-78,-110,-287,66,-546
59,-67,-108,-479,-206,-197
61,-52,-101,-620,-359,60
57,-36,-88,-239,-277,304
76,111,74,-2240,10337,-1714
-61,-48,-43,432,3045,-3076
-29,107,127,1717,1792,-6716
-82,71,-49,3187,2161,-6767
84,-116,-79,2173,4027,-7504
-67,-81,-46,820,4396,-5187
85,-81,-26,232,4313,-521
3,-18,123,104,4686,2170
-41,49,-123,-1961,3122,5864
1,115,-127,-4096,-1489,3169
26,-14,73,-5401,-6220,-1685
84,53,-84,-536,-5727,-2102
45,19,-27,3107,-608,-5420
-42,102,-93,3773,2528,-4829
78,-13,-69,1118,3950,-2857
-58,-35,-6,-477,4157,5
-14,-55,107,-1699,3812,876
-42,7,-42,-2872,2921,1767
-119,-76,-127,-3039,267,1623
-65,-4,-3,-3673,-2242,-669
-80,-40,-94,-3622,-6395,-895
4,-11,-6,1448,-8318,357
-54,15,-38,1583,-3093,-1607
-48,59,115,4475,1443,-3961
29,-42,-119,2865,2858,-3203
-118,30,-44,758,4540,-2587
106,2,14,-463,3889,150
-104,-35,126,-578,3525,1642
-29,113,-78,-1221,2440,1970
80,56,105,-704,562,-9
25,126,69,310,-825,-421
-41,71,17,244,-1450,1041
16,68,-60,-909,-3623,2825
59,70,125,-2329,-9109,6593
123,-125,-31,-1319,-7926,8488
43,-47,112,-1040,-2845,6876
48,-124,-18,-1934,-2472,3127
126,-29,-21,-89,-1129,3390
-120,91,-106,3400,-1646,3201
-90,-29,44,5365,-1679,2287
-38,112,-36,633,1931,627
109,-73,-100,-3901,2843,-709
-17,75,-92,-3173,309,-1773
-25,-33,-25,998,-1074,-949
-4,-112,-35,4415,-1033,744
7,-56,-74,3035,-268,1018
13,-29,-87,251,505,-171
43,-46,-113,-1864,777,-879
39,-69,-113,-1293,75,-479
46,-86,-99,102,-486,79
111,45,-126,-2600,2494,-3779
-61,10,-5,-1174,4323,-5454
5,121,4,432,2397,-6478
-68,18,-126,1733,2524,-6679
-27,-61,109,140,1936,-8753
48,-49,112,-1076,2569,-7955
-90,23,92,-1299,3326,-3966
112,0,124,-1599,4617,-545
121,-47,11,-1211,4902,3052
70,9,-121,-3292,1801,5987
36,-104,46,-3244,-4594,929
29,-120,7,-1667,-9056,807
-21,-103,-60,869,-3986,71
97,-34,-93,3028,595,-5646
-23,1,123,1997,3096,-4789
59,-127,-96,110,4285,-3321
-56,112,-59,-1899,4096,33
15,-67,50,-1856,3742,2193
-37,68,39,-2886,2616,3345
71,-73,-10,-3875,-234,2294
69,98,-116,-4620,-3899,1094
107,-19,-93,-2307,-7463,1878
-94,84,41,859,-3183,-1487
-34,-47,-93,3069,-825,-4534
41,-31,-95,3628,1631,-3959
-118,-56,-31,2034,4420,-3050
-112,-107,33,981,4282,-930
12,109,99,1478,2926,-46
102,64,-49,-843,2346,-88
113,-5,52,-1003,-195,403
123,87,-7,-596,-2437,1141
-77,106,-121,-789,-2397,2703
5,121,124,-1100,-3931,3935
110,41,-8,-3134,-4877,6164
-8,45,-89,-1730,-5368,6272
-119,-90,62,-2153,-2994,1989
121,84,68,-3618,-3831,4925
-86,10,42,1163,-5085,4148
82,-86,-69,3460,-617,2383
104,-71,73,2129,1015,2484
68,-62,-10,536,1154,1269
22,-127,-52,253,377,-81
-11,26,-52,637,-633,-481
10,-15,-36,784,-639,-90
14,-36,-40,454,-200,-41
9,-51,-60,-67,76,-39
2,-50,-73,-243,-82,27
17,-33,-79,-660,-255,-134
24,-23,-69,-925,-278,-306
46,-16,-61,-1057,-49,-261
54,93,66,454,1810,-5789
57,-65,123,2279,3291,-5912
110,-28,121,2067,4038,-5765
106,55,-89,-601,4738,-6222
55,66,-19,-1420,5619,-1597
-65,-33,82,-1224,5408,1669
-32,22,30,-5124,1675,3874
-63,-38,8,-4556,-3281,2394
80,65,56,-3468,-6553,1556
126,117,86,379,-4010,-1181
66,-24,-26,3131,-2816,-2437
56,-67,-74,3152,820,-6070
120,-120,-42,1697,3290,-5602
33,114,23,-84,4492,-1787
110,-46,44,-482,3881,1395
80,76,-93,-420,4198,3138
22,-120,-96,-3508,2430,3009
117,60,123,-5369,-1764,1701
-95,125,90,-6912,-6687,800
34,93,63,-548,-5531,-19
-10,-84,-13,2181,-3544,-974
-60,108,-73,2588,1369,-6822
111,-2,-46,2321,2803,-4217
13,61,9,620,4132,-2048
-102,-38,20,-1066,3299,952
118,-69,-105,-485,2425,2366
87,82,86,-661,1893,845
81,31,-14,-1035,-311,-271
97,95,-79,-262,-3388,522
97,127,-65,-1373,-7366,3290
88,12,47,-3253,-6210,6295
-73,81,-4,-1731,-5184,5582
37,71,39,-1610,-2895,5876
97,-43,10,-396,-3070,4681
-64,-25,-83,2748,-3203,4352
97,56,8,3690,-1305,1549
86,27,2,1119,890,36
-89,109,-26,-3176,3063,438
108,119,100,-4175,2499,219
45,55,-105,-788,-298,-702
38,0,-71,1984,-1240,-497
53,-3,-74,2165,-1122,-89
45,1,-71,632,-509,-213
38,1,-68,-505,45,-299
50,-15,-73,-688,285,-269
59,-29,-86,-4,154,-244
84,-40,-92,391,-28,-188
78,-28,-92,51,-133,-65
78,-33,-94,109,38,-72
87,-38,-98,194,43,36
-117,36,123,-2458,2791,-3860
1,-118,48,-953,2651,-6452
76,86,-13,2294,1267,-7367
38,37,82,882,1430,-8575
20,-41,-126,1192,3567,-8616
-33,117,-108,-979,4166,-5384
92,-69,-108,-2277,4440,-1221
-43,49,-91,-1486,4817,3232
-89,46,-27,-2938,4071,1236
-118,74,86,-5687,427,3133
19,94,-32,-4190,-5210,828
-111,118,64,-1276,-7745,599
-81,-127,54,2200,-4053,-2041
-115,-94,-91,3978,-1450,-3873
50,-105,-95,2817,3948,-6138
-113,-14,-28,1377,5011,-2290
-63,7,13,-939,4528,-555
67,-73,73,-1602,3246,1412
65,62,-31,-3749,2289,2634
118,106,123,-4085,-2279,4299
4,121,-59,-5465,-4239,136
-54,8,-104,-170,-8257,130
116,-55,-58,2826,-4479,-1575
123,86,125,3667,-3245,-2934
-47,-114,-103,1989,3457,-4338
-111,39,-43,1467,3850,-2997
2,-44,34,843,2824,-2946
-52,-45,-8,236,729,-1564
-23,-51,-44,827,-510,-621
2,-28,-72,199,29,141
-51,-7,-75,-1061,-166,1573
-75,58,-67,-2900,-113,3492
44,124,-38,-2507,-1982,5850
104,-1,43,-2403,-3194,5572
-40,-94,105,-3395,-4860,5045
-32,124,126,-1790,-6561,8775
-98,-117,-34,3647,-4069,8617
93,105,64,6708,594,4735
-2,49,-88,5494,2424,645
-78,18,108,993,3397,-2283
85,-43,-110,-2464,1215,-1637
-20,83,-68,-1547,-1826,-1752
41,97,-48,-395,-1549,-1060
54,-107,-48,-1210,-765,-192
31,-62,-47,-1715,-487,61
17,-53,-48,-1286,-558,223
17,-29,-35,-976,-545,227
28,-16,-24,-547,-163,-55
51,-37,-49,363,283,-97
78,-39,-84,511,310,47
92,-96,28,-2374,3659,-3976
-85,119,67,1557,4895,-4856
-30,-126,-127,2299,2842,-5366
-69,-71,98,2395,3215,-6465
-118,-23,115,156,4291,-7768
-104,-80,-126,-1874,4289,-6004
31,-94,-4,-3127,3319,-2410
63,-47,114,-2743,4349,1140
112,-63,17,-2134,3283,5292
1,-73,38,-3050,-1497,6101
44,78,18,-1364,-7241,-163
-27,-63,-79,-887,-9592,758
-72,-100,15,998,-2269,-2640
-79,-110,-122,2686,1467,-5715
20,35,-112,2326,3787,-4306
-109,19,-37,8,4978,-2520
-32,24,113,-2140,3734,-370
52,-86,-37,-2103,3481,2097
-49,9,-26,-3973,708,3712
29,112,42,-1682,-4981,4825
-63,106,99,-4360,-5509,1208
-21,-93,48,185,-5092,177
124,-81,-62,1848,-1693,-3315
-82,100,-96,2622,1221,-5951
90,-62,-63,2167,4038,-4771
-6,-59,12,1023,4993,-2304
66,91,6,1333,2638,696
-17,-28,-110,2812,117,1938
-126,58,67,1762,247,1172
-43,-123,-31,-24,1157,593
84,-62,-75,-2309,424,475
-35,-17,-122,-2245,-1187,2820
-95,85,123,-2252,-2353,5795
90,-95,-59,-2171,-3668,6230
-63,8,36,-3160,-4374,4794
-10,-91,-96,-2708,-3656,5232
81,111,30,-606,-2873,5520
-27,-105,-14,200,-1008,4487
-93,8,-113,2145,92,2856
77,-119,32,2347,157,1900
31,93,-22,410,57,809
25,65,-41,-981,315,-276
15,-4,-58,-466,247,-630
8,-78,-58,764,-7,-372
9,-88,-67,1102,-111,42
17,-82,-59,687,-86,210
28,-111,-70,873,174,183
40,-113,-83,492,119,62
45,-91,-72,-461,-198,-73
55,-89,-73,-646,-48,-84
-112,-97,13,2125,3481,-3040
-114,38,36,4260,2005,-4519
57,79,49,2305,-1699,-6351
107,111,74,917,-1193,-8958
2,15,-102,-1529,-224,-9427
-24,5,25,-2695,2718,-5521
104,-119,77,-109,4375,1049
-95,63,24,-1910,4044,1816
-16,-119,83,-4800,2858,4783
48,44,126,-4991,-1953,4255
-1,-99,-21,-4848,-6383,432
25,-49,-62,151,-8855,-473
74,-41,-76,2523,-1818,-3270
58,36,119,4018,914,-5270
25,45,-114,1131,4374,-4732
-48,19,-46,1089,4753,-1242
19,-25,-89,-1062,3943,-401
79,-57,-108,-2364,3434,-331
-30,-55,-28,-3430,115,3522
39,-36,-66,-4693,-2175,2608
20,-1,95,-4436,-7035,2844
8,-25,125,48,-5622,-1009
49,-33,-87,2129,-3901,-2531
-110,118,109,3667,-464,-5489
-9,56,-120,2201,3209,-4856
-52,18,-32,322,5658,-3064
69,59,-126,-307,3650,-735
43,127,-44,565,2329,390
-73,12,120,-946,1283,-23
-96,42,68,-2219,686,-443
-122,50,1,-2638,117,868
60,104,-18,-3006,-2009,3811
-18,-53,-2,-3462,-4496,5110
-104,1,71,-3180,-5972,2945
3,-14,-7,-4132,-6182,3533
-102,-30,86,-850,-5835,4090
8,-64,92,-230,-4038,3401
86,86,81,137,-3544,4952
127,-52,-46,2848,-2334,2826
72,-37,2,3626,-550,964
-38,-93,-71,2314,-47,-1646
-34,12,-71,995,780,-2029
-18,-84,-46,-695,1191,-1002
-33,-106,-37,-1271,551,182
-34,-128,-67,-31,41,973
25,-78,-81,3,152,995
51,-51,-88,-340,252,233
54,-59,-99,22,109,-250
48,-85,-93,593,-166,-153
51,-76,-83,262,-153,148
28,61,-56,397,2470,-5310
-42,70,-119,1863,3040,-5509
-86,-53,-114,1870,4180,-5992
106,-71,-88,367,3465,-5556
38,111,-72,-669,2690,-3079
-99,-126,44,-1671,2933,-231
75,-12,43,-2473,2842,2130
127,59,-52,-2774,1347,5670
-44,-100,93,-4198,-4007,874
-90,-77,-33,-867,-7313,392
22,-5,12,2534,-2845,-2066
-83,96,-86,2715,-781,-4911
41,113,-101,1498,3411,-5222
112,101,-49,-252,4870,-2343
84,-63,-17,-1947,4681,219
-31,118,-28,-2163,3394,2283
35,-117,-45,-3502,2635,2913
-27,75,29,-5291,-3092,518
-100,-86,-41,-3684,-6129,-681
-37,-105,63,2421,-5154,331
25,-36,-50,2555,-3063,-2951
52,-11,-93,3858,862,-3364
102,-24,-59,2591,2417,-1928
-78,-62,6,77,4186,-1052
-34,6,-112,-705,2807,847
-112,17,-89,48,853,2564
-93,-5,-54,-543,-261,1461
-74,-23,47,-539,-484,1340
87,-38,-122,-1832,-2556,1741
45,-124,-72,-1790,-5063,3511
-116,-103,62,52,-5182,3632
-70,-29,-121,-1674,-5464,3313
-57,-95,-65,-1645,-4431,5332
57,-96,45,2125,-3328,8044
-48,-3,-5,6863,-83,7837
-120,110,18,4076,2219,3238
-69,-5,103,-3247,2154,-1487
43,125,90,-3837,368,-2273
35,-19,127,-697,-272,-1846
17,-42,-77,921,-805,-444
-11,-64,-49,1782,-1325,431
-14,-40,-35,876,-831,636
0,-9,-33,-130,173,466
36,-26,-31,554,557,208
44,-69,-63,1161,853,-204
22,-64,-72,149,-95,-416
33,-86,-78,-59,-419,-60
55,-88,-78,99,-130,201
70,-75,-97,-9,266,-10
74,-73,-102,-76,64,-147
59,-113,102,-4075,1559,-3959
-75,52,65,-2436,4940,-5879
62,-108,-77,32,3245,-6239
-68,2,37,-56,2624,-7746
-93,-53,-124,893,3634,-7726
-15,121,114,1110,4998,-4842
-92,-11,-91,-1521,4781,-3493
-65,-120,-74,-2029,4673,753
-14,78,55,-2576,3608,2211
-116,77,-1,-3257,885,3331
111,41,-91,-3471,-3540,1473
92,59,103,-3408,-5359,798
-109,-42,-56,195,-6738,1118
33,21,-67,2804,-1875,-2631
-52,72,126,5074,1720,-5695
66,99,-97,3137,4135,-3499
-84,110,-21,450,4802,-1954
-89,28,41,-1524,3297,-34
-78,124,-32,-2952,2652,1072
-77,-75,13,-3090,-587,2702
26,45,-3,-3991,-2387,2178
-79,-15,-12,-3891,-5172,677
87,-6,19,-1502,-5341,510
-128,65,-56,1153,-3246,-615
-64,-81,121,3500,290,-3420
28,-8,-106,3375,3106,-3114
-104,26,-17,2232,3795,-1902
6,-99,-99,2015,2431,-1255
9,-108,-88,2095,275,-1152
98,105,25,-1235,1389,469
13,-92,-83,-1175,1011,1803
63,-91,105,-1361,-1753,2553
-33,31,76,-3492,-4180,5153
37,-79,-39,-2899,-6725,6916
-87,91,25,-2429,-2316,5489
-24,97,121,436,-2443,4442
-91,-3,44,-582,-2321,2923
-31,82,-30,330,-1013,1444
-11,-69,114,1074,-1206,2807
20,35,15,2115,-886,2530
6,-6,-81,740,-857,731
22,-19,-73,-291,101,194
12,-49,-61,256,585,404
-2,-67,-74,128,115,-6
2,-35,-92,-1218,-1032,268
7,-33,-75,-672,-672,526
-8,-39,-75,-12,-3,-175
-7,-33,-106,-223,475,-245
21,-29,-126,-801,545,-400
44,-46,-127,-485,349,-202
81,-17,-117,-2374,2245,-3948
-110,-4,-52,-855,3005,-4113
66,120,13,-1257,2082,-2958
-29,92,-126,-1152,1385,-4387
90,-88,1,-61,1698,-4919
-110,-63,-92,1283,2508,-4372
-69,1,-111,712,3637,-4966
-20,-50,-86,617,3872,-5177
20,-119,-28,-720,4316,-3695
43,73,-48,-555,3973,679
-20,-80,124,-980,3283,2803
-98,8,-92,-3475,3470,1943
-44,-65,112,-3712,-2161,4082
35,-58,42,-5432,-6608,-164
113,44,-30,460,-6375,-472
8,-74,-38,2685,-2058,-1942
17,-103,-99,2450,1393,-5948
94,-74,-62,1290,4585,-3507
1,112,15,688,4893,-969
44,-15,33,-1322,3946,-38
73,31,90,-3449,3649,2259
14,73,72,-4096,-531,4587
-92,-124,-11,-5811,-6100,1367
33,59,-23,-2447,-8469,3122
-56,0,-29,1566,-4242,-2310
92,-101,-124,2863,-1768,-4624
-37,-45,-123,2556,2241,-5877
104,99,-72,1971,4418,-3675
77,51,23,1202,4555,-1564
-11,77,73,585,2520,557
100,87,-107,-411,1918,940
-79,99,58,-357,1606,1064
-78,113,63,-889,2256,861
67,-75,8,-2944,-105,1137
45,-95,-69,-3673,-2469,4414
-100,41,52,-1044,-4517,3641
-8,-70,-118,-2161,-4243,3101
-9,-121,-112,-2702,-7337,4570
57,-1,89,-2241,-6956,7183
69,-75,-103,-1787,-4919,7600
104,-35,119,1177,-748,2630
105,-111,17,4879,1758,-1063
45,-13,-105,5974,1913,-1808
79,-64,-116,3601,2043,-94
61,-48,-78,-673,1587,603
2,-96,-91,-2194,-64,476
16,-118,-91,-856,-898,309
56,119,-93,925,-431,334
41,-113,-75,657,-272,-391
45,-124,-62,-157,-84,-618
39,83,-124,-2664,374,-6705
103,36,95,-1130,1125,-7783
47,-35,-109,-244,3405,-6508
104,-90,125,-892,4496,-4699
-107,-51,-82,-2071,5255,-1717
-14,-34,117,-2539,5662,386
29,-36,-103,-1526,3592,2461
33,85,-41,-3211,-287,4744
28,-122,-125,-4571,-5452,-1123
27,94,-20,-774,-7722,-484
-65,104,63,2779,-1534,-2754
29,88,-73,3227,2551,-4239
95,84,-49,1763,4153,-2434
-51,73,-7,556,3892,-252
107,-100,61,-1227,3184,-628
-112,-39,-81,-1836,3225,1148
-38,-23,35,-3904,-464,4175
127,12,122,-3621,-5608,2853
-60,-40,12,-3695,-7262,1138
-14,80,-42,-64,-4200,-2178
-61,-20,-111,3231,-263,-3631
-2,10,-102,3547,2936,-3848
-128,-84,-43,2474,4606,-1998
-71,-19,-69,1497,4297,-957
-18,-16,-45,895,2532,616
62,25,-84,1767,846,844
108,73,102,1054,417,87
-114,-96,-5,-988,570,432
34,-32,-82,-2512,-1474,2560
-60,37,112,-3361,-4138,5588
28,-88,-94,-3373,-6621,6515
-51,59,18,-4288,-7762,6947
45,-71,-70,-3195,-4602,5420
116,105,115,1169,-4615,5925
-52,-36,-68,3703,-1117,2925
-75,90,15,4415,1742,611
-32,120,-26,1216,2871,925
-119,-47,-103,-2745,2241,417
-10,59,-91,-1739,-710,-1799
18,-32,-63,919,-1149,-1730
29,-31,-62,909,-416,-563
19,-2,-80,-416,313,-41
9,-6,-82,-660,104,-127
29,-7,-76,-349,6,-59
46,22,-58,-702,-8,-215
60,17,-48,-342,103,-187
66,8,-54,238,129,-41
78,12,-86,233,105,17
82,15,-99,73,-14,51
86,17,-102,-22,-52,-2
-65,17,55,705,6977,-6013
-16,97,55,316,6071,-4879
-127,-80,97,1849,1081,-5893
-16,-16,-34,1746,3498,-6162
-11,118,-4,757,3944,-6274
32,-86,57,-1204,3901,-5806
-102,67,33,-1650,3932,-230
-29,36,16,-198,4264,3267
-64,67,28,-3220,3122,5376
-108,37,-92,-3755,-1583,4761
-56,110,3,-6274,-6602,-2598
49,68,102,1210,-5450,579
61,4,1,2728,-2230,-3507
54,-118,-58,2178,1674,-8036
122,-13,-32,524,2583,-5723
27,127,9,-683,3578,-3095
103,-65,69,-1741,3725,1578
-121,-74,-37,-2391,3288,3984
106,-124,-13,-3429,1552,4814
104,-122,21,-5258,-3791,112
29,-73,41,-3331,-8742,-352
51,17,-81,-609,-6493,-263
-88,-92,-88,2110,-1792,-431
-8,-58,-128,3704,1438,-2923
63,-11,-94,3555,2890,-1893
-36,-88,-2,3403,3911,-2979
80,-72,114,1464,2215,-3360
41,-93,-83,92,2080,-483
-5,96,-97,258,1248,1700
31,-128,-113,-505,1302,2180
57,-95,85,-2378,1010,1743
38,-9,15,-3901,-251,2789
-98,-54,17,-4381,-3435,3635
88,95,86,-3277,-4417,3310
-109,-50,-53,-3291,-5153,2029
81,-81,-9,-1710,-4409,1940
104,121,-7,-1437,-5382,3341
-40,-71,-37,1055,-6934,5346
122,-121,-127,2913,-4317,3064
36,12,97,908,-1454,937
-42,6,28,-20,2839,-2162
-76,51,-81,650,1841,-2116
-45,-23,-89,-232,1769,-427
-24,-49,-107,-891,1187,495
-13,-52,-106,-430,296,304
10,-40,-99,-175,-289,87
29,-25,-90,-131,-344,185
29,-10,-78,-164,-228,175
22,-10,-53,187,-116,210
34,-18,-41,769,97,481
-88,80,-57,-2987,3597,-2624
-32,109,89,1461,3882,-4230
48,-118,111,926,1082,-3647
95,-112,-88,1865,2535,-6336
103,92,-112,1530,3249,-6894
61,-97,-90,452,3694,-7400
-120,-7,-56,-913,4141,-4787
12,-11,-23,-452,4640,168
-3,-50,109,-1075,4521,3590
-54,-12,-8,-2984,2526,5328
-53,106,-122,-4204,-3398,578
-25,7,-95,-3960,-6838,-1535
14,12,1,786,-5221,-144
-6,-44,-47,2240,-1090,-4139
27,104,-80,2599,3271,-4821
-128,-71,-36,1888,4304,-994
16,51,21,149,4421,-717
125,23,88,-275,3491,1304
95,46,8,-1869,3102,2164
-125,4,-69,-2876,2024,2292
-86,-125,-71,-4844,-2893,1224
-53,-56,-83,-4504,-6209,515
103,-102,-117,1165,-5990,2654
-34,113,-50,2270,-2911,-3193
-43,65,-87,3424,57,-6235
89,42,-37,2725,2738,-4967
45,42,29,988,5019,-2139
-122,-120,117,565,3071,719
118,-31,-92,-416,2129,1217
-51,-122,-109,-1519,1054,300
-39,-34,42,-1777,-47,-158
99,61,-105,-1799,-1242,1025
-53,115,-93,-1579,-2557,2230
92,-69,-52,-2037,-3774,3548
-42,70,75,-2115,-4984,4954
-56,107,125,-2892,-4230,5043
-99,-127,-108,-2201,-4523,5511
81,-124,29,-207,-2698,5256
123,32,-99,895,-1711,3735
-97,-100,53,1944,-691,2272
120,54,-43,2731,219,1339
92,32,-89,1295,334,606
64,18,-102,-982,781,-269
46,-3,-89,-1852,510,-730
48,-9,-86,-1568,254,-668
56,-31,-82,-254,0,-435
46,-37,-86,507,-133,-404
53,-36,-89,174,-57,-454
66,-34,-91,-160,23,-170
63,-32,-91,-24,-89,112
-1,17,12,-2625,5145,-6326
-89,-1,68,-1541,2453,-6763
6,-77,-89,1605,3176,-5864
-42,102,-118,1149,4308,-6713
-115,-39,-96,379,4795,-5804
106,-122,-54,-1392,4074,-3110
-116,-69,-114,-794,4847,923
32,19,22,-1114,4464,3161
-61,-19,-65,-3747,1902,5942
39,47,68,-3828,-2285,2234
26,90,-14,-4899,-8834,-4095
62,-104,49,1920,-4765,-4219
-77,-6,-71,2724,-1330,-3115
-15,111,-108,2780,4299,-4327
102,-105,-56,1723,4760,-650
-74,115,44,-307,4747,-717
-119,11,-112,-1333,4609,-154
-3,71,-88,-2221,2086,3843
80,-111,52,-4828,-1862,3205
-61,104,56,-5856,-4697,2032
35,79,106,-3034,-6608,1826
10,-12,-69,327,-4170,-1108
-38,-90,118,2954,-2337,-4646
-68,-79,123,3998,1258,-5314
59,113,-87,2143,3213,-4129
20,-63,2,1185,4309,-1045
80,-3,122,-694,3032,904
56,52,-20,-258,2355,1200
-52,-90,127,-548,1762,464
-54,-36,65,-914,1087,-534
123,-2,10,-1973,-808,150
14,63,-67,-2433,-2784,3038
-91,-60,-36,-3428,-4663,4427
81,96,111,-4109,-3428,4310
120,-61,24,-2643,-3879,3981
-97,-54,98,-1558,-2128,3886
-53,88,22,-1327,-3960,4820
77,-47,-23,541,-4134,3410
120,-128,-128,1128,-2874,1954
117,75,17,1131,-999,1066
67,70,-32,677,684,219
22,54,-66,-441,1005,-873
-3,-24,-76,-397,441,-1161
20,-37,-54,-176,-92,-365
21,-32,-50,181,-314,414
5,-20,-47,266,-195,177
25,-18,-63,-56,267,-152
57,-11,-84,-699,366,-118
75,-7,-100,-646,143,-104
76,0,-95,-218,-4,-156
115,30,-115,-2898,2655,-4207
-36,15,99,-1218,4273,-6139
-41,-24,-44,-34,2593,-6273
1,-52,-97,1112,3438,-5904
33,-74,-101,698,4542,-6317
-77,-22,-57,-619,5708,-4443
-70,-115,27,-2035,5336,-1233
-112,106,43,-1373,5655,1281
-32,-72,-29,-5416,2865,5785
-116,-45,84,-3335,-4590,1803
-19,62,61,-3740,-8649,768
-84,54,104,1038,-4136,-655
-36,-70,-35,3254,-2128,-2217
63,32,-81,3807,2568,-6150
-119,106,-33,1729,4011,-4853
-90,70,66,-228,4830,-1845
87,92,120,-822,4129,726
20,-9,-81,-3579,3807,2692
-66,110,-84,-4100,594,4235
-8,109,-96,-7273,-3559,1474
13,-95,-9,-1680,-8594,2436
-57,-16,45,-84,-5646,-3740
2,-112,-125,2739,-4109,-2681
-94,-68,122,2897,479,-4336
27,114,-89,2543,2669,-3778
-68,68,-31,1141,3784,-2171
48,3,-68,645,2847,-1908
19,12,-25,-713,2707,-994
122,-10,92,-1238,1761,-423
-74,26,25,-1020,658,261
-125,60,-9,-1117,-349,739
46,68,-64,-1789,-2111,1958
-97,-95,-115,-2632,-4098,4631
8,-42,-32,-1129,-6055,5420
-84,76,68,-2990,-6162,6601
14,108,43,-1783,-2398,5811
68,28,119,2269,-3305,7065
-43,3,-14,3529,-587,3313
-89,-102,91,1826,241,1641
124,70,-5,484,972,1123
33,37,-72,-1807,883,-1012
34,-35,-88,-1916,434,-1571
29,-77,-77,-564,-171,-691
42,-120,-78,1273,-269,346
26,-76,-68,757,-501,704
38,-46,-69,-176,-130,204
66,-45,-52,-305,-125,-239
75,-62,-53,75,-12,-340
40,-65,-58,14,-250,-331
40,-76,-66,8,-92,-162
71,-77,14,-3221,3109,-3552
1,-81,-31,-2297,7203,-6766
-101,86,73,672,2720,-5416
55,110,-71,1831,5533,-5222
-20,90,-95,2007,5714,-5528
-63,30,-53,-478,5352,-3989
-79,-36,-99,-1317,4492,608
103,-45,121,-1431,2266,2004
33,-55,107,-1069,4517,3398
-74,-82,91,-3516,-681,5740
-4,29,63,-5200,-4483,127
-37,-7,57,-3729,-6813,1243
-120,110,44,956,-2814,-136
111,-29,-88,2956,-2811,-3062
-24,-96,-113,3764,585,-4940
99,-95,-63,3480,4108,-4881
87,-115,17,1334,4411,-3326
-69,9,-93,72,3482,202
-79,-98,-35,-1868,3244,2742
-35,-34,-117,-3500,827,3945
-91,-63,21,-5696,-1407,1693
118,99,-99,-5508,-5974,1699
-112,106,79,-2447,-6576,-1589
-72,35,-94,1421,-3000,-5369
105,20,99,4969,-1485,-3157
-55,-64,127,2769,3277,-4283
106,49,-62,1895,4930,-2163
-36,27,-43,999,4198,-976
52,-128,-71,835,1883,-491
-123,-45,86,-612,356,-581
-104,11,-14,-1014,-385,31
93,11,-97,-722,-365,1522
-29,17,-101,-400,-2239,2678
-94,121,127,-1610,-3605,4575
-79,-45,-7,-774,-5558,5977
96,52,92,-1291,-4748,5138
53,73,-80,-1678,-4688,4089
-56,15,-77,-1320,-2752,4944
-122,82,-52,4299,-803,5114
124,-97,-29,4838,2716,3702
-16,-100,116,3031,851,1849
99,123,85,142,621,325
13,3,92,-1867,766,-1340
-17,-118,-110,-474,-249,-1278
-11,105,-72,556,-712,158
-11,-102,-31,249,-742,1057
-13,-43,6,-450,-815,578
18,-69,-19,-32,142,-434
61,-84,-36,-129,732,-866
61,-104,-76,-90,773,-724
-75,-90,-68,-4964,4007,-3430
11,-50,-71,329,1131,-3216
-45,-12,-90,940,2858,-4802
-85,86,-113,2389,2034,-5770
122,-73,127,-301,5021,-7244
1,20,-84,-361,5710,-3899
-10,-26,9,-118,5874,64
-80,115,-40,424,4932,2608
25,-57,-57,-362,4033,3489
-64,85,-40,-6204,-3146,2172
1,61,2,-4397,-8606,1526
59,-119,109,178,-4025,-3433
-6,-64,-28,2858,318,-6093
52,-17,-56,1085,4164,-4874
-61,-6,26,890,4828,-295
-97,21,56,-625,4273,25
48,115,-109,314,3544,2233
-3,-96,49,-1955,2112,4724
84,54,-24,-6711,-2163,3446
-25,-71,2,-3810,-6826,3950
104,-51,23,-868,-5260,-772
-126,72,-49,3246,-4049,-2963
1,35,-92,2024,-940,-5268
37,-103,-69,1866,1578,-4566
-123,113,-32,1255,3637,-3434
-91,-77,-103,198,2720,-1743
28,116,-100,98,1740,-23
-121,-97,5,-607,1168,386
-120,-35,-115,-1740,894,35
72,11,31,-1814,82,1323
-21,37,72,-1796,-2649,3611
-81,-126,-124,-3232,-4079,6173
40,124,-18,-3280,-6490,6556
47,-3,-116,-4141,-6773,7176
46,79,-24,-2121,-5087,5870
108,-85,-11,3497,-1178,2503
82,19,108,6351,858,1838
49,100,-16,2638,1960,3392
-96,22,-49,-5262,1804,481
12,101,117,-3223,255,-2946
42,-71,-70,837,-309,-2604
49,-75,-80,1877,-390,-1215
53,-50,-96,791,-272,-66
34,-33,-99,-166,-300,277
42,-52,-100,22,-141,-477
74,-63,-93,-7,56,-726
83,-66,-84,-314,-164,-651
70,-72,-81,-389,-213,-609
72,-75,-77,-139,38,15
61,-59,-94,-65,240,235
89,41,-121,-5038,2096,-1027
-81,-114,86,-3992,5321,-3494
-87,-87,45,-256,5489,-4673
-57,93,-24,1181,4248,-5023
11,-82,-19,2829,5837,-4223
-81,82,-8,1729,7102,-5025
-9,78,69,696,6382,-2396
98,5,-85,-742,5005,445
104,84,75,-1699,4834,2700
32,-113,-114,-3060,2855,4566
-121,67,30,-4418,-5358,158
-23,-69,-104,-4717,-9169,-4206
-57,-107,127,2604,-6110,-2657
-36,14,-49,3725,-199,-3203
39,-42,-81,3076,4043,-5118
-122,-78,-7,1365,5743,-1527
-92,-34,83,-714,4900,-516
55,-9,-126,-2844,4018,422
48,17,-32,-3415,2691,2256
-105,-118,85,-3972,-1439,2245
46,-127,23,-5547,-5316,-837
-126,-115,22,-1924,-7519,510
13,93,9,838,-4704,-1681
-29,126,-107,3359,-1958,-2829
7,-20,-112,3416,2334,-3646
108,-24,-63,2846,3854,-2401
61,25,41,1324,4513,-1565
-67,5,-43,1028,3638,317
124,34,7,72,1910,749
45,87,-98,-564,622,741
95,-97,34,-1038,172,826
-44,-43,-76,-1964,-1605,1633
91,-7,65,-2751,-3366,4756
64,-127,-72,-3427,-7612,8349
116,-118,5,-4152,-3887,4686
48,110,122,-3666,-5470,3653
50,29,104,309,-4674,3975
-122,-118,-126,3767,-4194,5944
-71,55,70,6074,-726,3280
-120,87,-93,4232,2832,-630
80,53,-116,236,3273,-1667
46,-89,-113,-1449,1255,-1229
11,-122,-76,-823,-1060,-302
4,117,-67,90,-1635,522
8,-117,-56,430,-987,754
19,-76,-67,-37,102,606
27,-33,-75,-680,453,-99
36,-18,-77,-1420,7,-761
42,-35,-62,-846,-370,-839
54,-72,-49,140,-186,-917
-97,-40,-47,716,-1063,-7997
-94,-43,113,855,878,-10046
83,-28,-125,-1048,4259,-8876
50,-65,-90,-2105,5179,-4596
-42,-21,-119,-3263,4244,-893
-127,77,-45,-2129,2845,2249
-99,35,33,-4499,1688,4059
98,-111,30,-4264,-2550,4567
-71,-96,126,-5198,-5240,3585
90,-80,-83,-1158,-8145,5906
9,54,-53,-72,-2502,-5263
-22,-61,127,5434,-1167,-4878
-19,121,-110,3036,1853,-8705
-81,127,-26,420,6151,-5895
28,-6,114,-474,3770,2821
-55,121,-78,-2544,4146,2602
14,123,6,-3171,1227,4210
42,-28,-118,-5382,-1795,2688
-89,-58,11,-5089,-6474,206
-12,13,103,-1385,-7056,-4234
118,-29,-117,3555,-3827,387
120,95,101,2100,7,-6206
-25,70,126,2876,761,-4296
64,109,99,1655,470,-2526
80,-126,37,-201,-129,-1911
-20,-128,102,-1304,88,70
0,-69,77,-1227,534,2564
-43,-56,94,-312,-791,3222
-104,68,-127,-1737,-2617,4921
47,-19,-35,-1956,-3607,6104
65,-2,-26,-1199,-2622,4658
13,-62,52,180,-3045,5584
63,84,-29,1356,-3295,5714
-81,73,57,4955,-1615,5228
-70,91,-61,3345,994,1338
116,107,-113,-1095,2264,-1517
96,-37,116,-1922,1772,-2079
66,-114,-102,-28,-415,-1233
41,110,-75,1173,-1484,-238
13,122,-39,913,-1606,420
5,-108,-34,-53,-527,490
30,-96,-43,-154,546,353
68,-82,-78,-337,703,-11
77,-71,-91,-398,157,-227
79,-84,-87,-94,-306,-460
92,-102,-78,153,23,-411
87,-107,-86,210,221,-177
80,-107,-95,239,52,72
90,-97,-97,328,-127,248
95,-86,-91,273,-112,108
33,74,88,-3463,5922,-5456
-123,-25,76,2487,3688,-4492
4,65,-90,1236,3145,-6580
16,-45,-101,390,3486,-6635
70,114,-84,1391,4272,-6787
-2,48,-57,-1552,4833,-4394
-111,103,-106,-1703,5180,130
-17,0,96,-1852,4849,4432
-108,-31,-83,-4570,2053,7230
34,22,15,-5823,-5226,764
-116,74,-110,-3971,-9221,498
54,29,75,-390,-4907,-2036
115,-51,-89,2860,-1764,-3936
-77,20,-115,2746,3148,-7336
89,36,-65,1639,4165,-5141
-65,-84,-7,-1480,5009,-4515
-57,-80,-67,-2315,3238,114
-102,44,-128,-2291,3401,3119
-62,3,-53,-4434,1863,5539
-53,0,95,-5703,-2807,3024
105,-126,-48,-1990,-9559,-888
114,10,11,440,-5430,-2446
-89,-53,-59,2213,-2763,-2563
2,-102,-110,2523,2043,-5106
98,53,-68,2813,3950,-3145
-97,0,32,1392,4533,-1565
-115,51,74,1210,2501,-662
2,101,126,892,770,327
57,115,45,1026,605,566
-124,124,-15,265,1542,701
79,-92,-22,-1761,531,981
80,-59,-80,-3705,-1551,5083
-92,-79,53,-2301,-2687,8717
60,71,-5,-2809,-5837,7623
-25,68,-38,-4353,-3688,5214
74,-51,103,-418,-4084,5810
-126,-42,22,2080,-2580,4838
-51,-67,-45,1740,329,2711
-50,-111,34,1514,3035,1808
105,56,127,1326,2665,551
17,3,-76,70,-151,-544
-2,-61,-55,-803,-1580,-1021
39,-69,-24,-961,-1260,-605
-3,-49,-30,-814,-399,-185
-21,-63,-40,-350,531,-575
13,-60,-68,-649,763,-704
47,-70,-97,-237,364,-370
59,-66,-96,6,-213,-258
57,-66,-97,118,-198,-161
49,-56,-90,-87,-161,-176
68,-117,-36,-3341,1892,-5261
104,-16,25,-2476,2210,-7135
40,-26,55,1107,1839,-7148
-73,-30,117,-839,2979,-8015
51,123,121,-3058,6423,-6508
115,-119,-32,-2075,6745,-878
-113,17,-19,-3265,4206,1621
31,-53,-118,-1251,4242,4300
114,26,44,-4319,-263,6620
39,-58,72,-5415,-7879,-3514
74,16,4,-1172,-7794,-1785
85,22,-7,1415,-3818,631
-72,-9,-123,3474,-479,-2488
-6,44,120,3762,2224,-5277
85,102,-86,2583,4376,-5347
114,124,-13,-352,4455,-4494
-20,-49,15,-907,4062,151
-86,-105,51,-2125,3119,2718
72,58,22,-2982,1924,4371
-53,88,123,-4399,-1189,2650
22,66,119,-6077,-3443,1959
-111,-13,-26,-3930,-7057,3674
105,29,-35,-775,-3700,-3731
25,-79,118,3463,-1799,-2925
-69,85,-127,4232,-365,-4733
44,5,-74,2728,2364,-4575
-31,78,-22,1523,2985,-2406
86,-43,-21,709,2661,130
73,-30,-18,587,1500,685
119,22,-128,983,981,407
103,71,45,-36,407,314
121,-77,120,-2450,1807,1392
10,53,63,-2625,-1387,3383
-109,-41,-102,-1920,-4483,5321
117,-4,-15,-1647,-4038,4827
-52,80,12,-3744,-5381,5825
-38,40,-124,-2503,-5404,5583
-72,-21,-96,389,-2502,4850
-10,126,97,3184,812,3052
-40,89,34,3362,845,2191
-122,-121,-67,733,976,661
35,115,-99,-1027,213,-658
20,-39,-92,303,89,-1019
23,-76,-98,877,240,-413
24,-50,-92,-677,27,-606
36,-65,-91,-987,-94,-607
38,-74,-94,-613,-11,-421
49,-65,-96,-346,-15,-288
59,-56,-95,-270,-87,-284
67,-48,-94,-359,-104,-264
-80,114,-14,-2863,3138,-4494
5,-35,-118,-32,4959,-6023
21,5,41,244,3248,-7680
-23,37,-88,1336,4396,-4896
24,51,-30,1770,4627,-3794
120,-120,17,825,4535,-3115
-42,-128,79,218,3562,942
-24,-62,67,-102,4521,773
103,99,69,-1946,3981,2822
61,121,-34,-3453,-105,5673
51,94,77,-4976,-4238,424
38,-27,-6,-1344,-8651,-1170
-64,26,-6,1783,-4226,-4211
-122,-53,-111,4117,-539,-5186
49,41,-97,2537,3311,-3620
-118,43,-39,1085,3824,-979
35,-31,5,-500,3722,-33
81,-78,64,-2006,2243,1000
-67,-103,-126,-4240,2278,1195
33,-20,-3,-5605,-3995,1237
-78,71,-7,-2042,-8747,1971
0,49,-127,175,-4957,-2139
13,-33,-116,3377,-1792,-2570
-83,84,111,3779,779,-4888
-1,-65,-116,3253,132,-2192
39,-119,-128,714,2825,-2057
38,-83,-98,-502,3391,-2303
98,-96,33,-887,2863,-720
75,-72,-52,-666,1891,746
26,-36,127,-650,768,1075
-102,54,72,-1685,-371,1821
55,-97,105,-1988,-2087,3327
-79,-55,-37,-1503,-3174,3408
39,66,-5,-1763,-4058,4361
-19,21,11,-605,-5065,6561
-100,122,113,2681,-1590,7144
90,-119,-60,3526,-382,8609
-116,-26,-13,1481,-1416,2705
77,53,10,252,351,-429
-124,-49,-127,-1484,2679,-556
19,-85,106,-866,890,-730
-13,-115,-124,-729,-631,-158
-9,-117,-93,41,-772,769
-31,96,-57,2161,-782,1421
-8,-102,-55,1325,123,741
-1,-63,-78,-714,842,-385
34,-98,-109,-939,752,-583
51,118,-122,-162,88,-403
55,125,-110,198,-325,-30
26,-99,-95,-193,-475,-87
51,-9,15,-3235,694,-4343
-22,-27,-44,-2169,773,-7994
-29,-85,-65,-3103,18,-8404
-65,-100,123,-3433,2280,-9099
123,122,-127,-2559,7202,-6445
124,32,-107,-1879,8131,-414
119,3,-82,-2824,5642,1856
-71,101,12,-2162,4128,2247
-112,112,9,-3699,-845,4539
36,-99,107,-5592,-5800,-938
-1,72,6,-2444,-8573,393
73,-126,58,1648,-1576,-3805
-4,-80,-74,4949,1705,-5494
73,44,-72,3563,4686,-3091
18,119,18,1794,5120,-1034
-83,72,-80,-11,4063,1234
114,-51,-28,-4149,3203,2602
48,-123,52,-5216,-2075,4441
-56,82,29,-7442,-5988,-3299
79,-56,125,-336,-7989,2188
-22,30,-98,2604,-2662,-2578
-114,-83,112,3030,420,-4407
5,-40,-109,3714,2827,-2659
-11,-59,-56,2483,2641,-2532
-87,-91,-8,486,3139,-2706
61,-67,102,-195,1944,-1382
64,-15,74,-123,1079,334
49,6,-12,-299,-85,1387
-4,54,-98,-1408,-645,1904
-114,-46,-72,-3218,-1612,3691
37,-10,-23,-2810,-2763,4291
-109,-124,29,-5438,-4808,5290
-121,34,123,-2778,-4814,5000
-23,114,64,-1815,-4675,5153
102,45,-6,715,-4480,3798
-89,-54,108,3092,-1552,2134
90,-88,-60,1414,567,777
29,69,-58,1172,399,606
33,7,-50,820,138,315
58,-3,-22,-73,-23,-27
47,-36,-51,-424,259,-718
35,-77,-81,-334,418,-934
43,-94,-99,-468,394,-815
47,-89,-97,-349,56,-197
55,-77,-84,-106,-291,249
68,-106,-80,1266,31,571
88,-86,-93,1101,325,607
101,-64,-97,-94,256,138
115,-63,-115,-641,225,36
117,-74,-117,-142,63,73
-112,120,-38,2137,3904,-3485
40,-93,24,2048,2254,-4733
40,116,-98,1785,116,-7890
-56,-7,108,-245,2653,-7921
-77,94,-126,239,3774,-6093
60,4,6,-3203,3066,-4156
-117,81,16,-2173,2453,24
-19,36,-120,-993,3076,3332
99,42,7,-3680,1930,5830
-54,94,-15,-4132,-1606,3972
35,50,123,-5065,-4856,368
89,-69,-13,239,-5272,-2284
18,-122,-56,3851,-2631,-1302
20,-128,-102,3632,674,-5120
107,-58,-51,3072,4005,-2404
-48,91,29,1063,3990,-1391
-108,-50,-14,-749,3900,-985
115,38,-46,-3138,2717,514
44,-94,-116,-5417,-825,3002
104,87,73,-4689,-4128,2659
112,1,-88,-1759,-6153,549
-122,-51,-61,1079,-4183,-1686
105,-124,-120,2387,-1882,-3447
-11,-85,-115,3182,1047,-4323
66,-128,-75,3204,2054,-2605
47,126,-82,2712,1658,-1702
36,90,32,1075,1454,-299
-20,65,-80,343,2766,662
30,72,106,-786,1890,446
41,-127,37,-1914,1387,504
12,-57,-32,-2828,206,295
-75,87,-68,-3795,-1919,2444
76,-119,-4,-2685,-4753,3514
44,-37,4,-4218,-6354,5788
116,-42,82,-574,-5599,6596
-120,-110,-47,-647,-3305,4641
-46,41,-68,-2140,-1573,3388
-100,39,122,3239,-1078,2804
-127,-106,-10,5169,-1012,1804
35,87,-71,2812,-1270,348
34,81,-65,-1542,985,-936
18,1,-87,-2740,1442,-1650
27,-92,-108,-1777,992,-1181
34,-79,-106,-619,247,-119
29,-45,-107,-287,-342,403
39,-20,-108,79,-331,405
61,1,-109,-369,59,-17
66,11,-113,-607,43,-235
79,0,-114,-231,-55,-188
75,0,-108,-39,-177,-79
-96,-70,-117,-2657,3308,-4709
-23,-13,-93,645,5192,-5958
0,-65,14,909,3161,-4796
-53,89,-80,1125,3624,-6672
124,106,-71,1228,4844,-5479
-110,115,-13,1849,4822,-2654
15,47,60,744,5319,151
-66,111,119,-980,5039,2494
-44,-108,-61,-4160,2434,5787
109,-65,-92,-6237,-3967,2832
116,63,-121,-6296,-7581,-1205
-52,21,62,1075,-4646,-3233
105,-50,-100,3990,-2219,-3288
-56,112,-113,2945,485,-6447
96,-85,-55,1014,5130,-4446
127,-42,29,489,4641,19
15,122,-97,-1833,4018,401
-21,62,-23,-5470,3771,804
122,6,98,-5725,-1094,3340
-95,110,98,-5600,-5413,1403
-2,-76,83,-1251,-8080,-1529
60,-5,-85,683,-4671,-4908
-115,97,100,4464,-1376,-2276
-101,-27,122,2123,2528,-6777
96,101,-73,2028,5258,-3508
-68,11,-17,1225,3840,-508
115,-121,33,280,2759,41
-88,-96,-48,-253,1730,-545
12,-32,80,-1534,1991,42
-21,4,-15,-2127,1756,1105
127,50,-20,-2642,-1534,2126
16,41,31,-4582,-4657,4630
-72,-21,-119,-5080,-5986,3750
-79,41,37,-3688,-6991,2258
-128,-113,78,-529,-5049,2405
-77,-101,66,-1677,-3659,3514
18,-16,-42,866,-1088,1886
22,-45,-33,973,-1571,2013
76,65,52,3094,577,2228
84,99,-5,1450,459,1500
83,66,-9,468,-418,830
43,16,-32,-385,-660,-738
32,-30,-35,-360,-142,-960
40,-47,-55,-689,244,-728
40,-48,-59,-657,93,-438
52,-36,-60,-271,156,-335
77,-53,-78,573,465,-595
74,-70,-75,657,107,-692
77,-92,-69,184,-39,-383
98,-59,-76,-818,245,194
76,33,-19,-4331,2363,-3152
-92,11,44,-1718,2712,-5065
-56,27,41,1723,2841,-5733
2,-68,124,-832,5303,-6317
-65,-33,-103,537,6135,-5124
-16,9,-22,36,5491,-5008
51,16,-29,978,4480,-1352
104,-52,-72,1886,4660,2995
-94,35,112,-1332,4647,5308
-109,107,16,-2750,2025,5179
-25,26,-24,-6391,-6193,-2849
111,-64,64,-1631,-7764,-459
101,75,10,1893,-2469,-2395
-88,-31,-91,2635,-961,-3651
69,101,-84,2128,3276,-4895
-106,1,-25,1847,4154,-1218
53,-98,29,2586,3898,256
112,1,83,56,3869,2023
-113,-5,78,-2620,2633,3226
-75,118,-99,-6658,-1823,710
-58,99,-44,-3787,-5876,1140
-15,-71,121,409,-5616,391
-74,118,59,2263,-2928,-1033
-53,36,-82,1696,-937,-4462
35,-85,-74,1621,2339,-3437
-22,34,-25,1707,2322,-2253
28,-6,101,992,2086,-2036
-31,-123,-61,295,2444,-235
37,112,126,-312,2455,976
75,-126,58,-1403,1658,1299
108,-78,-20,-3335,871,1511
116,15,-91,-4840,-947,3188
4,-88,-41,-4962,-4947,4681
34,-128,106,-5386,-4736,2481
53,-15,26,-3766,-6604,2537
-55,-120,78,-1013,-3214,2839
-112,-85,86,-1046,-2560,2845
-56,27,12,981,-1820,930
63,-75,-124,1305,-1222,1898
-100,74,31,2320,-222,3151
-122,115,-17,964,-116,1828
48,62,-42,731,-384,-157
14,-71,-27,2366,-653,-857
21,-101,-16,1519,-158,-668
56,-108,-47,-237,870,-586
81,-112,-80,-1074,937,-454
90,-121,-105,-540,435,-197
95,126,-117,412,-128,64
94,-111,-104,286,-487,78
104,-108,-96,-2,-262,64
73,-27,77,1314,2415,-5325
91,-11,-119,1197,4096,-6235
45,26,-100,1137,5818,-6139
109,-121,-26,512,5920,-3309
80,34,3,-240,5111,1564
109,-21,-122,-1740,3426,2552
-24,40,85,-3974,-91,3593
109,-41,-97,-4489,-5809,-1986
120,73,-93,-2185,-7317,1012
-120,-110,53,1435,-2284,-1674
4,-82,-83,2281,289,-5985
64,-57,-83,3274,3178,-2700
-100,115,-14,1229,4786,-1648
-60,-41,39,-362,4185,141
99,-29,103,-1981,3259,2838
8,72,-89,-4533,1123,2481
96,-14,-98,-5530,-3345,-117
-50,48,-75,-3329,-9541,433
-80,-53,-62,605,-6219,-1304
103,9,103,2910,-3240,-2884
109,-80,90,3073,1072,-5072
-14,-72,-128,2534,4118,-2836
22,-90,-39,899,4572,-2845
60,-83,-107,-267,3930,-1347
-42,-82,-55,-521,2522,-204
-7,-32,93,-808,1732,126
-90,-21,-3,-1090,-72,93
91,13,-52,-2303,-901,1900
-71,108,-75,-2787,-3686,5689
-25,51,105,-2840,-3862,3985
20,57,-51,-4679,-5451,5108
100,-114,60,-541,-3685,2068
-103,119,14,-1180,-4305,3109
5,-61,-32,1501,-3971,4213
108,85,-116,3433,-805,3492
103,95,38,1815,988,2461
54,89,-29,-582,636,713
5,21,-64,-1696,73,-1033
4,-56,-39,-5,-378,-402
16,-93,-37,1401,-66,369
21,-34,-43,-265,8,-129
22,-35,-52,-993,60,-453
30,-63,-56,-329,80,-390
59,-77,-63,196,85,-173
63,-65,-65,72,-32,30
57,-52,-63,-11,-143,-113
81,-67,-63,282,190,-113
81,-67,-72,183,100,-143
89,-71,-77,35,34,-45
97,-64,-78,-161,15,2
-72,-24,51,-1440,3574,3033
97,-88,77,-3522,652,3255
1,-68,-52,-4492,-4496,388
54,-15,-17,-2789,-6426,876
-58,21,58,-334,-4652,-842
-90,23,-102,2051,-3294,-2201
-88,14,114,3669,-788,-2468
9,0,-121,3066,1568,-4118
92,-58,40,-7685,-7547,4598
-113,88,59,52,-7050,724
122,125,-76,2461,-3569,-954
71,33,-112,2880,-1561,-5289
-14,11,-91,2250,953,-4954
-63,80,-52,1854,3019,-3541
-97,-120,-55,528,2860,-2423
28,121,-26,113,2774,-808
119,125,109,-545,2508,1048
111,-126,49,-1304,1704,1715
82,-97,-8,-2284,832,2228
4,-14,-28,-3881,-1754,3774
0,117,-34,-4754,-3475,6102
-96,-39,2,-4338,-6393,6965
-103,103,106,-4984,-6045,6615
-62,101,8,-1691,-4806,4063
-74,12,-27,1207,-2887,1668
67,45,98,4110,-720,128
79,-15,27,3184,787,-752
-124,48,16,-1231,2014,-730
58,62,-67,-4511,1687,-972
-14,-59,-94,-1136,231,-1087
19,-99,-92,1347,261,-245
70,-63,-113,1129,455,537
58,-30,-127,-26,145,730
51,-8,-126,-634,-244,568
81,-1,-106,-326,-189,541
104,8,-89,65,-197,344
60,65,-45,-1230,-298,-680
60,38,-8,-1198,362,-1089
90,-10,-50,71,512,-727
116,-34,-118,864,234,-213
123,-41,120,1119,-70,129
112,-31,118,260,-359,176
113,-4,-124,-859,-292,11
117,11,-91,-1282,-186,-212
108,30,-46,-1067,-54,-294
111,-10,-19,870,115,21
124,-19,-85,1455,206,212
-98,-28,121,926,165,231
-85,-30,104,83,108,257
123,-6,118,-446,-581,263
121,90,-45,-997,3231,-4713
93,-2,83,1026,2648,-5146
30,-31,-104,2265,3870,-5517
-24,38,-106,1791,3906,-5847
-101,-37,-92,2424,2827,-3305
94,-77,-97,1625,3700,-1848
85,70,112,300,4612,948
97,-117,3,-984,4823,4395
-29,15,19,-3189,2733,5263
-74,-77,-17,-7860,-7070,-3335
122,27,120,-589,-7855,-2573
-104,-28,-9,3732,-2443,-3023
-84,14,118,1575,1535,-6824
26,-38,-111,1068,5202,-2469
47,85,-15,725,4671,1358
64,-17,124,-459,3704,1326
-28,54,5,705,4748,1954
127,32,-123,-5955,1028,4492
126,116,-58,-6880,-4481,4436
27,59,19,-3629,-9314,2147
-45,102,-58,2056,-2554,-3758
-127,43,-116,2719,-2290,-4295
-94,91,-95,1673,1190,-5734
118,77,-57,1546,3904,-3125
-44,-114,-40,1146,2856,-789
11,-116,-35,-131,1016,4
104,-111,104,-773,933,241
-83,-109,11,-719,1797,469
98,-68,-46,-1605,631,636
18,13,-75,-3748,-1461,3205
-28,-83,-92,-3783,-3949,6972
-117,-128,-26,-1120,-6085,8069
105,20,19,-3904,-6056,7325
-39,68,116,-2751,-3198,4190
3,-39,105,1615,-383,2410
-34,-49,-21,7421,754,1051
-34,-44,-83,4516,1473,406
-83,71,-68,-3072,2154,-93
56,-3,-115,-3526,254,-1204
42,-126,-89,-503,-914,-1431
70,109,-83,1842,-490,-255
56,-106,-81,954,-255,20
34,-93,-71,-41,-237,-29
39,-101,-72,25,29,306
66,-74,-74,-464,299,237
105,-41,-101,-1113,496,-51
116,-41,127,-916,402,-316
115,-47,115,-303,93,-407
121,-52,122,-7,-161,-375
123,-55,127,172,-142,-149
-93,-5,95,335,2292,-5530
-41,-38,-13,325,537,-6638
-85,62,-102,1969,1014,-5390
49,-48,111,3464,1526,-4070
-21,-12,115,1366,3290,-4811
-14,57,-88,533,5361,-1796
-98,31,-33,1145,5952,1994
-98,55,-48,-689,4287,4224
24,103,-63,-5054,792,3832
52,67,96,-7296,-6425,2089
13,-74,53,-1721,-6083,-2330
46,-17,-89,2272,-2266,-2531
125,-112,118,1947,-1198,-5995
-14,-30,-118,1748,3468,-5243
-47,-122,-57,1824,4864,-1631
89,27,-62,371,4089,-265
117,-17,-88,450,2938,2135
-36,25,125,-728,3012,2205
107,-8,-102,-4472,1945,2343
45,-36,-22,-6465,-924,4276
-15,-45,-18,-6249,-5845,3049
76,-109,-91,-956,-4664,-2856
66,65,-97,3237,-3192,-2138
-85,-10,-104,2070,-1475,-6450
107,-38,-71,2007,2618,-6056
-56,-120,-24,1651,3546,-2942
-32,29,101,679,2779,-981
-107,30,-100,256,2727,-46
-71,98,-120,-1079,2436,104
-74,-119,80,-1838,1157,11
-120,-41,-85,-3093,-491,866
108,-114,127,-3804,-2010,4217
10,-115,-26,-3466,-3896,4507
89,68,111,-3127,-3981,3123
100,34,-119,-2389,-6586,3678
-99,-72,-115,-3049,-6255,4860
-26,-15,-40,-1470,-4840,3537
89,49,-67,2422,-771,2554
-84,-49,-10,4402,2973,1091
-35,-15,-86,2965,3144,797
-82,32,-109,-144,1558,637
63,-71,-113,-733,-1002,-554
61,-99,-90,-580,-1598,-486
67,-68,-82,-839,-887,447
82,-46,-83,-303,139,915
87,-38,-101,386,593,358
97,-29,-112,470,313,9
108,-27,-110,15,-204,-398
109,-60,-101,409,-250,-496
108,-92,-101,794,-71,-486
89,-29,-26,-2152,2780,-3185
127,-114,103,-1762,3483,-4146
38,57,40,1587,2202,-5141
118,51,126,5043,850,-5395
123,-3,103,2863,2474,-7810
47,-122,-120,2196,5092,-6267
101,-74,-49,646,5314,-2306
59,-96,36,218,5721,1340
-49,98,17,-2850,5574,4078
-6,-121,-4,-4907,-263,3251
12,90,-70,-4229,-9622,483
-127,-30,1,1258,-5800,-2818
-53,-86,91,3065,-1867,-2486
-23,11,-61,1211,359,-6790
100,-94,-65,498,4463,-3266
-71,45,6,811,4682,-23
-69,-95,23,-2019,3503,41
-6,-84,-17,-3802,2791,2035
19,-127,-13,-5294,-964,4125
71,27,-18,-4436,-7714,4550
69,-92,30,-407,-6999,-1652
51,100,-121,2696,-3445,-1477
70,15,-84,2121,-930,-4939
-10,102,-92,1940,2418,-3424
-78,-85,-33,2497,3373,-2977
-24,-94,43,1431,1710,-3988
114,-35,68,-802,1817,-2514
-64,-34,-45,-773,2153,890
110,-33,-107,-1556,341,1593
54,73,79,-3976,-862,2317
-117,-115,53,-4968,-3365,4197
9,-52,95,-3319,-5422,5156
59,-55,66,-2736,-7918,6197
-24,-24,-67,-2975,-5515,5843
-123,41,27,414,-2347,3450
-78,-60,-29,2348,-356,3220
-65,-92,103,2522,92,3237
100,-88,-24,1442,-177,2123
53,-128,-60,-365,18,-757
46,-12,-72,-161,227,-1726
45,-78,-76,930,307,-597
20,-88,-86,1105,23,297
13,-75,-91,431,-161,655
53,-62,-91,-129,178,341
83,-42,-106,-565,314,22
81,-55,-107,-67,23,-228
88,-63,-103,197,-74,-338
101,-98,-99,940,74,-224
99,-107,-91,920,-119,-146
117,-127,-94,738,85,-147
47,3,-109,-4865,2736,-2302
118,73,-28,-3082,4822,-3702
75,-81,-31,592,3864,-3653
-32,26,-104,1938,2832,-4399
88,80,-109,2779,2942,-4686
-37,-43,-104,2744,4107,-4645
-52,-4,-73,2034,3377,-6708
21,27,-32,95,4131,-6303
57,84,-75,-1562,3469,-1005
120,18,-116,-2561,3829,5526
11,-13,117,-3074,3025,7146
-94,-6,-125,-4911,-4045,987
-85,68,-41,-5358,-5974,-671
124,79,-49,885,-4831,2400
106,-16,-44,469,-1584,-2782
18,-70,-92,4038,715,-4823
98,8,-53,3143,2828,-4247
-12,-36,15,2025,4497,-2033
98,89,39,30,3942,163
13,24,31,-2147,4002,2790
118,116,-49,-4286,436,4025
-110,-16,42,-6307,-2779,-58
97,-98,-99,-2016,-6666,1133
53,-80,-75,1168,-4779,-2984
-98,111,-114,3063,-2096,-3213
-34,5,-97,3376,1455,-4666
92,-45,-52,1916,2767,-2612
-31,54,100,1559,-78,-2157
0,-52,123,-442,-528,-1245
19,-26,8,-230,-905,-25
37,-23,45,-224,1668,644
-69,-62,9,184,846,1394
-124,-62,11,-724,-891,3219
-80,-97,26,-1155,-2259,6618
68,92,-78,-2187,-4393,9516
-119,-53,-66,-1991,-2625,4545
90,-118,-14,-2674,-1522,4992
-123,90,-14,2085,-1996,4377
-60,6,96,2283,-323,3759
101,-86,-13,980,48,2250
36,-101,-62,-1307,602,236
6,51,-83,-964,877,-777
13,-67,-96,628,588,-1005
32,-90,-81,1325,-80,-361
33,-85,-74,882,-466,298
9,-101,-51,907,-627,171
32,-112,-37,709,-163,-232
54,-117,-39,106,227,-422
54,-124,-54,-405,92,-496
44,126,-61,-384,-113,-283
-104,-11,-88,-3658,4088,-2221
75,122,20,-1559,1091,-2436
-30,28,74,853,1925,-3150
-89,48,-87,1204,2301,-3999
-36,-73,-115,2700,3940,-5735
45,-44,-112,3053,4574,-5217
-97,10,-76,2132,4580,-4389
-43,59,-10,-561,5315,-1876
-14,41,0,-302,5204,1700
-29,-34,-80,-3978,2688,4762
-65,28,-27,-6042,-4513,1583
-10,111,34,-3294,-7804,2230
-1,-127,95,442,-4144,-2273
-5,-16,-101,3624,-1743,-3768
-9,-128,-118,2406,433,-6462
-62,102,-89,1968,2874,-4979
-2,54,-47,-355,4201,-2678
53,111,63,-914,3810,513
81,26,-122,-3480,4309,3283
15,-54,27,-5020,1029,5217
-119,-115,118,-6676,-6600,-317
24,-93,38,855,-8730,3880
10,-57,-59,-67,-2279,-331
18,105,-124,3440,-1559,-1579
-46,-72,-92,3815,-749,-4869
117,25,-68,4907,-2947,-5358
90,42,119,-1372,642,-7150
-113,81,-28,-1443,3101,-2315
112,-124,-121,1409,2651,771
-67,-92,44,770,2389,1174
-60,120,-14,-282,1298,1889
-55,93,-15,-914,289,2677
5,-26,-45,-2933,507,4457
-29,66,-64,-3127,-331,5252
-91,-19,-84,-3464,-1920,6040
57,75,-2,-2885,-4328,4344
89,27,-5,-1509,-3854,6255
110,-120,50,2061,-3493,7134
-91,-7,9,5033,-892,4404
64,40,-79,1623,1029,-1423
99,-29,-80,-1012,3372,-1921
108,108,-95,-43,2912,329
39,85,-71,819,223,157
17,107,-61,-329,-994,-388
35,-124,-64,-1829,-817,-898
47,-121,-77,-1870,-172,-1125
68,106,-93,-540,473,-681
65,107,-89,643,262,106
63,-116,-91,348,-99,423
67,-76,-82,-186,-294,134
