AccX,AccY,AccZ,GyroX,GyroY,GyroZ
44,-60,-91,-716,1029,-6622
-30,-25,-110,-1228,2439,-5552
-72,72,92,-1814,2244,-104
56,8,-32,-1036,3777,2188
-32,-35,66,-891,-4983,786
-58,46,58,315,-2756,7316
123,-57,-79,3525,2029,-5738
18,7,-30,-1247,2753,-2716
-113,-19,119,2700,-1745,-735
6,-97,102,658,-905,-716
-2,47,-19,2288,-1482,642
-40,23,-7,1901,-3207,3779
-125,-61,74,-1678,-2067,3876
-82,23,-89,-948,-1471,3004
44,29,-124,-187,-3342,3710
-89,-33,-5,1136,-2164,2854
-88,13,-41,577,-743,2237
99,-35,-58,118,-1052,4772
-49,-5,87,2909,-2394,4351
99,-98,-94,1825,-836,888
-32,102,71,-553,182,-3263
-78,68,-105,54,1139,-3244
-72,20,102,-61,1081,-1627
19,63,91,-480,-741,562
-31,114,85,-275,-1163,1835
82,-97,93,-536,31,1224
-89,-54,86,-547,791,526
-111,-62,78,279,232,-364
126,-94,85,643,-502,-1216
124,-100,106,-422,-441,-1332
112,-101,103,-848,69,-846
110,-104,91,-790,341,-452
115,-97,84,-396,214,-51
113,-83,75,-66,24,248
119,-60,76,168,-133,437
-122,-48,79,254,-21,455
-120,-41,73,254,2,365
-103,-31,67,-40,122,267
-102,-27,64,-139,33,207
-102,-26,67,17,-3,170
-90,-22,67,4,92,7
-87,-22,66,-59,65,-30
-89,-18,63,-129,20,-95
-87,-14,63,-244,91,-216
-80,-19,67,-111,94,-278
-78,-21,65,-15,43,-313
-74,-25,65,-73,80,-334
-68,-27,67,-185,104,-276
-71,-25,65,-245,91,-242
-66,-18,70,-370,137,-306
19,64,-69,-396,3122,-4878
11,-111,-68,-3050,2930,-1021
103,-89,-69,-1847,2545,1638
-49,-58,-65,-5087,-2132,4758
-20,-86,97,-497,-2422,301
70,-63,27,2801,-471,3280
-127,7,3,4451,1027,-4448
114,18,118,-3613,1354,-2010
22,9,6,2461,-162,15
61,-126,94,535,-2588,-1281
43,-122,-123,1629,-3107,110
92,49,126,2591,-3089,2713
19,119,13,74,-605,4285
57,-4,-80,-357,-2414,3574
-109,47,-44,-1840,-2709,2148
-72,-37,-106,-1993,-3729,3007
39,-128,-56,506,-2630,3184
62,-43,79,4186,-2079,2907
38,121,-39,1244,-543,1843
81,66,-125,1788,356,-485
65,-31,90,-130,967,-2067
87,83,111,-244,677,-1699
52,49,114,-939,-13,-434
36,93,115,-824,-398,910
80,-122,112,-193,-139,537
114,-94,111,200,25,232
106,-77,109,-94,-25,34
106,-76,106,8,237,-103
124,-95,93,3,294,-177
117,-96,83,-288,118,47
106,-92,86,-117,34,97
-125,-76,86,-121,85,6
-115,-76,76,21,38,-30
-118,-76,84,-42,-44,44
-121,-67,93,-24,-29,86
-124,-58,87,153,37,-27
-97,-64,75,151,76,-47
-93,-60,85,-64,-47,77
-101,-44,91,-251,135,-50
-96,-47,87,-229,169,-84
-87,-52,75,-189,110,-37
-85,-50,73,-101,54,-27
-80,-41,73,-80,86,-63
-86,-43,75,-13,10,10
-77,-37,80,-33,61,25
-69,-28,84,-43,40,-29
-70,-27,77,-89,92,-96
-70,-37,80,61,22,-33
-63,-33,84,8,16,8
-59,-28,82,40,60,-14
110,-84,-84,2047,910,-5151
98,0,65,1098,1233,-6043
16,27,5,107,323,-3396
27,-58,-115,-3131,2023,-672
95,-51,33,-763,1368,1854
-58,56,-7,-7489,1787,3283
58,-8,43,-784,-5039,982
104,-8,51,6803,433,1508
-59,122,-102,1376,853,-2868
-11,-74,103,-984,826,-1801
-38,-78,-120,2387,-227,143
22,-125,29,137,-2081,653
-72,0,82,1357,-5000,2290
116,66,-8,495,-3962,3829
-35,44,-46,-2021,-2243,3539
107,33,57,319,-2793,1758
123,65,50,178,-4180,2878
-125,19,53,4409,-2736,4422
62,42,-73,8054,-357,5810
-28,117,51,5833,1794,3805
-58,83,38,-2108,1231,-229
9,-15,39,-3636,-550,-3373
93,13,122,-1501,-312,-3255
106,-7,119,7,340,-1383
60,22,107,60,-31,-320
25,48,102,-90,-365,132
53,74,106,-487,-7,160
96,93,114,-483,110,265
94,101,120,119,-134,480
94,115,115,469,-104,467
98,-121,100,527,37,310
105,-120,90,202,154,114
106,-113,78,-135,99,19
114,-112,73,-213,41,-148
122,-114,72,-262,114,-237
123,-119,75,-166,56,-183
123,-118,75,-90,59,-84
125,-113,79,18,8,78
-122,-101,76,26,95,46
-113,-89,67,13,69,28
-108,-83,60,-136,56,-91
-107,-82,61,-161,48,-91
-104,-80,63,-170,66,-97
-100,-79,64,-85,65,-51
-94,-76,65,-46,47,-7
-95,-69,62,34,33,22
-90,-64,61,109,51,12
-83,-57,58,10,50,1
-79,-52,56,-22,49,-43
-81,-50,55,-108,49,-80
8,5,-65,2898,5071,-3309
112,-114,-76,587,1083,-2590
39,-26,27,435,-1460,-1589
83,7,-99,-1121,-226,-3359
-57,-33,-69,-134,877,-5460
92,-47,-9,-48,2120,-5169
-50,-17,80,-2662,3317,-1378
40,51,-57,-249,4320,1880
-70,41,40,-5373,1964,5227
1,-15,37,-695,-6400,5188
-91,-78,71,-462,-2238,2933
-38,0,-63,2179,3109,-5927
49,51,-121,-553,1807,-3749
-128,-58,40,2153,186,-1083
-113,-23,6,2526,-1374,-1079
-19,-120,-90,2604,-3685,-1157
43,14,117,2807,-1413,1545
66,-120,1,383,-2329,3768
-63,-124,-40,-1203,-2649,4213
-81,-42,-127,851,-2515,2628
-30,65,-91,-1197,-3147,4500
66,-20,55,4361,-3771,7338
4,-91,-35,5538,-984,5761
43,58,25,5100,1752,557
62,26,92,-3208,1949,-120
90,35,-126,-4906,-503,-13
22,98,94,234,-269,-2421
49,13,113,2099,476,-2553
52,60,101,-40,289,-1148
35,96,100,-1217,-148,445
35,96,109,-441,-460,865
61,-127,125,-118,-271,758
95,-92,125,161,77,555
101,-90,109,473,223,2
94,-105,93,752,118,-171
94,-115,69,338,163,-132
95,-112,62,-146,90,24
102,-113,68,-24,-70,75
108,-99,76,-259,18,-72
115,-102,83,-10,40,-103
119,-101,82,33,66,-71
124,-96,71,19,86,-30
123,-89,61,-76,20,-22
-126,-86,61,-99,11,-38
-120,-79,67,-110,33,-58
-117,-77,70,0,13,-60
-111,-75,69,-32,65,-62
-109,-75,62,55,78,-29
-107,-71,58,-25,13,3
-100,-68,59,38,39,0
-91,111,37,-2754,4358,-2465
60,74,-113,1072,3442,-2618
-72,77,57,1453,3262,-4325
-76,-63,-6,1456,41,-3637
104,82,126,1762,2883,-5538
41,122,62,-680,2431,-4118
-34,-18,-91,-2146,2072,-1086
68,-104,77,-308,2702,632
-111,94,124,-6851,-5195,2723
-2,-109,-18,1278,-3583,2147
84,-66,41,1259,-319,4677
-43,65,-40,4085,4531,-5678
11,-54,51,-253,2583,-1447
-11,12,-59,307,1074,-319
16,86,99,909,-946,-375
39,115,83,1551,-4640,830
97,22,109,1979,-3727,1880
119,77,113,33,-3216,3671
78,71,-101,-1774,-1853,4018
64,80,-108,-335,-1374,2359
-120,33,125,-514,-3039,3193
-83,-68,20,607,-1654,2443
-21,-75,24,188,-1702,2391
126,-68,-40,2922,-2462,1362
-93,-38,-120,1618,-595,926
-126,-27,-127,1353,38,650
74,-53,105,1209,227,233
40,-96,82,1112,221,-67
49,-125,85,441,393,167
58,-124,66,-531,566,68
70,-122,65,-829,381,15
81,118,84,-634,53,-196
77,120,90,-540,31,-282
67,126,98,-837,126,-275
90,119,96,-321,313,-47
112,-121,90,161,250,-30
117,-93,74,-39,73,-32
115,-76,69,-70,-70,76
122,-65,69,-121,108,-60
-124,-57,64,-358,157,-167
-122,-65,64,-363,84,-173
-121,-72,73,-177,72,-68
-117,-74,76,53,37,40
-112,-59,77,130,68,61
-105,-49,70,180,43,27
-98,-43,60,71,-3,-20
-94,-39,60,-130,31,-20
-98,-39,62,-133,41,-43
-93,-40,68,-100,47,-38
-83,-39,65,-77,74,-59
-38,29,95,-5084,-135,4680
96,-17,66,-140,-2520,1264
-112,-13,48,478,-120,363
-102,-95,-66,4310,3311,-4600
4,-105,-76,-485,1841,-2464
37,122,10,5091,468,205
18,-100,105,827,-1281,265
-115,-128,22,880,-3155,1165
-114,-13,105,-151,-3867,3240
-76,33,-27,-1094,-4559,5022
-102,-44,-118,-1548,-6632,5625
-41,48,113,-251,-3823,3305
-116,-56,126,1252,-2298,3776
-47,121,-47,2209,778,2050
-95,43,89,2354,1612,272
-92,-34,59,492,1005,184
-101,125,-58,459,-2022,928
-56,-103,-58,1190,-1142,2353
-107,-28,81,843,1245,-704
88,-109,95,1102,1417,-2644
98,75,-123,635,94,-936
82,59,-122,-245,-552,-324
58,75,117,-1088,-213,203
72,78,122,18,137,739
112,106,110,220,198,711
125,-113,101,-57,-163,572
115,-114,101,180,-225,182
107,-127,95,414,-23,-112
113,127,85,82,177,-41
114,-123,74,-306,61,17
121,-120,72,-334,42,-92
-119,-118,78,-257,80,-135
-119,-124,85,93,27,-79
-121,126,82,399,129,52
-113,-123,72,213,51,175
-118,-109,66,69,-48,183
-104,-96,68,-36,77,62
-94,-91,69,-122,89,-63
-97,-94,71,44,5,-125
-90,-93,74,-78,88,-105
-91,-89,71,-147,106,-89
-89,-86,64,-103,109,-52
-87,-76,60,-155,80,-59
-77,-72,63,-135,71,-34
-74,-64,62,-96,67,-81
-76,-59,62,-85,35,-97
-70,-57,64,-170,87,-100
-70,-53,66,-191,63,-93
-64,-50,65,-188,103,-97
-63,-50,64,-52,53,-42
-67,75,-1,-9202,460,5210
-36,-63,38,1298,-5817,1566
7,15,119,735,361,4319
-86,93,-112,5020,1421,-3792
118,75,-42,222,728,-2037
-114,-70,-1,149,2419,-689
-77,-123,-86,3266,-1770,600
5,-81,21,674,-2338,278
-68,40,68,1019,-3894,2342
18,48,-104,691,-3939,3807
38,-94,-107,-1350,-4179,4926
-115,-37,-66,-665,-2580,3198
-92,97,-125,836,-1589,2885
86,89,21,1288,-1475,3551
5,-32,-86,2477,-890,2076
-4,-113,-70,3642,-958,2415
-52,-21,-69,2350,167,2397
62,15,90,765,498,-727
10,-98,126,340,-317,-1683
57,52,-119,-511,345,-1256
49,38,113,-1031,499,-640
25,51,100,-1126,49,-10
39,89,94,-1029,-106,115
70,116,101,-970,48,-298
93,121,102,-717,232,-639
78,114,107,-227,102,-406
67,111,106,267,-14,75
80,126,98,344,16,450
100,-105,80,383,-23,483
109,-91,74,126,-15,203
122,-84,78,-101,38,-85
117,-87,86,-128,74,-218
114,-97,86,-80,190,-199
121,-105,75,11,164,-33
127,-101,68,60,47,93
126,-92,68,140,9,88
-118,-87,75,223,46,90
-112,-84,75,179,47,76
-108,-80,73,99,76,30
-104,-80,68,40,111,-14
-101,-79,63,-44,77,-17
-97,-78,63,-70,62,-20
-96,-76,67,-49,70,-3
-90,-72,67,-46,74,11
-84,-67,63,-86,66,-27
-84,-63,63,-97,95,-75
-79,-64,64,-91,67,-36
-74,-62,64,-30,69,-26
-74,-58,64,-66,58,-22
-71,-56,65,-8,91,-4
8,124,19,938,4066,-3665
-25,87,-18,3001,1548,-3268
49,103,-28,353,1189,-6151
44,-74,-68,1699,2642,-6025
117,-111,102,624,2093,-5177
5,-65,-119,-3438,2691,-1120
79,-47,101,-1262,23,2922
-74,-113,-89,-8186,-3742,8195
9,-81,38,4127,104,983
-67,61,76,-3307,-2140,1072
-77,-107,-87,4228,3273,-4262
-46,-35,-114,582,-26,-1826
5,-99,29,3106,-1426,-252
-55,-30,3,390,-478,6
88,45,39,1718,-2877,1752
-60,14,-113,726,-4520,3534
-18,-68,115,-974,-2744,5325
-95,-78,-46,-1724,-1447,3618
-97,-100,105,-207,-1614,1203
25,-30,97,-896,-4163,1757
-128,-92,-71,-726,-1246,3073
-64,66,-119,1114,204,2611
-92,-23,-122,3280,-1097,980
-62,-103,115,3951,-912,1617
-123,-22,-128,1340,-661,859
73,-52,108,633,238,-467
63,-125,85,486,850,-1077
65,69,58,24,1016,-815
68,75,63,-524,435,-118
68,82,76,-658,-203,101
89,93,84,-356,-158,62
100,98,93,142,50,60
99,105,101,370,2,222
99,121,90,509,75,310
114,127,74,201,183,78
122,-125,64,-42,195,34
120,-127,61,-33,1,-42
126,-125,67,-117,55,-154
126,-127,71,-76,94,-106
-126,127,66,4,95,-32
-123,-124,59,22,50,-14
-114,-119,60,28,20,22
-114,-106,61,-38,27,0
-107,-107,62,45,67,-31
-102,-104,60,33,68,-2
-98,-98,56,16,70,-15
-99,-94,51,-25,86,-50
-93,-95,52,-43,77,-5
-90,-90,50,-25,78,-8
-89,-87,49,16,61,-16
18,-75,14,-1315,6169,-1629
60,21,-88,-218,4319,-4538
107,59,-113,2019,2366,-3864
-52,117,-107,1034,588,-1715
-99,16,-58,1321,711,-2702
12,-40,29,1188,-704,-3635
100,-112,-65,1501,1220,-6061
-87,55,82,-696,1911,-3909
17,-110,-26,-2581,3154,-238
-115,90,-21,-4864,-102,5224
97,-122,-102,-1140,-1485,3565
-98,49,119,-5872,-1030,-542
110,-97,31,3351,381,247
9,115,-125,3939,1564,-3594
-87,-119,-103,-100,1023,-3147
20,76,-78,4057,-1477,-474
31,-77,-22,1139,-1544,-852
8,95,6,1647,-3607,791
3,-57,79,2099,-4666,2949
96,92,39,-1282,-3130,5364
61,41,-32,-1766,-2544,4344
122,64,126,-1629,-2895,4346
22,-5,70,-268,-2548,4675
103,103,-61,2414,-1159,2297
27,69,15,1904,-1997,1067
-27,-30,-57,3400,-39,1409
-123,39,103,967,747,2
48,-91,114,1531,-282,-1160
37,108,112,866,-224,-1046
50,90,93,-145,338,-285
50,104,93,-601,138,412
60,111,91,-351,-29,244
85,-122,97,-215,83,60
83,-121,95,103,46,-180
82,127,92,219,77,-142
92,127,79,85,92,68
88,-114,73,-84,23,69
104,-108,76,-100,189,63
121,-93,82,-430,519,312
117,-109,83,73,176,60
115,-100,72,199,-163,-129
-128,-98,65,148,-161,-178
-119,-91,68,-124,-19,-97
-126,-85,77,-147,81,15
-123,-85,75,67,96,-2
-109,-80,65,-59,102,-17
-110,-77,58,-11,23,-58
-105,-75,62,-80,79,-65
-102,-76,62,-9,98,-45
-99,-69,60,-77,55,-12
-28,59,122,-3841,5096,-3244
-23,47,78,989,3939,-5419
55,-113,-57,2005,637,-4538
25,81,79,-468,-273,-4175
87,47,31,1003,-1918,-3289
101,-24,-62,-678,-736,-4850
-73,-105,122,-770,-228,-4510
-5,33,-114,-1582,1042,-4091
-38,59,97,-1676,2887,-2703
-115,-113,-64,-2421,358,1120
-11,58,-27,-4545,872,3000
-92,-69,69,-708,-7156,4384
119,-57,78,-4855,-220,6174
98,46,-50,6170,4531,-7024
-39,67,126,2676,411,-1749
-88,-93,94,-453,1613,-959
57,42,30,5422,-4001,636
-43,-78,-59,3449,-3801,2281
-43,106,12,2066,-6040,5763
-121,100,-120,-957,-2832,7610
-25,-114,72,-2497,-870,6059
21,-33,60,2509,-631,3797
-8,57,-102,3218,202,1277
82,-12,-128,3045,642,2160
95,102,-113,533,589,3285
-119,10,104,2118,-791,596
40,-93,84,3594,-973,-669
37,69,-128,2711,-804,-655
48,21,-88,1509,-264,-16
3,28,-83,326,166,805
-12,56,-105,-635,546,992
23,89,-125,-1041,564,609
39,108,115,-822,357,-14
40,65,111,695,18,-638
16,48,114,962,-381,-626
32,39,113,519,-98,-232
49,49,108,-333,145,23
54,65,108,-748,84,92
76,83,110,-796,47,-81
84,111,110,-1012,112,-491
81,112,111,-989,173,-702
82,117,99,-922,310,-555
82,122,87,-311,227,-156
88,-124,78,227,62,62
102,-114,76,418,-18,192
111,-99,74,521,-67,326
106,-91,76,506,-69,191
-126,124,70,1243,280,243
-118,-114,51,186,-3,79
-110,-105,50,-538,-84,-23
-28,85,-124,1466,1902,-5330
12,127,-22,643,1821,-4740
-66,-14,22,-2794,2349,401
87,-99,85,-2667,2657,3349
-46,-60,-46,-5414,-454,5585
-38,-108,99,1152,-3731,1038
97,-120,-14,712,-265,759
-27,-16,4,5856,1024,-4194
4,-96,-119,-1980,1749,-2602
-117,-9,50,3223,-2244,-350
22,107,42,1318,73,-931
122,-125,-14,1200,-2149,585
43,61,-2,1653,-4804,2044
-127,19,-12,-640,-4280,5031
115,29,110,-2762,-3370,3550
-113,71,-51,-1197,-3384,3223
-42,-59,-95,961,-1955,2977
-33,95,18,2112,-677,2335
-28,57,-85,2206,-166,2683
-26,-75,111,3008,-91,2564
-50,-76,106,2987,-448,2095
111,-82,64,1748,-500,471
54,-83,62,-867,-198,-1313
53,104,83,-944,359,-1180
37,53,102,216,184,-193
17,75,109,598,-258,458
35,120,102,-489,171,78
76,122,89,-751,494,-123
93,-128,76,-881,341,-408
107,127,74,-645,194,-516
87,125,71,-230,81,-404
83,-128,69,19,66,-107
93,-117,68,68,57,182
106,-101,61,190,-33,229
111,-88,61,150,-49,166
124,-83,64,110,15,91
122,-75,62,38,52,-50
-128,-76,57,-133,102,-187
-125,-82,57,-138,92,-137
-122,-83,52,-116,78,-104
-118,-80,54,-72,62,-44
-111,-77,55,-20,68,2
-115,-65,57,5,47,29
-106,-61,52,-3,129,-26
-101,-57,46,-48,65,-24
-103,-52,46,-171,58,-54
-95,-57,53,-6,114,-43
-89,-54,53,5,63,17
-88,-48,48,-30,86,-33
-82,-46,45,-47,87,-32
-106,-4,120,-1235,5157,-2186
120,-91,1,807,4341,-2232
-61,-96,6,3091,557,-1100
-88,14,53,1037,-1089,-4382
-23,-62,-89,1362,-653,-6610
21,106,-86,-248,2247,-6167
103,-54,127,-2379,3952,-1932
3,-98,-81,-973,2091,3067
125,1,-40,-2962,3324,6166
33,-62,-48,-2939,-3799,2300
30,11,30,11,-5824,5290
40,-117,-80,2726,7095,-7592
-127,-128,54,1803,-111,-2335
104,114,-99,1727,-62,-430
58,-17,98,2648,-822,-39
124,-27,-3,2152,-121,-330
61,62,55,1160,-1827,2332
6,75,-53,-1139,-3301,4619
37,23,70,-2191,-1079,3666
43,-93,-125,-3639,-2983,4041
6,124,-31,-2304,-4257,4267
-56,-5,-37,817,-4037,4328
-31,11,-19,2150,-1345,3612
-121,-59,-7,2416,-1805,1349
58,22,-114,1263,808,1060
77,46,20,354,454,-848
31,-65,83,844,-495,-1693
79,110,80,1039,483,-1010
93,113,50,-345,1034,-231
68,121,48,-788,265,3
58,118,75,-209,-489,214
85,-113,87,-345,-213,104
96,-107,103,-100,90,-11
105,-111,112,246,309,-98
107,-104,97,125,301,-92
113,-103,71,12,109,14
125,-93,50,-299,-8,53
126,-79,51,-353,-37,25
-122,-68,56,-324,75,-134
-121,-69,67,-177,94,-144
-124,-71,76,-143,46,-65
-118,-69,76,41,88,-15
-109,-65,64,115,78,34
-99,-58,51,85,52,16
-101,-50,45,-34,-19,-21
-97,-49,52,-108,40,-37
-95,-47,60,-115,53,-25
-92,-47,62,-13,57,-34
-90,-43,56,-24,65,-44
-83,-45,52,-12,51,-34
2,93,104,1372,3155,-6894
-19,63,87,1370,2751,-6190
-40,89,81,-3955,2851,-1003
54,-32,13,59,2175,596
-84,39,13,-6701,1977,6571
73,-100,-30,159,-1620,5930
-22,20,-84,-7322,-4782,5902
-5,37,-13,5171,5844,-7332
17,118,-26,3149,-661,-3235
25,-105,-30,192,1499,-1784
94,-19,123,2932,-2057,-727
127,-73,-30,960,-2984,257
40,-2,-61,2086,-4463,2208
-50,82,89,472,-5578,6964
-75,82,-116,-1691,-2974,5632
0,124,80,-4182,-4435,2643
-97,57,19,-734,-3945,2330
-121,86,-36,2046,1238,1556
-53,-4,-64,3926,173,3522
55,89,95,1811,2182,1856
-37,67,-7,1103,1670,396
83,-82,84,1292,-1528,-1146
82,123,48,824,-797,-684
69,-85,46,-656,160,449
53,-117,89,510,-429,412
61,-122,123,724,-439,-54
104,-116,113,56,491,-135
106,-128,83,134,417,-118
95,119,49,60,160,-150
97,124,44,-86,14,81
102,-119,55,-149,-141,59
117,-101,75,-294,44,-106
120,-105,77,-124,186,-139
124,-107,64,-131,155,-107
127,-103,50,-110,57,-53
-126,-97,52,-117,2,-34
-121,-87,62,-123,58,-31
-117,-82,62,-12,115,-60
-111,-84,55,76,95,4
-105,-75,46,-72,57,-47
-107,-75,51,46,27,-3
-103,-68,51,-16,69,-3
-94,-66,50,-11,76,-23
-93,-63,46,-56,49,-22
-94,-64,44,21,57,-18
-85,-56,44,-94,50,-25
-82,-55,45,-102,73,-52
-83,-54,43,-101,65,-49
-78,-55,43,-59,61,-8
-76,-52,44,-41,46,3
99,-44,-123,-1128,5276,-4187
125,-27,22,175,2908,-3012
-20,1,118,2330,-231,-2798
-37,117,-69,1681,314,-3820
-27,35,7,1443,-230,-4834
124,0,-124,1576,651,-6087
38,-47,42,-2713,4055,-3777
1,91,71,-2372,2145,220
-118,20,-81,-4711,6611,3509
-17,96,38,-1719,-6186,4655
91,-86,-31,-7493,-3475,2313
-76,-84,-79,6108,4247,-4732
-63,-110,-81,2115,376,-1611
8,-18,127,-642,596,-1478
-96,-15,-47,4141,-2691,1345
-23,-91,-11,822,-2336,1549
67,67,96,1837,-5484,2706
70,-68,-38,-1477,-2073,3914
-75,-39,-5,-809,-2745,1962
-105,-99,112,-1426,-2303,1624
119,-22,42,596,-1995,2323
-78,-16,65,-353,-3017,5081
-23,74,43,820,-2533,3800
20,114,19,1063,-447,2737
-63,38,-32,5202,455,261
100,-26,67,3104,1170,-1933
88,114,75,744,1006,-867
56,64,64,-644,252,62
50,37,58,-747,-481,661
78,75,77,-675,-454,814
94,120,83,-1113,-255,346
92,-122,124,-346,-478,79
80,127,-113,577,-289,-42
94,-112,105,95,674,-208
99,-126,53,-84,599,-211
106,126,43,-277,82,-129
110,127,51,-150,-210,6
114,-117,71,-116,-119,-7
116,-106,84,-26,75,41
125,-98,74,-4,236,-44
-127,-96,53,-68,142,-57
-122,-95,47,-43,-13,16
-118,-82,53,-140,26,-31
-117,-79,61,-72,58,-87
-113,-80,59,-53,81,-45
-102,-78,52,-97,74,5
-109,-68,53,-50,19,1
-98,-63,56,-27,106,-57
-96,-65,53,-1,94,-26
-93,-61,46,-49,72,-55
-66,56,123,-496,3925,-3820
-54,-121,21,1489,1783,-4484
41,-92,-120,414,411,-4690
75,-75,-44,1129,2130,-6089
122,67,71,974,2678,-6290
-3,-69,-11,-2454,4024,-2127
73,-96,-68,-2099,2221,2066
-66,-72,20,-5312,-3445,8066
96,-122,-90,1081,-3220,3513
5,26,68,-2386,-1176,3589
-5,0,46,4676,2242,-5881
22,-43,-85,-677,1738,-3294
75,52,66,2795,1169,-1439
94,22,-127,1527,-1937,-779
98,42,5,1082,-2955,-976
-64,74,14,2920,-4682,1915
-108,9,-120,1557,-3096,5006
-20,-123,-110,-938,-1621,4688
-63,111,-111,-1643,252,2695
-81,119,-112,-2241,-2894,4211
11,12,75,109,-1953,2027
57,-49,-45,576,-428,963
-73,87,-67,1637,-1415,1145
-104,98,102,-1260,-313,494
80,-8,121,918,-849,1078
75,-35,-109,1784,-1344,1016
100,-13,-75,505,-457,232
112,-79,116,1309,1252,-36
84,-83,48,321,1225,-481
60,-111,24,-374,635,-273
75,-127,38,279,-86,526
97,-114,50,254,-360,453
116,-107,80,154,-290,190
111,-103,103,253,-104,184
113,-104,93,296,278,80
112,-93,53,-96,370,-101
121,-97,41,-387,115,-219
126,-104,48,-339,-8,-244
-125,-108,66,-225,52,-183
-122,-106,71,-20,121,38
-121,-95,62,12,110,56
-112,-85,49,85,52,62
-107,-74,51,-91,43,-8
-102,-73,56,-81,99,-73
-99,-76,56,-65,121,-80
-96,-76,51,-36,101,1
-97,-71,48,-68,55,-13
-94,-69,53,46,59,13
-87,-67,51,72,52,29
-81,-63,50,77,69,33
-43,46,-51,-325,3362,-4715
-110,-109,72,-3315,4994,1780
82,-42,112,-2029,6206,5064
-96,-76,39,-4435,-4876,7799
78,-41,101,-6860,-4248,3524
93,96,-23,2402,818,487
17,37,66,3460,491,-4699
-23,115,-92,-915,1725,-2697
-94,58,42,2033,589,-1232
-121,73,75,850,-3411,-550
107,-84,72,2051,-3341,526
37,117,116,1899,-4623,2098
-98,-78,94,735,-3163,4478
34,118,-18,-272,-1172,4301
-58,98,-110,-426,-1637,1831
-83,-95,-14,-776,-1917,2260
-110,16,-37,-127,-2479,2974
-19,-64,-82,3063,-1205,3608
19,-22,119,2299,337,1885
-52,1,101,715,497,8
68,-94,77,1147,-31,-1141
51,91,80,1067,85,-1327
57,88,59,86,607,-483
70,103,58,-689,375,357
73,121,69,-899,-142,19
83,126,84,-452,-66,-275
90,115,100,166,61,-232
92,127,84,192,177,104
96,-111,65,-156,115,-8
102,-101,53,-282,109,-128
106,-108,55,37,60,-116
117,-109,60,-15,53,-66
118,-102,65,40,59,48
127,-96,67,52,82,22
127,-81,57,-213,204,-62
122,-81,43,-114,142,-101
-111,-86,39,27,25,-32
-107,-72,39,-102,-87,-82
-116,-63,52,-152,52,-99
-118,-66,59,-59,90,-73
-96,-68,56,-27,171,-6
-101,-59,44,-73,62,-60
-99,-63,38,72,66,-31
-92,-55,42,-22,17,57
-87,-48,48,-30,100,-16
-87,-43,47,-52,118,-100
-82,-47,40,-53,131,-75
-81,-47,35,-71,76,-73
-80,-47,40,-29,36,-46
-78,-43,47,8,99,-8
19,-55,-18,-634,5392,-2535
59,-82,-94,2257,3063,-3431
98,38,-20,-55,838,-4045
63,-124,4,-85,2455,-2799
4,117,-106,1647,-325,-2145
-125,46,-13,95,-545,-4480
-90,-16,-116,810,1678,-5736
-45,-11,40,-2921,4016,-2300
71,-82,43,-2762,2527,3201
-71,-62,-73,-3784,3329,5413
-57,112,-40,2139,-4837,1611
-86,-113,69,980,-1109,5606
-51,-43,-75,3104,1034,-4652
26,-127,-17,-621,2221,-2704
-100,97,-11,-1221,586,-1761
-66,-10,-97,2635,-2626,-225
127,-16,54,948,-1930,-134
-81,-70,63,1058,-3478,1683
85,-14,0,-544,-4251,3779
95,-54,92,-4128,-4633,4131
70,98,106,-2703,-4805,303
108,87,90,-471,-5590,838
-21,-127,-64,2905,-1725,2608
73,-109,39,2661,1150,2470
-49,69,-104,2629,747,877
127,8,52,2211,932,-402
82,120,22,2893,548,-817
62,66,28,2027,149,356
61,-126,22,-565,187,1106
70,-125,43,-833,-252,687
85,-114,96,-341,-676,325
98,-117,114,288,-276,-133
95,-118,95,186,506,-428
95,110,61,81,587,-317
95,113,47,-322,206,-112
106,117,46,-317,33,61
108,-126,53,-176,-47,98
114,-111,63,-55,5,114
126,-97,63,-103,138,-29
-122,-93,57,-178,219,-112
-125,-93,44,-268,178,-12
-124,-82,38,-332,103,-42
-115,-76,46,-185,42,-136
-111,-80,55,-9,7,-138
-109,-79,59,51,52,-8
-102,-71,48,41,131,7
-103,-60,41,-86,59,-51
-99,-61,43,-61,63,-47
-96,-58,48,-2,74,-43
-93,-58,49,63,84,-9
106,22,-79,-69,3985,-3959
-27,70,38,1204,119,-3132
-34,-3,26,655,1117,-2916
15,-102,-42,1500,-437,-3824
-20,116,57,-342,1711,-5223
86,-125,-87,-1147,5923,-3397
108,91,4,-4032,2509,3216
-28,104,22,-4539,1609,5305
-107,-104,-11,1932,-5016,2815
-35,-83,100,-684,-1320,3851
-83,109,-7,5498,1222,-4668
-42,-26,53,-1224,2073,-2950
42,-25,104,-550,1334,-1879
-22,-72,121,3480,-1470,-716
-20,-50,-5,1108,-1920,127
117,99,-63,2294,-2251,1906
57,116,-100,-256,-3355,6248
-89,4,117,-1232,-2485,4768
2,-107,100,-3835,-2233,2807
-103,57,33,-2842,-3682,3755
-83,68,-43,1801,-5002,3606
78,22,-76,7596,-2955,4515
-74,-58,98,702,2830,1335
94,39,-42,-3734,5532,-1402
-127,-104,-29,-2253,2025,-1848
31,79,124,1247,-2862,-1899
38,65,125,2406,-3153,-221
38,114,94,1151,-1072,1139
36,-106,112,550,505,1464
59,-64,-128,-164,639,903
122,-71,63,-827,1366,-335
126,-106,31,-347,1217,-447
125,-123,26,275,437,-218
113,-119,29,447,-383,103
116,-98,35,-282,-401,20
121,-80,61,-730,-200,-195
-120,-78,87,-729,64,-377
-120,-75,84,-601,368,-513
-123,-81,71,-191,373,-392
-123,-81,52,107,102,-121
-119,-73,49,-11,-12,40
-116,-61,55,-10,-11,177
-103,-51,63,197,-25,177
-99,-39,61,87,59,67
-94,-40,54,100,94,-56
-93,-39,47,-95,73,-102
-91,-41,49,-150,89,-106
-89,-43,53,-125,93,-91
-85,-44,53,-24,90,-45
-83,-39,49,-38,66,-21
43,106,44,2721,4103,-3880
-94,21,123,-481,3898,-4473
-69,-105,1,-517,544,-4715
29,-72,-34,1088,831,-3563
74,72,33,94,188,-4373
-93,-9,-121,1071,1889,-6014
-53,-87,-4,182,1089,-4117
-27,44,-13,-2807,2474,-744
60,3,-122,-2477,3391,3745
-64,-59,-42,-4304,-3374,4330
36,123,107,-3894,739,2723
-95,-96,-8,1126,-705,994
29,-58,124,6476,-480,-2811
59,-74,-65,-2252,1625,-3031
-43,94,28,-2692,9,-1382
70,120,-54,4700,-2163,-122
-15,69,-1,2135,-2609,948
-75,44,11,1826,-3030,3179
27,-126,-45,-710,-2962,5584
-19,12,46,-3380,-3517,6134
43,98,-75,-1373,-1955,4408
-51,-106,0,13,-2518,4959
76,62,21,3527,-248,1758
93,90,34,1791,-2061,4043
39,13,-95,-3062,2904,2527
-18,-77,-123,791,875,-4371
35,-115,-101,3405,-2667,-2521
-106,100,127,1923,-712,-578
96,78,55,-371,604,-1381
28,91,71,-1517,-157,-379
33,125,93,-1759,-379,542
104,-94,99,-1688,183,663
97,-38,108,-1338,-131,813
96,-46,115,284,6,308
115,-62,86,954,460,-445
113,-70,49,748,382,78
106,-54,30,47,35,338
119,-39,41,-343,-163,189
-122,-39,60,-197,51,-90
-117,-44,65,-99,186,-244
-119,-48,60,-179,171,-140
-124,-47,48,-202,133,-67
-115,-49,47,-47,76,9
-113,-40,52,-23,34,11
-101,-42,57,114,91,49
-102,-32,54,52,72,30
-93,-28,45,16,109,-43
-93,-29,43,-48,71,-65
-90,-32,46,-77,59,-41
-88,-31,52,3,76,-39
47,114,43,1491,4574,-3284
-73,-3,-84,82,5245,-5145
-118,42,-27,894,1612,-2398
-16,37,-106,1689,632,-1895
-102,89,99,1084,-164,-1509
-113,49,33,1427,55,-2335
-10,-73,-91,1147,-706,-3099
-96,94,48,-1271,2966,-4902
71,61,124,-4033,2081,-79
-84,12,-51,-3261,6366,2353
87,60,65,-1342,-5324,6503
-5,106,-40,-7069,-2868,1385
-119,-23,26,5155,1771,29
32,-13,117,4245,396,-3309
-52,13,74,-2482,640,-2120
-111,-73,-64,4548,-2083,-47
35,-106,-66,1697,-985,-425
-78,-86,-74,676,-2269,1862
-106,16,-127,1521,-5610,4564
-44,-37,101,1138,-5268,5572
125,67,-84,-5586,-1870,3910
22,-90,63,-994,-4055,4093
-63,69,-93,1585,-391,2168
57,82,100,5391,153,2180
44,14,7,1764,113,5768
38,-46,-57,-3220,1797,250
31,85,26,-1053,-985,-2781
59,29,-125,4248,-504,-1767
70,91,70,1383,931,-1123
65,118,44,-1049,900,-369
32,92,90,-590,-613,619
81,117,88,-273,-162,556
109,-108,82,-203,275,240
119,-97,74,-92,147,-305
105,-109,71,17,60,-363
99,-112,68,-120,154,-188
104,-114,59,-26,87,39
118,-99,57,-164,60,89
122,-87,60,-102,-66,-26
120,-80,55,181,-359,-537
-126,-61,50,-305,131,-52
-124,-67,54,-269,259,-6
126,-76,55,32,97,-22
-113,-65,46,-56,120,-19
-119,-59,38,-1,-94,-159
-110,-51,37,-104,112,98
-106,-46,42,-129,124,1
-103,-43,42,-33,68,-68
-100,-40,39,-126,110,-56
-97,-49,38,83,52,-124
58,-54,-5,941,4556,-3067
120,-31,-99,1166,3620,-3801
53,48,-24,1003,936,-3299
74,-64,15,1683,1033,-3184
93,-10,114,902,-1027,-4269
-89,-99,-32,-672,825,-6840
41,116,121,-1405,3879,-4740
-13,46,-51,-2181,2305,619
-102,-85,66,-4637,2173,4967
52,51,-59,-3477,-372,3679
-13,-71,13,-3613,-4707,4214
-32,-12,-66,2963,1574,-2526
-23,-15,15,3111,-42,-2500
48,89,29,-2026,1005,-1962
16,77,-31,3781,-2687,-695
66,0,-7,1245,-443,-873
69,-65,9,565,-2977,1326
-107,40,57,3152,-3702,2118
28,-64,47,35,-1102,3783
-105,-40,-90,-2237,-1341,3362
15,102,-54,-1968,-2271,2166
106,5,-101,-267,-4365,4574
9,115,6,1081,-2341,3835
82,76,-60,1212,-252,2057
6,-126,-50,995,695,2276
-99,89,47,941,1521,199
70,-59,100,1382,-983,-1348
77,-104,84,-86,-677,-1383
79,-112,82,-1071,177,-252
84,-97,81,-1463,388,-146
110,-94,91,-795,229,-100
105,-72,103,-270,2,69
96,-57,94,49,54,11
105,-59,85,399,103,143
124,-55,68,450,117,288
126,-48,57,259,-20,255
-127,-40,60,-6,-30,63
-119,-36,71,-204,45,-112
-115,-49,75,-4,106,-176
-113,-52,76,-130,105,-106
-113,-55,70,23,109,-14
-110,-50,64,14,61,0
-102,-48,61,25,68,18
-100,-39,61,-35,42,-12
-97,-37,65,-46,71,-37
-95,-36,64,-22,113,-55
-85,-41,59,-6,108,-38
-88,-38,58,-69,44,-45
-83,-39,59,-1,100,0
-80,-37,60,35,87,29
27,-9,6,3220,799,-4124
-105,-70,35,2381,1600,-5584
69,65,-47,701,2789,-4804
50,-106,-114,-3428,5580,-1850
-110,57,-104,-2151,1682,3846
-12,35,12,-7956,-1016,5521
-94,117,35,4189,-5373,1736
-96,49,118,-2674,197,2570
36,76,116,4111,2696,-4350
38,89,-81,-597,1100,-2412
-60,87,-5,3568,-100,19
-121,109,90,2028,-2214,-1227
-51,-75,68,2659,-2920,-662
71,93,102,1309,-1975,2519
-81,-127,67,942,-3203,5282
16,103,-32,-950,-1884,3721
78,105,-75,-2561,-371,2200
124,-2,-74,-1888,-1695,2794
-79,45,77,-466,-2768,2416
47,125,-32,-394,-1644,3089
24,37,-91,2886,-166,1911
-85,21,-110,2685,-318,599
111,2,117,745,-176,-289
68,-106,-122,261,-172,-448
66,-119,111,-352,217,-150
69,115,89,-619,231,-103
103,111,87,-490,112,-50
104,118,91,-235,-40,-20
76,121,88,159,-99,44
90,126,90,338,-2,284
102,-120,88,261,4,353
111,-102,78,-19,86,187
115,-98,73,-177,130,-44
124,-105,68,-3,163,-67
125,-102,59,-74,48,-48
126,-95,60,-233,69,-116
-124,-96,66,-206,113,-104
-123,-94,68,-79,107,-64
-117,-93,64,-14,114,-7
-110,-85,56,31,73,18
-109,-78,55,44,79,2
-103,-73,52,-28,70,-31
-97,-72,52,-36,73,-46
-96,-69,53,-92,75,-32
-97,-69,55,12,78,-7
-89,-62,54,-30,97,-13
-88,-59,50,-8,68,-38
-84,-55,49,-80,115,-57
-79,-57,49,-54,93,-36
-81,-52,50,-96,52,-66
-14,-60,-37,394,6191,-4592
54,-16,89,2675,2356,-3509
-122,117,34,1869,-123,-2863
55,63,-23,1428,-262,-4819
86,-33,70,606,1227,-6600
56,-43,-38,-2524,8292,-3852
-101,-33,64,-5584,758,5139
-56,-72,71,-5408,-845,3379
82,-52,44,-3650,-2179,2186
-46,-127,6,2576,1013,-2672
-49,107,75,2420,1212,-2090
87,44,15,721,1117,-1538
-65,-7,-65,2481,-2469,-530
-14,-61,-114,606,-958,-389
74,-84,-95,2147,-2415,86
-60,-106,5,70,-2778,2498
-86,23,59,-1442,-2070,3756
-79,67,-117,150,-2884,2406
-23,121,57,-1925,-2386,2227
26,-3,23,-808,-2436,2186
-110,-102,55,1699,-1626,3109
-17,-22,11,-336,-643,1966
-85,62,-35,983,-913,1165
-68,69,-85,375,-464,1089
-116,32,-91,916,-570,-42
106,-18,-110,578,217,-293
105,-33,111,-233,580,97
78,-51,83,-125,247,209
90,-98,81,665,21,395
105,-69,85,493,-105,616
-116,-122,100,1484,-89,664
114,-87,110,491,-341,856
127,-76,-124,-254,-46,376
-84,-117,111,-80,654,-198
99,97,80,290,25,-198
84,103,73,-213,-37,72
103,-125,75,-794,355,26
123,-112,75,18,620,118
-81,-115,80,319,305,372
-88,-80,90,-89,-85,40
-114,-57,91,-564,-44,-292
-91,-70,106,-319,120,-481
-89,-92,108,158,99,-298
-96,-94,80,236,256,-264
-75,-100,61,62,152,-232
-89,-75,69,-563,-111,-265
-81,-78,99,-420,30,-198
-87,-59,118,-523,-51,46
-91,-45,113,-320,130,143
-60,-57,92,327,215,320
1,15,91,-512,5312,-2522
-67,74,8,1443,3181,-3047
46,-113,42,1618,871,-2104
26,-37,81,1003,583,-2311
-72,-77,65,1791,-103,-2905
4,109,25,1193,1517,-5546
83,-98,21,-3532,6985,-3602
-115,39,-70,-3981,1885,2775
-17,-19,64,-6117,-8,5250
41,-108,65,2092,-4373,2423
-116,-111,114,3679,-1273,3661
50,-105,119,3267,1490,-4142
40,-28,124,-368,2653,-2486
-55,-80,-65,835,957,-1791
-70,90,100,2874,-2746,-515
-122,122,22,2523,-3220,726
1,72,125,1286,-5124,3762
-33,-53,120,36,-1858,5808
125,-103,-89,-1284,-905,3727
-29,78,58,-2900,-2968,2773
84,-37,106,-1756,-4453,3247
-94,4,7,270,-2809,3101
-58,25,25,-83,400,2627
-115,20,67,3325,-212,2109
-77,-26,93,647,426,-1437
77,-3,77,874,389,-3128
-125,124,97,1089,514,-1359
83,100,77,318,-66,-442
54,106,75,-660,-311,-92
73,116,101,-363,-102,543
98,-107,113,191,82,656
107,-78,118,320,-60,480
122,-53,108,233,115,352
-124,-43,86,116,295,-156
121,-58,70,-219,196,-207
-121,-87,75,242,53,5
-122,-78,61,-282,160,-84
127,-91,65,-117,-29,152
-124,-88,78,-108,-12,113
-107,-62,82,-213,142,109
-117,-58,74,-177,67,-116
-101,-69,67,-13,174,70
-90,-57,62,-167,36,111
-91,-51,62,-323,149,-200
-92,-70,71,174,-17,-114
-99,-66,85,285,-43,149
-77,-49,80,-75,385,-117
-85,-56,61,-57,216,-116
-87,-68,52,163,-32,25
-76,-49,51,-277,167,30
90,-117,63,2776,4895,-3019
26,39,-27,481,1388,-4129
15,71,115,1347,200,-3125
-118,-18,-40,101,669,-3893
39,-127,44,1098,1844,-6354
69,-24,100,-1701,4358,-5275
101,124,-127,-2972,2626,167
-60,-119,105,-2111,1443,4170
114,38,-91,-5433,-4664,5092
4,-63,96,-4413,-3961,3139
12,-40,-31,1111,2052,-882
96,45,-30,5464,827,-5332
93,5,86,-2958,2664,-1267
86,34,48,3354,-3438,215
-60,-48,-93,1031,-730,-1803
-28,12,-91,840,-1918,450
-26,108,-61,2435,-3104,1689
-72,-67,-124,-114,-3501,4794
18,-12,-74,-1030,-3249,2672
56,52,-43,-2125,-3384,2094
-21,35,-123,-1187,-2615,4074
57,114,51,3708,-1053,3075
-21,-121,-107,992,-684,993
-74,36,-107,1054,-887,1320
-112,-4,115,649,-261,495
78,-107,113,1797,-289,-396
73,-111,91,199,478,-534
65,90,74,-27,689,-133
64,84,60,69,437,206
66,97,67,-62,44,291
84,99,70,216,3,238
98,110,75,437,23,344
93,118,66,332,-1,0
97,123,65,-123,94,-165
102,113,63,-88,142,-88
103,115,60,-75,93,-66
111,121,53,-152,125,-110
111,122,53,-130,88,-52
117,127,55,-59,81,16
121,-116,52,-40,109,-20
-127,-114,50,-60,120,-37
127,-108,48,-23,102,-62
-119,-110,45,15,100,-18
-117,-105,44,-6,108,4
-114,-97,43,-17,114,-8
-108,-91,38,-82,149,-38
-105,-90,39,-53,99,-28
-102,-84,37,-78,131,-63
-101,-84,37,-59,122,-31
-97,-83,34,-12,99,-30
-89,-36,116,2236,2095,-6327
-116,117,1,1732,2573,-6817
-102,-91,127,-264,3310,-5014
-3,-125,-78,-4164,5053,151
111,66,125,-2796,-1162,4829
107,100,69,-9984,257,5196
121,75,105,-2066,-4911,3786
-28,-89,20,3261,1428,-3370
-123,-11,42,5054,1630,-3702
63,80,20,-705,2054,-1553
-19,104,-84,3247,-1452,-1813
46,14,48,226,-983,-1346
51,41,92,2284,-2676,1947
-69,79,69,644,-3019,2973
-65,-69,90,-972,-1714,3965
47,83,-16,-1334,-2021,3289
104,89,-83,-1794,-1753,1163
37,-103,-110,-2279,-2203,2673
-11,-36,81,368,-1624,1918
-68,-90,16,300,-2467,1459
-92,113,-51,909,-1146,748
119,28,-70,1530,-800,808
97,-7,-94,713,-207,443
98,-74,-125,1473,237,584
86,-81,83,1019,266,552
89,-102,51,631,202,199
98,-102,49,-257,105,-67
85,-114,59,-90,-68,105
86,-116,74,178,-56,92
105,-106,82,-119,95,-35
112,-108,84,-84,171,-64
112,-114,75,152,191,-23
115,-111,56,132,192,31
112,-104,50,-29,66,59
122,-98,58,-7,60,9
-123,-96,64,56,128,-7
-122,-92,56,-63,162,-85
-118,-93,48,-112,145,-46
-115,-91,48,-76,61,-25
-110,-85,53,-7,87,-36
-106,-81,54,-43,94,-55
-103,-81,52,-19,92,-70
-99,-77,48,-110,122,-75
-94,-82,50,52,94,7
-93,-68,49,-63,88,5
-93,-64,49,-10,146,-47
-86,-64,42,-47,122,-39
-80,-62,41,-43,79,-57
-80,-56,45,-99,101,-88
-77,-62,47,-2,114,-55
70,78,-124,-347,3698,-4642
-48,37,7,1758,1039,-2371
-126,-64,-6,1013,663,-2483
11,72,105,1351,725,-3358
-5,113,-58,2091,244,-3670
-28,-19,13,-111,2061,-4103
26,95,-10,-2701,3272,-1230
-112,-46,25,-1784,4276,1984
-5,-107,-17,-5033,51,4271
-33,13,-127,-3784,-3447,245
-53,82,68,2987,423,2766
109,28,58,2725,1784,-3902
-94,82,-22,522,1116,-1350
127,-101,-47,2323,-1850,88
109,-43,50,1103,-1786,-1136
115,-101,82,1336,-3421,700
-66,-20,-92,-1131,-3217,2436
56,-62,100,-480,-2830,2041
-61,61,-75,-2350,-4413,3640
-2,-20,68,-148,-4476,2413
123,-72,44,-254,-4065,4389
23,83,-18,1368,-1184,3160
-105,117,-33,845,162,2491
11,23,-18,4042,-1186,1593
108,25,-121,3028,-642,-963
74,-84,87,1844,719,-1657
56,108,62,139,1138,-1119
34,90,32,-1157,753,-126
36,89,52,-788,-372,575
75,123,71,-801,-363,505
115,-91,99,-680,-88,231
110,-86,106,-169,101,-479
90,-104,117,204,202,-552
94,-124,87,374,390,-107
95,-119,56,270,194,238
104,-107,44,240,-34,301
119,-89,52,115,-69,203
125,-82,69,74,-13,0
-125,-79,72,59,66,-158
-123,-84,59,-209,251,-252
125,-98,50,-108,108,-106
-123,-99,46,-76,78,-4
-116,-88,53,-63,30,-3
-111,-83,59,40,82,6
-109,-74,56,14,122,-26
-102,-71,43,-66,131,-45
-101,-69,43,-132,71,-65
-97,-70,49,-48,76,-75
-97,-70,54,11,109,-28
-91,-65,48,-14,113,-28
33,-20,-40,-1648,4383,-2762
-35,32,-82,268,5352,-5293
-126,102,-95,2127,1678,-4654
-49,-14,-14,1089,-349,-2625
-108,-104,67,786,825,-5252
-104,-98,-55,414,2654,-6435
-24,-126,117,-2944,6030,-2472
98,89,-99,-3199,4663,2092
48,-125,72,-3698,-3129,5413
-103,-127,-25,-6382,-3161,1421
21,-107,28,2915,16,974
-84,-116,13,5666,-576,-3326
23,-104,-106,-1284,2660,-3285
73,-115,-36,3550,-484,-120
31,-85,33,1130,-2393,-597
-85,-39,36,1176,-3481,-155
-125,104,-128,2013,-3369,1937
127,-38,119,599,-3251,4773
97,102,-104,-779,-694,4210
52,-126,119,-1537,-1628,2901
100,60,-117,-939,-3661,3598
115,124,16,740,-2788,2523
-35,-97,-102,-958,-1036,2009
-60,79,-81,-154,-256,1416
-90,41,-122,358,244,811
116,-31,120,2076,-57,278
110,-41,78,1087,183,-570
81,-93,68,708,254,-600
66,-118,58,587,235,-164
64,-101,51,-368,112,147
85,-97,61,-507,55,133
100,-89,71,-301,97,17
104,-87,81,112,77,-56
106,-86,75,168,134,-69
109,-81,56,-63,218,-24
112,-77,48,-140,152,1
123,-77,50,-14,74,23
121,-69,52,92,31,-26
-126,-69,54,27,89,-89
-121,-70,56,7,93,-19
-118,-65,50,-20,120,-49
-115,-64,47,-59,126,-70
-112,-63,46,30,102,-22
-107,-59,47,2,87,-48
-103,-55,47,-94,123,-84
-100,-56,46,-47,121,-92
-97,-55,45,-79,102,-66
-95,-56,47,73,112,-38
-89,-48,41,-42,120,-58
-85,-49,40,-38,122,-38
53,-63,-23,168,5625,-4203
117,82,-40,894,1190,-4948
9,-2,70,790,1230,-3484
47,11,-35,566,271,-1426
-61,46,56,2130,548,-3216
49,-84,-26,1955,1101,-5572
-108,-81,-100,375,4180,-4730
89,70,-37,-2135,3959,894
-58,45,-90,-3309,1590,4339
-69,-49,38,-7317,-4018,3663
119,-53,108,-3050,-3163,5772
-6,-6,100,1329,3237,-5098
-124,120,-72,3901,785,-2734
-49,77,122,-278,2526,-2678
-83,24,112,2353,-2892,543
-60,-16,-38,795,-3642,412
-88,124,118,-104,-4733,3651
-76,-37,76,-340,-3291,3528
-42,54,-38,-1232,-2251,3977
-78,-33,-124,741,-1620,942
-50,24,127,-119,-3035,3160
-37,-98,75,2802,-1098,3721
-49,-25,-34,5502,-556,4202
-34,-88,84,3069,367,2514
-47,-16,48,-2707,1826,39
-118,-108,4,-2253,1408,-948
78,35,43,285,-143,-799
85,75,48,107,-364,-495
84,122,46,-785,-21,-234
86,110,63,131,-71,221
90,-127,90,3,-402,30
105,-91,113,-848,2,-241
111,-80,114,-872,518,-456
114,-86,74,-389,611,-554
122,-90,48,-236,298,-441
-120,-74,39,-481,141,-278
-126,-63,53,-450,7,-226
127,-62,76,-98,-45,-141
-126,-57,96,353,-68,95
-118,-50,83,390,120,224
-108,-47,60,335,107,139
-97,-41,46,132,25,45
-98,-36,51,-76,70,-76
-97,-36,57,-125,136,-192
-92,-43,63,-137,182,-174
-94,-43,55,-182,154,-135
-89,-47,50,-12,103,-87
-84,-39,51,-81,69,-47
-81,-36,55,-11,87,-59
-76,-29,55,-74,118,-98
11,96,74,313,5614,-2122
61,-64,-77,440,2921,-4031
52,79,98,1399,-400,-3477
35,-13,97,854,-164,-3113
-29,-71,-12,1152,-190,-4970
-100,74,-97,1207,4099,-6178
103,9,-104,-1750,5678,-2944
101,84,-85,-2827,2345,3923
98,83,-44,-4998,-1519,4130
-57,-34,96,-4844,-2375,948
-9,-111,20,3328,1137,98
94,36,-3,4659,664,-3227
-103,-9,-51,-524,2139,-2940
-17,-95,-112,3218,-2878,-214
83,48,9,741,-889,-1625
81,-91,78,1379,-2903,-13
-119,73,-67,1142,-4896,2857
118,-35,70,487,-3664,4407
47,51,113,-698,-3756,3529
79,-127,118,-2723,-3738,2783
-3,27,66,-1206,-2344,4226
-33,-123,-13,2589,-402,2311
-64,33,-101,2751,-240,1111
-47,35,92,1128,840,901
-97,-63,79,2331,528,689
110,-75,59,1539,-152,-39
63,126,63,671,-477,-602
67,116,62,-204,161,-369
65,119,60,-384,375,204
64,120,78,263,-85,468
85,-113,79,176,-36,169
101,-102,73,-141,267,-269
100,-128,64,73,199,-284
96,126,55,-42,118,-162
98,-123,49,-230,98,-85
106,-118,54,-83,103,-57
111,-110,53,-27,112,-20
114,-100,50,-112,107,-87
123,-97,45,-61,108,-107
-128,-96,45,-112,82,-115
126,-95,46,-31,95,-92
-121,-92,47,-22,103,-54
-117,-87,43,-5,82,-76
-114,-82,41,-47,109,-81
-112,-83,40,20,110,-50
-108,-75,36,-63,97,-80
-101,-75,37,31,114,-47
-101,-70,33,-36,102,-43
-93,-67,33,-29,130,-53
-94,-63,34,-30,98,-95
-10,36,35,-8211,-1779,5840
-98,74,15,-3434,-1964,-280
11,92,72,3358,1303,2204
47,-45,76,5258,1327,-4081
-15,70,-125,697,1253,-1993
-123,120,-122,1726,-2019,685
112,-85,-15,127,-2217,-180
-31,-93,34,1678,-4139,491
16,125,-110,44,-4440,3781
-68,-72,69,-474,-3691,3075
-96,31,-103,-405,-2367,3131
-81,-24,-125,93,-888,1671
-10,-25,-108,-674,-2001,3726
-55,49,26,1111,-1998,3683
94,-71,-85,-3245,7,2190
-41,43,-24,1180,-772,437
-102,-15,-87,3567,-390,101
86,-14,48,886,562,-1795
73,-116,58,1038,602,-1333
68,-124,50,-57,457,-341
70,-105,64,-986,-113,145
81,-107,79,-491,-169,146
104,-92,94,-73,81,29
106,-86,88,220,195,-62
106,-90,78,382,101,13
108,-85,60,245,65,74
113,-84,53,153,28,57
122,-85,57,217,32,42
125,-81,58,117,33,-43
-127,-85,61,129,76,-51
-125,-84,61,99,100,-12
-117,-78,50,-57,139,-74
-115,-75,45,-216,139,-147
-112,-79,47,-167,108,-146
-111,-78,52,-65,92,-119
-108,-78,53,46,94,-45
-103,-71,49,29,102,-28
-97,-61,42,-50,92,-33
-96,-55,43,-102,104,-120
-89,-54,46,-172,137,-140
-88,-59,46,-87,116,-135
-87,-60,47,-46,111,-73
-86,-59,45,49,100,-34
-80,-51,41,28,92,-7
-78,-46,38,33,69,-28
-73,-41,39,-7,94,-79
-70,-44,39,-6,110,-84
-71,-43,40,-61,73,-71
-66,-48,43,79,131,-64
-65,-43,37,-40,115,-43
83,-22,-36,-1661,6010,-4045
95,17,-31,224,3060,-4281
24,-47,122,-324,2530,-3830
64,-41,-114,2728,-121,-2137
23,32,74,2049,575,-5235
-16,113,-124,562,3876,-5958
54,-115,116,-4197,7935,-1245
-109,3,-30,-5127,-86,6136
-38,-72,125,165,2325,1137
-20,-49,18,-5750,-2363,1264
-44,-9,77,5096,473,879
-29,20,28,2494,-1517,-1798
47,124,81,-3214,1340,-1903
46,25,-70,3675,-2807,305
77,-61,-36,698,-1521,-1931
63,95,57,3833,-4408,-1642
5,88,-104,2140,-4042,2145
-84,-97,55,1607,-2180,4196
90,29,-54,-1704,-1607,6715
108,106,-111,-167,-3476,4966
-28,-15,24,1323,-3363,3013
-6,107,-52,2845,-1516,2847
-24,98,-115,1872,-419,2023
104,-120,32,-50,1494,-785
52,28,-8,-1332,2405,-744
83,120,36,-370,1571,-1309
35,65,67,299,183,-868
25,108,61,-461,-370,419
53,-115,67,-817,-165,645
93,-83,75,-577,180,432
107,-82,75,130,234,-8
101,-95,90,756,-108,-181
98,-115,92,1092,250,254
91,-99,63,582,447,386
103,-96,48,124,123,213
-125,-94,53,-134,-96,-40
-128,-98,62,5,-31,-168
122,-95,65,-66,157,-205
127,-103,60,-52,191,-168
-124,-102,51,-167,105,-130
-124,-100,49,-119,66,-132
-113,-101,54,57,83,-62
-115,-89,56,-17,49,-10
-111,-86,55,105,115,-38
-99,-79,48,41,127,-100
-97,-82,43,-36,101,-121
-99,-83,45,-27,100,-86
-96,-82,45,46,111,-27
-94,-74,42,17,90,-26
-89,-67,38,-3,105,-80
81,-12,-82,-55,3769,-4430
-25,126,35,1054,1151,-3101
55,10,10,3779,-1342,-2311
64,77,72,446,764,-5965
104,-10,2,204,1771,-6149
71,59,52,-2924,4885,-3263
112,5,-44,-2468,4599,1521
-40,92,78,-7166,-2209,6767
-55,86,-94,-2179,-2823,2392
88,-11,93,3503,-2028,4945
8,-43,12,4751,1649,-4799
-109,-75,-77,990,1128,-3397
-48,-120,-72,-1465,1714,-1809
-102,-39,-92,2486,-3915,226
-11,24,27,653,-2979,-100
-128,118,-106,2133,-3668,731
81,-88,71,631,-3089,3375
-123,40,-122,-1214,-1762,3857
-127,62,-106,-1009,-3582,3869
-71,-39,53,-463,-3272,3690
32,-73,15,431,-1251,2825
59,-107,56,1972,-881,2711
-48,78,-74,3183,-377,903
107,-45,73,2539,-21,-560
89,109,59,1849,484,-541
103,74,57,36,1052,-484
84,72,52,-854,461,-26
63,69,63,-515,-297,145
80,85,91,-24,-315,351
86,123,97,-99,49,73
99,126,90,-54,325,-280
107,116,68,-198,333,-299
107,109,54,-288,155,-216
103,109,57,15,-12,6
109,-127,66,46,31,10
118,-113,68,-20,114,-68
123,-108,63,-64,175,-129
-125,-110,51,-77,147,-112
-122,-106,46,-207,90,-22
-121,-96,46,-153,76,-88
-111,-87,52,-181,91,-176
-107,-91,58,-100,147,-150
-105,-93,57,10,137,-78
-105,-85,41,6,133,-45
-101,-78,36,-96,115,-93
-93,-78,38,22,56,-24
-95,-67,38,-176,100,-69
-87,-65,42,-171,138,-68
-85,-60,45,-141,101,-88
-81,-65,43,-34,126,-130
-64,53,94,-1382,4757,-5892
-40,-18,15,-1930,2571,-4994
-90,89,-10,2611,331,-2800
27,-95,87,-529,871,-3790
-93,-80,30,1055,1101,-5062
-18,-40,-78,514,2971,-5371
-63,75,-76,-3361,5112,-1091
82,47,-106,-3381,3180,3999
82,47,127,-7501,-251,4739
-77,-97,-95,-7406,-5083,3580
-47,12,1,1972,1465,128
-27,84,121,9299,-130,-5013
41,-68,-46,-4089,3633,-3539
89,66,16,2732,-2989,229
-121,106,-90,2655,-2311,-712
29,-51,-118,551,-1937,110
-85,92,-105,1648,-3836,2260
-123,-55,30,691,-3666,5141
-81,-116,8,-1178,-1445,3570
113,-100,-41,-1557,-1376,3363
-115,-32,-99,87,-2231,3268
42,90,31,692,-1244,3260
4,-51,-33,3075,-1929,3136
-26,0,125,954,-1047,2156
-100,11,77,-211,178,-51
88,-46,77,-41,258,-1240
56,-128,101,364,-23,-1053
52,-119,98,-350,-29,-684
56,-111,94,-1038,238,-503
74,-120,80,-674,548,-374
83,-120,68,-204,319,-257
83,-112,65,159,-16,39
85,-98,68,174,-59,230
96,-85,71,265,9,323
105,-67,71,262,42,202
119,-65,65,165,129,-15
122,-64,56,-17,167,-193
119,-69,46,-225,172,-240
119,-73,48,-254,137,-181
127,-72,52,-223,120,-177
-124,-69,57,-44,103,-132
-124,-69,54,79,90,-62
-116,-63,51,40,73,-26
-110,-53,52,-38,78,-44
-107,-52,52,-6,148,-135
-103,-51,51,-126,140,-119
-98,-57,46,10,132,-87
-99,-51,41,-4,65,-54
-95,-49,44,17,72,-3
-91,-40,45,20,94,-35
-87,-89,11,924,4815,-4942
8,61,11,-261,3165,-5956
29,-86,48,1750,1193,-3641
29,-103,40,823,705,-3804
-125,125,-87,1701,2422,-5887
9,-109,16,-968,3364,-4598
56,27,108,-1520,3112,-521
-97,-56,-96,-4970,-637,4494
74,-31,88,-5213,-62,3914
-32,-61,30,-2910,-2043,1071
10,-34,41,2833,-942,2225
-40,-85,-83,4874,2202,-4771
-58,25,-110,962,1419,-2237
74,-90,-120,3021,-582,217
34,-55,-47,791,-2135,-665
-51,105,7,1682,-3817,1676
66,-10,-99,-1803,-4862,5103
5,116,85,-2871,-4636,4851
52,-24,-108,-4312,-6632,3486
124,-32,-71,-376,-2830,857
-110,-95,106,1539,-699,2493
-66,103,-23,3420,73,1307
-38,42,111,3872,-532,1693
-98,-50,68,3711,-838,1033
-122,-23,29,-127,639,-329
102,-75,34,-1407,1298,-1118
77,105,51,-141,660,-830
56,89,62,811,-105,-28
64,115,56,328,-241,253
91,-116,56,-156,80,232
92,-110,57,119,54,44
87,-105,56,60,133,-128
94,-108,50,-83,234,-78
99,-107,41,-313,225,-138
105,-110,44,-190,155,-74
112,-107,48,-102,162,-47
-127,-98,47,190,82,172
124,-82,37,121,-75,-222
126,-81,41,-195,201,-204
126,-96,45,-43,157,-74
-122,-91,38,-75,142,-64
-119,-89,36,47,88,-33
-116,-81,37,-1,63,-6
-109,-76,39,-40,160,-21
-105,-69,35,-68,148,-33
-95,-70,33,5,122,-47
-97,-64,32,-25,75,-82
-94,-62,30,-68,138,-126
-91,-66,29,-45,102,-100
-87,-64,31,-81,98,-60
-84,37,73,-1846,4944,-6029
-41,37,14,1461,1287,-4527
-58,-118,86,548,893,-4367
-116,58,94,2453,2013,-7202
-110,-17,68,1234,2217,-5837
-8,44,-46,-2697,8052,-2188
-67,-28,15,-5365,-2,5405
121,60,-80,-6940,-2953,5370
26,-73,-14,-7081,-1859,1366
99,-65,-60,3566,528,-1128
123,109,-69,5615,-1222,-3506
-15,-103,59,-2333,2770,-3347
-64,-92,-10,2682,-1404,437
21,-114,33,1196,-3222,-605
104,-76,56,1485,-4164,1402
-52,-109,-64,788,-4640,2367
-86,4,103,-240,-1708,2603
114,-95,-62,-1817,-2617,3744
112,58,-81,-1035,-2908,4141
-32,-69,45,714,-2855,4297
6,-53,-41,-578,-1292,1972
-81,-56,-32,4423,-1692,1740
-11,-52,83,4235,556,1816
-89,-46,62,2564,472,439
91,-71,60,625,80,-508
74,119,63,-601,394,-812
92,101,43,-1308,778,-570
90,113,36,-1403,334,-424
92,111,63,-323,-142,-373
100,119,74,96,-70,-306
104,-126,74,-113,73,-256
99,-111,76,-356,61,-129
104,-105,79,-261,100,-14
113,-97,73,-6,200,19
126,-82,53,17,124,-55
-124,-77,45,-134,73,-141
-121,-77,45,-198,16,-108
-123,-70,59,-184,39,-91
-117,-66,66,-90,142,-68
-112,-62,63,-80,197,-70
-107,-56,50,-123,129,-124
-104,-60,47,-24,118,-106
-101,-57,46,-61,72,-82
-104,-55,49,11,49,-49
-99,-55,49,35,98,-25
-84,-51,51,-66,50,57
-89,-39,52,10,98,-6
-81,-34,49,-36,166,-63
-76,-32,40,-95,143,-128
-76,-35,38,-159,113,-149
-44,-76,102,-3142,5328,-5364
93,48,26,3034,1388,-3327
115,-115,-5,3018,-2,-4256
-21,-58,74,2347,-224,-5882
-114,41,-8,-922,5063,-5748
-10,-79,-115,-4946,3551,786
127,-73,-104,-5486,1957,5178
123,51,97,-4727,-3692,5862
28,65,-88,-8301,-749,-66
19,102,5,3503,2236,-2099
-43,44,120,9024,-231,-3639
5,-119,46,-1554,3307,-3089
-112,90,-107,3727,-3729,598
92,0,0,878,-1363,-736
-126,-22,30,-104,-3682,981
-51,30,-53,1537,-4841,2746
-8,-5,68,-1090,-2391,4052
109,44,-39,-808,-2541,4288
93,21,-128,-498,-2600,4375
-89,-115,93,1115,-3170,3862
67,-52,-27,4581,-1994,4260
96,16,114,2539,197,1867
-36,-83,93,1616,673,248
-101,-60,41,-1128,1617,-370
107,-84,40,-1852,853,-1009
77,-128,66,-588,-117,-989
69,114,83,417,-479,-639
77,-113,79,-234,-184,-585
87,-118,75,-335,192,-329
83,-95,78,-660,163,-216
85,-86,91,-662,32,-281
94,-82,106,-165,60,-112
113,-76,88,56,267,-85
114,-64,68,-75,140,63
114,-50,57,-184,54,12
127,-44,60,-25,95,-70
-125,-44,63,-13,54,-180
-124,-46,72,-72,46,-135
-124,-49,79,41,112,-21
-119,-43,67,23,177,-48
-109,-43,53,81,53,-3
-103,-37,50,-35,55,-64
-104,-35,57,-47,57,-58
-99,-31,64,-16,94,-76
-96,-33,59,61,107,-95
-96,-34,55,112,61,-70
-93,-33,48,101,64,-62
-86,-31,46,-35,82,-68
-81,-22,49,-173,109,-173
-79,-27,52,-273,166,-255
47,-44,-34,-1100,4437,-3002
79,-42,109,-2491,5539,-5765
60,76,126,4039,258,-3670
-115,84,-30,628,739,-4870
106,-52,-115,601,1726,-5649
-22,-60,-64,-1706,5554,-4053
27,62,-78,-1806,1864,2235
-88,-41,74,-3112,4686,2624
-42,113,65,-1811,-7026,5139
93,-48,102,1811,-594,6632
-40,-100,55,4388,-204,-4429
91,-69,77,1755,958,-2994
-90,-115,127,-2876,2602,-2998
116,-68,-80,3489,-3501,200
-14,-43,88,684,-2705,533
-4,-43,-49,773,-2769,1423
-63,-47,56,300,-2451,2742
49,33,-90,254,-3484,3287
124,106,-85,-1756,-1576,2788
71,24,122,-1250,-2621,3289
-109,-123,30,1089,-2771,3682
-53,54,-49,2320,-1714,3245
27,-17,125,2577,-184,2698
7,65,90,-809,1095,694
-95,-70,93,1371,333,184
103,-107,60,1339,-152,-578
77,-119,70,14,-369,-1273
72,97,74,-149,42,-977
71,91,73,-336,313,-211
80,114,65,-733,331,-6
93,125,65,-583,156,-146
102,127,77,0,43,-95
102,-125,79,268,18,-48
103,-118,71,310,99,105
111,-98,51,-61,174,95
118,-92,47,-199,134,85
127,-90,51,70,42,23
-118,-82,54,15,69,-67
-123,-76,58,-211,34,-149
-122,-84,62,-3,186,-140
-112,-84,48,-62,200,-138
-113,-82,38,-119,58,-104
-111,-76,41,-121,67,-59
-105,-69,46,-88,130,-52
-100,-64,48,-122,86,-97
-98,-63,53,-25,122,-94
-96,-65,45,33,131,-46
-88,-61,41,-6,89,-20
-90,-54,40,11,87,-45
-84,-51,40,-45,117,-21
-97,82,14,428,3598,-5550
-107,-41,78,2085,-396,-3903
28,122,-80,-469,2016,-7363
18,15,-54,562,6815,-8973
-32,42,46,-2862,4479,231
97,-116,103,-2486,1149,5287
27,-107,66,-4059,-3964,1951
83,14,105,-561,-2415,8034
76,-104,-120,2426,2638,-5847
-34,-35,98,1042,1435,-2570
-56,-116,-66,1767,146,-1354
-110,-88,58,2051,-1844,-1021
62,-37,95,1275,-2288,619
119,115,-101,1272,-1808,2515
83,-62,119,-702,-2976,4309
45,-51,-69,-2413,-2623,5257
100,-126,54,-604,-83,1872
72,48,99,-200,-2761,2745
-15,41,15,-1083,-371,1333
-15,-84,29,1828,-319,782
-99,-10,-106,1632,-547,1271
-76,56,-60,358,-768,1237
-31,52,-34,505,279,722
-93,-32,-78,1460,98,170
-124,-7,-115,-302,37,-679
-115,-87,-115,203,229,-291
-128,-87,119,-367,131,-98
-127,-107,121,92,140,165
-115,-99,117,288,78,193
-109,-92,120,260,25,351
-99,-102,-123,491,81,208
-97,-71,-127,-213,183,20
-97,-74,127,-211,65,-7
-94,-81,124,133,248,3
-85,-82,103,-28,216,-59
-87,-79,98,-200,-7,-113
-77,-83,103,-44,117,-80
-77,-90,107,160,44,-64
-73,-90,117,271,43,98
-77,-91,112,210,19,132
-85,-107,105,261,-153,644
-83,-111,101,468,131,170
-66,-102,98,229,288,95
-66,-100,95,-43,-118,46
-72,-109,98,-50,-36,6
-76,-106,89,-141,65,160
-68,-101,79,-203,44,69
-57,-103,76,24,85,-68
-53,-104,83,-34,44,-109
-61,-104,86,27,29,-152
10,123,-79,-133,6466,-4793
-70,-67,-75,3033,556,-3802
113,40,62,472,10,-3440
32,87,77,-621,2324,-5717
28,-97,74,-837,4911,-4412
1,12,73,-1672,2852,1312
-81,-7,-116,-5112,3598,3787
-27,-50,46,-2442,-2442,3260
111,57,-100,2720,-1173,3900
-25,1,-14,6221,-786,-3657
-60,-123,123,-1168,550,-2572
-13,-59,-71,1381,-2133,637
-62,-5,35,900,-2076,-217
34,56,-7,-210,-1264,691
-108,-71,-126,1429,-3541,2633
-60,-66,105,1958,-2778,2003
-104,-103,31,-1235,-896,2206
-102,-45,-109,-2958,-826,2673
95,-35,-114,456,-2515,2777
-52,64,12,2004,-2266,3660
23,53,-81,800,-1032,2815
15,-99,-75,2670,-1021,2817
17,32,103,435,1193,1060
-108,60,20,-1189,978,-986
77,-83,65,-315,-594,-1522
113,117,95,336,-307,-1025
103,108,86,-43,345,-670
76,109,71,-260,455,-209
97,125,78,-259,275,92
124,-105,96,-179,181,-11
-128,-75,107,-202,-82,-25
-121,-79,114,-93,7,-276
-124,-84,108,134,212,-124
-122,-79,74,-105,228,-49
-115,-79,64,-62,115,94
-107,-73,54,-136,61,9
-108,-65,59,-345,-122,43
-107,-70,72,-204,-97,167
-106,-62,80,-154,55,96
-104,-56,73,-147,134,102
-96,-55,64,-40,88,92
-93,-51,55,-55,62,-44
-87,-53,50,-122,130,-143
-86,-51,51,-230,82,-104
-85,-47,56,-204,67,-86
-86,-45,60,-92,101,-108
-78,-45,61,-49,114,-100
-76,-43,55,-19,110,-66
-76,-39,51,-9,100,-49
-72,-35,48,-50,95,-54
27,-82,13,2247,6396,-4760
80,-124,9,862,1475,-4818
45,-1,-35,1234,432,-3555
45,-62,5,-648,1701,-5607
58,-126,-71,305,3807,-7264
90,1,25,-2310,4013,-1684
-110,11,22,-3010,3172,2725
-59,-97,19,-3710,-3974,5188
60,-117,-75,-8263,-2636,4963
56,-5,98,2406,506,-320
80,61,1,5477,-179,-4134
105,51,83,-582,5045,-4768
74,-122,-70,-157,519,-1422
99,92,115,2529,-2430,525
14,-65,32,1370,-3320,1481
12,-63,-68,-923,-6210,5966
19,-14,100,-1488,-2392,5712
118,44,-9,-2209,-4856,5368
49,117,-104,600,-2046,4199
-101,-40,38,2711,-653,4252
-14,-125,-55,4375,-691,4540
-103,56,65,699,743,2984
-94,114,-21,-1951,677,-1307
81,-72,50,-358,-38,-2783
-127,78,64,231,573,-2301
103,113,47,-958,297,-1240
68,115,55,-747,-341,-411
86,-125,66,-568,-45,-371
111,-115,71,-284,94,-399
112,-87,79,-765,-111,-608
111,-69,97,-1338,-16,-840
104,-74,110,-925,161,-477
95,-79,109,384,177,321
109,-39,71,477,202,509
-128,-24,51,260,87,446
-108,-6,42,-62,37,200
-106,-5,48,-82,27,-116
-116,-7,56,-22,-64,-205
-109,-7,70,-202,143,-245
-103,-7,68,-494,317,-299
-97,-13,60,-466,276,-273
-97,-9,57,-416,145,-231
-92,-7,61,-219,172,-183
-97,-7,65,30,83,-83
-94,-7,68,232,37,42
-86,-2,66,278,34,107
-83,5,62,173,60,73
-75,10,54,8,125,-27
-67,8,49,-71,124,-94
-71,8,46,-128,112,-210
30,-117,25,4606,-857,-2683
67,56,31,458,952,-2446
94,113,13,-3360,2033,-671
27,99,17,-2613,256,684
47,99,72,318,-1175,1007
110,-88,87,-162,-444,463
-121,-46,71,-732,454,-417
105,-54,80,-943,350,-1100
93,-84,101,-344,162,-715
97,-87,82,-16,311,-142
105,-76,56,111,197,164
112,-60,43,165,37,147
-119,-48,39,3,67,-80
-122,-50,50,67,-10,-72
-126,-51,61,94,-14,-51
-125,-47,68,49,138,-1
-114,-45,58,28,190,-22
-106,-38,43,-181,180,-144
-105,-44,37,-162,102,-181
-6,6,52,0,100,-59
-5,5,49,-4,113,-100
-4,3,49,-17,102,-72
-8,3,50,-30,139,-67
-2,2,50,-25,150,-54
-5,4,46,-69,73,-65
-6,7,48,-103,159,-72
-2,6,50,-69,146,-57
-2,7,48,9,112,-87
-2,8,46,-23,127,-116
-2,4,44,10,127,-60
-3,6,42,-37,110,-62
0,7,43,-28,106,-84
-1,5,45,0,109,-86
2,2,47,23,117,-99
0,1,43,-11,57,-99
-3,0,44,-68,103,-120
-6,0,49,-138,84,-98
-5,-2,49,-54,115,-41
-4,1,48,-63,94,-33
-4,4,48,12,113,-42
0,3,48,-17,143,-37
1,3,42,-25,123,-37
0,5,44,-60,114,-69
2,2,49,-36,138,-81
-1,0,48,-14,89,-69
-1,0,49,-18,172,-95
-3,1,46,-96,134,-81
-1,0,49,-75,131,-63
0,4,52,-77,126,-48
-2,7,52,-71,121,-56
120,90,97,2733,1724,-3838
57,12,-29,1535,301,-2983
-97,-111,-127,864,557,-4355
-18,-113,9,-344,1541,-4859
102,-17,122,-691,4816,-2585
116,80,46,-2706,2058,2790
14,-24,-80,-3910,3089,2771
-76,-117,-102,-3278,-2360,2275
90,-115,24,3675,1044,-1893
-110,52,-116,1206,175,-2147
-60,64,-50,467,869,-1247
-4,-22,-1,177,-2534,26
89,-109,-17,231,-3094,138
26,85,88,12,-4786,2970
72,-114,-115,1397,-4029,5057
21,-72,46,-1850,-379,4857
-98,113,25,-888,-1543,3464
-40,67,-107,1644,-2724,4017
-122,103,-48,3000,-1581,4794
65,-117,-36,2973,-6,6380
75,-126,-19,-2219,2639,1006
35,8,-60,-1607,421,-5006
124,38,86,118,-625,-5930
-94,56,120,436,-803,-1607
66,100,94,146,-751,1070
22,126,76,-153,-415,486
65,-89,80,-1459,323,-317
118,-80,82,-1335,789,-130
115,-97,119,186,-73,-152
101,125,93,1644,105,125
93,-93,69,654,22,375
113,-82,50,147,45,355
127,-73,50,-237,160,121
-126,-64,47,-346,217,19
-105,-61,50,-123,201,-135
-106,-54,43,-450,158,-401
-108,-57,49,-571,146,-436
-113,-76,56,56,158,-243
-115,-68,54,-61,78,-54
-111,-57,55,-109,78,85
-105,-51,60,167,79,130
-98,-39,49,170,68,40
-90,-33,38,24,53,-132
-84,-41,43,-13,44,-134
-89,-44,52,7,64,-68
-82,-44,54,18,169,-108
-75,-44,50,-26,142,-62
-78,-40,42,-100,166,-202
-76,-48,40,-67,139,-97
-75,-43,40,-78,83,-31
-54,36,-122,-95,4150,-5291
-123,117,36,387,1390,-4565
-90,-105,-58,289,-31,-2126
-114,-115,100,-139,1308,-4059
72,-93,33,1048,1123,-5088
-69,8,-11,-909,5103,-4263
11,-104,-106,-1538,3037,441
121,-75,-56,-3315,1945,3798
-15,-64,75,-6120,-1305,4944
-2,20,-31,-3197,-3748,-175
77,29,14,2503,-558,2982
-34,-54,-96,5268,1175,-4810
4,86,28,-1187,3528,-2907
-101,-113,-22,2604,-1645,76
36,-24,31,985,-2780,-680
-120,-101,103,765,-4590,363
-62,62,-4,1186,-5943,3112
-33,-122,84,408,-4168,4877
94,86,61,-1528,-668,4447
-23,125,68,1487,-2870,2605
97,0,7,741,-1204,1982
83,-58,67,3089,-86,6262
-58,-99,-99,1630,1384,5466
125,-82,70,739,-996,-509
3,-83,100,986,-2670,-5733
-110,119,124,-60,244,-3360
123,106,43,-1349,2275,-336
54,-115,24,-1768,656,-388
41,-123,45,-763,-583,-752
96,-100,78,-57,-458,-121
111,-89,73,84,92,-372
92,-84,69,-150,91,-495
89,-71,69,-854,32,-170
88,-55,91,-768,-92,240
99,-42,113,-105,-15,184
-128,-21,114,311,323,125
-121,-15,87,172,261,-21
-122,-19,58,102,194,-63
-123,-23,52,68,117,5
-116,-23,48,32,127,-4
-108,-22,48,-29,81,-20
-108,-20,52,-87,16,-72
-105,-23,61,-7,51,-61
-102,-24,66,30,67,-43
-103,-24,66,47,135,-37
-97,-23,62,9,129,-24
-86,-20,51,-65,156,-78
-89,-19,46,-92,132,-143
-89,-21,46,-106,94,-130
-85,-23,52,-90,108,-104
-119,-26,-124,-1517,2002,-5787
82,-106,61,-2493,4369,-4301
31,54,72,-1743,7351,-1754
-124,68,63,-3165,441,4586
-101,-102,-9,-5961,-1243,5622
40,-70,124,-4209,-3161,3553
50,-112,6,915,229,2386
70,49,76,7123,-45,-6322
29,122,63,-3358,3077,-3312
65,111,9,1396,-248,-142
-43,101,-87,1559,-1069,-877
-86,49,106,2886,-1987,-622
44,-56,111,4272,-4521,2452
107,55,-95,-1080,-802,7844
52,34,81,-2197,246,3502
77,-27,84,-580,-126,1590
-69,-76,123,-396,-2261,3645
-55,26,10,457,-3088,5688
13,-83,-53,1186,-2755,5423
0,26,99,-366,324,1134
118,-18,58,491,928,-2405
92,108,86,1009,376,-2419
93,101,97,-85,-207,-1319
82,92,93,-635,-197,-746
89,72,90,-283,-15,-698
96,78,79,-341,262,-768
89,78,70,-301,44,-412
84,102,62,-576,5,-66
94,-128,67,-758,45,107
102,-107,80,-470,-2,244
124,-92,91,144,57,323
-123,-66,79,-61,171,121
-121,-58,72,-112,145,-113
-116,-56,63,-216,206,-218
-118,-64,60,-138,184,-177
-118,-62,54,-225,182,-138
-113,-57,54,-205,115,-85
-109,-52,59,-101,112,-64
-103,-48,59,5,129,-111
-96,-49,58,31,18,-207
-104,-47,57,121,-257,-374
-103,-36,51,98,-181,-307
-97,-20,41,-206,185,-47
-94,-23,37,-165,317,-27
-92,-29,32,5,111,-125
-91,-21,28,2,26,-133
-82,-20,31,-36,89,-164
-85,-18,32,-65,88,-113
-82,-19,32,-40,95,-139
-79,-18,35,-106,118,-32
124,124,73,-132,5687,-5518
89,-75,-98,2372,1375,-4491
26,-87,-35,462,952,-4641
17,78,60,1113,1676,-5723
105,119,-93,-1731,3529,-4550
25,-3,-4,-1808,3991,-429
117,-86,-24,-3647,1017,4008
-81,-114,9,-5283,2886,3167
-43,12,-47,-4437,-1009,1226
-70,124,65,1542,-793,329
-70,84,26,5228,-93,-2875
-122,-59,-83,-564,808,-2220
90,108,-19,2233,-1576,93
-107,111,99,1089,-1767,205
20,-72,45,1280,-2299,25
65,116,32,-142,-4749,5150
48,-43,-121,-1421,-1741,4024
69,25,-17,-1978,-3066,4178
-58,84,-59,780,-4716,6301
-52,110,100,2584,-4355,7437
-4,-85,-11,2146,467,5245
74,52,-54,-2374,2586,-988
71,-122,8,-678,178,-3723
125,-105,90,2225,166,-2510
98,-123,49,1155,201,-1225
39,-66,59,-933,-533,-538
58,-120,77,-13,-72,-638
75,116,93,442,88,-252
79,-110,86,-427,66,-422
92,-94,92,-1183,189,-674
90,-119,126,-97,202,-293
92,-91,113,186,119,227
106,-62,83,-84,191,131
-115,-47,70,-28,179,128
-104,-39,53,-196,110,-11
123,-6,50,-823,-90,-77
-127,-5,56,-783,78,-398
-119,-10,61,-601,216,-458
-115,-18,65,-447,212,-387
-118,-15,69,-337,128,-206
-120,-9,70,-198,85,-38
-107,-2,72,56,103,36
-96,4,69,172,84,151
-93,13,63,92,72,47
-95,21,65,-94,87,-84
-87,18,63,-216,206,-115
-84,13,58,-165,133,-134
-84,7,58,92,73,-125
-82,9,55,-22,98,-156
-75,5,53,-42,94,-104
-6,36,28,770,2770,-6052
27,-92,117,-1547,4266,-3340
60,46,-43,-1640,3172,904
-67,13,95,-4582,2993,3602
-40,-122,-12,-3929,-3129,3185
-83,-50,-98,2035,-1088,4852
-40,15,28,3847,1167,-4577
-66,-73,-77,1216,1163,-2691
115,-121,39,1901,-60,-723
113,72,42,333,-2494,302
-4,-71,13,422,-3588,992
-39,0,109,2099,-5406,3756
-56,87,-43,2168,-6594,6123
74,117,27,-2390,-2518,2995
24,113,71,-2019,-394,1943
-76,68,58,2383,-1105,3404
-27,-26,-81,3021,155,3073
97,-105,121,3104,1243,3881
105,-34,121,496,863,3323
-73,16,62,-1154,-57,738
60,-65,68,46,-868,-2145
99,115,100,863,-291,-2064
102,99,82,-165,602,-1204
87,114,55,-1054,713,-313
78,116,50,-842,83,-339
101,124,65,-177,-139,-212
123,-99,64,-547,217,-515
123,-104,61,-430,242,-568
113,-108,64,-318,-27,-264
107,-90,76,-505,-139,-51
111,-74,99,-240,14,88
-123,-63,100,277,190,145
-109,-53,73,180,188,-28
-107,-49,50,-26,133,-181
-108,-59,45,-38,69,-181
-106,-59,53,-114,95,-77
-109,-52,59,-165,85,-35
-100,-50,69,-9,147,-38
-89,-47,64,-72,168,-84
-92,-47,57,18,97,-67
-89,-49,53,90,86,-35
-85,-44,50,5,106,1
-83,-44,50,129,33,31
-75,-33,56,25,114,-20
-72,-34,49,15,143,-125
-72,-34,49,-157,56,-131
-76,-36,57,-110,99,-127
-73,-39,55,19,141,-77
-63,-36,44,-27,94,-62
-61,-32,43,-71,59,-97
-103,-8,80,1557,5913,-4873
7,24,114,1187,2376,-4880
26,86,125,1807,1603,-3721
-19,86,-26,1132,1015,-4465
-31,44,-41,5,1913,-5027
-73,-96,-11,-975,3151,-3509
-26,99,61,-904,3293,-544
124,10,8,-1625,1783,3282
-39,-30,-24,-3719,2702,4106
122,-116,-82,-1671,-3845,1150
0,-53,71,2163,-2894,3752
-58,-16,118,5288,3914,-5835
16,81,112,656,2052,-2904
19,-84,-36,2180,-770,125
28,110,-61,659,-3370,320
-83,107,-7,609,-4477,839
87,20,-81,869,-5197,4945
-6,126,86,1498,-7349,8006
-113,47,126,-4661,-6010,7562
88,58,-45,-1731,-1529,711
32,-97,-8,4237,2583,-1108
-12,-29,125,4626,2108,8
-64,10,92,1553,267,1748
-115,6,107,450,130,-100
-93,-23,27,273,1344,-1398
122,-75,53,-9,248,-660
111,-116,77,-144,-391,-399
116,-113,86,-475,341,-441
100,-103,95,-214,394,-19
100,-88,115,192,-64,-222
117,-76,104,-266,83,-307
-127,-91,99,-58,339,-134
-127,-106,81,410,188,180
121,-69,84,-212,-130,59
-100,-44,103,-734,122,78
-91,-36,96,-688,236,19
-106,-33,81,-498,184,-208
-94,-36,72,-288,260,-170
-89,-52,57,136,134,-43
-87,-55,47,118,-94,46
-100,-43,51,-183,-109,-87
-84,-35,70,-305,162,-48
-72,-23,80,-244,196,101
-73,-12,82,48,5,-95
-76,-11,82,186,68,-402
-58,-19,96,282,463,-950
-52,-7,103,-88,453,-650
-55,-3,97,2,313,-406
-68,0,97,106,67,-239
-55,7,96,-148,-109,51
85,85,-98,-11,5650,-4499
-35,-69,-115,1606,2433,-2750
99,18,-83,2536,-330,-3454
-8,111,113,-812,2732,-6116
90,37,103,-703,3283,-4849
61,23,-116,-3715,3877,-547
-77,-4,58,-5688,1741,5254
122,114,44,-2817,-3036,3045
-98,-11,-26,-319,-3873,7270
-61,-4,77,3538,1937,-5384
-97,16,32,2342,1457,-2736
-8,91,-10,-1424,1374,-1960
2,-62,-66,3095,-3168,-228
0,-40,31,781,-2599,-567
-57,67,-126,1541,-3496,1412
83,89,30,507,-3701,3804
-53,-54,-92,-450,-4686,9471
30,80,-65,-2851,-2699,4481
75,-104,11,656,-2451,675
-37,39,43,1776,-1219,1183
-27,8,-112,1437,590,2008
-57,-98,88,1679,531,1541
-58,-101,83,1607,154,1458
-107,-82,45,434,115,-46
103,-122,36,-575,137,-1306
97,109,51,-535,165,-892
74,108,66,-100,-187,-298
72,124,80,-322,-212,-389
101,120,85,-186,322,-610
116,-109,101,-396,779,-1230
126,-91,-116,-467,337,-753
107,-97,-119,-288,67,-420
123,-107,97,222,214,70
127,-97,61,271,22,311
-121,-76,52,-179,-54,346
-110,-64,71,-159,-127,286
-103,-49,95,-146,-41,59
-106,-50,96,-32,175,-158
-107,-56,77,72,245,-200
-101,-63,48,-84,138,-149
-96,-63,41,-157,55,-45
-91,-59,40,-103,54,-56
-87,-45,51,-199,-29,-85
-81,-39,75,-226,-5,-155
-85,-36,94,-168,140,-224
-83,-48,87,53,253,-164
-79,-48,60,11,156,-68
-79,-47,47,-25,16,8
-76,-35,56,-65,6,45
-69,-29,71,-30,77,4
2,-54,-60,1203,5661,-4966
101,112,116,1492,2952,-4210
11,55,-125,3165,103,-3162
-78,19,-111,2185,205,-6128
-43,73,118,711,1884,-7541
-24,25,86,-3264,5219,-3188
118,14,-58,-2505,1317,3677
-52,57,-47,-4261,1234,5473
119,-68,-72,763,-5345,3231
-115,-96,11,1200,393,960
-35,4,-99,1627,1530,-3719
109,89,77,-92,1495,-2018
-80,120,-71,1783,-1575,-233
-84,-68,56,-288,-1507,-961
98,-89,-112,1741,-3377,281
11,-22,-8,-335,-2430,3353
-20,6,-1,139,-3167,2590
109,-126,-3,-2516,-1829,3112
102,65,-93,-1360,-2416,2005
-82,3,-125,-1376,-2918,1821
-22,-46,120,-449,-1800,911
-42,-81,56,316,-1666,2378
-46,82,-17,1754,-3,1491
-97,72,-18,732,46,697
122,44,-65,820,-456,530
99,-16,-106,429,-627,-12
115,-31,109,-118,-28,-272
113,-73,79,420,261,-131
107,-74,56,-3,132,-107
110,-72,61,-260,-38,-13
110,-72,72,-136,-88,116
108,-62,86,0,-106,89
113,-60,101,96,-74,91
119,-59,103,357,95,140
-126,-58,75,370,223,37
-116,-62,47,87,173,-50
-108,-63,33,-202,64,-22
-111,-53,48,-412,-83,-154
-111,-51,72,-430,37,-267
-108,-54,88,-315,184,-270
-101,-54,77,-217,262,-232
-105,-58,63,-40,125,-150
-95,-54,56,-58,94,-53
-99,-44,64,-28,53,18
-91,-37,71,-21,108,-6
-82,-31,73,-4,160,-38
-80,-29,66,-22,157,-41
-78,-26,56,-65,154,-64
-71,-23,48,-189,132,-115
-70,-26,54,-189,83,-128
61,53,-120,6255,4472,-5468
-48,64,-93,-467,2331,-7705
-77,-74,115,421,19,-4338
-1,1,117,-171,-249,-3745
12,121,102,-420,3471,-6488
4,-45,54,-2398,3151,-3439
89,-6,59,-2973,3367,475
-47,-111,90,-3348,-2405,6708
-55,89,8,-5274,506,3148
-16,-38,-10,-4471,-2324,3944
-3,96,-107,2860,1751,-4576
109,-7,-83,896,-843,-1608
-66,92,-56,-75,1472,-1289
27,-47,62,973,-2744,233
-13,-14,33,685,-4270,-22
48,-47,-37,508,-5009,2850
34,70,-33,-1047,-2526,2945
-42,-80,62,-1851,-538,2291
-9,-124,35,806,203,-592
105,126,-46,-605,-516,1141
67,4,98,-313,-1269,794
114,-45,80,-472,-1139,589
106,-113,38,-313,-1217,649
110,89,-42,-636,-1010,948
121,85,-73,-646,-681,1322
-111,35,-100,564,-204,967
-108,10,127,1172,-158,631
-120,18,126,494,-128,403
120,5,-119,171,-251,534
-128,-30,-119,120,-38,271
-113,-49,106,377,304,56
-111,-56,90,265,18,116
-108,-51,85,-139,11,-48
-107,-53,95,-193,72,-58
-109,-58,101,-175,36,-25
-97,-59,107,-111,128,-63
-87,-55,106,-23,147,-67
-90,-53,95,34,126,-118
-94,-52,82,-106,116,-139
-88,-51,85,-160,57,-66
-86,-48,96,-114,9,-35
-82,-50,101,124,71,1
-75,-43,96,52,118,-9
-74,-41,86,42,101,-33
-72,-37,80,-119,86,-61
-67,-37,83,-167,60,-98
-62,-37,87,-187,169,-142
-64,-40,83,-55,87,-170
-62,-46,88,36,79,-74
-57,-39,90,-16,116,6
99,-48,-69,-814,6463,-5605
29,-25,2,-27,3218,-3348
20,80,66,3493,374,-1938
111,87,-90,1564,2517,-5351
-13,108,45,1426,2945,-5618
70,68,62,-2177,6427,-4234
-70,98,-119,-3595,3415,2141
81,-32,-120,-7978,-5029,6052
-32,-106,76,-5853,-2924,1304
96,49,110,3584,-813,752
-30,124,-118,4779,2441,-4211
87,119,-12,-443,842,-2538
-102,105,13,1405,-2987,1213
91,101,72,-890,-4540,1513
-62,-68,75,-281,-5579,2469
-9,-104,116,-1045,-3404,3756
14,-17,-16,715,1499,-1515
32,52,118,379,1952,-3544
-20,111,9,-1964,-1191,-1834
117,-60,-60,-1029,-4702,938
50,-126,-61,325,-2855,4094
15,-88,-88,1625,-952,4319
-45,-39,38,1557,-981,2967
102,-123,-74,1514,-2071,-1354
-125,27,-87,486,-322,-1451
93,-54,-95,-365,-145,-232
50,-54,-107,-1045,327,53
61,-58,-78,-65,648,662
111,-26,-87,-173,599,559
121,-52,109,583,527,407
-95,-67,112,553,63,92
-98,-42,118,-83,-165,263
-111,-35,119,101,112,70
-105,-41,127,312,132,-156
-79,-44,-118,230,135,-371
-74,-60,-103,30,166,-631
-112,-63,-116,-622,85,-819
-113,-76,-119,-465,-7,-688
-59,-71,-120,-76,159,110
-54,-68,122,296,141,702
-71,-68,98,660,88,757
-72,-54,89,111,-196,535
-59,-52,107,-368,-196,5
-91,-49,116,-512,-327,57
-92,-61,-128,-130,-130,-355
-81,-58,-126,-195,306,-353
-74,-65,115,-147,288,-46
-93,-53,102,-226,24,94
-71,-28,98,-529,286,4
-44,-20,96,-212,208,137
124,-70,-127,1678,2368,-6880
-8,-33,13,1176,2597,-5822
-4,-81,-8,-4407,5087,-376
-78,120,-117,-1385,656,4004
-10,-127,-107,-4959,2093,5698
-42,2,93,574,-5001,1218
-126,122,38,2150,-611,2502
93,73,-28,3308,2371,-5102
73,-19,-90,169,2372,-3056
95,62,30,1253,698,-699
-70,25,122,1191,-1832,-480
-61,-115,-123,2493,-2519,-496
108,-30,-7,492,-1920,2456
114,-35,-94,-703,-3346,2915
28,-90,35,-2384,-3102,4183
11,-21,-77,-534,-1285,845
-54,-57,80,-2084,-4735,4285
-91,-32,55,1708,-4419,7314
-97,-54,0,2944,-727,4796
-14,-78,-125,1958,-784,-504
-15,-78,-125,483,898,-197
-106,-4,81,-2139,983,-745
59,110,94,-158,60,-2061
74,86,85,183,146,-1528
63,113,65,-535,104,-615
64,115,72,-487,-101,87
76,123,80,-108,-122,282
92,-115,89,256,-172,356
93,-97,101,124,-266,238
90,-97,116,735,-197,344
106,-104,91,817,221,123
117,-90,55,-122,422,-147
119,-96,43,-449,233,-80
120,-100,50,-35,37,-61
124,-87,50,-300,145,-285
-128,-95,62,-216,137,-253
126,-94,66,-98,104,-120
-128,-90,64,20,157,-20
-114,-82,50,71,125,-23
-110,-76,46,7,18,-52
-110,-71,54,49,79,-95
-106,-67,56,-62,143,-91
-97,-67,51,-116,139,-108
-96,-64,48,-158,128,-154
-95,-69,50,-29,111,-95
-92,-63,50,-22,112,-16
-90,-58,48,38,92,-38
-83,-51,46,-45,112,-68
-77,-49,45,-113,109,-104
-79,-50,47,-3,124,-115
-122,-36,-21,584,7158,-3749
-71,4,-40,1240,5260,-7111
-88,-110,-94,3517,-1479,-2215
-95,49,-18,-520,2117,-6006
-20,46,-53,2116,2722,-6194
8,-34,113,-1098,7000,-6005
115,-48,27,-4519,1700,3168
-13,-12,-15,-4111,-15,4858
1,55,3,-3808,-4209,1301
91,-82,70,5540,2110,-1759
29,61,91,2550,1583,-3177
-39,6,-84,-543,889,-1859
-24,-86,41,1728,-3271,-63
98,2,-55,466,-1999,-343
87,-127,56,1679,-3004,2265
35,109,-41,-135,-4622,3398
74,-37,-75,-125,380,2255
-95,-52,-15,-2935,-1253,2758
107,-120,-40,-1500,-2972,1839
-70,53,-82,-1475,-2422,1281
-68,-47,-120,-907,-2116,2001
-48,-68,63,-545,-1722,1727
-62,73,29,1668,-1300,1787
-97,102,-19,1722,-682,1337
-117,56,-102,1682,12,153
112,32,107,-120,232,-710
96,-27,96,-210,244,-389
80,-61,77,143,137,15
84,-58,72,-102,-14,192
114,-51,76,-247,59,244
123,-46,82,-214,-54,255
126,-45,92,-69,-128,-64
123,-49,101,31,-18,-206
-126,-48,108,-14,154,-75
-124,-42,96,-62,203,-30
-113,-42,82,-23,216,-135
-110,-49,68,-61,139,-136
-114,-49,64,-71,28,-59
-113,-45,67,-107,5,-20
-102,-34,76,-207,96,-37
-102,-30,84,-112,75,-104
-95,-32,86,15,144,-112
-88,-34,72,4,165,-119
-86,-35,61,-13,86,-85
-88,-34,60,-19,49,-61
-85,-29,64,-60,71,-60
-81,-27,69,-47,84,-59
-80,-27,69,-12,113,-79
-72,-24,63,-20,120,-97
-68,-25,60,-87,94,-106
108,49,52,-1508,4433,-3379
91,-110,27,-3460,4852,1380
-22,2,107,-4374,3293,1332
41,-107,-9,-4320,-5477,2403
-57,-114,-73,6108,-723,3470
52,-122,-71,876,527,-2964
106,25,-78,790,-780,-1034
28,-77,-70,-1041,171,-1531
-124,-7,-75,2409,-3863,653
16,115,111,1868,-3872,-282
88,-9,-124,1626,-3685,342
41,-18,-41,-2821,-646,2009
-109,-36,27,427,-3968,2962
-30,-96,-95,-382,-4327,2405
116,-89,124,-1429,-3159,2676
31,106,81,-401,-635,3220
66,-124,52,463,-799,3210
-58,-65,-1,236,-730,733
100,-94,-43,507,-233,-580
109,30,-85,1484,287,-515
102,13,121,408,296,-585
92,-8,92,-663,359,-680
85,-44,95,-452,248,-176
80,-60,94,169,-3,118
108,-42,98,106,23,-78
122,-38,104,41,198,-182
125,-48,109,326,56,-73
123,-45,106,272,28,99
127,-37,94,356,35,151
-127,-38,83,443,-74,171
-114,-42,75,222,46,19
-112,-51,79,17,53,-50
-111,-62,87,-16,85,-91
-114,-73,91,56,102,-70
-107,-75,90,145,116,-19
-107,-71,85,151,108,-1
-94,-68,73,216,108,-9
-89,-66,69,139,94,-52
-89,-68,69,103,88,-71
-91,-72,75,86,99,-57
-87,-74,76,105,74,-31
-85,-70,77,72,87,-25
-78,-63,72,-28,105,-86
-69,-63,70,-83,171,-116
-74,-64,63,-113,114,-138
-72,-65,63,-101,114,-115
-68,-65,67,-49,83,-84
-63,-60,68,16,96,-100
-60,-57,67,12,88,-114
-60,-55,66,-29,101,-97
72,-25,-58,2454,-516,-6211
-114,127,18,-400,2834,-6123
72,-52,9,-1814,5470,-1940
124,-99,103,-2254,2736,3588
5,-52,-91,-2683,1304,4264
36,96,-81,-2102,-2468,1811
-51,41,63,3475,-2424,1961
108,-53,35,1893,3727,-5166
30,25,123,-89,1267,-3543
20,52,-36,2949,-3219,-795
115,-33,26,-61,-1088,-1576
70,55,-122,3174,-3291,-763
-81,57,-32,1405,-3927,3436
-3,23,-100,-1388,-1276,2954
4,-127,-45,-2783,-3159,2259
-19,-40,-96,-595,-4779,1726
-50,-42,-114,-1695,-3278,2243
88,72,-64,1159,-1105,3012
-100,-54,97,887,933,2768
-75,-94,-66,2708,901,243
106,91,-128,1540,-136,-1961
117,-47,-114,677,-616,-1387
55,-107,121,-365,-570,5
9,-104,125,47,-307,1204
61,-95,-110,925,218,1409
-127,-51,115,674,521,1328
-115,-40,79,63,353,756
125,-70,68,-171,-374,-139
104,-107,70,6,-426,-732
112,126,70,96,35,-422
113,124,82,-91,-42,93
103,-106,92,-301,-44,302
117,-87,98,-231,108,153
-121,-82,77,-293,343,-336
-114,-96,69,-110,173,-529
-111,-105,66,-166,103,-390
-118,-104,75,-27,100,-87
-113,-91,71,-32,74,59
121,-66,61,-277,38,0
90,-58,41,-98,85,-53
-55,-71,76,365,20,336
-51,-37,67,15,17,120
-103,-27,55,-71,149,-433
-88,-65,61,244,282,-561
-105,-69,39,202,299,-403
-103,-88,25,111,146,-325
-57,-83,33,-244,116,256
-80,-62,31,-398,-69,295
-79,-48,43,-309,27,235
-79,-31,55,-33,62,151
-93,-53,-114,-1247,4134,-3952
120,-112,123,2849,-1092,-2646
127,88,-28,307,2981,-6845
113,44,23,-370,7240,-4760
75,84,-75,-4455,869,5279
-19,-81,46,-2455,-1323,4442
20,-41,-50,2198,-2114,731
-9,-18,-103,4380,1039,-2362
-12,-112,88,664,1426,-3709
51,114,-71,-1888,666,-1650
-25,-79,-115,1543,-1866,-675
12,-39,61,-656,-3066,-185
-106,19,-59,1345,-4299,2787
-80,-104,28,486,-3285,3418
125,52,-54,-1869,-1310,3872
11,-89,99,-2239,-1130,1142
-34,67,65,-1229,-1937,1670
-47,-67,-89,-180,-1919,20
-49,-72,94,-777,-1783,362
-58,-126,46,540,-389,375
-107,111,-18,363,-114,131
122,79,-54,164,-66,38
-126,76,-78,-299,71,-128
112,49,-72,98,-123,-156
103,6,-75,709,-181,306
123,16,-97,78,91,362
127,0,-118,56,-94,544
-111,-19,124,117,-209,520
-111,-24,120,401,-23,224
-115,-42,121,741,-133,146
-118,-52,120,433,-137,118
-111,-48,113,-152,137,15
-109,-61,101,68,134,39
-116,-58,93,148,8,215
-108,-69,96,398,-23,240
-88,-49,95,-103,20,21
-78,-59,104,36,143,-101
-69,-70,104,170,97,-242
-77,-52,102,-454,218,-451
-96,-65,106,-212,402,-353
-73,-82,101,223,395,-8
-77,-68,94,143,93,114
-67,-65,97,232,228,-5
-69,-80,92,610,-8,43
-67,-77,84,101,-42,-14
-61,-76,88,-358,6,4
-67,-53,101,-755,134,119
-55,-51,104,-155,225,160
-55,-42,97,204,43,39
-33,-42,84,268,78,-276
15,36,8,4122,3382,-6820
-13,124,79,932,4724,-5850
18,-61,-122,-4534,4969,1575
-42,107,117,-3135,9349,3525
-124,-50,0,-4227,-8270,5839
118,57,-42,-2839,-4914,6032
-51,-127,13,2558,3198,-5376
-51,110,-87,3569,664,-3718
48,-25,-74,-3411,2917,-3212
25,47,26,3444,-2472,-1153
-121,110,-12,2188,-1139,-1657
45,-82,-76,1500,-1059,-411
-30,66,-18,2607,-3570,2585
127,18,69,-36,-2706,4538
-14,78,-34,-1885,-3083,2054
-82,107,-38,-2649,-1240,1149
-124,-42,-34,-277,-2436,1580
-73,-92,-121,-107,-1304,1454
-115,80,23,391,-1252,1764
-114,32,2,641,-1138,1580
-37,1,-13,1342,46,1595
-79,-1,-25,1624,-346,1272
-128,14,-72,460,123,406
109,3,-120,-818,375,-309
102,-49,116,-503,205,-566
103,-43,95,-864,130,-413
103,-70,101,155,-28,52
121,-81,101,600,-23,200
-103,-86,94,614,154,104
-120,-80,98,265,-42,50
-116,-86,110,111,-68,58
-107,-82,121,-179,-38,-67
-122,-90,124,183,-58,5
-125,-91,117,197,1,51
-124,-97,110,217,-13,79
-113,-98,109,143,64,25
-113,-90,105,-42,121,23
-113,-71,98,-412,28,-94
-96,-68,93,-539,146,-234
-95,-72,82,-394,218,-315
-98,-78,70,-176,142,-238
-83,-86,69,205,91,3
-74,-82,57,156,93,50
-86,-63,56,-158,-151,76
-78,-51,73,-280,-92,-103
-67,-57,86,-144,-7,-191
-85,-56,82,-59,26,-173
-97,-53,75,-111,35,-168
-86,-52,80,-143,162,-64
-78,-42,81,-255,178,-29
74,-117,80,-578,5127,-3069
-109,27,-97,4114,908,-1535
-104,-27,-91,2884,-1312,-5262
-48,17,12,540,2533,-8516
-71,-39,-24,-1248,3704,-4626
48,-95,118,-3268,3045,-29
-100,116,-99,-3145,4624,3313
108,-89,-104,-5937,-4101,6081
59,-15,-51,-3941,-2439,3395
-80,-98,85,2614,1683,-4140
-103,-71,-100,2022,-539,-1889
-89,87,-49,716,41,-1494
-66,7,-128,629,-2045,-67
61,-15,102,642,-2040,-330
-56,87,-38,3712,-2897,1126
47,21,119,741,-3701,3584
-37,-43,85,-1089,-1177,4646
-101,-89,1,-1006,-629,1211
-27,-9,-74,-1381,-2163,2051
7,-108,115,-1280,-3656,2612
-60,103,-90,-1465,-534,1406
-39,0,108,719,521,1342
-36,8,113,670,-251,1006
-85,-5,-115,443,-1185,561
-96,-33,127,1063,212,-499
108,-42,-95,655,-251,-238
81,-58,-110,458,-88,268
107,-68,67,-467,576,-114
100,-91,58,-323,200,-9
105,-125,56,591,-158,358
115,-112,59,476,-254,293
119,-106,65,285,-71,168
124,-113,81,488,-34,41
118,-113,83,400,-22,-42
115,-116,75,265,134,-120
125,-123,61,14,170,-150
120,-119,52,-195,89,-160
121,-122,59,-53,64,-136
-126,-118,67,0,125,-91
-126,-116,61,121,147,-94
-107,-119,50,149,168,-86
-91,-117,44,25,59,21
-93,-101,45,-311,81,-26
-98,-91,50,-346,212,-182
-104,-90,56,-363,161,-285
-109,-90,59,-310,153,-176
-110,-91,63,100,117,24
-92,-81,57,355,55,77
-87,-79,46,480,167,-61
-71,-91,28,467,195,-122
106,8,36,291,5791,-2628
-127,12,-23,-756,3091,-5357
38,47,2,-637,2961,-4200
-27,47,-4,-504,-144,-1348
-76,84,103,1467,-270,-5350
67,-35,-79,229,706,-4932
-90,84,-90,-1658,5580,-2936
52,-128,16,-1329,6949,2455
-33,-43,-118,-7346,-1440,7222
-57,-127,-95,-2375,-3601,2739
-60,71,-39,-77,791,-139
17,0,-80,1726,2314,-5405
-45,122,-35,-72,1551,-3440
30,-8,-61,-1386,-4222,1091
-64,11,-119,1759,-4103,-1032
-125,-50,-71,1974,-1938,186
48,-44,82,1498,-1819,1837
16,92,-11,-318,-1315,1405
-46,-90,102,-2121,-1369,710
88,8,18,-471,-3153,986
116,-31,-67,-1070,-3254,2077
-38,-96,-85,1019,-743,1940
-47,114,-109,1528,60,-517
109,-4,23,-491,211,-1619
90,-49,-22,-1496,686,-520
100,97,-74,223,414,824
125,11,-111,1163,-485,924
106,19,111,448,-402,-490
113,30,126,-495,252,-915
114,53,-118,-768,359,284
124,31,-115,666,270,362
-114,29,-121,981,133,585
-80,6,121,965,131,228
-87,1,115,243,80,-159
-97,4,124,-323,39,-443
-88,4,-112,-772,-237,-397
-86,44,-110,-1574,-117,-893
-92,11,-99,-426,1,-549
-128,22,-105,-308,-167,-204
-119,48,-106,-589,183,20
-90,35,-112,323,547,279
-69,22,121,1007,411,299
-65,25,112,414,178,-57
-52,25,107,-312,106,-222
-74,9,113,-436,-226,-220
-68,11,-122,-291,-44,-253
-46,7,-111,78,332,-55
-52,17,-116,23,118,-46
-50,29,-118,-287,166,-205
-63,25,-125,-235,159,-275
-101,-95,110,1764,3881,-3803
-38,80,-77,2463,-553,-1528
-84,-120,-114,1699,-28,-3915
79,103,-33,87,835,-4189
14,106,50,-1188,4892,-3640
-99,-107,122,-745,5166,-260
3,-42,-127,-4253,3469,3299
-50,120,120,-3359,-1293,3746
78,123,-29,-3917,-5369,5255
-22,-97,-83,2606,1771,-4067
-73,91,22,5752,1669,-4646
-89,-24,-122,-60,1088,-3045
49,54,26,3736,-3366,1520
-39,-112,22,-1244,-2823,544
110,23,-60,-709,-4329,3493
-69,-103,101,-1106,-3638,2689
-116,-3,-56,-1358,-3244,1041
-23,121,-47,-2276,-1325,1678
4,117,-46,966,-3004,2831
-97,88,126,1208,-813,4182
37,-68,66,2975,-410,4197
95,-38,-22,2268,392,2547
15,20,127,341,1916,-34
-114,-85,99,1227,333,-319
99,65,106,1544,-889,16
111,98,106,-545,-432,-168
112,119,103,-1522,275,-358
113,124,106,-1384,433,-437
117,126,118,-290,-66,-120
127,-119,-123,15,-262,-394
-120,-107,-113,-242,-82,-801
-113,-117,-105,-416,-43,-798
126,-115,-98,-413,89,-813
127,-114,-119,-111,332,-126
116,-85,109,-287,149,259
119,-71,89,78,173,317
-114,-77,80,926,-15,360
-103,-78,81,551,-120,215
-34,-85,86,-179,263,-158
-47,-70,107,-1052,-57,-606
-81,-74,-123,-549,172,-779
-90,-97,123,380,343,-221
-114,-80,107,400,39,63
-121,-60,102,179,54,66
-94,-70,-126,881,-107,435
-63,-60,111,449,408,266
-69,-68,77,312,255,193
-17,-50,91,-1061,29,-368
-10,-39,119,-1382,418,-769
-69,-54,93,-364,365,-500
