AccX,AccY,AccZ,GyroX,GyroY,GyroZ
5,-28,114,-419,-1160,-6982
-51,56,-114,46,-1384,-6253
57,-98,-24,1186,-3038,-5346
104,-62,-61,722,-1994,-3785
59,-102,42,228,-564,1319
-90,119,-119,-1473,1507,2576
53,-60,5,494,3046,4212
-35,-11,36,907,3975,4654
-100,-81,-25,-176,1917,3227
-120,15,73,-2714,-73,293
95,-66,108,131,-735,2076
95,99,-121,217,-938,3440
68,-85,-72,-501,-1286,3847
-108,-7,-32,239,-868,4224
-59,59,-50,1174,-178,4168
-26,-94,-22,-384,-445,4316
-26,-92,20,923,-588,4641
48,-86,33,1589,-375,3980
18,-44,52,34,3,2760
-60,92,28,2153,-165,2151
107,79,49,1578,-357,1484
65,28,43,707,-183,261
37,-40,45,437,26,-251
32,100,47,777,206,-462
53,71,34,570,206,-546
80,-5,26,1435,48,-541
112,0,16,-359,115,-996
111,-29,18,-797,-318,-1137
79,-121,50,338,-352,-384
78,-74,32,-168,191,18
87,-39,10,-449,129,265
88,-6,6,-355,-152,206
94,26,-2,-315,130,401
86,61,-10,-360,-17,173
83,75,-11,-358,2,215
95,94,-15,-161,62,45
89,79,-16,15,12,30
88,83,-18,-186,65,58
94,76,-25,-90,38,120
82,90,-26,-227,-87,90
96,88,-22,-96,184,222
97,100,-38,-20,53,125
98,107,-35,-159,-23,188
100,113,-39,-63,111,187
95,118,-41,-100,119,181
-120,120,-42,-64,182,236
101,-117,-52,-115,-154,102
103,-125,-33,-144,132,85
120,124,-46,47,266,209
124,-112,-55,-194,-41,174
-89,-128,-18,-2897,1212,-4426
-39,51,20,-221,1946,-3490
86,78,-56,-432,1635,-5306
-30,5,-107,-358,389,-6146
46,-127,-118,-385,417,-6795
92,7,127,-165,-1328,-7114
102,-117,-112,746,-3850,-7763
62,-128,124,1335,-3315,-5414
-86,-10,-83,86,-514,926
-24,13,106,457,356,2254
66,-35,92,-777,3080,4640
84,-51,-127,1251,3820,6065
38,95,31,-838,2410,2415
-79,-8,-8,708,433,1215
30,-93,114,285,-71,2712
88,-90,106,-1336,-205,2323
54,-68,-59,-309,-1567,3556
103,-44,-39,814,-614,3948
122,69,-46,813,43,3811
-104,-84,-50,-84,-293,3494
-108,108,9,889,-384,3473
-95,-94,51,-81,-73,3359
-87,90,33,1481,355,2742
-105,106,47,1001,-160,2351
125,73,9,905,-79,997
73,52,45,-91,-412,-8
73,-83,47,767,-14,-261
34,-124,59,504,-227,-266
47,87,50,-43,171,-342
65,59,42,-178,61,-480
94,32,17,24,90,-446
99,15,-2,-169,19,-480
91,-4,-7,-105,-60,-387
94,-6,-1,-65,30,-84
92,10,-10,-140,37,11
83,22,-6,-246,56,276
92,37,-13,-179,110,305
93,63,-18,-208,97,515
96,99,-29,-357,7,370
95,105,-25,-8,70,319
96,-122,-36,-170,131,143
95,-127,-37,-83,-28,70
95,-124,-33,-142,-12,88
96,126,-37,-12,85,-33
101,121,-39,-162,40,-32
105,113,-39,-154,-36,10
105,112,-35,-110,60,40
112,109,-39,-85,109,78
109,112,-47,-97,4,160
112,123,-45,-159,61,174
-30,-77,-101,-768,1896,-5351
77,-46,112,-950,539,-6292
-123,114,90,-193,-1043,-7415
-118,21,48,-561,-2017,-7578
45,100,-127,1895,-3711,-6986
-28,94,-91,364,-2915,-4747
-21,-68,2,601,-570,434
46,-21,124,-578,1307,2527
-102,-50,67,112,3847,6789
-89,-29,20,1414,3620,4963
94,-112,-115,-398,2906,2836
-86,-24,-45,388,-156,1408
98,-87,100,1704,-1234,2664
67,88,-123,-1187,-1417,2469
18,111,-89,-966,-485,3023
69,-90,-37,1098,294,4255
104,94,-32,165,131,3913
-75,-103,-5,1254,550,4112
-9,81,-57,1932,1376,3788
-57,121,-6,318,-133,3290
-81,54,43,426,-778,2815
-97,43,55,574,-347,2038
92,91,67,206,-258,683
49,-1,53,876,-243,-189
50,-99,58,1223,138,-454
57,71,34,509,265,-709
59,33,43,-178,-228,-668
74,-31,48,-194,-96,-683
89,-59,37,-145,108,-350
92,-61,25,-96,113,-240
87,-40,11,-294,19,-64
94,-19,-2,-220,200,-334
92,14,-6,-83,218,-162
82,30,-10,-190,-11,282
76,52,-23,-272,-120,422
78,62,-20,-343,-99,217
87,61,-20,-227,188,28
121,79,-26,-14,899,-657
116,71,-20,296,314,221
94,85,-18,-101,-363,388
86,94,-25,-539,-276,79
100,82,-16,-269,208,61
104,82,-23,126,156,286
115,107,-41,-196,101,94
113,109,-46,-169,42,140
113,102,-44,-38,27,184
109,105,-47,-82,79,147
118,113,-45,-94,90,138
116,116,-45,-38,29,157
120,121,-45,-100,64,137
63,101,10,-827,2394,-5254
-81,-46,-102,-549,1860,-5557
-28,32,78,-743,881,-5408
-3,42,74,-512,-546,-5776
86,18,78,375,-1231,-7466
125,23,45,-12,-4617,-7336
-47,68,-111,-31,-888,-3523
-93,94,-73,1310,-442,-1091
68,-44,87,-1092,2199,3739
-67,-74,6,-541,2695,8889
16,91,26,491,3007,5127
71,-115,87,-792,2660,1163
114,10,77,66,-192,1386
81,-65,-93,1167,-544,1954
62,68,-18,31,-761,3348
89,118,3,390,-188,3419
107,-9,24,-658,-159,3505
-101,43,-30,321,208,3613
92,-102,64,-1548,-1264,3193
-47,-119,10,-1030,681,2690
-101,111,28,1299,-470,3383
-90,118,46,1397,-313,2609
115,57,38,1292,-254,2321
89,18,74,851,-858,1729
88,-2,87,101,-274,766
68,-44,83,-284,-26,-52
55,-125,88,505,-76,-197
58,112,85,-146,-48,-405
85,54,61,-86,146,-459
98,20,39,66,122,-395
113,26,23,-373,86,-417
117,-13,-3,-42,153,-318
88,5,2,-274,-134,124
89,10,-3,-44,108,283
107,47,0,-96,59,265
110,74,-11,-409,101,107
108,66,-7,-1,0,281
111,70,-13,291,121,301
107,92,-18,-47,40,215
104,97,-18,23,43,265
115,72,-29,632,204,233
118,77,-36,446,47,162
116,82,-30,-232,-103,48
115,71,-24,-278,-49,58
113,62,-22,20,53,166
114,77,-25,-108,101,215
121,97,-32,-165,4,179
127,100,-30,-107,39,174
115,103,-32,-34,106,142
119,103,-39,27,159,132
-121,53,-120,1400,-3128,-7270
52,-116,-22,1831,-5277,-7574
55,-78,-55,-184,-2994,-4881
35,110,26,497,317,477
108,75,94,-705,1497,4170
-51,41,5,26,3509,6971
-2,75,-46,1283,4695,6104
62,-115,97,-688,1527,117
-7,-21,89,-1396,-1934,-155
44,93,-61,423,-267,2649
41,88,5,-248,-620,3551
87,-124,-27,-156,-585,3733
123,0,-35,-486,-325,3722
-77,52,-63,754,598,4014
-53,-118,-50,285,-108,4225
-62,-122,-2,968,-29,3215
-39,77,24,929,-2,3693
-35,67,51,870,-38,2645
-113,74,115,-213,-898,1912
124,17,96,206,-206,1249
51,-15,102,580,-116,529
43,-61,87,647,24,90
39,-105,57,351,178,-47
48,-98,27,-1158,-218,-691
101,86,36,-240,190,-1125
105,-46,48,1634,214,-494
115,-76,53,999,266,-3
-127,-32,30,-491,169,-250
117,-18,24,-949,-208,-339
123,-21,7,-248,79,87
112,15,5,-194,94,29
101,21,-1,-158,132,332
105,62,-12,-442,-11,384
111,80,-13,-166,90,214
113,104,-12,-278,60,205
114,103,-17,-29,42,68
120,102,-18,-49,68,21
115,96,-27,-66,9,11
109,93,-20,-190,-38,62
114,98,-16,-154,46,71
122,106,-17,-162,33,29
118,104,-16,-96,49,39
127,100,-19,-43,144,94
125,110,-28,-186,18,126
123,112,-28,-153,71,161
-128,118,-29,-121,77,137
-124,-123,-30,-137,45,135
127,-127,-31,-31,72,126
125,-122,-36,-125,117,175
-125,-110,-43,-105,76,135
-10,-81,-29,1056,1828,-5164
-6,102,-96,137,1393,-5278
86,43,92,565,165,-6511
58,12,78,1342,-3275,-6754
-123,6,-34,1167,-5462,-7135
111,31,63,-364,-1285,-2688
-122,-127,95,676,352,2002
102,42,73,-201,3154,4427
92,-55,-99,475,5602,7367
34,41,27,908,2388,2973
-20,43,-73,908,58,1228
83,78,98,-115,-989,632
6,63,-109,-1075,-590,2052
10,-44,21,29,-292,3768
94,-110,-27,-870,174,3201
-98,24,-9,-127,136,4112
-61,51,-26,549,409,4116
-13,-109,6,-104,-284,3699
0,75,24,794,581,3378
-34,73,11,875,-512,2688
-102,35,73,10,-689,2275
-111,-18,72,751,-277,1615
118,-38,88,1042,76,926
70,-11,95,-241,-97,48
40,-95,115,299,-183,-315
91,99,87,285,557,-587
113,8,48,402,525,-563
123,-26,24,220,265,-349
-126,-44,7,-39,32,-150
125,-31,2,-379,-49,-117
-125,-30,0,-121,47,-61
-126,-8,-1,-38,79,131
-126,14,0,-200,-119,96
125,28,11,-215,-165,134
124,38,21,-111,24,188
119,53,17,-136,75,139
120,55,12,-71,55,152
122,62,4,-55,156,158
125,68,-3,-97,159,25
121,63,-16,-137,47,170
-118,81,-17,-238,21,231
124,98,-19,-105,-24,93
120,92,-19,2,202,116
-123,92,-23,115,92,218
-116,113,-26,-195,-40,-8
-122,99,-19,-105,17,-46
-123,86,-16,-85,97,79
-122,99,-22,-146,68,67
-117,106,-29,-116,91,123
-115,113,-32,-126,58,139
105,-39,67,677,-2086,-7751
-112,4,-83,684,-3982,-8481
80,-100,-88,1573,-3527,-5547
-119,62,-96,63,-187,403
82,-90,123,186,1707,3662
-82,-35,21,-55,3267,5571
-84,87,-29,1106,4632,7001
80,-29,-3,-1391,1352,2601
-34,53,20,-2557,-403,-357
9,3,-95,217,-1157,1543
41,-51,-5,-378,-677,2132
46,-47,32,-172,-1035,2817
95,-13,28,763,-502,3301
124,36,38,1399,-19,3397
-117,96,28,395,-484,3521
-101,55,3,1121,77,3366
-74,104,39,-481,-403,3293
-122,76,50,-9,-122,2757
-92,7,95,1507,-162,2696
-125,-20,76,1325,-297,2254
97,2,115,-352,-200,1712
102,4,104,-684,202,43
51,-39,110,112,-341,85
58,-111,95,9,-24,-220
73,119,73,-443,-393,-723
79,43,63,-26,-313,-473
113,-4,39,195,410,-604
107,-11,20,51,310,-535
121,2,6,-275,18,-253
114,-1,-2,-165,-2,-111
114,9,0,-129,140,86
111,27,-6,-128,67,222
122,55,-4,-117,152,304
116,79,-9,-203,24,337
113,99,-3,-271,42,268
116,109,-4,-65,141,166
112,121,-7,-72,98,140
117,122,-5,-56,46,122
115,121,-8,-32,88,78
117,109,-16,78,169,82
122,114,-22,-93,71,30
124,111,-25,-131,70,11
-123,102,-33,-43,170,84
-97,119,-35,-146,37,106
-118,115,-34,35,-22,23
127,115,-22,-235,58,50
-112,109,-24,-24,150,257
-107,-117,-33,-95,23,158
-123,-117,-30,-136,26,156
-121,-121,-24,-67,146,195
-27,54,19,150,2853,-5020
94,-35,-102,280,1719,-5194
-84,106,115,774,389,-6037
-18,119,97,-72,-1515,-7970
-94,-40,-108,1308,-3778,-8069
12,-75,90,1289,-3779,-4616
39,83,-115,-288,-877,-593
-100,-94,105,-912,1863,3595
-32,120,-15,449,4098,7802
5,123,-98,555,4084,4896
32,-118,88,-566,1088,883
59,-93,88,1060,-922,1143
13,-79,-56,160,-951,2402
27,-123,28,-867,-555,2530
85,-94,0,711,-119,3495
91,-6,29,677,-550,3756
-79,64,-44,122,565,2853
-96,44,-34,169,234,3108
-64,14,-10,1037,321,3312
-63,-16,-30,2742,563,3701
-80,49,22,625,326,2744
-99,-32,-7,81,572,2353
-112,-76,60,472,-259,2413
122,-42,62,198,-273,1218
75,-37,80,-117,-235,47
73,111,94,417,274,-522
90,25,90,1373,395,-846
74,-36,90,1091,53,-451
83,-48,77,-615,2,-341
101,-66,51,-635,-38,-186
113,-66,37,-330,14,-184
112,-58,21,-303,0,-154
113,-46,14,-336,14,41
110,-43,4,-107,37,27
101,-18,7,-389,-68,185
104,-8,3,-269,-26,215
98,25,-3,-466,-42,247
98,29,-5,-282,-65,312
92,52,-2,-280,-23,312
83,95,-11,-415,-13,100
95,92,-7,-171,0,-17
97,79,-9,57,100,-50
96,73,-18,-157,72,-59
104,74,-27,-189,77,9
104,90,-40,-271,-59,-128
86,81,-31,-326,-46,71
94,87,-33,-183,149,116
103,104,-38,-39,94,105
107,108,-44,-42,57,60
87,105,-42,-153,55,83
-94,-95,-26,-376,-1816,-8168
-96,122,90,382,-4358,-9415
-67,98,108,2390,-4257,-7168
9,-113,-25,-486,1459,-1637
39,-4,98,-708,1251,4199
6,-70,25,-106,2959,7921
-12,-97,1,1691,4913,7640
-128,2,-55,-964,2166,2567
-4,38,23,2487,221,1938
97,-126,99,833,-679,2445
48,-101,-91,-2617,-668,2410
57,120,-45,-102,-579,3332
127,-49,-60,783,391,4209
99,92,-14,8,181,3694
117,62,-51,947,254,3753
-98,77,2,142,495,3511
-78,24,-86,543,1171,2988
-75,10,28,1569,-260,3394
-79,55,14,-183,-151,2004
110,53,62,-31,-383,1021
67,-34,57,1028,59,283
41,-71,67,776,31,-404
47,106,60,711,128,-567
72,36,49,257,108,-761
93,-16,39,113,71,-734
103,-32,38,-390,-212,-663
74,-51,64,-855,-505,-352
88,-60,38,-321,255,-88
90,-37,15,-213,350,31
89,-11,-10,-114,81,114
93,6,-13,-271,50,223
87,27,-14,-193,65,239
90,42,-13,-106,178,291
87,63,-19,-111,90,311
88,72,-16,-140,46,263
87,94,-24,-221,12,160
87,95,-20,-67,4,148
87,106,-17,-62,6,10
87,92,-19,229,-373,-396
87,88,-17,72,-75,-89
92,74,-27,-195,390,94
89,77,-37,-46,137,150
90,92,-44,-64,54,31
110,88,-47,37,239,63
109,95,-53,-136,58,190
94,117,-48,-327,-41,188
105,103,-44,91,194,119
103,126,-46,-304,57,113
100,121,-45,-138,35,109
104,119,-47,-73,220,96
-16,58,98,-902,-4249,-9512
94,10,-45,617,-5076,-8394
8,-128,43,909,-279,-2874
8,50,82,1055,1073,2399
118,-114,50,-631,1946,6844
104,-85,39,3403,4563,7153
37,48,-47,-320,3847,3838
-28,117,123,712,1124,2933
-94,69,110,42,-829,2306
121,-70,-126,-1266,-922,2178
79,-11,-83,-1142,-509,2166
105,-76,-47,1163,19,3939
77,84,-23,211,361,3504
-107,32,-54,942,1038,2995
-76,58,-48,580,951,3554
-69,16,-51,934,958,3256
-60,-2,-19,1018,362,3168
-104,26,14,221,-148,2375
126,72,51,-808,-446,1299
76,11,49,24,-329,260
73,-76,58,1025,-45,-337
63,108,54,727,112,-498
81,30,37,298,89,-652
103,-33,39,361,-18,-628
108,-58,37,-121,-90,-455
102,-67,27,-433,-73,-182
98,-57,20,-311,-137,-86
102,-46,24,-181,93,49
98,-7,7,-113,185,166
97,16,3,-357,58,250
95,49,-7,-378,24,178
95,53,-9,-168,182,221
98,72,-21,-210,133,119
93,78,-24,-135,-30,110
99,78,-22,-154,125,51
99,75,-26,-2,89,33
104,83,-30,-264,43,63
103,79,-30,-89,13,53
104,82,-27,-59,136,82
107,93,-35,-139,82,82
111,99,-36,-108,43,62
111,96,-35,-2,142,76
113,106,-39,-220,71,99
114,112,-41,-193,46,125
112,121,-41,-129,110,108
115,123,-43,-7,63,50
118,124,-40,-143,109,103
121,118,-49,-56,108,133
119,-122,-49,-264,58,159
120,-115,-51,-95,99,134
3,-114,-39,896,-2101,-7574
94,80,18,-252,-4325,-7785
93,94,-80,36,-4411,-7723
-47,78,-87,457,774,-1744
-106,-50,109,-95,432,2273
119,-75,4,-684,2368,5981
53,100,56,747,3229,7464
55,-54,116,355,2545,4297
-56,27,124,-1003,574,531
87,59,-124,2583,689,3036
44,-78,-75,675,243,2163
8,-84,-34,-594,-904,2868
48,-114,-65,124,-602,3585
63,-10,-51,-13,8,3426
94,73,-27,413,275,3298
-121,21,-53,1449,1039,2946
111,58,-24,710,512,3056
-128,6,-10,928,596,2647
101,-55,10,675,498,2659
117,-47,54,274,171,2455
-123,-38,45,174,266,1701
84,-15,70,-15,-134,832
58,-74,72,515,-18,59
59,118,76,668,173,-390
62,52,66,441,209,-418
82,0,46,-115,184,-528
91,-43,38,111,36,-407
103,-64,33,170,33,-265
100,-73,26,106,36,11
88,-63,25,-206,1,76
93,-30,21,-444,47,191
91,-6,14,-257,33,255
88,20,11,-388,-8,182
89,36,13,-324,24,197
89,59,4,-240,20,132
90,62,0,-203,23,54
83,61,-6,-210,-4,34
89,56,-11,-20,93,20
91,49,-20,-14,71,23
89,51,-18,-82,-13,110
91,62,-16,-135,9,108
88,66,-13,-33,38,140
93,79,-16,-110,92,122
93,93,-25,-224,11,111
96,93,-30,-118,13,77
100,99,-37,-172,26,61
99,99,-35,-194,7,102
101,101,-40,-204,9,116
105,115,-43,-322,1,110
98,123,-48,-207,-32,90
64,-68,11,-1025,2113,-6287
-57,53,-31,-189,-954,-7305
39,77,-43,-1830,-2050,-9035
2,-31,80,1136,-4028,-8793
-54,100,-114,-138,-3919,-8407
41,-22,105,1382,468,217
-1,-10,93,-1186,908,3326
-10,-63,-8,668,3274,8705
-36,-48,-8,1335,3971,6615
64,2,-86,-1013,2014,1565
99,-78,37,317,-802,2358
58,-84,-109,1477,-840,2930
20,-20,-32,-838,-340,2509
60,-103,3,473,137,3123
89,-9,-7,845,373,3441
-122,29,-27,-211,585,2955
123,54,-35,-393,195,3139
-79,7,-1,1597,390,3465
-98,83,18,171,438,2779
-126,69,41,418,107,2485
-113,-3,55,1647,555,2262
-112,-4,65,742,719,1532
102,-63,29,411,282,1323
61,-67,48,-217,-247,709
77,107,56,292,174,268
79,92,64,239,141,131
70,57,47,148,45,8
93,32,42,-44,92,-87
110,30,39,-19,45,-117
111,23,31,-167,-38,-137
127,15,18,-408,-11,-317
111,-4,8,-197,-121,-286
112,-3,17,-242,-21,-195
-126,-7,15,-74,15,-109
122,11,21,-437,-157,-124
125,5,23,-173,133,-95
123,11,12,-212,133,-15
127,18,-2,-169,128,52
-128,43,-12,-289,144,254
-125,69,-20,-133,123,160
123,89,-29,-312,24,155
127,87,-19,33,105,217
124,95,-23,27,190,201
119,113,-26,-162,3,182
-127,116,-20,-3,90,188
-128,120,-20,-23,120,153
-126,-126,-21,-115,26,106
-124,-127,-14,-7,112,53
-120,122,-17,49,169,56
-116,126,-24,-132,73,79
100,47,-65,-1513,2981,-4404
-126,92,33,1679,2340,-6196
-29,37,72,833,-1034,-8436
93,-110,108,1202,-3417,-8811
109,29,107,116,-4393,-8775
104,-27,81,11,-326,-838
-3,-49,90,-232,789,2543
-69,-63,31,507,2730,8278
-111,-127,42,1949,3185,6013
-19,-62,-113,-1420,1164,658
20,-94,75,954,-168,1271
-28,68,-112,1279,-228,3096
-17,23,-21,-664,1,3430
29,118,-27,343,168,4252
95,-18,-43,170,771,3730
-93,111,-64,373,853,3683
-70,108,-55,218,549,3317
-77,115,-46,970,270,3247
-88,101,-19,184,91,2861
109,79,27,297,55,2436
124,25,38,743,395,2305
100,23,58,15,52,1587
113,45,49,267,129,404
69,-52,57,809,-99,-208
56,-121,65,436,-29,-424
80,76,66,280,156,-349
83,19,53,117,-4,-268
104,-2,43,-87,75,-348
115,-4,45,-172,132,-230
116,-14,24,69,141,-175
110,-18,23,-68,74,-21
113,1,15,-199,125,190
117,34,4,-176,-3,176
114,41,5,-146,106,167
108,59,4,-242,38,219
114,77,4,-142,66,154
121,79,0,-60,33,57
114,80,1,-161,14,84
121,77,0,8,156,81
117,88,-5,-196,37,48
124,82,-8,-2,135,19
127,77,-15,-75,97,37
124,82,-15,-176,107,175
-121,97,-22,11,158,120
-120,97,-26,-61,106,79
-123,97,-24,-82,71,137
-122,109,-26,-39,115,111
-119,108,-29,30,140,107
-114,114,-31,-121,46,111
-115,118,-28,-114,73,118
15,68,99,-130,-989,-7889
-15,-84,-50,1339,-3225,-8553
-50,108,-119,1500,-5513,-7609
42,126,92,-534,-1293,-4866
-111,87,109,813,1703,2829
-4,117,21,-2003,1914,7126
-104,-41,-22,1735,4343,9364
100,27,111,218,2895,5036
83,124,105,2597,2175,2961
103,73,82,-1220,-868,1779
40,-123,-97,-4,-1458,3016
86,-1,-89,-2249,348,2093
71,-31,-30,613,-129,3574
-124,31,-69,835,923,3427
117,127,-67,-988,5,3323
-86,27,-38,2171,585,3419
-50,58,-53,1195,973,3476
-95,109,30,-389,-541,2695
-89,83,18,-30,30,1843
88,102,75,-50,-562,743
73,-12,61,910,68,14
58,-75,64,683,116,-207
61,92,55,322,21,-328
87,63,50,-55,29,-466
107,15,41,130,102,-472
109,-21,39,171,9,-360
100,-27,33,-25,93,-137
112,-22,15,-144,182,-6
112,-6,7,-140,87,140
107,11,0,-243,48,233
107,36,-3,-171,165,286
112,61,-8,-199,260,201
113,67,-4,-106,150,219
121,84,-8,-120,109,113
117,83,-7,-45,16,62
122,71,-4,59,73,59
120,80,-13,-159,38,65
123,78,-11,-181,-7,63
123,81,-13,-86,148,90
127,90,-19,-146,107,82
127,93,-22,-161,26,93
127,95,-24,-90,126,62
-124,98,-30,-172,64,113
-125,105,-32,-258,19,144
-120,116,-32,-284,68,134
-115,124,-34,-232,60,166
-119,-119,-32,-251,41,108
-120,-116,-33,-204,89,78
-120,-114,-36,-142,72,69
-120,-117,-38,-124,56,48
112,61,57,-851,-1043,-6641
-29,30,63,-452,-1832,-8004
-52,0,-109,640,-3230,-8752
-96,72,-86,1814,-4637,-7829
28,-35,-121,-230,-163,-2907
-53,-114,82,1074,1563,3266
-33,-91,49,-1605,1303,8503
-52,-12,58,2989,6077,8964
62,-22,91,202,3251,1785
-127,74,0,-21,235,1276
32,-126,119,1348,-337,3440
46,75,-91,-193,36,3597
15,-108,2,-484,-21,3287
105,-63,-78,-132,998,3632
-127,-12,-70,467,390,3935
-99,63,-60,123,622,3785
-68,62,-65,504,833,3488
-86,49,-41,624,368,3392
-64,-4,-49,904,640,2902
-102,124,64,-1525,-699,2313
-118,50,22,64,122,336
85,-2,69,1281,-166,-43
86,-60,70,1019,223,-713
58,80,60,1000,167,-1130
48,29,71,128,-78,-467
58,-5,41,-157,89,-13
100,13,24,-434,77,-170
117,21,14,-451,-106,-186
116,16,21,-210,-116,-177
98,5,19,-8,-78,-216
92,8,23,-265,81,29
97,18,14,-327,111,204
102,54,5,-346,110,252
102,67,-3,-260,83,309
107,81,-5,-91,122,282
110,97,-19,-175,107,202
107,108,-13,-264,-100,142
113,104,-10,-43,115,76
106,106,-3,-417,-52,14
101,99,1,-440,50,264
111,110,-10,234,244,184
-126,127,-36,21,224,89
-126,127,-41,-104,-41,52
121,121,-31,-64,55,40
-126,116,-25,67,177,103
-126,123,-31,-39,24,52
-125,-127,-23,-215,10,60
-122,127,-16,-136,51,118
126,-115,-16,-286,111,141
-122,-105,-29,-21,231,87
-42,-100,117,-766,2507,-5425
-102,42,48,537,1839,-6505
30,-10,87,137,-641,-8596
-64,-39,-83,-697,-1895,-10368
35,-80,63,2466,-3162,-9056
-67,111,-73,1028,-3407,-6154
21,56,115,-52,282,-26
64,6,10,-1272,675,5400
58,-23,-43,937,2602,8966
36,-94,-34,2377,4990,6297
-87,-25,-81,-1561,446,-727
-29,65,57,-136,-266,1228
-18,14,-105,2427,-292,4294
-1,110,15,-50,139,3801
93,-88,-27,-99,695,3931
109,49,-50,-241,159,3775
-87,96,-54,-262,679,3342
-105,68,-48,714,383,3427
-103,74,-16,519,520,3404
-68,36,-21,1136,485,3102
-100,40,5,411,177,2649
-107,39,54,-127,-75,2014
113,18,61,416,-111,901
83,20,83,-65,-213,197
66,-79,75,325,-50,-388
58,120,60,260,-15,-500
78,56,53,397,86,-407
98,-1,36,468,34,-329
99,-14,42,-157,-159,-489
109,-22,39,-484,17,-253
105,-22,32,-171,60,-32
105,-1,23,-169,167,-21
104,25,15,-284,87,160
108,51,8,-253,61,159
109,61,5,-188,67,202
111,84,-3,-239,77,153
114,89,-6,-205,1,88
109,91,0,-124,12,90
113,92,-5,-27,161,75
117,94,-14,-90,55,16
117,99,-12,-194,2,72
121,93,-11,4,122,106
123,104,-16,-85,92,75
125,107,-16,-136,58,100
125,106,-15,-46,88,143
-126,116,-19,-96,133,125
-126,117,-19,-102,95,156
-124,126,-25,-178,109,158
-125,-119,-28,-139,61,125
-116,-119,-29,-30,104,85
-39,39,-88,-4830,-206,-3384
127,59,-65,-2358,-356,-4380
-15,14,-49,-1145,2453,-3710
75,36,101,14,3322,-4004
56,-42,114,-438,2529,-6766
57,-106,81,-1163,1982,-11292
17,-32,35,1609,-1853,-10636
40,-59,98,4021,-2338,-7637
-125,-99,-85,310,-1144,-1660
-105,-47,-78,778,-92,2279
20,126,42,-402,2052,7662
69,106,-99,1418,3932,9605
-20,126,124,808,3783,3308
-115,-76,103,-4133,-347,-304
16,-82,-110,1163,-714,198
-3,94,-48,-277,-638,2096
11,-8,-3,1463,-920,4148
53,48,39,1603,-165,4499
116,75,-10,-271,81,4825
-61,16,-94,1583,1561,4160
-67,120,-100,428,-146,4894
-43,70,25,1409,-241,3156
-59,-116,34,-1189,83,2394
-81,7,52,986,35,2408
114,47,93,612,-300,1985
104,31,79,1070,233,608
66,-26,64,1235,183,169
46,-105,65,523,-17,-228
33,100,56,26,-25,-249
48,74,52,-249,147,-208
88,53,38,-100,268,-396
93,47,48,-247,-166,-530
91,19,48,-310,-341,-565
94,-13,55,-194,-124,-393
94,-5,38,-328,281,-226
86,-8,20,13,100,-117
105,-1,11,0,123,-28
106,13,12,-297,77,232
93,38,8,-414,25,377
91,63,6,-102,107,380
98,94,9,-193,191,427
109,108,-5,-202,151,256
115,113,-9,-123,94,208
116,108,-12,-10,107,112
113,109,-11,-27,52,99
109,104,-13,51,71,123
110,112,-14,-107,74,138
117,116,-14,-105,52,139
120,-127,-18,-282,196,44
126,121,-14,-46,169,139
12,-25,-103,-4037,890,-4383
39,-17,-17,1743,551,-3977
-9,24,111,-1035,1869,-5676
-35,85,12,638,1053,-6128
-6,-104,38,-1492,-4276,-8028
-1,33,-25,-1630,-2735,-9518
87,-6,14,2431,-4379,-7779
25,13,17,-2159,-3397,-5734
-128,101,-11,-16,826,168
120,-36,119,-912,2215,6201
-40,19,-56,442,3830,8254
50,106,-45,1924,4113,4411
51,86,122,-15,1161,2132
-86,74,49,3055,539,2705
71,66,101,2354,-345,3205
66,47,-75,-2226,255,2405
64,-83,-57,-2045,-191,3130
-120,-53,-46,826,793,3801
-115,114,-37,-1164,319,3314
-73,87,-29,598,714,3346
-60,76,-67,1243,689,3467
-79,125,7,-359,-259,2435
-70,33,-23,414,593,2080
118,27,54,642,-453,1835
108,8,41,336,-9,772
85,-7,51,272,128,144
75,-105,50,667,92,-333
72,83,47,857,5,-352
86,46,51,420,14,-292
102,6,44,47,179,-413
113,-6,39,-32,45,-346
119,-14,29,-38,-29,-256
108,-25,44,217,-62,-53
119,-16,20,16,346,-4
104,19,17,-613,-76,3
122,24,1,-355,158,186
121,33,4,-18,102,79
123,52,-3,-164,93,138
119,62,-7,-165,-34,101
115,68,-5,-199,65,129
124,75,-11,-23,81,89
120,82,-12,-145,2,37
120,78,-12,-99,63,98
126,90,-16,-113,38,64
-126,91,-15,-122,90,107
127,101,-20,-102,15,54
-128,100,-19,-121,84,90
-125,103,-25,-29,119,126
-122,118,-32,-175,63,76
-124,115,-33,-190,50,130
-56,-59,94,-723,2975,-4862
-95,-43,-3,1190,1202,-6376
64,-103,57,767,-2685,-8730
111,19,99,81,-4094,-8976
-8,19,0,2059,-4268,-8337
90,-35,69,997,-4852,-6908
80,-102,-8,-151,1550,-369
74,-79,125,-412,1507,4468
19,38,9,-1245,3748,8594
-92,26,0,999,4543,6773
-54,110,-93,-757,1797,-288
20,80,43,-5,-298,2065
46,33,-115,2963,653,4226
31,120,-22,-889,173,3371
50,127,-38,-813,634,3132
97,-68,-54,-657,638,3675
-101,-15,-62,-127,1104,4037
-102,44,-25,134,362,3838
-50,84,-26,301,703,3643
-48,57,-8,386,474,3154
-84,86,10,471,266,2415
-89,33,26,491,439,1752
126,9,18,169,336,679
82,-40,30,321,-230,51
68,127,47,632,-120,-191
78,52,61,485,-25,-136
89,46,55,-116,-92,-194
97,26,60,-284,-142,-354
115,-11,57,86,139,-283
118,-15,51,112,57,-172
117,-5,49,-157,137,-178
110,7,44,-182,172,-11
111,19,36,-180,150,5
121,48,29,-105,181,-104
119,47,29,54,249,-40
125,49,21,-109,306,53
124,86,8,-181,13,39
-126,89,11,-96,127,3
126,88,15,32,153,26
126,98,8,-163,78,-16
125,96,13,-84,-32,-31
-121,86,18,-23,226,83
-125,99,8,-91,-27,26
-120,102,11,-225,29,47
-119,99,4,-65,38,47
-121,103,0,-142,55,62
-104,108,-7,-154,37,106
-97,119,-5,-106,-123,106
-114,113,-4,-104,-24,52
-124,113,-10,-202,-33,139
48,67,90,4208,-802,-7781
50,38,-93,869,-4711,-8920
-13,109,56,845,-5595,-8369
8,-102,-24,1146,-4002,-5481
-34,73,25,252,-303,734
33,-12,125,-2371,1557,5898
85,19,38,-357,4189,8850
53,-3,-112,-243,2959,3679
-118,-82,34,-1254,1264,443
-6,30,107,1351,945,2310
18,58,-66,871,1031,3328
65,41,13,-199,181,4660
-99,-67,-40,-1446,310,3791
-92,-32,-38,115,-260,4274
-66,97,-66,-1640,44,3393
-3,78,-72,1225,709,3600
-39,114,-30,131,495,3169
-36,71,-33,591,138,2789
-116,86,30,53,-506,2428
-105,39,51,960,-88,1654
124,-7,39,1366,220,1047
61,-37,48,663,-211,204
57,-96,66,-102,-339,-332
49,69,89,139,-192,-414
73,57,76,-289,139,-366
85,27,61,-175,59,-336
97,12,44,-354,56,-190
103,-4,22,-274,46,-140
96,0,17,-401,107,-147
107,17,4,-338,194,-41
108,40,-3,-138,67,82
114,59,-8,-78,52,65
113,61,-9,95,50,67
107,66,-10,-25,84,34
108,68,-9,-123,37,58
116,81,-13,-118,58,-10
109,82,-9,-134,-5,98
115,105,-13,-230,22,-4
120,97,-10,6,84,20
118,107,-18,-106,39,-49
114,104,-15,-99,41,52
120,107,-20,57,120,-44
126,113,-25,-99,57,55
-128,114,-23,-13,56,62
123,113,-26,30,121,2
-118,113,-33,-27,139,178
-108,-125,-40,-85,32,73
125,-123,-34,-90,-42,39
-127,-128,-27,-196,95,113
-117,-116,-34,-146,88,91
89,-107,40,-1312,-1615,-8222
102,6,123,-332,-2442,-7486
-95,-70,84,1015,-4155,-8188
-38,35,54,990,-1368,-4429
87,53,-53,230,1270,2497
-40,-117,34,-790,2927,6765
39,-66,58,3066,4461,9753
-6,-57,56,-2199,2986,1888
-92,66,28,1715,863,1530
51,3,-127,395,1,2595
74,87,-62,1002,404,3094
90,-13,-75,-1769,17,2492
-107,-102,-54,1566,792,3178
-97,-8,-68,-321,971,3073
-72,-13,-81,526,669,3535
-43,-7,-67,286,741,3376
-17,-6,-71,62,793,3306
-58,-5,-16,597,-9,3077
-46,-1,-6,-209,349,2477
-93,66,29,-868,24,1260
103,5,27,574,-540,534
70,-58,52,791,-389,-63
58,-104,29,92,-34,-296
59,103,56,284,-556,-607
91,54,57,-290,-115,-682
105,-13,38,-16,63,-741
110,-41,29,241,38,-561
120,-56,22,188,52,-308
122,-41,5,-152,4,-171
113,-29,2,-519,-148,-8
108,-12,-3,-424,-91,113
97,21,-6,-447,9,277
102,52,-18,-521,-8,212
102,77,-15,-383,-38,255
102,94,-22,-249,35,179
100,109,-26,-292,6,61
101,108,-29,-97,31,26
103,114,-30,-150,51,-39
102,109,-34,-127,35,-24
108,101,-41,-41,102,-28
115,102,-42,-92,54,31
120,103,-47,-36,24,25
110,104,-44,-128,19,99
110,104,-43,-28,75,154
111,124,-46,-99,50,147
119,-128,-47,-2,47,138
117,-118,-47,-208,29,162
116,-113,-43,-126,34,159
116,-102,-46,-111,111,73
123,-105,-52,-22,98,63
54,-1,88,-2780,-1576,-7871
-117,93,-59,-218,44,-7928
6,86,33,2479,-1107,-7162
-75,-85,-115,1876,-3720,-6063
86,120,20,176,-1826,-2886
24,74,-39,1542,1770,2203
90,-87,46,-920,1893,6443
-49,-27,85,1510,3838,6993
-91,116,82,415,3729,2266
29,123,54,-1243,330,327
5,-74,-100,1106,-26,2769
53,-14,-14,2330,1220,4420
65,104,14,672,768,4414
-91,-65,-63,-309,1449,3675
-21,-74,-55,804,469,3445
-33,-13,-72,-654,808,3150
-26,-26,-88,14,1102,3192
-53,1,-52,133,125,3174
-67,-15,-43,589,251,2819
-68,-42,-8,830,437,2418
-103,-30,-7,789,435,1760
115,14,9,195,-280,648
72,-84,29,778,-449,-143
44,122,64,23,-351,-358
54,55,64,-163,-52,-582
75,11,58,53,-69,-656
88,-19,50,-172,-117,-606
92,-42,40,-333,-240,-584
89,-39,37,-345,-245,-400
82,-51,35,-211,-106,-223
83,-32,21,-297,38,-54
82,-16,15,-375,-53,126
77,14,2,-497,-49,183
76,43,2,-461,27,233
79,59,-7,-264,118,264
80,97,-21,-350,8,203
81,102,-16,-323,-1,179
82,112,-22,-188,19,38
81,110,-18,-85,45,57
84,114,-25,-69,82,-21
87,108,-24,-65,58,-5
93,106,-28,-60,88,2
96,109,-33,-75,76,4
94,110,-34,-130,33,41
96,113,-36,-120,100,99
102,121,-39,-90,92,80
105,-125,-43,-182,85,133
107,-121,-46,-52,50,84
106,-113,-45,-162,86,96
108,-110,-45,-104,66,114
-49,-76,-118,1122,1353,-6797
28,-109,10,-156,-4083,-9079
-114,3,-111,-196,-4993,-10388
47,-21,-7,1165,-5180,-8353
80,21,-90,-69,620,-914
-15,-127,123,332,1218,3262
-100,-4,-14,388,4335,7314
112,-23,-58,2052,4871,6466
78,62,94,-4007,-273,-2919
-93,-64,95,708,-230,1074
-71,-9,-58,354,728,2932
-43,38,0,137,-54,4061
53,60,12,1473,1127,4316
-88,-108,-36,1459,1960,4949
10,-49,-80,594,1771,3884
-24,70,125,-2562,504,3152
25,-22,93,-239,105,3334
-26,82,-66,-259,-428,2898
-88,50,-27,-675,-223,2738
-61,-49,-61,951,494,2300
-126,38,15,-587,-83,1820
-113,49,19,-1396,-138,1173
105,-27,26,670,-391,385
74,-66,62,954,-453,-249
66,125,56,556,118,-581
73,73,50,376,330,-524
95,48,28,-108,580,-486
97,30,18,-200,-53,-375
98,17,10,-133,-174,-282
108,9,4,20,241,-173
112,9,-11,212,224,-88
109,27,-15,-135,58,133
115,51,-29,-363,-5,12
112,66,-18,-291,-31,146
120,91,-23,-262,4,54
118,98,-16,-193,-60,57
111,99,-25,-87,-86,-26
111,98,-22,-258,118,49
115,119,-26,-340,97,74
115,-127,-30,-162,58,32
116,-108,-32,-303,6,-56
121,-123,-29,10,53,-15
-121,-105,-36,-233,86,-84
-121,-120,-38,-35,-23,-125
126,-126,-34,-156,28,-23
-127,-128,-37,-42,106,-5
-123,-120,-40,-150,29,48
-117,-120,-37,-23,86,146
-115,-109,-42,-34,98,192
-117,-100,-41,-78,50,192
35,49,96,-725,-2939,-7346
83,-31,114,114,-3582,-8093
94,62,34,-260,-4816,-6477
-45,101,-23,1291,-1263,-3617
25,56,19,2895,1176,1550
33,-44,-107,-2129,1065,5405
8,-71,-50,1610,5408,6547
-29,70,-69,423,4727,5325
-34,-127,56,-277,616,1788
-103,63,66,-72,478,2165
94,-112,-81,448,369,2823
113,-122,-67,-698,352,3273
115,-56,-39,-1070,-178,3301
-76,-20,-58,734,475,3399
-82,53,-65,-742,341,3174
-77,29,-36,465,363,3303
-44,31,-66,896,860,3202
-84,45,7,367,-218,2783
-55,39,-39,302,661,2083
-122,52,15,432,-389,1195
101,6,11,384,-360,349
74,-69,31,549,-344,-7
64,91,39,543,-139,-185
81,61,41,133,-24,-332
91,10,41,164,-61,-261
94,-20,37,73,-26,-302
98,-21,27,-69,-11,-128
95,-22,24,-200,28,9
97,-5,9,-271,80,83
97,8,2,-259,58,159
101,25,-11,-227,177,200
103,56,-29,-250,-1,62
99,69,-28,-405,-75,90
101,75,-26,-253,-62,15
94,84,-21,-284,-101,-97
94,82,-18,-289,-45,-93
100,81,-19,-140,-16,-135
101,86,-17,-313,-15,-40
98,90,-24,-171,-8,-49
96,95,-21,-186,42,-53
101,102,-27,-216,122,76
106,108,-33,-130,133,69
111,122,-46,-208,114,80
107,125,-49,-141,76,94
107,-124,-54,-196,90,104
115,-123,-53,-144,49,153
118,-102,-55,-264,4,63
120,-102,-52,-74,23,34
124,-108,-49,-11,101,69
122,-105,-51,-140,69,83
108,-101,-7,3295,-190,-5450
-76,-104,126,116,-4788,-8471
-69,-18,-50,-971,-6721,-9565
42,93,30,-357,-6303,-6946
115,30,35,1008,1797,3874
35,6,-100,-366,2623,5769
-78,-75,121,2704,6422,8206
40,-62,3,1145,5418,3319
-56,-3,-54,-2024,-207,35
3,9,27,1257,-2035,808
-49,-84,-99,-2700,42,897
-59,33,-33,256,-277,3043
32,-87,-35,-183,408,2598
93,-26,-75,130,360,3646
-97,32,-110,886,262,3336
-98,107,-115,-695,135,2925
-73,56,-120,679,147,3182
-101,68,-58,927,195,2956
-81,43,-47,1043,740,2081
-112,32,-17,177,396,2033
-100,-6,-8,393,287,1478
-127,-6,-9,125,107,996
100,-53,-2,301,44,237
90,107,29,562,-179,-77
94,67,9,654,-26,-195
107,53,7,116,39,-378
122,16,-2,-183,-9,-483
124,-5,2,-172,-109,-401
124,-23,-1,-59,-27,-256
116,-4,-9,-378,-63,-246
116,1,-18,-348,12,-62
115,16,-24,-309,21,22
119,46,-36,-403,-30,-31
116,56,-37,-347,-44,90
117,75,-39,-213,30,49
117,88,-45,-211,-24,-9
122,87,-40,-112,2,40
120,92,-42,-104,18,15
114,97,-43,-88,47,43
117,103,-44,-172,40,97
123,116,-47,-190,37,84
122,122,-48,-30,66,85
122,124,-48,-65,94,54
125,-126,-54,-137,65,71
126,-127,-51,-15,92,76
126,-123,-57,-123,147,117
-124,-108,-66,-151,56,86
-125,-109,-62,-73,96,84
-124,-100,-64,-85,56,34
-122,-101,-64,-113,79,20
-34,45,52,1178,1664,-9148
31,-79,123,900,-1084,-8230
86,44,105,-983,-2451,-9780
5,-74,98,1652,-4559,-7542
-31,-66,55,842,-3868,-6006
-67,-82,-69,2124,-235,-1101
-116,-128,-110,-799,997,3871
-102,-128,85,-354,3559,7378
127,78,19,1355,4227,6027
-115,-24,115,-2792,726,197
-53,38,51,695,93,1387
-76,-94,-80,1414,34,2149
-46,81,-29,-318,-267,2273
15,-24,-6,626,529,3865
126,52,8,796,1218,4272
-56,-24,-60,-304,1375,4619
45,96,-111,-3761,2198,2658
-52,-50,12,-499,-2141,3639
-38,-41,95,-795,-1192,2438
-67,-125,53,145,-402,2573
-86,109,110,1198,-230,1880
-92,20,49,1826,207,1634
96,16,54,1327,-141,691
77,-33,58,878,-183,66
79,-98,66,607,95,-261
84,110,59,56,46,-307
85,61,62,70,-76,-270
101,55,55,-257,12,-358
115,13,46,102,-36,-147
-128,24,27,-254,66,-315
125,20,24,-102,-100,-181
122,7,17,9,48,-18
-128,46,0,-509,87,-74
-128,45,0,-158,-82,151
127,77,-9,-327,-28,116
122,89,-6,-301,-83,64
126,96,-11,-160,116,30
-124,98,-19,63,153,133
-119,121,-26,-233,82,12
-121,115,-34,-65,-24,2
-115,114,-28,-78,125,51
-116,115,-37,66,105,29
-119,112,-38,85,18,41
-112,110,-38,-37,64,55
-114,117,-39,-63,18,63
-112,120,-34,-39,40,51
-110,123,-36,-4,97,133
-113,-122,-38,-54,12,50
-110,-124,-33,-90,90,93
-107,-121,-35,28,65,73
-114,97,-109,-909,-1379,-7346
-33,48,120,-1088,-1190,-8047
-16,-56,-30,-902,-3560,-8146
29,-58,77,-266,-3310,-7451
101,21,-57,695,-121,-1484
127,115,-121,1454,201,3793
112,63,-89,837,1819,5263
-9,-11,14,2669,3283,5397
96,-39,60,1980,3035,2767
31,-30,-44,-1797,447,2036
59,32,-82,948,209,2862
65,-3,-30,836,-3,2195
71,-68,-30,-1539,626,1947
-116,54,-71,527,1059,4053
-71,29,-73,-474,-264,4437
-23,51,-76,692,223,4156
-39,-57,-37,-436,-806,3635
-38,119,-10,376,-266,2396
-105,97,52,259,-1233,2246
-101,-19,49,1648,-328,1595
82,-30,49,1820,-938,719
77,1,47,235,-552,560
54,-85,44,20,-23,20
34,104,55,617,58,-296
34,79,40,283,121,-397
57,36,24,-28,97,-515
75,-4,18,294,91,-452
83,-12,15,-71,7,-440
74,-20,10,-298,-131,-284
81,-28,9,-219,23,-74
86,-8,1,-320,46,-50
80,14,-12,-268,46,11
79,20,-17,-99,118,30
76,35,-25,-59,149,90
79,55,-41,-112,135,128
83,64,-37,-174,-8,15
81,67,-41,-163,93,39
95,77,-49,-142,102,-21
85,68,-51,1,-15,-7
73,80,-51,-370,-74,54
82,74,-45,20,72,119
92,92,-52,7,150,106
93,103,-59,-36,-7,51
87,96,-55,97,79,84
85,111,-57,-136,94,127
89,121,-60,-169,-5,86
92,124,-58,-3,68,12
90,126,-62,-127,85,18
96,-126,-66,-138,-1,8
105,123,-57,-93,49,-50
-42,-5,21,-809,-1699,-6803
124,-38,110,-789,-3783,-6981
-50,-1,33,694,-4134,-7335
67,-70,30,636,-728,-2869
-31,10,6,1071,1047,221
-84,-17,40,-712,2107,4036
-2,-84,-93,446,2828,7582
-90,-113,-55,-493,2822,3852
-122,67,-59,-1665,1242,2034
85,-96,-94,1355,1125,2382
-120,-59,-94,1482,907,3663
-100,59,-64,2820,-614,4626
-5,87,105,423,1840,2949
-41,14,113,-1041,1238,3755
-71,1,-111,446,920,3719
-66,88,-87,-410,-85,3072
-59,-2,-21,1704,-108,3400
-80,55,29,-424,150,2484
-100,-24,64,506,529,2283
121,-7,50,875,369,1487
79,-23,59,623,-175,898
30,-63,73,119,-202,-55
44,125,81,227,40,-418
62,59,67,480,8,-512
77,21,66,-117,-245,-642
85,-35,72,17,-194,-605
96,-61,61,-110,-98,-464
100,-60,60,-506,-152,-254
102,-55,44,-282,-46,-282
100,-39,34,-372,45,-78
99,-14,13,-223,27,-18
97,4,10,-222,36,13
93,22,-5,-245,148,125
111,42,-15,-265,94,140
97,52,-21,-125,-59,179
86,69,-25,-280,-83,50
83,80,-14,-399,-188,22
88,82,-11,-251,-64,4
99,85,-5,-172,23,32
105,94,-14,-230,18,-14
101,98,-25,-238,-11,-22
96,96,-26,-311,-20,62
78,108,-32,-405,24,143
73,126,-41,-68,137,127
86,-124,-54,7,172,6
96,-122,-62,-51,-61,-70
115,122,-58,-40,20,-55
120,111,-52,138,97,46
114,123,-56,-98,-50,44
105,125,-50,-146,-90,104
-42,-21,118,-577,-2246,-5836
-106,-91,117,576,-2239,-7291
22,120,35,887,-1573,-4191
-90,70,-34,-14,322,1489
-103,81,1,799,2467,3957
-70,-49,100,578,3350,6949
113,-2,30,515,2455,4565
60,44,115,-1671,-226,-291
-30,-100,-112,477,-294,1549
20,-92,-11,1534,106,2201
41,-87,38,143,226,2285
76,110,14,1604,480,3464
-105,-70,-18,1152,819,3588
-87,-33,-20,828,545,3275
-53,-14,-85,73,1053,3112
-66,-12,-21,877,-184,3502
-65,2,-19,-178,1148,1989
-57,-60,-13,1260,1126,2360
-115,-78,16,1056,157,2951
-123,-8,40,5,-266,1784
101,-12,29,62,-84,242
53,-115,68,396,-282,-262
56,91,80,-341,-258,-260
70,9,76,165,-153,-418
87,-19,65,114,-32,-387
101,-36,50,-81,-70,-495
109,-44,44,-249,-65,-403
108,-63,39,180,-9,-302
114,-50,34,-99,44,-224
110,-41,19,-270,-31,-99
97,-29,18,-291,-80,91
95,-3,9,-337,2,128
106,14,1,-113,123,218
105,39,-7,-219,-115,52
89,47,-11,27,-361,-54
95,68,-23,-218,71,47
93,57,-14,-111,91,33
96,54,-12,10,5,-33
101,64,-15,-157,58,-52
104,57,-15,-43,99,-39
97,52,-19,105,111,-51
101,58,-20,28,193,-6
103,58,-30,49,206,57
113,72,-41,15,169,77
109,78,-43,-46,101,89
109,81,-51,-32,81,103
111,92,-47,-130,48,133
112,102,-51,-101,37,62
111,102,-50,-57,-17,5
114,101,-44,-139,32,39
-34,83,-5,-3720,-215,-6563
-27,-36,-5,-3062,-1360,-7656
122,-111,-74,-1086,-2130,-7686
36,33,-31,652,-800,-7796
66,-60,-117,10120,-546,1339
-108,-76,-94,-2903,4232,-4680
44,9,-78,571,-1622,4820
-108,-62,125,249,1263,-325
54,126,104,1064,1005,1646
-34,76,-103,1000,563,6138
104,68,-83,437,1743,5729
-84,1,66,670,1629,6317
63,93,-31,1938,1842,3746
3,-37,-98,-1167,324,1642
-103,122,-75,-1162,-1151,964
-123,119,-32,1189,-16,2354
-117,-101,-43,327,409,2517
124,-60,-14,-76,-239,2630
-72,-73,-34,912,695,2788
-116,-24,-15,1285,134,2809
121,1,38,400,-192,2233
116,-45,8,607,384,1617
88,-38,36,493,-467,1126
51,-63,47,301,-377,26
47,-125,82,523,-123,-223
39,45,89,605,92,-118
54,36,74,27,107,-251
67,-15,59,308,71,-245
77,-22,42,-181,-39,-259
73,-30,40,-457,-120,-250
84,-22,27,-426,101,-138
87,-14,22,-290,56,-140
71,6,6,-493,-104,-75
71,10,-2,-174,7,-97
81,10,-12,13,191,-71
100,7,-22,25,75,55
95,33,-24,-280,-206,87
76,51,-20,-562,-377,-29
67,47,-8,-425,-193,114
74,75,-3,-401,-25,285
82,117,-12,-502,32,55
85,111,-34,219,245,-214
86,86,-47,528,246,-353
87,63,-49,130,159,-180
110,63,-46,60,220,-26
107,75,-52,118,179,-3
94,91,-53,-138,-12,-62
98,102,-49,-104,213,145
108,109,-38,61,337,47
126,115,-40,24,220,10
26,42,65,-636,-590,-7468
-63,25,-122,-493,-3935,-7868
-57,87,108,-211,-4507,-7398
106,7,62,-172,852,-1697
-64,-124,-20,2040,1497,3562
-125,-96,-75,169,3039,6896
72,-44,-48,2694,3856,7491
-16,-49,-51,-379,2126,1385
111,36,103,-1637,-29,1531
47,5,-81,1425,-541,2765
55,-23,-23,-1230,17,2149
76,-69,-9,13,-477,3267
-122,-13,-24,269,-441,3300
-119,40,-6,469,-235,3499
-81,59,2,842,46,3201
-85,84,10,808,-6,2986
-75,1,5,1181,253,2737
-108,12,32,57,-232,2606
-113,-29,49,690,-178,2185
-121,-25,43,652,-96,1529
89,-40,48,748,-232,771
60,-43,62,35,-352,-4
56,-108,74,196,-232,-375
64,86,77,100,59,-484
64,53,65,28,141,-535
78,31,43,-55,96,-573
108,11,25,-137,68,-471
112,10,4,-182,59,-475
97,-11,6,-112,-66,-319
99,-9,-3,-248,66,-121
98,-4,-9,-289,-8,101
102,18,-11,-381,-1,173
105,35,-15,-313,-3,286
101,55,-12,-327,-14,376
103,78,-14,-279,49,348
101,109,-19,-263,-12,240
110,121,-22,-135,115,177
106,-123,-25,-110,9,-27
109,116,-30,17,98,-142
108,112,-25,-132,13,-60
115,99,-30,11,115,-57
115,99,-34,-37,99,47
121,96,-39,-42,79,69
125,111,-42,-239,2,79
118,109,-34,-60,64,134
121,109,-36,-10,135,137
121,-128,-40,-111,30,141
123,-113,-39,-171,66,139
-125,-114,-42,45,138,87
126,-111,-49,-73,103,63
-83,9,51,-4090,1762,-2754
-68,25,90,-568,965,-2969
40,-53,56,331,2275,-3279
-86,-51,-91,320,2771,-3810
32,-98,97,1442,1126,-5272
-127,109,100,225,-836,-6723
-58,50,119,444,-2654,-8332
44,114,39,369,-4895,-8968
-78,-14,35,1195,-3452,-5084
56,-111,-54,450,1110,1904
91,100,76,-1150,1190,4666
-39,78,63,1019,3808,8027
-17,-6,123,2700,4542,6256
68,-48,-105,-714,1430,569
-102,-44,45,-630,-487,870
73,-18,-92,640,-632,2279
81,-58,-65,-326,-239,2896
93,34,-84,-916,-519,2991
116,-11,-74,673,-642,2827
118,36,-50,320,-318,3085
-98,14,-26,1101,244,2847
-82,43,-8,521,545,2668
-82,-18,-6,1100,243,2823
-70,28,30,122,-116,2336
-110,34,40,698,-138,1780
115,22,47,1499,-349,719
77,-49,26,690,78,-493
74,106,48,418,262,-526
88,15,44,373,207,-426
102,1,44,-198,60,-338
108,-11,31,-330,75,-249
119,-38,17,-27,244,-261
-125,-20,2,-123,205,-119
-119,-24,-13,73,94,-13
126,-8,-16,-168,-63,-92
-127,-3,-13,-396,43,54
127,2,-15,-135,-4,45
122,21,-13,-205,69,86
127,37,-16,-200,-1,150
121,49,-18,-214,-39,164
125,72,-13,-357,10,182
110,95,-14,-412,-79,116
117,121,-10,-598,1,-80
115,112,-8,-327,-89,-147
114,103,-6,-279,75,-2
-127,107,-23,-263,246,-44
-121,115,-39,-161,31,-97
-114,108,-47,-43,140,-77
-115,98,-54,10,69,-5
-117,102,-53,-125,23,45
-25,27,64,-1552,-717,-6336
-73,-46,114,-266,-1785,-7028
28,99,15,-8,-3135,-7042
99,-6,-65,107,-2682,-7184
46,115,105,1249,626,-271
127,-40,15,584,177,3533
93,83,7,-15,2488,5924
-19,71,70,1416,3876,6370
98,-98,36,-1202,1999,1262
-8,-34,69,-792,-811,-9
-66,50,-60,-383,-322,648
-33,69,50,339,-383,2329
84,10,54,2101,144,4120
124,112,26,1186,-66,4380
-95,2,-3,917,-132,4400
7,60,-91,152,1289,3471
-72,-121,-22,-60,-852,3677
-52,107,26,389,-194,2672
-71,49,49,1089,-47,2906
-110,37,60,873,4,2385
107,23,53,779,-144,1615
86,-10,74,683,-149,970
69,-36,90,911,-85,362
44,-118,82,1044,46,-86
33,81,93,686,-58,-299
57,66,89,-495,427,-6
76,15,74,-269,35,-441
90,3,65,102,-98,-411
98,-20,56,86,73,-542
106,-39,35,50,113,-359
112,-41,24,40,47,-280
107,-9,16,-217,142,-79
108,-12,12,30,-16,124
112,17,7,-195,-48,57
110,29,7,-254,-29,-8
105,43,8,-225,-66,0
105,46,8,-37,-41,9
104,59,8,-238,87,72
108,66,7,-63,48,40
108,81,0,-155,33,3
102,77,-3,-60,36,9
108,83,-9,-175,119,69
110,95,-16,-165,-27,2
114,96,-15,-160,44,-18
117,90,-16,-50,161,98
124,111,-28,-176,27,-19
120,111,-27,-131,-13,10
122,104,-26,-23,114,76
122,121,-37,-184,41,47
122,125,-39,-154,-26,62
-50,-108,124,-758,-660,-6598
-96,88,-59,-249,-1317,-6389
74,-66,87,1074,-2102,-7321
-17,22,-6,920,-1794,-6098
64,55,-115,1316,-632,-4151
30,-109,-44,-832,879,1723
-59,121,-36,-1125,1169,5200
-56,-36,97,-866,1806,7651
26,75,37,-3097,2191,2172
-128,-115,105,2641,1399,4004
111,-87,-37,-206,108,695
76,48,-65,603,516,902
99,108,-52,1577,-76,2641
117,103,-38,1162,-621,3415
-81,78,-36,2290,172,4083
-56,-112,-14,1465,794,4241
-29,22,-48,484,998,3715
-17,3,2,821,954,3345
-40,37,-24,-48,550,2703
-66,-68,31,1113,3,2726
-109,-8,54,-423,20,2033
109,-46,69,298,-107,1037
68,-76,78,142,-134,429
57,-88,77,-220,-24,-248
61,82,72,373,-11,-606
63,26,78,327,-68,-695
69,-21,74,103,-15,-512
86,-49,66,-54,-20,-381
98,-48,54,-217,-16,-319
97,-48,47,-274,-134,-273
95,-51,43,-159,-13,-107
97,-33,32,-209,93,-54
92,-21,27,-226,46,182
90,11,15,-389,26,206
88,27,14,-334,-69,180
91,43,13,-300,35,153
92,56,8,-195,51,114
95,62,3,-176,47,35
96,71,-3,-186,23,-9
94,70,-8,-91,22,-28
95,69,-13,-182,82,1
100,78,-19,-169,1,-1
102,81,-22,-99,23,-70
105,81,-22,-102,39,-39
104,77,-22,-98,67,35
110,87,-24,-166,-1,10
108,90,-26,-86,9,31
112,90,-22,7,168,69
116,96,-32,-77,80,78
108,101,-33,-135,23,154
7,-68,16,683,-3078,-6989
120,-98,-42,730,-3063,-7386
61,-52,-126,897,-35,-4194
-21,10,12,823,1489,2096
-94,59,-12,-1277,753,5383
10,21,100,1681,3379,8513
-101,-102,-46,2617,3569,4405
103,32,-112,-4890,1114,-19
49,120,-105,2584,146,1448
-35,-21,-65,827,-221,1707
2,76,-3,1288,31,2088
63,50,24,265,603,2361
101,74,-28,1455,914,3438
-97,-120,-18,649,1190,3121
-65,-59,-61,1388,1001,3843
-25,-24,-17,556,914,3447
-58,-68,-4,753,991,2981
-48,-59,17,-74,910,3038
-59,-98,-20,956,1079,2746
-85,-36,24,546,341,2541
118,26,3,-268,-183,792
63,-29,55,249,-417,19
37,103,92,970,80,-139
48,81,96,273,163,-391
46,43,98,-141,-139,-471
75,-5,106,-174,-99,-521
86,-24,104,-148,33,-459
83,-55,92,189,85,-393
90,-65,75,72,83,-247
101,-71,63,541,47,-60
89,-51,58,112,-10,-84
99,-30,49,-568,89,-204
98,-39,44,-122,-5,170
109,8,33,-221,67,9
122,25,29,51,13,123
99,43,25,79,-108,149
66,57,23,-157,-115,-6
65,43,17,-214,3,-224
103,30,11,-112,28,-122
109,31,0,-259,-239,-134
101,10,-3,-261,-131,73
99,40,-8,-734,-224,98
71,56,-13,-624,-354,25
95,64,-12,-592,-3,15
-123,87,-27,-493,28,83
-124,101,-35,-112,-169,-66
84,98,-27,-183,-96,-25
57,102,-21,-57,125,-68
90,95,-42,428,370,-79
100,104,-55,126,146,-3
15,108,118,-1082,-84,-7405
90,20,-113,112,-1280,-8105
13,68,35,1250,-2945,-8449
-75,37,28,-131,-4031,-6470
-64,-55,121,1127,1616,411
6,-66,-53,776,2035,4476
-66,-65,49,809,2656,8251
119,98,120,727,3516,5563
-53,58,-80,3266,2513,5422
-18,42,-128,-452,1347,3240
-74,-8,-127,-457,129,3211
-49,25,-111,-1504,-110,2919
-101,28,-78,-915,-355,3424
-60,60,-116,1409,307,3346
-122,89,-13,794,-465,2916
-79,33,-92,1140,1355,2876
-103,34,-69,1513,795,2661
-93,36,-81,941,569,2217
-126,59,-51,693,-204,1327
102,41,-32,528,-371,397
40,-25,26,232,-611,-489
46,-103,44,217,-118,-698
63,92,50,336,-78,-714
89,38,54,23,-121,-786
85,5,42,-113,-171,-905
98,-34,38,-58,-4,-666
92,-48,33,-202,-69,-370
86,-35,18,-243,155,-57
102,-35,1,71,246,-33
77,-7,-8,-280,115,363
94,13,-21,-34,188,261
96,45,-24,-159,122,388
94,68,-25,-206,87,369
95,82,-27,-187,125,352
90,-122,-34,-478,-32,197
98,-128,-37,-139,-14,-12
105,-128,-37,-266,36,-63
96,-128,-37,-290,-121,-115
87,-122,-38,-282,-166,-371
83,111,-41,-30,-4,-377
101,90,-47,-118,128,-124
104,99,-49,-237,-103,-65
100,104,-48,-172,-53,-85
104,107,-40,-98,94,-13
102,95,-52,328,160,7
97,114,-59,-165,47,112
109,119,-54,18,61,239
116,-108,-53,-173,90,206
97,-84,-55,-258,-40,131
102,-84,-51,-49,68,-34
99,-84,-70,-1851,1738,-5452
-43,108,-125,-244,1410,-6459
-96,38,85,-31,827,-7976
5,-1,96,1085,-2844,-9589
-113,93,5,1869,-5653,-9190
-127,-45,98,88,-467,-2337
48,92,-96,936,1252,3071
-52,75,66,-59,3069,7436
120,-104,-39,2415,4215,7054
-32,-41,-68,-310,2465,1635
45,-111,50,732,261,2971
8,-35,-117,689,-569,2995
22,26,-109,-1041,116,2384
40,-13,-97,-294,267,2513
35,30,-101,222,223,2825
72,85,-73,-211,775,2585
101,53,-100,1496,522,3595
101,-107,-35,-301,-168,2520
-120,29,-28,1169,546,2929
-110,8,16,1435,288,2994
-86,116,-13,-446,376,1798
110,126,11,-147,-336,430
69,13,33,579,-113,-280
67,-91,30,674,236,-449
70,96,22,510,80,-455
93,42,10,197,59,-373
-124,30,6,21,39,-311
121,41,-10,-341,-174,-456
108,29,-4,-240,-208,-520
117,8,6,-128,-26,-269
122,16,0,-162,-1,-50
-126,23,-1,-172,-16,62
113,50,-2,-533,-91,81
103,52,-9,-212,127,181
118,80,-18,-182,187,228
107,96,-43,-5,80,209
-105,110,-47,100,207,42
121,120,-38,-273,-155,18
93,109,-28,-45,-27,9
119,85,-35,435,426,-112
-116,89,-47,62,36,168
115,124,-42,-584,-191,123
106,118,-40,180,176,-169
-110,94,-48,552,428,-76
-96,84,-64,328,96,149
-124,113,-49,-293,-182,67
121,122,-29,-193,34,-69
-114,102,-24,474,268,-5
-113,108,-39,-75,160,-11
-116,108,-48,-372,-30,126
18,-68,69,-649,895,-6555
-107,106,21,-1081,-219,-7852
-85,88,104,647,-3449,-9610
-72,46,-127,-106,-5158,-9292
-5,37,29,1174,-58,-3179
87,118,-90,2060,1166,2574
-128,-107,-35,-1679,621,6020
28,107,-11,3678,4212,7620
-98,-100,111,-30,3449,4945
-64,-25,-115,1434,2008,3843
-103,-67,-125,-675,-422,2626
96,31,-115,247,-698,2367
106,-66,-80,610,-209,3067
98,-45,-83,155,275,2989
-121,-51,-120,712,654,3048
-110,46,-83,308,254,3596
-55,-70,-103,3046,789,3150
-61,-13,-83,1119,673,3239
-85,80,-10,-613,-163,2388
-98,86,-8,-123,-348,1192
101,42,18,921,-420,-36
44,-94,34,1239,-49,-430
34,114,28,21,225,-717
52,86,33,-585,34,-432
84,27,17,-236,-73,-562
86,15,20,-188,-192,-744
82,-29,20,148,78,-627
94,-40,11,94,213,-421
95,-36,4,-154,140,-202
88,-26,-2,-107,116,182
84,16,-10,-267,158,281
91,46,-25,-313,126,87
98,66,-24,-407,-20,236
94,85,-20,-540,31,242
78,112,-26,-645,-34,148
78,-123,-26,-592,-4,-60
91,122,-28,78,55,-111
104,108,-30,197,195,-169
95,102,-48,-44,34,-161
104,89,-41,-21,-13,-77
104,91,-40,-30,40,8
97,99,-40,-120,8,33
107,108,-37,-137,31,73
111,125,-41,-178,5,80
97,-126,-32,-88,33,77
101,-126,-39,-38,203,16
-126,-112,-48,-141,195,111
124,-109,-62,92,32,32
112,-106,-61,-41,104,-45
113,-123,-58,102,161,72
-14,111,115,-651,-441,-7565
-49,-6,-85,307,-1796,-7082
127,-119,77,676,-2445,-8024
-111,-84,-28,921,-3136,-5501
-126,-74,-111,1314,934,-1622
-28,-104,23,-569,143,4601
-82,-30,-44,1350,2300,8032
58,10,50,1223,3286,4446
28,-124,20,-2803,888,1347
-49,-59,-77,1939,424,1610
-29,-53,-25,1134,831,2322
20,72,-4,1541,469,3288
60,63,1,1510,687,3899
109,-95,-28,655,1104,3611
-87,2,-61,262,1128,3354
-32,-25,114,809,1046,2996
-62,20,-94,67,16,3391
-44,-29,-59,1192,392,2997
-79,1,-24,285,451,2580
-94,-37,0,1155,436,2795
111,77,80,-208,-836,1687
90,36,76,322,4,304
60,-46,78,1421,171,-236
27,107,64,1268,158,-453
36,75,68,-189,-103,-525
57,28,67,-35,-115,-554
70,-41,60,239,-111,-656
75,-41,58,-473,-106,-448
84,-16,41,-833,-353,-375
79,-37,45,-449,-331,-217
95,-6,25,-740,84,-240
92,-13,9,-312,-17,-88
98,17,-8,-204,86,104
60,27,-26,41,-67,-50
61,35,-17,-217,81,90
90,45,-23,96,94,170
107,53,-19,304,160,141
108,60,-18,291,64,237
40,71,-18,-126,-176,212
38,97,-3,-847,-170,143
81,106,-1,-435,22,66
115,110,-17,-1,147,-36
92,111,-25,10,-22,-141
67,95,-27,38,126,-142
71,86,-35,22,214,-76
95,89,-46,-6,164,-20
109,99,-57,-52,35,-41
101,97,-54,-61,10,-60
88,93,-48,-90,37,8
89,100,-49,-109,66,-24
-21,-72,51,-798,-369,-7133
17,35,53,-1144,-1708,-8192
-108,81,-67,66,-3983,-8161
-75,-19,-44,697,-3095,-6396
-22,42,-83,368,1070,4471
89,-103,-8,1140,2409,4193
-105,-63,43,2237,2832,6322
79,-59,97,2216,2814,4430
-111,-101,-23,-343,1816,3375
-128,-116,-116,118,31,1453
119,-56,-83,2235,107,2742
88,-30,-67,-1377,338,1928
105,-80,-95,335,440,3059
-125,-39,-116,47,465,2982
125,35,-78,544,-54,3574
-67,42,-98,1315,628,2791
-86,40,-76,871,629,2643
-99,-1,-36,1340,232,2421
-106,-1,-36,564,357,1926
104,19,8,160,-360,982
88,-41,12,471,-214,174
64,-107,41,416,-86,-210
59,107,39,-613,-117,-285
56,62,33,-301,-250,-415
76,40,38,-298,-53,-515
94,10,18,-40,42,-488
89,-6,9,114,-30,-385
93,-1,6,-91,-1,-364
91,-17,2,-73,100,-45
84,11,0,-488,-29,28
96,22,-11,-253,110,99
97,53,-21,-349,38,90
88,70,-28,-410,-15,137
89,85,-34,-298,50,42
92,107,-38,-404,16,31
96,115,-41,-211,-18,-64
120,79,-38,416,203,-30
88,103,-46,-502,-120,-63
87,106,-32,-530,-108,-58
98,113,-33,-123,177,-26
104,125,-53,97,192,-66
103,121,-64,29,68,-178
110,93,-62,121,108,-46
110,97,-64,-36,20,87
113,115,-59,-165,-56,151
109,-128,-39,17,41,172
110,-108,-39,-139,64,39
110,-104,-41,-269,17,63
112,-107,-40,-27,142,87
118,-101,-52,-30,176,-16
-121,-101,30,-903,-2008,-6698
43,25,-115,-555,-2959,-6678
94,99,-84,912,-3750,-6007
-10,32,-86,784,-1011,-3022
-82,-90,73,978,1208,5109
73,-54,90,1977,2871,4832
-97,-74,62,1992,4515,6209
73,-71,36,1816,1967,3147
65,-118,72,-1368,1539,610
41,-77,-96,922,-75,2753
67,-32,-73,-955,356,1938
112,-69,-60,803,13,2705
-128,-33,-80,179,328,2605
-121,-38,-100,674,140,3318
-125,-42,-86,2302,-209,3692
-89,-30,-108,1328,900,3158
-104,-9,-78,1679,234,3849
-88,20,-59,191,900,1961
-109,20,-25,-294,119,1897
-128,9,32,41,-465,867
82,-18,35,288,-398,-145
47,-105,56,555,-114,-425
40,76,61,350,212,-490
54,47,45,337,261,-433
66,15,29,75,145,-587
92,-6,29,-277,-33,-591
90,-34,30,-209,-4,-443
84,-34,22,-340,101,-332
83,-38,6,-178,286,126
90,1,-9,-371,129,228
92,28,-28,-465,76,189
96,52,-30,-354,10,132
92,64,-29,-217,8,127
92,86,-33,-409,-25,-20
89,90,-32,-264,-74,-103
89,92,-32,-180,-5,-102
93,91,-30,-108,-18,-200
102,84,-34,-176,16,-160
95,77,-30,-119,-108,-92
93,78,-31,-149,-9,-92
89,85,-34,-282,-17,12
93,86,-32,-71,50,92
103,113,-42,-265,126,77
108,117,-48,4,21,65
101,117,-48,67,156,62
100,-128,-57,-132,110,110
109,-123,-58,-53,69,122
109,-114,-61,-20,40,35
101,-112,-54,-177,32,82
104,-112,-55,-31,130,56
-18,32,-41,-2127,-1314,-6814
21,-11,-27,-1908,-1744,-7202
-21,-36,-52,-885,-2144,-9853
44,-100,-20,98,-2388,-7978
-118,-109,46,1077,583,-1137
-47,-121,-85,-356,306,811
-24,99,122,-285,1200,6120
31,-9,76,744,2631,8709
-64,-47,-95,3494,3897,6753
-57,37,-80,-2964,1487,-189
53,-61,67,-60,155,693
50,-119,-35,1064,-443,2527
93,95,-19,1042,-138,2760
-120,84,-28,1147,465,2695
-117,-119,-49,-666,269,3058
-108,-127,-74,1262,314,3755
-60,11,-119,363,744,3621
-76,-5,-98,1540,154,3010
-89,-25,-38,749,690,2693
-110,-46,12,633,535,2628
-96,42,22,-525,138,1456
108,30,58,-357,-474,555
66,-85,72,392,-92,40
35,122,72,391,-84,-92
47,77,60,217,184,-235
62,23,41,108,157,-382
89,3,27,25,62,-466
99,-25,20,23,-22,-483
93,-58,23,51,-48,-342
98,-58,23,-156,46,-226
89,-59,25,-69,-16,-37
84,-33,23,-263,70,144
89,-14,17,-219,178,159
88,15,4,-336,89,190
88,45,-4,-460,47,119
91,46,-10,-169,109,95
86,61,-11,-273,31,104
88,75,-18,-242,103,15
96,82,-24,-222,32,-128
97,81,-30,-198,21,-180
97,72,-27,-204,199,-223
93,57,-27,30,76,-82
102,70,-36,-245,-77,-69
109,70,-36,-163,-43,-84
102,67,-28,-144,51,69
98,89,-32,-269,15,83
105,103,-37,-188,37,50
104,112,-40,-256,41,93
103,123,-48,-119,51,67
109,-128,-48,-125,63,5
-68,-92,53,-2901,-1257,-6996
-78,62,-4,1037,-2326,-7476
-17,-123,7,820,-2615,-8134
-120,34,101,1320,562,-2190
-59,-52,-40,-82,510,2551
-96,-85,-22,230,2190,7099
91,-25,72,1794,3751,7408
23,32,73,65,2610,3846
-29,-97,104,-744,288,2158
-93,124,-99,2194,-31,2655
-110,19,-75,1740,267,2054
65,-69,-37,-261,-149,2658
80,-124,-60,854,539,3160
-122,-81,-95,284,1330,3184
-110,-20,-73,1474,371,3551
-28,-36,-95,730,1413,2985
-65,-30,-72,850,454,3141
-67,-3,4,456,-319,3041
-125,35,26,-166,-268,1503
103,-27,80,486,48,1286
68,-73,59,1346,306,755
40,-94,68,894,-97,-14
35,79,71,285,-27,-555
58,23,63,-19,87,-642
87,-12,46,-200,31,-673
89,-57,39,-202,-216,-717
83,-61,49,-480,-252,-410
79,-66,41,-521,-140,-276
84,-54,32,-289,-123,-232
91,-51,29,-144,72,-13
88,-30,15,-107,124,33
86,-12,5,-62,70,72
78,-1,5,-58,50,180
80,14,2,-44,214,225
84,48,-10,-141,101,221
85,59,-13,-157,10,169
74,78,-13,-342,-3,132
70,87,-15,-315,-45,-21
72,82,-17,-286,-20,-118
84,81,-21,-392,-34,-103
89,91,-24,-600,-41,-44
84,106,-29,-553,-60,-171
85,102,-29,-285,6,-292
87,91,-31,-178,38,-298
85,90,-33,-335,47,-152
89,92,-43,-167,106,-68
89,103,-48,-130,94,-27
89,113,-53,-130,127,48
98,-124,-58,-65,26,41
95,-124,-59,-92,58,59
-90,66,126,-4602,1385,-2262
46,3,55,-2066,2334,-2796
-74,44,-86,-491,2758,-4424
-99,-66,106,-2,1235,-4653
-109,-126,88,-1061,228,-5143
-75,100,91,-1557,-162,-6195
-48,93,107,92,-1012,-7087
-92,-3,16,659,-2822,-8614
-58,58,-100,881,-2873,-6476
-126,60,47,1196,2208,1486
-100,-15,102,-469,1761,3463
-56,117,101,772,3547,7337
127,85,-109,2578,3543,6389
17,56,-106,-2191,1480,2113
-116,75,104,-129,-677,1111
65,28,-89,1399,30,2045
49,-97,-24,1307,109,2771
75,123,-39,1463,339,2959
109,-71,-74,358,619,2675
-108,-74,-86,1188,664,2981
-117,-22,-85,749,907,2860
-84,-26,-79,858,586,2810
-97,-9,-37,-48,846,2340
-125,-41,-26,483,161,2493
115,-17,23,-433,-364,2211
122,-44,58,-34,88,1754
98,-39,25,562,457,711
59,-50,45,256,-1,-334
61,110,37,436,-32,-615
67,52,47,391,-253,-515
78,23,49,-176,-114,-534
77,5,55,-489,-233,-571
82,-6,51,-448,-259,-489
93,0,44,-535,-89,-529
96,0,24,-603,-266,-506
97,8,14,-650,147,-438
86,-2,2,-113,54,-105
96,25,-21,-360,127,-200
98,24,-27,-226,40,41
92,39,-28,-236,-119,201
89,69,-30,-256,9,243
90,82,-29,-222,49,274
86,94,-26,-64,-134,274
89,117,-24,-181,-103,170
81,117,-30,-88,-321,151
91,122,-30,-62,207,-48
83,106,-31,213,223,33
79,114,-36,-70,-23,18
89,112,-45,-163,37,-1
96,107,-46,-31,172,44
11,-59,83,-1134,496,-7722
48,-128,1,-390,-1697,-10670
84,-57,-92,1522,-2491,-7471
113,-90,49,843,-491,324
-73,-11,-28,690,1204,3423
-114,-14,-31,451,2213,6820
-127,106,7,2669,4210,7495
56,39,20,676,2696,3070
25,-110,97,-1710,924,2492
-94,-9,78,2786,-84,2683
-113,-15,-120,1023,-412,3006
-116,-82,-79,687,201,2473
-123,-58,-90,150,298,3138
-97,-90,-104,1496,612,3477
-59,-52,-99,939,518,3179
-24,-97,-78,1452,944,3597
-23,-66,-55,2183,78,3574
-49,-26,17,668,334,2770
-80,44,-1,-772,283,1729
81,17,16,-125,-676,600
23,-42,49,384,-617,-353
5,94,37,499,348,-1149
81,28,40,352,709,-1278
73,-51,26,1119,175,-939
57,-100,35,841,-126,-676
73,-99,59,-624,-136,-362
86,-97,52,-868,-169,15
79,-71,44,-526,-59,-20
69,-50,41,-443,41,-4
70,-20,35,-477,93,87
63,0,8,-58,185,70
70,17,-7,-102,257,0
59,35,-29,-268,21,24
73,42,-23,-314,-119,-22
69,52,-15,-254,-82,-67
61,50,-11,-60,-118,-229
67,42,-5,-284,-20,-134
72,46,-3,-342,-73,-49
69,42,-8,-83,56,-45
61,48,-16,-41,156,23
76,62,-30,-236,156,76
77,80,-50,-73,47,69
76,98,-40,-108,-66,19
86,89,-37,228,218,-7
75,99,-47,-127,29,-9
74,101,-46,-199,57,41
83,93,-53,256,132,-90
85,95,-50,-75,99,75
111,88,-54,112,146,120
69,-125,-54,-611,-157,115
-7,28,44,-1238,-1005,-7274
54,39,2,-2161,-2424,-7822
31,-103,-78,390,-3949,-9179
65,38,7,722,-5568,-6767
-118,39,54,1819,848,1015
-91,-93,-75,217,1258,2609
-82,-99,49,750,4181,5621
65,111,-42,1934,4345,6963
80,51,-100,1772,3197,5110
6,-121,-42,560,504,2038
116,15,79,2504,-123,2501
83,-79,-111,659,338,2142
81,-115,-68,-711,677,2104
-121,80,103,1744,920,3155
113,-38,-117,164,426,3426
-105,-1,83,654,681,2889
-92,4,-100,1276,254,3487
-118,-6,-96,2928,716,2664
-115,51,-24,807,689,2034
110,-39,-25,800,325,1603
62,-11,36,403,-379,1022
24,-65,65,161,-197,324
15,-99,53,-488,259,-343
25,102,27,-428,164,-618
48,18,19,83,97,-765
52,-14,22,32,-41,-826
62,-32,17,-67,-39,-658
48,-57,44,-262,-218,-334
54,-41,28,-475,66,-220
55,-32,17,-352,10,-251
52,-19,8,-180,6,-185
51,-3,-2,-228,79,-66
50,22,-8,-330,55,9
50,26,-17,27,120,166
55,69,-23,-403,19,103
45,88,-29,-464,-87,48
44,90,-18,-372,-70,-26
58,90,-24,-1,137,-32
65,97,-38,13,104,-8
45,121,-34,-550,-248,-62
42,106,-28,-150,-3,-109
65,103,-35,49,244,-102
61,111,-45,-59,-21,-82
55,107,-44,-174,-6,-97
82,94,-46,64,225,28
66,114,-56,-120,-80,-24
56,112,-45,-145,-19,55
76,125,-51,-113,228,90
70,-119,-59,-44,16,52
73,-113,-61,-179,78,44
-47,26,119,-4752,1592,-2732
19,-67,111,-2223,2525,-2674
14,-14,41,-1636,2372,-2925
4,-16,-24,-158,1669,-3489
39,50,-86,-768,933,-4711
116,120,-60,-2658,483,-7582
62,-64,-19,-429,412,-9272
-109,-19,106,2451,-1520,-7717
-91,49,23,107,-1715,-5222
90,-51,-86,2299,1460,896
-76,-52,44,-212,1104,4458
-18,62,-78,1365,2706,7074
-59,48,-25,3482,4811,6769
76,76,-26,-1393,1838,1258
52,-103,11,-1174,145,367
-48,-6,-94,1261,-96,2237
-4,-116,-51,1414,406,2728
21,-123,-26,359,179,2837
86,125,-66,815,999,3246
114,-16,-70,153,354,3433
-92,-25,-67,1114,301,3505
-70,-33,-86,2641,688,3582
-82,87,-52,-750,-103,3004
-102,-18,14,1118,-80,2218
120,-5,25,679,81,1642
98,-23,51,340,13,1128
59,-70,46,438,-45,427
40,-105,59,527,-98,125
33,106,52,178,12,-268
29,64,51,29,-77,-422
49,36,50,-39,-70,-549
71,11,34,-144,136,-405
80,-27,24,531,-129,-734
70,-43,25,105,-56,-410
57,-47,21,-518,-93,-373
64,-51,20,-231,-112,-44
62,-33,21,-111,26,160
70,9,4,-191,177,73
69,31,0,-414,32,188
67,61,-15,-434,-21,101
55,63,-5,-100,-47,-55
60,66,-15,-85,263,-22
60,71,-28,-53,92,-37
68,74,-36,-188,55,-52
69,70,-35,-94,26,-60
75,72,-37,-105,125,-29
69,80,-37,-198,-48,6
76,90,-33,-156,51,-32
77,84,-34,40,133,-2
76,97,-45,-199,43,3
27,99,13,-1312,122,-8024
-18,19,122,-592,-3396,-8130
-126,-59,-15,-830,-1297,-8541
74,-79,-112,1999,-339,-2295
-50,68,106,183,796,186
-117,27,-119,-156,991,4418
-40,119,-116,1556,2631,8376
-114,23,-66,3100,2817,5506
-58,78,-50,-3393,1049,535
59,-47,-120,686,64,1702
43,42,-67,902,74,1963
74,79,-38,2802,30,3511
110,0,-14,3003,582,4331
-72,115,-76,383,1488,2934
-26,-37,-114,52,1064,3369
-1,-69,68,2022,953,3032
-79,62,-124,-893,91,2484
117,-5,-40,307,-245,2704
-118,38,30,251,14,1804
100,-24,53,909,542,1484
81,-35,47,683,243,868
50,-71,36,591,-238,-1
34,113,71,149,-294,-375
35,69,66,-970,102,-577
46,3,54,96,-42,-314
59,-14,51,78,-40,-245
78,-17,26,-340,120,-367
70,-25,21,-142,-68,-237
74,-32,15,-67,36,-114
73,-23,3,-63,33,-1
76,6,0,-386,20,-23
80,10,-6,-193,53,19
86,24,-12,-22,54,-4
84,44,-16,-128,8,-128
80,42,-15,-74,43,-104
76,39,-19,61,128,-35
69,43,-27,90,113,33
78,62,-37,-9,119,-13
87,71,-38,17,63,-42
88,81,-38,-144,8,-91
88,85,-22,-74,29,-77
87,82,-24,-105,179,-191
104,84,-21,-178,281,-124
111,77,-37,-65,151,-69
95,89,-26,-155,41,-150
111,86,-22,-240,179,-142
103,95,-24,-357,148,42
79,106,-46,-301,247,-4
102,118,-60,-76,279,-49
124,108,-61,377,247,-103
104,-67,52,-1077,-182,-8623
-27,-115,40,479,-3873,-10543
-64,-98,-87,289,-6619,-9925
79,-125,-102,1660,2065,1221
113,38,38,453,69,1287
94,-48,-29,-375,2907,3854
-47,27,83,1597,3712,7326
-86,-51,-127,1000,4515,5000
-51,119,-87,-398,1248,2547
-127,6,105,-1400,-89,1343
90,-14,-94,1348,142,2263
114,95,-53,1028,603,3290
-91,69,-82,1340,650,3917
-51,-75,-98,-851,350,3313
-20,-29,-126,115,159,3709
-69,62,-47,-326,-627,3414
-49,39,-36,1298,-93,2635
-66,68,-13,857,574,2131
-122,69,-7,296,265,1432
91,48,18,-172,-107,822
89,2,33,518,31,-137
73,-80,47,1298,19,-140
46,124,51,530,43,-604
69,81,39,-221,-12,-606
79,49,49,-265,-289,-642
98,2,41,6,39,-536
107,4,27,-228,142,-581
106,-6,11,-297,-20,-383
100,-2,4,-442,-133,-256
98,16,6,-515,31,-18
100,42,-7,-294,99,-144
95,66,-10,-382,37,37
106,76,-12,-199,-5,52
103,83,-16,-213,31,37
91,99,-24,-309,-46,-47
108,97,-22,-69,182,16
116,106,-33,-104,96,49
112,119,-35,-155,-71,-22
111,112,-25,-101,64,-20
115,114,-26,-105,95,44
111,124,-28,-194,-10,52
116,-120,-28,-232,95,34
122,-121,-38,60,140,34
122,-109,-45,-171,76,9
123,-112,-47,-109,22,7
119,-112,-44,-100,52,-15
-127,-120,-46,-23,116,2
125,-116,-49,-102,-11,26
-121,-118,-43,-23,140,23
-99,-112,-42,-1,94,62
3,-25,53,-2835,-2836,-7352
-14,123,79,-215,-3016,-6879
1,-67,26,532,-3613,-6075
6,12,78,96,-2428,-4231
-50,21,7,1784,1390,226
39,62,79,-335,850,2954
-120,42,-25,154,3026,5116
13,32,15,748,3716,6753
-86,106,10,1650,1829,2361
59,-95,50,-387,150,658
1,30,-97,-117,182,963
11,-2,-29,1906,671,3446
87,90,-23,-631,699,3586
119,114,-57,645,437,3459
-60,-20,-95,-149,1037,3390
-3,1,-101,228,1597,2686
-20,-109,17,-474,233,3007
-38,26,0,967,339,3634
-59,40,53,917,-523,3261
-78,64,66,211,58,2198
95,58,74,798,-267,1252
69,23,80,641,-389,-3
56,-65,73,680,-86,-427
47,62,73,772,-418,-822
69,62,44,175,-376,-894
96,25,43,-136,-198,-982
97,-42,69,-86,-155,-592
109,-50,62,-162,-78,-456
112,-38,57,-487,-138,-314
123,-40,42,-276,-55,-304
117,-28,32,-310,114,16
98,-1,19,-345,128,26
77,13,8,-268,42,47
95,36,7,-504,136,134
100,46,-3,-108,217,247
98,82,-10,-304,82,205
96,92,-15,-142,159,174
97,109,-21,-216,51,92
94,116,-22,-239,-25,40
91,124,-21,-221,-59,13
99,123,-22,-87,66,-76
110,124,-28,-153,17,-141
127,115,-25,-6,-17,-244
-125,92,-17,20,17,-268
126,79,-13,-32,34,-223
-126,65,-12,-33,107,-104
-127,63,-13,-40,134,-18
-127,76,-15,-124,112,82
-126,84,-19,-118,211,285
-128,103,-34,-25,288,191
37,-58,-122,-919,457,-7076
20,72,-111,-356,-1153,-6438
-33,-94,115,627,-2001,-6846
75,-65,-41,204,-4055,-6342
-107,45,-44,1,-1910,-3921
-107,121,-11,1151,44,-471
35,74,55,-83,1430,2340
96,-66,-66,-668,2089,4808
56,-9,-58,556,2721,6279
-39,-43,66,667,2099,3741
-59,-101,-52,-1811,1021,2397
-87,83,-100,1237,42,3519
-82,-2,-64,1141,-446,3638
-74,-67,-89,612,-196,3875
-29,-62,-100,994,784,3478
-26,27,-111,1078,444,3764
-17,38,-78,1223,601,2982
-42,16,-53,519,339,2770
-77,3,-23,1115,-23,2857
-100,36,24,872,-142,1876
108,30,10,-119,200,909
63,1,40,167,-517,240
53,-88,58,452,-323,-353
37,-124,65,-133,-278,-818
62,58,60,-23,-69,-908
96,-7,49,-140,-63,-866
91,-39,42,-55,-189,-748
89,-54,39,-240,-204,-663
85,-64,26,-213,10,-326
83,-32,10,-430,7,-1
89,-10,1,-434,4,31
73,30,-6,-571,-86,172
80,51,-11,-484,-37,90
86,67,-13,-249,135,69
77,91,-15,-247,85,112
76,108,-10,-406,-10,13
84,106,-18,-289,198,42
89,98,-21,-120,123,-38
85,112,-29,-190,-55,-55
96,103,-32,-80,94,-12
97,113,-36,-113,164,-89
99,107,-35,-28,32,-25
100,114,-33,-118,18,32
105,120,-37,-122,59,25
104,127,-33,-104,46,24
99,-126,-36,-76,66,15
105,-119,-36,-118,108,-13
111,-126,-38,-37,139,60
114,-114,-41,-113,68,60
114,-108,-47,-93,91,49
0,-123,127,-1617,-207,-6460
22,-90,-68,-927,-844,-7689
-123,97,-14,12,-744,-8961
-61,3,105,784,-3317,-8577
-68,-12,-101,371,-3650,-4518
31,64,76,1618,191,1413
62,-89,91,-209,900,4027
-125,124,45,1314,3430,5899
79,-66,-32,2983,5109,6849
-65,-53,-34,-1053,1303,1494
-114,53,29,-270,954,960
39,-114,-84,2364,246,2411
41,-116,-62,-1219,1238,2268
112,3,-65,1130,1048,4173
-66,-59,-103,1307,1200,4380
-24,46,-110,-346,1030,3383
-35,74,-110,27,154,3034
-48,-4,-78,1948,367,3367
-81,87,-42,-769,180,1887
-108,-69,-29,705,177,1774
102,-2,49,-103,-644,1573
120,-1,41,-184,-122,412
85,-77,57,711,-206,-473
65,99,69,919,-21,-453
59,47,64,510,11,-440
58,15,58,-157,-113,-428
81,-11,44,-72,46,-402
98,-21,34,-25,53,-271
111,-24,15,-164,118,-265
101,-12,13,-336,-59,-160
91,-10,8,-253,25,-17
106,21,-8,-238,252,-58
115,36,-3,-209,548,-197
102,47,-3,-220,-122,29
101,76,-5,-448,-409,84
111,72,-9,-222,146,-90
107,80,-11,-122,175,-92
104,89,-23,-124,22,-95
113,88,-24,-125,67,-104
122,88,-25,-180,49,-79
115,93,-25,-221,-22,-97
116,92,-24,-98,64,-79
121,110,-31,-152,-78,-150
126,123,-30,-212,-56,-62
123,116,-30,-55,165,-91
119,117,-34,-94,58,-92
117,116,-34,-73,16,-46
122,115,-33,-41,153,16
126,123,-40,-135,36,37
119,-123,-37,-198,69,113
-105,-52,48,-1816,-1592,-5952
-125,-125,93,-552,-2224,-6262
26,63,50,-1305,-2822,-7000
116,-40,-66,1464,-3436,-5192
-57,76,-93,1187,-1376,-1378
16,-57,-87,143,1032,2315
38,50,80,-26,2880,3821
-103,-105,117,1826,4699,4758
96,-117,58,1400,2608,5164
-76,-107,-89,177,1964,1417
-38,-33,104,186,1161,2455
-93,-48,121,-2156,127,2364
-103,-107,-87,-118,188,3515
-20,-22,-102,364,1234,3690
18,42,-124,-165,718,3753
-44,-15,-95,-3429,-939,2401
-77,87,23,995,-1286,3010
-77,79,67,1288,121,2541
-70,39,11,1420,46,2444
121,53,30,972,-1061,1693
-121,22,58,954,-396,431
99,74,39,-1167,-289,-1028
49,102,121,856,-515,-844
48,79,107,328,-193,-264
70,68,68,-430,91,-567
103,15,35,-229,211,-480
102,2,17,41,158,-216
97,27,-2,-241,78,-316
123,9,-17,63,274,-127
118,30,-24,-74,76,-9
117,43,-31,-35,-36,24
118,67,-22,-280,57,17
117,67,-20,-33,15,21
115,84,-18,-8,5,-13
114,87,-15,-12,57,62
112,96,-19,-102,30,-16
118,86,-30,202,202,24
121,96,-38,38,61,-10
122,96,-42,-88,13,-51
126,86,-30,10,92,39
125,94,-36,8,83,39
126,101,-38,-150,50,-17
-124,99,-35,-72,64,97
-124,111,-38,-34,105,69
-125,121,-40,-159,19,-59
-123,119,-40,-156,77,-8
-128,120,-42,-141,73,-15
-117,126,-48,-127,134,-108
-108,-122,-49,-87,347,-296
-110,122,-50,126,116,-45
-45,9,-84,-2267,1023,-4990
41,-68,-87,-1134,1269,-7064
-22,87,-109,281,360,-6265
-114,-25,-29,1136,-1139,-7004
1,-36,98,1579,-2656,-5956
16,117,-90,121,-4255,-4194
-27,20,122,624,-762,-678
73,66,109,904,1489,2268
86,91,73,-256,3516,3792
22,90,104,1044,5305,6696
-28,2,113,1655,3498,4837
-109,89,44,-3219,1354,1854
-30,-99,48,657,-163,1194
-97,-44,57,436,-421,2969
112,-96,-35,160,-1361,3560
-60,-91,-68,949,602,3452
-60,13,-18,371,-151,3581
0,-27,-84,1417,1115,3005
-8,33,-51,33,-366,3450
-28,-33,13,1764,-36,2828
-66,-6,99,1491,51,2572
-52,-77,2,2942,1181,2140
102,58,15,9,-443,745
73,-28,27,-1018,-800,-708
55,108,78,-109,-449,-682
56,27,75,202,-38,-612
75,16,77,-164,22,-918
110,-38,56,91,184,-1035
108,-93,53,153,-28,-900
122,-80,39,-351,45,-467
100,-89,36,-467,-125,-278
104,-51,18,-551,-13,134
94,-20,20,-376,-77,-3
97,-4,12,-389,91,85
97,25,4,-444,3,172
98,41,-5,-359,8,170
97,69,-10,-543,9,146
85,98,-36,-734,-120,34
103,95,-19,-298,32,-19
105,95,-29,84,41,-50
99,105,-16,-202,-117,-283
96,99,-8,-387,-160,-247
99,86,-1,-267,-20,-145
94,93,-15,-294,101,83
99,104,-23,-92,149,127
110,-125,-44,-182,120,96
111,-125,-41,-64,19,85
109,-116,-39,-174,32,89
109,-111,-39,-62,75,60
118,-106,-38,-178,96,30
91,-106,-121,1052,-1166,-8174
-95,-16,-28,571,-2253,-5765
-18,-23,115,1726,-349,-258
71,19,-11,-538,753,2255
67,74,-44,-285,2106,5294
19,-69,85,1699,4855,6429
-43,-52,-103,366,2383,6314
103,-95,96,-808,1105,998
-35,-31,121,-432,-475,863
112,-52,-98,126,249,2734
118,50,-53,2439,223,4534
-86,-40,-69,18,413,3605
-18,-76,-119,1148,1131,3095
-12,5,-111,561,428,3119
-47,-67,-67,1316,148,3234
-57,-47,-39,718,209,2482
-96,-19,34,-195,-337,2124
-97,-41,27,71,116,1021
-116,6,28,-282,32,363
67,-88,34,608,-590,-443
73,106,59,111,-419,-637
61,31,70,-357,-288,-678
81,-29,54,-329,-183,-313
101,-35,28,-401,99,-276
88,-43,16,-3,72,-246
89,-14,3,-426,-5,-242
89,-19,9,-113,37,11
90,32,-5,-469,80,-3
89,26,-3,-62,53,15
89,53,-12,-289,72,-27
85,65,-24,-313,29,9
91,72,-29,-198,37,-36
91,79,-31,-160,-29,-86
91,80,-27,-123,17,-70
94,76,-26,-87,90,-34
96,86,-27,-107,-9,-12
96,90,-31,-146,108,12
95,101,-38,-103,8,26
108,110,-40,-116,141,25
106,119,-43,-118,48,-20
104,123,-43,-140,49,-51
108,117,-46,1,120,-68
108,122,-51,-123,54,-104
112,109,-48,1,73,-44
122,114,-48,-82,97,-8
116,123,-48,-122,69,40
120,-124,-48,-129,131,13
124,-118,-51,-57,105,32
127,-108,-57,-132,101,-1
125,-110,-58,-149,98,17
-24,-105,-99,-826,641,-7389
52,-28,44,1675,-359,-9819
25,72,-5,-173,-3632,-7466
-81,94,-22,1047,-378,-977
76,-102,-91,927,198,2427
13,30,-20,-837,2016,4682
-91,-32,123,767,3274,7056
2,-29,-115,3779,3991,6734
93,118,-81,-1900,2271,1983
-36,1,102,-850,-389,1730
-99,-47,126,858,-251,3042
-96,-118,-78,2180,13,3852
-98,-104,-84,1350,352,3435
-40,116,99,1577,1461,2900
-53,-28,119,-1071,1033,2308
-60,-127,-126,654,317,2627
-83,-66,-82,89,-255,2819
-84,-57,-66,-165,-44,1595
-124,-17,-26,-1130,218,1163
-123,-21,-2,-469,1047,-700
-128,-38,10,853,720,208
76,-62,37,619,-613,-137
75,99,48,308,-781,-329
90,48,49,-67,-86,-402
102,-5,20,23,211,-339
98,-3,22,-151,-148,-241
103,-10,13,-265,-20,-154
95,-3,22,-71,-28,-36
116,-8,3,417,601,45
126,37,-27,-347,275,-150
117,43,-33,-557,-233,-33
110,47,-33,-338,-44,26
110,65,-31,-108,150,-91
119,73,-38,-135,34,-58
113,80,-32,-252,-195,-133
120,70,-20,-110,1,-104
115,79,-17,-119,74,-48
111,90,-21,-251,3,-43
119,92,-23,-170,81,-34
-128,103,-36,-149,161,1
122,111,-39,-181,-32,-27
120,111,-38,-78,100,-10
122,122,-43,-113,99,0
-128,127,-44,-118,70,17
-128,-117,-49,-151,30,-20
125,-118,-43,-73,30,-75
-126,-118,-46,-116,113,-52
-119,-114,-51,-126,35,-66
-119,-113,-50,-176,4,-53
-118,-112,-46,-90,82,-39
-101,-83,-51,-2767,2253,-3745
106,34,-106,-4197,587,-5255
78,114,15,1570,699,-4517
-83,-72,24,996,982,-6894
32,117,98,647,314,-8886
-103,-11,127,1138,-1085,-8071
67,-11,-64,807,-4253,-4872
25,-88,36,686,-303,874
20,37,96,-421,212,2115
46,89,118,42,3999,4690
-64,-51,108,1412,4081,6970
-66,-110,67,346,3402,3885
-49,-110,78,-1569,833,759
111,98,80,1871,-286,2382
82,-12,-128,-350,-656,994
38,-81,-34,-601,-307,2875
74,96,-22,1980,308,4126
-125,-39,-33,1919,502,4216
-50,5,-90,542,998,3297
-46,-32,-94,509,792,2908
-51,-33,-55,893,-94,2977
-67,0,-9,797,-455,2024
-91,4,-21,485,408,1889
96,28,-4,320,79,852
72,-35,5,605,-236,-47
37,-103,29,262,-221,-434
50,94,59,-229,-369,-586
59,12,59,520,-44,-539
79,-9,60,140,278,-595
79,-35,32,103,127,-548
85,-81,56,1067,-41,-161
99,-20,27,-760,392,-367
84,-32,18,-942,-91,-273
92,-18,-1,-515,12,61
89,-49,16,1608,-28,581
97,47,-1,-344,463,-38
68,53,-16,-1059,47,-116
69,57,-25,-1041,-103,-14
73,107,-34,-1517,-22,-206
83,60,-17,372,-64,182
90,114,-17,-62,160,-159
86,105,-24,-231,-73,-188
91,92,-18,-54,-62,-129
92,98,-15,-168,-67,-247
89,93,-17,-180,-5,-184
113,98,-14,-308,-64,-35
86,112,-30,-296,-72,-168
85,98,-41,-113,88,-58
99,118,-54,-364,-21,45
92,-122,-64,-378,-209,-18
51,-6,-98,-669,-4463,-5887
80,-76,-25,-1,-5273,-5548
-65,121,-34,-1547,-941,-1070
76,-21,-91,1058,1713,1967
55,66,27,356,4269,4350
-38,-37,4,523,5041,5333
-83,-25,-8,-721,2625,4801
4,83,41,-310,833,1570
125,54,-128,1731,-818,2290
101,-52,-109,17,-54,2436
88,-103,-88,344,215,3104
124,-56,-113,818,232,3760
-82,-20,-113,670,305,3115
-66,-28,-123,331,618,3056
-64,61,-104,110,-136,2592
-90,-29,-45,1136,-137,2277
-93,11,-31,-146,206,1813
-122,39,-29,-169,-159,760
99,-11,-10,573,-476,-119
65,-81,28,809,-421,-502
58,106,28,400,71,-652
58,45,26,50,198,-561
78,41,20,-304,2,-447
85,2,16,-43,25,-383
86,7,0,-346,162,-308
85,2,-24,-299,191,-241
91,7,-27,-224,99,-66
101,18,-42,-68,236,27
99,39,-41,-123,42,29
97,39,-36,-94,172,53
101,62,-38,-350,103,-24
104,55,-44,29,111,93
109,74,-47,-196,193,-71
107,79,-50,-445,28,-176
105,64,-38,-3,-39,5
108,81,-38,-79,67,26
103,87,-41,-71,62,-75
104,83,-41,6,26,-38
103,86,-40,-85,33,32
108,92,-43,-124,55,6
109,104,-49,-200,18,19
117,109,-55,-86,93,-23
111,108,-54,95,36,-21
124,106,-62,74,284,-40
-100,106,-67,-31,104,101
125,118,-71,-56,-150,6
110,125,-54,-329,-48,-139
124,101,-44,94,165,3
-123,122,-52,-223,71,-73
126,121,-56,-223,-85,-47
121,50,-98,-1982,1495,-4988
119,-59,-107,-922,1093,-5546
101,-102,-115,-1642,782,-5738
112,103,-53,-742,381,-6742
-119,2,-22,-789,-396,-6644
10,67,18,-13,-2031,-6160
57,46,124,1606,-1767,-3882
-121,-121,43,1432,-753,-384
-61,32,-63,-154,325,2398
-17,-107,-42,-478,1617,3585
-99,-48,-116,754,2900,4940
34,117,-6,-410,2827,3440
-75,-77,-21,286,1775,4412
-65,-33,-58,158,-106,1750
-57,99,-112,275,298,2002
-111,-115,-74,2376,-62,3137
-111,62,-58,3016,36,4354
-28,-113,-87,1431,1068,3759
1,-61,124,739,1140,3094
-31,-83,-97,1280,357,3235
-79,-62,-63,267,421,2770
-94,-48,-34,-27,450,2467
-107,-43,-17,247,19,1861
99,-86,29,624,-53,1354
84,-91,27,78,-17,695
44,-93,51,-521,-523,46
32,97,63,-336,-301,-513
33,43,58,-14,82,-716
43,8,52,-189,147,-722
49,-29,39,-349,-13,-683
60,-34,35,-523,-96,-510
56,-28,36,-715,-109,-400
63,-32,13,-313,237,-332
69,-30,-1,206,224,-227
67,-16,-11,-172,183,-49
62,16,-23,-579,-77,14
57,27,-11,-438,-198,177
61,46,-19,-334,172,78
66,72,-21,-293,41,13
63,83,-20,-323,-67,50
63,94,-19,-258,10,-40
55,95,-21,-87,41,-19
59,100,-29,-205,105,0
62,111,-34,-207,-1,-34
76,118,-41,-145,42,-82
73,117,-39,-120,-22,-77
72,118,-37,-208,0,-82
70,117,-35,-158,-15,-20
65,127,-36,-276,41,-17
77,-124,-42,-112,107,3
-126,-34,-121,-385,-1478,-6731
26,-127,9,-836,-2839,-6608
-77,-101,-114,-397,-2490,-5953
5,51,15,2477,-1890,-2765
81,-46,-17,970,-444,-208
-19,40,-92,-1506,1694,2537
88,-100,-30,962,2805,5793
4,101,10,1997,3813,4678
-43,107,-44,831,3454,3621
-6,-63,33,-2695,1427,1508
-75,-121,8,-3158,-1316,1396
-124,30,-93,129,-1962,2459
-105,-39,-63,2579,-57,3872
-89,-67,4,4738,-218,4633
31,17,-83,2842,1678,3193
-13,74,-71,845,756,2316
-52,-78,-67,1712,590,3184
-110,-42,-48,128,179,2354
127,-53,-45,21,-97,2034
99,-96,-22,626,212,1033
77,-96,-25,156,328,348
53,120,3,199,-291,-308
58,83,12,-272,-419,-544
54,52,32,-670,-143,-969
54,-22,42,-187,-153,-944
53,-47,41,61,-132,-599
59,-51,39,-173,-52,-628
69,-50,26,-405,179,-437
67,-52,15,-196,-35,-107
72,-31,4,-356,22,-9
67,-21,-5,-157,143,-5
74,7,-8,-404,196,-71
65,7,-15,-223,135,181
63,64,-31,-1374,-146,-114
65,110,-48,-1296,-324,-74
67,77,-36,384,-63,360
64,116,-35,-52,115,-178
55,116,-36,-58,-122,-5
67,106,-45,65,-5,-118
70,115,-47,-313,56,-321
68,95,-44,-100,-13,-165
69,92,-44,-90,-32,-165
66,95,-48,-192,0,-124
63,91,-44,-115,74,37
66,111,-52,-223,103,122
74,-128,-57,-257,70,77
74,-121,-59,-126,72,70
73,-111,-66,-126,127,13
79,-104,-71,-145,97,14
79,-100,-75,-161,56,-28
-61,-111,-89,605,1862,-5554
-67,118,-121,-635,403,-6235
-76,-17,78,-408,-466,-6152
61,-112,103,-203,-2549,-6003
36,-87,21,-1105,-3219,-8308
-75,-70,-17,1910,-2614,-6766
-19,-38,-107,669,-1131,475
126,76,74,1556,648,801
108,-60,86,-1591,2411,3732
-78,56,-97,2056,3230,6553
89,29,-83,683,4976,4860
-114,24,-44,-1805,2188,2416
125,57,67,-1806,-153,1291
111,111,-107,-337,-576,1375
83,-27,-66,-152,-861,2702
122,-79,-3,1903,-380,3890
-90,-29,-18,2020,-496,3746
-79,97,-47,-486,-450,3228
-74,10,-35,1336,-565,3243
-90,117,19,347,-435,3034
-116,34,44,1380,-117,2732
-116,12,65,1776,-137,2902
117,18,57,1634,166,1961
71,83,68,48,-328,665
40,-31,69,786,-291,-293
26,-127,91,1025,-85,-367
30,48,74,604,182,-718
47,8,64,-89,87,-706
63,-31,49,-131,46,-562
79,-53,36,-23,-20,-399
82,-47,30,-243,-11,-470
84,-42,15,-330,46,-344
78,-51,11,-138,-33,-188
73,-30,2,-207,-62,-129
70,-17,7,-395,12,112
72,27,-12,-296,20,44
72,47,-13,-447,-84,-8
74,60,-11,-299,-57,-4
72,64,-10,-126,-12,-149
81,56,-5,65,62,-166
70,41,-18,139,81,-86
67,43,-16,-188,77,82
68,65,-25,-330,32,117
77,87,-32,-188,44,71
82,97,-35,-172,70,45
74,106,-38,-153,15,-1
74,112,-40,-209,79,-20
79,112,-41,-80,69,-45
90,110,-43,-13,112,-81
90,109,-46,-118,78,-68
-86,-125,88,-1201,460,-6520
-72,54,125,-925,7,-6798
-127,-108,-27,184,-1582,-7851
-73,73,-67,518,-4369,-7130
111,-45,122,-1557,1258,-3314
99,44,-65,2336,-58,1618
87,-88,-123,-380,980,4140
-66,81,73,1556,1801,7580
103,-22,-80,2558,2885,5380
-50,-59,38,33,2370,3263
-41,-10,-106,228,1371,2445
-64,33,-81,2947,712,2547
-83,-60,-125,1649,929,2527
-89,124,-109,339,661,2758
-84,-67,117,-879,53,2675
-76,-109,-71,650,-1050,3457
-78,-17,-83,204,-16,3187
-71,-54,-97,1059,532,2549
-105,8,-16,-274,94,2205
-107,-67,-54,804,88,1842
96,10,-6,-236,-941,1248
72,0,11,-756,-939,116
44,-63,33,-478,-461,-711
37,112,48,159,34,-917
31,54,56,265,99,-855
61,51,65,-547,-67,-768
56,20,46,-710,-72,-504
45,22,23,-444,252,-342
58,-2,-7,382,658,-249
72,17,-55,535,634,-149
81,30,-70,199,236,-70
77,50,-70,-509,-207,137
65,79,-64,-1023,-667,184
60,116,-33,-1479,-765,309
74,-128,-42,-853,52,-61
73,96,-52,636,643,-447
56,-128,-37,74,162,-263
55,-122,-43,-430,38,-189
69,118,-52,-15,184,-91
75,123,-61,105,241,-48
83,-119,-72,-80,140,-71
93,-125,-72,-18,43,-32
96,-112,-59,-270,-64,31
82,-109,-53,-286,-168,48
66,-101,-38,-413,-128,24
71,-101,-35,-209,39,67
84,-93,-43,-165,160,26
96,-77,-58,-219,144,-10
98,-85,-61,-19,105,3
102,-67,-65,-218,127,-21
-112,98,107,-873,-1923,-5971
109,-1,126,96,-1752,-6185
-80,30,57,1395,-3897,-5640
53,-48,37,1024,-2448,-5399
-64,43,-55,460,448,-1744
15,-101,9,254,64,2625
26,-123,-8,43,1872,3572
-119,-124,118,745,3738,4796
81,51,125,-235,3332,5420
-78,-76,-81,-1438,1080,1235
-121,-128,118,206,604,-161
80,-41,-75,1541,887,1511
39,64,-39,564,-127,3452
-124,92,-32,428,-122,3851
-51,-86,-41,928,123,3892
-26,-24,-39,335,309,3937
24,23,-77,611,926,3074
0,12,-54,814,-142,3362
-48,-1,-14,907,-619,2831
-60,-39,-10,1005,252,2369
-118,-35,0,910,275,1373
109,-34,-13,408,26,643
59,-63,8,-215,-602,-199
41,115,41,240,-606,-486
40,82,55,-115,-382,-656
82,24,60,-140,-59,-914
102,-38,83,435,-133,-1009
58,-101,73,649,-23,-695
71,-85,62,-317,352,-216
93,-71,13,-201,441,-135
88,-44,-12,-249,50,-44
90,-15,-11,-475,44,-140
91,-3,-10,-78,133,-8
86,5,-17,96,149,20
95,38,-19,-558,134,8
92,39,-16,-320,-156,81
85,58,-15,-263,-133,104
92,63,-19,-226,108,-118
81,62,-25,-83,-160,-32
84,71,-32,-349,82,-106
85,74,-28,-201,-32,-57
88,83,-38,-230,-96,-76
90,90,-41,-370,52,-127
86,84,-35,-72,11,-105
91,91,-43,-46,-8,-55
92,97,-50,-276,-50,-27
95,102,-48,-137,98,-84
95,108,-49,-63,156,-58
97,111,-54,-85,94,-79
99,113,-58,-76,75,12
-57,29,-86,-1775,3343,-4107
-34,-84,97,-123,1680,-4790
-39,81,70,-752,398,-5223
-108,-125,92,-1924,-647,-6370
-50,61,-76,-637,283,-7734
-114,56,50,1487,-1178,-7204
-77,51,-92,1825,-4250,-6417
46,-65,63,-76,-2077,-3288
-104,-73,94,607,618,2493
93,118,114,-138,2622,3920
-54,16,107,-174,5186,5379
-85,97,102,1783,3892,7248
101,113,97,-518,877,2542
-75,-120,14,-1244,-1156,582
64,-5,-101,1127,-107,2936
66,-38,-55,1063,-360,3513
90,-7,-66,154,-370,2858
-126,3,-71,1534,-248,3772
-103,33,-78,2094,383,3199
-17,15,-76,1476,1135,2858
-96,19,-59,499,418,2590
-113,-8,1,782,-264,2458
-120,-11,4,413,68,1579
97,28,20,-324,-310,678
70,-37,13,120,-257,-180
71,-67,21,-541,191,-537
67,99,11,-40,225,-938
65,28,16,396,-212,-957
76,12,27,-63,-289,-1031
77,-31,26,-297,-45,-801
76,-48,40,-500,19,-386
91,-34,9,8,317,103
89,8,-1,-344,-51,-144
77,41,-12,-617,-95,152
71,69,-18,-553,20,228
88,88,-21,-198,215,114
88,119,-38,-327,124,5
92,125,-40,-275,-56,-71
98,118,-45,-85,75,-225
87,108,-39,-63,-55,-201
90,109,-40,-145,-23,-126
89,111,-37,-218,-24,-65
86,115,-33,-197,1,-8
95,125,-35,-125,82,9
99,-116,-39,-148,14,-34
100,-117,-43,-47,57,-52
101,-116,-47,-100,97,7
97,-108,-54,-190,33,39
101,-102,-60,-188,44,28
112,-96,-59,-357,-64,2
-118,-113,58,-1404,-966,-6749
31,-113,-42,620,-1422,-6587
-118,-66,119,632,-2273,-5801
-47,8,29,366,-1968,-3574
116,46,-71,590,-625,-180
35,-55,20,355,1161,1651
59,-124,-14,-744,3078,3918
-51,123,95,760,3992,5635
-62,-90,84,554,2248,4997
23,-74,124,-1200,1078,1022
-93,-76,98,-351,387,2106
-103,-26,114,1751,-189,3177
-114,-32,-81,-299,-739,3230
-87,-108,-95,800,-761,3641
-53,-26,-117,1260,188,2968
-50,-14,-127,1109,457,2834
-102,59,-40,1081,-550,2917
-128,9,21,962,-598,2507
115,-16,52,513,209,2249
117,-67,51,745,164,2072
121,17,56,-592,-253,1353
72,4,39,-201,-525,287
50,-107,61,355,-97,-819
43,92,49,-29,282,-969
43,21,37,302,187,-969
68,-24,23,329,155,-765
78,-35,19,-141,76,-744
81,-49,12,-218,27,-572
84,-53,2,-179,75,-141
80,-36,-9,-279,9,-124
81,-5,-8,-454,-44,86
69,5,-12,-339,72,272
82,45,-26,-510,178,170
74,66,-36,-394,-46,76
82,79,-36,-198,30,-22
78,80,-35,-83,44,-79
72,83,-39,-115,65,-22
87,89,-43,-44,38,-60
91,99,-40,-224,11,-20
86,104,-39,-212,-44,-58
78,99,-35,-143,21,-109
77,100,-36,-94,65,-56
89,97,-44,-32,145,-35
95,104,-51,-115,76,-14
94,111,-54,-118,56,43
91,118,-55,-43,95,-18
94,119,-58,-53,135,32
94,-127,-64,-83,51,9
104,-124,-64,-67,103,3
107,-119,-64,-62,57,1
-82,7,-93,-2165,1575,-5580
-92,16,-78,-2014,281,-6470
-73,7,-19,-1332,710,-7444
-75,80,66,772,843,-7930
-56,20,75,2600,-2250,-6025
75,125,-68,-274,-781,-2862
-48,-83,68,1293,478,1959
100,-120,-45,427,1346,4778
-22,39,69,1174,3378,7035
-80,115,123,-713,2800,4069
-73,27,-62,-1196,437,2603
95,37,-76,60,-176,1739
96,21,-69,532,346,2771
-91,-46,-85,2053,-336,3527
-109,69,-72,-420,-1175,3198
-70,-61,-95,3031,-215,3404
-63,2,-95,1895,196,2959
-114,67,-62,1021,-194,2677
-103,-3,-38,2156,227,2136
106,35,-24,-737,484,1073
77,-83,1,221,-122,1409
65,-118,32,536,-81,979
70,-87,42,-212,-112,463
58,-104,50,-387,-213,-99
56,89,52,61,-29,-339
51,48,41,265,107,-487
58,28,29,-47,106,-537
74,-21,14,174,187,-393
80,-24,5,49,130,-319
84,-20,-2,-216,39,-265
79,-19,-6,-265,1,-92
83,7,-15,-461,-7,-71
81,14,-16,-305,-22,-27
77,27,-21,-120,114,0
83,47,-33,-220,103,-39
83,52,-37,-288,-10,15
84,70,-38,-252,-21,-73
80,73,-36,-183,25,-75
84,77,-35,-195,49,-11
88,91,-44,-306,20,-132
82,88,-44,-205,9,-67
83,93,-46,-201,88,-94
91,93,-51,-88,88,-77
91,103,-58,-194,26,-64
87,103,-59,-136,41,-42
93,109,-60,-77,87,-22
94,119,-64,-145,-2,-27
97,126,-63,-141,34,-59
98,-126,-60,-103,42,-40
95,-120,-61,-160,35,-61
55,-69,71,291,1199,-6690
-68,20,78,-381,91,-7860
-128,-1,-72,2133,-2149,-8616
-99,96,101,534,-4073,-7065
-28,90,56,521,-2315,-3299
-89,-22,89,457,273,1016
82,100,107,-277,2762,3005
-76,-65,124,-455,3769,6311
-67,-86,121,1139,3377,5891
101,-23,-82,-1361,1873,2536
-4,24,59,198,415,2038
-83,69,121,626,-171,2820
-62,-82,-125,1369,209,3421
-66,-14,-104,-417,-59,3050
-38,-77,122,1863,431,3332
-48,34,-83,-340,-321,2938
-55,-8,-84,697,437,2513
-90,-19,-51,1157,234,2302
-89,-30,-51,461,340,1747
-106,-62,0,436,-331,1639
117,-67,12,86,-354,873
78,-45,38,-537,-487,199
75,-109,30,231,134,-403
77,108,23,-56,113,-815
64,58,22,-259,-285,-764
84,9,42,-38,-178,-784
117,-33,16,328,461,-704
113,-26,0,-183,183,-637
103,-32,-14,-516,-128,-302
103,-21,-19,-422,-31,-100
100,-2,-26,-500,29,-27
108,39,-41,-532,-45,26
101,53,-48,-203,-198,-119
89,57,-35,-230,-59,11
87,58,-45,-169,181,22
93,73,-47,-235,31,46
93,85,-50,-386,-30,110
90,99,-48,-339,-128,26
91,100,-47,-62,55,80
103,-126,-48,-396,62,145
97,-119,-45,-215,-4,13
97,-117,-47,-179,78,-160
110,124,-52,-49,164,-191
104,119,-60,-142,73,-156
107,118,-66,-148,82,-77
114,116,-68,-44,126,-24
118,125,-70,-124,55,-10
104,-120,-68,-221,-18,-2
110,-116,-62,-181,106,-15
120,-114,-65,-77,123,31
-41,119,52,-1107,-1170,-7009
-117,-62,-80,743,-2817,-7213
-35,80,-117,642,-2831,-6595
27,81,95,-56,-1552,-2654
-119,89,-26,-395,896,1440
61,-45,-42,-375,2004,4085
-111,-4,107,777,2617,5587
-128,27,-102,1211,3083,5516
-52,85,-14,-1258,1323,2422
-47,-28,111,1894,461,2857
112,-27,57,-1249,-999,1029
24,-59,-87,520,-1342,2849
67,114,-45,780,234,3605
-109,-15,-77,1089,248,3378
-101,82,-56,313,-409,3365
-83,35,-41,2029,-387,3274
-92,22,-59,1240,189,2605
-109,43,-9,100,-157,2080
-127,-41,-24,1008,122,1694
81,-6,15,-49,-413,828
70,-26,27,-189,-354,160
47,-90,40,78,-177,-617
50,100,59,972,289,-817
68,30,15,1081,830,-1073
71,22,9,-369,143,-1064
83,-17,10,-566,-306,-614
94,-33,2,-231,-216,-448
104,-24,-16,-262,82,-597
84,-29,-22,-189,-59,-304
77,-20,-32,-253,-94,-108
87,-1,-34,-335,-60,-64
89,10,-37,-280,-71,80
91,35,-35,-386,-58,165
90,51,-40,-52,63,192
82,73,-42,-176,14,168
79,89,-46,-336,-6,131
85,93,-38,-67,75,102
82,98,-44,-40,147,69
83,109,-48,-170,109,41
86,114,-52,-123,73,-24
94,114,-55,-96,144,-97
102,118,-57,-164,34,-118
97,111,-56,-187,-16,-151
85,109,-52,-232,-12,-166
82,106,-48,-149,110,-76
93,101,-58,63,242,36
103,118,-71,-154,117,56
101,-120,-79,-229,24,64
100,-117,-77,-109,85,30
113,-105,-75,-180,96,26
-84,-37,16,1076,-1041,-7077
-21,108,50,726,-5381,-7266
-104,-118,28,-296,-2451,-4937
6,34,-46,266,-533,-268
45,50,52,-795,280,1077
101,66,-16,68,2455,4082
-76,60,86,1360,3386,6191
-115,65,85,999,4006,5355
-12,73,-76,-1771,1963,1033
-50,79,70,-1098,347,128
67,102,-107,-322,-1173,1972
53,29,-65,-571,-883,3162
75,-58,-41,1341,-836,3869
-121,17,-40,421,-761,3577
-99,31,-75,1397,-653,3551
-72,22,-13,1732,-476,3419
-69,46,-46,459,347,2714
-59,58,-12,-361,82,1226
116,120,28,-2061,122,437
45,-25,103,1708,-1067,1319
54,-18,105,1281,-573,559
48,-51,90,372,50,-438
57,111,74,716,346,-616
71,75,47,126,295,-669
96,22,16,-194,152,-617
99,15,-3,-575,-36,-631
101,-10,-9,-97,-39,-371
111,-2,-16,-324,96,-293
111,8,-26,-302,-2,-152
107,17,-26,-257,2,-35
101,36,-26,-305,-38,98
95,61,-25,-301,-32,166
100,75,-29,-165,57,181
99,99,-35,-31,-1,217
99,121,-40,-286,-14,57
101,-127,-40,-239,-62,-25
103,121,-39,57,6,-195
105,106,-34,157,101,-193
111,95,-40,98,85,-140
107,90,-45,4,16,-111
111,90,-42,-116,8,-139
114,82,-45,-9,135,52
115,108,-52,-258,26,2
117,110,-54,-110,51,25
114,124,-58,-132,73,-28
114,126,-60,-95,54,-12
122,-126,-63,-85,79,-44
126,-122,-64,-136,7,-67
120,-125,-62,-67,19,-116
123,124,-59,-50,108,-56
-5,-76,77,-2143,322,-6936
34,63,-67,-365,268,-8010
100,52,63,2424,-2702,-6892
-121,-118,-60,2046,-4296,-5491
-15,36,-128,-1494,-346,-123
70,-89,29,1302,705,1755
122,31,92,-680,3623,3938
40,-92,124,763,4641,8536
74,-125,102,956,3998,4508
118,14,10,-421,1013,1254
-42,-52,32,294,-229,1952
-88,49,108,850,-180,1461
-122,124,-51,413,-558,1986
-76,42,-81,1873,379,3390
-37,-124,-122,383,424,3065
-31,-128,-92,1809,-112,3745
-44,-32,-49,-141,159,2854
-28,-68,-79,429,716,2487
-88,-26,15,590,-379,2495
-111,-33,49,468,59,1436
123,-47,14,282,518,857
68,-85,38,441,-201,78
52,102,44,294,-72,-298
54,49,41,-30,101,-428
61,-15,35,-11,-10,-513
72,-38,36,2,-25,-407
81,-58,27,102,93,-410
87,-72,21,-42,64,-299
89,-50,7,-396,-45,-304
83,-58,7,-335,-89,-150
87,-42,0,-318,89,-121
86,-32,-11,-263,45,-69
91,-5,-17,-386,-65,-77
78,-1,-18,-296,-31,-33
75,14,-18,-347,42,-24
72,34,-27,-253,14,-72
85,43,-30,-142,109,-104
95,43,-37,-36,105,-83
95,57,-46,-175,46,-73
85,51,-45,-87,-14,-116
74,58,-42,-293,67,-56
75,65,-47,-57,56,-116
82,75,-47,-190,117,-59
99,84,-57,5,147,-82
107,95,-55,-44,-40,-153
103,78,-44,23,97,-111
94,76,-48,-98,93,-51
96,89,-46,-436,7,17
87,95,-42,-260,-26,26
92,107,-42,-274,121,7
