AccX,AccY,AccZ,GyroX,GyroY,GyroZ
-94,-92,-108,-3098,-5068,-6576
-88,-128,-24,-3913,-6322,-9105
-120,103,-19,-4591,-6530,-8619
79,-85,11,-221,-5705,-6376
69,-107,46,1081,-4259,-3593
12,-100,42,1116,-2077,-478
81,86,-5,-2232,3719,7689
-128,-83,64,76,5211,10811
-88,112,36,-1465,1446,5002
-115,94,10,773,187,3019
118,-91,-86,1643,-3228,-7288
56,-32,125,153,-2209,-4878
-44,-36,44,1465,-26,-1892
-128,-106,31,-487,2023,1492
-76,-5,44,-1822,1823,3117
63,63,99,-1815,475,4550
-40,13,86,-1188,-658,4214
47,127,118,-227,-1345,5720
109,-3,-115,198,-1360,4045
-105,-49,-103,1017,-1060,3079
-102,93,119,2167,-199,1562
-81,-121,84,5282,809,1181
-27,-115,71,3910,1372,1239
-65,-83,82,643,1330,929
109,119,92,-669,52,-192
81,63,114,-55,-726,-360
106,31,-115,650,-561,-219
114,32,-114,701,-37,-270
111,30,-115,308,129,-325
107,24,-116,163,-21,-33
98,26,-118,137,-186,87
107,19,-119,171,-92,-188
-125,19,-117,196,135,-103
122,22,-126,449,78,45
-128,36,127,202,60,105
-114,44,118,-1,69,71
-119,57,114,-231,-4,37
-119,64,111,-212,93,-92
-105,68,102,-211,114,-233
-102,63,100,20,-15,-115
-104,66,96,143,-21,-60
-97,77,94,-65,45,-71
-97,81,93,-36,6,43
-92,88,91,78,15,62
-86,97,89,164,19,61
-85,105,85,88,10,26
-84,111,80,-7,49,-5
-80,116,76,-131,64,-47
-73,115,71,-30,46,-53
-73,122,66,-123,13,-80
-13,-83,-102,-1006,-2116,-5593
-82,122,114,-507,-4499,-8369
78,-105,2,-3821,-4675,-10142
126,90,-124,-2523,-5982,-9340
-70,13,92,-2661,-7202,-6211
18,53,20,1818,-4266,-2320
-108,-73,-35,814,-2495,64
-44,-79,21,1220,3579,8665
-47,79,104,2449,5555,10333
-21,26,-108,6756,3859,9526
-126,82,-64,7146,2637,6897
-47,123,112,107,-358,4216
-103,-72,-48,1585,-1844,-83
97,-66,43,1408,-437,-474
59,-1,41,-1722,69,-1724
66,-79,29,-5128,1483,-2265
38,114,-30,-5180,1295,-590
-10,-47,-31,-3792,110,1785
39,-16,55,-806,-716,2748
-77,101,-6,2541,-2063,4453
-103,95,118,6433,1112,3623
113,-62,88,4284,2367,1160
113,89,82,1490,-409,-115
109,-74,-14,1876,-1290,585
-114,86,98,1379,-732,70
118,60,118,450,-52,-945
99,-9,-113,883,21,-769
116,-12,-120,243,325,-445
-113,-33,-126,256,166,-543
-99,-49,-113,385,-306,-475
-115,-20,-105,-426,-715,-205
-107,17,-106,-1578,-575,-408
-87,41,121,-1599,145,-437
-101,52,86,-655,353,-392
-105,67,75,63,179,13
-94,95,69,19,72,147
-88,111,56,3,85,-15
-82,122,57,-280,44,28
-72,-126,56,-235,18,82
-77,-109,59,-190,-10,40
-77,-101,57,-223,91,-110
-71,-107,49,-82,157,-29
-60,-90,42,-234,-28,-4
-62,-86,45,-222,-28,-152
-62,-87,49,-125,-8,-68
-64,-80,47,-129,12,50
-62,-70,47,-163,16,35
-54,-63,48,-143,53,-15
-54,-58,46,-97,-7,-12
-51,-55,47,-34,61,-120
71,-39,-110,-1765,-3906,-6285
77,46,83,-5323,-4581,-8890
65,-27,122,-3613,-7055,-8614
-114,113,-8,-2659,-7404,-8743
-73,-93,-112,158,-4741,-5164
55,47,4,2109,-3236,-2720
79,-11,-31,1139,-190,950
8,-95,70,-152,4233,5825
-40,31,-60,4037,5161,9129
-121,-112,21,5873,7214,7092
104,124,-114,1091,6293,9325
108,-122,96,2356,524,5801
116,50,-105,-237,-1712,-975
90,42,-17,2551,-543,656
102,43,33,-3778,1545,721
68,-8,47,-3318,1902,-89
107,-7,80,-703,1469,658
-33,75,106,607,462,2445
-19,98,92,1898,-553,3352
-14,117,38,1681,-466,1857
-97,105,13,554,-370,-283
-104,18,28,911,-25,-1189
-94,-64,44,1633,-225,-1228
-118,111,73,1958,-596,-893
104,88,97,1536,-632,-317
115,94,109,304,-13,-270
-124,75,97,-401,152,-584
-111,61,91,-399,42,-335
-114,67,85,-162,-118,-173
-109,74,83,-10,-37,-150
-108,91,78,-328,84,-35
-111,107,72,-299,33,108
-103,123,68,-60,88,95
-99,-120,66,-9,81,65
-88,-106,60,-142,58,-70
-84,-104,57,-70,15,-160
-81,-106,53,11,43,-112
-87,-105,55,14,24,52
-73,-91,47,-136,79,-106
-72,-94,49,-38,15,-24
-71,-90,51,-27,25,-34
-70,-83,54,-39,65,18
-65,-79,48,-41,66,-59
-65,-80,48,20,21,4
-62,-74,45,-7,61,-40
-56,-74,42,9,43,-18
-58,-64,39,-72,-43,-60
-54,-68,45,4,66,-52
-54,-65,44,-66,-19,25
-47,-58,45,-64,20,-75
8,5,-36,-811,-2403,-8727
-37,116,96,-1388,-4054,-12573
82,48,117,-2132,-5719,-9924
63,127,-35,-2327,-6926,-5455
-4,75,-127,602,-4044,-1909
14,-65,47,1006,-3690,-476
-20,101,-4,-109,21,1671
64,104,-71,1398,3286,5169
-68,52,-26,3556,4627,7663
48,-84,-90,6013,4627,10018
28,-50,-75,4234,6023,8673
14,-6,-14,-4482,-1919,6725
112,26,-22,1282,-1561,-4676
-58,-51,-53,4587,-1846,827
-90,127,56,-526,-575,450
2,70,56,-983,1020,1098
98,19,84,-2902,1737,2413
-49,-28,52,-456,2836,2460
-37,-27,39,1642,1787,2047
-43,-52,59,3253,-464,1470
-90,-52,24,1499,-925,1
-125,-72,36,407,-488,-642
-112,114,48,168,384,-968
-116,98,50,-91,211,-876
123,121,72,-399,-597,-313
-116,-125,87,-278,-617,-467
-106,-112,93,-454,-422,-1214
-98,127,104,-651,-198,-1737
-99,106,114,-443,-138,-1113
-109,119,87,-162,-119,-679
-110,126,80,-188,-18,-549
-117,-119,70,-114,90,-121
-106,-103,57,-298,183,116
-98,-93,52,-193,125,313
-102,-68,53,-174,-26,556
-83,-43,71,-328,42,681
-58,-17,66,-611,287,426
-65,-10,50,-276,69,112
-76,-14,57,114,-198,-153
-66,-17,65,142,-15,-226
-72,-24,63,24,77,-201
-71,-28,59,-118,60,-64
-65,-29,54,-141,51,-22
-63,-23,54,-143,-10,-1
-62,-20,58,-36,48,-32
-58,-19,58,41,45,-23
-57,-18,53,54,36,-12
-56,-18,49,15,30,-28
-50,-20,47,25,40,-23
-53,-18,48,-29,-5,-25
-50,-119,96,-2570,-3484,-7240
88,-49,-43,-4347,-6322,-7037
96,-49,125,-4154,-6760,-7320
-107,101,49,1211,-4764,-4565
-107,100,-87,1630,-3443,-3014
-112,-73,119,-28,233,380
9,-109,-22,-1536,4179,5994
36,-36,-42,1631,4069,9234
-84,-43,53,1819,3691,7998
-92,125,-69,3776,2111,7483
122,-128,-55,-849,-1437,2284
-44,-108,-53,3523,-1373,-3313
-101,6,67,1212,-373,1793
114,-54,7,-2030,-247,1304
-39,106,5,-1440,701,205
22,114,72,246,776,895
97,115,-128,2837,936,3116
63,107,65,5159,1773,4099
90,-16,5,1682,1287,2328
-46,12,-35,-909,491,445
118,-90,-7,-749,-126,-344
-120,87,41,578,-7,-665
-124,47,56,992,73,-628
124,70,62,164,-162,-315
-126,101,84,-591,-952,-575
-111,54,125,-64,-1184,-1443
-104,18,-73,-499,-640,-1729
-91,-13,-101,476,414,-530
-99,25,106,-3,344,-490
-85,96,74,-1473,37,-518
-79,116,56,-1851,-131,-473
-86,-120,51,-1231,-139,-260
-94,-95,59,-389,-76,-6
-88,-84,61,264,10,194
-87,-73,64,526,-19,386
-87,-62,68,829,-25,570
-79,-65,63,1005,52,488
-65,-47,47,-173,167,26
-69,-38,32,-1041,187,-180
-66,-62,29,-382,126,-196
-65,-77,29,272,58,-75
-65,-60,27,-169,-2,-81
-62,-56,32,-352,-26,-45
-60,-48,46,-273,44,-71
-59,-50,58,100,37,-41
-60,-46,59,171,49,12
-48,-46,49,199,98,5
-50,-48,37,164,56,14
-44,-51,31,14,58,-24
-44,-59,32,177,31,47
-30,-21,94,727,-2738,-6243
109,80,-122,-2587,-4328,-7440
68,-44,-42,-4297,-3511,-9249
82,-89,-102,-3904,-6627,-8195
-17,-49,51,-1591,-6145,-5318
64,32,-34,-294,-3249,-4815
-41,122,63,958,-256,-1012
100,-65,-97,29,2926,5677
-79,99,87,2005,4727,8742
60,-87,-61,3149,3970,12683
-60,-3,63,-1035,3633,5633
-12,33,-111,6333,-973,3769
17,55,-62,-171,180,1248
106,-30,-24,1676,-1335,2665
117,-50,56,-2131,963,1662
78,39,12,-4429,918,1602
-128,24,84,432,-322,2062
-45,65,-96,2778,-186,1420
31,88,60,2719,1391,1038
-42,-121,27,-789,1044,120
112,-44,31,-245,194,-723
85,-114,49,1065,-109,40
112,-81,71,-16,-652,510
-120,-85,79,-323,-725,396
-116,-81,80,-23,164,-167
-119,-74,81,-485,556,-662
-125,-100,71,-531,322,-484
-110,-94,56,-432,224,-347
-102,-80,51,-408,71,-497
-84,-84,50,-163,-45,-623
-88,-87,58,-29,-154,-604
-87,-84,63,-187,-176,-529
-101,-70,77,-532,-188,-275
-102,-45,82,-1188,-149,28
-96,-42,78,-264,61,333
-84,-26,68,427,158,227
-79,-13,51,242,235,43
-79,-17,43,113,105,16
-77,-22,42,-4,31,63
-61,-28,47,109,60,169
-65,-23,50,226,-17,165
-60,-18,55,42,33,-61
-52,-25,58,-37,36,-117
-56,-34,62,6,43,-67
-57,-44,58,126,70,-24
-55,-43,51,100,74,18
-52,-43,47,84,12,37
-51,-40,46,28,2,44
-48,-35,50,-15,-1,56
-44,-34,48,-12,35,-42
-88,28,61,8034,-1245,2289
81,-39,0,4138,1413,577
-105,-106,-67,-4687,-28,-2224
102,-61,77,1212,-4183,-3817
74,2,-88,-142,-5349,-5567
45,66,-119,-4459,-5940,-8217
-56,28,-80,-5893,-7539,-7794
-101,8,-31,-4461,-7948,-5567
-123,-59,-83,-1627,-4037,-1748
27,-15,-12,-795,-2345,120
-108,-101,-19,-58,1958,2332
5,103,117,2594,4318,6397
-29,80,35,5759,6342,9019
105,-16,-84,4790,7935,7594
-117,-85,31,-2224,2066,6875
-96,-20,-65,202,-1010,3119
-111,-108,-89,2720,-1690,-953
-64,-40,10,379,-1589,1004
-75,-109,59,-554,-265,62
102,-61,48,-4314,878,258
75,-118,66,-1429,652,1828
111,-51,98,-345,371,2819
-32,13,96,-654,1049,2071
-35,10,39,36,1107,1565
-48,14,48,837,-1,1189
-101,-32,33,1986,-761,496
-124,-72,53,2166,-662,-303
-125,-99,65,1141,-139,-945
-114,115,84,222,-58,-1175
-106,90,84,-96,-73,-1083
-93,90,91,-453,-132,-949
-83,93,90,-722,1,-1047
-77,68,79,221,98,-890
-82,67,73,481,-192,-704
-86,96,73,-192,-198,-385
-84,112,66,-801,-11,-362
-76,116,61,-699,10,-131
-82,-114,61,-530,-79,122
-81,-90,67,-411,-22,305
-68,-67,65,-417,158,242
-60,-61,53,-60,148,241
-67,-61,46,250,-29,317
-59,-49,41,113,84,315
-56,-50,39,247,13,217
-62,-66,44,923,-54,242
-63,-74,54,1110,-79,105
-56,-70,61,309,53,-91
-52,-85,54,-114,123,-87
-51,-94,46,-175,87,-116
-45,-103,40,-175,111,-137
121,-105,3,-790,-3716,-7127
-67,-113,-1,-4210,-3901,-8671
81,65,-73,-2510,-5730,-8156
54,-103,104,-766,-5431,-5687
-6,-21,-23,-478,-4117,-3710
17,107,-22,-877,-1244,-920
-113,-101,-49,-211,1472,2588
19,-20,125,-124,3240,5125
-24,-51,62,3128,4597,12052
-54,96,-91,-1199,2609,7303
52,126,5,1173,-595,5330
-83,49,45,1324,-165,-1442
51,-25,9,1936,-736,-553
85,21,73,1027,39,-301
89,-42,52,-1977,218,-42
67,105,117,252,-263,1063
75,74,87,1661,360,2080
-117,-13,92,1513,-137,4577
-30,84,77,924,500,4030
-69,44,54,2001,583,1891
-73,-122,27,3196,907,62
-83,-101,46,221,1123,-420
-97,113,63,-1269,704,-649
-115,32,89,-214,-243,-150
127,4,116,1483,-790,394
-125,4,-120,1740,-531,389
-121,51,-110,341,66,111
-123,60,-121,-800,160,-366
-113,59,-126,-1034,-86,-603
-106,57,120,-953,-53,-812
-90,53,108,-616,86,-792
-92,46,95,-30,-30,-370
-96,79,88,-208,-161,-51
-92,103,83,-550,-48,-196
-82,110,84,-302,14,-161
-85,118,91,-90,-42,-86
-85,122,92,141,71,143
-78,-117,86,132,76,182
-74,-108,72,139,-17,184
-72,-100,64,-182,48,87
-67,-101,58,-183,85,9
-66,-97,58,65,58,0
-65,-87,59,-28,27,-88
-63,-86,61,-78,35,-111
-59,-93,62,-32,13,-98
-60,-96,62,124,22,-12
-54,-91,59,87,44,47
-54,-80,54,-14,12,9
-49,-74,56,-44,23,-38
-49,-72,59,-115,43,-46
-15,27,-24,-650,-2479,-5699
-88,-27,-85,-2504,-4380,-6503
109,-103,86,-5259,-4560,-7855
27,-73,94,-3665,-5322,-7114
-55,85,-3,309,-3779,-4088
97,-98,-35,953,-2111,-2495
89,52,47,-99,215,327
78,64,-104,-1144,1863,3299
125,104,70,4413,2782,5639
28,-27,91,4020,5558,12068
51,65,7,-1565,2384,8004
-76,-87,33,2589,515,2552
-46,95,66,3990,-2043,1538
11,38,66,1392,-348,-37
-32,59,72,1052,142,1700
-23,-8,106,1048,431,1257
49,-119,58,-2422,2009,500
127,-75,31,-1966,1897,1313
-96,-2,30,182,820,2897
-84,-11,25,2203,-24,1908
-79,23,17,1462,-28,598
101,-14,23,1842,-325,-433
106,-87,68,2766,-666,-88
100,-107,98,1505,-268,-388
101,96,109,-1181,316,-1292
117,19,86,-1205,560,-791
-126,10,85,-694,384,59
-128,32,91,-274,35,394
-127,57,94,-451,-72,-154
-108,105,90,-1488,24,-518
-104,85,94,-415,-4,-304
-102,82,100,317,78,-97
-104,106,92,12,188,98
-97,109,73,349,133,260
-87,110,69,584,105,236
-83,120,68,324,81,115
-84,-112,69,-410,97,-45
-85,-116,74,-186,11,-26
-79,-117,76,149,70,-46
-72,-102,64,-326,66,-207
-64,-107,58,-331,13,-210
-67,-102,61,-409,-35,-156
-65,-99,65,-266,19,-65
-63,-93,66,-86,46,38
-52,-81,62,2,46,14
-57,-76,58,29,13,1
-56,-74,59,103,31,-15
-49,-76,58,214,33,-21
-51,-77,57,154,13,-17
-46,-80,57,122,34,13
-2,99,-2,-2038,-3209,-6126
14,19,87,-5774,-3978,-8227
12,-48,-10,-1951,-4809,-8839
107,-101,78,-865,-4224,-6907
120,42,-56,364,-1629,-2572
-109,108,-57,-817,-462,-2178
-58,123,-96,479,1922,3171
-78,-55,90,3426,3819,7137
-121,57,109,7308,6872,9523
-14,-14,113,669,3009,8506
122,7,-93,2277,1055,1753
43,-67,-112,2292,-1537,2545
-104,76,35,2864,-697,550
-19,122,10,-2395,2146,-376
48,61,21,-2396,2428,52
97,80,48,-1297,1692,1514
110,-88,88,-785,209,2658
126,-14,74,-739,234,2233
-57,54,108,-1311,695,1877
-22,23,62,-1033,1783,627
-28,21,44,-222,1312,-105
-68,-28,41,2037,181,853
120,-78,59,3336,-1300,1444
123,-68,92,1524,-1211,778
-107,-126,120,253,-370,-243
-121,85,121,476,92,-273
104,95,-126,-191,-263,-280
118,111,-122,-1352,-105,-748
-106,98,118,-1697,308,-843
-96,87,92,-727,345,-712
-90,90,74,580,266,-253
-78,71,62,2064,13,61
-81,79,66,1699,-242,-226
-71,94,82,-111,-123,-540
-85,91,87,-1137,-191,-463
-88,86,92,-905,-165,-177
-91,90,111,101,38,265
-77,100,103,828,234,413
-72,114,79,727,161,410
-70,118,60,423,18,247
-76,74,73,1455,-139,322
-71,56,79,1646,-15,249
-71,74,84,292,134,-65
-64,83,74,-944,122,-195
-63,70,66,-716,4,-122
-64,69,67,-39,-47,-13
-63,88,70,-22,-11,-47
-60,99,73,-67,54,-23
-56,108,72,50,56,-11
-55,116,64,-96,77,-55
-100,107,54,-2992,-3879,-8343
30,-75,-77,-3548,-3843,-9973
66,-98,-95,-5072,-4857,-11285
-89,65,88,1614,-2251,-6047
-7,-112,-46,1004,-679,-3098
119,-114,121,1164,808,1080
122,10,49,1788,2147,8112
102,84,-51,1666,3102,12017
63,74,0,3445,3597,11741
-118,-116,-34,708,1208,5309
-21,-10,-90,2401,-1282,1914
55,73,124,883,-365,-1376
29,24,17,2621,331,-157
34,27,25,-169,1310,479
64,-34,37,-899,1410,2520
78,2,87,-1350,-96,3818
-97,37,94,-1283,-41,3242
-68,15,114,350,142,2094
-87,13,88,806,534,1153
-124,20,101,818,-110,768
118,-38,71,1374,-10,-56
101,-88,58,1429,-13,-592
116,-127,72,441,-72,-1042
-123,108,85,-291,-66,-887
116,93,87,-207,-190,-347
99,107,101,-155,-327,-170
123,118,107,-234,-45,-450
-117,120,103,-263,85,-517
-125,113,94,-35,-77,-390
-121,109,90,113,61,-263
-117,116,80,-25,125,-162
-108,117,71,102,68,153
-107,-125,64,9,56,225
-97,-114,60,-155,91,243
-93,-92,55,-355,50,226
-90,-91,60,83,-70,171
-90,-90,73,461,-93,-4
-84,-100,91,557,87,-102
-82,-101,82,134,107,-65
-78,-98,68,-218,68,-76
-74,-107,58,-22,71,-98
-72,-99,50,-255,52,-91
-66,-90,45,-355,3,-54
-69,-79,51,-262,-72,-34
-65,-70,63,-181,7,-87
-62,-67,71,-63,33,-45
-59,-60,69,-39,55,-30
-57,-58,59,0,81,-50
-52,-55,47,-27,43,-23
-53,-51,42,-97,-1,-51
27,-35,35,-1566,-3896,-8992
63,-28,-58,-2026,-3562,-10024
13,-127,-125,-2944,-6553,-7533
110,-114,70,-1160,-4519,-4447
-79,25,95,517,-3064,-1697
-22,91,17,-426,608,316
-40,107,125,2134,3757,4858
3,96,63,3975,5537,8896
80,-41,110,6561,6430,13417
40,-128,-86,-7460,3049,5893
33,72,40,2719,-1357,3343
-96,-70,11,1939,-2315,-2491
-112,-36,29,3315,-1427,337
64,-115,41,247,-74,-280
96,-56,20,-2529,1350,684
65,-86,59,-1300,441,2119
120,-41,108,-444,-102,3037
-78,26,-123,-878,115,2799
-49,59,96,-1235,844,1591
-80,91,78,-1457,509,408
-100,21,66,528,70,-65
122,-69,39,2942,-426,-461
100,-116,23,3145,-989,-914
-128,-101,55,908,-506,-687
-111,-108,85,-733,-226,-819
126,86,100,10,-12,-233
109,99,126,284,283,106
116,116,112,-422,349,98
-114,-101,66,-1270,344,196
-103,-109,51,-805,334,-137
-99,117,51,323,221,-459
-86,106,54,935,175,-324
-80,121,63,416,39,-15
-80,-126,70,22,80,226
-88,-93,79,-500,68,203
-75,-83,92,-420,9,-75
-65,-94,94,59,53,-263
-60,-110,78,319,110,-181
-65,-111,63,345,32,44
-61,-107,55,263,0,224
-56,-89,59,-1,-51,123
-58,-78,71,-150,-42,-52
-49,-83,82,-18,63,-169
-48,-92,76,89,72,-40
-51,-87,61,-62,22,-32
-45,-88,59,-45,29,-66
-43,-84,61,-73,12,-45
-49,-82,67,39,-15,11
-40,-75,64,43,2,-52
-32,-72,63,109,17,-32
-104,55,66,-2731,-2142,-8070
-34,-106,90,-3497,-4759,-10380
-42,-8,-71,16,-5831,-7635
-28,49,14,-171,-4351,-5020
-110,39,52,102,-1918,-2595
20,27,-23,222,289,624
115,-98,117,262,3900,6860
-42,-98,34,4135,5853,12021
-21,-113,-20,1387,5712,8152
20,64,-60,1461,-1301,6080
101,5,-100,1290,-624,-652
6,83,-7,2135,-586,325
73,-20,77,378,1216,748
80,-6,38,-1981,1881,555
91,-36,58,-1570,-58,1758
-119,-44,91,384,-559,3049
-90,39,-128,60,-762,2866
-77,-8,115,1059,-28,1455
-86,-98,80,3052,950,-3
-95,-120,76,2366,846,672
-104,123,81,761,521,655
-124,102,80,23,205,606
113,101,94,-452,-293,249
118,68,114,262,-390,13
120,82,118,56,-57,-347
115,91,110,-487,-51,-670
119,68,106,-344,-193,-715
-120,61,108,-71,-146,-696
-114,57,103,-121,-105,-783
-103,62,101,-397,-38,-622
-109,68,94,-648,-75,-307
-109,88,87,-747,1,-58
-95,117,74,-677,118,94
-94,126,63,-93,73,144
-88,-119,64,134,-69,198
-89,-92,67,-66,-40,243
-89,-87,72,92,49,241
-88,-81,69,138,88,162
-82,-70,59,-110,125,-52
-73,-75,50,-128,107,-135
-69,-88,44,70,-5,-83
-71,-78,46,-151,-13,-83
-72,-78,50,-84,14,-47
-68,-77,54,46,4,-5
-66,-63,57,-147,7,-42
-62,-65,56,16,61,-67
-61,-64,51,40,49,-78
-59,-67,47,71,143,-65
-34,-71,41,78,75,-20
-42,-60,39,-179,-92,55
-3,126,30,-761,-3610,-7559
84,-115,-52,-4320,-5446,-9846
-83,-24,71,-5209,-6619,-9845
-3,-99,-53,-633,-3762,-6082
-24,124,107,823,-2059,-3213
3,-83,-91,1472,-196,1783
8,60,-122,2377,4644,9156
108,-22,-43,1394,5176,13370
94,103,-125,1374,2724,8530
42,66,12,-168,-2631,3390
-56,-108,-83,2763,-490,-2912
81,95,86,2907,-11,-896
75,44,79,-46,385,321
77,19,69,-158,23,1621
80,31,63,-465,-418,2423
72,76,125,-113,-843,2355
103,86,108,66,392,1778
-112,-100,117,-1200,-104,2234
-114,72,-120,1756,-774,2636
-98,-5,95,3431,-429,1931
96,-26,34,1677,76,-517
94,-119,51,673,955,-1458
102,51,81,302,778,-1346
-127,14,118,-464,59,-783
127,36,-127,-833,-411,293
122,63,120,-804,-147,619
-115,106,99,-828,377,237
-104,110,80,-333,433,-65
-100,108,72,362,53,-45
-101,103,78,658,-142,-15
-93,108,79,437,4,7
-102,114,79,107,-30,-47
-85,122,88,-103,72,-5
-82,114,79,202,117,-127
-83,111,76,232,-54,-151
-80,116,82,-121,-16,-125
-84,115,86,-5,73,-32
-82,118,74,130,141,7
-80,-125,67,-74,52,35
-77,-121,65,-7,17,-18
-63,-120,65,128,74,-3
-64,-108,59,-159,25,-16
-56,-105,61,-135,64,-27
-55,-107,60,128,-2,-37
-57,-96,62,-72,-4,-25
-62,-95,65,45,39,-44
-53,-101,62,276,81,-37
-49,-95,56,72,14,-68
-49,-95,51,-39,12,-129
-42,-101,56,-58,-32,3
-107,105,59,-508,-3537,-10255
-87,103,-41,-3748,-7245,-9773
-1,115,38,-4037,-4041,-7119
6,-27,85,-109,-3874,-3666
56,-29,-10,391,-1193,-1848
105,114,-90,1457,1611,3446
-46,20,76,2989,5729,9655
-40,25,65,7114,6414,14917
103,97,-8,-3151,2332,6097
120,-19,58,113,-3723,3761
-112,81,-100,2035,-1204,-1309
-109,-27,83,1527,-601,155
-116,-25,85,-319,-52,898
62,73,55,-2245,-65,836
96,28,127,-176,-663,1678
109,74,-126,1377,-510,2310
-112,79,115,1218,625,1528
-109,45,57,549,1169,739
-93,-13,18,1012,689,649
120,-44,0,1539,-537,512
117,-67,55,685,-378,59
113,-122,73,670,433,-557
116,83,76,802,502,-560
122,75,88,357,191,-331
-123,79,99,-124,-112,-254
-115,77,101,-292,-87,-343
-111,70,96,-82,80,-414
-106,61,90,292,58,-355
-97,64,88,154,60,-185
-93,80,81,-197,19,-35
-96,88,77,-161,-33,-12
-91,92,79,46,-54,-62
-93,97,72,264,-303,-174
-74,119,66,-101,56,146
-80,-122,62,-366,123,59
-83,-124,59,-114,42,-12
-73,-118,58,-1,35,59
-79,-105,59,49,-182,31
-76,-91,52,12,69,-208
-70,-106,43,141,171,-285
-71,-118,38,105,-25,-150
-68,-118,41,73,-86,-32
-64,-111,37,-30,4,-71
-61,-100,45,-242,-12,82
-64,-88,50,-317,46,66
-62,-83,52,-146,120,6
-55,-80,48,43,97,72
-48,-71,43,-15,96,29
-48,-70,36,0,62,-51
-48,-72,34,7,25,-38
-87,-27,56,2107,2238,-3666
-60,-110,55,-456,-960,-8116
-97,-11,-90,-5117,-2843,-11500
-19,-53,-70,-2975,-4922,-10180
-46,25,-31,440,-3259,-6317
-104,47,83,126,-1990,-4606
-34,-125,101,145,-1007,-128
-51,9,116,-1155,2667,4728
82,79,53,4392,3497,11279
112,-58,97,11168,9323,14681
-120,66,19,-6694,-1032,4020
-23,21,10,-356,-1321,2253
98,-98,-29,4444,-657,-2279
-76,-77,65,-2339,374,742
121,-86,52,-3089,-113,2061
111,-70,96,-1267,-429,3461
-15,-12,105,-506,589,3723
54,124,84,-1772,1013,3118
-37,114,50,-63,31,1145
-126,-20,71,3425,-1552,-867
127,-114,73,4293,-1203,-1088
119,96,60,2595,386,-762
109,93,70,-157,1224,-718
116,91,69,-1561,754,-349
-96,78,67,-1119,-47,-263
-83,55,74,591,-522,-745
-86,44,95,1078,-694,-1145
-81,41,115,380,-593,-1265
-101,43,115,-321,-334,-796
-114,36,106,-306,-15,-253
-122,68,96,-598,83,184
-104,91,88,-678,248,397
-84,113,76,-392,385,478
-65,-109,58,-415,400,444
-59,-94,46,-445,296,135
-58,-90,44,-236,31,116
-65,-87,49,235,-141,168
-65,-82,58,407,-131,7
-62,-74,63,7,10,-97
-63,-73,67,-211,7,-144
-59,-76,66,-163,57,-138
-56,-76,57,-160,82,-141
-48,-76,47,-59,24,-101
-47,-70,45,-121,-7,-105
-49,-67,45,-161,3,-117
-52,-60,49,-154,-17,-82
-53,-58,49,-88,28,-98
-41,-60,51,58,59,27
-49,-50,49,78,-8,81
-43,-43,49,-8,86,6
85,113,-125,1553,-474,-6087
111,108,115,311,-4369,-8129
103,8,116,-2062,-6374,-9906
79,-120,117,-2231,-7663,-8729
58,8,86,-810,-5537,-4548
-127,-95,42,245,-2631,-2885
-55,63,-29,1913,1877,4063
95,-14,107,-1214,2945,10399
88,43,91,2884,2463,12350
-45,-64,-10,3056,3980,7458
12,-96,-44,38,176,7775
98,125,-49,-227,-4253,3955
-32,90,-47,-1312,-900,-1344
31,23,29,2742,1614,63
10,-19,18,3571,1359,2701
-58,90,52,656,-509,2961
-43,83,90,-500,-1211,2019
-126,38,118,-152,-1345,856
101,-65,120,2383,-558,-305
84,-121,112,2881,-75,-927
72,96,124,1661,50,-1046
90,121,-118,-1320,350,-1020
91,94,124,-1807,243,-895
111,86,94,-1657,213,-931
-122,83,83,-477,204,-759
-124,38,75,2149,-93,-182
127,62,81,1802,-408,-285
-123,84,88,-59,-127,-327
-111,99,86,-1300,-14,-487
-109,103,81,-1410,-79,-197
-115,123,81,-929,-51,65
-114,-110,86,-352,-9,228
-109,-88,81,233,42,198
-98,-81,76,325,81,116
-95,-73,68,52,104,69
-91,-74,58,-74,94,64
-87,-71,57,-77,64,85
-84,-65,54,-124,67,9
-77,-72,51,163,34,-15
-81,-67,54,35,-43,22
-73,-59,63,-178,57,0
-71,-59,64,-35,80,-34
-69,-57,59,-71,63,-63
-69,-53,50,-158,48,-61
-65,-54,47,-81,65,-40
-61,-50,44,-120,22,-59
-60,-46,47,-118,-22,-85
-59,-46,53,-75,27,-69
-51,-49,54,62,37,-29
-56,-47,53,116,11,26
123,0,-64,3233,706,-4696
-90,75,-117,2380,-632,-7408
-107,-54,18,-1125,-6078,-9777
-20,25,-95,-4523,-9103,-8865
81,-125,-86,-1024,-5498,-5489
5,-96,-41,-2,-4924,-942
54,72,-63,-651,-1961,2209
-10,-55,-106,3479,3558,6358
82,-38,-33,9407,6963,12183
73,-91,2,6380,7876,9141
-19,-29,56,-13363,-2515,3983
-94,57,106,3170,-1541,-2796
-91,-39,-12,4264,-396,-2149
94,71,-9,-409,-1086,493
84,50,36,-628,416,-222
-41,60,75,-22,-179,1651
41,30,97,888,931,2570
81,16,114,562,588,3541
-12,-18,-106,291,1337,3646
120,-43,57,973,2113,2839
-19,-5,26,824,-61,1613
-125,-33,47,861,-1077,559
-125,-105,76,1247,-237,-257
123,124,67,862,220,-711
105,109,91,288,-399,-575
125,97,108,-117,-486,-797
-107,66,110,38,-211,-1227
-113,49,107,88,-247,-1058
-104,37,100,128,-207,-872
-104,35,92,81,-165,-707
-96,46,90,-298,-217,-526
-102,65,84,-598,-304,-274
-108,78,87,-614,-141,-97
-109,96,85,-480,26,128
-100,120,74,-313,154,311
-94,-119,68,-301,115,443
-88,-92,65,-235,118,607
-79,-100,66,666,233,553
-75,-105,45,1053,239,321
-75,-84,37,188,27,-43
-65,-96,41,-240,74,-229
-69,-115,38,-77,45,-177
-78,-115,39,6,-70,-165
-70,-105,45,-58,-102,-199
-75,-94,64,-118,-135,-279
-60,-100,71,85,151,-265
-48,-109,58,249,242,-144
-60,-102,42,-28,92,-41
-51,-98,33,-103,39,-125
-45,-104,35,197,65,-4
-88,-76,23,-552,106,-7489
49,-86,124,-627,-3908,-10821
-19,-93,-78,-2894,-6697,-10358
-89,90,22,541,-4887,-6459
-123,20,4,1248,-3459,-3715
2,41,-44,919,-1198,3035
-54,81,-80,696,2970,8305
-116,-6,-93,1471,4581,10551
-97,95,-109,5735,1678,9967
45,122,86,89,-2921,4339
-86,-37,-85,7132,-1152,-622
27,20,-81,-571,-217,407
-23,-41,73,335,314,1209
-95,13,75,-1703,715,1973
-79,38,-65,-234,-447,3104
112,37,111,887,1558,3021
18,-119,103,-254,1418,2213
3,123,109,1180,244,1624
-63,43,42,4034,276,1465
58,-3,23,2918,-424,170
95,-36,81,-127,-120,-324
101,88,80,275,309,-271
73,74,80,680,-52,44
73,86,101,306,-254,-182
98,52,123,639,-226,-619
91,39,-118,517,-244,-524
108,30,-111,119,-130,-602
-118,22,-113,-122,-51,-400
119,39,-112,-523,-16,-189
-125,58,124,-648,193,-204
-110,57,108,-266,141,-219
-108,92,97,-600,96,-87
127,94,86,-124,108,-78
-111,84,77,509,228,-46
-100,99,69,284,82,112
-100,114,64,-229,5,219
-99,-119,67,-582,-1,211
-86,-110,63,-479,156,320
-96,-93,59,-383,-5,276
-79,-80,59,-179,117,23
-66,-91,51,287,31,-241
-50,-96,63,59,-47,-110
-81,-70,82,-537,27,-58
-83,-79,69,46,399,-332
-70,-119,47,935,319,-501
-58,-128,42,661,-90,-244
-62,-118,49,-18,-108,-63
-59,-109,61,-266,-32,56
-59,-95,68,-180,54,253
-50,-72,68,-223,138,128
124,122,-74,2832,-369,-5547
-56,45,13,-1227,-4213,-7696
40,30,-120,-3238,-6571,-9423
-107,-108,-100,-3986,-6648,-8614
26,-12,-13,-150,-3777,-3828
30,126,-20,1516,-1864,-572
-33,-121,-68,1347,1420,4025
106,-101,91,2341,3502,8530
-36,41,-105,7089,5064,9883
-59,28,100,-641,1193,7523
0,-9,98,1177,-2114,3044
-47,89,48,1779,-221,-1265
4,46,-108,2564,-860,18
17,-67,16,924,959,-271
24,-47,53,705,1362,1836
58,27,49,1202,904,4474
-87,116,70,169,689,4418
-68,68,35,-670,1436,1618
-76,-88,0,1976,1914,408
125,96,13,2239,1199,-476
-127,89,61,919,232,-394
-100,45,96,-35,-385,-256
-119,66,125,-798,-860,261
127,55,-127,-189,-542,36
126,61,-126,112,-35,-428
127,67,126,-253,49,-610
-128,70,121,-518,-55,-430
127,69,109,-309,-70,-357
-112,61,105,195,50,-370
-114,63,106,192,10,-109
-112,98,96,-488,65,189
-110,117,86,-661,149,128
-94,126,78,-337,220,-121
-78,123,70,106,74,-190
-85,-128,71,43,-95,-69
-88,-115,73,-195,47,-57
-84,-110,69,-152,156,-13
-75,-111,65,75,77,17
-68,-96,60,-154,39,9
-70,-85,62,-200,45,-19
-68,-87,60,56,109,-105
-64,-85,55,-14,-7,-77
-59,-75,60,-127,-34,-8
-63,-77,57,63,56,-109
-58,-74,55,-99,27,-52
-54,-68,56,-94,-12,17
-57,-70,53,193,42,-80
-43,-65,54,43,18,-90
-44,-70,54,80,-85,-37
-52,-66,63,32,7,-46
-30,6,121,-668,-1046,-7464
-124,96,-55,-3542,-3024,-10661
35,30,122,-2555,-7160,-10798
-72,-100,-22,433,-4305,-7023
36,-103,-19,1145,-1813,-3141
-91,-67,-72,-204,-262,2912
79,-78,97,2433,2202,11151
-14,118,-46,1980,2606,14383
-64,-13,59,5775,1076,4989
125,-103,-45,966,-1437,1325
54,71,60,2175,-22,-715
-85,113,24,2372,-687,1771
-9,-91,60,-1199,1051,1853
14,-11,125,-1669,1066,2456
112,-29,91,954,1033,2840
-38,57,85,815,-129,3063
-16,-126,125,-1108,-1146,3496
-22,-52,114,-3083,-202,1950
116,-103,90,-1054,142,718
75,20,101,3156,-89,55
43,-43,30,4648,-128,-326
81,-67,35,2698,125,-950
79,126,80,1042,151,-659
63,121,121,-684,-344,-386
87,92,-123,-775,-258,-628
112,40,-122,331,168,-698
105,28,-120,938,199,-598
-104,0,116,1184,450,-537
-118,-5,121,724,45,-222
118,35,-114,-555,-247,237
-97,47,109,-915,312,213
126,49,89,-314,123,149
-117,65,92,15,-1,211
-94,83,85,51,147,150
-100,85,77,1,16,110
-107,114,86,-375,-16,164
-117,-116,94,-388,144,-211
-80,118,76,69,199,-564
-97,106,76,141,-148,-171
-98,114,75,124,81,22
-76,121,69,-86,274,-74
-71,-123,60,-271,111,216
-66,-118,52,70,102,53
-56,-121,50,176,54,-27
-73,-104,50,-256,-81,77
-70,-107,59,-23,-15,88
-62,-98,61,45,4,40
-58,-90,60,13,-7,-50
-53,-89,62,9,-17,-117
-60,-92,64,118,-6,-127
58,-48,43,-496,-3792,-7278
6,-114,-83,-2798,-4621,-8764
-96,-43,3,-2541,-8348,-7112
-28,98,116,-1206,-6514,-4983
-66,21,80,-275,-3246,-2410
119,-40,62,1481,772,2467
-42,-46,-80,3006,5110,5605
-29,-112,-31,7956,7023,9600
57,18,32,3092,7166,5835
104,-85,11,1828,1955,6955
76,52,-98,2013,-316,1099
-65,39,54,1774,-1346,1398
50,-88,5,-272,501,1338
40,-59,22,-2775,2092,790
55,-110,3,-1297,2515,807
-120,-50,49,-674,1367,2495
-53,-19,64,976,1344,2009
-28,85,99,29,895,-884
-41,50,69,651,790,760
-110,0,95,1310,-460,1304
-97,-88,95,2199,-67,783
123,-110,89,1148,151,287
124,112,90,-137,103,22
-124,99,99,-549,-389,175
-127,111,122,-542,-874,-169
-93,66,-114,601,-458,-1033
-115,0,-119,1969,-45,-1190
127,-5,-106,1337,-112,-654
121,-13,-112,484,109,57
-122,4,-128,-524,285,164
-96,21,107,-1098,326,243
-86,62,89,-1337,90,486
-85,77,73,-834,201,256
-79,85,59,-195,274,208
-82,-127,54,-243,-209,379
-90,-108,71,-302,-495,-82
-77,-111,88,-238,-197,-549
-83,126,84,58,160,-534
-87,127,71,-54,125,-277
-87,-127,56,-172,57,-51
-78,-115,49,-164,106,35
-71,-118,44,189,73,64
-70,-98,45,-40,-13,58
-65,-96,51,79,42,34
-61,-97,54,195,63,71
-64,-94,55,212,66,97
-57,-89,52,0,116,41
-54,-89,48,-24,95,12
-49,-91,44,53,73,-35
-51,-91,39,3,31,-69
-11,10,-108,-516,-1964,-6443
-114,-76,105,-1663,-2948,-8634
-27,-76,-21,-1252,-6135,-8614
-66,52,64,-2742,-6128,-7359
48,-128,-108,287,-4383,-4043
-24,74,-106,263,-1539,-1335
93,19,-42,844,821,1833
87,107,-107,1787,2591,5349
-59,88,13,4824,5850,10777
-79,11,-106,2287,5777,8715
-41,114,-57,3842,1918,7438
66,3,-15,-1256,-1703,87
-14,72,124,1048,-810,280
8,81,19,1967,-311,1893
39,-5,22,-1197,882,1775
47,-58,26,267,785,1970
-115,-46,94,635,758,2206
-74,2,105,-362,609,2226
-55,28,69,344,738,2270
118,-22,52,2560,-435,756
62,-116,66,3381,-1347,-1404
73,69,105,2911,-559,-1223
83,59,-113,-2,906,-587
57,36,127,-1568,849,43
77,40,105,-1783,301,66
114,42,87,-760,137,-100
115,65,92,-539,-70,-521
123,76,86,-502,54,-566
-119,93,96,-568,-156,-475
-124,90,103,-116,-149,-373
-122,100,101,-66,30,-278
-103,97,93,213,124,-125
-107,112,87,35,-33,69
-119,127,84,-135,-5,91
-111,120,76,416,151,123
-99,122,68,542,43,236
-94,-125,66,317,-21,262
-94,-110,69,7,-4,67
-88,-111,70,-53,22,-65
-87,-105,68,-306,34,-158
-83,-106,61,-396,40,-178
-81,-105,54,-339,42,-184
-71,-107,52,-150,22,-147
-73,-105,59,33,-5,32
-77,-95,62,121,42,156
-79,-85,57,215,69,106
-64,-76,46,0,70,-8
-64,-74,39,-125,-2,-51
-63,-75,42,-113,-4,-118
-56,-76,49,-168,30,-93
80,15,75,-2314,-1777,-7562
109,35,-1,-3718,-3311,-9424
-94,-13,-102,-2654,-5581,-9221
60,-17,91,-302,-5766,-7305
-43,-128,120,-268,-3536,-3326
12,97,45,1014,-1002,534
19,-125,-78,523,3862,7199
122,31,87,3302,5751,9416
49,-45,-53,1426,3800,7035
97,-20,29,601,-618,4883
-76,-100,37,910,-479,1138
34,-64,-36,2557,-622,1519
47,49,51,75,-277,2460
20,-81,85,1230,176,3172
99,-127,84,-2085,53,2724
-111,124,86,-722,-41,2515
-48,108,117,1120,181,2319
-52,93,50,1164,760,295
-117,-21,16,2333,18,-432
93,98,28,3872,-1021,-90
65,93,45,3268,-558,347
55,87,74,1128,-103,-406
62,63,101,-592,224,-508
91,38,125,-1063,286,-291
-125,22,-118,-1220,704,-380
-113,6,126,-715,605,-647
120,-1,123,371,4,-335
-111,19,117,381,122,38
-102,39,100,21,217,136
-121,50,96,160,39,233
-96,43,98,616,111,96
-112,46,103,724,-21,165
-104,66,105,65,70,119
-97,68,101,-120,66,-60
-97,56,91,95,61,-131
-75,48,89,107,77,-120
-76,62,85,-206,-68,10
-87,80,85,-308,19,-28
-81,84,82,-180,120,-122
-73,96,75,-343,36,-37
-71,104,69,-210,20,-61
-68,106,68,63,54,-100
-69,116,65,-60,34,-49
-62,120,65,-30,32,-33
-66,-128,62,18,42,-39
-60,-121,56,-29,62,-52
-56,-118,53,-59,21,-27
-55,-113,54,-79,23,-4
-52,-103,53,-67,67,-20
-52,-97,50,-113,27,-59
18,-115,-64,-2715,-4318,-6270
53,63,8,-3969,-5174,-8504
-15,93,14,-2614,-8197,-7376
-9,-6,-55,-2766,-6120,-5195
-30,82,52,-58,-3003,-3144
-128,-46,61,728,1154,821
-114,69,-99,-2,4710,7143
-23,-31,14,2199,5729,11959
-68,-59,45,3842,4775,9152
-73,-69,-123,-2946,-4156,5250
24,-104,-105,2329,-935,-535
-39,57,39,3201,-22,1610
32,110,27,-115,783,2312
50,65,45,-490,558,2900
-124,17,112,1672,-5,3824
9,70,-86,2065,-214,4034
32,71,105,1466,1152,1882
-102,25,47,570,1179,195
120,4,42,-541,770,-66
113,-60,15,-36,613,-602
-105,-112,29,319,37,-881
-119,117,66,1047,-979,-408
103,96,109,1291,-1363,-454
105,105,-125,-124,-698,-956
-128,-104,110,-2470,336,-1099
122,-127,126,-2200,25,-1014
115,-115,-111,-1396,97,-306
-126,-104,99,381,270,450
-111,-76,70,862,172,276
-98,-66,41,972,168,133
-101,-63,37,231,-8,-96
-107,-57,46,-558,-178,-197
-106,-69,78,-272,-87,-58
-98,-70,101,265,87,85
-92,-65,99,454,146,158
-88,-63,73,507,77,117
-82,-67,53,280,64,-43
-76,-75,43,68,14,-29
-84,-75,50,-39,-75,-6
-77,-69,62,-109,15,-34
-73,-65,70,-117,23,-79
-65,-62,74,-188,51,-56
-64,-60,68,-118,72,-117
-59,-63,58,-80,57,-110
-61,-61,55,-104,30,8
-62,-56,54,-20,60,12
-57,-51,55,75,61,18
-59,-45,54,5,1,7
-45,-44,60,105,54,-32
-47,-42,61,71,34,-76
36,18,-60,-3292,1984,-4902
-87,76,-66,-1380,-73,-8251
83,40,-74,-1156,-1911,-10157
-104,95,24,525,-4011,-9349
-120,-104,122,325,-2918,-5796
-104,78,-59,705,-833,-4142
-80,72,58,-297,88,3309
-121,-95,-4,-289,2424,8882
-13,97,47,1230,2374,17709
-121,100,-68,2800,1818,8329
-97,64,5,5081,-1960,4328
-66,-104,112,-621,-3089,-832
105,-32,24,-314,840,86
85,-20,37,1402,45,1477
-111,5,30,1256,136,1382
-121,1,70,2058,-562,2467
90,45,67,22,-425,1706
119,-69,-119,-4849,-524,649
70,68,-99,-1594,-1029,1094
70,45,-92,825,-295,172
59,30,75,1221,580,-1172
60,-49,21,1217,979,-1111
76,125,2,1682,955,-177
89,87,9,1837,464,-173
100,92,35,878,-227,-132
107,-121,90,-1189,-407,-65
125,117,-101,-1123,261,199
-122,123,-115,-609,541,137
126,124,83,-6,19,18
-113,118,50,262,260,-130
-108,119,42,259,622,-179
-95,116,47,215,384,71
-95,126,67,156,-166,288
-98,-120,90,198,-291,287
-83,-114,109,249,64,166
-78,-111,102,252,203,11
-75,-107,77,-81,71,-73
-73,-108,59,-313,35,-229
-73,-108,62,-374,4,-230
-80,-100,68,-507,-13,-225
-56,-94,75,-384,91,-177
-59,-89,79,-197,6,-36
-63,-79,78,-14,39,19
-56,-72,69,157,97,-6
-57,-69,58,153,54,-20
-54,-68,56,125,6,-32
-52,-69,60,118,6,-14
-51,-68,67,122,24,15
-49,-63,67,90,28,-21
-44,-66,63,121,51,-64
110,-77,24,3994,1567,-5589
98,-70,-41,5367,106,-3313
115,72,124,249,-1997,-3369
-49,125,69,-1451,-4190,-4914
-24,39,93,-2291,-6178,-7079
43,17,-16,-3661,-8550,-6561
80,-90,-79,-2395,-6341,-5696
-55,10,-28,-195,-2018,-2990
-106,90,-75,1938,279,761
-92,12,108,1457,4672,7221
-125,-18,1,3162,7258,12910
48,-39,-72,4904,7537,10610
-89,-99,113,-3400,-1049,5302
112,38,60,-687,-2973,1215
-99,-72,-9,2710,83,366
-120,-22,39,829,392,1886
-78,102,16,-2322,412,1236
-85,13,57,780,142,1639
-93,25,83,938,250,1324
-111,36,102,-300,74,952
-99,-28,93,269,501,795
-121,-72,53,1262,258,567
114,-83,16,1325,-204,-688
98,103,38,1731,-421,-767
99,9,100,1917,-394,-742
102,12,-95,501,3,-271
114,29,-88,-762,632,216
-125,7,122,-258,310,411
-109,28,102,-583,296,-113
-98,38,84,-479,337,-264
-109,21,80,345,-81,-160
-107,38,103,219,-143,-123
-106,73,105,-325,-29,77
-94,98,93,-819,174,-210
-80,75,69,-49,293,-251
-89,85,67,-46,-34,-145
-79,98,68,-222,4,-58
-75,112,76,-304,-5,26
-76,-123,79,-245,80,-3
-75,-121,72,-83,133,-79
-71,-112,62,-235,140,-78
-46,-113,60,-133,104,-1
-32,-97,58,-307,126,114
-53,-83,50,-227,-32,-32
-60,-77,53,-118,-89,-227
-56,-83,59,-46,11,-192
-55,-82,59,-101,80,-37
-58,-64,47,-244,136,-49
-52,-62,43,-88,90,-146
-55,-66,43,126,-57,-139
-32,-123,-102,-897,-2820,-7114
15,22,-52,-4713,-5176,-9989
37,110,96,-3054,-7307,-9969
73,-34,74,-437,-4662,-6887
-109,-76,85,2622,-1698,-2853
26,102,-71,1105,1199,2968
-8,-115,89,961,5742,13032
87,-96,94,6287,6274,12936
113,86,43,2287,3397,6409
-28,-122,7,-4492,-3873,6128
108,-14,-4,909,-402,-664
-78,-115,56,5270,568,426
-7,86,13,489,302,2151
-93,-95,-8,-1493,173,2000
-77,-125,19,-412,-176,1163
-119,40,95,296,-119,1004
108,-33,86,1381,259,1027
-118,-16,64,177,879,500
124,-76,11,309,696,64
125,-96,21,408,132,-70
114,97,61,1295,-455,-24
100,117,97,788,-589,318
104,108,111,667,-161,66
120,78,103,451,394,-750
-117,46,97,-79,479,-884
-103,96,86,-1429,425,-742
-123,64,107,-321,-495,-153
-126,104,125,-655,-270,-193
-118,122,112,-576,185,-200
-112,112,72,102,258,-147
-105,116,58,342,69,69
-78,-116,56,-194,57,126
-82,-116,68,147,-153,261
-93,-98,80,188,-118,275
-99,-76,87,-237,35,6
-75,-79,67,-281,341,-261
-64,-92,56,2,-25,-424
-80,-75,54,-47,-334,-358
-85,-83,55,108,-93,-423
-76,-94,57,228,50,-463
-79,-96,44,278,91,-212
-65,-87,35,-55,121,9
-65,-79,33,-180,-68,29
-57,-71,38,-154,-26,42
-63,-69,39,-90,-68,-11
-60,-53,46,-264,-32,322
-68,-38,44,-96,29,215
-70,-33,45,158,23,-130
-60,-36,43,142,106,-275
-45,-50,38,54,71,-243
-18,-123,56,-983,-3153,-8031
-41,-65,76,-3115,-6306,-9758
82,-104,-54,-1841,-6819,-8462
-82,-50,-93,1352,-5880,-5812
-8,-127,102,-858,-940,-505
-20,26,-53,1739,5622,8226
76,-50,79,4561,7794,11627
-53,-60,37,9732,7563,7972
-4,63,-14,-6496,-4947,4119
-84,-99,-109,4283,-1007,-1044
-1,-55,23,1239,1638,1746
45,82,-18,-1599,1848,1837
123,-49,-13,1369,1481,1665
-22,-79,-1,1169,1744,1880
0,-48,40,-447,1199,2033
-27,22,109,-1406,-362,2536
-42,-51,63,254,126,1252
-109,-73,51,595,-94,215
-109,106,60,1770,-819,-470
-128,73,50,3333,-1233,10
99,93,61,1834,-665,-385
48,26,111,738,-105,-989
70,-65,123,948,43,-1165
-108,-82,-92,292,-13,-411
-117,-21,-96,-1405,-210,190
120,21,113,-1875,-187,96
119,21,89,-828,-327,-522
-110,6,86,-61,171,-598
-101,16,78,-367,226,-245
-114,61,54,-1034,185,114
-111,93,23,-1112,193,6
-102,97,21,-359,127,-25
-90,105,32,121,67,22
-105,107,42,295,-36,1
-99,-126,45,-193,80,124
-89,-109,36,-379,185,153
-84,-99,22,-140,151,69
-76,-96,20,12,133,-163
-59,-117,18,405,200,-286
-76,-114,19,123,-142,-97
-75,-118,20,239,37,-87
-59,-114,29,167,52,-189
-57,-108,18,-24,77,-152
-78,-111,19,-35,-129,-83
-63,-103,30,-105,-12,-33
-54,-80,30,-394,-44,34
-51,-53,23,-908,174,-105
-53,-29,22,-938,217,-81
-45,-58,13,-28,445,-311
-50,-84,22,513,-158,-47
43,-90,-12,-1454,-1038,-5688
-41,20,-83,-3894,-1812,-12738
-41,-90,-3,-2235,-3584,-13252
-118,123,-19,348,-3284,-8702
-126,-38,-32,2922,-2706,-3751
-10,-36,-128,-127,18,2187
-78,-101,-125,-47,2419,10722
-64,-43,-16,-646,4255,14275
14,-28,119,4244,704,7275
33,91,-101,-1187,-3496,3198
-95,-82,73,3466,-454,515
38,110,89,3049,667,2187
96,-44,78,1643,1317,2524
-101,-8,86,842,711,3796
60,-23,107,2010,943,4360
-91,-125,63,476,1596,2867
-82,47,47,921,-782,-526
61,-98,-102,1185,-2800,-1359
122,74,-76,816,-1251,-344
98,62,-87,651,767,621
52,84,-92,-172,562,284
65,93,-92,-739,161,-102
118,58,127,475,717,-268
114,45,116,836,209,-633
117,30,-123,541,-401,-701
118,26,-126,-4,-278,-435
102,47,-121,-718,-237,-391
-114,48,120,-755,81,-585
-105,53,105,-658,-79,-624
-116,87,97,-1024,-309,-254
119,124,118,-1028,-450,-181
-102,124,107,257,174,288
-111,-111,99,607,137,-84
-101,-105,83,147,254,-222
-90,-106,74,-430,262,1
-97,-108,71,-343,-56,201
-89,-115,91,294,13,368
-79,-121,95,870,320,427
-91,-92,85,102,118,450
-86,-66,65,-657,196,126
-65,-84,54,-193,99,-406
-67,-102,61,164,-142,-487
-28,-113,71,37,49,-359
-24,-105,74,-283,65,27
-61,-90,67,-347,-85,318
-89,-51,68,-567,-29,203
-79,-63,67,86,207,20
-71,-57,64,61,129,100
-46,-47,55,-206,98,68
-42,-39,49,-275,-129,7
-111,-8,26,-1374,-2344,-7885
127,-67,83,-3456,-4662,-9368
-43,95,-38,-3132,-5440,-8730
-81,-22,-64,-40,-3067,-4817
124,-127,122,1429,-171,-940
-125,40,-96,-13,2035,9244
16,-87,0,2144,2816,12943
-5,-42,55,3912,3502,8763
106,-119,98,2366,-1411,4629
-103,-31,1,3695,-1320,313
49,23,20,-1305,525,322
33,-10,71,2722,199,2425
91,8,43,1742,834,2599
79,-126,82,-922,467,2797
-113,94,78,430,541,2303
-68,99,103,277,463,1730
-108,62,95,-971,487,1069
106,24,111,-295,-132,959
107,-56,108,1438,9,320
98,-126,91,1967,84,-193
96,119,96,798,15,-218
103,100,125,254,-225,-105
70,97,-91,-98,-251,117
71,-118,-82,-1331,358,-490
112,116,-118,-1235,361,-507
-116,101,86,-511,175,-741
127,80,87,716,-109,-426
119,90,92,414,-159,-357
124,116,100,-442,-6,-117
122,113,109,74,-135,326
-112,-117,120,226,-21,450
-105,-90,95,158,411,208
-44,-117,68,405,399,-617
-95,-123,90,-69,-338,-138
-125,-89,94,-695,-41,528
-92,-95,72,-68,444,-25
-66,-101,56,368,149,-289
-73,-102,66,190,-445,-153
-89,-85,90,-332,-352,-54
-87,-82,86,-348,199,-303
-73,-100,80,86,248,-190
-74,-84,73,-135,-21,59
-69,-79,66,60,23,-100
-60,-79,73,140,46,-199
-58,-84,66,42,21,-185
-66,-87,66,-165,30,94
-66,-74,65,-107,70,216
-54,-69,57,172,16,-25
-49,-69,56,44,-118,-126
-56,-74,70,-68,-129,173
125,-70,-98,490,-1755,-7490
-85,33,125,-766,-3905,-10565
39,-12,-7,-1552,-10434,-10184
102,123,-111,-554,-8249,-7060
-12,68,104,835,-2835,-2896
93,-111,62,1648,910,2183
-91,68,-79,1072,5518,9306
-5,-21,38,766,6524,15235
90,-76,34,7885,8605,9400
38,95,76,-6686,-7898,6104
-51,-48,118,2407,-867,-2563
-76,-95,35,6712,2167,-357
-118,-75,98,-2203,-62,1013
38,47,-13,-13,-885,2420
51,103,72,184,883,1879
126,85,-117,25,642,1745
-116,39,101,578,327,2692
-105,116,113,-1741,-86,2369
127,11,73,492,312,1288
99,-112,74,3439,-132,261
83,110,103,2483,-228,-592
106,127,-123,-117,358,-773
115,91,-104,-1123,328,-982
81,67,-106,-902,-102,-407
124,60,119,85,-8,-107
117,46,104,720,56,-219
113,88,87,-198,255,-515
-92,63,87,-149,269,-557
-88,40,99,605,-124,-214
-105,45,98,836,-174,-215
-121,69,106,-215,-161,-253
-100,97,93,-1082,182,154
-94,118,72,-857,79,285
-99,-112,66,-517,-196,-18
-97,-95,83,-192,-195,-11
-98,-76,86,-218,-81,-45
-93,-65,82,-313,101,-174
-90,-60,64,-293,118,-212
-83,-61,54,-152,50,-188
-70,-59,54,-134,0,-158
-77,-45,58,-312,-50,-137
-78,-44,62,-200,5,-179
-75,-40,65,-163,58,-152
-67,-39,62,-68,63,-115
-65,-35,60,-49,52,-67
-63,-32,56,-14,89,-68
-61,-29,49,-12,50,-29
-58,-27,48,-33,56,-6
-58,-21,51,-54,30,-29
-48,-26,53,129,55,-107
-60,-123,95,664,-2561,-6296
-114,43,-112,-762,-5012,-9037
-42,96,-18,-1289,-8084,-8233
-24,-65,81,-937,-6009,-5685
-76,112,-80,101,-3383,-4506
9,21,6,1404,1801,1804
11,3,116,695,4784,10009
-15,-55,-19,485,4683,15992
-9,23,-62,2284,3521,7548
121,66,15,2465,-3177,4067
10,-76,55,2371,-440,-1370
-58,-24,35,2433,-779,1953
15,80,20,-1829,542,1167
35,13,96,-852,640,1495
100,-64,-109,931,503,2610
-43,33,-109,536,999,3375
-39,-101,-127,-899,431,3229
-80,68,102,2503,-594,1643
91,-80,78,3698,-910,-1290
41,80,78,2567,-255,-1830
92,78,120,-274,700,-748
94,62,122,-1559,620,154
80,66,105,-1654,-68,457
102,103,110,-1131,-277,300
111,103,114,65,-70,-203
124,105,112,357,175,-817
-128,95,105,28,107,-768
-128,95,102,-313,-47,-442
124,101,106,-379,-114,-115
123,119,108,-447,32,-93
-126,117,104,188,61,13
-116,-123,95,279,86,13
-97,-110,87,-192,206,-119
-98,-112,73,-246,151,-77
-95,-119,62,-32,100,73
-89,-103,64,-107,38,144
-60,-99,70,68,179,135
-67,-98,68,415,7,122
-96,-93,69,394,-105,-75
-72,-105,71,202,105,-104
-67,-109,78,-26,-7,130
-72,-100,74,-80,114,66
-76,-94,73,-60,108,-43
-62,-88,71,-66,74,-67
-55,-84,79,-61,-32,-85
-60,-76,83,-19,97,-352
-56,-93,75,173,121,-417
-51,-95,71,-164,38,-177
-54,-87,68,-243,59,226
-48,-69,68,-127,139,8
-96,91,-63,-4142,-1412,-9345
97,-106,-68,-3063,-1891,-10044
61,-59,-6,668,-3818,-9133
126,-66,-62,2054,-3198,-5469
71,69,44,2583,-1099,-2200
22,-101,-81,1053,987,2280
-62,81,85,457,3582,8208
63,125,-113,-1529,3539,13294
-101,92,118,2854,3590,9480
-59,-120,66,2186,-1171,6596
-82,-32,-60,-150,-1199,-2613
-27,20,67,1536,835,-287
-87,-55,96,3083,591,1825
-113,-3,95,1158,883,2332
-102,-3,102,-1249,242,2784
-87,-24,-83,-848,-847,3501
-35,-24,-83,486,-577,4073
-110,-47,126,3360,-1097,3692
77,-15,-114,2156,-1734,491
62,-52,112,964,43,-1448
62,-110,76,182,1337,-1952
54,16,97,978,447,-2555
64,54,-37,3841,-1230,-1753
75,94,0,2940,-1156,93
106,-63,45,-865,-356,127
90,-19,20,-3725,-245,-455
74,-22,-85,-3425,297,-288
88,3,122,-1864,456,37
113,39,99,-117,265,264
108,64,106,742,-273,284
101,90,109,463,-271,151
110,99,126,323,76,267
-128,111,116,-13,395,149
-122,123,87,-427,301,-120
-119,112,73,-347,40,-219
-105,116,73,-295,105,-14
-104,-124,68,-160,133,-108
-83,-127,62,-88,80,-436
-86,-120,85,-282,-106,-47
-102,-95,86,-363,97,24
-127,-92,78,26,130,-272
-104,-102,75,114,119,-355
-81,-105,79,-31,82,243
-72,-66,78,-529,83,308
-73,-50,66,-500,190,-85
-70,-41,63,-423,132,-262
-67,-49,62,15,60,-179
-67,-55,63,366,-2,-248
-60,-71,62,606,26,-280
-63,-77,62,324,-58,-188
0,79,107,-3153,-402,-9116
92,117,13,-2599,-2301,-12579
-124,7,-78,-281,-6126,-12236
-93,-40,-38,1687,-4133,-6745
-54,-113,-100,2384,-807,-3660
-41,-96,-78,-2696,558,8887
119,-30,98,1262,1827,15489
-115,102,-54,5621,4180,13355
-109,-76,99,2394,3841,3671
-62,-19,-15,-3393,-7009,1408
-92,-103,-49,3054,-882,-24
10,98,104,53,1588,540
-26,-118,-73,-1367,-1355,2803
31,-126,-42,234,-1455,3846
-66,-118,-65,2286,-276,2780
21,-96,-111,992,294,2790
42,-43,-127,-1177,75,2237
-56,-79,113,-796,-334,773
113,54,80,1737,-440,-562
31,-78,96,3231,-1178,-925
63,-107,-114,2405,-987,-519
75,123,-98,1536,126,221
46,126,-118,451,663,560
53,-122,115,-500,326,-34
85,121,104,-733,169,-712
-124,63,105,-74,198,-1077
97,50,126,446,-131,-456
96,62,117,128,56,-115
103,100,108,-575,205,142
113,111,95,-602,224,-62
-127,115,88,-154,217,-106
-117,113,79,240,103,-279
-127,111,79,324,-4,-184
-108,116,81,125,52,-72
-98,-123,83,-223,-2,39
-98,-115,80,-177,-11,-31
-99,-104,88,-178,-48,18
-95,-78,93,-325,23,-61
-94,-68,83,-293,87,-289
-94,-56,76,-347,-9,-446
-78,-76,70,153,-42,-456
-98,-76,83,236,-244,-220
-92,-68,92,7,21,-89
-66,-69,77,-53,385,-134
-79,-72,61,40,127,51
-72,-68,56,209,44,46
-50,-76,53,295,104,-224
-55,-75,58,-44,-110,56
-72,-65,73,-282,-131,228
-62,-59,79,-67,186,236
125,-66,104,962,-1629,-6767
-59,49,89,-3959,-5830,-9508
62,72,28,-3715,-8039,-9593
-64,-75,33,-780,-5789,-6978
-15,97,-83,1331,-2641,-2755
74,-75,-47,-278,961,2972
-105,-23,106,-559,4205,10858
-46,13,-32,2191,3443,14789
20,-57,30,1806,4781,8728
-49,65,-59,-273,-7449,2988
-31,105,83,229,-1012,792
46,39,-115,3062,504,1089
-52,125,68,1356,621,2322
-19,-64,40,-526,621,1972
-60,104,49,268,31,1674
-75,84,82,685,-801,1849
-69,105,96,567,-1431,1499
92,117,93,296,-1489,166
81,56,60,-102,467,-1608
76,-36,57,-145,876,-2012
72,-109,89,-488,568,-1584
113,-104,104,-1134,419,-628
-115,-97,90,-764,348,63
123,-92,80,215,-89,135
125,-75,80,379,-85,2
-114,-61,79,-33,189,-122
-113,-70,58,47,256,-44
-113,-64,60,49,-69,287
-120,-52,77,134,-259,423
-115,-39,107,131,-153,416
-98,-30,91,-322,307,15
-89,-27,71,-489,492,-156
-77,-44,54,-42,270,-115
-80,-38,52,171,-70,74
-78,-28,55,-11,-102,-116
-69,-41,70,185,15,-100
-68,-43,68,140,94,-137
-68,-40,67,-85,1,-143
-66,-42,69,-130,7,-100
-67,-51,66,127,100,-88
-59,-54,55,146,74,-60
-67,-44,51,-162,-110,66
-68,-28,57,-605,6,-32
-48,-30,61,-320,172,-72
-49,-32,57,183,-47,-82
-57,-31,58,227,-40,-169
-50,-32,66,57,101,-178
-51,-34,71,0,-14,-5
-43,-25,72,-49,132,-97
-44,-21,61,-88,107,-179
-120,43,-11,-2128,64,-7220
26,-68,-116,2111,-199,-12015
-118,-50,-72,3230,-2572,-9561
28,117,-22,2275,-7032,-8832
71,-36,73,1080,-4435,-6141
124,92,-97,2664,-1871,-3184
-38,-13,-108,-3068,-619,4235
63,69,69,-849,1869,15527
-95,86,31,667,4168,17820
41,76,-20,6047,4385,8399
-19,124,119,-5471,-6379,143
-124,34,-114,-1081,1000,-2479
46,102,-97,4813,-351,3758
112,-31,-120,-1226,-744,2752
-115,-4,-87,-1296,-855,2261
-69,112,-39,2629,-1003,2944
-69,85,-18,1997,-973,2938
-57,79,-75,62,252,2069
114,0,120,329,754,562
73,-90,87,1442,427,-523
113,115,110,1156,-112,-564
109,120,-114,218,-695,-118
62,107,-88,189,-767,-213
94,93,-103,-85,191,-690
113,95,-120,-605,433,-974
108,63,122,-160,2,-841
105,53,-128,208,-318,-527
98,71,-119,-81,-213,-321
105,86,-128,-354,181,-184
-109,104,116,-468,298,-48
-98,121,107,-318,109,228
-105,-113,108,-150,2,214
-100,-93,105,-21,120,-2
-122,-91,95,35,82,-183
-95,-94,89,-178,122,-95
-96,-74,86,-646,-56,144
-94,-71,86,-260,-59,47
-101,-58,92,-24,21,-68
-82,-61,88,128,184,-201
-70,-70,84,342,0,-184
-79,-65,85,127,-76,-216
-69,-65,92,-138,94,-278
-72,-73,79,-159,73,-208
-71,-73,75,-251,-68,65
-69,-52,76,-443,-7,149
-66,-40,75,-317,67,20
-57,-33,79,51,35,-116
-50,-40,82,270,26,-215
-48,-45,81,132,75,-121
-60,-44,77,-60,18,-38
-117,35,84,-1769,-2353,-7394
123,49,-105,-1735,-4925,-10509
-126,-15,-13,-2591,-6224,-9816
83,46,103,-1393,-4262,-6871
-94,-80,-87,1753,-294,-1439
-54,-13,95,-1484,530,7168
-75,-62,38,-901,1331,11134
-98,40,-101,-517,1118,12029
103,49,113,4512,483,6897
46,-124,24,1052,-2146,1606
-100,92,12,-306,-824,179
120,-22,88,2655,-539,2167
105,65,103,-523,-843,2565
97,3,-76,138,-1491,3221
-83,-69,-75,3068,-556,3552
-17,-27,-93,2781,136,3214
-26,101,-75,-1072,663,1804
85,87,-87,-2045,-284,692
32,-12,-76,175,-345,-365
61,85,-126,3207,701,-1552
95,23,99,3711,992,-2008
101,6,-124,2259,406,-874
82,27,-92,-376,-243,409
82,45,-97,-1590,-562,35
107,41,-114,-1454,-301,-221
121,47,127,-730,9,-524
123,50,-126,-55,-211,-594
107,57,-108,326,-449,-294
111,70,-104,19,-149,-228
123,79,-119,-229,268,-174
120,82,112,-226,199,-61
123,92,103,-179,30,159
-119,109,94,-295,94,91
-114,-128,92,-347,64,122
-107,-125,88,-143,182,119
-107,-114,78,-123,113,155
-98,-95,70,-302,83,73
-95,-90,72,-190,23,3
-89,-86,70,-45,17,-106
-85,-84,68,-14,-17,-225
-86,-82,69,-160,-37,-215
-86,-79,66,-304,-78,-226
-87,-76,77,-123,-40,-198
-81,-76,79,40,90,-229
-73,-71,69,-86,67,-215
-77,-76,62,21,-20,-181
-70,-70,64,-178,88,-163
-71,-76,64,25,4,-18
-73,-67,67,45,60,63
-63,-60,66,33,160,54
-23,79,-35,-2944,-2651,-8950
36,0,-54,-3805,-4319,-10793
11,-2,16,-948,-5488,-7278
-24,109,91,-264,-2304,-5094
24,-6,-118,1612,-93,-1157
-73,37,-124,320,1495,6633
-20,-66,28,-1042,2196,11361
125,-105,-22,1267,2472,10571
123,-23,-87,2973,-1472,6532
-126,23,117,2340,-1034,-1134
97,56,21,2318,-158,276
74,57,64,2828,-299,663
56,55,81,-316,81,861
21,-11,112,-644,-228,1961
91,-50,-56,511,-147,3604
-99,-38,117,426,1035,3787
-11,111,-112,-1337,294,4070
-79,119,120,43,-635,2817
105,27,-127,1801,-1202,-145
55,-76,108,2855,-498,-1449
72,108,-121,2142,349,-1372
79,90,-124,603,818,-643
82,70,-122,-221,441,-225
92,60,-121,-648,-242,-228
102,66,-126,-633,-217,-557
114,53,126,-185,19,-739
109,43,115,127,33,-661
117,46,114,107,-62,-408
126,54,114,-48,-70,-198
122,65,112,-103,-17,-42
124,82,113,-314,43,76
-125,84,106,3,145,202
-116,105,93,-41,138,235
-109,109,94,134,63,263
-101,90,100,951,264,260
-100,108,89,510,123,215
-85,-123,83,-551,105,-38
-87,120,76,-393,46,-173
-88,107,75,167,22,-211
-86,118,73,-47,-43,-162
-84,125,76,-177,-66,-186
-83,127,81,-119,9,-208
-79,-123,84,-166,42,-179
-78,-121,81,-9,-1,-139
-74,-113,78,-113,99,-187
-67,-118,72,16,103,-93
-70,-112,64,80,15,-6
-63,-103,62,-60,106,-62
-60,-101,58,-46,66,6
-56,-94,58,-81,10,41
27,-101,-83,-689,-1708,-6917
78,58,-6,-3282,-3059,-9288
-98,88,-62,-3128,-4816,-9513
-123,-45,110,-1197,-4290,-6650
-22,68,12,857,-3274,-3607
96,106,-34,1501,428,4456
-36,82,-128,-703,2081,10175
-16,37,70,3362,2367,10295
-117,-54,18,2607,-1203,4857
114,-12,114,-626,-750,834
-37,-108,65,2197,-227,-665
13,-49,90,1149,-22,766
27,116,73,9,282,1354
-3,10,110,764,-49,2734
33,102,-98,873,-1645,4203
-126,-94,-112,-2,-957,3407
-80,91,-75,813,-576,2929
-80,13,-99,2492,647,2211
-96,10,96,2016,1199,1611
110,39,93,46,469,801
67,-67,83,1450,-238,-303
77,106,99,2439,-281,-634
87,68,116,1938,-60,-380
72,74,-121,642,-57,-7
67,63,-120,36,-91,-160
81,57,-116,-136,-189,-469
92,50,-113,-36,-280,-859
115,28,-107,76,-235,-979
97,-7,-93,-61,-356,-910
101,17,-90,-669,-80,-184
127,54,-119,-1004,299,-9
-127,60,109,-413,67,-322
127,67,105,0,-43,-124
127,83,100,-24,104,35
-123,110,86,-75,81,100
-114,124,85,-103,52,89
-114,-115,78,-286,60,36
-105,-109,68,-252,104,9
-101,-109,64,63,-31,51
-98,-93,67,-142,-128,-173
-103,-92,88,-132,-81,-219
-98,-90,95,-244,109,-129
-92,-84,76,-269,140,-33
-87,-78,59,-144,100,-124
-81,-78,49,-27,83,-198
-57,-82,35,-44,74,-202
-74,-55,45,-795,-194,-30
-94,-43,70,-456,-160,-140
-79,-62,91,377,183,-279
-67,-61,73,185,86,125
9,122,30,7317,1044,-2348
84,96,-82,6042,538,-3243
-66,-19,10,-166,-54,-2872
17,-66,83,-3421,-1762,-3796
6,-95,59,-4143,-4846,-9990
-2,-78,3,-301,-8220,-8908
39,116,-100,-3632,-6191,-7123
71,107,30,2078,-2601,-3348
-58,72,-29,45,1371,7224
122,-29,111,-1404,2540,10919
-30,10,14,2239,4249,9719
97,110,-9,587,2855,6248
-89,-113,24,1621,-4675,2161
-33,6,-29,1583,-2176,-3049
109,-3,-68,1238,578,164
20,-125,-128,1046,287,-133
-41,92,117,-338,-503,914
-5,10,121,634,170,1276
47,5,-94,-107,350,1863
-66,112,-28,-2525,-329,3596
24,-60,-26,-3257,-73,4124
39,-55,-55,-1062,-80,3014
-82,-99,-103,1854,-928,1604
113,32,-109,4278,-1838,113
93,-112,-90,4724,-1261,-320
87,-122,-87,2320,256,-596
92,126,-58,-97,596,-691
108,74,-71,-753,315,-549
-122,56,-79,-278,-28,-826
-99,31,-86,429,-38,-956
-94,30,-90,398,-9,-960
-89,31,-97,13,7,-893
-94,30,-106,-265,-1,-481
-88,42,-110,-359,35,-120
-79,67,-120,-473,21,389
-89,102,-123,-732,-182,600
-89,125,-127,-639,-63,507
-82,-119,120,-196,-6,401
-85,-115,113,45,28,201
-85,-105,106,-82,102,84
-86,-103,95,-4,101,94
-85,-102,91,93,19,25
-72,-102,89,108,79,-147
-64,-103,89,16,-4,-161
-70,-98,92,-131,-95,-118
-73,-94,95,-137,57,-271
-57,-107,84,73,69,-318
-59,-102,83,-224,-117,-32
-66,-98,88,-31,-47,26
-55,-81,86,-185,162,-99
70,-21,-72,2567,2023,-3875
-30,-106,-30,3709,399,-1749
74,84,-97,268,241,-2316
-83,-71,99,-3618,-4464,-7065
-46,-115,32,-4491,-6989,-10828
-52,89,66,-507,-5143,-8312
49,16,-95,70,-2871,-5407
5,-24,-52,1176,-460,-958
-5,25,-117,-185,2025,5612
71,-117,73,1439,3314,12525
-37,-58,-30,3349,6269,10453
-8,-95,-52,4248,2488,5956
101,74,60,-4252,-2726,-466
-53,-75,52,2696,-668,-502
73,-112,110,1177,256,1859
13,0,65,-1966,-932,2457
-3,4,-60,-279,-1417,3526
-126,44,-72,915,-1146,3277
15,66,-110,2900,1204,3072
41,59,-60,4205,954,1403
-47,79,105,2565,799,-529
-114,-15,105,743,698,-1009
89,81,-84,1269,-396,-550
94,67,-51,297,-534,483
90,52,-43,-668,-824,515
98,46,-43,-1198,98,-127
122,82,-59,-1319,822,-951
-119,78,-76,-405,353,-808
-112,72,-80,525,-218,-358
-108,84,-80,322,-197,-256
-108,80,-88,1,-115,-163
-119,78,-102,-356,-227,181
-122,79,-112,-456,-239,403
-116,89,-119,-402,-111,487
-110,108,-127,-445,-37,348
-110,110,117,-282,18,213
-108,118,108,-134,115,50
-99,-125,102,-45,95,32
-99,-116,96,-216,-66,57
-104,-100,89,-479,-92,45
-95,-99,77,-236,16,-111
-92,-97,79,-169,-34,-232
-91,-81,77,-549,-1,-230
-89,-76,79,-563,-6,-230
-83,-70,80,-507,77,-215
-85,-61,75,-484,67,-171
-80,-50,68,-395,43,-84
-75,-37,67,-387,70,-58
-73,-29,67,-163,57,-40
-64,-27,70,150,50,-149
-9,-28,-112,2259,-322,-11161
101,89,71,-915,-3488,-10146
-43,-99,28,474,-6874,-9936
-9,54,-72,-490,-6178,-8113
98,-120,49,1438,-3179,-5198
-14,101,-88,760,-638,897
77,10,111,-346,1811,7944
-127,-124,17,-3408,1606,14043
-106,-14,5,1805,-209,7726
7,1,-72,2859,-598,1213
42,14,14,2052,31,-1177
-111,-102,106,919,211,2197
17,37,43,755,314,2531
11,-1,58,392,-1155,3442
54,3,106,1095,-833,4080
-9,-83,-68,2145,-653,3712
62,-21,-100,1376,553,2705
-22,-23,-71,193,119,2000
103,114,-102,506,-100,1036
60,0,120,1742,57,397
51,-74,108,2013,-242,32
76,113,-75,1711,-876,-116
63,115,-58,414,-224,-105
54,114,-77,-828,319,-552
46,75,-120,-861,321,-447
68,78,116,-473,188,-336
95,67,105,167,85,-577
106,65,113,204,-130,-554
102,68,114,-17,-192,-366
106,75,114,-167,-31,-288
109,83,100,-335,83,-162
111,93,97,-256,-5,24
125,97,92,120,51,66
127,119,96,4,19,94
-125,124,95,73,26,143
-117,-124,89,168,84,89
-119,-119,77,52,62,-24
-110,-126,74,115,105,-88
-110,-125,65,-96,61,16
-104,-118,69,-126,-7,-90
-96,-117,74,-10,38,-181
-93,-109,72,-371,6,-209
-95,-107,74,-394,17,-170
-86,-98,72,-330,118,-127
-83,-94,61,-174,48,-80
-81,-75,55,-310,43,-111
-76,-70,55,-317,38,-114
-74,-61,58,-266,28,-58
-75,-53,63,-73,48,-88
-70,-50,61,25,87,-64
-45,-67,-57,-862,-1775,-8292
46,-7,-63,-726,-3816,-9053
-28,-85,-111,-2666,-7503,-10336
-92,-10,115,-450,-5593,-6981
62,-105,-122,1541,-2360,-4073
-68,68,-93,910,593,4753
10,-109,94,-2162,3309,10594
-57,83,-76,-961,2430,13771
59,-20,-122,-604,-2119,6404
-19,39,-13,-1136,-3869,-608
-126,-74,124,3526,775,-2509
-46,10,108,2074,-767,683
-52,-23,-118,371,-328,1276
-76,91,-73,1614,-506,2859
21,69,-71,2063,-314,3571
121,-77,117,4121,244,3798
40,-26,-106,2039,122,3480
7,100,117,-2156,911,2364
93,4,49,674,-231,770
55,-56,85,1695,-588,-243
99,-28,67,-548,703,-1102
89,-93,34,-355,699,-1253
69,65,78,1752,-547,-503
64,39,116,2253,-797,-261
77,34,-111,959,-35,-679
108,33,-100,-810,417,-753
114,92,-92,-3310,13,-966
-123,61,-99,-1456,209,-102
-119,82,123,405,306,-37
-119,112,78,588,312,-287
-115,118,60,294,171,-31
-118,111,64,566,-87,381
-110,121,82,574,-70,426
-101,-123,104,352,55,307
-99,-118,108,136,-90,124
-104,-117,94,-139,-45,-158
-89,-121,80,-258,190,-363
-86,-128,66,-352,117,-334
-87,-116,67,-573,-32,-197
-83,-108,74,-486,32,-169
-73,-95,83,-271,101,-109
-69,-84,80,-192,69,-62
-75,-75,72,-86,64,-106
-64,-77,64,87,95,-142
-65,-75,63,15,18,-53
-62,-75,71,143,39,-3
-60,-71,73,184,83,-2
-54,-69,68,177,43,-9
-54,-67,65,137,44,-35
-54,-68,62,85,63,-96
-49,86,106,-3031,1714,-3331
11,-114,-44,2896,4110,-8934
-50,-110,23,3661,-520,-9901
106,71,-33,191,-5407,-10562
116,-109,80,177,-8053,-7931
49,-10,-87,-530,-3544,-5336
38,-14,-79,396,-617,-515
-68,-81,113,-1225,1878,4865
-67,123,45,1134,2777,11794
72,-102,70,1481,3488,15079
121,83,109,-338,99,8244
-42,-4,104,1424,-2637,2551
-20,17,-72,2258,-851,-3208
-50,41,5,3383,-1429,-370
122,6,60,605,-504,319
33,21,62,-1048,813,320
56,-29,-105,-660,496,1519
-118,-59,-60,53,509,3286
-28,-8,-63,-228,397,4040
3,6,-93,183,146,3590
-127,40,120,47,-880,1679
80,6,120,-100,-995,-566
92,-71,117,1036,-34,-1193
114,104,109,1946,452,-1308
103,66,118,1981,67,-552
82,78,119,844,-304,129
69,93,-126,-645,-394,-221
102,69,-126,-340,48,-574
119,67,125,-345,112,-772
122,61,111,-97,7,-695
-127,57,100,-102,-73,-616
-119,86,84,-715,-1,-472
-116,88,83,-659,-46,-391
-119,104,88,-660,-87,-267
-118,-128,93,-688,82,-106
-111,121,93,329,75,351
-110,-118,83,709,70,541
-100,-97,64,503,123,413
-90,-79,54,-343,153,14
-86,-80,54,-443,47,-124
-92,-95,65,118,-16,-127
-86,-84,73,-72,134,-195
-79,-80,66,-306,150,-194
-74,-79,60,-367,65,-181
-72,-72,61,-381,88,-153
-71,-68,58,-224,75,-116
-68,-60,60,-101,59,-56
-63,-51,62,-98,83,-70
-62,-48,62,-69,61,-69
-55,-43,61,-86,110,-108
2,42,-22,-5296,-3956,-9473
-116,62,97,-2135,-6259,-10294
80,63,70,-2290,-5803,-8632
-19,-85,27,765,-1841,-4580
-31,-57,-80,569,415,-1009
17,14,83,-1364,1396,2285
-95,-81,102,-482,1871,4481
34,111,30,2962,1615,11308
119,115,-114,-5480,1985,15658
13,-24,25,4472,1575,7328
58,-82,-15,1862,-5158,-990
-115,-117,105,-1224,1408,-2431
100,-58,-111,4545,245,1503
98,22,-126,1638,-828,2319
62,16,-100,-614,-736,2490
-124,-61,-70,412,-210,3126
-81,19,-47,-697,-477,3333
-101,64,-56,-1174,-472,1898
76,37,-66,-327,-621,734
56,30,-72,-130,-375,-68
80,-67,-103,1118,484,-895
97,123,108,2047,885,-1199
86,84,101,1903,318,-723
73,86,-119,961,-460,450
82,108,-112,-448,-502,239
96,100,-112,-616,-96,-409
107,80,-125,-124,175,-623
117,72,-124,179,-18,-602
118,73,-123,-29,-170,-444
115,80,-127,-219,13,-283
117,76,114,-42,167,-81
122,87,102,-6,129,49
-118,100,89,38,76,134
-115,110,87,25,36,151
-114,125,90,-116,7,140
-106,-120,97,-42,78,130
-113,-113,89,61,118,-95
-96,-116,78,31,241,-231
-82,-117,86,101,198,-167
-88,-102,88,-127,54,-141
-82,-99,88,-205,11,-126
-81,-98,82,-247,26,-145
-76,-102,77,-8,38,-171
-74,-97,74,-98,40,-158
-71,-95,74,-129,1,-33
-73,-94,79,71,39,-1
-62,-83,77,40,91,-37
-60,-81,72,61,43,-3
-60,-76,72,37,28,-17
-59,-69,67,-64,71,-104
46,116,-106,-1336,-3013,-8932
99,-6,-25,-1415,-6460,-10773
-16,-17,5,-4150,-5641,-9378
-17,-3,-19,1013,-3773,-5099
84,-11,82,496,-2112,-885
6,-35,-86,74,2265,6894
74,29,72,270,3912,11414
-124,-102,127,2560,3821,13538
75,-85,127,1242,977,8234
26,-10,101,1075,-6067,2897
47,125,27,-1552,879,-2243
-119,54,127,1052,-154,840
-91,106,-116,921,-1272,1541
100,96,127,354,-633,1046
-122,52,-105,-504,-506,824
-104,60,-70,-12,-464,1184
-54,42,-38,2037,1120,41
-109,-34,-111,3098,744,-592
127,-120,99,2729,155,-104
119,113,126,486,-149,489
114,100,124,-1245,-134,844
97,116,118,-1491,-200,908
119,-88,-128,-1854,233,734
-114,-82,122,-508,495,342
-112,-107,113,751,313,-101
-114,121,109,1158,-191,-919
-117,92,124,941,-450,-852
-116,87,-112,486,-177,-330
-92,90,123,-62,365,-241
-89,92,110,-322,104,-413
-86,85,109,-81,-162,-258
-82,77,106,259,-56,-129
-80,93,111,38,-7,23
-80,107,108,-205,-33,117
-100,-124,100,-488,-83,61
-90,-127,100,-272,121,99
-80,-121,88,-164,199,253
-70,-109,79,5,165,354
-53,-99,77,118,151,275
-57,-92,71,205,6,-3
-67,-96,75,118,-33,-304
-65,-98,76,-186,53,-225
-68,-110,72,8,67,-184
-58,-111,65,15,67,-93
-57,-99,63,-186,-33,-118
-59,-98,69,-39,-31,-116
-55,-97,72,59,65,-178
-51,-93,68,-70,47,-90
-51,-89,66,-125,-3,-19
-44,-83,65,-45,86,-35
-90,-51,-128,-1713,-4307,-6889
-33,-79,119,-2655,-6291,-9487
0,-71,-94,-2936,-6862,-9687
62,10,-46,-936,-4862,-6916
32,108,-122,2128,-461,-2390
-19,-26,-99,579,475,2545
-52,-43,93,569,1948,7618
-105,112,-123,3662,4697,11829
121,-119,-66,-959,2343,9618
80,-43,106,3629,859,3960
48,51,-60,-1805,-1390,303
12,82,-123,1880,174,454
72,50,97,248,23,1810
57,19,-122,-273,-560,2477
94,-24,-97,1143,-660,2965
-86,76,-77,1129,-483,4040
-37,-58,-92,544,-75,3208
-110,-81,-91,164,-690,1064
59,24,-118,1247,-274,-591
40,-55,119,1327,465,-851
64,-97,108,205,696,-1082
100,106,113,284,421,-845
91,77,116,536,32,-191
76,97,110,-48,-110,271
81,108,113,-244,-1,160
103,111,102,-35,231,-146
102,117,91,-27,13,-452
109,106,95,185,-190,-489
-127,92,101,297,-115,-579
-124,83,108,192,-179,-457
120,87,109,-118,-74,-103
117,100,106,-295,112,86
-128,104,90,1,218,92
-123,120,76,-178,146,129
-112,-127,70,-133,175,123
-112,-117,71,72,2,231
-103,-91,79,-296,15,178
-88,-81,72,-347,227,-47
-93,-83,60,-144,34,-133
-89,-92,57,110,54,-130
-86,-87,49,-36,39,-185
-85,-98,50,198,-17,-110
-68,-101,44,100,-101,-112
-100,-62,70,-814,-129,41
-83,-37,87,-864,309,-226
-66,-43,65,-298,200,-362
-63,-58,56,261,16,-272
-67,-58,50,292,39,-258
-68,-51,52,-138,56,-181
-65,-46,58,-277,46,-60
-86,-93,-111,-5558,-1471,-6821
-89,-26,119,-688,-1773,-8007
-107,-41,103,-1523,-4136,-9736
-87,-28,-65,-1700,-3887,-8481
44,123,-88,-1896,-2286,-7362
77,56,59,2448,-1056,568
127,-44,-77,291,769,8028
-70,37,-111,-2261,540,11690
126,126,6,-804,-410,10494
64,86,-28,4367,-1291,7400
-114,41,66,22,-1636,478
-44,-96,-99,-807,-897,-1372
-119,-117,-39,2928,-451,2200
111,-101,-114,2187,-811,2079
87,92,-125,1568,-854,2090
-120,19,-106,1772,-338,2497
-38,10,126,738,579,2087
-73,8,103,-160,62,1349
85,6,80,-565,-780,390
50,-73,118,614,-845,-207
78,-102,-116,1538,-152,151
62,-111,-128,1704,247,544
40,-73,125,350,21,-55
70,-92,113,-361,229,-796
96,124,103,-31,121,-1185
104,101,103,-259,-194,-1517
-118,54,104,502,55,-1449
-111,45,110,535,4,-1171
-125,53,106,49,-71,-575
118,67,101,-540,-107,-186
127,81,95,-777,7,69
-125,102,92,-398,-18,597
-112,-121,95,-218,19,615
-97,-117,105,643,219,387
-95,116,79,1300,355,80
-90,-122,77,393,102,71
-96,-122,79,-208,3,71
-89,118,74,103,154,5
-88,120,72,196,59,34
-82,-127,74,93,-69,9
-80,126,87,261,-23,-136
-81,-123,91,-37,85,-259
-79,123,89,-8,86,-173
-74,122,80,-23,145,-79
-65,-126,70,-102,159,-106
-65,-125,60,50,44,-89
-56,127,65,190,55,-86
-57,124,75,307,29,76
-61,-117,79,139,112,141
-51,-95,82,-341,111,-124
-112,93,-51,1675,-486,-6090
-8,21,48,-2395,-3246,-6771
111,26,84,-2906,-4893,-9159
89,39,-80,-1925,-6363,-8360
60,-67,-62,-443,-3306,-4647
39,-44,-122,946,-1048,-1243
-12,41,-91,-834,-229,951
-55,-109,104,759,1136,4843
118,44,48,1130,4368,10852
75,61,-23,48,4216,10988
-63,-60,21,4089,2073,9692
-53,61,15,-1247,-2248,-572
115,-15,65,1511,199,-1739
-75,-117,47,2565,-1098,1608
-101,-69,105,1220,-833,1531
106,-6,-109,-1042,-528,1900
86,102,-106,2433,-102,3594
-36,20,-95,623,777,3685
-64,26,92,601,556,1888
90,13,71,-58,-1035,298
54,-77,72,1427,-1202,-64
48,65,84,2935,28,-1313
36,46,101,1408,603,-1914
68,21,-120,123,647,-1125
83,10,-95,-597,187,-147
92,13,-107,-1044,-102,-211
109,25,-119,-1145,-98,-348
120,34,-126,-891,-29,-694
117,26,118,-62,141,-560
117,23,110,335,85,-401
124,43,105,1,24,-64
122,53,104,-156,20,205
115,71,107,-202,67,383
-109,95,97,-302,372,322
-92,105,86,-227,280,382
-98,123,77,-159,49,335
-102,-124,82,133,-15,108
-97,-126,81,326,123,-72
-94,-121,76,54,99,-136
-91,-117,69,-370,23,-194
-83,-115,68,-468,7,-283
-83,-122,72,-76,-61,-350
-82,-114,76,-136,-25,-356
-76,-112,75,-198,83,-271
-77,-104,67,-271,25,-156
-71,-97,64,-219,80,-110
-70,-99,61,114,90,-88
-70,-90,56,40,44,-23
-64,-82,57,-81,70,2
-62,-83,56,45,63,69
113,-97,-118,-2790,-2416,-4677
79,-98,45,-2411,-1856,-8073
124,19,-36,-468,-3397,-9423
9,111,-95,-3231,-5532,-9067
75,18,122,-1236,-5463,-4832
-105,70,-30,255,-2082,-1825
-97,-22,-128,-534,-37,413
-5,119,26,1263,460,4564
-17,-48,65,9186,4259,10563
8,55,-76,621,7123,12622
99,59,25,2588,3992,5931
-7,119,62,-533,-4025,3313
93,5,10,637,-506,-1635
60,-69,10,3214,733,36
99,9,11,432,807,1308
72,25,66,-423,-235,2348
94,-20,120,1013,-378,2489
-66,33,107,538,1110,1930
-67,97,108,-1468,953,953
-107,17,73,-41,709,613
76,-101,58,2667,-204,-37
92,102,69,2665,-413,-12
85,117,114,953,-343,464
76,-110,123,-753,-88,-148
95,109,-120,-716,-132,-1034
-124,94,-110,-1362,211,-1186
114,97,114,-1276,244,-740
111,60,96,461,-43,-383
120,82,91,700,-176,-131
-127,94,87,360,22,-142
125,101,100,212,-55,-93
-123,73,97,840,231,-51
-124,82,112,667,87,-34
-104,80,103,325,285,52
-96,81,85,17,260,30
-98,90,78,-194,13,69
-83,82,75,199,105,-49
-93,92,82,151,-87,-42
-89,94,88,67,4,-11
-87,102,90,-59,61,-11
-86,112,88,-140,11,-69
-79,107,83,97,144,-88
-80,115,75,-29,73,-152
-76,114,70,-12,47,-104
-71,111,67,126,72,-132
-64,106,65,124,68,6
-69,125,64,-183,24,87
-63,-125,65,-129,91,37
-58,-118,64,-60,72,-43
-60,-105,62,-121,44,-142
-28,13,-41,-3859,-6199,-7962
22,-123,-112,-3050,-7967,-8087
90,77,71,-1847,-4927,-5651
-12,-36,-49,-580,-1529,-3546
2,-99,123,662,918,-71
-55,75,63,-2873,2148,2719
4,53,65,-526,1180,8099
-10,100,108,128,-1456,16729
32,-80,54,-1345,1131,8461
43,122,-128,1950,-1367,-423
-107,126,21,2148,-1722,-1763
83,-61,86,656,-612,1299
48,94,88,2151,-628,730
33,124,103,811,-412,1039
58,96,105,675,-146,1139
69,88,119,76,336,1376
74,86,-66,-53,-492,2185
116,23,-93,660,287,2442
-113,-4,114,27,858,1774
126,-32,79,-108,1094,616
102,-45,110,3,-22,590
102,-104,115,1146,-401,595
94,-97,-118,964,-430,589
108,-76,-122,-227,116,198
115,-87,106,-682,313,-392
117,-127,95,295,71,-782
-127,94,97,995,-151,-984
-105,84,101,467,-167,-1087
-107,85,95,-565,-160,-928
-126,108,88,-1435,-312,-497
117,120,102,-1144,-293,-264
-120,119,106,-301,118,-106
-115,-118,108,77,165,219
-101,-116,94,912,89,550
-96,-114,84,1263,63,605
-99,-106,74,767,90,328
-95,-105,71,71,146,83
-91,-108,71,-142,121,43
-90,-111,70,-85,32,-43
-87,-110,68,-89,71,-167
-82,-115,65,-110,61,-201
-83,-107,62,-341,30,-189
-76,-110,65,-213,59,-174
-74,-106,66,-166,46,-102
-74,-96,63,-175,42,-70
-68,-90,61,-71,73,-53
-67,-86,56,-15,44,-65
-66,-78,55,-42,38,-95
-64,-75,54,-57,66,-117
-57,-78,50,-60,52,-132
-95,70,46,-1260,-2613,-6496
-88,73,93,-2826,-5833,-9216
-16,-113,-71,-2224,-7229,-8737
113,105,-86,-1723,-4762,-5423
-70,-29,44,1053,-309,-1581
-103,55,71,-209,192,1199
113,-115,-85,675,1581,2952
-45,105,-62,2091,3529,8424
-7,-10,117,-4226,2203,11191
-80,-128,-77,3813,1353,9566
-102,-27,-97,-637,-2410,-533
-60,-126,-19,-333,-63,-1566
-17,14,37,3710,534,1612
1,100,34,1890,208,2703
28,92,45,36,206,2818
47,56,-109,1564,-533,3179
-120,74,-46,1673,-247,2787
-48,117,-54,93,1233,1674
104,52,-114,165,1000,1140
81,-63,121,1781,376,664
89,127,106,2028,-4,270
87,117,-113,1173,-459,104
89,85,-71,1071,-381,100
81,61,-57,685,-7,63
88,63,-70,-92,97,-299
87,34,-80,188,-28,-311
95,40,-88,-50,-171,-453
106,32,-86,-68,-191,-798
-118,-6,-84,698,54,-665
117,-7,-87,517,-171,-229
118,30,-90,-698,-119,-12
115,32,-102,-564,124,-9
-121,24,126,81,279,108
-113,50,114,-140,52,207
-116,70,114,-304,-116,190
-114,82,118,-136,115,149
-109,86,112,74,169,138
-110,107,103,-234,89,136
-107,123,91,-357,81,-89
-96,119,91,-119,7,-388
-93,108,86,71,16,-451
-84,102,85,11,22,-264
-86,106,80,-96,10,-37
-89,123,81,-147,-1,-45
-83,-128,81,-68,70,-106
-79,-127,83,47,63,-75
-79,-118,79,-40,60,-36
-75,-116,77,42,112,-27
-69,-112,71,11,98,-42
-67,-111,67,26,46,12
38,-103,83,4094,1343,-3198
103,-62,-8,1328,-490,-4094
45,11,-116,-557,-2541,-5397
34,109,23,-2286,-5507,-7521
-23,77,-49,-2280,-7148,-8488
-128,112,76,-3284,-5324,-6712
10,90,-76,307,-1775,-3407
-45,-108,-71,453,-85,783
-94,124,2,-448,1163,2236
60,42,-60,1755,2104,5704
-98,82,-115,-447,3674,13549
10,123,-111,512,1119,8396
30,106,95,1988,-1740,3375
4,-19,93,2778,-3021,-1600
24,-18,2,-1271,-675,-348
-32,-8,55,230,209,1335
-70,65,-120,721,-19,3555
13,-127,-121,352,-47,3555
-124,70,-117,1748,431,2893
-22,87,-117,1019,550,2353
-74,-127,104,-1167,265,872
102,103,75,-940,-345,54
49,-11,75,1705,-556,-367
67,-46,91,2173,-275,-1069
79,-117,83,2130,340,-956
69,95,84,1233,471,-641
76,97,107,-91,153,-205
75,87,-117,-580,-317,-284
109,91,-104,-1001,168,-306
119,79,122,-199,444,-160
120,70,92,706,210,-94
-123,82,82,524,159,-126
127,89,80,101,30,-50
-126,87,81,-2,4,71
-119,97,81,-64,81,207
-111,91,72,516,66,291
-114,113,73,125,-71,180
-111,-118,89,-557,-68,-63
-109,123,105,-161,24,-286
-100,117,96,-98,195,-175
-96,121,64,-220,163,-65
-90,-127,46,-279,92,-122
-85,-113,48,-502,-25,-222
-88,-106,69,-399,-68,-166
-80,-103,82,-119,107,-90
-79,-90,69,-78,153,-38
-74,-82,51,-143,90,-67
-69,-76,40,-215,70,-95
-70,-72,47,-209,36,-107
-66,-70,59,-52,61,-87
-17,113,115,-855,-4524,-9236
-76,-64,80,-3168,-8798,-7763
76,-70,92,-2283,-6180,-7610
34,26,65,423,-2262,-4763
-108,-114,-43,1075,568,-934
118,-94,100,-887,2755,4018
-11,24,44,-2006,3830,12233
-120,97,79,-857,2174,10571
17,90,68,921,-2129,4667
-23,-102,-97,613,-993,-1403
62,-13,-124,2602,-49,905
-55,-30,94,-1243,-657,1377
10,-90,-59,-199,-633,2203
14,86,-44,1883,-637,3337
-119,68,-107,1592,391,3241
-24,7,-83,1536,163,4005
60,6,-68,1142,213,4003
-61,-7,119,1252,205,1905
68,100,114,4100,-860,300
65,66,-94,3293,-952,68
78,64,-63,787,282,-332
52,52,-72,-759,490,-152
35,25,-73,-518,-99,-83
59,36,-72,-243,-263,-149
76,54,-70,-537,-200,-986
106,34,-73,-430,-53,-1417
97,-81,-63,1067,-292,-1342
107,-47,-62,302,-163,-533
127,-23,-86,-159,105,-48
127,34,-117,-1337,-56,-316
-124,43,112,-1119,28,-450
-117,54,98,-514,-48,-268
-114,60,104,193,-12,167
125,91,103,148,-7,295
-116,111,101,22,180,282
-95,110,93,260,165,375
-102,125,84,-15,39,90
-113,-122,99,-349,-63,-334
-101,120,115,-79,74,-152
-101,125,103,-114,171,-21
-90,-114,71,-338,123,-43
-82,-106,55,-457,53,-156
-87,-92,57,-672,-33,-279
-83,-85,73,-572,35,-315
-79,-79,81,-424,62,-206
-72,-69,76,-300,66,-82
-72,-55,69,-158,59,-48
-69,-48,63,-68,63,-73
-67,-46,61,8,44,-89
-65,-43,65,8,20,-81
110,112,-78,-3458,-3587,-12474
122,-97,-104,-764,-6936,-10185
-43,-63,110,1383,-3269,-6274
-62,99,-43,806,-1558,-3936
-39,91,-87,-199,335,898
-24,112,52,-1473,1277,7570
-52,-104,-92,-241,384,11115
-124,1,36,-2472,259,7295
85,30,-38,4117,-465,6732
109,121,-67,2662,-1266,-351
1,-34,55,260,-1614,676
-20,121,-109,3020,-931,1891
-73,-115,-123,728,-530,2515
-84,88,-46,1002,-959,3725
69,60,-20,1805,-32,4115
-37,54,-61,2682,1100,3630
-67,104,-85,585,646,2271
57,84,123,-1357,-32,-222
32,-67,109,907,112,-1069
35,108,111,1959,188,-856
55,117,116,922,95,-431
48,112,127,100,-135,-32
58,96,125,-130,-79,-53
65,100,125,-103,-92,-344
70,108,-126,-402,-152,-692
82,116,-109,-1197,-51,-999
98,122,-115,-1697,249,-1043
103,100,109,-527,309,-428
94,88,96,1139,-61,166
106,122,92,658,39,140
113,121,82,686,137,396
111,116,90,964,-120,585
107,124,119,1179,-278,754
-127,107,119,1374,245,300
-110,-124,97,-135,548,-231
-110,126,75,-918,227,-402
-116,93,72,-307,-171,-289
-110,83,73,407,10,-204
-109,101,75,23,-24,-239
-107,105,78,-197,-76,-105
-104,114,89,-290,-8,-129
-94,-124,94,-500,140,-152
-92,-126,88,-39,117,-107
-89,-123,80,138,87,-31
-83,-116,68,109,108,-26
-81,-117,63,182,59,-12
-80,-112,62,134,43,-32
-71,-111,67,87,69,-54
-72,-110,71,56,36,-9
-70,-109,75,134,95,-21
-127,8,-55,-4617,-5824,-9673
61,98,104,-4526,-8761,-13879
118,31,-79,-694,-2947,-7395
40,-1,115,1104,-2572,-4568
-43,-28,-114,-505,135,-352
78,99,120,-1062,1859,5919
-13,93,10,-409,2829,12839
-104,-66,48,-1022,-40,10086
-8,-94,69,3301,-1827,4246
-99,-118,-123,672,-1836,-277
48,33,119,213,-1270,1718
-37,109,-105,760,-1268,2642
26,91,-38,1372,-1435,2517
-122,-27,-23,4159,-278,3491
58,52,104,3312,1507,4303
59,-97,-85,1351,103,3039
-110,56,-121,1564,-692,912
76,-6,-96,460,-446,-265
83,-123,-118,1638,484,-531
78,60,-109,2015,180,-656
46,61,-66,958,-431,-15
30,79,-50,-349,-397,61
52,66,-50,-537,29,-584
82,68,-67,-1258,308,-1086
93,35,-96,-383,-69,-777
101,36,-112,5,-375,-827
118,41,-127,-201,-69,-786
116,40,119,-297,-71,-500
106,38,110,-76,-240,-186
116,56,120,-41,-91,79
120,75,118,-169,-13,241
125,95,114,-275,33,335
-126,116,108,-184,21,363
-126,116,109,646,-20,424
125,-125,112,570,-28,110
-119,-115,98,-34,217,-133
-117,-105,77,-1062,190,-313
-116,-116,61,-872,85,-207
-107,-114,55,-323,99,-135
-104,-104,52,-37,26,-140
-98,-87,53,-338,-7,-142
-91,-79,65,-307,-13,-76
-92,-70,75,-174,18,-52
-91,-61,76,-127,107,-97
-83,-56,61,-90,113,-114
-82,-55,50,-148,48,-131
-74,-52,48,-195,55,-127
-70,-51,58,-122,63,-98
-72,-46,63,-84,74,-89
-65,-44,69,25,94,-59
5,-2,-97,-1083,-2002,-7001
8,113,-34,-4810,-2616,-11450
89,125,-33,-1539,-5895,-10027
-62,-112,-112,-1986,-4528,-7627
8,-1,54,1778,-2615,-4540
-86,60,127,-1090,-1182,-642
89,42,-122,1314,2077,3963
-1,28,-94,733,1925,8333
-107,24,20,-1354,1384,13559
127,21,-113,-9353,-2543,9800
-29,-79,87,9447,-3571,-3959
6,-125,-104,1857,350,-1651
106,-90,4,-1093,-490,173
101,17,-58,2607,957,484
-111,61,-62,1602,332,1999
-18,89,-87,538,924,2214
99,45,-57,1100,-267,3363
-43,36,14,803,-1474,4385
48,39,-16,263,-1230,4629
-68,93,-120,-913,-625,2954
66,72,106,-724,-505,-76
57,-86,118,2314,283,-1914
44,117,122,3435,20,-1062
45,99,-110,2571,-309,-205
52,92,-109,1041,76,-73
53,82,-114,-146,210,-454
70,75,-124,-892,48,-690
97,36,-121,78,-121,-892
106,5,-119,893,-157,-790
112,16,-115,377,-111,-665
117,21,-115,-179,-34,-343
103,37,-127,-519,-79,142
102,49,118,-528,-69,150
114,56,126,-89,11,109
124,69,-119,352,209,334
125,83,121,345,260,343
-124,108,88,-167,362,204
-119,110,65,-389,332,-121
-118,97,69,190,-81,-76
-121,103,86,283,-168,-87
-109,115,94,-223,111,-156
-100,118,86,-370,143,-62
-107,-122,71,-565,11,-134
-87,-116,71,-540,80,-247
-90,-114,74,-231,-19,-197
-93,-109,79,-24,-38,-218
-92,-106,81,-57,2,-71
-90,-96,86,51,-59,16
-81,-100,82,425,92,-42
-72,-90,69,58,319,-74
