AccX,AccY,AccZ,GyroX,GyroY,GyroZ
33,-88,-29,-166,-1812,-6896
-50,83,11,2900,-4796,-7121
29,57,-77,2395,-4785,-5356
-104,29,111,1737,-5141,-4278
74,82,-62,3073,-3384,-309
62,106,36,-1087,33,-97
-124,112,-69,822,2054,848
-113,51,-53,-227,1216,198
-53,-103,-102,-1591,2548,902
84,26,-13,-264,2601,2484
-71,71,31,-1702,4071,3291
-12,-119,117,150,3917,3004
83,-45,-61,-3430,3846,3968
-117,-76,-90,-3157,2074,4257
-61,-127,51,913,891,3828
29,-16,-67,-722,875,3743
37,-122,-51,1577,889,3128
20,-119,-36,1114,501,2918
-48,-80,-69,657,87,1020
-105,53,-70,1578,149,44
83,-43,-37,631,-214,-334
81,119,-4,285,51,-335
88,76,0,578,75,-268
111,41,0,849,21,-361
118,19,0,303,-141,-497
112,-2,11,-370,-184,-350
100,-6,16,-431,-220,-107
116,13,10,-186,93,-75
124,25,-3,-58,112,-87
127,44,-25,-175,69,-101
117,47,-32,-130,-66,-145
120,47,-33,-162,5,-50
116,57,-30,-116,-12,-3
122,82,-34,-378,18,-81
119,85,-33,-271,-80,-56
121,87,-32,56,-231,-206
112,102,-47,-115,-89,-252
115,88,-40,-110,101,-143
121,93,-42,-120,125,-1
121,108,-55,-247,120,0
117,117,-55,-164,31,-44
-123,124,-56,-177,123,-61
124,-125,-58,-156,-24,-84
126,-125,-60,-121,131,-137
-126,123,-61,51,17,-97
-123,-121,-59,-174,14,-156
-123,125,-54,-81,78,-78
-119,-121,-56,-116,56,-41
-126,-112,-63,-127,62,-67
-119,-100,-66,-223,48,-104
51,40,118,712,-2389,-5742
-105,115,-86,1917,-3243,-6940
-5,-3,11,2259,-4775,-5770
-128,-127,-122,1581,-4446,-5482
-42,-112,28,-263,-3622,-2654
113,47,101,2668,-2670,-945
-123,54,-49,-1372,873,736
67,63,-114,1101,1098,514
47,-5,94,-439,1184,450
-31,-119,-8,-532,2947,1175
73,-126,66,-3486,3421,1751
-22,-26,72,148,3719,3663
102,36,94,-3178,4329,4021
-84,-23,-97,-2537,2363,3938
20,113,27,-1405,1790,5618
41,-56,122,-568,652,3065
107,-12,-73,-198,38,4520
40,-74,-29,1426,-80,2615
-17,-85,6,486,-43,2315
-83,-113,-17,1054,84,1217
-123,85,-6,1210,2,183
107,-29,-4,1632,158,-356
77,-101,-18,851,150,-572
80,84,6,109,-188,-405
98,58,12,56,-180,-326
106,31,25,109,-48,-437
109,15,16,85,42,-416
105,14,11,-96,31,-212
111,24,0,-191,-7,-145
111,31,-4,-151,54,-5
116,60,-14,-231,63,-20
114,75,-19,-199,-15,-7
119,89,-20,-139,54,-66
114,93,-24,-101,54,-99
127,95,-37,-176,37,-138
115,104,-30,-369,-87,-7
118,111,-34,-116,85,-168
126,107,-36,-150,21,-145
126,115,-40,-300,-31,-55
125,124,-36,-304,-18,-95
124,-127,-41,-201,38,-111
122,-121,-44,-181,-2,-71
-125,-111,-49,-296,-5,-117
125,-113,-46,-217,-54,-86
-120,-103,-42,-296,4,-68
125,-93,-42,-212,-8,-79
-121,-88,-47,-165,118,-155
-119,-96,-55,-60,-8,-110
-115,-85,-55,-259,-13,-109
-121,-89,-51,-194,-11,-54
90,-50,-3,719,-3421,-6611
22,-111,95,919,-4725,-6478
109,-30,-9,1551,-4444,-4813
-57,29,-58,1670,-4578,-4791
3,-70,123,1815,-3222,-915
3,19,-21,-1209,-181,74
119,-109,29,-147,1602,1175
99,55,-82,12,344,165
-117,-90,-77,-811,1921,390
25,54,115,-774,2687,2459
101,83,-41,-1542,3932,2294
-45,-106,-54,-704,4070,2819
61,-72,65,-2963,3163,3738
70,112,74,-633,2862,4708
-101,37,81,675,1498,3660
24,76,102,800,1936,4660
3,-62,-91,-1896,251,2558
-30,94,-85,-272,155,2619
-59,-127,4,102,-288,1794
-116,78,-36,513,560,670
94,36,-38,927,62,-11
79,-55,-32,1138,19,-263
66,-100,-27,31,-46,-380
64,102,-15,55,-248,-363
73,92,8,-218,-262,-269
81,57,17,-136,-48,-300
80,60,22,-203,-73,-294
86,58,19,-164,77,-73
90,87,-2,-175,94,-208
94,85,-11,-30,98,-134
91,91,-23,-56,130,-75
97,102,-39,-92,121,-28
99,110,-37,-159,44,-44
102,113,-41,-43,63,-36
105,111,-42,52,73,-5
99,118,-39,-96,13,6
112,-128,-36,-170,41,15
121,-121,-29,-110,-21,-52
104,-118,-31,-165,21,-65
113,-115,-37,-184,164,-81
121,-119,-44,-1,42,-36
121,-111,-47,-80,63,-90
125,-117,-50,-53,88,-100
123,-118,-49,-136,24,-15
127,-109,-49,-169,54,-34
-126,-105,-48,-71,80,-10
-128,-99,-51,-140,64,10
-124,-89,-55,-103,74,-91
-117,-90,-52,-169,23,-37
-117,-80,-52,-207,18,-71
17,111,-17,1516,-3712,-5529
110,17,22,-1080,-4661,-6792
-13,-81,23,3150,-5446,-5196
-21,-100,122,2401,-4872,-3251
122,43,-82,-57,-2943,-1421
-73,12,-55,-137,543,-85
102,-25,-34,-1045,1112,688
59,-40,-106,735,904,464
91,-21,51,-1406,1317,408
18,19,123,129,2919,1955
127,83,-67,-1975,4308,2223
-38,25,-108,-5002,3935,4016
0,35,99,-2039,2300,5073
-77,8,106,289,1469,4253
41,-97,-121,-1255,1753,4148
58,38,-36,1729,1053,4546
-90,-98,-26,345,779,4029
-80,-127,-36,-287,928,3216
50,-69,-70,262,-480,1628
-81,-100,-48,1141,-1256,-484
125,-36,-15,1871,-242,-869
92,101,-18,1916,523,-838
100,47,-24,1804,142,-635
108,71,-2,-360,-266,-347
98,1,19,-385,-556,-233
102,-1,34,-130,-325,-140
109,0,39,-206,-58,-306
109,22,26,-377,9,-111
104,21,22,-177,14,-19
109,45,0,-223,107,-19
104,54,-10,-24,127,94
112,88,-32,-359,99,0
110,91,-34,-202,-77,-90
118,98,-33,-130,27,-175
117,89,-37,-25,23,-158
119,97,-46,-245,-78,-181
116,95,-39,-264,-109,-102
114,99,-41,-350,-84,-113
111,122,-49,-639,-188,-52
111,-117,-54,-772,-130,-64
103,-94,-69,-846,-248,-1
110,-77,-61,-484,-203,-89
120,-70,-51,-244,3,-262
-127,-84,-57,-45,28,-206
111,-91,-64,134,-54,-93
101,-84,-65,-70,110,-110
96,-72,-67,-40,66,-85
-113,-78,-71,321,404,-110
-94,-70,-76,46,155,39
-111,-67,-77,-64,-1,98
56,-72,42,1345,-2734,-6698
71,-20,96,1227,-4224,-6660
-98,-12,25,2482,-5027,-5419
-9,-93,24,4364,-6127,-3575
-12,-26,-66,385,-2193,-1092
-69,99,-98,-2216,1260,125
76,-109,-123,196,2541,1045
79,-103,74,-395,1178,265
-81,-62,91,-1146,2942,740
32,-88,-6,-2088,2630,1887
118,-117,69,-239,3151,2809
-78,-90,-22,97,4556,3354
9,-101,51,-1808,3495,3182
-111,-50,-23,-160,2919,3221
6,110,15,-1790,2362,3741
-31,33,87,1638,268,2224
-17,31,-81,-1325,1127,2820
-56,-82,-79,669,1136,2639
-2,-57,-75,963,910,2915
12,45,-93,167,171,2120
-86,65,-75,-132,-939,166
92,-78,0,669,-1018,-557
65,82,5,1023,102,-260
54,92,-3,-38,197,-228
70,79,-11,-37,-129,-96
88,96,0,-316,-349,-354
90,59,9,5,-118,-666
92,51,3,-293,42,-579
98,40,-1,-264,-49,-606
99,27,-10,-275,-33,-399
93,39,-21,-452,-56,-363
90,37,-20,-342,29,-134
95,31,-33,55,146,-38
88,55,-49,-78,79,63
96,61,-51,-129,93,218
102,98,-40,-239,-27,269
107,108,-49,-26,170,244
109,-117,-58,-340,37,44
114,-125,-50,-157,-8,152
113,-106,-57,-228,-4,-49
103,-104,-55,-232,-55,-155
107,-116,-55,15,77,-210
109,-126,-59,23,55,-202
111,124,-60,-12,11,-146
120,119,-60,19,48,-91
122,-120,-59,-330,-52,-54
120,-119,-55,-237,29,-32
117,-101,-58,-342,-31,-40
112,-93,-58,-290,-3,-92
124,-99,-56,34,131,-98
-126,-57,-85,-5325,558,-2239
-111,63,-24,1517,859,-5985
16,-90,38,1660,-3126,-7154
75,-34,-8,1621,-3146,-8570
24,30,41,2742,-5077,-6072
-61,41,25,4272,-6430,-4270
11,7,-117,-1399,-3278,-3609
-61,12,5,-359,1551,60
81,-65,69,-941,1894,1487
89,-69,-7,472,1105,774
-9,65,-110,-247,3788,937
49,-118,-2,-2775,3139,2511
-86,-92,-14,-925,3049,4047
7,-116,86,-2824,3317,4670
72,-18,23,841,1909,5017
-37,-6,59,-3313,2160,4628
-20,-19,-101,-159,-296,3136
50,5,-22,-193,96,3775
8,-62,-17,1608,201,2517
-51,-70,-37,1395,301,1726
-95,-104,-68,1610,53,732
103,48,-68,1276,-21,-220
96,-48,-40,1144,228,-260
105,-105,-50,562,-67,-460
82,127,-24,-72,-489,-349
96,107,0,-464,-250,-522
89,37,-3,377,-73,-331
93,57,2,29,-158,-247
110,46,-11,22,162,-178
109,60,-18,-214,-2,-80
115,70,-31,-191,95,-56
100,93,-41,-232,-60,-107
96,89,-45,-82,139,35
110,105,-55,-62,107,56
117,116,-64,-26,-30,-24
113,-127,-63,-249,-30,-143
113,111,-56,-24,-4,-85
110,120,-54,-217,-25,0
111,-128,-55,-244,-3,-5
115,-115,-55,-144,38,-85
115,-116,-61,-35,59,-112
115,-113,-65,-70,70,-106
123,-118,-68,-25,63,-122
124,-117,-71,-149,0,-134
121,-128,-66,-20,54,-47
127,-113,-70,-224,33,-6
125,-103,-70,-173,-28,-33
126,-100,-64,-157,66,5
-126,-82,-71,-166,39,-93
-128,-89,-66,-101,76,-54
115,-14,73,-1161,-4847,-4407
-105,-101,-96,-1010,-3206,-7314
-90,18,95,3393,-6724,-5851
-31,-102,-111,-218,-6176,-4392
-101,-103,38,1788,-5192,-1989
127,-60,-69,-740,-205,-429
-113,79,43,-738,1797,551
88,-4,60,-475,1565,496
-123,-35,50,-476,2159,208
2,-114,28,-1414,3405,1513
17,81,-92,-1479,2604,2485
121,2,-35,-2705,3121,3712
-95,-20,-109,77,3243,4918
27,36,49,-1180,2858,4807
-71,-52,65,-216,1239,3936
62,-53,-74,-854,1042,4299
105,-114,-67,1625,766,3630
126,-63,-49,1053,438,3030
-42,-6,-110,194,-265,757
118,81,-86,1218,-369,-424
69,-74,-24,1405,112,-365
76,-113,-60,1294,638,-22
86,120,-75,977,78,-155
108,106,-47,-98,-539,-413
103,61,-24,-191,-504,-579
69,44,16,-354,-568,-414
69,46,8,-578,-102,-395
94,47,5,-397,-13,-326
84,49,-18,-141,23,-15
83,76,-31,-145,23,-131
88,75,-39,12,125,-46
97,87,-50,-77,110,49
96,103,-57,-223,-4,128
95,-123,-60,-467,12,94
90,-107,-59,-361,6,-31
95,-100,-60,-96,31,-140
103,-105,-62,72,176,-125
100,-112,-77,141,91,-264
112,-125,-83,-18,20,-214
92,122,-78,-201,-98,-97
103,117,-75,-112,-6,-130
109,125,-65,-296,-75,3
99,-120,-55,-115,-60,11
97,-90,-54,-373,142,15
110,-92,-65,103,137,-102
117,-104,-84,224,174,-162
110,-96,-88,-137,68,-82
115,-120,-92,393,47,-122
115,-114,-77,-29,133,-10
-128,-103,-86,-156,149,46
22,-119,-74,-3795,-2041,-4650
106,66,4,-52,-2623,-4664
-59,46,58,715,-3968,-6464
-42,32,-72,674,-4689,-6046
-4,-68,84,2311,-6094,-5693
36,42,-111,3031,-5978,-2712
36,-93,9,-992,-2092,-1387
-57,-96,108,51,1425,687
85,83,58,-514,1544,655
-124,-4,-125,-894,2289,518
-23,122,120,-1380,3820,636
23,29,16,-673,2504,2881
120,24,-17,-2659,3301,3629
-73,99,-111,-1815,3308,4474
-91,-73,97,1606,2004,3694
-113,110,63,-1632,3475,3627
-61,-65,80,-1369,1449,3892
-62,-61,-98,-488,400,2526
20,127,-17,607,686,3587
-24,-31,-47,546,269,1978
-92,-65,-70,1015,-307,932
94,95,-43,1016,-117,-427
75,3,-44,920,327,-655
73,-90,-59,1157,433,-530
67,-127,-38,402,-487,31
70,-112,-14,-671,-490,-137
84,102,-15,-144,-73,-591
94,69,-9,353,-191,-491
83,42,3,162,-34,57
78,108,-9,-658,-64,41
86,97,-11,-88,12,-81
105,117,-30,-219,108,-51
87,-122,-34,-342,-83,110
90,-109,-45,-208,79,-149
88,-125,-47,20,82,-95
91,-117,-60,-57,67,-24
103,-112,-66,-28,39,-92
95,-124,-63,83,-1,-13
97,-102,-67,-343,-64,-77
97,-106,-59,-210,-41,-24
100,-91,-59,-204,16,-91
100,-91,-60,-80,-10,-147
107,-93,-64,-120,39,-147
97,-90,-64,-140,-6,-112
108,-93,-68,-140,51,-137
107,-88,-67,-237,-47,-64
111,-88,-66,-81,89,-143
111,-89,-65,-128,56,-69
114,-88,-67,-146,64,3
110,-69,-68,-221,99,6
9,42,-22,-5739,1007,-2823
87,-37,-122,2303,-1931,-4594
-84,66,44,41,-2335,-6066
73,83,48,-49,-4042,-7118
50,-46,-70,1824,-4455,-6318
117,79,89,2354,-5344,-4780
82,-59,-5,3238,-5850,-2053
-114,-37,-28,-1444,152,-193
-120,104,32,-17,2071,37
40,-39,29,-654,1282,811
81,-20,-54,-1095,1481,36
-27,20,-99,-464,4127,834
33,62,1,-3182,3172,2517
-128,107,-4,-1689,2286,3293
2,97,-125,-2955,3311,4303
3,-91,120,-440,1443,4290
-123,-98,107,-2539,1355,4085
-72,32,-60,379,1371,3717
26,-57,-51,679,573,3573
49,-122,-31,801,691,3212
-24,3,-39,-620,38,1687
-113,-121,-22,1525,-210,954
106,72,-41,1455,415,117
81,-56,-55,1494,429,-352
80,-118,-56,1215,106,-190
79,-125,-44,226,-192,-220
89,94,-22,-302,-312,-335
88,59,7,-96,-345,-340
93,57,7,-241,-110,-310
94,56,11,-392,-124,-223
94,49,4,-191,-88,-111
91,81,-7,-332,-27,-91
95,87,-17,-199,40,-136
97,86,-21,-118,75,19
92,101,-32,-148,-4,-21
95,121,-40,-308,49,14
101,124,-37,-130,33,-66
99,-122,-40,-170,31,-44
97,-117,-42,-178,59,-82
104,-115,-49,-105,47,-106
109,-112,-51,-169,36,-108
108,-112,-54,-165,14,-78
106,-106,-53,-246,4,-130
112,-110,-52,-90,63,-93
115,-107,-53,-138,50,-94
113,-109,-55,-98,42,-63
120,-100,-60,-169,59,-57
119,-97,-59,-103,39,2
120,-89,-60,-99,48,-25
120,-87,-60,-105,24,-6
4,-59,126,-5806,1826,-1368
51,-15,-98,-435,-240,-3477
-128,-2,-86,982,-1127,-4463
-56,-64,90,-363,-2315,-6053
93,-84,74,-3530,-1793,-7565
-102,71,-19,2339,-2894,-5531
-125,-97,1,2386,-4260,-4610
56,15,-101,2098,-4498,-3619
81,-4,-111,3466,-3017,-1661
-9,92,-51,-2119,1985,213
119,-10,60,-431,2395,1094
79,32,-103,-516,1262,385
-41,48,-121,-692,3857,1245
52,98,6,-2211,3503,2458
-64,-102,-9,-380,2976,3731
89,-41,57,-2577,3380,3992
122,17,67,-1198,2458,4541
-91,114,2,-4953,-611,2306
-124,114,-116,-1585,-521,4269
-125,-121,12,1651,-876,2423
-64,29,11,3023,712,3000
-16,-97,-16,1352,415,2506
-44,-110,-17,885,-168,1973
-89,-113,-13,997,-59,796
98,35,-18,1555,63,-704
92,-42,-4,1112,179,-669
93,120,-37,541,496,-933
87,102,-11,-73,-213,-716
104,48,0,58,-207,-445
110,42,13,-366,-72,-434
109,40,7,-270,-94,-369
110,38,7,-113,-78,-234
112,55,-3,-331,52,-41
112,77,-15,-250,55,-40
112,82,-27,-91,86,55
112,115,-44,-182,-6,-17
118,123,-44,-155,10,-20
121,127,-46,-59,54,-28
121,-122,-41,-167,-48,-143
116,-123,-42,-61,-53,-158
116,-124,-37,-158,49,-139
115,121,-37,-14,24,-118
121,-126,-44,-105,57,-57
127,-116,-48,-231,-7,-13
125,-109,-47,-170,3,-68
-127,-101,-48,-140,96,-65
126,-103,-52,-93,17,-63
-126,-96,-58,-160,39,-86
-125,-98,-58,-55,58,-15
-119,-79,-63,-244,38,-75
105,-7,65,-3552,774,-3822
-76,-79,126,-66,-1464,-4511
-29,-108,107,1250,-1812,-6034
-73,-8,98,1018,-3171,-5900
64,-114,-124,2138,-4026,-5078
13,31,-25,894,-4969,-4603
11,-91,45,2893,-5718,-2885
-83,69,-95,-1421,-1237,-752
-58,12,-1,137,1101,370
117,-100,58,-644,1849,814
-128,-57,-46,-710,1884,595
56,58,42,-573,3619,2027
93,-69,-123,-2333,3220,2976
-32,-112,-44,480,3490,3442
124,14,-46,-3394,3330,4085
110,-83,71,-461,1851,4153
80,-95,65,-2757,1643,3714
82,-67,102,-1941,229,3727
86,-29,1,216,-1026,3145
-1,-21,33,-509,-156,1784
-67,-113,8,1944,-52,1012
-111,89,1,1939,-67,247
104,-26,-9,1786,179,5
107,-67,-30,884,437,-265
106,-111,-31,247,-139,-223
105,97,-18,303,-299,-274
121,97,4,-131,-159,-519
-127,36,13,152,-58,-426
121,31,15,-152,-1,-221
123,39,14,-317,-107,-117
127,52,3,-245,38,-6
-124,70,-9,-178,115,46
-122,96,-26,-251,22,22
-127,114,-40,-163,16,-147
-123,108,-45,-80,132,-92
-123,113,-50,-81,-17,-109
-120,118,-48,-193,-25,-125
-120,115,-51,-158,-21,-222
-126,103,-42,-85,5,-66
-123,116,-50,-248,-1,-49
-111,125,-48,-160,-24,-54
-113,-121,-55,-48,-69,-72
-116,-111,-59,-138,72,-7
-125,-107,-65,-51,57,-15
-121,-110,-64,-31,86,8
-107,-102,-68,-89,60,-23
-99,-96,-69,-55,22,-25
-105,-94,-66,-89,-23,-117
-116,-100,-60,-115,-7,-104
-117,-102,-57,-134,24,-83
84,-4,-85,-1788,-1714,-4706
90,-67,-76,-335,-3472,-4287
-51,-73,-82,-137,-2880,-6079
-82,-102,41,-819,-4453,-5961
-58,-95,-83,2694,-5203,-4797
84,-113,-78,316,-5375,-4419
62,-126,-124,888,-2431,-1620
102,-77,-71,-1078,27,16
-95,-98,27,-240,1867,973
-48,113,105,-575,2162,1254
6,-61,-56,-2332,2540,2308
115,-114,80,-73,3728,2126
-95,-40,-4,-375,2809,3685
2,125,104,-1108,3216,3832
67,-47,58,471,2735,4074
-66,88,88,-1160,3142,3901
-52,64,115,363,1344,3472
44,-92,-81,-1217,660,3543
48,28,-61,734,1313,3126
34,115,-53,-64,655,2590
-39,-124,-62,945,-130,887
-115,70,-42,400,-37,-336
116,-81,-28,1364,344,-580
79,58,-7,1190,39,-419
102,39,0,148,197,-162
118,20,33,222,-172,-101
124,21,41,-26,-155,-206
122,21,54,-12,51,-249
-125,11,39,156,308,-78
-126,56,13,-375,118,-258
-117,29,26,139,134,-141
-108,55,18,-191,263,-122
123,58,18,-51,-62,-42
-114,63,13,-62,140,62
-128,86,-2,-132,-75,79
-109,109,-6,-395,-106,32
-99,117,8,-290,-253,-15
114,115,3,-256,-116,-286
-123,97,-1,-138,109,-349
-95,84,-17,62,17,-214
-108,100,-27,-265,-222,-163
-117,100,-16,-197,-110,-127
-118,104,-18,-191,6,-102
-105,-127,-29,-258,-54,-97
-95,-126,-32,-203,-10,-88
-112,-122,-44,-197,-95,-183
-107,-124,-43,-112,6,-153
-102,-123,-49,-59,-3,-45
-105,-108,-56,-208,-78,-57
-116,-105,-53,-148,-139,-91
-71,-3,-68,-3769,-1343,-3102
76,46,-85,-2086,-934,-4511
-101,21,-78,158,-2703,-5353
82,-30,-53,-1137,-4242,-7236
123,63,94,126,-4232,-6366
51,5,7,937,-5933,-6002
67,42,-31,2914,-4662,-2737
18,78,94,-1423,-669,-754
127,-109,45,-245,1652,1777
-73,-108,116,-716,2449,963
-11,-15,33,-1102,3245,1339
45,-83,-98,222,3463,2636
107,24,25,-997,3144,2664
-84,43,118,-469,3398,3359
15,-10,52,-1556,3004,3546
78,7,9,481,3053,3944
77,-128,67,382,891,2425
-87,70,117,-649,1754,2935
-104,-49,-90,10,1476,2945
7,105,-98,-927,448,2832
-38,76,-43,839,-363,2029
-87,92,-40,503,157,569
108,4,-35,908,151,-376
84,-117,-28,1063,261,-338
95,116,-35,341,296,-360
90,91,-33,-60,-110,-313
96,58,-11,-138,-306,-302
109,53,-3,-192,-118,-277
110,50,-1,-286,-173,-345
99,41,3,-258,-194,-192
106,42,-3,-140,130,-104
106,49,-13,-169,-4,-11
109,72,-29,-274,-32,80
109,87,-33,-290,-30,95
106,114,-43,-332,-31,26
107,124,-48,-164,-49,-117
104,-128,-52,-134,-32,-154
109,-124,-52,-201,-103,-133
112,-120,-50,-230,-118,-216
103,-125,-36,-138,-127,-240
112,-128,-34,-128,-4,-320
104,125,-29,-212,-30,-240
103,115,-35,-69,97,-232
106,118,-45,-210,106,-39
114,-128,-55,-205,77,83
117,-108,-59,-156,111,32
119,-103,-67,4,124,51
118,-91,-76,-133,96,47
125,-82,-77,-141,17,7
124,-81,-74,-57,35,-24
-47,63,19,996,-2975,-5717
-110,9,107,-255,-4247,-5644
31,-63,-13,3812,-5162,-3896
90,-90,20,687,-5470,-3492
80,-74,17,478,-1397,-1433
43,41,-54,-938,589,-352
-122,52,-35,-616,2522,1461
117,42,107,-530,1381,518
-54,-122,27,-841,3000,793
68,86,-44,429,2912,2095
125,-54,59,-1789,3152,2822
-106,-15,-88,173,2333,2782
6,-85,113,-1259,3582,3670
-42,99,-109,1138,2848,3314
-119,78,43,-1457,2871,2757
-106,36,-100,-1716,1608,3171
-92,3,114,-465,1097,2728
-44,-11,-36,505,154,3821
-11,113,-25,-266,432,2387
-58,72,-88,708,683,813
123,25,-93,1317,6,159
77,-88,-33,1454,-222,-190
65,-127,-36,1002,188,-351
71,111,-21,191,-45,-424
77,77,1,-339,-471,-406
82,53,24,-210,-373,-539
71,29,34,-69,-278,-516
78,23,32,-212,12,-345
77,32,16,-323,-58,-328
72,31,14,-247,-53,-107
87,47,-10,-134,206,-131
88,59,-15,-195,34,-28
87,68,-25,-179,78,-29
91,78,-33,-39,95,12
93,86,-38,-31,110,33
91,96,-42,-152,17,40
92,111,-41,-130,5,9
95,118,-41,-164,30,-43
97,121,-40,-117,-34,-67
94,122,-34,-107,-29,-120
99,122,-32,-126,98,-131
107,114,-39,22,103,-144
120,114,-46,-98,118,-55
98,122,-56,-68,-30,-122
106,117,-47,-10,168,-70
114,122,-58,-75,101,36
118,-110,-65,-251,-30,-3
111,-110,-60,-17,-6,-99
108,-105,-59,-155,106,-108
-123,-104,-63,-116,41,-31
64,44,24,-4068,2146,-3131
100,-100,-109,2870,-2316,-4870
-44,-17,20,-2972,-2086,-5364
70,-95,13,-634,-3771,-6445
69,-119,-97,-485,-3689,-6179
-49,82,-20,1996,-3933,-5819
-9,15,-126,3648,-5396,-4565
-14,3,-81,-540,-3338,-2120
61,60,-59,-556,595,175
-124,-108,103,-661,2742,1510
117,-32,-60,818,1889,636
-41,-65,43,-1134,3827,408
62,62,-45,-1002,3115,2568
-57,-11,-13,-1978,3002,3997
-64,-27,-85,-697,2454,3725
65,34,52,-2087,2209,4203
-106,82,124,-1288,2419,4260
-122,28,-92,1080,1144,3548
-103,39,-98,-1373,1722,4515
42,-119,-99,2368,80,2573
1,-107,-18,917,-441,2731
-110,-111,-57,119,-361,772
103,44,-22,1159,37,-198
87,-53,-33,1355,532,-515
87,118,-33,1002,314,-517
75,87,-21,531,-232,-189
82,79,-15,-221,-255,-248
97,58,15,-352,-276,-386
102,39,17,-91,-109,-365
99,39,15,-293,-45,-321
98,43,6,-480,-120,-223
94,37,0,-185,-23,-66
95,63,-12,-258,66,-3
102,75,-29,-149,78,-9
105,93,-34,-213,-22,21
106,111,-41,-265,-11,-101
97,98,-33,-79,-28,-79
101,105,-38,-107,55,-91
105,116,-38,-232,-40,-58
105,119,-40,-215,18,-67
100,-128,-44,-202,16,-61
123,-125,-46,-193,60,-16
121,-113,-52,-109,-2,-98
112,-110,-53,-166,-12,-196
107,-118,-51,-203,42,-141
118,-116,-53,-171,60,-48
122,-104,-58,-151,27,-110
119,-105,-58,-78,4,-132
119,-106,-53,-148,112,-49
118,-97,-59,-93,9,-70
75,-17,-40,193,-3370,-4765
-69,51,49,-1443,-3855,-6311
0,-43,115,3398,-4238,-4610
-124,55,-3,3640,-4201,-3530
-83,-95,87,1131,-3421,-1954
56,3,-108,-2788,1200,-41
124,124,2,332,1563,957
115,-55,-44,-387,1093,769
-80,-70,-5,-1077,2728,104
20,31,57,-263,2764,2139
95,105,-55,-1855,2844,2795
-76,-60,-35,-1284,3130,3513
26,101,116,-1123,3403,4004
63,45,80,-1479,2491,4044
-97,11,86,2304,1546,3164
-36,24,31,-3281,1599,2477
69,3,-78,299,-229,2395
-123,-27,-41,-217,1176,2570
-101,4,-48,176,1363,2303
-71,-18,-57,1423,897,2276
-76,38,-62,1417,-99,1246
-118,11,-54,1327,-369,-332
87,125,-17,1426,-49,-520
72,50,-6,1159,-47,-237
68,64,-3,-297,-214,-186
78,36,24,-802,-514,-390
89,17,21,-146,-199,-255
97,27,12,-345,-59,-345
79,12,25,-254,-148,-245
84,35,7,-301,42,-241
89,28,4,-79,34,-158
91,44,-14,-178,93,-67
87,53,-24,-199,42,35
94,63,-30,-191,78,33
94,78,-37,-33,6,18
97,88,-37,-142,88,-6
99,91,-36,-92,-36,-76
98,96,-35,-110,18,-23
94,109,-41,-184,13,-67
100,109,-35,-147,40,-63
101,116,-43,-178,2,-98
105,118,-45,-136,28,-113
105,112,-47,-37,53,-94
107,121,-51,-213,7,-103
113,126,-49,-147,-2,-78
112,125,-51,-33,88,-75
108,-122,-55,-158,-4,-91
112,-116,-57,-136,71,-89
113,-115,-60,-108,58,-55
125,-106,-62,-207,60,-49
11,120,32,-3556,566,-4100
102,-9,3,677,-794,-5068
-101,-97,-32,-358,-2687,-6197
-120,-101,19,-295,-3371,-5709
83,105,-94,1624,-3766,-5462
-89,43,-113,3086,-5458,-3496
116,-43,-98,190,-4408,-2318
47,71,11,-709,384,273
-108,120,-34,-786,2048,826
115,-94,23,732,2621,752
-61,9,32,-1921,2815,825
26,105,1,-284,2664,2713
-105,15,37,-1384,3051,2764
-38,65,-84,-1198,3835,3545
-4,92,111,1571,2761,3816
-95,-12,38,-4289,2604,3768
-106,86,109,-1195,1124,3907
-1,-109,-98,-240,400,3782
45,-101,-37,867,576,3382
22,-69,-40,1123,279,2125
-80,-55,-20,164,-558,979
124,68,-19,1502,54,422
102,-10,-22,1468,94,-102
79,-99,-41,1154,26,-214
85,127,-24,483,-171,-246
92,78,-18,351,-244,-271
97,57,5,-9,-238,-310
100,42,2,10,-166,-255
103,50,3,-111,-259,-231
97,45,2,-90,-144,-139
99,56,-12,-70,-69,-23
93,84,-14,-412,-302,-64
80,100,-20,-569,-196,-300
91,81,-27,-200,37,-248
99,80,-46,129,-70,-345
101,85,-56,211,-144,-207
108,83,-62,83,85,-172
87,79,-55,-145,-195,-13
62,113,-27,-696,-207,-174
59,103,-22,-292,71,-25
80,118,-37,-317,222,274
89,-100,-68,-486,45,229
91,-75,-77,-559,-35,142
106,-70,-81,-307,150,-62
120,-70,-78,-258,25,-79
118,-71,-76,-267,23,-238
106,-97,-74,10,101,-279
88,-114,-75,71,137,-111
98,-120,-77,156,268,74
124,-101,-77,-77,104,130
123,38,-86,-2566,-3483,-5608
-5,123,-14,446,-4181,-6087
59,97,102,1001,-4740,-6356
-41,-14,32,1668,-6115,-5860
64,-60,-58,686,-3955,-2980
90,-83,-102,-1290,-937,411
-35,23,-107,-727,2003,1203
-98,76,60,747,1627,1372
-66,-10,0,-123,1895,1447
18,123,-19,598,3107,2103
116,-22,95,-606,3313,2564
-82,5,-33,93,3640,3209
24,-99,106,-777,3711,3418
113,-102,41,162,3689,3828
-91,122,16,-2444,2132,4062
37,-117,79,-1280,1417,4894
67,-85,-104,1166,515,3303
62,-33,-36,-31,565,2444
-26,-40,-91,683,559,220
106,123,-54,1026,-284,-545
90,-63,-39,1468,261,-543
86,117,-36,775,244,-385
86,73,-21,-59,-327,-272
111,58,-5,-191,-222,-284
108,66,12,-223,-342,-337
106,46,19,-88,-166,-271
101,46,10,-123,-12,-99
99,54,1,-68,-43,-34
105,80,-12,-268,45,77
106,102,-23,-279,-204,-22
113,107,-34,-287,-293,104
106,115,-27,-74,152,-98
100,116,-23,73,-100,-4
109,-122,-30,-351,-45,-119
102,117,-23,18,88,-91
108,-122,-42,-165,191,-131
109,-118,-50,-110,80,-84
113,-111,-59,-44,73,-104
112,-106,-63,-166,4,-145
117,-118,-58,-107,64,-96
-126,-108,-61,-128,-48,-95
127,-112,-54,-156,-10,-73
127,-113,-49,-52,67,-66
122,-105,-51,-223,-28,-21
126,-101,-47,-157,85,17
-119,-88,-57,-75,120,-66
-124,-87,-60,-122,16,-21
-125,-86,-63,-124,141,-15
-122,-81,-72,-75,32,-45
-119,-74,-71,-135,29,-46
-60,-13,-95,-1408,-2957,-5483
41,20,-37,2620,-4985,-5199
45,55,79,-217,-5213,-6114
123,58,125,3786,-6202,-3849
104,-72,7,-22,-4804,-1534
112,31,-47,-297,-1095,-665
-85,107,-83,-293,375,487
61,121,41,88,898,543
36,42,77,119,-68,250
21,73,88,-80,-61,-29
53,-15,-56,-63,-37,33
108,8,-60,65,-117,-31
-118,-5,-29,-326,220,-147
-92,-18,-47,-143,170,-15
-35,-44,-6,-290,705,-34
68,114,-39,-1930,3491,7
-88,-86,8,-1442,3802,2036
75,101,-102,-5497,4773,2407
127,59,-87,-3820,3771,3912
-27,-84,-3,-4618,845,5724
-56,-96,-54,-444,-1304,3536
15,87,104,943,-458,4831
20,-116,119,682,325,3354
0,50,97,2595,190,3252
-22,52,44,2949,609,2166
-104,75,-28,1883,514,623
53,-30,-22,1046,414,-188
46,-99,-9,559,330,-353
26,86,0,341,-85,-433
44,56,35,-273,-160,-226
45,4,60,125,-310,-196
60,2,61,-317,-81,-368
61,-12,68,-61,-159,-272
59,-18,67,-105,-105,-77
62,22,56,-388,-58,-127
65,21,51,-118,13,-64
68,56,34,-277,-41,-179
63,55,32,-125,-18,-90
67,67,18,-163,75,-142
73,72,13,-246,-8,-161
70,78,10,-255,-77,-130
74,86,5,-201,22,-173
76,90,0,-361,8,-158
76,98,-5,-362,-117,-141
77,94,0,-39,65,-42
88,119,-15,-189,86,-146
87,118,-20,-181,-55,-86
85,126,-22,-212,26,-124
86,126,-19,-179,-9,-64
90,-126,-23,-36,-2,-78
-23,-115,126,848,-3195,-4308
-82,67,-82,-1204,-3888,-3912
-120,92,-10,844,-2834,-4241
19,-8,89,2289,-4782,-2790
-82,124,71,-164,-3733,-2953
47,52,90,-369,-1339,-1145
-67,49,-111,-639,1149,70
99,76,17,411,1401,879
63,-108,-36,13,-383,-250
32,-76,-33,16,411,421
-112,-63,-73,374,578,326
-54,-113,-18,832,845,714
-27,0,-93,-126,1002,325
57,102,78,-211,2363,1430
-122,94,98,-1142,3421,1306
-44,-124,-128,-1732,3093,2119
17,-34,-79,-2135,3472,3477
38,-51,-88,919,3591,4402
-43,58,-68,2589,2997,3282
41,26,-15,-1521,-294,1798
80,5,125,-3578,1759,1633
27,42,-12,133,1006,2102
88,-128,-9,103,1160,2378
-112,-52,-6,-201,1018,2014
-120,-72,-30,2081,316,1558
98,-15,-51,1683,-347,57
55,-81,-18,997,-316,-598
2,41,34,1202,-270,-475
-1,37,31,116,23,-344
3,33,40,-520,-317,-451
26,1,64,-274,-209,-379
35,5,60,-454,-19,-505
29,-19,59,-83,-163,-350
28,-14,50,-270,90,-62
19,0,37,-385,-11,-106
27,15,23,-340,169,56
31,40,7,-168,111,-12
38,54,-2,-103,223,78
46,80,-13,-330,192,-73
49,92,-24,-408,20,-223
39,82,-19,-230,-20,-47
38,91,-16,-256,54,-90
42,96,-16,-130,18,-142
51,92,-18,-31,69,-76
50,102,-21,-164,19,-77
55,101,-21,-92,19,-70
53,104,-22,-64,44,-18
57,120,-30,-209,87,-51
57,122,-32,-215,32,-29
65,-118,-38,-439,141,-107
-26,21,83,-3176,-891,-4223
-36,-43,-15,-1359,-3837,-4379
106,-85,-5,-1307,-2764,-5662
-96,-105,121,-188,-3839,-5873
-21,52,-41,818,-3309,-4678
124,-17,-9,-322,-3531,-4210
-124,110,-55,1977,-3608,-3740
-13,118,19,1239,-2808,-2280
104,29,115,-1789,342,-318
-60,-106,-47,49,536,615
-89,-25,-20,30,115,47
108,-17,-18,58,440,41
98,-92,-32,193,189,81
-91,-23,-53,-108,-34,-69
-12,-50,-26,-104,334,-64
45,122,82,-92,941,508
-83,52,-124,-728,1488,1285
-29,38,55,-1442,2166,2505
-28,108,-94,-298,2109,3297
1,-46,71,-1329,3611,3515
-38,-86,14,1756,3322,3635
87,-56,-62,-2702,2928,3048
66,-119,-43,-666,1676,3943
79,-73,-8,-143,1285,3677
-101,66,-4,-826,1173,3109
-94,14,47,213,1011,3281
-121,54,19,628,691,1777
82,-1,38,1294,194,1643
24,38,28,331,-73,328
-6,-56,50,749,-64,-155
-17,-116,59,538,47,-327
3,79,67,752,120,-389
13,55,65,720,-13,-539
-3,19,85,396,-299,-698
-3,-12,104,-322,-253,-509
-5,-15,105,-589,-331,-187
2,-3,99,-268,-510,-255
14,33,73,-438,-76,-56
7,47,63,-559,55,3
2,50,52,-119,16,-52
12,61,42,291,285,-50
18,75,14,31,272,-74
16,87,10,-338,-133,-132
20,68,11,-121,56,-116
19,83,10,-237,-10,-76
19,84,4,-89,59,-69
24,93,4,-139,29,-53
27,102,0,-284,-2,-100
25,105,-7,-122,-19,12
21,116,-10,-171,42,-12
-120,-28,1,-319,-5126,-5272
-116,-23,87,945,-4134,-4941
81,-43,-23,3136,-4552,-4385
-93,62,-7,704,-5802,-2622
11,85,64,-488,-2227,-1015
11,69,-116,-405,-77,-188
-45,54,90,176,1046,-63
113,127,-15,-124,959,295
108,11,24,81,248,-64
-91,120,19,-597,1362,525
64,68,84,-501,2536,748
-70,77,-8,-2258,2565,1882
-24,-127,77,-2011,2836,3180
13,109,21,-979,3553,3550
118,-51,111,-1647,2756,1774
-126,115,-76,-402,2636,4712
-97,-1,127,-355,1726,2896
-4,106,-117,-1730,1302,3205
-86,42,-83,-419,566,2413
-95,-8,-20,588,454,2736
-121,55,-32,54,605,1169
95,20,-33,234,204,21
59,-57,-24,421,107,-314
47,102,-2,935,192,-138
49,60,-3,603,-62,87
47,94,31,-1281,-481,165
56,66,45,-1228,-404,-216
71,28,54,-74,-149,-346
61,16,46,591,-12,-192
66,46,30,-55,-15,-99
60,61,19,-417,-146,-97
64,68,22,-582,1,53
77,70,15,-490,165,12
79,86,0,-20,32,-104
75,87,-4,-16,72,-13
71,104,-18,-180,89,-90
78,108,-22,-163,8,-27
83,110,-20,-87,38,-28
88,117,-23,-197,38,-40
90,118,-20,-177,-27,-30
92,122,-21,-96,51,-76
88,124,-22,-149,35,-30
93,-126,-24,-111,58,3
98,-119,-25,-181,59,-22
99,-115,-30,-145,65,-31
101,-107,-34,-153,73,-15
97,-102,-41,-154,18,-55
105,-96,-40,-229,21,-75
113,-93,-37,-219,-2,-141
116,-105,-30,-29,73,-171
-11,-61,26,-2337,-2359,-4241
4,-113,50,-892,-2500,-4029
71,92,39,-97,-2688,-5468
79,-40,64,-4105,-3002,-6388
45,-126,-94,3780,-2819,-6884
86,121,-123,1666,-3325,-3423
-48,-119,-82,2285,-4422,-2351
46,-81,-93,-1128,-756,-18
-115,-98,-18,540,1542,399
89,86,87,-611,336,-115
48,30,60,512,-121,-178
117,-34,-67,-228,523,-46
-84,-101,-14,5,1064,340
40,38,119,-984,3064,629
-104,94,-75,-1284,2329,1841
-38,119,91,-1421,3556,2872
25,-123,19,-309,3233,3416
118,-64,95,-3985,3159,3433
115,125,125,-1612,1638,4197
-67,-42,125,1128,797,3430
36,-113,-84,-1408,1155,3475
-69,45,-46,286,311,2534
-39,19,-21,431,422,2591
-103,18,-13,389,129,1783
114,-7,-28,755,420,889
82,-36,-41,939,274,56
64,-93,-34,633,62,-296
57,101,-43,204,54,-509
65,79,-30,-248,-457,-774
56,6,22,35,-589,-597
70,-6,26,27,-116,-375
56,-7,36,-113,-278,-279
61,10,46,-484,-200,-173
69,22,39,-443,-26,-140
69,21,33,-161,40,68
72,37,22,203,-33,69
72,59,5,-55,220,143
77,77,-13,-521,285,-60
73,71,-44,-156,180,59
82,88,-54,-198,236,-17
79,79,-63,100,102,-83
70,102,-55,-335,-108,3
83,99,-31,-44,164,6
96,107,-44,153,266,-111
92,105,-56,71,-194,-385
88,89,-46,222,-326,-157
100,94,-45,-243,273,-56
78,89,-44,-207,-50,-55
102,88,-54,6,86,-8
85,89,-43,149,-267,223
89,59,-21,-511,-2302,-5347
-105,-33,40,468,-3424,-5675
65,57,0,1802,-3093,-5262
-66,115,-120,2760,-5307,-3880
59,91,68,-155,-1722,-4070
19,-121,8,-217,-668,92
125,113,31,-970,871,1442
105,79,105,-243,-87,-192
52,-66,-40,422,460,402
117,-47,-85,-476,394,-319
14,55,65,-209,2674,-264
91,57,-89,-1563,2522,590
-65,59,-21,-1813,2126,2963
-14,120,79,-1597,2446,3973
20,-76,-30,-596,2713,4041
71,-23,-51,823,3128,4130
16,45,60,981,4353,2626
-93,-42,-77,1222,2563,3261
22,15,79,-1524,2734,2831
-56,-72,-120,-570,908,2922
-83,-48,-43,-990,522,2939
-87,-2,-84,-1230,1154,1981
84,-4,-51,-309,-44,528
60,-37,-13,346,-439,-284
34,-92,16,282,-185,-378
31,106,27,-210,111,-1000
19,11,40,998,-19,-72
45,56,44,-305,-177,-294
52,40,48,-275,-271,-206
56,36,48,-203,-6,-388
64,35,32,-150,116,-316
60,50,12,-290,-86,-206
54,55,10,-116,-88,-141
58,68,-2,-43,65,-165
56,64,-5,-342,-6,-134
69,89,-8,-1103,36,-108
69,91,-3,-156,-257,1
68,92,18,344,-132,4
73,117,20,-354,192,-71
65,-104,-3,-1106,-2,-212
69,-118,0,-257,-71,127
82,-91,0,32,158,7
91,-78,-22,91,213,-91
87,-85,-32,7,26,-131
86,-91,-34,-45,49,-118
90,-85,-39,-238,15,-192
96,-87,-32,-187,24,-160
102,-89,-30,-114,19,-236
97,-98,-27,-88,7,-141
102,-93,-27,-146,102,-145
18,113,23,-4413,-798,-4325
30,-89,56,863,-1556,-4118
98,34,-60,-679,-2984,-5578
81,-20,107,1829,-5711,-5985
83,70,107,-608,-6740,-7057
72,13,54,736,-3794,-5197
95,-4,78,-311,-2201,-998
86,-119,-100,813,147,609
114,-110,-105,-557,693,759
68,18,-68,927,629,114
5,102,107,-560,21,-280
86,-27,-24,-180,-73,90
-100,-87,21,96,492,165
-16,86,64,345,880,1035
83,27,-118,-1535,2020,1674
-103,45,-8,-2204,3351,2288
-58,-105,53,-2300,3685,3435
-115,45,123,-1452,2536,4030
33,-36,-70,-1170,1139,4341
41,-44,-86,-160,1417,3713
110,86,-54,-1115,831,3072
-119,-12,18,970,618,4252
-30,-65,7,-144,359,2403
-49,36,7,2138,770,2428
-120,-124,42,1031,-441,1037
57,63,-8,470,73,-116
26,-50,19,1102,494,-528
17,100,-15,1524,637,-523
16,83,-11,628,-85,-419
41,46,8,92,-193,-226
55,28,25,-347,-153,-359
50,10,37,-193,-190,-138
51,19,41,-317,-117,-145
57,30,36,-186,12,-28
58,44,26,-229,26,33
58,77,6,-429,-31,62
51,92,3,-362,-54,3
58,92,5,26,147,-85
66,104,-19,37,185,-71
69,101,-19,-21,56,-74
65,98,-21,-76,20,-44
73,105,-19,-211,122,-53
73,101,-20,19,55,-77
74,103,-19,-58,153,-72
90,100,-30,67,206,24
85,116,-41,-130,9,35
99,121,-38,-111,149,11
98,114,-36,74,85,5
89,123,-39,-188,-23,-30
100,120,-36,-164,30,-82
67,73,-34,-3636,-335,-5061
-118,110,-17,346,-427,-5760
103,-46,-9,2930,-4285,-5385
-72,-51,-44,-1925,-5939,-6582
-112,104,41,803,-2204,-5190
-128,-88,58,1321,-4466,-3841
-7,-50,110,276,-962,-1277
25,7,-114,-256,707,128
104,-98,36,-1244,755,348
82,-34,91,741,66,-91
77,-30,83,-619,-187,-21
-106,127,-53,122,-75,206
-79,-82,-61,144,273,53
-58,-60,-56,-49,153,313
7,-89,-27,18,907,218
95,95,63,-432,2011,569
-89,91,68,-2173,2052,1537
-17,42,-104,-1026,2263,3155
6,-104,37,-723,2762,3456
19,-42,-16,-410,3081,3774
62,-122,-57,-3254,3191,3599
98,-77,-109,-1477,1261,3801
-97,-48,-1,-82,650,4274
-48,22,6,381,811,3065
-27,31,44,20,747,3355
-99,110,19,72,-63,1416
83,14,60,1301,-154,980
38,-15,45,813,428,7
-8,-115,37,1120,375,-430
8,77,31,1463,123,-546
11,38,52,925,-116,-527
14,12,89,-348,-225,-574
19,-42,93,-263,-106,-538
35,-42,92,-1421,177,-267
38,-54,66,-471,-194,200
33,-11,69,98,-231,233
40,45,63,-332,-20,-18
33,51,43,28,10,83
32,77,30,-170,7,1
29,79,26,-188,-53,-37
38,96,13,-365,-11,-173
42,85,8,-157,-19,-154
43,93,-1,-260,-42,-179
44,94,-4,-323,-30,-99
53,112,-15,-349,-41,-180
51,114,-14,-249,-83,-94
38,120,-10,-206,-12,-158
45,-126,-17,-253,81,-141
64,-126,-33,-32,68,-217
64,121,-39,80,42,-243
105,64,3,266,-3015,-5036
-123,-66,58,-530,-3362,-5637
-99,-37,110,2791,-4213,-5307
17,-61,108,3157,-6813,-4531
-99,-127,9,-1765,-3359,-2364
112,37,0,-361,166,-350
-96,-59,-116,-432,1136,672
95,-43,81,515,627,179
23,62,44,-69,-348,70
94,-42,-68,-71,409,-68
-82,-110,-11,207,637,337
39,52,78,-510,2112,794
-124,11,67,-1925,2777,1615
-51,115,93,-1898,2586,2805
-4,-74,-41,-148,2854,3664
46,-98,-121,-3079,3105,3390
39,107,-105,-1576,1955,3997
104,-19,-90,-1180,781,3341
-19,39,-40,962,743,3590
-59,53,3,73,1050,2862
-80,41,-3,534,471,2310
-89,-43,18,857,1061,2290
-114,94,-28,120,43,991
84,-5,-4,973,-345,-186
71,-98,-2,778,380,-602
47,38,14,1109,357,-730
47,11,15,939,-19,-197
51,18,29,-56,-187,-176
69,-2,47,-426,-228,-210
72,-11,59,-141,-227,-33
79,11,46,-318,-124,-83
75,18,39,-299,-83,-80
68,23,34,-100,-42,-13
71,35,18,-183,115,14
77,59,8,-331,-33,19
76,63,-1,-182,-16,-50
73,71,-7,-213,72,-46
80,73,-18,-102,76,-92
87,83,-26,-255,13,-122
86,88,-27,-248,-25,-161
81,88,-26,-162,-83,-227
82,83,-27,-116,-13,-216
86,85,-31,-233,7,-155
89,87,-31,-231,-34,-64
90,96,-36,-145,-18,-91
83,108,-35,-205,-40,-79
88,106,-35,-111,70,-67
92,108,-37,-62,63,-30
101,122,-45,-143,62,-21
97,123,-43,-96,-7,-27
38,-36,-39,-2227,-1779,-4152
-80,-38,-33,-3077,-1475,-5219
25,91,35,-3121,-1914,-6413
-60,-24,-77,4273,-2130,-6459
-74,-48,23,4144,-4046,-4576
86,98,-114,4015,-5660,-4398
-50,43,-39,-2173,-950,-827
-17,2,-116,-435,464,-91
111,-89,-40,-709,1239,53
57,-53,81,417,-45,201
74,-2,77,-97,14,-51
-119,-77,-61,-50,657,194
-63,-58,-83,299,523,193
61,67,-127,-710,2275,783
114,-128,-26,-1158,1889,1671
-45,116,117,-1508,3924,2210
-17,-79,-32,-555,3037,2626
47,54,-125,-1693,3135,3154
25,64,-96,-1632,2206,3272
-117,-42,-86,-678,312,3814
122,-75,-46,-1432,2032,3196
-75,-67,-74,195,1579,3085
-3,55,-60,-354,765,2986
-52,-16,-65,1064,480,1925
-120,-38,-4,780,178,1668
106,-27,-13,350,84,732
64,-83,-2,1027,-39,65
50,97,29,1029,42,-426
49,38,26,898,167,-512
49,16,40,210,-83,-416
47,-3,52,-335,-383,-305
56,-18,64,-294,-244,-256
64,-12,63,-262,-59,-259
62,-3,43,-181,-53,-214
60,1,33,-378,-53,-93
59,22,22,-433,-29,-58
63,36,15,-214,-3,-149
64,44,8,-261,9,-134
71,53,-4,-265,34,-179
66,53,-8,-194,-19,-167
69,54,-12,-163,81,-118
71,65,-21,-227,35,-93
78,72,-24,-111,-7,-82
73,83,-26,-192,-6,-94
72,87,-20,-226,-39,-56
73,93,-21,-202,35,-36
75,104,-23,-223,37,-61
73,110,-30,-70,49,-95
79,112,-34,-125,128,-57
93,119,-46,-131,23,-99
-78,107,25,-1522,-3006,-6051
-69,-65,112,-4312,-1831,-5692
-123,51,-70,1047,-1733,-6334
25,35,61,8996,-4356,-5623
-77,-93,-70,124,-3797,-2010
-2,28,-57,-649,976,231
117,47,-116,-86,943,-18
49,63,29,30,18,-97
42,-55,-80,-269,440,125
112,-8,120,190,-36,-112
-95,-87,-11,-66,373,294
17,86,85,-178,1715,714
89,62,72,-1053,1840,2007
-69,89,-101,-1871,3193,2527
-13,86,57,-651,4048,3042
61,-41,-87,370,3765,3244
-85,-40,104,-2776,3830,4192
-111,-105,106,1020,1974,3284
9,34,-116,-2042,2049,2206
-92,86,-54,-3024,-355,3252
-75,-44,-13,934,-407,4150
-52,75,72,399,-354,2784
-84,101,-6,-573,612,940
109,73,-21,532,56,-210
50,-45,8,1972,-350,-1297
33,104,28,1506,212,-860
11,33,36,237,348,-535
25,36,42,-770,-207,117
57,23,51,-31,-357,-61
74,46,63,-530,-115,-469
73,12,59,45,264,-289
72,30,35,375,421,-288
76,67,24,-37,-43,-40
72,71,14,-250,-142,104
86,92,-5,-463,74,-104
84,90,-17,-239,-48,-246
81,83,-17,-48,64,-178
85,67,-20,220,103,-138
83,80,-29,-28,-40,-45
88,91,-24,-378,-57,-71
93,88,-19,-58,2,16
100,98,-17,-113,-25,15
84,109,-14,-58,-27,13
89,116,-17,-215,82,18
92,126,-21,-126,-33,43
96,-116,-26,-201,73,60
96,-106,-29,-232,9,-40
104,-109,-29,-114,42,-136
104,-111,-31,-129,98,-81
108,-106,-39,-242,58,-122
-32,80,84,-1109,-1824,-5963
-18,-89,96,710,-2439,-6349
64,-64,-75,2728,-3716,-5990
-95,-109,75,4397,-4960,-4825
55,-52,-14,-760,-4085,-2039
122,113,1,-931,633,-417
-70,-89,-61,-497,1601,688
23,-1,48,-258,60,103
55,12,41,-157,163,-5
95,-86,-111,-42,173,71
-84,-107,-45,-60,707,376
-4,-109,-9,-346,1553,494
64,-126,52,-1478,2401,854
-95,-98,-105,-1917,2545,1765
-11,-109,20,-1521,3466,2700
-9,-60,-38,-681,2832,3236
57,51,-79,-1507,2657,3689
-106,115,-89,-1781,2202,3773
-101,-6,-99,-2825,703,3865
-5,-7,-35,-354,78,4559
43,-10,19,875,404,3480
53,-109,4,-812,47,2784
-77,-88,4,-361,-748,1129
69,32,26,1537,39,-340
43,-108,-1,2369,746,-663
34,99,-17,1490,580,-466
42,70,-14,744,-174,-290
52,38,4,104,-396,-341
57,14,31,-423,-362,-392
59,6,30,-348,-254,-409
67,-8,36,-166,-283,-392
74,-3,39,-196,-170,-296
53,-12,25,40,-54,-91
56,14,23,-230,-51,-21
60,19,11,-210,27,147
63,48,2,-349,6,177
56,63,-9,-307,-32,101
57,85,-13,-284,53,92
70,95,-20,-157,132,53
63,104,-31,-188,18,-61
73,108,-34,-250,80,-204
67,79,-28,143,-199,-364
70,87,-39,82,122,-137
80,85,-45,-106,232,-68
62,87,-46,-211,-71,-142
56,91,-44,-224,76,-60
88,101,-43,-86,216,-53
110,99,-49,132,146,0
90,100,-52,26,27,-39
71,100,-46,-348,-2,-4
-100,-15,122,-8,-2875,-5913
69,-22,-109,1700,-3800,-5428
-33,31,-32,3544,-4691,-5978
127,36,-51,3110,-1959,-2204
74,91,-31,-2188,-2459,156
-77,105,99,930,1682,282
96,77,85,-1139,-665,54
75,-68,-68,372,528,210
87,4,-76,8,284,-57
-125,-16,-54,-446,352,-65
-51,-100,30,-352,848,540
58,66,109,-791,2544,431
-84,58,33,-2332,2926,1441
-38,68,122,-2110,3472,2963
-13,-101,-14,-934,3068,2486
69,-122,-123,-1906,2820,3905
62,11,112,-4126,1857,4498
82,74,-121,-545,-153,4097
-51,93,-12,378,676,3801
-57,92,-4,984,794,2918
-41,100,0,592,576,2576
-126,-108,-12,378,-68,1320
66,85,-11,746,-124,-118
38,-33,1,1136,239,-712
18,105,-3,1255,294,-625
27,92,9,424,-15,-326
44,69,16,-232,-260,-475
57,29,34,22,-198,-364
58,29,36,-150,-172,-396
55,15,43,-131,-151,-247
55,24,37,-268,-21,-23
57,39,21,-201,-23,-45
60,68,8,-375,-19,97
55,84,3,-268,-48,21
59,97,1,-288,51,14
62,113,-15,-173,19,-82
66,114,-21,-226,24,-139
68,106,-23,-92,23,-132
69,117,-32,-266,-21,-186
66,113,-32,-182,-61,-181
68,102,-29,-81,70,-102
72,116,-36,-210,-23,-95
78,117,-34,-214,-35,-71
80,-126,-37,-173,23,-90
78,-126,-36,-168,15,-57
79,-119,-39,-168,41,-76
83,-113,-45,-183,35,-58
86,-111,-49,-171,22,-64
86,-109,-52,-172,55,-24
88,-100,-56,-150,-24,-43
-83,-122,-38,1561,-1019,-5864
-120,-71,-34,2983,-2258,-6191
63,-88,-60,4439,-3754,-5917
-42,76,75,4214,-5129,-4684
39,82,111,-1889,-3721,-878
53,-106,-54,-611,1049,83
-117,77,3,-433,249,772
68,-82,-117,260,659,2
90,91,39,-328,-227,-18
105,122,-10,43,871,69
-51,-49,-97,-314,336,189
24,59,37,-430,1389,1318
114,-126,7,-1915,2840,1068
-100,102,121,-1075,2304,2479
-53,-6,-54,-1909,2517,2592
-44,-56,-21,-633,2919,3263
31,109,-89,-1228,2452,3080
114,-104,-60,-690,1984,3858
-125,78,-35,1134,1665,3719
-20,24,-64,-1467,1756,2875
-55,-89,-4,139,1030,3174
-26,-12,-6,-207,593,2357
-78,-54,0,329,309,2070
-127,-41,8,101,262,1145
89,-41,-3,492,100,273
57,-104,4,777,-22,-398
49,73,13,819,127,-574
48,26,18,637,-51,-430
48,26,28,-288,-327,-456
60,0,42,-202,-366,-441
59,-29,55,19,-254,-391
70,-7,48,-420,-194,-384
65,-15,45,-344,-210,-251
59,0,43,-331,-167,-104
55,11,33,-172,-5,39
59,42,19,-376,-31,17
59,54,16,-272,-64,39
64,72,12,-228,77,6
62,80,0,-142,49,-47
61,89,-5,-228,59,-51
64,88,-15,-131,95,-111
65,94,-21,-192,59,-87
75,100,-28,-176,57,-172
76,92,-30,-65,40,-155
74,94,-31,-236,49,-70
78,101,-34,-154,-14,-98
82,102,-32,-172,39,-54
82,118,-39,-193,-17,-70
85,120,-37,-181,26,-24
86,-126,-39,-140,-18,-72
83,51,51,-2650,-2056,-7163
-91,40,125,-692,-2550,-7769
-53,-76,-71,4321,-4651,-7969
38,-39,122,4346,-3279,-4227
6,77,115,-77,-2631,165
-50,84,61,528,1192,-115
77,-59,-22,-837,-143,614
69,-42,-124,467,424,-211
73,-10,-114,-349,23,94
-124,-45,-94,68,-50,62
-88,-51,-64,236,352,71
-43,-82,18,-320,729,295
59,85,91,-855,2462,459
-110,106,-9,-1922,2292,1695
-67,62,109,-783,2537,2532
13,-52,-36,-2223,3510,3414
-7,-77,-23,-204,2570,3676
96,-103,-101,-1896,2109,3243
-112,-124,-74,-295,1810,4161
-85,17,-55,-537,749,3009
-49,-57,-11,717,1004,3592
-47,-25,10,745,958,3026
-56,0,-5,427,953,2459
122,40,-28,421,161,1458
56,3,-17,989,-231,192
30,-71,-3,723,301,-303
5,95,1,577,209,-654
8,51,9,458,-280,-494
17,28,28,166,-387,-579
35,-5,52,-169,-206,-499
36,-22,59,-73,-280,-459
38,-29,64,-163,-243,-358
36,-23,64,-295,-145,-208
37,-17,56,-193,-13,-62
34,17,39,-386,-10,17
39,27,29,-207,-8,-65
37,46,18,-238,84,9
37,60,8,-179,78,-13
37,73,-3,-243,98,-58
44,79,-12,-116,108,-97
46,84,-23,-134,79,-144
47,73,-23,-107,44,-97
50,83,-27,-228,-1,-117
50,79,-22,-121,2,-99
53,76,-18,-93,93,-37
53,91,-26,-194,14,-44
60,93,-25,-108,62,-1
61,100,-29,-123,149,66
63,120,-39,-194,40,18
67,122,-38,-153,88,-4
-58,41,108,-1105,-1735,-6512
-102,78,-76,-377,-2033,-5564
41,112,9,2455,-2760,-6025
-65,-109,83,5815,-3576,-4343
-6,25,113,2042,-5362,-3016
44,127,-102,-2585,218,819
-95,-104,-70,346,1161,280
96,10,59,-478,139,-87
51,-88,123,31,250,258
114,-15,91,-101,-124,-4
-74,-119,0,-201,574,383
-18,-101,6,-1028,1227,466
46,111,4,-216,1499,1508
89,-27,116,-3357,1754,1643
-114,107,21,-1406,2073,2615
-66,-48,-15,-1421,2325,3131
-35,30,-26,-633,1472,3337
33,-95,-68,-1432,1549,3423
76,108,-47,714,1255,3517
-118,13,-40,-302,691,2992
-86,-122,11,981,1046,3863
-8,29,-10,115,1119,2765
-50,1,-25,472,573,2322
-119,54,-22,-4,-76,1530
62,-16,-55,1255,4,157
42,-91,-14,1754,42,-574
26,90,-9,1387,238,-512
2,51,18,677,-225,-367
10,50,38,-229,-501,-224
27,58,68,-818,-491,-567
41,20,71,-406,4,-639
48,8,61,-207,45,-638
43,-3,52,-151,-64,-402
42,-3,33,-280,94,-264
46,8,27,-405,90,-97
55,10,12,-236,184,43
58,26,-7,-224,258,108
58,33,-12,-112,-157,-41
46,22,-12,846,-295,336
53,96,-20,-637,264,284
46,86,-31,-670,157,163
48,88,-25,-193,-13,226
62,118,-26,-235,15,154
59,-127,-21,-370,-59,-78
61,-124,-18,-351,-43,-126
62,-125,-19,-228,-133,-204
67,124,-26,-123,146,-291
68,116,-33,-52,220,-340
86,105,-41,-91,122,-224
74,102,-47,-94,-41,-168
-20,-68,-111,-1536,-1474,-6330
-55,-119,-51,1512,-1360,-7144
-39,-95,7,6318,-4209,-6525
-114,99,60,1904,-4681,-3345
26,70,-37,-1136,-5110,-3005
123,-121,63,-26,-281,645
-39,-29,37,-801,1032,550
72,1,-60,-198,-48,280
44,-8,-86,229,479,-128
77,11,-93,-23,-253,-92
-89,126,38,300,725,137
-51,-20,-66,-134,269,184
34,83,122,320,2245,325
-108,-103,93,-1893,3252,722
-68,81,-120,-741,2497,1994
-37,-76,15,-2631,2872,2834
-34,120,12,-1420,3187,3970
-2,27,-71,-837,1936,3449
-103,63,-49,-216,2465,5382
-65,121,-109,-1232,969,2405
-18,9,-36,12,632,3841
-74,21,-10,504,495,2687
-107,-24,14,1064,469,2575
112,33,-9,456,332,1448
45,47,-3,641,-211,661
7,-17,4,640,48,-535
-4,-104,23,494,232,-685
1,103,26,253,12,-626
8,54,26,158,-176,-608
20,36,31,-124,-253,-681
30,4,51,-116,-243,-576
32,-9,56,-189,-244,-519
29,-6,58,-306,-171,-333
28,-16,55,-143,26,-143
32,12,33,-279,36,10
38,39,16,-294,-18,74
27,68,9,-346,-27,113
31,78,7,-229,42,2
28,85,1,-70,89,-4
35,94,-9,-135,139,-22
33,101,-20,-100,26,-20
37,107,-26,-151,33,-91
42,102,-20,-51,63,-110
50,95,-23,40,56,-109
51,100,-25,-137,11,-50
45,99,-28,-41,-46,-92
43,106,-22,-298,-10,-30
50,104,-20,-125,36,5
53,120,-25,-208,35,-6
56,-127,-32,-165,86,-77
-118,57,30,-267,-2212,-5702
106,-126,56,1738,-3584,-5738
56,-74,105,1320,-4737,-5238
-44,82,84,3686,-5745,-5441
113,14,-44,-2751,-2278,346
33,-70,-126,986,-667,298
-73,-125,82,-961,793,625
46,31,114,556,200,-71
80,24,-64,-342,593,25
126,-52,-36,144,639,98
-4,96,71,-139,1912,398
88,114,0,-1543,2383,1523
122,118,112,-874,2406,2365
-100,-47,-28,-1326,2579,2438
-33,78,-93,-1727,2910,3337
-42,-8,-81,972,2595,3285
87,-49,112,-1011,2428,3194
116,-60,-97,-627,1396,4282
-108,2,-101,-79,1138,2960
-26,17,-64,260,1254,3671
-76,23,-41,13,205,2375
-95,18,-12,-8,-110,2394
96,27,-23,511,-199,943
49,0,8,916,-387,-102
33,-87,18,1282,150,-553
16,105,20,857,164,-760
17,62,29,509,-130,-661
36,33,39,-276,-160,-743
41,-8,48,-138,-206,-617
50,-20,46,-236,5,-474
56,-26,35,-200,61,-393
53,-33,29,-79,135,-98
58,-11,4,-141,179,-55
64,9,-6,-220,116,144
61,39,-17,-350,33,73
60,54,-13,-96,54,152
60,76,-16,-251,50,57
53,69,-3,-80,-60,237
69,101,-20,-511,117,128
70,119,-29,-341,-24,-188
70,98,-19,-20,188,-119
71,100,-33,-85,130,-141
77,104,-41,-213,-6,-131
78,97,-38,-153,-47,-121
79,98,-33,-191,23,-41
81,105,-34,-139,-7,-38
83,115,-31,-206,41,-10
86,123,-38,-116,50,-18
87,-122,-37,-200,31,-19
92,-118,-41,-132,79,-31
43,-102,72,-1953,-2023,-5064
96,34,87,-9,-2312,-5219
94,123,-80,252,-3660,-6040
4,58,22,3482,-3943,-6032
113,121,-111,3677,-4685,-4833
-28,117,38,-739,-2015,-445
47,31,-47,-76,-892,239
-92,78,-62,-658,1289,241
45,17,-99,-102,-85,265
48,18,117,-212,-282,-112
112,-87,-4,-251,308,40
125,-40,-62,196,-84,-27
-33,-98,83,-155,813,132
41,121,-117,-859,1517,953
-109,50,84,-710,2683,1279
-83,100,-95,-1126,2855,2690
-79,-98,63,-1304,3138,3034
-61,-42,-22,-755,3249,3496
15,-122,-80,-2391,3365,3946
16,-112,-95,-210,1413,3375
-87,-47,-92,-3175,740,3981
41,-12,3,359,47,2804
-113,-27,1,1892,1157,2778
114,7,-1,1673,735,2000
120,3,1,1041,425,1924
86,38,-9,225,74,993
55,18,0,27,-94,25
35,-46,11,285,215,-630
15,110,9,768,145,-1009
15,66,20,737,-189,-956
22,46,28,189,-325,-747
37,33,44,-490,-382,-688
35,13,50,-286,-486,-573
36,15,66,-317,-291,-398
32,13,60,-277,-5,-216
30,22,44,-267,-109,-112
27,34,37,-357,-6,158
31,61,26,-277,64,226
37,77,15,-186,154,308
40,108,-7,-304,215,369
40,122,-11,-203,46,261
51,-115,-20,-148,154,198
54,-98,-27,-162,25,51
55,-98,-26,-125,34,-92
57,-105,-25,-14,23,-180
55,-109,-27,-117,-17,-198
64,-116,-29,-130,-5,-271
65,-126,-24,-112,-18,-224
65,124,-22,-128,-6,-221
64,124,-27,-128,13,-126
74,118,-60,921,-2288,-6441
29,-121,-30,2295,-3091,-5927
40,80,100,4615,-4684,-5958
-62,19,18,3238,-2667,-2676
57,-101,-40,-941,-1933,299
-3,-99,84,-538,1255,-137
113,-99,-85,-840,954,369
47,10,8,563,-746,-11
114,-94,-13,-767,701,345
-117,-7,79,369,-212,-131
-58,-88,3,-126,806,172
31,-108,30,-26,1129,501
100,122,45,-1469,2195,1465
-118,127,-61,-1650,2527,1963
-79,-128,56,-388,2849,2336
-38,-55,36,-2315,3741,3246
6,33,-111,-1763,2432,2966
125,105,-108,-259,2254,4608
99,-109,-65,1214,1058,2580
-46,64,-68,-2975,1636,3266
125,-94,-38,-401,648,2387
-78,-90,-32,804,1134,3010
-91,-72,-13,1822,210,2620
119,59,25,-553,-452,1587
69,3,9,-502,-420,-7
25,-82,45,879,-252,-251
10,107,40,1143,399,-490
15,72,34,734,99,-840
24,34,53,438,-253,-557
22,-20,67,241,-173,-432
33,-7,58,-360,-65,-451
33,-28,54,-293,-141,-401
20,-16,40,-353,-167,-100
29,-6,25,-306,-87,-97
35,4,18,-304,-52,153
46,46,-3,-471,42,86
63,46,-6,-131,2,28
61,71,-9,-128,-23,53
26,87,-5,-384,-135,-58
19,106,4,-557,8,-90
40,88,-12,235,301,15
71,106,-34,-64,168,-56
77,118,-22,-291,179,-214
71,98,-16,-23,310,-188
66,107,-16,-315,182,-155
70,107,-26,-209,282,-180
105,102,-27,-12,374,-85
99,107,-29,12,113,-23
62,120,-31,-267,107,-73
88,114,-22,-117,452,-88
63,108,48,-1058,-2588,-4771
-102,47,-127,-1531,-2896,-6154
-98,85,-35,2038,-3892,-6178
58,108,30,3264,-4132,-5699
36,-89,91,5364,-7433,-3687
21,112,25,-3091,-2815,1409
26,69,46,-7,2091,-12
123,34,-44,-71,-51,53
65,-5,2,-220,918,-28
59,28,-41,69,-85,-137
124,-10,2,-494,527,-243
-123,-47,-12,279,54,-67
-63,-23,-12,-383,466,-110
-19,-97,54,232,987,-50
103,78,-79,-806,1910,1243
-31,11,-98,-839,3217,1440
60,-21,33,-712,5032,2315
59,-16,-87,-3267,4134,3963
59,115,121,-2235,1927,4442
66,-97,-92,853,1158,3473
-77,70,-42,-2458,2211,3226
-121,48,-16,-953,1055,3193
-95,-43,27,2412,1052,2950
-103,76,17,393,633,2496
79,22,10,1236,65,1872
42,0,35,723,86,791
9,-52,38,784,388,441
6,-121,47,429,388,-41
-6,87,70,656,-315,-179
19,71,81,14,40,-380
23,29,87,-171,50,-614
26,13,83,0,-8,-206
37,35,73,-256,-116,-275
45,39,80,-396,-136,-349
43,22,71,-49,18,-293
56,29,67,-258,11,-208
49,41,51,-199,-128,-306
47,35,57,-25,94,-125
51,33,41,1,228,-20
59,74,20,-416,-98,-53
67,90,18,-378,-28,-133
45,75,24,-17,12,-15
54,98,10,-290,110,34
52,104,7,-117,-31,53
63,-118,0,-407,-31,-40
69,-126,5,-207,6,-47
67,-120,4,-222,-102,-108
79,-100,-2,-868,50,-347
99,-117,4,-425,-200,-314
72,120,4,-64,15,-200
94,-38,38,-2177,-1323,-4694
-23,119,109,-1232,-2453,-6360
-34,88,-57,3463,-3193,-6287
34,50,43,2976,-4874,-5285
-124,91,-46,1988,-5113,-4577
80,18,-54,1666,-1396,-839
-96,108,30,-400,-1364,358
-97,64,-48,-879,2185,105
59,79,0,297,-717,17
95,-3,123,-221,342,-114
112,-44,-88,249,-173,173
-86,-31,-48,125,256,37
-79,12,117,73,94,-212
-74,-17,-127,-110,-205,50
-46,-13,-81,-197,169,-32
-1,9,-94,-425,254,-41
12,-5,-77,52,-77,83
66,-43,-32,-466,449,350
-75,124,-122,-756,2343,326
53,11,-48,-843,2814,2241
-87,-120,-72,-3498,4226,2994
-67,28,26,44,3982,4038
-3,18,-111,-1165,4062,3649
-10,83,-111,-57,2442,3551
41,-66,-110,2215,2810,2831
43,88,-17,-2057,2741,1730
114,-69,21,532,301,2195
93,-126,77,-469,79,2884
84,-123,85,-545,29,2185
69,-127,78,309,105,1430
51,-104,77,505,-101,434
23,117,68,699,-365,-143
-14,27,100,1025,-497,-138
-21,11,103,342,-176,-352
-11,-23,90,-200,-14,-439
-12,-13,99,-622,-540,-365
-2,-8,100,-649,-335,-556
19,-6,89,-547,-160,-750
7,-37,83,-178,-350,-509
-4,-7,74,-737,-415,-448
6,7,60,-827,-216,-569
21,-3,54,-432,-198,-427
32,1,49,-123,-184,-259
14,14,57,-94,-39,-48
-5,18,42,101,212,-57
-16,36,36,-32,84,2
16,46,35,57,374,30
25,57,25,150,506,133
18,69,15,174,8,195
27,90,3,-287,41,172
-14,83,20,-1340,-2725,-4525
36,-66,76,-983,-3253,-4956
118,96,-91,623,-4396,-5407
57,124,39,1912,-3098,-5914
-126,-28,-4,3677,-3539,-5791
94,67,47,296,-3288,193
116,-1,107,-160,34,198
-79,98,-93,-611,501,633
122,-8,-102,-24,236,-127
113,-17,-69,-368,35,16
-87,-81,-8,-79,431,60
-24,-57,-4,-669,684,134
102,96,116,-1691,1846,779
-61,34,48,-994,2793,1169
-47,-100,-80,-2058,2573,2074
-15,-108,33,-985,3043,3191
-6,-30,-41,-523,3001,3168
30,76,-66,-1937,2724,3827
29,-97,-99,-1136,738,3789
81,-30,-69,-1629,630,3807
122,-51,9,-977,634,3602
-99,91,10,-1145,82,2680
127,-40,74,2002,-98,2541
96,81,71,-65,207,1421
43,61,47,107,73,448
19,-22,52,904,134,-343
-1,-109,40,1005,305,-755
0,106,31,505,184,-576
5,64,53,265,-278,-506
17,27,52,-121,-80,-494
27,14,57,-246,22,-464
17,9,52,-63,-124,-154
17,27,40,-264,-72,-137
17,26,33,-87,55,35
35,48,19,-67,20,57
39,67,13,-1,-91,112
41,87,14,-261,-63,-40
26,92,0,-217,-33,-208
26,79,3,-62,12,-130
29,80,-1,-123,-4,-17
40,97,-15,-251,-80,-84
43,107,-14,-297,-226,-51
33,110,-6,-377,-159,-139
31,103,-9,-115,121,-176
38,108,-24,-113,111,-157
39,109,-30,-113,-111,-126
40,113,-29,-254,1,-91
40,115,-32,-182,35,-61
41,121,-38,-181,4,-20
45,-126,-38,-184,0,-22
89,79,5,-677,-2339,-5576
-78,-63,32,769,-2844,-5938
115,105,-76,2381,-4401,-6450
127,125,-96,4962,-5151,-4469
-64,114,111,-249,-1092,-1691
44,-2,-44,-332,-973,1071
-35,31,120,173,822,287
98,27,54,-650,161,44
99,-56,100,216,16,-151
-125,-52,114,26,-94,-252
-69,-83,-89,-398,23,145
-41,-70,-119,27,106,-85
-27,-56,-113,-174,76,76
12,-38,-118,-322,198,-116
60,-80,-33,-548,309,331
-94,-88,18,-1315,1192,723
61,-29,-108,-1566,3272,1564
-115,-47,-32,-1597,3683,3458
-99,43,-1,-1261,4197,3779
-31,-124,-65,-3543,4142,4563
86,-41,-110,-978,-659,3402
-72,-25,18,-1898,532,3937
111,-86,54,-263,656,3383
-51,19,78,305,773,3121
-86,-38,71,1467,651,2836
-121,6,66,575,233,1831
64,3,57,414,-174,974
-6,-90,87,765,-481,-175
-6,82,94,875,67,-231
-10,70,75,105,440,-674
-7,-13,69,431,423,-761
4,-15,71,-159,-13,-485
15,-29,73,-328,-155,-247
20,-26,67,-219,-101,-263
24,-4,57,-348,-55,-328
19,-6,52,-193,-133,-236
28,-7,48,177,92,-217
15,10,34,-299,-211,-303
26,15,61,-684,-265,-161
36,27,55,-521,109,-185
33,29,39,-49,25,-95
31,61,20,-572,21,-135
27,58,13,-365,-81,-97
31,63,15,-153,136,-80
37,76,-3,-77,131,-88
36,80,-9,-157,-17,-48
37,85,-2,-155,27,-7
39,88,-6,-10,145,-7
43,102,-12,-174,29,17
42,101,-6,-50,101,48
9,-64,-37,-2325,-2203,-4959
124,78,8,878,-889,-6604
41,126,62,3494,-919,-6865
112,-9,107,3839,-3313,-5937
-44,28,-58,2506,-4886,-1848
-84,105,99,-1545,-114,-577
-41,-123,-28,-679,1476,646
-112,-11,-14,-395,-370,195
104,10,29,-132,-432,209
-108,-45,113,-198,-118,-60
-47,-39,-83,-569,147,23
-49,-8,109,-6,-81,-187
-23,-39,-109,-287,305,-35
-3,29,60,-429,-31,-250
38,-23,118,-259,93,36
50,-19,105,-79,252,-62
60,8,111,-226,272,-89
109,-23,-62,62,810,-40
-58,-56,28,-504,2061,-31
101,99,40,593,3608,156
-71,113,-37,1110,3665,876
-89,-67,-122,-4,3396,1870
-69,-51,23,249,3014,2217
-89,-32,67,46,2917,2456
-81,-31,26,227,2520,2031
-78,-22,47,367,3145,2098
114,25,109,-648,2479,1734
124,5,106,-1071,1960,1523
106,-57,-93,-130,2423,1916
108,76,65,-1572,1986,977
17,-12,-86,-147,1063,1353
20,35,-104,-1249,1277,580
-38,8,-83,352,223,504
-39,-11,-64,889,143,-166
-52,-4,-56,177,-193,-383
-44,-55,-32,-343,18,-463
-50,-83,-4,261,-33,-175
-49,-89,-3,543,-74,-73
-39,-73,-13,72,59,-128
-37,-87,-10,520,-3,88
-41,-82,-11,776,137,160
-47,-53,-33,693,72,27
-42,-46,-40,591,79,-252
-53,-55,-38,164,-2,-49
-49,-37,-62,-386,165,-129
-56,-51,-67,-59,-24,-11
-57,-24,-92,-419,101,-124
-58,-29,-95,-716,63,-179
-42,10,119,-2418,360,-458
-42,33,66,-3997,-3,-589
-98,-124,63,-2061,-1948,-4182
10,-28,30,112,-2551,-5419
25,72,95,-166,-3953,-5121
13,93,-85,-106,-4606,-5328
-40,-115,48,1773,-4445,-4392
-104,-65,114,545,-4539,-2905
-45,-98,-76,466,-700,453
28,30,51,326,329,-10
-42,-73,126,-595,696,-148
-105,-29,-32,370,-142,-22
-75,-26,11,-117,300,135
-52,12,-33,-183,-195,46
8,-24,39,-17,188,123
17,-41,65,-121,555,176
89,-71,93,-341,1062,322
-79,110,-115,-208,2295,1090
-80,-96,73,-1586,2306,1442
-67,117,-66,-587,2185,2424
-41,-65,-118,-2940,3039,2612
-31,77,76,290,2301,2812
57,62,23,-1844,3429,3687
-35,-72,104,545,1361,3223
-112,-1,28,-1070,321,3829
113,113,91,993,1161,3558
-81,9,85,117,1121,2782
124,-52,87,1429,694,2691
71,32,82,164,186,1736
5,20,69,578,24,834
-48,-35,104,699,-236,-441
-54,-103,109,960,219,-517
-58,97,109,795,299,-521
-51,76,98,110,-54,-650
-38,57,105,-338,-295,-577
-40,16,117,-132,-214,-623
-27,-6,114,-106,-1,-535
12,-9,102,-153,221,-327
-3,-1,92,-222,-297,-154
-58,18,97,-483,-389,-62
-42,31,102,-794,100,-23
-31,34,83,-235,14,137
-10,68,67,-296,51,220
-18,88,53,-252,77,176
-23,106,44,-118,69,74
-19,115,37,-124,50,-1
-14,119,27,-192,-32,-10
-13,124,28,-280,-63,-69
-8,125,31,-281,-45,-105
-10,120,34,-114,-10,-166
-1,120,31,-135,30,-204
0,113,20,-109,46,-121
29,-125,18,-1269,-1801,-5050
-51,78,32,-1214,-2975,-5703
44,-101,80,1976,-4941,-6500
-81,33,0,1907,-5449,-6961
107,126,76,4180,-5098,-2704
-28,-21,22,-2660,41,155
-51,54,106,1361,28,50
118,-17,25,-1078,616,155
105,12,-103,195,-102,-167
90,10,-10,-429,-214,144
-100,-67,4,116,302,-104
-96,-38,-40,-195,-10,14
-70,-49,-46,-47,48,72
-49,-32,-66,-226,-258,104
-17,-62,10,223,192,172
12,0,-65,-111,196,-73
33,-39,3,214,644,-292
109,-79,121,-336,1335,79
-16,95,-104,-1683,2803,771
31,39,56,-2582,3122,1736
65,-102,-66,303,3195,3981
-122,3,61,-4123,3090,3173
-105,38,-56,-2042,1981,4070
-96,-85,0,-692,865,4330
-73,-28,50,1229,807,3452
-71,48,80,-1776,1411,3189
121,-75,51,1193,209,2694
99,-60,102,995,225,2433
70,-34,79,830,669,1688
14,-34,24,1708,377,789
-20,-28,50,862,-427,-359
-13,111,110,987,-93,-512
-45,22,-106,726,3,-598
-52,13,-107,24,-143,-410
-45,-9,-105,-329,-47,-284
-20,-15,-114,-396,-70,-316
-13,-16,127,-131,-28,-255
-9,-18,119,-109,97,-253
-15,-15,109,-224,-48,-207
-24,-7,97,-228,-17,-111
-15,5,85,-312,128,-18
-17,16,73,-267,-78,5
-17,34,68,-431,-99,60
-19,57,62,-447,-90,-31
-1,59,60,-360,82,7
26,76,42,-350,15,63
-8,93,19,-245,-130,-37
-24,94,27,-379,-195,-180
-19,86,27,-329,-11,-14
-2,98,15,-125,-14,-28
-108,-105,67,-1114,-1588,-6640
-54,-50,93,-410,-2026,-6745
-104,0,-44,3273,-3494,-6958
-47,-86,-92,4571,-5530,-5039
-76,-112,95,1902,-3721,-1798
-127,-57,-108,-388,-338,728
-26,-44,-115,-471,1847,221
-122,20,-58,-487,597,-15
80,6,92,415,-229,-75
-106,-53,-41,-482,384,-90
-59,-90,-43,77,178,119
-30,-77,-14,-259,331,287
7,-96,11,466,782,230
103,-67,94,-1008,1373,441
-93,113,68,-1771,2175,1554
-41,81,-40,-1625,2976,2334
-26,82,-119,-1324,2772,2759
47,-55,15,-1479,3441,3756
39,28,10,-1939,2685,3869
112,91,-46,172,1284,3680
-62,-24,-28,-2198,1667,4027
-115,-94,-4,773,274,3306
-17,-67,54,783,811,3778
-36,-15,27,769,942,3085
113,124,12,220,-556,1759
29,82,37,212,-710,66
-9,-105,76,2024,-218,-903
-39,48,78,2682,656,-592
-28,56,77,1125,373,-708
-33,56,95,-402,-332,-476
-18,16,124,-1094,-621,-319
13,-35,-126,-358,-25,-472
14,-52,114,152,208,-239
-7,-25,89,-259,-132,-156
-8,-22,76,-302,-38,-86
-3,-18,61,-90,27,-10
-15,0,62,-94,-7,13
-1,5,45,122,261,51
2,24,47,37,-130,8
24,40,39,-58,182,187
7,61,33,-239,22,85
7,75,21,-333,-127,-19
5,81,29,-719,-77,113
0,95,29,-478,-9,7
20,102,14,-23,136,-258
20,103,5,-119,43,-304
25,82,1,-3,63,-366
23,63,-2,-160,-27,-202
8,68,-5,-321,-52,-192
18,60,-9,-69,64,-76
-80,125,-124,-2371,-1448,-6663
-77,4,-64,778,-1822,-6689
0,123,52,6392,-3700,-7071
40,-103,-31,7165,-5086,-4618
13,-34,76,-3459,-2289,84
84,-114,-121,-827,475,-644
-63,1,-54,13,447,166
127,-15,-37,-1146,472,245
122,-53,-77,300,651,-390
-98,-76,-44,48,208,-235
-40,-49,-70,-559,-104,-50
28,76,94,-711,1274,165
99,-114,61,-593,1338,303
-110,-119,31,-2351,1408,1823
-65,103,-74,-1692,2484,1588
-62,-62,82,-1625,2492,2296
29,-71,96,-1273,2986,3322
-23,-102,93,506,1903,4217
67,-71,-18,-2914,1824,3898
49,76,14,-1208,1137,3974
-115,67,-25,-1074,-297,3537
-99,94,57,2163,800,3660
-70,55,62,-18,679,2731
-127,2,31,827,261,2059
62,40,53,384,-251,901
-8,-48,59,806,136,-134
-24,-122,63,1141,391,-439
-25,86,62,831,58,-493
-15,51,77,339,-151,-482
-2,28,86,-246,-64,-391
0,0,71,-172,-116,-388
0,-3,78,-238,-154,-200
10,-10,72,-261,-72,-185
9,7,61,-315,-174,-121
10,10,64,-254,-92,-94
8,18,52,-164,41,-29
7,41,39,-249,-59,-40
8,45,37,-143,-17,-48
10,52,31,-130,5,-79
12,58,25,-209,-3,-5
10,74,19,-318,-56,-53
8,73,19,-212,-22,-59
13,88,5,-215,42,-90
20,96,-3,-262,-20,-114
15,93,-5,-241,-124,-180
15,88,5,-240,-6,-136
24,90,-1,-112,64,-133
25,96,-10,-218,-17,-113
22,95,-9,-223,-38,-57
23,101,-13,-233,50,-46
-37,126,33,-2267,-1278,-5812
-52,-76,79,132,-2161,-6280
-101,20,-114,1790,-3351,-6202
-75,29,49,7349,-5808,-6594
126,-105,-92,1324,-4029,-1502
-69,-86,-64,-537,-2928,-297
16,85,43,-810,2777,292
-90,-43,-101,-480,88,9
58,-16,81,137,42,11
96,-53,-75,-60,-97,36
-86,-55,-69,-144,-30,-6
-47,-69,-25,138,171,10
-14,-69,10,-290,525,246
66,95,117,-534,1419,860
-48,61,113,-1648,3016,1369
-24,75,-36,-2740,3803,2402
14,82,70,-1189,3510,3440
62,-1,-34,-1297,2524,3995
107,-2,-49,232,2670,3687
-70,-92,-106,-1089,3018,4091
-116,-124,-19,641,1583,3561
-26,-53,-16,-589,1545,3528
-4,-66,4,-86,1194,3261
-30,33,8,-514,454,2613
115,113,7,-658,-815,1304
33,43,40,588,-882,-317
-6,126,70,1913,163,-906
-2,74,55,1580,724,-958
-2,48,49,791,296,-705
-9,1,74,61,-510,-446
7,-11,87,-430,-474,-374
20,-23,89,-359,-162,-275
21,-31,87,-76,-87,-284
13,-5,70,-301,-79,-53
8,4,63,-325,-86,-19
18,26,47,-199,51,37
34,44,36,-150,39,3
29,63,24,-243,-1,15
13,59,23,-45,-118,-68
7,76,17,-390,-4,-76
30,70,18,-203,-41,-45
28,72,14,-83,-11,-18
21,91,2,-303,-36,-112
25,82,9,-206,-38,-16
30,88,5,-206,-2,-73
35,104,-2,-362,-13,-59
39,97,-2,-189,14,-27
36,106,-13,-234,5,-98
38,109,-14,-281,-25,11
44,122,-19,-179,57,-65
33,-48,-9,-3032,-1332,-4704
113,-127,29,-1408,-2612,-5126
-77,-7,96,-775,-3192,-6761
117,47,18,2999,-3854,-6824
-75,34,-88,3795,-5009,-5288
-7,22,61,1488,-2330,-2095
93,38,55,356,-665,587
-34,72,24,-978,1046,-94
89,-43,-37,-21,750,172
51,-10,-98,68,-366,129
109,-19,-48,-270,348,-254
-119,-50,-28,-112,-41,-36
-63,-92,33,-55,216,167
7,-99,51,-143,733,190
85,85,-118,-564,1464,1128
-98,50,121,-1680,2583,1880
-75,51,-53,-1171,2702,2783
-25,98,63,48,2824,3132
-30,-44,36,-1257,3211,3638
13,69,-88,-286,2679,4134
73,-107,-45,-1040,2780,3716
-127,-46,-76,77,2122,3569
15,-21,1,533,2594,4330
-3,-88,-31,-1848,1724,2362
-113,1,37,1830,-512,2501
58,62,74,774,-1475,1458
16,39,55,497,-820,77
-1,-46,55,975,402,-480
-13,-113,58,716,787,-943
-17,79,56,1059,53,-747
-15,16,70,1138,-58,-492
0,-9,92,571,-157,25
18,17,75,-370,120,-406
35,11,64,-671,-161,-514
21,-25,66,-19,-231,-254
7,-5,57,-304,-117,-125
9,25,44,-588,-45,23
3,36,39,-394,-237,-3
11,61,33,-264,48,74
20,72,19,2,132,-92
23,78,18,12,-79,-71
21,80,12,-20,93,-24
55,83,7,-57,188,-4
17,87,5,-88,-396,14
1,108,12,-572,-79,-51
19,99,17,-408,-99,-82
26,119,-7,-646,-116,160
49,-118,-6,-477,24,-110
35,124,-12,140,21,-93
30,-105,-15,-474,30,-182
47,-31,24,-1904,-1645,-4817
83,118,48,-940,-2550,-5687
-104,-45,114,982,-3170,-6206
-59,-80,-3,2329,-4701,-7004
-98,122,58,5811,-8218,-5764
-56,16,105,-2682,-300,-60
54,-9,107,1417,-748,366
-23,66,9,-943,1639,241
89,-16,-91,251,-22,21
45,15,-35,-351,-33,79
112,-49,34,153,90,-195
-70,-36,19,-39,243,-39
-79,-41,26,-267,97,95
-27,-50,23,-254,397,13
21,-72,71,19,489,100
119,82,-29,-460,1525,1227
-46,79,-99,-2281,2421,2111
10,-42,9,-1530,3898,3018
19,-29,-109,61,3794,3474
106,-111,17,-303,4787,3668
122,-118,-105,-522,3250,3877
-92,34,-85,-749,2117,3969
-100,-5,7,-1392,1683,3304
-61,25,0,412,719,3186
-89,10,63,1375,615,2661
89,117,35,-377,460,1297
16,58,20,596,167,189
-20,-30,58,1424,-30,-424
-36,114,54,1439,317,-598
-29,83,55,634,253,-446
-43,31,56,672,-555,-34
-17,34,93,-490,-355,-238
-17,20,98,-593,-70,-215
-13,19,113,-364,-228,-150
-6,18,102,-83,-39,-71
-9,41,90,-240,-11,-73
-7,52,74,-412,-20,56
-11,73,67,-251,-89,-29
-7,80,58,-210,132,-52
-7,93,46,-299,-36,-66
5,89,33,-84,-25,-97
7,95,28,-247,79,-137
8,97,18,-204,-25,-136
4,96,20,-188,-106,-120
8,99,21,-261,11,-32
5,111,21,-302,-78,-16
11,123,17,-253,40,20
24,-120,11,-219,38,-72
26,-121,3,-64,51,-50
16,-109,-3,-302,-56,-111
-83,-128,54,-1426,-2002,-6386
-119,-15,78,1132,-2359,-5963
89,-100,-124,1645,-5138,-5569
108,54,-112,4341,-6058,-5145
62,29,-127,2801,-859,-726
19,49,4,-1396,-2383,161
-5,-38,81,-9,1236,-165
-116,-35,-122,-859,106,229
85,-79,-75,513,-104,106
104,-38,28,-408,50,324
-100,-8,-54,259,-304,-14
-79,-15,22,-321,194,37
-49,-11,-36,-34,-168,-15
-31,-42,13,-2,318,-96
5,-34,0,-497,320,57
87,-121,109,-8,841,540
-29,68,2,-1322,3126,507
38,-24,95,-1074,3347,2034
86,102,95,-2331,4041,3118
26,61,60,1045,2771,4156
125,-104,-37,-3640,3290,3603
88,77,-69,-142,1871,4283
-110,-52,23,-334,1350,3365
-89,34,19,-403,1030,3599
-120,-11,62,1088,617,2821
117,12,62,10,907,2103
52,9,16,807,490,1074
2,-2,23,1190,-115,216
-11,-86,38,1567,185,-419
-31,66,58,1420,137,-721
-55,34,80,813,-93,-289
-43,19,109,58,-169,-195
-18,7,124,-282,-194,-206
-10,1,121,-215,135,-160
-13,-3,115,-148,-69,-139
-18,3,111,-71,98,22
-6,22,92,-223,275,110
-1,49,89,-330,49,78
16,56,73,-67,352,32
27,57,69,5,138,-58
-14,58,61,-62,15,-13
-21,66,62,-416,305,-123
16,53,42,-40,385,-40
23,73,22,-164,110,-81
15,62,28,142,94,-208
7,56,37,55,125,-168
3,62,50,-159,197,-182
35,76,33,-364,151,-70
45,83,29,-300,107,-11
86,113,28,-381,31,63
107,110,-11,-1513,-3408,-4951
5,11,91,-576,-3680,-6731
-80,-52,-5,3758,-6016,-6463
104,-76,-15,2152,-5507,-4570
67,-76,-11,-646,-3849,-934
88,-122,79,-17,716,75
-105,42,-52,296,728,302
40,58,-101,34,-297,-36
80,-5,16,-54,95,96
85,3,-15,98,-413,139
-115,26,11,-490,-52,-13
-85,10,-2,-463,-53,-73
-65,-41,17,-44,70,-74
-49,-19,-12,-313,-93,131
-20,-15,4,-111,82,-5
14,-38,52,-19,382,86
38,-45,35,-329,654,193
-127,-95,123,-984,1535,668
-66,-121,34,-369,1449,1259
-15,102,21,-1332,2707,2149
4,90,-89,-337,3243,2420
33,-100,75,257,3574,2876
45,-6,56,-802,3146,3456
94,90,-20,-783,2696,3709
68,96,42,-1250,1714,3713
-108,-77,21,-727,1478,3768
-109,127,92,907,1316,3557
-29,21,47,346,1481,2581
121,60,63,286,-95,1436
0,-16,103,950,-707,602
-13,-123,102,1767,380,78
-39,-90,85,-43,336,-417
-38,38,114,718,-36,-202
-19,28,122,746,-63,-117
-25,14,122,322,-128,-352
-26,-6,-120,-108,-19,-106
-26,-3,-117,-435,-119,-83
-8,8,-119,-276,-87,-96
-10,1,-128,30,148,-51
-10,10,112,-72,201,23
-7,43,88,-393,-119,94
-12,49,84,-249,-123,10
-5,62,75,-152,199,-84
-1,68,64,-26,103,-104
1,66,58,-143,-19,-76
0,71,60,-212,-88,-28
7,88,50,-230,35,-107
8,89,52,-205,15,-79
13,92,44,-160,24,-101
17,100,34,-242,-6,-83
59,50,91,-2103,-1430,-5163
-126,-23,127,-932,-1871,-4971
57,-111,-113,-194,-2588,-6890
61,-65,-42,-72,-4070,-7432
-124,-75,69,2270,-5101,-6757
42,14,56,5204,-7557,-4602
91,-33,-18,-2682,-279,186
-53,119,124,214,1556,401
90,78,38,255,-104,-114
69,32,-45,-243,86,87
67,-82,66,16,249,159
107,-33,49,97,155,252
-113,16,62,-239,284,234
-122,19,23,452,-8,27
-63,27,72,-344,541,-34
-17,-63,85,547,644,184
82,-111,-75,-432,1832,279
-55,12,-112,-354,3100,1445
-54,124,-3,-1923,3520,1811
-35,-124,108,-2220,4010,3186
-40,-40,29,-856,3030,4006
48,115,-10,-2098,2852,4621
50,-9,-71,-2268,945,3692
-94,-10,48,-937,146,4435
-80,24,100,887,276,3427
40,-28,58,3057,1554,3881
0,-59,11,-183,558,2694
78,18,-21,-1093,-1207,608
-10,20,48,893,-739,-2296
-2,-122,63,3347,1212,-1227
0,108,17,2447,851,-689
-15,76,22,645,-383,-847
-32,54,61,-728,-1251,-376
11,37,85,-1485,-743,-587
36,-4,80,-610,-187,-512
25,-10,71,233,12,-208
23,19,59,-160,-88,-204
-1,23,39,-53,-77,-43
-14,31,31,-4,93,8
10,43,14,2,238,68
18,40,-2,397,139,191
12,46,-10,403,-46,516
35,105,6,-381,109,530
46,125,-16,-451,63,491
10,-101,0,-735,-580,20
21,-113,17,-513,-31,-211
30,114,10,146,298,-277
33,104,-15,407,225,-131
22,119,-23,-130,-137,-152
21,120,-14,-457,-8,-249
-70,-17,96,-189,-3042,-6543
-102,57,-66,3251,-3837,-7065
98,-114,-111,7222,-7956,-4022
-101,-48,-127,-11,-1406,-1208
53,-77,-112,-791,-881,504
-27,10,89,314,1955,-253
123,16,-110,-1405,468,-18
51,-46,-127,214,-282,29
-128,-68,-8,-278,254,-40
-71,-79,-20,781,339,-148
-82,18,-87,-1003,-193,148
-51,-60,-35,172,169,-94
-3,-23,-31,-384,113,12
10,-53,2,-328,286,78
112,74,-72,-240,1826,392
17,6,-14,-1510,2948,1310
94,-47,107,-2305,4308,3200
-99,37,115,-2671,4400,4133
-43,29,-97,-916,2486,4873
-36,-57,-75,-2931,2080,4577
-76,-81,-27,-443,1000,3901
-6,83,2,-7,294,3803
-86,-18,58,2064,317,2587
-92,33,56,804,1547,1756
97,43,19,139,1192,915
19,-25,27,1417,-167,1053
-18,-60,60,1340,-409,556
-6,117,52,1365,392,-234
-21,93,86,887,202,-297
-20,23,106,449,-352,-557
-2,0,114,141,-345,-324
-2,-25,127,-191,-258,-433
2,-24,125,-346,-153,-274
4,-25,120,-337,-90,-213
-5,-23,114,-236,-45,6
6,9,87,-326,142,6
9,15,80,-186,46,2
5,34,58,-267,100,110
11,60,44,-334,-41,-91
11,56,44,-137,-5,11
13,74,33,-250,72,-79
14,75,27,-221,-112,-161
19,77,29,-354,-109,-90
24,81,32,-299,-7,-144
25,73,38,-135,-11,-135
23,81,25,-272,46,-79
29,88,21,-280,-52,-113
34,86,19,-31,106,-64
41,96,5,-84,158,-23
36,101,-2,-226,71,47
123,52,-108,-2400,-1175,-4927
-19,-119,-68,220,-1059,-6714
48,-49,-24,817,-2214,-7200
-32,42,40,3312,-4370,-8519
105,-54,99,6209,-5891,-4439
-6,-114,-112,-3569,-1685,-924
75,90,32,1631,420,827
-62,118,-12,-1145,745,138
105,52,-118,167,-56,149
70,8,-26,444,-46,-309
-110,-63,33,-439,129,-110
-66,-52,-17,-47,-145,-53
-43,-87,44,102,303,116
-36,-21,-22,-56,293,-10
-15,-35,-29,-194,149,33
-3,6,-2,-329,52,32
30,-7,1,-22,196,-23
56,8,-20,-196,202,-33
-118,-82,95,-170,933,341
-22,-120,-103,-1973,1852,1388
44,43,5,-869,2273,2517
45,97,-44,-1641,2966,2808
68,111,-127,-274,3029,3450
118,7,52,-1255,3507,3325
92,59,42,-2232,2857,4021
-115,20,62,2555,1401,4199
-10,-60,56,576,2419,3974
-81,-24,75,-1140,1215,2374
-88,118,74,-190,1090,3495
-117,-14,112,522,-154,2959
70,93,97,-412,-506,987
-39,-21,-115,1001,-781,-461
-52,108,-102,2129,113,-627
-60,72,-119,1511,589,-776
-42,25,124,869,464,-653
-30,19,-110,87,-453,-469
-36,-21,-88,-143,-574,-278
-41,-30,-71,-606,-214,-256
-44,-33,-89,-286,108,-105
-32,-23,-106,-308,188,13
-25,6,123,-348,-29,18
-27,7,108,-76,92,61
-28,33,97,-344,23,43
-21,36,90,-179,69,110
-21,59,81,-342,-39,-10
-23,55,82,-261,-26,-9
-16,72,71,-432,-6,-96
-15,73,71,-357,-99,-64
-18,73,70,-199,24,-136
-14,77,61,-239,56,-154
43,114,90,-1609,-1347,-5148
118,-88,109,54,-2576,-5738
-74,122,-108,-802,-3964,-6101
98,25,29,2764,-3696,-6993
-84,35,-91,5986,-2496,-3636
-76,96,60,41,-3286,71
38,-90,67,375,-210,135
-70,85,-94,-813,1279,-29
119,-27,-82,138,-293,397
115,1,-55,-20,267,-121
-86,8,-35,-354,-127,-163
-49,-61,25,-171,108,29
-29,-31,-28,-492,137,8
-7,-43,-52,254,17,-41
8,-43,-19,-285,224,19
47,-26,-31,-167,184,25
75,1,-12,-149,438,-89
113,-46,61,-798,664,481
-45,-117,119,-1547,2221,539
-17,102,36,-595,2301,1286
3,-36,-70,-3299,2312,2057
2,83,-111,-1556,2280,2810
72,122,104,-190,2778,3976
95,-1,116,-2448,2627,3518
120,36,14,-854,948,3858
-44,-70,45,-1996,758,4233
-76,-93,80,1067,101,3332
-73,-109,-106,1068,1042,3270
-94,6,90,-290,1006,2567
78,78,86,23,-544,1541
-9,7,-126,1276,-712,-467
-29,-125,-128,1743,300,-821
-54,23,125,1852,377,-764
-46,11,-121,975,153,-190
-36,-1,123,178,116,-221
-25,-6,127,-332,-188,-266
-18,-28,-114,-195,-247,-83
-19,-18,-114,-239,-92,-65
-16,-9,-128,-210,27,-92
-17,-12,122,-160,-61,-7
-14,5,112,-319,-25,-14
-17,11,95,-201,74,-6
-20,37,74,-615,-24,12
-6,37,74,-143,-6,-36
-10,42,64,36,-29,-174
-7,47,68,-349,-72,-161
-10,36,65,-163,-33,-54
-7,50,62,-318,-10,-36
-8,57,55,-269,3,14
1,73,48,-284,-7,-85
-44,53,-55,-4548,-575,-3684
64,-106,107,205,-1575,-5130
-30,-117,40,-1111,-2088,-6326
96,-46,79,1281,-4239,-7209
38,43,-123,3275,-5941,-7147
111,-58,122,8697,-10041,-3654
59,106,104,-5808,-598,1550
96,56,-17,805,1269,-239
-49,3,24,-288,100,206
101,-19,-45,251,-192,-22
-117,-41,61,298,167,-3
-95,-5,-33,284,-366,-293
-40,-56,60,-351,162,99
-23,-3,-22,-249,61,-152
0,-43,19,-221,115,-49
16,-19,0,3,-95,-56
51,-34,24,-424,474,-64
65,-17,5,-109,243,7
-111,-26,90,-681,1133,-83
-11,-120,-80,-1089,2189,807
23,119,65,-2222,2374,1112
66,-17,-30,402,2364,2569
127,82,-42,-1600,3646,2652
88,112,72,-1123,3233,4218
-109,26,18,-2399,3949,4809
110,-119,0,-2854,2044,4161
-13,11,53,-1973,823,5111
-42,70,90,-341,105,3693
-69,55,-60,2462,-839,2326
33,112,-91,1184,-73,169
-27,12,-97,533,485,-452
-67,113,-118,1889,477,-472
-66,72,-122,1534,160,-367
-49,36,-125,929,228,-432
-48,14,-114,459,-20,-185
-35,-5,-105,56,-116,-181
-40,-12,-96,-33,-170,-214
-38,-24,-96,-95,-24,-103
-33,-17,-105,-265,48,137
-31,16,-123,-335,-39,87
-30,22,121,-105,18,7
-44,3,126,99,104,311
-27,45,98,-370,259,160
-16,72,78,-339,-134,-118
-21,56,85,-71,-15,-57
-24,64,77,-182,84,-139
-26,64,69,-273,-102,-63
-18,72,67,-310,-55,-180
-16,58,70,-94,6,-103
-14,71,60,-248,-15,-126
-35,117,-86,-3176,-758,-5986
-111,-103,-47,-891,-139,-8700
-30,-88,49,6556,-240,-8335
-35,-107,-60,7987,-4575,-7334
-125,-36,59,-1969,-177,-2024
-67,46,64,437,-4726,663
113,80,-91,-868,1621,-36
-111,-127,102,-722,605,164
110,5,94,155,102,-685
-18,116,-30,-504,215,169
-28,-103,122,410,-53,116
4,29,-122,-1003,-177,-36
9,88,84,37,903,230
20,110,55,-399,-368,-54
34,-21,-61,-343,183,1
77,4,-80,-114,69,-115
110,-15,-52,-280,366,54
106,-18,-84,-193,289,200
-60,-70,7,-586,1038,592
-97,32,-61,-1345,2756,1533
8,-17,75,-259,3160,3299
18,110,-125,-2398,3363,4335
-13,-60,-29,-1314,2234,5301
6,-89,-71,-1672,2178,5451
-14,-119,24,-976,1818,4604
-12,7,21,1163,158,3839
-9,-97,-126,1029,1303,3341
-49,-119,105,1448,2027,3214
-94,60,84,1112,475,2636
17,102,69,1370,-595,-76
-46,-87,-97,912,58,-1037
-65,19,-99,1513,603,-529
-76,33,-106,515,79,-331
-47,-7,-84,-227,-332,-375
-28,-63,-63,-1,-96,-394
-32,-63,-68,-241,-99,-401
-29,-81,-63,-236,-90,38
-25,-55,-76,-260,-8,57
-21,-21,-99,-223,25,-57
-25,-12,-117,-145,77,3
-28,1,127,-149,-46,-78
-29,7,121,-265,-81,-62
-30,3,125,-201,-53,-16
-23,14,115,-168,17,-107
-23,17,108,-110,14,-94
-20,15,99,-38,52,-144
-19,14,94,41,43,-57
-9,22,92,-51,65,-116
-8,20,86,9,108,-62
-6,30,80,-27,117,-56
