AccX,AccY,AccZ,GyroX,GyroY,GyroZ
-101,-19,98,2910,-2834,-3537
-88,80,-59,4765,-6216,-3655
126,18,-25,1023,-6449,-5449
-30,14,-89,305,-7011,-4253
6,61,116,-2643,-5466,-2702
123,83,111,-69,-3994,-1547
2,-106,85,-605,-2154,-1201
-72,-44,79,-180,114,-312
67,-9,-16,382,1170,333
-31,50,-114,-1014,207,278
109,105,115,-1123,311,146
-48,-11,-25,64,755,-180
32,-66,45,-642,1308,776
31,-50,-102,1534,2277,2406
-16,102,108,619,3399,3250
62,1,76,-1131,4990,4062
27,-107,-68,1914,3430,6689
-24,115,-117,276,3709,6615
25,-6,82,-1201,2370,6876
-33,-111,-12,2559,2344,3751
-28,-12,110,2743,1546,1589
-8,-79,-88,-290,751,979
104,123,-64,608,-276,1376
7,65,-25,1698,-841,256
-15,-26,61,1941,-772,-597
25,-46,59,776,238,-552
23,-85,56,309,144,-570
28,125,60,373,-111,5
25,-109,49,154,-80,123
32,-89,38,-171,-23,-104
48,-93,19,-219,79,-133
52,-90,3,-76,-5,-26
56,-74,-12,-40,4,17
57,-58,-26,-226,18,-140
68,-48,-40,-255,49,-105
72,-39,-59,-75,29,-146
85,-36,-66,104,24,-127
82,-30,-74,179,-16,-37
90,-15,-82,7,103,45
98,-5,-93,-37,124,54
107,2,-109,-23,128,9
114,15,-127,-182,80,-56
114,14,125,-6,-6,-21
119,18,123,96,-8,40
127,42,120,-112,14,-16
-122,47,120,-42,38,-71
-122,53,115,-58,10,-69
-112,55,112,49,65,-78
-109,58,108,69,64,-32
-105,66,98,83,42,-15
-25,-39,-119,1172,-4920,-4571
-13,-45,-101,1735,-5489,-4901
51,12,-108,616,-7287,-4217
82,-63,119,-119,-6655,-3755
-66,11,-23,-469,-5800,-2693
69,-67,95,-1964,-2563,-2399
54,57,98,-376,-1726,-505
13,110,-9,655,-354,120
-99,-2,-113,511,232,299
99,-52,91,131,319,235
100,-42,29,368,48,-272
-98,-82,21,-81,-155,29
-19,124,51,-29,223,188
7,-88,-9,142,125,48
22,-85,9,-118,230,13
85,-93,9,75,428,59
-90,105,93,153,1032,605
96,12,-75,-430,2793,1569
-34,-120,-121,-873,3695,4014
57,-32,-23,-733,4515,4836
-109,57,98,-718,4599,4940
-34,-64,56,-540,3956,4311
-1,9,114,-1752,2290,5671
65,-128,-123,-955,-279,5709
-109,-70,-38,3328,536,5661
-104,79,63,4219,54,5240
-31,-73,-28,1483,459,2613
-18,23,-33,-1900,-787,119
-119,-125,-5,-541,-1082,-1921
-81,-86,57,2238,-341,-2182
-41,-57,29,1519,750,-1013
-46,-29,16,-273,576,-224
-63,-44,6,-757,-379,151
-42,-36,-4,-571,-333,74
-22,-34,-4,-281,-57,-204
-14,-32,-28,-200,129,-103
-18,-21,-51,-143,44,-49
-15,-8,-57,25,-125,-1
6,11,-59,166,30,45
11,33,-71,-56,47,-76
19,43,-84,-95,49,-32
29,54,-96,-172,67,-213
35,47,-107,-114,107,-160
50,49,-123,-43,75,-48
52,66,126,-176,16,-102
64,69,124,-48,45,-101
72,79,120,16,14,-60
79,90,118,-44,31,-44
84,97,114,-15,56,-91
94,101,107,-5,101,18
-84,-45,-126,1146,-3696,-3719
-67,73,-15,2139,-7293,-4211
115,-4,-79,2095,-7040,-3897
-65,-43,54,22,-7231,-3785
71,-102,90,474,-6114,-2996
-115,-62,-50,-814,-3884,-2624
-54,-121,101,-2994,-1196,-1645
-67,46,48,-233,213,-816
28,122,-66,-463,113,824
120,-82,24,-73,542,134
99,-78,-26,199,267,-158
-86,-116,32,28,95,177
4,-72,-32,102,295,-339
7,-127,-7,194,143,157
59,-87,-10,231,353,-35
113,-118,27,385,549,451
-24,88,-122,560,1611,668
-115,-1,-75,-88,3683,1398
22,68,46,-1706,4497,2321
103,49,-51,-1842,4712,3186
-75,115,-116,-2573,3472,4046
-3,4,116,-3889,2191,6041
-45,-109,119,-4478,380,5463
22,124,5,-85,-965,5247
116,53,101,3521,-340,3633
64,-54,37,-581,143,2148
-80,55,-32,-333,370,1297
63,-22,-32,314,-409,1378
11,-105,-38,904,-280,-75
25,79,-44,1158,-168,-427
3,-3,-17,1329,-316,-157
10,18,-21,189,32,180
24,81,-42,-1723,206,69
23,64,-77,-985,-75,-88
16,43,-68,119,-74,111
77,58,-70,165,382,22
59,43,-93,403,284,108
55,28,-100,625,109,131
111,24,-97,409,291,168
73,24,-96,632,-84,361
74,27,-94,285,-19,227
91,55,-89,-342,181,-106
90,26,-105,320,138,160
99,47,-96,457,-2,-9
123,44,-101,383,156,-107
117,40,-93,252,111,-7
117,71,-98,-557,-247,374
88,57,-102,-415,-813,9
99,-24,-79,816,263,447
-107,110,-125,-675,801,503
-14,46,-4,3784,-4156,-3772
87,125,29,2111,-8888,-4379
-116,-76,-65,-115,-9189,-4225
55,53,-24,-612,-7741,-3917
123,-49,-53,284,-5262,-899
-113,-52,71,-794,-2138,317
86,-49,-48,-161,-25,624
-2,63,-51,814,949,-64
-33,123,-47,479,1175,422
24,-69,120,227,754,295
124,-97,107,81,354,-354
-52,123,-125,-883,370,730
111,-97,125,-276,931,180
-63,91,123,-136,1600,1050
14,47,74,-672,2556,1749
-119,71,-10,-1435,3140,1042
-48,112,-52,-2001,3360,3064
-6,-121,-107,-1387,3613,3450
75,3,105,-332,3181,6212
50,57,-23,-283,1779,7283
106,-13,-36,-3724,167,6582
-75,59,-46,-718,-268,5197
-15,24,-56,256,300,4313
-73,-124,-99,2411,-351,1814
-41,-113,-29,1259,-925,1646
-126,-77,30,573,-1102,1981
-44,-81,-35,1389,-326,-222
-84,98,-22,1726,-332,-1496
-44,0,-17,1757,193,-1281
-36,4,-15,751,185,-152
-45,15,-17,114,-102,235
-22,9,-8,231,-319,55
-3,8,1,384,-113,-167
7,12,-18,31,149,-470
3,14,-34,-511,17,-453
16,2,-48,-458,75,-236
25,17,-71,-422,138,-122
35,32,-90,-333,153,-117
37,46,-109,-158,131,-213
53,34,-124,420,119,-191
78,38,127,310,168,-34
53,52,127,370,-289,169
65,74,-114,13,-145,86
107,85,-109,-249,119,-180
119,66,-121,71,78,-218
85,83,-126,-319,-181,106
80,104,122,-516,203,66
104,101,107,-35,321,69
119,107,88,146,182,227
-126,125,78,20,21,162
19,106,11,3989,-2943,-4880
30,84,117,4151,-7723,-8635
56,-112,-92,2819,-10063,-7381
15,53,88,-447,-9505,-4318
-5,-64,-65,455,-5258,-1026
-101,52,-95,-1130,-716,142
113,-12,99,-103,1555,-442
-45,-79,2,1286,232,-50
83,-102,90,-52,255,51
116,-64,-108,-610,307,220
-76,-123,-17,-145,194,103
31,100,71,397,844,-347
-115,93,-126,983,2024,58
81,-87,-24,347,3830,2082
47,69,-107,216,5176,4389
-118,53,-104,-2923,6426,3035
-91,18,49,-1618,5430,5785
70,9,55,-1062,4863,6451
-128,-79,100,-1987,3605,4432
-103,54,-42,1398,912,4477
-26,-11,-20,1290,1250,2758
100,55,-41,164,-207,2909
105,2,-61,-653,-1282,1439
-8,-117,-53,-499,-917,184
-7,55,-24,526,-225,-542
-12,15,-15,946,136,-629
-12,-12,-15,817,16,-513
9,-23,-13,481,-42,-293
8,-36,-21,368,-142,-269
15,-31,-6,-30,-252,-87
27,-22,-12,-323,31,-66
37,-21,-26,-66,229,36
43,-20,-57,372,149,175
52,7,-71,75,26,126
67,20,-81,-90,130,-25
70,20,-90,-78,118,3
72,28,-101,-66,19,-43
82,42,-117,-97,99,-270
95,47,-124,-74,104,-249
102,44,120,21,-35,-109
100,55,127,51,-105,24
105,61,-126,33,32,-9
110,67,-128,61,83,31
120,81,118,-31,-26,75
124,87,115,103,-101,-97
-127,95,103,114,-43,-161
-127,96,97,26,-13,-200
-121,93,88,105,0,-136
-112,104,76,-100,70,4
-116,108,78,-16,-13,-33
105,-7,-7,2998,-1687,-3382
-114,-124,47,1183,-2236,-5432
-113,124,-46,2433,-7587,-5865
60,-60,-116,1576,-12748,-3397
89,-118,121,11,-8275,-2153
49,11,-11,-1540,-3250,-722
-63,10,-104,-1118,-700,-269
82,-84,17,1149,180,45
-114,69,-94,-42,415,215
50,-3,-126,-432,662,137
109,-97,112,92,883,-246
-20,89,123,-247,1253,662
-84,-65,-97,1040,2246,1125
91,96,-46,1359,4521,2403
-17,-29,-14,-334,5624,3950
24,-92,-69,-1455,5982,4496
103,120,-109,-2098,5450,5772
-40,37,-126,-2862,3861,7289
114,41,75,1397,1659,6052
59,-64,-70,1084,227,523
18,-1,56,2998,-555,2662
-13,-15,26,1646,1075,5369
120,62,-122,447,791,-1339
-27,-113,-104,-132,-604,-1475
44,30,-39,185,-1031,-732
41,-20,-32,521,-496,-464
19,-37,-32,779,-90,-246
26,-28,-28,722,-180,-394
60,-29,-15,367,-288,-304
58,-24,-7,-103,-497,-466
64,-21,-3,-396,-277,-461
57,-23,-16,-332,-64,-131
69,-18,-34,-14,271,280
77,5,-70,302,225,417
98,25,-87,95,321,223
104,39,-104,-213,217,189
107,45,-123,-217,192,197
111,54,126,-119,82,227
125,79,-127,-103,-55,95
116,90,-123,-1,-8,-293
-125,66,-128,350,-10,-566
-110,49,-117,149,-22,-135
121,71,-127,-126,59,141
-122,81,119,-37,176,27
-102,90,112,-71,106,145
-98,106,101,-177,22,25
-93,122,102,-252,-11,-7
-89,126,103,-37,85,-70
-85,-113,102,-121,8,-206
-80,-113,103,2,-3,-311
-51,28,-86,2451,-750,-6250
-80,-55,-81,3569,-8449,-5954
-22,-118,125,2153,-12377,-4502
-26,81,48,-1077,-7909,-3808
-20,55,46,1380,-5147,-842
-98,-60,-52,-925,-1763,-77
45,-66,-70,-44,726,25
-79,13,-100,658,647,332
87,-107,64,304,332,151
112,-52,115,-353,394,-55
-88,-127,77,-124,440,-272
-18,84,60,-4,543,42
68,62,93,184,1471,323
-76,-27,-116,254,2754,1264
43,-36,106,-1136,3879,2734
96,-20,8,-1055,4229,3405
-30,-23,-72,-1398,4510,4259
-118,63,70,-290,4247,5979
-61,-56,87,1214,3289,7014
101,122,-124,-1283,4174,5138
-8,69,-63,-332,53,1058
56,-79,-16,197,548,2342
-36,-115,-73,6,668,1881
-117,61,-76,289,156,1558
-116,-125,-71,-880,243,1621
100,-121,-121,-665,168,280
-12,94,-113,332,-1191,-1096
-7,43,-68,1153,-1349,-840
2,28,-40,974,-647,-453
13,63,-47,-477,328,-236
11,68,-74,-1111,470,-411
31,68,-91,-869,64,-286
56,74,-91,-384,56,-276
57,89,-101,-271,178,-272
63,82,-120,373,159,-48
73,98,123,281,77,36
87,108,113,82,97,-19
93,113,110,98,4,43
95,118,111,157,-10,21
106,123,109,39,64,-12
114,-127,104,-19,34,-51
118,-123,106,-40,-51,-77
127,-119,112,-37,62,-102
-128,-118,108,7,81,-101
-122,-118,105,98,60,-44
-114,-112,98,85,35,-28
-107,-111,97,144,54,-18
-108,-104,94,59,40,-2
-98,-101,94,54,66,-20
-92,-101,91,100,74,-20
49,80,107,5124,-433,-4540
26,-48,-58,3334,-4445,-4942
98,38,-117,-255,-6480,-6844
-106,86,-94,1545,-8173,-5933
9,77,14,711,-7971,-4523
122,34,99,2007,-6827,-2266
-91,33,72,-1932,-2895,-593
113,103,84,-599,-347,75
-74,111,75,515,193,783
127,114,86,247,388,361
109,-22,108,544,412,-432
-99,-91,91,-300,456,33
-37,114,6,343,277,-125
-5,103,23,380,458,-41
73,98,94,360,899,262
-57,76,93,225,1819,623
21,8,108,755,2903,1343
-101,-33,68,-356,4631,2158
-37,-97,13,203,5185,4257
101,92,-118,-3795,5912,4878
72,-49,13,-5446,3354,5501
-123,-11,89,-4833,1292,4487
114,104,-5,-1145,-1650,2556
-47,-99,84,5821,-254,5029
-32,35,54,2760,422,5184
-64,74,-27,740,319,1787
14,19,-70,-307,-305,680
-55,124,-34,-156,-1290,-583
-20,35,-7,853,-752,-887
-25,7,-4,1128,47,-468
-26,-4,-23,960,296,-326
-18,-12,-31,656,-68,-375
0,-19,-30,212,-162,-339
19,-7,-29,-669,-145,-406
26,-9,-36,-876,15,-394
26,-9,-52,-632,53,-209
30,-4,-65,108,48,123
45,16,-78,443,129,196
49,37,-98,300,92,169
63,53,-114,15,126,8
85,46,-119,134,150,16
82,47,-126,156,-39,112
74,82,-128,-341,-1,-25
96,76,124,-128,155,-295
99,66,122,134,-11,-63
105,81,114,-97,-1,-93
108,91,114,-246,82,-103
108,90,111,88,71,-47
-128,97,106,24,100,-3
-125,108,99,-45,23,28
-45,13,97,3775,-4434,-6018
-48,-108,67,5589,-8823,-6931
69,125,39,442,-7755,-6226
-84,-116,-54,127,-5455,-2952
-39,-87,-122,-1124,-314,-799
-24,-111,57,-1316,507,197
88,94,-113,-143,1636,1180
118,-72,-94,-192,1156,365
-28,38,-102,317,631,-189
45,-102,-13,180,972,610
108,-99,70,1234,1674,2413
-7,20,49,524,2507,6006
-100,-68,-95,-59,3471,5253
42,108,-20,-1960,5101,6513
126,-8,-96,-3124,3959,5625
-47,47,-11,606,992,5729
-53,-12,-90,3396,-1286,4601
117,42,-87,522,-389,1546
-9,-1,124,7126,-1538,-980
-52,-9,106,5074,2231,78
-116,-4,-37,877,3224,714
23,-31,-10,-1855,1345,-345
-18,126,7,165,-1370,372
-1,97,45,2200,-1371,1161
35,-53,46,396,131,17
25,-33,21,-1419,569,-722
7,121,1,542,-50,-190
7,-81,2,-288,-316,-157
29,-67,-7,-749,57,-431
39,-87,-21,-104,142,-412
52,-85,-42,159,100,-205
52,-48,-58,-578,47,-184
51,-60,-64,120,-15,20
68,-41,-78,170,125,9
79,-31,-88,148,93,70
80,-13,-99,-28,34,101
93,8,-110,-164,124,-69
96,19,-118,-298,65,-147
104,31,-126,-383,23,-195
109,34,126,-300,100,-206
113,41,117,-206,94,-158
121,46,107,4,67,-90
123,56,102,55,10,-32
-119,62,101,131,61,-7
-117,83,95,-49,-9,18
-111,97,96,-132,39,-86
-100,108,92,-388,64,-130
-102,121,90,-407,56,-121
-99,122,88,-16,129,-169
-88,125,79,-64,117,-140
120,114,-54,3631,3422,-4745
-26,46,80,7390,-6335,-6707
-117,-113,-75,3181,-13721,-5412
-84,0,5,-3468,-11228,-5169
47,-119,-110,-24,-9222,-2886
-128,-16,80,2597,-5283,453
112,-55,52,921,-504,515
-78,82,78,-516,1078,-200
-111,-119,91,-300,111,306
76,-126,1,-14,1087,-79
-5,22,-119,-324,2626,913
93,29,71,716,4184,2320
-28,12,-59,1817,5979,3219
-104,86,-24,744,7359,3466
52,96,116,-2440,8201,5010
-7,99,71,-1605,4706,6574
-27,116,-86,-3837,-914,1366
-88,-33,-40,5218,-1014,162
-100,89,85,2958,2640,2014
-31,22,25,1488,2181,968
92,-65,40,-379,188,672
89,126,63,-809,-674,448
85,50,107,-233,-1029,-7
74,37,120,256,-425,20
65,30,-128,611,-31,-24
76,25,-121,699,161,-45
81,25,-113,694,-87,24
92,39,-84,720,157,-761
118,2,-82,1284,845,-513
121,19,-85,356,247,-137
-125,19,-86,-16,-227,-93
-125,17,-97,-207,-230,-35
-106,23,-85,55,63,-520
-95,31,-91,114,418,-268
-100,56,-102,-58,348,-286
-78,57,-108,-8,239,-66
-82,74,-120,-199,-27,128
-76,82,125,-240,-28,210
-70,88,122,-327,-31,434
-91,91,105,-554,-208,818
-101,105,102,-822,-228,617
-82,111,91,-618,176,149
-76,-122,80,-451,190,-163
-70,-120,82,-43,15,-123
-66,-117,82,116,-68,-165
-70,-105,84,-36,-41,-258
-73,-109,84,-45,5,-253
-75,-116,80,110,53,-190
-65,-118,69,99,105,-82
-53,-110,66,-59,60,33
-42,-111,-69,841,-5436,-6656
-88,15,-122,2270,-7692,-7711
-69,-21,-20,3180,-7295,-5112
-52,19,-50,1644,-5091,-3077
-35,78,76,-2513,-1244,-1773
-61,-78,13,42,-556,859
-115,125,-95,-186,-343,208
-58,-96,87,546,385,-61
-32,84,123,277,1073,290
37,-1,101,1066,1945,880
-40,-49,-92,511,4133,2416
13,7,3,-1128,4398,4149
-86,33,98,-3033,5346,4901
32,121,-26,-2726,4504,6928
115,-65,22,-1829,2141,6637
113,81,82,-574,1189,6468
8,-102,-119,-243,-266,4201
113,-93,-105,3472,-1230,1329
103,-111,-107,807,205,205
54,-45,120,-1109,1683,2073
-107,-6,83,-1888,488,1530
29,-57,78,-954,-851,-971
61,-127,126,1193,-720,-1322
70,95,-125,1959,-165,-735
77,98,126,1012,-90,-582
66,94,-125,-29,-333,-742
76,90,-119,-903,-183,-743
81,82,-127,-945,82,-667
81,88,121,-682,135,-381
85,101,108,-208,113,9
99,119,103,20,45,225
112,-116,97,-3,48,268
-128,-99,95,102,64,216
-117,-96,89,112,148,67
-118,-87,83,-30,68,78
-112,-87,82,77,71,-31
-106,-84,82,-22,95,-124
-102,-84,79,-108,87,-134
-101,-89,81,48,32,-107
-99,-87,83,73,46,-54
-97,-85,80,95,93,-50
-90,-85,74,160,27,0
-82,-81,75,171,35,-5
-78,-80,70,139,62,-23
-75,-77,71,16,39,-55
-68,-78,73,32,42,-58
-67,-73,73,-94,50,-79
-66,-75,74,-16,45,-53
-63,-70,74,-21,78,-33
-59,-67,68,18,75,-59
-64,63,19,3715,-4274,-5016
-105,-51,7,3260,-8120,-6549
-126,-96,-55,-1318,-6247,-6593
87,-109,-51,-2554,-4807,-6379
73,83,-18,-864,-2086,-3246
3,-38,-14,-1384,-577,-551
39,97,16,-30,81,856
-98,-53,-65,128,503,1224
-60,116,-30,595,844,-78
-14,-29,-23,618,1033,464
-120,-105,14,1862,2391,2069
46,-46,-46,-1043,3554,4192
-59,119,-104,-2661,3586,4947
89,-53,110,-2912,1837,6383
-113,93,94,-2445,-341,6785
-30,-72,-111,-1033,-238,5730
77,-91,-42,134,-882,4081
-79,118,-60,2886,822,3480
117,-63,-84,4030,600,3228
107,72,-114,4398,1168,3793
1,110,-120,2304,937,2154
99,-75,-119,-1718,223,25
8,79,-92,-2451,-969,-1606
49,-13,-57,-300,-887,-1145
45,-32,-52,1141,-238,-91
30,-6,-61,1158,32,18
46,18,-71,-95,-102,-554
55,9,-75,-668,-106,-697
57,-3,-69,-650,-121,-428
68,-4,-72,-162,141,-123
76,13,-88,192,108,185
86,27,-101,413,44,201
97,34,-109,560,100,241
103,45,-123,374,130,165
106,56,125,5,138,94
120,69,115,-307,170,4
126,70,111,-96,110,-63
126,75,105,-9,23,-161
-119,77,104,56,54,-175
-118,81,100,-21,-7,-150
-112,93,102,-194,7,-199
-109,99,104,-249,65,-196
-103,100,103,-99,72,-133
-102,107,96,59,40,-10
-94,118,92,15,86,-42
-86,125,87,68,72,-11
-85,-128,83,108,32,-33
-77,-123,83,66,74,-17
-76,-116,84,-27,24,42
-72,-107,85,-43,98,-33
22,21,66,4621,-2941,-3874
95,-59,24,1350,-6758,-4886
7,116,104,817,-8604,-5067
-64,73,-69,-1307,-9722,-5390
76,-126,90,2288,-7947,-4215
-56,-90,10,161,-3585,-1175
-118,-32,-40,-532,-947,227
-36,-84,-19,375,581,294
-83,-26,-115,745,1060,243
-117,79,-117,250,1042,84
20,20,-75,528,1695,325
-32,-106,-52,99,3016,2056
39,67,-116,120,3965,3392
-114,-86,-110,-1480,5572,4803
-29,46,23,-1026,3561,5814
-35,68,-65,-1652,2544,6110
21,126,-20,818,213,5912
-77,-63,40,-1138,1942,4054
-96,-70,-59,248,712,1635
14,-1,-15,1537,2561,3523
65,25,67,1970,2525,2803
70,37,50,1736,36,1816
-8,-12,66,282,-198,871
103,74,-49,1268,-884,344
-15,-49,24,2907,-1382,162
-77,-14,-23,1760,356,177
16,45,-19,-997,1039,-455
72,8,-48,-1431,476,-705
55,-60,-49,-68,-497,-656
23,-53,-40,928,-671,6
40,-22,-37,364,-179,-177
68,9,-49,-741,231,-199
51,13,-79,-954,26,-37
56,24,-97,-682,-29,-100
79,42,-104,-424,30,-94
84,47,-113,-110,16,133
80,65,-110,147,30,261
93,77,-117,502,156,217
106,76,127,615,213,122
109,81,118,330,8,106
107,71,121,499,111,82
108,73,118,419,174,30
120,77,108,53,178,-10
-114,77,104,51,136,-107
-99,68,101,291,116,-286
-101,63,96,292,24,-226
-107,57,102,314,-91,-133
-104,61,105,163,116,-197
-107,57,99,69,184,-11
-92,65,98,-69,138,299
38,23,-7,1466,-5773,-5844
-60,-8,115,-475,-6851,-5672
39,-111,10,-580,-6740,-5862
67,108,92,1055,-6503,-3694
-43,100,104,-1435,-3342,-1530
84,-106,99,-1596,-1184,-534
16,-16,-99,608,-236,173
-67,72,121,845,376,-149
-119,-60,-120,54,443,-25
-117,-82,117,38,409,-107
-73,-87,89,13,400,6
60,84,-88,337,1079,624
-51,-3,-69,395,2331,1614
26,-80,106,-89,3537,3738
-115,-28,-55,-970,4523,4837
-48,111,59,-3693,4241,6406
-42,91,-25,-5207,2410,6559
79,-123,83,-1611,-564,4678
45,70,18,4326,-2564,4643
113,21,-23,6659,-742,3693
-115,18,-89,3820,1564,3181
-21,10,-114,1073,1544,1070
79,106,-98,1377,434,989
7,125,-62,-1337,-201,662
-10,103,-60,-1304,-227,288
-16,42,-56,138,40,-57
-18,45,-49,737,-102,-367
1,25,-53,660,-60,-525
5,29,-50,-147,-150,-480
0,20,-53,-432,-22,-451
7,21,-56,-468,56,-388
19,19,-65,-135,100,-171
37,34,-79,-186,181,-84
51,47,-96,-160,138,26
53,62,-116,48,97,78
65,73,-126,102,140,38
74,79,115,84,102,9
82,95,108,-142,11,-31
87,94,111,-16,-19,-39
96,96,113,109,35,-58
100,115,111,-248,-6,-142
111,108,114,-150,76,-123
113,118,111,-203,58,-20
114,-126,105,-155,97,-86
125,-123,99,-39,120,-96
-122,-117,88,5,86,-92
-122,-115,82,19,26,-94
-115,-114,87,26,57,-36
-108,-109,91,99,30,52
-100,-101,90,133,57,38
-63,82,80,3464,-1159,-5585
99,109,29,1398,-6800,-7723
-61,-101,9,924,-8009,-8435
-44,-53,61,-627,-6663,-7083
71,-86,108,712,-4183,-4823
84,32,110,-941,-1124,-1259
16,-40,-5,-793,374,951
-93,39,-128,531,-199,634
-78,-2,83,895,604,-321
-45,-74,-96,109,1060,48
29,43,-116,830,1782,919
-12,-74,123,-145,3926,2837
60,26,-56,-1684,3807,4749
108,54,124,-1917,3190,6223
60,-7,24,-5061,3241,6906
77,-48,26,-4627,1504,5179
-115,-9,-2,-1387,-2076,3647
27,-123,64,2896,-2322,3503
15,-92,-30,682,-778,3030
-22,77,-75,-664,-239,2561
-35,22,-96,415,-145,1987
-119,-104,124,3301,-568,1083
-122,91,-119,4256,-1073,1378
103,-90,-89,1661,-760,1399
33,-86,-98,170,104,-587
7,18,-60,1365,155,-1204
7,-30,-54,2073,-80,-655
15,-37,-41,1388,-137,-420
24,-23,-42,53,24,-174
42,-16,-54,-969,160,-340
54,-34,-71,-589,140,-276
59,-25,-79,-245,-40,-80
65,-5,-86,-148,50,-45
74,8,-98,-65,117,-66
84,22,-114,-17,72,-33
88,34,-122,-96,44,-47
88,41,-125,58,76,-57
102,46,117,189,131,-129
108,48,113,136,-43,19
117,57,120,202,95,50
121,72,110,46,99,-14
121,80,105,-39,70,-85
-120,76,100,56,86,-168
-118,85,95,-199,98,-43
-116,92,85,-84,64,-92
-103,99,78,-219,110,-119
-95,114,69,-457,29,-28
-102,-116,64,-600,-98,-139
-97,-124,80,-67,72,-150
-93,-108,74,-173,23,-133
-72,60,109,3029,-964,-4102
-106,-58,-118,4861,-6674,-4171
106,-32,110,4240,-9377,-5875
-82,-84,76,936,-8800,-4713
-76,30,20,-118,-7208,-2294
47,-116,28,1151,-4353,567
-18,-49,79,-498,-838,681
76,85,83,491,-150,304
-5,115,-83,630,1049,-387
28,48,94,114,2614,780
3,78,-98,2153,5773,2546
85,96,-115,3818,8954,5183
-82,77,-78,3435,9029,4258
92,114,115,-4311,10329,5415
16,-36,96,-6431,4660,6520
-64,-100,-7,266,-2029,3937
88,-63,45,241,-2494,398
112,105,57,-1310,3000,1243
81,25,52,893,611,503
20,-96,-99,2165,-1732,-176
38,101,-86,2072,-1076,-222
50,113,-91,407,327,-259
57,92,-111,-319,581,-516
71,38,121,-17,94,-768
57,12,-109,215,-787,-1106
61,-9,-85,55,-621,-693
81,26,-90,-1048,69,-594
95,36,-100,-1192,359,-417
95,52,-125,-706,319,-109
95,67,120,297,36,193
118,88,120,489,68,312
124,106,117,439,79,285
-125,111,110,554,105,179
-124,116,113,385,103,86
-128,114,103,236,160,68
-118,121,93,-72,180,-28
-106,119,87,-12,167,-66
-101,116,82,72,47,-147
-90,112,89,108,-74,-200
-85,105,92,190,3,-135
-105,107,92,154,28,-37
-98,121,85,-166,67,-12
-88,125,84,-76,27,47
-78,-120,89,69,23,-11
-69,-110,89,0,122,-94
-66,-111,90,39,59,-69
-66,-115,86,323,103,-126
-67,-114,79,255,56,-222
-66,-117,78,123,20,-211
-63,-128,82,156,101,-88
118,-40,-99,3015,804,-4658
-112,-37,18,2987,-2798,-6444
-34,34,37,1895,-5175,-8042
117,-49,116,1100,-6940,-8076
22,85,97,2139,-4891,-6245
-90,14,-28,129,-1383,-2545
-113,-123,-58,-389,-866,171
-54,-16,103,976,-858,503
-21,-86,5,774,174,143
-14,-80,78,240,697,9
-6,89,-10,561,794,409
108,-34,44,1191,1806,1258
66,-17,-79,1154,4256,3339
83,12,-44,-3620,4644,6239
-1,31,37,-5502,2484,6106
-18,34,58,-1590,995,6818
-2,74,-87,4463,1946,7014
-51,-14,119,34,3378,6478
95,37,-127,897,380,4697
85,59,122,2270,90,2211
41,110,-110,62,585,1110
-60,-43,-95,-2320,642,1562
23,-82,83,-1116,408,-654
15,86,-117,1177,-464,-1402
37,41,-105,2174,-376,-524
25,51,-111,1570,-358,-30
19,50,-93,475,-428,-386
41,36,-76,-20,-230,-431
41,26,-75,-275,-128,-370
50,49,-71,-852,-216,-454
73,56,-82,-930,119,-556
73,54,-98,-511,237,-436
73,60,-117,-128,153,-207
82,71,119,201,99,31
98,82,108,246,119,200
97,100,100,111,4,272
115,121,96,-115,123,140
122,-122,96,-265,113,112
122,-115,94,-69,79,-46
-124,-107,87,-189,120,-174
-115,-90,85,-623,87,-282
-111,-90,88,-501,63,-383
-116,-91,94,-225,42,-271
-107,-88,95,-81,149,-174
-106,-82,87,1,120,-34
-98,-78,82,191,68,49
-90,-70,79,211,61,69
-86,-63,74,175,63,50
-81,-59,75,63,45,-17
-74,-55,76,-56,95,-102
108,-80,116,5061,-2541,-5640
101,69,-104,4288,-9619,-5654
18,119,-48,2833,-10318,-3708
-125,9,75,3285,-8737,-188
-4,54,-105,2565,-5458,1267
33,74,30,-1749,-827,779
61,14,-86,-292,-631,579
-90,12,-106,1037,-262,-585
-85,37,-11,-182,350,71
-38,89,52,184,615,32
-56,86,-104,0,671,-323
57,-3,-40,644,1303,-350
-73,122,8,1178,2265,526
89,-29,-30,-314,4322,152
-97,-71,-85,292,5728,945
-32,-11,13,-1713,6833,1944
24,16,41,-3936,7898,2992
102,-14,84,-7343,7631,3452
-67,74,-63,-3622,2456,5164
8,29,30,2208,-533,3410
66,44,33,706,-8,3286
-37,-87,21,940,-25,2595
-87,114,-15,1460,443,2901
64,-80,-66,104,-87,1497
-20,-94,-87,-1393,-444,-81
-14,82,-63,-680,-321,-600
-12,29,-55,692,118,-440
-1,12,-68,1292,212,-414
7,18,-77,754,-161,-337
4,23,-68,123,-470,-382
8,2,-56,-8,-209,-399
5,8,-57,-401,-47,-290
20,17,-64,-523,170,-59
39,35,-84,-375,188,63
53,47,-96,-9,85,79
58,63,-105,126,87,-83
71,63,-119,261,66,-121
68,67,-127,186,-98,-89
77,75,121,0,126,-68
83,77,110,-25,105,-69
91,77,104,117,115,-77
100,89,102,-44,102,-147
104,90,103,28,68,-146
109,93,103,43,62,-105
118,100,103,39,193,-143
124,100,100,203,65,40
-121,106,95,177,56,42
-122,115,88,193,49,22
-115,117,89,210,98,2
-106,119,85,190,95,-16
46,82,-30,2869,4318,-5881
107,-119,87,4397,-1155,-2316
62,-51,-74,4641,-4457,-4500
-114,118,40,2061,-7898,-4640
-83,-58,-101,2765,-10854,-4248
72,-49,-6,612,-9482,-2255
109,-90,42,928,-6582,-733
-122,-109,49,-1471,-2045,-162
-43,-33,-45,-795,-153,360
-59,31,-115,430,1171,-185
103,-40,4,-159,327,-135
-107,-66,-113,-927,1081,-337
-69,13,-117,518,1061,191
-94,-48,2,1140,3661,240
118,127,79,1309,6448,908
-127,-70,28,-1861,7899,3077
-79,11,67,-3054,6231,4830
56,-45,-51,-5523,5333,7699
24,-127,-27,-4910,777,6916
-95,118,-92,-1429,-446,4056
-60,-72,20,4270,-564,1114
-61,-41,-33,1684,439,3219
75,-6,-97,-366,1601,3285
114,-30,-128,-141,199,1107
38,-101,-124,834,-864,-905
37,68,-81,1617,-1071,-814
29,14,-54,1610,-729,-503
25,9,-57,895,-55,-209
23,18,-46,-72,-113,-344
35,2,-50,-465,-27,-416
53,9,-59,-716,-35,-558
64,6,-76,-591,-38,-484
74,11,-82,-325,5,-340
77,27,-92,-320,42,-133
83,64,-118,-630,140,-58
88,75,125,-450,82,15
102,82,118,19,134,51
112,110,104,-102,101,-29
113,119,102,-133,-12,-37
116,125,108,-76,23,-84
-124,-125,107,-120,128,-156
-126,-120,106,-81,77,-125
-121,-121,101,13,91,-124
-120,-120,98,121,84,0
-116,-118,91,248,66,91
-105,-110,85,291,66,137
-97,-103,80,247,39,46
-94,-96,79,19,63,-90
-87,-93,79,-224,55,-163
-85,-91,80,-338,79,-177
-28,84,-110,-366,4619,-4732
74,95,-27,5114,-309,-3948
121,-60,99,2970,-1781,-5073
59,-7,74,4332,-6098,-4776
17,55,-9,961,-6578,-4976
-81,-75,110,1564,-6044,-4828
26,10,-104,458,-4503,-3191
-115,94,114,1304,-2208,-1778
-43,-54,-100,-797,-1063,-816
107,-78,127,36,-50,183
40,-62,59,582,869,835
9,-109,-13,64,980,896
40,82,30,678,1980,1393
-73,78,-9,-1359,2736,3117
-13,31,-72,-1410,2570,3806
-89,42,-126,-1813,3075,5329
37,-127,82,-2006,2641,6469
-121,40,57,-2229,1904,6522
47,-103,114,-1664,780,4517
109,0,-90,2196,-532,5050
47,81,-5,5176,750,5604
-20,41,-43,3972,370,3764
-104,105,-96,697,1383,2032
65,-26,125,-2858,-138,79
-4,75,-113,-600,-1405,-2036
32,5,-60,1009,-1112,-1897
64,-2,-65,888,102,-974
47,11,-80,-312,370,-737
21,-1,-97,-594,-8,-399
46,24,-103,-891,-107,34
65,63,-112,-1462,11,-395
72,94,-97,-1543,116,-488
81,98,-76,-637,236,-271
90,107,-98,-62,212,-71
98,123,122,122,115,2
120,-108,92,74,154,-103
-128,-105,86,-116,68,-137
115,-99,93,-173,-35,-90
-125,-92,123,-77,71,-55
-119,-85,-128,19,142,-62
-118,-81,121,60,121,-61
-106,-85,104,146,124,-42
-103,-83,93,163,87,-32
-101,-79,93,166,46,-42
-94,-75,102,121,44,-28
-90,-73,107,93,87,-23
-84,-69,103,60,87,-35
-78,-69,95,20,103,-85
-77,-66,90,-91,74,-111
-75,-67,92,-101,75,-109
77,67,-41,1726,3650,-4665
-78,122,-125,4080,-573,-3299
-5,-62,-11,5813,-5713,-3580
65,-24,47,3301,-8121,-4891
-76,122,32,1253,-7857,-3879
-15,119,57,-124,-6390,-2987
-42,34,-6,247,-2887,-389
-83,-104,54,-743,-1797,-583
40,-47,-69,-1143,142,-23
-36,-15,49,877,1157,564
-3,-124,-63,179,1371,927
53,59,15,327,2211,1513
-24,40,-41,-1053,2475,2932
109,92,118,-1761,3695,4199
-18,-79,23,-1682,3606,4907
-90,-115,-34,-3193,3408,4914
-80,-114,40,-2191,1379,4703
57,-111,-102,-214,-418,4398
-65,60,-61,1750,221,3465
-90,-77,-76,5057,632,3188
39,38,-110,5414,-30,2440
-19,20,-92,1939,509,1336
-99,-16,-25,-101,233,707
-124,-15,-15,-1692,351,359
74,-104,-36,1504,-141,495
39,89,-9,4007,-700,448
42,-72,22,1196,-465,-377
56,-74,27,-1149,225,-866
60,-100,3,-1365,330,-531
53,127,-17,-404,-53,-198
69,-99,-26,-228,-41,-221
83,-71,-37,-538,27,-435
98,-64,-62,-558,111,-463
92,-49,-67,-535,-34,-279
98,-45,-80,-91,87,-77
115,-25,-94,116,170,-7
117,-9,-107,135,64,65
121,1,-118,165,72,60
-128,17,-124,131,86,-23
-122,23,-127,66,57,-42
-120,30,126,6,82,-100
-110,35,119,-21,122,-120
-108,41,112,-47,77,-70
-102,48,108,-3,88,-97
-97,56,104,-41,106,-77
-94,61,101,14,64,-28
-96,71,99,76,85,-44
-90,77,91,109,102,-96
-80,80,88,-11,46,-42
-80,85,88,31,61,-21
-106,94,47,-2471,1857,-4338
-43,-121,51,390,1257,-4678
105,7,84,2839,-2283,-4754
-55,-69,-61,3278,-3637,-5217
49,91,69,4281,-7802,-5949
-85,-81,-119,3288,-6986,-4651
33,-109,61,1556,-5816,-2609
-118,49,-110,-803,-2796,-1240
-56,123,-79,-3567,-278,-834
-95,-30,-95,997,258,923
-57,89,-108,-450,40,618
-67,108,-76,1316,105,49
-68,-104,70,-61,682,-23
-25,-112,-75,31,385,-176
4,123,-114,382,135,35
65,31,46,619,837,447
-21,-75,-43,916,3154,1129
-89,101,-22,-1044,5062,2216
103,-93,55,-3354,5154,4428
-90,3,-103,-1213,4355,7657
-55,-48,21,-4384,6875,8434
-1,-38,59,-2449,1322,3204
30,78,-39,-1381,-2483,1843
40,-36,-72,-433,-194,558
58,-14,-58,282,553,3434
-72,-78,-97,911,80,1811
87,121,-114,688,-356,357
108,117,-104,165,-99,511
86,-125,-106,2,-23,559
45,78,-100,1808,-677,147
40,61,-79,1749,-693,-598
52,62,-79,239,34,-806
60,51,-86,-940,451,-707
62,47,-92,-1016,270,-448
66,40,-104,-411,225,-345
84,58,-113,-209,145,-144
95,65,-119,178,70,74
101,78,-127,278,106,99
107,99,116,80,86,87
110,101,113,238,-44,127
125,115,113,-124,-42,-124
-125,126,120,-383,153,-196
-126,124,120,-200,126,-154
-120,-125,115,-220,153,-129
-108,-116,103,-158,162,-162
-103,-111,99,-115,108,-136
-99,-107,94,-56,81,-94
-98,-101,99,11,57,-33
-90,-94,103,46,98,-13
-86,-84,100,47,84,-46
91,25,73,2860,-3319,-5987
8,42,13,2033,-10341,-5599
-65,70,122,1121,-9526,-4273
19,113,115,-225,-6423,-2384
47,-100,-67,2459,-5851,-723
68,16,42,-1217,-1424,-715
101,-80,-117,96,-570,403
27,-74,39,1037,1242,524
41,17,18,830,2944,610
91,-42,6,109,4370,1187
48,98,87,323,5497,3524
-92,16,58,-638,5799,3973
31,37,43,-5267,5511,4321
-127,111,64,-4384,4078,5696
-49,-3,-17,718,1146,4328
-35,121,-58,10569,-287,5705
35,121,-59,3138,3057,4409
111,76,-3,-5168,5204,-637
-128,-120,-68,-1415,-209,143
45,-19,93,4224,-2835,1536
72,39,123,1852,-2234,-207
78,16,-97,-439,-212,-1634
60,-58,-107,-246,1053,-1135
43,-90,-115,637,539,-100
65,-63,-103,914,-288,389
86,-38,-93,502,-591,250
101,10,-75,-404,-684,-149
106,21,-84,-1308,-475,-841
114,16,-98,-1706,-257,-1216
116,20,-127,-1939,-47,-1247
100,46,107,-1934,17,-845
88,77,94,-1503,43,-368
84,118,94,-667,-71,252
110,-116,105,124,-29,512
120,-95,107,442,97,683
-115,-61,91,186,322,627
-103,-49,80,-159,368,376
-98,-40,72,-316,277,106
-93,-51,66,-6,205,-112
-92,-74,58,560,228,-91
-106,-77,46,532,128,-27
-75,-84,39,342,133,-88
-55,-93,48,181,-35,-33
-95,-82,57,-18,-185,119
-79,-87,67,320,28,-69
-78,-95,67,429,-2,4
-63,-91,65,48,7,-14
-68,-88,66,3,28,-13
-68,-92,65,164,59,-65
-68,-90,54,97,135,-154
101,9,3,2711,-613,-7172
85,23,-63,4439,-5520,-6041
104,-57,-83,1481,-6374,-4275
69,-95,-16,1053,-8088,-4597
-6,-49,-124,140,-8300,-3356
-28,10,1,-537,-5818,-1948
-21,70,-94,1244,-2944,160
39,69,109,-402,133,1275
37,80,-49,1285,561,10
46,-28,37,-336,616,-14
59,103,104,-669,275,-50
-75,44,-120,-510,1108,138
-71,109,-45,540,2864,809
-103,-61,47,2147,5704,1671
79,63,-107,-734,7427,4289
-57,-125,22,-2248,8629,7224
33,-123,70,-2859,7552,6820
-28,77,-55,860,3301,4176
-92,-99,-106,9983,-571,396
110,51,75,3907,197,4491
-34,72,-23,-4072,6469,-2033
40,30,52,-1047,423,-53
-10,-85,-34,916,-2534,1180
67,-35,10,-661,-1499,719
43,-23,-10,-1120,158,-373
27,-43,-48,-152,1262,286
27,-20,-62,683,262,443
47,-23,-60,1449,-410,15
56,-16,-36,1045,-589,-262
69,-19,-28,20,-552,-507
71,-28,-20,-952,-733,-448
57,-31,-20,-1131,-617,-118
53,-5,-46,-1410,-148,-31
46,-5,-68,-479,32,107
57,6,-81,261,226,145
69,40,-108,-186,344,-54
79,35,122,198,274,57
86,41,105,85,341,-123
91,54,92,-195,210,-119
105,48,91,105,73,-20
121,56,101,302,60,67
127,80,102,101,142,13
119,93,101,-156,337,-319
119,79,96,-61,293,-159
-115,84,74,-197,194,151
-100,94,63,-134,153,44
-93,110,57,-146,-23,-12
-107,-118,69,-353,-30,-205
-112,-116,87,-31,3,-379
-86,115,84,388,158,-272
42,0,-87,3770,-1306,-3752
32,62,-7,4658,-4300,-3422
47,35,-9,2253,-10397,-2914
81,-15,-35,-307,-10165,-3031
5,-6,-39,922,-7473,-2152
66,-66,87,1540,-4491,-971
-116,44,117,844,-448,-972
-32,-74,97,409,201,176
-97,81,-47,-114,771,562
46,123,106,-1113,748,495
-6,-3,-44,-310,2612,602
-68,32,28,412,4197,3353
1,108,86,-939,4934,5234
-118,20,85,-2550,4920,6706
-19,-41,-114,-4067,3501,7320
-109,-46,-61,-2307,1609,5643
79,-37,123,352,-892,4051
-113,4,121,1919,-169,2654
-88,76,113,3493,-846,659
-26,104,51,169,1533,354
116,35,41,-1839,1606,1259
59,-106,74,833,-122,553
95,56,-126,3542,-1049,1216
110,70,-119,3643,-780,1542
88,77,-112,1884,-39,170
68,91,-101,-840,542,-819
47,16,-101,-228,157,-370
48,-8,-102,673,-166,13
74,16,-93,12,-55,-514
89,-4,-99,66,269,-612
73,-16,-107,409,50,-345
82,-10,-121,304,72,-194
74,5,-126,-107,0,-43
98,9,127,-9,251,84
125,13,115,232,241,80
113,29,108,177,-10,286
114,56,118,39,-73,152
-128,55,117,351,196,-279
-120,58,114,-37,74,-303
-108,52,110,-172,72,-229
-121,50,113,172,73,-45
-121,59,102,252,217,8
-107,77,82,10,131,-3
-86,88,80,-230,115,-132
-86,87,88,1,7,-71
-94,103,95,-56,125,-125
-83,109,83,-205,252,-227
-87,106,71,-94,95,-89
-90,114,64,116,-6,-47
-79,120,62,181,-52,-170
5,-91,-53,2125,796,-5673
40,50,23,4446,-6500,-6915
2,46,23,2676,-13126,-5219
-124,-5,-79,656,-8905,-3598
-70,7,-16,-205,-6278,-1597
-113,-93,84,768,-4513,485
-22,-69,27,-943,360,-879
-58,-46,43,6,534,658
26,-113,-5,935,-195,48
114,-100,-12,175,789,-312
-61,102,7,-480,1496,394
124,47,14,-1284,3741,209
2,100,3,218,5583,1322
111,-67,-19,-1958,5592,3574
-39,96,-40,-3153,4452,4795
2,-99,-71,-1314,3426,5936
-92,87,8,-826,2796,5488
0,22,11,-2148,-412,3358
0,-98,111,-43,460,3001
-48,12,-125,1522,301,3535
-84,-26,-126,1315,345,2387
-99,-102,115,1097,591,1495
-87,-111,111,100,574,1469
123,-59,98,-1136,125,591
77,-89,108,-424,-244,-578
25,88,-114,1188,-513,-855
23,55,-111,1734,-440,-790
38,51,-85,849,-291,-495
57,66,-91,-276,271,-30
68,73,-91,-975,184,-474
75,72,-99,-864,326,-373
74,60,-122,188,196,-182
84,53,119,1009,62,-53
96,72,112,561,-24,13
107,81,101,78,178,-96
109,80,92,-37,113,-185
118,77,94,3,11,-103
115,88,95,-98,13,-29
118,94,102,125,7,23
-127,100,117,387,-16,67
-106,112,127,254,153,68
-99,118,104,-18,361,-209
-103,113,84,-112,196,-126
-100,109,70,36,166,-121
-95,106,66,149,85,-44
-88,120,62,-72,52,-1
-90,-127,68,-196,-57,44
-85,-119,83,-50,24,89
-73,-103,83,12,153,-82
-72,-95,79,-158,33,-114
-29,97,110,3329,1186,-4848
-20,112,-43,4668,-2892,-4698
-120,-16,23,3721,-11876,-5031
90,-57,91,-3397,-11049,-6359
-68,-11,-40,-59,-6837,-4589
124,57,47,1558,-4527,-1869
47,-70,106,-722,-749,295
24,32,65,542,-403,-265
-50,50,72,1617,551,-558
-107,123,-35,-158,1060,397
57,25,79,179,3227,972
-15,124,9,709,5273,2526
92,13,123,648,5368,5089
4,11,-96,240,5306,6094
-23,-68,-75,-2201,6429,6597
16,-103,-49,-3584,6851,7589
36,-28,-10,-3186,-1341,6003
-41,-80,-75,3719,-2918,514
-65,-58,-57,4756,-318,157
-25,70,41,590,3173,887
88,-42,35,329,1356,200
9,45,109,1596,-964,102
32,35,-97,1030,-1261,292
49,65,-79,-339,-333,-134
58,42,-85,-357,433,-409
73,21,-86,108,165,-366
72,23,-87,228,-136,-275
65,35,-76,209,-227,-424
77,33,-78,-85,107,-557
84,24,-91,-236,207,-485
90,16,-123,-91,192,-171
104,24,123,39,81,8
112,35,110,118,103,50
123,52,101,-10,100,-134
-126,62,104,77,87,-669
-112,73,98,325,11,-978
-91,117,109,149,48,-323
-106,-119,112,-299,-178,-535
-121,-114,-122,-244,-140,-206
-104,-121,120,125,409,-29
-89,115,98,464,257,196
-89,127,75,212,95,153
-75,125,73,148,195,-83
-73,124,69,120,60,89
-85,-119,65,-64,-103,209
-73,-102,72,-134,14,103
-62,-97,71,41,13,46
-72,-74,70,-238,-4,-192
-76,-75,77,-521,-68,-354
-70,-82,83,-309,78,-297
-56,-39,-107,1660,-1793,-4836
-68,48,-14,1564,-5699,-5614
121,-86,88,3262,-8931,-4987
-17,-20,125,-363,-6075,-4578
124,-27,-86,584,-3618,-3651
92,46,-103,-1021,-50,-870
-15,-50,-18,-287,-848,240
-17,93,0,489,-551,430
-116,-105,45,746,402,457
-54,-87,105,-1074,1500,920
5,-8,65,-1246,2159,3681
-47,99,-18,1203,2379,5499
-102,-106,97,-2574,4196,5611
-15,56,-55,-2701,3776,4655
-114,-38,14,1507,2426,4325
58,113,73,-643,1961,5272
-104,-124,121,-1088,1166,3721
123,45,-119,-1531,307,2337
-98,60,-89,3988,72,3396
-26,84,114,3301,1375,3578
41,-71,101,-35,583,1694
119,-100,80,-685,-567,-1030
101,33,-100,726,-1386,-1593
112,-9,-80,1875,-830,-383
89,-10,-87,1612,0,-89
84,-6,-80,478,-7,-496
95,-21,-76,4,-142,-419
102,-30,-74,-190,-232,-249
101,-16,-66,-241,-247,-307
112,-16,-76,-81,31,-349
118,-8,-80,-159,58,-78
112,18,-101,-409,169,0
-125,37,-127,-510,294,-141
-108,52,107,-657,259,-124
-120,73,92,-655,-62,-194
-111,58,113,397,62,18
-102,76,100,363,263,70
-106,98,90,-111,4,77
-95,109,94,-190,72,38
-80,108,94,33,191,-14
-82,118,87,91,-4,4
-79,-124,91,-228,-20,-159
-78,-120,102,-190,159,-129
-79,-124,86,67,256,-199
-77,-125,69,100,153,-146
-67,-114,63,-110,102,-174
-67,-119,62,10,32,-139
-65,-113,66,-89,58,-13
-56,-105,69,-132,111,94
-52,-82,72,-162,45,51
30,-16,69,3677,-351,-6205
-111,-60,-115,7384,-8478,-5562
31,-1,26,1269,-7631,-5023
-89,127,120,-1616,-6511,-4200
35,-29,18,765,-5200,-2046
8,7,122,-737,-3194,915
-86,-26,40,288,-162,-152
-4,18,-119,674,405,230
98,95,56,455,1028,216
-103,-90,25,276,1387,167
27,115,95,147,2511,167
-62,-90,113,170,3512,1789
75,-44,-30,-2176,4918,3584
-55,112,-1,-3941,4119,4745
26,-40,-83,-3358,2697,5971
-114,-121,-47,-1424,476,5059
6,-59,66,-1559,786,4120
59,108,-83,3098,-357,3053
120,99,-107,2970,82,2496
-42,96,-120,5179,-325,2231
-21,-63,125,-306,1199,1484
-90,101,116,-286,1124,857
103,35,125,86,338,609
81,50,-126,-303,-46,-5
63,18,-121,219,-84,-421
55,-24,-97,837,-189,-459
61,-13,-88,445,-180,-227
71,1,-83,-92,-69,-252
84,-13,-84,67,20,-431
87,-26,-92,370,39,-415
87,-21,-93,185,-47,-302
95,-18,-98,51,58,-170
102,-8,-105,-139,164,-109
106,-7,-118,95,210,6
114,-2,119,346,152,123
122,15,110,105,169,124
-128,27,107,-34,121,186
-121,42,104,5,145,128
-118,50,102,64,71,6
-109,57,101,52,117,-103
-107,60,97,19,108,-130
-104,61,90,-7,128,-130
-101,69,79,-163,135,-137
-97,71,76,-58,93,-114
-97,73,73,67,51,-94
-83,85,74,-110,69,-92
-81,91,76,-118,40,22
-85,106,78,-85,134,-53
-69,114,72,-33,181,-122
-65,118,63,-98,99,-113
-18,-124,2,356,1958,-6307
-60,-39,64,4917,2073,-6953
-2,47,-125,6509,-4742,-4547
77,44,107,3035,-10704,-5136
-7,-26,78,3576,-10502,-3202
54,27,78,-646,-7255,-516
-29,-41,52,221,-3492,-525
-51,-61,47,-125,-97,-468
-97,-49,-12,-631,798,551
-96,15,-55,544,1010,259
-38,25,116,395,1501,1191
-119,82,53,841,3658,3056
60,102,-66,-504,5379,4323
51,69,51,-3568,6576,5472
-84,107,1,-7041,4414,4886
114,123,99,522,1381,5312
-1,-128,97,7949,-501,1560
-20,-54,13,-1161,2505,3422
59,-100,30,985,2216,2392
-54,-113,61,1566,1377,2314
-91,-115,94,-393,422,2143
-124,-125,87,-1555,197,1155
102,92,113,-1221,-260,124
99,26,-125,978,-231,-344
95,28,-115,1218,-136,-76
92,52,-119,243,-31,-472
106,62,-117,-253,136,-1114
127,71,-108,-529,-73,-855
125,59,-86,-292,-419,-618
-125,113,-91,-2059,-42,-626
-118,-117,122,-2424,307,-406
-122,123,98,-662,-30,269
-117,-99,97,-154,-162,419
-104,-63,85,-440,58,111
-92,-50,75,-515,233,-328
-92,-57,76,-240,117,-242
-100,-58,85,32,-53,-98
-99,-50,101,221,74,-41
-91,-44,98,222,111,1
-82,-36,89,150,65,107
-66,-33,80,125,101,-41
-78,-36,77,64,116,-111
-69,-43,75,24,89,-27
-66,-37,76,-55,106,-61
-67,-35,75,-85,110,-144
-62,-44,74,16,88,-139
-57,-49,76,111,66,-96
-57,-47,80,141,84,-52
-56,-37,81,73,74,-3
-47,-34,79,22,110,-46
54,89,93,1349,1940,-5880
127,-23,-75,2733,-2184,-5563
100,115,-22,2029,-6497,-6855
-7,-36,-50,1684,-7444,-6102
-15,23,-58,32,-7147,-4150
117,-35,-69,-1068,-4042,-4255
76,-22,-98,720,-3338,-1703
83,96,-37,-1407,-511,-116
57,-98,66,1025,522,744
-5,-77,-83,772,390,597
-12,-56,45,1282,1502,329
106,5,-100,758,3126,2189
7,-96,-118,-771,4718,3672
-2,59,118,-3369,5226,5921
-85,15,-48,-3652,4310,7773
49,-62,-34,-3491,1870,7198
-115,77,125,298,-747,4304
-51,126,-44,6400,-1992,3708
27,-27,-101,6641,-416,4477
-17,60,-97,3121,2527,2558
41,-49,94,-3342,3509,-178
55,-116,17,-4528,792,-617
35,59,101,-769,-1566,-192
59,32,-105,1599,-1286,-190
63,42,-102,1586,-286,-739
54,32,-114,683,241,-943
52,-3,-113,605,15,-657
54,-10,-87,420,-631,-289
62,9,-69,-772,-549,-694
79,85,-57,-3609,93,-1161
97,12,-80,-820,813,43
87,35,-116,478,216,119
100,82,90,206,70,261
121,117,70,40,169,261
-125,-121,68,-373,115,-10
-120,-115,71,-337,0,-185
-123,-106,99,-407,16,-295
-117,-102,116,-549,219,-307
-103,-104,118,-208,216,-121
-111,-104,98,180,101,-30
-106,-97,84,194,77,38
-94,-90,75,288,55,70
-90,-81,66,163,52,15
-87,-75,76,-27,56,18
-77,-67,84,-98,138,-104
-81,-66,83,-214,119,-148
-83,-69,78,-232,98,-112
-69,-66,73,-180,127,-117
-67,-59,69,-189,109,-133
-59,-57,72,-117,115,-150
111,-56,15,4702,-2942,-4180
52,98,108,4172,-10580,-5087
98,-72,120,-464,-8340,-6461
-72,81,-66,-218,-7256,-4758
-19,76,101,856,-4898,-2644
125,-81,-4,-199,-820,-1556
-74,19,20,-660,2535,1059
73,-50,41,-107,4337,3452
38,11,-66,-1504,5847,5628
-16,-79,112,1713,4967,5697
118,92,115,-2493,5885,5299
-11,-35,-67,-3768,2827,6027
102,-6,102,-418,447,4913
-7,33,-119,511,-505,2400
-66,-33,-102,1681,-789,2382
86,87,-99,2790,189,2015
74,59,74,2384,2150,1323
-28,57,87,1558,861,1041
122,-15,-124,2202,-1025,89
115,-13,-45,1045,-1320,-63
-119,8,-20,-339,-590,-196
126,6,15,-1061,-464,-468
120,-6,28,-1553,38,-967
103,-40,-29,-845,627,-1176
115,-57,-82,-138,328,-423
127,-46,126,439,-155,364
-105,-10,124,254,-32,380
-102,18,107,-306,170,-7
-92,44,113,-687,-71,-124
-89,48,-104,34,-163,-399
-107,57,-80,199,12,-345
-96,63,-98,319,247,251
-94,76,118,99,151,191
-75,88,85,-176,97,-62
-75,85,78,-279,18,-330
-77,90,85,-335,-5,-152
-78,100,99,-175,86,-105
-74,114,103,-166,125,-114
-71,122,105,-102,79,-120
-66,127,101,49,95,-103
-57,125,88,179,135,-102
-52,-128,78,65,62,28
-52,-110,81,4,32,85
-51,-96,89,-24,131,-57
-42,-77,92,-339,176,-335
-40,-85,87,-489,218,-438
-53,-86,80,-423,98,-197
-44,-75,74,-228,126,-64
-42,-56,64,-217,161,-96
-40,-39,55,-261,60,-126
50,107,96,6188,5387,-2725
56,95,-51,5575,-4062,-2542
-122,-94,117,2334,-9014,-7862
101,-17,25,-913,-10670,-5477
126,6,82,-3835,-8362,-5141
14,-116,-108,752,-5535,-3658
-35,-75,11,733,-3745,-1417
-50,102,-115,-1636,-802,-280
-38,-5,50,362,1014,879
-62,-58,36,506,1813,545
10,-112,106,-474,3709,1779
-24,-117,-108,554,5543,3039
-75,-27,-90,-932,5625,4971
-51,58,41,-2099,5288,5776
-21,-127,-79,-3476,4475,6897
121,-74,-24,-2970,-1323,7210
35,39,-116,859,-2538,4207
-28,47,-59,-499,-952,1547
40,-62,113,2401,858,1446
-80,108,62,3553,1153,1077
-109,-90,108,212,109,431
115,-123,103,-703,-93,-171
86,56,121,37,-358,-814
82,31,-125,690,-296,-912
89,40,-122,328,-193,-542
103,48,-112,-268,-220,-766
108,26,-116,-373,22,-992
102,30,-120,-338,107,-465
99,39,116,-130,223,-47
108,58,111,-121,96,135
126,70,100,6,161,75
-110,84,92,70,107,33
-115,94,90,13,32,19
-115,101,90,-12,90,-15
-104,112,89,-104,133,-80
-102,118,87,-160,75,-104
-94,127,92,-276,176,-196
-93,124,94,-121,174,-132
-92,124,87,72,149,-47
-87,-124,78,247,91,-33
-78,-117,71,185,128,-46
-76,-113,69,83,59,-40
-74,-104,71,-123,113,-78
-65,-102,72,-143,135,-98
-67,-98,76,-23,58,-101
-58,-92,77,-134,157,-175
-60,-97,75,-42,133,-118
-58,-94,69,-12,89,-71
-51,-88,65,16,108,-40
-51,-82,66,40,63,-65
-85,-67,-65,2311,489,-7608
104,-2,48,4529,-5485,-9771
115,-110,-73,3905,-8787,-7497
-40,7,-85,-532,-5701,-5486
102,-53,82,-225,-3520,-3858
-55,93,-27,-1750,-608,-575
91,76,-69,267,932,1044
54,-114,-28,708,596,995
-12,0,63,1485,2004,1663
-102,115,68,759,4074,3025
102,122,-13,-752,5090,5558
27,-63,75,-3746,3612,7895
-87,47,40,-5151,1947,6876
25,47,75,-1915,-323,7553
-33,-63,3,2424,-894,5417
-103,48,-92,4977,-974,2175
31,-94,104,4083,-613,1359
14,100,112,2032,1656,1476
-31,-84,71,-1951,2815,880
114,112,71,-1248,507,573
43,59,117,572,-1570,193
62,45,-110,1659,-1511,39
60,47,-103,1313,-580,-315
49,28,-90,748,146,-627
44,22,-75,45,-107,-587
53,11,-64,-265,-200,-637
52,19,-55,-919,-101,-807
78,-2,-78,-227,462,-419
81,-10,-114,780,389,98
90,12,125,669,210,36
107,12,111,603,272,52
118,22,105,230,137,19
120,24,104,56,13,37
117,36,109,-164,-37,48
120,48,113,-132,43,63
-127,59,114,-73,96,46
-120,69,111,-48,111,-18
-115,90,106,-113,172,-402
-103,89,106,-63,266,-415
-100,95,92,-284,164,-256
-100,93,88,-48,47,-108
-92,104,87,-120,61,-96
-88,111,83,-193,115,-117
-85,119,81,-160,78,-73
-81,120,83,28,106,-19
-79,-119,80,22,129,-33
-77,-113,78,14,103,-16
-68,-106,77,-29,136,-36
-65,-99,76,-34,105,-95
-61,-98,74,-43,137,-157
-6,-98,109,-330,-745,-8582
-103,58,50,3664,-1779,-9518
92,-62,79,5011,-3825,-6950
-99,118,69,3629,-4492,-4121
-121,-1,-83,-3491,-1706,-2067
-53,90,-94,1604,-891,1247
-15,-126,22,-220,-504,849
-28,-18,-120,459,1211,602
1,-122,125,-75,2277,2095
-72,77,-119,-919,3433,4653
64,66,-68,-507,3611,4153
-22,-9,-10,-3620,4970,5710
44,5,-84,-3467,3187,5789
7,90,52,-741,-629,6277
61,12,-90,431,-2609,4489
-90,21,-109,882,-1761,3704
-93,-4,115,1031,-279,2702
35,62,112,5316,-636,1950
-33,18,107,4312,367,789
1,-92,-126,-1060,2324,1159
103,-101,88,-775,835,820
-69,82,-46,6695,-2738,186
15,-46,-41,3707,-1914,-238
48,46,16,-1475,229,-1317
86,4,-47,-4766,1524,-2042
89,-60,120,-3840,994,-1756
85,-69,113,-944,-51,-810
78,-54,-113,1693,-758,-8
89,-6,-110,1249,-651,-16
100,35,-122,-470,-133,-236
95,87,121,-2219,56,-338
99,77,121,-1364,57,-134
98,91,-127,-275,-43,65
115,127,125,18,77,31
123,-116,114,33,247,3
-128,-124,94,413,234,-10
-127,-128,79,535,114,20
-120,123,72,463,142,80
-116,122,68,308,129,83
-107,125,65,26,114,85
-104,-123,66,-128,63,89
-105,-125,73,271,-4,106
-101,-123,81,471,-13,14
-95,-114,83,97,121,-111
-90,-118,77,-48,166,-152
-84,-123,65,-163,166,-167
-82,-119,58,-246,139,-154
-81,-114,55,-236,122,-152
-71,-111,63,-29,116,-109
-72,-103,66,-35,117,-56
-60,-19,112,416,4406,-4237
-95,13,-118,4150,1069,-3990
-92,32,28,1470,-389,-4930
100,47,-69,3843,-4994,-4230
-103,-38,5,3802,-8701,-4217
45,-46,58,1530,-10476,-5129
-36,-19,-113,-2093,-7801,-4789
-64,-93,-34,1301,-3794,-3515
100,-99,5,-984,-562,-199
-82,54,9,606,1317,485
104,21,-58,642,2402,2516
-87,-70,121,-1094,3539,4311
19,-27,-62,496,4031,6890
-110,-11,-3,-2455,4399,8915
60,29,-125,-2816,2641,5892
-30,34,-29,-2296,207,6444
90,59,-103,255,-988,3569
-118,-39,-67,1682,-600,2395
35,72,-75,3118,-589,1926
9,20,96,2696,873,1827
-70,-70,83,3017,508,1552
127,-89,101,2362,-207,1146
72,91,108,1685,-292,-100
62,53,-103,575,-243,-561
73,4,-100,329,273,-462
60,-28,-101,576,253,-58
69,-7,-116,143,-6,116
82,36,-111,-862,-275,-302
100,34,-110,-1038,-158,-822
108,16,-112,-498,13,-793
98,13,-121,-41,-19,-494
88,36,-127,-97,-169,-189
100,47,124,-134,132,-90
116,68,111,-399,198,-99
124,77,99,-241,106,41
-123,91,97,-111,99,34
-119,100,94,81,145,-8
-113,110,88,138,140,-46
-110,113,87,101,141,-59
-104,116,81,33,151,-48
-101,124,78,-36,116,-80
-96,124,77,37,152,-97
-93,127,73,27,109,-73
-90,-123,71,15,95,-66
-79,-122,71,41,150,-61
-80,-114,67,0,64,-41
-73,-110,69,-16,141,-73
-70,-105,66,-40,90,-70
-69,-97,67,-95,81,-97
-63,-94,65,-133,131,-142
119,47,-67,2804,-1734,-4105
-125,11,21,1741,-7196,-4773
58,21,-87,1451,-7509,-4376
69,-113,-32,-2358,-5860,-3934
-72,102,40,-2765,-3068,-3396
-59,99,-23,1434,-2168,-1814
49,-66,107,-1376,924,-60
-44,63,97,975,1526,1026
-101,16,67,-916,1233,686
3,-86,-32,-509,2210,1403
95,-81,46,-149,2684,4734
40,-122,-31,-611,3150,5836
96,72,49,-1686,3354,6581
32,98,-27,-3448,3153,6380
-74,-74,-18,-2486,1424,5395
40,114,-57,1257,-1821,4537
-31,-39,-76,2348,-1420,2098
-17,116,-104,3283,237,3865
91,-50,26,934,2607,2220
-110,-57,31,-843,427,-519
74,105,84,-109,-1556,-1358
91,52,-107,898,-1709,-481
85,66,-107,936,-406,376
71,82,-118,425,451,-193
73,42,109,568,628,-904
94,10,106,320,234,-1119
88,-3,-122,-60,-424,-530
99,19,-107,-565,-328,-130
111,68,-105,-1688,150,-377
-123,60,-120,-558,481,-107
120,81,99,188,236,-122
-116,91,87,482,166,-30
-116,118,63,15,179,-65
-104,-118,64,-768,107,-71
-82,-110,70,-757,208,-220
-89,-94,75,-909,135,-383
-93,-84,89,-793,101,-215
-88,-69,98,-605,140,-175
-76,-55,95,-310,157,-89
-76,-47,84,-76,96,-58
-71,-39,80,19,83,-32
-67,-31,76,145,58,-61
-64,-27,77,63,68,-99
-58,-26,80,-2,114,-82
-58,-20,82,-153,108,-94
-53,-18,80,-221,152,-127
-51,-18,78,-218,137,-117
-47,-17,76,-184,110,-98
-46,-16,81,-84,126,-86
-45,-12,83,-47,114,-83
53,-96,95,2234,-863,-6216
-36,-81,25,3071,-5536,-9972
62,-52,25,927,-4342,-9338
58,-50,-17,-317,-3372,-6024
-72,58,-55,-1750,-1568,-1390
-104,-50,-58,-692,321,1906
9,-68,-71,631,458,1863
9,-73,-11,1098,2086,2387
-52,65,36,263,3925,3818
-53,68,59,-2632,4208,6654
-110,-2,25,-3446,1242,6797
40,40,111,-2135,-511,5306
-106,11,-38,449,-1916,5739
-24,125,-5,-94,-853,3221
115,-79,-11,424,-974,3271
-22,-103,-32,6013,-1865,3337
-51,-4,102,7713,-1442,2980
-29,82,71,3422,1146,1284
-103,-76,112,-3059,3052,-993
59,32,90,-2315,1264,-1649
34,-98,-74,575,-1350,-1374
59,-97,-54,2095,-1439,-257
61,-69,-42,1465,-561,23
64,-43,-37,138,267,-318
70,-65,-50,-53,357,-197
66,-55,-58,-17,-176,45
78,-33,-58,-289,-196,-276
92,-23,-58,-643,265,-475
92,-25,-86,-438,344,-175
79,-24,-116,223,58,-42
89,-13,125,281,182,-30
123,-5,120,4,115,122
112,22,119,-261,146,340
-125,29,115,113,257,119
-121,42,109,293,148,27
-105,50,109,40,137,-143
-100,57,111,-281,157,-90
-124,70,101,-317,283,-75
-104,85,89,-384,305,-149
-85,91,71,-242,234,-286
-77,104,67,-334,-3,-438
-76,93,78,139,9,-337
-66,102,82,75,-20,-346
-106,-124,110,-509,-261,-70
-90,-92,117,-909,388,36
-56,-78,87,-620,687,-190
-39,-81,56,49,267,-489
-50,-90,59,449,-241,-462
-63,-96,70,487,-106,-334
-62,-92,82,89,106,-231
114,-125,22,-3530,1431,-4086
111,119,123,1391,650,-4031
-103,-36,107,-1401,-106,-5916
-33,-118,-81,5780,-3311,-7368
104,-20,-28,1249,-4987,-8136
-69,111,-22,1671,-4947,-7210
88,40,-113,-453,-4766,-4686
-10,-3,-85,-1608,-573,-1499
-2,-17,-64,240,2269,3275
-2,-120,-75,-1153,3397,5341
106,-92,-80,-1773,3785,6763
25,20,35,-2736,2651,5366
96,-25,-6,-2202,562,6836
-47,108,-94,-1465,-1069,2882
-68,127,-102,972,-93,2989
-34,19,-65,838,-678,2687
-42,-83,-80,341,-215,2723
-28,61,-114,1133,300,2883
50,118,-114,3859,575,2828
61,124,-117,3515,126,3364
-36,-98,-91,1596,-312,2219
89,122,-101,677,-329,-298
76,-22,-81,2539,-360,-652
95,-69,-61,2156,-2,-496
89,-41,-55,60,94,-404
91,-30,-68,-1188,-71,-384
105,-47,-78,-994,-274,-682
110,-48,-74,-323,-326,-758
116,-45,-46,263,-584,-789
115,-56,-42,669,-242,-536
106,-37,-60,192,335,-196
114,-22,-99,-327,713,145
-108,-7,-126,-480,591,284
-82,23,116,-509,208,369
-101,41,121,-206,-129,203
-100,57,-117,65,15,290
-124,104,121,-299,468,103
-106,112,92,-606,585,-639
-56,90,100,-244,375,-493
-41,91,97,40,66,-160
-44,101,103,79,-29,-259
-48,109,109,-67,106,-200
-54,119,117,-119,107,-90
-69,121,110,105,313,95
-71,-118,90,32,304,-18
-55,-117,75,74,123,-45
-46,-106,79,-139,-182,-194
-46,-110,89,41,-123,-263
-37,-103,97,-164,-78,-336
-59,-95,105,-317,-106,-173
116,-76,48,-1330,-1727,-6068
-40,-119,65,1009,-2751,-8937
91,87,75,712,-2766,-9459
-52,-63,-62,3313,-3671,-6228
-78,-36,-128,541,-2249,-2215
-37,40,44,356,-129,926
24,17,65,483,1238,1695
-9,-31,22,1407,1567,2735
-96,77,107,1414,2915,6607
102,-36,-36,-70,3388,5505
53,-87,73,-1583,5026,4168
-22,53,-54,-1723,3859,3920
-41,-100,85,1176,1008,5884
20,15,111,-537,579,3782
15,-62,-24,3369,211,5097
-17,-45,-32,2739,2272,5491
-68,95,46,-355,2675,936
83,13,-29,30,-660,-611
9,-121,92,639,-2110,-228
98,125,-116,-413,-593,-771
83,73,-125,-412,425,-914
33,-16,-90,1501,-88,-222
64,-97,-79,4470,187,263
67,-111,-85,4391,106,201
41,-5,22,696,-746,303
72,38,29,-2794,-138,-129
71,6,-29,-3059,221,-249
92,-12,-106,-2079,453,-31
89,49,118,-1826,164,57
101,69,104,-1013,383,-160
107,75,80,11,400,-407
109,75,94,434,-47,-457
109,71,93,485,-82,-42
117,100,98,-166,53,-13
121,105,96,-266,89,39
-126,111,95,-116,70,43
-114,-126,93,-190,157,62
-105,-116,83,-223,226,-7
-92,-123,79,171,117,29
-110,-110,70,20,93,-23
-107,-110,72,123,144,-84
-101,-119,68,290,148,9
-91,-110,68,47,136,27
-79,-99,66,-167,176,-35
-80,-94,61,-208,174,-132
-76,-91,60,-149,118,-216
-64,-95,62,-158,161,-245
-70,-98,61,-53,68,-138
-69,-89,62,-62,88,-76
-62,-82,59,-114,143,-115
-81,49,-107,4258,-7400,-6142
-92,109,-28,-3752,-5949,-5896
42,21,87,-2900,-6079,-5483
80,-62,-62,791,-5273,-4596
-109,75,10,-610,-4672,-1968
-2,59,-22,-1589,-2438,-876
35,-23,-7,1111,407,-31
5,100,126,671,2327,1869
85,-85,-4,150,4005,2378
0,71,3,1905,4739,5335
-11,-103,62,1993,5365,5101
15,-46,-1,-3696,5384,7237
-80,118,5,-1898,2295,4848
-49,33,10,1356,640,3892
-95,7,-127,-234,-582,3847
41,-85,119,-104,387,1742
-41,-40,127,3175,547,1899
-49,-87,83,2303,775,1635
-68,-40,61,-646,826,692
-125,-78,65,-962,180,-31
101,94,99,327,-336,-303
104,60,111,1563,-248,-162
101,69,120,1150,-203,-182
106,81,-121,122,-347,-744
121,54,-118,-434,-87,-1205
121,46,-114,-735,-132,-914
111,35,-128,-352,10,-413
102,51,125,-59,35,32
119,69,116,-12,222,99
-115,85,99,107,254,163
-111,96,92,151,62,172
-104,111,93,74,98,124
-100,125,92,-101,152,0
-95,126,89,-5,171,-161
-87,127,84,-8,151,-240
-90,-126,82,-222,106,-187
-88,125,82,13,152,-164
-82,127,78,63,129,-79
-74,-119,74,-38,103,-57
-73,-115,75,52,71,-73
-68,-107,77,40,119,-60
-68,-102,78,21,108,-58
-62,-95,73,-57,135,-120
-56,-95,72,-88,140,-130
-60,-92,70,-93,117,-137
-52,-95,71,-7,161,-107
-49,-91,67,-4,146,-43
-45,-82,64,-155,109,-29
-47,-68,68,-186,138,-120
-41,-76,70,86,133,-163
-114,86,-23,-974,624,-6833
-29,100,49,3934,-953,-4989
-99,56,-76,2479,-2047,-6182
-111,1,-13,2602,-5738,-5702
-37,-107,63,-342,-5792,-6101
-29,99,40,298,-4045,-5128
-16,39,8,1668,-3338,-2909
38,17,-49,28,-1084,-680
-103,24,8,71,720,1149
-111,-70,-103,43,2660,2247
-51,13,18,-1184,3223,4467
90,-82,117,-2278,3415,4560
-83,91,36,-2489,2762,6007
1,-119,28,-1701,2053,6268
-126,-93,78,-2175,-94,6052
-31,-78,-98,-575,-349,4029
-16,62,-45,255,-450,3834
-30,-82,-76,1471,-189,2241
-60,61,-97,1215,-74,2633
-75,-20,-118,1361,98,2483
-79,-99,-122,1778,-39,2049
-122,-103,-125,1288,-164,1071
91,-120,-121,557,-164,-129
68,82,-108,353,-28,-817
66,37,-93,811,-18,-690
63,15,-98,910,-43,-416
67,21,-93,254,-46,-341
84,21,-99,-204,114,-432
91,19,-105,-238,63,-424
100,18,-113,-159,7,-373
104,21,-113,-45,66,-275
104,33,-119,-159,119,-133
111,52,124,-258,175,37
123,53,119,145,152,109
-122,81,108,-34,169,54
-113,86,102,-117,180,-27
-113,93,99,-53,110,-18
-108,96,98,138,175,-71
-107,105,92,-10,109,-70
-99,109,90,-37,135,-76
-98,114,87,-27,126,-122
-92,119,85,-79,134,-127
-84,120,83,-42,108,-128
-86,126,84,-39,92,-106
-78,-125,89,-7,145,-85
-74,-118,84,-11,141,-83
-71,-112,80,-48,130,-102
-67,-107,76,-89,152,-126
-66,-104,72,-84,134,-135
-61,-101,70,-88,138,-131
-39,-42,76,-383,4695,-3441
-97,-76,-59,3243,1582,-2478
-101,87,-119,2783,185,-2802
-124,-47,73,2442,-2624,-3350
127,-56,-69,3485,-5937,-3889
51,-30,-4,1969,-8697,-4891
-69,-115,62,-394,-6307,-3852
42,-56,-25,-1880,-5470,-3596
-98,-16,24,-542,-3493,-3339
-73,125,-86,536,-2604,-1421
91,-86,-58,-2030,-659,-186
1,83,-104,671,1181,689
61,-81,89,402,3351,1758
-45,119,37,-413,5007,3614
-58,-102,-34,-1517,4937,6373
-119,78,81,-1930,3442,8555
-100,-87,35,-3767,2370,6937
-26,88,70,-634,-56,7784
-101,-92,-66,1265,-714,3354
87,-109,-47,3151,-1504,2499
4,-105,-102,2763,1848,3918
-97,20,65,-556,3080,2534
110,3,10,-1390,584,-375
58,-112,68,271,-1715,-2187
112,76,-128,1438,-1700,-1616
80,54,-106,1648,-729,-151
41,58,-91,1373,-296,20
43,17,-67,1789,8,-582
79,-16,-91,1341,504,-958
117,-14,-78,-179,245,-861
116,-21,-94,-626,21,-460
94,-33,-99,-288,-195,-62
98,-13,-107,-216,84,134
109,17,-118,-271,247,207
120,37,126,-309,152,308
-119,58,125,-290,52,196
-116,72,124,-37,108,98
-120,87,120,-40,130,-27
-119,88,118,149,200,-124
-115,94,104,67,187,-221
-109,90,97,76,219,-243
-95,78,87,271,165,-188
-98,82,87,252,36,-105
-89,87,84,106,143,-184
-86,85,86,107,48,-63
-85,96,86,-53,83,-20
-80,105,88,-63,108,-40
-76,110,86,12,123,-36
-72,123,83,-138,61,-58
-71,-122,84,-157,118,-145
-118,-104,-112,1279,-566,-6739
39,-84,-78,3613,-6154,-7197
-77,-96,-13,705,-9664,-5359
89,-84,-86,166,-6784,-5107
120,-82,-110,2347,-4011,-2936
98,-60,60,-3617,-737,-347
-89,-93,124,118,1525,1438
110,-119,-117,-833,3508,3817
-32,90,51,-654,4131,6575
-4,67,63,-401,4846,5684
-44,115,89,-4156,4087,6967
40,-99,-13,-2436,1202,5361
-50,72,-91,1728,-455,5920
-76,97,-59,8913,-338,3234
110,45,64,6819,2711,4539
-31,-65,79,-574,3430,839
-61,-128,15,-3693,1391,-1105
118,19,76,-841,-1480,-52
-115,0,-108,1041,-1489,162
127,52,-83,592,-262,-125
124,52,-99,55,565,-547
-128,17,-116,272,161,-791
104,-11,-102,306,-647,-795
-125,-2,-98,-102,-383,-571
-98,6,-94,-558,-101,-480
-111,8,-112,-486,136,-183
121,22,-121,-220,136,41
114,41,108,-7,385,351
-101,53,96,85,461,225
-73,65,87,65,305,313
-74,95,86,-297,-73,195
-86,125,95,-841,-172,-229
-105,119,88,-491,-14,-662
-63,92,113,189,-90,-523
-79,89,111,364,-69,28
-117,119,110,-92,48,127
-91,-121,104,-261,355,181
-73,-98,88,-626,357,149
-90,-80,65,-591,132,-50
-78,-77,65,-256,203,-374
-45,-96,66,250,236,-359
-43,-106,53,340,24,-150
-66,-84,52,-276,-153,-124
-67,-76,61,-360,-26,-207
-52,-77,67,-152,71,-285
-56,-79,60,-20,47,-143
-65,-69,54,-206,17,-47
-58,-56,55,-304,117,22
-39,-53,63,-54,157,99
-39,-47,58,110,61,84
-13,69,5,1902,3967,-6748
-75,85,-3,5809,-2321,-3893
123,-17,-77,2331,-6127,-3697
39,1,-55,717,-9179,-2499
92,-23,-52,-1876,-7882,-3343
6,-19,-123,-1925,-6744,-4431
118,19,-112,1601,-4373,-3183
74,-109,-23,-962,-2189,-377
53,-10,90,-108,2581,1779
25,45,-98,-719,2726,5423
-70,26,-51,-1055,3420,5404
82,-25,3,1373,2969,5092
-8,-25,-78,-145,3687,4640
-110,-5,-92,870,4399,3976
-29,42,-83,-115,2482,4525
-17,-72,51,-536,457,2669
90,71,84,128,295,2924
68,-54,79,2403,532,2254
57,79,99,3840,327,2539
23,99,64,537,1382,955
-37,121,82,-1543,894,578
-91,98,74,-1511,200,-53
-111,70,90,28,-511,-590
-116,45,109,1062,-589,-626
-128,43,115,1179,-338,-249
120,52,115,518,-2,-216
-127,50,116,97,89,-321
-107,41,116,29,-17,-462
-105,41,118,-36,-139,-512
-109,42,123,-46,-107,-491
-101,41,120,-1,85,-395
-109,52,115,-116,51,-247
-106,60,110,-160,156,-144
-98,74,100,-173,223,-13
-88,81,89,-17,230,92
-82,102,80,-243,215,40
-73,116,74,-235,194,4
-73,120,73,-48,162,3
-60,-124,75,14,274,-104
-60,-120,70,-37,119,-72
-56,-117,70,-30,47,-98
-47,-110,72,-66,113,-196
-44,-115,68,-3,31,-176
-76,-102,67,-27,-101,-159
-120,-92,69,-23,27,-328
32,-109,96,-313,563,-90
-6,-74,68,-655,231,206
-86,-45,65,-190,-316,-330
-33,-64,89,319,302,-539
-30,-89,72,459,401,-318
121,39,-7,1213,-2455,-5284
-20,-103,-86,-189,-2466,-6083
10,-84,-99,66,-2660,-7311
15,18,25,2646,-5229,-5054
-117,110,-28,447,-3303,-3294
109,69,5,635,-2058,-688
-34,111,88,-121,1674,2672
93,-27,-18,-665,2374,2657
25,-2,-75,-924,3397,4745
-63,-39,52,-2300,3113,5812
125,7,28,-2144,2285,4645
-97,114,91,-1162,130,5818
63,-71,118,-1402,-134,4092
93,20,-88,1248,217,3407
57,-87,-109,1692,150,2680
35,87,-116,753,392,2808
-5,7,-119,673,207,1859
-53,122,-112,2693,-339,1626
-61,106,-118,2022,-206,1509
-122,117,-107,229,-370,460
107,88,-108,-56,-339,-446
95,13,-98,710,-113,-604
93,6,-104,678,123,-449
95,4,-108,321,147,-285
107,5,-124,-8,147,-165
114,9,127,-77,17,-233
127,9,124,25,-11,-312
-128,14,122,36,-51,-366
-124,19,121,-120,-7,-383
-123,21,118,-117,5,-301
-123,27,117,-19,41,-148
-113,40,116,-73,134,-79
-107,50,109,-97,154,-43
-102,59,102,79,125,53
-96,70,97,120,181,37
-92,83,85,-101,182,3
-94,92,79,-91,138,-40
-87,89,79,111,191,13
-92,100,74,69,110,66
-85,106,73,177,170,25
-66,112,73,46,129,42
-64,121,69,-30,86,-14
-65,-124,72,-173,108,-79
-65,-116,66,-261,209,-296
-64,-111,52,-524,163,-389
-54,-118,51,-332,153,-321
-48,-122,52,71,103,-185
-50,-108,46,125,58,-150
-46,-99,47,-74,28,-171
-56,-94,55,-85,-6,-92
-128,-18,44,-762,-3089,-5313
-21,57,10,-88,-5508,-7139
38,-90,-58,-224,-6860,-7414
24,-126,125,-4812,-1755,-5932
101,-93,93,4127,-3120,-2670
76,90,-104,-1541,-1091,898
-46,81,50,638,1722,3533
-102,-80,116,-207,3692,5311
67,-7,-98,-118,3109,7682
-38,-123,-87,-1576,3911,5375
41,-83,-90,-1236,1740,6197
-48,2,-119,395,-1034,4043
-95,-90,-91,664,42,2407
69,34,-107,699,-671,2436
-94,24,-105,2552,-830,1797
-51,-59,84,3221,792,2377
-63,-126,52,3128,821,1619
-64,85,62,1466,667,551
-99,92,73,-530,405,-58
119,45,83,-98,2,-267
-127,4,112,795,-206,-162
125,11,123,886,-299,60
95,22,-108,559,-478,48
90,27,-93,52,-191,-211
107,23,-97,-363,205,-446
116,9,-113,-68,423,-385
-103,4,117,212,445,-283
-112,15,104,269,96,-162
-118,30,106,144,-221,-326
-90,29,124,63,-7,-563
-86,21,124,30,147,-587
-108,31,120,-392,55,-451
124,48,120,-546,167,-153
-82,42,125,135,387,76
-10,22,114,1064,466,427
-98,87,89,176,-199,411
-88,113,103,-875,142,57
-41,105,114,-576,516,-27
-60,111,103,-111,123,114
-93,-122,102,-116,-106,98
-83,-90,102,-557,132,-176
-61,-86,98,-694,229,-380
-58,-86,87,-348,182,-569
-43,-100,76,128,107,-666
-46,-93,76,-113,-75,-460
-53,-79,78,-293,9,-302
-43,-78,74,-199,87,-300
-48,-69,67,-276,4,-35
-59,-47,60,-531,-17,97
-48,-21,60,-625,154,41
-59,-51,39,-4911,1179,-3235
-16,70,-55,1793,-1066,-10633
118,-84,-44,2285,-5086,-9087
-89,-37,-29,-535,-7341,-8747
51,-126,79,-798,-3571,-6564
-3,8,-115,1584,-2720,-2540
18,116,96,-1874,-265,-556
87,-124,-45,1352,329,1472
59,-119,-17,-338,1449,2388
-121,104,-10,233,2712,4511
113,-45,-122,-268,4188,5756
106,64,-50,377,3717,7727
-60,101,-25,-3458,740,5222
-39,22,82,-498,-63,4592
70,-5,-89,-105,231,2612
-72,8,-88,311,886,2402
-36,-121,124,1124,1211,3008
25,67,68,1896,591,2833
-12,29,54,2226,-189,2258
-116,-23,46,1763,-808,584
109,-105,75,1647,-949,-954
123,50,-115,2070,-498,-962
102,-16,-86,2026,-136,-565
63,-5,-59,955,-501,-67
70,22,-39,-548,-120,-44
88,16,-78,-924,368,-336
99,-9,-109,-29,362,-514
109,-19,-121,394,258,-238
123,-16,114,527,338,-23
-116,-16,107,540,139,-83
-99,-13,111,327,52,112
-98,22,126,-320,-218,233
-119,43,124,-695,-129,91
125,80,-124,-1227,-187,57
111,101,107,-1014,356,-16
-113,94,73,-45,742,-405
-85,83,47,711,400,-582
-68,81,47,626,-40,-420
-57,73,56,357,-11,-259
-55,73,65,94,17,-275
-91,74,70,-7,-74,-271
-93,85,88,-266,-86,-95
-68,86,96,-80,266,76
-64,91,84,372,215,229
-68,124,87,-266,130,375
-65,-119,79,-222,507,229
-55,127,54,345,407,23
-48,-124,51,319,164,-55
-48,-119,54,-25,270,-149
-37,118,46,200,345,-42
60,-41,65,-957,-2765,-4786
107,-16,-31,-374,-3378,-5125
25,-25,16,-1724,-3983,-6002
-86,-111,-17,-1853,-3292,-6332
-34,-80,-88,1121,-2682,-4382
-44,-20,88,415,-2240,-2335
77,-127,22,-1352,1108,1880
69,93,68,-359,2073,3384
-31,73,-103,-221,2679,4650
-66,-71,89,-475,3276,5007
94,-75,5,-1680,3038,4797
-71,-120,2,-2170,1478,4948
64,-109,100,-1006,861,4439
86,63,-62,1062,-393,3981
-66,13,-63,915,321,3732
84,103,-93,1319,309,2401
41,-54,-105,1552,597,2771
4,118,-98,2456,367,2602
-49,-100,-112,757,170,1217
-109,122,126,-639,-37,179
118,16,-112,-156,-404,-433
108,-18,-111,895,-27,-194
95,-12,-107,950,20,-84
110,-12,-99,658,-4,-223
116,-9,-100,181,-85,-330
120,-8,-97,-160,-132,-415
-121,-10,-96,-300,6,-456
-125,-12,-102,-46,-8,-276
-121,-7,-108,50,17,-239
-112,10,-118,-67,89,-254
-108,20,-128,-226,119,-237
-106,27,120,-113,97,-166
-91,41,117,-39,110,-202
-87,40,112,232,145,-162
-98,52,105,81,16,-112
-82,62,102,-135,232,-128
-75,67,92,-211,148,-30
-77,69,88,100,184,72
-81,81,80,111,169,188
-77,92,73,-27,171,267
-67,111,72,-159,132,295
-55,-122,71,-464,205,178
-48,-109,67,-431,137,-18
-44,-95,63,-301,40,-301
-44,-88,59,-534,68,-554
-57,-92,63,-355,-9,-519
-56,-94,63,-68,114,-478
-53,-86,58,-155,199,-326
-45,-83,47,-90,243,-195
-15,-78,40,65,181,-146
-90,115,0,-1618,-3246,-6951
83,109,-6,924,-4673,-8580
-18,64,-91,-1372,-6877,-7473
112,2,120,-782,-4970,-4295
-85,-37,-111,-2916,-1554,-779
-6,70,118,2230,1450,1441
-87,-34,-121,3368,3664,3229
48,85,18,-2320,6267,5197
-44,-37,-48,-693,5713,5270
-37,-125,39,-2891,3315,5653
-102,74,-15,-744,-643,4034
6,16,120,1074,-97,3771
-6,104,-107,-265,758,3519
41,-95,98,2590,1495,4050
55,34,67,3807,432,4702
11,10,50,1361,94,3792
-83,5,44,-1695,-462,243
118,-57,58,-1440,-388,-1217
77,88,117,1198,-119,-552
49,75,120,2195,-273,2
38,100,-125,983,-308,-76
102,101,-115,-253,453,-463
-126,72,122,6,448,-684
-119,28,108,853,-30,-832
125,-35,122,1700,-471,-1345
-103,-56,-101,590,-223,-953
-100,-52,-97,-67,63,-21
-117,-15,-96,-412,-190,264
-121,17,-99,-497,-120,215
123,58,-107,-433,78,219
-126,69,-123,-194,465,-59
-110,89,121,-139,932,-664
-66,100,92,-62,1121,-197
-68,105,78,129,368,215
-53,122,90,117,-51,269
-43,-121,82,87,130,-78
-51,117,76,189,-32,-416
-60,109,83,-54,-127,-237
-63,127,93,-383,-132,-211
-40,-126,99,-369,37,-279
-47,-120,101,-253,-5,-140
-42,-110,101,-190,149,-76
-43,-96,95,-328,229,-25
-52,-79,85,-361,259,40
-41,-64,81,-271,289,-72
-30,-65,77,31,267,-120
-30,-65,69,192,121,-187
-21,-67,73,107,219,-355
-20,-76,74,143,135,-180
-25,-69,82,125,103,-171
55,-107,87,220,-3293,-4966
40,-56,9,63,-2785,-4888
-38,103,64,612,-3677,-5504
80,104,-85,-2130,-5492,-4262
-37,-15,-83,-3724,-2234,-4007
105,-88,-73,2362,-2625,-257
-52,114,113,-571,1098,2387
41,-19,58,-502,2215,3888
-51,-54,18,1527,2747,6218
-16,123,104,899,3717,6322
45,-72,-100,-2708,3529,6935
106,-95,-24,-1896,1882,4804
96,31,66,-1849,-247,5108
-23,48,-64,1528,-1404,2087
39,8,-19,1841,-413,3828
-91,-67,-74,2589,457,3192
97,0,103,816,1202,2232
-26,-5,82,-451,87,438
-87,120,94,886,-652,-487
-128,71,113,1974,-947,-437
42,28,-83,2677,-2017,-330
80,-11,0,2267,-1579,-462
100,-1,-25,636,892,-956
-125,-22,-76,-354,2049,-1198
-73,-64,-120,-333,1575,-1128
-84,-91,-102,933,-91,-653
-92,-99,-83,1545,-833,-104
-96,-54,-72,364,-537,-224
-89,-37,-94,-1150,181,-610
-95,-18,-97,-1829,-180,-211
124,1,-94,-1144,-451,664
125,44,-74,-543,-500,1117
-88,83,-89,-304,215,869
-73,-127,-125,-392,540,24
-84,-128,117,-263,264,-519
-86,111,116,242,7,-347
-87,122,104,75,41,-462
-80,-126,88,-401,282,-611
-75,-109,66,-909,279,-685
-74,-88,84,-1037,-261,-600
-58,-97,104,-178,-94,-392
-71,-79,104,-49,77,-498
-84,-70,95,-65,150,-424
-63,-80,85,134,257,-178
-66,-87,69,480,134,62
-63,-84,63,591,67,353
-45,-74,64,308,133,443
-45,-64,66,128,70,319
-39,-67,72,373,22,188
-40,-84,74,883,4,90
-2,-68,32,1184,1170,-6225
-102,6,10,1758,-2012,-5304
-118,-78,55,2074,-5192,-5640
14,44,-108,17,-7565,-5671
-65,22,59,-1531,-5429,-5095
-14,46,6,-643,-3015,-4449
103,116,-1,-2382,-1545,-3056
-40,-22,-49,-335,305,-986
116,59,56,242,955,1613
79,48,3,-234,1837,2189
-99,-38,-41,-918,3074,2907
-27,38,114,-1067,2966,3017
55,98,68,-2565,1281,5160
117,124,-119,-1396,-87,5019
-7,40,-80,-1075,285,5189
-76,74,-22,-60,661,4399
-5,83,0,131,-21,5574
62,-90,-34,1545,-252,4644
96,-14,-59,3241,46,3465
43,-121,-71,4324,390,2645
-32,-98,-66,2518,675,1387
105,-88,-64,88,602,-486
68,73,-38,-81,-358,-743
87,12,-12,466,-362,-396
95,5,-15,475,159,-51
81,16,-28,307,115,-228
94,10,-34,145,42,-348
108,25,-44,-376,-156,-357
116,33,-49,-602,-174,-478
126,38,-53,-502,-88,-517
-123,36,-64,-199,-87,-371
-127,51,-68,-162,-80,-234
-127,67,-78,-323,4,-148
-119,87,-90,-386,83,-124
-110,102,-101,-421,134,-94
-102,118,-118,-368,102,26
-101,-126,-126,-192,71,10
-103,-115,121,-143,56,6
-95,-111,114,-81,9,102
-105,-108,110,-129,-139,263
-102,-103,115,-169,-129,-207
-86,-101,115,-65,311,-143
-83,-98,111,81,149,-19
-76,-84,101,42,111,-111
-80,-85,98,67,162,-242
-74,-94,87,-38,125,-153
-85,-89,85,-197,-15,17
-75,-76,92,-324,-36,18
-52,-60,105,-535,-122,-219
-62,-62,110,-390,41,-110
-44,-60,1,4684,-741,-6980
77,41,51,1410,-3563,-7329
-11,-57,-69,1390,-5581,-8005
-98,-105,0,-291,-3984,-4812
-14,-58,48,482,-1875,-2348
-24,-68,27,-289,-75,-288
48,114,53,297,2168,2892
-100,-107,4,-560,2805,4113
39,-29,-100,-1230,2033,7447
125,-4,27,-1706,3148,4555
-89,11,13,-1108,831,6465
104,-66,92,-661,350,4746
112,125,-79,1362,141,3632
-117,70,-86,381,658,3342
28,-105,-108,1708,296,2200
-3,13,127,2277,322,2372
-66,-63,-127,2411,-52,1476
-97,-99,-127,1003,170,841
125,115,-96,101,122,419
107,71,-88,827,-39,190
103,7,-74,2037,-92,50
93,-26,-66,1928,-64,-173
85,-32,-50,1044,-141,-141
96,-48,-46,275,112,-160
102,-29,-56,-736,155,-171
108,-17,-70,-857,108,-239
121,-29,-88,-116,153,-331
122,-28,-94,415,-41,-277
-127,-18,-97,267,-107,-265
-124,-8,-99,16,-35,-284
-124,-3,-101,-145,41,-215
-124,9,-103,-264,40,-127
-115,16,-106,64,133,27
-108,37,-120,-8,182,-39
-102,53,121,-213,195,-92
-97,52,107,17,146,-97
-94,61,103,3,80,-88
-89,68,104,41,128,-126
-87,76,102,9,121,-141
-78,79,102,-19,127,-117
-78,86,102,-5,151,-113
-76,95,96,3,159,-111
-70,101,90,-86,155,-149
-66,104,88,-14,167,-149
-64,106,82,30,131,-101
-62,119,76,-215,125,-124
-59,122,76,-74,97,-121
-51,125,75,20,108,-119
-48,-120,75,-84,87,-130
-49,-115,80,-1,120,-139
8,84,7,461,1749,-6020
-69,35,15,1980,-2815,-7394
53,-89,-2,1025,-4761,-8688
-118,51,64,1060,-5730,-6750
65,-70,-63,-191,-2969,-4543
-93,-53,-111,365,-1476,-2645
-22,105,-9,626,495,343
-95,-115,-99,544,1208,2349
-91,11,77,350,2529,4190
50,-54,-56,-281,3372,5496
-69,25,53,660,3098,6024
-19,32,-89,-1218,1183,5138
69,14,-29,-1429,1353,4192
111,-63,88,1002,1441,3989
-101,60,101,293,1284,3416
-106,-69,112,1671,1011,1937
-80,2,118,3195,880,2804
-60,68,115,4677,734,2876
-58,85,114,2005,1110,1654
-94,125,126,-1192,919,649
103,81,112,-1669,364,-127
112,26,125,95,-11,-285
107,3,-106,1195,-115,-194
85,13,-89,1155,-112,51
117,30,-84,339,346,-154
-119,15,-95,129,257,-433
78,-8,-84,497,-373,-418
78,-29,-56,701,-291,-314
-128,-27,-49,418,303,-80
127,-16,-62,295,351,8
122,-7,-63,148,-49,48
-124,38,-49,-542,-84,172
111,59,-56,-739,-76,-155
116,52,-65,-258,77,-238
-125,39,-77,436,265,-249
-120,56,-98,227,121,-303
-115,63,-109,-159,-30,-402
-106,75,-123,-682,48,-323
-104,99,119,-1103,59,-208
-104,111,103,-600,77,-159
-93,124,90,139,117,-158
-70,125,83,383,182,-143
-53,119,75,397,199,27
-28,-128,79,45,97,341
-48,-97,72,-432,237,230
-77,-71,56,-597,218,-127
-56,-78,61,-240,200,-395
-29,-91,60,44,195,-378
-38,-103,46,298,108,-377
-53,-104,52,163,-137,-171
103,124,118,6637,-5085,-5065
16,66,-104,-377,-6870,-5585
76,-97,26,-1026,-11228,-4277
17,-128,14,-5630,-10196,-2817
-68,16,87,-2006,-6248,-3339
-90,-3,-49,179,-3553,-1994
-2,29,-15,617,1766,316
63,52,105,548,5927,3313
86,-11,-110,1625,7064,5826
-37,-122,-4,2176,5981,7526
-47,-46,21,-3869,6091,8512
23,44,-116,-4158,1194,7940
-118,-128,31,104,-1865,5352
-9,-70,29,1721,-2065,751
-73,39,89,5257,1625,1741
99,95,-36,2462,2620,1354
-55,20,-19,722,771,115
-101,-97,26,1621,-1127,-408
-95,102,77,1701,-1173,-198
-87,66,100,1305,-290,-119
113,72,109,707,-115,-312
65,63,-125,715,-576,-833
88,26,-83,749,-477,-1252
123,37,-71,89,51,-1743
-120,56,-82,-528,405,-945
-125,93,-102,-729,493,-430
-99,94,-124,0,629,-417
-65,90,-123,589,314,-364
-44,80,117,549,70,-185
-78,73,101,-159,-263,131
-89,79,83,-950,-335,637
-69,-120,93,-1911,-570,277
-90,-91,95,-1502,-259,-550
-77,-101,100,-125,360,-372
-78,-94,101,632,197,-134
-87,-76,88,210,44,85
-73,-56,80,-434,257,19
-55,-52,69,-504,333,31
-65,-53,59,-151,125,102
-65,-35,60,-207,-20,99
-49,-33,63,-194,70,-2
-37,-47,62,82,98,-258
-48,-48,63,79,-25,-191
-76,-42,62,10,-125,-230
-77,-57,60,50,113,-318
-70,-70,51,32,208,-15
-40,-61,49,-190,136,290
-40,-33,46,-388,55,312
-59,-16,40,-506,121,-59
-49,-14,38,-431,217,-347
8,44,-112,2394,-2347,-5415
117,99,-118,-32,-6055,-6818
-106,-73,-117,-1824,-7202,-6259
123,24,127,-3440,-5629,-6190
-80,-79,104,-771,-2294,-3995
86,-50,-19,-657,-258,-163
63,104,26,527,1781,3177
125,-16,38,1300,2848,7282
-127,-60,115,935,3156,7964
-6,83,-33,426,3196,8286
127,-117,-84,-2869,1771,7726
-39,-126,-97,3303,-612,4004
108,-88,4,5899,-553,7157
11,-110,66,1944,2406,3849
-87,117,-32,520,-257,-1180
99,83,89,1382,-1805,-2243
-62,-11,127,2373,-554,-552
118,-3,111,1472,542,89
68,28,108,-50,468,-161
127,33,119,-637,-174,-477
-108,-1,-113,273,-779,-1297
-97,-16,-39,899,-741,-1230
-125,-16,-28,763,-154,-643
-120,6,-17,29,-272,-489
126,46,-16,-814,-325,-331
-125,43,-42,-772,169,-554
-95,47,-71,-633,270,-156
-79,94,-110,-876,194,106
-89,123,123,-804,245,-152
-81,-123,110,-336,247,-266
-65,125,111,580,113,-271
-65,110,105,1057,-7,-417
-67,100,108,599,-115,-221
-90,114,114,-327,-132,41
-82,-61,54,-149,229,-107
-16,-3,37,191,297,-559
-9,-11,31,440,412,-187
-18,5,34,79,121,32
-11,8,39,-127,149,-22
-13,0,48,53,24,-12
-19,9,48,-130,-5,-124
-17,15,47,-110,-13,-577
-4,6,44,277,16,-445
4,17,36,17,19,-504
-19,21,39,-187,-34,-448
-16,27,43,138,254,66
-17,28,36,-38,88,6
-18,27,39,40,131,-47
-17,20,41,164,240,9
-14,14,28,128,266,131
110,46,-43,303,4396,-6753
17,17,3,5883,-2602,-4343
99,-120,54,4325,-6374,-5661
-35,-111,-91,-1186,-9148,-7803
37,-98,101,82,-7249,-6169
39,-128,-24,-1747,-4478,-3730
-3,62,17,1183,-1155,-1511
126,98,120,46,158,700
12,-61,-8,-416,2671,3064
120,21,76,616,2863,5869
-106,-33,-48,140,3907,7328
-50,-112,-20,-2731,3683,7301
-128,-89,-27,-2130,2449,5629
20,-119,87,-252,173,5656
111,102,-96,778,1010,2603
125,125,-83,1361,-447,2695
126,75,115,476,740,2548
18,-10,114,1033,252,1869
-25,-44,94,1915,67,1388
-77,-62,87,1535,-259,408
-104,125,124,1171,-514,-389
-110,47,-108,1765,-497,-414
-121,17,-99,1404,-216,-192
124,31,-99,106,5,-203
-117,31,-103,-510,136,-741
-94,29,-101,-672,53,-936
-98,18,-114,-402,-257,-944
-98,8,-119,61,-386,-702
-108,19,-117,10,-378,-454
-115,41,-120,-306,-173,-246
-113,56,-125,-448,52,10
-105,78,121,-517,166,81
-89,104,100,-669,262,79
-89,126,97,-607,36,185
-86,126,104,269,240,214
-78,-116,96,342,319,137
-73,-102,85,-21,281,198
-66,-102,72,64,261,59
-50,-106,73,174,247,3
-55,-104,72,281,69,-28
-55,-97,73,86,112,-304
-46,-104,80,-15,89,-345
-56,-115,83,191,31,-332
-53,-119,90,180,91,-253
-51,-113,84,-12,181,-223
-49,-115,80,-52,159,-141
-44,-105,77,-150,157,-78
-36,-101,76,-83,209,-23
-35,-86,76,-92,133,-17
-33,-75,73,-96,136,-156
114,-123,-128,375,-4201,-5536
62,47,-90,30,-4963,-5598
-49,113,18,-3394,-4025,-5975
110,8,-63,-1575,-570,-5094
-23,65,70,2253,-1782,-2768
-68,-28,105,-694,-799,1609
-55,43,18,-526,662,4280
-82,11,-70,-361,1888,5185
112,-17,119,-1430,1394,6168
-93,44,94,-2094,1550,5218
-16,-64,-49,-513,-936,6014
-121,111,-16,1697,-1095,4720
-58,-59,-51,3584,158,3418
125,127,-43,7708,-244,3958
102,-9,65,8523,4011,4241
-81,-96,21,476,4036,1485
103,119,105,-3065,-298,-563
75,-17,-121,-2649,-2569,-1800
-92,7,127,-1824,-1372,-940
-125,1,125,-18,39,293
63,39,-109,1048,-51,236
69,56,-109,714,-208,-488
105,65,-105,-84,27,-567
118,47,-109,-149,-61,-663
114,36,-105,170,-207,-704
106,34,-94,252,-157,-650
122,29,-109,70,215,-502
119,56,-125,-680,73,-127
126,81,112,-1005,44,-105
-112,87,111,-296,213,-30
-106,103,104,43,153,-70
-103,127,96,-95,58,-88
-97,-126,102,16,98,-87
-98,-122,102,106,175,-117
-90,-111,93,-32,155,-70
-86,-106,91,-80,149,-107
-81,-102,86,-45,194,-192
-77,-106,83,47,144,-154
-75,-105,80,103,112,-128
-68,-104,82,82,128,-50
-53,-102,72,40,134,-16
-96,-85,75,-195,-90,5
-59,-80,92,-198,195,-131
-48,-90,94,158,155,-89
-61,-84,82,-9,-5,-59
-55,-64,89,-482,132,-155
-45,-72,94,-138,316,-244
-61,-76,85,225,214,-241
-31,-86,74,303,336,-229
-58,-74,57,-177,74,-17
72,-99,96,1047,3279,-5346
102,86,69,1858,-1436,-6209
121,29,-104,-631,-6621,-7833
-93,-100,-107,-1023,-4187,-8118
39,115,74,-346,-3810,-7359
103,-66,-11,716,-3382,-6193
67,25,22,487,-1962,-3307
45,110,-120,230,415,1396
40,-127,-20,438,2144,3192
-110,-108,-17,-2027,2449,6780
93,-109,113,-2910,1820,7202
-107,48,-87,-2662,1614,6327
26,-102,50,514,-1403,5590
-93,-94,63,2515,-635,4713
-124,-79,-21,4341,1231,2673
63,91,-62,3331,2160,4879
-88,-106,-104,2025,3723,5929
49,41,69,2389,1062,2309
94,-91,91,1812,-2391,78
111,-122,-94,-443,-2638,-433
-122,115,-95,-2035,-952,-878
88,86,-101,-1337,-95,-384
66,64,-91,99,-76,-35
63,61,-98,1087,-365,-101
80,70,-90,652,-378,-471
85,95,-87,-610,0,-797
92,84,-100,-1125,238,-889
107,70,-117,-755,421,-349
119,107,126,-773,586,-408
114,-109,118,-1336,-17,-579
122,-93,121,-960,-206,-333
127,-97,120,24,55,-215
-128,-82,109,136,109,-86
-114,-60,98,-278,187,197
-106,-42,111,-349,383,410
-99,-42,119,70,276,245
-94,-41,119,212,70,-22
-85,-44,111,180,5,-215
-88,-45,100,-22,-80,-320
-90,-40,93,-170,-34,-234
-87,-33,86,-284,-32,-105
-87,-25,82,-324,84,-180
-77,-17,91,-240,267,-338
-74,-26,94,3,232,-392
-78,-31,92,-22,85,-184
-77,-30,95,100,117,55
-73,-22,89,198,119,62
-60,-16,79,127,89,-19
-50,-9,85,-29,66,-143
-58,-5,102,-3,2,-374
63,-83,77,1377,3977,-5879
1,-88,101,3226,-3383,-3796
93,-124,55,2029,-4569,-6238
-60,-24,34,-2215,-3103,-7282
17,-89,-59,1787,-4726,-6199
-89,-59,52,-663,-3965,-5739
48,65,11,1026,-2581,-3998
28,125,-30,390,-1142,-871
104,50,63,58,1659,2646
-96,4,106,-422,2629,4858
89,-23,-47,-1016,3251,6481
-126,89,48,-2568,3296,6548
-41,76,59,-708,1587,6604
-108,-11,109,-1384,1099,6447
-75,61,-16,1210,-470,3587
-75,-58,-71,1310,434,3605
87,63,-86,6215,-675,4872
-116,13,123,5801,597,3812
47,-103,112,-51,1818,870
119,-106,67,-3909,1186,-1723
108,56,84,-2514,-256,-1474
95,34,117,-100,-845,-364
80,34,-116,1816,-765,397
75,66,-116,1445,-359,-76
89,72,-116,462,50,-689
109,37,-103,265,-86,-961
95,-1,-92,839,-387,-958
93,-13,-75,553,-444,-758
91,11,-76,-501,-1,-294
98,24,-95,-725,260,-37
112,32,-119,-324,319,-20
127,47,124,-77,309,86
-120,70,110,-197,266,57
-115,91,100,-275,210,34
-106,102,100,-209,216,7
-100,110,96,-34,209,-122
-90,114,92,111,148,-230
-90,114,86,83,85,-228
-92,117,90,47,44,-224
-87,118,94,74,116,-206
-84,122,95,75,92,-191
-83,125,95,51,99,-164
-76,-127,96,37,161,-124
-74,-126,94,182,166,-70
-69,-116,87,10,156,-87
-59,-113,86,-64,223,-104
-64,-110,81,-11,155,-81
-52,-103,81,-28,193,-110
-53,-100,78,-4,172,-121
-48,-94,75,-51,116,-156
-58,13,-47,2074,-3863,-3883
-75,95,87,2039,-5781,-3964
54,72,31,1930,-6700,-3653
19,68,109,25,-5477,-4158
-34,-44,-120,-242,-4605,-3878
110,-56,22,1175,-2775,-3237
-86,5,-14,-1521,-646,-651
54,123,-116,569,369,991
-57,-103,-97,311,531,652
-90,-93,-13,449,523,447
-19,-116,73,692,1139,533
-72,100,-79,631,3459,2745
-108,-8,-116,149,4810,4649
117,-21,-94,-2370,5582,6009
-50,64,-42,-2695,3957,8448
93,-34,2,-2470,2188,7607
-102,50,-66,194,342,4209
30,126,-80,-282,277,3871
-99,-101,-52,2283,-893,3381
71,18,-109,494,424,2682
110,67,62,-709,457,-445
29,-53,106,367,-763,-2187
59,65,-103,1989,-688,-1808
72,47,-109,1631,-169,-819
20,79,-76,73,-502,-335
36,58,-78,-311,-50,-877
60,14,-80,198,246,-910
67,42,-99,-646,295,-310
70,58,-113,-536,67,-92
87,54,-116,200,56,-48
92,75,-117,150,126,25
97,85,-128,182,146,98
113,91,118,288,242,79
119,106,106,-22,194,38
127,119,99,-240,135,-260
-122,111,105,-54,111,-187
-123,117,104,-92,145,-191
-122,124,102,-78,145,-182
-112,126,100,31,190,-203
-110,-127,92,31,134,-210
-103,-124,86,-24,140,-216
-92,125,87,172,173,-128
-92,-124,82,-2,26,50
-95,-101,90,-126,104,72
-84,-94,94,66,185,-89
-78,-91,87,31,189,-236
-68,-96,88,-58,132,-195
-74,-94,91,11,231,-231
-65,-98,81,-52,265,-227
-62,-92,80,-289,273,15
101,-25,-30,79,-3713,-4380
53,127,100,-1477,-2257,-6074
-99,-7,-111,-1069,-3878,-6259
0,106,-69,-1117,-4275,-6662
-95,-125,86,-715,-4171,-7015
-106,-76,-5,1101,-2859,-4419
-11,-80,88,-1142,-442,-1629
31,82,17,69,620,944
-102,16,-128,989,1486,2592
8,-36,47,493,2214,4150
-81,69,-5,1164,2871,4094
90,48,55,526,2687,4249
-45,-85,-2,-284,2850,3833
46,80,-48,-2214,2428,3112
72,32,88,80,1392,3312
-124,1,125,459,636,3910
-7,58,-93,-115,612,3393
-62,-119,-107,1693,329,2741
-51,51,-120,2192,286,1973
104,109,-105,3416,-783,1191
121,10,-95,3000,205,1487
-95,22,-93,930,1561,1441
-125,74,-107,-1925,1050,712
75,65,-115,-1340,-369,444
67,49,-82,62,-992,-112
75,49,-82,375,-123,-852
85,37,-102,158,675,-1116
98,3,123,243,677,-886
91,-7,116,558,57,-406
89,3,120,317,-284,-161
109,31,-125,-378,-204,-249
107,45,-110,-802,-69,-313
111,58,-112,-708,174,-174
120,53,-119,319,193,12
126,68,124,480,174,82
-123,90,108,19,245,-37
-110,95,94,-188,284,-110
-112,91,92,35,120,-26
-103,97,92,115,205,-61
-95,110,85,3,157,-121
-97,105,84,152,77,-72
-96,121,92,10,73,-131
-84,120,97,45,232,-157
-82,125,86,-76,174,-185
-77,127,81,-48,114,-179
-74,-128,82,-11,177,-223
-74,-124,80,-28,133,-188
-64,-124,80,57,173,-140
-64,-116,77,-33,133,-138
-60,-113,78,-3,131,-128
-94,127,-16,-1272,-1134,-5789
-26,117,7,-871,-2410,-7350
126,105,75,-280,-2631,-8737
-96,-19,-122,-160,-2459,-7028
-116,-116,4,1610,-2736,-4695
-105,-13,-39,-183,-582,-583
-17,78,-32,678,898,2317
41,13,36,-104,2241,3260
-123,73,-74,476,2035,4852
74,-45,105,387,2551,4711
25,-34,65,-1483,3106,5455
124,54,104,-109,1628,5068
78,-71,-116,27,681,4715
-124,65,-73,1781,602,3889
74,53,-90,4361,288,3385
73,61,-76,4873,511,4125
-96,-108,-72,722,1999,2772
-24,-34,41,-2548,1812,523
87,-122,47,-1459,-671,-950
103,49,107,531,-1034,-1203
111,2,-110,1668,-573,-602
85,20,-105,1107,-157,-57
77,37,-91,307,7,-72
98,22,-95,241,103,-248
104,22,-95,244,-116,-334
110,25,-88,20,-247,-515
113,10,-86,217,-23,-516
110,10,-96,54,13,-399
112,17,-104,-189,91,-164
110,29,-111,-255,102,30
127,44,-121,-21,235,52
-117,61,124,-132,244,26
-113,74,109,-183,208,-70
-110,86,104,-159,149,-71
-106,92,102,7,209,-122
-108,99,91,3,204,-159
-94,102,83,-2,180,-181
-81,100,82,96,103,-139
-89,111,85,74,74,-157
-80,115,89,10,120,-166
-78,122,92,-59,126,-144
-74,-126,96,-22,169,-177
-70,-124,90,52,195,-225
-67,-122,86,-21,122,-154
-67,-115,84,-80,176,-153
-56,-113,83,-30,235,-142
-59,-100,71,-177,138,-105
-56,-97,73,-8,189,-197
-42,-96,70,37,177,-195
-44,-96,66,96,92,-183
-82,67,-102,968,-3946,-4395
126,33,58,527,-4836,-5276
-48,-90,117,-2540,-4514,-6162
32,47,36,-1612,-3898,-5885
-59,-8,17,1490,-4379,-3007
-50,-31,116,-998,-1929,-1828
21,-1,-128,264,418,708
1,126,15,1271,2461,2226
63,-119,30,-251,3392,3375
-28,51,-101,924,4275,4345
-98,123,45,550,3688,5045
100,-119,-85,-2040,3603,5662
77,36,-53,-1542,1920,5231
-35,22,51,361,849,4780
-11,61,101,2686,416,2915
-32,-69,84,4321,111,3332
62,-46,30,1505,227,1121
-69,-101,43,118,230,-127
126,84,74,-209,53,-718
112,19,114,1143,-493,-470
97,4,-107,1514,-621,-202
105,2,-87,873,-125,-449
-127,-18,-89,451,363,-573
110,-36,-95,354,156,-397
103,-10,-98,-472,-132,196
125,22,-97,-761,90,13
-118,18,-121,-182,348,-551
-108,16,125,-105,187,-555
-116,19,114,-45,39,-244
-116,28,104,-38,125,-145
-109,46,111,-104,136,66
-92,56,105,100,140,-57
-85,77,101,-27,121,-208
-89,77,101,-52,133,-210
-93,76,92,-50,222,-160
-82,80,87,-100,229,175
-73,113,85,-199,125,108
-60,116,81,140,137,-385
-62,106,84,111,92,-532
-74,97,84,71,130,-19
-62,119,72,-258,222,122
-50,-123,71,-322,201,57
-48,-112,73,-219,81,-35
-45,-118,85,209,100,-288
-52,126,79,242,185,-301
-56,-122,72,-208,81,-144
-44,-116,75,-162,227,-63
-43,-115,68,135,153,-123
-41,-102,64,-145,160,-8
-33,-89,66,-110,115,-57
-90,70,-4,-1563,-7146,-6251
82,-117,-49,-244,-5761,-5472
91,36,124,-2227,-5485,-5448
10,77,-115,-261,-3955,-4794
120,-9,-92,548,-2838,-2609
-70,67,-97,505,-246,163
29,50,77,2074,2105,3635
-127,1,111,2070,3229,5621
-107,42,84,186,5471,5841
-64,-120,-115,-2280,6494,7932
-65,-43,-101,-1798,3913,6958
56,-63,-12,280,-1946,5602
28,-43,-55,3036,-909,649
120,122,-111,2274,-232,1838
-60,108,71,4540,322,2049
-50,63,86,3492,802,1150
-49,19,76,1932,1729,297
-124,12,99,101,713,81
98,-12,-112,-374,-843,41
112,-41,-91,359,-840,203
88,-13,-67,571,-587,242
98,34,-81,-916,190,-610
119,57,-85,-1783,178,-926
115,27,-106,-1095,134,-1213
-127,31,-118,-748,185,-995
124,49,116,-576,31,-505
120,84,102,-628,-38,-137
-122,110,100,-599,104,22
-110,117,99,208,227,43
-106,-118,88,86,155,2
-103,-111,90,27,56,99
-95,-92,100,-146,119,148
-87,-74,100,-359,272,-71
-64,-69,95,-497,292,-289
-71,-54,90,-687,147,-437
-73,-57,93,-437,178,-516
-71,-58,91,-197,223,-411
-71,-53,81,-131,182,-214
-69,-43,83,-194,90,-101
-61,-24,89,-385,186,-117
-52,-21,99,-19,164,-141
-51,-14,96,-32,134,-146
-47,-15,93,29,180,-174
-48,-15,89,4,130,-140
-44,-14,88,-16,151,-139
-39,-12,91,-15,144,-154
-38,-12,91,-11,153,-149
-38,-13,93,5,135,-91
-36,-8,92,10,134,-94
-32,-6,90,-43,156,-146
47,108,46,1492,3223,-6655
65,64,106,3660,-3051,-3894
50,111,108,493,-8289,-7499
112,-22,-75,1183,-10286,-7354
-1,-45,39,-2430,-4742,-4773
20,-87,-31,881,-3461,-3498
101,36,11,-614,-552,-365
110,-29,-32,1280,2293,2397
63,-21,-34,620,3552,4088
-18,19,127,-300,4539,6213
-14,32,-61,-843,5094,5210
101,85,95,-1436,3702,6098
106,6,-64,-456,2577,4003
-113,21,75,2579,1531,3909
-86,-35,98,1313,1192,3013
24,-83,121,3552,209,2490
56,110,102,2490,1151,2825
12,-127,101,-56,1171,1532
-85,113,85,-1498,313,82
-125,20,109,652,-668,-518
119,-16,-117,1661,-726,-269
94,5,-107,799,-273,-176
100,36,-97,-404,110,-350
124,32,-100,-592,244,-556
-121,26,-106,-283,-29,-617
-117,17,-102,251,-176,-669
-113,18,-104,202,-48,-549
-120,31,-116,-178,22,-467
-119,29,-117,-103,69,-258
-111,34,126,41,264,-94
-103,65,114,-317,182,-65
-94,76,113,-223,138,-27
-88,85,110,58,177,-82
-90,91,108,177,147,-80
-86,97,105,123,180,-123
-75,112,94,-244,190,-176
-73,119,87,-428,86,-148
-74,115,95,55,102,-88
-67,122,92,180,177,-105
-64,-124,87,-45,97,-88
-57,-127,91,125,125,-80
-56,-121,88,74,176,-84
-58,-112,86,-34,155,-104
-48,-110,84,-14,197,-110
-46,-108,79,-28,160,-123
-46,-102,78,-59,142,-124
-41,-100,77,26,176,-140
-38,-94,73,-97,130,-170
-39,-91,74,-100,130,-193
-31,-93,76,55,158,-186
-30,96,28,-989,-3008,-6090
-85,-99,-36,-570,-6219,-7190
80,-6,-115,-973,-5948,-7546
-32,-38,-86,-19,-3722,-6154
-63,-78,3,582,-2869,-3887
-94,-74,-75,292,-51,31
-57,23,33,-700,2042,3518
52,11,-84,805,1955,4174
-72,96,-119,39,1875,6329
-68,-81,48,-2071,2552,5699
100,-103,69,-1541,1585,5862
-42,-108,-93,1051,360,4384
-107,-102,-39,2041,306,4380
94,-80,-113,3731,732,3129
91,51,107,3370,1016,3033
79,-23,53,6475,1488,2846
30,-9,53,4023,1235,1832
-85,8,-104,442,5,695
104,23,-79,-2643,-322,-415
102,-6,-114,-2446,-94,-592
93,-16,-123,-606,48,63
69,37,-105,240,-419,47
93,65,-110,-421,-120,-876
112,61,-110,-515,-5,-951
118,46,-119,-458,13,-1232
116,24,-121,281,-97,-720
110,31,126,503,-57,-354
-78,-104,75,131,175,-244
-71,-110,76,85,182,-180
-75,-108,76,33,146,-76
-68,-101,76,18,210,-89
-62,-92,73,-84,160,-140
-58,-91,74,18,126,-202
-59,-89,75,70,114,-255
-57,-89,75,-45,155,-220
-54,-87,73,-95,151,-170
-50,-78,69,-156,135,-160
-42,-75,73,-5,206,-208
-46,-68,71,-41,104,-200
-41,-66,74,-68,133,-202
-41,-66,73,-31,103,-186
-38,-61,72,-61,146,-183
-38,-58,71,-137,123,-140
-37,-56,74,-18,103,-92
-33,-53,74,120,155,-99
-15,-12,52,-120,169,-192
-17,-25,56,-34,198,-152
-19,-23,55,-32,166,-126
-16,-23,55,9,136,-158
-14,-19,54,-36,150,-145
-125,12,34,-2258,2346,-3496
105,118,43,721,-472,-3776
117,60,6,199,-588,-4944
26,114,-119,2482,-5349,-4675
-74,109,-19,-1803,-5240,-6600
78,-22,-98,411,-5368,-6632
-50,101,98,-1060,-4132,-5800
18,23,69,620,-3372,-4057
-3,17,51,-150,-1584,-1002
82,-74,-57,1126,1339,2035
53,-111,37,-76,3181,4623
-48,-120,-23,-34,3892,6858
-7,-14,50,-622,4523,4861
-73,20,-72,-2982,2523,7049
30,-25,78,-526,-90,5009
107,-128,-93,1326,322,3760
113,-29,-109,1214,411,3178
45,87,99,2391,269,2526
23,-119,50,4526,250,2391
23,77,48,4985,379,1654
-30,125,52,1790,1029,-851
-93,-123,87,-2304,825,-1894
125,65,-114,-1321,-806,-1175
123,74,-86,-441,-1039,-179
126,116,-103,-706,-373,548
122,119,-128,-903,-251,456
119,-117,120,-957,-170,-1054
-118,113,120,-110,550,-915
-126,97,111,514,154,-347
121,103,96,406,-238,-73
-124,-127,99,-419,-55,-65
-117,-124,107,-338,186,-109
-110,124,106,269,178,38
-104,-124,101,401,168,86
-96,-110,94,163,183,34
-88,-111,89,129,228,-74
-88,-112,85,114,186,-75
-80,-115,84,108,243,-89
-80,-115,81,151,215,-59
-76,-117,82,162,178,-69
-73,-112,82,127,163,-42
-71,-112,80,151,192,-76
-65,-108,79,63,195,-126
-58,-112,81,131,177,-111
-60,-109,80,164,161,-114
-51,-105,81,61,191,-177
-42,-108,82,12,167,-123
-52,-100,82,-24,151,-114
-41,-99,84,103,272,-158
-29,-102,81,216,170,-116
-81,8,-28,-1115,2865,-4372
-122,-114,-69,1821,-2144,-3872
-29,114,103,777,-3743,-5512
-5,-102,56,1742,-7332,-5178
-30,20,56,-1202,-5831,-5922
-34,42,48,-1219,-5535,-5285
27,-104,43,375,-4697,-3864
76,-22,26,61,-2722,-2627
29,-31,34,-512,532,637
15,-109,-115,721,3317,2428
109,-14,69,-1254,4164,4083
44,-82,54,-1637,4187,4315
-70,-72,-37,-2760,3228,5605
72,-59,32,-1682,1106,4999
-73,-44,-107,-528,1195,4668
4,-78,-48,-174,821,3506
-9,-18,-23,2810,574,672
-30,-49,-87,250,675,2343
0,-97,-102,70,1125,1369
-18,34,-106,682,594,1364
-19,-18,-104,1543,220,1467
-30,-32,-88,1179,95,802
-65,-56,-77,725,150,188
-75,-94,-67,776,50,-205
-87,-121,-53,614,-74,-291
-80,120,-45,252,153,-409
-82,110,-45,183,-2,-411
-79,97,-46,273,-13,-338
-72,102,-46,37,1,-351
-69,100,-48,43,141,-313
-67,97,-51,169,165,-95
-63,107,-60,83,179,11
-56,119,-68,-114,201,6
-52,125,-74,4,229,-21
-44,-123,-74,28,302,-26
-44,-116,-81,-19,211,-14
-44,-108,-85,-38,166,3
-39,-108,-87,79,224,-18
-38,-102,-91,80,200,-34
-34,-98,-95,71,172,-92
-33,-93,-96,10,137,-146
-28,-97,-93,99,177,-142
-35,-90,-94,9,116,-137
-26,-88,-96,15,163,-144
-23,-82,-97,-11,120,-161
-24,-77,-99,-14,113,-176
-21,-74,-97,-34,172,-217
-20,-72,-98,22,156,-168
-19,-68,-103,-19,142,-183
-18,-66,-104,-30,148,-195
-86,-108,-75,1501,-4370,-5825
49,18,122,-2169,-4482,-6374
-31,-107,-1,-1645,-3153,-6193
19,98,23,1302,-2262,-4917
18,-111,10,-368,-792,-1527
-32,-60,76,-662,1513,1608
39,18,22,-794,1984,4858
38,42,119,-2046,2276,5464
31,25,78,-1278,2149,4908
-98,-28,98,-336,-608,5209
-66,-18,-94,266,-478,4341
124,100,-58,-40,620,2595
-29,11,-57,-317,105,3158
-68,-128,-90,1388,-510,3055
-52,3,-118,2170,-626,2874
59,-121,-124,3730,-45,3182
56,-88,125,1720,543,2519
-20,-47,104,-106,852,1418
104,-49,63,-1118,281,-409
92,112,109,469,-321,-882
101,63,-127,1377,-105,-676
102,58,114,1031,236,-444
94,72,112,215,-14,-334
88,63,122,139,-238,-545
99,43,-118,122,-147,-856
114,32,-115,8,102,-677
110,30,126,-48,138,-308
109,49,115,-233,-6,10
-125,64,111,-239,105,1
-116,84,108,-232,62,-99
-117,97,104,-158,-18,-288
126,100,109,-27,-12,-341
-124,100,110,23,134,-272
-124,105,104,29,157,-118
-111,113,99,-124,262,45
-111,-127,87,-276,302,177
-102,-112,74,-152,386,171
-86,-101,62,-111,316,103
-62,-96,54,61,253,-96
-55,-92,55,39,129,-205
-54,-93,59,75,52,-268
-52,-95,74,317,-80,-457
-56,-106,86,566,-103,-646
-80,-125,77,533,100,-609
-110,121,61,108,6,-167
-91,-108,78,-574,186,146
-68,-108,81,-109,474,91
-40,-107,79,322,334,196
-9,-90,66,16,332,136
-30,-75,55,-215,67,-3
