AccX,AccY,AccZ,GyroX,GyroY,GyroZ
37,77,48,1935,-337,-6563
127,-6,-90,2181,-1798,-7126
-116,68,90,1989,-2879,-6107
58,118,70,-1836,-3509,-4269
-73,50,-78,-906,-1630,-1073
-87,-95,116,1161,868,2717
-83,114,-119,-139,3854,5671
-95,-112,20,1151,4061,7292
-1,-42,75,-198,1709,1491
-35,-63,-10,171,-4449,-5415
52,77,65,-2260,-2521,-6788
56,-80,-18,-1726,-1291,-3966
127,-66,-40,-606,1946,1529
49,-39,-31,-731,3935,6278
-46,-58,123,3332,4947,4752
-37,17,122,-131,1340,-2222
58,-97,114,274,325,-5747
-119,-126,49,-1703,-2340,-6800
106,-119,-77,-1063,-4110,-6744
5,-127,127,-386,-4265,-4873
0,-12,-77,2331,-3661,-1632
26,-83,87,1706,-1509,-1117
-63,78,-123,1981,927,-971
75,116,98,2125,2307,149
52,29,-66,617,512,3477
-113,66,95,94,1102,5609
-117,-31,58,41,851,8339
46,-22,83,-4546,680,4369
-123,50,75,-1001,-2995,586
-22,97,24,3071,646,-1290
83,-81,17,251,-934,-430
-104,-100,107,-1007,149,259
-63,-12,-37,-1954,-561,588
-15,-50,-86,-2558,-1026,1305
-68,-67,-33,-1813,-2149,1887
116,-123,-20,-1298,-2163,2314
-82,-54,31,260,-1294,3469
26,74,11,-1241,318,2251
106,-95,17,-519,-119,3666
88,23,9,1038,-2618,4258
-69,-46,-72,1755,-626,3777
21,-75,-4,1836,-1173,3101
-52,-120,-45,2663,-745,1620
87,29,-89,2280,-243,337
27,-42,107,2112,-354,-576
38,91,74,1188,428,-946
83,-15,49,840,847,-944
72,-41,54,182,-25,-889
106,-98,61,-527,-275,-597
104,-106,55,-226,-319,-748
-2,103,67,6713,-1859,-3698
85,-125,94,519,1266,-7675
-23,-17,32,2098,-2591,-7831
-99,-63,-120,716,-3187,-7304
92,46,126,728,-4560,-5637
-89,-50,-58,-1689,-2489,-2622
-87,-95,95,1375,-1326,1554
4,3,74,-7,2513,4178
-69,-56,47,349,4518,6606
14,-22,-61,2411,2691,5937
-6,-75,-73,-2267,-1837,-2697
-83,115,53,40,-3331,-6276
-33,-69,-76,-2791,-2673,-4894
-73,-58,86,443,-1637,-1772
94,97,-91,-588,2836,4205
-114,-29,-77,-528,5841,6200
41,111,-99,2799,3211,2483
-21,18,-8,443,796,-3960
-57,-91,85,-327,293,-5587
-1,94,43,-265,-1784,-5857
44,89,-12,-2902,-2789,-5485
0,35,13,-1254,-2468,-4578
-67,-45,-118,1408,-2822,-3152
46,-112,61,1344,-2697,-1247
-31,-124,14,2571,-435,-312
85,-48,-99,2564,2372,1358
110,64,-2,-724,1975,3938
92,125,-88,-1586,252,5426
-101,126,-57,-520,302,7151
25,110,-14,-5181,-2434,5860
-21,-115,-85,-3875,-1273,908
38,-14,115,4104,-78,-1198
-52,-41,89,861,-149,-841
-111,32,-2,-886,-162,-245
-60,123,-121,-136,68,-272
-81,19,64,44,-1295,230
-83,-105,29,-202,-1484,1383
-73,-65,-20,-718,-660,2010
-79,63,-34,-1194,-572,2372
-66,-94,-55,496,-874,2829
37,-91,-80,2398,513,2695
0,0,-13,1349,1194,2687
79,-35,127,2327,2376,3113
39,122,37,520,-435,3134
-36,33,118,-666,596,2243
-72,-64,-100,638,1094,2482
-119,-62,-51,1528,384,2151
109,-10,-63,174,894,749
72,-67,-116,-116,-23,-4
43,71,107,117,-538,-258
-66,-68,32,5986,293,-3936
-63,11,79,4589,150,-6093
41,-15,13,404,-3387,-7082
-26,86,-77,1918,-3928,-6745
-70,-127,-30,1116,-4189,-4266
21,107,-86,-1842,-4139,-2326
-65,104,20,110,-1870,-332
70,81,14,1644,1775,3663
-92,-19,67,-1031,4431,5680
29,-49,99,3387,3132,5853
-11,5,-17,-755,-1199,-2596
107,82,62,-1467,-4669,-5988
57,-100,-81,-2610,-3315,-4443
-43,35,-95,512,-2080,-1470
39,117,-48,141,2706,4258
74,46,35,-25,4941,6019
87,-95,-91,2847,4039,2994
-118,-94,-89,644,580,-3292
-57,113,63,740,231,-5703
52,84,110,-2578,-2380,-7201
-17,22,112,-3667,-2709,-6668
90,-15,44,-3840,-3499,-5961
94,-16,75,-231,-3436,-3075
-51,93,-11,1964,-1955,439
-113,97,55,1652,414,1272
125,34,116,1642,889,2786
17,-127,-100,1027,1368,3548
66,78,-117,-2317,1854,3785
62,63,10,-1499,-329,6292
54,78,-68,-5539,-2704,7084
-97,-111,-89,-2199,-2112,2848
110,-114,-17,3790,363,-2130
-88,-74,26,177,-794,-16
-92,62,106,118,409,-760
-102,-45,21,859,-202,-897
-23,66,-106,1289,-360,-831
-16,-60,40,855,-1352,-16
-73,-88,82,-712,-1055,1488
-65,1,0,-1863,330,2171
-89,124,-24,-475,-186,1992
-37,-83,-15,1228,-1538,2628
-24,106,-32,1988,1242,2676
-71,121,8,-374,-172,3865
68,5,75,165,245,3617
59,-14,88,2097,1257,3662
6,27,-123,980,377,3190
-65,19,125,80,138,2428
98,-18,-108,330,97,1661
42,-17,-114,102,60,259
39,121,-126,896,317,-619
-14,-122,-91,4296,660,-6457
33,-128,30,1975,-2867,-7665
-82,127,-124,786,-3736,-6991
-124,-21,-62,317,-4301,-4657
48,-57,69,-1782,-2380,-2390
80,60,-58,1696,1284,2692
-108,-38,127,-1485,4469,6474
-115,-98,109,785,3865,8328
10,-15,-45,-1231,-1307,-1857
72,69,-120,1869,-3712,-5461
-127,86,-84,-3231,-3255,-6027
-27,-71,54,663,-1859,-2439
82,67,66,140,1134,3384
-8,-6,0,-1277,4427,7147
8,-35,-105,3279,3690,4718
34,-56,-52,573,919,-3388
-50,125,-115,632,474,-6394
66,25,51,-1004,-2370,-6997
-52,-113,-48,-862,-2976,-5756
30,-14,39,-3387,-2601,-3909
-3,16,119,1508,-2782,-2188
-1,1,108,2340,-2292,-1013
-72,-55,43,1450,415,-889
50,-106,8,2399,2058,1100
126,-38,56,-90,2429,3675
-122,44,11,-1370,1644,5594
-97,11,50,-4459,1804,6259
-4,-33,-7,-5047,-1720,7335
-39,-77,53,-4927,-3436,1779
69,-33,-44,4256,510,-725
-72,-13,104,835,-64,-1243
-126,-9,36,97,-405,-196
-79,-121,-67,291,222,-333
-33,-24,23,-41,63,-7
-34,-54,44,-653,-1694,858
-35,-31,-6,-1288,-908,1281
-70,-15,-32,94,-26,2039
-67,-95,4,-657,-14,2478
-69,-99,-27,815,40,2801
-21,-105,-117,-2451,2296,1412
113,7,-101,4307,4687,3758
62,26,27,2353,-165,5023
-50,38,122,-960,-1559,4423
-5,-93,127,732,-2,2687
-59,14,-57,-322,508,2336
120,-20,-70,1,-393,1330
75,-100,-84,619,190,257
30,84,-127,-119,367,-533
28,-6,121,-480,65,-701
56,-46,106,-844,-9,-863
100,67,124,1403,1310,-7630
-117,111,116,4840,-1527,-8125
-47,107,-84,2625,-3317,-7709
20,-34,-60,146,-4544,-4373
35,7,97,90,-2971,-938
-34,39,45,1134,1629,5265
16,81,101,-1726,5349,6941
80,86,55,2078,2618,6990
-53,16,-25,1583,-2577,-3500
90,51,-84,-2097,-4879,-7393
99,-53,-118,-3204,-3153,-5845
-70,-56,-122,88,-1474,-1583
-124,-109,-66,-294,2991,6157
124,-111,-66,691,5048,6839
60,-10,97,1065,2645,1311
-120,127,35,1546,-83,-4581
-38,-128,96,-1451,-457,-6109
-105,75,-59,-1398,-2772,-6802
-72,120,10,-2399,-2607,-5988
3,2,54,-2306,-2405,-3946
-84,16,-97,2741,-2544,-1945
-54,69,102,2824,-2277,-895
-77,-15,100,157,86,-338
-103,63,36,1127,3823,1531
-85,-92,45,496,1685,4595
34,-64,-59,-2159,1355,5782
-2,13,-7,-2074,1135,7662
-117,51,52,-4443,-1180,7268
-38,78,-20,-5424,-1950,285
21,-71,-94,6474,257,-1491
-116,23,102,-650,-661,-469
-119,-123,23,941,296,39
-113,116,-73,369,-331,184
-64,-82,109,1285,-550,492
-71,-53,90,195,265,1032
-87,-73,112,4,241,1910
-56,-59,102,-112,959,2782
8,-48,88,1237,1108,3565
53,66,27,366,1397,3180
81,58,6,-201,1201,2664
119,5,-22,224,1842,2603
56,-80,-45,-1206,-128,2449
-8,-39,-15,-1431,-405,1578
-34,-77,26,215,327,1906
48,66,-96,-2741,467,688
69,80,-84,619,758,1413
51,-117,-110,1295,146,1009
81,-114,119,345,92,173
55,72,102,-301,-120,-366
60,-3,102,-55,-272,-269
-6,-10,44,3184,-492,-4586
-24,91,70,4865,-53,-6578
-80,-30,7,2991,-2987,-8042
-119,-97,-76,1195,-4106,-7729
-68,-81,-51,1068,-5425,-5487
-65,-38,14,-1745,-4505,-2331
64,-98,-10,1787,-1124,1965
-39,-116,-96,610,4432,5439
53,-97,119,-2337,5578,6959
68,82,7,1188,2159,2000
-30,117,-67,1396,-3212,-4155
70,79,75,-2367,-4604,-5824
-48,-66,0,-1688,-3174,-3363
-74,18,88,-1399,162,833
-6,115,109,-490,3936,6234
-63,122,-45,1744,3884,5152
73,60,93,-165,1830,-1813
80,127,-1,911,-116,-5436
126,89,71,-983,-1287,-6154
110,62,-53,-1395,-3153,-5970
104,70,14,-2490,-2789,-5025
-72,27,82,-191,-2601,-3747
18,-43,50,2328,-2944,-1754
-68,63,3,1631,-1921,-269
3,-123,-94,1263,1540,354
121,121,12,-604,3204,3596
-61,-60,12,-1188,3077,5329
27,-21,39,-4722,1634,7569
100,19,-21,-838,-2664,9551
-13,57,-102,-9688,-1829,829
11,-57,-15,6273,-117,-1216
-55,-47,-85,2162,-175,-1102
-91,0,20,490,310,-421
-82,100,-93,233,-396,101
-98,-46,113,303,-495,963
-94,77,65,-1151,79,1062
-69,-15,34,999,909,1152
110,77,110,-597,-424,2505
-61,48,51,-54,1328,2259
-36,107,76,1185,950,3514
0,98,29,334,1478,2719
-9,-77,65,-204,111,3202
44,53,41,695,1374,2522
-49,-92,126,-556,324,2786
-38,62,-128,-4,739,2086
-66,-116,-97,-252,-47,1985
125,87,-73,1063,185,1063
102,100,-72,973,356,236
102,15,-72,1006,851,272
93,-61,-126,1151,609,-264
-68,-58,-101,1841,-3529,-5854
-26,-80,-68,865,-3601,-7362
-109,103,-43,2934,-4373,-7312
-41,-117,12,-668,-5166,-6289
15,-63,103,-643,-4606,-3626
-43,9,57,617,-1751,912
29,0,-7,-207,2366,5928
1,-111,-20,-1154,4035,7063
-67,29,-10,1406,1523,5421
4,-94,-94,1324,-1701,-3604
-46,10,12,330,-2304,-6209
-91,61,60,-1557,-3072,-5803
82,15,-43,201,-2265,-2500
-28,-53,-77,-89,1435,3683
106,-93,6,-1086,3675,7136
-124,-26,-21,1945,4687,4336
85,-97,-81,1615,2614,-2421
-9,49,-96,1062,-28,-6224
86,-112,-92,-2569,-1797,-6741
68,51,-127,-1187,-2633,-6123
-30,72,-100,-1476,-3659,-5051
112,-16,-6,1063,-3316,-2932
126,105,45,3174,-3024,-217
118,69,-59,1673,-393,130
-53,-103,127,2618,1059,1530
-95,-122,84,1007,1878,3858
-36,-83,62,-912,2829,5005
17,49,-121,-4426,3237,7148
12,121,0,-5929,-781,5735
78,-113,-103,1304,-3403,-1413
-125,111,3,4633,725,-967
99,48,47,-516,-592,-462
118,-29,-126,302,-1199,722
-117,-55,97,-12,-1421,1223
-63,-22,26,-470,-165,1019
120,37,45,-297,-329,2035
97,-113,61,-335,-156,1808
-120,109,14,1829,903,2738
109,-57,17,800,1724,2031
-106,-128,10,1280,1659,3163
-61,-20,17,775,2167,2586
-127,22,-8,-48,1949,2464
123,59,23,-374,91,2294
103,19,63,1019,-327,1245
46,-25,-72,707,-223,533
51,-96,114,-234,1095,-224
-3,37,100,-17,-351,407
8,18,-100,-186,-733,288
71,-44,119,-224,487,-256
81,-49,107,-91,-49,-169
40,-113,69,3860,-296,-5017
34,-1,-18,2110,-1660,-6181
6,-6,93,481,-4592,-7244
70,-11,-125,799,-4864,-5404
37,-73,-25,-908,-3938,-3745
32,-16,-29,-230,-1512,535
39,-39,-26,618,2198,4264
-96,4,-72,-486,4118,6574
9,107,-100,-22,4109,8224
13,122,-54,2114,540,369
-123,104,70,-560,-4547,-5478
-6,18,84,-1689,-3546,-5797
-29,-52,110,-29,-2714,-3249
-127,107,47,-1232,476,1062
7,-98,-113,87,3072,5742
-83,5,62,882,5003,6405
36,79,15,-122,3232,505
-63,109,-112,1654,913,-3411
117,127,-65,-544,412,-6474
-118,-120,21,233,-1756,-6727
-77,-95,-39,687,-3903,-6770
-1,-4,8,-992,-3596,-3559
114,82,-100,-1927,-3320,-2229
86,7,-18,3358,-2013,-713
6,-9,-39,2704,-788,150
65,92,-47,436,360,1099
-51,1,125,2475,1897,2213
-54,110,17,-148,2601,2926
-28,-99,-27,-1287,3286,3359
-42,-106,80,-2958,1647,7257
-112,49,111,-6336,-3022,6059
-62,76,-37,-2991,-641,58
-14,-52,120,5560,-14,-437
-77,87,14,-505,-563,-1174
-84,-33,-32,123,-179,-385
-55,64,121,-213,-714,-227
-62,2,110,-383,-1383,810
-71,-68,65,-1164,-1094,1040
-57,65,-49,-1579,-728,935
-100,89,-36,-1101,-942,3078
123,104,-48,832,123,2289
-65,-65,44,-83,396,3137
-38,-95,-21,1430,1434,2953
18,-34,-25,2513,715,3286
71,68,64,79,627,2976
-51,54,-111,370,600,2202
-47,84,-45,3187,2273,1384
-34,121,-111,1948,3479,1970
113,-127,-108,765,973,2560
36,-85,-77,-1677,-1024,1202
-25,35,52,2678,-642,-6509
-108,107,89,2336,-1746,-7504
-61,-128,-98,-141,-3672,-7060
37,75,-17,-197,-4645,-6161
33,-121,10,-1220,-3778,-4516
34,-63,16,273,-2462,-259
4,-101,62,1755,1975,3880
86,2,94,-260,4628,5782
-33,70,-11,-248,4456,6918
90,65,98,2546,3854,3380
-104,-115,12,-263,-4121,-4164
-27,53,3,-1501,-3387,-5594
-46,-90,19,-2317,-3078,-4397
47,-33,-48,218,-937,-844
-20,-108,97,-372,2530,3425
122,-101,-79,-828,3948,6785
-30,-31,-48,2695,4350,4884
-64,-73,101,196,1397,-1141
-110,86,111,2710,380,-4566
121,100,-89,-730,-699,-6155
-122,5,-21,-124,-2579,-6100
-59,-104,-33,-2359,-3137,-5292
7,-4,9,-1425,-3025,-4526
115,-111,64,489,-3554,-3233
-119,-36,76,1130,-2728,-1346
41,125,47,2453,-998,-145
88,-59,-5,1627,531,1778
-45,-19,35,725,1241,3256
-27,92,-84,-394,1863,5149
56,40,-25,-2705,1756,6264
-25,91,-124,-5286,-720,5647
-68,107,23,-4105,-2631,2945
39,-45,39,5141,-2123,-3254
-102,33,28,-220,1366,-510
108,-32,54,-215,-243,-411
-69,126,-60,296,259,-295
-72,81,91,108,-975,245
-46,30,64,-116,-887,1127
-86,39,53,-501,-531,2133
-121,8,-7,-589,12,2413
-102,-93,19,-1657,-2552,3007
9,106,-111,708,311,3892
7,50,56,3,-389,3225
95,41,-31,1476,311,3219
18,10,82,2930,-595,3636
36,2,117,2080,162,2876
14,-47,-114,2197,1119,2653
-82,-35,-104,1717,339,2317
116,16,-99,49,-265,1311
37,-78,-59,1003,-190,171
49,37,-79,3723,-760,-4404
-41,-59,-40,1038,1867,-6498
-22,127,80,1613,118,-6897
-109,-38,94,2858,-2811,-8228
2,-98,60,259,-3350,-7757
15,2,-57,2100,-4139,-3504
-109,-74,-39,-178,-1607,1498
-83,-104,13,1114,3304,5272
-1,-78,-100,-1301,5016,7377
115,89,-5,1220,2585,6784
119,-78,-76,-1256,-1875,-1181
-27,78,85,639,-3626,-5664
39,-93,-115,-2663,-3229,-5514
-118,123,-23,-1026,-1747,-3788
55,-78,109,949,-811,-478
-32,-109,-2,-129,2554,5272
-6,-100,71,336,4373,6404
-9,7,15,626,2989,2105
95,-118,111,2336,624,-3224
-67,121,-99,-891,425,-6021
13,97,-3,-270,-2206,-6153
-118,-1,-36,-2034,-2865,-5525
80,-4,65,-3075,-2540,-4678
122,-114,-55,59,-2438,-3677
84,-52,-3,1395,-1947,-2022
-56,-55,121,129,-2437,-238
-7,-112,21,2217,25,85
66,-60,-31,2142,1924,1229
-117,-23,61,318,3143,3330
-67,117,-11,-2000,2424,5535
-13,-83,49,-2559,2345,8100
83,99,-124,-5803,-2072,6985
85,48,-54,-3265,-3324,662
5,74,29,5153,965,-1816
-87,18,-103,427,-290,-1107
-118,0,51,281,-150,-94
-41,-110,126,437,-600,-509
-26,55,67,314,-1420,18
-65,26,44,-588,-1749,490
-99,12,-7,-934,-643,332
-84,16,32,754,-105,885
90,3,72,792,-75,2072
126,71,54,584,1227,2870
-76,68,-17,1705,2565,3132
-87,84,4,-1697,1084,3724
-64,-5,-6,1017,1453,3103
-57,-75,77,2461,833,3268
-52,38,117,-1411,1554,2084
-54,41,-86,1429,797,2960
-15,-93,-67,442,1048,2146
-14,55,-46,2839,1805,-6746
1,14,-85,4295,-709,-8131
29,11,-37,353,-3301,-8498
92,43,-89,1859,-4521,-6245
-127,-38,-20,-678,-2012,-3486
-49,-117,93,726,-1246,1253
82,-105,-53,686,3710,6280
-49,21,-125,1083,4486,7204
-76,-20,-79,185,2793,3602
-80,93,-11,759,-3606,-3810
99,42,81,-2203,-3532,-5288
60,-102,-34,-3736,-2973,-3894
113,50,58,760,-1326,-1091
-24,-125,-15,-548,1206,2979
-47,126,-98,172,3737,5990
14,59,-60,3957,3449,4185
51,13,-112,-992,1707,-1412
-24,66,99,1921,490,-4703
100,61,-115,-324,-815,-5353
-123,-100,-25,-1350,-1941,-5977
-124,-99,21,-2606,-2387,-4964
12,41,82,-2196,-2833,-4345
-35,44,-62,1286,-2363,-3428
-5,-123,-50,2545,-3181,-1235
-70,-62,-114,468,-2534,100
46,-62,59,1222,239,949
-28,-14,-71,1125,1861,2198
-39,-17,91,152,2468,3963
79,116,39,-3038,2853,6071
100,80,38,-4839,256,7510
-123,-97,105,-7501,-4793,5476
28,-24,-37,3569,1332,-889
9,100,19,3206,-1169,-1491
-55,-122,122,-900,-94,-575
-83,-62,11,396,32,-438
-35,122,126,267,-235,-811
-20,-7,51,620,-683,-66
-66,-8,37,-145,-1253,816
-50,109,47,-1963,-522,716
-54,-15,35,1293,-270,2538
-93,-1,73,13,-292,1708
-45,-91,46,1279,-6,2590
-66,26,97,1138,383,2247
-25,-116,-25,3468,2523,2062
-79,3,4,1101,1297,2891
86,-56,96,-298,1151,2230
85,-6,-100,1966,1325,2619
-82,36,-104,634,2041,2884
-50,61,-100,-18,958,2928
-84,95,-38,42,156,2036
-4,-28,-12,4425,1685,-3414
93,91,-81,3789,-1199,-7108
-67,-17,-22,2178,-2497,-6811
21,-76,117,4707,-3984,-5636
105,-100,0,-3017,-5438,-6149
-89,102,-45,-421,-3723,-3546
-57,70,-121,1899,541,240
-84,109,-67,171,2423,4774
-65,-84,41,180,5625,6342
-6,-18,-120,2497,4396,6955
-71,-125,-90,-1098,804,-1093
-54,66,-102,89,-6306,-4378
-60,-80,14,-2372,-4256,-5033
-62,65,77,-1674,-3188,-3753
-40,124,111,-937,-1453,-842
-113,126,48,1177,1214,3723
-71,91,51,-96,6070,6568
-65,6,108,3590,5168,3753
23,-18,66,-794,223,-2258
79,65,4,484,-404,-6061
-10,70,8,36,-1579,-7929
70,43,-22,-1370,-3785,-6228
-9,35,-39,-1341,-3975,-4825
4,48,76,683,-3522,-3372
-63,88,79,1261,-3121,-943
91,94,19,646,-762,216
74,91,-7,1432,325,1554
4,11,19,539,2540,2100
7,100,-23,-1656,1184,4623
52,-90,13,-1656,1449,5327
-115,9,107,-1208,-54,7513
-119,126,112,-6998,-1564,4130
73,-96,-91,1245,-1244,-511
-71,-22,0,2581,-157,-532
-112,-45,-111,-1964,-626,-29
-82,1,25,426,-572,-793
-31,127,-99,1094,64,-1048
-41,74,100,298,-1566,-379
-47,-59,13,658,-750,469
-74,82,14,-623,-504,267
-120,6,12,-565,99,1493
69,121,36,411,-338,1653
-125,-88,-14,726,1849,2146
126,-111,-11,2062,1349,2417
-119,-38,72,467,1250,2776
-55,-77,0,1032,3033,2549
-16,-118,57,2965,2270,3140
-110,-122,-116,-870,146,1758
76,68,-84,-2070,-36,1454
110,73,118,921,1089,852
-53,52,-85,4881,-2863,-3441
-91,-68,-102,1017,-2160,-5140
6,127,-29,286,-4213,-6202
95,24,-16,153,-3528,-6754
106,-127,58,-874,-3716,-5166
75,75,29,-1821,-3234,-3235
-34,110,-12,2790,-1653,2400
-19,-38,-18,-235,4344,4152
78,58,71,-1697,4275,6474
-61,-121,-24,1745,2709,5597
52,-106,70,-2001,-1299,-1147
110,69,62,828,-3073,-5980
-108,-23,-4,-2125,-3502,-5762
37,-23,12,175,-3048,-4571
-39,-14,36,-587,-442,-381
55,-50,-60,-389,2418,4547
95,-69,-46,604,4725,6273
-77,13,-96,2352,4530,4173
42,-72,-17,-50,1066,-1567
53,-126,64,671,-534,-5073
-62,65,-120,-1267,-832,-6105
-105,-91,-37,244,-3177,-5764
25,90,-39,-1906,-3952,-5114
-116,-50,3,-1189,-3187,-4811
68,-6,-44,989,-3565,-2077
5,116,-60,2406,-2284,-85
105,-53,53,431,984,768
-127,-88,-3,-320,2221,2506
-24,-24,-70,-1262,2755,5386
16,-83,-112,-2395,2345,7353
83,-118,106,-5192,-631,8358
-85,43,13,-6417,-550,1085
17,40,-102,6196,-1253,-903
-77,-88,-28,-605,-1866,-576
-72,-118,-91,24,315,-890
-45,47,45,2107,-30,-1416
27,-101,-120,1623,-715,-1593
-2,24,89,-102,-1734,-365
-16,-8,71,-592,-1768,407
-121,82,-96,-3263,-1308,1009
96,14,-128,-3016,1232,2586
-82,-8,82,1152,1048,3729
39,106,-30,999,160,4203
36,-87,-34,651,-459,3297
-43,109,64,758,-158,3452
-5,17,98,2408,630,2725
-88,30,-119,833,854,2442
-88,-124,-83,996,771,2441
99,22,-36,1795,709,2680
-74,111,-36,37,786,2414
-105,-16,71,1657,1565,-5475
-4,102,32,-168,-346,-6477
88,68,-20,2950,-2054,-6340
54,47,33,398,-3276,-5796
89,-126,36,-194,-2234,-3101
-54,88,-52,-448,1705,2297
12,-85,-68,-929,2569,7534
102,-51,-28,775,2402,8222
-67,97,60,-362,2237,2362
-85,75,35,1957,-3617,-4462
8,31,35,-2464,-2570,-6157
-57,-51,82,-2187,-3492,-6387
95,120,127,-280,-1034,-3804
-116,-56,-60,276,-1467,400
-19,-105,125,1664,1225,5637
-115,66,-120,1680,3716,7016
121,-106,76,2859,5279,6000
74,-97,-37,-491,1359,317
105,27,-92,3054,-644,-4070
-13,42,24,-1464,-307,-6966
88,78,121,-1547,-972,-7485
113,-76,118,-1070,-3111,-6363
-26,-11,125,-2589,-2876,-5107
-66,23,-3,1451,-2876,-3390
-124,-59,-98,2400,-3651,-1584
-21,-20,-94,848,-1165,-848
8,-77,-103,2886,8,769
-41,116,58,1789,359,2239
-40,78,-58,759,2513,2690
-97,-64,-115,733,2332,5324
-10,79,-36,-2451,3459,7126
27,-5,64,-7089,-1309,5595
-64,-102,18,294,-1708,1404
31,-91,-101,3449,-320,-1267
-72,-37,72,-323,-208,-1020
-103,-63,3,-67,177,-333
-69,106,-114,-213,71,-277
-95,-127,88,1102,-768,495
-81,-110,107,-397,-1009,1608
-31,-115,36,-1495,1009,1875
-32,30,-18,-3039,-169,2522
2,13,-99,115,41,2526
25,-103,-46,1351,446,3740
64,124,-95,2661,937,3952
62,-85,71,-1783,459,2534
61,-46,54,1165,1720,2571
34,-114,115,3328,1091,3250
-58,66,-111,-939,96,1999
-125,-17,-115,-115,-23,1193
74,-84,-105,837,41,546
10,-69,-101,5854,1211,-6355
-34,-4,62,39,-2440,-8421
95,59,-70,-1259,-3355,-7587
-71,-107,-100,-1640,-1306,-5890
-63,-90,-112,533,-1592,-2850
-64,-81,-56,756,-998,650
37,-83,-97,2173,1650,5559
63,-100,76,605,3291,7568
-11,32,111,6177,4590,8674
35,77,-52,-3669,198,270
-29,72,-69,1444,-5000,-5003
-103,-7,123,-2595,-3592,-5569
-105,57,-88,-1244,-3372,-4399
-41,30,37,-663,-1666,-2018
75,95,-16,121,783,2604
19,-128,32,886,3167,6232
-102,39,33,869,5222,7418
73,-30,38,4069,1852,1899
-108,108,-80,1483,-367,-4594
30,26,-29,-1105,29,-6365
-126,78,92,-531,-1933,-6608
77,-96,-40,-1528,-2753,-5862
-90,31,105,-1975,-3695,-5021
-21,64,19,-1744,-2711,-3673
0,31,11,3002,-1361,-2297
89,-57,54,3137,-1446,-573
95,-22,34,2378,-708,509
-14,11,41,669,446,1830
50,47,75,514,2115,3072
-40,113,-128,-2443,2517,4958
46,2,-71,-3190,1879,7364
-115,-91,101,-6793,-1910,4252
-104,57,-10,1981,-396,57
118,44,107,2553,-1550,-365
-96,107,3,-705,-437,-121
-109,-99,-78,-335,-545,371
-59,-30,78,-521,-724,574
-17,-52,50,-999,-1022,1085
-37,-68,29,-1135,-769,1661
-52,16,-11,-1864,-140,2056
-25,66,39,-200,-761,3335
53,-123,-73,1481,1831,2643
69,35,46,608,282,4271
121,46,-68,1408,1691,2759
18,-12,15,963,445,3814
-39,9,101,785,-64,2699
-22,-6,75,729,1334,2231
123,-64,-117,1403,420,1581
69,-51,101,-418,224,644
14,-127,119,69,-403,267
-5,-15,-40,2429,-903,-6311
-97,-110,-67,933,-3066,-6800
-61,-120,-98,252,-3347,-6117
-13,-91,-23,-245,-2661,-3575
80,26,55,152,-1785,40
-115,-117,14,1043,1470,4685
-50,-98,103,-892,3458,7237
66,26,95,4026,3302,7595
55,96,40,-1727,671,2377
-102,77,-118,1039,-4059,-4490
-5,19,101,-2187,-2981,-6141
78,-70,125,-2186,-2601,-5738
66,109,-52,-745,-1536,-2946
-86,95,-98,730,1001,3141
-122,-85,-66,363,3274,6508
12,-126,-43,3028,5135,7438
-74,56,-29,-600,2028,1335
-96,97,7,3375,-1111,-4062
-34,42,-37,-1799,-430,-6346
59,104,71,-737,-2289,-6623
-19,102,-21,-776,-2944,-5720
57,18,15,-2412,-2650,-4564
71,94,22,1235,-3273,-3482
99,24,-48,-102,-2584,-1730
69,-62,52,829,-1453,-202
-115,-82,-124,2214,1053,872
44,-117,33,284,846,4763
104,102,49,-2373,1305,4491
-120,120,121,-2202,489,5492
91,-113,11,-2023,-60,7409
-84,-42,-83,-6400,-2843,1092
45,8,-53,4256,-296,-722
-29,-1,-52,914,69,-829
-55,43,48,-700,327,-520
-17,107,102,-289,-494,-707
-3,17,89,313,-2239,51
-44,-40,43,79,-1753,856
-99,41,21,-1374,-1139,1016
120,-127,48,-1825,-332,2236
-115,125,-17,1435,86,2659
-110,-71,22,2736,458,3168
0,45,21,576,1043,3874
55,27,45,2196,1480,3181
28,-35,42,1968,1058,3756
-32,103,-52,-1150,-537,3405
-35,-120,91,1780,1736,2560
-77,-51,115,1324,570,2199
113,-34,88,97,82,1073
24,-99,91,96,-596,136
28,53,106,693,-303,-812
116,-49,69,2944,-1865,-4122
68,-87,87,1061,674,-6203
89,-55,-37,418,-597,-7655
-110,-66,-89,1515,-2406,-7229
-34,-82,-125,826,-3044,-6519
-32,16,-77,760,-3479,-4992
-111,-109,105,-676,-1879,-801
-42,-110,-123,1467,1532,3642
-10,71,60,-784,4514,7079
-113,-103,-12,-1409,3802,8267
-23,-98,49,2377,2656,4385
-83,80,-18,87,-3107,-2869
67,11,31,-849,-2324,-6107
-3,-61,120,-1971,-2829,-6785
63,-80,-115,-963,-1949,-5253
62,79,-73,-14,-1327,-1724
91,-116,-101,846,738,3834
114,66,-93,79,3137,6951
-19,-114,-90,366,4726,8434
76,24,112,2296,4720,1229
103,62,-124,2254,-1170,-3491
-68,38,-33,-216,132,-6532
-107,-105,44,-653,-2071,-7591
85,-24,-10,-954,-3257,-6463
-11,14,33,-728,-3135,-4971
119,53,-125,1796,-2990,-2930
-92,29,-60,1755,-2480,-1200
27,31,69,1205,-1731,-163
67,126,-106,5104,1008,1920
-10,44,-73,1270,2754,3319
68,-21,-108,-1067,3480,4072
86,48,-69,-4469,3335,4557
81,-32,-80,-5001,1117,6787
55,38,88,-5304,-3139,2866
58,-124,35,3005,-589,-1059
-6,-33,118,1310,-1169,-570
-31,48,-6,-308,131,-971
-6,118,-97,527,-707,-781
-18,85,119,30,-1450,-260
-32,7,59,534,-697,-110
-57,54,77,269,-315,465
125,39,54,857,38,1089
-112,-33,113,2771,1000,1163
-52,30,-28,981,4224,1082
-74,42,-30,-458,3427,2507
-17,-106,-68,-760,3051,3566
114,-7,26,-1295,2087,2487
-81,-98,74,1202,2696,2260
-58,-71,-60,-1160,2602,2655
-36,-96,126,122,1215,1972
24,-112,118,3719,135,-6144
-2,34,78,1666,-3265,-6557
-96,42,-19,601,-2772,-6986
127,27,45,2487,-4211,-4346
117,106,-125,-633,-3403,-1942
83,-62,93,183,-430,2461
-42,-98,-94,-1483,4199,8007
48,80,-23,-1868,4994,8143
79,-19,27,-49,2825,3979
4,73,-18,3071,-1545,-1985
112,16,99,-1224,-3679,-5550
-88,121,77,-1929,-4285,-5833
-11,-119,44,-828,-2763,-4337
-31,-114,-27,-647,-738,-322
98,107,74,1020,1793,4517
-115,-92,-16,20,4050,6742
31,100,-52,2743,4924,5565
12,-102,-40,-309,626,-414
-31,51,106,2956,452,-4308
86,-6,11,-13,-191,-5537
-118,-65,60,1439,-2370,-6377
-58,5,3,-1452,-3212,-5622
101,-6,-60,35,-4201,-4549
100,-15,-103,400,-3228,-2551
53,97,8,2899,-3080,-319
38,-14,94,53,-1705,596
116,-13,79,520,874,1415
58,31,6,1327,743,3114
-7,-67,19,-2784,2319,2978
81,-89,-113,-4354,-6,5671
57,-59,-105,-4264,-762,6977
52,-87,68,-4730,-1464,1059
-26,13,-6,4203,-1202,-990
-59,73,-66,-893,-796,-1163
-79,-67,107,622,747,-406
-35,-76,-75,1046,-382,-918
-9,73,79,172,-660,-124
-53,-19,78,716,-1074,600
-65,58,48,-1410,-195,949
-34,111,24,172,876,1150
-88,-31,57,133,177,2708
-79,-86,29,1695,1277,2919
6,-25,16,443,1885,3311
13,-36,8,650,1684,3739
12,15,59,-76,1182,3811
64,-84,79,1171,1654,3806
54,-21,27,209,1092,3107
118,20,-30,-831,-1359,2562
-108,115,-60,1020,1356,1849
74,-107,-47,1990,446,1383
69,12,-114,2649,-938,-5644
-109,57,-115,1503,-552,-7345
57,58,123,1443,-2398,-8026
-97,-52,7,2236,-2367,-7254
114,34,57,2225,-3583,-4477
-39,54,77,1216,-3473,-1143
0,2,-4,10,-1089,2163
-92,-84,-37,901,3432,6357
96,33,64,-2666,4747,7907
68,-54,114,1318,3220,6766
-73,-15,98,1481,-1702,-1523
-29,31,11,618,-3448,-5493
-19,9,65,-1792,-3429,-5513
40,104,-16,303,-3236,-4523
36,114,-108,722,-1702,-1202
79,-84,-36,-266,2328,3857
82,-24,-97,-2228,5944,6286
72,18,52,4130,5227,5209
102,-76,-63,-1684,2960,-2565
-9,-114,57,1244,-1130,-6420
79,-68,6,1219,-2390,-7115
14,-22,-46,263,-4324,-6926
36,94,-42,1249,-4677,-5169
61,41,62,2086,-3454,-3169
-36,-115,52,1760,-3063,-430
-120,-101,-18,2325,806,491
104,1,23,600,979,2499
-82,125,-53,-527,2551,2482
108,119,-65,-655,3562,4731
95,-121,124,-1836,2470,5980
-91,-17,-92,-6880,-63,3327
8,-62,70,617,-424,717
53,92,-44,2958,-1095,-634
39,-102,1,-297,-250,-465
115,-50,-82,141,-572,-110
-84,73,99,-306,-1588,484
-41,-51,43,-297,-1980,1193
-8,-92,13,-328,-694,1229
-44,-29,4,-606,99,960
-105,-15,43,-33,-88,4084
-54,54,8,308,1543,3975
-8,-50,110,2364,4994,4261
17,-14,-74,346,2106,6133
5,-68,-117,-2056,1208,5388
32,64,-81,1546,1918,5629
-17,119,-88,1041,1981,4409
53,-123,47,107,621,3192
-2,-12,28,-1604,-1045,-285
-13,-118,-104,1153,-532,-1245
-24,-57,-100,2748,519,-928
-58,26,-23,2657,-1998,-4981
84,9,-61,-4003,-1037,-7423
-90,13,-33,-2491,-1175,-7230
29,61,-36,3497,-365,-6074
-55,10,17,3584,-2393,-4043
-41,58,67,287,-2700,-1802
-98,-128,-93,15,-896,2297
-105,55,35,1835,3009,6161
-72,28,-108,-1325,3375,7779
30,60,-24,3224,2845,5312
-99,114,-25,-552,-2393,-3285
-41,11,-93,-1359,-3034,-6057
-75,38,-120,-2590,-3010,-6092
-13,28,123,-412,-1876,-4553
-16,-90,-47,263,-1586,-1225
40,52,-18,1050,1088,5680
81,-6,-37,633,4301,7467
-118,33,68,3996,5181,5898
20,5,94,-1939,1591,-731
-73,27,-116,1795,2073,-4577
84,30,-47,-1525,107,-5597
-47,-7,103,239,-523,-6373
-13,22,24,-953,-2281,-6062
-47,56,-22,550,-2588,-5140
-107,24,99,1086,-2220,-3815
62,-92,-105,2649,-3091,-2212
-29,-76,118,1549,-1865,-1106
42,80,-52,2834,355,1500
18,-16,-98,318,2082,2588
104,70,-115,-1394,1986,3682
48,35,-56,-676,1644,6060
-49,85,-125,-1404,3085,7369
78,52,108,-8443,-2493,1864
-73,107,-112,3232,-570,-549
67,21,124,1076,-1193,87
89,86,34,-427,457,-615
-110,-51,-82,278,-287,-696
-51,-1,93,653,-969,-219
-68,-21,100,-640,-1953,803
-98,-84,56,-456,-1809,1138
-80,53,-11,-1752,-270,1916
68,1,-17,-163,206,2593
111,-106,-4,839,-293,2946
-74,-80,-6,2727,1123,3194
-48,41,31,-31,1837,3083
-15,-96,-38,2360,2383,3216
-2,68,84,50,886,3986
-15,95,73,-430,1050,2609
-64,-29,-119,1985,755,2279
109,-126,-127,1131,990,1457
-117,-102,69,3365,-2127,-4956
-56,118,18,-1096,490,-7013
-74,-25,19,2979,-2067,-8151
-127,122,-67,1180,-2856,-7788
-99,18,-96,1631,-3972,-6469
116,-36,-3,-792,-3245,-4163
117,2,-117,222,-2596,-205
-68,-95,62,2017,2991,4977
32,-118,102,-2142,4533,6669
-26,-72,125,4570,3926,9415
83,45,-39,-508,3746,-382
124,61,62,1377,-4701,-3801
117,61,-9,-2725,-4394,-5396
-79,3,102,-2162,-4226,-5603
78,65,74,-8,-2643,-3093
-38,23,83,161,-222,1591
112,-76,43,-145,4561,6923
22,-64,-49,309,5517,7702
0,-11,-97,-1089,4007,2172
-48,82,-123,2895,512,-1800
93,64,-116,793,-60,-5755
-25,-106,-57,-358,-1303,-6279
-20,-6,-127,920,-2411,-5800
-13,-67,86,-3069,-3285,-5419
106,22,-88,-658,-2350,-4232
93,-13,-30,-611,-1706,-3544
18,-10,49,1605,-2338,-1353
-62,-35,87,1834,-1320,-572
-30,-26,-98,1076,-144,778
-4,-73,109,1271,1772,2349
41,-7,115,-872,2191,4120
21,85,126,-2711,1253,5435
52,13,-47,-4841,104,6358
24,26,-13,-6737,-5340,7601
-48,12,-110,384,339,-2618
-89,126,-39,6147,-1051,-1244
80,-103,115,-913,-486,22
71,-33,39,158,-227,423
112,-27,-47,530,135,-61
-113,102,-99,908,-210,166
-70,27,96,133,-603,403
-96,-13,110,-47,-903,900
-76,-79,89,795,-258,1209
-56,-29,88,57,111,2101
-45,64,52,-2940,971,1886
-66,71,-39,-1533,78,3087
-5,60,-46,1756,-16,3842
21,-30,27,-590,-46,4295
62,24,-24,125,367,3321
49,-25,31,1896,384,3288
19,-127,0,3734,-1280,-6890
125,-12,-42,957,-3109,-7640
35,9,-32,2616,-4402,-5918
-39,-19,82,-106,-4511,-3660
-105,-124,-66,649,-2668,-804
-39,91,-18,864,1715,4355
10,15,-116,-932,4600,6231
110,112,-47,-76,4334,8983
-46,-94,-89,-675,2615,2314
44,70,105,2738,-3790,-3089
54,27,24,-2064,-3033,-6010
15,-93,-99,-2854,-3157,-5783
14,-96,-39,-459,-2323,-3348
-41,58,93,-864,-791,278
85,121,28,940,2144,5464
-120,68,-26,-184,4016,7229
62,-39,65,4262,4914,5925
-75,-115,-114,-1280,156,-423
-111,28,12,3476,-169,-4732
78,52,26,-304,-1027,-7058
-21,-60,-88,92,-2206,-7531
89,-85,80,-892,-3490,-6165
-62,109,62,399,-3542,-4215
85,50,-125,90,-2717,-2787
77,-116,-14,1910,-3047,-978
-1,-21,106,1003,-1163,-16
58,-33,99,1800,688,1043
-70,88,117,219,3195,1400
-123,-78,-79,-3206,2803,2856
13,-78,-1,-3175,227,5450
5,-55,77,-4642,-1765,9985
-25,-29,3,-8068,-2118,3832
37,58,72,1124,-413,-1694
-113,26,-65,4104,-695,-16
-92,-111,41,-1687,-549,-596
-76,105,-77,246,-556,-267
-59,44,99,-19,-1544,343
-50,4,52,-119,-987,799
-87,45,66,-401,-964,1054
-112,72,48,-807,815,724
-61,31,11,1977,1648,2749
-87,-79,16,652,863,3692
-26,39,26,-742,851,3548
17,-6,12,1675,968,4140
11,114,109,-738,223,4005
-22,42,96,-864,219,3187
-36,-102,123,1389,184,3289
-69,-125,-126,1104,231,3003
116,-64,-105,108,-378,2076
59,-74,-125,94,-623,912
-41,5,101,4985,57,-4145
-16,74,103,869,1187,-6888
-54,-116,98,4096,-2636,-6801
62,-61,-21,-573,-3069,-8338
-122,-27,-73,1198,-3872,-7023
2,55,123,178,-3146,-3233
65,77,58,1072,-2185,4045
73,-122,-127,1975,3938,6701
53,92,115,-801,4336,8309
-8,47,-47,3099,3090,4288
-95,-110,20,1132,-3125,-3512
33,0,31,-3357,-3945,-6424
-17,75,-104,-2186,-3243,-5997
83,70,-55,402,-1438,-4551
-8,75,106,-1920,-288,-123
82,87,30,-285,2451,6674
-96,-111,82,-61,4005,7974
-81,-55,-125,4491,4075,9261
109,-77,-49,1410,2097,-2504
-31,35,18,911,-1661,-4148
-21,-55,21,2187,-539,-6269
107,-46,111,-156,-2770,-6688
54,-122,-56,466,-5026,-5962
20,-60,-23,-3079,-5315,-4814
-18,-58,-116,-183,-3389,-3459
-35,60,31,3260,-3241,-1126
64,101,-70,2227,-2346,1182
-94,97,-100,2631,-97,2979
-115,-48,-46,1418,3103,3373
73,123,-110,-1608,2326,4209
41,-77,100,-3434,2488,4911
42,-39,-60,-2788,2454,7407
107,-111,0,-7666,-346,-145
94,82,-66,5585,-352,-5
-90,15,95,-311,-1556,-162
-69,38,24,-583,15,-300
-73,-126,-80,33,201,-357
-28,-52,84,467,-1207,-133
-48,-57,68,-367,-1415,717
-71,-74,23,-1338,-799,1247
-65,-11,-13,-2238,-663,2062
114,93,-56,-1829,-313,2529
18,-128,-61,238,352,2888
-35,27,-10,-124,220,2306
2,100,91,5905,434,4528
40,50,92,1347,1027,3533
16,72,-117,153,781,3331
-18,0,-91,501,625,2870
-61,-44,-88,1256,305,2184
90,-38,-79,1,51,856
-57,-103,98,5727,-1237,-3786
-112,-4,9,-1760,450,-6675
3,-18,-22,3465,-2710,-6165
-78,122,-69,384,-3089,-7127
-10,54,112,-521,-6236,-5160
108,-118,123,-487,-2740,-4017
-8,-127,-48,1892,-1115,-283
85,-92,-24,-529,2055,4247
-55,-90,21,-1326,3080,6276
109,-58,-24,1428,3975,8842
-105,126,-10,2076,3859,3415
-35,109,66,-4,-5278,-3919
88,11,116,-2189,-3671,-5069
-111,-60,26,-868,-3186,-5160
-91,-88,62,-883,-1929,-3430
73,21,-110,-2234,-439,199
13,108,26,45,1857,4845
77,-17,-72,-1103,3938,6642
-58,121,-114,3517,4003,4005
-78,-125,17,834,487,-1082
-89,57,-69,2355,710,-4448
83,-20,-43,-935,-703,-6138
120,-50,108,-301,-2080,-6271
15,-32,21,-1792,-2883,-6431
-124,-80,114,460,-3117,-4812
109,91,-48,438,-2506,-3074
40,-17,11,2022,-2378,-1426
-38,-60,-94,1189,-1614,446
22,-115,-75,1353,372,1489
9,-17,86,-718,654,3035
-29,87,-56,-1012,988,4296
13,-4,-2,-3417,613,5107
-70,-100,-40,-3835,596,5756
2,12,66,-5100,-1581,5829
-120,36,-95,-782,8,401
-78,41,-103,3426,-1572,-1494
-112,-65,-82,-1121,162,-785
90,-26,56,-9,-48,-254
-81,-111,-89,621,-209,-979
-43,46,77,753,-902,-341
-45,4,49,130,-1155,219
-85,44,29,-1796,-671,593
-101,22,-24,-1060,-335,1331
-101,51,8,-441,-1864,2993
116,113,2,1444,-1020,3824
-26,-18,5,1104,144,3527
24,108,31,519,477,3135
4,54,30,1787,175,3823
11,57,-105,752,-519,3234
-74,-18,-110,460,799,2323
109,-1,65,2556,447,-5515
72,73,-22,1419,-545,-6908
-26,-100,104,856,-3250,-7037
21,-107,95,-2257,-2963,-6383
-54,-37,-118,1127,-2858,-4832
12,120,16,1300,-2444,-1565
88,-34,-73,1744,-174,2618
106,-92,102,1226,2720,6856
63,101,-8,2238,6263,8788
5,-59,75,1317,4276,5215
-65,125,-39,-1821,-2462,-1511
54,26,-30,-829,-2733,-5340
125,-29,77,-3439,-2115,-6563
-93,60,81,-1441,-2404,-5947
-58,78,-96,-611,-1212,-2886
28,-60,-17,-50,-718,1310
-57,-56,-87,1229,1502,5786
85,-78,109,555,3488,7145
61,-84,124,3352,4338,5290
-127,-106,-122,25,768,-466
4,41,116,3661,-268,-4995
114,8,-51,-813,-1396,-6027
-92,-13,-121,252,-2261,-6086
-44,-71,96,-482,-2311,-7327
44,50,66,-564,-3570,-4481
24,31,-69,382,-2872,-3094
79,-45,29,2224,-2828,-1127
-36,-53,73,1090,-1176,-250
4,-77,123,737,1418,948
69,17,94,-1200,4414,718
108,125,-74,-1688,1775,3610
-18,38,17,-4583,-420,6617
-16,89,-64,-4319,-2175,7473
-64,32,-88,-7072,-4111,5953
35,-65,43,1969,425,-1518
113,21,-8,1904,-1920,325
-111,-14,-114,-1392,234,-423
106,-41,61,502,46,-128
-112,-68,-92,-307,-452,-259
-95,116,90,-877,-1337,-320
-92,-33,24,-59,-1861,168
-104,-28,26,-585,-1461,1357
-107,-25,-6,-1230,-555,2025
-117,106,-44,-2646,-632,2777
-38,100,-69,990,-879,3549
30,21,-28,649,-694,3628
99,106,-69,77,-290,3275
116,20,-50,1983,-284,3373
109,-93,62,5427,-275,4150
65,-53,89,4001,154,2935
-11,125,61,4388,-168,-4625
92,18,104,2153,-938,-5691
-84,-66,93,2703,-2387,-5582
62,75,35,1463,-3334,-5764
-102,58,28,81,-4498,-4975
78,59,-127,1372,-4090,-3338
50,-97,-121,-1206,-2350,-480
-44,-118,-115,-514,1631,4129
-30,126,-4,-2308,2556,6119
69,88,-70,-1400,1997,8105
-88,-97,107,1247,1797,4508
-67,121,110,0,-1751,-5073
-72,37,-20,-1925,-1864,-6181
-62,-72,-28,-1146,-1746,-6350
-49,101,125,531,-1889,-4593
-77,43,-72,474,-874,-714
51,-55,64,668,317,4879
90,127,-106,236,3441,7344
18,-84,-128,3337,4209,7018
67,-14,-41,-2174,2013,15
122,39,13,4825,893,-3806
79,45,-18,585,450,-5721
110,-73,-92,882,-1567,-6128
-23,-66,81,-1548,-2726,-5485
-91,-5,65,-501,-2511,-4463
89,-128,125,1696,-2310,-3161
-125,81,-124,1463,-3226,-1216
-12,70,2,219,-2890,-640
-8,-18,114,2387,-1237,405
109,83,120,557,541,1296
44,27,-105,40,320,3344
120,20,53,-1564,1348,4533
60,-108,55,-3360,156,6138
76,-123,32,-3233,622,7348
-45,22,-95,-6769,-1464,3874
101,27,-116,3408,-1146,-1558
12,-48,33,2027,-773,-774
-64,-97,-122,-883,153,-569
-62,-31,-21,826,275,-987
-37,-109,78,-196,-592,-853
-35,-23,36,1533,-1331,-236
-60,-7,7,-169,-1288,537
120,-30,-10,-468,-544,1124
74,20,-56,-413,-126,1815
-107,92,-31,1061,-304,2868
-92,111,-31,2324,311,3122
-5,-79,-41,1407,1673,3206
76,-123,18,2087,1363,4770
111,7,64,827,1714,3628
96,9,35,1053,2534,2726
-10,-54,63,4080,-1134,-4901
-20,54,30,1794,-31,-6562
79,-98,-44,3087,-4052,-5827
112,-94,2,-976,-4452,-5575
-99,77,-13,23,-4939,-4160
127,104,94,-2239,-2865,-2677
-14,-62,5,1970,-438,1410
-99,-74,-79,-247,2947,4009
-50,-95,-60,-2796,3461,6774
62,-97,-114,4617,2846,8204
-7,-2,-72,-3022,1117,1177
-44,89,-117,1400,-3470,-3367
-40,13,-98,-1558,-2307,-5576
-76,-98,-94,-1663,-2885,-5118
-20,-94,-51,534,-2188,-3237
-117,8,126,-526,-973,259
76,-119,77,158,1663,3824
110,-73,75,424,4442,5940
4,-91,60,4888,5570,5149
-1,-3,51,-1064,1568,-994
12,61,-110,2587,-21,-3982
55,-12,-49,-131,-381,-5364
93,85,-72,963,-2147,-5913
-60,2,103,-2035,-2938,-5379
93,-35,99,-464,-3311,-4140
124,-117,-62,593,-2976,-2442
-101,-67,-15,3249,-3313,-24
-29,-106,104,266,-2695,1012
-8,-80,-119,309,-1600,478
79,-124,-121,263,127,513
-2,76,86,922,1186,1507
0,78,96,-437,2299,2582
5,94,120,-3443,2264,4753
12,-80,-111,-4509,1671,6884
101,25,-101,-7993,-706,5516
120,28,38,-898,-2286,-1093
-4,-120,89,3498,-2334,-312
-24,-58,45,-1727,1093,-488
-82,18,120,1274,-565,-515
-34,-92,-34,926,139,-700
-27,71,55,-238,-1305,-796
-12,-21,47,-663,-1420,-424
-48,-30,43,-1014,-1699,556
-112,34,28,-2119,-1207,1067
-116,-30,-5,-4140,-693,738
101,97,52,1428,-1628,3040
-92,-35,46,2239,-702,3005
-12,35,79,2160,33,3846
36,47,28,2036,402,3386
71,56,88,2442,334,3503
123,42,114,3924,-354,-4420
-92,27,3,2427,-1431,-5048
-25,84,-88,807,-4614,-5415
-63,2,28,-1401,-3909,-3769
-109,47,-127,-3,-1323,-448
116,81,91,2877,1802,4779
-21,10,85,-2966,4549,6742
44,-44,10,2605,2537,9392
51,123,-5,-2633,892,-653
-22,45,-69,2124,-3087,-4067
97,18,125,-1981,-2181,-6183
28,52,112,-1206,-2545,-5699
-49,-108,-121,-573,-1688,-3554
121,68,60,813,-738,1517
39,-104,66,-530,3237,6445
-92,45,114,670,4112,7186
-58,22,-120,1498,4201,2305
125,78,70,947,657,-2091
60,33,-21,1435,473,-4806
-26,-5,-45,345,-703,-6235
-104,-70,78,-682,-1921,-6690
-55,114,-104,-1808,-3225,-5806
57,-107,-44,563,-3487,-4245
82,-11,101,2390,-3630,-2138
48,-112,75,1171,-3448,863
114,-111,-103,-503,-368,312
-84,117,-125,1959,577,973
55,-69,15,-836,2211,1300
14,17,-55,-290,1569,4351
90,23,61,-1303,1512,6779
7,-48,-69,-5024,461,7058
-73,-103,20,-1385,-992,1230
-52,40,47,1839,-2474,-1753
-81,83,60,-98,927,138
-93,90,47,-348,532,-373
-79,22,-78,618,-728,-601
2,88,13,-189,-1314,-255
-9,-26,37,-632,-995,984
-54,-90,15,-1154,-873,1326
-79,17,-5,-2363,-1082,2122
-53,7,-40,431,-814,3627
-45,-107,-56,876,26,3193
43,30,6,1023,-354,3840
89,41,-24,1196,888,3163
29,4,5,1851,126,3379
-12,106,-127,-126,-39,2799
-37,-62,105,2730,900,2294
-118,-97,-104,2424,818,1930
92,-97,121,546,605,1196
38,-96,-109,-350,-315,653
-50,-107,16,2757,814,-6354
68,85,-1,2303,-1505,-6776
-51,-125,-86,3153,-3453,-6781
15,25,-77,598,-5559,-5634
-19,-67,48,-1602,-3933,-4009
107,31,-68,-30,-1889,-861
-67,94,-47,669,1736,4635
49,23,62,-1107,4600,7231
-33,37,0,1133,4578,8916
47,-11,24,-3285,2988,2549
71,75,59,3115,-3100,-2063
85,12,-76,-1424,-2922,-5714
-69,113,64,-2052,-3236,-6110
-32,-45,-120,-1282,-2728,-4759
-53,-25,40,592,-1820,-1342
53,-93,6,-615,632,2764
4,-64,105,361,3073,6051
-50,-86,117,2088,5131,6902
-53,48,-128,-2317,2528,1321
-8,69,25,3795,524,-1950
-48,45,15,285,777,-5167
-83,83,-62,1079,-921,-5503
127,85,47,-2035,-2245,-5957
124,-114,16,-1415,-2446,-5332
-37,-1,31,583,-3514,-4356
-44,78,102,872,-3445,-2887
31,-93,-62,1728,-3245,-625
-35,-65,59,1103,-2122,82
55,10,-120,1415,497,1098
59,16,71,805,859,3131
-114,46,23,-1599,1971,4207
-76,18,46,-1213,1548,6119
-79,-67,26,-5191,-267,7036
119,-44,58,-7386,-4205,6712
-34,-121,58,1370,-883,-886
86,120,-117,2476,-534,-1143
-34,-61,-44,-407,-277,-618
-82,-9,29,-254,291,-736
-56,120,112,649,8,-1274
-75,33,10,245,-1256,-953
-96,-78,-13,185,-1504,-64
-120,-53,-17,-979,-1445,1067
88,32,20,-2234,-1398,1724
62,-125,51,-1587,-798,2281
-69,0,-68,3475,481,3321
-39,33,-2,1194,-799,3754
96,41,-107,2716,667,3197
91,18,11,2800,-1146,3955
84,-127,72,379,313,2884
-14,-40,106,2609,480,2790
80,-92,14,3250,-120,-7099
-17,-34,-17,332,-2559,-7120
82,109,-79,1977,-3613,-5883
-6,-86,87,-63,-5071,-4773
-100,-20,-84,-58,-3389,-2424
-82,-70,-107,1966,-1726,1302
107,-126,6,1411,2451,4975
127,-29,-13,-1410,5119,6624
-3,81,94,5829,3946,8468
26,-118,-121,-3621,1733,633
127,33,109,274,-5469,-4229
-8,10,-53,-3063,-3342,-5711
-1,6,77,-2649,-3144,-6129
48,81,-80,128,-1989,-3727
-105,-89,80,-255,-1136,-405
15,-123,94,1569,1364,5664
-52,18,-10,1253,4607,7545
123,91,-6,3258,5171,7004
-61,-2,-19,-642,2361,-275
-74,28,-109,4734,530,-4974
-46,43,-29,-1008,446,-6254
23,-59,21,-1295,-1507,-6610
39,-112,-52,-1989,-2598,-6113
-40,-18,-123,-3197,-2676,-5193
-87,-86,65,-472,-1818,-4408
107,17,30,2389,-3737,-734
48,-94,-79,610,-2213,150
52,79,14,717,-1328,1083
-119,107,-11,1007,430,2167
-74,79,-45,582,1569,3114
-63,-108,-49,-1581,1310,4655
101,-6,17,-3260,143,5069
33,-37,-83,-3594,-1428,7640
113,-9,38,-4265,-1234,1129
-115,39,5,3237,-979,-672
-25,-72,-4,1103,-474,-791
-74,15,-126,-102,531,-441
-59,-90,-45,213,42,-696
-22,-31,58,1274,-1193,-314
-33,-79,33,713,-2121,818
-49,-11,13,-2018,-1349,820
-84,12,-44,-1939,650,649
-46,36,11,1084,685,2423
-66,-125,48,2228,42,3796
-5,30,49,-697,290,3792
82,3,56,-560,292,3933
69,7,96,1208,-301,4780
76,51,-43,1035,-29,3798
3,70,-96,687,71,2590
-124,24,-56,1075,-418,1792
41,59,85,4050,159,-6145
-19,114,-2,2818,-1970,-7228
16,-66,-30,1875,-4750,-6363
-17,81,-24,162,-3747,-4442
-128,53,61,1403,-2906,-2505
-21,43,22,486,-1643,171
110,-53,-25,-1411,1690,4759
-11,-8,109,189,4235,7069
30,-84,117,1938,5047,8784
-47,41,-107,2224,675,1776
-119,52,-114,-2500,-4607,-3685
-41,21,87,-2158,-2369,-5212
77,2,-12,-1969,-3510,-6076
-73,49,104,-1650,-2626,-4789
-110,61,64,65,-1008,-974
12,-68,-75,220,73,4476
92,-23,3,1245,3500,6919
26,-31,28,3544,4554,7675
35,121,42,-2925,1534,746
93,82,-5,5469,-319,-4313
75,38,21,-500,214,-5980
-116,-57,-59,-1018,-1308,-6711
52,-91,76,-102,-1987,-5454
27,-96,116,-2214,-4488,-5030
59,-41,44,-3606,-1225,-3047
-93,-124,-86,-231,-635,-1658
98,54,53,2160,-1508,-852
-109,92,45,2106,-1294,-210
-89,36,83,1083,204,1036
-56,11,-26,143,612,2844
-61,85,-21,-1159,1062,3420
1,-111,-96,-2580,613,5273
-53,-102,-57,-3767,-679,6627
44,68,-29,-5652,-2718,4748
62,57,-70,1429,904,-1589
-59,108,-100,4273,-1396,-812
119,-120,112,-1687,-80,-144
105,-43,1,-123,4,-401
-78,-99,-88,697,-160,-1071
-52,103,58,-181,-1204,-850
-37,50,16,-1021,-1942,-213
-112,-1,21,158,-2498,1436
87,120,10,-1874,-1204,919
67,91,71,-330,-646,2717
19,85,34,1683,428,2876
-56,103,46,3265,621,3877
67,38,-44,131,2437,3479
63,-56,-16,2832,1353,4704
97,32,44,1389,990,4195
69,82,62,-637,887,3803
34,-54,-105,7114,-1838,-3975
-121,64,13,1125,-456,-7660
-63,-32,15,1562,-3511,-7271
-30,67,-4,326,-4599,-6417
-12,-23,68,-2007,-4991,-4733
-26,-48,52,-1192,-3101,-2709
-62,91,-103,2773,-1221,1288
25,-83,46,70,2890,5240
34,13,-57,-338,4514,6215
-78,-119,-18,2524,3615,7482
-33,-102,-75,-1443,888,2821
-84,38,-100,913,-2181,-2765
-69,-8,-28,-1029,-2394,-5686
-27,22,69,-1637,-3213,-6267
-25,-91,-78,-281,-2524,-4292
-16,39,-107,-32,-1151,568
-8,64,-83,-13,2816,6268
29,-67,-21,-73,3944,6914
121,-97,53,5327,4520,4317
-53,108,-70,115,2589,-1074
88,23,67,1006,-1436,-4761
-16,-35,-119,-157,-622,-6770
-16,124,-102,-1010,-3438,-7182
126,22,-81,-2436,-3568,-6615
-7,-33,-87,-550,-2794,-5066
-112,-47,-34,993,-2922,-2879
68,-84,122,-580,-2492,-594
-109,80,-75,2701,296,-330
28,59,-22,675,-240,2419
-93,114,4,159,1454,2841
-57,36,74,-2004,596,5294
-124,86,-104,-3045,-175,7058
23,-88,122,-3524,-2456,6086
40,-72,122,-2213,-32,-290
3,-100,-101,5136,-1824,-620
-75,-67,105,-378,83,-1099
-61,-50,-79,-497,321,-774
-35,120,102,-771,-1744,-651
-43,-88,7,-1018,-1950,391
-92,2,27,-2987,-2503,1645
103,-31,-8,-2035,-911,1771
-125,63,16,933,-786,3127
-44,89,81,3785,-1437,4885
56,91,-13,418,1046,3203
68,-20,-17,2235,677,4770
-90,-33,-1,4364,555,4323
-124,66,19,1112,1166,3631
27,-15,57,1450,501,3038
-68,-50,107,1241,-615,2820
118,88,-106,-1176,-1043,1189
25,9,88,3719,-441,-6234
94,-63,77,2159,-3208,-7617
-81,-50,-39,-254,-1976,-7435
-123,71,-72,1652,-4315,-5161
68,82,-21,278,-2821,-2976
-51,-41,-117,806,-1127,1127
-67,-120,126,954,1775,4832
123,98,76,-557,3840,7493
-5,26,29,897,4303,8449
127,22,34,-2545,1995,2872
-34,107,-23,3476,-1872,-3249
-84,-11,61,-1508,-3303,-5462
-29,-49,115,-2458,-3607,-5979
-71,7,-15,-668,-2265,-4338
123,76,69,428,-1397,-1611
-46,95,-31,122,147,2878
-63,-79,13,588,2805,6503
100,57,-106,1005,4286,7042
-83,-111,95,-1287,1435,1144
-48,54,-103,3124,526,-2584
22,16,36,550,186,-5448
34,-26,-7,-10,-575,-6154
-59,36,-111,739,-1453,-5940
-42,-87,29,-478,-2655,-5300
114,7,69,-948,-2517,-4274
-110,29,117,1619,-2626,-2502
48,-3,-51,1792,-3152,-1093
-22,18,60,532,-2778,-373
22,-69,-58,1511,-285,436
-17,-120,-113,1823,1543,2949
-60,-30,91,-384,1465,3724
-109,43,119,-1832,2103,4825
-113,-127,-47,-2852,579,6632
-122,62,90,-5711,-1705,7904
80,-115,0,-4758,-342,1044
-35,-81,79,4705,-140,-410
-24,23,-128,-651,-837,-419
-53,60,21,402,181,-712
-22,-87,-88,1194,7,-1018
-8,59,55,921,-1272,-459
-38,25,12,-790,-2008,316
-75,27,-31,-1900,-1677,628
-104,20,0,-1068,-1418,1030
40,-40,4,1280,12,1925
121,54,82,1868,268,3592
-58,29,-5,3593,2273,2724
72,-53,-74,1558,3775,3554
58,-58,-44,1453,2581,3251
24,-66,-45,2292,2184,3645
-39,5,73,377,1066,2710
3,22,-26,9060,-2395,-4380
-22,54,123,75,-1218,-6925
84,109,113,255,-6176,-6506
65,109,-90,-1298,-6597,-5462
58,92,18,-2188,-4359,-5142
-100,94,126,24,-3192,-3298
-8,-63,-13,579,-792,-162
-119,-80,-115,-340,1929,4263
-11,-104,-15,1141,3204,6294
-27,-15,-34,1004,4415,7693
60,-2,-102,3396,2920,5505
-90,-123,-51,-698,-1623,-911
-54,-2,115,-261,-2620,-4549
-86,-16,70,-1430,-2865,-5119
74,90,-121,-1337,-3903,-5133
127,90,52,-621,-1990,-3131
95,-90,-57,-577,-222,366
-12,83,102,-230,1967,5223
76,-14,-53,-2,4124,6649
-64,97,-36,4564,4022,5340
-94,-22,-36,-603,1264,-956
-27,26,57,2905,767,-4936
68,51,-49,-992,-59,-6758
-126,-108,-124,-1,-1777,-6759
-73,26,85,-1943,-2896,-5893
95,8,11,-311,-3105,-4798
66,-9,86,1502,-3144,-2759
108,-97,-61,1643,-3474,-1074
42,-27,-126,415,-2278,-390
96,-70,-5,2422,355,1291
77,-42,-83,1372,1186,3276
40,1,100,-439,2246,3972
44,122,45,-1966,2986,5375
2,61,11,1782,649,8247
-20,76,61,-13010,-1902,4172
-61,-33,-35,-570,-306,1335
85,87,-2,3174,-743,-742
-44,-94,-73,1748,-296,-754
-29,64,-11,-690,568,-1220
-38,79,-114,1586,-426,-842
-42,51,56,-492,-1496,-181
-54,45,11,-2170,-1390,175
-93,21,19,-1641,-1644,848
67,18,12,-805,-677,1898
-114,113,61,22,222,2506
-94,46,10,3753,477,3319
-26,12,47,403,647,3914
28,-54,-32,1278,2350,3459
54,-106,-10,3949,820,4229
51,40,77,925,1188,3100
-40,-60,89,4034,390,-6517
-95,102,33,370,-2448,-7849
-6,-42,-89,-612,-2955,-6533
-9,-84,-115,290,-2355,-5580
81,-115,4,434,-2766,-3680
-81,-4,63,498,-2137,-1513
67,-46,-61,663,251,2386
-54,-56,-35,1053,2165,6364
-69,-57,125,-847,3511,7906
89,42,38,5590,3862,7142
-85,-11,-64,-855,-2789,-1310
28,16,119,433,-1594,-4960
-52,-67,115,-2703,-2349,-5587
-6,21,84,-501,-2934,-4943
40,94,-37,-244,-1521,-3030
-7,-94,-98,-542,-278,1596
-48,-42,-29,89,1184,4952
64,-92,-80,763,3722,6852
-95,-113,-58,3787,3604,4938
56,-102,92,-1413,871,-734
-10,58,-87,2752,601,-5246
127,26,-76,-854,-664,-5858
127,35,124,-718,-1518,-5879
-94,-104,-122,-1805,-1413,-5597
32,-13,110,525,-2168,-4417
37,115,-106,662,-1850,-2988
97,18,-61,1277,-2801,-1455
-18,-28,89,1416,-2391,28
-16,-122,-106,1837,331,874
-117,-28,-106,755,948,2600
5,-12,84,-594,1938,4200
-17,126,-68,-2544,749,6187
29,22,-122,-3052,749,6968
122,82,79,-7008,-838,5596
122,63,-31,-1115,-437,-1465
-7,118,-78,4870,-610,-827
-77,112,89,837,-324,-832
-100,-98,-27,1741,171,-21
-122,105,-90,2096,-491,561
120,46,-108,1459,-179,807
-127,50,-123,249,337,916
-119,105,110,-1347,279,920
-119,-104,46,-1884,-62,1400
-93,109,31,-562,598,993
-65,95,37,-1003,981,1166
-101,24,105,-87,665,1817
-63,23,90,337,985,2542
-48,73,81,80,968,2580
4,54,70,1723,1594,2675
-20,11,71,-153,1292,2639
27,-27,96,2317,-1211,-4573
122,-73,79,1417,-389,-5831
-62,55,42,2378,-1557,-5811
-70,99,46,255,-1823,-5334
9,20,4,733,-2214,-5232
111,71,20,-1147,-3348,-3755
48,-8,20,13,-1669,-1043
-5,-19,-89,1807,193,2321
19,-45,24,-1304,2401,5747
-94,94,15,1478,3313,7825
-65,-66,-8,-2664,1498,3627
-101,124,20,1737,-1791,-1175
59,21,-93,554,-1206,-5135
-42,-16,110,-555,-2189,-5914
9,-35,118,-72,-3061,-5585
91,-98,-39,-720,-2314,-3744
20,-93,36,-585,-1234,-988
-18,-50,-73,400,404,2907
46,-10,-4,585,2959,6270
-32,-3,108,889,4756,7548
87,20,-92,678,3827,3400
119,69,33,1145,871,-1093
18,4,75,2911,545,-4121
111,-79,0,-522,-281,-5859
79,108,-85,618,-1464,-5568
-75,-28,85,-802,-2466,-5562
74,106,104,248,-2521,-4794
120,36,63,722,-2689,-3799
-11,90,66,2502,-3434,-1545
-99,57,-60,756,-3145,-425
111,-12,123,647,-1135,546
-49,-39,-117,1442,390,2587
-88,-17,87,-27,1061,3795
-39,11,92,-1242,2320,5156
-31,107,-78,-2937,2315,7006
-69,-87,125,-6634,-1664,4650
-126,-2,-119,2226,-1664,-227
-64,11,84,3004,-1572,-166
-109,-119,36,539,-211,-477
-114,-71,-80,1370,110,441
-90,-48,105,33,-202,507
125,78,100,608,-6,481
116,67,-127,-240,-17,671
123,-34,-124,151,268,1024
-117,-67,-76,-856,608,1578
-63,113,60,278,2736,2865
12,52,59,-177,1137,3175
82,93,31,534,1234,3094
29,-78,34,90,1091,2729
55,-72,19,519,1169,1970
-114,41,-80,3216,-391,-4707
54,71,-120,2647,715,-6434
-125,76,50,2131,-1853,-6610
-101,24,-128,1926,-2829,-6812
67,-65,124,638,-3597,-5235
-81,-91,-120,2063,-4653,-3349
92,-19,-28,-254,-3449,-915
-61,25,-59,993,1264,2615
-79,107,-21,855,2359,5242
69,93,50,-814,5445,6638
-115,89,19,1845,4085,5541
122,-35,83,-2865,350,1649
-5,33,82,2268,-2953,-4013
35,2,9,-1711,-2056,-5475
0,-127,-58,-276,-2924,-5215
75,-71,0,-1559,-3132,-4349
54,100,-119,-1128,-2620,-3049
46,-108,89,872,-385,296
-25,-63,-9,1060,1231,5292
92,-47,-92,332,4130,6121
-81,102,-122,2966,5839,6903
-126,103,-43,-1562,1888,2176
120,44,24,4536,1442,-2999
92,22,127,1203,-27,-6174
43,-86,126,-625,-1657,-6581
-52,-125,121,-913,-2726,-6518
-31,114,44,-1707,-2820,-6167
21,-66,19,-413,-3048,-4420
21,0,57,2232,-3034,-2843
65,-98,-116,3263,-3085,-159
48,5,-40,741,-1801,949
-97,43,75,290,-43,2031
5,12,-120,790,1845,4337
16,-120,124,-2798,2270,4222
103,85,51,-877,2170,7975
-74,41,15,-6013,-1566,5108
33,46,-19,-2098,-2473,1481
-51,97,-36,4015,397,-1263
-34,47,56,-1171,-215,-1280
-20,-100,-59,2236,-110,-877
20,46,48,266,-468,-764
-43,-26,73,-1105,-1412,525
-67,-103,43,-1052,-775,1785
-59,-21,7,-2516,184,1711
-45,19,9,-723,-20,3665
1,-115,47,866,-950,4414
99,3,-7,831,643,3989
59,-117,18,281,54,3727
81,12,51,1923,-50,3647
24,-42,48,-252,508,2748
10,-90,83,6358,-3515,-4190
52,87,11,577,-311,-6768
105,3,-114,1720,-2741,-7403
-88,-102,34,1134,-2190,-6753
115,109,-42,-435,-3132,-5263
90,21,-122,-637,-2550,-3591
-53,-23,-89,-278,-2357,-1717
-43,-115,-76,186,-985,3368
47,-6,-24,888,2220,6965
52,29,98,-1336,3038,7612
1,-70,77,5573,4398,6436
15,-75,15,-3879,-878,204
-106,80,-72,2214,-1711,-4067
101,17,-106,-917,-1196,-5686
-100,81,-105,-786,-2046,-5451
-66,94,-57,93,-1680,-3833
114,-89,-6,-541,-680,-880
112,-68,71,388,234,2560
-63,123,123,325,1330,6032
75,-9,53,645,3275,6558
49,46,-44,2540,4811,5819
-54,-26,38,-1426,392,-576
-40,12,71,4744,-435,-3965
-121,-9,95,-86,610,-5699
-123,3,-28,-372,-1005,-6861
-12,-13,123,867,-1658,-6809
-73,113,56,-483,-2791,-5657
-5,-50,44,628,-2847,-4221
21,77,117,2877,-3134,-1589
88,76,-113,2488,-3326,-207
-38,123,-6,-488,-1769,596
97,-17,124,805,-219,3545
-75,-110,71,-22,1656,4103
-102,-56,102,-1779,2130,6371
34,-46,109,-3704,2205,7716
-61,-49,-57,-7011,-799,1900
78,99,99,4780,-632,-127
-28,-75,25,1871,-724,-417
92,-52,-13,-469,-391,539
-127,-47,-75,-822,169,341
108,-100,-97,-26,185,619
116,-114,124,-995,408,637
-120,80,108,-214,184,920
-105,83,113,-1057,276,850
-100,34,-112,-402,-119,1564
-57,35,66,-1141,289,1883
-42,40,53,-598,-543,1662
38,20,22,-456,-131,2593
20,68,33,-1310,-1018,2147
110,101,22,-2134,-947,2088
-12,-45,22,3521,-1981,-3472
-27,-15,91,1389,-47,-6645
-21,-40,91,2307,-1601,-6069
35,32,-14,1319,-1992,-6831
64,47,-104,670,-3537,-5486
56,-3,-108,-1534,-2750,-4338
-71,-63,13,-285,-1643,-1231
43,16,-38,153,660,2438
42,92,-107,-923,2040,5728
-68,-76,-54,-1151,1797,7110
-18,118,72,3349,1915,6390
0,-29,65,-2000,-393,75
-98,60,-99,1093,-2167,-3593
59,24,45,-1336,-1161,-5137
-118,108,-38,-13,-1731,-5021
-60,-34,-118,-816,-1871,-4220
-96,3,-65,-296,-1278,-2054
105,-102,85,483,386,1713
-117,-60,-71,140,2210,5182
73,-6,59,-89,4068,6660
34,96,-122,3383,3452,6264
56,92,9,569,3190,2101
86,42,125,4717,482,-2467
107,-29,67,-148,-323,-4991
-62,-39,100,244,-1627,-5244
110,83,84,171,-2769,-6000
-80,-56,74,-479,-3795,-5455
125,39,116,-938,-3450,-4430
-66,-64,-110,1202,-3332,-3230
18,-64,124,1954,-3439,-1752
127,68,-46,2041,-2838,-27
99,60,-125,340,-28,722
-75,1,-98,1264,555,3009
12,16,-78,134,2644,4198
-5,-44,-49,-3486,2906,4769
6,-12,-23,-4813,3100,5771
103,1,-9,-4154,-2047,0
-35,-65,-90,4293,-739,-749
-80,119,-33,-77,-920,-298
-64,33,-64,151,-397,346
-65,54,-117,-1415,-913,1630
-86,40,121,-1696,-824,2642
-60,73,83,-1911,-549,2656
0,73,18,-1319,78,3297
31,-104,21,-936,-797,3532
54,-124,-18,-514,-472,3235
93,123,-24,1059,-627,3937
122,-66,52,805,-620,3539
99,-29,56,-156,-302,3435
90,-36,-115,1053,-539,3069
117,46,53,-2566,2153,4751
-9,120,94,-2236,2834,5918
-75,77,50,2135,1675,5640
-19,-83,-125,904,1596,506
-16,90,3,1222,-2170,-2369
82,-106,61,-2298,-2165,-4102
-20,29,92,1141,-2565,-4166
43,56,-106,-1005,-2667,-4328
56,104,34,-1671,-2265,-3161
51,12,-127,-1374,-411,-585
45,-37,-107,-766,924,3268
37,-7,40,-654,1873,5582
-60,-28,-9,1128,3197,6326
-93,-4,104,-698,2565,2644
-30,119,-17,2843,475,-974
-31,-13,-81,3524,111,-3391
-90,-48,45,819,445,-5340
-11,18,16,1510,-588,-4821
106,-8,-90,445,-1725,-4843
-120,63,79,2541,-2173,-4370
81,-102,1,-919,-4079,-3466
12,28,-37,414,-4226,-2697
90,-70,92,456,-3905,-1583
-69,83,-107,2013,-3460,-554
92,-117,-35,118,-2529,-60
110,58,51,176,-915,1348
100,-79,85,1116,970,2809
0,-78,-123,-381,1957,3900
74,-21,-7,-2579,2540,5795
106,-21,121,-5031,965,6072
68,-93,92,-3954,-951,1734
-106,53,107,4387,-497,-572
-120,10,46,-20,-224,-384
116,17,4,-176,766,-501
-85,-62,109,840,389,-968
-36,55,60,912,-400,-594
-47,-32,36,-1827,-1271,465
-72,-55,14,-1562,-904,1846
-53,64,3,-2977,-1409,1973
-118,93,-24,-906,-1210,2203
-65,-63,56,256,-584,3024
24,-100,3,-201,1553,2405
24,71,96,-475,-497,3787
37,-36,97,1092,-478,4006
69,51,-101,688,-966,3848
58,-29,-90,1373,362,3592
29,-4,112,1721,478,2576
-94,-26,105,1994,-485,1859
76,-31,100,383,-112,415
66,-101,106,-397,183,-604
99,-67,-128,3978,-1203,-4881
-104,104,-38,2772,-3152,-5482
-12,-57,32,1575,-2666,-6232
-19,-101,111,442,-3852,-5284
66,56,33,-911,-3550,-4328
6,50,83,-1452,-2049,-2037
-95,10,-115,-517,-761,946
61,-60,-40,-122,1622,5666
-62,21,69,-707,2581,6541
88,-39,-71,1125,3572,7202
49,51,106,-1772,1346,2117
-109,58,-70,3041,-1768,-1482
-101,-1,89,-644,-1768,-4590
18,-107,70,-892,-2826,-5437
45,-46,-126,-1033,-3365,-5130
87,-27,-35,-749,-2171,-2669
3,87,125,-176,-502,1063
-70,-122,26,490,2069,5725
69,6,-87,169,3674,6216
101,-113,-51,2257,5319,5854
-34,121,75,-770,1501,1256
45,20,81,4085,-89,-2385
51,-7,-31,53,-263,-5207
10,-22,-66,-61,-1323,-5670
8,-4,-85,-142,-2136,-6144
59,-7,-118,-1384,-2386,-6154
-92,-51,106,-704,-1481,-6636
126,-71,85,343,-3088,-4127
-79,33,-107,1963,-2642,-2131
28,-40,-2,2920,-2376,135
86,-70,-127,642,-25,2274
33,7,116,-9,-101,4221
-105,36,119,-625,2219,4966
127,-30,-111,-3502,1060,7295
-105,99,-97,-3649,195,6680
-46,-107,-28,-9945,-2425,3093
92,55,111,3968,964,-1232
-91,-40,-24,1956,-2012,-965
-94,83,-112,-663,31,-409
-98,-22,40,901,-138,-607
-61,-99,-108,946,30,-799
-55,53,61,512,-1451,-426
-52,34,27,-886,-1498,404
-60,91,21,-2029,-1241,696
123,70,0,-1006,-886,1488
113,116,38,883,-508,2592
-83,126,2,2179,-259,3137
-38,-5,86,1377,871,3417
9,-43,-32,1992,1509,3569
37,42,52,1287,-73,3726
-79,87,97,-1267,1575,-6034
-27,-45,102,2636,-816,-6096
101,-11,22,2484,-416,-6178
66,80,-41,1179,-3471,-5204
44,74,-28,-676,-3057,-4064
-54,-79,74,-413,-1469,-927
109,-50,-89,625,347,3547
-89,-56,-121,-692,1633,6120
42,-63,23,66,2722,7785
46,33,80,-359,1853,4436
115,-84,-58,-232,-1236,-498
96,23,-95,878,-1715,-4393
94,13,5,-1053,-911,-5342
-32,-90,-83,541,-1826,-5000
35,62,-85,-698,-1821,-3499
33,106,-18,425,-1010,-614
-43,119,-44,249,611,4596
56,-126,-40,71,2991,6640
-12,-87,97,2501,4228,7653
100,63,59,-3453,3073,3301
77,58,73,3130,1277,32
38,-6,-98,2771,448,-4214
-25,-11,-54,315,480,-6191
-52,-2,24,960,-1773,-6885
91,35,-12,-1653,-2776,-6993
59,-53,115,1,-3376,-5973
73,-112,-47,1106,-2689,-3979
-5,47,-27,3432,-2832,-2343
-17,58,27,2535,-2622,-609
25,5,103,1467,-511,642
-68,4,-81,702,1586,2269
25,27,-111,-154,2201,4721
23,-119,-99,-3135,2074,6403
-114,41,-126,-3321,787,7562
47,27,112,-9268,-932,3851
110,102,-57,437,467,-974
-83,-25,-104,2958,-2185,-1216
-22,52,64,861,-389,-1077
-33,102,-127,755,-159,-878
7,50,68,-611,-1892,-249
-68,-3,-1,-2208,-1333,785
-98,81,2,-2604,-1544,1343
97,53,2,299,-1174,3158
-124,113,55,3848,459,3521
-51,-48,42,1809,951,4142
114,-110,95,-220,1417,3487
48,3,18,1199,1913,3911
67,31,1,1186,611,3041
-20,-37,73,392,-721,3056
-74,-73,105,-309,-550,2354
58,-111,20,6522,-54,-4807
-8,-60,17,502,-1520,-6910
-38,-101,1,1806,-3263,-5484
46,0,-66,1451,-4780,-5285
126,-118,-68,-1027,-3903,-5447
91,109,62,-532,-2449,-2490
-20,-4,-68,1453,-1308,1286
111,-16,108,-861,1188,4984
-45,-77,-74,-1436,3062,6213
-9,95,13,-3119,2604,6669
-128,48,69,5093,1585,4020
40,55,-29,-239,-1231,-2241
120,15,67,-880,-1418,-4690
8,73,-127,-12,-2359,-5386
-57,-28,-48,-940,-2494,-4505
97,52,70,160,-928,-1462
10,127,-45,-198,217,3620
74,-94,99,-138,3531,6309
65,-69,64,1878,4619,7358
58,32,-62,-2078,2260,2904
-66,56,18,3640,362,-1050
44,8,-31,306,41,-5224
-17,-36,36,23,-404,-6485
30,-93,-67,-188,-1319,-7016
-106,-91,98,-1043,-2314,-6775
-48,-24,66,801,-2298,-5210
100,-106,8,1089,-3168,-3906
102,16,89,1972,-3430,-2130
72,-21,23,2304,-2137,-168
-118,-28,112,1526,-78,1229
-53,-29,-36,-1737,1575,3861
3,104,-20,-3612,2669,4443
79,-23,2,-3145,-125,9360
84,-10,-108,-3507,-2521,5242
21,107,-61,-5425,-1128,-198
-110,-63,23,5436,-823,-1434
-38,-103,59,306,292,-1596
-63,124,-86,-37,-1564,174
123,-12,94,-133,-1846,1105
-90,37,50,-1536,-943,1254
100,-106,27,-3224,-553,1225
119,-96,48,-147,-1112,2915
-49,47,-4,4142,387,3764
-41,9,63,1449,542,4201
69,43,-3,213,1507,4192
-118,-20,59,2361,99,4536
68,32,115,678,398,4195
79,-17,76,361,221,2957
-36,-35,-125,137,-77,2536
-124,-34,-126,58,-186,1490
-59,88,44,989,1478,-5825
-122,-91,40,4536,-2114,-5312
31,-70,-50,862,-3311,-6308
97,-10,-48,1092,-4125,-5259
22,-105,77,-348,-3129,-2966
-101,62,-88,-577,-1861,-311
-11,56,49,-1,735,4095
58,-104,-87,-1692,2311,6144
-86,73,10,-1455,2607,7233
21,99,66,3084,2005,5322
77,-111,50,-2017,-1375,-1276
-5,41,114,1485,-1516,-3974
-101,-16,-12,573,-1765,-5487
-101,-32,-61,-496,-2604,-5606
1,-126,-31,-76,-1844,-3670
-5,39,116,-598,-372,-27
-111,69,32,-380,1815,5506
7,-110,-69,-661,3203,6365
12,-91,-56,1454,4964,6129
70,-99,-86,-1661,891,1056
-28,28,-24,4999,568,-1789
37,-32,-4,95,61,-5112
-37,-85,-7,1615,-552,-5299
114,89,-81,530,-1993,-5908
-93,-38,59,-164,-3453,-5414
58,28,120,-432,-2950,-4272
109,-94,104,-52,-2811,-3017
-94,127,88,2465,-2940,-1480
55,18,93,2047,-2959,-1086
108,21,-40,1012,-1431,-102
-6,-73,74,705,-754,1512
88,-30,-34,346,1386,2502
71,96,19,-434,2985,5093
59,53,-17,-5068,2316,7031
-84,105,-98,-5957,-145,7420
-118,63,-81,-422,-1450,373
-81,-31,72,2072,-156,-2036
81,-58,-57,245,169,-374
49,-42,80,780,702,-236
120,-59,-91,761,-602,-135
-39,25,43,595,-489,868
-91,-7,22,-397,-1271,1164
-69,-13,16,-1593,-477,1133
-62,33,-3,-2214,-607,1523
-99,99,-9,-1136,-947,2159
22,110,-20,2061,-508,3553
-15,74,26,-315,291,3168
-22,35,64,915,504,3935
45,38,74,2268,793,3399
18,-7,67,2896,1235,3080
-113,-25,22,3271,-612,-5092
18,32,-12,1935,-2892,-6328
-116,-16,-59,1315,-3512,-6525
-32,-9,7,1612,-4073,-5499
-92,-7,-60,-192,-2254,-1855
-106,-97,118,951,-578,3533
-67,8,80,-1451,2579,5342
94,-88,-95,-4772,2977,6309
78,-20,85,4101,1928,9320
26,-75,24,-2952,1512,-80
-12,39,110,855,-2806,-4698
4,14,-125,-122,-1106,-5621
38,105,-56,173,-2619,-5197
82,-114,10,880,-1793,-2776
51,107,108,-378,-1001,125
-4,-67,27,-566,1222,4366
74,-21,-12,-931,3427,6077
-54,-56,102,1890,4483,6646
-10,-13,16,630,1436,-612
9,29,-83,3631,741,-3812
19,48,-83,662,-219,-6274
62,10,-79,974,-1955,-6922
-25,68,-104,477,-3485,-6698
-75,20,47,-633,-4013,-5303
-114,-12,91,1595,-2796,-2845
-124,-105,87,3616,-3270,-511
84,-9,-17,1682,-1908,731
-54,-24,95,227,131,2854
-61,-86,126,735,1306,4083
-23,21,80,-2472,2172,5165
-85,86,-103,-3824,868,7570
55,-16,-119,-2837,-560,6513
113,89,-76,-3352,-1505,888
-25,24,118,4630,-416,-287
-126,-34,44,-1335,-1615,-316
-122,33,-1,-1396,-130,-71
-99,-81,-75,-1,96,-440
-81,28,-8,-494,-413,-105
-66,-26,-30,-324,-2018,227
-79,7,-37,-1485,-1691,850
119,-128,-56,-2652,-1003,1125
55,119,-4,581,-1960,2001
96,124,19,1722,-741,3067
-74,-12,17,1764,519,2978
1,56,31,969,100,3674
34,0,17,2378,123,3331
50,88,68,788,297,3279
-3,-19,109,1708,269,2605
-28,-123,55,2841,1055,2242
117,-105,-114,2590,-483,2253
59,-23,75,3116,1504,-6150
-106,-27,72,2707,795,-6004
-25,2,32,3073,-1777,-6122
69,121,-8,1883,-3935,-5771
98,57,-11,161,-4647,-4775
97,116,89,-504,-2594,-2691
-51,60,-76,216,-1530,1001
-72,-51,-14,-856,762,4533
25,-104,109,-862,2339,7125
-97,-27,-110,2812,3891,8288
116,-115,68,-4881,-228,2575
-20,77,-108,2576,-2691,-2812
84,10,16,827,-961,-4640
61,39,-70,-451,-2121,-5201
-20,-26,-66,23,-2774,-4912
40,78,39,-537,-1202,-2737
-47,-92,-100,-1222,81,798
-98,-57,-38,-211,1797,5618
10,-73,-126,-785,2855,6400
-12,-74,-100,2811,3980,6727
79,-124,-108,-776,1040,-357
127,22,-41,3567,-91,-3165
41,-23,52,159,-172,-5723
57,-101,-14,427,-697,-5949
-72,32,-100,-547,-2551,-5896
-84,-61,108,-938,-2664,-5461
-7,49,-115,-330,-2686,-4341
-74,-103,-127,459,-2192,-2562
12,93,-96,1908,-2843,-1288
-29,36,16,1760,-1578,-164
96,9,-118,281,-256,1743
63,-38,112,568,264,4594
121,-16,69,449,2245,4434
29,98,-100,-2410,1919,6235
-44,-46,-23,-2745,2896,5438
-99,-45,-48,-8308,-2910,1067
16,-115,-76,4441,-272,275
-39,-108,-14,1034,361,-683
-95,0,-52,-36,-859,-794
-55,40,112,-403,-767,395
-58,99,113,-1757,-1842,771
-73,66,92,-1552,-1367,833
-40,57,19,-1028,-46,1172
-91,7,18,1265,-757,2815
-83,-127,43,506,-927,3982
-25,-6,13,94,-166,3293
68,47,94,54,-373,4148
94,26,45,617,977,3173
61,-7,-104,2792,167,3999
25,30,88,907,1377,2085
86,-91,53,7009,1201,-4884
-104,33,33,1970,-3349,-5546
24,126,12,879,-3560,-6869
90,-27,65,2166,-3924,-5530
-91,127,14,-126,-4469,-4494
-108,-114,66,-1295,-2506,-2982
56,53,-71,945,-592,623
-78,41,57,-623,1152,4656
9,-32,-40,-831,3134,6783
103,31,92,-2326,3262,7584
-43,23,-29,1357,2042,3064
9,57,98,855,-2181,-2361
124,20,87,-1527,-2125,-5453
117,50,-57,-733,-2606,-5699
39,123,-26,471,-2855,-4519
127,23,62,-1096,-785,-1233
35,-114,-57,746,597,4628
91,56,19,-814,3079,6869
65,-27,111,3142,4417,7304
-23,-123,-38,-1945,2756,404
60,37,-60,4136,1372,-2164
64,22,35,1256,1578,-5695
-2,37,-43,940,-831,-6448
-95,-103,-122,-35,-1765,-6339
115,-68,106,-1200,-2808,-5826
-63,-79,-115,356,-2673,-3743
-43,-124,77,980,-2937,-2438
112,47,111,2336,-3213,-503
104,1,-88,2768,-2583,1372
-84,-91,43,-1622,-778,2313
-81,59,-106,329,376,4096
-64,-2,-97,-358,1528,4739
-88,92,-61,-2842,1536,6448
49,113,86,-3525,1009,5924
22,35,-93,-2228,-1682,-77
22,-25,-17,4210,364,-1430
120,-72,121,-1329,-884,-967
-77,-37,40,685,170,-698
-77,79,100,-157,-923,21
-36,-26,55,-161,-615,1115
-70,-59,50,-1605,-1087,1576
-73,3,9,-2083,-1502,2205
-34,91,-26,-1421,-1398,3018
-13,93,-2,914,-1047,3529
72,-48,-12,834,-11,2973
-56,120,-35,2463,774,3764
-116,-44,43,1096,-747,4295
-72,-23,109,1706,590,3763
58,1,91,2026,1308,3344
-4,64,86,1096,337,2719
-102,-90,13,4618,-1371,-5825
87,120,-31,3411,24,-6271
-18,-85,124,991,-3469,-6047
104,-120,-77,354,-3338,-6052
-119,65,-64,1302,-3886,-4813
60,35,55,492,-3705,-3893
90,-27,-103,-205,-1637,-1208
-79,100,50,-89,525,3223
114,72,8,-1183,2430,6019
-10,18,54,-786,3298,7391
126,-74,-117,-1047,2625,4954
-122,-125,40,3074,294,-175
33,16,93,715,-3488,-5185
-40,-58,71,-1673,-2671,-5270
52,72,-80,188,-2883,-4569
105,77,0,-237,-2778,-2686
15,104,95,-239,-1110,-333
-110,55,-9,-807,514,3141
-106,-111,4,131,2510,5859
67,-40,-117,1064,4347,7135
8,103,-30,-798,3854,3636
-73,84,15,2881,743,-1032
-33,23,-74,3165,1127,-4812
89,127,-15,-784,-62,-5844
32,54,-38,667,-1633,-5786
-65,-54,-70,-1044,-2052,-5736
122,93,119,-897,-2012,-5059
-106,69,87,-941,-2463,-4011
-9,-17,88,725,-2055,-2989
127,-106,-109,1952,-2737,-1299
101,114,21,1242,-1538,309
-20,72,101,1376,28,2573
-85,94,-2,614,-9,3474
-30,127,62,-1747,231,4261
75,63,11,-1596,1086,6164
-101,-45,25,-3460,411,6444
31,25,-53,-4706,-407,3290
72,-46,57,-232,-1586,-8
-68,-94,82,2725,-109,-572
101,86,58,389,-299,-60
65,-53,-40,-488,-13,530
80,-83,-43,-741,141,515
107,115,-117,-1250,635,853
-110,96,106,-1507,-115,893
-79,49,79,-1469,-386,1190
-72,19,46,-1664,-602,1321
-41,121,35,-2869,-1192,1369
-30,61,16,-620,-1673,2157
20,-121,49,671,-1899,2491
41,-123,48,1041,-1079,3099
-59,-6,-27,3070,-1578,-5316
112,-12,-93,2092,-3338,-6530
-67,-58,93,361,-4985,-6386
-4,36,-115,-1066,-4218,-5031
39,7,89,171,-1610,-1840
-35,-1,69,691,146,1689
-42,-121,65,-1232,1547,4595
-111,-38,111,-235,2488,6563
84,-26,-23,-521,3978,7005
-21,-9,87,2945,3179,5480
-55,-102,-17,537,-3187,-1439
64,7,58,-840,-1854,-4192
-25,-106,24,-804,-1754,-5439
-45,18,-42,-811,-3053,-5228
-15,4,11,-1214,-1595,-2916
-60,-84,110,-1568,-364,1077
119,97,-51,882,1559,5968
-16,-89,-107,-218,3500,6853
83,71,-43,1954,5067,3544
-11,105,-34,1741,-448,-1794
15,10,122,2680,605,-5127
93,16,-24,1189,-195,-7033
-16,-29,106,548,-2965,-7629
122,-42,-110,-384,-4012,-6671
-84,-64,-60,-763,-3069,-4243
106,56,-64,1453,-2395,-1944
108,127,-57,67,-3373,-1155
17,-22,66,1106,-1832,-185
65,-118,-87,827,-1059,3051
10,-59,117,-1009,909,3078
-40,-14,71,-169,604,5411
-112,115,83,-1398,2106,6188
69,-49,109,-1414,2893,5662
-71,7,111,-9409,-1874,3997
-99,22,21,-2735,-2875,253
-83,-108,86,3823,-863,-1398
-94,-119,-70,-1742,113,-941
118,-77,57,263,-638,205
-99,-120,-128,-533,-647,-332
-58,41,37,40,-762,-4
-40,6,-3,-178,-984,732
-103,6,-27,-679,-1705,1929
-91,90,-10,-1095,-1520,2719
-44,124,-33,676,-696,3382
-20,-5,73,1424,-1546,4191
-117,68,-32,822,1169,2932
89,53,14,1677,-581,3701
27,47,-103,1114,-806,3340
25,-3,-81,1731,402,2877
-34,-13,-119,2078,1084,2137
-78,-3,-66,5938,1608,-4875
56,-110,87,2633,-619,-6809
-116,99,-12,2397,-3213,-7050
-15,10,-24,-1319,-2478,-6109
-119,-27,-31,331,-2619,-3554
-11,-34,40,702,-1333,-1141
32,20,-47,-234,27,2793
-120,75,-82,-17,1993,6153
1,-91,-118,688,4439,7848
126,125,-100,1998,4968,7038
35,-108,71,-3721,-924,814
127,49,14,2256,-2173,-3642
65,-6,61,-1295,-2019,-5691
16,-63,126,290,-2931,-5839
-93,32,-5,-601,-2427,-4626
123,-33,58,-112,-1310,-1855
-25,-114,-99,-205,16,1482
-51,-106,12,417,1930,6294
91,-77,126,-186,3079,7058
75,125,103,1709,4450,5384
38,-23,70,-2080,-227,818
-30,13,30,4875,-86,-3139
79,-40,23,87,-52,-4928
68,-117,46,886,-447,-6171
-9,55,2,963,-1175,-6332
63,24,-6,365,-904,-6529
-120,-77,-44,-452,-1999,-5271
-77,-3,-73,1338,-1804,-3134
-41,99,-87,1711,-1385,-1191
38,-47,126,2362,-2494,364
50,8,-66,796,-883,1149
123,50,8,-322,-558,2558
-60,9,-123,-668,1053,4377
-81,85,-56,-2634,839,5073
-39,-81,-56,-3574,1440,5571
81,116,-68,-5151,-1006,8127
-117,93,27,-9052,498,827
-7,-121,98,6628,-724,-1612
-100,-64,-65,767,-2051,250
-51,-106,16,-2050,294,-618
-53,-124,-108,1313,-697,-873
-2,84,67,-172,-1556,-628
-36,-4,33,-885,-1841,64
-73,-49,8,-941,-2070,1538
113,31,0,-1937,-1747,1977
127,125,-29,-77,-1296,2787
-103,-121,-10,2203,-1785,4133
-20,6,-74,936,-462,3541
36,78,34,21,37,3569
73,-48,7,3870,651,3317
-93,-56,86,3119,-581,-5607
-29,118,23,1288,-2586,-6381
-84,34,-79,-425,-2975,-6618
42,-78,64,-2024,-3776,-7763
-77,-106,-32,1605,-2234,-3791
-55,92,117,-226,-1199,-897
-51,4,-32,-637,399,4079
97,-41,-126,878,2052,6667
36,88,56,-223,2938,6952
-81,-121,-19,2171,4255,5344
23,102,69,3988,2263,2521
13,34,6,-3001,-3838,-4305
-66,-54,-116,-655,-1600,-4299
93,-115,-99,-78,-2344,-4548
37,-37,-114,-597,-3448,-4279
23,-85,-10,-1228,-1854,-2460
-12,72,107,-450,-686,469
-73,-93,-34,987,953,5349
47,-2,-80,-403,2821,6984
18,-85,71,667,5015,6644
-33,-17,-20,4271,1553,2094
86,13,-41,2623,440,-4158
96,13,-84,149,578,-5683
33,-28,66,104,-1968,-6846
-23,15,114,-478,-2076,-7294
-63,46,-96,2160,-4616,-4898
23,-2,-88,691,-3633,-3266
41,-97,-89,1717,-3422,-1793
89,114,8,2247,-2175,-660
22,-111,-104,894,-1307,300
51,-12,-26,2874,-7,2352
-22,112,4,-478,1015,2353
1,-8,-67,-1164,4065,3295
-23,-4,-123,-1241,2727,5485
-28,-3,108,-4404,2407,5486
27,-70,58,-4660,-705,6996
29,108,-114,-6500,122,479
7,-97,74,4599,-1100,75
-39,-46,84,527,-862,-425
-72,19,-10,-1290,66,5
-105,112,-53,-549,-215,356
-98,63,-109,-760,-405,748
-87,50,111,-431,-401,1189
-59,-62,75,585,-344,1515
-75,-78,62,240,-1435,2374
-38,117,-35,103,-654,2277
18,-1,-15,-1693,-526,2192
-6,-51,-54,870,-749,2733
63,-68,-34,2155,-185,2990
47,120,-33,936,796,3185
88,-110,11,10459,-647,-5821
-119,87,-16,706,-2674,-5930
-5,-44,-122,1652,-3633,-6035
124,-40,-108,2565,-4113,-5234
-80,-86,-1,524,-6633,-4990
11,28,-71,-1179,-3844,-4184
101,123,-83,61,-1960,-1049
119,-78,-67,-840,777,2875
-105,51,65,-277,3488,6434
62,79,86,-936,3205,7324
0,-6,95,2945,3106,6723
-22,-123,-55,-2876,-1426,946
74,25,90,2181,-1582,-3607
21,-13,-90,-549,-2068,-4896
-85,48,-84,998,-2395,-4241
-13,-36,-10,-742,-3271,-4274
-4,84,82,-1145,-2003,-2896
-76,89,-85,-98,-779,147
-98,-1,60,61,1416,3895
43,-90,23,-106,2981,6026
0,-124,103,-4584,4112,7007
95,54,53,2063,1606,7819
-56,-8,-79,-671,-1161,319
113,36,-105,4695,1433,-3441
48,-19,-96,1140,433,-5441
81,7,25,1381,-255,-6587
-5,102,-43,80,-2026,-6770
73,-121,124,-362,-2667,-6473
-109,-13,109,13,-3293,-4688
105,61,74,1186,-3389,-3339
9,-120,16,707,-5382,-823
118,5,45,-607,-1850,348
-21,-46,-46,180,460,2686
18,115,-88,-2280,391,4694
-50,30,-128,-288,583,5633
-43,12,88,-1057,146,7355
72,109,105,-3293,-949,4985
-83,-2,30,-3400,-521,480
6,39,93,-870,-396,-765
-80,16,-47,1632,-318,-786
-28,-59,-61,-653,888,-1226
-33,113,54,-833,-1112,-636
-47,54,-15,-325,-1925,398
-69,90,1,-439,-1754,1241
125,52,-27,1072,-1422,2276
-106,-94,72,2401,-1229,3637
-24,99,-17,3579,617,3632
44,47,25,700,969,3819
44,-2,27,1906,836,4375
99,25,119,2713,274,3934
-110,56,112,3234,20,-5378
-70,-88,57,1493,-2056,-6269
32,-58,-34,-8,-2406,-6254
44,-17,-8,369,-2199,-4774
-21,-87,127,745,-1135,-2175
84,5,-12,-440,576,1026
-37,54,-31,-1153,1234,5061
90,-45,117,-557,2398,6520
90,12,-66,1923,4428,7360
22,13,18,-3354,-769,2212
-76,81,102,856,-2054,-2014
-1,13,-67,640,-1243,-4541
11,79,-44,-704,-1599,-5455
-46,1,-2,-83,-2220,-5000
28,50,81,-103,-1253,-2999
-83,47,-29,2464,-296,1306
-38,-11,76,-216,1953,5158
3,-72,11,-621,4092,6172
-3,-93,-119,641,6265,5927
-110,-109,93,1194,-444,81
-35,25,93,2232,-1239,-2975
36,-125,49,65,-221,-4909
-6,123,3,280,-952,-5844
-55,94,-98,-847,-1665,-6538
26,-18,79,-60,-3234,-6293
-71,123,122,-567,-3087,-5319
-51,-60,-61,281,-2262,-3393
127,31,-99,1711,-2251,-1345
68,1,-44,1626,-2615,695
-96,-3,66,1406,-220,1681
97,56,89,-562,871,3424
-12,-4,67,-327,1020,4674
-61,6,-99,-1749,1375,5725
12,-29,62,-5314,2076,7808
-12,103,-27,-5470,-1049,1032
101,-112,-88,3732,-1260,-35
-111,-60,55,109,-1005,-329
-127,53,-21,-749,-102,-220
-58,107,-109,168,-130,-587
-24,-58,57,585,-599,343
-39,-57,54,-695,-1792,1306
-86,37,36,-2231,-1966,1821
-52,47,-33,-1488,-1089,1765
-42,-51,-42,3098,-351,3725
-12,-42,60,863,364,3889
104,-77,-28,1043,2512,3539
114,-28,12,1287,1740,4158
98,-11,113,2790,946,4425
119,14,31,1999,1700,2377
-85,6,121,-613,-32,1556
91,17,-37,1564,-1218,-7045
38,39,-8,2285,-2619,-5636
12,108,36,1006,-3754,-4423
27,-20,116,319,-2059,-727
-54,-53,47,352,856,3501
-111,-51,73,544,2756,7223
-116,123,27,-1275,5561,8169
-49,39,-45,2378,5258,6054
120,-112,-2,-4385,-1902,-833
-9,46,-94,1203,-4492,-3841
56,-36,-3,-771,-691,-5636
-104,30,-36,816,-1915,-5390
53,105,-18,-516,-2463,-4404
39,43,49,69,-1046,-2058
-16,6,-98,-87,-989,640
2,47,125,1459,2395,6912
102,8,18,-580,4795,8192
-44,-97,64,-972,5001,4107
-73,-65,-76,-321,-1047,-293
82,4,-126,3633,-657,-3566
82,-77,74,-50,1174,-5540
78,-116,-8,1159,18,-6866
-84,19,16,237,-1537,-6255
-98,-94,-47,-220,-2272,-5541
4,59,-90,1019,-2464,-3634
122,-59,92,1308,-690,-2747
-88,-108,-96,1593,-2608,-543
106,115,-60,2422,-2699,-433
91,121,69,999,-520,1795
28,9,100,907,-970,3917
-33,-17,90,-662,1297,3645
84,20,-98,-1722,1268,4910
75,110,-5,-3585,2446,6738
98,-26,9,-6683,2711,5639
76,70,49,-6250,-2449,568
-33,68,113,4961,-1052,-190
-93,-2,105,79,-1599,-1107
-104,-66,28,383,-598,-262
-46,-6,57,-370,-836,-111
-92,-14,54,-568,-2262,924
-98,-67,5,-1409,-1497,1105
117,34,-16,-2795,-2304,2007
100,79,-36,-1237,-1411,3021
-90,38,-32,3832,-281,2876
61,-53,-14,1751,503,3985
95,114,-26,-95,1258,2889
72,6,25,1871,564,3862
44,53,83,-258,15,3492
16,-30,98,143,218,3311
-24,-32,-121,1249,-231,2588
