AccX,AccY,AccZ,GyroX,GyroY,GyroZ
98,-56,50,2993,1660,-3579
16,-51,111,5002,-1992,-7245
-8,-44,20,3539,-5141,-8328
50,31,-16,-1348,-4294,-7678
-66,13,6,4505,888,-2662
-34,-127,9,-664,7060,10479
96,29,-10,2251,5217,9037
-53,119,-22,-1252,-3345,-4919
-35,-38,90,-1444,-7907,-9240
64,59,99,672,-713,-6239
-63,-118,5,-2835,3873,12298
-40,72,16,5344,3984,5012
20,-62,116,-506,-7006,-8970
41,-48,-6,-2878,-8301,-12287
109,63,-74,-3873,-4728,-11320
123,-93,-11,-1731,-3502,-6098
-121,-85,-46,751,46,-2583
34,-15,29,-1245,1536,486
-113,-13,62,3901,6919,3161
37,-55,-124,-5598,9573,14637
-88,64,62,-890,-1150,19279
109,13,50,-8025,-5489,5272
40,-4,-71,8928,1443,-6950
-26,-100,-76,740,-1276,-102
-5,-44,-33,-900,3458,-1229
-111,106,-87,-2800,-106,2294
-5,-124,-54,-3819,-761,3522
-107,102,103,-2161,-2404,6244
120,8,-21,-707,-2841,7689
-72,62,35,-330,712,5274
8,77,-61,261,-1322,4098
-58,-70,-52,-399,526,3407
-14,-19,21,1415,-1418,1834
118,119,-73,1782,-279,634
55,-16,-111,3279,-331,-449
70,102,-96,3059,18,-790
81,34,-122,1130,414,-1018
77,22,-116,-833,416,-224
86,17,119,-1998,364,294
116,8,99,-1847,-47,-17
119,1,88,-740,-115,-228
99,26,90,-256,-271,24
110,71,84,-452,-35,146
121,82,78,-371,63,176
118,89,77,-62,-64,176
-126,100,76,110,-43,127
-127,107,70,111,-72,-12
-124,112,65,148,-185,-10
-112,-127,60,-130,33,179
-114,-120,55,-293,81,42
-95,22,16,4634,3133,-8091
126,42,81,8796,-2677,-9761
87,-125,-41,1718,-5091,-10510
-109,-6,107,5504,2569,-3346
62,102,-20,-3685,1165,12264
57,62,-63,851,2709,4601
-94,83,-43,-112,-6105,-6775
-109,-7,90,-2412,-4240,-9658
41,-24,27,3809,3479,2531
17,-68,-88,-4847,2183,11405
28,-35,120,116,-5493,-8475
100,103,-102,-108,-7531,-12416
-76,-36,-96,-5827,-6301,-11280
-97,-78,-105,-185,-2957,-6652
84,39,20,-1012,-459,-3068
120,86,46,893,2584,1663
-118,-72,104,-16,7323,9871
31,-10,103,-6952,2622,23352
20,-128,124,-8950,-2505,11535
98,-23,-10,9507,2776,-7764
-14,87,72,-126,-3190,-1958
-24,49,-43,2204,3009,-2040
48,-96,81,-3497,-487,1442
103,-112,66,-2783,-678,2169
-88,-28,99,154,-3228,5203
122,28,17,-36,-3085,9512
-124,-36,77,-3433,-448,8000
-28,-45,-10,931,-3257,3198
-27,-54,64,1547,1514,1439
6,59,-63,2806,594,1133
55,-92,119,2358,105,1740
37,77,88,526,-500,1298
50,-56,76,-481,-163,354
73,120,82,-1394,412,-846
87,90,77,-906,489,-228
95,95,85,-489,218,-297
117,104,79,-67,57,-308
116,95,69,748,-126,-270
121,110,61,330,-32,-197
-127,124,54,-584,51,-280
-126,-128,50,-795,-68,-132
-126,-117,52,-701,-193,-55
-121,-99,65,-566,-64,52
-116,-94,78,63,29,116
-108,-88,73,647,41,191
-112,-78,61,490,-1,271
-101,-78,51,291,35,186
-100,-73,39,-189,-30,198
-101,-52,40,-806,-22,163
-91,-49,35,-574,124,40
40,13,-48,3366,2069,-5801
-23,20,-32,7400,-1955,-6682
-18,76,-113,3117,-2943,-8398
53,15,117,1608,-1739,-6575
72,-20,-95,3372,2594,2621
21,-79,-49,-3681,2553,10195
-67,26,117,1565,1659,860
0,-15,7,976,-6066,-7030
6,25,33,-2130,-2444,-7646
-5,-9,69,1750,3927,1257
-42,-37,-85,-5889,2217,10339
0,-101,127,5174,1615,-4146
41,81,-85,-263,-7600,-10686
70,109,59,-4630,-9044,-9415
-20,17,-11,-753,-4399,-9406
-19,-39,7,-3412,-3007,-7371
124,-52,-38,605,1098,-2657
70,-45,13,1333,4008,499
-8,-27,117,1601,7510,8994
-79,50,-66,-3535,2676,21428
84,112,37,-9665,-2387,11011
-85,-83,-17,8896,1372,-3241
35,-62,-91,-1341,-2796,-2776
60,34,-31,2777,1280,-1189
98,126,69,-2745,1674,1456
-112,-68,-30,-3195,-1267,2767
77,-118,89,-788,-1148,4543
86,-68,-65,-966,-1024,7118
-3,92,-37,-2084,215,6019
4,109,56,-1867,-1551,4103
39,126,17,668,-729,3423
-6,-68,-1,1450,-136,1492
-67,41,-58,2456,919,1389
120,-37,119,1727,620,839
92,-69,119,351,-464,467
95,122,-126,-571,-553,380
95,64,-126,-1260,-390,-354
92,37,125,-603,-157,-497
-125,-9,124,654,233,-429
97,-21,114,1192,-321,-127
107,57,117,-663,-103,316
-127,56,93,-783,139,-162
113,30,77,190,78,94
-121,55,67,132,99,8
-116,58,54,64,-66,-36
-127,79,56,-261,-43,206
-114,80,59,-79,-17,82
-119,88,58,117,-50,109
-112,106,55,-69,-3,30
-117,112,53,-194,49,4
67,-122,10,-220,3498,-4663
107,121,123,2771,1701,-4793
12,-18,-120,6753,-320,-7006
3,-24,114,7294,-8076,-8005
90,27,-18,1246,-2885,-6777
100,123,55,3971,5165,6559
12,106,20,-5115,4362,8899
14,20,44,1824,-510,-831
14,-37,-22,-1048,-7760,-7412
8,28,22,-2012,-2350,-6515
-95,59,74,3734,7708,2409
-114,54,-24,-7600,4359,9577
82,83,-113,2665,-2741,-2884
41,-63,-64,1450,-8955,-9221
-28,3,-84,-6060,-10313,-12043
86,-31,73,-1782,-5302,-10953
103,83,76,-1106,-883,-5153
94,-122,-96,1810,6437,2132
70,-80,103,-4421,7204,18242
101,-21,81,-3345,-672,15825
-77,-128,68,-5735,-2199,4603
-34,-109,-57,5137,-2111,-4439
38,-115,-104,1481,90,272
23,111,-108,-1820,2995,1915
-16,74,-99,-2799,-195,2825
86,-93,26,-3003,-2726,5992
98,96,-100,-796,-1901,6582
108,-94,3,-1270,435,4885
44,-113,-6,-2887,-1192,3737
-44,119,31,-1109,-1724,2388
-64,93,-84,1657,154,1741
-94,-26,98,3693,445,946
-107,-62,2,2772,-61,697
120,-84,-11,632,-224,121
124,-120,6,-218,483,-471
-124,91,11,-349,612,-751
-126,47,36,-154,114,-596
-124,41,61,-87,-397,-463
-121,43,70,-135,-463,-380
-97,64,77,-981,100,-149
-92,88,65,-1611,106,-73
-91,120,53,-1501,-36,61
-98,-122,50,-258,7,201
-84,-116,45,590,124,-77
-83,-110,28,705,118,66
-90,-98,13,543,-86,216
-83,-87,17,-15,2,185
-82,-81,17,-245,9,24
-78,-85,21,-17,-28,-5
-74,-84,31,97,-19,-78
-54,-82,-126,1015,2105,-5363
88,9,-76,4176,-1665,-6526
-32,-26,-33,4733,-5819,-7736
96,10,-29,1107,-4799,-6925
-5,-111,10,6266,1883,-3375
-95,51,4,-3923,3592,11687
-88,-93,-58,3099,5029,7623
-35,-53,121,202,-7041,-5919
-87,-104,123,-1826,-6025,-6520
103,76,-23,706,1642,-5515
79,-75,38,-3368,4286,9942
-61,115,66,3056,2764,1784
-87,-122,18,618,-7434,-8868
-116,-124,-118,-3961,-9318,-12420
-65,-45,13,-2879,-4099,-13041
-10,107,-25,1469,-2187,-6701
16,50,-103,1108,7030,6514
-61,-56,13,-11528,10907,15821
-91,-42,59,5776,1957,18499
101,105,-3,-6510,-1231,-1362
58,43,30,1618,-1001,-3093
55,118,8,3200,-85,-3
-87,-12,92,-875,1230,721
-43,-32,-5,-1147,-1527,811
70,113,99,59,-297,1680
14,-122,70,-837,1086,2635
77,88,125,-1457,-791,4171
20,-1,120,-3246,544,3707
36,-107,-124,-1500,-794,2995
89,58,-63,1241,-1621,1855
-114,63,-119,-1698,277,1798
113,-95,-117,-1257,-118,3160
-65,127,-108,-286,-344,2638
-43,86,-97,765,173,1286
-61,46,-119,637,318,1372
-93,-36,114,1340,73,1390
-98,-82,109,709,-211,847
-113,-128,-125,79,-514,-178
-102,65,-123,-145,-63,-449
-87,50,125,22,52,-57
-94,52,121,240,-374,107
-105,85,115,-282,-173,226
-92,97,96,-332,-6,-90
-90,84,88,155,10,-33
-92,100,74,-118,21,84
-94,110,64,-219,-37,11
-79,110,60,-115,73,32
-77,116,57,-75,-70,-66
-76,123,55,-161,-150,37
-77,-128,60,-138,-122,60
49,113,-5,3460,2378,-4933
-14,29,-60,2458,992,-7137
92,44,-31,6059,-1918,-9179
104,4,-33,1108,-2318,-8911
-61,-38,-93,3926,3167,2979
-81,-29,-8,-5333,1650,9700
126,83,64,-505,233,-17
-115,29,-6,3371,-4230,-6705
-5,78,-34,-649,-1100,-6403
-15,76,-17,-2233,3961,8507
-70,126,-22,4675,2184,6162
14,-120,89,1452,-6838,-8413
14,41,-107,-115,-6923,-12540
68,-2,41,-4673,-5240,-12486
84,-60,104,-3450,-3550,-9414
-29,-96,-41,574,1564,-3383
107,-104,-125,1578,5426,6286
-97,21,-50,-8150,857,21726
-113,70,-10,-3522,2702,17833
44,23,-69,-2019,-3462,1224
36,108,-6,3175,-1191,-6012
121,110,-126,3370,-1026,-377
-7,40,-114,-5243,4445,809
-54,-51,-61,-434,-296,3903
-27,64,77,-2132,-433,5989
-100,-2,47,-2326,-839,6799
67,-49,-91,256,14,5253
-98,95,58,-584,278,3784
61,-9,56,1815,48,3512
-102,80,-64,4443,2240,4215
26,10,79,4261,891,3058
104,-78,83,320,-826,871
101,58,-120,-2318,-1429,-2067
-104,-19,115,-2172,-302,-1749
-118,-54,112,-1023,-58,-248
102,-37,120,334,-331,360
111,2,119,558,-110,317
-118,21,111,328,2,-110
-112,13,118,30,-109,36
-123,29,120,-204,-129,176
-117,58,108,-607,-35,-119
-104,49,93,-430,70,-446
-103,36,88,-12,-37,-240
-99,52,73,-149,-85,-142
-99,55,71,-40,-38,-98
-101,64,67,-49,37,84
-101,94,54,-342,31,118
-91,104,56,-231,35,127
-85,116,53,22,54,86
-81,117,52,127,19,47
-32,105,82,-1688,2255,-5578
93,-81,60,4977,-361,-8347
-38,59,-84,7461,-6546,-7871
35,-50,-34,2165,-4546,-8476
-90,-80,-96,3139,1935,-3682
-3,-20,-7,377,4181,12879
0,96,-5,158,5415,8080
-74,33,-106,133,-6460,-6507
45,-117,116,579,-6026,-7722
77,-126,107,4056,4319,-4098
-7,-18,3,-8278,4390,11286
84,-118,79,1756,5485,1768
116,83,-5,3149,-6816,-9520
-118,-13,-36,574,-8104,-11322
-42,-32,74,-1819,-5353,-13312
-43,-72,-21,3557,-2605,-8530
-84,-32,107,-3212,4392,2865
-4,-96,110,-7680,2571,18536
87,60,97,1307,6845,15765
-68,29,110,-10908,-2923,1905
68,-73,84,4047,-3687,-5451
-22,-16,119,2213,811,-451
50,-90,-21,-1878,-614,1140
11,-116,-69,764,-28,872
95,-9,-34,-1364,-1058,1144
-60,62,-29,-786,-578,3002
-61,-82,71,-1434,-1341,6969
83,113,-114,-2245,-501,8579
126,10,-16,-1963,-990,6970
26,28,40,1318,193,4496
-99,2,-110,1617,-1024,3888
105,80,-100,3030,-1195,4116
-119,-67,-7,-399,-165,-884
59,20,-1,-495,863,-2714
-115,35,33,1341,1538,-2749
-109,-58,77,3254,597,-1731
102,-40,106,2344,-533,-148
99,-6,118,186,-540,62
-78,10,112,-1533,104,-599
-81,-23,109,-651,65,6
-107,-10,100,331,-246,436
-115,55,101,-488,-368,332
-113,57,95,-444,-176,120
-91,83,69,-672,280,14
-90,118,50,-1294,61,-111
-97,122,33,-970,-257,-240
-104,109,40,132,-31,-80
-96,109,44,739,35,54
-102,-108,57,200,-225,140
-86,-105,65,60,125,50
-55,-107,-80,-40,2547,-6296
-8,96,-109,6988,-3030,-8071
60,100,-100,2401,-5448,-9034
-87,-108,-61,-460,-2711,-7505
70,-103,-59,5000,1985,-2622
-115,78,111,-866,2319,13269
108,26,-72,3473,4791,9772
-91,64,88,-2064,-2633,-4811
84,-22,33,355,-6853,-9534
-26,-83,61,-323,1345,-8675
18,121,-53,-1222,3330,11532
-84,125,88,3142,4618,8228
-70,-69,93,-1459,-5905,-8640
-10,33,116,580,-7293,-14278
74,38,-128,-3825,-5775,-13557
-109,-93,-9,1679,-1272,-10618
-111,8,117,-3414,489,-6535
-105,-87,-94,-917,6417,8950
75,-22,66,-7663,2749,21451
57,75,-58,432,416,15160
42,122,-68,-986,-751,-4620
-29,83,-89,4042,-3919,-1684
-70,126,-115,1720,780,983
34,49,58,-974,2004,224
-35,-9,-95,-3031,-602,929
-114,77,34,-456,-294,2183
87,-40,-108,-797,-921,3212
65,48,-27,-244,-181,4549
20,120,88,-5157,1465,4615
45,-29,-66,276,1098,3077
91,78,-88,1408,444,2260
114,74,-94,-889,-736,939
-75,-39,-125,-653,-74,1017
-97,69,-86,613,-872,1239
-99,-1,-56,837,-944,2107
-83,-43,-111,581,-300,2733
-107,-79,105,475,-670,2858
-106,-92,115,252,-233,2521
-106,-120,98,-811,330,682
76,66,58,295,325,-1112
-123,28,102,1002,158,38
-120,17,83,1747,259,417
105,-1,98,1565,320,316
-113,-6,103,468,199,-442
-92,6,109,-672,285,-32
-115,1,81,-628,-284,-169
-100,14,93,-311,-437,-185
-112,20,90,-195,-43,38
-102,56,87,-369,-120,-99
-105,60,68,-88,68,-156
-34,58,81,2565,701,-6075
-111,112,13,4510,-1198,-8585
60,-30,85,5771,-5559,-7144
-106,-61,39,464,-2660,-6516
51,125,-87,5141,3460,3861
19,88,-102,-5241,2679,10754
-23,121,33,809,180,3877
-86,19,-55,-24,-6782,-6283
26,-97,-66,-4006,-4876,-8873
122,122,45,4393,3010,-6137
101,6,-81,-2585,4272,11738
-31,-91,36,3489,2245,7156
-50,126,-117,-909,-6301,-9503
-109,-34,-12,-2302,-6742,-13291
-41,48,48,-9811,-5897,-12723
123,7,-7,-1342,-2349,-9877
107,29,45,-69,3461,-140
-17,-123,-120,-4673,5773,18121
25,78,124,906,4762,15424
-21,60,124,-6384,-3151,2958
111,40,1,7801,-2607,-4965
-22,53,-117,1442,1596,491
120,-55,57,-1720,42,950
-109,-57,-124,-2525,1103,1559
68,-41,-51,-333,-251,3283
62,-54,110,-898,-1876,5072
115,-52,-23,-561,-520,7512
47,58,15,-2320,869,6051
49,-118,91,-1820,-510,5986
44,-123,-116,1001,989,3341
7,-15,-99,821,-1012,3868
56,65,95,1210,-398,3124
-47,81,74,-75,-295,2089
-114,-9,68,-20,394,159
118,70,64,1495,539,-1767
117,16,94,2254,164,-1043
109,13,109,1358,-201,-40
104,28,-127,-58,-235,303
123,34,122,-758,-42,30
-126,28,126,-252,-155,63
-110,45,115,-239,39,-137
-119,53,107,-361,54,-206
-117,41,96,-9,51,-106
-109,58,84,51,-10,32
-102,72,77,-116,41,54
-103,78,74,-74,-51,-77
-96,88,72,4,-83,-40
-89,90,69,62,126,12
-94,97,64,46,-7,-81
-86,99,58,53,-26,-74
48,-100,14,3211,858,-6088
83,64,-94,5290,-2134,-8092
-41,115,-118,6698,-4606,-7345
-58,-31,103,-534,-3684,-7337
6,-69,-12,5400,1538,-1464
-88,8,16,838,3961,10962
-87,25,-114,-4332,2845,9116
107,110,17,-2487,-2501,-2793
117,-24,-32,536,-6876,-7822
-3,-53,-1,-621,-2275,-6664
110,97,30,3029,3685,2171
17,-67,-68,-5059,4255,9226
100,-60,-77,-1279,-543,-2104
109,17,-106,480,-5294,-9110
-39,23,82,-1537,-7868,-9374
116,-89,61,-1502,-5000,-12043
65,-94,-14,-969,-3417,-8781
22,-25,106,-544,2235,-1503
-21,120,88,2568,6537,6580
-74,-114,97,-6078,5678,17858
-44,-4,-119,6254,7627,10858
83,101,-84,-11784,904,4332
60,93,36,1275,-4643,-2924
94,49,-7,2715,-919,-2600
-3,9,25,-1991,582,-1233
109,-98,-103,-4586,200,-27
-3,27,44,-2568,-477,761
23,47,125,-741,-46,2570
-108,-85,-18,-1089,-97,6947
31,-56,-64,-2195,1829,5942
19,-47,66,-1276,127,4853
-89,-60,-60,-1225,827,3624
-123,21,-60,-784,-1358,3716
-49,-119,2,647,-1518,2731
-6,-51,-78,2764,520,3378
-58,124,-128,3841,480,2636
126,115,-126,1689,-61,1012
80,88,127,-1281,-225,-997
93,36,-114,-1748,-360,-873
83,-15,-106,-397,-435,-190
80,11,-107,-229,-308,-210
93,44,-124,-860,93,-208
105,51,111,-849,137,-367
110,40,95,-92,-6,-210
113,45,94,250,-98,-69
113,78,84,-197,108,19
123,86,72,-369,120,-7
-128,83,64,-30,-38,106
-125,109,61,-89,23,-33
-115,112,61,-27,51,-50
73,1,-104,7023,-1214,-5189
13,-33,-92,7021,-5938,-6783
64,122,127,629,-3706,-7770
72,-4,-91,3544,-1396,-4410
113,-15,29,3178,3091,4576
2,-20,-38,-6255,4269,8124
-100,79,-14,1601,2555,3782
-67,9,58,596,-6915,-6719
-60,-115,5,-3226,-4439,-7915
66,-27,-72,-1610,2306,-6637
-99,1,-122,484,3239,8873
-49,105,112,-5238,2882,9102
24,-1,-5,17,714,-2484
19,40,-8,4271,-7307,-10706
92,20,-24,-2279,-6998,-12283
-28,39,-58,-1522,-2566,-12184
71,-66,-48,-860,820,-3606
-18,-118,83,-1473,4819,2271
-96,-33,-93,-1981,1322,20304
124,-88,126,3687,8773,12367
24,59,104,-8699,-219,148
72,46,57,2213,-4089,-3604
121,-30,29,-88,-674,-2719
-82,124,-111,-1665,-602,-155
23,-78,67,-2175,-377,1723
-112,-63,122,-2277,149,2648
64,16,-57,-607,-333,5109
30,85,13,-1087,685,6078
-85,-120,-62,-2994,-487,7324
31,20,-30,-2786,-1064,4857
68,5,-99,545,601,249
-51,-98,-4,1360,-1382,2017
-24,68,116,1855,312,900
-32,-16,94,2040,541,69
-12,-36,-127,1195,606,-2174
-26,-68,-65,612,601,-419
-38,120,-91,596,847,-29
-65,82,-79,557,242,1040
-72,89,-81,-260,-397,1093
-73,126,-84,-1173,-598,1269
-87,125,-108,-1379,-1017,2115
-80,106,119,-837,-1062,744
-93,123,89,-700,-299,-185
-115,82,81,567,286,-638
-108,59,81,990,413,-335
-115,74,83,215,65,-35
-116,95,73,-648,30,239
-104,82,83,-56,186,558
-71,88,69,161,493,337
-58,102,65,87,159,-131
-27,3,53,-501,1860,-6224
-46,31,-19,6053,-1658,-8348
31,-73,68,2816,-5786,-8061
-65,19,-49,-2131,-4798,-7523
-110,-57,102,8358,1395,-3101
96,-55,42,-1474,2994,12774
-60,96,26,2300,3746,9275
-80,-7,15,-4667,-1947,-3420
-113,-21,125,930,-5708,-7462
93,103,7,-2271,-3495,-6408
32,-45,115,3552,2902,-2025
119,58,82,-5109,4614,11297
-122,-95,-10,1318,2325,1855
120,-80,-68,2228,-7052,-8811
38,-1,111,-4301,-7388,-11994
-74,70,-61,-2998,-3340,-11718
22,82,-39,506,-2522,-5512
48,51,104,-2033,2485,-627
29,-85,84,-3526,7973,17677
-23,12,-35,-3926,1181,19992
-44,-19,-60,-1769,1468,934
-106,74,26,2497,-2181,-5415
-93,-8,26,2078,-1036,-916
-97,2,-60,-911,-528,410
-113,-13,74,-2405,666,1058
-5,-95,50,-1477,-504,2666
-128,-7,98,-2114,244,5018
-56,126,-34,-2030,-204,7379
127,-12,-42,-968,1505,4388
-90,-120,-59,-1609,-960,4286
-80,-8,-81,404,-837,2877
-73,-108,83,-232,-816,2122
-54,90,119,261,-591,1919
-76,-42,106,2272,-118,928
125,-106,94,2042,-104,241
119,107,102,950,293,269
-126,71,99,-393,479,299
-123,60,93,-953,-92,330
108,79,90,-1357,-246,543
106,99,66,-1149,-188,-153
-121,78,58,-79,308,-305
-111,54,59,641,161,-359
117,29,71,964,-139,-35
122,61,74,-2,81,286
-111,81,57,-473,165,66
-112,83,40,-254,-37,37
-113,81,40,81,-48,30
-87,97,37,-78,88,20
-90,104,30,-98,-130,71
-103,112,35,-185,-129,3
125,78,3,-952,2454,-4897
55,23,-7,5542,521,-5654
10,-2,38,3435,-2987,-8055
-97,-79,-13,2238,-4610,-8318
28,31,-32,-1194,-3322,-7370
59,-13,90,5679,2889,-3196
115,115,-114,-54,3573,10980
-87,22,-5,-1092,4865,10004
-14,-63,35,-4119,-203,-1995
-50,-52,-85,1917,-6882,-5976
-75,-56,-101,-2579,-4895,-8535
38,107,-16,523,1326,-6726
27,93,-51,-24,4199,10197
-30,114,25,1332,4427,9952
-22,-124,105,-2321,-958,-4102
-96,81,52,1219,-6794,-10904
-72,44,50,-1080,-6491,-11813
88,26,69,-409,-4909,-11619
80,-46,91,-2865,-2633,-3898
-31,-45,-3,-2044,3569,442
-87,-12,126,-4392,3733,17513
73,54,124,2427,5610,14134
73,73,8,-4125,-1019,4942
-92,-94,-51,986,382,-1917
47,-122,54,874,-909,-250
29,34,104,-681,-244,-119
-109,73,-4,-1791,-1657,1596
-100,49,-3,-1449,-1406,3275
-120,46,110,-1011,-2730,6406
-16,-5,-18,-1600,332,10900
-98,41,-105,-4301,213,7362
-100,-33,70,4293,-1253,3237
54,125,-53,4237,497,3946
0,-30,28,4965,3067,2388
-21,83,-5,293,1535,91
14,98,78,177,-1359,-1629
-99,-47,-122,1046,-1179,-1699
119,-71,-62,965,-1489,-1217
95,-66,-66,45,-474,-96
110,-36,-86,-745,-55,-588
114,-58,-111,-609,85,-421
125,-51,-118,-595,-338,-275
-125,-28,124,-720,-166,-88
-109,-32,111,-137,31,-186
-124,-15,93,125,21,298
-124,18,81,-440,-81,113
-107,35,69,-613,-84,275
-118,29,74,228,-389,15
-101,21,67,1046,-74,93
-113,55,67,141,-16,197
-90,53,103,9792,2450,-11218
124,-78,-122,6105,-8228,-8685
113,44,47,-3865,-9113,-10585
-43,-60,-25,2652,1364,-5727
113,-98,10,2541,2531,13432
-126,75,6,-4688,4824,10413
-56,26,98,-3086,2492,-971
91,62,122,2178,-6572,-6542
73,77,-19,-5161,-3097,-7504
-47,26,8,1855,4491,-8062
28,-25,-34,2043,5630,7355
-78,-54,11,-3868,4170,9687
-3,-77,-109,2796,252,-2871
99,2,-94,2474,-8533,-7901
-56,-40,52,-4619,-9195,-10509
-10,-38,-12,-2429,-4321,-12060
17,38,-4,-228,-2389,-6268
-97,85,-50,-814,924,-3260
-89,-62,-99,-8196,3967,20001
-103,112,-62,2526,3497,15691
18,-118,44,-9434,2541,6271
-72,59,-68,3602,252,-79
94,-104,-78,77,-3396,-1916
-13,-10,19,1063,-42,-220
78,51,33,-437,-1174,612
-44,94,-53,-2019,-1748,682
42,101,-68,-1760,-1461,1564
-92,126,110,-1231,-1037,5942
93,-100,63,383,-1772,10945
88,-18,6,-4660,-177,7701
-80,-64,-10,-1849,-4188,2943
98,82,-7,5193,720,4596
-81,-90,-96,5685,2420,1719
74,-105,5,2192,-765,-363
89,-43,64,-610,-705,-1008
114,64,56,-575,36,-701
104,68,59,-543,143,40
110,56,69,186,-79,284
118,45,99,861,-201,89
-118,70,97,-171,-38,-394
-109,73,103,-817,-295,-674
-101,58,104,-643,-220,-301
-113,70,102,-596,-150,-278
-115,91,84,-807,163,-126
-115,93,63,-244,143,143
-112,104,50,354,1,282
-97,-127,53,234,41,276
-91,126,52,442,198,200
-90,-115,38,-1,74,175
-98,-96,34,-599,-118,42
43,-106,15,-95,6711,-3608
86,-80,33,6531,656,-4257
-111,63,-29,8684,-1558,-6454
67,26,-114,5758,-7096,-7433
-18,22,100,-390,-6352,-6603
102,18,10,-1105,-2024,-4432
-40,-80,113,8861,2391,5545
-78,87,-93,-3923,6105,8823
-73,108,88,-3367,4211,8239
28,-74,-46,-2236,-3478,-1806
39,-55,60,3472,-3898,-7581
-68,-82,-34,-3287,-3452,-8896
-43,53,86,-99,547,-7161
35,-27,-120,6661,4510,3101
-75,-73,124,-8123,2963,12440
99,46,68,7515,3995,7652
-11,60,111,-798,-4975,-6887
-79,-66,127,-641,-5640,-10954
73,36,-33,-1493,-6720,-12557
119,-112,-77,-1132,-1742,-12340
2,-70,-124,-2396,-702,-8465
115,-54,-87,-2816,4046,16365
-52,46,-73,-479,-745,16156
67,84,45,-4252,4929,11439
-13,97,39,-1913,-1220,2277
-114,16,71,6292,-2359,545
82,-114,59,-1994,-1931,-863
52,20,96,-4272,998,-2618
127,-81,60,2725,-981,-451
62,-107,101,51,-2745,1408
-57,-25,110,-2914,-893,5056
-85,124,-43,-390,412,7608
-66,-9,-16,-2824,708,7009
25,-3,42,-792,-2688,4798
-7,-72,-19,11,-1287,1645
-55,-100,-103,1233,420,1846
-76,58,94,1940,592,1276
-86,-33,75,2287,30,1154
-104,-76,46,1072,123,469
-127,-95,49,-464,14,-587
126,60,78,81,-153,-556
116,17,109,272,-177,147
120,68,90,-481,25,50
-121,72,81,-511,90,-122
-111,68,67,-107,32,-258
-104,65,67,178,76,-59
-112,73,64,12,-42,-102
-115,89,64,-39,14,8
-106,100,65,40,91,37
-98,109,55,73,78,-89
23,60,-126,4241,1821,-6253
-27,101,-92,8569,-4684,-7067
127,-102,0,4153,-5285,-7843
-20,0,-60,-2120,-4479,-6109
-39,8,-5,3789,2913,-3317
115,-118,24,-1053,3162,11409
58,17,52,191,2862,10081
-57,-58,-7,-5894,-1865,-2462
-36,-19,81,3510,-4534,-6480
72,77,1,-3805,-3233,-8341
50,-47,-60,3431,1158,-6125
-75,112,81,165,2379,12631
70,-54,-59,-1039,3225,6955
-29,-127,-31,-564,-2514,-6122
50,-35,94,998,-4529,-11429
113,-116,-40,-3540,-8006,-12289
112,-41,83,-653,-4010,-11909
5,1,89,-1160,-1727,-3177
-91,-117,-83,-1923,9395,9280
73,-3,124,-387,-177,17218
61,58,-115,192,6331,10720
47,-34,-125,946,-297,-5210
-125,-110,42,4362,-3938,-870
39,-8,23,-551,-1167,200
60,-13,-86,-3358,380,1592
19,-53,35,-4189,1946,2590
-2,123,-92,-2459,-1059,7357
41,100,-55,-2109,-891,7348
-7,49,-64,-2411,-1274,3649
36,-79,-17,-1092,448,2409
-80,-25,49,1216,-1443,2123
-19,99,-84,2004,279,1649
-43,-112,91,3767,922,1789
3,86,99,2179,1442,1749
0,93,95,91,684,598
-60,99,94,-1303,-166,406
-108,67,96,-718,-574,71
-112,50,112,-140,-319,-17
-107,37,116,418,165,-523
-97,10,113,838,60,-561
-94,16,120,47,-291,-544
-101,28,-126,-402,-388,-427
-95,20,116,-261,86,-168
-93,36,96,-111,-43,-334
-85,51,87,-142,-141,-149
-73,90,82,-554,296,-959
-42,127,68,-463,676,-529
-44,116,68,394,283,289
-69,114,82,462,-297,372
-75,-111,85,-352,-147,406
90,115,-10,6646,1785,-7405
119,26,-23,4369,-1735,-9038
94,111,-81,3348,-2776,-10298
69,-81,-73,67,-445,-7461
-2,-56,-71,1824,1717,13870
-17,-27,52,-5226,2258,7595
125,-65,65,-667,1306,-279
76,-41,-100,2095,-6926,-6908
-117,-98,66,-3358,-5412,-7528
47,-72,-85,2833,3464,-5501
57,91,-25,-2169,3986,13942
51,-59,26,2351,4530,7973
-94,-68,58,-1419,-5295,-7103
-117,-6,-113,27,-6178,-11169
77,-52,64,-2541,-5962,-11445
96,3,-25,-67,-1563,-12089
-69,35,-128,-497,-44,-4224
-5,-115,122,-5644,3244,10218
75,28,43,-3144,5175,20049
-35,-57,-38,-4216,6862,8100
-55,65,-109,-697,-2301,1258
-52,-95,44,2939,-3035,-3700
52,-20,-103,-686,-1897,-361
-67,-10,120,-3334,-207,-316
64,-123,70,-1270,-21,1520
-101,-68,98,-1574,-2178,3392
-101,-59,-116,-1939,-483,7657
51,9,62,-1363,772,6879
-70,-112,40,-1738,-247,5181
-38,-5,58,-2154,-1465,3784
-10,-35,-24,2,-679,2710
31,90,-96,1233,52,2179
-4,-45,84,2727,-316,1704
-50,-113,76,2865,-474,1282
-92,-116,84,1101,-301,373
-126,90,97,-76,204,-418
-128,49,100,-61,162,-185
-128,33,121,-1,-252,-95
121,38,-121,-161,-280,-207
-128,43,-121,-290,-88,-498
-110,33,127,77,102,-404
-99,24,113,391,88,-412
-125,31,102,171,-267,-435
-117,48,96,-277,90,92
-87,67,73,-471,128,-41
-77,74,68,-319,114,158
-85,87,61,-35,41,13
-93,77,58,548,-20,-228
-90,70,68,716,-92,-75
-97,81,79,213,-179,-104
113,29,74,-6195,2253,-2451
66,-115,-67,3901,3967,-4751
68,-118,97,6118,1190,-6219
25,104,-127,5241,-5636,-7288
90,101,-5,1112,-4702,-9535
29,-74,19,4678,-593,-6679
92,31,-111,5220,5752,6634
17,29,-25,-9420,3860,8545
4,110,9,-3860,-1209,4350
21,39,-113,3712,-5212,-6675
109,-70,-26,-2581,-2589,-8506
2,-24,-99,1412,-165,-7471
-3,-36,55,1531,5531,2436
16,74,-1,-6382,2404,13222
-95,-16,109,-1537,841,-2568
-63,72,11,3260,-3618,-7549
-40,105,-4,-1717,-4478,-10878
24,-96,46,-2617,-1593,-10732
-9,-35,45,661,498,-9501
39,55,-80,-708,1648,-9716
0,97,20,-7530,701,18764
104,122,127,-3043,1433,21383
-55,77,34,-8984,4098,372
-55,4,-29,6188,-3174,-2714
106,125,102,1053,-2309,-2147
24,-89,-75,-1159,-768,-438
23,3,-69,-3127,-2353,1179
-128,-38,-83,-193,-2727,3206
30,-84,-2,-1467,-2762,6835
85,-63,96,-1599,-345,6877
78,31,49,-88,-1100,4798
67,42,-69,482,-308,1678
59,-96,-95,-507,-917,2795
76,-5,-77,28,-225,952
99,-81,-94,374,379,1188
96,21,-86,1735,-74,1518
-117,-53,-106,1731,-1,1822
-93,-105,-103,2169,-120,1577
-75,117,-107,1857,388,735
-91,86,-97,883,551,643
-114,86,-88,-366,120,422
-112,39,-109,18,121,-389
-118,-11,-86,704,71,-79
-94,36,-108,7,371,-34
-74,27,124,-31,254,-8
-102,21,-122,354,-231,259
-108,32,-126,23,-193,338
116,72,-121,-561,-405,84
-115,61,120,-624,140,-97
-77,61,115,-224,-4,-312
20,-70,-98,7655,-776,-6776
43,-50,-68,3539,-4475,-9190
-97,29,81,-844,-4923,-7711
17,116,29,9822,4796,-155
49,41,-5,-4164,3491,13503
-75,75,-20,6028,3487,9590
113,67,112,-622,-2807,-4965
64,103,110,-4166,-6788,-8159
4,42,100,-4412,-828,-7394
28,-32,95,7897,3873,-3244
48,121,-45,-8538,4007,18398
-72,105,-121,5422,1965,3810
-22,-53,57,603,-7272,-11017
42,-67,3,-1169,-5298,-12484
104,47,-53,-6800,-4465,-12048
108,47,58,-166,-444,-8732
74,-62,-104,-3606,835,-3777
5,46,-7,-4383,1361,17235
4,30,-61,2339,234,17561
100,10,52,-9921,2241,4047
-82,-20,-61,9121,-937,-2616
-80,-82,-100,-253,-2063,-1303
13,-52,10,-1003,-1331,930
32,-28,126,-3785,-207,3355
-4,18,56,-2832,-93,5533
-101,123,-49,-3432,-3592,8018
97,35,-122,-2148,-5067,7651
-87,-57,96,-364,-1086,4551
-65,-124,0,1858,1050,1318
-9,72,31,3606,1631,-131
-14,-13,-40,1555,1748,496
-41,-108,-34,953,1161,515
-96,110,32,757,-849,691
-100,114,88,-516,-1225,418
-99,97,115,-1187,-866,-190
-93,86,119,-617,-112,-356
-90,73,112,106,494,-347
-84,54,77,755,647,-599
-76,44,58,914,540,-535
-85,38,63,628,98,-126
-76,59,77,-452,-209,196
-73,80,73,-946,-149,384
-74,93,67,-616,12,331
-56,111,61,-275,36,60
-62,122,61,195,-51,80
-62,-121,62,59,55,-28
-68,-115,57,-173,99,-161
-61,-118,49,-254,134,-116
-57,-118,40,-211,80,-115
-54,-114,30,-130,46,-49
-123,121,-31,6133,3900,-6776
-35,61,-5,4364,-372,-8357
-42,-35,112,4451,-6025,-9523
-111,-62,-7,370,-4891,-7873
60,26,-57,4787,3755,2595
93,119,-7,-5443,3829,16718
-95,127,-15,6575,3627,8198
-23,46,-115,1774,-5473,-9709
47,-124,29,-1379,-4426,-7878
-97,-5,59,-1892,-2274,-6932
32,-34,-95,6162,4309,2944
-111,-66,-88,-10136,4291,10385
2,61,-50,4785,1864,3368
-17,42,-25,3689,-5149,-7991
-87,-34,-118,-1910,-6949,-8975
-87,-117,-87,-3237,-5811,-8895
-7,116,69,619,-3867,-8592
-106,56,111,-2400,-1057,-7363
82,-67,11,-3631,2338,-5234
85,62,116,-7951,298,22063
-105,80,-125,10225,-1877,24051
-48,4,-23,-14021,1830,654
16,-101,119,7621,-3307,-2881
29,5,-16,-646,-90,-1840
-123,30,-106,1254,1486,454
72,-16,24,-1916,1776,2350
-65,34,86,-1070,-415,3552
-45,-99,-84,-1950,-1816,6653
-71,-92,-65,-3300,-500,5589
-108,-109,74,-772,-2417,3588
-40,113,-55,-214,-204,2303
-101,-56,-18,1367,-841,2739
-39,0,-123,2838,791,2460
-40,-41,103,2513,526,1574
-55,-29,64,-175,545,750
-124,-75,53,-1734,-499,-577
-126,123,71,-1166,-415,-705
126,68,75,-208,-31,-453
87,76,87,399,-207,-96
81,108,95,-249,21,82
125,112,87,-292,404,40
-121,51,89,873,293,395
-101,107,73,219,246,640
-70,-114,52,-555,229,25
-82,126,53,-222,-26,-255
-97,124,53,-166,-48,-161
-100,125,61,-231,3,22
-102,127,67,-115,115,78
-80,-123,66,-12,229,176
-82,-106,53,-8,36,-70
-63,45,33,2611,3418,-3094
-53,32,121,8782,3468,-5806
-90,-34,-42,3222,-2066,-6994
126,-90,-77,5133,-1523,-8133
-116,94,-105,1531,-4086,-9141
-11,-9,124,-325,-1567,-4387
-34,84,84,3936,5350,7715
39,68,76,-5992,798,9543
-97,-42,108,-5975,-979,1282
37,55,35,3679,-4887,-5623
-66,-14,59,-341,-3016,-7558
16,23,-41,57,-1510,-5279
-76,-70,-65,4268,3386,700
-61,-60,99,-6338,2754,9762
-109,88,4,4240,4879,5284
100,72,-67,203,-5929,-5518
115,24,-124,588,-5191,-9682
-51,94,78,-1745,-5695,-9524
-46,82,115,-3873,-3524,-8915
-92,-30,76,-2702,-592,-5440
-92,34,57,-1143,2962,-2099
90,123,-109,-5703,2470,22937
12,27,-48,1283,5317,13249
107,-31,-1,-9700,-4377,2995
96,-54,36,8304,-86,-4187
-38,46,-73,761,-1842,-1466
3,57,-102,-2186,-1471,1116
-19,-42,62,-2546,-196,3442
74,-6,32,-3227,-2368,5048
-10,-45,-58,-2880,-4836,8126
-83,102,78,979,-3079,6396
-84,58,-109,-1944,-1230,5892
90,82,117,72,-1843,2736
111,-123,-12,5917,1112,2974
-108,-80,2,6068,3016,1748
-68,10,-22,2456,888,207
34,-127,95,209,-1419,-861
118,31,-94,-655,-1024,-914
119,-27,-97,-483,18,-428
76,-55,-102,89,157,-486
47,-76,-91,749,-247,10
85,-20,-85,-350,-121,51
126,3,-103,-1213,42,-229
115,-6,-105,-440,-127,-95
105,-4,-122,200,126,-246
122,6,113,197,267,-206
-119,26,95,-329,97,-173
-120,34,90,-254,-89,-45
-111,36,82,108,98,-103
-106,51,78,-21,63,-28
93,-72,39,142,3933,-9739
119,34,117,3786,-828,-10192
-113,-105,-14,269,-2767,-10300
126,-123,107,4279,-1129,-7077
-70,70,-61,4158,4898,4729
42,-112,108,-6884,2121,12982
70,83,123,7831,4955,5076
104,11,-65,-1600,-6638,-5599
-10,-118,-17,-2573,-4241,-6820
-25,-18,-102,-1657,-692,-5735
-3,102,50,4047,4154,-8404
105,107,-37,-2135,2173,15856
-18,31,-8,-1476,5886,8467
-80,-12,85,-5472,-2576,-1046
63,-83,2,2751,-5857,-8585
-32,-73,-94,-1686,-6182,-9765
86,-61,-48,-7314,-5527,-10815
-73,-49,65,-1491,-2473,-9600
-48,123,-28,-944,500,-6809
-40,-105,-62,-3496,6669,4046
-49,70,65,-6309,-653,20093
-109,-117,24,2061,4168,13332
115,-82,64,-7170,1405,616
99,-45,122,7787,-1850,-650
86,-59,89,209,-2581,-1254
95,-117,-113,-1389,-1052,1052
-114,-42,95,-3031,1289,1332
109,-24,18,-3121,-19,2621
3,-40,-83,-840,-1554,6020
-116,-77,-63,-2117,-243,4307
-39,28,-13,-1841,-405,3904
-27,123,-65,1198,137,2220
-47,2,122,721,-10,1446
-100,28,113,776,-245,1164
-38,-46,117,76,528,1141
-44,-10,115,-1165,412,1338
-60,-37,71,-1206,5,371
-73,-62,67,-543,-246,362
-73,-98,99,470,335,-910
-59,124,94,1107,917,-535
-77,-101,101,181,211,-139
-56,-92,95,-75,156,-51
-33,-114,78,385,90,-217
-49,-126,86,720,-423,-352
-59,-112,102,142,-125,-973
-54,-59,116,-988,139,-527
-37,-52,103,-555,190,-171
-26,-60,85,269,170,-26
-20,-60,76,463,-200,-213
-37,-59,75,-103,-169,-274
-37,-40,125,4622,1066,-4149
-19,9,67,5444,-949,-6575
45,-95,80,4629,-4242,-7586
71,68,-17,-2640,-5171,-9413
122,117,85,5703,156,-5421
13,88,-41,356,3174,12145
118,78,126,-6581,4183,9227
29,-85,-17,-3696,2450,3700
34,91,117,1032,-6743,-7392
17,-64,38,-1194,-1604,-9014
78,-52,115,4654,2743,-5493
-46,7,-96,-2811,3760,9822
61,5,-2,864,4746,8500
126,54,-79,884,-1346,-5021
-55,-18,-29,2469,-6569,-9842
23,-32,-84,-2012,-5973,-11314
-63,-18,92,-2761,-2647,-13022
-18,-19,-103,-28,-126,-9631
-115,10,7,-674,3901,-6107
26,75,-118,-7354,1432,6072
-67,-77,-51,-9000,1733,22568
-99,-75,-107,-4315,-2183,13465
-19,20,41,3945,2569,-3799
24,-54,123,2429,-7788,-3713
83,-98,52,1768,973,-915
57,63,-98,162,-165,1009
108,20,30,-3368,-593,727
-104,-123,87,-2121,-2263,2738
29,-50,83,-283,-1246,6866
57,88,-2,-1367,1297,9074
80,-14,-22,-5499,294,6159
-96,-1,-77,1049,-1586,4876
83,49,-125,1426,-144,6384
32,8,-52,1656,1985,4641
99,-124,-24,1570,-71,905
86,-99,109,1615,-1734,-2248
-61,29,108,1206,370,-2593
-69,-51,92,373,1163,-1649
-122,-17,-125,66,-315,240
-123,-52,-113,984,-653,739
-83,-6,-103,407,-227,519
-61,33,-99,-839,-219,-260
-101,29,-103,-1010,-662,-898
-109,11,-96,-648,-622,-866
-100,21,-108,-593,-103,-429
-98,47,111,-780,226,-4
-106,85,93,-949,-126,326
-87,105,90,-519,135,276
-73,115,69,108,315,125
-72,126,61,140,91,115
-120,-22,-38,3324,3574,-7770
18,61,28,7164,-1843,-8733
40,-45,-28,6062,-4298,-7719
95,-117,11,411,-5734,-7647
78,-78,6,4431,647,-2381
-48,32,20,3599,1922,8669
-32,-28,-104,-6163,2195,9843
-102,-22,-99,564,2155,-49
-32,-61,18,-1385,-7719,-6545
41,47,-66,-1642,-2760,-6885
115,91,-97,4364,3621,219
54,109,-101,-4176,3485,10213
87,28,96,727,2407,4788
127,17,106,4300,-2869,-7268
-5,-73,-92,-2458,-5879,-8882
88,-46,-76,-2129,-6047,-9100
-15,96,78,-754,-4233,-7580
-68,48,78,-1928,-939,-5688
-28,-119,-112,-1458,2914,-3886
57,-17,-127,-6117,6721,15900
31,27,111,-309,1140,20758
70,-42,21,-11270,2528,4071
-38,27,58,6252,272,-3464
-28,44,-78,649,-4191,-1053
78,-80,-62,-178,242,-964
-69,-55,100,-3252,203,572
80,-82,37,-1408,1217,2016
1,22,100,-512,397,3648
11,75,-73,-2723,-635,5909
-111,61,126,-3420,1561,4161
69,73,-37,-1439,-1783,3739
107,4,-39,-1252,-1383,2253
69,26,-43,-118,-956,2243
69,-49,-76,376,-495,1711
103,74,121,1315,48,1250
123,-76,115,2271,-208,1625
-113,-109,110,1291,180,1170
-128,96,120,26,693,851
111,69,115,-800,597,96
117,52,105,-848,315,-160
-120,41,110,-315,-185,-46
125,68,113,-235,-286,67
127,96,112,-620,-110,-204
-97,94,87,-575,371,-346
-101,94,71,-178,142,-178
-102,103,60,40,-147,-101
-93,122,65,-188,-250,-176
-97,-128,73,-326,-119,-228
-102,121,72,-21,18,-119
-103,120,60,212,93,109
-10,42,9,2471,4232,-6206
115,6,72,6346,-2514,-7350
108,-124,-75,5982,-4321,-10783
-54,24,38,-685,-2903,-9171
-120,118,2,10067,4749,-444
-55,37,17,-6438,3601,12452
-28,-102,4,5855,4044,7334
113,-87,14,-129,-6359,-8090
-102,-91,-125,-988,-5877,-9202
81,-47,45,-966,-2084,-6165
-119,24,-61,4456,4237,7652
-94,-98,92,-8679,4219,8370
17,-71,-42,1900,5268,294
108,89,-82,3212,-7286,-8586
-37,49,-53,-1047,-8134,-11175
50,-125,121,-2223,-5394,-10708
-10,61,-114,-553,-2061,-7980
91,112,126,-6744,3381,3713
50,4,118,3149,2535,21733
-60,108,-50,-6029,3644,8889
54,-124,-83,-514,-676,385
-82,-84,15,3592,-1896,-3101
70,-109,28,-1090,-2784,447
-37,-26,87,-951,-909,2145
41,73,-52,-2748,439,3150
10,105,-75,-779,1758,4555
22,-99,40,-813,-496,5531
-92,126,-34,-2898,260,3926
-89,54,-85,-1753,-548,3102
-116,-109,-23,27,-1907,2689
-34,11,-30,1593,0,848
-61,32,-64,183,872,606
-72,123,-95,617,657,552
-91,8,-98,894,-343,892
-106,-64,-122,632,-1237,1376
-92,-111,-124,-488,-1101,272
-61,-121,119,-811,391,-1720
-82,110,127,85,565,274
-92,115,-113,818,93,174
-70,-110,-105,273,234,353
-67,-107,-113,347,264,433
-67,-119,-126,673,202,248
-82,-124,108,233,22,107
-76,107,96,-62,-6,171
-78,123,97,-592,-142,307
-52,-127,87,-510,-114,644
-45,125,75,-178,-227,733
-56,113,62,24,-209,451
-50,105,69,-151,-153,186
-95,118,86,-375,-304,353
117,89,107,3658,1036,-4054
-20,-104,7,3514,-415,-7609
79,-26,-79,4773,-2339,-9069
98,90,19,1976,-3941,-8341
47,36,125,7714,3452,2895
88,-39,-98,-1600,3336,9714
91,58,-110,5289,4412,7486
-3,-13,-84,-1724,-5814,-5091
-62,126,7,-1985,-4512,-7003
70,-70,-90,-4005,-1103,-6392
-86,39,13,7158,4791,-1003
-121,-37,-6,-8446,2886,13057
-101,22,84,-3246,-1590,5784
-24,-113,61,5190,-1417,-7965
-91,68,121,-1054,-2242,-10906
94,5,32,-1706,-4329,-10408
60,-78,-9,1109,-4456,-9409
-49,14,30,-3160,-2236,-5687
12,-104,125,712,4225,-2314
-72,-4,-118,-6316,7678,19233
-57,113,90,7631,3774,18571
84,50,-112,-11085,-3074,-123
-122,20,-124,8423,-651,-4343
-60,-104,8,1207,-915,-787
-113,-8,-48,-2301,-223,1751
81,3,84,-2453,1643,2175
64,27,102,-4093,-51,3357
33,-3,-89,-2166,-2570,7179
-44,61,45,44,-150,5735
-34,61,96,-3270,-1194,5648
34,104,9,-953,-486,3363
-29,-80,48,286,-1838,3040
12,25,-26,2718,52,2596
30,-41,126,2953,885,1806
-97,-40,73,1798,-64,158
-120,104,111,962,-377,-1121
121,33,-113,189,-257,-1284
109,-7,-115,-491,-63,-744
106,-20,-122,-143,84,-10
114,-15,127,118,38,-130
-115,3,118,236,-19,-27
-108,16,-127,126,-48,-111
-101,13,125,99,-71,-145
-101,30,-128,-300,-104,-99
-109,36,119,-416,-46,-112
-104,34,111,-37,52,24
-97,54,98,-34,-6,102
-93,67,94,0,-22,-6
-83,74,88,-1,158,48
-91,83,77,-73,-4,-56
10,-26,-123,2507,2620,-6204
-84,75,76,2375,-1102,-7591
99,-123,50,3032,-2919,-9055
13,119,-17,-199,-3284,-7756
-24,59,-115,9973,1679,-1422
66,93,37,-3468,2610,10413
-84,60,68,1514,3082,9498
-99,12,-109,-7049,-1542,-693
-47,-86,-22,4734,-4597,-6541
32,106,45,-2927,-4545,-6750
45,23,-60,1124,904,-5364
-106,77,-58,-2600,3285,9449
103,40,-7,2020,3742,7290
39,-13,96,-1572,-4647,-5779
-119,-5,121,-271,-5036,-9938
32,-128,-104,-3458,-6186,-8967
-38,6,63,-1022,-1925,-10066
28,-29,-54,-1824,-1434,-7309
48,-91,-97,-1401,3205,-6263
122,95,-74,-12240,5141,24453
81,-14,109,4120,1442,21019
-116,-42,102,-10283,-164,-706
-50,-74,-64,10080,-1967,-1561
78,49,19,-2236,-2317,-265
-111,-100,-80,-1647,-745,1484
8,7,124,-3623,1100,2456
6,54,-104,-1440,-723,5016
101,-89,7,-1180,-931,7481
-18,-69,59,-1656,-1240,5347
19,25,19,-517,-10,1926
-86,113,-36,-195,-570,2673
-76,-26,-89,477,84,1263
-88,39,98,706,-226,1371
-77,-32,93,983,-315,1508
-92,-61,79,774,-462,908
-118,-82,90,510,-215,274
-121,122,102,826,154,-603
-118,101,-125,547,129,-608
-120,60,-125,87,264,-618
124,42,117,374,-51,-540
-99,29,112,408,28,-202
-77,60,92,-69,153,21
-81,72,72,-284,244,81
-83,63,66,132,29,-63
-91,68,71,136,-337,130
-97,80,67,-170,-393,-29
-79,90,62,-272,109,-78
-78,96,53,-27,274,-208
-72,82,60,600,-56,-285
-69,100,62,262,1,100
-92,2,125,2656,1340,-4253
50,19,-125,3110,257,-5078
84,-123,23,4911,-1447,-6603
65,-74,-115,5033,-2684,-7753
-113,3,-8,141,-5610,-6573
-102,-116,2,4018,-1004,-232
-49,-126,-48,2600,3995,10255
11,59,-123,-6417,4175,9775
-23,-96,-13,-3942,-2791,638
38,19,-80,4306,-4962,-6131
99,-86,117,-2156,-4108,-7486
-121,-57,93,-1219,-1375,-6137
-57,-53,-97,3654,5182,1193
105,-1,-24,-9000,3258,9778
-67,-8,-22,3198,4944,3205
-71,-36,-37,2277,-6683,-7874
-27,88,-48,-1138,-4778,-10616
-122,-58,77,-1123,-4726,-10612
80,105,0,-664,-1523,-9467
5,91,70,-3,282,-6048
-35,-85,30,-2336,3002,-2026
-96,52,-70,-10971,5259,27586
88,64,66,-3762,-197,19831
-61,-1,-72,-8609,-2114,-3281
-30,54,100,8071,-1305,-2780
7,-59,112,-831,-701,335
-5,17,-112,-1316,1192,2671
-30,42,-124,-2945,1622,2075
-67,-106,-88,-3110,-1260,3358
20,-109,68,-1062,-2873,7367
-111,120,65,-1584,-863,4576
111,40,53,-1028,-595,3861
99,45,54,2070,-130,3599
81,-54,-66,2039,969,2585
-3,87,102,1230,689,1724
-113,-59,81,1375,-736,811
-93,103,122,741,-572,-95
-111,20,-116,521,-21,-644
84,20,-106,-358,-109,-343
115,27,-104,-787,-127,-337
-102,32,-110,-730,-8,-573
-88,16,124,-188,18,-661
-96,16,120,162,-109,-389
-101,24,107,26,60,-237
-96,41,86,-353,187,-95
-93,48,82,-265,34,88
-89,66,78,-69,-47,221
-81,85,86,-84,11,147
-76,95,84,-36,61,90
-76,108,87,17,-4,95
23,13,-93,4040,-1987,-6677
-103,-95,106,6414,-3688,-7544
22,-54,111,1929,-5952,-8662
28,21,93,-349,-1563,-7322
-86,-74,126,7931,4353,4263
-57,17,-68,-6306,1561,12023
-29,33,66,1705,3702,6101
3,-32,-104,1145,-5879,-4899
35,88,48,-1463,-4581,-6934
122,12,61,-3063,-2987,-6708
51,17,-32,4683,3719,-3669
65,-12,47,-447,4423,12619
-97,-23,-73,577,2850,8675
-7,-38,116,-2265,-2101,-2161
79,-98,-3,-1133,-6121,-9305
-19,125,63,-3846,-5477,-11436
-59,8,68,-6855,-4337,-12133
29,13,127,-1190,-748,-9748
37,-26,-75,1121,712,-7351
7,-33,-35,-3464,9772,18471
-105,60,-82,-4786,2263,20547
-26,-104,-96,-13814,2398,6787
9,28,93,8021,-3412,-3022
124,9,87,285,-1661,-2701
-33,-108,-11,1321,1032,497
-47,-55,-124,-3768,237,2760
-48,-44,75,-2316,-895,4878
75,-70,100,-2487,-1524,6931
-1,-51,-71,-1574,-570,7246
39,-25,112,-391,-2054,6049
-106,-93,-14,-1185,200,2364
52,-18,-18,212,-282,1458
51,71,-97,3328,748,2014
-11,19,36,3938,770,1014
-115,-27,1,1712,-23,-545
-119,-98,43,278,-233,-737
-118,33,88,157,-328,-474
117,32,-128,-8,-784,-166
119,28,-123,-264,-316,-22
-119,48,124,-564,69,-157
-118,45,103,-422,215,-211
-120,51,96,-184,70,-126
-106,49,84,81,47,-196
-101,66,76,-230,43,-47
-103,88,66,-660,-24,-26
-98,106,51,-738,3,-85
-91,121,41,-695,-73,-80
-95,-124,47,-328,-144,-59
-91,-122,52,198,127,-71
-95,-106,45,3,-17,-18
-121,-65,-87,3544,-1355,-6354
-11,3,-21,2428,-3765,-9223
121,120,-79,-1880,-2894,-9397
123,-60,5,10002,458,-5261
21,-24,-14,-3472,6857,10535
-87,1,-10,-2374,3372,10201
-114,88,125,-11428,-1140,1162
53,-38,60,5285,-5401,-7002
112,112,99,-3004,-3677,-7367
6,-66,-113,-1254,-563,-7054
8,-60,-33,3275,4112,4923
114,-14,-2,-4545,3742,11063
43,26,63,-2818,1157,-130
-82,-22,-47,3360,-6067,-8551
-100,-13,-109,-2724,-6475,-10656
3,-15,48,-6172,-5487,-11091
71,97,-114,675,-2233,-8012
-16,39,29,-1354,-634,-7021
-109,-116,-55,-3857,10207,12421
13,54,-11,-6004,-3937,22129
-35,-65,52,-3922,398,12114
-10,-11,-71,5712,491,-8274
101,-28,111,4747,-1324,-326
36,116,-59,130,432,1641
-3,104,-20,-1575,1084,3087
86,-112,14,-3121,3217,2450
112,107,-41,-887,-2595,6219
124,-51,-105,-2968,1336,3662
69,-77,-66,-465,55,2357
-44,-22,-54,621,-193,3376
-32,-27,-51,1117,141,2681
-63,119,-120,816,917,997
-114,-41,86,-160,298,905
-98,-91,72,-884,216,1024
-73,96,85,198,-576,1123
-88,126,-121,393,-1114,857
-92,-99,-118,-318,-270,-356
-120,117,117,-676,95,-937
-117,59,119,-326,-24,-901
-117,50,112,-325,-77,-472
-105,51,92,-92,111,-223
-94,56,75,286,205,-30
-83,75,68,6,90,4
-76,98,58,-453,6,-73
-83,90,60,-85,32,53
-125,99,89,234,-243,207
-58,79,100,967,607,340
-43,98,69,565,811,437
-47,109,59,-115,361,310
-48,108,54,-579,-119,-69
53,-107,-81,3312,-924,-4699
-37,57,-79,4242,-2294,-6524
-122,3,94,3901,-3480,-7358
87,19,65,453,-4061,-6304
80,92,-10,3992,-3247,-4523
17,-120,44,4934,6079,8961
-109,-107,76,-8477,5081,6466
-60,124,42,-5077,1530,1254
70,-60,70,2990,-6597,-4968
-123,86,-58,-2639,-4366,-5847
-112,29,19,-1676,-1450,-5650
-29,-45,-23,5440,4307,-96
-6,101,7,-4581,2757,8645
103,35,-4,3393,2760,8054
117,72,93,-99,-1249,-4181
-71,-106,80,2555,-3952,-8037
-51,-46,79,-988,-6664,-10204
-34,-26,-26,-4469,-5457,-10487
-85,124,80,-2178,-3242,-7996
-12,-8,-105,-2427,945,-6294
60,-18,-75,-5649,5181,16922
-7,54,-124,-3423,-2488,18843
124,-124,-78,-10257,4949,4477
18,64,78,4535,-2644,-3766
-65,-38,-95,5292,-1343,483
-7,6,-77,-323,485,1529
-97,-84,-71,-1896,-297,1666
64,8,109,-2305,8,1638
80,-13,107,277,-25,1907
48,77,-98,-840,-689,2834
70,-24,-97,-204,936,1922
64,-25,-119,-508,126,2503
106,-80,-116,-1253,-422,2272
-111,124,-126,-1059,-197,2909
-84,76,-111,-187,-311,2782
-48,51,-72,-93,-749,2885
-28,46,-90,-673,-147,2113
-32,-79,113,467,388,1361
-93,-112,98,655,-154,1070
-122,-95,106,-439,-478,640
-95,-119,99,-957,129,-141
-111,105,83,-363,431,-469
-116,85,77,182,212,-436
-108,71,75,438,44,-319
-112,74,80,353,-89,-178
-90,78,83,27,-3,-154
-90,84,87,-182,40,37
-95,93,83,-171,48,43
-90,100,79,103,106,61
-82,103,77,217,141,117
52,-15,-48,5110,-1975,-4730
-119,-13,83,5101,-3803,-7290
-76,111,114,2499,-5713,-7159
102,2,11,-2423,-4272,-6020
-71,59,78,6213,2701,-1907
99,58,-12,-732,4522,8443
64,-4,-61,2440,5551,9875
-123,-67,84,-5389,-1779,-127
-7,-119,-44,2724,-5735,-6238
-27,92,32,-3352,-4985,-7237
62,-96,-124,-3193,-757,-6539
109,-48,-82,4522,3850,3534
54,72,-75,-5459,4956,10868
87,25,126,-3977,2105,1290
96,12,43,5090,-5058,-8137
-54,16,66,-1785,-6652,-10030
-85,-103,13,-2894,-5764,-9934
-76,3,7,-803,-2733,-7964
-29,-87,52,-978,-297,-6125
-80,-58,-124,-4781,3327,-4188
105,114,-24,-5381,2944,-32548
-85,68,11,-1552,4074,21082
-90,126,-32,-5639,-26,-3251
69,18,-93,6339,107,-5221
82,-52,-93,-152,-1609,945
12,-128,-30,-1275,-235,3000
44,97,80,-4692,1877,2480
-109,-92,117,-2067,320,4099
64,91,-53,-1049,-2156,5974
-27,31,-54,-2920,584,4016
-50,100,-2,-737,-15,4100
-42,-57,-94,301,-509,2080
-68,99,-63,703,-994,1284
-61,-9,-112,555,131,904
-73,120,105,1502,664,851
-62,76,97,1909,576,677
-95,51,95,1077,409,266
-120,25,126,-300,-416,-429
-117,-5,127,-444,-133,-165
-113,-18,-123,3,-15,124
-118,6,-126,30,8,161
-115,39,121,-513,-56,50
-108,41,122,-431,-111,-163
-110,27,122,221,40,-104
-105,33,105,197,274,-123
-93,34,92,190,8,-127
-90,48,86,22,75,-6
-79,49,85,10,84,-102
-81,49,83,92,50,-38
-81,52,83,99,36,27
-124,16,114,744,4415,-4440
-7,36,76,7431,-859,-4518
-10,-19,89,7141,-5128,-8239
127,66,-96,2210,-5427,-7339
99,-74,60,-760,-4148,-5562
-63,81,100,5827,2049,1203
-107,-66,1,-4795,2827,7837
43,22,-61,1238,3069,8493
53,-46,-106,-6449,675,1445
92,-75,123,3948,-4512,-6173
-15,112,31,-1391,-4638,-6902
77,-121,-51,-3010,-2959,-5689
97,-52,84,3763,1913,-2081
-30,94,38,-3391,4177,8584
9,-25,-18,2575,3209,7803
24,16,-1,-2649,-558,-2460
122,10,-33,1094,-5951,-8537
-48,34,-46,-2273,-6788,-10398
-121,-125,-105,-4406,-5672,-10446
77,70,-21,-2945,-3048,-8848
-94,104,-80,-1349,4624,-3085
-128,-5,-119,-2248,8054,5523
87,-99,9,-10156,1727,22393
-95,-124,-88,-6863,-5100,8807
3,-1,125,3869,88,-4817
18,18,17,913,-2418,-1731
-39,94,12,112,-1430,-776
32,-123,-86,-3253,2245,-87
-104,81,-116,1089,1591,325
99,-106,119,632,770,2880
81,1,-116,-1268,-737,3143
-112,85,-123,-1790,756,3487
99,-83,-59,-2728,-2093,1280
-128,12,-59,-3624,-979,4689
53,-88,25,547,-429,2583
104,-91,53,-13,-670,1947
106,-3,-6,147,-356,966
80,85,-62,801,-523,3100
118,102,-79,3285,-1010,6000
-93,52,-49,2451,-371,4421
98,72,-63,133,-797,350
119,118,-122,-2453,936,-897
-120,74,83,-1791,1317,-167
95,26,94,563,-55,-326
82,-42,-112,2378,-693,211
114,-24,-97,1644,-31,645
108,44,123,-214,420,-19
114,53,101,-1256,134,-354
123,13,100,-243,-243,-272
116,15,106,216,-35,157
-4,72,-24,4228,3501,-5365
-124,-51,6,5139,-682,-5846
-85,-41,-112,5522,-3504,-7393
-24,-126,47,2999,-4501,-6853
-87,-103,54,1745,-3949,-4660
-82,36,47,4969,572,3024
-109,-65,-17,-1716,4226,7844
-45,71,34,-1575,4569,7747
-2,-107,67,-3150,-1407,-396
21,-99,-128,1598,-5471,-5569
-91,-120,-35,-1354,-4759,-7825
28,58,25,-1704,-2054,-6190
19,-35,6,3821,2079,1193
77,46,-55,-5934,3670,7715
110,-86,3,3839,3520,4490
-92,63,-77,581,-4615,-5067
80,-28,-83,2983,-6256,-9158
25,-58,-84,-815,-8137,-8542
112,-106,69,-437,-6569,-7594
-84,98,59,-500,-532,-1766
-4,55,85,306,4889,3322
-19,111,114,-432,11540,12789
-105,-4,-65,-861,6827,17659
85,-13,83,-13311,-2922,370
-6,86,-78,10746,-2746,-6933
115,109,117,1224,621,-674
-6,74,-36,-1221,186,377
-46,-79,-103,-5168,1042,228
-63,87,107,-2972,-104,4034
-91,-6,-95,-2983,-584,6509
61,-83,-7,-5980,-558,5461
23,103,-20,-2534,-837,7081
-19,-100,-102,-1611,-1672,3557
46,-46,80,3781,2030,6129
30,-50,104,4136,1492,2737
-26,82,-103,6143,-3745,-447
-112,32,-36,2137,-2124,-1147
-94,1,-35,-1528,696,-1714
92,-72,-75,-2701,981,-682
68,-55,-97,-1956,-401,386
109,-13,-101,-1300,-643,442
-117,33,-118,-823,-237,-275
-119,25,-125,-241,39,-915
118,24,-125,107,-45,-319
115,46,120,-20,-7,171
127,63,110,-70,87,269
-115,75,97,-94,115,100
-99,87,87,-157,140,63
-99,95,82,-164,31,90
-98,103,70,-117,102,-3
-48,28,-128,3230,1252,-3606
-77,-96,-80,5855,-1485,-4279
-103,66,-1,5996,-3469,-4665
-108,36,-72,1866,-6051,-6640
-67,-123,-55,-563,-4145,-5922
117,56,94,837,-2192,-2987
42,27,-18,6538,3611,7211
54,-91,-82,-6405,4885,9469
74,-128,59,5713,4147,5576
113,83,-83,125,-2750,-3538
41,73,83,-1481,-5212,-7212
49,81,36,-3242,-4520,-7023
-106,-19,60,-1324,2342,-5650
-53,0,-60,1595,2301,7026
-92,9,-106,-2223,3253,10141
-127,103,116,972,955,-882
-58,-30,32,351,-5644,-9507
46,34,35,-1736,-5120,-10601
-46,8,-124,-3918,-3735,-10319
-71,-122,42,-585,-690,-7420
81,-33,49,-647,2682,-3650
-40,24,-25,-7059,3136,21945
29,-57,6,2637,9628,18139
-39,121,56,-4066,-1800,-1495
120,109,-115,2141,-2249,-1421
-71,92,-85,-883,-713,528
31,78,0,-2970,1590,1202
100,-121,85,-2822,1938,399
119,3,36,-2128,1252,1665
17,-114,68,-1043,-1155,2148
2,-97,120,-1661,-476,1961
-56,-33,-13,-170,-834,2893
11,-60,-17,-1103,279,1833
-2,-44,-21,-2161,-1068,1977
84,-23,-17,-1824,-1563,1625
-125,-99,-58,-1095,-1303,1899
-72,75,-19,641,-736,2023
-57,56,-20,947,-53,1578
-59,19,-60,868,358,1384
-76,-28,-82,941,2,1149
-79,-62,-103,910,119,339
-84,-77,-124,26,232,-465
-89,124,-120,704,96,-5
-88,108,-119,580,183,-218
-82,101,-105,316,250,-198
-80,113,-112,-74,-125,86
-78,121,-99,-227,-149,-22
-63,99,-92,-2,-8,-57
-57,102,-102,-119,123,-8
-66,103,-118,-12,17,42
102,-43,-90,2432,3185,-2867
122,44,35,3657,1379,-4103
-104,-100,-8,2950,-959,-3619
-9,24,-54,4033,-2056,-4949
-38,-67,82,2373,-2681,-4552
-89,-54,9,1965,-3215,-4116
79,-82,105,-256,-2829,-3261
-104,-40,-122,2874,1567,638
118,-29,77,531,4125,6550
-2,96,-126,-3751,3781,6637
-38,-119,-104,-749,3912,5730
18,-104,60,1789,-2706,-3492
90,73,-23,1053,-5496,-5682
-124,23,-40,-1313,-4933,-6226
-100,125,-7,371,656,-4462
74,-36,40,2482,3723,5907
117,-112,-66,-3969,4412,9497
-31,84,17,-120,1869,-1604
101,-58,71,3910,-6597,-8217
-54,34,-40,530,-8490,-10782
-124,73,17,-2967,-7802,-11183
-126,8,-47,1271,-3102,-8549
-100,-3,-47,-2321,4997,-3021
-102,0,-118,-6042,5274,19509
89,4,92,-2888,3716,21095
-16,-28,-30,-11665,-1686,708
-87,-96,-96,8407,-663,-6972
24,37,116,-113,-2896,-396
-80,41,-92,-155,254,-242
46,-99,115,-1417,1269,-666
74,33,60,518,1647,1375
56,-68,-125,-217,-1028,3754
-39,24,55,-3114,918,2738
89,15,102,-2700,-1304,4807
-95,89,100,-3282,-2395,5619
49,57,-102,-2670,-1979,3320
-75,5,-72,-1684,-1006,4149
-14,-94,115,-613,-446,604
21,-64,-96,-89,-531,603
-63,-13,-111,1476,81,-74
-93,-66,85,1010,518,-181
-94,-113,98,750,-37,404
-84,-94,93,150,-106,379
-89,-99,114,111,71,-159
-88,-106,93,324,362,-172
-89,-111,93,480,102,206
-81,-102,87,183,313,270
-80,-103,91,236,72,-7
-72,-108,97,291,121,-63
-62,-105,104,223,171,-83
-103,-45,-120,4349,-359,-5050
-7,26,1,4500,-2872,-6922
-14,-55,29,1705,-4871,-7431
-42,39,32,3080,-636,-2511
127,-9,59,2348,6585,5961
106,-125,-108,-6653,3270,7869
-105,-30,109,-3823,883,5425
-53,75,58,5672,-3683,-7440
-9,97,-22,310,-3478,-7132
-62,-46,-14,-1076,-3571,-5420
-35,118,-92,3046,3144,-2556
48,121,-2,-2859,5141,7725
-37,-109,0,1859,4362,6347
15,82,121,983,-7229,-7182
-56,-35,126,-48,-6610,-9015
91,64,-114,-2179,-7818,-9023
113,-35,-82,-48,-5089,-9800
60,-94,12,-1321,-1454,-6319
35,32,-86,-1242,5262,-1784
-30,-72,92,163,7354,13217
-10,-113,65,-6418,-240,20754
47,-49,-106,-11263,-679,6199
-91,53,-90,7481,2048,-8693
-114,-26,-73,2672,-3587,-1230
-8,-45,122,-1358,-1704,558
48,-86,19,-868,1618,-1
-5,-96,52,-834,787,2686
-65,115,56,-764,-1575,8172
24,-1,10,-3160,1379,7174
123,-91,4,-2316,317,7783
29,72,-117,-1438,363,1023
-33,5,-37,2064,-1583,3652
-15,-45,-89,688,-899,625
-69,16,-99,1619,220,776
-108,-91,-102,1650,296,1114
-120,109,-107,1320,51,750
-127,109,-99,37,-213,239
-110,107,-102,-906,193,-819
-97,43,-114,-63,260,-796
-124,39,-114,188,-214,-117
-118,38,-126,321,64,78
-101,52,105,25,138,-158
-102,63,105,-235,-181,13
-118,73,116,-340,-358,105
-96,74,113,-77,-223,22
-92,88,92,-58,47,34
-100,102,81,-120,-34,-143
-89,102,85,-59,-49,-176
-89,99,79,58,0,-116
-94,104,76,5,51,-52
-6,-57,73,1670,2854,-4799
-122,49,58,4821,1344,-7158
30,-101,-4,4862,-1270,-8555
105,125,-107,396,-3400,-5954
-70,55,16,4533,4034,-1965
29,99,16,1587,-568,12546
-91,80,-55,-1934,2669,7565
-3,83,37,-4119,758,-431
45,-27,-116,3716,-4602,-5977
-102,-96,-120,-2501,-3938,-7472
-19,104,44,626,-32,-4884
-78,-79,-32,1242,2172,4552
13,114,-62,-5442,2233,9487
39,60,-94,1370,2683,2822
54,104,19,2335,-5160,-6736
54,-46,98,-1570,-5199,-8424
-116,98,-117,-629,-4960,-7865
89,50,-28,-6,-3296,-6249
22,-37,-51,-755,-206,-4479
-9,-124,126,-921,2300,-3330
-5,13,-54,-11915,5391,20452
107,74,113,2603,2417,13394
-60,65,11,-3582,2364,-4070
92,-61,-65,4438,-3199,-5450
34,-103,-70,1675,-732,-3990
-59,126,112,-66,-63,-2659
-126,-30,110,1144,343,-1805
12,57,42,702,-594,-443
-85,-50,-104,-4208,-152,7304
-128,-66,-103,-3417,1579,6515
52,5,54,-1348,-1901,6802
-39,-97,118,-4131,-619,4178
33,109,-51,-1280,-1726,4851
-72,-2,-8,1657,-1528,4355
-20,99,-48,-1867,-851,1070
-95,98,-89,160,-553,399
115,-91,-97,946,-130,572
111,-98,-96,1094,57,394
-114,-113,-100,680,171,594
-113,-114,-120,494,89,535
-125,103,-126,758,58,273
120,75,-117,1068,-25,179
-124,44,-117,936,299,248
122,57,-128,244,133,244
120,75,122,-795,96,497
-126,80,108,-1057,158,502
-116,68,110,-337,357,540
-121,59,96,624,87,-14
-112,82,99,344,78,134
-112,88,99,72,62,-197
-93,106,111,7244,3103,-7951
-69,-63,6,9529,-5739,-5982
-66,87,69,4245,-5868,-8121
-3,120,-31,-599,-5540,-6811
51,86,-35,5590,3908,351
-77,16,55,-2817,4256,10424
-120,18,-93,5275,4852,9936
51,-34,47,-101,-3115,-4448
54,108,15,-75,-6719,-6797
103,-128,-69,-3706,-4963,-6633
-39,-99,-73,4963,5047,-3290
125,12,-25,-6996,2622,9618
-15,-88,40,3617,4137,6853
-112,76,-45,1794,-4449,-6164
2,-29,101,1014,-7391,-9779
38,68,25,-2422,-7456,-10157
122,-124,-42,1890,-3059,-8722
-126,-65,127,-252,-135,-2508
103,109,91,-3954,3653,4251
-34,-63,-114,-6736,7352,18934
117,-22,-122,-2843,5634,7745
107,-83,6,3024,-2286,-3284
-63,68,-65,1679,-1098,-2516
57,-52,-31,-959,-762,310
35,-110,66,-3632,185,850
97,-61,-20,-2951,-848,2764
-106,22,-25,-1711,-2474,7382
100,21,-112,-2159,-681,5290
-95,-83,107,-2220,99,5066
-101,13,89,-843,-1219,4770
-41,25,9,-728,-2068,4973
12,-93,-67,-1057,-1958,4372
4,-13,-101,1119,-936,1926
-89,-13,83,2061,229,-286
111,-46,60,1532,768,-1477
121,67,69,1719,752,-1893
-124,14,95,1616,349,-692
116,21,113,571,-278,206
109,41,124,-601,-536,289
125,55,119,-1001,-163,-15
-124,49,118,-513,23,-187
-126,52,112,162,78,-118
-121,59,106,299,-37,-88
-114,72,99,-23,17,-49
-111,80,87,-159,151,-53
-105,84,77,-47,147,-57
-94,89,68,103,59,-60
-98,93,65,105,-25,-76
-94,100,67,23,9,-56
-90,99,62,134,-63,-102
-42,-73,-31,3383,-1950,-4787
26,11,73,4940,-2577,-5948
97,8,-45,4221,-3367,-5681
-105,-4,-10,-1181,-5116,-6365
-19,104,-40,-113,-2089,-4882
-109,-73,15,8304,4942,6048
-86,-34,85,-8693,5151,7785
-7,-81,27,7326,4515,7945
-18,124,-90,-1877,-4851,-5159
-92,98,-97,-877,-4887,-7228
74,84,114,-2197,-2379,-7060
29,57,-119,2147,3803,-3584
-60,-122,-75,-1716,4934,6686
0,13,-99,-5129,2489,9051
-104,-22,85,2799,-162,-2182
82,-67,-54,2387,-6663,-7695
-62,1,85,-1530,-8192,-10243
-110,34,-37,-2329,-5425,-11552
77,123,-125,1377,-3561,-9138
-123,38,-79,-529,757,-2043
110,-84,88,-1622,5159,2051
31,-6,-105,-8139,5046,23765
80,70,-28,-4554,2530,12892
-105,-109,-117,-1573,-1829,-3216
97,49,31,4440,-1948,-3463
-94,-69,62,-757,0,-104
-15,-114,89,-1670,1109,1425
125,-5,124,-3192,409,2529
-124,102,-50,-885,-1471,4819
16,-109,-9,-1560,-423,6021
92,125,69,-1593,-665,5268
-43,-10,15,-700,469,3636
-104,67,-26,953,-882,3211
-95,98,-88,704,-356,1967
-16,-26,-115,1127,1315,775
-18,-38,100,645,1155,1469
-98,-85,116,261,-183,1038
-109,-75,126,-565,-399,-31
-110,-100,120,-644,-116,-175
-122,100,122,337,-250,-137
-114,90,119,477,-298,-214
-115,91,120,-25,-279,-342
-119,75,124,-67,-201,-323
-113,74,127,23,8,-58
-107,69,118,283,80,-38
-102,74,114,269,84,48
-94,69,104,308,246,-31
-96,76,96,180,87,15
-90,91,88,-169,118,31
-82,96,87,-250,-17,-83
-117,90,-15,4207,1732,-4243
-70,124,-81,3700,-1190,-6382
85,106,15,5115,-4687,-7521
-71,96,-63,-840,-4378,-7707
-8,-125,93,-1352,-2776,-6349
-99,53,63,7731,1066,2233
119,-75,-26,-497,5689,8682
69,-38,34,2872,2107,9578
122,52,75,-5422,-1843,-333
-112,-85,-33,1528,-5595,-6331
93,104,116,-4323,-4346,-7066
7,-68,35,308,1363,-4887
97,21,60,452,2652,5029
35,-125,-10,-2942,2120,9657
-47,-35,-82,670,2792,1656
-30,70,74,2590,-5064,-6814
-57,-33,8,55,-6019,-9841
-50,-115,-8,-996,-6331,-10427
-82,-80,-10,81,-5344,-8789
52,88,64,-1715,-460,-4461
110,-128,-122,-2864,4819,679
91,9,-82,-7959,6628,23894
20,-81,88,1074,1853,12162
76,11,26,-5682,-2459,-2445
107,-67,-93,5639,-17,-4530
21,46,122,-260,-263,-5
10,118,96,-1758,-227,2313
-85,-61,117,-3456,-16,3787
-14,23,112,-1772,-75,6098
72,124,56,16,-2852,7463
87,-113,-17,-2452,296,5247
32,-4,22,-873,-610,3571
66,34,-46,1323,339,2039
-55,-123,-97,1545,107,1759
-106,61,122,603,-92,1035
-106,-67,104,413,198,883
-116,-100,92,141,-38,282
121,109,93,250,-117,-294
114,60,98,296,36,-348
118,70,102,-294,-38,-199
125,71,103,-480,-107,-246
-119,59,103,-93,30,-245
-115,61,98,174,90,-103
-113,75,84,64,43,-125
-114,80,79,96,49,-121
-103,75,73,106,103,-89
-107,83,67,42,-134,-56
-99,115,64,-380,50,255
-85,-127,59,-455,144,-98
-87,120,53,-60,-38,-299
109,3,-67,3349,2503,-7020
21,-28,-16,5487,-2033,-7638
75,56,-124,4184,-4820,-7969
22,-44,57,-1157,-3044,-7562
114,-116,115,7330,2679,109
-13,102,69,-2191,2391,11349
-80,108,-79,195,2800,9441
25,-116,56,-7637,-1922,-2344
9,-46,-28,4759,-4121,-5630
-95,103,-52,-3109,-3313,-7527
90,-3,-83,110,-860,-6011
53,3,102,1699,3200,4499
-99,126,47,-5948,2725,8948
-106,-28,-41,-1174,1200,1141
51,112,107,3681,-5195,-8348
-93,2,14,-2343,-5681,-10527
19,18,-78,-1740,-4522,-9921
-33,-124,116,-457,-2437,-8953
78,126,41,-1960,2166,-2129
-82,-10,-111,-2970,4671,13955
74,112,108,-4548,3930,18308
34,44,-47,-1260,-3329,996
124,34,112,1189,478,-5165
11,-95,124,895,-1376,-71
-83,-99,99,-154,-960,318
-63,33,109,-2743,36,1637
-124,67,87,-1903,754,3430
-78,-8,-27,-954,-1677,7695
84,-34,25,-1852,-436,5014
110,-123,109,-2887,-1013,4123
-76,-104,19,-925,-508,4342
-28,5,-23,-443,-1237,2911
-33,-103,-55,225,-1502,2246
-14,108,-80,46,-683,1325
-75,40,-106,554,-263,1260
-105,-34,108,1614,281,245
127,-93,88,1556,89,-558
120,111,84,589,48,-608
126,81,88,118,-64,-492
127,67,90,-117,-110,-326
-126,57,90,-111,-91,-232
-117,65,94,-38,-87,-222
-110,75,94,-69,-6,-130
-115,83,90,-72,-183,-212
-109,96,86,-123,-78,-59
-102,106,80,-71,0,20
-103,119,72,-52,79,-45
-97,118,68,127,60,-136
-86,123,55,171,141,29
-78,121,44,128,162,-99
-44,-11,53,814,-3837,-4629
34,39,100,955,-2521,-8636
39,10,-117,871,-2813,-9509
-61,55,-8,-1513,-2847,-8242
-57,38,-73,2646,3928,-3175
88,-61,-63,-695,2597,12885
35,7,50,1695,2777,10314
-94,59,43,-8469,-3842,61
108,-23,53,4769,-3904,-6621
-95,-125,24,-2363,-2731,-7590
-7,91,-128,-649,90,-6316
-89,-67,115,1524,4427,3969
119,71,-104,-8122,4680,10992
60,-94,98,3361,4163,4380
116,30,-57,381,-7698,-8169
14,-60,119,-1451,-5547,-10912
-79,111,1,-3147,-4840,-11527
90,-67,-5,-125,-2051,-7817
-95,-2,-102,-1050,2178,-5149
113,-34,-120,-7871,5474,2499
122,101,-8,-1801,3248,25004
-88,-101,17,-2550,-1338,8983
30,-77,-8,-5863,-597,-950
-57,-121,-127,5425,-262,-3648
81,-48,-122,1484,1474,527
22,55,78,-1742,83,3762
18,-104,122,-4246,-80,4107
-39,21,-1,-1843,-1391,4283
15,-34,-3,-545,-269,3096
62,-119,-106,-1083,-127,2294
110,-94,-55,-141,-1975,2726
65,112,18,-105,-662,2772
-92,14,-40,1650,1131,2954
9,99,102,3407,1662,2587
77,114,69,1202,1613,1396
4,-56,61,-1773,-31,495
101,-63,75,-1628,-1951,-1549
-101,40,-114,1327,-1164,-1856
-35,15,-111,1112,393,-1703
-71,-10,119,208,496,-1169
-102,-3,108,-352,-103,-102
-100,7,96,-592,-316,273
-73,36,86,-612,-208,79
-81,70,82,-847,-189,147
-82,81,90,-498,-137,165
-76,86,103,500,164,469
-60,57,89,1715,442,412
-75,82,92,868,50,179
-60,102,88,-535,84,-52
-63,97,78,-725,120,-83
-96,-31,-85,5635,1507,-12172
-56,-93,-13,6437,-9345,-5964
80,11,101,-352,-6297,-7020
87,42,74,-2078,-4148,-5488
-21,-75,-97,6951,4091,1116
-37,68,-89,-5600,2385,9993
-50,-83,46,1685,2412,11059
80,-96,-3,-3620,-3002,-2670
10,-40,100,5467,-3899,-6903
2,38,-57,-3191,-4314,-7426
-2,-76,126,-3419,-878,-6460
-49,-31,-90,3359,4118,-939
-33,-61,-90,-6539,3517,11035
-85,110,51,2662,5073,8085
115,-60,-92,587,-4559,-5631
48,-6,72,814,-4974,-10009
118,-36,-42,-1442,-6539,-10042
-43,-12,-38,-3849,-4032,-10853
20,100,-80,-2775,1309,-7883
124,-89,-122,-11301,4461,-996
-52,-68,117,-2488,-3906,29802
-80,-40,56,-1751,4601,15959
-123,-41,44,-9130,-2122,-3104
-56,-114,0,9144,158,-5396
92,-82,31,394,-1444,993
7,-44,45,-520,-616,2307
106,-89,105,-3074,409,3574
42,-49,108,-1198,-490,3811
-7,-107,-48,-370,-1257,4398
43,48,8,-2179,-698,3249
90,125,-8,-918,500,2646
-112,12,-9,-294,798,3316
41,-124,125,240,1209,1574
6,70,115,62,-173,1580
-38,24,123,-154,-802,1009
-67,-2,116,-323,-555,183
-74,-55,97,1161,-34,186
-68,-96,108,1346,655,559
-81,103,106,621,230,207
-111,86,-121,371,-1024,365
-81,125,-119,-624,-411,453
-94,-124,112,-579,86,-9
-81,120,104,-149,207,-355
-78,112,95,-92,288,-286
-70,114,85,-272,149,-142
-63,103,89,72,104,128
-61,107,76,-48,52,62
-70,114,72,47,-289,-334
-60,111,75,-133,-113,-109
-59,117,74,-44,-65,-57
-75,36,97,1161,4194,-6161
34,51,94,5153,-2320,-4734
-40,-3,-8,2489,-2873,-6167
-59,106,-20,3180,-3082,-6392
113,49,-78,533,-3922,-6067
-84,109,0,-282,-2477,-4911
-22,-99,-14,2669,1045,-1411
-30,-90,37,954,4528,6609
42,119,-71,-3734,4386,8869
12,-66,125,3211,4143,7561
121,17,-45,91,-3547,-5444
-47,113,-20,1060,-4308,-7505
-46,13,20,-1622,-5297,-7610
-2,11,-80,101,-104,-5807
31,-19,-37,3560,5309,5483
-2,103,-45,-7137,3865,10701
-75,-47,-85,2322,2363,726
-88,-12,45,1255,-6742,-6997
-87,15,-117,-1509,-5945,-12043
29,90,-118,-1605,-4913,-12662
-74,59,-112,1162,-2574,-10708
21,-39,95,-1647,1267,-3555
19,-31,-118,-5123,4085,8585
-42,-42,56,-10020,1275,20032
-90,93,127,3829,-4962,9907
103,96,118,-1434,4366,-1199
-63,-59,-22,2917,-2578,-2593
-11,-2,-117,1109,863,-1081
68,3,-120,-1071,-890,217
101,-112,102,-1454,-1366,2249
122,-51,-87,-1577,495,4404
-2,46,72,-1980,-2746,6366
-122,-102,-57,-2982,-163,4408
123,-83,44,2262,-1309,2238
-110,-13,-17,-1795,261,3293
120,3,-48,-326,-504,3729
-66,77,-81,1424,-556,3643
-76,49,87,1188,-227,2353
109,3,58,286,-671,-84
97,-68,74,-257,-293,-887
98,78,99,283,46,-944
94,33,113,1054,101,-463
101,45,118,597,85,-81
122,73,115,-398,-53,-100
-124,84,106,-820,-64,-23
-126,79,102,-578,-47,-65
123,72,92,39,114,-146
-114,80,75,122,266,-106
-114,94,59,82,76,58
-102,119,49,-349,160,164
46,-57,82,3262,-955,-5175
-71,73,-86,6545,-2720,-6625
66,-48,29,4437,-4744,-8399
-84,8,-69,-1866,-5621,-7973
-59,70,-22,3239,2726,-4177
-117,121,-69,1847,4337,11467
-93,-120,15,-4849,3962,11255
-72,-71,-93,-6201,2254,2566
107,17,-85,2215,-6223,-5894
-70,-65,-20,-1159,-2142,-8015
104,-108,-100,-1227,-1185,-6704
-51,58,-84,4523,1698,776
54,-71,-65,-3790,2948,11250
-128,36,75,5174,2708,5952
107,54,-125,683,-5517,-7097
-74,-42,-43,-2043,-5382,-11140
-1,-60,-86,-4727,-5519,-10232
68,-67,26,-2515,-1884,-9667
-122,-84,-67,-1800,1156,-8609
52,-12,-67,-6878,1736,13255
0,102,-87,3240,1957,20407
-125,110,85,-8949,60,8776
-45,-5,-115,5513,1312,-3994
-76,58,24,2106,-592,-574
107,-104,-18,1318,-771,617
-97,-81,126,-3327,267,2188
124,-39,117,-1950,267,3550
-40,124,-65,-2533,-1005,5452
112,69,-84,17,624,4835
80,-53,-39,-1249,-798,2663
-106,89,-51,-814,-166,1826
-62,-60,-57,699,1183,2924
-29,62,-86,940,975,2415
3,-17,-123,691,933,1831
-30,-64,115,742,255,1190
-100,-124,124,343,-860,569
-93,84,-96,-84,-864,-256
-88,83,-106,-737,-176,-512
-99,52,-114,-77,-265,-323
-96,66,-115,-109,-296,-43
-97,84,-123,-466,-503,-177
-104,84,126,-599,-532,1
-95,70,108,-486,-138,-125
-90,70,89,-456,265,-133
-79,66,68,-96,236,-130
-87,78,61,84,50,186
-84,108,59,-330,-11,221
-78,110,58,-94,-28,-28
-75,118,56,-13,111,96
-79,121,58,67,-22,-91
-9,-87,-69,-2580,848,-4957
10,-81,25,6892,-989,-6908
86,-49,44,1278,-4221,-8299
5,126,52,-837,-5452,-9355
73,-7,-55,5593,358,-4619
71,88,-59,-507,5883,8281
62,61,-101,-6952,5104,10805
76,-41,-81,5383,4552,6677
12,83,-34,2169,-1949,-4083
-103,116,41,1108,-5308,-6888
-97,55,-47,-2512,-4382,-8155
0,56,43,-604,2516,-6295
90,-64,123,4612,3652,3118
27,-101,-38,-8200,4088,9531
-18,3,-69,4976,2253,9815
-58,103,-122,-1679,-1371,-4094
-12,-68,73,3412,-6566,-8887
-67,-85,-18,-498,-7127,-11001
-82,43,-23,-4631,-5821,-11497
70,34,85,70,-1364,-9487
-100,72,94,-3385,4906,-8244
0,54,73,-7543,2028,26681
-2,98,35,-2007,2813,15613
-2,11,-121,-10412,182,-396
-69,-83,51,6639,-2194,-2832
117,-34,-69,673,-1710,-661
42,-18,-65,-155,589,2879
95,119,35,-2429,685,2956
101,-116,76,-3362,-919,4671
-21,57,-47,-2014,-1558,5729
-37,15,5,-2298,-1183,5581
-22,101,-55,661,-3904,4087
-44,-39,79,945,5,4165
-116,-64,1,-1085,2106,2389
-19,122,-19,-519,1128,349
-77,5,23,1826,151,-248
-73,-120,54,2906,19,-885
-53,95,64,1542,222,-1355
-61,83,74,-114,164,-993
-101,70,101,-870,-492,-226
-81,104,102,-1506,-406,45
-62,125,85,-1333,142,-183
-63,-122,66,-410,380,-404
-51,119,62,747,178,-463
-52,115,66,872,-197,-277
-54,120,68,298,-273,-106
-58,-123,74,-406,-72,101
-57,-118,71,-379,61,125
-60,-102,73,-290,-7,152
-44,-91,71,-151,71,34
-126,72,36,4815,-1895,-5547
-50,-81,-124,3554,-3179,-8528
-91,-53,89,1629,-6011,-8626
20,-98,-83,6405,760,-4442
68,15,-20,-1454,6828,10198
120,-93,11,-3648,3574,10117
-82,111,85,-8537,-15,3043
112,0,-9,4949,-5844,-6589
98,83,-23,-2202,-4494,-8706
74,102,23,-3556,-2375,-8546
-114,-93,1,7575,4643,-1571
125,77,-32,-5469,5906,12633
31,85,-114,7432,2480,9660
99,-15,-54,-461,-4719,-4182
95,92,-42,-934,-8065,-8567
-50,-115,-35,-5638,-8673,-10867
-114,79,-59,-6004,-3482,-11347
-41,24,92,-1000,716,-9956
63,-76,-88,-5684,11371,9240
68,-22,-37,-8400,3589,25164
97,97,63,-6149,-1349,5701
62,-92,119,7914,-507,-8076
-57,-49,-126,-1650,-4424,1317
77,58,104,-1128,368,1784
87,-115,-99,-4523,-883,4351
-10,-50,122,-1437,888,3579
101,94,-15,-1431,-1680,5017
-59,127,-78,-2405,-41,3109
-108,-26,1,-865,-999,2465
-40,-64,-99,995,355,2077
-67,109,127,1286,-506,2308
-26,41,102,1040,-586,1308
-22,-33,60,920,967,596
-53,-76,47,272,766,-236
-66,-126,44,292,296,-318
-48,100,60,611,207,-328
-56,104,73,460,41,-299
-61,112,84,-235,-92,-108
-47,101,95,-373,-44,-362
-39,69,108,206,-76,-340
-66,77,107,234,-261,-29
-64,93,105,-240,12,46
-58,103,94,-458,167,120
-47,105,75,-178,175,261
-40,121,66,-83,67,318
-43,-123,68,-30,-104,-83
-31,-117,74,20,7,-153
-40,-123,75,120,-11,-235
-34,-128,72,84,56,-118
-40,-120,69,-110,-64,-108
-99,-122,90,-4004,1765,-3288
-100,-29,55,3549,4201,-6403
-84,-68,16,6777,-2050,-6824
-21,69,4,3949,-4194,-8565
-121,-8,6,-404,-3310,-7648
-43,-105,-85,6492,3061,-4824
17,-118,71,-3589,940,17075
-40,-64,11,6014,7441,5999
-123,-44,8,-6076,-6802,-3965
-93,-98,18,1505,-3150,-7965
43,78,-39,-3122,-2210,-6916
56,52,-77,2173,3162,-6956
-102,-99,-12,1103,3111,11622
27,-121,48,-5588,3397,9683
-19,95,0,2313,-3364,-5017
-87,-71,-62,704,-6652,-11512
-35,-23,70,-2850,-7636,-8790
-54,127,-48,-1538,-3615,-9506
-34,62,97,-1137,-1697,-6330
95,-12,-75,-781,4348,4745
75,-60,118,-5428,7889,22256
-5,80,-88,-1774,941,12936
107,-117,1,-3316,-2248,-1254
-20,-101,127,6674,2087,-5292
42,-62,121,434,2960,-640
10,27,-126,-991,783,1597
-99,-23,98,-5305,-1490,2918
82,58,15,-3659,-2379,5305
6,104,87,-2284,-3557,4026
66,26,-2,-452,-1995,3688
116,87,37,-1655,-849,3436
100,-60,4,-288,-326,2352
-16,34,-36,-2595,-524,2497
-58,-116,-72,-204,-545,1130
-74,5,-116,1780,-297,549
-69,-10,-112,1822,-184,695
-68,15,98,402,460,469
-96,-17,67,417,521,-309
-95,-84,66,805,74,-553
-93,109,63,1137,-89,-616
-73,79,62,1241,367,-866
-101,90,79,561,153,-426
-124,115,94,-305,-380,156
-102,121,96,-460,-275,247
-81,115,99,-139,-42,11
-79,126,94,-26,70,-105
-81,119,92,334,40,45
-68,122,81,325,179,40
-82,-123,67,-56,49,-19
-65,-120,67,-280,35,-127
6,118,56,-2300,928,-7004
113,58,59,4572,337,-6894
83,-128,-8,4561,-1565,-9284
-79,-80,-98,-1074,-1541,-9078
-27,76,71,6146,1898,-5711
-111,100,22,-3040,1144,12492
70,118,-67,951,1546,10145
-124,57,3,2254,3635,-438
92,-82,36,2173,-7081,-7292
39,86,-42,-3654,-5451,-7719
-57,122,-39,-960,-936,-7684
37,-41,-74,2786,3131,8117
-40,115,53,-8598,4178,10107
19,-83,126,-582,3042,-1044
-102,15,123,3664,-6359,-7539
111,-4,25,-2203,-6052,-11428
-118,-86,-46,-1428,-5852,-10407
103,-64,74,-1734,-3793,-8879
57,-71,-32,-2507,740,-4360
-16,-26,-41,-4990,7533,12433
116,92,73,-6349,2075,18059
95,-53,-43,-5910,5189,7056
-60,-30,19,1949,-337,-3175
116,43,87,3575,-1564,222
57,-46,80,152,-1599,1882
-105,82,-50,-2994,-231,2588
47,-50,-90,-2542,20,2612
78,-110,-56,-3632,-2740,5447
-71,126,-25,-1005,-1671,4728
-70,-36,36,-1601,-2115,3340
-2,7,-72,-25,898,2167
-44,-117,92,1018,733,2309
-103,6,121,1541,-985,2461
-79,-54,125,723,-5,1650
-71,-33,95,-317,931,571
-91,-62,79,-363,389,-111
-116,-105,66,-389,-136,-694
-97,-120,62,-915,231,-878
-89,116,55,-1004,430,-791
-88,101,55,-344,181,-464
-80,99,64,332,-84,-414
-70,103,68,301,-165,-381
-85,-127,72,-482,-155,-213
-85,-119,78,-701,-23,115
-83,-108,73,-297,70,277
-61,-83,66,-258,169,240
-54,-71,59,-240,69,151
-61,-56,65,-280,-119,24
-57,-54,69,-126,89,-91
-60,-64,63,199,76,-185
56,-59,4,2863,1465,-4740
-60,-113,89,4128,469,-6851
-38,102,6,3924,117,-9837
122,-26,-118,1296,-709,-8903
-56,2,-119,8549,-183,-6527
117,-103,19,-1545,3025,17413
70,50,127,-2080,1681,8692
-48,47,-37,-2311,-2179,-3839
-17,-95,-127,3460,-3906,-7241
96,-89,31,-3357,-3603,-7232
100,-89,84,3457,3467,-5175
25,84,73,-1890,3803,7956
-102,-126,117,-2556,3375,10501
-60,102,117,-591,-2123,-4480
-64,0,0,-31,-4694,-9532
-31,49,-37,-3151,-6181,-9810
-68,9,74,-3335,-2803,-10343
-41,75,-115,2907,-2027,-7870
-73,60,126,-3793,3177,-1085
80,31,-109,-6384,6807,18994
-62,-109,-22,-3678,-1752,19960
85,-83,39,-2561,-1525,3950
2,74,-40,3887,3096,-4793
80,-59,58,1096,-171,-390
-78,-58,-28,-837,-940,1296
59,31,-93,-3361,-604,2188
106,-72,-9,-2145,70,2754
122,99,32,-1802,-1353,4411
-63,64,19,-37,-709,4417
-73,-36,70,2402,-1076,3862
56,118,119,-3015,941,1863
-86,-122,120,-867,-1246,1334
-71,-45,-105,948,-654,1663
-80,-8,114,-136,-88,815
-95,0,99,-891,108,839
-125,-78,100,391,-249,422
-120,-106,101,523,-136,53
-108,107,86,319,135,-530
-126,77,94,-50,-55,-368
122,68,99,-249,-137,-129
-116,61,96,-266,101,-23
-113,72,86,-284,162,79
-113,80,71,-231,81,50
-108,91,67,-152,32,167
-99,114,67,-349,31,175
-95,126,64,-217,48,97
-84,-121,57,-83,115,35
-82,-118,55,-58,10,19
-105,-110,53,-46,55,2
-101,-117,41,275,90,-193
18,-13,4,1273,4506,-5554
-99,61,-93,6048,-1243,-5553
26,-64,85,5235,-1589,-7132
-91,57,-27,4769,-3858,-6760
62,39,117,-882,-3639,-7099
-7,-97,-89,877,-510,-5466
21,99,-40,2020,6857,8893
17,-111,40,-7804,803,15804
63,-120,-33,5131,4665,6410
-5,-21,-55,-177,-3820,-6154
-50,106,-119,2057,-3890,-6384
89,-39,-125,-1303,-6339,-10806
19,-125,63,-3509,-5483,-11025
76,92,117,-489,-1613,-8406
0,-2,38,-2176,1860,-4176
6,-36,93,-3631,3682,4424
82,61,27,-3800,715,23755
49,55,124,-3517,-106,10431
-67,102,121,-1936,3569,-4218
11,-61,55,5165,-2288,-1367
114,-23,-40,159,-2347,705
94,-60,84,-2262,-301,2146
-33,7,29,-4264,8,3806
115,-81,-61,-3400,-3476,6895
125,-55,3,-3050,-1589,6678
-73,-4,108,-1546,-1519,4893
89,15,71,238,-1948,2725
103,78,35,3312,-256,2967
-88,43,80,3172,2587,2787
-20,114,24,45,596,188
120,-14,53,191,-1127,-1302
-110,68,95,1472,-773,-1455
-106,40,92,1156,45,-1177
-118,50,101,-68,-29,-742
-122,60,111,-917,-342,-401
-112,72,112,-976,-244,-557
-92,82,115,-673,-51,-758
-94,85,108,-325,94,-819
-102,66,96,404,80,-619
-102,66,81,426,1,-226
-100,93,85,-300,-75,308
-102,121,81,-670,36,421
-81,-115,79,-529,202,357
-66,-105,78,-50,201,311
-71,-101,66,359,117,235
-65,-95,55,292,81,106
-54,-91,53,-62,67,110
-52,-87,58,-60,-9,52
-55,-90,64,169,35,-117
-60,-93,62,172,12,-225
60,-48,-77,3160,260,-6067
35,19,-95,6018,-2917,-6766
-31,-74,29,3375,-4360,-6891
122,-40,98,3,-4203,-6220
-21,-100,-30,5006,1163,450
30,90,-90,-585,3818,8244
-87,-80,-117,-2653,2750,8627
-16,-49,98,-4456,-543,2414
32,-58,-17,4068,-1958,-5054
71,111,-71,-286,-3111,-7109
95,68,-29,-1415,-2576,-6123
57,-23,59,4247,1926,-2444
-109,24,-123,-2359,2347,6929
104,-100,-96,-482,2136,7662
21,-16,42,-625,460,-2087
-67,18,-61,880,-5420,-8672
51,28,126,-528,-6342,-9576
29,-112,100,-1413,-5337,-9768
104,-38,-23,-663,-3069,-6446
-81,91,24,149,1965,-1252
-50,-92,-104,-4312,6234,7859
-77,12,-47,-2504,5007,22248
-126,-83,-2,-5604,3458,4223
-102,-70,-128,2773,-1513,-2429
44,-112,2,1517,-1146,-2688
40,-18,-10,-326,960,-288
19,-92,-87,-2848,-36,1323
-15,25,-46,-3244,-1195,2900
108,-115,-57,-2084,-1479,5242
-45,-93,2,-1792,-693,5261
-55,4,44,-2208,-1895,4802
8,88,38,-1119,-1852,3599
10,-74,-80,905,-179,3677
-9,21,-85,2339,-178,3326
-25,-55,127,2111,427,2251
-82,-54,93,323,838,620
92,-103,98,-599,-51,-1072
89,46,-126,248,-503,-1183
119,46,-127,292,-105,-478
120,62,120,-391,5,-505
123,59,108,-585,-64,-718
-120,56,102,-569,-25,-731
-117,63,95,-485,-38,-573
-118,71,89,-269,-63,-380
-114,76,87,-62,27,-183
-113,90,84,-48,14,-15
-104,106,77,-67,101,28
-95,112,75,31,62,144
-99,-128,70,-63,50,132
-87,-118,66,-49,109,64
36,-36,-104,6329,-1871,-7320
108,-48,66,2357,-3996,-8971
27,-29,-11,-607,-5131,-6957
17,-54,-73,3321,-1345,-4485
48,-114,63,1741,5364,6149
-27,-94,-92,-5673,3866,9126
113,4,-58,-4426,972,5069
53,-23,93,5804,-4274,-6361
-101,81,-65,-1012,-3203,-6234
76,-104,98,-3729,-3178,-5748
-19,7,-70,5589,2937,-3395
65,103,-102,-2338,4988,8709
87,-111,-20,51,2976,10074
-112,82,24,-2871,-3002,-3028
89,-58,13,4794,-4665,-8053
34,-40,41,-2111,-7175,-9123
-112,-24,-126,-5250,-4339,-9912
-113,-74,35,-1818,-2625,-8576
-123,31,-90,-4615,4182,-2805
102,85,-77,-9963,2087,21741
-15,49,-13,-3493,837,17872
90,1,-108,352,1046,-2291
103,-82,-103,2948,-147,-4969
100,-56,-4,645,-2423,456
-100,122,-124,-1115,-128,1372
-42,-14,-102,-3100,-1119,3288
7,-36,-34,-2740,-1093,6016
-103,34,-113,-1298,-125,6066
104,-127,15,-2426,744,3371
-115,99,95,63,-2189,1918
10,-20,-49,-739,521,3293
-11,-108,-82,213,-22,2752
-41,64,-103,518,-588,2270
-108,21,-119,317,-1311,2269
-107,-63,105,276,-853,128
-72,99,87,364,719,-1717
-80,51,68,533,1208,-1663
-92,30,77,692,422,-715
127,47,97,256,-689,445
-103,69,93,-351,-441,195
-72,91,95,-781,-139,-297
-82,90,87,-610,-69,-653
-90,84,92,-250,-154,-458
-108,98,97,-229,-231,102
-101,-125,91,-559,3,308
-86,-104,80,-457,193,112
-69,-98,62,-87,224,-312
-74,-108,58,205,29,-266
-79,-104,63,13,-56,-13
-71,-92,61,-188,192,205
-33,-119,-10,1084,3635,-4655
-32,126,-10,6055,418,-6570
-91,-79,111,5517,-3336,-7760
-25,-100,-84,-1359,-4327,-8085
-44,-4,-8,-1062,-2384,-5782
-16,38,-81,11269,2963,-1061
-84,-13,-69,297,3302,4470
-18,-59,-86,-8875,1695,10558
-97,74,-88,-1374,669,4870
-74,34,85,1917,-4439,-6720
-4,-83,-56,766,-3281,-7798
28,45,-11,-1771,-3552,-7615
-100,-2,116,6785,1948,-3255
94,53,-45,-2998,4366,12818
64,13,-22,2235,3464,10006
-21,41,-55,-4611,-1662,-3636
97,29,-42,3275,-3505,-10176
-32,15,-18,-1282,-4563,-11463
-88,-16,83,-4274,-3797,-12155
-70,124,-14,-212,-1395,-7616
-6,-121,-105,-1421,3811,-3122
-28,30,58,-9452,2897,14801
123,85,-31,-8016,-4104,19549
61,-95,-6,-1637,-2066,5402
60,-56,-70,6875,3625,-5747
27,106,41,906,-3841,-677
-35,-110,-7,52,-4,933
-49,4,-92,-3450,-686,2677
70,43,-121,-1990,-999,3975
96,59,6,-1887,-3352,7814
11,62,61,-3768,-2121,6205
-90,-102,104,-210,-816,3777
-88,-55,66,2663,-8,3931
118,67,-105,2344,332,3076
2,67,82,472,181,1381
118,0,59,-293,-577,-762
-115,-127,94,962,-324,-1596
-105,60,100,1474,136,-1193
125,36,109,1050,-273,-965
121,3,116,1271,-754,-1491
-114,38,109,675,147,90
-114,73,88,-881,28,114
-107,65,100,-1432,-517,-377
-111,40,98,-873,-514,-507
-118,59,90,-209,-377,-399
-106,88,64,261,299,172
-108,90,59,584,189,-92
-107,102,60,339,-39,-120
-100,120,54,-203,60,-19
-99,115,52,-217,100,-98
-31,-53,-112,506,2691,-5537
-114,106,-39,6454,1883,-5693
81,81,-100,3504,-2308,-7094
-101,-44,-106,3842,-1518,-7852
-31,107,126,1579,-2023,-8579
-33,0,-87,1419,-1707,-4657
-103,-64,23,3516,2224,2426
8,-103,-123,-2751,1283,15114
-108,-128,-55,-353,3869,10655
65,30,-98,195,859,-3494
100,-124,-14,2787,-6098,-4755
-114,-1,-28,-1404,-3199,-5257
-38,113,41,238,-1012,-3872
103,-25,15,4766,3694,-1565
-47,-86,29,-6500,1696,12584
-50,-83,13,1129,5606,4511
63,-111,-63,1118,-3769,-5383
-74,-118,-93,782,-5602,-9110
102,-28,-33,-939,-7065,-10019
53,17,90,-3564,-4442,-10642
18,-102,26,352,-3234,-7330
-52,67,92,-1480,1879,-2408
52,-30,-115,-4331,5581,16081
125,37,15,-4855,-765,17004
-128,109,-125,-4480,1631,3882
79,8,-61,1955,1213,-4289
50,-97,-13,3016,-1672,-790
26,-97,-103,-78,-1233,941
67,-63,85,-2188,-24,2358
-46,35,-127,-2332,-256,3238
65,83,-44,-2278,-1352,6030
-30,-3,-6,-1313,-359,4402
-33,69,59,-498,-799,3561
-34,-119,-62,-975,-282,2293
127,-55,-71,-119,-884,2153
-68,51,117,-338,331,1862
-58,5,99,376,154,1605
-80,-12,89,461,-382,1487
-119,-39,69,329,-478,137
-116,-93,77,737,390,-1108
-114,101,81,1289,416,-799
123,68,89,1209,-110,-229
-120,85,97,79,-114,130
-110,85,92,-359,-20,-206
-99,88,86,-317,49,-258
-89,78,82,38,-19,-367
-90,77,77,162,-42,-304
-95,85,74,-128,9,-180
-92,85,70,-99,-16,-83
-89,96,64,-107,3,1
125,-9,113,3516,-2770,-6919
-104,44,-66,529,-4634,-7929
-55,-52,-52,-1937,-3229,-8533
-25,-72,-61,7936,8154,7279
-89,-16,60,-11087,3105,8398
59,5,14,3099,3126,5430
-75,16,-50,1578,-5489,-6724
-100,-118,-37,-1376,-3375,-7297
-45,64,-90,-1739,-1325,-5726
-112,12,117,6791,3197,307
-14,-86,73,-6288,1676,10111
-80,40,-33,2691,2035,7442
35,-121,103,196,-3384,-4581
-9,-50,-126,1617,-3317,-8045
117,2,56,-2494,-4804,-9736
6,114,-118,-4213,-4035,-10623
-53,62,27,-3363,-1431,-8806
84,-74,-13,-4961,4889,-4993
-97,-118,-39,-12259,-247,22193
124,106,117,342,-3647,23129
106,-71,65,-9060,2706,-598
-44,46,80,5710,-245,-8022
-78,-66,-66,3988,-978,444
-111,-16,-119,883,1098,781
17,37,-12,-3218,-1995,3064
-109,29,-61,-2704,-727,3458
121,-25,54,-1088,-1635,4794
-11,55,-1,-1757,5,2586
-92,-76,33,734,-177,2248
-116,55,127,-8,-258,1823
77,-55,-118,-846,-1617,1493
83,-26,-100,-130,-674,1471
-116,-79,-93,438,238,2458
-39,-67,-124,75,679,2493
-36,-55,82,-592,677,1613
-80,-78,71,-319,-139,298
-109,96,93,797,-164,-631
-101,76,84,1032,419,-650
-97,69,77,623,303,-607
-50,76,80,-78,416,-273
-67,76,107,-489,-200,-283
-93,77,103,-564,-497,-352
-102,67,101,-12,-233,-275
-82,66,97,427,195,-99
-74,82,89,135,107,149
-75,108,83,-357,-125,178
-77,117,85,-288,-67,141
-58,114,76,137,186,93
-72,122,75,361,-51,4
-55,123,71,318,74,-136
56,110,-107,4097,562,-4411
-26,-13,120,3933,-1540,-7101
119,117,40,3722,-2961,-7641
-67,36,66,-304,-3804,-8116
-45,113,-110,7379,1926,-197
-57,79,3,-424,4883,9038
-94,87,116,-1208,4680,9054
95,-8,13,-2271,-5432,-3765
116,-116,38,2694,-4829,-6065
-35,-124,-1,-4234,-4073,-6392
69,81,-92,-801,-401,-5182
-49,-13,-26,3040,1513,6297
64,-25,-9,-2338,3325,9078
60,-29,20,-3403,-1664,-3040
-87,22,-11,3395,-5139,-8187
-83,29,-81,-6105,-6315,-10373
-26,-5,81,-7899,-2155,-11166
-56,-28,-85,-45,182,-7973
-46,-104,81,-3666,3154,-2092
46,106,-124,1206,3830,27042
-90,24,95,567,5106,17581
-9,-106,49,-9514,-2283,699
102,-110,32,4345,2736,-5952
68,-110,44,1988,369,-125
-119,-36,80,-1072,-365,1508
21,97,-87,-2104,-1721,3353
57,-50,114,-2302,481,3234
99,-121,-25,-1406,-672,6107
115,-74,66,-972,-1529,4142
-72,-116,29,-2418,-1219,2655
-31,-108,45,1185,-1560,3978
-112,-98,-3,1743,2081,3476
85,-115,53,937,2817,1709
-79,13,51,1681,295,1055
119,-108,100,1754,-1508,-332
-79,94,-109,-56,-695,-594
-58,50,126,-418,326,-735
122,55,-115,-596,-343,-97
-127,68,-89,-717,-414,196
-92,86,-85,-888,51,-45
-82,77,-112,-115,168,-394
-75,68,-121,218,33,-294
-74,71,126,58,-58,-212
-80,81,116,-223,9,-137
-73,105,104,-379,146,-89
-62,122,86,-98,63,-122
-61,-126,84,-56,-4,-240
-63,-122,85,-117,-31,-154
-60,-121,86,33,-62,-248
-60,-118,87,117,25,-188
77,59,-21,3030,-153,-5336
84,42,-63,1946,-1242,-6744
-113,120,118,1097,-2621,-6687
-83,-50,55,1151,167,-3547
-11,2,-16,9311,4913,4245
43,-89,49,-9443,470,9228
-68,-33,-89,-2720,894,6171
97,116,-123,5883,-2731,-6649
61,-100,110,6,-3669,-7101
-80,71,101,-2082,-1431,-5392
73,-25,70,671,-74,-3876
-18,-56,46,3798,5109,3070
-80,54,-82,-4579,2352,10559
-41,-7,18,-589,2434,5078
127,23,-67,4647,-5196,-5650
72,-121,-7,580,-5674,-8403
113,-26,-22,-4475,-7375,-10804
114,-32,-35,-4156,-2270,-11505
0,-1,-97,-539,322,-8531
-82,-112,101,-5186,4209,9
-74,104,79,-1323,726,22646
31,-10,-116,171,1163,10865
109,-66,126,-4005,1106,-1525
76,89,82,5289,-1540,-3138
-98,-119,39,31,-1020,158
108,42,104,341,767,1351
99,14,-65,-2874,-2238,4979
85,126,-85,-1998,280,5424
-87,-65,11,-3266,-903,6493
-73,-76,29,-2853,-2945,5410
58,114,-50,-919,-881,3259
3,-69,-106,1796,140,1946
-84,102,-128,1384,-147,1346
-101,5,114,1471,307,861
-97,-38,87,1499,642,277
-103,-74,86,1106,347,-285
-108,127,82,640,116,-526
-99,117,84,-350,21,-714
-90,88,90,-269,-150,-671
-92,59,93,196,-136,-626
-92,59,91,151,-93,-589
-82,66,86,-230,-94,-449
-72,59,86,-173,-140,-277
-83,65,86,-142,-168,-81
-84,86,84,-419,-43,45
-84,102,75,-393,52,215
-71,119,66,-333,259,127
-42,-105,65,-145,657,-930
-42,-69,74,487,338,-213
-68,-63,70,362,-332,65
-66,-65,-74,-6577,2560,-7401
87,0,18,6371,1675,-5022
36,60,97,6431,-1356,-6675
86,119,26,3556,-2641,-8375
20,48,-30,1370,-3921,-7710
-77,81,-69,7371,4061,1020
-21,-105,-14,-6930,1818,14137
-73,3,-30,7315,3443,7013
118,103,-4,-4172,-4686,-4182
-80,-89,-5,1293,-2938,-7067
24,-8,86,-3042,-1505,-7032
51,-99,-121,2305,2295,-6587
74,58,5,-143,3310,8428
84,-51,-91,-1094,3705,11125
-59,-43,-19,1708,3763,1335
110,-16,25,3965,-7703,-7814
-68,-122,-97,-2743,-7576,-8512
16,-42,106,-7156,-7589,-9467
57,26,-1,-3590,-2593,-9711
28,-73,-32,-2672,497,-7519
103,-13,10,-7954,7026,4079
96,-116,10,-3303,-1948,23535
114,-8,-77,-3010,1498,13595
-4,90,122,-224,2734,-6469
82,-119,-42,5475,-3080,-2452
9,28,-104,144,-1121,1885
-19,5,90,-1302,-976,3153
-108,8,-43,-3359,-680,3931
-92,-119,16,-511,-148,5199
-70,-90,-13,30,186,4228
-87,-12,-22,-2216,-913,3256
-106,32,-21,-1161,-1099,2582
-92,-128,-79,-501,-748,3170
-29,8,-126,551,244,3121
10,-55,88,1082,946,2312
-74,-10,60,400,354,841
-113,-32,74,54,-400,-119
-121,-102,110,291,-461,-719
-114,112,103,240,41,-827
-125,93,95,-111,-55,-770
-124,91,100,-341,-366,-639
-102,83,101,-286,-148,-625
-112,82,96,-210,-57,-537
-109,79,84,43,45,-289
-103,82,77,224,91,-194
-87,86,68,138,142,-32
-90,103,56,-188,21,126
-93,116,54,-289,-2,233
-81,126,55,-148,52,161
-73,-113,53,-52,121,237
