AccX,AccY,AccZ,GyroX,GyroY,GyroZ
-119,77,-73,3686,-2497,-4056
33,117,112,7692,-3302,-4346
-29,-69,-11,6203,-2555,-3520
1,-54,126,4145,-756,-2800
-67,-55,-43,5093,1770,-2956
-23,-113,49,-752,1434,-3159
-58,-91,125,7454,4314,-2900
-126,-56,20,1760,2886,-721
-61,108,-18,-4200,-445,96
-81,-127,72,312,-1219,936
-88,43,120,-2300,-1549,938
-73,-10,-16,-3638,-687,1016
-96,43,101,-8724,-1204,1220
-57,-97,-64,-9675,-961,1092
123,35,-34,-9556,-1635,1333
109,90,-15,-3903,-1164,2463
61,93,-97,-2295,-739,2424
124,86,36,-1451,-1247,2893
126,-69,73,-2177,43,2883
-54,-43,-92,-558,-649,3246
10,73,-117,3011,372,3967
64,-1,125,2930,-671,4548
-121,101,91,322,173,2259
21,108,85,-152,-730,1127
-83,-56,87,1352,-817,-189
-103,-110,44,656,108,-556
-98,77,17,365,394,-487
-106,-35,19,648,127,-439
-97,-13,8,-578,2,-459
-88,-46,-7,-690,138,-514
-71,-57,-2,-293,128,-259
-57,-49,-15,-81,113,-129
-69,-12,-26,-500,-109,-49
-82,-7,-21,-423,-99,220
-71,33,-26,-479,-78,90
-73,38,-25,-205,-122,232
-68,61,-21,-334,-120,284
-70,89,-21,-358,-115,94
-80,85,-15,-199,-96,26
-81,89,-14,-250,25,51
-72,94,-22,-377,77,-22
-69,98,-26,-392,-46,-8
-72,93,-24,-136,10,-64
-66,103,-34,-446,74,-25
-61,101,-33,-339,-49,-10
-65,102,-28,-196,-24,67
-70,121,-37,-367,-14,75
-67,126,-35,-338,-36,122
-58,-113,-34,-326,-30,68
-66,-111,-31,-306,-45,93
-110,-86,73,5367,-2888,-5788
-22,71,95,7506,-2196,-3927
-123,-25,20,8132,-3604,-2717
-32,118,-92,6756,-1912,-2337
-39,30,100,4699,820,-3442
-60,9,29,4732,152,-3617
-121,-118,123,6153,2734,-2269
-47,-65,-28,-6643,1579,1015
87,103,123,121,-2349,627
-112,-48,-14,-1763,-695,722
-120,-17,58,-2279,-227,795
-104,2,-24,-7274,215,1265
-117,-125,126,-7111,-1070,1580
-74,-77,-3,-9227,-721,2148
104,4,89,-8307,236,1059
35,-94,67,-6560,-1288,2203
13,-10,-112,-5493,-1429,3176
-114,46,-90,-1994,-514,2614
124,13,-124,-1925,-2725,2812
-14,-83,21,860,-526,3059
-25,91,73,2918,-1852,3392
17,0,29,3907,-297,3188
49,93,38,1241,1161,1294
-91,76,-128,-767,-1272,435
-112,-49,94,-495,-179,-251
-109,123,83,772,664,-47
-81,-127,22,-60,743,-245
-79,54,15,285,550,-64
-77,28,-5,279,79,-417
-61,43,-5,-493,-81,-267
-55,22,-5,-395,191,-197
-54,41,-7,-494,-127,-69
-57,64,1,-608,-140,13
-65,71,5,-211,-83,132
-51,111,10,-922,79,517
-45,108,6,-464,17,153
-67,117,12,-186,-337,101
-55,-128,21,-295,-4,120
-53,-116,23,-328,-54,37
-53,-115,24,-263,-156,58
-48,-108,23,-343,62,5
-45,-120,19,-169,17,64
-52,-103,16,-400,-62,-2
-51,-108,19,-279,-50,79
-38,-96,21,-302,1,28
-41,-98,22,-235,-50,21
-42,-96,15,-297,36,13
-38,-94,21,-241,16,69
-37,-92,13,-201,-38,108
-29,-76,13,-306,-16,32
28,96,-81,4740,2358,-2736
-98,30,-28,5712,-608,-2356
-68,86,111,7386,-1011,-5701
-11,122,-45,10223,-5028,-3239
69,79,-26,10223,-6419,-2506
119,49,111,7357,-3863,-1833
11,-78,-15,3524,-857,-3052
23,76,-126,6063,-901,-3390
-98,-41,-118,-1008,3573,-793
30,-2,86,-3233,1789,-279
87,-51,39,-205,-2519,1109
-98,-13,120,-1187,329,624
104,81,124,-2631,-579,897
-114,111,-105,-7766,900,1429
-114,-91,28,-9781,337,239
91,-63,-65,-11859,120,3517
83,-32,-76,-11390,1730,3361
-121,-123,-79,-5046,-1591,2874
-81,-119,-87,-4074,-831,2584
-10,84,71,-2734,-1962,2770
18,84,24,-643,-1617,2110
-8,70,-73,849,-2505,2231
31,63,-49,1462,-1071,2276
-22,21,29,1968,-694,1833
-49,21,-83,2149,253,912
115,0,121,1123,-73,91
96,-69,117,-17,564,-149
78,102,73,918,741,-146
114,107,35,65,101,-229
-114,74,10,-587,174,-602
-101,68,-4,-826,676,-1159
-105,-7,-13,413,638,-421
-86,41,-25,-216,82,-64
-85,55,-28,-472,-244,-180
-80,42,-17,-346,-12,-57
-88,75,-2,-639,-331,2
-96,91,11,-630,-355,94
-102,115,17,-430,-5,59
-95,117,4,-248,2,90
-92,-126,-10,-200,5,166
-93,-108,-10,-244,72,-168
-81,-109,4,-231,373,-175
-78,-92,7,-245,-15,5
-74,-88,9,-423,-182,-56
-82,-92,3,-469,-48,-199
-80,-105,-2,-258,41,-144
-76,-93,-8,-402,-48,-11
-66,-92,-14,-133,30,24
-70,-86,-10,-156,-175,113
-75,-78,-11,-481,-217,46
-5,-92,-105,6346,1642,-4090
-99,-109,102,8074,-1167,-5393
59,-55,-54,7139,-2280,-4839
10,50,30,8606,-2152,-4162
76,116,-53,9534,-1646,-3194
15,-124,-108,3309,397,-3704
-52,48,76,5753,969,-2816
-36,-58,-25,-1682,3990,-1089
-81,55,-9,-4396,-1210,662
-66,123,48,801,-360,269
-98,105,96,-2401,-573,706
-47,-7,-6,-1231,1112,-177
-33,41,-13,-5275,-817,1099
10,-25,-74,-8353,-479,505
-23,94,104,-7766,-330,2273
126,72,39,-3057,355,2793
-104,-10,66,-1896,1035,3618
102,64,-41,-5135,1063,2332
-126,15,127,-8278,763,3049
-90,-51,79,-4873,-53,2481
-104,-127,124,3145,-2646,3657
85,-33,59,1722,524,2120
46,98,89,-1358,79,1265
-30,-13,91,389,-545,1244
124,-30,125,133,-898,-112
119,127,87,723,147,-602
110,99,46,585,507,-538
115,36,1,1107,769,-478
-107,53,-15,77,574,-761
-88,6,-29,-186,260,-745
-86,-23,-28,-163,103,-506
-91,-31,-29,-143,68,-278
-88,-14,-40,-353,19,7
-90,12,-40,-562,-188,82
-95,48,-36,-636,-255,208
-92,56,-38,-301,-130,201
-98,73,-35,-287,-163,290
-101,94,-38,-397,-195,236
-102,104,-35,-366,-137,215
-98,112,-35,-248,-92,132
-102,127,-38,-391,-97,0
-99,117,-33,-166,27,16
-95,122,-42,-178,13,-62
-92,120,-48,-222,32,-85
-95,117,-51,-224,6,-83
-97,107,-47,104,-238,-68
-96,107,-61,-170,-25,85
-94,126,-67,-505,74,29
-92,124,-61,-249,28,77
-90,-126,-58,-180,6,137
3,-55,75,6320,-4310,-3727
-13,-111,-71,5777,-4905,-4341
4,-67,-49,5150,-3375,-4531
-23,-44,-99,3368,-1945,-3120
67,-79,64,4430,-45,-3289
-19,28,-77,2416,661,-3455
-114,-15,74,4945,797,-2480
-11,76,65,-465,4850,-1430
-109,42,101,-3533,-1412,-64
-125,-127,-33,-476,-1578,1191
-103,46,91,-1103,-222,209
-110,1,11,-1364,500,155
-77,-4,-5,-4629,-227,611
-37,-2,-118,-10158,-1305,779
-65,-11,59,-6638,-846,1981
-96,63,-108,-9158,-107,2741
75,42,76,-3096,-89,2945
99,-78,-20,-3544,-170,2571
120,-14,-7,-2255,-550,3015
-54,-101,10,-3403,-239,2561
-64,66,-126,-276,-1282,2795
36,28,-92,2620,-255,3217
31,105,-93,700,272,1717
-43,54,-117,359,-370,844
-119,-55,90,914,-217,356
122,-68,77,89,-219,-208
125,99,45,301,222,-250
-119,70,13,-175,186,-444
-106,53,-6,-388,44,-404
-99,49,-11,-534,-40,-445
-101,34,-24,-123,28,-438
-93,32,-46,-74,343,-357
-79,44,-54,-246,115,-265
-81,45,-59,-274,-192,-77
-95,57,-53,-493,-194,10
-88,74,-50,-464,-142,7
-91,83,-39,-339,-217,148
-96,98,-41,-424,-131,208
-99,-124,-35,-564,-210,153
-99,-123,-28,-354,-177,203
-102,-106,-28,-358,-111,168
-110,-89,-38,-502,-139,-10
-101,-85,-44,-719,-50,-286
-111,-98,-52,-762,-83,-199
-82,-92,-49,-670,-89,293
-82,-65,-61,-368,-171,189
-110,-49,-69,-295,-74,15
-99,-62,-70,-111,169,84
-84,-56,-74,-10,33,122
-63,-60,-77,60,135,84
96,108,20,9071,-2757,-3923
65,16,100,6309,-4209,-3760
104,23,-39,5464,-2616,-3284
55,-53,28,7741,-2073,-2221
46,124,66,1818,62,-3489
89,-85,64,5707,-2187,-1907
-38,6,-48,3859,2710,-1612
37,-21,-4,-7643,2122,27
67,77,-56,1630,-2805,906
-82,63,62,-1824,-27,512
-112,-1,58,-1475,-56,740
-74,26,9,-5986,201,978
-50,-63,126,-10191,-698,1393
-53,121,5,-9016,-866,1913
117,-45,89,-7653,-190,2139
57,-122,-125,-5247,-985,3809
44,26,-77,-1734,-264,3454
-113,25,61,-1638,-784,3547
-11,39,11,-1150,-239,2555
37,47,-110,1067,433,1958
65,-3,10,3720,618,2692
26,-82,109,-1017,-1198,2553
-79,91,118,-947,-1806,1546
112,-41,107,294,-781,508
101,-68,56,17,481,-425
107,122,8,450,1026,-721
-123,74,-47,299,924,-990
-123,55,-51,-142,208,-1086
-119,25,-42,-206,-176,-619
-106,33,-56,-671,-104,-644
-110,27,-63,-599,-118,-572
-118,27,-67,-553,-217,-338
-121,29,-58,-267,-513,48
-115,73,-58,-934,-261,202
-99,92,-62,-689,96,137
-94,97,-67,34,101,49
-115,103,-78,-4,97,128
-123,107,-79,-135,39,340
-121,114,-83,67,-10,534
-90,124,-86,191,104,533
-74,-112,-77,-2,-92,442
-110,-105,-71,-393,-229,128
-113,-81,-46,-1289,-95,-164
-90,-101,-26,-989,-21,-136
-112,-113,-21,-267,-35,-113
-125,-113,-29,-21,274,-97
-113,-115,-28,29,225,34
-99,-98,-42,-299,40,148
-93,-93,-54,-308,-23,-10
-88,-95,-58,-161,138,68
-91,-51,-51,4806,-1895,-2519
77,-82,50,8137,-2377,-5075
-31,-128,90,8691,-3826,-4357
3,-59,-7,5232,-3698,-2697
70,-14,52,4968,-1547,-3197
30,-42,-76,3041,1321,-3907
86,116,91,6269,-351,-2716
-105,-72,56,-781,4044,-650
109,110,35,-3812,-835,156
99,-107,92,256,-1827,1148
-89,43,-97,-1011,215,26
123,6,100,-2935,166,718
-102,67,16,-7747,-265,932
-52,96,115,-8898,-641,1170
-62,70,32,-7933,-769,1888
-127,58,-57,-8768,-1353,2606
-57,0,117,-2093,-1142,3655
42,-4,-56,-1396,51,3673
57,-37,-44,-3024,980,3181
126,81,-34,-3450,282,3425
-83,-21,47,-332,-965,2818
-7,-88,85,3097,-530,3116
106,29,92,2045,-72,2654
24,88,26,-494,-139,1309
-114,54,64,-568,-1016,37
79,-126,43,964,63,-1059
81,83,9,675,1112,-985
113,95,-17,-867,920,-737
-124,32,-42,-186,610,-561
-124,6,-31,145,-28,-564
-106,24,-12,-357,-227,-563
-105,16,-21,-256,-35,-839
-126,-20,-15,158,38,-244
-127,40,-39,-555,135,234
-123,58,-44,-657,-167,254
-111,75,-41,-439,-160,311
-106,106,-38,-420,-77,280
-102,118,-40,-324,-36,167
-104,124,-42,-266,-57,105
-105,-123,-37,-319,-55,80
-108,-123,-37,-262,-12,39
-107,-121,-37,-250,-10,-12
-101,-124,-39,-106,54,-26
-100,126,-43,-97,-133,-161
-107,125,-51,137,-235,-3
-98,-114,-50,-506,246,45
-103,124,-52,-151,148,103
-103,-122,-55,-222,-101,171
-93,-109,-46,-328,-97,159
-86,-98,-39,-348,-82,100
-94,120,-124,4895,-551,-4105
48,80,24,8421,-2358,-3639
-72,36,108,8420,-4204,-2697
-46,-77,79,6150,-3506,-2350
85,92,8,3390,-920,-2334
8,-47,-89,2564,589,-3083
62,32,26,5601,471,-2179
53,-51,29,-3003,2146,536
119,-38,48,-2082,-1115,135
90,-47,94,-658,-548,191
101,-86,46,-2079,-202,237
120,-8,18,-6596,-2,710
121,119,-47,-6217,436,511
-121,2,-8,-10604,-171,880
123,43,-9,-10135,-38,931
39,-121,64,-5446,-1892,2533
27,-103,-75,-3872,-1165,2585
100,72,-17,-3782,632,1522
-120,85,119,-1154,-1447,1695
-99,-40,-12,-1817,-778,1656
-87,82,0,769,-1003,1626
-62,-114,63,122,-466,1838
-62,77,-49,970,367,1073
-84,61,-64,579,-492,1192
-80,5,106,776,-289,754
-97,9,65,-260,-263,102
-93,-72,69,368,-247,151
-95,-90,27,242,-618,1
-91,-85,5,-459,-82,-73
-93,-115,7,-218,15,-193
-103,-119,10,-210,-159,-6
-87,-109,4,-330,-39,-84
-63,-105,-2,-260,-53,-65
-77,-102,0,-415,-62,-48
-92,-119,1,-53,67,-15
-85,-114,3,83,-23,-23
-65,-120,-24,380,484,3
-63,-87,-37,-722,-14,-95
-76,-100,-28,-523,-249,67
-63,-105,-39,-152,46,-1
-51,-75,-29,-635,-274,69
-54,-65,-4,-661,-467,155
-76,-69,10,-239,-125,100
-67,-84,-17,116,404,-152
-59,-81,-35,-13,338,-59
-56,-80,-43,-170,-28,78
-57,-71,-39,-375,-202,158
-52,-60,-32,-423,-181,58
-56,-61,-8,-385,-214,151
-65,-66,-12,-9,-15,116
-90,121,82,7197,-2016,-3719
52,-87,20,9615,-3432,-3492
18,25,-41,8855,-3982,-2728
-108,-79,-46,4962,-2506,-2433
33,62,112,3602,-1495,-2634
17,-117,91,4912,579,-3158
-70,60,49,858,1562,261
34,-71,-59,-4242,-297,765
-76,49,-112,286,-978,686
-76,99,-119,-1208,555,-278
-86,56,85,-2341,-41,244
-55,57,122,-6791,957,854
-43,17,-27,-9017,849,479
1,72,-95,-6902,1718,1379
-92,122,48,-5325,1114,2117
-29,81,0,-6203,691,1828
-45,-37,-90,-6587,860,2033
-48,124,-33,-5192,-750,2547
11,-9,-22,-4046,-335,1584
12,-109,-71,1406,-1991,2573
9,34,-25,361,-13,3055
21,-11,-110,799,187,2383
-63,-5,-108,-67,-1597,1511
-113,120,-122,1871,-1040,850
-127,77,77,1205,-65,-46
111,96,44,-1044,680,-571
-127,-1,17,216,663,-467
-105,-2,7,175,207,-488
-96,1,-13,-508,160,-601
-101,-28,-16,-356,123,-555
-98,-26,-12,-609,55,-505
-85,-30,-12,-379,161,-83
-90,0,-30,-287,-48,215
-89,44,-31,-650,-138,103
-85,58,-28,-467,-101,123
-86,82,-24,-583,-172,93
-93,91,-19,-463,-182,111
-95,107,-10,-389,-128,54
-86,118,-16,-386,-1,-53
-82,123,-15,-358,-111,-190
-75,112,-18,-194,24,-75
-80,115,-19,-301,-11,-75
-85,116,-17,-312,-32,-99
-84,107,-20,-178,71,12
-85,122,-23,-352,-65,108
-82,-125,-25,-289,-29,110
-82,-114,-27,-171,-28,131
-76,-105,-30,-206,-53,158
-70,-95,-31,-208,-62,135
-70,-89,-28,-282,-126,47
-113,-97,48,-3199,788,-4120
-39,-1,35,1444,10,-2669
99,-2,77,3882,-1051,-2678
-105,-107,115,7966,-543,-4033
59,-78,-66,8892,-3064,-2998
85,33,-31,6106,-2755,-2415
105,-113,-43,9241,-2714,-1591
8,-97,-90,2671,-927,-3568
-68,-75,65,8181,448,-3618
54,110,49,-4816,1713,1483
114,60,-87,-1545,-1836,576
-88,-16,121,42,-104,271
93,68,-75,-1812,220,68
-98,-11,111,-4270,1697,336
-118,-23,35,-8501,376,1376
-42,-31,-76,-9015,868,1728
-89,27,98,-8267,-23,2606
119,126,90,-10596,684,2672
-128,88,-97,-3320,-1053,3162
-95,106,-106,-4009,-860,2832
16,89,-80,-1470,771,2903
-10,89,-91,2089,-2144,3259
6,103,-43,886,-1503,3230
-18,90,73,100,57,766
-99,51,124,844,-725,591
-122,-22,67,738,63,-330
116,-119,21,761,495,-386
83,-108,37,-442,-209,-224
-119,96,3,29,387,-578
-95,46,-10,177,419,-903
-88,21,-32,54,539,-757
-88,11,-35,119,412,-992
-82,20,-25,61,161,2
-81,65,-46,-774,-152,126
-91,65,-30,-652,-441,246
-96,93,-35,-509,-203,159
-92,109,-26,-326,-55,212
-93,-116,-33,-532,-110,140
-91,-106,-20,-448,-241,191
-93,-106,-22,-333,-114,28
-95,-100,-20,-363,-43,-33
-91,-104,-18,-163,40,-14
-88,-104,-28,-187,32,-46
-86,-102,-34,-316,-10,10
-84,-105,-34,-220,-24,-4
-83,-105,-36,-193,38,86
-80,-95,-41,-297,-42,49
-81,-92,-39,-263,-77,127
-76,-81,-40,-310,-56,71
-75,-79,-32,-295,-105,121
-25,2,63,5298,298,-2567
-70,102,114,11364,-2586,-3183
70,-72,36,8320,-4556,-2887
90,-54,-53,5758,-4399,-2206
126,-35,-22,5690,-3027,-1965
8,71,4,1437,-1024,-3691
-101,19,87,3342,2389,-1625
36,116,-31,-1764,333,663
-104,-6,-115,-2046,-1030,725
102,-15,-62,-792,-278,402
127,-34,-119,-2148,975,-117
113,-79,19,-7951,498,1642
-92,106,97,-8748,-35,1295
104,52,27,-7174,-142,2612
11,24,-120,-6439,-355,2959
31,26,5,306,414,4909
-94,63,-101,-5009,2268,2700
-54,-73,-54,-5046,226,2954
-37,-23,20,1674,22,2642
26,121,59,537,-56,2464
3,80,-118,794,-825,1701
-60,-29,9,1976,320,777
-120,-21,37,602,-447,260
117,-101,8,445,-75,-243
117,104,1,216,116,-386
111,55,-12,147,200,-424
119,29,-24,113,323,-513
-127,-3,-31,171,305,-391
-113,5,-36,-220,214,-279
-118,-29,-14,225,-142,-161
-112,-28,-31,-74,129,77
-114,16,-40,-707,-37,-34
-107,12,-33,-289,-71,245
-107,37,-41,-279,-30,178
-110,63,-47,-363,17,169
-100,69,-52,-291,15,102
-101,80,-53,-299,-100,75
-106,91,-52,-355,-94,-24
-105,88,-44,-195,-52,-37
-108,89,-47,-185,-25,-50
-103,89,-47,-240,-42,-72
-103,85,-50,-175,-10,-3
-102,92,-52,-248,-29,8
-104,96,-53,-251,-17,75
-100,104,-56,-241,-34,92
-98,115,-57,-225,-42,102
-97,120,-57,-202,-46,106
-96,-128,-54,-225,-57,55
-96,127,-54,-204,-12,67
-93,-125,-57,-226,0,74
2,-67,64,2723,-1762,-3912
-28,2,34,8072,-2680,-3720
20,-39,108,8371,-4382,-3034
17,17,-81,6354,-4262,-1967
46,56,1,4459,-3109,-2368
-74,-29,-66,2785,-1095,-2793
33,45,-122,4291,11,-1880
18,97,-19,-1528,1894,761
56,54,-81,-2627,-1221,904
20,-49,-83,367,39,127
12,-4,76,-1070,577,-180
4,-46,19,-2344,-18,638
34,-20,40,-6163,494,998
81,-121,-86,-9708,1411,1465
8,1,15,-9081,-630,2922
-25,100,55,-11772,180,2707
-73,9,74,-1439,52,2968
12,18,102,-3082,-845,3229
78,57,32,-2557,479,3095
-109,-76,-92,-2152,-973,2891
-35,123,-79,137,-1006,2917
-5,71,-64,2445,-1044,2275
-13,-126,97,1417,-518,1506
-72,79,87,722,-237,504
-125,32,57,459,-241,-55
108,-59,36,714,230,-323
100,-91,35,706,182,-412
120,99,0,1258,397,-496
-114,108,-25,-231,552,-855
-116,67,-32,-529,406,-768
-119,36,-27,84,71,-275
-119,48,-39,-16,-107,-10
-118,62,-40,-316,-68,-20
-112,67,-46,-306,-9,132
-114,91,-34,-577,-225,229
-109,105,-34,-456,-48,258
-106,-121,-29,-540,-146,231
-103,-114,-25,-291,-105,231
-101,-101,-33,-319,-50,105
-104,-85,-32,-534,-114,-21
-105,-100,-26,-73,1,48
-99,-85,-35,-248,-23,-45
-99,-89,-33,-259,-52,-92
-94,-97,-36,-211,39,-101
-97,-93,-38,-335,-73,-99
-97,-104,-36,-170,33,-49
-94,-100,-41,-220,16,21
-90,-95,-48,-275,-53,74
-91,-86,-44,-322,-70,119
-90,-81,-43,-255,-18,173
6,-13,-122,6980,-2176,-2700
-47,-5,91,8456,-3148,-3910
125,54,102,6124,-4227,-3042
18,-9,89,6542,-4821,-1675
112,30,9,3107,-1744,-2558
-123,-47,75,3293,-1352,-1714
-65,-56,-85,4513,2803,-2132
110,50,-89,-5634,696,1038
-25,124,117,592,-1246,368
-12,7,-106,-1120,59,239
-2,-42,86,-362,721,-206
-1,-25,-21,-2608,304,-14
40,7,47,-6354,235,141
64,-94,-52,-8976,640,976
44,49,55,-6940,534,1587
-60,-83,22,-5234,132,4007
19,-102,-98,-3634,905,2672
43,45,-80,-3820,998,2618
82,-88,-91,-3632,495,2832
-99,3,-20,-1718,-194,2658
-50,80,19,-1892,925,2662
-6,82,49,-1501,1422,1789
-48,67,-107,335,-1088,1476
-34,11,-66,2517,-1018,1912
-92,55,89,1211,-625,289
125,9,76,99,-259,-710
98,-68,59,243,-20,-638
111,117,31,941,608,-422
-117,125,-8,79,705,-788
-100,105,-12,-341,151,-985
-99,48,-24,79,21,-850
-107,46,-22,-63,-40,-650
-108,33,-38,-121,175,-499
-116,38,-36,-359,-28,-107
-117,54,-39,-397,-240,260
-114,81,-27,-453,-174,299
-111,111,-28,-560,-141,426
-111,-125,-18,-536,-258,524
-102,-107,-23,-404,-105,494
-98,-83,-19,-405,-112,319
-97,-80,-21,-270,-95,233
-94,-73,-21,-255,-96,112
-93,-76,-22,-161,40,-72
-90,-85,-31,-156,146,-138
-88,-98,-43,-76,73,-105
-91,-96,-48,-262,-113,-111
-90,-108,-45,-152,-7,-61
-92,-104,-43,-311,-80,20
-92,-98,-38,-349,-121,84
-92,-88,-28,-341,-92,106
-111,30,8,4356,-1969,-2943
-121,11,108,4046,-195,-3129
34,-38,-75,9665,-2247,-2371
22,86,49,7459,-3079,-1781
-16,3,29,7158,-4451,-539
95,-11,-59,4743,-2366,-1556
-81,109,-105,2570,-1762,-2012
-25,-44,-126,5801,608,-1238
-128,122,77,-5251,1641,1127
8,-16,-60,614,-957,200
-22,102,-42,-894,129,87
-5,10,-85,-22,891,-359
-6,18,70,-1696,118,252
5,97,-98,-5562,248,232
75,40,102,-8461,2002,255
68,-115,-54,-8478,1595,812
48,97,23,-5077,2832,3009
96,-2,-9,-3500,2324,1737
77,74,-15,-6710,311,1523
-119,119,118,-6097,1133,2621
-91,-64,-50,-3760,-451,2625
-75,-60,-122,-5193,-1775,2429
-52,25,-103,606,-1267,2495
-54,3,-36,2816,-1423,2103
-32,-121,-128,184,120,975
-110,82,102,-252,19,-418
98,-84,104,1672,-81,-581
80,109,50,1007,187,-474
91,116,28,-326,395,-408
101,84,13,-179,205,-70
118,106,-1,-463,-97,-225
122,101,6,-357,-21,-182
124,100,-12,-351,199,-243
-127,110,-7,-609,-61,-166
-119,113,-10,-459,10,-204
126,111,-1,-161,12,92
-122,-112,-17,-560,41,56
-114,-102,-12,-482,-140,42
-105,-93,-10,-310,-26,46
-105,-78,-9,-522,-61,-114
-108,-90,-5,-288,-41,-12
-106,-81,-3,-291,-28,-28
-104,-80,1,-256,-37,-30
-100,-78,-5,-139,-83,-11
-96,-69,-10,-357,23,-21
-100,-71,-11,-294,38,32
-92,-68,-14,-227,-10,53
-88,-55,-15,-457,-76,53
-88,-56,-9,-270,-45,64
-87,-47,-14,-321,3,20
58,-98,-36,3365,-715,-4183
-99,113,115,5634,-1641,-3299
73,39,-40,8458,-3325,-4476
-68,-4,92,10646,-5892,-3368
-74,113,29,8437,-5103,-2232
124,58,10,927,-1748,-3145
25,-86,-108,5172,-654,-3741
70,-22,64,2118,-774,15
-64,-19,119,-1733,193,855
38,71,10,-1138,-378,865
55,35,-57,223,829,-415
38,52,-124,-1520,-450,536
48,31,-91,-1401,869,53
65,123,-70,-6057,1086,793
-118,50,111,-7536,2186,901
-110,-17,-64,-8030,2346,1214
-119,38,44,-8288,1772,2193
63,16,21,-3976,323,4273
90,69,-124,-7035,2055,2472
75,-19,81,-3883,843,3011
111,-112,-2,-3517,-1739,3017
-85,-77,67,-1835,-685,2861
-68,-44,-125,-465,-646,2063
-31,-74,-101,1104,-436,2196
-35,26,-127,-49,-269,1568
-94,34,120,-418,-448,410
104,-57,86,632,135,-559
81,123,38,734,802,-929
106,96,15,298,843,-832
99,55,2,215,366,-591
109,44,0,-321,3,-351
115,44,-2,-529,-116,-329
118,29,1,-236,3,-36
126,64,-8,-490,-20,-127
119,61,-4,-267,-128,117
122,87,-5,-358,-70,238
126,119,-5,-546,-167,185
-124,-127,-2,-398,-89,130
-122,-121,1,-114,-51,136
-117,-105,-5,-286,-6,36
-117,-103,-7,-296,-30,-75
-114,-112,-8,-223,42,-37
-114,-111,-13,-236,-7,-52
-110,-110,-14,-291,-11,7
-106,-106,-16,-263,-13,-36
-104,-102,-17,-297,-31,-14
-103,-104,-19,-272,-34,28
-103,-96,-14,-369,-81,58
-100,-94,-12,-233,-7,81
-92,-82,-17,-328,-27,84
-85,-3,-15,7712,-3109,-4294
-96,30,91,9809,-6716,-4587
-73,-89,-28,7928,-4714,-4022
118,86,25,5290,-849,-4227
5,21,4,5830,603,-4392
-14,116,-80,2820,162,1277
106,40,-105,-3648,-215,1252
16,114,60,-218,249,-226
54,7,-44,-643,141,228
27,3,-86,-1177,417,-69
30,1,-110,-1952,92,235
36,90,-88,-6063,439,333
101,-24,100,-7683,1249,391
122,-31,-59,-8656,1707,1040
86,7,-42,-9438,1398,936
62,70,117,-8149,326,3173
41,-78,110,-3760,-574,3774
-85,9,0,-5164,598,2100
-80,60,53,-3673,-998,2576
-69,-40,-107,1074,-1903,2904
2,27,-85,921,-1248,2347
-1,-119,-101,-1956,-381,1383
-96,32,-101,346,-497,452
118,0,123,1050,-179,-183
117,-51,67,651,535,-672
121,-100,21,423,1012,-782
122,-114,8,-79,536,-629
-128,102,1,-106,79,-276
-124,105,0,-144,-169,-286
-121,96,-2,-145,-29,-174
-115,104,-12,-287,69,-202
-115,112,-7,-255,-129,-5
-108,124,-15,-381,-59,-71
-110,-122,-8,-313,-165,130
-119,-108,-11,-250,-184,78
-115,-92,-9,-497,-46,-13
-92,-87,-8,-318,-65,146
-91,-74,-17,-326,-117,-31
-107,-71,-8,-303,-34,36
-101,-67,-17,-147,38,-17
-92,-68,-20,-246,-1,-32
-93,-65,-21,-377,-81,-24
-93,-69,-17,-194,-37,52
-89,-60,-20,-335,6,-46
-91,-71,-19,-215,-50,94
-82,-62,-22,-319,-11,44
-80,-60,-19,-315,-47,72
-80,-53,-20,-341,-50,70
-83,-47,-19,-401,-69,100
-81,-39,-19,-376,-31,43
28,-84,12,5063,-458,-3771
74,-33,26,8675,-2536,-5535
-101,-36,-48,10602,-5253,-3843
-111,43,44,11837,-5779,-4179
63,-13,-38,3793,-1100,-3615
92,65,68,3580,-2992,-1677
56,127,17,-468,2364,185
120,15,33,-2742,503,874
62,92,-50,-41,187,-77
99,-17,-120,-557,697,-217
40,41,-116,-1860,-113,294
88,40,-60,-4155,1468,-200
-126,27,117,-7306,1279,748
-86,-102,-33,-7521,1714,1150
-112,-87,120,-7555,2307,2438
85,54,-85,-6708,1740,1652
115,48,-66,-3223,1391,3030
-104,-79,-46,-7546,744,2655
-101,-55,-92,-6115,-571,2285
-51,30,83,-3784,-1652,2669
-47,111,-77,2614,-1640,3425
-6,-4,-72,581,-916,2011
-29,59,-128,-1279,-503,966
-95,-60,-101,972,-355,429
-111,-105,71,1499,478,-644
-114,-116,41,335,872,-800
101,64,2,343,406,-971
74,35,1,524,-443,-334
125,53,0,-358,-52,96
-128,41,-2,-127,111,-182
-116,58,-10,-432,88,-273
-122,36,-13,-217,84,-204
-118,32,-20,-88,10,-68
-114,57,-33,-443,-46,11
-122,70,-22,-523,-201,128
-122,79,-20,-292,-162,188
-114,112,-15,-352,-140,202
-112,126,-17,-438,-131,140
-112,-117,-9,-444,-175,150
-100,-104,-10,-275,-52,10
-108,-105,-16,-299,-108,-122
-113,-104,-23,-167,-32,27
-112,-92,-34,-299,10,39
-109,-98,-38,-224,-61,-8
-89,-83,-40,-361,-30,81
-93,-90,-37,-145,3,30
-97,-81,-39,-356,-82,-10
-97,-87,-33,-253,-63,96
-96,-80,-29,-299,-18,30
-83,-70,-28,-321,-34,108
111,120,48,8847,-2590,-4578
-26,-103,102,9084,-5033,-4097
-60,-105,-93,8840,-5391,-2945
118,-88,-3,4649,-2484,-3310
-14,70,-75,3767,-1341,-2967
-128,77,60,4796,543,-2210
-20,8,-119,-3609,-315,1770
-128,-5,-5,-889,323,474
38,45,-97,-413,592,-344
29,-31,60,-621,14,4
49,-14,125,-1948,857,21
86,20,-118,-5068,1283,558
-108,-24,56,-7860,1753,1259
-120,-76,-84,-8701,2239,1591
76,-6,-60,-8447,1287,2462
101,52,-76,-5873,1148,2680
105,-97,-98,-8674,276,2380
-119,-45,-92,-6164,-256,2101
-96,-18,104,-2423,-1633,2284
-12,-61,-54,1894,-1282,2476
21,68,-45,69,-894,2075
-35,91,-109,-334,-861,1088
-109,-26,-96,1588,-742,633
-108,-40,94,1071,-101,0
-127,-85,33,619,309,-385
113,119,10,502,458,-395
118,94,9,96,186,-206
115,96,17,-666,-241,-230
-126,61,15,-239,-55,-213
-99,94,5,-435,215,-139
-80,88,-17,-280,430,-151
-91,93,-31,-227,103,-126
-92,104,-27,-424,-121,26
-101,114,-26,-395,28,-31
-96,116,-23,-263,-33,38
-105,121,-19,-94,-59,103
-102,126,-20,-5,12,28
-99,127,-18,-52,-66,85
-92,-120,-18,-183,-128,130
-92,-118,-19,-253,-86,151
-92,-108,-14,-334,-183,190
-91,-97,-13,-301,-118,158
-85,-91,-12,-343,-41,104
-83,-81,-11,-399,-85,42
-85,-84,-14,-288,33,7
-75,-77,-16,-425,14,-31
-77,-81,-18,-337,37,-46
-73,-80,-20,-320,91,-59
-73,-80,-30,-231,96,-120
-72,-82,-31,-324,70,-55
3,-19,-45,5298,598,-5035
125,-32,-65,8451,-2652,-4396
63,-86,44,8206,-4078,-3791
66,43,113,9706,-4333,-2302
-46,112,113,4369,-1781,-3483
116,103,-5,6970,2554,-3793
-45,-35,60,-2655,-335,1953
124,1,-22,-2023,804,338
7,61,-118,-475,-174,419
-124,-63,37,124,1078,-729
45,13,71,-3367,-554,783
117,22,-92,-5692,1581,483
-74,-89,-19,-10360,1669,570
-92,-101,-24,-12146,1287,2367
51,-27,11,-8168,-295,2470
103,-25,-59,-6367,-539,3422
127,-60,-94,-6193,-519,2664
-58,104,88,-4206,-2655,2613
19,-79,-91,2139,-1568,3092
108,-40,-124,4007,-1723,2863
127,69,71,1192,-810,2973
15,111,100,-356,-1605,1453
-104,10,96,716,-918,-313
109,-94,77,1489,321,-759
98,104,12,1033,1263,-775
108,95,1,-108,713,-580
120,63,7,-536,172,-300
120,24,8,-288,34,-212
-114,26,-21,-93,574,-259
-94,34,-44,-113,549,-225
-92,52,-51,-279,197,-64
-92,60,-48,-176,38,28
-94,79,-42,-401,-25,95
-72,96,-40,-362,140,-28
-68,91,-31,-167,61,-29
-72,96,-24,-258,16,-104
-77,86,-17,-250,67,11
-58,92,-11,-424,72,47
-80,104,-3,-398,-154,173
-91,115,-4,-505,87,85
-74,118,-10,-346,294,80
-60,114,-17,36,102,179
-69,123,-26,-23,137,87
-65,120,-29,-116,131,74
-70,117,-23,-225,-5,181
-65,-123,-4,-464,-19,55
-54,123,1,-228,184,85
-48,-115,-3,-404,60,58
-14,-108,-13,-580,398,-247
-17,-103,13,-413,-237,236
51,-116,125,6343,-2338,-4571
52,103,-25,9170,-4357,-3750
-56,-115,-63,10505,-5424,-2689
48,-114,-96,7221,-3883,-2505
57,-39,-102,1906,-1578,-3267
117,-81,-48,7189,-487,-1479
-31,57,-43,-4286,1556,1204
125,8,-5,-1621,671,424
-3,78,121,-293,-343,254
80,-28,97,-953,821,-277
20,8,111,-4106,-430,808
83,30,106,-7509,1119,828
92,-107,-12,-7123,1155,1044
61,-59,-102,-8219,1784,1903
34,57,-124,-8454,1678,2219
71,-57,26,-8162,1231,3115
93,70,105,-4877,-766,3221
-96,66,56,-4765,-1903,3106
-56,-76,-69,735,-1652,2739
19,-128,-63,3479,-1378,2909
-124,-97,-119,-326,-691,3021
-14,-78,-116,-1437,-1187,933
-95,-3,-121,1861,-70,-465
99,118,54,3029,790,-1253
100,-120,26,440,867,-734
93,71,23,129,226,-84
113,52,18,-341,-115,-174
118,49,16,-681,40,-260
-116,50,4,-565,154,-300
-116,55,4,-337,23,-269
-113,62,-8,-259,191,-146
-108,70,-27,-410,138,-206
-103,82,-28,-446,-47,13
-107,90,-27,-484,-67,172
-100,110,-25,-474,-76,-59
-104,105,-16,-308,-67,94
-100,125,-19,-587,15,83
-98,-123,-5,-416,-107,232
-103,-116,0,-307,-83,128
-93,-106,-4,-265,83,124
-86,-104,-9,-225,45,101
-85,-98,-9,-222,-28,100
-84,-100,-14,-271,60,81
-78,-84,-11,-402,-90,100
-84,-86,-3,-231,-174,67
-86,-71,0,-404,9,19
-82,-72,-1,-359,82,9
-72,-65,-8,-263,71,-43
-63,-68,-20,-215,74,-117
-62,-84,-25,-165,55,-89
-88,71,83,6317,-1715,-4125
89,-124,-74,7449,-2590,-3724
1,66,-80,7399,-3635,-2950
38,118,96,9638,-3998,-2205
-51,78,3,4641,-2302,-2829
-15,-118,37,5880,-968,-2161
-82,-42,34,-1226,919,641
-17,0,-28,-2977,-758,1240
8,-41,-106,714,1203,-349
-24,28,57,-1477,-720,444
30,-25,101,-555,901,-362
59,17,99,-4428,635,447
107,33,25,-7402,1139,638
105,-76,-31,-8592,2123,1376
71,-43,-5,-9338,1334,1983
33,-62,-68,-4250,1389,3056
111,-7,-92,-5651,1343,2055
-117,101,-54,-4281,302,3005
-98,-47,-76,-4527,94,2557
-67,25,14,-4672,-1480,2682
-55,-38,-57,-805,-2684,2956
17,-81,-83,1949,-1198,2556
26,63,-43,-600,-1127,1738
-48,59,-60,241,-1006,1061
-114,-17,-109,1721,-146,-364
110,-83,77,1211,844,-716
96,126,33,278,777,-506
114,81,24,290,197,-173
117,69,12,135,-89,-71
-127,40,-10,113,234,-193
-117,48,-22,-107,295,-302
-125,32,-24,20,-12,-6
124,65,-22,-357,-148,69
-123,83,-12,-475,-126,37
-109,83,-2,-146,-190,107
-109,90,5,-109,-157,160
-92,97,5,-274,-48,125
-113,101,6,-152,-222,65
-90,82,-12,-110,103,15
-105,105,-25,-286,-59,-118
-121,94,-33,-225,-56,61
-94,125,-44,-437,-28,-4
-92,126,-37,-329,-128,56
-106,-113,-32,-340,-207,79
-111,-98,-34,-492,-108,17
-94,-88,-33,-383,-175,-11
-103,-85,-37,-484,-161,-63
-99,-82,-39,-639,-45,-28
-78,-67,-44,-727,-167,-40
-85,-52,-45,-693,-157,-111
-1,1,10,6749,-643,-4579
112,-41,45,5800,-2140,-4659
50,88,110,7502,-3066,-4919
70,28,26,8830,-3128,-3785
-61,-77,72,9077,-1656,-3182
54,-109,14,4996,-33,-3445
76,-112,-117,2297,1517,-886
53,87,61,-3836,-867,1302
1,33,10,-641,242,354
66,17,-110,-213,767,-467
21,4,92,-1129,-387,312
82,22,-121,-2948,706,62
91,68,-122,-6873,121,1244
-86,-61,-11,-8370,1525,1215
100,-14,-94,-8888,1054,1665
100,51,-22,-9582,1391,1405
74,34,66,-4706,303,3658
-116,-104,120,-4838,184,3203
-119,-48,-19,-2166,-647,3055
-79,-126,51,-5102,-636,2481
-76,2,112,-1548,-1781,3287
-30,-71,-81,1609,-2196,2985
32,72,-74,168,-722,1453
-46,31,-125,880,264,650
-123,12,71,925,41,-446
105,-98,34,1213,541,-601
117,-123,17,114,626,-622
-127,76,18,-161,155,-251
121,37,25,80,-81,-391
122,31,-3,-137,233,-79
-126,54,-7,-823,77,-155
-121,69,-17,-349,-92,111
-101,109,-27,-629,75,-14
-104,108,-32,-418,-76,-97
-113,105,-24,-101,-187,38
-111,-123,-27,-619,-40,38
-106,-113,-23,-525,-215,-85
-112,123,-12,-70,-165,58
-106,-115,-7,-336,-80,33
-98,-102,-12,-465,4,-28
-102,-111,-11,-232,-66,31
-107,-107,-12,-198,-17,67
-99,-86,-22,-357,2,-71
-98,-87,-24,-349,-117,11
-89,-87,-24,-249,141,104
-86,-76,-33,-247,46,19
-87,-70,-31,-450,-105,-17
-91,-87,-23,-101,30,104
-78,-65,-28,-418,25,64
-80,-59,-30,-290,-88,-6
-100,-38,-24,4437,-2491,-1521
-53,-87,24,6225,-3745,-2626
-109,-35,83,6281,-3801,-4207
112,-85,125,5533,-3610,-3627
109,-68,75,5739,-2778,-2836
-80,-33,-108,5097,-2663,-2338
36,-56,-12,6578,399,-3118
31,-3,68,1054,2089,-1076
57,-6,35,-2279,-394,1263
14,67,-8,-1407,374,-18
104,-44,111,69,529,-151
36,63,94,-1648,-503,-44
-118,-42,-113,-3574,1258,152
81,61,101,-8090,-226,952
-66,122,-46,-8589,1484,1125
125,-94,68,-8434,775,2060
93,101,-98,-9050,150,1699
85,99,122,-3828,-456,3439
122,-45,-27,-6733,-252,3336
-121,16,-40,-3533,-872,2380
-42,65,-105,-1907,-1538,2426
-32,26,-32,56,-1350,2641
-10,-6,-57,1185,-974,2290
-8,64,-72,217,-774,1465
-72,23,124,298,-89,479
-113,-33,115,745,-4,-102
120,-117,26,1157,672,-320
120,-112,9,-42,489,-461
119,114,1,-195,97,-174
-125,92,6,-311,-167,-118
-115,93,0,-248,114,-212
-102,99,-9,-510,191,-314
-103,104,-17,-622,-104,-226
-112,104,-13,-477,-65,-36
-103,120,-20,-453,91,-74
-92,-121,-30,-334,-70,-144
-95,-120,-28,-274,-187,-106
-101,127,-32,203,-353,-198
-104,-125,-40,450,-318,15
-102,-83,-42,-931,10,-25
-109,-112,-38,-198,-44,139
-100,-99,-32,-289,-32,66
-101,-95,-32,-285,-55,44
-98,-92,-34,-291,8,158
-93,-87,-30,-233,-109,75
-95,-88,-30,-33,-107,142
-90,-75,-35,-260,-11,51
-97,-84,-32,-248,-60,50
-94,-86,-36,-160,1,125
-84,-71,-43,-361,12,55
54,-53,-43,5532,412,-4494
-16,-128,12,5887,-996,-4973
-126,105,-11,7855,-2787,-5659
104,67,102,8211,-5003,-4339
118,-82,91,7814,-6536,-3191
-49,-126,-127,1177,-256,-5023
-120,-8,-14,5976,2151,-2021
-1,-123,-87,-2428,-238,931
-113,5,126,-1021,-706,1072
-114,44,110,-493,1050,-453
108,31,32,-843,-276,239
-98,20,58,-1463,1079,-159
-93,23,35,-5242,895,1117
-37,-43,11,-7545,1624,1630
-22,82,-75,-8337,1230,2948
-94,44,23,-10282,68,2804
89,57,5,-8301,381,3509
126,-120,-25,-2483,-307,3440
-72,39,-9,-6450,-829,2878
-45,44,74,-3733,-2202,2980
49,-33,102,-36,-1575,2382
83,-14,-80,541,-1527,1883
-1,58,5,-905,-1775,1656
-44,-54,-94,2289,-190,1420
-123,27,-107,1274,-959,492
119,-12,86,62,442,-353
98,-105,47,680,984,-704
123,-125,22,469,721,-423
-122,92,-26,37,717,-837
-124,56,-42,91,513,-643
-106,73,-51,-720,367,-469
-92,47,-52,-183,-41,-83
-90,84,-53,-425,-248,-155
-98,85,-54,-448,-47,-62
-105,96,-47,-473,-132,112
-105,120,-41,-527,-342,164
-102,-122,-32,-471,-242,249
-93,-101,-20,-447,-247,122
-96,-100,-24,-292,-159,48
-102,-92,-24,-290,-58,31
-102,-97,-28,-93,-11,-2
-104,-86,-36,-201,-30,-4
-91,-91,-29,-257,94,-4
-75,-105,-35,90,248,30
-81,-88,-48,-190,18,-23
-81,-90,-45,-479,-73,-57
-86,-98,-40,-434,-112,72
-85,-79,-35,-580,-179,27
-92,-73,-27,-557,-113,-19
-85,-70,-22,-508,-36,22
39,-33,-109,4280,-1543,-3153
120,-64,92,6116,-814,-5845
-56,-4,-45,6889,-3426,-5226
118,60,-38,6368,-3703,-5190
116,4,-96,9485,-3757,-4821
93,70,-21,5161,-946,-4760
-36,97,20,5378,-1620,-1079
-111,-16,61,-1797,41,1217
16,16,4,-2543,-565,1306
-95,98,-35,-277,684,-191
-90,31,91,-784,-168,-21
-93,43,92,-2369,310,270
-79,20,73,-3801,905,794
-70,79,28,-7407,1171,1077
-43,-59,-104,-8592,2140,1578
-83,4,12,-9285,1424,2177
-114,30,77,-6558,174,3118
-81,-97,-100,-3558,79,3132
-83,119,-82,-3696,-458,3054
-58,17,-13,-4020,-584,2394
-45,-4,21,-3133,-1217,2158
-56,-71,121,-241,-1218,2280
-22,122,-108,2859,-920,1966
-15,-50,107,655,-418,1220
-70,-83,97,636,-193,843
-120,-123,51,856,-100,75
112,110,47,252,57,-313
108,61,11,-141,437,-491
112,33,-6,-35,312,-453
117,28,-14,-299,256,-403
-124,17,-39,-359,241,-381
-117,19,-47,-359,33,-375
-107,21,-47,-435,-9,-227
-102,26,-53,-440,-16,-245
-117,28,-51,-583,-126,-19
-123,39,-42,-551,-115,79
-112,56,-54,-241,18,118
-107,81,-57,-498,-98,120
-117,86,-57,-361,-222,155
-117,104,-52,-356,-126,222
-114,109,-50,-188,-89,216
-110,127,-46,-391,-132,162
-121,-125,-41,-346,-74,86
-114,124,-39,-229,100,55
-107,125,-48,-152,-61,8
-109,-126,-55,-229,-69,26
-110,-124,-53,-333,-17,58
-105,-120,-55,-206,-45,120
-104,-106,-55,-295,-57,21
-104,-97,-54,-370,19,-10
12,7,5,4604,-1242,-4320
103,67,-56,5791,-3261,-3928
45,112,-128,5031,-3067,-4272
52,79,-9,6778,-3479,-3421
120,-66,-59,7797,-2053,-3709
19,-103,117,3141,-724,-3414
109,-49,51,5186,-505,-2555
-96,-83,73,-517,1188,592
-63,64,-59,-2672,-287,555
84,112,-67,-658,-687,478
-97,29,-121,454,1287,-794
116,23,41,-2453,-775,609
-73,19,108,-4609,283,1058
-42,37,29,-8051,984,1356
-20,-30,124,-8414,601,1303
-122,-76,80,-7316,223,2055
-123,63,-75,-7860,896,3042
94,32,-121,-1695,78,3438
-83,-97,9,-4430,171,3851
-111,5,-62,-4195,41,2820
-60,34,8,-4280,-1416,2900
-58,-32,-126,-633,-2025,3179
12,-86,-97,2147,-1179,2121
14,23,-128,463,-604,1315
-91,28,-123,-227,-421,403
82,-101,87,758,476,-436
98,108,51,614,862,-565
113,63,0,62,944,-611
117,57,-9,-288,355,-383
-121,35,-30,-360,218,-235
-116,46,-34,-317,-30,-88
-115,38,-40,-212,109,-37
-113,77,-38,-667,-169,-176
-113,66,-34,-307,-105,48
-111,92,-33,-483,-103,-11
-120,95,-25,-321,-242,-83
-111,108,-22,-431,-98,9
-104,118,-28,-434,-36,-71
-104,119,-24,-241,-91,-27
-104,123,-34,-110,-5,-43
-113,-123,-38,-315,-98,-51
-111,124,-34,-294,-5,38
-98,-113,-35,-295,-102,25
-95,-112,-35,-205,-46,-43
-97,-122,-35,-24,44,9
-98,-113,-42,-229,51,54
-96,-110,-46,-234,-30,54
-97,-112,-48,-177,-63,135
-92,-94,-48,-369,-79,120
-89,-96,-47,-191,-60,138
-1,91,5,3035,655,-5290
91,69,-14,5006,1582,-3966
-61,72,89,5731,-1423,-4355
-90,-88,-122,7899,-2967,-4057
-71,-50,-41,6987,-3143,-3409
-93,57,-11,12252,-3313,-2457
-124,49,-63,3607,-939,-3927
-13,106,76,6680,797,-2394
44,-65,53,-4585,-250,1757
-76,-36,-28,-750,125,492
92,108,-113,-708,-150,-283
-77,-46,86,-341,579,-72
-111,67,106,-4338,-271,988
-50,56,73,-6232,900,1372
-50,-65,-11,-7330,883,1762
-51,95,120,-11378,1283,2550
99,2,-82,-8337,1679,2820
114,-52,97,-3641,1538,3485
-61,69,-123,-4643,313,3621
-42,67,-95,-1283,-895,3283
8,100,-44,-5314,-190,2589
-53,-32,36,-2308,-1949,2549
-12,87,-45,1607,-1601,3998
32,47,67,99,-199,1350
-41,11,-104,-16,-1261,713
-102,-69,117,828,-70,-266
108,120,46,727,730,-922
106,92,16,17,621,-630
109,59,-7,-391,273,-505
118,30,-20,-360,122,-388
119,27,-25,-354,253,-497
-123,30,-28,-260,269,-261
-112,55,-41,-530,60,-319
-109,64,-31,-398,-30,-142
-104,77,-39,-451,23,-168
-120,76,-29,-178,-138,19
-119,99,-37,-365,35,33
-117,116,-39,-386,-84,23
-107,112,-40,-30,-16,126
-102,-119,-49,-247,-57,42
-110,-117,-46,-203,-197,32
-108,-115,-39,-164,-46,71
-109,-123,-43,122,31,87
-66,-113,-41,-69,-109,85
-104,-110,-42,-91,-240,-31
-126,-127,-37,-231,4,-97
-110,118,-36,-185,-23,133
-94,-111,-42,-423,-185,109
-93,-116,-40,-71,-63,-17
-93,-123,-47,-19,63,-7
2,-111,113,6253,1806,-2951
-23,-82,111,5518,992,-3978
-52,-17,-74,6755,44,-3650
78,46,118,10486,-2593,-2800
107,-117,43,11591,-2938,-2576
31,80,-115,6237,-1071,-4181
122,-50,23,4980,2463,-1302
-88,-128,26,-4989,218,1329
105,-62,-123,-508,-715,64
124,24,103,-787,-42,58
-103,-43,84,-1305,524,-78
-108,-12,42,-4562,92,547
-88,-8,25,-8471,9,909
-28,-110,114,-8551,710,1607
-96,0,-85,-9553,554,1744
109,79,25,-7592,-357,3095
123,126,68,-2391,-366,3286
-73,104,-84,718,-225,3792
-5,61,88,-2063,-1512,3244
26,38,25,-2476,1550,2149
45,-87,83,-669,584,2373
70,-37,102,-510,-739,2569
-4,45,110,-1325,-1904,1825
-72,12,108,-327,-1385,184
-123,-92,67,1130,326,-893
120,113,24,1141,1087,-913
118,93,-4,188,635,-235
-117,-118,-2,-1013,8,-178
-104,72,-8,-373,203,-564
-79,72,-28,-441,718,-751
-78,57,-48,-341,553,-672
-75,49,-61,-179,151,-426
-83,67,-66,-463,-146,-218
-85,78,-64,-575,-135,-35
-81,87,-60,-386,-187,192
-86,110,-47,-466,-406,308
-75,-119,-37,-632,-170,317
-64,-110,-26,-148,-84,410
-76,-98,-33,144,-138,373
-78,-88,-34,94,-131,252
-76,-88,-38,-65,49,142
-70,-98,-36,48,55,192
-63,-95,-41,-126,14,82
-63,-99,-32,-324,37,30
-63,-102,-30,-404,83,-20
-59,-110,-26,-269,122,9
-51,-102,-33,-478,140,-1
-66,-106,-31,-422,71,35
-55,-101,-33,-442,210,47
-33,-98,-33,-316,167,23
1,127,-96,5963,-1443,-3536
-115,-112,-85,8826,-2803,-4100
79,-26,100,7798,-3255,-3584
48,-60,93,8587,-3939,-2288
-28,116,-21,4454,-1776,-3150
-3,22,23,6208,-2601,-2157
42,-113,104,2977,1143,-1099
-125,104,55,-4830,121,1234
-104,-59,-60,-594,194,490
45,-128,-66,-948,-76,-167
-106,-39,102,-699,767,-21
47,84,-98,-5279,-509,721
-105,57,67,-7788,1867,936
-125,-85,-47,-7257,1415,1020
-106,2,64,-9484,1788,2139
102,1,68,-7045,866,2690
113,-65,-112,-5088,102,3767
-101,100,-91,-3985,-126,2913
-24,22,-45,-3797,372,2201
-44,9,81,-2379,-1764,2426
11,-41,-98,1025,-1342,2680
-10,-74,90,3115,-672,2069
-21,24,121,319,-889,1567
-96,-25,59,342,-382,646
110,-128,84,1630,-182,-1
95,107,53,627,301,-276
89,96,38,-466,220,-175
90,45,48,57,-105,-142
108,31,36,128,176,-206
121,32,-6,-353,656,-540
-113,10,-29,-230,717,-521
-108,11,-42,-286,296,-371
-103,21,-45,-418,-95,-296
-113,4,-38,-142,-55,-139
-112,21,-33,-331,29,63
-106,55,-39,-656,-84,13
-112,63,-25,-462,-204,107
-109,84,-27,-449,-27,82
-93,115,-24,-631,-72,24
-98,118,-18,-358,-148,0
-102,126,-15,-343,58,-34
-101,127,-23,-268,72,-101
-92,-125,-24,-383,7,-14
-91,-123,-25,-278,29,-19
-93,-112,-23,-356,-51,-6
-91,-110,-24,-253,33,15
-86,-89,-19,-486,-62,-45
-85,-101,-18,-343,23,21
-86,-88,-19,-500,-43,-54
-85,-93,-14,-310,-47,51
14,-51,-128,-6070,-2009,-831
65,73,115,-668,748,-2616
80,-22,127,4327,1497,-3178
80,-16,114,4588,-119,-4076
-46,-59,-81,7193,-2004,-3411
-121,52,-119,6233,-2178,-3395
41,-1,20,7834,-2660,-2615
36,-112,-96,9322,-3948,-1418
115,-35,-26,2331,-720,-2591
-68,-7,40,4416,1551,-1403
88,7,15,-3081,501,637
-9,-65,-83,-906,-1137,368
10,-32,-58,-182,693,-281
-17,-11,122,-1050,532,20
44,-47,42,-1176,634,-69
38,64,87,-6137,-442,338
-111,-33,7,-9005,1451,153
114,101,111,-8682,982,1368
-125,28,-127,-10304,530,1803
16,55,49,-5067,-1701,4176
68,-44,106,-3025,-692,3939
-59,-17,-8,-1958,-38,3167
-35,100,98,-3939,-47,2950
2,-23,113,-632,-207,2763
85,-30,-11,2186,-1438,2990
50,66,122,729,-587,1903
-14,93,-118,221,-920,944
-114,113,69,3588,310,-56
-128,-85,25,727,602,-721
-121,110,16,107,449,-150
117,37,20,407,-24,79
126,51,14,-384,-38,-248
-126,25,13,-193,297,-395
-119,5,9,-261,271,-255
-111,11,0,-295,91,-185
-101,41,-3,-690,-80,-10
-108,49,-6,-379,-4,-140
-110,59,-6,-348,-21,-75
-99,70,-2,-316,-109,-67
-90,78,5,-306,-53,-142
-98,77,8,-406,-89,-64
-106,97,16,-477,-196,83
-121,121,15,-390,-170,148
-106,-111,7,-433,-22,-110
-75,-119,3,-223,94,-129
-57,-111,7,-362,-103,-246
-87,-127,3,-53,-42,-200
-96,-122,-18,-304,155,-301
-71,125,-15,-246,40,-96
-71,-122,-24,-266,-102,-118
46,-97,16,3728,-1539,-2962
-91,11,-61,4035,-4294,-2507
91,91,-114,4423,-3656,-4686
-8,-39,9,8367,-4522,-3908
106,-49,-52,6182,-3301,-3869
-74,26,104,3390,-699,-2369
-85,97,-81,2583,3717,-2417
-99,4,58,-1820,159,1443
-32,-93,114,-579,-174,-229
-95,-36,123,-1167,-212,678
-36,-21,75,-943,406,-194
-45,-2,93,-4637,198,368
-7,-5,93,-7377,473,499
45,-82,-103,-9062,1033,1077
7,114,19,-7150,1412,1590
-3,11,-50,-6908,859,2436
23,-75,-67,-3417,770,2385
63,97,-9,-1779,99,2949
-120,-16,-1,-432,-76,3469
-92,113,-21,-2492,235,2953
-75,109,54,-2031,-514,3099
-61,51,111,880,-1094,2952
-11,121,90,1939,-206,1388
-117,124,61,111,-419,-619
101,-42,55,820,401,-318
66,-106,17,-36,561,-684
77,-104,-8,-879,-9,-814
88,100,-26,-983,155,-898
86,21,3,300,169,29
96,42,-35,-15,278,-20
93,97,-31,-934,-287,45
95,88,-17,-567,-259,248
102,115,-10,-205,77,231
112,-116,-39,-289,141,-6
117,-79,-38,-824,-161,-49
106,-93,-26,-430,-132,-38
113,-87,-18,-331,42,-134
118,-95,-30,-325,112,-168
123,-91,-37,-529,22,-105
120,-91,-37,-405,-82,-10
-126,-82,-40,-384,-39,-44
121,-81,-35,-219,-111,-38
-125,-79,-36,-260,54,13
-127,-74,-40,-407,-101,36
-127,-75,-27,-252,-86,140
-121,-59,-35,-291,5,76
-117,-51,-36,-377,-54,136
-118,-48,-36,-184,-59,95
-112,-41,-43,-253,14,52
-108,-39,-44,-244,-94,61
95,44,-43,5208,-13,-4207
16,-103,-38,6246,-1470,-4863
-60,105,25,5564,-2630,-4717
31,-78,-76,10856,-6073,-3528
103,10,-72,8366,-3558,-4289
-27,5,86,6518,-556,-4144
-118,1,-34,668,449,974
121,1,125,-2616,2254,215
111,46,-31,-1032,-1426,513
22,-86,-68,-26,1064,-6
-93,110,-99,-2098,-641,292
39,-6,-94,-1605,1486,-532
1,79,78,-6639,-88,536
80,-29,40,-7966,1030,542
63,-107,110,-7560,1233,1683
39,72,20,-8048,807,2225
50,-26,113,-4967,2383,3052
98,-86,121,-6129,739,3170
117,-82,101,-2358,-599,3031
-87,103,35,-3275,-1194,3108
-94,102,118,-1397,-971,2860
-54,13,107,2174,-698,1953
-38,35,47,2684,-404,1433
-85,75,36,358,-260,524
-124,-38,77,1652,-516,120
74,98,62,2311,-136,-509
64,-124,32,-305,512,-803
79,82,2,-845,545,-556
105,44,-21,-467,114,-241
105,53,-17,-548,-322,-675
95,13,-21,-397,214,-936
106,-51,-35,-338,524,-731
126,-7,-29,-690,-154,463
103,52,-21,-852,-699,1175
81,122,-38,-845,-524,681
94,113,-46,50,182,252
121,119,-54,450,353,84
-126,118,-33,557,-32,-279
-123,-108,-36,-769,64,-25
118,112,-45,-503,28,-190
100,100,-36,-239,-260,201
103,-118,-34,-891,-219,74
100,-113,-31,-796,-91,-53
108,118,-40,-69,166,-167
-126,-117,-44,-333,91,-19
-117,-115,-61,-408,49,-139
124,120,-47,-45,-184,33
-124,-114,-54,-544,74,94
-128,-113,-50,-319,-136,75
126,-103,-49,-316,-71,223
54,-17,-93,5021,-1347,-3407
-100,94,-57,6502,-3467,-4671
30,77,90,6655,-3035,-4889
-95,28,18,8420,-4796,-3415
63,55,39,7069,-2241,-4088
-111,-19,104,5981,-1098,-2785
-71,19,89,1935,1319,-150
9,68,39,-3990,655,267
-49,-47,-71,-327,-199,376
-46,12,-107,-695,135,-197
-23,-44,81,-1606,66,239
-28,9,-125,-5614,218,430
40,-14,17,-8078,648,442
50,63,121,-7975,1136,1306
32,-1,-23,-10123,553,2268
-69,-22,44,-5701,630,3313
17,24,-62,-3733,-530,3917
78,-66,-85,-2848,398,3079
-103,-128,39,-3186,-551,3109
-64,108,84,-1452,-628,2467
-21,35,-104,1475,-1470,2705
2,68,-98,2250,-1121,2442
-41,-112,115,207,-860,1046
127,59,118,951,-424,160
88,-50,68,888,511,-660
80,-97,26,435,735,-594
80,127,-2,45,338,-432
92,87,-11,-120,218,-407
107,66,-25,83,148,-313
114,76,-42,-352,66,-407
107,41,-55,-184,109,-224
105,51,-54,-87,-205,11
108,60,-58,-296,-225,128
105,92,-46,-683,-226,188
104,91,-46,-346,-271,241
107,120,-41,-451,-103,166
112,-119,-40,-422,-82,110
115,-109,-41,-386,-86,48
119,-103,-49,-294,34,-63
113,-102,-47,-278,-81,-65
116,-100,-53,-352,5,-145
114,-103,-61,-366,-239,-355
119,-94,-61,-214,-15,-41
115,-102,-59,-172,133,63
120,-93,-59,-344,-45,-84
119,-94,-59,-235,-99,27
120,-89,-56,-231,-36,82
-121,-70,-61,-379,88,28
-125,-71,-57,-321,-119,55
-126,-68,-58,-239,-32,117
126,-119,82,5703,-1406,-4071
-10,-77,123,7663,-2809,-3828
-67,-85,-123,8199,-4015,-3294
-40,-108,125,10733,-3559,-3166
-69,-86,65,4255,802,-5030
-88,23,-126,4945,118,-1010
15,51,-101,-5700,-107,2011
5,-21,-18,-1008,141,-43
-66,37,-73,-645,77,-117
13,-62,115,-1638,454,-152
-18,-30,96,-6371,-351,800
42,-87,18,-8602,497,1191
50,96,71,-8403,542,2312
-26,-12,-84,-8114,905,2316
-55,57,56,-3507,674,3011
48,101,-128,-3031,623,3119
94,76,-45,-4796,-44,3099
-112,75,31,-2535,130,2710
-35,119,120,-2122,259,2368
-9,18,-102,2158,-927,2998
0,48,-95,3092,-2221,3016
-6,-115,72,11,-747,1722
-91,-119,52,-853,-398,-130
94,-60,34,1439,245,-1021
106,-111,6,1521,500,-1010
107,-116,-17,135,462,-860
115,96,-24,-460,218,-673
115,64,-28,-161,18,-618
126,44,-36,-111,141,-603
-121,47,-45,-546,232,-485
124,46,-49,-455,28,-206
120,54,-55,-356,-73,34
123,74,-55,-452,-87,199
127,90,-53,-465,-122,338
-128,116,-49,-422,-108,481
125,125,-53,-225,-164,604
-103,-98,-29,-409,-220,644
-103,-63,-48,-510,-28,204
-104,-62,-34,-596,-74,-257
-108,-96,-40,12,135,-141
-118,-91,-55,-225,30,-178
-116,-96,-58,-338,-17,-74
-109,-102,-62,-240,-7,-19
-104,-95,-60,-239,-108,23
-106,-90,-58,-357,-99,-3
-107,-92,-49,-317,-77,61
-107,-84,-45,-289,-59,123
-101,-72,-45,-371,-30,82
-103,-67,-46,-319,-40,135
-101,-57,-50,-355,-1,94
-52,-104,32,5004,-1610,-3645
-100,-59,-112,6356,-1953,-4116
73,116,-116,8273,-2435,-3824
-14,11,68,11861,-5094,-2117
-55,102,78,6000,-2074,-4056
-39,-95,-119,5661,-1056,-2002
-61,124,90,-6113,1364,2312
-36,-29,42,-1297,-570,556
13,7,-86,799,807,-434
-13,18,122,-1772,-446,370
44,-14,-121,-2138,1063,90
44,-1,95,-4691,398,995
81,15,29,-7747,1666,916
50,-109,-76,-6909,1426,1214
92,35,-23,-8195,1314,1653
-16,-35,-118,-3292,1136,2819
72,-17,-51,-4904,810,3073
93,-22,29,-6860,1605,2325
110,-7,-83,-3722,-552,2629
-92,60,98,-2384,-1959,2612
-90,19,-76,-302,-476,2322
-56,0,120,1904,-511,1998
-47,116,-125,-344,-1302,1421
-94,55,100,184,-667,296
121,-34,61,1249,191,-675
92,-90,35,828,344,-805
88,109,0,398,480,-485
94,112,-6,-325,170,-280
98,86,-11,-224,-139,-195
106,74,-9,-166,-31,-135
106,81,-21,-373,145,-103
114,82,-28,-362,54,-41
119,89,-42,-173,20,129
123,104,-43,-291,-84,123
121,124,-48,-544,-57,90
122,119,-41,-97,4,183
-125,-120,-54,-223,-16,115
-124,-101,-53,-495,-209,48
-121,-103,-48,-395,-74,8
-122,-104,-44,-236,-66,-15
-126,-104,-40,-239,-88,-3
-124,-102,-44,-287,5,-37
-120,-109,-42,-213,-23,-5
-117,-104,-48,-219,35,62
-115,-92,-49,-409,-40,38
-117,-99,-49,-210,-29,104
-111,-85,-52,-295,28,81
-112,-81,-55,-309,-32,124
-108,-74,-56,-294,-35,106
99,-50,-58,-2616,-466,3785
39,-100,-18,6057,-787,-4256
-11,-86,12,6868,-2601,-4876
-125,74,73,8498,-5160,-2917
-111,-34,26,8641,-5627,-2554
57,-98,-127,4483,-3277,-3700
47,-80,88,6038,-4496,-867
113,104,-50,-3112,1498,1711
31,98,101,-2263,403,833
38,8,-82,1138,62,-515
18,55,125,-741,-127,-131
51,-67,116,-832,573,91
57,50,124,-2680,914,161
100,71,-112,-5357,1503,734
126,14,68,-7244,2224,1063
-122,8,-99,-7572,2228,1525
96,56,64,-6110,1506,1336
94,-24,-40,-4723,2176,2654
119,-126,-69,-5055,1186,3201
97,46,93,-5058,-158,3278
-119,-89,-61,-5638,-909,3324
120,-11,-52,-4877,-1049,2938
-113,-83,113,-3,-1228,2352
-37,-79,-102,3049,-688,1994
-22,99,92,1264,-158,830
123,79,98,-276,-232,-388
67,-123,93,1634,187,-854
74,71,26,921,939,-1124
83,67,3,-38,637,-645
84,32,0,-56,2,-362
98,31,-12,-540,-247,-293
101,22,-18,-539,-29,-191
107,20,-26,-354,44,-191
112,37,-35,-503,-22,-62
104,40,-39,-471,-93,150
95,52,-35,-439,-256,270
101,90,-40,-602,-136,327
107,105,-36,-527,-141,303
109,113,-35,-218,-115,205
113,-120,-43,-416,-36,106
123,-122,-40,-256,-28,78
120,-122,-42,-182,-69,-44
104,-126,-35,-266,-45,-69
100,120,-38,-137,147,49
112,121,-44,-208,77,114
119,-119,-56,-380,-90,93
-124,-119,-53,-319,33,109
-125,-122,-53,-217,-6,-1
121,-116,-55,-279,-38,86
127,-115,-53,-246,21,163
127,-100,-59,-296,-82,150
28,-125,106,5875,679,-4184
118,13,-76,10451,-3009,-3534
32,56,-115,9512,-4197,-3466
11,96,100,12480,-5735,-2869
-7,50,-123,2307,-495,-4256
-28,9,-93,3956,-861,111
72,-125,97,-3058,-682,517
50,-54,85,-817,736,276
5,28,-57,-574,82,-85
45,-38,-106,-138,219,4
29,5,-114,-1540,286,211
55,34,-80,-4120,667,422
117,36,-105,-8127,1204,846
-56,115,-33,-9173,1621,1064
86,114,48,-9466,595,2826
70,20,-98,-8260,66,2757
53,-95,-56,-4188,-451,3695
108,-38,-28,-4337,519,2521
-111,-23,50,-3011,-1035,2670
-75,95,-120,-1930,-1295,2505
-74,-37,-24,2171,-986,3034
-17,6,-114,1866,466,2043
-61,92,101,-309,-355,1266
-114,7,50,214,-148,275
94,-85,69,1009,-119,275
105,-127,-9,534,717,-257
97,122,-3,33,165,-78
101,98,-29,-177,194,-176
126,63,-21,124,134,-260
117,47,-31,118,147,-283
-127,31,-27,50,191,-208
-116,26,-19,-307,-43,-4
-116,18,-14,-207,20,177
-119,29,-8,-163,-5,179
-127,64,-17,-538,-89,165
-125,70,-11,-288,-48,163
-107,87,-18,-248,61,148
-111,100,-20,-316,-131,34
-120,93,-16,-223,-35,13
-109,92,-10,-284,1,-18
-107,94,-11,-270,-40,-16
-103,96,-11,-321,4,31
-98,110,-17,-305,-23,26
-98,113,-18,-319,-27,31
-103,116,-19,-322,-38,114
-107,-123,-26,-356,-52,33
-102,-117,-29,-356,-10,74
-85,-107,-34,-378,-46,101
-85,-94,-33,-419,-167,114
-94,-89,-26,-466,-85,94
-19,89,60,5358,-1326,-4093
94,-97,-43,7093,-2849,-4093
54,-56,-100,7529,-3066,-4388
33,-40,7,10490,-5069,-3381
-87,124,-29,5788,-3539,-3216
114,-85,62,5336,144,-3953
17,14,66,-734,-390,1771
-113,70,29,-3707,-1464,1730
117,31,53,1086,1614,-822
18,91,126,-2030,-889,685
95,30,-101,-983,841,-299
97,41,-112,-3200,1250,699
99,93,-124,-7401,1215,1002
127,-53,43,-8537,3040,1928
126,26,-56,-9870,2118,1352
103,-47,122,-6799,244,2262
105,5,-113,-7561,-828,3179
88,-33,123,-2607,78,2981
-105,50,21,-5180,-752,2935
-84,-1,36,-796,-1168,2269
-61,-27,-99,1226,-1370,2566
-26,-41,112,2018,-418,2198
-46,30,120,213,-666,1749
-88,45,-115,-419,-990,985
127,-33,99,692,-113,-411
102,-114,55,1269,827,-734
90,87,-21,751,1091,-927
94,80,-25,-59,193,-425
102,46,-28,-159,-119,-172
122,27,-28,-275,-168,-279
125,15,-22,-59,10,-210
120,12,-24,-169,-70,-44
112,30,-21,-399,-163,83
114,32,-23,-204,-129,269
117,63,-21,-335,-132,302
113,84,-28,-320,-125,262
116,106,-26,-454,-122,202
125,113,-32,-203,-17,94
126,118,-38,-286,23,-114
125,114,-44,-332,-21,-79
126,106,-47,-238,0,-66
-122,108,-52,-345,-9,-89
-128,112,-51,-372,-104,-99
-127,100,-51,-195,15,-22
-127,117,-56,-449,-78,33
-127,115,-51,-267,-123,100
-118,-118,-51,-472,-47,126
-117,-110,-48,-420,-86,88
-116,-104,-46,-285,-19,82
-117,-96,-49,-325,23,57
54,-69,-126,5952,-845,-3634
-28,-58,-106,8327,-2570,-3856
-102,-60,36,6888,-3631,-3851
38,97,44,11156,-5421,-2262
-86,73,23,7682,-2477,-3461
-4,104,127,5292,-1211,-3082
-23,16,-99,-1056,905,1858
4,-125,81,-3251,-784,534
66,-57,-24,676,1452,-379
-32,83,-118,-1629,-1034,283
79,-32,-89,-742,1086,-225
71,35,-121,-4150,230,702
118,46,104,-8242,877,1200
-110,-84,-7,-9115,1170,1242
114,-91,14,-10077,1197,2649
36,-39,122,-7126,-507,3694
34,-81,126,-4822,232,4478
80,-114,-86,-3237,278,3598
-84,-13,19,-2674,-194,3453
6,4,104,-1394,-706,2640
67,-21,-72,695,-951,3107
68,65,-128,1068,-950,2326
-83,-82,-98,-653,-1499,837
-124,15,121,1017,-45,-251
100,-52,57,1046,881,-740
73,-82,4,-48,586,-877
88,-80,12,-1315,-40,-677
101,67,-5,172,378,-268
114,67,-43,50,514,-705
121,58,-48,-104,348,-289
124,69,-50,-334,-40,-139
126,85,-49,-339,-265,60
126,111,-45,-601,-141,29
125,125,-36,-424,-180,55
120,-124,-28,-254,-195,-31
117,-117,-21,-322,-144,197
121,-93,-24,-569,-137,92
-127,-85,-14,-482,-170,139
-125,-84,-12,-309,-175,156
-120,-76,-18,-386,-13,-13
-114,-84,-32,-223,122,-104
-116,-83,-38,-333,63,-68
-115,-94,-51,-177,76,1
-112,-84,-54,-345,-40,38
-109,-83,-52,-252,-54,83
-107,-76,-53,-149,-24,84
-110,-87,-51,20,-120,303
-104,-64,-54,-306,-337,345
-101,-54,-46,-450,-181,61
-101,-59,-40,-318,155,-47
-8,55,4,6829,-1652,-3713
-114,93,81,7449,-3268,-3860
125,99,-105,8436,-3549,-4112
108,60,-115,12553,-4358,-3136
56,-29,-77,5961,-2440,-4255
87,23,105,1786,-1424,1660
10,-114,-107,-3703,323,1489
98,29,12,73,488,-58
81,74,-111,-1142,-500,532
119,-6,-111,-727,620,-18
105,33,-96,-2658,345,577
-113,57,-88,-6476,1494,1302
-80,-37,58,-9172,1494,1819
-115,-110,79,-10460,1801,2662
79,-35,-81,-9028,-264,3868
25,73,70,-5363,-92,4529
80,50,-57,-3622,110,3931
-88,-6,-62,-4427,1088,3073
-22,76,72,-3134,-949,2652
0,11,-110,1169,-2170,2463
24,20,-80,2060,-1878,2074
-45,81,114,335,-249,876
-91,62,83,672,-39,112
101,-29,64,1159,167,-639
84,-118,17,449,800,-1077
93,75,11,246,763,-729
117,48,-9,-55,600,-560
125,43,-33,-271,152,-249
-123,57,-40,-506,-9,-110
-126,50,-45,-316,21,-4
-121,78,-54,-457,-36,44
-121,94,-54,-568,-222,155
-121,97,-44,-233,-129,200
-114,118,-42,-382,-154,209
-121,-127,-31,-405,-246,155
-114,-123,-31,-327,-59,158
-114,-103,-25,-448,-133,40
-113,-111,-26,-253,47,22
-109,-105,-39,-341,41,-16
-107,-106,-44,-284,-48,-33
-109,-105,-48,-264,1,3
-101,-108,-51,-238,20,-27
-104,-108,-49,-243,-108,81
-102,-103,-51,-330,-73,55
-100,-95,-44,-428,-118,84
-101,-93,-42,-322,-109,96
-99,-81,-45,-397,-92,102
-100,-72,-46,-369,-127,101
-100,-63,-48,-375,-110,95
-104,-52,-52,-386,-137,69
79,18,-38,4423,-288,-5076
96,89,27,7759,-3405,-6320
-45,-91,111,4427,-4349,-5528
-25,115,76,6313,-4394,-5468
-90,-22,-8,5800,-112,-6926
118,103,-6,7129,-1017,-3673
-68,125,89,3627,1627,-1372
-84,112,29,-4991,2125,840
65,-21,105,-236,-749,285
103,-7,86,-640,101,302
65,81,111,-1229,72,-97
-96,-45,39,-1258,59,246
-104,47,92,-6962,-608,1198
-35,-6,8,-10452,708,1091
-84,-18,69,-11313,-343,327
-118,74,86,-12906,-165,2608
15,21,22,-4384,-1315,4443
114,59,-15,-4019,-131,3746
-10,-38,78,-746,-1698,4377
75,22,109,-119,-1938,4000
-114,39,-124,94,-1817,3515
-81,27,-47,1607,-2024,3231
57,-111,-68,311,-1429,1219
-93,21,-44,1154,-709,28
117,-103,123,1645,811,-413
80,119,57,438,743,-697
81,38,21,622,507,-451
105,16,30,-33,149,-431
124,-17,18,-225,-44,-247
107,-24,24,-313,-7,-283
-123,-26,8,-433,211,-289
-105,-16,12,-290,-4,-60
-113,2,4,-466,-31,-27
-128,19,-2,-446,-10,78
-119,41,-22,-361,58,63
-109,58,-22,-463,-87,123
-105,81,-35,-562,-136,59
-110,79,-26,-366,-67,0
-103,87,-25,-273,-2,-51
-102,98,-32,-470,-92,4
-102,97,-38,-376,-20,-86
-100,100,-38,-347,-65,47
-93,126,-40,-428,-137,-65
-91,124,-30,-412,-64,-10
-106,-120,-44,-527,-129,-27
-107,-112,-33,-395,-167,30
-102,-103,-43,-366,-92,-9
-96,-86,-46,-689,-207,-8
-91,-88,-44,-534,-195,42
-88,-89,-43,-393,-157,109
97,122,-34,4316,454,-4461
-108,-13,-34,6140,-1171,-6551
-103,76,35,7707,-4331,-6252
15,-37,7,10071,-5092,-5374
-46,28,95,7452,-1889,-5099
68,-121,63,8275,-282,-3053
27,-38,101,-926,1468,240
70,67,-10,-4325,347,1107
18,7,-122,663,54,-60
20,64,100,-601,592,-415
16,38,55,-1585,-390,312
74,16,-94,-2194,1123,-410
-126,-13,63,-6487,818,1185
119,-82,6,-7830,84,1121
-117,-122,-88,-8728,915,2730
55,0,-29,-8785,914,3155
19,19,83,-4422,1177,3967
84,-1,-85,-3768,766,4066
-60,-80,-97,-2375,182,3777
14,46,82,-2567,-535,3389
74,-2,38,245,353,2994
88,-35,-128,2797,-1088,2839
17,91,121,107,-1341,2209
-81,97,124,-998,-905,527
87,-82,127,1872,-311,-323
89,-88,62,802,726,-933
82,122,37,-154,716,-1028
76,41,18,135,218,-725
104,19,12,-179,332,-747
-128,23,-8,-467,266,-791
-128,7,-18,-484,44,-817
-116,0,-17,-249,199,-596
125,-8,-37,-204,81,-454
124,12,-37,-585,-128,-53
-125,20,-41,-562,-150,221
-128,35,-27,-264,-320,384
-114,67,-28,-404,-131,359
-114,89,-24,-579,-123,502
-113,84,-19,-74,-46,550
-119,115,-23,-366,-111,253
-112,114,-21,-174,-41,321
-105,114,-25,-187,-18,240
-110,115,-23,-129,-77,192
-114,113,-16,-78,27,280
-105,-127,-13,-269,28,429
-106,-107,-10,-241,-162,470
-111,-100,2,52,-134,492
-103,-72,-2,-270,27,268
-96,-61,-4,-743,91,-61
-92,-52,-7,-1222,160,-313
69,-40,30,5168,571,-3545
-69,-117,13,6104,-2056,-4400
-128,-69,79,7339,-3625,-4851
104,-5,87,6079,-4285,-4489
47,-100,-69,9972,-4224,-4233
-41,-125,-63,5964,-2152,-3903
60,-88,21,5802,1551,-3241
-64,83,-90,-4885,2644,1520
17,28,-79,-124,-1391,-412
7,28,13,-1239,427,511
36,18,-114,-791,562,-141
43,31,107,-2729,-151,477
69,62,-125,-6664,-39,599
119,63,-10,-9933,290,1465
115,126,93,-9462,518,1404
47,-57,111,-9830,653,3352
42,2,34,-4899,310,3705
72,-28,-86,-6781,-758,3723
-101,48,-38,-3938,-1086,2969
-38,-116,98,-2735,-2005,2700
-18,9,-6,2005,-1906,3095
82,45,-70,3592,-1443,2928
31,-45,-92,-317,-1502,1195
-62,90,-48,777,-495,243
105,-45,126,1409,763,-848
89,-114,73,830,822,-881
101,115,18,-176,629,-433
108,103,0,-579,216,-357
112,87,3,-211,-75,-307
-127,61,-28,192,271,-418
-117,84,-41,-583,263,-507
-112,66,-42,-510,22,-308
-121,55,-36,-94,-155,14
-124,78,-40,-213,-145,110
-126,90,-39,-353,-257,226
-121,100,-23,-145,-311,408
-114,125,-30,-155,-235,442
-116,-99,-22,-618,-267,231
-112,-109,-14,-260,-51,183
-109,-103,-19,-58,-65,87
-110,-92,-25,-358,38,-15
-111,-100,-35,-291,34,9
-107,-103,-39,-135,67,11
-107,-99,-45,-282,2,-65
-105,-108,-49,-97,-22,48
-106,-104,-50,-166,-69,45
-94,-93,-50,-493,-27,-39
-98,-97,-47,-319,-125,75
-98,-90,-41,-361,-28,49
-96,-84,-43,-368,-68,33
52,-48,50,3968,-2506,-2896
-73,41,123,5769,-3693,-4479
72,61,126,4921,-1896,-4837
-41,4,-18,9092,-4614,-3738
34,-55,-100,10160,-3110,-4296
-14,117,-2,4657,-2047,-2283
37,-117,-100,1817,898,-338
124,44,74,-3120,906,386
-35,41,13,-1095,-722,671
60,-31,-72,242,833,-398
-15,33,123,-1262,-253,285
66,-45,87,-283,770,-233
12,63,118,-3207,68,175
96,1,-118,-3737,1521,-206
72,53,103,-8164,1026,700
117,-12,-74,-9313,2243,519
90,-80,-32,-9231,1702,1156
93,28,-114,-6471,-184,2551
123,-48,-95,-4694,204,2485
-102,-57,52,-3802,-503,2623
-45,34,-2,-4255,693,1305
-102,81,-108,-2619,-1841,1896
-65,-58,-35,3466,-1364,3540
-49,-35,124,2949,-712,2438
-67,64,79,68,-583,1584
-121,-9,75,658,-666,608
114,-90,71,1125,-120,-274
103,117,39,328,516,-834
94,44,31,559,457,-810
104,35,17,-139,242,-625
113,14,9,-658,0,-510
112,-20,5,-96,20,-280
124,4,-8,-644,71,-191
117,16,-11,-795,-202,-16
116,39,-13,-739,-179,261
121,68,-15,-613,-138,285
-127,105,-20,-554,-132,265
-117,-126,-20,-662,-171,146
-114,-118,-18,-540,-105,-13
-115,-116,-22,-336,-28,-169
-122,-127,-25,-104,-19,-198
-125,122,-28,-165,7,-178
-116,115,-36,-314,83,-171
-112,108,-40,-185,-18,-53
-112,115,-41,-335,-128,26
-124,118,-33,-353,-120,257
-123,-117,-30,-473,-174,328
-115,-93,-23,-562,-172,378
-103,-71,-15,-447,-84,276
-98,-61,-21,-379,-45,141
20,121,-47,5082,168,-4287
-114,-29,-66,6677,-1755,-5015
80,5,54,7700,-3266,-4955
67,29,-110,8458,-4244,-4062
-107,-84,-48,9217,-3740,-3390
43,111,28,5247,-2316,-2988
7,-112,-88,4135,1138,-884
-87,-83,-21,-5407,1641,157
59,-46,-63,736,-1075,303
90,59,-83,-1122,178,127
85,12,-122,-1189,93,326
109,19,-117,-3054,527,571
111,16,126,-4842,-1127,838
-9,-7,116,-5994,737,1947
-80,-8,-4,-7480,1239,1914
102,-35,81,-8430,1982,3486
27,25,68,-7259,1540,3595
53,-96,-126,-5384,479,4221
97,55,-77,-1592,-983,3783
-56,-27,29,-814,113,1994
-20,66,21,-1790,711,2276
-67,29,62,235,-474,2858
-82,19,96,539,-608,2379
-122,67,99,-568,-561,1418
93,-43,62,649,-544,-368
40,111,69,1540,-58,-1025
43,75,40,449,1068,-751
58,59,-3,-535,668,-662
74,27,-1,-167,-93,-191
100,47,-21,-752,73,-399
103,2,-28,-21,86,-436
106,5,-36,-155,216,-419
100,20,-45,-600,23,-177
96,19,-56,-142,-143,107
98,30,-58,-28,-161,152
101,59,-60,-311,-229,245
94,54,-59,242,-267,343
96,65,-54,309,-167,213
101,89,-56,-406,-92,117
100,78,-51,-537,-124,-156
99,57,-52,119,-88,113
97,72,-49,-99,-73,60
91,83,-53,-348,-91,44
93,75,-51,-164,-34,97
99,83,-59,-147,-14,141
104,102,-64,-437,-31,87
103,93,-64,-175,-66,91
102,106,-63,-316,18,96
102,104,-69,-196,3,101
101,114,-73,-259,-11,105
45,-5,-76,4962,-548,-3643
-83,50,-3,6484,-1708,-4553
44,-28,-127,8286,-2990,-3912
-14,-49,78,11572,-4064,-3066
109,55,0,9782,-4266,-3244
41,-118,36,4759,-1617,-3294
-26,42,-41,-1176,1200,551
-10,48,32,-3633,-1226,1471
40,28,54,-100,1211,-506
13,-40,-119,-745,-59,210
2,7,127,-2165,32,272
44,-37,-113,-3168,1113,865
37,45,112,-6802,763,1433
59,-28,-21,-8953,1943,2107
48,-12,7,-9954,1501,2193
-34,-26,114,-7507,941,3342
0,-110,-99,-4566,330,3649
37,33,-59,-3438,641,3175
117,55,11,-5976,293,3211
-104,-12,98,-930,-1651,2828
7,-40,-56,3647,-2060,3227
20,12,-127,2894,-896,2562
-28,-123,93,-8,-453,1485
121,42,83,889,-440,64
82,-79,71,1667,116,-721
56,97,27,862,649,-1047
57,60,9,348,522,-414
74,65,-12,-797,243,-642
98,-5,-4,-406,-143,-344
85,21,-5,-849,-215,-71
70,29,-2,-451,-131,-197
87,23,-17,47,148,-123
98,41,-33,-228,-60,-12
100,55,-41,-490,-244,122
93,82,-31,-937,-319,13
91,72,-28,-450,-55,43
99,93,-30,-463,-48,28
100,106,-39,-561,-147,19
96,113,-27,-574,-210,145
95,-122,-33,-349,-14,27
103,-120,-41,-192,100,-79
111,119,-54,25,-12,77
106,-113,-50,-407,-189,188
108,-104,-44,-309,-87,16
112,-118,-38,18,21,6
117,-99,-40,-471,-124,169
114,-84,-34,-632,-163,76
108,-85,-30,-326,-79,22
109,-88,-39,-288,129,-44
118,-98,-49,-198,22,45
-29,-106,13,-9203,471,-487
0,76,107,-3792,-68,42
56,-33,85,3218,265,-1995
-118,19,-104,5569,1106,-3409
50,-103,60,7795,-1281,-4651
106,67,44,9621,-3411,-4473
25,120,118,9164,-4766,-4343
1,-65,-105,10765,-6050,-2653
-46,-1,20,6055,-2952,-4955
16,-3,-121,1983,-622,-983
-105,60,-114,-5425,1878,1829
15,5,-84,-544,-601,350
46,19,-120,121,433,-624
39,-13,126,-2834,366,713
69,30,-94,-7089,2090,1325
58,-43,40,-7973,1972,1401
57,-60,77,-9278,1829,1804
3,58,-103,-11378,764,2596
-8,69,-24,-6644,454,3236
76,24,-93,-2612,-846,3338
-79,0,-4,-3321,-207,3382
-45,44,10,-2444,-814,3210
75,-25,-59,2128,-1795,3828
123,24,-78,3369,-2172,3672
57,-27,-84,-636,-1323,1907
-111,72,64,364,114,-935
51,-53,86,1277,357,-624
34,-107,16,961,548,-406
57,103,-25,781,754,-759
108,69,-38,599,553,-698
-115,19,-37,377,252,-492
124,45,-8,-620,-213,-207
-126,35,2,-1030,-185,-630
105,13,31,-1006,-437,-411
109,20,-10,-607,130,-225
112,25,-40,-277,196,-129
-128,48,-44,-124,-122,267
-104,77,-40,-288,-255,221
125,92,-31,-282,-187,42
107,64,-32,212,150,-108
127,58,-52,180,362,368
-119,92,-48,-206,-108,373
-100,102,-47,-337,-174,200
-110,89,-28,-47,-174,545
123,-118,-21,-415,-310,527
126,-97,-15,-646,-173,375
121,-81,-33,-388,64,155
-80,-79,-63,-202,352,-469
-97,-104,-82,48,593,-985
-113,-106,-54,-689,-182,-113
-64,-83,61,7712,-3256,-3889
-86,-34,-109,7486,-3404,-3408
-120,100,-28,8633,-4646,-2451
-50,56,-1,9910,-5103,-1182
-107,-53,-71,5329,-3764,-3180
-81,97,103,-1947,1272,953
12,-40,55,-2326,992,241
-65,-26,-90,-215,193,-138
-21,-69,92,-1317,617,28
-10,-55,62,-1951,321,299
7,-39,114,-5124,1126,519
1,-69,79,-7297,949,1563
28,-98,-18,-7304,1703,1537
-34,-35,62,-7148,2052,2602
-23,64,-25,-6506,1194,2703
12,50,-126,-5923,1676,3165
116,14,-31,-209,1196,2854
-25,89,3,-2657,-81,3361
-6,31,52,-1528,-739,3381
45,77,108,-833,-850,2875
-9,20,-122,2094,-1356,2553
-53,83,93,870,-913,1178
116,22,60,774,-301,-431
77,-104,26,1702,492,-727
60,-126,-5,549,533,-578
63,89,-19,-213,-85,-191
94,90,-2,-866,-325,-449
125,37,-1,-457,42,-623
100,16,-4,-227,-52,-739
81,-3,-10,-412,42,-590
82,-12,-19,-227,83,-192
91,-2,-27,-7,-16,110
104,22,-31,-128,19,316
107,59,-47,-389,-93,350
105,79,-40,-428,-210,402
102,103,-33,-381,-210,350
105,119,-25,-255,-76,318
-127,120,-35,-117,29,267
-126,-117,-41,-372,-177,211
106,-102,-43,-562,-152,-122
99,123,-40,-82,58,-216
115,113,-34,-78,158,-177
-126,103,-53,143,196,-126
114,92,-76,266,96,-102
126,80,-84,17,-69,123
-111,104,-66,-623,-212,272
-114,119,-56,-707,-267,250
125,-117,-47,-821,-220,183
117,-103,-38,-906,-210,272
117,-90,-42,-747,-94,230
-11,94,8,3975,-1754,-2638
87,-30,-112,6358,-910,-5179
94,-45,-74,7198,-3766,-4904
-2,72,41,8809,-4414,-4223
-6,-96,-5,12237,-6006,-3804
48,-56,-33,5061,-778,-3956
-43,-100,-71,-1731,-1001,1461
89,59,127,-3442,393,1228
-43,21,76,-683,1002,-313
-37,-11,-124,-1600,166,79
-17,-21,-36,-4444,1604,606
-6,-18,114,-5759,2365,420
-7,-62,-60,-6770,2500,1350
13,4,12,-7887,2363,711
-22,27,-84,-7323,2015,1798
51,-70,73,-6308,934,2233
73,87,-118,-4628,136,2604
114,4,-23,-3592,-567,2720
-88,46,89,-1731,-1028,2447
-71,59,127,348,-1049,2650
-61,47,-110,1668,-1103,2311
-69,80,81,657,-345,1342
126,39,72,704,-469,822
108,-6,62,539,-356,366
103,-32,40,-19,305,-227
108,-79,9,50,305,-542
114,115,2,232,235,-561
-125,107,-15,-370,427,-694
115,77,-18,-68,72,-540
127,44,-32,120,248,-504
-121,36,-40,150,86,-416
114,19,-37,333,-228,-32
110,18,-24,310,-215,292
110,59,-27,-503,-136,222
114,65,-26,-433,-74,323
110,77,-24,-184,-190,568
113,105,-34,-313,-144,565
-125,-118,-32,-568,-220,446
-121,-110,-44,-294,-115,178
127,-110,-38,-192,-121,32
127,-115,-44,-382,-27,-14
122,-115,-43,-535,-155,-47
117,-121,-49,-381,-73,-105
-128,-126,-54,-380,14,-37
-112,-116,-55,-618,-214,68
-111,-107,-51,-488,-153,-52
-117,-115,-55,-243,-123,-57
-126,-116,-56,-251,-158,93
126,-110,-64,-303,-53,89
124,-105,-68,-346,-106,263
100,8,122,-2060,2253,-5146
-10,94,-1,2068,-226,-2985
120,68,-8,2283,-1345,-2775
-124,99,88,6304,-639,-2696
73,127,-48,8685,-1829,-1901
3,45,-17,8844,-3410,-1170
36,123,-73,11747,-3852,-467
-93,4,-73,4114,-1028,-3445
-59,62,67,1912,-700,267
71,3,56,-3664,-176,759
-69,-38,-11,-1269,-212,637
-24,6,-72,-1329,993,-264
-3,-58,101,-2080,490,73
1,-4,83,-5172,682,396
31,-49,14,-7205,1966,694
20,-54,127,-7566,2042,790
54,76,-80,-9403,1399,730
63,122,49,-7698,580,2206
70,4,-110,-4281,-966,2843
-107,53,33,-3409,-1040,1983
-60,33,49,-472,727,2157
-69,27,64,1884,-684,3129
-24,40,79,1518,-929,3729
-26,72,81,-357,-659,2857
-66,59,116,-244,-1596,1984
-121,-9,105,522,-919,728
102,-65,53,1146,335,-195
90,-81,4,486,818,-633
79,126,-22,-68,386,-603
98,79,-21,204,95,-431
114,64,-30,-318,44,-695
-119,28,-30,-539,85,-855
123,19,-30,-765,-159,-579
112,10,-17,-504,-447,-221
110,12,-25,-331,20,-63
114,38,-29,-524,-70,42
115,55,-34,-606,-246,285
126,79,-36,-316,-54,369
-122,109,-45,-537,-86,266
-127,121,-47,-608,-149,279
113,-113,-32,-661,-196,339
120,-101,-30,-501,-78,229
125,-95,-30,-151,-18,223
125,-87,-42,-174,48,98
-126,-85,-44,-244,-48,38
-117,-99,-49,-97,33,35
-110,-100,-57,-223,12,-23
-119,-99,-53,-417,-115,32
-117,-104,-46,-336,-77,58
-117,-95,-44,-400,-69,49
-69,88,-6,5124,-1943,-3743
-97,14,29,9961,-2553,-3584
49,-21,-73,10908,-4403,-3441
113,2,-47,11194,-4025,-3469
51,5,-66,4735,-3186,-3103
-62,-111,-38,3458,10,-302
-15,-28,-85,-5809,659,954
74,-80,39,322,83,-181
-13,10,-116,-1487,-17,269
25,-76,120,-77,422,-121
49,-5,59,-2044,19,358
97,22,68,-6382,395,1678
87,-60,28,-8446,1158,1239
88,-40,-127,-9671,367,1880
77,-48,-104,-10115,294,2086
9,25,86,-7195,-304,3920
29,-36,-118,-4333,-311,2869
100,-42,37,-2710,-1204,3477
-70,104,105,-2193,-1592,3162
-5,45,127,685,-1316,2872
30,66,-52,1712,-1312,3085
19,127,-101,114,-525,2117
-30,92,-80,429,-825,1483
-118,52,-117,808,-531,340
87,-42,99,1269,46,-275
88,-94,44,0,615,-516
86,98,27,300,248,-425
107,83,11,-127,128,-382
116,62,-16,-709,224,-588
120,57,-16,-695,101,-487
115,48,-29,-481,81,-301
116,56,-36,-453,9,13
126,95,-37,-640,-213,37
-119,102,-36,-304,-84,113
-120,124,-32,-441,-165,79
-119,122,-22,-255,-92,107
-123,-123,-27,-388,-119,105
-122,-113,-22,-372,-90,50
-120,-123,-24,-109,-32,174
-115,-98,-28,-389,-66,124
-115,-98,-28,-236,-58,96
-114,-95,-32,-157,-32,110
-111,-87,-32,-277,-53,115
-105,-86,-33,-275,-26,83
-105,-86,-32,-255,-92,105
-103,-77,-34,-358,-53,44
-100,-86,-35,-238,1,58
-99,-72,-36,-446,-38,41
-94,-82,-35,-238,-38,51
-93,-70,-38,-394,-45,62
33,-16,-60,5069,-341,-3380
-13,-56,-50,5510,-1805,-4563
-108,-65,54,6118,-4085,-4040
-124,-128,-123,6137,-3850,-3621
66,74,115,12323,-5260,-3290
31,-128,-67,4518,-1868,-5151
-114,-30,-96,3430,-553,-211
39,111,-117,-4526,901,1263
38,46,-16,-1502,-696,571
116,-22,-105,67,1213,-709
45,33,79,-1965,-764,517
123,-30,121,-1225,981,17
119,69,79,-6138,760,1017
-98,-22,36,-8289,2031,1574
-116,-99,-83,-7208,1474,1233
-101,-50,74,-8166,1496,2080
106,90,-109,-8705,620,2803
111,88,84,-4848,316,3675
-86,-104,-9,-6058,-1347,4231
-10,-66,23,-823,-452,3288
117,-72,50,1458,-365,2512
100,59,47,552,-2030,3438
-3,14,99,905,-1026,2067
-96,50,-89,1129,-1981,1427
109,48,82,85,-48,-295
77,-87,66,1320,697,-1233
83,110,40,721,729,-1195
112,59,6,-291,643,-1002
115,12,-13,-393,407,-1179
-122,-49,-16,-124,280,-937
116,-50,-12,-459,-100,-196
-122,-27,-23,-537,-156,-276
126,-29,-28,-606,-105,-46
125,12,-23,-936,-200,287
118,50,-22,-689,-438,520
115,100,-12,-815,-294,477
119,126,-6,-297,-144,393
-121,-115,-11,-2,-111,203
-116,-98,-32,-486,40,-178
-117,124,-41,-250,214,-207
-125,114,-49,-206,37,-167
-125,107,-54,-272,-95,-42
-123,115,-45,-470,-157,0
-121,113,-45,-288,-22,111
-117,123,-41,-363,-93,167
-117,-119,-36,-411,-166,261
-115,-110,-29,-349,-81,286
-108,-95,-30,-369,-70,229
-108,-85,-34,-439,-59,203
-107,-81,-31,-364,-66,179
88,22,126,5257,1235,-4305
-14,67,125,7265,-2776,-4848
-44,84,62,7158,-2913,-4709
99,-96,67,10938,-4983,-2529
-31,79,5,8430,-3548,-2949
65,-79,93,5202,-1352,-2226
56,45,-88,-1312,1768,679
127,100,21,-2205,-535,288
-5,64,14,-291,-86,421
79,-25,-106,-1126,615,-212
30,33,-110,-1033,196,66
116,37,102,-2083,1131,-183
119,100,121,-7485,1074,905
-103,-13,43,-9469,1129,253
-84,-128,-73,-9033,1185,1771
107,39,-32,-10551,836,2731
83,-37,97,-1432,197,4854
-90,90,-55,-3980,913,2477
-51,72,-19,-6641,-395,3774
-61,61,-35,-4411,-1055,2315
-51,-1,-9,31,-2992,2438
30,-27,-35,2883,-441,2339
-34,99,-93,-37,-700,901
-85,46,-94,229,-518,645
110,-62,71,1250,365,-315
91,-118,42,1185,509,-543
93,107,6,355,469,-547
98,70,0,-78,-38,-393
98,44,-7,-279,-92,-360
108,45,-1,-485,-52,-227
123,45,-18,-464,71,-264
118,47,-11,-503,-156,-169
123,51,-13,-355,36,19
124,82,-22,-601,-82,15
122,83,-18,-454,-72,100
-126,103,-20,-360,-23,168
-126,123,-28,-433,-49,122
-120,-127,-28,-332,-21,111
-116,-112,-37,-375,16,71
-121,-115,-36,-264,-86,83
-119,-110,-33,-302,-86,81
-107,-98,-35,-495,-95,31
-112,-105,-33,-303,-92,46
-111,-102,-32,-377,-61,10
-110,-106,-37,-338,-118,124
-107,-87,-35,-418,-115,89
-104,-90,-32,-288,-63,135
-103,-76,-32,-433,-79,93
-100,-79,-32,-289,19,108
-99,-67,-37,-371,-64,50
41,98,-114,3249,1984,-2806
91,-49,-42,6609,-65,-3882
54,10,-35,8226,-1398,-4316
-24,4,99,9431,-3322,-3674
-102,-9,45,11093,-5060,-1991
5,82,116,9080,-3089,-2693
95,-59,-127,5101,-502,-3171
-24,127,-4,-3579,1492,1617
-83,-8,10,-673,-645,-118
43,74,34,-251,-291,243
112,-42,-111,-1019,810,-40
52,72,-124,-1232,-302,99
-103,35,-113,-1332,1041,-91
-108,83,122,-6692,213,1078
-84,19,95,-9777,905,887
-32,11,-56,-7706,1907,2044
60,-29,75,-8267,-341,3172
121,93,-61,-8871,811,3177
64,-61,-112,-5235,645,3338
-71,46,74,-6303,-379,3185
-41,52,47,-3391,-906,2425
-12,-73,6,2143,-2452,2681
56,1,-88,1869,-815,2444
14,98,99,12,-722,1362
-100,-16,118,1855,-1207,445
115,-67,57,1103,-145,-19
86,-101,62,114,268,-393
80,61,43,438,250,-155
90,60,36,-122,87,-296
98,47,9,-478,167,-456
120,27,-5,-508,239,-305
118,10,-17,92,208,-193
119,12,-31,240,154,-143
-128,32,-37,-194,44,-53
125,29,-46,-120,10,39
110,25,-40,21,-227,208
124,59,-41,-483,-99,212
-126,70,-41,-373,-210,147
127,65,-40,41,-142,201
125,79,-49,-132,-214,273
-128,117,-38,-1029,-367,269
-124,-123,-9,-864,-289,157
-112,126,-28,-207,243,-341
-110,117,-38,-143,188,-303
-118,113,-47,-263,-71,-90
-111,116,-55,-419,168,-225
-108,100,-60,-11,116,-136
-110,89,-69,349,-64,-8
-125,84,-74,288,-93,48
-125,78,-71,-31,-61,213
-32,-7,-26,4492,-484,-3824
80,65,-12,5784,-2083,-4170
70,-112,-109,5515,-2087,-3854
16,89,-13,7554,-2728,-3035
118,-70,-58,8557,-2258,-3035
-61,51,-24,6970,-3447,-2713
75,91,-48,7185,361,-3627
-60,6,-12,-10160,2502,1807
77,17,125,2775,-892,-420
36,90,-79,-1376,-91,199
39,-22,75,-636,214,68
74,31,56,-2381,328,314
121,52,77,-5416,228,1120
-120,-13,56,-8088,704,626
-117,-105,-71,-8457,1366,1276
102,-99,-11,-8776,876,1779
89,5,103,-7213,866,3279
74,-46,-103,-5855,-1399,4643
116,-80,126,-3185,-592,4421
4,26,9,-1859,-1634,1753
11,-6,-101,-487,-2277,2998
40,72,-123,-894,-1005,2245
-53,2,-22,836,-1736,1992
-39,31,-73,526,-412,1236
121,10,117,1498,230,21
84,-124,50,3680,1230,-1005
105,-120,19,2009,1347,-739
95,-103,-2,-1180,287,-490
95,35,12,-18,-516,-178
-126,21,4,-343,150,-492
-121,11,-5,-407,366,-607
-125,11,-23,-520,133,-570
-122,-7,-31,-324,55,-283
-122,8,-33,-372,-36,88
-118,48,-44,-744,-186,58
-126,57,-32,-503,-309,272
-122,91,-25,-683,-215,313
-124,98,-14,-399,-252,358
-112,-124,-15,-514,-114,281
-123,-127,-13,-289,-143,186
-117,-118,-26,-318,30,94
-116,-118,-27,-306,-50,60
-121,-118,-26,-263,-76,138
-113,-114,-27,-236,22,79
-107,-111,-33,-356,-10,61
-104,-116,-34,-204,-53,88
-100,-108,-34,-366,-15,74
-101,-111,-38,-232,-42,36
-104,-108,-39,-367,-34,90
-95,-102,-41,-321,-93,104
16,12,-6,6319,-1034,-3379
39,96,-116,5100,-259,-5167
-96,-17,122,8811,-3366,-4624
-71,11,107,8059,-4032,-3791
-82,-7,59,9219,-6147,-1818
91,-52,-76,5035,-4121,-2686
-48,30,-8,8492,-16,-4744
68,110,-108,-8175,3859,2358
110,-45,-36,1966,-1937,-107
101,-116,43,-936,243,312
52,6,-114,-858,-85,428
67,70,-102,-553,327,-71
110,31,124,-1510,606,482
127,-77,125,-7254,819,1506
127,12,127,-8389,869,758
-116,-70,33,-9873,763,2299
52,58,58,-10092,833,4907
64,-46,66,-8884,1753,6007
92,108,35,-3366,-969,3605
-5,63,63,-5568,-1347,4405
-5,-39,24,-305,-1206,2654
28,-19,-13,1313,-1865,2593
61,79,-107,1407,-767,2160
-67,90,-90,1240,-1310,888
-122,31,-91,1277,-652,265
61,-75,87,1267,715,-546
39,-73,51,12,426,-455
27,89,8,94,416,-351
45,71,-1,20,208,-490
60,40,-35,125,367,-509
76,25,-49,-442,284,-542
77,7,-47,-218,103,-258
80,17,-50,-415,-47,-189
77,31,-43,-483,-116,-49
75,38,-44,-255,77,-20
79,54,-46,-96,-21,33
85,71,-44,-139,-143,103
85,74,-33,9,-81,213
97,105,-26,-323,-129,139
92,108,-16,-203,-79,106
96,120,-22,-473,-7,177
105,-118,-26,-592,-33,124
106,-102,-28,-671,-53,23
102,-115,-35,-299,210,-142
120,-116,-52,-346,254,-165
122,-115,-58,-331,-22,-204
118,119,-52,-39,64,-44
125,-122,-65,-219,76,-71
127,-121,-53,-229,-157,19
121,-123,-50,-65,55,56
