AccX,AccY,AccZ,GyroX,GyroY,GyroZ
-74,-121,-78,27746,-1364,-3030
-31,84,-85,30883,-13222,-11651
74,104,104,-210,-4337,-4434
-118,119,64,-12845,9761,3054
96,66,12,3382,-1947,-697
51,70,72,-556,733,881
-121,58,-6,-3793,1303,1117
-87,-88,15,-2002,490,898
-10,-7,13,-5650,2119,1073
-86,-6,-14,-8471,2820,1079
-117,-28,-67,-10474,3193,1769
-101,120,18,-9369,3499,1973
-43,117,-10,-7649,1243,1819
25,-114,9,-4242,-567,1694
123,94,-109,-4023,-2329,1897
68,-101,-30,-884,-1661,2060
68,-117,-79,1699,749,1226
-25,-36,-76,902,-335,218
-43,-20,-89,-521,102,-331
-52,-81,-93,328,659,-700
-28,-96,-114,355,748,-827
-25,-120,107,512,472,-740
-25,104,94,890,208,-401
-37,90,79,528,-176,51
-50,108,87,-267,-323,332
-53,101,103,159,-406,769
-39,103,113,535,-332,921
-45,-116,118,-60,-431,707
-47,-123,113,42,25,235
-47,119,102,389,281,-179
-52,114,92,410,170,-90
-43,113,81,247,229,-93
-45,117,73,-40,141,-97
-41,111,70,115,25,-70
-30,110,69,263,26,-59
-32,107,63,315,-96,-39
-53,-128,78,-70,-174,19
-45,116,80,270,232,-129
-46,123,72,146,-15,-47
-44,125,73,212,-24,55
-42,122,71,328,33,-9
-42,-128,74,329,-53,165
-43,-119,75,212,88,19
-39,-120,74,183,105,-2
-37,-121,69,205,14,80
-38,-117,66,182,72,12
-38,-121,63,183,43,9
-38,-115,68,93,16,69
-35,-113,66,156,83,-12
-38,-114,62,177,20,-30
51,-81,2,4449,419,-3867
108,92,78,8999,1477,-2814
-30,51,33,17918,-3998,-2650
-110,89,48,16230,-6535,-1841
-7,-51,52,3897,-2018,-8150
98,-71,-54,15370,-4665,-6414
-109,12,125,-12465,5909,842
-101,72,-7,-2471,-384,2345
32,70,-53,568,-2091,1040
-100,-45,-84,-5801,-215,1802
-41,73,-11,-10456,-151,2286
-123,44,-14,-9356,-117,1721
-30,114,58,-7932,544,1646
9,47,106,-7304,-260,2931
5,-94,-101,-6231,-1639,3165
56,34,-1,-1421,-1018,3583
-84,-50,118,-282,-454,2675
-40,-59,102,-117,-78,3056
-24,104,-30,-593,-1330,3379
-39,-77,-84,750,-1758,3173
-4,67,-88,2582,-1412,1966
24,4,-76,3991,-288,1144
-49,111,-96,736,461,620
-118,59,-55,-352,210,85
-116,39,-105,-1451,1011,-760
-65,-39,70,-140,1839,-1630
-41,-85,79,1283,1156,-1136
-102,-38,114,1077,-508,300
-79,-3,123,-213,-604,305
-62,47,-123,-1262,-56,32
-58,65,113,-1210,409,-97
-63,49,107,160,-11,-36
-59,45,107,770,80,-115
-62,76,102,38,27,-361
-62,81,84,-661,-113,-176
-68,112,109,-745,-499,91
-56,95,99,670,-89,245
-46,107,78,797,233,-251
-68,123,56,42,104,-308
-48,105,57,-19,138,-166
-49,101,67,-17,70,-66
-38,88,60,793,84,264
-56,120,78,381,-252,296
-74,-123,82,-50,48,183
-55,-123,80,-334,89,417
-28,-56,78,-1482,-109,351
-32,-46,81,-1401,-2,-618
-49,-111,72,606,426,-665
-68,-120,53,1257,246,-262
-52,-85,61,218,-132,230
-38,106,-124,3268,1336,-5943
5,-51,-111,5143,-538,-5258
31,-88,-47,9007,-2604,-5550
60,43,-79,11114,-5579,-5552
-124,74,-104,11076,-1512,-4264
-102,85,-7,5621,989,-7664
-43,-50,107,12367,-1173,-8157
105,-92,-17,-10496,3695,3126
-26,-27,-58,-663,-1033,2555
-63,-87,-126,-2380,520,1325
-39,43,3,-7846,401,3937
28,-23,-1,-10498,1015,3970
-87,-40,71,-8903,80,2810
106,-92,-105,-9177,143,2092
-75,40,85,-7121,-641,1991
35,-114,-110,-2954,-990,2933
-65,71,30,852,-1703,3227
47,-94,39,1421,-62,3209
84,-37,-19,-1081,719,2935
104,80,-11,-950,6,1293
81,-36,65,2015,1069,1179
2,46,2,-172,810,894
-81,-14,-8,-1096,-220,1393
-64,-101,-24,573,-667,1539
-47,120,-71,1078,-391,414
-45,117,124,518,107,300
-53,99,110,488,126,404
-73,67,120,1088,-292,326
-84,86,-109,399,-546,369
-76,70,-111,173,-362,53
-74,56,-101,158,-157,-10
-83,68,-99,-52,-7,-43
-78,52,-110,387,173,-57
-73,50,-118,529,399,-146
-72,64,-127,357,378,126
-73,70,113,94,79,13
-66,70,106,152,-26,-22
-63,68,102,308,-9,-149
-58,70,107,232,-41,-91
-59,78,110,27,-108,-54
-61,86,123,14,-3,-36
-57,90,125,43,61,101
-58,101,120,152,121,46
-54,103,110,227,150,16
-51,107,100,184,141,41
-54,112,90,144,20,47
-53,115,90,150,36,42
-53,118,89,172,48,-7
-50,123,88,148,10,-21
-48,125,93,180,-38,-49
-56,49,-50,5595,2008,-7927
-63,72,79,14163,-1954,-9164
123,122,-71,24908,-12496,-7115
86,84,-66,-1047,-1433,-8057
-15,-112,-14,8987,-929,-13551
-30,-66,45,-12009,6575,5354
-94,116,4,387,470,1034
-31,110,20,-1486,-203,285
-126,33,-25,-5979,504,1751
21,-118,45,-10226,-286,3513
0,37,108,-8853,-285,2686
100,63,-105,-7926,-631,2778
-1,92,82,-9069,-836,4088
-12,44,56,-3743,-632,3615
-45,-88,-32,3293,-1334,4228
123,85,42,2117,-361,3400
-117,-52,-50,-1951,1358,1983
18,53,-28,-2323,-733,1470
-21,-56,-64,-120,-324,1535
-25,3,-60,-1210,-355,1611
-38,4,-103,-975,28,1104
-58,-23,-116,196,-69,645
-77,-83,118,1283,-56,31
-82,101,82,1842,315,-304
-103,88,62,1314,227,-79
-101,61,61,875,-30,140
-73,106,97,-441,-435,521
-75,102,121,143,-228,368
-77,78,-106,1111,-183,43
-90,79,-118,731,228,-602
-96,55,94,633,517,-708
-66,35,71,369,426,-297
-62,79,79,-345,-39,282
-63,75,96,-86,-226,334
-55,93,120,341,-98,140
-60,77,-127,1322,14,-66
-73,58,96,1376,326,-442
-61,70,52,78,421,-332
-61,49,47,16,25,3
-65,50,82,372,-323,334
-51,68,126,260,-165,262
-31,91,-121,-491,463,-102
-39,92,96,-698,393,-141
-55,108,89,-708,139,259
-48,122,83,-347,451,132
-45,119,65,244,280,45
-36,107,58,741,-13,90
-43,-117,80,-112,-303,231
-33,-64,120,-1337,-297,258
-41,-52,-127,-1083,272,-60
68,108,-68,3155,1777,-5039
36,-114,-112,8580,-953,-4555
52,-103,-22,12871,-4363,-3525
34,42,-15,16117,-10867,-4380
-78,-65,-78,5312,-2304,-11349
121,-77,-79,13037,-5069,-8506
5,-82,-64,-5025,3180,117
0,-103,-68,-1188,1775,-644
-112,70,-90,-1148,354,-86
-86,-112,-119,-3388,430,992
-39,-115,-111,-5975,223,1922
30,114,80,-10794,493,3062
66,36,45,-10259,-192,2358
-14,70,115,-8986,-460,1681
72,123,76,-7862,-628,1626
83,47,55,-7225,-1919,2065
-120,-108,-112,-4080,-2239,2689
-18,-43,56,-1380,-1005,3062
-73,79,-108,674,321,2535
-28,107,-94,650,-632,2474
62,123,65,-1047,-934,1796
-64,-7,2,-70,-1719,891
-35,-65,-6,1380,-393,1023
-25,-61,-63,1424,620,1112
-70,-119,-119,2009,6,1041
-75,94,-107,2303,-51,453
-63,95,-106,1272,288,25
-74,105,-108,-158,153,-456
-68,61,-110,31,19,-437
-69,30,-109,625,-53,-244
-70,23,-102,695,-120,-127
-65,30,-103,254,19,-212
-58,28,-106,76,99,-191
-56,31,-107,29,13,19
-55,46,-105,-23,146,47
-52,53,-108,132,103,152
-50,62,-117,231,58,228
-52,72,-126,176,123,155
-50,79,123,60,155,163
-49,81,119,229,100,93
-50,84,118,302,68,10
-51,88,117,267,50,9
-47,90,119,185,17,-2
-53,97,123,113,-29,-19
-46,94,-128,287,86,-37
-47,100,124,149,55,-42
-44,102,119,136,66,-47
-46,102,115,233,50,-21
-42,108,110,132,68,-43
-42,109,108,150,41,-8
-52,-2,28,6852,200,-3483
44,92,36,12146,-2795,-3828
91,-58,97,18562,-9839,-7231
80,-72,-22,6058,-1992,-16073
34,41,-62,18250,-8883,-10836
-122,44,-80,-23423,10074,8051
75,-78,73,2475,-2708,2088
78,-104,-101,502,98,-312
93,72,15,-6296,2451,2409
40,-5,-76,-9724,2988,3757
-33,81,-61,-8830,2412,3128
-72,-53,-106,-9753,3020,2873
73,-75,20,-8249,2394,2506
-123,30,100,-4516,265,2857
34,112,-4,-2393,-876,3025
-99,-34,-41,-2450,139,2498
95,113,42,824,-107,1378
56,120,-20,1194,876,1586
-14,-65,-10,311,577,246
-33,122,-1,2060,539,772
-73,81,-26,2522,52,1201
-109,29,-62,1647,-615,1753
-119,-19,-55,468,-1166,1067
-89,-68,-65,-198,-506,-821
-77,-118,-72,265,499,-1298
-87,-117,-70,544,408,-491
-105,-105,-77,348,-82,-24
-80,-94,-87,82,148,26
-81,-85,-102,-116,232,22
-89,-74,-112,-103,25,161
-89,-57,-116,-21,33,256
-82,-43,-121,6,127,209
-82,-29,-128,129,76,146
-78,-13,-122,103,72,147
-84,-3,125,211,139,-19
-94,-14,112,640,103,-77
-72,-20,108,690,99,-64
-61,-17,103,273,-57,56
-85,14,102,-438,-97,25
-81,12,102,-235,113,-165
-72,4,97,248,106,-167
-77,7,91,458,-74,-46
-71,18,88,207,65,-116
-68,22,84,88,62,-86
-67,22,79,184,5,-8
-68,28,78,194,52,-31
-67,36,75,177,60,-8
-65,40,74,177,28,38
-66,47,74,179,68,34
-63,53,68,182,116,13
48,-43,-87,-6412,494,-3248
98,-19,7,-3143,375,-3388
18,55,118,-858,160,-5044
-95,-30,14,3173,2274,-6226
-28,-113,68,13255,597,-6327
-78,-61,-63,25897,-8799,-5432
55,-22,-77,2783,-1663,-14771
124,104,-43,11931,-5203,-9277
100,20,-101,-2718,861,1250
-104,-8,116,-11387,3136,5770
-58,-1,-69,-626,382,38
-48,109,91,-1288,654,369
-15,58,-22,-8604,2169,3533
-72,17,54,-11149,2402,2924
-39,6,52,-8179,765,1664
-110,14,57,-9937,-770,1075
-34,-97,-78,-6405,-2304,554
-128,61,3,-2684,-789,1358
-63,42,-122,922,-734,1640
17,-78,121,-1049,0,2604
-29,-97,-9,-311,-1481,2520
-61,-116,-5,996,-2050,2050
-42,-102,-17,150,-336,1783
-74,102,-53,528,111,1306
-79,118,-82,-135,-42,760
-54,45,113,954,513,766
-61,-69,51,2745,331,730
-72,119,40,2838,-186,67
-79,90,68,1483,-166,-536
-71,108,118,-492,22,-313
-85,112,-119,-892,-314,-81
-83,104,-99,-384,-219,-33
-76,101,-103,176,49,-24
-67,93,-121,511,308,-4
-66,100,102,491,263,260
-61,115,89,107,158,249
-58,123,87,-84,89,19
-64,119,99,186,-14,97
-60,125,102,245,76,47
-57,125,102,232,45,8
-57,127,104,225,-11,27
-53,127,103,209,128,-19
-56,125,94,184,114,-69
-56,124,88,224,66,28
-54,125,83,190,11,36
-52,-122,82,36,2,85
-54,-116,84,13,-6,79
-51,-111,83,104,68,50
-39,-111,78,121,14,-5
-42,-110,88,186,-136,61
65,10,-90,5375,-692,-5556
-121,-7,-37,16369,-4351,-5466
118,-89,96,17843,-10566,-5462
96,105,-10,4549,2443,-13950
123,-21,-30,15301,-2047,-8552
94,117,82,-14070,3218,4073
17,-50,71,674,-2918,5171
-25,12,-107,-2745,-424,2363
67,109,93,-5615,334,3437
-9,-122,-59,-8518,2201,3973
103,-108,-75,-8814,2701,3791
-6,-13,-10,-10017,3634,3356
-15,89,-10,-8045,188,3487
-47,-83,-123,-2235,-336,4662
121,-52,0,2003,171,3103
-89,8,45,827,-207,3155
112,18,-83,-1505,1025,1835
25,-113,-33,592,-547,1781
-12,86,-7,3136,-128,1056
-48,49,-56,3812,1044,188
-55,-8,-61,2497,1114,-302
-44,-39,-56,1253,971,-114
-68,-70,-40,148,439,52
-89,-90,-45,-144,-479,256
-84,-103,-38,5,-566,-26
-83,-93,-15,-12,-111,-176
-87,-84,-13,-132,-128,89
-92,-70,-22,-194,-317,310
-98,-63,-47,-59,-193,343
-98,-61,-68,157,123,193
-92,-60,-89,349,346,-41
-88,-48,-106,322,215,-32
-83,-44,-110,331,276,-115
-83,-42,-106,294,193,-148
-79,-37,-103,181,-126,42
-83,-32,-105,158,-71,45
-79,-22,-109,134,102,-50
-84,-18,-117,126,33,-48
-82,-15,-122,153,-8,-4
-77,-10,120,119,22,-50
-80,-3,118,101,-13,43
-77,4,114,158,22,-14
-78,11,111,177,12,-27
-75,15,110,193,61,5
-75,21,105,171,77,8
-73,28,97,183,47,27
-73,33,90,158,50,30
-72,42,82,96,56,31
-69,44,72,134,62,-49
-70,49,68,90,-76,29
56,-81,-57,-8124,861,-3125
122,33,-122,-6159,1938,-4103
-76,90,36,-308,1177,-5399
-67,-108,-46,2751,-1114,-4577
-104,6,127,9158,1967,-6619
68,99,-123,22230,-7826,-9369
-27,5,103,9632,-4123,-7177
2,-116,125,9320,-1358,-13361
-128,-122,-108,-1009,1026,640
0,-47,90,-8105,4285,5036
-5,-55,21,-5036,1359,1787
48,126,74,-4518,1557,1173
4,43,-53,-8601,3146,3013
111,-99,-5,-10047,2889,3221
-127,74,85,-9057,986,3573
-2,55,41,-3163,-619,3295
-37,80,9,309,-947,3045
65,-120,37,1918,1355,1146
34,-42,-77,-2160,1239,1445
-33,-95,-63,-1429,-46,1736
-48,35,-65,2009,-286,2124
-58,20,-124,2283,-224,1961
-79,-4,73,1134,-194,1574
-102,-99,59,1694,-333,446
-117,75,79,2550,-278,-659
-93,32,119,2306,269,-1168
-83,50,-100,897,410,-424
-82,43,-92,51,142,-290
-89,19,-104,-96,-220,117
-85,9,-121,89,-116,184
-91,6,-125,142,-114,171
-91,14,-127,4,-3,26
-90,27,-127,-76,66,166
-88,31,125,111,57,178
-84,44,118,187,119,240
-73,52,109,117,181,174
-88,57,93,280,138,43
-84,53,86,417,69,-121
-68,48,93,275,30,27
-79,56,86,82,48,120
-85,62,82,131,103,40
-81,61,81,234,16,-20
-82,64,78,183,13,55
-71,72,79,3,35,91
-69,83,80,-45,3,114
-76,93,76,84,72,-78
-68,89,72,277,73,-167
-63,92,77,272,47,-173
-66,94,69,166,91,-273
-69,86,70,219,53,-214
-22,118,-86,1951,-4443,-5706
111,72,16,3499,-6307,-6673
56,74,126,2675,-7961,-4324
62,-94,46,7742,-3653,-8147
-62,-97,79,5477,6514,-13712
84,-112,-74,4723,-4925,-6493
-98,80,116,-5091,2685,3662
57,-125,-81,-7009,2624,2942
90,96,-80,-387,680,64
-91,-123,57,-1910,1479,433
-67,-92,-37,-4125,2188,1027
-122,-116,-53,-4992,3055,1668
89,-30,92,-5598,4333,1247
-74,-11,-13,-7150,5033,1306
-101,20,3,-7042,2190,2202
-13,109,8,-6115,645,1250
19,112,-112,-3732,115,1113
9,-99,-38,-2028,-605,1651
-8,-64,2,-736,-953,1888
-46,-90,-29,1514,-742,1788
-73,100,-58,2312,-569,1334
-68,121,99,920,630,-165
-53,89,90,480,1333,-1044
-66,16,100,1746,372,-492
-70,-7,115,1736,-332,-208
-66,4,-128,543,-388,-191
-64,-1,-119,-223,-184,-199
-78,-18,-116,166,-304,160
-87,-10,-120,225,-383,309
-87,9,-128,15,-163,253
-86,13,112,3,4,239
-87,16,96,226,-15,248
-83,30,87,310,118,104
-85,32,82,332,84,-41
-85,33,74,335,-28,-93
-83,27,76,409,-2,-115
-81,25,76,361,8,-112
-84,28,73,213,-8,-102
-84,25,73,246,28,-27
-81,28,68,219,81,-31
-78,35,63,134,17,94
-77,47,60,2,83,113
-71,56,57,46,108,55
-73,61,57,261,-17,60
-73,71,54,201,30,-31
-70,70,48,234,88,-105
-69,67,45,254,9,-79
-69,72,42,107,34,-91
-70,72,40,134,64,-140
-67,66,38,259,20,-63
97,-34,116,-3863,2905,-6394
-4,-50,96,319,-646,-3966
13,113,-31,1692,296,-3711
-78,-49,-87,4033,643,-3438
-107,93,16,11311,3421,-4751
-24,59,-118,19410,397,-5415
120,-100,2,15751,-4771,-7462
-56,-67,96,12725,-1486,-11193
12,43,47,-416,2250,-290
119,10,-6,-16285,2310,6626
-50,104,-18,4645,-1370,337
-5,28,81,-2629,958,1591
84,90,-68,-9580,1092,4335
95,15,14,-11982,1647,3968
-41,30,-65,-10924,685,1555
86,88,-71,-8320,-611,2095
-29,97,54,-4699,-1466,2649
37,-25,100,-477,-1326,4296
-44,-100,106,293,384,3389
96,-51,-113,-442,1004,2584
-25,-127,4,-237,2397,2131
-49,-116,-27,896,276,4805
-11,55,-98,2659,-1091,4221
-114,-55,119,2250,-2314,2175
-114,24,-123,2362,-2012,-242
111,-54,-100,1090,-580,-1456
88,-67,-77,893,593,-238
93,-69,-88,652,658,401
80,-46,-89,159,-119,487
89,-37,-85,106,-364,94
112,-49,-67,615,-232,-425
-105,-92,-41,1528,37,-472
-110,-71,-41,766,-130,-363
117,-55,-53,-237,-273,-370
112,-64,-64,-471,-12,-271
118,-70,-94,-102,205,-323
-104,-71,-113,-7,160,-135
-108,-29,-127,-579,-95,349
103,-5,96,-488,34,-42
-109,-6,87,-259,190,-406
-88,-10,77,21,148,10
-124,-7,52,410,-28,226
-126,17,51,278,-28,378
-94,42,55,-244,140,349
-66,60,56,-341,76,292
-111,74,38,21,-92,-21
121,57,24,493,10,-733
-95,33,23,576,120,-686
-72,20,29,435,-118,-105
-108,35,30,113,-383,243
-77,83,25,-3131,-1579,-4393
-115,58,62,-479,-1426,-4153
35,120,111,2805,-1008,-3723
-59,98,119,10412,-754,-4515
3,73,-73,15680,-2767,-3256
17,119,-90,8247,-3630,-5104
-52,-28,-80,4606,20,-9013
52,104,-86,15399,-1758,-8331
122,-7,103,-14315,3663,4314
-128,70,-79,-1294,-1777,4513
-41,31,-1,-2803,-1337,3178
116,107,65,-7228,773,3464
-80,37,-50,-7811,1038,2847
61,59,-72,-7302,1870,3131
-51,-38,20,-8101,2508,3749
-128,-107,75,-6993,-1467,5752
-7,-5,-58,-2336,-2197,5363
-46,12,74,-1206,132,6068
57,-17,-56,-5284,-1411,6265
72,-22,16,1241,-1858,2682
-96,-32,21,4521,-424,3039
54,-100,-116,388,765,2199
68,25,-6,805,-591,-1330
52,36,38,5154,-1188,-2412
94,-60,55,4663,-1023,-1751
66,14,108,897,293,-678
75,6,124,-2021,613,-203
91,-45,-123,-945,119,51
119,-63,-118,532,-30,152
108,-25,126,662,-28,234
106,9,92,381,234,256
117,-7,55,714,256,152
111,-21,55,1214,-99,238
97,-5,73,736,-319,253
76,10,108,333,-197,168
107,-2,102,502,393,38
-98,-5,88,455,501,-175
-88,-4,70,236,123,-246
-121,2,67,36,-325,-259
-127,8,62,-215,-97,-573
-122,-15,60,135,145,-575
-121,-25,54,487,37,-156
126,-14,55,443,-107,140
118,-1,79,455,-72,485
-107,27,87,141,320,635
-90,59,55,-144,401,239
-100,57,31,-94,94,-352
-104,33,32,523,-60,-495
-98,5,31,929,-53,-359
-107,12,32,467,-87,-136
43,-1,29,-4771,2334,-6013
-118,-113,-77,-2206,3566,-6675
94,113,14,1768,-2892,-4545
41,71,-82,-200,-3180,-4458
-28,-80,-25,4848,-1444,-3127
-15,-88,64,11903,-878,-4420
-123,-53,92,14240,-5083,-2386
-92,117,85,5226,-5497,-4618
52,25,83,4171,627,-8770
40,120,122,14686,2099,-9466
64,104,-70,-2036,2709,-81
16,35,104,-6154,-1369,2825
-75,-64,-105,-776,-649,1804
-86,-16,-70,-3172,-387,1088
-35,42,49,-7233,-480,3038
2,-36,-75,-8124,-424,2935
124,100,89,-7710,897,1928
-22,-44,65,-6655,1389,1917
-43,64,59,-4918,1163,4833
2,-88,73,-2683,1034,5344
87,-71,98,-4331,-40,5858
-54,-50,-103,-2221,-526,5029
31,84,0,1438,-267,3184
-15,15,-72,1614,465,2301
-13,-47,115,725,371,1525
-58,118,118,1811,119,1158
-81,66,-127,2777,-202,1557
-128,69,125,2069,62,440
91,34,-115,1170,-202,-698
84,-28,-85,1151,-365,-587
86,-44,-81,270,-344,-488
90,-50,-94,-359,-224,-445
91,-68,-106,-76,-229,-346
94,-76,-121,268,-115,-331
99,-66,-121,171,-141,-255
98,-59,-126,63,-72,-133
98,-51,125,18,-23,10
102,-48,119,252,95,162
104,-32,108,177,138,201
107,-12,92,14,143,175
113,-9,83,112,138,158
117,-2,73,227,118,182
113,8,66,192,85,129
119,11,63,242,155,50
121,21,58,210,31,5
124,21,60,218,19,-64
124,26,59,140,52,-123
-126,21,55,231,46,-120
126,25,50,218,14,-93
-124,28,45,113,58,-109
58,106,27,-4401,1151,-2631
63,-111,47,-334,1650,-2976
-7,-24,-116,2809,954,-3445
-31,-73,68,7433,-194,-2114
4,20,-81,12106,-5329,-1229
19,-18,-79,12321,-13697,-528
-21,-108,80,5165,-9725,-4406
-110,-74,10,3199,980,-9319
50,-12,81,16898,-4815,-8518
-103,-97,108,-13818,7962,2881
114,126,34,656,-4429,2287
7,51,38,-164,-1199,2235
-60,-43,7,-5323,953,1265
-104,-93,-68,-6968,883,2198
-117,-95,-75,-7410,1169,2552
36,21,-122,-7870,2069,2799
-72,-42,68,-7405,2756,3398
-108,-107,-4,-8384,501,4762
16,-34,32,-6374,-781,4949
-124,-27,-92,-1029,-3078,5492
41,48,108,3512,-772,2620
125,111,-76,4444,1336,-128
63,95,-118,2555,1019,1282
-18,39,96,1716,1203,2114
127,105,84,2672,89,2180
94,26,-106,2274,-995,1386
117,8,-78,276,-260,-99
-121,6,-49,-888,998,-1921
-91,-17,-96,-749,1213,-1358
-119,-31,-106,146,212,-2
-99,1,-107,-87,-188,-654
-67,-5,-104,290,75,-397
-107,-5,-81,616,-198,441
-108,28,-107,-140,-397,1288
-80,22,126,-378,-445,1308
126,17,97,-428,-381,143
-121,-7,83,116,169,-610
-97,-9,75,263,296,-422
-125,-2,73,245,-333,8
-127,23,85,-172,-340,75
-120,40,92,-232,18,-29
-105,38,79,212,276,-133
-100,41,66,376,-45,172
-114,59,60,185,-38,256
-103,69,54,143,188,23
-106,73,48,112,85,20
-103,76,44,198,5,-3
-98,73,45,330,67,-161
-102,74,46,271,108,-146
-87,62,38,346,88,-119
60,-97,94,1833,-189,-6607
-6,110,104,9467,391,-5770
106,117,3,13236,-1422,-6772
67,33,107,8503,-1254,-4273
76,127,107,8044,-3031,-8065
73,-85,101,9473,-2489,-5776
49,-109,-7,-7309,3921,2119
-48,38,-79,-6044,1695,3602
127,-103,46,-609,484,81
-65,10,-16,-2919,582,1841
-12,86,126,-6792,1244,2271
-84,71,-75,-7186,1657,2370
66,-26,122,-8918,3352,2385
-65,39,2,-7908,2130,3797
17,-20,55,-4827,116,4551
-106,-122,-44,-603,778,4785
20,-115,-116,-1384,941,4765
87,-1,-100,524,-376,4299
117,39,33,393,-734,4516
50,-29,91,2131,1979,2530
23,-126,127,4149,-1010,1216
32,21,-83,3888,-1534,-1439
105,-11,-46,1940,-26,-1392
93,-63,-35,-85,498,-946
68,-103,-42,-534,-302,-343
86,-100,-41,-427,-347,59
97,-91,-57,-300,-365,-241
95,-91,-66,-206,-441,-614
101,-86,-70,-251,-169,-538
87,-76,-85,-474,-84,-260
89,-56,-100,-534,-23,-43
117,-40,-116,-84,224,-60
106,-28,112,65,234,7
100,-12,91,-199,61,31
121,2,81,-195,105,79
-127,6,78,162,124,69
-117,11,74,430,118,-43
-118,14,77,590,-64,-3
-121,21,94,577,-14,41
-121,26,105,571,161,34
-112,24,88,460,263,-116
-102,12,80,367,28,-3
-113,24,82,55,18,156
-115,28,74,120,196,92
-110,35,64,58,146,181
-113,45,52,-3,67,149
-111,55,49,199,13,-87
-98,46,52,491,-21,-157
-98,38,61,493,-82,-97
-102,55,59,-108,-22,-102
93,7,-81,8035,-2115,-1978
-1,23,71,17921,-4848,-700
89,-31,-28,14124,-11400,-475
-59,12,71,1633,-3725,-6443
16,83,-27,14508,-1831,-8992
57,-118,70,1358,1977,-2681
124,-46,-32,-8561,401,4138
-6,63,53,428,-634,1598
-119,114,-106,-3879,284,1167
-122,20,18,-9450,897,2520
105,-60,-121,-9457,355,2104
23,-7,46,-9327,704,2269
103,-81,-35,-7746,-105,2602
108,78,63,-5757,-1976,3958
-56,46,-70,-3015,867,3673
65,-14,44,-2783,-654,4890
39,111,108,-1407,1389,3923
40,-27,2,649,-811,4162
99,-19,51,-763,-1719,3341
39,-41,-6,-1951,-648,914
-109,120,-45,1152,-1282,931
110,2,-78,3226,-956,132
-123,-122,-91,4318,30,221
123,110,100,2457,112,-289
105,91,77,196,-4,-395
114,78,84,-803,-235,-359
123,20,103,328,-442,-257
123,-1,109,855,-257,-211
-128,55,87,-709,293,-351
-116,25,83,260,319,181
-123,20,92,990,-188,222
-118,40,83,636,-147,343
-121,53,88,347,-59,327
-125,46,84,636,-9,226
-113,44,75,557,125,61
-112,43,64,364,3,77
-127,56,72,52,-80,144
-120,65,64,26,67,-181
-106,50,56,263,99,-271
-113,50,53,204,-64,-116
-113,38,58,655,-70,-41
-103,54,60,239,146,-71
-103,54,55,228,19,-65
-104,54,56,274,17,-16
-99,64,52,101,107,-22
-95,61,46,266,75,47
-96,71,39,266,-15,56
-91,77,41,194,36,-3
-90,79,40,172,52,-37
-89,82,37,139,70,-43
102,124,96,6290,-1440,-4512
112,79,124,14762,-5927,-5620
-44,11,116,14620,-10368,-6292
-75,-116,-45,5625,-884,-11286
-49,45,121,14937,-3797,-7055
-43,116,74,-7811,2709,2467
101,112,127,-7964,1866,4584
-6,-2,89,-2066,-390,1797
-70,-90,80,-5326,1199,1514
98,-123,-83,-8713,1764,2413
72,-118,74,-9067,2888,1758
-10,-93,-60,-8606,2521,2679
61,63,-42,-5602,1210,3949
118,38,111,-3898,-224,4009
4,-84,-86,-2460,1022,3882
27,60,101,609,549,3858
-46,-27,27,1020,2665,3632
-34,-46,46,1309,-134,5139
79,17,-56,52,-912,3201
-121,-72,-108,1579,-1443,-350
-104,-126,-82,473,-668,-1922
-103,10,-88,-152,-445,-1817
113,-100,-86,2001,-1219,205
101,-81,-65,2309,-201,1057
95,-32,-64,1330,125,9
109,-55,-52,684,-243,-458
123,-55,-38,-365,-288,-382
120,-80,-52,-282,-98,-76
121,-77,-74,157,114,221
123,-59,-97,384,80,410
113,-66,-117,728,-139,189
122,-53,-119,310,-77,14
118,-38,117,-312,21,-125
120,-29,96,-395,-18,-78
120,-19,89,-97,-80,135
115,-9,86,66,-149,-8
-127,-3,84,93,-3,-177
125,-6,84,161,16,-93
122,5,81,75,5,-6
-122,26,73,-193,135,-7
-116,44,58,-419,139,-163
-121,61,40,-278,69,-74
-115,56,38,282,18,-142
-111,57,41,353,12,-85
-109,63,41,239,11,-75
-105,67,42,17,51,-46
-105,83,37,-236,29,-71
-102,87,35,84,20,-18
-97,94,33,254,39,-28
-97,105,29,113,24,-108
32,-84,-75,-3286,1815,-6000
20,-14,-50,-30,-339,-4572
-78,92,126,-703,-2152,-5253
-87,3,115,4247,-2053,-4102
-85,-72,-110,11972,362,-4327
21,40,26,14574,-7154,-3174
59,89,-82,5371,-4476,-8545
-18,3,100,11196,-3056,-11130
36,33,-36,12939,-4469,-3891
-47,30,-50,-19140,8957,6627
113,-97,117,-4687,-673,3109
84,-90,-100,-1448,-528,2979
-10,-49,54,-9440,2571,2812
6,-16,101,-7284,2327,2780
-68,-108,79,-6898,2709,3949
-54,53,-26,-6161,2612,4188
36,85,43,-3292,446,4507
-77,31,-92,-1694,1305,3706
-68,-13,20,-537,342,1585
21,62,82,1405,2348,1176
71,-118,-18,-772,479,2394
33,-110,-50,-1809,-313,1601
-113,41,72,108,-424,1291
-82,-100,40,2840,-617,1398
-67,59,108,2440,-2094,1327
87,57,127,315,-1864,576
53,-34,124,1196,-213,-108
79,-27,118,1309,982,-173
107,-13,113,524,620,-33
104,-5,101,-48,-65,-239
108,-42,96,306,-166,-547
122,-74,107,644,-78,-190
96,-42,108,249,-27,436
96,-25,96,56,115,311
-128,-8,89,-58,177,133
-125,11,81,-203,-14,55
118,20,69,-280,-56,-390
-125,-2,64,23,166,-525
-124,-1,56,150,100,-21
124,26,54,-152,5,339
121,47,43,16,265,39
-112,31,37,574,333,-225
-101,28,35,686,143,-121
-97,42,49,288,-173,-162
-113,48,58,154,29,-545
-110,13,52,472,194,-719
-85,4,48,427,177,-182
-81,11,34,258,189,329
-92,44,16,-137,103,471
-90,66,20,-359,-116,378
-108,70,-21,4103,-476,-4095
10,14,-43,14120,-2100,-5051
-24,82,-92,22260,-10276,-5839
-7,-56,5,7014,-8866,-10631
-115,-12,42,11392,-5388,-6774
6,-106,-5,1104,1375,-3249
-117,-75,64,-8573,3943,3550
87,-12,-16,-1917,859,467
-112,72,-106,-1456,491,719
26,107,77,-8348,2384,3036
-4,-85,-95,-8589,1914,3158
-128,-122,60,-10643,2155,3172
-65,-116,-52,-8315,2198,2238
-91,2,-45,-8553,78,2859
30,62,104,-3307,-1239,2830
-92,-100,33,82,152,3396
-23,-86,-25,168,120,2670
32,-60,-6,-210,-114,3210
52,113,-25,1133,-92,3074
6,-125,-49,-407,-648,2869
-82,72,111,445,-957,2412
96,-62,79,1051,-1723,1425
87,-125,76,635,-769,-1311
98,91,74,739,686,-1400
-127,38,90,1226,431,-554
102,38,96,1205,-570,-11
89,52,115,323,-660,-157
97,55,123,-997,60,-438
119,30,85,-1494,606,-587
121,-14,61,925,372,-396
-99,14,53,2041,178,-249
-103,15,56,1799,-58,-90
-128,-11,73,1721,-131,41
-123,-13,87,1018,185,111
-101,-28,90,749,279,338
-115,-14,84,364,74,543
-117,9,91,-215,13,455
-102,58,79,-1416,245,106
-104,35,66,-304,86,60
-108,5,67,1295,-102,-92
-115,21,74,1159,-107,-78
-105,26,70,528,62,-152
-106,16,61,185,45,-101
-100,13,57,101,26,-81
-95,17,63,133,-16,11
-80,28,71,147,187,5
-91,31,53,280,212,-48
-104,27,35,482,113,-53
-86,22,30,546,123,-24
-93,27,24,363,40,8
-85,47,-84,2128,-1251,-5152
95,-120,-72,1662,-2772,-5687
102,-1,-102,9677,-1393,-4094
98,-8,100,8695,-3615,-3272
12,-114,-61,10930,-2317,-2461
127,-57,16,10762,1498,-8334
-88,112,105,14433,-1968,-8606
58,37,-81,-15114,2673,4987
-65,126,94,2247,-1950,3342
126,7,-115,-5364,-141,2864
-69,40,51,-6304,470,2218
125,-20,-4,-6682,1189,2590
-18,48,-73,-7299,2689,2231
84,-95,52,-7542,2986,3129
77,62,-31,-6301,2237,4731
-116,67,75,-5464,-65,5790
-116,100,-77,-4311,-1348,7921
46,87,-54,2484,529,4306
127,1,119,4543,270,2012
79,41,61,1009,-622,897
-46,-48,64,508,-325,1034
-118,120,113,2196,-602,1430
104,57,116,2947,-279,772
52,-17,-125,3152,-493,-425
26,-49,-105,2145,-306,-882
63,-42,-71,-193,288,-887
81,-67,-97,-964,492,-569
84,-114,-123,-14,280,-409
90,-117,-124,735,-98,-27
102,-83,-122,553,262,33
96,-67,-112,-110,185,-71
94,-61,-124,-68,-19,-59
109,-71,-120,444,-47,50
106,-55,-124,262,-38,-40
103,-35,118,-246,27,-33
108,-26,101,-455,77,-11
115,-11,95,-370,-27,-18
120,-3,87,13,99,-145
126,10,77,-168,125,-218
122,13,61,-96,23,-162
122,10,53,202,-46,-126
123,21,48,145,133,3
122,25,39,317,-31,55
123,22,42,726,-54,78
125,44,52,247,-88,-23
-122,52,58,-94,17,-71
-120,29,65,633,68,-24
121,34,45,664,70,41
-118,44,36,120,5,-22
-109,50,38,-85,7,90
63,100,91,-3218,1947,-3378
20,-69,-104,-2957,1317,-3015
-57,77,-98,-475,1163,-4131
106,121,0,3127,-388,-4150
-33,-126,-101,7457,-468,-4655
-70,-115,-119,14011,-4864,-4540
-49,-61,-65,13843,-4283,-2003
-53,55,-19,8847,1847,-13516
-125,90,15,17003,-2175,-3271
114,-105,127,-20176,5218,3858
-94,4,-57,1226,-3506,1656
-44,-41,117,-2948,-675,2872
70,72,1,-6416,805,1569
16,55,116,-7372,1595,2254
-77,-78,28,-8091,2886,1544
-39,-43,5,-6428,2715,180
112,-24,4,-1908,3182,1799
113,25,-82,-2638,296,4386
-53,-21,125,-3045,633,2908
-109,112,-1,-110,-6,3189
-7,-38,-26,1210,1393,4071
-54,0,-96,2625,398,7310
-8,36,-62,3985,-157,7585
76,62,-87,450,-937,1750
-27,89,118,-3261,-660,-2785
100,-20,88,-2193,1224,-3171
-111,-98,105,946,1049,-1499
93,-118,-122,2429,-649,-485
24,-44,-100,1043,-1477,347
78,43,-121,-2472,-314,-393
111,1,92,-2218,402,-878
106,-51,63,24,315,-554
84,-41,80,1276,-445,8
84,2,93,744,-495,359
102,55,97,-456,24,123
111,56,75,-778,367,-311
114,37,61,-12,197,-314
109,35,62,634,-88,-2
108,53,66,482,-16,57
125,65,68,159,292,13
-121,63,50,95,369,117
-128,71,36,-16,198,259
-120,90,25,-61,214,248
-114,94,19,238,203,11
-97,85,11,513,39,-244
-101,84,27,347,-266,-162
-120,93,39,48,-170,-117
-116,95,47,58,113,-133
-107,89,39,345,194,-174
-104,82,29,484,75,-190
-52,-15,62,3519,-2748,-4216
47,-28,36,6046,-2002,-3116
-40,-94,94,10264,-3930,-2801
-89,40,-61,10054,-5388,-3363
69,-47,37,13150,-4475,-1754
-7,70,-43,12800,-2687,-9659
-24,30,-57,6373,-252,-764
93,-16,10,-13971,870,4164
-28,-111,-123,902,-627,1346
114,123,113,-3458,-171,852
-106,31,-3,-8480,543,2277
28,0,-52,-8209,1878,1700
-21,78,106,-7783,2190,2969
-97,82,-41,-7450,2902,2261
-39,-110,-1,-5714,2777,1941
101,38,108,-1206,1522,2895
59,68,3,1363,-1105,4138
-86,43,-89,-2055,205,2128
-102,-104,-81,-1320,-777,2925
-51,43,-48,1091,-931,2798
-28,84,-72,1067,-409,1178
-74,24,80,2321,344,-841
-108,-98,125,1715,334,259
-124,85,118,913,377,711
116,0,126,828,-35,1600
111,-34,-88,1255,-690,1533
119,-51,-88,1228,-235,723
116,-41,-96,348,337,148
102,-36,-111,-549,351,-45
109,-63,123,-169,291,30
111,-65,117,310,11,199
104,-54,118,592,-100,189
110,-46,-128,624,2,38
111,-42,-117,709,69,-65
111,-31,-124,278,133,-76
117,-31,119,-7,126,-209
120,-48,104,193,116,-142
111,-40,97,117,28,-33
117,-36,88,98,74,-5
119,-25,82,89,28,24
120,-16,81,115,29,27
-128,-7,78,148,7,-34
-125,-5,77,222,56,-70
-128,6,70,-20,44,-73
-122,9,63,24,77,-74
-123,12,56,107,48,-87
-121,19,52,120,42,-99
-116,21,49,162,41,-107
-114,24,48,212,3,-86
-113,32,50,154,37,-79
6,76,-7,-5005,327,-2812
53,80,120,-4552,217,-3401
-11,-80,-84,-1977,158,-4193
88,110,88,-526,474,-4903
124,15,-87,5453,295,-5068
-41,98,30,12015,-2127,-6119
-28,20,46,16723,-5857,-4043
23,110,-28,11465,-695,-6597
116,50,-85,15813,-3392,-10157
-80,-69,-63,-9580,3881,2685
-97,-27,106,-3210,-1002,1616
-44,88,-93,-310,-1686,2510
-52,109,-42,-8894,787,1365
88,127,22,-6908,1002,1744
-62,-11,-62,-6632,2398,2097
95,-17,10,-7590,3265,2373
-87,-128,-88,-7400,1934,3433
-22,54,2,-3372,483,4078
-100,69,-80,-1083,397,3888
-29,54,-80,-544,998,2226
-71,-79,-67,778,-293,1583
-79,69,-31,1056,-234,1553
-62,-95,-60,2353,603,2135
-16,70,-93,2870,679,2989
-45,28,-127,2835,214,2702
-120,36,-125,774,-519,1506
85,25,124,-1076,-340,-303
100,-30,111,-424,559,-766
96,-68,115,895,408,-367
89,-73,121,1391,-211,-22
85,-39,-125,690,-640,67
98,-29,-120,48,-224,-29
98,-40,-121,-240,-15,-399
94,-53,-123,-67,-99,-469
99,-58,-126,188,-67,-245
107,-32,117,-265,-15,-103
112,-20,104,-418,-61,-270
113,-24,98,54,-15,-274
116,-31,93,538,133,-194
118,-20,86,356,132,-65
123,-6,74,137,268,14
-121,3,74,149,603,-181
-116,18,75,87,398,-42
-111,35,61,22,99,145
-112,43,56,6,-111,165
-98,44,52,170,53,-26
-100,46,55,337,-64,-19
-107,54,59,270,-95,-26
-110,62,69,195,36,-79
-111,62,63,102,21,-116
72,-13,-118,-2767,1777,-3895
-45,12,22,-648,1129,-3360
-20,-91,78,-57,401,-5216
5,31,4,3156,375,-4536
-81,-62,11,9573,-729,-5959
12,104,-28,13417,-2773,-4837
-47,-74,-40,16615,-192,-1747
-107,93,-50,14434,1420,-8463
37,-92,-124,-2828,3679,-977
2,-33,-32,-3881,-2840,204
-96,-26,-10,-609,-1315,2394
-124,-4,-23,-7443,-742,1219
36,89,103,-8584,-760,2000
-79,97,-106,-10333,129,833
-62,-20,121,-10671,178,-882
-75,58,112,-8177,-761,-960
-79,-34,107,-1648,-3668,1394
53,-103,-20,-311,-3511,3852
116,75,84,143,-720,2196
52,24,-113,517,-1037,3377
122,53,63,-105,-482,2700
-126,24,73,107,-1214,2223
-96,-45,17,1524,22,1866
-98,-75,-11,1965,403,1718
107,-91,-62,956,658,836
-116,-7,-98,2798,557,970
-115,-56,-118,1967,5,1122
-121,124,-128,1021,-491,1123
-122,110,120,-539,-227,745
-117,89,99,-1507,207,-72
120,21,113,167,142,-38
-126,65,-113,710,134,43
-117,108,-95,227,24,250
-101,118,-92,212,9,378
-101,82,-104,1089,78,303
-108,85,-121,925,217,-96
-105,91,-114,574,623,-334
-96,81,-128,589,130,115
-90,31,-125,1469,-385,232
-109,26,-120,1610,-422,280
-95,67,-109,-279,239,-477
-83,-126,-122,-2533,564,-779
-88,50,115,112,63,112
-89,26,-128,1971,-327,279
-78,103,122,327,-87,-276
-82,96,113,-463,163,-346
-91,65,102,359,-102,338
-84,80,101,604,-106,242
-68,108,105,109,57,27
-83,114,102,-93,-16,-70
109,-89,-29,3340,-2581,-3168
12,-91,40,5836,-3890,-5109
-14,64,1,13321,-5849,-5036
-106,-113,2,14346,-10003,-1889
-58,-96,110,6734,-5079,-4914
-2,-22,80,9095,-777,-8624
-105,76,12,3197,-616,-2576
107,-57,37,-9728,-2349,6421
-24,125,6,1067,554,-358
-101,44,33,-3166,962,1877
-73,-101,-119,-7258,3355,2330
89,-78,5,-8883,3320,2150
50,-46,-85,-7205,3188,2343
91,-4,73,-6684,3357,936
-66,117,82,-5383,2383,2536
-10,95,124,-2584,1943,1879
50,-99,-119,-1328,688,2258
44,-89,-44,-478,-432,3053
51,120,-3,451,507,3100
63,-25,-29,3306,1924,2987
-36,36,-43,2398,710,3044
116,63,-75,181,-31,1558
71,-9,-63,-600,-431,-73
94,-96,-40,1085,1,-664
102,-127,-32,1890,299,-709
98,126,-3,1510,-163,-859
98,112,31,989,-675,-606
100,107,59,598,-497,-326
101,103,57,116,49,-394
101,98,33,-237,417,-303
97,93,-3,-245,360,-90
107,96,-41,-149,245,78
113,115,-51,-240,74,290
109,-109,-66,-465,13,348
105,-75,-84,-548,-32,107
102,-70,-85,-192,-158,-75
109,-69,-83,259,-158,-156
109,-66,-78,427,-93,-275
113,-59,-82,189,76,-281
114,-64,-101,120,205,-337
116,-75,-119,274,214,-286
119,-80,123,363,162,-158
124,-73,109,262,111,40
127,-61,101,74,87,88
126,-45,97,39,20,254
-127,-25,94,0,45,164
127,-11,90,14,20,37
-121,-2,92,166,9,-12
-122,3,86,222,47,-119
-120,1,81,225,40,-220
-86,36,-87,-627,-2627,-5167
79,-73,-12,4159,-3798,-4814
-99,90,-33,6057,-4352,-7453
21,62,41,10563,-8386,-6346
75,-48,58,10978,-7970,-4479
32,94,29,6946,2619,-9971
-50,-125,60,5808,525,-7231
1,86,-41,-10353,586,5852
-12,54,51,-3937,-1186,3126
55,-108,26,-4895,726,1584
41,71,-9,-8185,1665,1983
3,-47,-28,-8756,1085,1810
9,-127,-86,-6071,58,1152
-69,-36,121,266,-9,1915
-106,2,30,-3382,2434,3104
-60,-98,11,-1918,1040,2922
112,125,46,-658,826,3415
-69,-41,32,-1908,371,2610
-94,125,102,230,200,2117
119,50,69,1708,1217,1369
21,-108,-67,600,2343,249
-1,-90,-126,-389,1707,1703
-63,47,109,1195,484,1328
-81,34,117,693,-436,1543
113,2,-123,22,-786,722
-128,-51,-127,54,-474,94
-79,120,-113,1421,-461,57
-60,91,-89,1102,-712,249
124,126,-63,-717,-515,645
106,125,-94,-1366,-293,927
-116,84,120,299,192,-77
-93,55,111,1237,288,-37
-111,51,103,1308,176,-15
-97,13,116,1407,213,3
-65,11,121,618,384,277
-84,70,114,-990,76,-233
-63,45,98,-552,290,116
-116,54,97,-79,191,267
-57,100,-124,-565,772,128
-24,61,-127,-1223,430,-546
-99,-95,97,-2558,-627,197
-109,-94,-127,-715,-334,-224
-62,95,94,1960,535,589
-58,86,39,2853,121,438
-44,121,50,1025,-280,208
-68,-101,71,-965,-208,-413
-87,-87,113,-1118,-174,-406
-99,112,-128,517,-312,-323
109,-105,-115,756,-440,-117
-39,-109,112,736,650,-449
-26,-119,80,4000,-2372,-4044
-122,111,123,5310,-2514,-5539
31,28,-118,9546,-7039,-3933
-81,-75,-66,11105,-6317,-3297
68,100,60,4569,398,-6269
-22,24,-65,11425,-45,-9121
73,79,-104,-1101,1579,-599
-60,-61,-96,-9089,308,4042
-72,-10,17,-2681,-331,1469
119,57,43,-3646,1607,1120
43,-11,51,-8819,2947,1194
-66,-111,29,-8418,3817,1471
21,72,-127,-7920,3056,1617
35,-79,-58,-4235,776,3840
7,-21,-127,-1083,2042,3389
-15,3,-112,-1427,207,3196
67,-85,-67,563,1152,3120
105,-69,109,695,1709,2900
19,-103,-123,1244,540,2380
-104,-72,125,623,-261,1828
104,-104,113,543,-413,742
93,21,-97,2122,-743,1
106,-76,-79,3156,-196,-469
102,-89,-66,2586,2,-811
115,-113,-27,1615,-173,-697
116,-122,12,319,-329,-354
115,-120,-2,-752,-65,-219
110,124,-23,-765,19,-198
106,124,-42,-361,-3,58
106,-111,-53,-113,94,230
109,-79,-73,-317,171,217
108,-44,-103,-511,96,135
109,-41,-116,-188,-36,-94
114,-45,-114,381,-162,-133
105,-43,-106,779,-232,-183
108,-42,-103,658,-71,-345
107,-51,-109,451,94,-398
120,-68,-127,285,190,-347
125,-68,116,210,176,-88
122,-59,101,15,87,65
126,-40,91,-135,-28,99
126,-30,100,71,-18,214
121,-9,94,180,30,48
127,-7,98,335,-16,-14
-125,-7,102,475,95,31
-121,3,84,232,211,-131
-115,-6,74,254,150,-10
-118,-6,59,358,91,-37
-116,-3,52,355,-1,-96
-115,-8,59,421,-31,-40
-70,-40,96,-7014,1007,-3746
86,53,-94,-1660,-1470,-1901
-119,55,-9,3584,-3259,-2839
-63,2,-105,5679,-4154,-4989
-55,-31,67,8481,-6826,-7616
-116,116,62,8428,-8324,-5974
32,-66,86,4309,-980,-6382
89,-91,-53,11817,-510,-11942
-20,50,-72,3569,19,648
-66,119,-95,-9407,856,5498
-94,52,100,-1473,-785,3464
76,-89,94,-9683,3334,2209
82,-17,-73,-9583,2547,2093
127,-126,13,-8921,2124,2578
-83,114,81,-7574,2622,1848
84,-6,-89,-3700,194,3995
-15,8,104,-370,482,2955
123,101,98,-1329,523,2885
-114,52,-100,-189,-349,2137
123,22,-98,257,-673,1978
96,-54,-102,61,-370,1712
96,-115,-118,-396,-98,1880
-123,80,117,716,187,2186
-110,44,68,1207,279,1678
123,-1,31,1018,-249,1248
113,-62,38,1063,-570,98
110,-125,39,1606,-243,-640
119,78,69,1719,-17,-670
118,76,74,811,-58,-497
124,61,84,381,28,-248
-127,50,79,86,178,-156
124,51,73,71,118,-43
126,48,61,260,151,-24
-126,60,51,94,158,-34
-123,62,46,186,203,93
-115,58,52,405,81,162
-109,75,52,307,-25,191
-111,78,56,348,-4,169
-109,83,58,328,74,1
-106,80,55,354,123,-96
-77,69,44,392,209,-99
-115,77,33,32,-176,227
121,96,29,-224,-27,224
-103,103,28,-75,153,-166
-106,92,15,280,-15,-325
-116,88,28,423,-315,-231
-95,92,48,266,-121,-350
-90,91,59,23,93,-246
-102,89,48,99,167,99
-95,96,27,189,185,-14
-24,-115,-23,6231,-4417,-2251
120,-67,107,-49,-4545,-6087
86,27,-75,6948,-7824,-6904
-87,94,-4,10360,-8562,-5155
43,123,114,4275,-1608,-6641
39,-13,22,9648,-1901,-8836
83,45,113,6723,-1822,-4166
-103,-39,-22,-12804,2984,4666
60,-92,57,-3952,54,2256
89,92,-50,-2734,2216,-210
13,62,28,-7998,3133,1195
-91,-89,-4,-11082,3855,2303
16,93,-97,-9969,3145,2024
51,43,101,-6643,372,3343
-92,-110,34,-4015,1504,2606
23,-116,-84,-1467,-414,2129
36,99,33,-44,-769,2641
110,119,-67,-342,253,3783
-12,80,-99,768,-1015,3991
-16,47,115,1331,-193,2536
-82,-41,92,2620,-758,1178
122,70,81,3752,-1676,-313
-120,46,-123,2424,-859,-906
-124,-6,-64,1707,-378,-596
-112,-61,-58,1317,15,-288
124,-83,-69,1205,-101,-142
114,-68,-80,126,36,-651
-123,-85,-93,-487,272,-839
-112,-106,-108,-120,307,-466
-115,-100,-124,82,-43,-109
-120,-79,126,96,-247,169
-119,-59,123,-96,-129,68
-120,-43,127,-103,-68,154
-124,-32,123,75,0,222
-122,-17,116,108,101,96
-112,-6,98,159,262,-89
-111,-4,86,169,152,7
-100,20,60,-232,259,13
-116,36,41,-485,63,-224
-112,18,50,295,-145,-279
-104,8,71,798,-67,-208
-101,22,71,270,1,-155
-101,30,66,-111,74,-52
-97,24,58,151,148,-67
-99,30,48,187,50,36
-95,44,42,132,38,10
-91,48,39,195,68,-15
-92,57,39,202,-17,-28
-89,61,40,223,48,-79
-89,61,40,247,52,-114
9,-16,79,4854,-4380,-2534
-123,-71,60,6170,-4832,-3695
124,53,-18,11474,-8740,-5277
89,22,-113,8425,-10248,-2872
98,19,-76,2316,-858,-3964
78,38,68,10427,731,-8665
-6,-79,89,-4626,2849,1339
16,7,-21,-6725,678,3148
-124,-126,-89,-2578,-240,2169
113,12,14,-7496,2269,608
-68,87,-74,-7858,1952,1630
96,-77,102,-8770,2500,1304
108,34,82,-6967,1381,1710
-108,-89,-19,-9231,-54,3146
90,63,29,-947,-230,3535
0,-125,-88,1997,-296,3417
65,-22,77,370,884,1600
28,-100,52,-695,447,1783
-23,113,97,120,-647,2484
-56,24,74,2340,-568,1669
-112,-15,107,2798,-1055,1699
-127,-55,123,1831,-502,1359
122,-120,108,1060,294,167
-119,71,100,1006,721,-641
-93,5,71,587,704,-1203
-87,-37,75,1267,543,-958
-106,-40,89,1171,-21,-175
-110,-11,83,210,-88,-76
-82,-13,76,-409,154,-685
-90,-36,66,-394,-73,-794
-107,-37,71,-227,-250,-367
-86,-23,76,-390,-128,-116
-70,20,85,-836,-103,426
-90,65,92,-1001,-233,786
-94,105,96,-781,-151,857
-85,-128,80,-102,229,406
-86,104,71,863,224,-204
-85,89,52,1244,292,-274
-77,64,26,1371,442,-225
-73,57,26,1032,340,-249
-75,54,47,319,-160,-67
-74,60,60,-187,-267,129
-69,54,73,118,4,108
-71,59,69,363,132,24
-72,62,61,509,5,18
-68,60,55,556,22,46
-59,72,47,210,73,49
-63,78,40,2,-8,-19
-75,78,39,162,-42,-134
-65,72,46,343,-4,-327
-57,-117,-2,2529,-4438,-1189
108,20,-92,3544,-2654,-4827
-12,-107,100,8823,-7786,-6378
6,-28,63,10536,-10423,-6168
19,45,-88,2294,-5410,-4728
12,-9,-15,2303,6235,-11057
46,-115,109,17364,2853,-10691
-95,-67,117,-10445,2677,4211
-1,111,22,-1502,-4501,3144
118,-57,73,-2818,-1252,1776
-102,76,-31,-3255,-630,1844
43,87,-23,-7993,797,1136
3,24,79,-7846,841,829
-60,-83,-90,-8758,1212,2142
67,98,102,-7151,-527,4295
-58,89,24,-4168,-340,4490
-37,-33,-44,-115,-1077,4120
114,85,-27,-146,360,3721
4,19,-105,-1301,-1157,1984
-62,-110,-65,71,-1273,2308
-56,79,-88,1151,-196,2415
-49,27,94,1465,679,1563
-58,44,33,-159,873,512
-82,-43,-10,153,613,-763
-97,-117,11,1938,-143,-801
-92,110,17,2133,-364,-575
-97,89,36,1356,-420,-727
-100,61,66,923,-381,-670
-91,55,93,97,-130,-409
-82,73,81,-807,324,-266
-82,59,66,-368,278,-119
-85,63,58,166,85,203
-80,98,44,-98,239,253
-79,120,30,-267,158,89
-80,115,30,333,-32,53
-71,120,36,373,-49,13
-76,-119,42,113,-60,-16
-74,-125,40,178,55,-130
-69,-128,35,168,87,-118
-69,-126,26,52,-61,-53
-71,-120,29,-69,-33,-8
-66,-110,33,-149,149,-77
-70,-113,32,41,-16,-172
-68,-113,27,174,-36,-135
-72,-107,20,85,-6,-204
-64,-116,22,176,-85,-92
-65,-107,30,94,-134,78
-72,-90,40,-111,-9,120
-68,-79,42,-56,139,92
-61,-80,36,185,29,91
97,-75,75,-5483,421,-3386
-66,-27,43,1519,-1109,-3647
-61,29,-69,3600,-819,-4256
-109,-69,42,10979,-2755,-3307
125,-22,59,15828,-7486,-2794
-54,64,-126,6931,-1483,-6641
37,63,-125,9303,2529,-10281
-3,-110,-19,11022,-882,-327
23,126,51,-13701,1114,796
-10,-25,-23,-4071,-2180,1552
-21,89,73,-5601,-244,1291
13,-59,49,-6039,969,1616
54,-119,-103,-9235,1106,2476
8,-30,50,-10891,997,2972
-53,108,79,-6436,1620,1440
111,37,3,2356,155,3955
-21,-90,-19,859,1354,3318
-4,-69,43,-3664,-1719,1899
7,123,-83,-4525,-2017,-838
-28,81,-87,-537,-1612,1534
-10,-82,-114,4705,255,2320
-30,117,83,5838,30,1447
-67,43,76,4646,-564,1119
-54,17,-102,1734,-157,-79
-50,37,-66,-1363,365,-585
-84,7,-76,-1349,36,45
-88,-51,-92,612,0,201
-84,-50,-82,1725,80,-187
-81,-24,-84,1017,122,-370
-76,-39,-90,580,141,-463
-78,-61,-91,726,-27,-273
-76,-46,-94,247,-7,-150
-68,-43,-105,39,110,-89
-52,-46,-115,282,385,-175
-54,-37,-115,397,261,-237
-50,-8,-115,11,14,-249
-52,0,-113,-364,-110,-369
-36,8,-93,-163,-153,23
-52,8,-100,433,26,-139
-57,15,-109,397,6,-151
-59,16,-125,225,-123,19
-64,7,112,150,-104,-31
-53,0,103,116,133,244
-64,29,85,-76,141,524
-66,49,89,-36,14,414
-67,41,102,510,-36,52
-61,41,110,852,35,142
-60,45,106,710,93,72
-64,49,92,444,75,-58
-53,32,82,367,85,-309
-45,121,-91,6765,-4398,-2950
-73,-60,19,12678,-7233,-5261
-109,-35,-105,12090,-10738,-2085
81,122,15,-274,-502,-5347
54,-126,-34,7252,2718,-11104
21,-44,-39,6845,-1326,-699
91,-61,-49,-12023,1187,3167
17,94,100,-368,-1702,3450
-43,95,79,-4102,298,1256
21,36,-90,-7044,1486,745
-111,106,-86,-8399,2292,861
-11,-19,67,-9368,1897,1046
-40,7,118,-5906,333,2195
-8,-31,-33,-4171,50,3250
104,103,-54,-3211,955,1856
122,81,74,-477,-896,2077
-67,-107,91,-801,-757,1804
-70,-89,113,-1589,-545,1229
-70,110,106,-1197,-251,1602
-59,19,109,-374,-557,2040
-59,8,117,-27,-729,2476
-58,-18,108,669,-331,2329
-87,-98,109,2148,-327,1312
-100,106,87,3287,72,64
-114,74,69,3170,340,-330
-110,28,67,2232,377,-652
-103,-25,88,1779,100,-612
-97,-39,94,805,174,-413
-86,-37,89,-462,164,-334
-87,-40,84,-750,-106,-172
-92,-30,87,-572,-236,-25
-110,-4,100,-297,-365,108
-109,1,105,235,-215,141
-104,12,103,391,29,42
-96,29,90,237,209,-29
-96,33,72,110,161,-61
-92,35,59,136,105,-106
-89,34,51,297,72,-110
-92,36,54,358,-42,-123
-87,36,60,346,20,-208
-91,32,76,410,-4,-59
-84,42,71,110,211,-23
-86,56,47,-140,227,-52
-82,54,34,130,105,104
-79,65,25,143,49,65
-75,82,22,36,-8,-2
-75,76,31,470,-32,-181
-78,83,42,539,-142,-283
-68,86,43,174,-155,-466
-68,97,45,168,150,-304
-8,-64,36,806,-4408,-3420
13,-78,10,3925,-2856,-4138
-61,110,7,9646,-4275,-6580
-13,22,58,12039,-8662,-5053
55,-38,67,6812,-5163,-4741
78,-98,33,3694,1262,-6646
-9,-49,62,10515,-629,-6872
-40,32,-23,-10186,2212,5017
57,39,-96,-3307,-1947,3475
121,-7,-111,-2074,314,1468
-83,35,-71,-5771,722,1932
111,-14,-10,-6830,1673,2420
-46,-34,30,-9740,2249,2366
-37,15,81,-8628,2061,1339
-8,-11,-103,-5070,-914,2863
96,78,-124,-2141,-847,3203
-48,-52,115,-2685,1084,2315
-39,-79,-100,-759,-486,2701
-27,-85,-67,-379,-1117,2680
-46,-56,-59,-1135,-968,2102
-60,90,-97,479,-477,2861
-76,73,102,523,-856,3414
-100,6,43,431,-539,1507
-123,-82,18,1086,160,-664
-121,-122,23,1905,541,-1049
-118,91,36,2117,106,-714
-110,56,52,1627,-170,-436
-104,60,57,352,-4,-362
-104,60,54,-498,85,-463
-107,39,47,-376,49,-399
-101,37,45,39,-98,-235
-107,49,42,84,-147,-89
-105,65,45,69,34,-94
-100,72,44,118,135,-125
-95,75,45,199,51,-49
-92,75,42,350,77,-31
-94,76,37,401,83,33
-88,77,41,445,93,174
-81,85,40,372,180,176
-80,90,29,249,157,103
-82,86,30,431,28,106
-78,80,40,719,59,-27
-72,78,38,622,96,-128
-76,77,38,398,38,-124
-70,68,42,426,205,-99
-72,65,29,382,132,-196
-74,50,33,574,45,-182
-63,45,41,607,64,-104
-56,56,48,191,-45,127
-65,65,56,180,84,69
122,-108,-96,3335,-2685,-5277
49,1,-39,9076,-5528,-7168
59,126,-89,11500,-9569,-7006
83,51,-107,6126,-6798,-3989
102,-17,75,1171,2426,-7799
-44,-22,-73,12629,4346,-15216
7,92,-12,-11065,869,6450
-61,97,-60,-1741,-4175,1486
44,-38,-115,-3311,-1195,3711
96,119,-30,-5879,-1054,2408
41,-108,-56,-7307,338,2183
-44,7,-15,-9046,2146,2068
-4,104,81,-6960,1078,2814
-12,3,-74,-2924,22,3637
-119,-86,15,-3542,-83,4154
-42,-65,33,-2057,638,1701
-39,-118,115,340,-1194,2503
18,-118,-81,721,1168,1252
-54,117,-101,-507,-297,2258
-59,85,-125,-1305,-4,2411
-70,-14,83,172,219,2642
-74,-95,66,2119,228,2352
-81,36,41,3733,226,385
-124,-99,57,5108,-801,-848
-119,-95,119,4034,-922,71
-119,-81,-73,1710,-427,83
-105,-48,-38,-1368,506,-446
-112,-74,-84,-2281,403,-166
-114,-102,-113,-1114,96,-17
-121,-118,-116,891,-111,-10
-124,106,-89,3132,-359,57
-112,-86,-73,1683,-8,-132
-102,-36,-83,-765,581,-391
-99,-66,-125,-1356,633,-325
-100,-94,101,-335,229,-123
-105,-101,102,849,-177,11
-105,-57,121,365,-303,55
-102,-38,127,-137,31,-44
-95,-39,117,-61,217,-91
-97,-35,104,116,90,-25
-95,-24,90,215,89,-63
-89,-10,83,120,251,-171
-89,-14,84,102,148,-208
-89,-18,81,334,-207,-81
-82,-4,80,81,-22,-146
-85,1,81,15,4,-112
-86,0,79,308,22,-37
-86,8,70,283,70,-149
-80,12,65,164,78,-66
-80,19,59,129,63,9
-104,77,116,-5106,-1185,-1948
-125,-65,18,-3639,-1132,-3243
112,-83,38,537,-3093,-4275
121,-83,-80,4283,-2043,-5956
-46,-36,71,7726,-3148,-6971
70,120,116,9719,-3944,-6348
-78,-123,61,8874,-2317,-4422
-106,85,21,7613,1992,-12088
-33,8,78,8109,178,-4791
-118,110,17,-14031,1014,4961
121,37,-40,2884,-2861,2495
-97,-82,104,-7187,1280,3196
103,109,-94,-8521,2443,3069
-72,-50,112,-8664,1748,3434
60,87,89,-10244,2230,2295
58,97,119,-7426,-159,3032
-23,124,12,-3581,-470,4203
-128,-29,-102,-567,-760,2390
-64,-21,-100,342,-400,2718
-54,-81,-3,1550,-63,2431
-20,-74,-85,508,668,2512
-56,106,-93,439,-352,2368
-58,43,-109,614,162,2444
-79,-28,89,1944,641,1889
-108,-94,48,2158,80,832
121,116,36,1490,-122,-423
125,57,55,1553,-203,-751
-125,-11,92,2191,-463,-439
-122,-43,-115,1910,-465,-209
-126,-25,-90,689,-116,-193
-123,-7,-90,-417,127,-85
-120,-14,-118,-791,253,-152
-113,-5,112,-922,260,-91
-120,-6,86,-463,152,-158
-111,-15,84,591,34,-48
-109,11,82,511,44,-80
-108,23,86,256,-1,-21
-106,34,87,-88,15,116
-107,41,82,-155,70,118
-106,30,72,345,7,99
-104,32,73,580,13,-57
-102,40,74,485,25,-91
-106,35,72,417,31,-105
-111,39,62,197,114,-112
-102,40,45,113,197,-189
-95,33,37,242,-83,16
-96,41,44,214,-116,118
-92,55,51,137,-6,-9
-94,62,57,239,-85,-61
-93,57,61,428,-5,-106
65,29,90,8641,-6210,-6239
-58,83,12,6775,-7104,-8250
-117,-94,-83,9995,-11171,-7047
-66,119,3,6661,-3624,-4316
1,104,1,11884,3853,-15695
-124,71,-86,-1190,1190,2478
-15,39,-7,-11513,-289,4121
10,-87,-122,722,-2010,2571
-52,14,-108,-4474,878,2210
93,16,-87,-8501,2805,1968
-92,12,-83,-7899,3218,2528
113,22,-78,-9209,3025,2814
-34,-64,55,-6014,2009,3685
100,103,80,-1262,56,4231
102,-59,81,285,1868,2011
-2,-57,123,-196,-699,2708
-5,48,-95,432,388,2152
20,3,120,157,1206,2323
-28,-23,82,22,503,2139
-53,-36,54,-66,216,1698
-90,-125,19,1232,-2,1033
127,24,28,3568,-702,-358
122,-55,67,4231,-851,-875
-106,-75,-110,3002,-271,-638
-104,-77,-70,1217,0,-412
-107,-69,-44,-288,-233,-220
-108,-79,-55,-911,-81,-303
-106,-99,-71,-259,151,-279
-106,-109,-80,527,109,-111
-113,-75,-107,223,81,-21
-106,-60,-121,-198,127,-72
-102,-62,124,-33,103,-56
-107,-59,113,264,-29,-22
-104,-48,118,248,-10,-6
-99,-35,114,163,75,-26
-98,-37,110,269,39,-17
-99,-25,114,194,20,91
-76,-12,115,113,145,13
-79,5,106,-121,76,119
112,30,70,-541,104,-276
-110,-6,43,-51,440,-629
-82,-48,32,997,61,-216
-92,-35,44,896,-388,373
-102,22,66,-171,-346,242
-89,20,72,-261,81,-89
-95,3,67,286,73,39
-95,22,58,402,-91,157
-84,29,57,309,-6,-130
-88,30,60,229,53,-5
-92,40,49,63,137,-111
48,-20,85,-11755,489,-761
7,21,0,-8351,268,-161
63,90,-90,1223,1789,-3026
65,-52,-60,5843,-1923,-4077
-80,111,106,12028,-2089,-7961
102,-78,-115,10461,-5783,-8160
-33,-33,-14,10084,-9335,-6289
-67,75,98,6136,-2862,-7560
-85,92,120,5665,3186,-8196
-128,42,-44,5149,2463,-3454
71,103,78,-12614,169,2449
-112,-108,-71,-2237,-2808,3580
16,-69,-97,-7472,56,1989
-44,39,-126,-8162,1581,1205
60,-119,18,-7015,1687,1442
48,-57,-55,-6006,807,2215
4,20,16,-2778,432,3374
93,121,110,219,980,4876
7,-90,17,-1300,2654,2865
55,96,108,-701,46,3820
107,24,105,-38,387,3669
72,-5,70,606,397,3602
-43,-52,60,1181,-787,3018
-113,-123,90,1811,-1579,1119
124,91,83,2148,-418,23
109,61,50,2040,843,-1192
126,-16,60,1802,385,-1737
-119,-89,92,1527,-562,-999
-127,-94,118,991,-799,-243
127,-93,-109,325,-308,-612
-127,-97,-101,-316,-13,-721
-126,-99,-109,-500,-51,-289
-124,-91,-119,-337,-45,79
-124,-67,120,-177,72,167
-122,-43,109,-155,170,240
-122,-16,95,-255,155,251
-117,8,75,-194,169,131
-118,17,71,42,54,9
-115,23,71,308,7,-97
-113,24,71,465,52,-292
-109,19,71,410,91,-355
-105,13,70,302,180,-320
-100,6,69,259,338,-228
-101,11,49,83,202,-116
-96,11,34,150,152,-26
-90,22,30,136,43,50
-92,33,36,110,-72,166
-89,49,47,70,-1,188
-88,75,48,-50,94,48
-89,79,41,51,94,-164
105,68,-83,1365,-4505,-2719
57,78,76,5356,-3932,-5595
22,10,-123,7013,-6579,-7896
84,-40,23,9934,-8343,-4834
125,-1,-117,1051,4491,-10588
116,48,10,10537,4667,-10290
25,50,-46,1603,3353,-1717
-44,103,-35,-12096,-2432,3509
-25,-22,20,-3488,-1784,4137
61,-58,-125,-9440,-358,3184
-102,59,38,-7546,1480,860
-125,123,-34,-4884,524,1295
20,93,-43,-5565,154,2002
-56,90,-64,-4829,1802,1333
-17,-123,3,-2270,239,3048
-82,-63,43,-1337,617,2689
-56,-128,-100,1759,75,2382
-7,-81,80,-3,440,2785
-70,-119,92,-1125,-704,2502
-84,97,73,-1224,-491,2129
-65,6,52,683,101,2352
-73,-27,26,1638,183,1932
-98,-63,-2,1414,-143,573
-127,86,6,2091,-446,-881
-112,23,31,2821,-335,-860
-102,6,73,2044,-544,-760
-87,-5,-114,632,-590,-540
-92,7,-111,-736,0,-316
-123,5,115,-975,427,-285
-89,5,55,-1031,861,-552
-77,42,16,-1443,625,-462
-86,18,20,167,-111,102
-95,25,54,1390,-469,517
-94,74,54,561,6,281
-93,73,44,276,146,-183
-85,44,53,536,-46,-110
-84,35,67,810,-96,166
-87,43,68,626,225,-6
-74,54,54,215,319,-24
-78,54,53,90,26,138
-79,44,52,551,102,141
-85,46,41,614,93,10
-83,42,38,558,-8,-6
-76,36,40,440,-1,-93
-74,35,43,229,27,-7
-75,47,41,-26,-25,-51
-78,46,48,71,-22,-87
-76,49,51,208,17,-147
-77,57,51,134,52,-82
-71,60,42,124,145,-195
-8,45,53,976,-3848,-3266
59,-93,73,5687,-4417,-5124
68,125,12,10077,-7551,-7095
-120,-51,-93,8936,-7103,-5162
-29,-105,61,3601,-4987,297
36,-40,-126,3785,2294,-8512
-111,-63,0,10876,1368,-6391
118,39,108,-8624,3375,1288
-117,59,8,-6241,-3478,2187
109,-19,-79,-3874,-1543,2265
-105,-39,-15,-6573,755,1406
100,79,-10,-6824,1804,1511
85,-121,-79,-8281,2637,1936
-55,90,-94,-4381,1361,4195
92,-60,21,-3273,1519,4796
75,-99,-35,-2039,2439,2747
18,83,75,362,-680,3307
53,21,118,1350,359,3009
32,-4,70,1428,1117,2849
-36,-66,31,1263,344,1779
-104,121,17,1283,-241,215
-101,66,19,1450,325,-655
-96,14,25,1691,424,-767
-97,-20,46,1268,-153,-747
-95,-33,75,738,-680,-621
-95,-47,120,416,-858,-527
-101,-71,-101,475,-590,-402
-107,-41,-99,-396,-154,-162
-108,-27,125,-891,276,-345
-108,-38,87,-477,257,-341
-107,-42,79,249,77,51
-101,-25,71,376,93,190
-103,13,53,-54,163,175
-104,24,45,-242,64,152
-97,32,47,-5,4,96
-96,34,49,353,-26,-15
-92,39,58,437,-92,-19
-91,46,62,285,-1,-157
-88,33,66,367,103,-162
-93,32,61,335,194,-20
-84,34,45,182,321,-89
-88,34,22,135,215,12
-83,38,13,180,137,64
-80,47,10,122,86,61
-82,59,17,114,-50,-15
-80,64,27,169,-18,-57
-75,74,29,139,71,-177
-73,69,25,139,10,-201
-79,70,24,157,-7,-134
-72,74,16,100,100,-296
-86,-124,90,2942,-4881,-2316
-69,-96,-31,5191,-4585,-3899
-44,-119,-22,7896,-8095,-6486
-55,0,-77,8830,-9680,-5885
-93,71,-71,4561,-4771,-3877
-62,86,-22,2266,3044,-10469
-85,-27,-90,13966,4398,-11297
-1,-127,32,-7586,1345,7701
94,63,117,-2558,-6792,2783
-126,67,12,-4995,-287,4134
56,45,98,-5650,1020,2234
-55,116,13,-6878,1848,1818
-10,39,55,-9585,3053,2050
-66,0,-108,-6693,2278,2785
58,-121,-111,-7699,863,5425
-82,48,-30,-3561,1060,2987
15,120,20,-1709,48,2826
63,77,-104,822,-497,2834
45,62,95,721,276,1864
-17,61,104,-364,-43,1348
-69,-67,105,1364,-71,1136
-76,115,90,2817,-26,1008
-84,64,78,3126,-36,845
-96,33,80,2030,32,191
-107,29,91,240,136,-464
-108,-12,87,35,139,-545
-100,-62,95,550,-133,-475
-98,-60,114,543,-427,-282
-109,-49,-128,398,-355,-304
-102,-80,-109,1173,-178,-263
-103,-61,-112,635,-40,-363
-102,-42,-124,-406,60,-403
-100,-59,113,-378,154,-196
-102,-64,104,165,93,35
-99,-29,89,-64,160,44
-101,-20,77,-53,181,30
-95,-21,70,297,102,124
-91,0,67,216,62,134
-92,12,66,92,115,121
-91,16,65,183,113,104
-88,26,59,252,104,22
-79,30,61,226,89,-27
-71,35,65,193,245,-66
-78,50,46,32,291,-166
-76,42,27,222,-64,-351
-81,27,40,566,-176,-312
-72,28,57,405,-1,-342
-78,29,57,213,24,-253
-77,22,56,304,30,-174
-83,26,51,257,76,-111
72,59,29,-885,-797,-8805
3,121,65,5325,-4288,-5738
-42,-39,28,10777,-3675,-5254
85,-7,116,12297,-6829,-4345
-50,88,2,5510,-5748,-1798
2,68,34,1958,-3310,-2655
-78,83,99,4056,3832,-10727
24,52,-50,6592,3060,-7285
102,-99,-48,-9948,714,3487
19,20,-104,1414,-3070,4112
-18,82,71,-7654,194,3721
-74,-15,-100,-8086,300,3356
-122,103,-127,-8652,1114,3138
49,2,6,-7110,884,1406
75,-53,11,-7898,46,2968
-68,117,-2,-3443,84,3293
69,0,110,-1138,200,4613
-49,28,121,-531,-70,4688
-62,-49,-41,1026,-1266,3099
-60,-82,-121,-104,-196,1211
-99,54,84,526,-92,1530
-126,-4,50,279,-208,1347
-117,-8,67,-600,156,946
-100,-25,60,-480,774,397
-102,-74,54,533,452,251
-102,-95,50,1234,189,393
-95,-107,45,1129,240,61
-95,123,42,979,1,-220
-105,101,44,584,-93,-383
-104,94,41,213,-8,-439
-99,81,43,-1,8,-421
-104,87,53,-196,-63,-182
-107,93,57,-152,-98,-75
-100,108,61,-54,-54,-29
-93,120,64,-48,2,-100
-85,126,64,167,348,-417
-84,123,61,391,133,-188
-81,122,51,362,80,-87
-75,127,44,137,139,-149
-75,123,38,145,89,-94
-70,121,36,259,51,-74
-62,110,38,616,-24,-57
-92,87,37,1121,-325,379
-112,-72,91,-628,-474,420
-25,-90,68,-612,991,-249
-59,-92,10,-922,580,-727
-63,-91,7,-725,15,108
-61,-41,2,-894,141,432
-32,12,30,-1490,223,323
-6,32,57,-1174,288,215
-4,31,67,8897,-3215,-1516
33,-25,15,14634,-6499,-214
118,-9,-29,7258,-8467,-3477
-25,115,9,1595,-2543,-8491
-125,-40,-44,9969,-1983,-9343
-126,-25,-2,8035,-413,-2094
-84,54,70,-18665,6315,1799
-15,68,53,-3341,-2674,1910
9,60,36,-1088,-1166,2283
95,5,-81,-8002,1075,1464
-81,-97,26,-8064,1838,1739
34,24,3,-7330,3383,1865
72,-55,-53,-6736,1624,3131
84,116,65,-4301,-112,4260
-41,79,-95,-1738,707,2797
-55,-128,27,1758,-209,2536
42,47,-56,1518,1613,2397
-12,-10,-37,3083,2383,3944
88,-75,-40,-149,1916,2801
-127,125,111,-704,252,213
85,-1,-110,-530,-1597,-693
-94,-56,-116,-364,-1053,-1021
-119,-112,113,557,34,-805
107,-94,96,529,467,-330
-107,-81,99,282,-54,-42
122,-41,-125,-206,-954,-106
-111,-32,-114,-555,-662,-522
-121,-35,-121,-576,-336,-799
-121,-36,109,-273,218,-724
-122,-38,86,118,347,-444
-107,-34,57,583,357,58
-91,-12,46,285,166,72
-111,25,42,-432,-205,-8
-105,43,45,-905,-155,-200
-105,55,46,-765,-32,-243
-91,66,37,-440,113,-192
-107,87,30,-313,-38,-2
-98,104,22,-212,122,-29
-91,121,14,-110,114,-28
-93,121,9,204,35,-52
-90,-126,11,197,38,-85
-76,-111,6,-52,262,-227
-80,-123,13,114,139,-200
-85,121,6,519,-69,-108
-80,127,3,417,63,-85
-77,-117,9,-67,119,-204
-67,-119,15,-71,11,-140
-66,-121,19,143,-10,-94
-67,-117,21,234,105,-100
-66,-110,17,155,129,-104
127,48,-9,-4565,1279,-7418
81,38,-32,5498,-3055,-4068
-120,18,35,10252,-1131,-5610
32,126,-26,17294,-5157,-6425
-119,-100,64,8557,-3877,-4331
-49,-31,104,5305,150,-10508
-96,94,-125,13492,705,-6110
109,23,95,-6635,3554,1543
-85,83,11,-11963,-3128,3507
116,-67,-74,45,-2176,3691
-84,-93,-63,-5475,198,2239
25,-67,-52,-7973,1843,2322
-42,-110,-19,-10470,2426,2365
-34,126,-122,-9184,-124,2670
-77,50,23,-11772,-3234,6702
59,-101,12,-468,-2782,3725
95,11,6,5061,-1794,1072
-101,-93,-64,1850,251,1070
8,76,96,140,1191,1223
-38,-79,59,1492,696,1514
-19,107,69,2895,-6,1440
-36,90,81,2564,-172,1472
-81,66,85,1656,-117,635
-105,25,110,785,-377,-174
-107,-8,119,277,-185,-584
-100,-52,125,281,6,-716
-104,-71,114,378,206,-609
-110,-77,105,376,209,-207
-110,-70,91,345,149,236
-103,-53,78,157,136,240
-104,-33,73,-95,28,81
-97,-27,74,-3,-27,-168
-97,-40,84,509,61,-319
-99,-43,81,570,132,-259
-91,-39,72,261,69,-118
-97,-36,68,280,-27,154
-98,-25,64,298,58,86
-93,-14,56,262,82,-26
-94,-12,48,187,36,-112
-92,-4,48,30,-58,-164
-89,-5,52,74,-26,-252
-95,-5,57,148,-28,-183
-95,-6,56,276,86,-86
-88,-2,37,315,172,65
-87,20,30,105,-64,-4
-92,22,32,256,20,-240
-84,12,37,422,114,-159
-86,17,26,228,49,-11
-89,27,23,68,8,6
-83,39,21,51,62,-112
-116,-114,-26,-4345,2383,-4712
106,-45,-85,2979,-1773,-4684
-92,-28,91,2720,-2366,-5434
73,27,-33,10246,-2197,-5502
-14,-127,-11,11800,-5055,-5537
-114,5,-86,9104,-3699,-5265
-119,53,105,7820,1963,-9231
-78,116,46,17150,-468,-8083
58,-47,50,-17414,4652,4321
89,-81,120,-2350,-3408,2915
-20,-66,-27,-2220,-1390,3123
-18,127,-26,-7184,1479,2108
83,25,-28,-8113,2941,3391
-54,-90,52,-8135,4006,2854
45,-116,127,-6781,2103,4206
-95,69,-83,-5968,889,3449
4,-109,53,-2142,24,2826
21,-123,-31,-282,-2033,1849
62,-117,-97,452,467,1285
0,90,77,-281,-93,1311
-66,76,76,-1361,-257,720
-65,-3,41,-150,339,483
-79,-99,30,1455,57,629
-92,118,9,920,95,-106
-102,67,12,1333,44,-267
-105,41,18,1440,60,146
-99,44,32,837,-9,394
-94,54,36,288,-4,311
-85,48,40,396,2,145
-91,53,44,192,-43,-205
-77,45,44,0,137,-406
-92,46,48,-176,-14,-206
-89,43,36,162,152,-213
-87,32,22,625,190,-187
-78,33,6,518,128,-115
-79,43,4,113,-11,-88
-81,55,8,-157,-60,-146
-76,50,32,216,-36,-149
-77,56,40,332,71,-58
-69,63,36,187,154,-116
-67,57,21,377,112,-10
-72,59,13,482,80,-7
-73,64,9,315,73,-30
-70,72,9,80,65,-41
-69,69,11,225,77,-50
-67,74,8,239,52,-103
-63,76,6,179,7,-137
-67,80,8,80,18,-169
-63,79,9,102,53,-148
-63,78,5,178,15,-106
75,-86,-28,-5928,1984,-2741
76,74,21,-1217,3155,-7406
104,-89,-14,6028,-5351,-2774
-94,122,-91,11572,-2098,-6616
-62,-84,-1,16884,-6890,-4827
-98,-40,-126,8900,-10421,-5517
-43,28,53,3182,1067,-11304
16,30,-54,11391,-1870,-6034
27,-14,-29,-9687,4227,2199
-121,9,102,-10157,1471,5828
-104,81,63,-722,-1045,2850
115,80,-74,-5255,2165,2555
44,62,4,-6794,3467,2628
-57,44,-64,-8079,3278,3042
-126,123,88,-5536,1665,2729
-15,73,-41,-4720,278,3846
90,-30,-1,-5020,-380,2608
-52,16,80,-4542,-277,607
26,99,116,660,755,-173
73,-120,1,2080,558,1419
-7,32,-36,-255,1702,1221
-98,112,-126,2085,857,654
-123,29,-120,1783,-215,1416
-45,-42,98,313,-10,1672
-4,81,120,1442,260,346
-12,61,115,1596,434,503
-14,109,-91,998,813,-271
-50,113,-101,763,660,-11
-52,78,-101,1049,156,-708
-15,46,-68,742,-29,-958
-9,63,-55,-421,-153,-668
5,70,-74,-574,-110,-268
4,69,-95,13,-39,27
-15,90,-90,313,-43,45
-22,85,-92,603,177,226
-34,107,-89,415,152,286
-32,117,-91,269,145,171
-17,114,-93,336,109,128
0,-123,-93,258,342,-134
-21,-121,-94,123,20,-250
-22,-127,-97,-172,-118,-398
-12,113,-98,-37,-19,-305
-14,104,-104,245,-68,-136
-2,123,-106,118,136,-301
-11,119,-111,50,11,-66
-20,-125,-110,-34,-54,-45
-16,-112,-110,205,228,-66
-24,-117,-122,319,69,-23
-17,-107,-124,169,181,-209
-13,-117,-124,355,163,-125
-56,123,-40,3838,-4904,-2024
-76,-35,-50,12673,-4138,-4913
-88,-19,125,12216,-9174,-4047
-123,-26,-19,531,-4483,-4992
7,101,-66,7271,1655,-8591
-81,-23,-1,13319,-2856,-6759
-45,-16,124,-3979,1627,1519
-35,97,-40,-12787,1881,3561
-96,-83,84,-2995,-1327,987
42,1,-91,-3290,303,1657
21,-85,59,-6636,1671,1729
-40,-24,-59,-6686,2234,1885
-32,81,-98,-8138,2231,2763
68,-102,-97,-3339,3964,4605
-103,-105,111,-4594,284,3497
10,-94,-121,-3439,-608,2614
49,60,126,-1605,35,3289
56,9,-89,968,-147,3168
-11,-58,-46,1697,-72,2908
-47,99,-95,2592,1420,1728
-104,53,-119,2734,381,620
113,-15,-117,2431,-563,66
96,-61,-79,1377,-754,-247
99,-68,-63,283,-290,-331
95,-88,-65,-92,-160,-256
100,-92,-70,-286,-63,-88
94,-83,-83,-230,-39,-139
107,-75,-94,-164,-49,-245
110,-65,-106,-146,-69,-410
109,-69,-114,65,-1,-447
108,-71,-123,116,34,-304
108,-58,120,-35,128,2
110,-40,108,-158,181,62
127,-19,87,-105,153,15
127,-3,85,-137,-29,-172
-127,2,82,-17,18,-291
-123,-8,78,350,42,-299
-122,-4,72,289,22,-158
-127,8,66,-28,17,-112
-124,15,64,113,31,-34
-116,19,61,283,41,-59
-114,35,62,135,5,-23
-113,43,59,171,55,-84
-114,48,57,164,72,-130
-104,47,48,199,128,-203
-106,44,41,215,28,-177
-102,42,39,310,36,-91
-105,51,35,158,46,-114
-99,50,32,270,61,-87
-96,51,32,309,30,-47
76,-110,17,-2798,1027,-4497
115,19,56,146,-2224,-3910
105,111,-81,-1784,-1899,-5876
-11,-116,33,4902,-2314,-5531
-35,-127,76,11920,-3287,-4408
116,-37,5,15666,-5999,-4759
-121,-31,58,6195,-2749,-9342
-99,-124,-53,10595,-2348,-6545
-17,112,55,459,1101,-945
107,117,-65,-13227,4082,3181
19,19,80,-1061,-614,2149
-80,-80,-74,-4856,979,521
100,-16,78,-6713,1406,1834
32,-111,75,-8378,2555,1687
-22,-112,-34,-6617,2280,2288
52,-85,-45,-7256,839,3743
53,-26,-31,-8094,-1223,2376
127,-43,109,-2662,-664,1324
-86,-92,-67,490,-782,2247
-54,-9,-24,98,-333,1807
-29,-10,-51,-1582,855,707
-59,126,-48,1119,309,2226
-81,81,124,2327,-159,2925
-99,24,49,1474,-1197,3586
-114,-69,63,130,-1604,1470
97,62,44,675,-913,-1232
95,36,78,1930,120,-847
125,43,76,1442,733,-256
-126,23,50,1014,583,-324
-123,10,48,580,83,-464
-118,-2,50,362,-178,-489
-118,-9,62,67,-301,-439
-125,6,77,-472,-298,-268
124,37,92,-960,-165,-25
-100,45,64,-467,439,74
-112,48,41,419,246,-21
-107,55,28,673,64,-175
-97,62,23,409,-10,-307
-100,57,24,118,1,-263
-104,54,27,49,4,-119
-102,57,33,225,55,63
-98,74,34,193,15,67
-102,85,28,175,113,-120
-85,73,23,267,29,-215
-95,77,31,169,-10,147
-95,88,25,156,149,3
-85,95,15,199,122,-107
-90,92,9,250,12,-252
-79,81,14,287,13,-177
-83,81,16,229,-8,74
62,13,-91,4469,-1663,-1876
73,122,-29,8029,-4765,-1818
81,-48,2,16766,-10060,-3248
-92,-74,64,6151,-8942,-4178
-46,35,-13,4667,-4650,-5745
20,122,-66,11254,-3410,-6034
-35,41,-45,9945,-1029,-2250
1,22,30,-16001,5993,2406
115,-88,51,518,-3420,2183
-103,96,121,-3595,-47,2239
-19,-3,42,-9022,2569,2815
45,-34,2,-7963,3116,2825
-72,110,19,-7776,3452,2705
-60,31,-82,-6552,2402,2563
15,-23,-65,-5607,1162,4243
124,29,49,-2519,69,3006
-31,-115,-75,82,283,3366
32,28,99,2595,2934,2214
-4,66,-113,5322,1679,2588
25,49,-106,2188,1880,1646
3,-37,-103,711,1541,827
-64,-83,-66,177,49,592
-93,-75,-58,-803,-428,437
-103,-80,-75,-990,-114,55
-118,-83,-98,-459,12,-260
-115,-79,-106,-3,-20,-130
-126,-55,-106,203,-272,-117
-115,-29,-111,-450,-98,-622
-106,-36,-121,-408,52,-825
-100,-43,125,-152,-81,-780
-100,-38,120,-48,-94,-547
-102,-20,110,-280,-24,-386
-104,-8,98,-192,-17,-267
-98,2,94,-73,71,-177
-89,6,89,247,120,13
-100,18,80,485,-9,144
-92,34,74,225,144,138
-83,47,67,9,192,54
-83,52,63,164,76,-123
-67,53,66,682,320,-594
-57,73,64,355,207,-370
-71,82,74,0,-157,-341
-64,77,82,73,-67,-220
-63,77,77,119,70,-119
-64,71,68,255,-28,-28
-65,76,58,36,-72,61
-63,77,55,-32,-62,-63
-26,77,61,68,53,17
-104,122,47,-499,-233,-111
-107,-119,43,-488,15,-384
25,-80,-32,-3772,1145,-4210
33,-16,56,-2647,-290,-5651
-101,20,-67,1486,-2944,-3583
1,45,24,6321,-1124,-4513
-62,-26,-86,15034,-2647,-4546
-115,-124,-12,16302,-7548,-6072
77,-64,-50,6136,-2293,-9422
-89,14,-45,11437,-1160,-7342
32,2,-52,5069,222,-834
85,86,35,-21775,4628,6469
-120,-92,19,-6928,-2054,3913
124,85,86,-1940,228,1112
50,-102,46,-6711,2630,1452
-42,5,10,-9351,2020,2683
-64,-40,85,-7612,108,3986
60,17,-44,-5565,-619,2539
-95,25,100,-1642,-750,1402
-87,51,2,-347,-474,2165
-62,1,-107,-834,499,861
-98,-81,116,-403,-557,1519
-80,109,102,8,-774,1752
-104,-4,96,1702,-1367,3011
-86,-92,98,2176,-1047,2843
-70,-118,27,1361,488,1034
-88,-122,18,409,903,-239
-93,103,23,744,346,-96
-110,53,44,1485,-423,29
-112,39,46,1368,-207,-301
-110,24,45,877,123,-564
-101,7,41,230,124,-722
-106,2,49,-12,-220,-485
-107,1,62,-5,-257,-274
-106,10,70,-4,-47,-219
-103,24,66,-224,158,-267
-97,24,57,3,174,-119
-96,19,49,662,91,74
-90,29,40,626,181,63
-87,37,27,395,205,48
-87,46,29,24,42,91
-86,57,32,-110,46,114
-84,63,33,112,89,-29
-84,68,32,256,62,-154
-82,73,32,146,60,-199
-74,75,27,-87,132,-259
-80,75,25,15,37,-206
-72,76,29,214,94,-251
-71,77,26,305,76,-246
-69,79,22,210,50,-238
-69,80,19,144,74,-241
-67,80,16,133,49,-161
7,-23,22,4958,-763,-2599
-96,1,-6,19479,-2936,-2898
23,68,-7,21236,-8081,-3063
-73,-89,97,5647,-2409,-5828
69,-66,41,15618,-1689,-6841
8,106,67,-7849,2297,4617
-56,-93,101,-9916,-1538,2462
77,-118,-124,1130,-2400,2741
-111,-19,108,-4984,-87,1954
104,105,-94,-6730,2827,2636
11,-53,-82,-8219,4617,1814
-35,50,101,-7999,3988,2971
-108,72,9,-8805,3204,4443
119,-124,-18,-4763,-640,3314
-56,97,102,-1767,-796,765
-30,-31,-67,1444,-521,2148
-33,-6,120,754,-316,2010
-46,-91,106,1524,-971,1739
-21,102,113,2966,-722,1944
-74,78,70,2106,153,-116
-121,-18,63,2174,664,-1037
-104,-95,96,1841,961,-740
-79,-77,113,292,888,55
-91,-59,112,-882,282,491
-103,-45,99,-1301,-305,386
-95,-26,96,-946,-297,157
-111,-20,91,-96,-184,-167
-105,-18,91,374,75,-602
-100,-16,85,298,160,-569
-99,-18,75,189,54,-468
-92,-24,64,259,14,-348
-93,-18,60,151,-4,-300
-90,-13,58,55,-22,-227
-102,4,60,-160,-53,-69
-93,14,59,-183,96,14
-94,31,58,-31,129,25
-79,39,46,216,135,-105
-74,44,41,210,51,-142
-84,51,41,178,-40,-140
-90,50,40,260,119,-143
-79,50,35,223,184,-134
-76,57,25,79,70,-14
-71,62,22,104,56,-51
-70,68,23,127,54,-53
-73,77,24,166,33,-96
-67,77,24,179,72,-170
-68,79,22,161,-1,-117
-71,82,22,196,23,-158
-66,84,21,152,48,-201
-65,82,21,157,-9,-135
61,52,41,-7104,38,-2862
-115,123,82,-2466,-322,-3931
-127,-66,5,1791,-1158,-4063
-100,90,87,11629,-2387,-5639
-79,-67,88,14343,-4391,-7955
101,-116,-128,6667,-239,-11396
84,21,31,13183,-1223,-7843
-27,64,-42,11353,-3741,-1252
82,-79,2,-18416,6643,2935
22,-101,110,-9889,93,3264
-61,-74,-61,-4062,-988,2369
-99,-28,74,-3597,1318,2869
-106,15,-121,-6155,3769,2474
-48,-94,-95,-6247,3816,2804
-4,62,61,-2528,4382,4988
53,-23,-86,-2873,265,3707
55,-114,97,-1504,94,939
-2,-41,-73,1285,-534,2428
22,17,107,-1850,890,1663
-16,33,35,-2592,-229,1512
-77,-71,26,-120,-864,358
-105,-107,29,1053,-228,-549
-99,105,21,1436,348,-893
-86,67,13,1514,380,-737
-82,25,21,1436,44,-515
-85,24,35,603,-314,-338
-94,28,42,-299,-245,-383
-82,34,39,-925,72,-427
-85,45,37,-738,26,-245
-87,59,29,-71,87,-165
-75,66,39,238,51,-96
-72,91,33,-107,8,-8
-76,102,21,-96,84,-18
-78,112,17,2,108,-69
-66,115,11,20,134,-173
-67,116,5,88,53,-202
-72,116,14,112,6,-115
-68,-114,19,-397,224,-141
-65,-128,9,381,176,60
-66,-123,0,510,-16,58
-59,-109,0,122,16,-37
-57,-117,0,226,100,-157
-53,-121,-2,199,50,-139
-55,-103,-5,-710,58,-240
-37,-16,-35,-2731,514,-625
-47,-9,-24,-1953,19,-333
-48,-17,30,25,-213,-280
-48,-25,45,855,-33,-320
-48,-26,30,878,45,-159
-51,-30,10,579,-102,-71
107,11,21,8501,391,-4715
1,70,-63,16859,-3335,-7116
-107,3,-27,17431,-6548,-8388
8,118,-14,10262,-2153,-11246
105,5,-45,17088,-6792,140
-128,55,29,-21846,8735,4028
92,-49,89,-5326,-722,2708
-19,119,-127,-1155,-766,1997
61,112,-112,-6230,3031,1958
59,-93,-48,-8873,3879,2275
7,32,44,-8239,4067,2535
-113,35,-46,-7737,890,4396
95,-108,69,-5128,-494,3289
127,-3,-62,275,-1772,3375
-92,0,12,930,-1292,3220
-92,68,-39,-82,430,2728
-31,58,105,242,607,993
-99,-95,62,2641,-752,12
126,28,73,2727,-1006,-1556
-110,-22,70,1640,223,-1482
-121,-55,62,912,638,-495
126,-68,65,373,118,193
-123,-69,79,455,-235,119
-91,-97,102,1363,59,-96
-99,-123,95,2053,156,-123
-103,-73,123,222,-269,-123
-95,-69,126,-701,-163,-219
-96,-95,116,-88,174,-294
-99,-83,106,30,9,-80
-100,-64,93,67,41,-76
-99,-65,83,416,155,-158
-97,-57,72,284,116,-151
-98,-48,64,106,-13,-162
-91,-53,60,250,127,-205
-79,-47,57,36,29,-88
-104,-21,48,-210,-12,20
-90,21,34,-1243,210,-269
-80,54,14,-1451,73,-301
-87,23,25,761,-87,13
-90,51,34,512,77,-181
-79,63,10,-32,233,-207
-85,49,-4,141,-42,-210
-75,52,-1,95,22,-203
-75,55,8,49,25,-65
-83,68,15,197,-19,45
-73,83,18,220,116,-89
-73,89,0,99,49,-189
-78,92,0,-68,22,-214
-73,91,-6,6,105,-301
-66,91,-5,-82,52,-161
-32,36,-37,-5142,4022,-6775
-22,-62,61,5659,-1897,-4066
45,3,-112,7735,-2012,-4535
75,67,-11,14582,-3340,-4873
-34,61,-26,14715,-5372,-5563
-83,-13,30,5418,4296,-8024
-26,102,-48,14103,4944,-6787
-86,-48,47,-9035,2499,4601
-108,101,100,-10970,-6308,-473
-51,-32,-4,-2224,-2425,3277
22,-60,19,-3684,358,2696
95,103,-31,-7990,1547,2612
-9,22,8,-8784,1784,2587
41,0,79,-7487,985,3869
-117,-16,-10,-5127,-1614,4325
6,58,-122,-4066,-1961,2431
47,-34,-27,-819,-567,2125
10,65,-99,1104,-81,1821
17,56,-116,755,-382,2584
0,-39,89,2905,161,1903
-13,-1,-32,7166,794,538
-78,-42,-15,5711,-886,-147
-76,-9,103,1333,-541,-501
-57,-49,-108,-1491,387,-872
-85,-104,112,-1346,435,-457
-86,-108,93,-188,117,365
-73,-55,90,16,-27,295
-60,-9,84,-735,103,-478
-59,6,76,-934,250,-957
-43,37,65,-1125,429,-1452
-28,46,55,-670,276,-1021
-49,70,46,-518,-250,-569
-42,102,51,-506,-371,-505
-37,125,57,-593,-28,-277
-40,-123,51,-422,-26,-142
-48,-118,45,3,-47,114
-47,-105,43,14,-130,346
-53,-108,35,232,-108,448
-45,-104,28,291,38,294
-53,-105,15,298,56,63
-50,-101,12,127,117,-100
-44,-102,14,69,85,-203
-46,-102,16,24,23,-266
-39,-109,19,118,45,-264
-47,-117,12,253,-26,-182
-52,-114,13,192,-57,-113
-49,-111,13,90,50,-116
-49,-104,19,84,55,-71
-45,-101,21,176,60,-69
-38,-97,18,192,82,-121
50,40,-115,2739,-3814,-3104
-27,-5,2,6824,-5909,-2758
-77,-110,82,5313,-7093,-2329
58,99,-49,2921,-4407,-2812
46,36,70,7574,-1922,-3112
86,86,-70,8592,2302,-9604
-46,64,1,10424,1119,-7303
74,3,-99,-15796,3168,2662
46,72,-71,1272,-5890,4520
-11,117,-10,-7894,-363,2546
5,-103,-86,-5289,820,2129
-81,-53,82,-4430,2727,2649
-99,31,78,-7330,4657,3640
-55,93,5,-5495,3211,4901
66,-72,-7,-3938,2450,5906
-4,-29,88,-5485,1104,4186
37,-23,-103,-86,-623,3431
-6,-101,15,3581,1324,4395
16,91,56,5105,2512,2985
-16,107,45,3425,202,1553
7,1,110,1595,-2359,-989
90,-72,-64,259,-1848,-2233
-103,125,-60,-204,302,-1935
-122,86,-92,-241,1165,-615
90,112,-117,-385,185,494
103,-76,-120,-1223,-721,924
87,34,112,-2762,-1061,432
101,47,73,-2812,-351,-862
111,19,57,-1063,445,-1381
118,-3,54,821,542,-1191
113,-7,52,1723,30,-540
118,1,49,1349,-144,-85
126,26,52,133,-138,-34
-122,35,46,-656,130,-224
-121,25,41,-168,138,-69
-125,29,38,323,58,101
-123,42,35,368,96,241
-116,64,31,-14,226,207
-110,73,22,-21,209,269
-106,82,19,93,114,212
-102,91,19,195,81,59
-102,96,15,222,68,-128
-103,93,14,249,44,-189
-90,88,15,252,66,-211
-101,90,16,232,-76,-148
-95,94,10,119,-3,-405
-96,95,17,-42,36,-335
-102,83,12,244,22,-329
-96,82,11,344,113,-231
-84,84,7,177,135,-189
