AccX,AccY,AccZ,GyroX,GyroY,GyroZ
-85,-80,37,-829,3212,-7615
15,-123,-66,295,5298,-8314
-11,71,43,24,5198,-8585
122,15,-101,-2711,6308,-8326
-6,7,-109,-1290,5768,-6624
97,116,9,466,4621,-5512
104,-66,64,277,2222,-3983
-43,81,-16,-1063,-699,-1451
-84,18,-89,-1003,-2230,424
94,11,32,39,-401,-33
75,9,38,1396,133,623
-100,-10,38,338,-916,750
-54,-83,-105,1830,-204,38
-45,-21,-85,220,-1656,1213
51,22,120,1990,-3114,2683
-120,-48,-15,999,-5083,2954
90,51,114,-3387,-4158,2601
-5,-43,-80,-420,-5018,2178
100,-45,-116,225,-3802,2716
106,108,32,-656,-1543,1294
112,18,0,2381,-939,-818
5,-22,-18,1166,-403,-778
-29,-49,-41,-435,-255,-499
-14,81,-80,810,-295,-421
4,38,82,926,-96,-283
55,4,-100,494,105,-285
-119,-80,21,1011,-980,37
-101,-112,5,1480,-1713,821
-25,122,2,1494,-2743,1595
-24,-52,62,810,-2939,2642
44,7,-120,280,-2867,3887
105,59,1,1455,-3913,4912
61,-83,-56,2378,-3019,5460
5,-5,-35,2128,-953,5547
41,15,-14,-524,238,3982
-63,-112,65,2928,-123,1217
-18,-53,-2,4447,-1133,-302
-81,104,-83,3271,-27,345
127,76,94,1363,975,260
-101,42,88,979,684,-25
-60,-47,112,2290,-265,-555
-64,102,-68,2217,-1222,-956
-57,62,-34,882,-699,-954
-62,37,-18,-142,-285,-786
-60,17,-23,-536,-199,-533
-35,37,-58,-758,-39,-537
-24,47,-78,-580,-144,-447
-15,56,-101,-188,-163,-340
-8,81,-114,-283,-130,-260
-1,96,-127,-367,-108,-192
52,-64,-55,-2455,-871,-5485
-27,-107,58,-1741,582,-8347
-44,32,59,-753,1887,-10907
26,-10,50,-14,2401,-10675
126,54,-62,-2416,2055,-9424
-43,59,68,-3115,3367,-7747
-8,62,-45,-3930,4416,-6294
76,-39,77,-1619,1561,-2043
-56,24,-85,-2451,-1787,323
-18,35,17,-739,-1111,3
-57,19,69,2576,1183,-876
101,92,-77,1616,180,222
-28,10,26,2409,-82,747
71,122,82,455,590,1013
-96,-95,21,428,-2746,3682
-126,-16,66,-545,-6180,3626
88,-11,72,-2809,-7799,4525
-95,-114,-121,-992,-6580,3219
-25,-127,107,532,-2622,2282
-58,122,0,2963,552,-2323
-85,-86,-19,-49,-292,668
-37,18,-17,-580,-39,-383
5,-120,-90,971,177,-410
-22,59,-7,559,84,-85
48,9,106,-150,-1158,106
-127,13,-26,76,-1235,-57
-63,-52,-5,628,-1668,356
32,43,47,324,-2554,828
-16,-5,-116,2067,-3211,2264
42,34,-62,1821,-3785,3685
-119,-54,-62,1250,-4393,5637
16,86,51,1871,-3590,5202
-74,-81,43,1992,-1082,3712
-11,13,-88,-496,-245,1639
58,54,92,1148,151,555
-49,-90,0,3074,127,614
-121,120,-76,2757,-73,506
-107,95,-108,1918,274,224
-91,37,-127,1639,330,-144
-64,-36,-122,1385,-13,-410
-65,-70,-103,811,-263,-609
-48,121,-91,571,-74,-638
-47,93,-100,471,-101,-624
-40,75,-98,190,-165,-502
-23,76,-109,-165,-99,-336
-15,78,-107,-81,-114,-165
-12,102,-124,-197,-21,-151
6,126,114,-309,-25,-174
22,126,103,-58,-26,-160
26,-112,94,-224,-129,-197
25,-5,110,-2268,1592,-7446
68,-45,46,1129,3652,-9308
90,-35,-71,-709,4387,-9668
-112,-80,121,-2342,3781,-8658
37,54,-106,-1630,2970,-7123
27,-46,-46,-4673,3409,-6119
104,-39,8,-2020,2600,-3048
-101,-65,15,-1309,470,483
-10,45,-58,-985,-667,714
-7,-4,89,-1051,-3,-1477
22,18,-59,1881,824,-1438
71,-70,5,2204,540,-946
-118,125,0,737,-201,-142
98,-116,81,1555,31,1928
97,117,-102,511,-6498,4503
-81,-120,-35,-3052,-8298,3372
-94,-7,-89,-404,-8948,4034
-97,-27,122,-1134,-2919,3515
-82,75,25,4304,-104,-384
-81,21,-16,2627,-499,-1663
-16,0,-18,-1758,-520,236
68,-113,-15,799,279,-543
110,104,89,843,116,-675
114,62,-100,-297,-506,-401
-72,20,59,59,-1227,-742
24,-46,4,1633,-1639,-180
108,77,41,838,-2377,1314
42,9,66,1600,-3048,1967
-80,14,0,1061,-4852,5043
55,-29,71,-265,-5192,5516
65,-82,26,3196,-1207,4518
-94,37,65,2554,-1551,4909
108,-55,-71,-24,-358,3030
-109,-108,91,766,-520,770
-27,0,34,2786,-735,-404
-123,90,-38,3514,-341,-498
-114,50,-85,2430,300,-657
-104,-47,-89,2324,269,-755
-78,61,-85,2686,47,-723
-49,4,-94,1961,15,-688
-57,-63,-41,677,-702,-70
-64,29,-59,-1655,-370,178
-61,34,-59,-844,-201,-83
-34,60,-74,-212,139,-83
-16,118,-101,-655,-27,-253
-11,126,-104,-688,-173,-295
-3,-127,-114,-273,18,-306
11,126,124,200,-16,-296
22,-121,107,68,-23,-359
30,-123,96,8,-43,-380
-18,38,-43,-4815,2163,-4587
-90,31,113,2617,258,-7365
23,3,24,2242,957,-10450
-87,10,-4,-2186,1716,-11116
-23,74,-99,-2463,4228,-9808
-77,-44,85,-1847,3471,-7450
118,115,59,-5257,4221,-6219
96,45,38,-2313,2935,-3218
17,87,78,-2205,-1378,-1392
19,-84,124,-565,-1809,-209
110,20,56,1094,1100,-917
21,82,-24,1377,3112,-1956
79,51,-33,980,1556,482
20,122,-14,684,2323,1673
27,-68,-32,291,-4432,4620
44,39,26,-852,-8863,3736
127,9,-113,-1660,-9050,4712
62,-60,108,669,-7414,2675
94,-49,85,244,359,1048
0,36,22,3481,422,-1428
-54,69,-3,-1771,-552,438
22,-50,-4,1223,975,-263
24,120,45,1009,-222,-432
54,114,-78,-846,-135,-433
91,-57,93,1115,-1431,-65
-120,-23,54,995,-1690,799
-21,0,9,605,-1831,665
23,-7,64,591,-2777,1397
85,16,98,304,-3184,2373
94,51,-80,1318,-3987,3716
-127,-115,-124,1472,-4580,4787
37,42,49,429,-3769,4868
-30,-118,55,1680,-913,3032
65,-22,-17,1569,-144,2231
48,-46,99,-567,-784,542
-51,44,115,-127,-597,207
-87,100,26,2382,447,457
-97,-124,-45,1886,587,149
-104,30,-66,2885,69,217
-84,-68,-86,3343,-394,-116
-56,-93,-83,2052,-104,-483
-41,116,-78,589,59,-681
-45,71,-78,135,42,-509
-31,59,-90,-49,40,-457
-3,47,-102,62,8,-336
0,58,-114,-22,-49,-237
1,68,-126,-173,-53,-92
16,92,119,-257,-64,-36
21,99,117,-34,-109,8
35,117,110,-96,-92,-45
-112,-83,-94,-4832,-1655,-1702
118,109,51,-3630,3898,-6499
-56,110,-8,1912,4855,-8240
-54,0,-124,1689,3643,-9830
-59,-104,-10,-7697,6900,-10915
98,-89,127,-3579,6195,-7117
-5,-18,0,-1400,5504,-5477
114,-67,-105,-3136,5384,-4503
32,-90,-38,-2639,3040,-3153
-72,-81,73,-1310,-2086,-1683
67,-33,-92,-500,-2848,-586
-28,70,-8,1480,2212,758
-102,46,50,1874,3028,1127
-119,5,117,2056,1015,2042
10,93,104,1756,-5797,4695
-79,-15,-5,2120,-7634,4222
50,22,109,-2469,-8322,5651
13,-83,100,-337,-5929,3076
-83,42,97,1435,758,-579
-80,-105,26,2070,-100,-182
-63,-70,16,-890,-147,209
19,-96,-44,593,-150,-201
26,117,50,333,507,-261
31,2,-118,800,-500,211
125,11,76,942,-1700,119
-97,-12,5,855,-1483,571
8,-15,19,757,-2127,1077
51,-34,67,1179,-2924,1766
76,92,-112,-481,-4212,2432
-106,44,-55,1422,-4110,3204
-88,120,89,2771,-4729,5572
-23,-56,95,3025,-6898,6614
118,26,-71,-305,1328,3212
42,28,-112,-1250,905,509
48,-24,-59,3060,-1365,-256
-90,74,28,4513,-586,-91
-124,108,-47,1950,562,13
109,54,-57,1129,801,381
-114,12,-86,1129,378,325
-81,-37,-81,1869,-168,-108
-46,-72,-74,1290,-190,-430
-68,-83,-91,299,59,-813
-59,127,-97,576,-60,-1076
-40,43,-98,965,-77,-611
-48,63,-108,87,-102,-235
-40,75,-116,-433,-96,-280
1,73,-111,-339,-46,-182
7,88,-125,-265,-93,-224
2,100,125,-273,-141,-186
8,119,111,-312,6,-130
-59,-101,28,1875,152,-8610
118,52,30,1209,3511,-11063
63,43,-104,-3268,5648,-11625
100,76,-17,-2836,6888,-8622
68,122,-10,-5092,5479,-6033
1,30,-111,-2335,2789,-3028
-62,-24,50,-1768,-186,-1359
-126,-106,15,663,696,-849
35,82,17,1082,1380,-718
-79,21,35,1540,1322,23
-21,77,-122,2393,1304,1780
114,-19,2,2807,-1176,4737
100,-91,-10,-1381,-2346,3688
-80,-111,-11,331,-8718,5511
85,-22,-71,-716,-9101,4302
-87,-42,23,-2172,-5669,3265
-112,25,46,1448,971,-759
-41,59,18,2827,-286,-1011
-108,-26,7,-1570,-279,158
13,-63,-3,650,545,-766
27,86,60,889,124,-745
58,-22,-103,596,-936,277
-87,46,93,56,-1434,-220
52,-15,22,752,-617,478
3,-52,65,837,-2720,1722
-26,-81,70,1515,-2509,2839
19,13,48,1164,-2399,3618
85,-71,26,-86,-4697,5329
-35,5,-61,-8,-4945,5672
80,-39,-91,-1095,-3691,4301
-80,127,76,3115,-403,2258
-82,107,-87,2429,72,1588
9,5,-61,1878,1028,1209
-61,-63,-112,1119,362,1400
-44,-95,-104,1321,-150,1149
-43,112,-120,2035,-379,460
-57,23,-99,2154,-585,-203
-70,-71,-80,1838,-635,-344
-74,-117,-62,996,-322,-589
-68,63,-59,546,-192,-534
-57,37,-67,158,-162,-501
-37,59,-87,-406,19,-298
-30,64,-109,-204,24,-213
-21,85,-125,-83,-6,-163
-5,102,121,-82,-48,-144
4,124,107,-221,-118,-208
5,124,105,-113,-11,-239
11,-120,94,-31,-31,-318
16,123,88,311,-15,-120
41,-112,75,-38,-45,-217
52,-54,-34,-1529,2579,-8399
-69,14,58,-1044,4519,-11680
-94,-1,34,-2612,699,-10499
97,-120,-47,-4137,2234,-9241
-87,-91,-10,-5123,2908,-7390
65,38,16,-4750,2507,-5945
-106,77,-2,-7621,355,-3173
-71,27,5,-914,-2138,-494
92,57,17,1454,-1694,510
13,-78,3,897,1905,620
75,-19,2,912,2618,1653
1,-116,125,2329,3569,2721
-70,60,35,691,-5384,4824
127,-35,11,-874,-9534,3969
38,7,103,-2085,-11434,5033
-48,-20,-52,5097,-2853,4199
99,101,14,-435,961,-3878
-93,56,0,1248,337,597
-84,-54,-1,-1087,-764,-50
2,81,-8,846,244,-294
-23,-113,118,-361,-470,-147
48,58,-13,71,-183,-417
107,29,-122,1480,-10,-461
-75,-11,28,653,-782,-750
-19,-103,-31,1887,-1899,471
26,-7,-16,425,-2856,1411
42,-5,97,1056,-3484,2670
27,-14,-22,2098,-4098,4343
-95,45,63,3769,-4508,5805
-73,43,13,2149,-3703,6517
2,93,-34,-2297,-388,3499
85,-80,-23,1399,-1411,2659
115,-73,-78,628,-881,666
-57,-35,89,2866,46,-28
100,122,45,3688,-244,76
83,66,-16,2975,-115,244
124,31,-28,1896,345,-226
-106,-52,-53,1644,406,-574
-60,-115,-68,838,347,-967
-82,84,-64,487,-31,-842
-100,69,-81,195,-47,-413
-66,49,-96,121,-1,-601
-26,27,-98,434,-18,-427
-22,28,-97,212,-193,-267
-26,51,-100,-313,-172,-136
-16,66,-103,-313,-54,-11
-7,112,-117,-518,-51,-124
26,124,-126,-171,27,-117
14,-128,117,60,-110,-12
22,-91,106,-317,-81,-228
56,-52,-104,-2159,1752,-4821
66,121,-4,1902,2629,-6603
6,30,25,3531,559,-8775
-48,35,-10,-1284,2178,-9940
-21,105,77,-848,2994,-8755
45,89,44,-3051,4138,-7872
32,55,-90,-3493,4426,-6488
21,127,-85,-2838,3831,-4020
25,10,33,-2200,1189,-3393
-10,36,88,-775,-1745,-566
1,-4,112,835,-1341,1437
91,100,127,2814,2891,195
-58,70,-32,-1032,4227,-676
-62,54,60,-167,-882,3520
-10,27,-36,-17,-7014,4219
-97,57,121,-5067,-8627,3847
-8,-30,59,-3474,-8893,1949
80,13,-59,3440,-2085,3935
81,-13,66,1158,850,-4473
116,-127,39,775,-446,1400
29,88,38,-245,-345,-900
48,94,-5,924,126,-303
16,-128,97,-221,-323,-324
65,94,46,-554,-258,-559
-125,44,-38,423,-715,-194
-82,50,109,763,-1838,-400
-8,28,81,785,-2113,198
42,-11,66,1364,-1980,1085
15,74,105,526,-3118,2416
-8,34,-55,1189,-3778,3424
64,122,9,985,-4624,4624
-63,-38,-23,1549,-4083,5035
53,10,66,2519,-1166,4879
-107,-57,-102,846,-661,2931
-59,-50,-19,-879,-1706,1578
43,10,76,1543,-286,652
-74,-118,-2,2759,49,63
-108,73,-53,3159,-80,204
-114,28,-75,2747,-171,21
-90,-58,-93,2343,151,-370
-65,-94,-89,1301,101,-627
-58,123,-64,301,-174,-669
-55,81,-58,-284,-229,-543
-51,68,-67,-179,-49,-454
-28,65,-82,-77,18,-405
-17,74,-107,-116,-29,-318
-12,87,-120,-220,-30,-251
13,101,127,-212,9,-328
15,93,118,154,-58,-201
17,119,108,-261,-37,-141
78,58,-11,1832,1075,-8431
42,24,-14,-1743,-1108,-10404
-41,121,-52,-5562,3571,-11054
-44,-31,-117,-1333,4203,-8356
-86,114,8,-5062,4786,-7366
87,-99,59,-4164,3797,-3878
-107,48,-104,-1445,-624,-684
97,-13,-30,-1801,-2585,1395
-109,-85,73,517,477,-1021
-44,-35,71,2297,5851,-3077
15,-112,53,414,3368,-1846
54,-75,53,2769,-700,2282
-84,-12,-113,-1678,-4491,4744
46,97,-59,-2387,-6608,3165
101,-105,36,-203,-7948,3179
100,24,-62,-1752,-5191,3165
-76,-30,116,2343,845,-1713
-93,-2,55,1809,-1128,1258
-9,20,39,283,327,-1037
-9,-49,11,-17,61,-291
16,-104,-89,422,218,-594
47,-9,-2,696,-664,6
-85,-113,-72,-110,-890,-1014
16,-10,19,1297,-1347,-833
-60,-24,72,1861,-2678,397
-38,-12,53,1180,-2257,881
-28,-9,107,1323,-2837,2611
-125,0,-110,1508,-3777,4170
-2,107,82,1894,-4755,5622
-36,58,-20,985,-3098,4803
54,24,-23,3302,-901,4566
75,-51,-18,226,-924,3904
-51,49,125,1311,-218,2867
123,-9,19,2679,17,1665
-4,-58,-35,2593,-708,492
-105,93,-45,2086,-891,-9
-120,52,-40,1183,-199,-276
-127,-11,-34,1107,47,-305
-114,-81,-40,1294,-31,-424
-92,-119,-49,1057,-94,-570
-69,102,-59,517,-42,-645
-46,79,-73,-189,-56,-747
-49,60,-79,-244,-108,-616
-36,59,-100,-179,-61,-559
-22,69,-114,-185,-104,-387
-18,86,-124,-191,-116,-306
-5,97,-128,-221,-95,-224
1,113,120,-127,-54,-138
12,-128,112,-43,-46,-89
23,-112,101,-168,-58,-133
-9,-50,-3,-374,3345,-5882
22,90,-1,3847,2137,-7066
48,116,-11,1079,3320,-8572
10,-44,1,-3321,6493,-7553
118,-86,120,-1106,5834,-6464
88,-82,111,-3367,5939,-5995
69,-56,-47,-3191,4827,-4884
107,-24,-5,-2582,3816,-3429
123,30,114,-1633,1096,-1375
-12,7,-67,221,-3111,846
-66,9,35,2224,1894,-451
-105,-78,-61,1399,1958,-1879
63,-122,127,1755,-1087,1236
41,-108,-81,3467,-2415,2642
-45,8,30,74,-5592,3742
-18,-59,32,-1964,-7460,3243
29,58,36,705,-8380,3103
-69,112,90,-3208,-4008,3717
-1,36,74,4492,-783,-290
-77,15,6,2367,395,-2078
-50,-35,-5,-1291,-799,156
46,112,-3,1809,457,-432
27,-85,-36,-556,-326,-562
17,33,-128,115,481,-192
37,94,82,-186,-558,-213
93,74,-33,860,240,-332
-40,3,60,1355,-701,-495
-42,-39,76,1677,-2071,206
31,-22,54,943,-2166,432
3,-26,-99,546,-3129,1450
-55,-32,-108,676,-3251,2750
21,96,59,446,-4517,3716
96,-106,-77,2013,-3981,4606
-29,-53,-4,2809,-2494,4110
-12,78,65,6380,-386,5304
-8,2,121,780,2515,2152
50,-32,50,-983,-1647,1044
-58,74,5,2781,-1133,-16
-91,18,-30,3020,135,10
-123,-3,-61,1719,192,153
-126,-52,-58,1318,54,306
-93,-66,-52,1126,-15,-47
-96,-97,-45,779,-272,-434
-66,101,-41,336,-88,-592
-69,67,-51,169,-87,-617
-54,39,-57,77,-103,-355
-50,53,-77,-413,-158,-244
-44,70,-93,-591,-106,-230
-24,82,-100,-419,-132,-280
-11,101,-113,-308,-100,-258
-65,-99,38,-2694,1014,-4392
-108,-18,33,25,1790,-5383
-54,16,-7,-154,3047,-6684
-29,-41,-8,-1121,4775,-7416
-57,-71,80,-1372,6001,-7214
-122,-72,80,-1660,5999,-5423
119,-47,69,-4503,6329,-4052
36,-5,65,-2501,5314,-1934
-80,82,25,-4274,391,-1762
-35,-96,-103,-2539,-4582,-431
123,40,-91,-355,443,150
87,-101,-82,717,1475,-352
31,-51,50,2105,-56,-741
54,-51,92,3058,352,-765
67,-46,49,3541,701,-15
-71,97,-92,2508,42,664
65,-26,115,2093,-3800,1705
-94,-63,32,-773,-6211,2165
-111,63,-16,3637,-8230,3592
14,-90,52,-1812,-6466,2263
112,86,5,3033,1186,844
-56,50,-11,2794,-1247,-1192
39,-113,-15,-1469,464,-196
3,42,-11,695,309,-181
26,53,-45,-120,467,-276
60,66,105,40,665,-683
-91,10,-58,939,647,-874
-12,-40,58,1522,-817,-994
50,-81,62,2402,-1547,-56
-6,-81,36,1671,-1824,944
9,-83,93,1676,-2469,2755
-61,-38,106,1115,-3880,4280
-35,50,45,1515,-5299,6303
-29,-65,-45,1646,-3238,5495
-81,-120,21,809,-1664,4401
80,71,-110,1723,-1370,4397
12,90,-123,2259,1022,3018
75,120,98,1489,-324,889
-54,-46,6,2942,-500,-214
120,64,-37,3552,-234,-246
118,30,-62,2439,168,-505
116,-47,-66,1981,84,-701
-113,124,-47,1320,-177,-859
-91,86,-34,479,-327,-807
-67,88,-24,-553,-363,-751
-67,59,-30,-606,-285,-678
-60,65,-43,-565,-213,-599
-45,81,-60,-597,-171,-576
-30,81,-80,-273,-128,-396
-28,99,-93,-242,-157,-302
27,95,28,1587,397,-6982
45,2,16,1558,2771,-8206
98,-126,31,86,3370,-7817
-75,91,110,-2336,4679,-6628
22,54,63,-1649,3884,-5458
28,-99,-11,-2195,3341,-4133
-63,103,86,-3037,3154,-3440
-70,115,65,-2901,2842,-2922
-111,-60,-69,-2093,2068,-2971
-96,-116,43,441,-165,-1053
0,2,96,221,-1119,341
97,-74,11,1103,693,-93
-29,-99,82,2148,2058,-419
58,-112,-105,2361,576,1055
87,22,-50,3444,-33,2310
-76,-32,-58,-916,-4302,3774
-81,-110,-112,-2723,-8165,4003
-109,-62,-95,1012,-10507,5141
-50,-112,-115,1241,-1325,2475
-106,-54,35,2587,39,-2977
-26,-85,8,-864,-402,412
-6,-65,9,890,118,-583
26,93,5,628,1212,-684
69,-125,125,-464,223,-934
-60,26,-55,705,347,-975
-31,-53,99,2187,-1921,-895
44,-103,23,2657,-2089,-234
30,-95,46,1481,-1632,525
-68,-115,44,1103,-2074,2490
-119,-128,-115,1959,-3578,5475
-51,37,41,951,-4802,7299
23,-21,102,1778,-2018,5946
34,-85,-27,1516,-304,5707
-61,-85,-45,1526,-724,4714
29,20,-93,-1328,-621,3420
92,-55,96,70,-769,502
-65,-117,40,4888,-418,-409
-123,95,-42,4986,-315,-105
-126,75,-96,2325,374,-620
-111,-50,-79,1085,514,-608
-104,95,-53,2176,-448,-371
-68,99,-28,1154,-734,-525
-41,109,-38,-876,-259,-1198
-33,72,-56,-1039,-166,-1148
-28,48,-59,-490,-334,-925
-12,71,-84,-495,-320,-943
-12,87,-89,-713,-373,-806
-11,97,-101,-728,-231,-603
-11,109,-116,-526,-172,-295
-2,126,-121,-356,-131,-29
-50,76,10,993,977,-6388
51,-10,18,2043,454,-8468
-37,-52,2,-1570,2735,-9080
-59,115,86,-1218,3978,-7292
-7,76,91,-2441,5237,-6652
94,-117,-65,-3327,4560,-5607
80,2,-106,-3879,3389,-4454
97,-32,-120,-2616,2432,-2875
26,-28,-67,-2235,208,-1052
37,-89,-41,-1944,-1473,174
-86,70,119,-371,-577,146
15,-71,18,2106,2571,-1882
104,71,-30,2428,1959,-1887
-16,-1,-125,2512,307,1011
99,76,-80,3150,-1370,3035
-115,-7,37,-1560,-4372,3890
6,101,-75,-283,-7492,4479
-31,40,-99,-2379,-7009,4026
103,28,-92,3375,-2862,3703
49,-75,47,1477,883,-4155
-61,127,30,-598,-344,792
-29,101,25,314,-426,-165
42,57,6,159,178,-513
31,60,109,-150,-297,-517
-93,38,-120,185,442,-809
-57,6,127,755,-1171,-842
-36,-69,93,2648,-2722,219
-4,-95,102,3770,-3090,1494
13,-34,-4,768,-1513,1462
-68,-54,72,688,-2409,3185
-51,101,72,-80,-5468,5460
37,111,-65,1307,-4665,4991
62,-66,-32,2125,-1428,5168
-60,-89,114,-361,-489,4140
113,47,-76,3105,-61,3298
-121,-125,120,2699,-1351,1727
-33,-50,-16,3210,-786,90
-68,88,-48,3479,44,401
-112,76,-77,2023,17,334
110,40,-66,1029,-201,-126
-114,-35,-50,1232,-165,-517
-100,-86,-34,727,-349,-799
-75,124,-35,-135,-160,-1002
-67,83,-45,-307,-115,-1055
-52,61,-55,-272,-129,-775
-40,56,-82,-278,-89,-636
-29,79,-105,-510,-96,-626
-16,99,-121,-697,-106,-575
-10,119,122,-651,-147,-422
-11,-125,118,-408,-130,-306
36,50,-35,723,1515,-7061
48,43,37,640,421,-8363
-85,0,-118,-1179,1873,-8590
-81,106,64,-2827,4169,-8271
-41,52,123,-2379,4992,-8233
10,1,-91,-3792,4494,-7067
106,108,-115,-4130,3421,-4776
119,-16,-22,-2645,-328,-1194
-125,13,75,-2539,-2657,869
-90,-77,-34,-237,-130,-182
-90,-117,45,1679,2675,-2519
-103,-40,1,988,651,-809
40,-69,119,3407,186,1111
118,-111,-29,2176,-1674,2694
59,-87,79,-152,-4482,4776
45,-62,126,-1715,-7521,4215
-98,71,24,-1104,-5423,3247
-1,40,111,3117,-5429,4325
-5,73,44,780,1248,-1945
1,-119,10,1205,-384,615
33,4,8,-661,-170,-460
53,-125,-48,-65,287,-539
40,99,35,286,-671,-549
61,19,113,562,-1489,-340
114,0,70,127,-2848,753
-115,4,10,279,-2164,326
-7,-30,39,951,-1637,1105
34,16,105,767,-3019,1356
18,23,-51,812,-3628,2230
-98,23,9,1941,-2933,2955
-32,-80,-60,1131,-3811,3979
46,-25,-19,1722,-1821,3654
0,-116,8,27,-1984,2916
-89,76,-102,642,-127,1656
34,48,-102,314,-1068,1271
14,-54,45,1795,-110,965
-73,109,-18,2249,-1621,514
100,94,-6,291,-864,849
-123,97,-59,-291,1214,308
-127,-5,-114,1605,1348,74
-122,-42,113,3085,180,-108
-101,-94,83,2965,-132,-365
-60,121,97,1514,33,-839
-55,47,125,1057,-42,-854
-49,5,-95,677,-376,-584
-24,-8,-86,73,-350,-359
-25,10,-84,-211,-250,-271
-15,28,-100,-4,-162,-202
10,69,126,-163,-67,-160
6,91,119,-176,-281,-291
-22,-109,-81,697,872,-6999
-85,-48,38,-2248,2702,-7595
113,122,-49,-2398,3992,-7185
5,52,43,-3181,4525,-7121
88,-95,-45,-2681,3906,-5821
96,-57,-2,-3632,3620,-4615
103,111,5,-4585,3851,-740
-49,-71,-31,-4344,1057,-945
-42,-76,-80,-1981,-726,1439
33,15,9,-43,-735,-450
101,-18,38,2369,1796,-2099
-85,106,76,2822,85,-1475
42,-12,53,3590,-980,-26
-101,123,62,5072,-3288,2183
68,66,-47,-935,-4447,3662
-11,-8,116,-1523,-7143,3339
-85,101,-40,-5528,-8734,3951
-80,74,-97,8761,207,2664
-105,-109,7,904,-1068,-1883
8,75,-9,-3788,-316,135
55,-118,-5,1434,500,-554
10,99,-7,732,252,-381
51,-112,80,-360,552,-882
62,1,-47,1447,-829,-28
-92,8,52,519,-1751,-447
-56,-32,21,1142,-1584,26
-18,-82,33,1422,-1597,809
12,-35,93,887,-2288,1403
-51,-46,-58,1361,-3363,3100
-43,107,-29,3508,-3881,4808
69,119,-40,2150,-2150,6395
-17,49,6,-203,593,4160
121,-78,-116,-2115,-1738,4363
-8,-111,121,-710,-2418,2796
97,-117,91,-460,-1123,248
33,-58,75,2843,-118,249
-102,101,-22,5006,-649,777
-120,121,-63,3854,-758,472
-103,69,-85,2948,-74,-268
122,-22,-50,2174,-450,-622
-90,119,-3,2744,-64,-613
-76,109,-15,1381,-204,-1124
-37,1,-17,439,205,-1266
-47,-40,-33,80,-28,-838
-57,-45,-32,-200,-256,-390
-45,-26,-65,-291,-148,-223
-27,-5,-70,-236,-81,-70
-20,38,-90,-598,-137,-88
3,62,-100,-642,-42,-68
4,89,-113,-754,-85,-97
-76,72,-117,-4386,1386,-6399
-90,-69,23,1700,3088,-8224
-23,11,-27,-1928,3490,-8713
-118,47,27,-4774,6057,-7230
86,20,-119,-3339,7268,-5434
-91,-51,123,-3624,6061,-5438
38,90,61,-4124,5523,-4232
-18,114,-37,-3660,3985,-2749
70,-65,98,-2484,-482,-953
-40,44,-46,77,-2425,350
-60,-81,-88,1751,1354,-913
-73,-87,-36,2486,4237,-1443
74,-67,-63,2701,5271,1698
-21,4,63,2665,2270,3965
1,65,89,-209,-3771,5386
-17,-5,124,-2143,-8425,4498
-56,-87,84,-1003,-8922,3583
96,-34,-82,-1130,-8399,3930
-42,4,42,1486,792,-101
-87,-23,28,2713,143,-727
82,-99,19,-1485,-1200,147
0,103,13,885,468,-543
-18,78,-124,591,-739,3
16,89,31,-81,13,-133
78,30,-14,991,-70,-591
117,1,-85,1062,-1366,-667
-49,-14,74,874,-1447,-680
-12,-123,61,2166,-1107,222
-10,-15,97,229,-1964,1693
-11,20,-113,277,-3841,2726
-94,6,-45,1973,-4366,3665
42,-70,119,986,-3958,4765
-94,58,124,582,-2512,4420
-42,52,62,2437,-2024,4655
-6,-56,-18,297,-902,3291
-83,-112,-25,6,-290,2493
70,31,78,2082,175,1357
-42,39,4,35,319,8
-97,-117,3,1270,-98,2
111,51,-11,2621,-525,263
-118,15,-38,2696,-118,32
-88,-65,-63,3297,139,-184
-86,109,-54,3500,-324,-60
-71,65,-30,2356,-479,-191
-38,76,-26,286,0,-619
-3,81,-50,-1255,213,-1065
-26,21,-64,-1167,-238,-1000
-38,-1,-68,-62,-241,-139
-37,36,-84,-190,-102,-81
2,89,-114,-617,25,-144
39,-101,22,2423,1841,-6496
-1,106,15,2320,1436,-7975
-55,-46,120,-2173,4016,-8377
110,33,37,-504,4708,-7704
100,-6,40,-1385,4332,-7274
-89,28,-51,-1999,3418,-6280
2,84,-93,-3316,2657,-5383
100,66,104,-2645,1637,-3605
14,-60,24,-1413,-226,-1564
110,-44,-45,-769,-1201,259
-7,93,108,97,-41,-535
88,8,-126,2157,3469,-1735
-55,-44,-85,1197,2016,-611
-125,46,-25,1270,1091,1765
114,103,-55,2728,598,3893
32,86,-60,658,-3023,5443
3,-81,-82,-4280,-9289,7181
-85,66,-111,-2036,-9450,2171
77,4,121,1459,-3978,5760
-29,58,8,-1955,-942,-3359
-76,-10,1,2526,559,-127
-63,-37,-2,-1450,-1213,-256
20,55,-4,1679,359,-243
55,-96,-126,57,516,-771
105,99,-77,804,-258,-767
-118,-11,86,1261,-1206,-230
-76,-26,60,859,-2560,507
-77,-18,82,423,-2822,786
32,-16,124,904,-2925,1773
29,8,-70,1170,-3282,2709
0,71,65,1470,-3961,4098
-89,-106,-34,1842,-3254,4631
27,67,42,1347,-2579,4103
9,61,26,1530,-916,3694
-22,79,-99,1768,-88,2570
50,33,41,1535,-336,1075
-29,-50,3,1983,-589,1178
-89,-76,-18,1649,-400,838
-101,-87,-43,883,132,202
-101,59,-52,2611,-7,-117
-86,-19,-73,3412,-287,-481
-89,106,-59,3460,-470,-803
-81,41,-48,2332,-239,-850
-75,30,-22,315,-158,-711
-46,18,-31,-1110,-46,-592
-36,24,-51,-1139,-166,-532
-30,41,-72,-783,-119,-440
-23,71,-93,-442,-148,-392
-17,94,-110,-369,-138,-405
6,101,-115,-226,-128,-392
-80,-79,114,-665,760,-6696
-118,-53,20,125,992,-9003
94,-94,-1,-592,2825,-9634
-44,102,45,-2607,4827,-8102
81,-23,-66,-2690,5395,-6300
123,101,-93,-3821,4798,-5005
-3,-58,-12,-2621,2864,-3256
112,5,44,-1712,2233,-2925
13,-18,35,-3496,1254,-2552
-116,-106,85,-1102,-2018,315
-112,-114,84,684,-510,287
-117,52,-32,1498,3591,-1855
-92,-61,122,2307,2131,384
127,109,-78,2484,648,1326
-69,-61,-80,2407,-4692,4841
4,-65,-17,-2955,-9533,4322
-105,16,-14,-476,-9183,3943
47,-91,-44,3546,-1567,4071
-118,-63,49,-1332,-1704,-1813
-49,-33,16,527,163,409
-4,-14,15,1037,379,-498
37,-112,20,1048,1337,-709
40,89,71,-30,-101,-442
125,104,-63,-292,-1078,-1064
-55,0,118,1028,-1554,-729
-43,-45,57,1383,-1865,-301
-4,3,103,1049,-2464,480
-10,40,117,590,-3075,1772
-101,8,-47,1062,-3822,3102
-32,108,93,928,-3924,3871
66,-117,-50,2365,-4142,4443
-5,-128,11,3324,-2089,4296
-106,117,7,3370,-280,3333
113,125,93,771,1262,2820
32,13,-111,1051,-361,2184
31,-91,46,2619,-355,2093
-19,-65,-23,1636,-218,1079
-72,120,-67,1065,-112,74
-85,26,-51,1803,-170,-198
-92,-55,-47,2370,-239,-309
-87,-113,-55,1839,-199,-528
-93,79,-45,1663,-311,-432
-51,70,-39,291,-172,-505
-40,43,-42,-356,-181,-566
-27,68,-69,-1151,-84,-870
-3,80,-100,-1617,-204,-1277
-26,23,-84,-38,-321,-194
-32,60,-94,56,-214,-91
9,124,-116,-536,14,-208
7,118,-121,-112,-134,-79
114,121,57,-3416,2435,-3347
-21,71,-85,671,-2442,-5526
-81,-57,16,207,2713,-9266
63,-110,4,624,2228,-9740
-34,-118,-13,-2142,4811,-8395
-37,-115,69,-3540,5654,-7272
38,-69,-115,-2435,4252,-5927
73,10,-67,-3777,3302,-4839
-74,41,-86,-3824,3261,-3261
39,-99,71,-3412,1707,-2274
37,9,107,-1124,-907,-349
-12,-55,54,1329,-625,967
30,-21,78,2619,1396,-330
37,-47,-37,1079,1301,448
-34,0,98,5672,-1358,2780
-128,84,-91,376,-5241,6416
86,-54,-34,-153,-11120,5278
54,-77,-50,-5309,-7246,2523
9,4,-57,6007,1006,1782
-33,-19,13,1210,-1191,-956
20,-6,-4,-1568,105,-216
-29,85,1,1016,-242,-139
27,110,-24,-57,653,-396
36,114,97,-439,-77,-353
91,72,27,644,-197,-477
-84,67,-100,641,-275,-836
-5,41,110,1566,-1298,-122
-23,-1,64,1041,-1484,263
-63,-19,117,543,-1772,902
-124,-22,-85,282,-3198,2086
-93,-33,-55,1570,-3256,4365
-25,-118,114,2023,-3178,5378
-96,100,-60,529,-2551,4466
-20,-123,-62,529,-1374,3593
-85,-120,-22,313,-1533,3426
92,-23,-127,2826,-950,2687
31,-17,-123,1533,-970,2290
18,-65,37,1906,8,1373
-63,-115,-13,2386,-515,227
-69,74,-15,2019,-257,-662
-92,-35,-30,2199,10,-792
-91,-114,-39,1687,-2,-1008
-67,68,-37,1502,100,-884
-32,47,-43,794,40,-797
-21,32,-47,-257,-159,-799
-12,37,-68,-747,-172,-728
-17,36,-83,-647,-184,-492
1,55,-93,-477,-61,-320
0,68,-106,-261,-133,-93
5,88,-116,-246,-90,29
-30,-95,29,2106,2106,-8698
82,125,30,1027,2365,-9403
-101,56,22,-1079,3367,-8221
-38,124,-119,-2368,4135,-7139
64,-38,-21,-2355,4095,-6188
-113,6,-73,-3297,4240,-5889
66,-27,-118,-2977,3345,-4455
62,124,-117,-943,-426,-2327
101,31,-68,415,-2407,-76
-120,16,-61,788,2389,-417
59,51,-107,-511,2606,519
36,54,-19,1511,-809,3331
-65,-55,-73,2569,-4351,5865
37,-58,95,-1033,-8066,5575
7,16,59,-1885,-9372,5171
-1,72,88,-1044,-6359,3757
28,-126,96,2940,-3239,3342
-33,109,10,391,1604,-2646
-128,-57,7,-167,-1337,57
-15,103,1,1061,342,-297
-6,-76,-75,-92,-390,-559
-1,96,-107,-145,372,-62
21,-128,93,-147,633,-446
79,40,25,1193,-330,-443
102,32,121,708,-1493,-587
-82,9,68,200,-1815,-6
-40,24,71,-305,-2161,844
-40,-47,99,915,-2742,1701
82,44,-106,308,-3282,2424
113,62,-42,1149,-4304,3325
-63,119,113,1261,-4206,4210
21,-74,64,1531,-3261,4932
-70,26,64,1734,-2471,4711
-102,-94,24,256,-979,2890
-44,94,123,2021,-1133,1372
-54,-27,75,2495,-1510,494
-75,-81,42,2234,-370,993
-110,-77,-7,1753,268,675
121,-119,-46,2018,23,-25
-95,38,-66,2589,-7,-756
-79,-83,-73,2555,-28,-1182
-83,63,-60,1705,-164,-1219
-49,57,-52,600,-208,-1117
-36,0,-37,581,-389,-1015
-24,14,-43,-84,-406,-967
-26,10,-48,-414,-201,-483
-15,63,-78,-862,-159,-643
-3,76,-97,-677,-68,-372
0,89,-109,-239,-103,-162
7,111,-123,-215,-76,-108
57,41,-5,1646,3454,-6710
-121,20,-3,-912,4627,-7890
-18,-92,19,-7190,7662,-8298
67,48,-58,-784,4851,-3363
-6,102,19,-2704,5470,-3890
-89,37,94,-353,4988,-2864
-111,-22,-50,-1233,5089,-3430
-54,2,56,-1988,4743,-2975
-91,-110,110,431,645,-64
4,9,112,67,-1360,537
33,-82,-58,661,386,79
11,-55,-116,570,1349,1288
-128,-13,-61,115,-1687,2964
78,74,83,2091,-3242,3534
-39,-104,66,495,-6730,4144
-76,-116,-27,-1548,-8658,4333
-7,-124,113,-3398,-9819,3530
-115,-41,43,-2508,-9495,3180
42,-8,48,1947,2951,-3183
-58,78,2,2522,-2484,-295
9,-32,-9,-2767,142,120
33,51,-7,2290,-81,45
29,-124,108,192,-813,-215
42,69,-5,500,-129,52
61,64,-63,255,-1699,248
-109,69,-114,285,-1543,479
-62,38,-127,710,-1918,615
-13,81,-101,-463,-2404,704
53,50,2,176,-2689,933
-116,78,-41,900,-1888,580
-65,23,11,2770,-2838,1478
-38,56,91,2570,-2658,3603
-64,-114,-3,588,-3257,3795
114,-61,-75,2102,-675,3755
124,88,-66,903,-2041,1992
121,-97,-107,7566,-927,2052
-77,78,-54,-2603,102,-35
90,-5,46,-833,14,-296
-95,29,-13,4132,770,-174
-78,47,-118,3200,728,-1325
-63,-70,116,2016,210,-1630
-25,52,-70,2529,-419,-1339
11,13,-63,1803,-398,-1515
16,-11,-35,233,-420,-1587
19,-12,-44,-895,-339,-1008
-10,-9,-62,-1129,-349,-645
-33,10,-78,-831,-244,39
-16,46,-95,-594,-12,416
22,90,-112,-580,79,555
42,-121,120,-378,-51,474
-58,-90,-122,-3353,3771,-4289
-71,77,11,-523,1936,-5507
-27,0,35,-466,2176,-5053
-82,-67,9,728,4256,-4990
20,82,17,-1003,5973,-6583
-110,-24,-44,-1696,6491,-6500
95,-97,117,-1797,6570,-6217
-115,14,-85,-2737,6058,-5596
-124,21,27,-2640,4333,-4023
-110,-70,-35,-657,1524,-2056
73,-118,17,49,-684,100
-89,-57,-69,913,1734,490
-91,73,-9,892,1857,675
91,-118,-93,1364,-166,2286
-30,19,-74,2154,-2674,4254
-104,88,73,2,-4795,4832
16,-66,51,-1761,-7838,4541
-93,-16,-51,-4243,-9642,3497
-53,32,-4,-366,-10686,3647
-128,-104,73,-47,5062,80
96,41,30,2926,-1524,-2778
97,35,116,-278,-1143,494
75,123,23,-1060,-2549,221
-89,67,62,265,-2624,647
-57,74,-18,557,-2645,220
16,112,-47,168,-2417,471
87,113,68,-169,-3150,1270
91,107,123,102,-4092,1314
-63,-123,-49,592,-3374,1200
-42,92,32,2592,-2645,1364
-37,31,6,5844,542,837
127,-68,108,5096,90,3450
39,42,80,1530,-350,2777
-18,90,30,-962,-639,1038
-89,-9,14,-1284,-978,344
-101,-113,5,919,-728,379
-56,59,-43,2453,248,-162
-57,-6,-109,2643,503,-773
-47,-77,-117,2629,-42,-813
-14,112,-113,2438,-499,-1258
-12,26,-58,1498,-592,-1045
-37,9,-52,421,-364,-782
-23,9,-49,-440,-138,-483
7,18,-67,-686,-100,-274
19,39,-85,-356,-90,27
12,26,-88,1387,391,704
2,97,112,830,83,505
46,125,-116,-760,-207,-245
69,120,-119,-1007,-45,-492
67,120,-127,-915,44,-667
-108,-116,31,-3147,1256,-4372
26,35,20,-1247,2234,-5721
-57,-44,5,103,2491,-5994
30,95,-5,-18,4493,-5954
94,-92,-50,-1852,5430,-6142
-72,7,-88,-2103,6083,-5509
14,-32,-77,-2598,5935,-4898
66,-77,-72,-2308,5308,-3937
79,-103,-118,-2910,4366,-3341
-101,-98,-123,-3549,2862,-2385
-110,92,-60,-876,-712,-473
-122,10,26,203,-1366,155
-35,26,-94,1327,965,670
100,-49,-69,1274,1330,372
-56,55,12,1791,906,919
-54,41,-83,1833,-2359,2762
116,-92,-50,2513,-5075,3307
-127,-28,9,-707,-5211,4072
93,104,-59,-2091,-7770,4352
70,32,-80,-482,-6657,4472
-45,-66,47,997,-2469,1321
9,-3,-2,700,-614,-610
27,-20,-14,-405,-827,147
26,-100,-14,389,19,-142
54,-77,-24,153,132,-408
52,92,116,244,321,-242
50,18,-8,708,-1120,196
-105,8,-101,23,-696,408
-90,-16,123,121,-1346,435
13,-33,61,217,-2083,644
121,-8,59,-252,-2564,1410
107,-9,-112,410,-3466,2082
-125,12,44,434,-4286,2652
-35,-111,-9,-107,-4227,3499
121,-89,-38,2044,-2131,3498
3,8,99,1875,-2757,3393
14,48,114,3083,127,2342
79,29,54,2012,-743,1004
-26,-51,15,1397,-843,1165
-86,-88,-10,990,-113,770
-107,-103,-32,1654,216,304
-87,36,-67,3392,177,-400
-64,-40,-97,2970,35,-1093
-60,-113,-85,1575,-33,-1431
-59,8,-55,1622,-117,-791
-27,47,-65,42,-305,-1355
2,-15,-58,-63,-347,-751
-44,-7,-68,-582,-785,-143
-31,80,-91,-1644,-272,-208
3,101,-117,-1379,297,-679
111,-69,2,-1129,2350,-5468
-25,15,-1,125,3613,-5738
91,6,-8,-93,4833,-5906
5,75,116,-2694,4509,-5656
13,-52,23,-817,3121,-4214
-43,63,-73,-1122,3366,-4297
79,-8,-105,-1560,3769,-4208
30,-35,109,-1921,3916,-4147
-24,-38,70,-3110,5139,-4528
112,-46,-23,-4355,7119,-4308
123,-88,-78,732,2094,-1840
-111,-15,57,-179,-3406,1598
-73,-13,-73,-893,162,1653
90,36,37,421,3166,773
-100,-6,16,1154,-3249,3223
88,-110,-14,1388,-3769,4469
25,-96,-63,-852,-7965,4351
55,14,65,-2921,-8291,3572
-38,-112,74,-1755,-9612,2366
-117,-84,110,3424,-1063,4685
6,-115,15,751,497,-4397
-46,100,0,-1746,-1912,1684
89,107,-7,825,-560,-85
-106,92,-87,-443,-671,-56
117,92,73,-75,-1980,197
-66,78,-52,76,-1830,-143
9,55,-99,733,-2486,677
60,104,-101,-465,-2983,1065
80,75,8,586,-3824,1853
92,100,104,266,-4067,2139
-81,117,-21,680,-3256,2253
12,-76,20,1155,-2380,2451
-59,-5,6,457,-2009,1667
116,-12,-6,1446,-880,1500
41,-62,119,3396,-656,1208
-62,-54,44,1918,-1115,1032
-105,-59,38,807,-605,728
-88,-109,-13,1500,402,65
-77,49,-70,2374,494,-527
-67,-8,-99,2020,307,-916
-57,115,-89,2374,84,-939
-79,11,-83,3390,-160,-418
-31,-10,-82,2325,-161,-337
21,56,-62,-746,-68,-887
19,21,-62,-789,-87,-999
1,-13,-85,-206,24,-463
1,38,-118,-434,-61,-119
5,82,119,-699,-101,5
50,127,113,-652,27,-122
58,126,106,-41,-62,-211
29,41,-15,-1286,3288,-4233
113,-8,5,166,2751,-4441
34,-5,-5,354,3901,-4816
1,-3,-43,-389,3997,-5093
-75,55,63,-1611,4807,-4987
70,19,-111,-1445,4859,-4727
-43,-43,125,-1134,4611,-4123
-108,-31,-118,-940,4002,-3980
59,-48,-125,-1658,4145,-4072
-89,92,31,-2057,3952,-3754
-78,68,63,-2304,4123,-2863
-56,-39,119,-151,136,-1113
-10,46,25,122,-1297,-193
-97,63,-16,788,446,781
86,-125,-121,879,2481,1983
73,-82,-127,1883,-1258,4272
-83,-119,-65,796,-4385,5324
122,-128,-115,-3364,-7660,4656
21,6,-60,-1287,-9311,4104
-105,-111,51,-480,-9137,1615
44,32,100,-5049,-3414,2123
-95,32,19,4781,-356,-2119
-60,91,-31,-1198,-3229,1023
-24,108,126,-1326,-2985,52
60,47,-40,361,-2344,428
53,99,-38,55,-3754,644
-110,-86,-106,-344,-2644,306
103,111,52,792,-2997,1543
32,-124,74,669,-4552,1035
-68,-17,8,88,-1458,795
38,-120,106,2640,-2132,1580
-11,4,41,1066,-1602,961
-20,48,-51,126,387,-419
-117,13,-34,-314,215,-624
-72,-75,110,880,874,-82
-98,-100,5,736,707,-487
-87,41,-21,2522,558,16
-44,23,-63,2215,689,40
-25,-54,-99,2097,608,136
-30,-89,-100,2400,231,468
-19,-126,-108,2520,26,559
-9,82,-89,2537,-440,854
13,88,-75,1625,-162,714
21,115,-75,63,75,454
28,127,-84,-727,84,206
33,122,-89,-343,-79,30
55,117,-85,47,-55,-294
69,120,-87,-90,52,-564
66,105,-98,0,71,-522
63,99,-121,49,100,-384
-45,-59,21,-583,1567,-6307
-21,65,21,1847,2005,-6760
-124,75,34,-12,2846,-7639
77,-77,80,-889,3487,-7327
114,-89,37,-2839,4262,-6917
-76,-117,22,-2280,4667,-6257
-14,-111,-121,-790,4317,-5166
78,104,-2,-2119,4252,-5001
-121,-63,-67,-1716,2679,-4147
-61,72,39,24,-1012,-1462
115,103,51,-725,-1984,593
-48,-93,-73,-76,2732,-303
35,-113,-86,387,2766,912
-83,77,-119,-115,-1608,3873
-48,-25,-102,968,-2743,4695
110,-72,-2,-315,-5608,4644
-114,-2,-101,-3332,-6882,3891
24,-57,16,-949,-7390,2865
-42,-83,-99,-881,-6631,1522
32,0,76,-1983,-4311,2962
-79,68,20,-266,-3250,-594
-1,70,-26,840,-961,125
-16,-109,-107,-802,-2498,-103
31,31,-107,578,-2356,955
62,-120,-47,-287,-3173,1059
76,-92,-101,-426,-2707,722
104,-99,-24,-407,-2906,1114
-91,-122,-72,850,-2604,1313
106,68,-2,1621,-2398,2285
-125,-57,36,-43,-3061,2130
124,3,-6,967,-2862,1564
112,48,-11,982,-933,720
-2,-29,90,1997,-219,207
-54,-67,74,1361,70,593
-68,79,52,3796,191,482
-47,90,-70,863,-171,21
-72,28,-83,1384,-28,-84
-40,-20,-79,1472,202,-328
-13,-71,-110,1537,173,-288
-9,-110,-107,1414,-33,-431
3,-128,-107,979,73,-341
15,99,-119,617,45,-441
31,107,-118,75,-44,-349
28,109,-118,47,-19,-302
47,108,-113,20,39,-252
53,113,-119,63,-67,-262
54,120,-125,-45,-58,-212
72,-123,123,-73,1,-203
83,-117,122,6,-15,-95
93,-102,113,-27,-5,-164
-7,51,-14,1163,1856,-7084
18,-25,-13,1374,3786,-7898
8,-19,67,-2754,5958,-8607
-60,-19,82,-1861,5899,-7486
80,-1,-38,-2585,5663,-7056
42,-112,-120,-4350,5664,-6151
-55,-112,124,-377,4222,-3699
-27,-37,-27,-2569,2523,-3399
-95,-101,125,-2651,-941,-2184
-77,78,-96,-1705,908,-2034
36,-22,-69,1244,2784,-358
-34,-108,-97,341,1252,1506
-34,-64,99,2424,-1163,2613
-62,126,-27,3150,-2161,4878
111,95,-121,164,-5387,5415
-55,-83,-31,-2281,-8418,4236
-110,-31,-28,243,-11041,1629
79,-19,-73,36,-8300,2903
-90,117,18,3575,3196,-512
97,1,-12,1356,-3244,757
-82,-31,-94,-2677,-1693,635
-57,75,-38,681,-2818,711
-65,-89,60,-869,-1952,406
3,-104,111,-664,-2117,1159
-66,106,-101,522,-3875,973
48,-98,121,-78,-2839,1072
58,-80,-89,-348,-2751,909
-100,-105,-78,347,-606,786
49,100,44,1360,-2279,1608
-128,-83,8,1036,-1955,1428
26,-46,67,1495,4,1715
-11,-10,-65,2169,-61,534
-35,-43,-123,2203,1268,-223
-80,-53,65,1422,706,326
-121,90,18,2428,-332,692
-69,28,-21,1906,-118,548
-39,-40,-34,2106,-303,759
-32,102,-41,2948,-282,964
-24,89,-29,2208,-777,1092
-16,52,-29,1920,-660,410
7,48,-25,837,-205,-170
40,75,-48,-297,706,-1597
38,79,-36,-426,80,-840
42,32,-46,414,-241,-294
56,39,-67,138,-95,-115
60,66,-80,-536,-87,-151
59,66,-102,-352,-184,47
61,87,-111,-383,-216,147
82,103,-123,-347,-96,110
78,-125,126,-312,-144,14
-35,-14,26,1400,1247,-5596
10,-122,4,3025,2085,-6187
-116,48,29,1441,2938,-7346
35,-29,81,-660,-4611,6085
-26,-120,20,-2401,-5999,5389
27,43,37,252,-7511,5329
-26,9,-126,-4564,-10807,3470
-69,103,77,-1774,-5204,4017
53,-13,35,2315,19,-2839
62,113,-1,-1078,-1095,474
-109,82,-2,-149,-1729,473
-83,83,-48,267,-1248,542
-45,-106,-106,-848,-2901,1013
-37,101,88,-525,-2346,1312
12,-108,-96,-294,-3267,1595
-123,-27,122,1468,-1649,1051
3,-106,74,3146,-1580,1387
84,20,-107,1354,-63,230
-76,57,95,7108,-673,1714
-49,-19,-84,854,258,-866
-69,-99,-70,253,216,-392
-60,-55,-86,2096,-206,254
-14,-60,-105,1286,124,-43
3,-97,-111,1229,144,-392
-9,109,-101,1214,-112,-99
17,121,-113,581,50,-534
34,98,-112,301,32,-439
30,94,-116,142,-98,-430
27,100,-120,-51,-77,-261
31,111,-128,-92,-23,-213
48,112,125,91,8,-33
59,125,117,-11,-28,-13
68,-114,111,-232,-63,-13
81,-103,110,-262,-21,73
97,-92,104,-227,54,146
100,-82,106,-147,-96,177
95,-55,112,-264,-89,-195
104,-72,104,5,95,-430
109,-83,94,58,-13,-307
118,-77,81,-82,-17,-291
-120,-81,86,23,-12,-262
-124,-72,80,-240,-154,-144
114,-29,86,-719,-98,-184
-120,-32,90,-80,133,-197
-96,-41,79,368,75,-152
-78,-39,72,232,-113,-368
-96,-52,76,-35,-152,-347
-102,-56,85,-33,12,-252
-100,-68,86,387,50,56
-92,-51,67,127,113,69
