AccX,AccY,AccZ,GyroX,GyroY,GyroZ
-11,-121,-88,-5984,1148,-2723
-105,5,112,-514,928,-3905
54,59,116,1720,3093,-4603
31,101,73,-3062,6550,-6081
102,1,-23,-1144,8710,-4483
-41,-111,-24,-658,11909,-6650
-76,-92,19,-5706,13896,-11932
21,38,-60,3376,8231,-9237
-41,26,49,3082,8608,-4897
13,-95,38,-806,1928,1656
-15,-11,9,-5714,-4428,9973
-113,-82,8,-5411,-10641,10874
-42,68,-118,-8279,-13210,5656
35,85,-46,-3675,-9675,4916
83,-66,-79,2949,361,3551
67,27,93,-1547,-612,-2111
-115,74,55,602,1192,-973
-99,-53,100,292,-584,-89
-16,-95,13,1178,517,-1213
107,54,88,2385,468,-607
-100,-6,53,3530,-1231,408
43,-64,16,1790,-1886,1504
46,-12,49,-157,-1732,3003
21,26,14,412,-411,2749
112,-104,-61,328,-2104,4616
-85,51,-125,1679,-285,4808
-37,126,-116,1663,-843,7253
99,50,17,-2046,-30,4855
24,-38,-60,-2209,-125,1943
19,56,-38,1950,-698,4474
-4,-32,104,-976,150,1793
-109,-91,-40,-2244,768,-1949
95,-46,11,1079,-11,-1266
71,-55,11,976,-607,-413
42,-58,15,211,-541,-391
69,-102,0,483,212,-787
98,-121,15,23,21,-996
107,118,28,-388,-331,-882
105,105,25,-398,-169,-811
108,108,25,-457,-109,-550
90,109,12,-389,-148,-285
89,122,15,-434,-118,95
100,-116,1,-341,79,416
124,-74,-3,-476,-67,503
-110,-40,-6,-617,-25,324
-116,-30,-7,-274,-79,233
-109,-22,-9,-40,-48,188
-106,-11,-14,-283,-110,143
-105,-2,-10,-308,-76,37
-93,-12,-8,48,-18,-127
0,63,32,-5978,-3254,579
-98,74,-66,-8495,-96,-2452
13,-109,70,437,4726,-5284
117,100,76,1651,3252,-4405
-5,94,-127,-4514,6927,-4381
65,38,-99,-2311,8216,-4875
-43,56,101,-3276,13824,-7484
-117,121,-87,-1719,15256,-9344
-36,20,5,5713,9486,-7150
-103,-43,-65,4770,10202,-4622
-118,-53,-12,-5492,-2544,3121
-74,25,-84,-6626,-5023,9168
-34,-104,70,-8893,-12510,8996
33,-7,-60,-6304,-11260,4976
-57,0,-80,-2769,-9597,3779
-7,-16,-67,-3956,3727,-328
3,-113,-81,2701,-1902,-1732
-111,-81,19,369,1205,651
113,13,-37,-184,-830,-550
-93,100,110,2143,-126,45
16,-99,-9,972,139,-947
-55,98,32,861,-19,-2127
54,16,121,1389,-1690,410
-49,26,57,110,-794,462
63,96,-42,373,-2244,2825
5,112,-68,1313,-762,2862
-84,-117,-51,837,-1473,3591
89,-101,-110,906,-1038,4281
92,-111,-39,593,-2350,4622
-72,-124,-34,33,-1310,3615
-65,-55,-79,-1620,-162,3073
-102,0,-31,2459,-1730,4147
-98,-1,-76,903,-1261,2831
-99,12,-112,-794,97,1932
126,49,113,-1480,61,860
110,43,119,527,-420,-5
79,-12,42,10,667,-1284
46,-83,27,12,-43,-731
48,-125,31,474,-126,-610
64,101,31,696,-32,-679
97,94,11,-124,139,-997
104,88,25,-529,-128,-652
77,71,13,-244,-116,-294
86,91,10,-304,-58,138
101,122,8,-601,-50,168
120,-104,5,-683,-96,147
120,-80,1,-805,-205,44
-118,-50,7,-983,-213,-123
-112,-56,7,-168,-18,-145
123,-51,13,-56,-295,-18
-110,98,-111,-7856,-3771,157
-63,-84,78,-2675,-2073,-619
36,-89,-12,166,4973,-5809
90,-18,30,1433,2920,-5941
-29,-115,123,-2211,6659,-6243
27,15,41,-5427,10833,-6698
122,-63,-22,-4249,12592,-7834
124,59,105,-203,12671,-7892
-106,70,-82,1231,7796,-8788
45,-58,-9,2062,9716,-5085
-63,-59,-92,1077,1652,1139
32,-36,28,-6225,-6432,8515
100,90,-127,-5899,-11598,11630
-110,33,14,-8521,-15111,7600
-120,-68,-44,-3023,-8034,1542
18,-23,-54,-1774,-676,2050
20,85,-93,-442,-1458,30
-85,21,104,1249,555,-666
-76,42,84,-653,268,-349
-110,-70,-16,824,-194,-352
-58,-103,119,197,1726,-711
-122,-92,69,-12,-554,27
-91,118,12,110,155,-140
23,-77,-42,-339,38,-766
122,111,118,1254,152,-1993
113,13,-125,1723,-77,-1027
14,-42,95,1478,-781,525
-44,9,84,804,-2302,2013
11,17,89,372,-2590,2399
7,58,-82,613,-2204,4019
71,100,9,1553,-2943,4089
-19,-56,43,678,-1315,4383
-60,-119,43,1469,-1617,4522
-55,-70,52,-953,-1792,3937
-59,95,27,-65,-814,2598
122,-7,23,2487,-1410,3088
115,19,-50,1832,-864,2333
125,124,117,-864,382,430
95,77,70,-1728,481,-970
59,-86,82,818,23,-960
25,115,58,1612,-205,-500
50,-117,25,-167,186,-694
63,127,35,-944,133,-742
87,91,34,-501,97,-656
98,90,39,-66,-202,-696
80,82,35,88,-291,-641
77,87,40,-293,-193,-400
80,93,32,-332,-78,53
86,111,34,-395,-153,199
102,-108,32,-616,-61,227
75,-62,-13,-599,3488,-5181
-1,37,-105,1672,4252,-5100
-18,61,40,-1023,6455,-4443
126,113,-29,-1880,11026,-5071
-2,-69,-120,-3946,16036,-8065
37,-31,42,2758,14497,-7722
107,-125,115,2485,7456,-9076
117,108,39,998,6702,-1080
76,-84,11,-2050,-2021,5076
-70,101,-54,-4515,-8864,11520
93,-40,-5,-6142,-13986,8776
64,116,24,-5278,-9820,3961
26,-72,-29,110,-453,3073
-22,53,-105,-2102,-1180,920
-35,59,51,1007,323,-495
106,-26,-63,1355,-315,317
124,-18,124,-181,-602,-89
-67,-106,27,419,399,-372
-56,100,-12,1161,-350,94
-43,104,-74,309,-594,-199
14,-94,-72,4065,-1053,1376
48,-127,79,5038,-1290,2051
-8,-123,11,3378,-1224,2180
92,30,-3,-1803,545,1712
28,-37,35,-1029,185,2728
72,-8,28,-1311,382,3133
-116,46,-115,-130,-1160,3616
-13,71,125,89,315,3292
-61,72,126,-711,-296,3279
-38,36,113,-992,-192,3135
-27,55,-91,-1875,-976,2136
-41,-21,-99,-172,-488,2534
-37,42,-100,422,-336,1804
121,-16,99,1457,-329,765
76,-55,56,806,-91,352
71,-42,48,-764,53,34
76,-90,21,-185,351,87
89,-92,25,89,-80,-172
102,-100,18,-15,-115,-742
118,114,26,258,-74,-937
127,77,26,290,-92,-1017
126,69,28,-12,-200,-914
125,57,26,-132,-192,-697
118,58,23,-288,-181,-439
116,64,14,-347,-120,-154
118,77,12,-334,-121,103
-126,103,5,-361,-82,325
-113,127,1,-452,-83,385
-113,-102,1,-482,-143,386
-101,-78,0,-322,-40,304
-36,93,0,-10941,-2793,-1035
-112,-15,-63,-10362,-1459,-1886
-119,65,-100,1131,5208,-3782
-64,-71,-115,2927,1226,-3195
-2,-2,-114,-545,3566,-4264
62,-46,6,-332,6549,-3812
-70,96,-2,-7118,14679,-8120
29,-112,-27,-6485,15656,-6799
-128,21,67,5051,9690,-6918
-49,-100,-74,3589,12852,-5699
-63,121,14,1096,5601,-2078
-114,-37,90,-5355,-5977,7000
36,-64,-109,-5390,-8277,10094
73,94,-30,-7610,-14043,7919
40,39,123,-5982,-12676,7957
99,81,113,-115,2718,942
-6,19,-120,-205,2039,-2342
31,-96,-28,3860,-2199,1381
-68,88,-16,-1626,37,-764
-53,-51,-10,-264,-449,-376
-15,52,-118,1975,-676,-228
51,55,30,479,-20,-425
28,-17,43,565,-1349,1528
-90,-57,113,799,-3226,2926
40,-27,71,879,-1238,2240
-87,-82,-104,-984,-307,1838
-121,35,-107,3075,-1434,3476
-127,102,-63,2007,-1874,4351
-1,-20,-91,-1330,651,3230
-41,81,-122,533,298,3412
-62,37,-94,116,-895,3511
-35,22,-117,-1141,301,2324
-42,55,-76,-1370,24,1783
-92,-22,-118,1429,-498,1202
-107,23,108,557,-625,762
121,21,50,-849,11,-520
102,-53,49,-118,20,-455
94,-102,40,970,-8,-145
106,-121,22,904,57,-432
117,121,13,155,-3,-823
-127,85,17,-80,-157,-798
-128,63,18,165,-206,-562
124,67,18,-56,-287,-491
125,61,16,-142,-186,-333
121,78,32,-265,-350,-58
-124,77,25,111,-73,128
125,111,30,-134,-226,190
-126,-114,27,-736,-172,102
-118,-111,26,-510,-3,178
-109,-95,19,-200,16,266
-37,85,-120,-6763,-2548,35
-57,47,-94,-8689,-2473,-439
-114,123,-55,-4478,3637,-3354
-121,59,63,2487,4047,-5509
97,-103,5,1199,3161,-5423
-45,124,-42,-4680,9359,-6268
127,53,96,-2675,15726,-7596
-114,-114,-34,-3109,14333,-11503
-103,-74,-25,3071,8505,-8233
-9,66,100,2708,9662,-5326
-18,-49,-39,-1600,-1127,2115
9,1,-17,-4647,-3950,7282
-34,60,-47,-7515,-11803,8933
13,-30,-123,-6022,-14343,9163
126,-127,111,-4003,-7113,2512
0,36,-113,-839,-650,1456
-117,-46,96,3667,1679,-1357
44,25,101,775,33,606
83,-18,81,614,-940,443
113,-53,40,155,-709,-111
-46,-127,-44,1029,500,-636
4,43,114,2022,194,-57
32,-21,30,2078,-455,787
27,-49,19,709,-1057,2215
-21,-48,17,673,-1982,3335
89,-55,0,1822,-456,3330
112,37,73,480,-583,3665
116,21,73,937,-763,5071
-76,-83,101,-641,-210,4444
28,-107,-109,-1315,212,2512
-26,63,87,-1274,146,3050
-70,-1,-49,83,-1098,3239
-19,-5,109,-79,517,2364
-42,71,94,-1358,310,1044
-90,53,72,-679,-85,342
111,-12,51,404,-142,-278
100,-49,44,314,23,-334
89,-68,18,172,201,-9
92,-75,21,126,-34,-217
107,-75,29,-82,-73,-750
-127,-124,36,39,78,-1077
126,101,19,222,191,-668
112,104,10,83,-73,-265
-128,105,4,-92,-181,-262
-116,121,16,-380,-86,-237
-111,124,20,-436,-254,-163
125,-104,34,-537,-285,-9
-127,-90,28,-316,5,68
-120,-83,22,-120,-45,68
-99,-75,15,-66,-93,164
12,78,43,-11164,-3106,-2220
86,-85,78,-5756,148,-3827
-47,-24,92,1387,1909,-3242
1,-81,43,137,3949,-2767
-101,-16,78,-3708,10376,-3314
9,-118,-60,-10854,15612,-3559
-61,-24,109,-4710,16485,-6203
-99,-69,17,4828,11548,-6532
112,99,-120,1046,10732,-6974
-6,-128,-111,-1778,2999,145
-54,7,-125,-5615,-5030,8798
20,82,-2,-6804,-9759,7400
69,-46,124,-9231,-17240,4688
10,-44,-34,1341,-5511,2317
101,123,-22,-2846,-4085,3339
-36,44,-93,2510,1189,-1433
117,20,-66,2420,-231,300
119,81,39,-1176,-625,-501
116,-113,87,1540,-173,-135
-54,-104,7,827,706,-625
14,106,-69,1751,102,-1072
36,-57,81,3224,-510,164
-19,-72,80,3545,-1868,1866
-12,-113,7,2830,-648,1881
-44,-76,93,1380,-1113,3009
-24,-93,50,1478,16,3516
46,5,100,892,137,4386
63,108,91,-1280,265,3684
114,63,92,-399,328,3606
-118,114,104,-1208,514,3945
-106,54,-124,-370,119,3246
-67,69,103,-981,820,3020
-61,-22,115,521,80,2889
-66,-27,77,351,311,1765
-77,-19,39,-546,483,1040
-127,-28,36,-504,15,395
102,-67,33,230,-200,-247
90,-99,38,314,-253,-538
83,-127,25,102,-111,-542
90,120,27,-208,23,-424
86,99,31,-181,-139,-616
95,86,34,-123,-211,-591
103,80,34,-86,-213,-601
99,80,36,-234,-294,-483
109,96,31,-505,-141,-178
101,106,26,-571,-91,-94
103,124,26,-520,-104,16
118,-111,16,-414,3,132
122,-88,7,-615,-72,152
-124,-59,3,-774,-94,155
-3,-11,-77,-10029,-3422,-2008
83,-28,41,-3958,3643,-4891
-125,43,-25,3578,1137,-2996
-66,13,-18,-966,4852,-3934
103,-109,-26,-5870,12378,-5204
-101,-95,30,-6499,16724,-7124
36,9,2,-454,13780,-8076
42,-75,-25,2702,7883,-7855
-60,71,29,675,10598,-4915
-53,-68,-89,-2035,752,2802
66,7,62,-3752,-6108,9796
117,-98,-106,-5236,-13172,11218
-58,-15,-116,-370,-9440,8312
-32,-19,-2,-4335,-5047,3693
96,61,79,-6504,962,-1101
97,56,-116,1460,-2465,384
73,10,-63,631,88,-354
54,7,-95,-217,-759,418
105,-39,85,966,-27,-444
-121,-75,19,868,372,-84
120,-102,-39,413,-532,-245
-125,59,-57,1360,-139,137
-51,14,-118,1878,-131,181
42,-63,43,3657,-516,165
79,73,28,4362,-1433,554
87,-13,4,3530,-1441,1799
91,11,34,1561,-409,2652
44,70,22,-49,325,4316
101,-83,46,-90,570,5404
-54,59,99,-1424,1143,5056
-57,-94,-110,-876,126,4664
35,-24,-74,-3002,1098,4062
113,-63,-103,-1071,1052,3587
26,-41,-93,-1035,-495,1762
-56,-86,48,-1683,-178,-118
95,45,60,192,-460,2
33,-33,16,1283,-144,194
49,-20,3,284,122,-99
55,-53,4,189,44,-233
78,-95,9,343,-62,-489
86,-104,22,-28,-299,-666
85,-121,23,-243,-246,-777
82,118,26,-333,-239,-731
78,117,24,-367,-215,-518
83,118,19,-331,-102,-291
87,-127,9,-282,-80,-62
103,-116,6,-330,-81,84
112,-92,2,-539,-148,154
112,-63,1,-597,-172,124
111,-49,1,-500,-64,76
-12,70,-42,-6935,-2563,-2160
15,9,4,-5228,-115,-3543
68,99,8,-277,782,-3069
126,-33,-72,-1668,4085,-3043
15,30,-44,-2198,8839,-3068
-92,9,43,-6371,16371,-5636
-34,-109,109,-6630,16925,-8858
38,-53,-12,5260,10006,-7331
49,-123,24,-347,10871,-7446
-65,-70,-66,-1380,6168,353
-18,-38,6,-3967,-4328,8022
23,-96,-46,-5468,-10973,10879
58,68,69,-5976,-13593,6652
-60,52,-111,-2483,-6626,1026
-78,-52,10,-985,-2277,2187
-91,108,-77,863,-970,152
-3,13,-9,1338,-243,-437
-7,-5,-92,94,-673,46
23,-50,-125,380,-3,-240
60,-113,27,-83,14,-281
69,115,-18,-154,-69,-49
71,120,-6,5,-265,-72
69,84,-16,313,-205,197
87,119,-9,-197,-170,-147
87,97,12,386,-82,74
102,94,-9,457,-200,-125
126,65,-27,792,-134,418
-24,54,-56,959,146,58
59,-1,119,1628,122,-391
33,102,63,1991,-1019,442
-107,117,79,769,-1526,2439
115,64,90,2210,-1358,3202
-104,-68,77,2032,-221,4071
-89,91,-64,809,-1150,5610
-104,123,99,54,573,4129
-85,-76,-114,271,464,5258
99,-86,-89,-362,2,5183
-71,-70,-52,-853,239,4330
-9,125,14,-159,-101,3841
-22,-102,-54,-354,73,2802
-87,-66,75,-1802,185,141
19,6,39,-655,-531,-2393
-31,-123,81,1491,-963,-1034
-17,-86,76,-179,-266,-642
18,-110,73,-772,133,-764
43,96,72,33,108,-1015
49,88,74,10,-252,-881
47,70,60,-130,-167,-743
50,66,42,-268,41,-532
47,68,31,-344,-35,-235
-67,-90,69,-5447,7190,-8241
-91,42,88,-8387,13694,-10983
-36,10,43,-3965,13966,-11293
18,-126,-67,4161,6344,-10302
-104,-1,72,300,9919,-7885
-81,82,-1,-1363,2468,95
-17,-24,-128,-4927,-5876,10909
-2,-6,-58,-5781,-13074,13968
41,-95,-30,-6329,-15848,9795
78,-2,-120,-3423,-3590,2133
-97,-91,-37,4272,2665,247
75,16,52,-369,-1095,-676
108,-10,-88,1476,102,298
-58,33,47,-954,-234,-785
-30,-123,37,863,-253,-383
35,20,-41,2698,-444,214
-118,103,64,5303,-1480,1056
-38,-17,14,7309,-2520,2786
81,5,6,3598,-1859,3211
85,110,-30,-3330,258,1901
-24,99,-51,2213,586,3826
59,-3,31,115,1126,4547
-62,35,25,-1999,2785,3852
-52,65,15,-3653,2808,4307
84,-66,89,-4368,913,3358
98,-20,-29,294,-1213,4168
-95,4,-52,2341,-364,4250
66,94,94,690,-25,1366
-78,80,12,-576,-5,-1192
103,-78,50,784,-456,-879
73,102,51,1137,-250,-383
75,90,44,802,-138,-598
88,56,53,570,-256,-858
116,40,62,-24,-194,-804
105,29,62,-374,-351,-815
117,28,66,-495,-216,-720
107,27,50,-410,-149,-561
107,39,48,-441,-154,-358
121,51,42,-408,-58,-43
-122,75,29,-188,3,4
-105,70,18,238,-9,118
-108,98,6,-391,-142,272
-107,126,14,-531,-199,473
-99,-117,12,-88,-31,366
-91,-102,4,0,-37,104
-87,-91,-9,-238,-107,112
-84,-84,-9,-358,-139,157
-72,-74,-3,-211,-170,104
-76,-62,3,-17,-204,-149
-74,-67,3,-76,-114,-387
-79,64,-34,-5518,-550,-1975
120,-100,89,-1627,-660,-1767
80,-12,123,-680,-1246,-2543
-33,-79,29,-4475,4144,-418
-89,42,53,1040,9234,-1764
-15,-101,-37,-3637,14997,-3863
-81,94,107,-14071,19380,-2290
62,-64,127,-3303,15692,-106
52,76,-39,4411,13743,634
71,73,-126,5584,9853,-945
72,62,-64,-2179,-6117,3607
111,77,-93,-3243,-11544,11488
-105,12,99,-4812,-21065,7039
-53,42,-106,-3983,-4872,1894
3,103,88,-205,-5529,2913
-126,-21,-94,2702,1301,-399
61,43,-21,1171,-963,-64
123,18,125,-244,-774,85
-40,-103,59,1106,-4,-693
13,123,-62,1065,-492,-1190
74,-35,-126,3215,-81,-221
48,119,33,3785,-427,1177
18,101,-81,2518,-65,2711
91,107,24,-2564,-1315,3461
90,64,95,522,-663,3886
-120,-75,32,741,-1790,5236
-49,45,-107,369,-376,3877
94,-46,4,2030,-1539,4638
-59,12,-66,-1670,917,3703
121,-35,77,-2114,302,2253
113,-13,111,187,-1527,2348
-121,6,-53,169,-1697,1930
-83,7,10,400,1482,1228
101,82,17,-1374,521,-436
84,-19,29,-391,-355,-1147
77,-90,35,816,-395,-761
78,-104,28,394,-126,-887
72,112,16,731,72,-675
70,99,17,264,-119,-657
83,96,9,-350,-122,-471
90,97,14,-522,-177,-274
88,102,5,-492,-79,-109
93,-125,2,-692,-162,132
104,-97,-1,-812,-42,234
118,-65,0,-817,-93,208
-121,-47,-3,-357,-39,87
-124,-41,3,63,-148,59
-120,-31,-6,-91,-33,23
-119,-24,-13,-172,-103,-161
-115,-32,-14,-139,-83,-214
-107,24,118,-8004,-4572,183
116,-2,46,-7030,3948,-5819
-106,27,-27,885,1653,-3461
-122,55,-13,-435,3186,-4494
0,-91,-55,-3979,8402,-6018
81,-72,-67,-7680,16845,-7364
-48,116,84,-2073,16082,-9909
-35,38,12,6066,8623,-8377
-35,-71,-127,637,9306,-6477
-3,-124,-108,-971,948,1109
0,-35,125,-6134,-7034,12739
-88,2,-87,-8819,-11602,11661
91,49,-36,-8063,-11964,9302
36,80,-35,-4844,-710,2594
31,106,-39,-1934,-1334,-1148
39,-49,-76,1442,409,-376
78,51,-90,300,-466,-410
96,75,-86,-1003,-1193,-40
-120,-12,-77,930,174,-216
-90,-66,83,1231,195,-468
-66,-121,2,1168,-273,-178
43,19,121,2477,-688,-180
40,-21,69,2021,-993,78
36,-79,72,1975,-1393,878
22,-94,104,1477,-1789,1722
-14,-115,57,2153,232,2387
53,-31,69,1649,43,3822
-45,121,38,-477,932,3684
117,88,89,425,-746,4143
36,127,37,-299,492,3668
-109,-105,105,-1392,-398,3404
-117,86,52,-1451,287,3496
-117,49,122,-427,-682,3135
-102,0,-82,-362,-600,3177
-48,34,-107,-833,327,2206
-65,61,-125,-1086,110,927
-102,49,91,-855,216,-587
110,-39,63,732,136,-954
89,-106,43,1411,191,-1000
99,111,3,1096,300,-858
107,86,7,483,22,-836
114,64,20,303,-222,-570
-128,44,24,160,-227,-555
-118,51,33,-251,-247,-482
-124,55,35,-404,-312,-356
125,71,53,-529,-400,-267
-119,72,37,91,-193,130
-126,95,50,353,-243,113
120,105,14,-28,-128,332
121,-128,9,-598,30,329
15,59,121,-7182,-1766,-1295
49,-70,-112,-2677,1023,-1386
-6,-79,-101,360,824,-1031
-67,-9,-79,-1094,-2037,-1794
71,60,121,-1296,408,-4448
87,-3,104,201,4362,-5277
61,39,-61,-3275,9696,-7306
-104,-65,47,-6066,18305,-11345
-11,51,-67,-1480,10251,-11432
78,22,37,1226,6190,-8695
2,-75,-71,675,9177,-3523
-43,76,-116,-359,3285,360
-112,-48,36,-5640,-5635,7998
-43,47,73,-5851,-13096,12006
89,36,111,-8019,-18050,6023
115,-69,-103,-170,-2601,1352
105,-118,-13,171,-1374,1337
-92,114,96,-779,-1075,-278
44,-82,-57,1544,-539,257
105,27,-71,-154,385,-437
110,-55,-80,456,1020,-541
105,107,35,883,-313,146
-87,85,-78,1125,929,-464
-26,28,-119,2036,550,-13
78,26,64,2652,-518,65
-108,-18,75,3583,-1878,77
117,-102,73,3655,-1922,1624
-3,-101,-6,1288,-202,1543
-119,-111,-120,2768,-1420,4793
91,-79,32,2086,1368,4765
58,-102,99,-299,701,4888
-101,-86,56,-1144,1063,3836
72,115,-57,-421,191,4648
-24,-24,68,-2252,1698,3727
-86,62,-115,132,-31,2356
-99,2,-127,374,-59,2813
-84,14,86,-114,554,1789
-119,4,62,-399,233,738
94,-18,63,-223,-227,-394
78,-96,44,893,-58,-752
64,-121,39,482,-95,-1009
69,89,36,221,-134,-850
73,67,45,121,-326,-732
85,48,48,46,-291,-725
105,41,67,-148,-386,-715
83,24,55,-22,-304,-585
60,37,60,-513,-411,-244
80,64,36,-730,77,214
92,94,30,-551,-29,247
106,115,21,-372,-82,359
25,-94,-94,-10616,-3535,-1950
-15,62,21,-3163,2191,-5274
-16,-108,-92,1889,779,-4273
46,12,-91,-2229,5425,-4777
-123,102,21,-5986,11448,-5626
-90,113,105,-7287,18428,-7764
68,-35,-24,1732,12939,-8803
6,-8,-9,2733,8109,-9063
-69,80,-95,1797,9807,-5671
-66,-109,-71,-1302,-3133,1565
-67,-21,51,-5210,-6130,12570
0,-115,-73,-7836,-14490,12950
88,-109,31,-5768,-11026,3862
-125,-40,75,-2985,-3612,2612
-53,-35,114,610,-177,-805
-111,-126,72,1744,282,-641
-51,-29,106,35,-987,-21
45,-41,-126,-319,79,-222
59,-86,106,100,-505,-53
-112,63,1,668,387,-25
-98,50,-71,870,-527,397
5,43,-125,1518,-623,329
99,-89,4,4694,-1172,1192
60,-6,6,6484,-3980,3342
116,64,-49,3880,-909,3173
109,30,33,-605,459,2679
-21,-60,27,1960,958,4176
-53,72,0,1670,2160,4800
48,-115,17,3411,871,4246
-83,-107,-41,-1228,2856,1678
-126,55,-32,-2580,2024,2162
67,-57,100,-1898,69,2260
-81,-22,65,-3343,1080,1998
-71,-29,57,-2782,420,1475
-94,24,84,-1515,-407,665
127,-1,49,212,-126,-272
74,-58,47,1243,-214,-717
61,-75,14,938,-74,-444
63,-81,15,100,-179,-419
83,-111,38,-135,-321,-678
98,120,40,-7,-199,-864
101,106,50,-92,-233,-896
96,81,34,62,-77,-660
95,83,37,-118,-211,-416
101,79,22,-66,53,-111
100,102,14,-383,-90,170
107,117,14,-406,-7,391
121,-120,4,-183,127,436
-114,-92,-6,-202,5,374
-104,-80,-7,-136,-44,331
-111,22,-59,-7424,-4666,-1860
103,98,-16,-2888,-654,-2331
83,-9,34,-1088,5422,-3347
29,111,-35,-3811,13312,-3659
-9,11,-29,-5360,18444,-4037
113,62,11,-1254,14277,-4575
-110,-54,61,2816,14313,-6439
10,101,26,5653,11494,-7057
-8,70,64,-63,2608,-1911
-40,-37,81,-2956,-6830,6619
-69,77,-124,-5408,-8739,9090
-104,-67,97,-7141,-14498,7319
-81,-107,31,-4757,-10554,5827
68,54,-81,-5592,-5646,2618
3,46,-128,2011,2021,838
112,97,72,2426,1371,-2556
80,33,-102,-1225,-209,420
107,-14,-116,-433,-938,187
-113,-96,80,1119,-107,-268
-73,-83,-11,439,472,-550
-15,-120,-80,1133,-32,-872
37,-67,75,3986,-319,-678
65,107,12,5941,-759,571
41,-80,-72,3781,-1177,2093
62,51,9,-274,-1784,2590
-92,46,-29,-132,-98,2417
34,64,99,962,-1491,4845
62,-55,101,-711,-791,4437
38,-78,86,-1697,-428,3457
55,-68,98,-1519,-282,3694
-123,114,-66,85,-806,3770
-55,119,-70,230,-238,3397
-48,83,-95,420,112,2556
-65,85,-116,188,22,1947
-84,-100,106,-1746,-10,137
111,0,43,259,584,-1618
69,-118,55,1881,80,-1069
62,111,3,1383,247,-596
83,110,-12,453,383,-272
95,85,-15,177,74,-364
113,80,-9,-235,-310,-266
116,82,0,-286,-314,-296
118,89,17,-378,-330,-206
113,100,18,-357,-318,-43
101,127,27,-612,-432,-104
113,-109,30,-780,-234,-110
115,-102,25,-602,-122,9
120,-86,17,-495,-96,63
-120,-62,4,-487,-76,52
-114,-53,3,-338,-96,15
-36,90,55,-11003,-5913,2306
34,-58,-114,-9158,1444,533
-40,-70,-97,3995,4512,-4154
37,35,96,4328,3465,-4993
30,104,113,-4812,12911,-4552
-91,29,-19,-5402,16976,-6375
60,26,-46,-3594,17396,-6587
-65,-82,93,1017,8252,-7333
-113,-10,-70,-1406,10127,-5613
-81,-38,-82,1524,5272,1574
82,-49,-90,-1381,-5397,7223
-60,-35,-68,-2728,-10777,10177
75,-39,28,-4698,-8601,6303
-63,39,-14,-2788,-6827,3827
83,14,-120,-2454,-2407,2400
110,94,-85,-951,-2842,1236
-103,37,42,650,129,-541
87,-5,-58,298,-370,-3
-126,-70,97,286,-204,-123
-74,-116,41,1102,-195,-102
21,53,-79,2133,-107,-27
95,-56,56,3511,610,26
-85,68,12,3644,475,1237
28,-72,31,-394,-1713,3032
92,49,28,-102,-1276,3668
-96,-128,-73,147,-2038,3631
-48,30,101,-275,1133,2349
62,-25,-89,366,-870,3326
28,-62,-86,-263,-1351,3442
83,25,-119,-2747,-610,2605
21,104,-21,237,-1311,3431
80,36,-120,814,739,3051
100,-26,-66,999,-429,3614
-15,-17,102,973,872,3123
-84,101,77,-1642,-350,711
113,-1,2,-1792,-12,-2154
85,-92,47,275,-254,-1152
80,113,40,943,89,-800
90,121,9,111,139,-480
103,122,5,-463,-61,-663
120,93,17,-7,-229,-572
119,86,12,165,-240,-511
113,82,19,168,-218,-370
106,88,8,-64,-273,93
113,111,0,-457,-227,54
119,-115,23,-689,-442,-119
121,-116,20,-465,-130,-142
116,-107,26,-383,-142,-6
126,-100,16,-281,-40,192
-117,-77,6,-306,-54,184
82,-55,88,-8056,-4006,202
-50,-4,-81,-8572,506,-3315
-50,-21,-34,1760,2986,-5281
7,36,46,2193,2697,-4825
48,-111,-57,-3186,8012,-6058
-117,87,-63,-1201,19096,-12713
-94,-35,35,6337,3419,-12587
122,35,-58,-3414,3539,-15584
-56,-24,-41,-1211,9716,-8204
110,-83,56,-2283,254,4543
39,6,114,-7002,-6723,10212
-46,116,108,-8230,-12281,10008
15,-96,-80,-8210,-10891,5948
-123,25,64,-10067,-5628,-1478
117,-11,12,5006,-1713,773
-8,111,-82,1226,4235,-2330
-75,27,-22,418,-1277,-137
9,-77,-102,508,-2262,958
-93,124,21,1929,-732,156
28,115,110,2405,161,-560
13,2,71,3987,-1047,542
-7,111,-4,4707,-1918,2050
25,98,-26,3123,-1667,3112
81,-66,0,1129,-830,3000
-73,-28,19,1064,-80,3260
79,-128,85,-1197,-508,3654
-121,45,23,235,479,3785
-44,-83,112,-1358,175,3731
-63,78,87,-1227,172,3028
-63,33,-95,-589,-582,3635
66,30,-82,166,610,3256
28,105,127,-288,700,1947
-81,89,49,-629,136,110
-126,29,30,-645,-48,-269
98,-14,10,119,229,-6
87,-44,-16,950,287,117
109,-53,-24,768,-23,-403
-118,-95,3,650,-333,-956
-104,94,35,1210,-294,-1280
115,47,34,865,-560,-1111
94,47,37,-180,-341,-703
96,46,23,-589,-117,-63
101,64,21,-832,-128,3
109,105,-12,-1282,-134,284
-124,-67,11,-2374,-511,201
-84,-60,-13,-1046,378,-125
-106,-55,11,325,-448,-220
-104,-39,12,-150,-334,-450
-122,-42,2,-396,-125,-248
120,-48,8,-299,-150,-35
116,-96,34,-4743,-9522,2049
-80,36,9,-5797,-1168,-1581
119,-110,86,-563,8888,-5102
-119,-32,-48,1861,6814,-5266
-64,77,-108,-1485,8413,-6430
-70,-43,61,-5016,12781,-8314
-35,-32,-19,-869,11554,-8371
-27,69,41,693,9243,-8807
-60,-85,17,696,9720,-6092
86,-29,-108,3495,6620,-2368
90,127,89,-2872,-6222,2857
-89,11,-56,-4819,-6451,9870
-18,126,-62,-5608,-11519,8495
16,-119,34,-7504,-10232,6440
103,-13,-92,-1176,-9296,3725
6,25,34,-3902,2,-191
-82,19,-88,2669,1466,-188
68,-47,-77,2889,-1185,111
124,44,85,-1369,-686,261
-54,-81,35,146,-834,-322
-8,86,-33,1127,-86,-510
15,16,91,1739,271,13
83,-38,-24,2225,-548,1051
-7,-70,41,2984,-2993,3273
106,-67,27,3121,-2445,3928
-22,-38,70,-1262,-1172,3012
-102,-67,116,-288,-1628,3100
-118,64,-103,2309,-1601,3700
122,122,-87,196,-821,3237
-122,73,-67,-266,-375,2993
-106,26,-58,660,-66,3608
-28,9,-115,1207,633,2918
-51,73,86,-668,889,1257
124,24,34,-625,454,749
80,17,34,-938,-107,93
88,-2,38,-777,105,-628
94,-86,27,423,367,-547
86,-85,9,218,192,-491
95,-81,-6,-495,97,-573
108,-102,-1,-177,68,-530
116,-121,-15,371,42,-650
-123,126,-14,161,-210,-874
-119,105,-2,-44,-338,-808
113,102,5,-250,-458,-642
106,102,14,-410,-406,-413
101,117,22,-469,-298,-12
-111,-122,52,-560,-148,336
-102,-77,40,-795,119,608
70,16,46,-1525,-442,468
66,43,2,-1434,282,-213
4,-120,63,-7044,-1929,-2927
-78,-119,0,-1147,-61,-4527
107,77,-115,-72,724,-4592
117,82,15,-4845,6521,-4654
-23,-73,91,-559,11396,-7185
-25,22,97,-9106,14276,-10349
-123,-48,96,13,8526,-9675
4,60,-112,1278,9610,-7537
111,58,-57,2342,8813,-5831
1,125,-111,4249,266,561
43,-101,79,-5287,-3393,5478
72,-5,103,-5935,-4673,11015
-105,-97,-41,-8622,-14385,10467
-35,103,13,-5851,-4418,3771
-124,-72,76,-2985,-4407,1829
-23,-116,64,371,2254,-1718
61,-62,-34,2925,-420,1841
67,5,-65,-852,-657,-188
125,-122,5,475,-779,882
-22,66,-68,1903,-401,714
106,-89,85,3030,-602,194
-122,93,-34,6995,-360,2213
-62,-113,-11,1736,-150,5416
54,14,-13,711,1479,3801
-29,110,9,-206,-227,3808
-53,-73,-38,-1449,680,3587
83,-47,99,-3091,-1718,4096
-61,89,-38,-2143,1169,3266
-123,78,-98,-1923,-673,2610
-52,24,110,-994,394,2846
-11,43,-117,-915,-138,3569
0,-121,118,-1984,-212,2433
-61,-63,74,-2639,-226,285
-112,114,49,-837,268,-855
75,27,53,1101,17,-592
74,23,25,1047,-22,-548
95,-4,-6,792,248,-623
-125,-57,-7,733,34,-983
-111,-90,13,550,-344,-1206
-107,-116,26,4,-331,-1487
127,104,28,-429,-156,-1269
105,102,8,-427,9,-462
100,113,1,-368,-66,16
127,-109,-11,-647,-20,316
-103,-72,-2,-849,-108,374
-101,-51,-9,-599,-109,154
-106,-35,5,-337,-279,139
-110,-31,4,-79,-46,272
-109,-18,-7,-124,-51,208
-89,-8,-8,-332,-166,259
42,24,61,-4970,-2793,-322
-126,47,100,-2788,-6265,-3269
-49,85,102,87,-1,-3462
99,78,93,-2456,3858,-3433
-127,68,56,-6065,8712,-3496
56,-100,-54,-13112,16799,-4598
61,-7,-17,-10916,18113,-5337
70,-12,-126,2014,17851,-3470
74,-60,-68,7202,11838,-3470
19,-116,-21,-3756,-3141,1895
-80,-32,27,-2455,-4512,8423
82,-92,25,-5396,-9317,7946
-76,-83,-81,-3281,-11054,6466
4,-112,-102,-5171,-10641,5967
32,-52,-4,-3199,-4207,1448
25,94,-94,85,3349,-602
-82,-77,32,3038,367,-1595
24,-58,46,477,-949,386
-101,-46,-9,-792,-832,-496
-84,57,-50,1644,-930,-399
-18,15,85,2329,-551,-148
47,75,49,2084,-1166,932
58,119,6,1049,-2292,854
23,95,38,975,-2129,578
-98,45,-109,1664,-2251,2375
3,11,-121,1387,-1499,2664
12,75,-111,603,-1061,3855
72,-101,-53,-837,-624,3918
103,-111,-16,-1107,-1031,3253
-98,86,60,1828,-1269,3985
-52,38,-64,2149,-257,3375
-29,56,-116,185,240,3156
-46,58,103,-1057,66,2270
-109,71,116,-689,-703,1462
98,27,83,757,-261,313
73,1,51,1113,157,-235
44,-26,36,581,-104,-388
39,-52,44,56,-134,-527
56,-96,39,399,93,-818
85,-124,37,291,44,-1119
113,91,42,170,-42,-1257
115,65,36,86,-58,-1240
109,49,37,-46,-133,-1043
98,38,27,-148,-128,-585
88,52,23,-413,-170,-135
95,68,13,-547,-130,126
107,99,7,-592,-90,356
119,118,3,-328,14,648
-127,-106,2,-373,-98,673
-114,-63,2,-474,-100,548
110,93,-79,-918,4356,-3118
125,121,-127,-1215,11645,-5716
126,-47,113,-2285,15733,-8609
-98,78,36,-4498,14970,-12211
83,-125,-74,465,6935,-12330
29,-10,119,-472,5884,-2339
-77,-78,36,447,1661,4796
13,26,126,-4758,-5976,8242
54,-67,15,-3873,-15979,10781
3,-24,-118,-4873,-13500,11941
74,-28,-49,-1026,887,-2170
-100,24,-6,497,814,-1004
75,18,93,568,229,-634
73,-72,-99,-508,-365,374
-105,-23,-79,146,-1253,-53
-27,-125,71,1808,-787,-138
95,94,-114,1370,-230,-777
122,-10,98,2053,-203,104
110,20,60,-387,-740,277
86,-126,97,-412,-2046,1004
-33,53,-109,1991,-3339,3045
108,57,-84,3292,-493,3288
-116,-77,-93,1696,43,3331
-128,16,-102,-1638,-1205,3042
96,8,-9,-2032,-1214,2812
106,120,17,-562,-1560,3310
-127,27,118,28,232,3477
73,-54,-13,-3687,-1786,2406
-86,53,-8,-251,-875,3199
-68,73,33,1659,-1469,3568
-94,-112,-127,176,-658,829
106,65,64,-256,246,-1248
82,-29,44,609,646,-883
76,-84,28,829,274,-682
96,-103,10,706,120,-803
-123,114,4,610,119,-1055
-106,82,7,224,-119,-1039
127,76,33,-92,-610,-781
112,63,25,-226,-388,-580
97,92,35,-913,-455,-369
120,100,27,-866,-61,-56
-122,116,37,-546,-220,262
-118,-117,29,-120,-157,524
-112,-80,20,-490,-163,443
-99,-60,16,-626,-133,423
-104,-43,19,-440,-156,523
-100,-24,16,-358,1,468
-97,-7,4,-86,40,255
-83,-6,-4,91,61,-18
-80,-12,-15,94,-15,-224
-121,-27,-91,-2765,4865,-4407
-121,32,122,-9476,12283,-3847
118,4,74,-4243,16588,-4134
-47,-10,13,-1791,13606,-7341
-53,9,-114,2186,8782,-6720
16,-96,41,2121,7256,-5172
57,-50,52,-2486,4125,3673
22,34,37,-3813,-5425,11972
-63,6,-39,-8393,-15459,9487
-49,-26,5,-7344,-12289,2888
32,-32,-111,-262,-365,1517
49,-1,-68,1011,-1632,834
-97,-23,25,420,1458,-1567
90,-57,-70,327,-893,619
-93,-83,75,600,102,-570
-23,-110,24,612,331,92
47,121,-27,1656,-476,-443
104,38,-109,1800,-195,137
-114,33,116,553,-805,1421
34,27,-111,-124,-2224,1743
-11,38,56,1290,-1837,2120
78,76,79,1282,-1113,3017
-19,-121,-102,474,-1901,3568
121,57,-118,1357,-1134,3942
-101,102,-126,-544,-268,4434
-111,101,-71,-2052,-666,4366
-24,49,-77,-115,-261,3698
5,47,28,-109,-1750,3951
5,92,-15,-1216,-967,2728
-30,-83,-54,-1794,-151,1424
125,123,-126,395,375,-510
77,42,91,552,-42,-1221
62,-31,40,122,254,-1332
83,-66,36,325,455,-666
93,-116,11,836,311,-824
123,119,10,545,-39,-1028
-123,83,49,843,-9,-868
120,38,19,933,66,-612
106,64,30,-473,-261,-577
110,69,25,-824,-256,-92
117,70,22,-330,-68,139
118,105,21,-239,-176,424
-122,127,11,-338,-88,490
-112,-97,15,-502,-263,449
-106,-78,13,-302,-157,369
-110,-61,19,-223,-213,244
-105,-60,20,5,-101,211
-104,-43,20,-82,-126,49
-90,-60,15,270,29,-68
-96,-57,7,-41,-113,-136
102,17,-51,-1804,2146,-4114
-37,29,-44,-3234,4268,-4248
-27,-22,-125,-5828,8910,-5317
-99,-77,-62,-3597,13618,-8419
-92,-80,-100,-5563,17559,-9947
125,-119,27,5867,12120,-7802
-102,103,104,-653,9061,-2490
-86,-35,11,-5612,-5726,4750
90,55,1,-5104,-11121,9855
-2,-106,6,-7377,-19931,8733
-61,-43,46,-3018,-2951,1518
115,23,5,-1021,-5309,1383
-41,10,-126,1617,3769,-1413
30,75,-11,207,-1158,-133
101,-58,100,-6,328,-68
-128,-90,68,534,-560,185
-54,116,-7,191,-49,-16
6,31,-117,850,-447,450
89,10,30,1558,-857,1258
78,-15,-6,1018,-2077,2372
108,-60,46,1932,-2154,3323
-39,121,-117,140,-2036,3512
-84,-63,-108,-398,-1487,2396
-93,-76,-27,-88,-1552,2968
-77,-116,-84,-241,-432,3075
-128,-116,-34,-170,-943,3357
-120,-119,47,-657,-931,3412
-37,76,12,-348,6,2507
8,40,-28,33,-379,1894
-56,70,-117,-603,-442,1498
-99,17,92,-409,-30,384
127,-43,52,666,78,805
98,-51,34,735,-382,796
109,-39,17,262,-93,485
113,-30,39,205,-330,77
-120,-90,43,1275,-185,-360
-108,-84,64,181,-495,-1190
-99,98,75,-241,-374,-1707
118,96,62,-729,-83,-1072
84,73,44,-429,-61,-781
94,84,24,-433,10,-157
112,120,19,-727,-15,55
-113,-120,13,-451,34,85
-93,-79,6,-619,-86,36
-87,-72,11,-275,-85,-66
-85,-66,8,-202,-172,-70
-91,-48,13,-370,-131,-168
-96,-58,16,-62,-140,-54
-94,-47,13,-227,-118,-6
-90,-44,18,-138,-115,58
-105,9,15,-3923,2998,-4082
111,107,21,1249,4980,-6240
69,-15,110,387,3786,-4621
126,47,65,-4509,9233,-5063
111,-120,106,-7988,17015,-5951
-98,-52,-38,-1137,16624,-7825
1,73,30,3463,10406,-8190
-24,-17,-63,-264,10405,-2792
-8,-18,117,-5041,-1959,7215
-17,58,-18,-3511,-10043,8673
111,-14,-59,-9642,-17815,7051
8,-53,-11,-5448,-8096,880
-14,-18,-35,-1483,-3356,688
80,110,-43,3182,2464,-873
26,-65,9,726,-1591,778
83,-81,127,594,159,164
117,-47,126,434,-501,-85
-110,-103,59,408,140,-36
-44,61,-87,2028,-330,-222
111,67,59,2180,-1334,269
-119,-30,11,3052,-1462,-24
-110,80,-9,2962,-675,1835
95,96,7,2644,-1124,3396
110,-19,15,1104,-1732,4550
-47,-56,69,-665,-463,4273
-70,-97,-43,836,-203,4256
-14,-16,-109,-853,1082,4511
-97,23,-37,-2205,140,4579
-65,-48,-43,11,-593,4540
-37,-124,-49,1302,-601,3219
-56,-34,120,-2457,-891,1245
118,-62,80,-2571,-191,-561
46,17,33,144,450,-968
50,-8,54,-124,250,-1932
65,-104,29,793,318,-1210
69,-123,28,655,-51,-629
89,-126,5,-153,24,-827
93,118,16,-476,-187,-713
82,123,11,-788,-153,-707
103,115,10,-465,-4,-605
87,117,15,-196,-334,-303
90,125,15,-207,-437,28
69,-79,-10,-1066,-638,155
84,-55,-18,-1050,-10,340
109,-56,-11,-32,343,517
-127,-25,4,192,-2,467
-119,-10,-3,59,-216,100
-115,-16,8,-34,-323,-7
-125,-26,7,31,-1,87
-126,-26,7,38,-11,109
-1,49,69,-6621,-2468,-1493
-75,-20,6,-3969,-897,-1093
85,-77,70,-588,-34,-2238
-88,-5,23,39,1041,-2806
88,32,94,-1921,2910,-2483
126,-127,37,-2358,5407,-2975
19,-33,16,-1821,11076,-5244
-17,-75,-102,-3114,13868,-8184
45,94,93,-1983,13088,-10822
-59,121,-112,3194,9399,-8724
-93,-113,-93,659,9078,-4704
54,-68,-18,-2134,-2610,3905
-64,14,-60,-3963,-4240,8655
27,108,106,-7294,-15701,10815
-48,49,17,-9311,-15157,9176
-89,-96,-128,2086,-2459,1396
2,82,-57,-2311,4253,-1122
-102,35,69,1660,-38,-994
89,-58,-112,692,-343,430
-106,-26,118,-721,-708,-106
-61,124,84,1175,210,-138
-21,116,-12,753,104,-383
51,78,-109,1309,-478,-241
38,28,96,1926,-1198,210
84,-25,59,3089,-596,620
120,104,119,441,-268,702
-27,101,108,92,-2364,2010
2,116,-95,638,-2766,3266
124,89,94,1525,-769,2766
53,62,122,286,-1359,2955
118,58,-15,-2458,-785,2817
84,95,-24,-2628,-1671,4119
-69,-93,86,-855,-2020,4092
43,62,36,1340,-1115,4201
-19,-114,47,25,-1931,3480
-72,-57,-74,-1380,-910,1134
101,-102,99,-1494,46,-791
38,60,111,-15,5,-726
26,0,98,1298,94,-360
55,-35,50,1564,408,-463
75,-63,26,1164,381,-769
102,-90,21,501,223,-1058
121,121,21,-71,-12,-1249
117,88,24,-73,-79,-964
106,84,17,-223,-127,-618
102,92,10,-478,-164,-327
103,106,9,-535,-169,20
111,124,8,-431,-125,195
-127,-101,5,-387,-85,303
-121,-80,6,-429,-192,342
77,94,-122,-5733,-1529,-2005
83,-77,-112,-2039,614,-3168
-82,104,-122,-501,514,-2797
-33,100,81,-1359,3083,-3151
-39,-61,114,-167,5211,-3158
0,28,24,-2381,11837,-5936
4,84,114,-6017,15833,-9538
-107,-13,-34,1987,11812,-9981
-96,22,125,1642,8546,-8819
-21,-12,-83,-14,7014,-2888
83,-28,-70,-4076,-542,2588
-12,20,10,-3793,-10314,8305
-100,64,-34,-5721,-20060,6273
-107,111,70,-3064,-13784,5185
101,-93,51,761,-612,-399
-96,87,-65,794,764,-245
-125,-68,122,1732,693,-558
83,-49,-82,-497,-502,423
-70,96,126,1606,839,87
-121,67,-5,3364,-47,-179
-70,-11,-7,3811,-110,579
-102,-124,-101,6313,-763,3653
-118,125,-43,4302,-1644,4885
12,90,104,-1214,-1660,4182
-36,20,-32,1250,2649,4405
99,-50,84,-1598,-13,4846
66,-88,120,-1855,113,3671
-120,-53,116,-1700,323,3835
6,-117,-94,-1596,-1094,1413
-102,-17,103,-195,-234,1897
-123,13,93,-600,-436,2318
-128,88,105,-1625,-641,1120
-119,103,84,-1385,-41,139
110,54,98,226,79,-532
69,-32,57,1512,304,-942
80,-63,18,1193,437,-1083
96,-102,-1,744,333,-916
94,121,-15,146,-31,-831
92,111,0,-189,-366,-746
121,83,-1,15,-45,-576
-126,101,-4,-456,-267,-407
123,111,-9,-670,-327,-311
124,125,-5,-685,-301,-173
126,-107,-1,-663,-273,-30
-128,-89,2,-503,-194,63
-114,-78,0,-345,-139,170
-126,-51,-6,-479,-183,295
-126,-35,-8,-470,-125,342
-116,-21,-14,-359,-67,334
-101,-2,-14,-348,-131,331
40,111,40,-6415,-1373,-1085
-83,95,31,-899,3377,-4610
-101,-62,100,3381,2276,-4480
-105,-22,113,405,4639,-4325
-71,-83,-67,-3450,8641,-4793
-29,31,45,-2230,14332,-6994
110,-111,-102,-4657,17380,-10345
28,-57,-8,2608,8696,-9647
94,12,51,682,10977,-5454
-86,-26,60,-987,373,2399
81,-7,-82,-3142,-8404,10332
-121,30,68,-3196,-20419,16510
-55,92,119,-6540,-5595,3592
58,-105,30,502,204,1476
-109,74,-111,-85,-2131,238
-107,-121,101,-78,629,-670
41,-45,-122,521,-255,276
124,1,84,-170,138,-441
-123,106,-16,128,-593,443
-7,-127,-106,280,-381,-94
108,-61,14,1921,152,515
80,123,-6,2060,-1091,1496
-82,94,48,-629,-2511,3221
-85,-121,87,839,-1969,1893
108,-27,-16,-238,-2377,3102
72,-51,-35,707,-1967,2664
127,23,-30,-573,-1303,2902
-57,25,34,134,-1398,3189
-122,-19,-33,-3052,-913,4285
-32,-92,13,-278,-2247,3228
-51,62,27,3020,-1921,3561
-53,96,-106,2247,-113,2549
-125,-96,91,-912,-169,271
77,51,60,-786,91,-507
20,-29,65,416,-180,-173
49,-54,27,325,285,-406
35,-53,15,79,-3,-440
85,-67,29,-133,26,-743
127,-119,13,409,283,-849
121,-126,18,191,-264,-1069
-122,107,21,-60,-89,-1063
124,82,15,-187,-125,-848
110,80,17,-230,-239,-408
103,85,-1,-220,-183,-62
88,101,-5,-403,-119,207
103,124,-5,-447,-127,580
121,-99,-5,-371,-1,838
-107,-49,-2,-853,-143,719
-97,-12,7,-712,-230,546
-85,1,7,-332,31,202
121,110,-38,-6060,-2451,188
90,-119,67,-4928,2739,-4017
-89,32,94,2609,4414,-5716
60,-34,87,1577,3941,-5442
67,86,-3,-3926,7951,-6308
32,-12,49,-3198,12130,-7463
-63,-90,-34,-4148,14610,-10642
-76,-5,-78,663,8319,-9684
71,-35,82,-1413,10490,-5216
114,23,-90,-789,2549,3026
-15,-3,-112,-3865,-8006,8199
-29,5,85,-4949,-15748,9539
73,-42,-25,-6152,-10826,3502
46,103,102,-1674,-5948,2541
44,-121,-36,-547,-151,-453
-56,44,-78,1215,956,-859
4,-91,-86,854,17,275
93,-17,123,-805,-295,-283
-100,83,27,1073,-726,416
10,61,-110,1863,-418,68
52,45,81,2006,-1174,171
53,-36,31,2204,-1560,1387
50,-19,48,1892,-2283,2791
119,-1,55,1553,-1858,2845
-115,111,96,242,-1149,3380
37,70,-118,1335,-1582,4209
-54,-112,-128,1095,-494,4418
-101,-80,-104,-755,-545,3325
-73,121,-70,-1561,-489,3873
-2,14,-69,449,-151,3600
-1,31,-31,98,-391,3393
-27,111,-65,-1568,-254,2148
-84,-90,-105,-1553,-269,851
113,91,100,-353,189,-910
72,-26,82,1552,476,-466
69,-35,25,871,437,-522
84,-63,0,104,176,-598
111,-103,-1,532,-33,-622
114,-112,0,232,-299,-876
118,124,14,-98,-251,-937
-128,108,17,-173,-203,-1003
126,87,24,-161,-244,-888
113,88,24,-344,-343,-505
97,110,33,-716,-334,-206
86,125,22,-516,10,128
96,-117,21,-309,-59,489
118,-85,8,-660,-32,692
-112,-28,12,-982,-143,733
-99,-3,17,-622,-85,482
-77,8,20,-121,7,226
99,-98,85,-6451,-2595,-2577
112,-120,-109,-44,3451,-5054
86,76,81,3204,2996,-5055
-108,-58,14,-1771,8265,-6500
-120,102,-111,-2668,13218,-7896
-122,35,29,-1855,14557,-12647
83,50,18,1298,7580,-10607
-96,92,-36,-747,11152,-5544
118,92,-57,552,4075,2706
-115,22,98,-2738,-6227,8513
-4,-73,-32,-2860,-10552,9929
99,-13,-90,-6081,-14809,6505
31,58,52,-2201,-3809,1641
-105,-97,-42,34,-3306,1932
-28,68,66,1592,3016,-1315
-10,-7,-114,140,-1468,261
18,121,34,440,-567,628
-91,-99,-3,650,-301,221
-37,28,-100,1677,-400,200
36,14,65,1321,-492,452
116,-65,26,2257,-1375,1034
105,125,-24,3403,-1514,3075
113,-105,29,2006,-1257,3705
71,69,29,-301,-437,4071
99,110,90,492,-854,4823
-38,-105,98,753,461,5112
-56,-100,-112,199,-285,4270
21,-76,96,-2403,811,2962
-30,24,-125,-1825,-196,2616
-17,20,-113,-935,-188,2819
-59,80,-120,-502,-254,1824
-113,89,89,256,-96,312
118,66,58,-372,23,-653
85,27,64,-258,-24,-529
50,-31,39,571,155,-419
78,-46,15,572,460,-930
106,-96,5,827,292,-1146
127,92,-2,1079,81,-1215
125,78,20,470,-342,-1031
119,54,15,68,-223,-697
107,65,30,-569,-376,-449
94,72,22,-771,-217,-105
96,94,34,-683,-115,221
120,123,25,-367,-81,608
-123,-88,29,-607,-222,585
-104,-64,29,-417,-79,397
-117,-53,9,-53,36,251
-120,-49,0,86,45,181
-101,-54,-12,150,18,165
-72,-48,-15,-130,-55,123
111,61,-111,-5135,-2920,-374
-20,8,126,-11396,1382,-5409
48,54,-98,-250,3786,-4382
-25,39,-22,-736,7366,-4989
-25,21,-90,-1066,13413,-5933
-57,-66,-21,-2811,16317,-7374
-110,-101,117,1902,10849,-8335
-40,108,7,3467,8852,-8539
-19,75,8,2265,9292,-7070
-36,-71,-111,-3059,-4620,5809
100,13,16,-6673,-9781,12132
-50,-47,51,-6059,-20185,13767
102,102,116,-2779,-4584,2661
-96,-2,-68,-2775,2026,-484
-97,64,114,2920,149,-212
22,21,-6,384,-61,-582
72,-15,48,-110,-96,787
-64,-88,-16,1197,315,-339
25,34,-112,1673,-192,711
52,-1,65,1993,-1471,1121
-122,-38,26,2230,-1081,2488
98,-16,24,169,-2022,2408
48,-29,1,698,-1270,3140
-69,68,90,958,-1007,4351
-79,36,67,2774,112,4555
-99,-32,111,-1554,377,3588
-67,-117,107,-1759,403,3320
-51,24,-91,-1060,248,3624
27,-54,78,31,1269,3926
120,-10,-126,-249,-124,4291
77,-97,72,-3960,40,457
-2,118,0,-2788,549,-794
119,15,98,591,-578,-679
100,-10,73,1304,-444,88
80,-10,34,765,-177,-420
112,-59,57,987,-150,-545
-125,-66,52,30,-174,-1052
-111,-87,55,-799,40,-1399
-109,-121,49,-408,309,-1382
-120,108,26,47,196,-924
122,124,19,-196,-43,-421
127,124,-2,-186,132,-236
-113,-96,-10,-688,-7,31
-97,-96,0,-222,-51,291
-84,-64,-9,-564,-103,264
-80,-33,-4,-690,-167,200
-74,-24,12,-426,-248,263
-73,-9,14,-329,-174,219
-80,12,28,-323,-284,102
-72,3,27,-1,-103,43
1,-18,20,-5950,-2117,988
3,-56,-125,-9658,355,-2080
126,9,-97,6432,4820,-6991
57,-53,-31,5559,1073,-4108
-18,61,14,-2721,6962,-6109
7,90,57,-3308,10885,-9474
-83,-42,61,-3039,15046,-12495
-55,-121,-96,3907,9186,-11838
-63,-22,8,3512,8606,-6698
9,-30,70,-1161,2445,970
89,-10,18,-4277,-6362,10982
-68,4,18,-7750,-13605,10712
19,115,-74,-6456,-14740,12116
64,-10,10,-2668,2867,-3268
-25,-11,-64,2512,3136,571
72,0,-65,2996,-1782,-46
92,68,-36,-1508,34,229
-125,-57,57,-241,-358,-297
-82,81,-9,1710,-522,478
-29,73,101,164,-289,-49
-17,13,107,1141,-1346,751
2,-128,61,4469,-1971,2063
94,97,-6,5947,-2393,2826
-79,-12,125,865,847,152
-52,-62,0,2633,276,1636
47,-33,18,1626,-155,3475
42,75,6,-762,815,2986
119,-3,-15,-1043,1310,2653
77,42,89,-2494,194,3785
-118,-8,6,-3044,879,3062
-75,-70,78,-2838,360,3475
-12,-95,-78,190,-569,4588
118,-70,-93,1657,1120,3881
78,-62,68,-1413,1017,1716
-85,108,22,-1690,-255,-1466
-125,-19,19,-476,-111,-1447
75,-73,14,555,25,-275
57,-94,-18,1444,274,110
94,-95,-50,971,274,-564
-93,-128,-28,570,-224,-881
-78,89,-2,363,-746,-1168
-86,75,20,-127,-720,-1295
124,61,19,-767,-711,-1279
113,86,27,-1565,-668,-1075
106,91,18,-1323,-289,-780
99,112,28,-922,-253,-254
95,-126,24,-292,-59,298
102,-100,23,-144,-104,602
-120,-55,11,-362,227,653
-103,-32,-1,-514,113,646
-77,-68,111,1089,1631,-5551
-11,50,-59,-538,3171,-5545
118,30,-92,-4060,7619,-7152
105,91,-8,-2314,10282,-8324
46,-89,116,-2754,14083,-10225
-38,-46,56,1506,10328,-10759
71,-97,44,1622,8873,-7869
-74,29,-10,769,2923,2345
22,-23,123,-5419,-6210,8204
-86,90,-64,-6306,-14321,12039
46,0,117,-2936,-23034,18271
14,119,16,-12113,5203,-4255
92,8,11,7841,1830,-688
-105,60,-94,533,-817,-856
90,76,-117,-1482,-4,78
-93,-44,-118,476,-91,-512
-102,-104,40,388,-280,-63
-35,100,-76,267,466,-193
9,87,-111,1128,-759,200
52,26,64,2089,-1307,299
67,0,27,1581,-2420,1719
51,42,17,581,-3320,1993
71,126,114,488,-1646,2207
114,109,112,1135,-1273,2491
72,116,96,761,-1118,3060
48,-106,-38,212,-1473,3834
-127,-105,-90,-223,-499,2775
-122,72,-49,1522,218,3167
-29,-114,-108,-594,100,3043
-46,62,-103,-7,-988,2526
-68,-22,-97,711,-1276,1869
-84,-26,100,408,-164,583
116,-55,74,420,227,0
68,-110,62,522,15,-15
67,-123,43,180,165,54
80,-114,35,-241,166,75
70,115,35,256,9,28
77,114,18,455,162,-32
99,-126,6,-31,167,-451
-127,81,1,383,81,-611
-116,60,-9,274,96,-753
-120,53,6,34,-197,-465
110,59,7,-107,-288,-88
113,70,4,-222,-101,-265
-126,70,14,-221,-165,-173
-114,61,8,212,-121,172
-119,100,18,-373,-409,147
115,123,17,-673,-265,78
124,-113,22,-939,-92,182
-112,-77,14,-1111,-41,158
39,-108,13,-5553,-1520,-1372
59,-94,6,-1023,2626,-4720
76,105,-105,3054,2630,-4992
-4,117,8,652,4689,-6714
-21,-22,-112,-4451,16933,-14363
69,33,105,-1740,13497,-15589
-17,93,-59,-1460,4058,-12435
-25,15,-24,-3377,9478,-4608
121,-7,8,2602,3542,4949
-40,-23,-23,-4403,-9648,9159
-8,31,-80,-5520,-18000,12911
-109,-29,-89,-3779,-9969,3264
38,50,-28,-1083,912,2089
-23,-58,90,2522,-69,-1122
102,89,-74,-7,365,-107
20,-42,94,-427,-919,416
125,-37,113,-106,-133,-145
122,-81,50,328,-90,113
-88,-89,-27,-115,63,8
-60,63,-80,1175,-689,409
15,51,108,1315,-266,267
55,23,65,1300,-905,436
83,-30,36,1859,-1016,1750
89,10,106,756,-2489,2484
43,-22,45,236,-2496,2818
-126,-128,-109,-910,-2483,2887
102,54,-74,1128,-1135,3703
-100,120,-27,1040,-1089,3667
-41,-91,-103,-141,-550,3059
-80,101,-42,12,-929,2927
-60,-38,120,1810,229,3422
-49,24,-123,647,-160,3132
-57,38,61,-504,423,1838
-105,22,72,-561,-175,998
-124,-19,69,316,-158,764
78,-20,53,523,-45,274
38,-40,35,634,72,-215
39,-73,28,728,72,-407
71,-126,19,700,-10,-771
75,107,10,286,-9,-1113
-128,57,28,-241,-557,-1201
-127,53,-6,-363,-459,-621
53,77,-12,-753,-744,-656
80,76,-10,-1032,-158,-735
-105,83,24,-1195,-53,-246
-122,125,25,-983,-36,33
68,-111,-8,-161,-20,-324
107,-115,-3,-100,-13,-90
105,-86,-17,-508,-42,75
123,-77,-22,-364,-53,128
-109,-59,-60,-2280,3687,-3438
-15,-67,48,-1801,6933,-2201
-61,-56,121,-2039,13318,-3947
93,21,51,-5463,18136,-5773
94,79,32,5848,12718,-7047
55,-14,60,4689,10526,-7697
-74,-108,42,1198,6235,-3112
-78,-24,44,-5159,-3834,7200
84,-75,10,-4331,-6121,6991
-4,-96,-6,-5139,-17089,9879
115,-88,-80,-6877,-11465,4383
-22,-24,0,-2475,94,-733
-57,125,-31,4338,1053,952
93,26,-55,132,-763,-773
79,-111,127,-655,257,321
107,-92,115,120,-975,505
-100,-105,72,474,162,-252
-89,125,16,707,580,48
-40,91,-12,1131,-274,146
20,-43,-75,3381,-106,542
98,116,39,3549,3,1281
113,-77,45,1823,-740,2155
-7,-95,-48,690,759,2327
-115,-30,98,-1909,-1565,3676
-126,-22,38,-1177,-731,4849
-105,-102,-97,-297,-1551,4400
-55,-46,-51,-1182,-1678,3870
-106,115,-73,49,-992,3632
-31,60,-43,372,-665,4245
9,-79,-5,2809,180,4524
22,-1,114,381,1343,2372
-41,-61,51,-5009,528,-96
-119,69,9,-3239,-5,-1353
84,-18,84,-363,-660,-998
43,-102,71,1981,-100,-337
47,-98,31,1636,185,-457
55,-113,-5,546,261,-736
93,125,-4,-194,110,-525
98,105,8,-76,-282,-433
105,93,16,237,-181,-458
99,57,16,867,165,-170
92,100,-2,-451,-335,-116
99,127,6,-1286,-384,-366
108,-128,20,-975,-141,-253
115,-121,12,-394,61,-16
116,-94,5,-449,-163,83
-123,-64,0,-659,-85,-32
124,-55,-3,-544,-121,120
-126,-33,-2,-537,-449,82
109,-17,-13,-669,-1320,358
-52,95,17,-5161,-1392,-2286
-69,61,-54,1037,3248,-4882
65,-3,-21,995,1660,-4509
-4,-124,77,-4746,8232,-4354
24,-25,-90,-4054,14938,-6139
103,82,29,-1854,18379,-10055
-88,-70,88,4136,9419,-9540
75,87,37,358,8590,-7427
85,19,-35,437,1307,903
-126,-23,-6,-3796,-6965,9188
75,32,53,-3885,-13718,12071
45,88,-12,-4662,-13018,5314
-48,35,64,-3235,-5913,4028
49,43,-57,657,1460,-176
-45,79,95,2134,-185,-943
82,-14,-59,-186,63,-18
117,-70,-92,186,-132,-297
-89,-90,105,839,276,-185
-78,101,-5,1142,469,-76
-34,88,-94,1155,-330,165
-12,7,123,2458,-821,781
31,46,97,1323,-1318,818
4,-9,34,1911,-684,1065
11,27,-105,1512,-1295,1871
43,18,15,1062,112,2215
34,49,118,1235,-1314,3230
88,50,83,484,-158,2512
56,85,-112,106,-869,3131
104,-117,-105,-340,-405,2812
118,80,-112,144,86,2018
-125,24,126,279,505,2660
-93,18,99,-240,253,2160
-120,-50,78,-554,-42,1653
-123,-53,84,-720,-165,1928
-99,-36,64,-28,262,972
116,-75,40,370,96,296
99,-107,47,-13,45,233
88,-119,36,-383,-30,216
100,126,44,-473,70,86
108,126,51,-380,16,-21
112,102,37,140,132,-188
114,111,47,-177,-131,-167
124,120,33,-442,66,-219
126,120,32,-460,65,-321
-126,116,22,-280,51,-196
-124,-128,17,-238,-67,-222
-116,-124,16,-215,-52,-215
-109,-119,17,-183,-65,-198
-105,-112,18,-162,-153,-206
-98,-111,26,-132,-65,-213
-81,-79,-45,-7248,-2953,-1562
-77,50,-76,-2402,3722,-4584
0,-4,117,2416,1251,-4551
-102,100,50,-1998,4292,-5446
-87,-65,-17,-5464,12183,-6968
-118,63,80,-2167,16987,-8155
-120,66,4,2908,11469,-9808
-11,-120,-32,1757,7201,-8867
17,-83,44,1866,8096,-4444
-22,-81,-29,-892,-2201,1560
-109,-15,-28,-3886,-5642,8008
-24,-73,105,-4410,-10877,9800
49,-46,-21,-6253,-12939,7744
-62,-39,-51,-2300,-7958,2836
-95,5,-69,-3203,-1086,1421
-67,-62,-109,4787,2193,-917
81,38,-60,1436,-288,-338
56,-12,65,-832,-313,260
112,-123,25,1182,-569,171
-104,-121,-27,1046,-491,113
-78,127,-76,938,-57,-280
-76,40,-99,2585,-679,648
-30,-16,117,3302,-852,785
14,-21,61,2323,-124,968
33,-96,15,2372,-478,1389
54,-33,65,553,-1614,2193
42,113,-47,1795,-160,2447
32,46,100,-689,-1239,3626
85,-44,-3,469,722,3094
46,73,109,593,364,3880
-95,-85,90,-2590,759,3160
112,47,113,-394,120,3122
-69,-15,-113,-338,165,3391
-8,-15,104,51,886,2571
-29,-44,105,466,368,1995
-76,-45,55,-155,306,1220
-122,-45,52,-289,-45,536
117,-85,37,331,38,183
94,-108,35,397,-65,-170
87,-127,29,219,-94,-448
89,98,32,280,-61,-556
92,70,36,271,-143,-543
98,58,35,139,-168,-568
104,56,37,-189,-168,-519
112,53,31,-424,-114,-420
104,59,27,-426,-166,-312
113,63,21,-341,-101,-219
125,78,15,-375,-165,-41
125,97,14,-441,-127,-8
-127,114,11,-395,-103,24
-34,-4,0,-4778,-2897,479
-93,-19,-46,-7037,-2287,337
-73,-58,-72,-5979,3928,-4084
77,-71,22,-2071,8043,-8666
-124,-56,22,3000,7521,-6326
0,22,-29,3851,8019,-4694
-105,-49,-110,-2340,9505,-9533
44,-90,-122,-4745,6715,-12119
-50,66,117,-711,5261,-8741
-5,119,33,560,7624,-3141
63,-27,74,-559,2176,2695
106,-5,-1,-3679,-5738,9987
39,-99,-25,-5979,-13825,10487
-23,-51,105,-4608,-12424,6844
25,101,-1,-5640,-5484,4587
126,-24,-73,956,2084,260
1,59,116,1622,1059,-1748
115,-14,39,-202,-640,109
-92,-60,-85,3,569,115
-79,-67,87,1204,-216,-237
-61,-106,-33,1176,19,-404
-73,84,-107,1303,-814,420
-34,99,-123,604,-1326,626
-7,31,99,1246,-1418,401
40,-7,102,2836,-894,944
49,27,125,2105,-1109,1460
43,23,53,1431,-844,1670
60,-13,-114,2595,-1121,2989
60,71,80,-62,-660,2351
68,-2,107,1231,-145,2568
-105,75,75,-832,814,2266
-123,23,84,-567,556,2459
-88,53,-110,-984,-651,2805
-101,29,-96,-1438,-960,2453
-84,43,-93,-1409,-317,1977
-114,-27,-91,33,-380,1709
-119,-14,121,-13,-94,1634
123,25,97,-955,-214,1097
120,1,64,-218,191,371
116,-21,46,542,207,-98
100,-62,17,889,284,-482
104,-119,-11,1017,202,-559
102,120,-21,516,-43,-612
111,101,-13,140,-176,-505
115,86,-3,-69,-363,-392
124,82,16,-109,-455,-379
125,89,23,-315,-372,-311
-128,103,37,-627,-353,-305
111,118,41,-742,-300,-87
107,-122,32,-625,-50,-52
-90,-115,-26,-5428,-2779,-188
-96,-17,-94,-9191,-3914,778
80,-1,-68,-4318,3966,-3289
34,67,34,955,1432,-3224
-75,-22,85,-2705,4097,-2618
59,37,-88,-6069,7501,-1582
31,-101,69,-2451,12977,-3653
116,42,-30,-4287,16522,-5169
64,51,61,-646,13491,-6705
-127,-17,-1,4889,12844,-6739
84,-100,-20,428,4613,-1072
-100,10,35,-4760,-5495,6928
84,-74,65,-3855,-8836,10850
-109,39,-104,-7034,-13910,8035
-19,-76,-97,-3547,-5135,958
-125,49,22,-3586,-5156,3276
75,-60,38,3134,5718,-2203
-57,-51,-87,1241,-3218,756
89,-24,19,-555,-426,760
-118,-94,67,2083,-333,-7
-103,-112,-31,984,-162,65
-88,85,-64,467,-318,720
-48,43,-80,1748,-659,950
42,-21,117,2192,-150,1447
104,-76,-10,492,103,730
60,-78,67,536,-1343,2991
93,-39,79,-709,-1603,2475
107,2,-83,799,-1801,3471
-97,101,-67,281,-862,3148
-95,86,-55,273,-336,3416
-98,-105,-71,-741,-602,3162
-49,102,-26,-404,-412,2781
-92,24,-103,-912,-227,2785
-88,89,-101,-2655,-449,1656
-85,19,126,-1047,-382,1808
-96,-5,119,566,-143,1292
-107,15,81,72,-24,953
92,3,60,38,-265,689
79,-43,54,1437,-119,830
84,-35,40,1295,-91,536
86,-39,19,451,-23,-191
121,-62,38,165,92,-593
107,-113,44,409,-237,-866
125,112,47,324,-54,-1174
-120,82,39,16,-67,-1175
119,64,33,-358,-277,-977
125,62,27,-472,-161,-758
127,64,22,-460,-106,-484
-124,78,18,-395,-123,-35
-108,99,14,-399,-45,123
-18,-103,-8,-4061,-6355,1871
108,-87,-71,-4900,-1214,-4822
-47,87,82,417,4781,-5964
-56,66,123,-2505,5503,-6451
-90,-51,104,-6402,7552,-7999
-6,-103,71,-6373,10738,-9629
-3,-107,-90,-4264,12665,-10622
84,-40,-63,2177,12818,-7017
-13,-35,-128,2708,6856,-4176
-108,-66,-85,-2559,-1347,4511
41,2,94,-3026,-8419,11345
-74,55,-81,-4967,-12780,10910
0,101,23,-2295,-7218,7056
99,85,-104,-1426,-3346,2376
66,6,-117,-3762,-512,1135
-37,76,42,5078,976,-875
102,-60,108,1861,-61,650
-117,63,-32,-2299,-494,166
-84,103,-15,1665,-579,95
-49,55,-124,2412,-78,96
-48,-68,19,3909,-1478,352
-57,127,45,3313,-2247,1715
-33,-122,31,1410,-537,2043
45,-71,36,454,333,2267
117,3,19,-851,455,2215
92,-90,17,998,-418,2761
-98,-26,17,615,-23,2553
-83,25,45,-576,318,2885
-102,-51,40,588,786,2979
-47,-10,66,-221,726,3251
-5,-47,46,-607,918,2421
-51,-32,109,-1314,-68,2139
-39,-62,39,-1407,805,1265
-79,-51,46,-1410,183,861
-85,-58,37,-1125,-113,545
-128,-49,27,-579,-402,546
100,-52,31,155,-401,382
80,-64,30,674,-289,474
72,-35,19,158,-96,203
81,-47,19,213,-49,-123
99,-67,18,280,-34,-465
112,-96,11,187,-40,-844
119,-127,5,175,-2,-1058
-127,103,3,133,-16,-1038
126,83,-3,-8,-91,-895
-127,85,-6,-296,-120,-698
126,86,-12,-469,-126,-498
-124,101,-16,-615,-94,-239
-123,118,-20,-602,-94,-53
-118,-119,-24,-557,-84,65
82,65,79,-8105,-3331,-891
56,99,117,-8552,3906,-4562
18,-71,-82,3978,1794,-2840
-118,44,-82,2492,1817,-2538
-81,-48,23,-1635,4271,-2729
-51,61,-77,-4017,8130,-3506
-122,88,31,-4812,10918,-6293
4,-86,-63,-2490,13164,-8464
-107,90,-78,1115,9567,-9365
-68,-79,-100,2293,6413,-7257
106,12,105,-881,5835,-3007
-89,-109,-82,-1617,1835,5078
69,24,-82,-5628,-6337,11906
81,108,-123,-7893,-16116,12086
29,5,72,-6746,-14420,5262
-50,-13,-84,1280,5118,1225
43,-123,-71,131,-960,-77
40,23,53,84,-2129,-511
-77,-69,-47,320,849,131
-71,-54,-69,677,-922,-121
-28,101,19,566,285,-469
-27,27,-59,1520,-234,309
-13,6,-126,1609,-1090,830
18,-87,67,3135,-1355,1913
85,-12,108,1075,-1060,2258
81,-38,72,-619,311,1724
53,-124,110,2052,-93,3637
-44,43,107,-375,-232,3186
-55,21,-84,296,-700,3329
-43,30,114,-620,-513,3521
-81,-34,-51,297,-938,3259
118,-91,-90,1212,1053,4901
99,56,-115,-974,1011,3771
-12,115,117,-2526,-450,1006
-77,25,55,-1367,-500,-251
-111,-1,36,-1451,-359,-344
67,24,44,-2177,-879,-625
36,-34,79,-401,-677,-450
51,-32,70,1025,79,369
63,0,43,83,304,-285
80,-48,30,156,60,-590
96,-71,22,282,34,-805
103,-90,15,16,92,-918
108,-126,1,84,98,-826
107,123,-8,-112,36,-685
106,124,-17,-418,-48,-483
125,-119,-14,-543,-91,-235
-126,-109,-18,-442,-93,-179
-123,-98,-16,-362,-170,-141
-127,-86,-16,-305,-194,-11
46,83,-107,-6549,-1133,-3191
99,126,-63,-363,3711,-6027
115,122,50,8464,428,-6435
-77,117,-95,-4924,5702,-8436
-108,-45,14,-2752,6655,-9830
-30,57,-119,-6939,7745,-14505
76,26,95,-3099,7698,-12239
-115,-50,-124,919,6891,-6114
-80,-120,-12,3953,5073,-1903
-102,-53,-24,-3826,-512,6915
109,-111,109,-6888,-7629,8601
105,-84,-37,-6655,-14480,9306
-33,46,111,3001,-8597,3870
-66,-87,-109,2418,-3652,3497
-100,-27,-60,-1536,1552,148
119,-47,-93,2140,-563,543
-44,-24,37,-473,1511,-162
-101,5,-8,2714,-1155,646
9,-16,106,1032,933,767
18,-116,79,2107,-727,1743
82,-94,43,1566,-1306,2694
-65,-33,49,706,-2,2515
-117,2,69,195,-586,2565
118,17,60,72,-143,3051
-34,96,69,-434,211,2850
-50,55,50,-119,214,3689
-50,123,94,-1544,-924,3334
-40,34,79,-1030,543,3498
13,-119,109,-3603,383,2222
40,103,108,-3257,-329,1789
-76,105,-15,-1050,-1507,1570
-94,31,121,1616,23,1514
106,102,99,-517,-908,169
-123,88,50,-1195,252,-483
115,23,59,90,114,-524
120,7,37,-72,174,-530
-114,-17,23,-85,356,-989
-102,-66,12,528,348,-1051
-98,-103,7,695,47,-920
-102,-120,-5,175,-78,-846
-110,-122,-8,-414,-147,-717
-121,-121,-5,-650,-237,-552
-123,-103,3,-769,-163,-98
-118,-82,9,-692,-120,142
-117,-68,20,-345,-283,392
-104,-22,24,-676,-193,380
-97,-9,31,-589,-165,305
-87,10,40,-460,-144,224
-79,17,37,-93,-68,199
-77,27,28,-231,-29,19
124,-65,37,-10793,-4659,-3629
81,0,18,-2029,5268,-5232
-32,99,-98,2725,1253,-2060
-127,-2,125,-3319,5824,-1692
71,4,-99,-5750,10267,-1534
-9,69,-41,-374,16468,-6681
-12,-102,107,-1988,14189,-9525
61,-111,-79,2856,9536,-7104
39,20,-79,2283,8479,-820
35,-39,-40,134,2421,3507
64,8,-38,-5363,-5374,9392
-84,69,114,-7524,-11796,9166
-18,-60,62,-7827,-14913,12411
59,111,-105,-2221,633,-449
57,-33,-62,-228,1436,-363
-70,47,79,1358,-1560,-309
119,-63,17,-523,-233,-472
-89,-96,55,-475,-692,94
-50,82,10,991,-1029,389
19,77,-91,492,-437,61
9,-8,-121,1778,-387,907
39,47,67,-1826,-1081,558
41,69,-87,-1228,-2134,1002
97,7,-101,1296,-1859,1863
122,69,-105,1703,-1691,2663
-121,105,-77,1172,-1770,2799
125,84,-83,1410,-1373,3185
-79,100,-55,483,-1291,3244
-12,39,-101,878,-477,3052
-41,19,-94,159,-660,2523
-38,2,-115,-824,-110,2209
-108,25,-58,-1241,-616,1800
-84,-49,-103,420,569,1477
-107,-49,116,630,-67,850
-128,-59,66,42,50,655
118,-97,49,139,183,295
109,-102,29,37,132,560
106,-100,23,157,-105,422
111,-85,16,-20,-54,181
120,-95,32,243,-100,-129
-121,-116,29,582,-76,-327
-126,125,31,234,-329,-745
127,92,41,-98,-249,-874
127,90,50,-483,-162,-824
121,73,48,-144,-70,-741
114,74,36,-237,-74,-400
125,86,25,-493,36,-186
-122,101,21,-425,9,13
-107,124,7,-317,83,144
-93,-108,4,-463,-23,122
-113,91,-64,-6157,-4295,-541
-36,57,-44,-4796,2773,-4827
51,59,102,-688,1735,-4728
95,-120,-12,-369,1724,-5634
34,98,57,-3200,8310,-5910
75,84,-54,-8959,16230,-8891
-82,-30,71,-3808,15500,-10239
-56,-29,-71,1716,6556,-9060
-100,-24,57,-1239,8992,-5380
-110,-22,-26,-476,1736,1494
103,11,56,-3059,-5632,9427
-44,-14,119,-2797,-8359,10462
-58,-59,69,-5295,-12189,6651
88,77,73,-2368,-7894,4122
81,58,-105,847,-164,2403
-36,30,82,-2316,61,-1096
1,-76,-86,1870,-274,423
68,-39,74,136,-634,482
113,-110,30,888,-481,108
-100,72,-53,1640,138,35
-61,52,127,906,263,14
-71,-60,98,2131,-359,581
-27,-68,38,1917,-505,1543
7,69,70,-894,-1633,1401
32,-36,25,721,-1111,1559
-128,18,28,1259,-816,2916
45,102,51,-2202,-2473,2588
85,46,68,792,-1266,2562
96,69,-83,2031,-1681,3052
88,92,-123,296,-622,2775
-104,-97,-80,-754,-69,2656
-104,4,-57,2551,-487,3077
-89,-34,117,2510,-323,2771
115,-12,117,595,691,1696
124,-92,3,287,2261,1239
93,-66,23,-1330,718,1304
116,-26,19,-2650,65,811
-116,-6,-8,-2541,443,28
117,-34,4,-356,157,-337
89,-80,25,1514,-293,-192
89,-104,3,1481,-232,-538
91,-112,0,356,-131,-694
95,119,3,-119,-177,-646
98,100,19,-421,-356,-652
107,99,24,-469,-291,-708
120,85,21,-222,-163,-607
102,90,22,-245,-386,-377
93,99,12,-420,-200,-191
92,117,6,-510,-44,158
104,-114,4,-564,57,381
23,33,-27,-6447,-4869,-620
1,110,86,-3154,4940,-5871
-69,-123,46,-777,4953,-6331
72,-125,-12,-529,6514,-7849
-117,-102,9,5348,7853,-12536
-108,-40,-50,-7521,9610,-19402
84,-71,114,-112,6496,-12563
99,114,118,456,9140,-6336
-1,-109,57,449,2212,921
5,-14,75,-5266,-6514,5794
3,-85,0,-5614,-7457,9138
-42,53,13,-6987,-13337,9559
12,42,52,-1221,-8805,11832
-95,-77,-96,-3410,-2325,-1888
-102,92,98,-3059,1790,-403
52,103,82,4884,-1060,-280
-123,112,90,-1195,-327,440
-110,2,71,441,-393,-126
-93,-23,34,540,-239,-167
-86,-62,-2,233,-3,-187
-105,-119,-50,726,-586,308
-75,123,-96,631,-313,4
-37,44,113,1218,-133,29
95,-82,-78,2308,720,-158
28,49,-7,3020,-1413,1502
15,58,41,1654,-2844,3690
90,63,8,1030,-1208,3016
-68,12,48,-1050,401,2244
117,37,-113,-569,-445,2928
-1,55,90,416,681,2842
23,65,101,575,551,3169
10,29,116,387,171,4072
26,13,105,1528,-65,3428
-18,-52,104,1424,118,2212
-25,-44,17,-678,1850,1637
-88,-53,-39,-1469,1466,1273
114,-50,-8,-1681,-172,857
117,-67,-10,-744,347,514
-119,-51,-26,-491,517,450
-120,-39,-7,-400,11,-469
120,-109,0,735,-376,-917
104,104,14,716,-677,-1474
117,67,23,337,-496,-1379
112,58,29,-306,-336,-835
104,66,31,-934,-390,-714
100,66,24,-917,-222,-637
98,84,23,-832,-272,-268
103,109,20,-782,-160,31
112,-112,19,-669,-16,48
-118,-104,4,-65,170,42
46,99,-10,-3280,-3175,-3619
5,-27,75,-1431,-947,-4122
-71,34,-122,-3398,2087,-3554
-25,14,37,-4631,4868,-3237
-65,-41,-78,-2098,9429,-5640
66,88,-89,-2498,12392,-8325
-10,-55,-95,-1562,11890,-9960
-69,3,97,1464,7172,-8856
122,87,1,912,6314,-6096
-2,-52,-121,-1701,2648,960
-39,10,-119,-5326,-4373,10526
-67,-79,58,-6921,-13804,9704
78,-111,30,-7379,-16988,7695
-91,-15,-103,414,-3120,1050
-9,-38,-97,470,2237,417
52,25,109,1148,-397,-1520
54,87,-66,2068,-374,743
-127,0,115,-626,-233,45
-110,84,44,1962,-311,-182
-47,53,-57,1637,256,-141
-34,-87,96,2752,-752,374
17,-84,45,2003,-677,912
36,-103,44,1809,-1195,1602
-5,84,-8,3235,-1593,2443
101,-89,-32,2125,-5,3059
81,5,13,-1134,-534,2984
71,-23,8,706,-339,3408
-42,42,64,-1091,493,2938
-108,-22,44,-500,1044,3557
24,63,117,-2224,153,3783
41,-55,-128,421,146,3071
12,11,-75,-286,-683,3361
-7,83,121,-1693,251,2208
-66,118,94,-1871,215,1297
-120,66,76,-8,64,466
94,26,59,1233,-93,-51
82,-13,23,1300,125,-561
80,-52,7,1003,186,-742
93,-123,3,874,150,-963
97,87,7,865,-71,-983
106,65,23,435,-274,-926
108,34,27,48,-298,-818
108,41,38,-396,-369,-580
104,46,35,-609,-283,-404
101,67,34,-792,-236,-152
106,91,39,-790,-141,8
117,103,27,-341,103,166
-128,-124,18,-260,-37,260
-113,-101,3,-525,61,192
-110,-84,-4,-437,-4,178
10,-75,36,-10985,-2053,-4087
1,-14,75,-4369,-842,-1665
-72,-17,-9,-1156,3300,-4185
-62,19,17,-2162,5889,-4218
121,-70,-51,-4691,11555,-5484
84,71,-12,-8782,14648,-7895
27,37,53,3047,12065,-8417
-65,28,88,312,8452,-7151
-31,29,122,2442,5461,-5644
-102,-15,-42,-2491,1011,-1949
62,-37,48,-4615,-4665,9093
104,71,-68,-10478,-14195,12491
-59,-49,-60,-10459,-21210,11689
-68,96,35,-4135,2267,-2058
-83,62,18,4757,2177,1081
38,-79,56,995,-580,-1385
53,-65,125,245,-596,779
106,-9,-99,479,-2063,530
-66,-64,102,671,313,-362
-71,-123,59,967,270,50
-115,-112,19,552,-1054,159
-67,109,9,834,316,110
-56,73,-41,1484,-249,338
-5,-37,123,3947,-737,652
35,-96,59,4336,-1002,1215
84,-75,30,1829,-557,1413
77,-65,53,309,-518,1795
80,-96,61,532,-422,2270
90,-41,113,423,-557,2958
-100,-97,25,1258,830,2834
-39,3,57,-978,666,2871
-115,-19,80,-399,189,3574
-16,15,77,-727,511,2974
-48,-8,83,-1057,644,2846
-14,-22,66,-1073,478,2439
-81,-36,82,-1011,-392,1801
-94,-49,72,-523,-256,1411
127,-40,70,-277,101,865
97,-53,36,83,355,602
91,-42,39,-240,-37,59
91,-65,34,-56,-42,-321
84,-101,28,178,6,-643
94,-120,19,39,76,-848
98,112,8,33,41,-868
108,92,0,-187,-61,-888
118,100,1,-595,-106,-826
-111,90,-4,-553,-14,-840
-119,92,-1,-413,-231,-668
-125,98,-2,-371,-208,-537
122,109,-4,-421,-229,-331
110,122,111,-5152,-3073,-2270
2,-88,50,-8551,-1557,-4234
-19,-23,-103,-642,2943,-5069
-107,22,-36,-2101,8503,-9529
-9,-81,53,-5126,7935,-5794
82,-36,-119,-3250,8771,-6149
-37,-43,-12,-5487,5801,-10559
-96,-6,69,-3599,7269,-8787
-52,-102,27,-92,6410,-4293
25,102,-89,-543,7325,-1201
-128,-51,37,-1178,2616,2468
101,-16,-26,-3523,-952,6490
118,-98,109,-5694,-8272,9842
-19,83,111,-7043,-15490,11190
9,11,-86,-5205,-10972,7484
-5,101,102,-575,928,1669
101,34,118,385,2745,-2852
8,-82,-8,2506,-443,-89
99,50,102,-2037,31,86
112,-116,87,1040,-614,-140
-103,88,-39,561,590,-85
119,84,-54,-296,-718,109
-110,51,-46,505,53,272
-120,127,-29,59,-346,265
-118,97,-31,653,-506,254
-12,52,-100,1306,-152,23
8,-39,97,2750,-939,71
42,-112,80,3426,-1420,854
36,-127,67,1589,-865,1157
94,-119,24,690,132,1728
-127,-72,51,-347,-162,2590
106,125,-4,1927,438,3791
-92,-28,89,317,-152,4160
22,-52,61,-571,1606,3891
-22,-7,100,-1427,565,5070
91,1,-68,-200,503,5490
123,-39,-64,673,516,4608
-109,-74,-41,-3429,403,3446
-27,-24,39,-3539,324,284
98,79,96,303,-552,-1077
21,-49,91,2635,-520,-492
12,10,26,758,204,-164
21,-8,0,-429,562,-797
81,-79,18,177,133,-950
125,-117,20,657,-78,-1471
-106,110,56,48,-467,-1974
-103,56,51,-350,-304,-2327
-105,24,67,-397,-220,-2075
116,-9,50,-176,-302,-1243
97,-4,34,-212,-131,-635
54,83,-61,-5511,-1360,-1303
14,21,127,-2397,829,-2341
47,-84,2,1612,2308,-3669
-19,-48,-66,-4698,5457,-7213
-33,18,23,-3479,7196,-3307
33,-56,77,814,9526,-3190
74,77,-59,-2719,11984,-6444
-33,22,-50,-5998,11291,-9492
-119,-81,1,840,7276,-7081
-91,41,106,-89,7582,-3239
66,-43,57,-11,1900,-294
97,-29,4,-3802,-4933,6579
-93,-95,-16,-2710,-9103,8997
109,-43,76,-6942,-16317,6401
10,-47,42,-5481,-13478,5483
-67,-88,81,288,-2451,1094
-30,-58,77,2177,5343,-2418
97,-108,17,2209,-409,-967
53,-15,-90,-960,-2073,1132
-110,119,-110,469,-449,-63
-63,-84,-113,13,614,-307
-93,-118,101,211,236,-357
-107,83,48,502,-244,119
-88,81,3,526,-415,18
-21,41,-84,1385,-225,-221
77,46,93,1923,139,-621
42,-25,81,2343,-650,-551
35,-112,67,3208,-1244,1075
68,-25,58,446,-1122,1557
91,49,68,-1265,-471,1887
-94,39,-107,-162,-301,2098
27,36,-25,441,-2229,3646
-65,103,-45,-445,-1049,4516
90,-26,22,-1181,-2180,4095
78,-93,-124,-596,-3755,4051
-51,30,-1,-4015,-540,2592
-76,78,21,266,-739,2155
-95,31,-66,2497,-799,1388
118,81,83,1211,-380,159
68,9,66,425,6,-563
30,-79,80,909,-277,-427
25,-95,81,309,-149,55
27,-110,77,53,21,-188
45,-108,77,-233,-16,-294
73,-115,56,-477,169,-563
81,-127,46,-305,136,-606
85,118,28,63,210,-455
94,114,4,87,193,-432
102,120,-3,-139,87,-266
107,121,-8,-75,-32,-66
93,-41,84,-6540,-5046,824
104,18,-100,-8980,-126,334
-72,-22,-13,-1321,6441,-5017
-12,-71,-102,4460,2870,-6134
95,-92,-44,-3350,7515,-5713
7,84,-82,-5462,8479,-3403
64,58,-65,-2884,10548,-5168
81,-21,78,-4941,13831,-8387
74,127,-69,-957,8392,-8829
57,19,-108,-1546,7662,-5352
93,-18,77,572,4733,842
-34,14,39,-3291,-1580,6313
109,-125,27,-3248,-7091,8802
0,-18,15,-5209,-13605,9756
-119,-112,24,-4924,-15283,5798
-65,-97,-84,-5020,1585,-2277
-56,73,-11,3015,-1211,897
43,-62,36,1912,-905,-388
111,-15,-67,-1080,53,813
-128,-66,-78,608,-829,51
-102,-112,83,621,150,-78
-109,-82,57,-73,-176,-95
-127,-108,37,299,-371,74
-106,-93,46,-500,7,110
-98,111,58,365,-35,55
-100,126,44,-246,-22,73
-85,55,9,704,-216,310
-36,28,-38,1442,-109,352
-8,-2,-125,1703,-542,220
35,-90,62,3037,-688,566
33,-100,-126,2556,-1057,1313
73,-76,101,1197,-474,1844
61,-92,118,1642,-548,2191
30,-14,100,-1057,-841,2105
88,-76,122,770,-940,3217
-71,23,-128,242,76,2761
95,-4,60,-368,516,2564
-66,-15,121,-274,6,3731
-49,-13,121,-578,258,3628
-39,9,113,-1367,-92,3106
-74,-23,-49,-998,-1136,2637
-16,-62,122,822,464,2442
-74,5,90,-326,-68,1267
103,2,58,-853,-100,180
58,-54,43,611,37,402
37,-20,49,-520,-337,-310
49,-82,53,95,57,-475
62,-91,48,92,118,-590
79,-99,33,-493,76,-957
104,121,34,-382,138,-1117
-100,121,72,-7069,946,-2922
37,3,93,-2848,478,-4596
99,87,109,1266,1617,-4083
47,-28,125,-389,2984,-3447
-70,-52,26,-471,4774,-3722
-74,-44,63,-3272,10745,-7362
-14,65,102,-5538,13344,-9899
-70,80,-59,1056,9253,-8737
-26,88,-82,2173,7940,-6296
-117,-66,92,2212,6431,-3384
-115,-20,39,-1524,-825,2872
-105,8,114,-2068,-1010,7276
-102,-9,33,-5827,-9954,9563
38,-63,-93,-5557,-16307,12800
-17,-112,26,-6132,-2414,1355
84,123,-52,1193,3847,392
29,-71,19,2907,-1671,-721
62,-27,29,-815,12,641
104,-55,107,18,-664,393
-118,-127,41,1587,-31,91
-76,-46,-17,-521,436,-90
125,111,-11,664,-584,383
-98,-74,-23,-495,321,-75
-115,-93,-22,-209,-86,264
-101,-78,-34,-350,40,73
-105,-112,-40,105,-125,192
-87,115,-75,105,-325,75
-44,50,-128,443,-219,10
-8,-45,82,1213,-853,148
121,-113,-15,1727,-889,-6
-81,127,22,1753,-1415,986
-79,116,-25,1866,-1502,1209
94,-69,117,1273,-2495,3216
33,32,83,-911,-693,3227
110,43,-100,1456,-421,4670
-115,-10,-41,-2394,-953,3425
-44,101,-93,-511,-774,3487
-111,21,11,623,-1626,3920
16,-51,-87,561,680,3430
9,29,-66,-1145,407,2881
-44,39,116,-1121,504,2075
-103,61,99,-502,16,1060
126,47,63,96,127,438
86,14,27,559,140,-22
73,-29,4,1321,199,-56
80,-54,-20,1174,98,-383
93,-99,-19,741,-153,-714
95,125,6,467,-458,-828
97,104,18,-31,-503,-951
112,97,43,-705,-471,-1122
56,124,-70,-483,1954,-5883
-57,10,-77,1144,2278,-6059
49,107,-31,-2353,3949,-5260
-37,-52,-50,-5737,7672,-5435
48,79,-115,-3394,10534,-5615
-93,-8,2,-1701,10126,-7387
2,-38,-120,-107,8393,-7299
-3,-78,-57,3513,5194,-5871
-89,-35,-85,4073,7122,-5837
-8,-121,-94,-1778,-640,1463
96,-21,55,-3505,-769,9201
-82,-107,-120,-5344,-6369,10134
46,25,-108,-5983,-13820,10485
57,-23,-73,-1643,-9205,4381
124,23,125,878,571,4062
6,-18,-120,-1995,1171,1124
-62,92,-117,60,-988,-866
-39,3,108,579,123,-94
-46,50,93,-628,-198,-358
-69,-84,67,335,206,-639
-56,-119,17,458,313,-340
-57,94,-44,698,-324,-162
-28,60,-112,956,-287,-170
-36,38,116,748,-745,47
-38,16,100,1151,-855,288
14,60,99,531,-466,513
31,32,59,822,-504,704
28,-14,94,1218,-1658,1310
69,-40,29,1465,-1007,1933
67,4,52,569,-864,2309
65,9,62,945,-909,2885
-114,0,80,951,-486,3083
124,-33,93,1692,97,3731
-52,-65,122,1650,308,4086
-37,15,107,-1564,964,3082
-44,-38,93,-1485,671,2911
-39,-85,-109,-432,-13,2675
-49,-20,79,-1058,777,1711
-110,28,50,-1402,265,741
98,8,46,-803,-180,-187
82,-51,44,704,52,-279
61,-66,17,883,177,-219
71,-58,-10,11,211,-576
102,-98,-8,165,68,-919
119,117,-3,457,-93,-1160
125,81,5,248,-318,-1240
110,79,18,-266,-403,-1144
120,63,15,-404,-191,-1046
119,59,19,-511,-238,-754
108,68,17,-459,-215,-416
104,126,91,-8189,-6522,854
18,-67,81,-10544,3043,-2674
76,49,-110,3556,4768,-4950
-22,-57,-23,2663,1785,-5252
-61,40,-45,-4984,7230,-5357
-8,60,-57,-9843,11817,-5221
110,13,-98,-1174,13095,-5055
34,124,-59,-2754,11747,-7137
26,106,56,1056,9779,-6683
0,85,24,3326,9047,-3445
-104,-120,-124,-2297,-810,5692
-84,10,41,-4031,-1340,8457
-1,-27,35,-4847,-8256,9373
61,23,-103,-7930,-12381,8257
-71,-37,53,-6449,-12147,6224
-8,-88,48,-1954,891,2684
-12,-24,-27,1736,2399,-2497
-85,38,21,902,-1165,-488
-75,23,-61,88,124,-209
-71,41,-53,-221,23,-691
-70,-60,111,445,870,-676
-93,-66,34,41,415,-442
-106,-119,-21,283,-302,-283
-77,89,-75,349,-547,64
-39,68,-102,261,-475,-51
17,21,105,598,-669,-94
15,-53,73,1811,-851,599
123,-36,-35,-380,769,1218
-13,-52,57,-1843,-2084,2295
75,-22,87,-170,-3191,3282
-43,75,-71,961,-2685,3308
1,-92,-70,-136,-1606,2778
-32,107,-63,415,-1572,3265
-34,-124,39,-1183,-2440,3302
-47,24,-48,100,-883,3037
-23,38,40,491,-1142,2857
6,-32,-80,2255,-146,2460
-46,19,-119,1226,-766,1451
-124,1,74,692,-402,616
54,-39,64,282,-315,268
45,-74,44,578,58,226
44,-83,37,436,-66,-98
72,-107,24,8,30,-481
99,-116,39,-659,-14,-692
116,122,50,-532,48,-798
90,95,33,11,-41,-1061
77,87,12,78,-8,-1066
81,70,0,-173,85,-929
90,67,-9,-409,110,-375
84,78,-28,-542,69,7
-90,-66,0,-3223,2007,-5157
-125,61,-98,-1092,2458,-5525
-61,39,10,-1992,6256,-5287
10,-104,80,-1084,7768,-6108
-61,-19,-97,-1869,9405,-7783
-127,16,94,-1590,8906,-9264
91,121,-114,857,8918,-7067
56,96,-15,1779,7587,-4227
-12,19,58,350,2119,1569
81,-13,-88,-1036,-1374,5646
67,80,120,-4163,-5807,6308
-95,89,61,-8495,-12455,8112
10,-42,-70,-6027,-11786,7548
-55,-75,110,49,-2507,156
-9,52,69,417,3570,-464
-13,-72,-118,2504,-1670,-676
121,-20,-32,-1474,-223,582
90,-96,88,783,-1238,-148
-107,-83,34,16,852,-257
118,-125,5,231,-209,-296
119,112,-18,381,-732,122
-109,94,-43,424,-245,-78
-67,69,-91,621,-581,61
-3,38,115,1338,-369,-22
60,-119,34,2982,-760,1007
-19,98,14,3948,-2029,2723
58,-54,62,552,-1220,2387
44,-13,81,-425,-754,2223
85,-22,-103,1400,-1291,3367
126,80,-96,-1109,-420,1603
-85,-9,-116,346,512,3445
-70,-74,-54,-1068,-986,3866
-67,88,-96,-415,-288,2826
-64,75,-121,-1699,-596,2560
-47,-20,104,-486,-120,2614
-57,5,100,-157,-466,2901
-110,-105,99,-2037,-885,1926
97,123,89,-1062,-667,477
50,41,108,1498,-229,286
39,51,75,1554,92,116
44,40,48,747,175,-454
77,-11,41,766,121,-863
120,-86,55,760,25,-1416
125,-123,66,302,73,-1663
123,84,55,99,173,-1769
-116,27,43,174,400,-1545
-114,24,51,121,145,-856
-122,14,24,101,145,-446
106,35,14,-269,0,-59
93,49,0,-533,-90,367
36,41,43,-6116,-2351,-581
-126,28,-122,-7585,-801,-3010
56,-10,80,-681,2758,-5997
-76,-58,-55,-2502,6925,-7674
53,-21,77,-3105,8979,-3506
-18,-89,-81,-1938,12796,-6057
6,-113,22,-2994,13507,-9127
-93,-71,-118,2021,8729,-7761
-7,48,-5,3404,6888,-4316
-16,45,-31,1276,3614,-1261
-126,-45,51,-1822,710,2447
-86,-123,83,-5474,-4092,7497
2,81,-26,-8917,-13638,4629
13,24,34,-2284,-19279,8495
105,117,102,-369,-4730,2949
-107,61,-60,-1797,2152,1494
92,-128,118,3004,-1308,-1373
102,-7,-30,2100,866,42
119,75,120,-1941,242,-666
98,99,110,927,-365,-122
-121,68,5,929,457,205
-82,-77,-65,-952,-287,-816
-30,52,-80,1347,-274,-970
14,-25,124,2327,-164,112
-33,-27,-107,2699,-1473,1028
20,-106,77,3332,-550,1918
48,-37,56,1619,-450,2097
49,3,32,448,181,2183
38,0,96,-355,-123,3395
103,27,84,-474,359,4065
114,97,73,-1567,218,3746
-114,107,106,-864,-997,4151
-51,-94,-36,-639,-555,4122
17,119,76,-1013,862,2067
-108,48,-74,-1180,-1713,1961
-91,7,-109,-1278,-1333,2124
-111,57,-126,-1465,-659,845
107,95,101,-1566,-267,-347
78,19,91,-317,-66,-1040
33,-42,-116,1407,-301,-642
38,-77,57,1652,305,-189
68,-59,32,300,550,-625
91,-92,16,-225,425,-915
114,109,7,240,291,-683
118,102,-2,336,165,-588
127,92,-12,208,147,-551
125,84,-20,-29,-1,-298
121,92,-24,-330,-133,25
120,109,-7,-339,-297,263
123,-120,-6,-430,-181,370
34,92,16,-1920,4469,-4779
109,72,119,2516,2364,-4700
107,3,115,-6582,5541,-5922
53,94,-115,-7009,11886,-9519
-107,41,-90,-2697,11632,-8210
57,-114,-79,602,8594,-7651
-52,98,-21,1189,7809,-6007
-111,46,-7,1222,10196,-3899
-100,-86,2,-2589,-647,4314
113,-1,-36,-4394,-3187,9786
97,-29,-80,-6387,-12103,10305
-12,39,12,-7276,-11997,15710
87,119,-80,-4887,-5204,-503
108,83,32,618,5549,-511
8,40,-7,274,-1902,118
111,37,41,-1342,-800,513
-79,-7,104,100,-411,-1
-66,-33,85,281,30,99
-87,-67,28,17,73,-8
-114,-89,27,180,-470,-5
-63,-92,2,-276,323,-1
-58,-126,9,611,-39,154
-50,84,-20,1165,-225,362
-16,6,-91,2274,-336,687
6,-71,102,3237,-755,988
36,-126,50,3570,-1060,1382
50,54,55,2701,-1214,1673
102,120,44,-140,-116,1440
-116,-122,32,-588,-125,1725
-120,-77,34,116,104,2555
-103,-3,-7,-347,147,2530
-53,6,27,-252,-209,2873
-127,37,96,-1256,-211,3233
-7,4,4,-1641,1175,2544
-76,-57,-109,-254,-264,2713
-29,-72,76,-456,662,2576
-11,-17,94,-1851,289,1872
-81,-21,63,-1927,-97,1000
-119,-42,78,-789,-528,856
120,-52,54,735,-49,1231
109,-19,28,993,52,895
99,-14,11,515,-51,81
113,-45,14,610,-10,-548
118,-121,10,875,-59,-1086
123,93,18,702,-150,-1362
-122,51,23,531,-170,-1349
-118,24,35,150,-328,-1140
-124,17,43,-198,-372,-958
-123,12,48,-370,-228,-641
109,18,31,-318,-29,-105
