AccX,AccY,AccZ,GyroX,GyroY,GyroZ
-53,17,-62,1385,-1864,-8385
-42,-87,42,2169,-842,-9598
44,113,-23,1069,461,-9483
-88,-106,-57,-416,2337,-9134
-118,-87,97,655,6526,-6464
1,31,-42,-3403,7384,-2895
29,25,1,-7259,7378,1494
61,-55,-70,-9987,3287,9711
99,19,66,-2930,3901,11571
99,-61,95,-5441,-2233,10143
-17,66,-72,-13198,-3933,-2370
14,49,-127,-9706,-4812,-6625
-90,-99,-96,5171,-2766,-9748
4,38,69,4255,-4931,-7697
14,100,36,886,-1456,-11737
-86,-71,-19,2097,324,-7830
121,-105,-59,-1941,4299,-6129
-90,101,-70,-4814,8812,-966
3,-111,70,-7460,8467,7111
4,-15,14,-2105,7735,10745
1,26,123,2237,5486,10968
42,-88,0,-16558,-3327,1916
0,-47,112,2978,-5387,250
25,60,12,-3019,-7595,57
107,-5,118,974,-7147,-1333
-61,-74,13,-207,-4134,-389
10,34,-84,1190,-2322,-1079
-121,51,33,1584,-1317,558
-2,80,115,1691,-698,-94
-56,-123,122,-1130,160,-109
-47,93,-3,-711,512,-78
-25,116,-127,-575,0,58
-16,-126,56,-63,551,-320
18,-78,48,-756,127,-172
56,-101,-38,-1756,41,-31
77,-41,-43,-4798,1619,-474
-77,-106,-110,-5568,2395,-254
-85,121,72,-4800,2088,1575
-36,-51,34,-3964,1815,1949
-38,95,70,-4197,50,2550
-114,40,-49,-2703,1376,2007
59,11,64,-3378,-363,2312
54,58,74,-3705,-1654,665
-93,-45,105,-842,-511,1958
78,-11,-88,1008,-1427,2345
-12,25,-109,1178,-1330,2279
-50,0,86,1290,-387,1446
-77,29,57,158,62,784
-122,8,22,-58,173,-110
108,-60,33,1088,-115,-223
-52,59,76,3146,-3441,-5303
82,123,-84,2250,-4706,-8475
-23,90,-98,979,-1894,-12061
-75,117,79,-2590,43,-11558
41,63,-81,1395,4274,-8900
-13,81,102,1089,3981,-3575
18,-43,-27,-5459,6661,-584
125,88,17,-8322,5929,7290
36,86,-35,-5210,4305,12615
100,-71,29,-6535,4169,8229
-84,-96,-112,-10728,-5510,4922
-20,53,70,-3420,-2975,-2528
99,118,59,-4171,-6656,-8173
-50,-62,-83,2936,-3345,-11187
-93,-74,-83,2882,-3405,-9552
-1,25,127,-434,1136,-9554
78,-62,90,1200,2798,-5796
-75,-71,-106,-4007,6367,-3034
-74,110,107,-6519,7907,2114
92,-20,-55,-5543,6289,7470
45,116,-100,-873,7405,8332
-12,-89,124,109,4638,8000
-105,44,-28,-10528,1013,3082
-28,106,91,-5128,-3294,1086
67,-62,87,-2502,-4600,1071
-76,-30,-75,-857,-6430,-870
-112,71,-18,1499,-7039,1468
118,-8,15,-42,-4851,412
85,-47,35,351,-3140,-329
19,-101,113,-375,-2897,436
-78,73,67,-292,-990,-560
65,41,5,145,-826,411
-41,61,-113,-290,-414,-201
-12,52,18,-228,12,91
-5,95,-40,-202,398,-200
31,96,-44,-735,520,-60
104,-89,-39,-3060,915,-631
-79,-98,-70,-6635,2263,-929
-27,82,4,-8064,3428,-656
46,101,101,-6672,2855,346
16,-102,-57,-4637,-770,2914
-77,-26,-76,-2602,164,2480
-4,-118,76,-1737,1029,2670
-36,1,-20,-1715,-1237,2462
48,-57,-109,-2240,-35,1932
-4,-35,-94,-3376,-1765,1051
-41,95,-72,-721,-1132,1798
-40,98,-88,545,-794,1522
-76,78,-104,1556,-766,1788
-81,104,98,1065,-589,1259
-49,-9,-65,3497,-1005,-4718
-5,-99,99,3504,-772,-10365
50,123,79,100,634,-12634
60,-41,52,-938,5611,-11121
-71,-17,-19,5922,6319,-5284
41,42,-47,-1371,6428,-1635
58,-48,64,-8536,8661,963
87,51,84,-10133,6781,8246
-116,13,53,-3887,4664,9509
-43,81,23,-6600,-4871,8339
100,-69,-46,-15701,-3842,-4248
-94,82,82,-7135,-4779,-7300
109,27,43,-229,-1866,-10809
-127,0,100,7993,242,-8452
-26,-80,111,820,1760,-9455
-104,-74,109,1871,2944,-7026
68,-90,92,-898,5048,-5230
59,-48,3,-3403,6296,-1584
-52,122,-8,-5923,7039,1707
49,-23,-38,-5474,6166,6964
-122,-95,15,-3475,4716,9590
113,19,97,-3209,7072,6331
86,13,28,-9154,-2090,3855
-4,-12,110,-3092,-1623,-46
-96,119,65,-3222,-5648,1475
116,-107,-88,-1004,-5608,-1958
-27,85,44,325,-6577,75
-21,55,99,1154,-5405,100
33,97,114,1383,-4065,910
-126,110,122,92,-2036,481
-96,-121,74,-2,-1012,338
100,123,-38,-344,-585,330
69,102,120,-46,524,69
21,124,-3,139,311,39
77,-124,-121,-24,459,-127
77,122,-125,12,146,95
95,118,96,25,-51,-20
122,111,114,148,289,-129
127,110,-117,38,170,-150
-100,112,127,72,56,-4
-87,-123,-111,89,54,-23
-66,-111,-92,-34,82,-64
-47,-110,-82,305,102,-134
-32,-86,-71,-299,151,-41
-14,-69,-37,-827,302,-225
25,-11,-38,-4123,996,-980
58,-59,-65,-4953,1012,-904
87,98,123,-3455,909,-338
108,-21,97,-4538,656,-244
-128,1,59,-4347,643,25
66,-128,79,3365,-2845,-5789
-25,83,109,1181,-1304,-9870
-21,-69,-116,1187,92,-10359
35,-3,100,-468,2980,-9659
-121,89,25,2045,5816,-7149
73,31,-98,-1832,6508,-1860
-37,15,88,-7729,6975,2304
3,61,-47,-7395,4411,9265
66,-18,16,-7240,4659,9148
-86,64,18,-3491,-2632,9653
-111,-122,88,-11937,-6581,-653
123,65,-106,-6619,-3500,-6617
-71,100,-75,904,-1892,-9338
-89,38,-91,4157,-1129,-8892
-26,-2,-97,1716,-204,-8713
58,-125,-104,1734,2314,-7293
-48,75,76,-101,3204,-4641
-49,-117,-54,-2479,6445,-2261
-86,-115,-109,-4942,7770,1163
81,-3,-20,-4899,6948,4967
-27,67,-27,-5112,7146,7262
-10,98,111,-3071,3752,9086
106,-71,-125,-4292,-263,4885
-24,90,-93,-4956,-4454,610
-54,-49,-80,-6324,-5499,1308
-127,-77,76,-804,-4295,-1461
-104,-99,-36,480,-6006,162
-95,-84,112,1227,-5803,188
110,-100,-89,502,-4555,646
-125,-113,-92,634,-3609,342
-3,-56,127,-610,-630,-475
82,76,15,293,-834,236
70,87,-93,114,77,224
17,119,71,-252,-24,54
52,-118,-48,262,416,-270
62,-127,-108,-350,245,201
76,-105,-117,166,213,-218
109,-84,122,-715,328,-39
-105,-89,-95,-1315,108,-431
-34,-53,-67,-4698,842,-953
18,-112,-119,-5262,1062,-727
54,124,99,-4754,1217,-119
62,-74,0,-4630,1299,105
-119,97,-33,-4462,1017,893
99,-66,21,-4054,-345,1546
-99,-15,-9,-1963,109,2451
-99,-126,-118,-2991,-1116,2562
-98,108,-110,-2610,-1565,2523
-1,103,-80,-1491,-926,2704
-72,54,7,-618,-2064,2962
-118,-82,-79,1745,-2071,-7248
-34,118,-44,1671,-1103,-9369
-70,-25,43,1324,-1530,-11024
-34,109,-114,-128,1353,-10146
-100,75,30,-171,4293,-7315
91,43,11,-3800,6448,-1742
100,57,76,-5739,8445,2547
-82,-28,-60,-7578,6288,7785
-89,117,49,352,6590,13506
61,47,-47,-2035,5697,7819
18,6,96,-9360,4088,3279
85,25,95,-7714,-3374,-2082
5,-78,-92,-5022,-7289,-5417
74,53,-36,-2143,-7220,-5539
-118,81,8,1071,-6505,-6615
-39,96,27,-1419,-5381,-7444
-90,-97,31,-1305,-2201,-7455
-13,71,-90,-1218,1374,-5667
-17,-86,96,-1512,2348,-4039
51,48,-33,-2923,6572,-3150
38,77,-18,-4120,8705,-575
-44,13,-14,-4037,9961,4125
-27,106,-36,1728,9869,4652
8,-100,46,-4415,6771,4540
118,-34,-66,-10436,3017,1402
108,43,110,-4258,-4233,729
-18,27,-7,-3327,-4689,1789
94,110,56,-2374,-5025,197
-16,34,94,202,-6381,-281
100,63,-83,1613,-7029,789
101,-96,-91,1599,-3468,1012
-122,-15,87,-133,-1477,360
-42,-58,70,-533,-1360,308
111,-119,-8,-557,-559,222
-120,75,95,525,328,19
101,103,-5,-715,-85,137
87,53,-89,-134,-165,-87
106,51,-79,160,-30,-154
122,75,-87,-258,195,-231
-97,66,-115,367,120,-127
-86,89,-127,-146,-267,224
-78,107,-115,-175,245,-233
-71,93,-104,166,114,-11
-49,108,-113,-101,193,-64
-25,113,-96,-34,21,11
-12,-118,-78,-123,-322,149
26,-100,-53,-104,316,-88
7,-100,-73,-39,-10,85
13,-87,-106,169,189,-136
40,-84,-93,123,-88,70
-51,67,25,-7694,332,-171
-3,59,-58,-7340,687,-991
-79,-128,-119,-7102,261,1316
-29,-62,-24,-5047,1509,1873
-26,120,121,-2784,-21,3065
-8,-43,-88,-2588,-1385,3237
65,-7,-37,-2313,-785,3237
109,-94,-79,-458,-651,3375
18,-56,29,-614,-2750,3149
41,-51,-42,261,-1282,2885
-64,-2,-111,677,-406,471
120,-46,-128,983,-294,-46
66,-115,110,1639,17,262
55,115,97,1655,104,59
58,83,91,1507,152,-242
77,38,79,1223,306,-572
91,22,85,493,166,-861
112,-17,82,438,176,-999
-124,-68,83,602,44,-999
-123,-74,88,273,-116,-661
-125,-63,86,-161,-163,-359
-124,-64,83,-42,-96,-172
-112,-45,83,-145,0,-37
-103,-26,81,-166,4,30
-105,-22,82,21,0,128
-111,-17,83,84,111,244
-102,-18,77,442,309,356
-95,-11,58,568,237,491
-87,-10,47,352,188,534
-68,-4,60,323,529,796
36,-92,81,1277,3814,1113
-18,99,-66,1894,4138,1980
103,-58,-26,-869,-325,2445
-116,65,-63,-1193,707,1666
-105,-100,-108,560,-772,2413
63,-124,79,49,172,-1775
86,-101,-34,3379,-2900,-3889
59,36,20,2196,-2551,-6651
-43,-18,-79,676,-2915,-8985
25,-4,-90,2444,-252,-10954
76,32,-102,983,1726,-10557
-110,-24,-100,2935,3773,-7150
-5,-70,22,32,4587,-3106
-124,-107,-53,-4115,7081,-1557
64,-26,64,-5627,6187,3742
123,-89,2,-6955,4608,9545
-24,-118,81,-4881,4786,8115
-100,-107,-97,-6661,-893,8239
95,99,11,-9789,-4357,567
71,55,112,-8677,-5489,-7121
-96,-30,34,2540,-4760,-7887
-21,-52,28,3106,-3488,-8584
-95,-88,-15,248,-274,-9498
87,116,101,-436,2021,-8122
-18,85,-35,-1373,3419,-4550
-8,64,44,-3241,6495,-1683
33,67,-92,-5799,7380,1650
-126,-67,25,-5380,7403,8727
23,-123,42,-338,7050,9854
-35,-69,-100,-6275,4804,3140
22,-88,85,-7196,-1764,1820
35,-64,88,-6846,-4728,-824
-102,-36,1,-1741,-4230,1555
28,109,22,-5,-4729,-2086
5,4,104,492,-6266,-80
-106,-10,-51,1707,-7408,-841
-68,-55,99,1488,-8354,29
-30,-105,-19,-863,-2074,-281
-69,34,97,-1574,644,-516
72,8,-84,-1001,650,212
-1,72,89,-223,782,115
1,-87,-21,-1012,1166,108
100,-53,-64,-3056,2048,-528
-64,-77,56,-5946,2909,-467
-18,123,-30,-5049,2442,1084
53,5,-91,-5286,2064,1865
111,-96,-36,-3281,456,3097
-12,9,-10,-2720,781,2652
32,-91,47,-3955,122,1732
-98,92,-53,-1448,-2387,1954
15,108,-128,-1088,-45,1850
-75,-110,-68,-2282,-611,1051
-63,-73,-90,-2974,-542,1180
-67,-79,-55,-1947,-791,363
-80,99,-58,1012,-519,719
124,44,-125,3366,-953,832
-118,25,77,2873,-500,772
117,-1,37,1856,-113,-30
112,-57,29,1113,148,-339
112,-86,53,282,-46,-387
107,-117,66,120,-227,-345
116,-119,68,-24,72,-257
-127,122,53,158,292,-420
-117,114,42,191,198,-373
-89,127,27,-35,300,-162
-86,112,20,279,133,-295
-83,112,12,223,21,-339
-79,115,4,-60,49,-271
-87,112,7,-48,-99,-114
-86,-126,19,-251,-218,84
-16,81,15,3369,636,7361
80,-82,109,-2558,-2639,-3752
-103,121,37,2191,-3625,-5276
117,-59,124,3047,-3790,-8761
-19,-101,93,-505,-3185,-10788
37,-11,91,-2742,-169,-11431
-44,1,-76,269,3470,-8213
78,-57,-128,2030,3696,-5294
-96,-69,32,-2404,4904,-2143
39,-110,33,-3870,7468,2235
25,-91,-22,-8164,4523,7745
-81,-122,-107,-8519,4757,10236
116,-95,-106,-4299,-3262,15045
-42,-113,113,-13771,-332,-3200
-92,-94,12,-1317,-5728,-5811
-57,-25,-103,3017,-3266,-9018
-80,126,-43,3249,-3918,-7990
90,-115,-78,1186,-633,-8673
-107,-81,-104,2591,121,-6142
39,-54,-2,520,872,-4690
80,43,-87,-1493,3458,-3923
17,-18,49,-2759,6807,-1274
-43,-53,102,-6128,8036,3329
-101,3,-65,-4773,7609,8687
42,-113,-128,-67,7410,12005
18,89,36,-9770,3380,3800
11,68,74,-6636,109,-3821
-32,-42,76,-4762,-8358,1431
-18,85,-103,-2027,-4381,-4594
79,-10,-127,1665,-6818,-65
67,26,-91,925,-5195,-1245
36,18,126,1203,-7190,-417
115,-20,-116,151,-10015,186
-62,83,126,1364,-2343,289
84,-101,35,-1051,1922,-154
-88,127,51,-835,530,290
-85,95,35,128,1975,-191
-75,-120,-52,-241,1161,-73
3,111,-88,-1106,1535,73
98,-91,74,-4890,2428,-59
113,126,-88,-6301,3054,1094
-44,-50,37,-6628,3304,1574
-20,122,85,-4172,1016,2564
-101,-82,121,-1545,1055,3105
-94,-2,1,-4900,-117,2996
-2,-64,4,-3101,-636,1897
31,-58,-89,-1355,-736,2737
45,119,118,1146,-462,1603
4,70,98,2058,-1010,1343
-15,80,69,1228,-745,1966
-56,-53,24,4714,-1672,2019
104,-3,95,-645,-906,-4016
-33,48,-47,3228,-3731,-6691
-8,86,-24,1730,-1959,-9880
-44,33,94,-1054,-1245,-10602
39,37,17,-1136,2652,-9443
43,116,-36,2327,2974,-4919
17,87,-17,38,4527,-2800
-48,64,65,-3460,7977,162
-93,31,117,-10186,6414,4857
-52,16,-56,-9287,3810,10672
-17,34,27,-5273,6656,6352
60,-106,-58,-1564,-1622,5357
106,-67,-19,-9194,-4742,619
5,-79,86,-7382,-3811,-4327
-114,83,-42,1325,-3770,-8390
-55,60,21,2335,-4362,-8771
-31,66,-32,737,-1839,-10705
30,24,-90,1544,77,-8653
57,69,39,1376,2439,-6278
37,-128,-126,-123,3787,-4582
115,-84,-66,-3339,6483,-2258
45,-128,7,-6660,6570,2463
-110,-101,80,-6416,6168,8045
25,-40,-68,-643,10175,7013
-74,77,-56,377,7815,6292
-48,41,-84,-13166,2694,-3528
-83,-124,-49,-5242,-4403,822
122,75,-46,-5440,-5224,-1908
39,52,-22,-1197,-6387,-1538
-16,-56,-118,1407,-6294,-821
86,58,-121,1786,-5567,-1694
-83,122,-37,1639,-4180,1545
-6,-89,121,623,-1467,-164
113,-62,-15,-91,-994,641
105,-108,-101,605,-2104,321
54,111,-107,-443,-119,-15
-23,34,30,-101,-171,198
36,23,-85,274,-182,391
47,87,-117,-483,-414,227
15,118,-38,170,294,48
45,-112,-47,-54,271,-85
70,-60,-15,-1820,88,-525
-101,-32,59,-6169,987,-1942
-7,13,-65,-8067,2057,-2471
18,-34,10,-7167,1446,-93
100,-58,115,-5168,534,2316
-117,-49,-57,-3149,-46,3169
38,-78,11,-2332,571,2119
-115,125,-56,-3329,-1794,1690
-100,11,-49,9,-2497,-6040
-74,-69,30,3461,-3226,-6900
15,111,113,1524,-2474,-10066
-14,-125,40,-1572,-278,-11949
30,-31,-118,4210,2212,-8047
-118,56,-74,3067,3008,-5862
6,-77,-29,-434,7269,-3494
-31,98,72,-4289,9133,4294
-105,5,48,-5797,9170,8031
-27,-69,56,-3548,6810,6751
24,-12,46,-8560,879,3472
3,32,-124,-13130,-6662,1458
110,4,-94,-11231,-7017,-4511
53,36,48,6624,-2628,-5091
-80,60,48,1148,-5215,-6876
-118,-67,122,1110,-3821,-7736
122,-127,-63,-1156,-359,-10670
87,45,-53,89,2724,-7375
-100,-25,92,-3706,6556,-2545
127,42,123,-5478,7334,924
7,-43,-68,-5058,8997,4331
90,57,-98,1505,8038,7732
-122,2,101,-4672,3582,7604
35,-37,-121,-13538,647,963
-73,-107,1,-2705,-4049,3323
-83,-54,64,-2556,-4451,-380
-78,74,62,-1164,-7254,-1826
82,-42,84,1898,-5180,770
-59,92,32,863,-3003,121
-55,80,98,41,-2812,599
-18,52,51,459,-1966,393
-63,100,-24,-747,-469,291
92,62,-25,-819,81,230
82,76,17,-1676,895,145
48,77,-51,180,439,192
103,-62,-101,-1751,1215,14
-84,107,119,-2836,1327,-222
-56,-37,15,-6378,2176,-264
-37,87,-36,-4463,1481,347
49,-55,-53,-3279,1855,1049
76,111,-52,-4037,1114,1833
-43,-100,-97,-2793,1681,2112
59,-108,-69,-5741,57,2489
-53,122,95,-2649,-2033,1437
87,-113,-127,-1060,241,2064
-30,-73,-34,-267,-1024,1965
-33,110,127,1830,-417,2952
-2,-122,83,1222,-196,2098
3,-83,37,-277,-28,487
-70,97,77,811,-576,-163
56,71,123,-3330,-599,-5312
-3,79,-96,1614,860,-8239
107,-75,-42,-357,3477,-10078
32,-5,-120,-530,4102,-9640
91,7,-50,-68,7757,-9120
64,101,-50,3313,7723,-3572
28,-59,-79,-2522,4139,3395
-63,-56,-71,-9988,4618,3656
-100,121,101,-6531,639,13388
9,49,115,-3186,4246,9765
-19,-76,-85,-8229,-4289,5043
72,-15,-80,1420,-7706,1735
56,28,-63,-5714,-8532,-5532
-104,8,105,-1913,-6671,-10579
-31,86,113,684,-3459,-11104
58,92,-76,-1137,119,-9720
90,115,103,-205,2821,-6510
-93,-92,34,-2383,6434,-2659
2,75,17,-5518,6479,-2428
36,-120,-45,-9321,4214,4062
24,16,117,-4978,3675,10750
-124,-4,8,-583,7760,7921
-108,85,15,-2712,5206,6132
39,25,-114,-13916,-1097,1887
-23,-76,119,-4484,-2840,-2705
120,-1,49,-3365,-7492,-2027
-109,-49,102,2348,-7108,-1208
-5,-101,51,3070,-6711,244
-46,84,36,3659,-5731,1332
-100,-92,-70,462,-4527,2522
-61,-38,-25,-1088,-1240,400
4,-77,-109,-864,-312,-366
-1,-121,57,-707,549,-112
-50,-126,-47,-667,352,-338
-34,120,-105,-238,561,69
-25,-124,116,-2388,1388,-353
65,95,57,-3799,2367,-930
-114,90,120,-5563,3082,-638
-39,75,-23,-4621,3262,872
71,28,-73,-5148,2640,2454
-85,-83,-72,-2539,1855,2741
0,63,24,-1757,1662,2806
41,22,23,-5416,1112,666
-10,-86,86,-2729,371,723
-33,-59,110,-1723,-440,781
-99,-115,106,-601,-1225,-111
126,34,94,1412,-1641,483
-108,31,13,1681,-164,1362
-112,50,-18,401,455,740
123,38,0,-77,-194,311
-9,-118,-116,3799,4467,691
69,21,-81,2424,4960,4519
98,67,-46,-5199,-2310,1301
-62,95,102,-1499,-4827,-4229
7,2,-41,5906,-1104,-8390
-68,-105,-42,3307,-565,-12546
53,-103,-47,3497,-1351,-11414
-47,-53,-75,2298,2438,-9533
-85,-41,-55,3805,4560,-2760
105,-122,73,-6243,7368,-2424
8,59,83,-7719,5366,6170
-54,-118,113,-5601,6969,7194
102,-37,-67,-1931,5932,7789
93,115,-80,-8281,-2471,8416
41,-104,12,-14138,-4719,-6299
-59,31,-2,85,-7534,-4848
-46,49,75,1277,-6251,-8213
-82,4,7,2426,-4112,-9484
-48,-66,-28,1383,-1438,-9554
-4,-68,-74,-93,1256,-8219
67,97,-5,-750,3006,-5161
113,-89,126,-4246,5926,-2722
-30,114,114,-8399,6218,1523
-63,48,-97,-7013,6571,8206
97,35,-20,-2269,8478,9291
0,-56,0,-5272,6421,5329
99,-69,-110,-16926,-472,-8757
-100,96,93,-3487,-8879,2236
-52,100,-111,-3395,-7878,814
-92,75,108,297,-3907,-4827
21,-37,78,5094,-6608,140
-113,-20,105,3603,-6399,911
-78,-9,-69,1286,-3558,75
-40,-60,-87,-1316,-1120,-57
62,89,-9,-1525,-215,-1155
-9,-21,-63,119,-470,-46
-21,35,61,-448,-294,128
-36,109,61,-1058,-88,50
-20,-124,33,-2023,1385,-401
77,106,-98,-3795,843,-561
121,-58,20,-7544,530,-1416
-37,-107,82,-7038,867,-535
-3,110,39,-5646,-43,1064
30,96,119,-4815,-558,2249
-72,14,21,-2987,-1644,2265
101,48,-117,-1316,-522,1801
86,53,-107,-1868,-887,2707
109,36,12,-1080,-1620,2385
-86,-105,25,2765,-619,3459
24,54,-52,3614,19,4160
27,96,90,4986,-1301,4031
-100,10,114,532,-508,-3221
78,72,41,1894,-3760,-4206
2,96,22,3530,-3031,-6749
37,92,-54,-928,-3115,-8759
42,-46,50,-812,-897,-10278
110,95,1,-1728,1781,-9930
-14,-93,72,486,2577,-9580
78,103,-90,-1341,5836,-1244
104,-73,62,-6634,5272,4404
116,124,-110,-7535,7668,8094
-1,-37,64,-1610,6221,13916
-29,5,94,-7809,462,7009
34,42,23,-9479,-4003,377
58,16,-12,-3584,-6768,-3244
-97,18,-3,-2468,-5222,-10877
-56,-54,95,3036,-4858,-8945
-5,37,-43,-696,-1322,-10347
44,54,124,1304,488,-7972
37,15,69,53,2364,-4703
-65,81,111,-3163,3981,-2861
57,101,83,-4920,6048,481
85,-64,90,-6832,5376,4268
-58,-52,-116,-5705,6421,8828
-25,82,-12,-7763,2005,9182
41,-54,-43,-2988,1374,8954
90,-49,116,-11616,-993,-3491
-77,13,90,1355,-6627,-492
-39,98,108,-1224,-5888,-436
-114,-80,-11,1167,-6508,-941
-65,58,22,2438,-7012,964
-127,-127,58,2121,-5372,1330
-107,-41,-84,517,-4140,1184
27,23,27,-1274,-496,305
53,-14,-6,440,-1204,-79
-1,0,-63,-431,-1012,256
-24,5,120,-1378,-7,33
-47,-79,-118,-2092,529,-122
3,-97,65,-4054,1813,-175
49,120,-101,-6537,2815,-459
84,115,-44,-6722,1724,268
-106,-64,93,-5492,1220,851
-69,-61,-90,-4331,99,2624
-30,-101,48,-3072,-925,2786
-89,-38,61,-1834,471,2854
72,79,-42,-3257,-1901,2253
-4,-6,-72,-1459,-149,2495
-75,-36,7,46,-1616,2597
-64,-59,-46,1018,-1077,2617
-60,-116,-82,1645,-860,1910
37,99,-118,2767,718,-6619
-17,58,27,-897,1017,-11368
26,-43,-18,-1424,6804,-12318
-124,-67,79,-829,9829,-8482
100,-41,-57,2704,7066,-2438
-54,127,-98,-1099,6230,1209
-92,27,4,-8621,5546,5414
-60,69,59,-5350,4793,10783
-30,-124,12,-4591,3910,10228
48,-83,62,-9361,659,5840
111,-37,55,-8376,-4472,252
119,100,-25,-2582,-5801,-6685
-45,17,72,-506,-5861,-10488
-42,-41,-5,3306,-3197,-9955
78,79,-63,140,44,-10124
40,-34,121,-870,1771,-7031
73,-22,102,-2101,4848,-4987
41,90,29,-6788,6237,-1149
-18,34,10,-6499,6027,4983
-29,39,-109,-5175,3049,9655
-127,-60,-20,1003,6405,8831
-12,22,-47,-2523,4864,7208
71,87,6,-12981,-1942,498
19,33,-5,-703,-5690,1345
-35,-83,98,-5690,-5686,1691
-37,110,-42,-21,-4616,-1429
48,-53,96,-1127,-7749,2264
6,67,27,-90,-4704,-53
-96,125,42,243,-2924,704
-58,-34,-127,604,-927,-934
1,-14,-35,-1471,-912,673
-48,-78,-111,-106,-732,-352
-49,-85,90,-570,-97,593
-39,-70,119,-3466,1576,-248
85,-127,-44,-4952,2488,-1439
-93,-20,2,-5755,2212,-1046
15,105,-124,-5601,1529,1039
-41,126,-123,-5283,52,3295
116,-78,53,-4315,1389,2646
-64,48,111,-3043,-986,2863
16,119,105,-1697,-734,3395
-79,58,-13,-444,-2616,1992
-52,-96,-53,1295,-964,2606
-4,-81,-122,510,-510,2417
14,-17,-122,-1752,192,1317
-5,-90,97,89,697,405
-74,63,71,2217,113,84
-87,45,11,1623,75,-53
-89,50,-9,-653,-9,-671
119,7,14,-848,129,-629
-22,-68,-124,2764,-1896,-8007
32,-44,118,1745,-726,-10667
21,-126,116,750,1714,-11328
92,-88,66,1385,4466,-8643
6,-54,127,861,4158,-3657
-14,-91,-44,-4998,6499,326
-125,65,-69,-7977,6241,5478
64,-10,-102,204,3490,13656
-33,92,62,-3165,4387,6139
-73,-19,-108,-4424,2051,7885
-111,45,-125,-9119,-958,-1250
98,-124,122,-3017,-7208,-3498
-120,-112,-7,-581,-6142,-6261
-18,16,-119,456,-5918,-7555
-62,38,30,-225,-3406,-8435
67,-36,-58,505,-763,-7485
99,-8,80,1315,1463,-5002
0,-67,-72,289,5547,-4095
110,-121,-19,-5577,8458,-1917
-99,33,24,-4785,10107,5548
-85,-34,-9,-66,8858,8755
-4,28,-12,-1465,7804,2634
116,27,-8,-10165,-1053,983
-37,-49,-18,-3962,-3842,3081
-71,-105,8,-4815,-3254,937
-107,27,-115,-2703,-5044,-613
90,-11,-27,-61,-5355,641
29,105,61,792,-6202,542
-21,51,-6,1887,-5073,1715
113,-65,-70,-799,-1035,241
100,-107,-91,152,-1232,687
61,-15,122,-1649,-136,-234
44,-103,40,-1756,1200,382
8,89,-116,-1572,820,-98
77,-113,35,-4213,1925,-931
-52,125,-5,-6331,3018,-542
-3,-17,6,-6650,2275,383
57,-56,42,-5150,1090,1438
80,115,-123,-4465,392,1689
-101,-24,-43,-3450,-202,1657
125,25,111,-2253,-1138,2395
-26,-30,46,-1640,364,1717
-91,5,-86,-1777,-1146,1586
-44,-90,-119,328,-859,2146
-52,-103,-115,950,-1261,1916
-53,-119,103,713,-742,1541
-72,-126,91,408,-375,966
-91,99,84,825,-89,693
-99,60,72,1524,58,394
-113,21,49,1638,15,35
-4,99,77,2456,-3110,-6021
-69,60,6,3962,-338,-9663
60,-80,-126,620,-1508,-10355
67,-18,85,-1153,2214,-10964
-14,110,-10,2618,4961,-7815
-12,-125,-102,1303,6156,-3515
84,-75,-38,-6682,8479,1078
72,-82,-19,-8041,3883,10841
40,-45,-23,-4431,4984,9856
58,-71,-52,-3368,-1341,8498
125,77,-118,-7639,-5352,-516
-124,15,11,-3357,-4442,-3255
-46,42,68,-585,-3978,-8031
-81,53,-15,1850,-2513,-8629
-85,58,-54,560,-726,-8710
64,111,-92,1637,2504,-7167
-128,-83,88,644,3668,-3759
-22,32,-127,-3136,6815,-1229
44,-7,-80,-5725,7051,2899
72,95,-15,-4300,5901,8084
116,-3,-6,-5718,5659,7846
-68,-40,-92,-4210,1639,11885
14,-128,92,-10698,75,-2094
1,68,-12,-1377,-6277,1699
-73,57,112,-4540,-6542,-4083
-57,28,125,10,-6497,-1316
-33,-72,-44,1264,-3772,134
-82,7,122,1759,-5992,-549
25,-2,-90,2361,-5825,219
-108,-81,-87,737,-1836,589
9,-74,90,-790,-256,100
-31,-49,-84,-478,980,-345
-84,-72,-11,-240,-512,297
-18,-48,-40,-2810,916,-8
69,-122,-104,-3859,2373,-619
114,-97,51,-7454,2371,-646
-108,20,-95,-5993,1733,-254
22,-6,50,-4920,1523,1941
13,-100,-106,-2841,-368,3497
89,98,-11,-4127,-315,3191
31,-126,110,-5582,-1101,3164
26,30,29,-967,-1279,3417
105,108,48,-998,-1173,3127
1,29,35,1209,-1847,1671
-14,-27,-86,3175,-627,1814
-50,-74,55,2523,41,576
-90,-104,2,658,381,174
-125,81,16,783,-2,-197
118,-14,16,2241,15,-157
-98,-50,-1,1658,137,-594
76,58,74,4238,-1869,1992
-81,83,-111,-812,1200,-5091
1,44,-43,4048,-3420,-5221
1,-83,127,2317,-1188,-10832
-63,64,105,638,-2150,-10920
30,95,13,-3179,2302,-13312
56,-48,10,2307,4829,-6995
68,-89,36,-5004,7588,-1276
127,58,-94,-7477,6829,4791
4,-121,47,-5370,4663,10829
-57,38,35,-2447,1994,11985
54,-5,83,-7065,-1737,7009
6,103,-51,-5359,-4198,-2563
122,7,51,-121,-5474,-3418
-30,-18,84,-559,-5562,-7404
-43,56,124,1205,-4514,-7809
2,104,-6,-202,-2563,-8529
64,-78,-103,202,81,-6351
0,-111,-13,-3534,2639,-4756
-119,64,-48,-4093,6186,-1851
8,122,21,-4822,6612,3106
-32,-10,-57,-3322,6307,8086
-12,-28,-41,-1716,5958,9281
43,89,61,-2184,2525,8469
-54,-82,-72,-10575,-561,687
42,118,8,-665,-5386,291
122,52,65,-205,-7006,939
-16,77,-70,1752,-7460,2125
-69,-111,17,1209,-6745,2036
-76,-24,-84,1282,-6185,1510
115,100,-2,-1518,-2485,1199
-80,-4,-122,-54,-1528,17
-61,-33,-39,-1324,1006,-224
69,-116,96,-108,160,-26
66,-76,-107,-813,1549,-268
124,-82,82,-1111,2046,-355
-65,112,-22,-2852,3091,65
9,88,83,-3491,3634,13
-23,-77,-53,-6429,3596,1141
86,116,96,-3212,3355,1187
-26,106,96,-2979,3677,2673
-10,-95,-107,-2124,2190,3279
120,40,3,-1801,328,2697
10,92,82,-2494,-242,1604
-14,-1,51,-335,1316,1470
-18,-14,28,-309,675,1442
-52,8,66,-978,-600,804
-36,26,37,-269,101,821
-42,-14,14,289,321,-461
-71,-103,21,1251,-240,-401
1,73,79,-1564,5131,-4448
45,57,-82,3537,-5337,-5767
-46,-16,124,2522,-1407,-11031
8,22,90,-574,-1116,-11287
-39,-3,44,1714,1865,-8191
126,84,93,762,3252,-6146
107,30,21,-1709,7247,-2595
56,107,-120,-4569,9829,2213
-117,-33,-89,-7296,7412,8898
-2,-65,-39,-1039,3410,12390
90,-25,42,-10605,-3072,7654
91,-40,61,-12561,-3492,-2735
-116,-108,32,-5027,-4790,-6961
-86,-111,-90,6210,-1938,-10028
-114,-10,-73,769,-3447,-9242
-18,-2,-128,483,1202,-9741
30,-53,-26,1100,2046,-5980
-12,19,119,-2338,3905,-2387
36,117,-4,-5946,7243,4112
125,-3,118,-3144,7349,8222
50,-45,-121,284,6460,10256
90,31,40,-2566,5741,6631
-124,33,22,-16318,-3338,2797
27,111,15,2389,-1754,-536
127,49,-127,-1416,-6219,1731
-77,46,-77,-1273,-5313,-2993
12,78,-110,2397,-7617,353
41,-57,-52,750,-5434,-723
5,112,46,856,-5236,639
79,126,-2,-482,-2484,291
85,110,-5,-1101,642,-713
-88,33,-32,-918,-162,-476
-59,62,-116,-1527,-1020,99
-14,47,70,-2570,918,534
8,61,-39,-3400,2276,-201
54,-104,-14,-6760,3424,236
-92,-114,68,-6140,2937,514
-6,24,2,-8083,413,393
-5,87,108,-4046,-1695,1403
11,-4,65,-1819,-1211,2739
93,114,-78,-1968,-501,2251
-128,83,-90,-1517,-990,2326
125,105,-23,-2141,-1759,1930
-76,-8,-32,-658,-987,1875
-66,-24,-60,188,-940,1348
-81,27,-111,-1176,-1199,206
114,-89,-79,849,-1013,962
123,124,-122,1947,-83,1135
105,103,110,2883,-301,850
108,55,53,3236,-423,850
12,-47,77,4780,589,3652
88,10,121,-3977,286,375
-9,-24,119,2590,-1479,-5072
23,-46,-106,7657,-6033,-5153
82,110,-97,4461,-7195,-8065
29,7,-105,-2043,-4859,-12568
-75,9,-17,582,1074,-10291
-20,-22,-43,85,4028,-4034
64,67,91,-6132,7188,-2510
-98,-20,-51,-9351,6275,4399
-49,-30,-93,-317,5871,15275
-98,-27,12,6094,10122,7168
111,64,-101,-10540,2956,-986
12,24,102,-11131,-4828,1414
28,-38,18,-3684,-6373,-644
119,-38,2,-2992,-6332,-6549
-22,77,-34,-913,-6473,-6634
-29,-34,18,-1980,-3828,-8566
14,-92,-50,-286,-1212,-7403
3,81,38,70,842,-5048
-27,-74,-88,-2284,3481,-3384
92,-116,-52,-3023,7198,-508
-38,118,-107,-3830,7601,2781
-123,-83,107,-521,7680,7317
54,-93,75,-374,6597,6045
-36,91,-103,-3806,5862,5171
-95,-48,5,-13339,-281,1031
-70,-3,-81,-2213,-2650,1757
86,38,-78,-5067,-4822,-1412
26,16,114,-243,-4786,-1746
-46,-48,-28,43,-6818,-1007
59,28,94,1732,-8103,271
24,86,27,2485,-5757,803
-120,-64,78,-808,-1886,-359
-86,111,100,-492,-994,198
37,86,-35,-741,-104,-218
18,58,120,-400,-6,141
34,103,9,-640,516,27
54,-106,-36,-1586,770,-254
119,-41,-102,-5444,2060,-684
-63,-121,11,-6375,2466,-866
-15,-109,-126,-7320,2195,51
37,-115,49,-9397,839,1440
105,-81,125,-4087,1160,2212
-84,73,-90,-774,-982,3213
79,-42,123,-1786,-398,3334
7,-4,0,-1641,-2402,2400
125,-70,-72,-383,-422,2844
93,3,1,-1362,-1196,1957
-1,109,-59,1149,-926,1477
-34,2,67,4940,1495,3087
-60,-27,120,906,621,2591
14,44,33,754,-301,2049
-43,90,31,-2439,-781,-1425
-97,45,-11,1948,-2000,-4290
71,106,119,1974,-4689,-7730
-35,101,-80,-216,-4117,-10043
-20,-30,-52,-2297,-407,-11760
78,-112,79,-1843,4774,-10599
-70,92,-62,2305,4155,-5499
-108,87,-62,-1509,4138,-1814
17,-55,29,-5569,5024,2239
72,-74,-65,-6589,3556,7185
-87,28,-93,-2823,4494,11266
-36,121,9,-4703,2841,7817
-43,-25,88,-11649,-5155,3749
42,43,12,-3805,-5468,-4596
-128,96,120,-2981,-4270,-7734
-113,29,-122,1549,-1514,-8101
107,-6,116,2570,-723,-8179
42,23,108,890,1,-7528
50,-98,17,1947,1935,-5360
-103,119,-113,399,2786,-3416
-120,-93,100,-2054,4709,-957
27,81,-70,-3109,7330,1141
-51,82,-51,-4286,6781,5185
17,-78,42,-2995,6070,8062
-44,109,-128,-100,5837,7073
-33,34,40,-6042,279,6355
34,55,120,-8671,-1122,3708
-95,-119,49,-1463,-3605,816
107,-69,-66,-4631,-4765,207
22,-99,15,-10,-5998,-2971
94,-45,5,2665,-8395,818
-77,99,53,3013,-4686,532
-76,-6,-119,1129,-3396,1318
43,65,112,-563,-1537,632
109,87,-65,-810,-1271,603
29,7,83,-1163,1062,-129
-49,-38,44,-311,-91,166
-5,-34,-78,-1241,1049,-162
23,-50,85,-3346,1849,-315
81,-108,-82,-6487,2965,-1086
96,-121,5,-7311,2921,128
-103,-74,-124,-5128,2052,618
-11,111,-83,-3531,1322,1948
17,17,5,-3363,319,2355
56,86,35,-2910,242,1912
79,104,-103,-3265,-65,1411
-67,72,-64,-2515,685,2172
55,-75,127,3636,-2001,-6649
39,44,73,1148,1312,-10203
-60,-110,30,142,2992,-10660
13,20,-62,-2431,4779,-9297
103,84,-36,-319,7355,-6240
-81,48,-99,-463,6108,-1081
-39,45,90,-4148,5363,2267
-76,-30,-30,-8441,2979,6248
64,-96,-44,-2633,2387,12851
-93,14,55,-7249,6847,6177
50,-110,1,-4648,-2698,12125
44,1,-27,-11736,-4471,-5608
119,99,120,-2118,-6244,-4850
-73,34,-20,2200,-1868,-9891
-110,-35,-35,3896,-3513,-7677
-119,80,-28,578,-1028,-9427
-109,97,121,1386,1513,-7514
-116,116,25,-175,2790,-6477
1,-127,-93,-1840,3109,-4302
-69,124,-81,-2587,5280,-1114
-4,41,-84,-4127,6322,1727
93,-69,86,-7885,4890,5613
-112,-128,95,-3107,6944,8440
-3,-116,62,-5401,4467,6677
-99,74,54,-10418,-2525,3545
19,-35,-111,-6035,-1424,-1085
30,25,86,-3407,-4240,2804
48,-107,-42,-1650,-2939,-2829
116,-113,-125,-143,-6878,-816
-90,57,82,1752,-5973,93
83,88,-76,3164,-7942,1030
-32,25,-89,3101,-5628,961
-72,-100,73,-749,-196,458
-40,57,38,-871,28,-8
-71,-20,-89,-999,-197,257
-96,-32,113,-796,79,-151
-71,-54,110,-1518,946,-185
-24,-27,39,-5689,2264,-617
8,102,-104,-6066,2111,-46
64,46,-7,-4336,1250,335
86,89,31,1188,-1007,1591
-97,-8,55,2298,-449,1943
-52,62,-108,-3350,2088,1685
-54,-31,97,-3215,1699,2101
-47,33,-81,-2777,1081,2186
11,90,-40,-2105,816,1821
90,116,-62,-1947,1050,1374
51,-83,43,-1459,-40,1351
87,104,5,-166,253,2160
74,124,54,-86,-632,1952
18,117,108,4166,4317,4780
33,55,-104,1748,1599,4194
71,-77,107,-2627,-3803,-2864
-18,-59,-94,1594,-3549,-3851
89,-25,16,2302,-4352,-5847
34,70,-11,1420,-3735,-9946
-59,60,-70,280,-1644,-10711
8,-12,126,605,2001,-10329
43,-19,-126,3355,3383,-5266
15,8,39,841,7594,-4446
-72,-80,-73,-8087,8109,2268
-121,-43,6,-7391,6582,8277
61,3,41,1091,5830,15247
13,107,-35,-4293,6482,5632
-25,29,113,-9164,-121,-859
-43,-127,-42,-6133,-6363,-344
16,-22,-20,-3929,-5646,-6703
119,11,-86,800,-6184,-5743
-46,-63,-8,-665,-5742,-7571
-120,41,59,-255,-3361,-8552
-73,19,-48,-330,-204,-7031
-110,0,104,-1006,2308,-4675
12,69,124,-2498,8029,-2675
62,-27,-9,-3704,10402,2260
-84,-69,-1,-1998,8582,7677
-81,119,122,2623,9028,4757
-4,-93,-43,-4717,4503,4299
-21,-104,32,-8663,845,1052
93,-17,-100,-5385,-3295,2014
42,-86,-18,-5017,-3017,-273
-40,-42,53,-1551,-5918,-72
-94,-112,-103,379,-7239,627
63,24,9,-138,-5708,294
0,108,-20,-455,-4376,639
62,-67,-13,-1604,-1106,-50
50,-123,-94,-614,-105,-24
-17,102,42,-304,-635,66
29,101,-79,-863,915,-415
-23,56,50,-299,663,-62
89,71,-29,-915,1723,-407
-109,115,123,-4798,2358,-791
-1,64,-87,-6485,2926,-1016
30,-103,123,-5468,2168,579
50,-5,77,-4441,1741,1058
-75,-18,-76,-3801,1046,1819
-89,91,43,-2880,-157,2126
-14,91,63,-1616,422,2294
-67,-34,-41,-3016,-1460,2073
26,60,-118,-675,361,1932
-64,103,-50,-1429,-1190,2119
34,-82,39,1232,-2099,-5179
-31,-91,75,2107,328,-10183
-29,100,78,2988,1613,-11795
105,113,96,40,4620,-10305
92,47,107,4542,6057,-6465
10,106,-127,2728,4930,-4694
-59,55,-16,-5177,5446,-3057
80,-113,-76,-7874,5154,-172
-101,119,-48,-9239,886,8045
124,-11,59,-6901,1777,11210
12,41,-116,-4084,2630,8302
-21,123,122,-10216,-6381,1981
-124,-49,58,-4066,-5203,-5567
-91,31,96,-1064,-6246,-5178
30,-35,55,3534,-2896,-6520
-14,-108,32,2631,-3346,-7339
82,54,24,2515,-1172,-7597
97,-20,11,1159,1011,-6857
-40,-28,80,-82,2309,-4855
-7,23,100,-1829,3723,-3153
46,-92,-122,-4277,5433,-1056
94,-109,-77,-7734,5630,2175
-100,52,46,-7288,3839,8486
68,-94,-30,-5183,5728,5787
-84,-90,25,-5547,457,7696
85,13,37,-8298,-2721,2664
-16,56,-42,-4315,-1842,-3206
7,-37,-125,-4419,-8078,-1301
-84,63,16,5,-4936,-3419
-80,-55,-59,2596,-7822,-499
-23,64,-122,3137,-8156,147
-43,-88,-68,3844,-4828,918
24,112,-104,553,-1877,444
97,122,-113,-117,-1767,335
12,8,55,117,-149,-180
-63,-11,-76,-470,-312,325
-89,-15,124,-725,-449,232
-59,-48,91,193,136,-94
-59,1,59,-692,187,44
-33,-23,43,-924,707,-184
26,-27,58,-2313,1271,-124
80,-13,30,-6607,2468,-530
82,122,-72,-6649,2283,-281
-107,47,48,-4963,2296,403
-88,-52,65,-3736,404,2069
23,66,-26,-3064,1464,2508
18,23,59,-3373,-194,2807
80,76,34,-2786,389,2557
-123,-72,-80,-2591,-928,2530
-86,124,-79,-956,-839,2526
52,116,48,3387,-3817,-6018
-48,-125,-105,1453,-2909,-10069
-27,-27,-62,1609,-564,-11494
75,-1,-107,864,4150,-11052
83,82,35,3058,5892,-5671
-48,69,8,-3665,9692,-2403
122,-44,116,-9726,4465,5834
105,-1,-108,-6069,5667,8930
31,-33,20,-3689,4472,9300
-1,-20,-4,-9820,-1811,-99
102,-113,-62,-5152,-5760,1346
82,48,109,-4375,-6565,-7070
-57,32,80,1344,-4709,-10048
-120,-47,11,3596,-3292,-8271
-86,11,-11,1037,409,-8876
101,59,-70,160,3090,-6286
-124,-24,124,-1123,5407,-4742
24,65,103,-4660,5782,-1162
67,67,-72,-8232,4907,4376
-93,-49,67,-3638,5669,9302
28,1,-34,-4778,3728,7437
-109,-93,44,-4563,622,6779
62,123,-100,-5721,-1678,2570
-100,69,-84,-3584,-4793,2146
119,87,-54,-4307,-4464,-2053
-82,-128,-1,1123,-6737,-914
29,22,-85,1899,-6933,1295
-47,-112,-88,630,-4882,802
40,-110,-48,293,-2905,516
41,-17,44,-397,-3159,914
-45,-13,41,-572,-2411,272
101,0,-65,-1333,-1478,429
68,-82,-104,-1545,1250,-506
20,107,51,-516,645,55
25,-122,-72,-846,1381,159
69,124,34,-2760,3053,-367
-113,-41,73,-7823,2548,-789
-73,-111,53,-8110,1709,-222
-100,20,-121,-5154,838,1246
-39,-70,-76,-3305,1477,1441
-26,90,-117,-2166,-521,2264
35,-53,123,-3600,330,1725
-109,-43,-85,-2782,1532,1657
101,-99,-42,-1066,-367,1730
79,-105,-34,-698,-1625,2013
102,-123,-11,-720,-1123,2064
116,119,-33,-680,-842,1737
-113,-73,-49,-2254,-566,1
124,-108,-20,-771,-1148,567
61,44,-19,2422,-1039,2017
102,64,-6,1471,-4554,-5485
-92,-124,101,1982,-6447,-11141
22,26,-9,-3345,-3384,-13558
77,118,83,1111,2146,-9382
-78,-118,121,3622,3847,-6175
34,-44,-103,518,7611,-5534
4,-49,115,-11574,6838,3164
12,-27,76,-7233,5290,11550
-88,-102,50,-1392,6882,10707
31,49,10,-5766,-421,6259
-102,30,17,-11258,-5837,-1219
29,5,-28,-4482,-5354,-2699
75,96,61,-3606,-7023,-9664
-103,87,-16,3660,-5869,-8747
0,54,46,1454,-4227,-8782
-24,-76,-53,-1498,-43,-8732
-67,107,-121,-480,3776,-6986
113,101,-80,-6211,7828,-2711
63,85,51,-10017,9918,4354
-14,54,-67,-2834,10889,10312
-80,6,72,1575,10126,7230
69,-89,-6,-15089,-221,-1921
-19,58,-36,-4669,-7315,3680
28,101,66,-6287,-6410,-98
19,64,63,30,-6214,-1600
-30,-29,32,909,-8502,585
-4,107,-19,1005,-6768,497
-40,-122,0,1279,-4710,260
28,-55,-24,-600,-3865,282
-52,126,0,-863,1332,-881
39,83,-89,-1971,-323,218
25,-8,-64,-2164,1256,-107
66,48,22,-5436,2294,6
96,81,-78,-6495,2185,-159
119,-8,-43,-6019,1955,952
-75,25,-15,-5208,1103,1203
-34,-60,-126,-3199,-672,2329
80,76,0,-2120,910,2482
5,-66,122,-3152,-1600,2519
-111,-111,-94,-2974,-174,1975
-103,41,6,-136,-1196,2503
-59,-56,-36,855,-683,2880
-2,24,-115,-1140,-428,2062
-39,-58,-111,325,-839,1991
-34,-35,127,408,-271,701
-64,-119,110,1472,-277,443
-86,62,72,1681,-295,440
-105,20,51,1383,-250,72
-111,-24,31,988,-13,-341
-89,-63,26,461,169,-593
-41,0,43,3782,1341,3867
74,81,-29,1005,1652,3756
73,1,87,517,1374,-691
36,-69,114,1326,-3164,-2923
-22,112,-85,1154,-3593,-6539
-32,-47,-10,2607,-5387,-8169
-78,-61,-12,-295,-3621,-11383
83,29,-79,-1918,936,-12003
50,-75,109,1558,3018,-7430
-72,-92,-16,-20,4472,-4915
-117,92,-83,-8391,6742,-722
-12,-23,64,-6837,4719,6147
-22,-60,87,-4743,4485,8087
29,-87,39,-4530,3097,8637
20,87,98,-9221,-219,4987
-18,28,80,-12930,-3948,901
-90,-117,-10,1530,-6461,-5212
111,82,-89,1020,-4970,-8549
-121,-16,21,3070,-3981,-7455
-91,59,-7,1702,-2218,-8117
8,25,-40,388,-97,-6912
34,62,23,-5,1634,-4960
-75,51,104,-2009,3547,-2997
34,-107,-22,-3530,5016,-1262
-62,30,-77,-5364,5634,1639
122,50,76,-3536,6342,6097
-8,7,-95,-149,3154,10932
47,-66,-25,870,7201,6971
-96,-2,117,-10397,2177,4269
-98,40,95,-2175,-3359,2325
122,-127,62,-6228,-4556,2451
-98,-53,27,-3853,-5441,-1805
-99,113,-57,2339,-7123,-29
76,106,-40,-1131,-5695,-1125
-37,32,55,2095,-5322,-312
122,113,-107,1415,-4760,1043
-109,-32,20,-599,352,-220
35,126,78,-1062,94,-14
-15,61,-59,-1192,-182,497
-35,111,74,731,450,-445
-35,-123,3,-463,653,240
68,-90,-17,-1328,804,-175
-127,-88,67,-3366,1449,-705
-96,-98,-5,-6494,2259,-834
-40,20,41,-5853,2405,345
47,-30,-64,-5268,1789,2846
123,-50,-125,-4126,1508,2533
-77,44,37,-1272,943,1571
-84,-110,89,-3047,738,2212
-1,122,116,-2932,586,2284
66,-42,-87,-4500,650,-4669
23,-71,83,4580,-2110,-5389
86,16,103,4262,-1506,-8664
-28,-80,-103,961,-1208,-11120
-47,-93,52,1196,-276,-9440
17,103,116,1639,2437,-7648
-115,-55,123,-974,6775,-4271
91,97,67,-5482,7451,-1535
122,-47,-24,-7920,5622,5057
84,-36,-115,-1565,5573,11218
65,21,-66,-5951,3835,5562
8,36,10,-3455,384,5258
-116,115,-34,-5012,-5565,1211
-18,103,51,-1805,-5423,-1087
-104,22,30,-3044,-6667,-5252
-110,-56,-26,23,-5474,-7827
-37,-88,100,-663,-3472,-8771
64,104,-34,490,-125,-8331
-61,99,103,1560,1881,-5687
-107,127,3,-244,3064,-3886
-17,43,91,-1130,4986,-1618
-26,83,79,-4987,6992,2109
106,-79,84,-5209,9677,6636
27,67,-120,1526,9873,4265
20,-41,61,-4559,4942,3577
12,87,-50,-11250,-1060,972
-22,88,-67,-3945,-4515,4495
55,-53,34,-1881,-3286,405
58,34,30,-1040,-6240,1750
-2,92,1,694,-6597,692
67,-65,34,1398,-5051,1085
70,23,26,1413,-3344,1342
-72,93,88,-1350,-3024,885
39,-22,-81,-791,-1404,595
-90,-85,-90,-829,-110,142
107,-115,21,-311,29,-278
82,-108,-63,-180,809,-250
-121,-110,-106,-837,1857,-1358
-102,-72,-54,-3575,1766,-107
-70,-49,-66,-5341,695,-978
11,125,111,-6495,865,-1141
25,104,20,-5224,1188,-923
80,-31,-29,-3747,1566,819
41,-103,-25,-2712,851,1902
87,26,33,-2932,282,1886
-69,71,47,-2912,1153,2106
-119,-119,-119,-3115,-638,2159
-55,-113,-64,-2931,-905,2118
-68,78,-22,-865,-1725,2612
-68,14,1,1233,-1071,3240
-104,12,-99,7080,1848,3166
-33,-42,-70,2854,2225,2415
-76,-30,-21,697,1140,258
-38,-70,-38,-297,657,-40
32,61,123,-1199,-1703,1081
32,-1,116,-1572,-4122,-4799
-86,12,-124,3638,-2808,-7219
-35,-102,34,3441,-2706,-9364
98,5,27,480,968,-11544
46,78,2,2004,4542,-10791
36,79,65,4148,4729,-4750
61,-127,57,-1705,4882,-2050
2,-96,49,-7490,5988,594
63,123,-23,-8367,4668,7201
98,86,13,-6454,6009,10664
-109,111,-51,-7371,6200,3819
80,2,74,-9210,-5294,1032
12,-22,0,-2682,-5779,-2330
18,61,-48,-4344,-7448,-6784
-90,-46,95,511,-5498,-8556
-1,-86,34,1920,-3897,-8555
-40,-32,-8,698,-1059,-8845
75,112,-54,2012,1323,-5999
-95,-41,-26,320,2839,-4873
-83,47,39,-1787,4528,-3582
-14,102,-74,-4194,5565,-530
-112,60,42,-5955,5768,3820
-97,-94,-2,-5775,4579,7951
-104,40,55,-6457,6770,5243
94,-55,-63,-5542,186,8540
76,-65,8,-6070,-724,3188
-117,58,17,-5922,-1471,-2270
65,-15,72,-2287,-6605,-897
112,-34,112,-111,-6586,-1766
-48,-127,-126,1705,-6631,-906
-80,-60,-123,1403,-6176,614
-104,-24,-114,596,-4630,617
-114,-40,-108,509,-2445,205
17,-54,-119,-359,-707,-76
-94,-101,-22,-265,460,-57
-118,-61,-119,-629,-410,-167
-97,-104,47,163,445,140
-91,-33,-25,-496,193,-140
-40,-16,-9,-2640,1023,-862
51,-42,-46,-6868,1944,-1896
34,91,93,-7706,1320,-843
112,119,-85,-7013,780,497
-109,56,-104,-3853,-857,4303
-3,-35,-117,-3621,1437,2402
-2,-68,-117,-1704,-1057,2231
-72,112,2,3685,-2311,-7269
33,-121,-82,1837,-1797,-10424
5,100,-101,852,402,-11014
-7,42,-126,36,3899,-10034
70,21,13,263,6005,-6521
126,18,-128,733,6667,-2881
23,67,-36,-5631,5584,1188
24,19,-3,-9237,3341,6001
38,80,70,-12325,2180,7051
95,-75,-91,-5917,-2672,7435
-47,-98,-56,-7580,-6450,6485
93,1,-33,-2450,-961,-4467
105,-127,126,-5580,-6741,-6671
11,80,-119,3132,-1941,-8591
-1,41,-76,5906,-2415,-7093
-80,-75,-24,731,1035,-11047
88,93,-18,2834,3994,-7293
-94,-52,79,256,4547,-5801
117,-7,87,-1451,6434,-2697
55,-122,20,-7185,4715,932
-98,-17,-120,-6794,5156,4950
39,-24,-117,-6264,3831,9084
-126,-71,126,-5764,6791,6125
60,5,103,-6370,-1325,5518
-73,-116,58,-5660,-844,-4793
60,68,-15,-6614,-12686,2099
62,-96,-49,-1411,262,-5133
100,73,-104,6206,-7091,-556
5,122,88,1942,-7323,3218
72,20,-108,1803,-4985,426
84,72,-27,639,-3567,1041
104,84,-64,-887,-64,-140
8,48,81,-519,-532,-43
-29,-17,-19,137,-94,-60
-44,-3,-108,-556,570,43
-64,-39,80,-194,490,-374
-34,-26,-14,-1130,1137,-253
21,36,-22,-5235,1635,-496
73,-32,-110,-7963,1437,-1479
115,75,3,-5834,1362,-430
-103,-78,-39,-3642,1108,806
-118,53,-15,-2507,851,1261
-62,-29,-6,-3012,481,1824
15,-7,7,-2562,812,1988
19,84,22,-3597,-328,1974
86,98,115,-2388,-1319,2324
96,70,-59,-177,-1295,3029
-91,70,-74,400,-688,3050
-102,-80,-55,-831,-1544,2221
-96,-37,-88,-1237,-493,1081
-124,89,125,5017,-1913,2357
-36,-102,-55,-2944,710,-2926
-94,-94,8,-201,-4169,-4468
-103,-108,124,154,-3749,-7893
-19,-68,126,1049,-1787,-9972
-21,-101,-46,1620,599,-10174
83,80,-70,2402,3461,-7698
-21,-23,-9,2206,6790,-4814
16,-37,8,-5710,9081,-932
112,-112,29,-7947,8292,4741
124,-100,83,-9085,2935,10497
12,-10,53,-3423,3469,6516
119,72,47,-7855,-3526,2777
34,61,26,-5052,-4126,-1480
40,72,16,-6185,-6672,-6005
104,27,1,458,-5704,-7649
-85,-68,37,1781,-5216,-7987
-62,-111,4,635,-1875,-10020
77,-14,-47,1610,1416,-8096
56,-47,-127,-1318,3158,-6213
12,-82,-42,-208,8293,-3545
-100,-70,-59,-5875,6223,261
77,34,49,-5786,6499,4553
-73,-62,-50,-3488,4967,9023
52,29,-58,-2326,4769,6881
-82,-36,81,-9611,1246,1687
1,121,-17,-4786,-5518,-783
-22,-5,-47,-2629,-6125,2747
-60,-12,45,-2705,-7025,-198
94,-96,-79,1221,-5530,137
-52,-103,60,1657,-5451,1412
115,-27,-114,18,-1561,128
-67,-74,81,-471,-1163,-54
33,-107,64,216,-872,650
-54,-101,-100,-449,135,-415
-84,119,60,-215,65,415
-13,-101,-6,-482,1386,-548
117,0,-33,-5234,1815,-971
-51,82,-123,-8294,1073,-2381
-41,-25,53,-6946,-237,-93
-13,-104,24,-4982,1815,2831
28,-125,-124,-5220,-701,4291
-127,53,-19,-2990,-908,2215
-116,-110,-121,-1416,-1389,3257
116,-112,-22,-1460,-1344,3664
9,46,-96,-5,519,3076
-9,-48,-31,1235,-1056,3207
-32,-68,-114,1246,-1303,2359
-45,-36,82,-154,-655,958
-101,-47,44,-426,183,-136
48,70,-43,-5936,-2441,4294
66,-22,-5,2626,3192,-7010
23,31,39,6100,-825,-8566
-69,121,4,2113,3090,-11274
23,-39,33,7494,-55,-9117
53,-87,84,-2016,9619,-13078
45,-15,2,591,10698,-3475
-111,-82,-27,-7444,7590,4206
-48,-24,62,-6892,5762,11205
-10,4,-103,-9350,5075,3808
3,-49,-58,-1002,-772,10032
40,88,54,-7821,-1902,213
59,80,-96,-5571,-4115,-5899
-100,39,-102,-1239,-5938,-8649
-44,119,-19,3362,-4141,-7981
-81,124,-29,931,-3184,-8246
53,-111,-70,2139,-39,-8134
-115,-4,-88,1918,1248,-6119
-28,-8,-88,-1143,6715,-4378
40,-58,-64,-2096,9972,-499
-114,5,98,-3797,8713,2980
108,-115,-102,-5228,6790,6027
79,-27,127,-2203,4596,7122
-82,-122,55,-3196,3108,5413
-9,-77,-14,-9466,-685,500
88,-51,77,-5141,-4713,413
82,-75,-50,-5754,-4339,-73
-8,123,-58,1012,-5430,-920
-114,72,11,1053,-5598,-2186
108,73,91,1326,-7666,2220
-42,-86,-5,1426,-3739,418
28,-66,12,348,-2376,615
-106,-47,29,-408,-1224,466
17,-51,29,-625,-274,115
-4,102,-21,-322,620,87
-12,-90,-97,-795,746,265
41,-83,-98,-1849,1899,-452
89,-92,118,-5534,3610,-967
-84,23,-105,-7036,4177,-920
1,-107,-52,-7322,3690,-1047
62,21,-76,-3233,1588,1691
-122,-25,-7,-2809,403,3464
-78,-99,35,-4267,421,2542
-51,85,64,-608,-613,2728
1,58,-99,1812,-615,3944
20,-115,67,-1247,482,1161
-38,79,39,-1828,107,882
125,47,92,-841,-710,1336
117,34,70,430,-210,1542
117,56,56,459,-26,867
-14,88,-44,755,-1148,-7264
119,-96,41,2506,-520,-9225
-1,28,63,3049,718,-11497
-37,-26,57,-184,4240,-11268
52,53,35,1803,6985,-10017
29,-111,17,-2911,7163,-6
7,-40,116,-7491,7307,4717
-3,21,-69,-7105,7339,12327
2,93,-78,-578,4698,9974
90,67,-34,-6567,2094,6073
-13,54,-20,-8749,-414,-256
37,-69,-90,-7772,-5166,-4678
82,84,-110,-2316,-6396,-8807
-111,-100,-4,764,-5740,-9452
-1,28,-50,586,-2728,-10588
15,-78,-124,1232,2964,-10185
4,120,-101,1117,9352,-5656
-62,34,-33,-9679,8764,1610
-91,68,-88,-5391,6171,9725
-61,109,62,1412,6558,6092
-25,-15,-90,-2480,4816,6532
-115,-94,109,-8714,624,3484
4,96,6,-7495,-1478,-1764
-22,20,-18,-2816,-6578,1402
-72,-20,-3,-3772,-6198,-2827
-124,-76,-9,219,-7282,30
-2,118,76,1265,-4766,-809
-93,56,-7,911,-4943,1067
-128,-18,-92,1077,-3036,975
7,18,87,227,-1,-1198
-91,11,-2,-1195,864,305
-126,-31,65,-1702,399,36
-106,-100,19,-2104,886,-417
22,-47,-93,-4675,2109,-1208
35,-45,-10,-6973,1876,-424
-127,50,124,-4709,3149,139
-87,58,-123,-4330,3066,2028
100,-96,-119,-4120,860,2279
-46,11,23,-2957,-838,2504
19,75,64,-3033,418,2239
75,88,106,-4111,445,1302
-31,93,-6,-4319,-1976,1857
-56,59,-81,-807,-1932,1973
19,-20,-104,3078,-774,2068
-31,-19,15,2923,-1359,1286
-55,-72,126,1575,-426,267
-74,111,29,281,616,-327
-80,60,20,897,477,-25
-62,-14,-21,1821,-57,232
-75,-64,5,1961,-465,-20
-81,-112,72,1942,-5114,-4480
-15,33,19,933,-4449,-8629
29,-76,-28,-1164,-2269,-10604
12,-7,-1,-892,680,-11309
56,8,71,845,1187,-7675
-80,-27,64,644,3494,-5142
-49,-84,-107,-3012,5726,-2782
-106,104,-88,-7046,5719,840
-22,29,33,-7866,4294,6343
27,72,34,-7948,4851,7822
-119,-120,107,-5362,3365,6717
-80,-60,-94,-3765,-2144,8388
22,20,-93,-8743,-2166,-5962
25,35,-25,-2638,-10053,-8106
-71,-13,-1,2533,-4854,-9086
-61,-67,-38,3834,-3825,-8898
4,-18,-86,1350,-653,-9449
65,7,-109,1158,2731,-7227
-66,111,-80,-366,5180,-4354
-6,-115,-60,-5102,6476,-742
-74,85,-14,-7219,5504,3182
-121,-91,-62,-7872,5540,8211
60,112,-118,-5484,4466,10710
-79,-35,-122,-6560,1796,6972
31,-101,55,-10221,-2436,-2913
48,-25,-19,-2420,-5387,-351
-56,-55,68,-989,-7295,-3586
57,-86,48,2479,-6614,-804
10,-80,49,2090,-6427,800
-24,-4,-56,223,-4689,-629
80,-98,-5,1728,-4751,-29
81,-59,-51,-1092,-1671,-182
72,-47,77,-3460,1251,-747
-38,52,-20,-1476,-213,-116
-16,115,110,-2583,1699,746
62,-44,-125,-6605,1751,-649
-99,-7,45,-7177,1666,580
-120,-122,43,-6189,-1511,1346
-54,-20,-127,-6155,-2452,3106
-89,19,67,-2356,-495,3401
13,71,41,33,-772,3236
120,96,-22,-695,-1404,3149
-76,34,30,-86,-2220,2994
9,-51,-30,1461,-1197,3041
23,-25,-64,1890,-1499,2635
-30,6,-102,1547,-1734,1814
-84,-29,-126,1714,-942,591
104,-70,92,1426,-208,-109
57,-123,87,842,141,-627
81,51,76,1332,573,-989
89,80,31,-1643,-3012,-8310
58,13,113,120,-1001,-10492
-12,-39,64,-375,1164,-11055
1,-37,70,1002,4401,-9436
41,43,-73,4000,5854,-5829
115,-66,126,11,6141,39
49,-96,2,-7151,7669,3661
60,-58,19,-4798,7481,7943
-70,-70,78,-130,7057,9328
-38,-2,-37,-3991,1689,7936
53,-109,-63,-10101,-374,2049
2,-35,-113,-3127,-5244,-339
41,13,-11,-5820,-5582,-6531
-62,59,-54,-1593,-4065,-9540
-29,9,-3,1945,-3307,-9102
27,84,30,313,-729,-9343
125,96,-1,1817,811,-7328
-9,-121,-54,-468,5688,-4578
-114,97,-94,-4907,8914,-293
32,-82,-101,-4690,7195,5468
-45,108,124,-3032,8236,6476
-86,25,95,-793,2472,13415
-24,100,-58,-6212,5571,-188
-38,18,-58,-5495,-5858,3837
42,80,59,-5147,-3602,4273
-121,-38,-28,-4093,-3381,-1820
-67,30,-76,1017,-5472,-466
-114,-111,-2,103,-6477,1369
34,-114,101,1198,-6814,1097
88,93,94,1197,-767,40
-71,-105,110,-1094,502,473
35,-124,-18,-679,-368,666
44,-120,-75,-663,383,325
44,-114,-88,-1635,2116,84
92,-117,24,-4344,3509,-129
77,44,-82,-4527,2792,493
-94,-103,15,-4754,2461,1864
-29,-42,-54,-2540,1880,2675
32,-65,98,-4885,2579,1913
115,54,-112,-4679,1545,2056
-98,58,28,-2272,526,2334
-69,-96,-122,-2231,-26,2293
-9,-123,87,-667,293,2141
-64,-104,100,545,-661,2173
-77,-79,52,5,-300,1440
-101,-62,34,-978,-50,290
125,-101,74,-135,-184,-72
101,54,53,2635,40,212
116,43,11,2143,185,-313
-125,-17,-24,1177,325,-987
-14,34,125,6423,2373,3483
63,-88,-112,2567,2738,2942
26,95,-67,-263,1146,1794
-12,-53,86,-205,777,-555
80,-53,46,2225,-5052,-4705
-24,86,-87,3119,-6198,-7290
-81,120,62,540,-3197,-12625
67,69,-23,1205,-111,-11853
83,-24,-58,2428,3538,-9052
76,-115,-30,6973,5336,-4745
42,-97,71,-772,6644,-3401
100,-82,74,-8357,5662,-15
25,29,20,-9467,4790,5919
5,-76,12,-8459,3962,6234
-55,60,125,-6359,867,7574
-93,33,27,-7651,-1736,3677
101,-65,-37,-8941,-5458,-6384
-75,-81,-26,2614,-5613,-7936
-9,-89,66,2465,-6135,-7695
-89,-72,30,1770,-3097,-9580
34,112,-17,1986,91,-8310
76,-20,106,2953,1865,-4551
-3,-114,-14,-236,3920,-3465
3,21,-106,-6126,6604,-2441
107,-42,9,-6254,7035,3933
-2,3,79,-1603,6111,9357
87,-95,77,764,7249,7201
47,0,-27,541,4974,5297
31,-103,-128,-11010,480,-3431
60,47,73,-3073,-2484,1588
66,107,-49,-3090,-2952,1373
48,-8,-43,-2134,-6745,-213
-19,-86,-84,-390,-7551,1069
-77,3,101,-429,-7983,1800
-89,18,43,-216,-4737,1075
-66,0,28,-615,-1288,-131
44,-118,-125,730,495,-277
-28,-19,-25,-1230,174,362
8,-87,119,-959,738,-498
-16,-61,119,-538,583,18
100,-81,50,-2957,2596,-672
118,-85,-103,-6564,2617,-374
-29,81,-75,-6024,2513,-577
15,3,-117,-6194,1503,1424
20,-121,-116,-4796,1045,1873
-66,1,88,-3026,2109,2351
-108,-118,124,-1790,-1167,3356
54,-29,65,-3554,215,2545
-82,1,0,-2769,-2070,2068
36,67,-42,1723,-308,2610
51,-43,-97,3577,-3219,-6428
-102,-6,-104,3819,-1753,-9484
31,55,-91,840,-354,-12306
92,97,-126,2064,2709,-12155
-40,41,-94,3165,7512,-12480
-62,108,-61,-3088,9530,-1654
-34,-107,-45,-7466,5603,4195
27,102,-118,-10272,4130,7753
95,110,-112,-8201,4634,9648
29,-112,-6,-10390,-2488,5627
-119,-13,-128,-6345,-6723,-712
97,90,110,-5654,-4705,-8949
6,73,27,1364,-3066,-9840
-27,97,-48,2359,-994,-10224
83,-105,-86,1821,2312,-8447
104,16,47,2422,4270,-6479
56,-109,-94,-2009,5194,-3227
-31,2,-32,-4194,7439,1417
89,-122,56,-5203,5425,5268
22,119,90,-4277,7080,7978
-84,-122,63,-5465,4659,6199
-81,8,-117,-10021,855,5113
-30,69,-52,-9665,87,284
-39,-95,-27,1299,-6817,-3945
23,30,71,-2256,-9343,1032
-59,-79,32,603,-5638,-2925
-66,43,30,2984,-5229,229
-89,111,52,2331,-5452,1049
-31,-48,43,758,-1576,-44
54,-104,41,-542,-729,318
14,-119,-56,-619,205,313
-44,-125,115,-164,-548,307
-13,-89,69,-1332,801,26
0,-76,80,-2839,1489,-441
83,-110,1,-6342,2358,-1447
-105,86,82,-7560,2512,-229
31,-41,99,-8377,2146,1563
16,-32,-115,-6155,-248,2975
112,99,68,-1880,-433,3889
-53,17,7,-891,-885,4010
36,30,-31,-356,-851,3617
32,-29,-55,1496,-370,2668
27,-70,108,969,272,1616
-16,-89,69,-771,306,721
-59,121,74,23,-104,882
-92,71,55,1453,-246,953
-93,55,13,1598,22,340
-98,26,4,1136,-65,-211
-103,-32,1,682,-225,-802
-117,-72,19,151,-415,-1066
48,-109,36,2425,-4360,-6920
-88,101,95,3361,-302,-10352
61,57,117,2569,-542,-11649
-81,-64,100,-645,4544,-11667
89,-42,-6,934,8274,-8532
-87,34,10,1357,9941,-2692
122,-57,-32,-6438,7628,3393
-16,-109,-24,-5929,5752,8213
67,-61,-56,-5646,7188,7087
-85,22,-108,-6957,1648,2281
125,-86,66,-10032,-8591,2901
80,89,-96,-9315,-6273,-6126
-85,-99,-80,-1093,-5772,-8528
-22,117,20,3257,-652,-9564
-70,52,-41,1529,1518,-8933
5,-95,124,1940,2901,-7194
90,83,69,1978,6843,-4500
-96,-67,-39,-3013,9216,-1481
52,67,-83,-7389,6601,4392
49,-16,-115,-5562,8281,4480
37,40,110,-1858,5374,9905
83,-30,-43,-5854,1234,-730
32,60,67,-8223,-2823,1813
66,66,-56,-6186,-5618,481
124,112,125,-1253,-5738,-937
122,86,58,1062,-6730,533
115,125,92,1647,-6385,1016
1,-57,53,569,-2999,455
-1,-59,90,-393,-1788,889
-112,-127,54,-119,-1217,348
43,-80,-10,-121,-859,509
-7,-105,-107,7,17,468
-36,-55,92,-268,273,91
-23,-79,18,-356,949,-309
8,-62,-48,-1148,1190,-281
73,-81,-51,-3284,2000,-77
100,-46,-111,-6762,2013,-846
-67,47,-58,-6350,2874,-1330
-79,-100,-78,-4717,1678,152
55,60,-116,-4695,1338,1614
46,26,-61,-4472,-243,3023
-63,86,-38,-3149,981,1883
-104,-51,-37,-2410,-1274,2365
-12,127,-68,-348,-166,2304
-12,99,-86,583,-708,2849
-34,73,-118,1241,-1173,2583
-33,60,106,1190,-645,2165
-57,57,70,952,-255,1485
-98,54,48,553,-175,654
-126,25,58,900,-171,280
31,-94,86,5177,1867,2774
70,-107,124,5928,1624,3830
111,-115,79,1426,1245,2551
-81,95,-33,-1138,-1746,-1466
-6,-86,-13,1012,-5179,-3862
-29,-6,-48,871,-6469,-8479
58,86,6,-858,-5637,-11032
104,-22,-74,-3159,752,-13313
68,60,57,1570,4326,-8484
39,-51,-17,2508,5438,-4657
-16,-6,22,-7313,9942,-92
1,38,-125,-7873,5393,9150
-71,-81,-49,-11216,5417,8620
-20,-55,-86,-5560,1981,10085
49,-103,96,-12571,-5895,-2347
114,-19,-32,-1307,-5062,-3796
-67,99,-50,-1671,-5657,-9684
-114,43,-79,3400,-2237,-10157
-46,108,-82,1706,-887,-9887
23,-116,-108,1632,3262,-9266
-12,96,101,1336,5921,-5615
-78,47,-54,-3339,9605,-3626
102,-120,23,-6168,6182,3866
-121,-103,-110,-5727,6913,6573
-60,17,82,-8097,6242,5783
10,-22,27,-5690,4051,7762
47,-67,24,-11486,-5727,-3696
-73,-76,6,-2185,-8367,3723
-89,19,-36,-3380,-5402,-830
50,40,-35,1853,-7276,-2546
86,-119,44,881,-7620,2243
20,-55,82,721,-4275,407
-55,-40,-120,-616,-886,-417
7,127,89,-514,-741,438
-42,93,-80,-416,-25,231
123,-125,76,-390,-266,573
-102,-89,30,-1563,703,-76
-41,-49,-40,-4590,1663,-1005
71,-62,87,-8088,1801,-1146
-103,78,-104,-7039,1944,-436
-51,48,72,-6824,202,1513
8,18,114,-3330,-563,3154
2,-35,119,-2709,-1944,4021
24,33,102,-615,-278,4997
-1,-9,32,1164,-3387,4244
-72,-53,-111,2153,116,3946
-88,-53,41,2282,1073,3351
84,-41,27,864,101,2664
-2,-6,38,-144,-383,1189
-17,83,-66,2602,1067,586
42,-103,93,5623,2134,3124
-116,34,54,3270,1965,3456
21,119,-120,-4816,-2221,-2869
110,-75,-16,604,-7678,-4345
-93,78,126,2651,-5743,-9171
8,-6,20,-1894,-5833,-12382
28,-108,-113,-2047,1722,-14873
106,44,82,2663,4495,-9535
-14,43,-79,890,11432,-4272
-42,-20,53,-7819,11112,4379
-51,-14,51,-7822,6906,8424
32,120,-85,-8551,6340,10235
-104,-7,-9,-7603,527,-3233
-79,-120,10,-9244,-9934,326
126,-99,-78,-1936,-7530,-4552
-50,-40,-35,-2082,-6239,-10479
-44,-108,-37,729,-2125,-11121
124,-53,-111,2111,1087,-9862
25,-126,112,471,5763,-7322
-26,60,56,-4167,9244,-3685
-98,-36,73,-6200,6754,4068
-94,15,16,-6381,6347,6908
-113,29,28,-1632,9669,4488
-34,-68,-125,-8407,-580,3657
55,123,93,-10061,-2697,-1585
13,-88,80,-5147,-6541,2822
-19,117,3,-3031,-3670,-2722
78,5,-125,1626,-9705,-636
-48,61,-26,1679,-9831,138
-24,120,-34,-740,-4390,-188
-121,-43,-104,1030,2797,174
-19,39,-36,-258,-1071,1177
-91,96,-1,-995,-713,317
-46,88,-80,160,854,245
-57,-87,76,-336,923,356
13,33,15,-2259,836,-275
63,30,80,-6186,1000,-1288
-117,-70,6,-6916,1055,-793
-38,-16,28,-5651,2228,1116
-53,-85,89,-3012,823,3259
108,120,110,-870,1089,3287
-20,35,-57,815,-132,2344
122,35,-32,-1032,-343,2025
-27,-9,120,-2311,1658,2038
116,-80,31,-1261,-1514,2682
-21,26,-2,-2447,-736,2426
-50,-33,122,-465,-2444,316
-111,78,55,2602,-149,261
118,95,43,2957,615,877
107,92,22,578,614,272
41,-3,35,2678,3812,2286
79,-124,108,9928,2681,7976
65,47,-119,-2872,-5283,-1486
116,55,118,-1184,-7032,-6435
122,78,84,2862,-5771,-7201
66,80,-16,-400,-3408,-13272
-86,-77,-29,-1821,2791,-20065
33,-34,-43,1760,8026,-8656
-85,-108,-39,166,10209,1864
-90,-13,-43,-9012,6095,7189
-58,-50,-126,-13384,6273,4467
-125,-93,-109,-8734,-1541,11351
-85,50,87,-6890,-5933,-711
95,-60,-11,-6383,-5472,-4065
6,96,3,224,-4630,-8068
-1,-21,-65,3004,-896,-10373
103,127,-90,116,3352,-11150
-41,106,-69,3053,5913,-7026
44,-59,44,4208,6953,-3159
-107,-59,84,-5679,7609,-208
110,28,-75,-7676,3773,6139
-65,-39,-90,-12819,4176,2782
-71,-55,46,-3197,1192,11484
72,17,-77,-8454,-2550,272
45,-29,71,677,-4431,4889
-11,88,-44,-3338,-2932,841
61,114,-118,-2603,-4986,-3508
75,101,119,2014,-8425,-349
-83,124,-51,645,-7287,265
2,100,-4,1110,-5540,938
48,-96,88,-1091,-3174,300
53,79,83,-715,-529,354
-22,126,2,-224,-354,321
-69,-55,-94,-147,183,31
-61,-15,-107,-1358,929,-346
-6,-6,116,-3780,1881,-370
84,-123,-103,-6316,3036,-245
81,-79,-103,-7263,2224,1025
-51,71,69,-5035,1541,1844
4,26,-44,-3327,682,2769
86,-13,-12,-4139,-669,2652
86,-34,-91,-1776,-953,2656
-94,-11,-122,-2149,610,1916
-80,-72,-67,-30,-279,2487
-43,-67,-105,116,-1076,2469
-46,-124,-106,1221,-795,2366
-25,74,107,2822,-438,2363
-24,65,55,2418,38,1821
-61,77,21,608,309,470
-114,13,40,134,62,-313
-50,-10,34,10363,954,4701
94,117,109,11296,2449,4778
93,13,79,-8427,-9278,-4701
83,113,-45,-1493,-7002,-7791
-101,54,55,1659,-3694,-10678
-5,-27,-28,1772,-994,-16544
-57,75,71,5184,566,-8648
-23,-68,76,3544,2267,-6177
52,63,84,-12990,11220,245
65,-85,-14,-6795,8322,7869
52,52,-72,-4866,9426,11454
-116,-32,20,946,9262,3281
-48,-41,104,-15670,-4859,-3739
-63,-100,64,-2373,-6486,2443
-38,121,93,-2844,-9085,-3984
89,-83,126,-3869,-7499,-7460
111,119,126,-1024,-6596,-9405
-8,22,-117,563,-2387,-10454
9,-93,-73,1422,2282,-6557
108,-59,-35,2014,7798,-1268
-62,84,117,-4036,10923,2037
-42,-65,-37,-2228,10632,418
35,-78,-45,-2493,7776,2708
-20,117,-31,-2594,9542,-676
19,-73,-53,-8003,-1455,-4458
-113,-103,62,-5976,-3567,4527
5,-29,12,-4237,-3982,-473
-84,-83,-83,-853,-5644,-1814
98,94,20,508,-8197,980
28,113,63,1575,-6506,1077
88,-84,32,229,-3843,716
45,-89,124,-510,-2488,234
116,94,67,-967,249,-342
29,50,5,190,-1204,343
62,111,-77,-1153,252,213
21,58,-93,-1762,805,133
74,100,-6,-5517,1896,-1597
-14,-109,-84,-11808,3246,-3084
52,27,78,-9734,1948,-2271
43,15,-111,-2875,-1037,1585
-28,-53,-98,-1094,-1574,3694
-112,24,-82,-2771,-243,2044
-43,3,-61,-1789,200,1938
16,-99,-47,1373,-1052,2982
-4,-127,-107,1243,-2212,3394
11,-76,118,-1271,-208,2023
0,-125,-116,-646,-150,2181
-70,-109,-89,242,-1712,2942
-50,-66,113,35,-1282,1998
-63,-75,21,414,114,7
-32,-52,119,5299,6861,-520
-40,-57,33,7021,5241,4071
-67,-95,70,5136,4846,9489
-10,-76,57,3518,1418,7480
35,-51,-54,-4892,-5780,-3623
-83,-127,103,-4276,-9901,-1703
-117,119,-54,-4241,-3568,-10465
23,-27,-83,-1346,-4290,-11107
57,39,-85,-2620,1973,-12713
-51,11,2,-2400,6400,-10153
-68,-80,13,1831,8548,-1105
-92,17,-29,-3223,10087,3190
121,-75,-83,-7211,4063,7700
-8,-72,-118,-7551,7617,7079
-53,104,87,-7085,1307,8387
5,60,-38,-10006,-3625,2551
-9,33,-19,-5712,-2425,-2226
-47,100,-19,-3989,-6432,-6744
-103,-72,3,316,-1676,-11157
23,2,-84,1743,-688,-9984
-43,-13,-106,1387,3284,-10078
12,114,-128,1962,5129,-7582
102,41,74,1580,7716,-4921
-80,-100,23,-4474,6362,-645
-49,-31,-76,-7632,5002,8280
-92,111,-38,-3006,7399,10592
-19,-126,106,-1813,4965,7932
-31,10,44,-6224,-449,5512
-88,109,-123,-7983,-1210,-2289
0,107,9,-5004,-7213,3667
75,-23,16,-4078,-4553,-346
-30,-92,-58,1474,-6853,-129
88,-19,-49,-239,-5919,1054
-85,-27,-11,-228,-3907,736
-68,-29,94,-199,-1722,510
66,-56,67,-1209,116,586
-37,-101,9,-1173,91,208
-108,-66,-61,-381,149,53
-71,-64,-91,-299,1414,-157
-49,-53,-124,-1463,2460,-355
67,-56,-93,-5297,4788,-781
45,-77,-22,-5924,3810,-371
-105,-50,-74,-4026,3047,589
-18,76,-59,-1117,1274,2187
64,-23,10,-2654,1114,2064
-96,110,-14,-3814,722,1832
-102,115,114,-2162,-513,2852
-47,-84,76,-2038,429,1438
-26,96,86,-260,969,1520
-67,-100,78,-698,-15,1059
-90,-122,64,-4743,-2675,-4819
60,-77,-96,2955,1255,-6230
-100,-89,58,3210,1250,-9893
-25,5,30,1740,2247,-9906
10,-120,-27,2397,6196,-11371
15,80,104,-1390,9595,-10106
-25,-80,-118,-4336,7274,1759
-40,-45,-46,-5568,6180,6609
45,-57,70,-11049,5724,5803
-57,57,-127,-7811,-338,14002
80,56,-70,-11578,-2545,744
86,70,-13,-574,-6150,-2596
-123,75,9,-7333,-7559,-9588
-14,89,-101,-1407,-873,-12050
-60,25,38,14,2555,-10822
-93,-100,47,3608,2917,-6639
43,-123,96,781,5131,-5177
-4,55,2,-3019,6786,-1649
26,-64,-76,-6248,6028,4469
31,-99,112,-4025,5894,9819
13,-103,33,-5217,6365,8685
8,98,64,-5398,2969,6984
89,120,81,-10130,-3030,1725
53,-47,27,-638,808,-236
62,-82,83,-1409,-7731,-158
50,-75,-32,-819,-7511,-2062
-47,-127,104,4205,-6563,953
71,-86,60,2953,-5300,1415
-33,-61,-107,684,-4250,1544
-4,-67,40,267,-2844,903
45,21,61,-2088,-534,429
-31,-102,54,-199,-460,109
-34,-63,-26,-754,227,419
-52,-75,-119,-1061,655,-185
-60,-67,60,-1886,1585,-464
-58,-125,-24,-2160,1683,75
25,-63,71,-4179,2300,136
36,-15,-1,-6267,2236,138
99,-17,-126,-5729,2801,168
-77,-56,91,-6229,1754,1458
-44,23,-89,-4375,500,1522
38,111,78,-971,-663,2893
59,-91,107,-1392,-108,2102
-128,-109,113,-1387,367,1884
-107,95,-107,-75,-200,2370
-83,-95,-115,-1132,-694,1881
-98,-128,-90,300,-850,2184
-101,120,-121,1774,-520,2063
-90,126,80,1516,-102,1195
-97,-111,33,174,255,-179
79,-64,-85,-3545,1567,-8126
-5,125,35,5192,2295,-7581
111,-71,-41,498,5641,-9942
61,-109,-23,1529,5695,-9726
-100,-27,82,-1039,8802,-8204
24,-108,79,1752,8445,-3446
-12,-55,-45,-4626,4720,4680
91,-47,87,-9377,3472,6268
-85,65,56,-6902,530,12527
51,39,-15,-11110,-2813,9619
-112,-50,92,-12745,-5261,1954
49,45,67,-762,-1556,-6016
123,-89,83,-1128,-4054,-10650
-37,63,72,4551,2839,-10256
-122,74,112,2364,2009,-9134
109,-14,69,1774,4483,-8233
-21,-77,-127,1332,6116,-6004
81,-39,71,-2160,7947,-2871
38,57,93,-6862,5466,1185
-124,-37,45,-9471,2327,7228
-43,-58,4,1066,5371,15393
66,-9,120,480,5803,7629
7,-114,-106,-11147,1801,171
-122,-98,121,-9397,-2474,-2031
-128,33,-78,-7070,-9015,-640
77,116,71,-2172,-2827,-2488
92,4,92,3411,-5254,-2777
-2,69,-115,2143,-7050,-908
99,114,-50,1527,-5370,560
-127,-79,-5,2042,-3279,500
-34,19,84,28,-2337,352
106,-84,15,111,159,300
7,-56,-32,-257,-1018,637
4,-28,-121,-792,123,2
-39,-34,-117,-709,-53,215
27,-21,-111,-1998,1278,-239
82,-60,113,-4497,2827,-589
103,74,-54,-6619,3155,-404
-81,108,-4,-7116,3421,176
-36,-2,123,-6562,1054,2835
35,-12,-101,-4349,581,2647
72,-111,83,-4361,-1058,2232
123,-100,-74,-1967,-1146,3376
-123,110,119,1078,-2427,4129
-31,85,9,1992,-693,3111
7,-109,-80,182,70,1765
-42,-85,100,-1304,460,290
-111,114,100,-752,52,-58
83,69,107,463,-356,347
65,42,84,1327,-226,481
33,56,4,3135,-1433,-8796
-75,8,91,2633,-1201,-10591
-3,-66,-1,-1607,4042,-12005
-90,50,-31,-742,7595,-10120
-57,106,86,776,8725,-4683
-62,24,-24,-4035,7305,-2382
46,-95,28,-7242,4650,5052
-96,43,86,-7597,5371,5323
-18,-61,65,-13779,1302,5705
121,95,89,-5477,1173,7377
27,0,-68,-8681,-3441,1726
-76,-103,-38,-6151,-3249,-2986
24,116,96,-10286,-4353,-10115
34,-123,81,906,-1373,-12595
82,-126,77,6765,-2162,-7228
111,-53,-90,2176,965,-9789
-28,-100,127,116,3904,-9476
85,30,-51,-349,7154,-6456
-27,58,0,-5509,9758,-2757
-47,-34,-74,-7795,5298,5214
-10,-18,-70,-4668,5750,9035
54,-116,-58,-3441,5856,6083
-63,56,83,-7513,1812,6142
-20,94,-86,-11812,1441,-2626
64,2,12,-7270,-4556,-3839
-84,82,38,-2311,-7366,-624
92,-34,-107,-3216,-2759,-8087
-119,-17,-117,7386,-5756,-877
-92,-123,-100,4196,-6056,-336
-128,-117,-20,1260,-4439,-271
104,62,103,2384,-3265,1114
-36,-52,85,-494,-354,-532
58,117,19,-1594,-62,-393
87,87,-35,-627,574,331
-120,110,-106,-954,1006,265
-72,-123,13,-1642,2742,-256
29,-110,115,-3781,3591,-492
102,77,7,-1869,2783,1031
-3,-6,-65,-2498,3226,1947
115,-119,-93,-3873,3036,1840
-39,-30,-83,-4945,2685,1496
23,-40,-17,-6500,391,2020
-4,34,59,-5005,-844,955
-26,-26,-79,-801,-836,940
-49,-30,-74,1397,-147,1103
-90,7,110,526,-14,781
-124,-13,72,672,36,774
-111,-41,43,1266,267,573
-114,-93,12,2212,113,7
-95,119,-27,1739,198,-605
-122,-13,-6,5632,1988,-4247
-39,-51,47,5127,-109,-7932
118,-36,78,1791,347,-9355
11,103,-103,267,2272,-9958
87,-108,-78,-1922,8538,-9049
-125,-20,1,1617,9584,-4088
-88,7,34,-5125,8613,1878
124,64,103,-7044,7156,8181
41,-94,84,-5889,6670,10793
56,-121,116,-8036,2752,6717
41,-38,42,-8597,-5340,1768
-39,-58,-60,-5570,-3141,-1527
81,82,-88,-7517,-5079,-9686
-28,-53,-14,1376,-2301,-9888
-114,-70,-51,2371,-1516,-8710
-73,-3,117,1399,1694,-8178
50,-76,-58,1084,2973,-6478
-13,-65,-63,-254,5432,-3972
70,38,-115,-2770,7578,-691
66,-93,81,-5639,6075,2522
-30,46,123,-6517,6103,7199
61,40,-128,-6140,4645,7052
-36,-24,-109,-2917,2733,9111
6,-60,18,-12185,-2407,19
-109,68,-36,-2538,-1961,-276
-75,70,8,-1995,-6502,-606
3,-3,101,-243,-6324,-2307
91,93,-115,1115,-6830,12
-90,71,-68,1236,-5579,865
-95,-108,69,264,-3889,314
-52,-117,-117,-127,-1806,285
82,-114,81,-632,-767,204
-30,121,-26,-503,-379,529
-85,-115,-101,-464,-226,380
-93,-86,104,-525,269,48
-70,-80,26,-4006,1459,-179
15,80,111,-6598,1775,115
-10,113,-44,-6398,436,558
-1,-17,-66,-5960,-21,1211
51,88,-31,-4357,-73,3137
-123,-2,10,-4071,695,2557
-59,-74,25,-2627,-1309,2985
-119,-112,-45,-1034,589,2824
125,-14,-126,-1451,-1530,2864
-57,-95,48,1667,-438,3328
-29,-91,-23,2934,-433,2868
-23,-83,92,2444,-13,1717
-43,-110,36,1551,694,1186
-87,86,6,1638,555,924
-118,34,-22,1835,320,710
