AccX,AccY,AccZ,GyroX,GyroY,GyroZ
-73,25,-2,-2630,3044,-3321
26,66,-52,-1145,3271,-6351
-12,59,-30,-831,4089,-9527
-62,-35,125,1344,3549,-8159
-68,79,-62,141,6464,-4360
71,75,14,-2473,2993,-2278
68,18,-12,-2915,1037,-2855
-63,17,5,-3164,21,-3975
74,-17,29,-1352,4923,2032
-100,-47,-100,-3058,-3080,15085
124,-116,-79,-4948,-3059,-3506
90,-20,94,552,-3653,-6308
-102,-4,125,5954,-1392,840
16,-26,-92,2112,2548,-3100
72,-88,-98,1829,3664,-265
57,76,-88,171,3353,-54
72,26,54,-3325,1270,2013
-115,-63,47,-3079,-1892,3847
-64,-15,-32,-2645,-2776,-275
-40,59,105,138,-4972,-1806
10,14,-92,3769,-1156,659
29,14,109,3022,951,-3296
90,-3,124,2158,1919,-418
-108,41,-93,-724,3212,-1817
-2,-54,-122,-2600,2703,771
44,-110,-59,-3756,1784,-173
102,119,-45,-6062,-1293,-158
-60,-125,52,-1108,-2319,2999
-102,118,13,864,-2689,-120
67,11,-85,2258,-4064,-4
72,109,87,3999,-1677,435
107,108,-90,2988,1918,-2645
-92,57,-71,1599,3797,-2780
11,33,-120,-122,3137,1420
22,-118,122,-1727,1857,3011
111,-39,-99,-2163,78,3156
73,-85,38,-2363,-1042,1699
1,67,7,-2130,-3621,2586
-123,-58,-58,1869,-307,446
70,-91,-98,879,-2746,2100
-47,39,-78,-1113,-4550,4334
33,-18,-57,-330,-3083,4040
-15,104,10,-1587,-3402,3169
-61,18,-124,-1921,-4385,5596
-119,-124,-49,1912,-4244,6161
101,60,-16,-550,-1381,4868
-60,81,-2,-1019,-170,1838
67,-7,-88,-370,-1588,-700
11,60,-89,1359,-1543,-632
-51,22,-119,780,-662,285
-93,-49,-87,1750,6440,-4590
-53,-99,-5,3602,7223,-6557
-68,-88,-106,3909,3514,-6896
84,-15,108,174,4737,-7564
-12,-123,-109,-3199,-728,-3699
-58,-30,82,1819,-2857,-4758
-58,67,-25,-164,-931,-5776
-91,86,-1,-445,4321,392
-66,46,31,-479,4905,4131
4,-118,-47,-1464,4823,4446
12,41,-5,-6090,-3083,2595
91,124,41,-3586,-5253,-691
-62,-41,4,1854,-5657,-1256
28,-95,93,3640,-1672,-4610
8,39,-80,2076,2059,103
111,-26,-103,1489,4429,-581
-12,-5,-36,-763,4593,-901
114,-29,-56,-2119,2851,1934
93,64,113,-3539,-1461,2706
74,7,18,-1580,-2665,792
-76,110,-10,-2512,-4388,-1796
-17,17,57,2621,-3895,-445
46,53,118,2460,-835,-1463
68,39,-64,2717,1538,-1723
120,11,-112,415,3110,-2235
-43,7,-69,-226,3350,-779
-85,29,13,-2230,2606,1346
26,-38,17,-3049,2213,2739
47,123,60,-2596,-763,4907
-85,98,-6,-1013,-1870,873
55,-101,-70,-365,-4510,115
-4,79,72,885,-4487,-1961
101,-90,49,683,-769,-98
115,103,19,1391,319,782
-114,-27,-23,753,277,-165
-94,-44,-63,423,1248,-388
-105,118,39,512,1038,-9
120,67,-107,-417,-944,379
-67,105,-120,-264,-1269,1918
-109,-107,97,-85,-3609,3132
88,3,65,-611,-5407,4282
48,-40,103,-97,-5183,3662
16,-119,-81,-1703,-4436,4025
107,91,9,1178,-2560,4239
119,121,-107,2606,-3147,6372
11,127,-99,46,-1608,3660
70,100,103,2058,-2154,1883
-34,-62,5,3196,-1705,1693
-21,-35,-92,578,-337,502
-19,-68,-75,-1464,477,-651
-115,80,-118,1251,3236,-3700
111,44,-69,-685,1158,-5010
-122,97,-3,-1705,1850,-7433
-109,-32,-29,-4245,-1263,-9923
-41,93,-48,-6043,3329,-8753
104,-126,-67,-2591,2576,-1248
-75,-18,6,-2047,3093,4
-77,17,50,-2341,5335,2512
74,-5,-117,-1244,3137,6481
-111,-38,41,-2237,807,6536
-103,-38,-21,-1571,-2660,212
-95,107,95,-2201,-4940,-2512
18,-114,15,2968,-2480,-632
-123,55,10,679,-847,-4106
115,-73,-3,917,3429,-823
20,-50,-48,726,4158,121
49,108,-6,-2892,1872,232
-22,72,121,-2277,-2000,3417
-39,-23,-34,-1308,-2249,1350
34,72,-26,-1372,-3763,-1472
-13,-94,-2,2046,-2192,-1318
83,-22,-20,1921,-2075,-2414
73,101,-67,1518,1323,557
120,33,-95,733,2694,-1132
-76,-66,-56,-96,3942,-797
-105,-30,4,-227,3071,1231
-40,11,47,-3086,1606,2938
-111,-126,-125,-2399,-138,3614
54,64,11,-2298,-1197,171
-8,-111,10,-1046,-4058,874
-33,-25,123,1019,-2394,37
107,4,-24,698,-4675,-2958
-122,119,-96,2328,2600,-1903
-80,-23,-56,1346,2579,-963
44,-22,113,84,3802,-8
88,51,55,-868,2072,1497
94,35,81,-1703,-77,1211
123,-65,65,-953,-447,3124
-68,55,97,-839,-1397,1873
7,10,-73,-1182,-1265,1133
33,110,-60,-517,-1600,440
79,-20,125,-456,-2946,1341
33,-17,120,-2013,-6317,1148
-76,80,-44,-279,-3145,3391
43,120,-68,123,-2757,3823
-37,-121,-72,1081,-3557,3886
69,-48,-93,-301,-1801,4445
-56,-101,-1,-1167,-3713,2081
-12,-95,43,-732,-1543,2755
-77,99,0,2348,-2470,3800
102,21,-66,-2298,2730,-4766
3,103,-26,1927,3163,-6889
83,19,-63,2062,2249,-7924
-102,-39,-107,599,3238,-9223
78,66,-66,-1627,5122,-7415
-86,61,101,-4336,1262,-3608
-118,-43,-31,-2172,-2940,3729
81,27,44,-731,-4909,-2208
3,-118,-67,-67,805,-6571
-35,108,-1,2802,5290,3305
114,-52,-28,-753,5401,1909
13,39,73,-2054,1658,4784
40,25,6,-3672,-1770,1373
38,41,-82,-3163,-4065,-2178
9,-51,-110,838,-4655,-486
-18,-91,92,3838,-1207,-216
90,110,-77,1193,1362,-2838
118,28,-87,1418,2503,-792
-14,-62,-44,-266,4473,-189
75,-31,-84,-1284,2922,1625
126,-112,88,-3354,-313,2196
11,100,26,-2349,-1318,3762
106,-73,25,-1541,-3551,-265
-98,94,28,-1230,-5889,-1900
41,-31,-110,2290,-307,2131
100,56,-107,2065,-190,231
113,11,-116,844,276,-4136
-124,-49,-123,-302,2302,-4508
64,-92,-69,-290,3530,-916
-128,95,-27,-884,2961,844
24,-50,21,-1987,2097,2906
16,-109,-106,-1866,1881,4907
-98,79,4,-1408,765,5440
126,44,-80,104,-1519,3798
54,2,-75,-2146,-6215,-2794
-42,-12,-41,-152,-1985,-3384
91,-107,-27,575,-685,-1336
-87,105,-85,349,-751,-322
-46,-124,67,777,-755,2218
-85,-128,-49,-84,-1049,1161
-23,-114,-100,-420,-2648,1707
62,-81,110,-1240,-3140,1611
22,-57,-74,-626,-2525,2056
44,37,41,645,-2313,3555
65,-60,72,-735,-2141,3980
-72,-56,78,-1112,-3024,3452
-36,-86,113,263,-2421,4267
-32,-100,119,1104,-3668,4567
5,77,48,2531,-4463,4792
112,87,-72,2088,-2000,3078
-110,-6,-41,-1419,4590,-3933
-94,25,23,118,5817,-7096
-97,-103,90,2428,2110,-7889
-52,-117,-13,-806,5173,-7330
-7,14,18,-1512,4998,-4239
-110,62,89,-1881,-1647,3237
-36,-84,-78,-465,-1931,-2367
-123,20,-12,517,584,-6728
-23,115,1,1022,3056,-1455
-37,47,-5,-613,4215,1227
-56,26,-24,-859,4937,5372
33,-32,84,-5224,-1364,3149
96,74,-68,-3636,-4951,-1252
-13,18,-46,992,-4996,571
-4,49,123,3523,-2587,-4474
32,116,-79,1116,2116,-3706
73,46,-84,959,4441,-1638
58,-40,-37,-1177,4212,2871
63,-57,-125,-3169,2229,3639
-10,54,102,-3542,-671,2940
20,-12,103,-2336,-2285,-1301
-69,85,-121,127,-3944,1374
-81,-97,-100,1469,-4426,-2356
66,52,-40,1365,-2035,-2140
75,-110,-96,2475,760,644
117,-74,-112,813,2500,-3286
-98,6,-75,-90,4190,-2646
13,-98,-85,-741,4004,37
-67,25,-122,-2342,2550,2331
114,73,59,-2834,-1128,4739
-3,12,-50,-2247,-2974,2329
-78,93,26,-1046,-3228,1488
44,-7,3,2029,-1472,163
-70,114,56,857,-1088,-1549
-55,12,50,1611,-2544,-302
-20,3,-17,-627,-2410,2320
-34,123,57,-707,-3227,3199
-25,86,74,-452,-3766,3710
-31,-88,-99,-1109,-2046,2642
-81,-69,-91,-470,-4034,3740
8,-92,-67,-768,-2179,3308
-81,-70,-51,1044,-2969,5311
-6,-10,-105,-259,-1657,2993
-76,-23,85,2002,-2688,4216
30,-98,-44,2977,-2389,4369
8,92,100,1826,-2246,995
48,120,52,-729,379,-1321
42,56,80,-582,1197,-1207
-14,-88,114,1292,-201,-905
-6,-127,102,746,-426,-744
-30,-24,29,268,4674,-4156
102,100,20,731,3936,-4398
113,119,85,-230,4597,-4242
61,68,34,-2019,2866,-2722
-39,-51,-128,-1333,-2693,-449
15,-65,9,-314,-801,-8475
60,19,-67,71,3488,-2358
-105,-38,-58,667,5239,-769
-2,-12,-118,612,4788,1744
-16,-2,-126,-1905,3443,5265
106,-29,-53,-3983,-1692,5455
54,-59,104,-4042,-2834,-426
-128,-8,26,-728,-6921,2448
-63,-14,-117,813,-2826,-274
21,-70,-43,730,-1499,-2426
95,78,121,172,1488,-4662
-126,-33,-116,-58,2731,-4513
-15,105,-83,564,4318,-1291
-20,-106,87,1412,2613,1968
-88,57,55,-2267,1661,2741
-54,-5,49,-1354,802,1495
58,-123,77,-1463,111,-137
120,-63,-82,-569,181,1321
-103,-43,116,-1893,-2227,2476
108,97,111,-1656,-3674,3939
98,79,57,123,-3425,-1020
-126,-95,-23,2085,-1585,-3857
126,4,-70,2942,1690,-3754
-66,-35,-44,469,3526,-4206
51,116,2,-159,3866,-1168
40,0,-6,-455,3274,2561
66,-98,-12,-2636,1008,2971
-112,121,-89,-3000,-2031,2784
-57,-95,-105,-2762,-3225,2953
-34,-101,-33,-2745,-5067,3610
-91,35,70,-1252,-3988,3600
-19,108,50,-1380,-4436,2773
-43,106,3,-1260,-3433,1458
-23,90,9,-1513,-3219,3236
-38,-61,-16,589,-1394,2666
-105,-48,123,169,-2462,2691
-55,84,44,1326,-1601,2675
12,14,7,4810,-1745,3994
37,-105,-113,4969,-1381,3298
86,98,8,-2057,926,-417
11,-34,41,-1298,425,-658
-3,-124,73,1498,-467,995
2,-100,100,1020,-698,739
20,-90,83,-367,268,180
79,-114,26,-185,853,307
-112,-18,-21,2145,2965,-5865
-1,-99,35,2757,2668,-6473
-1,64,-45,1858,4193,-5677
48,-96,-105,-722,3305,-3919
-18,112,-86,-2754,-3050,-445
98,91,59,744,420,-5958
53,-68,18,1397,4531,-3330
-69,-93,-46,-140,4213,157
-30,56,100,-2984,2092,3426
-54,19,80,-3683,-1602,4632
52,62,41,-4068,-5511,-1588
73,34,106,1128,-5431,-30
-63,36,-38,3737,-836,-1629
88,9,-105,2011,737,-3479
97,14,-121,1255,1745,-3258
-62,104,-102,-726,3877,836
111,46,-108,-1458,2219,3481
-14,18,-104,-2590,1326,2397
-8,106,-68,-3264,-1164,2337
55,46,14,-3442,-4906,-2079
100,-25,-56,344,-4962,-1887
-37,24,94,3292,-8,-27
81,-112,-117,2544,567,-1968
108,20,122,1086,2273,-3072
-84,120,-84,942,3507,-1654
11,52,80,-531,3821,749
-124,-64,10,-1568,2951,2233
9,-78,110,-2205,912,3314
65,78,7,-1644,111,3405
-81,67,-85,-1160,-2266,3050
121,-41,44,-655,-3302,-694
-68,65,53,1077,-1400,-957
-55,61,104,1180,-13,-1681
-35,-4,-120,363,-195,-1154
-40,26,-6,830,-376,1980
115,61,-124,-441,-1970,857
-59,103,76,-1052,-1790,891
107,-68,123,-1234,-2818,2536
58,-3,-72,-442,-2768,3310
24,-73,57,-1175,-2845,3865
-9,-37,-119,-761,-2811,3358
40,-67,-98,-882,-2524,3064
-47,-75,-80,-1236,-2283,3633
-44,-110,-79,874,-2984,4914
15,-62,-125,624,-2380,4316
63,-111,37,3196,-1878,4103
68,-89,-69,1486,-2000,2377
95,-104,70,-291,-567,-366
75,93,42,-676,924,-1109
43,-4,51,744,670,-452
122,-69,-11,-3444,1666,-2947
80,13,90,-3989,1916,-3881
-37,43,-106,-2655,1416,-4228
-115,30,-25,-6105,1099,-5916
63,21,-50,-1886,3088,-5193
-49,38,-93,-437,5735,-4094
-39,-25,85,-1264,7372,-2751
-62,-13,85,-1092,8453,-346
-14,44,113,-686,7936,4193
-87,60,-98,-4138,-388,8440
91,88,-10,-3957,-3399,4135
-100,41,-90,-3894,-6032,-5698
-45,90,-111,5220,-885,-4358
-55,-55,-86,1603,2760,-4377
32,-76,-68,-67,5837,-2630
-78,84,-17,264,3195,4757
-92,-95,25,-4226,1889,2027
87,122,105,-4278,-3054,153
-41,-86,13,-2547,-5782,0
44,-82,-93,2344,-4306,954
-51,-89,-38,2901,-867,-3286
39,46,116,1982,365,-2884
59,102,112,187,3821,-2913
-72,45,-64,-219,4461,-1172
1,44,72,-718,4367,2711
15,-118,-90,-2035,1897,4482
107,-11,-78,-2870,-1849,2197
98,61,-65,-3498,-3035,339
-42,-128,89,-660,-3583,1944
4,-125,-40,-1559,-4551,-2809
27,109,-60,-1775,-3368,-2308
51,104,-21,2843,-1695,2502
-113,10,97,705,-3940,2750
26,45,73,-621,-2118,2263
-118,-21,-87,525,-4080,2065
19,-42,-84,4353,-3850,6213
-14,-12,9,2369,-1499,4690
109,119,19,-209,-2467,4048
-112,105,58,1606,-1373,5400
122,-64,6,1442,-1638,4610
-119,34,-93,-1582,-1561,1615
114,14,80,-2134,-72,-840
47,-116,94,1057,831,-299
16,62,80,2637,387,-235
40,3,33,2233,23,-693
61,-49,31,1158,-120,-1033
71,-94,53,125,-297,-1198
66,112,83,-485,-518,-1085
60,97,79,-650,-342,-839
54,94,76,-674,-222,-471
127,-37,-23,-2987,2480,-2822
-80,24,-86,-1235,3387,-3524
-83,-59,19,-1166,4864,-6357
-32,77,84,1333,7025,-6874
14,-61,116,84,6860,-5811
6,-47,-19,-2051,6576,-3756
-117,85,-36,-1884,4943,166
-70,-56,100,-1457,1380,3128
-68,125,-36,-3900,-3637,5092
-98,46,-12,-1562,-4898,-890
-107,-87,-12,1508,-3371,-6180
126,53,30,4292,970,-2550
38,76,-67,1304,3538,-3106
72,-128,-27,-934,6264,-1939
-63,56,-123,-1405,2215,5375
46,95,104,-1936,2645,6790
127,-102,-124,-4932,-2651,-1690
126,-5,-93,-3544,-5955,-692
77,-66,52,1700,-6437,2211
1,45,13,1331,-1500,-4100
59,-66,-114,2121,1314,-2014
99,-125,-121,1775,2972,-1069
-35,30,-53,-989,4954,-3145
-72,16,49,-1146,4076,1334
-105,50,-78,-1933,1986,4298
61,-66,-56,-3778,-1722,4030
6,87,-40,-6222,-5182,-4330
64,-69,8,-999,-6192,-3430
-79,106,20,4999,-1407,1034
41,123,-121,1990,993,-3248
68,65,124,1857,3313,-2780
-118,89,-88,1560,2768,30
-40,-54,-48,519,4955,-1388
-4,-92,-84,-2160,2816,1551
53,69,-35,-993,1881,5673
-12,22,116,-2240,523,4744
-65,-116,17,-2786,-1177,2480
-89,109,120,-1185,-2155,1906
35,-78,-106,677,-594,2004
-74,-13,97,-2266,-4536,-2034
114,-19,91,-362,-1218,-1631
67,50,119,384,-2543,408
-31,-25,-17,-552,-2480,1175
-83,-7,-17,-1130,-4705,1274
-98,-18,-15,-1279,-2886,2192
-90,124,-86,-84,-3808,3233
-22,-102,-75,-958,-2228,2236
-67,-103,-71,-151,-2820,2952
-45,-120,-71,277,-2024,3111
-29,-79,-112,-425,-1562,1942
-20,116,5,3493,-2027,4136
25,93,-94,2724,-1767,2524
65,61,72,342,-724,90
50,56,53,-793,264,-433
46,-16,60,482,396,-11
29,-56,65,1017,-196,-25
38,-53,69,278,-231,-354
48,-83,66,120,-45,-409
47,-97,72,-276,-177,-341
53,-100,75,-535,-145,-286
56,-91,70,-687,-26,-91
72,-87,61,-364,212,-41
83,-92,51,163,219,124
106,-91,40,222,231,216
106,-92,19,346,182,326
112,-97,14,278,156,407
123,-94,9,45,50,644
124,-82,18,-62,-71,840
111,-62,20,-101,-42,858
122,-54,29,257,19,871
-99,-53,32,458,62,860
-98,-35,28,117,-90,682
-112,-36,27,46,-15,536
-110,-40,28,132,33,545
-102,-44,24,270,69,506
-93,-36,17,47,4,381
-95,-43,18,136,6,259
-84,-51,17,64,10,215
-81,-54,17,-64,-59,148
-80,-57,22,-88,-29,100
-86,-60,18,-70,-10,107
-75,-65,10,-67,46,136
-71,-61,5,-149,-65,265
-64,-52,4,-179,-8,202
-50,-41,5,-414,-100,178
-67,-25,15,-625,-176,290
-64,-25,19,29,222,271
-49,-29,-6,174,-76,322
-59,-14,-19,-364,-79,250
-61,-23,-16,-100,0,333
-45,-31,-20,409,-107,429
-26,-25,-15,247,-224,338
-31,-36,-1,193,-186,279
-52,-42,1,-90,-228,384
-71,-45,15,-40,-142,661
-66,-22,9,-423,-3,838
-40,10,11,-785,-103,842
-58,28,3,-374,-24,469
-31,45,-4,-480,114,329
-32,37,-10,-25,19,289
10,-56,-64,-8962,1124,-1110
68,21,4,-3975,3095,-4061
-52,-50,-31,1260,3103,-3036
-61,95,-122,-663,4301,-4352
25,100,99,358,6776,-3634
88,-42,109,-2763,7654,-3025
-73,-58,-91,-1149,7960,458
63,-111,57,-1790,4733,5422
23,4,-112,-4520,-1868,5017
26,125,-64,-3526,-4990,-4008
-25,103,-103,-1020,-1533,-5122
-40,-99,-128,6746,-556,-3753
-72,-30,-64,1736,5440,-2542
30,51,-40,902,5844,-424
-42,62,-1,-1365,3405,3891
11,-20,68,-3315,3859,3486
-97,76,-35,-4606,-2022,3077
-8,75,5,-4764,-4579,-3969
67,35,36,-162,-6260,-1399
117,-83,33,3969,-2722,323
63,60,-69,2418,-388,-2559
83,3,-111,2008,2269,-1890
-127,-20,-73,-75,4685,-2214
52,53,-36,880,5467,1222
-65,102,-10,-2416,3695,3095
-64,56,-23,-3939,-3332,4505
76,-23,0,-3803,-3153,-595
-108,89,-50,-1821,-5036,1093
-110,25,110,3136,-3013,-1853
56,-112,-87,1474,-371,-3495
91,-96,-118,1881,2204,-3512
-106,-118,-87,1207,4121,-2465
-20,108,-24,508,4935,-1463
77,-114,-108,-375,3183,2425
75,10,-74,-2245,1638,4571
-30,19,127,-1795,80,4807
-102,52,34,-2755,-1037,2056
-92,103,58,-2982,-3310,2535
-14,-9,-9,599,-2079,1390
-122,-9,14,-1338,-3889,-2480
108,-1,-105,-665,-2104,-1441
32,16,-33,863,-1914,1174
-124,-61,80,-606,-2653,1283
31,-62,-26,-537,-2741,1512
-51,-59,24,-388,-2329,2559
16,47,57,-505,-3002,2824
29,101,118,-522,-2521,3306
104,59,-114,2028,-2885,5196
102,94,70,1736,-2478,4491
74,101,25,1185,-1363,3393
72,39,91,-2696,2247,-3082
103,68,-41,696,3454,-3962
-45,-71,109,2033,3838,-3509
23,18,-2,-1302,4102,-4063
60,-1,114,-2570,2821,-3926
-29,-15,63,-1855,-2007,-5665
-4,95,17,420,1350,-8003
-56,-61,-58,665,5329,-6028
62,48,-74,-152,5354,1221
72,42,-69,-2129,4590,1596
79,83,-50,-3145,1704,6683
-19,59,-23,-5136,-3050,4148
-47,-72,-24,-4911,-6159,-3043
123,49,-57,3099,-4717,-2456
-67,94,-46,3886,116,-3787
6,-64,-122,1824,3463,-4021
74,-29,-77,635,6639,-786
78,-5,113,-1223,3494,4419
-19,77,-58,-4675,867,4164
15,9,-49,-5009,-3889,2098
49,40,-34,-4691,-3685,-4503
-115,68,34,1990,-3755,-993
2,96,-102,3925,-1477,216
58,16,-108,1522,252,-2163
86,94,126,3195,3336,-2159
-92,38,-99,1967,3928,-2614
54,-61,-88,-28,5451,-950
-22,60,-17,-3061,2197,4122
7,-85,-123,-1972,-145,6057
-65,-26,37,-3697,-164,2170
-106,-23,18,-2911,-3221,1059
-28,-88,-48,-276,-2751,195
-14,107,55,325,-2519,-881
-43,46,-66,1378,-1568,-560
-47,120,-34,1186,-1230,27
79,-19,-121,794,-1247,1605
-28,124,25,1160,-1544,2918
-82,-96,-55,-1629,-2330,357
51,-55,-78,-706,-1785,2281
-7,3,-20,-171,-1674,3443
45,84,-23,-1222,-2010,2341
63,-63,40,-2441,-2292,1987
91,117,90,-842,-1320,1736
55,100,80,753,-2270,3551
91,83,19,706,-1548,3341
66,96,16,1446,-1879,3388
78,40,-14,2557,-1596,3753
87,110,-88,640,-890,1642
61,45,-123,544,-537,527
65,22,114,604,-164,505
84,-1,-122,-1306,2995,-5655
25,-116,54,753,4986,-3824
44,55,40,1151,4838,-4681
74,80,108,-3106,6323,-4936
71,67,-34,-4017,1188,-859
96,79,44,1219,-1007,-1998
24,116,28,2713,-2521,-5438
101,-120,-63,1368,4135,-4483
-41,27,-87,836,5171,1011
-13,19,-64,-1440,4047,327
11,-15,-87,-994,4955,2285
-42,16,90,-5386,409,2643
92,-97,-115,-4436,-3881,4680
88,-71,-53,-1813,-5898,756
111,53,-96,2100,-6353,-3407
-46,-96,-81,1847,-447,-5489
-10,13,125,2652,3624,-2741
98,48,-116,-1504,4760,-4269
-78,-90,-54,-601,5100,1379
47,-117,4,-2627,1861,3249
125,102,111,-3595,-354,4063
-108,55,-16,-3381,-1000,2783
-102,38,50,-2745,-4529,-2291
81,91,38,2140,-6579,2085
122,-24,19,2067,-2951,-2986
10,123,-115,2616,1370,-3679
90,-27,117,808,3115,-4632
-123,-85,-86,-1574,5143,-3950
-9,-54,-17,-489,3891,1357
-48,-47,87,-2226,3595,3807
-41,-3,-94,-3777,-1129,4985
15,52,-83,-3065,-197,1471
-37,-7,13,-3279,-3009,2882
-16,-9,-82,272,-4063,-452
-65,-64,30,-331,-3529,-1773
-60,28,-114,733,-2577,-1033
-94,-12,-75,483,-2077,984
66,-88,111,347,-1854,2230
70,125,49,-172,-3073,1608
-44,10,75,-527,-2276,3141
-127,57,-80,-599,-2142,1877
-81,-113,-91,-859,-2116,1938
-86,-67,116,234,-2136,2861
-65,-82,67,-392,-2186,2195
-101,95,78,656,-2439,3490
-27,15,50,3250,-1577,5922
-40,41,35,3353,-2401,5844
-127,112,-54,936,-434,2612
73,88,118,-325,-216,-395
48,38,103,-492,-951,-531
10,73,-21,1774,1716,-5358
-51,-16,23,980,4180,-5691
0,25,126,-732,4443,-5051
-29,-48,-102,-2311,3297,-4326
-116,-45,-42,-2696,2458,-3517
86,-60,34,-1198,412,-1348
10,-56,-75,2308,-4002,-1895
8,27,68,873,868,-5505
-20,16,-11,-504,5443,-560
85,-101,-18,579,5787,2093
54,-14,15,-3875,1874,2537
112,44,-56,-3957,-2960,4788
-48,-7,-51,-3243,-2507,966
-28,-56,-38,344,-7995,3036
92,-28,91,1564,-2683,-6629
40,-89,-102,1405,2634,-2583
120,-114,-83,1582,5225,-2392
-110,-70,-9,-1877,4112,-147
36,-34,80,-2496,3173,3079
28,-36,55,-4071,-1205,4086
-89,59,41,-1925,-1436,298
-80,117,0,-100,-4871,2447
-128,55,-19,2106,-3085,-1275
74,106,116,3673,-1541,-2465
-122,72,-79,2047,901,-4927
-85,-59,-70,-460,4048,-1997
117,87,3,-1180,3610,558
-49,-43,1,-1467,2887,1656
-46,-2,26,-2677,2469,2393
-117,-42,-14,-2487,-1455,2574
-126,60,-40,-2433,-3158,2442
-8,-68,58,-1019,-4606,2490
108,102,72,329,-2168,496
-126,-75,-25,1136,-3381,-1760
-101,80,-49,789,-1012,-1582
79,79,109,53,-19,976
101,35,-18,-340,-2663,-127
59,-72,-99,-1052,-1435,1714
3,-16,-57,-245,-2850,2305
-6,117,7,-301,-3097,3989
-78,92,-81,921,-2470,3510
-30,-31,-109,-694,-1700,4391
-77,-86,88,223,-2204,4403
-21,-15,62,-1440,-1545,2906
-40,11,55,-1361,-2552,3208
20,-18,45,296,-2873,2667
9,47,-26,3996,-2930,2512
72,22,99,4172,83,1176
47,34,67,2094,679,-33
23,-23,77,114,-44,-667
-66,123,106,1341,-5420,-2896
-67,-8,-93,-1623,4145,-7956
83,-67,-29,1186,7222,-2823
100,-74,-128,-974,4233,-452
119,-102,20,-4094,2188,4804
-70,-123,91,-3507,-1547,4165
48,-41,57,-4308,-3111,2939
-87,-79,-64,-970,-4423,361
-45,82,-44,1106,-5085,-7399
-12,-106,-24,1857,1594,-2725
42,-55,-73,2902,3595,-1407
119,51,-51,-147,5340,-1211
-123,-74,-34,-1039,3648,2365
14,-118,-123,-3974,1584,3958
31,94,27,-1727,-1048,5809
-114,-74,79,-2741,-3016,-351
-14,106,-125,-868,-7713,1766
83,2,91,-158,-3373,-5986
65,-73,-81,1847,629,-1850
96,-41,-126,1075,2150,-4677
-38,26,-67,-526,5648,-2735
-40,124,72,486,4122,1611
-27,75,-64,-2680,3088,4379
-28,-33,52,-2268,-483,5543
17,61,52,-3486,-747,1123
65,-11,19,-2823,-3916,1682
-28,-102,-23,503,-5075,-561
20,22,91,-1243,-3257,-2065
12,-40,-40,101,-2768,597
-53,-16,36,1336,-2369,2648
36,105,-73,-1028,-2574,808
102,89,-60,-853,-1904,1204
89,28,-117,-42,-2608,1996
-82,118,124,-844,-2330,2314
-29,104,85,-141,-2595,2143
-18,87,67,-423,-2076,2406
-31,68,78,401,-2408,3142
19,114,70,-606,-1290,2216
-4,-116,92,263,-1381,1837
9,107,64,1400,-790,2004
20,59,-43,2317,-306,1647
28,15,-100,2819,-533,1663
60,-34,114,2973,-291,1704
80,-76,79,2145,27,925
92,-101,76,898,173,71
89,127,82,326,98,-77
87,85,106,377,-148,-30
85,85,122,22,-479,1
72,88,122,-140,-218,36
71,103,122,-390,-130,188
-62,-94,101,-2677,2047,-3997
-107,-89,19,1985,2144,-6039
-93,65,14,1505,3724,-7988
-11,-110,26,-947,5540,-6470
-74,-89,114,-1264,5287,-4078
-106,-128,32,-2431,3805,-2067
-79,34,99,-2609,1846,1107
19,114,-121,-370,-9527,1753
58,8,-50,-1786,2578,-10857
-71,-55,-29,3195,6449,-139
-22,28,124,3685,7152,1168
-99,13,-3,-3775,914,5045
-48,42,62,-6542,-1267,2682
-41,-53,124,-4842,-7415,3407
-54,21,113,146,-5999,-2181
-9,75,-37,2778,-440,-3527
-22,-42,117,3476,655,-2925
38,-128,85,1157,1232,-1842
-117,13,-122,-479,5290,-1160
7,71,-113,-1933,4076,1241
29,-91,37,-1642,3945,2677
113,-10,-52,-2859,-294,4142
97,-50,-86,-1918,-2423,1203
-53,39,-125,-2530,-3943,1232
-100,93,-58,-134,-6178,-581
126,0,-89,994,-2102,-4551
15,-36,-128,2205,957,-4012
96,8,119,320,3733,-4221
-55,-38,-76,-711,4168,-2356
-47,92,88,-1344,3498,1400
-99,18,58,-1936,3577,3383
103,68,69,-2756,-440,4389
-73,53,25,-3370,-1317,1581
42,-83,-49,-2904,-3675,2889
111,79,-79,1125,-4226,711
-42,47,-103,781,-3612,-3614
126,-83,42,260,-1385,-1314
-27,-93,72,1176,-1625,2214
-54,50,41,311,-2646,2314
35,-88,-54,-1513,-3530,568
-34,-47,62,-925,-4184,2634
69,10,-86,596,-1943,4844
49,-92,-25,-458,-4005,4234
75,-50,9,-825,-2607,3119
-9,110,-6,3294,-2827,5909
66,-56,114,1240,-1782,4274
21,-36,6,1267,-1799,2337
20,-123,-63,2520,-2306,2080
67,106,103,1962,-567,549
61,44,37,916,1018,-931
-28,29,-20,-1448,1810,-6533
51,121,81,-973,2541,-6531
-81,46,40,-2609,3244,-5690
-81,-9,-92,-4058,5454,-3625
58,75,53,-2878,3481,282
-4,90,24,-863,-499,-1096
-16,-88,39,-1267,-2513,-6440
59,-59,67,-721,6566,-4720
-33,-109,-64,2430,6130,4116
-105,80,-39,-2710,2450,5725
-25,91,59,-4895,-674,3733
-67,53,-77,-4199,-2427,177
53,107,1,-201,-6436,2150
73,-106,19,1946,-4671,-1728
-21,-86,-7,1052,21,-4171
55,-107,-108,2710,2282,-2851
109,-47,-90,-867,6082,-3449
44,26,-19,529,4238,3300
33,-2,113,-3445,2038,3330
97,-83,40,-3359,106,3115
-114,91,10,-3839,-2638,11
-49,2,-113,-1517,-4292,-42
94,127,50,43,-4544,181
-95,17,105,1561,-3000,506
91,-24,-105,1812,-1252,-3723
86,-119,109,1731,1262,-3872
118,-119,-121,953,3507,-3680
25,-86,-64,-1044,4900,-2805
-93,-72,62,-315,3508,1809
-100,120,82,-1746,2427,3346
127,52,-29,-1563,1805,3298
123,19,-115,-2278,-6,1978
23,-75,49,-2883,-997,1100
58,-66,92,-1599,-4252,2012
83,-105,-48,91,-3103,241
-55,32,-116,1036,-2887,-1624
-83,-68,-14,1464,-119,-546
69,122,121,1017,-678,1134
-81,107,10,-13,-2057,477
-48,118,-78,-661,-2164,1273
-42,-65,-46,-952,-2863,1744
-12,14,-53,-2383,-3838,677
-54,70,69,-2413,-3680,954
-101,65,16,-1,-3682,2432
-33,87,-46,68,-2696,3442
-25,91,-113,235,-3503,3097
-7,81,127,-338,-2961,2580
-7,66,-91,534,-2544,2658
34,126,-128,231,-1499,1770
6,115,82,424,-869,427
-94,-54,31,831,4911,-4921
-23,13,-53,513,5424,-3894
-97,113,-83,-480,3940,-2852
71,63,36,-1161,2954,-2454
-45,-42,-104,-2121,253,729
-34,-91,-8,946,-3257,1511
54,35,-42,1127,-2111,-1141
6,3,115,90,-3537,-8791
-20,122,-91,-1322,5209,-1842
-113,-114,-45,601,5856,575
-19,-89,100,-1241,5373,993
-10,49,-74,-5274,2028,5213
-78,-28,-120,-3913,-2115,4005
-61,66,67,-4592,-3832,3282
-64,90,13,-348,-6908,-1806
-8,-48,63,1245,-4008,-5857
4,-52,-73,2166,-662,-3005
73,40,123,6,4194,-5913
125,105,-51,-1279,6256,-1018
-51,6,-5,-2184,3362,1600
127,56,-111,-3749,2262,2458
-58,-79,-36,-3236,-571,5161
71,65,-30,-2084,-1065,2269
-125,111,-20,-1058,-4666,2987
44,118,103,87,-5685,-51
67,13,-123,469,-4151,-3113
104,-90,-90,1770,586,-4183
-122,-4,-110,980,2472,-4447
-41,-96,-50,-510,4367,-3778
-126,73,-57,-861,3738,1638
-38,45,-85,-1942,3680,1010
-73,0,-93,-3678,138,3044
-63,7,-100,-2334,-436,3393
69,47,-108,-2711,-1312,1807
87,-112,-73,-276,-3085,2653
96,-24,-32,-192,-3532,-1404
-88,-11,-121,394,-2399,-2512
-85,-107,43,1560,-908,-788
-88,-44,68,755,18,-349
68,55,89,1633,-96,754
28,-124,-90,-78,-968,649
-121,78,60,-63,-1237,1287
16,-105,122,-1369,-3173,1999
6,-19,-61,-601,-2520,2785
40,98,85,-511,-2565,2401
-1,90,67,-784,-3128,2161
-2,-124,123,-966,-2763,2651
-60,-106,-74,-875,-3464,2554
-67,103,-37,-192,-2663,2868
-73,67,-49,1567,-3052,4990
120,-72,13,-237,3234,-4642
106,42,18,-881,4367,-4147
89,29,107,-760,4696,-1884
-124,-50,-66,282,4536,-1456
-86,-44,-60,-673,3566,-773
71,-56,8,-705,780,-1417
8,-109,80,-697,1302,216
-70,126,-69,1294,-4267,135
-121,15,-37,-303,-1462,-5009
55,-73,29,740,1212,-4982
105,-48,-22,152,4455,-2113
-20,83,-107,3503,5099,2062
-52,-98,-52,-6627,2105,6458
122,75,-94,-5937,-1758,5654
-7,-68,21,-4763,-1903,1995
-77,37,14,2160,-8587,-2190
112,-108,-99,-406,-4976,-6179
25,-36,-87,1487,1179,-3084
59,46,-111,501,4650,-3258
-43,-105,-57,-1449,4534,-2365
17,101,-80,-985,4423,1666
-3,-128,98,-2229,3663,4309
-123,-74,-91,-2947,743,5273
66,42,-56,-3847,-1946,532
26,-4,-53,-2865,-5020,532
-84,-119,-108,414,-4682,2036
-126,103,-93,751,-4825,-1259
68,-82,-114,1594,-1461,-3120
63,120,103,2258,145,-2487
121,-94,-128,-58,3935,-5150
-44,-79,-55,-854,5530,-2312
-14,-114,-94,-352,3448,602
-67,53,103,-796,2974,2598
-35,97,37,-194,2832,3629
-14,-96,-122,-1588,2287,1477
-94,-20,78,-2635,272,1758
-108,71,14,-2852,-947,1901
70,-37,-6,-2148,-2908,1337
-86,-93,58,-1074,-3844,594
-78,-34,-18,-356,-3539,-156
-29,46,-99,251,-2633,-1584
46,106,115,285,-1744,-283
82,-105,101,16,-1464,701
92,124,85,450,-2100,1010
-58,0,84,-803,-1476,947
-105,-3,49,-523,-2138,1747
-105,58,45,-483,-2989,2580
-86,96,39,-920,-3268,1510
-31,86,37,-665,-2483,1745
-51,41,21,-166,-2686,3196
-53,59,127,453,-3325,4868
-23,69,-65,1592,-4070,5872
106,115,63,485,-877,1788
77,82,-18,1757,248,787
61,32,-120,2437,431,911
39,-16,76,2387,201,638
61,-33,45,1248,334,750
61,-67,33,578,-100,294
65,-82,53,381,-421,11
66,-94,70,-315,-383,-432
59,-106,85,-625,-342,-549
63,-121,102,-452,-437,-524
57,-117,95,-399,-472,-248
50,-85,113,-1014,-437,-29
55,-77,102,-897,-99,-6
75,-53,100,-785,104,16
87,-42,86,-270,270,178
95,-43,56,122,361,167
118,-42,25,156,251,269
-123,-38,13,8,126,429
-117,-25,8,-226,-156,403
-122,-12,22,-331,-323,369
-125,-1,33,-445,-233,289
125,3,49,-323,-329,327
-125,9,66,-110,-257,374
-125,17,60,-98,-59,325
-123,17,55,-126,-18,318
-113,19,47,-211,-38,327
-108,22,43,-125,-15,278
-97,32,34,-238,63,249
-86,29,33,-186,28,207
-88,29,27,-172,-33,173
-90,30,23,-209,10,166
-82,26,29,-73,7,215
-75,26,28,-31,-17,196
-77,27,25,-125,-16,174
-84,24,28,-139,-34,277
-82,30,32,-160,19,384
-71,33,36,31,106,376
-59,38,32,-24,36,328
-61,35,28,-9,75,308
-58,34,27,-46,80,395
-52,34,24,-12,-21,461
-47,43,23,-154,-70,375
-49,41,30,-66,-70,383
-44,46,32,-104,-52,343
-41,43,37,15,-96,309
-34,40,34,4,45,278
-37,35,32,-19,33,283
-43,30,29,-86,-42,292
-89,95,-15,2596,4947,-3112
12,-110,14,954,1526,-6758
105,112,78,-103,3766,-6568
-90,-52,96,2445,4507,-3452
-74,-104,-42,-324,4599,-3658
-39,-23,126,-1063,2526,-2712
-13,-40,-70,-1051,19,-859
63,39,-88,439,-4384,-1863
-98,-31,29,1562,-1327,-8750
-73,126,-33,-1017,5715,-4146
-64,-118,21,-546,5866,997
-98,-76,51,-3116,3774,2733
49,113,6,-4363,539,3675
-27,-106,-80,-3242,-3287,4045
43,88,45,-2902,-5769,1752
-82,82,-39,1529,-7925,80
-30,-98,-30,1906,-1296,-4838
54,30,-117,2567,-310,-4566
37,127,113,-972,3357,-4403
-39,-115,-58,-1534,4678,1389
7,-55,-101,-1648,3965,1275
102,51,-93,-2937,2648,1540
102,-85,1,-3543,-2506,2867
-36,7,28,-3395,-4608,-563
-33,-41,-68,1056,-5545,3180
-23,7,-97,2213,-4565,-4068
22,94,-107,1116,-330,-3868
41,-35,-124,2693,3003,-808
114,-31,-106,-142,4037,-2193
-124,81,-35,-381,4991,-565
43,77,51,-1641,3396,676
-109,-80,-91,-2565,3142,2326
76,-112,-6,-3511,210,3217
-55,-18,-112,-3466,-2137,1847
-110,79,66,-2497,-4243,3992
95,36,97,1391,-3790,1363
-35,59,70,151,-2806,-2986
-88,113,-83,1865,-1126,-1129
-24,75,-72,943,-1515,1387
24,-108,17,1131,-1474,3383
29,96,-53,-1251,-3262,3228
-75,-103,82,-1345,-3685,435
-55,116,-39,-1148,-2804,2899
-93,107,-57,-996,-2431,2212
-127,-53,-73,-1357,-3299,2400
-75,-102,-69,-432,-1732,2729
-114,-75,-96,-731,-2193,2346
-127,-40,107,-624,-2737,2483
-119,-80,114,1439,-2506,4260
18,-75,10,1935,-791,1979
-56,78,60,-78,3996,-4401
-91,-79,44,243,5989,-4017
82,-10,96,-746,6044,-3136
111,112,102,-411,4679,-1157
71,-99,-72,-1220,1910,84
-104,91,43,-1120,744,768
-26,34,56,95,-3533,160
36,-12,-128,-1145,-2348,-4295
48,-103,119,1567,2747,-2059
116,124,22,1103,4430,-2300
37,121,71,-1039,4971,-1537
-126,116,126,-329,4460,2707
-124,-30,-119,-4695,-1496,5706
-6,-64,-75,-2938,-2182,2918
-128,104,120,-3019,-6068,-700
57,-112,-48,1821,-6251,883
111,-96,-2,1686,-1281,-2014
99,18,-91,1611,1566,-3734
-96,34,-71,1188,4256,-2566
-23,110,3,-1076,4770,-2564
-36,-111,-122,-1339,3341,604
88,-83,42,-2044,3642,1908
-42,30,72,-4271,-1863,5201
65,57,116,-1676,-2545,1299
-56,-112,80,-2140,-5650,40
64,84,92,1283,-5959,1580
88,33,-90,1393,-2566,-1451
85,67,-126,1788,-780,-4191
110,50,123,1453,2510,-3734
-88,39,-87,214,4411,-3341
-62,-74,-7,-692,4587,-1649
59,-94,11,-1183,3170,686
5,-25,86,-1955,2335,2490
125,113,-22,-2322,379,3035
114,21,-99,-2375,-401,2514
24,-105,67,-2641,-1985,2526
-104,104,90,-1391,-3717,4050
-100,85,-62,-1024,-4232,20
41,114,113,-203,-4041,-1406
93,-103,36,1088,-831,-826
111,56,9,736,-193,-974
-103,-100,-126,456,-447,73
24,109,20,226,-304,324
-102,-102,-37,-463,-738,394
-31,-84,-66,-718,-1038,957
12,-54,-99,-780,-1745,1879
36,24,-57,-776,-2353,1881
62,52,-18,-663,-2304,2264
-31,66,2,-852,-3776,2703
8,-29,22,280,-3620,2302
32,-116,-48,-550,4631,-4243
13,-10,81,-618,4406,-3656
-91,-88,127,-925,4574,-2989
-74,-23,51,-907,4677,-2217
30,-122,-18,-793,1256,47
-83,-121,-33,498,-4037,1434
-7,67,-97,1294,-1788,-5836
-12,17,47,1246,3374,-5023
57,-112,-5,894,6056,-743
-113,-35,68,-1788,2756,-203
-37,69,67,-3125,2093,3143
28,50,18,-4314,-1911,4511
88,23,121,-2539,-1328,2464
94,11,-47,-1272,-4701,1501
-116,-9,115,1061,-6506,-1481
-103,125,21,-1541,-5752,-7550
-68,117,-58,2613,2093,-1096
35,102,-125,1474,3513,-763
102,116,-84,-754,4797,-773
86,124,97,34,4493,1718
26,-51,-100,-219,4217,2228
-92,29,-115,-3519,554,2240
-81,116,8,-3892,-3191,3785
-12,85,-47,-2626,-3609,2898
6,-97,77,-1936,-7938,2691
-115,-12,41,-1514,-3566,-4154
10,0,109,968,-2928,-3669
-51,-58,49,677,-383,-4764
6,115,59,1154,2858,-2356
98,-61,96,525,3912,-1415
-69,-103,-79,-1024,4495,-994
-54,-32,107,-1477,4439,700
84,57,-99,-1564,3319,1720
-112,126,-28,-1310,2739,2909
120,-54,-82,-2695,4,2553
100,76,-123,-3008,-1103,3088
2,90,87,-2204,-2924,3294
0,-87,-89,-1057,-4255,609
-16,-10,84,54,-3561,-2563
-41,72,-71,1360,-2343,-2498
-44,8,-63,634,-1907,-1125
23,46,-124,900,-1648,1771
-79,6,21,8,-2022,2072
-29,105,-5,-743,-2934,1887
-12,-67,58,-1412,-3036,2629
-4,3,-127,-852,-3402,3291
27,102,-70,-1611,-2665,2827
-36,110,-39,59,-3142,4142
-4,106,-70,680,-2087,4462
36,-93,-96,763,-1320,3678
6,-127,82,3804,-1961,4654
72,35,-38,5946,-1266,4686
97,12,85,3937,-934,2755
70,24,14,190,189,-619
61,-46,36,-914,209,-1465
45,-113,81,80,-224,-715
24,107,-117,719,-817,-272
47,86,-115,736,-342,-338
30,89,-93,125,-293,-375
32,65,-104,-67,-378,-10
49,69,-118,45,-94,300
42,81,-117,45,-221,437
63,-128,120,-662,-413,408
89,127,105,-461,-46,245
87,-120,95,-295,-87,188
91,-117,66,-240,102,278
94,-94,49,-685,-30,266
105,-87,51,-370,1,462
104,-59,42,-476,-55,513
118,-30,42,-695,-77,360
121,-18,45,-323,-100,291
118,-9,37,-284,-19,13
-126,-16,40,-187,24,20
115,-21,27,-24,-53,97
120,-11,23,-319,-69,-71
-102,-28,35,-28,-6,138
-87,-14,53,-92,-206,137
-76,-22,64,120,-27,92
-74,-20,72,4,48,-25
-93,-39,73,210,114,-9
-99,-54,60,331,332,190
-105,-55,54,74,95,497
-86,-60,42,191,346,953
-81,-35,35,-125,71,1122
-63,-17,29,-138,205,1113
-49,4,34,3,6,905
-47,7,31,27,-87,719
-62,11,34,-13,-121,579
-76,14,30,-245,-110,508
-60,22,47,-436,-160,446
-13,27,78,-294,-196,443
-43,37,56,94,-46,97
-56,12,32,351,186,-391
-39,-10,21,173,118,-198
-38,-19,22,-42,-243,129
-22,-3,42,-448,-144,146
-18,9,58,-203,27,66
-35,4,51,293,17,-143
-24,-3,27,102,256,-428
-27,-25,20,-32,-1,-103
2,54,86,1615,1720,-6621
-81,-15,18,1002,4514,-5047
7,-75,3,365,5143,-3461
-16,104,-34,-1444,4595,-2406
44,-104,39,-719,2737,-1284
35,-81,111,-1025,1505,-319
-30,-65,105,-885,-4165,1861
65,35,4,651,-5064,-2353
-121,-121,86,2320,-881,-6092
-113,2,65,2931,2652,-889
8,-90,62,731,4565,-1974
107,19,-111,-1317,5144,-1265
91,14,3,-1134,4893,1446
4,-24,-21,-3564,2877,4757
-35,-59,72,-4633,-2556,5236
-11,-81,43,-5048,-4853,-1292
91,119,65,-1649,-7625,-574
-47,27,-101,3586,-2351,-6246
-29,20,86,2876,2274,-3674
55,95,94,629,4029,-4339
16,-90,-74,-914,5045,-141
-54,-46,34,-1337,2980,2052
57,-85,-26,-3477,2498,2827
-47,-55,83,-3092,-770,4379
75,-84,64,-2394,-2138,173
59,67,35,-2525,-4714,653
-68,69,-57,833,-5895,2583
-23,-28,-90,962,-4380,-2722
-49,-123,111,2193,-1316,-2594
25,-12,68,2127,1646,-2996
93,-102,97,443,3713,-4354
84,-70,-73,-754,4844,-2142
6,-76,-78,-1226,4110,86
108,72,-89,-1834,4011,2065
41,-8,-35,-3237,230,3651
1,-59,-46,-2899,41,1568
-81,-74,-95,-3461,-1658,1093
125,-114,115,-1587,-5112,2297
-106,39,-35,467,-3424,-1054
-59,103,0,189,-3462,-2315
85,119,-54,1303,-1373,301
-77,-86,-116,1175,-2313,666
41,4,43,11,-1920,1594
112,97,33,-659,-3067,2559
-51,-42,75,-744,-2403,2422
-96,61,87,-1475,-3454,2319
-63,83,-91,-932,-2778,2293
-79,119,-46,201,-2342,4013
-76,-98,-94,387,-2508,3302
-20,-121,-121,253,-1568,2569
