AccX,AccY,AccZ,GyroX,GyroY,GyroZ
4,-93,24,806,2690,-4882
-121,-52,-50,1010,1236,-2631
-26,-8,-121,-3851,1518,-4946
-71,-81,-44,-2170,1575,-6792
10,57,83,-6019,1738,-3511
28,34,60,-985,-762,3085
-75,-98,-6,-738,379,5979
-17,-111,9,1369,-3572,10678
-47,-20,-59,7844,530,-9231
-6,-48,-57,-3468,880,1169
52,-105,-104,1217,-55,-1080
89,13,51,-738,693,-521
-60,-126,2,2573,800,-2023
75,126,41,1030,688,-1836
-27,82,-109,1918,182,-291
-63,-18,-91,2650,-1045,1880
-41,73,53,1869,-833,2890
-14,-64,54,359,-1416,3529
47,-112,117,1422,-1483,3841
29,79,-121,2096,-3109,3482
54,-117,-54,-3926,-421,4632
-78,-107,-63,-1279,-732,1402
-96,-88,39,3073,-771,5107
50,-40,-57,3001,-822,4088
20,-122,-88,-1728,-408,1278
-85,115,23,-2336,789,-1257
63,-85,38,459,296,-989
57,-101,41,1224,44,-653
101,-120,9,1020,405,-574
124,112,0,399,262,-965
125,83,8,244,33,-781
125,61,4,357,-56,-543
-128,57,8,74,-106,-476
106,61,21,-89,-221,-72
108,66,21,-113,68,191
112,101,30,-351,32,469
-124,-126,18,-374,157,578
-115,-95,20,-447,16,527
-98,-75,10,-137,219,459
-102,-63,9,6,159,358
-95,-53,-5,-3,205,197
-87,-61,-9,220,190,78
-88,-63,-16,146,104,0
-90,-72,-14,178,87,-2
-90,-77,-10,130,30,-10
-90,-85,-5,226,124,25
-86,-84,-3,96,56,63
-78,-82,0,58,84,91
-78,-78,-1,8,107,95
-78,-74,-2,26,109,187
81,76,-1,-1048,2153,-4917
-40,-38,96,83,1152,-3210
-22,-14,-82,-574,2530,-2975
-90,-7,15,-559,1834,-3094
117,110,67,1504,1314,-5081
-120,23,-126,-8074,390,-4885
-65,-121,5,-5099,1426,-2666
-5,53,45,-951,57,7043
-103,93,114,-1584,1158,10437
96,44,79,-1462,-4579,-5189
-1,2,-29,1539,2644,-3176
44,-124,-43,-2091,661,464
51,-52,-73,420,-323,-509
62,-109,71,-39,168,-82
70,-91,97,443,-168,-39
31,116,113,-2,75,172
55,-86,72,89,76,-23
42,105,77,136,247,76
55,58,45,671,125,206
122,-91,-8,140,-124,-826
-91,69,7,2628,887,-1311
-45,116,0,887,-427,-1522
-91,-19,-83,1928,-632,-406
58,-51,82,1825,-1025,170
-5,-73,-24,1579,-701,2230
35,-6,-13,67,-1223,3496
23,54,-79,-70,-2989,4779
45,99,-119,572,540,4613
-54,-121,-33,-877,-2719,4783
102,74,68,-114,-2170,4027
-97,-44,32,3545,-962,4929
108,-56,-13,-144,-74,3099
-110,15,62,-2039,286,-1375
42,-9,82,973,24,-1731
52,-103,83,1054,277,-767
49,60,35,893,619,-481
58,49,24,619,314,-235
94,37,31,42,92,-343
98,28,33,-135,28,-261
112,17,31,157,159,-87
87,46,36,-140,-127,44
97,64,26,68,210,160
102,88,28,-81,76,182
120,102,24,-67,129,177
120,117,27,-9,0,189
-124,-128,20,45,188,210
-123,-114,19,-2,59,126
-124,-121,12,276,127,142
-113,-114,5,114,79,76
-102,-114,6,-48,44,144
10,-28,120,-73,3347,-4603
70,-75,18,415,1342,-3239
-72,-54,-23,-564,1886,-5561
-23,-109,-28,-6108,3778,-4315
36,22,44,-1869,1186,-1765
62,7,51,1019,-1598,2485
58,14,-20,-2736,165,3739
48,-124,19,3424,-1960,7657
-109,-11,63,624,59,-3371
80,82,-13,1051,415,-1363
-41,-127,52,-1400,-281,17
54,66,120,-8,94,-267
95,14,-91,1357,-1193,-671
-91,-11,-78,1160,-328,-859
-57,59,94,2196,-189,-733
120,-89,114,860,699,-585
-33,22,105,2365,-609,1612
-121,60,-3,818,-701,3903
-110,-34,-74,-348,-3491,3941
105,-63,35,-417,-551,3108
77,-110,32,-315,-2503,3853
-120,1,84,-1181,-1412,2514
-126,94,25,458,-1171,1485
-121,-107,-14,-417,-738,1580
96,-34,-128,2696,-603,2953
103,-42,-106,1969,-1864,2662
-78,71,60,-1363,756,352
114,-24,6,9,1035,-799
63,103,60,1807,-465,-416
73,118,29,358,92,-587
74,92,43,-156,307,-621
60,45,44,299,187,-98
108,50,28,241,245,-145
126,75,31,-108,53,-132
120,73,22,-36,87,3
111,88,24,20,57,196
111,106,19,26,21,261
127,125,21,18,171,325
-119,-119,20,34,154,280
-105,-118,17,64,133,275
-117,-95,12,-120,72,82
-96,-102,12,51,268,-23
-107,-116,-2,325,189,66
-80,-105,-4,14,35,211
-91,-87,0,-252,-3,107
-111,-72,16,-253,-42,-23
-102,-84,19,383,335,-16
-89,-92,7,670,214,-95
-73,-106,-4,573,150,-85
-68,-124,-5,413,74,27
-2,-97,-60,-2433,2597,-4518
120,94,5,1290,1784,-3052
39,67,57,-86,2166,-3928
-82,-25,-128,-4265,4468,-5172
-93,-94,-82,-1540,3072,-5308
-13,-117,-34,-2533,3237,-1999
43,125,-70,-1357,1189,2408
-2,-125,121,-124,-4107,6765
76,-100,-128,-2334,-1402,8267
84,-11,-35,6587,3904,-7235
70,13,0,-1881,-1407,1659
74,-30,105,310,191,-319
15,53,124,505,-216,98
98,-97,100,181,56,-265
-86,101,94,1941,1020,-1367
-92,54,0,2068,518,-1893
-19,32,-93,1593,-314,-1280
-28,108,111,199,296,-399
13,15,77,1666,-1281,1024
98,48,73,1043,-1212,2377
126,-117,-107,-794,-3349,3113
-119,101,-11,184,-979,3365
104,-79,68,171,-2695,3639
-42,109,78,1823,-1675,3803
-17,-111,63,-360,-1252,3337
-36,48,64,1146,-1248,3907
-2,43,24,893,-593,3812
-100,-121,-36,285,-1217,1786
126,92,83,-429,-24,-794
81,-8,60,166,415,-992
62,124,41,1278,479,-519
70,107,39,1327,107,-423
104,67,16,1153,347,-798
115,53,31,30,-147,-1190
105,64,36,-1282,8,-904
96,43,32,-689,133,-450
88,33,39,554,-96,418
106,87,38,-21,-19,428
114,115,35,-465,30,364
127,-123,37,-289,74,514
-117,-103,36,-111,109,449
-108,-87,31,-14,158,305
-109,-75,21,15,116,171
-107,-74,18,59,128,118
-90,-76,6,66,191,73
-99,-64,-8,-159,-15,-147
-107,-85,0,312,52,-114
-98,-83,4,112,12,-27
-100,-73,18,-164,-100,8
-100,-71,17,1,164,-64
21,124,-116,-272,3784,-3992
-83,45,-110,-2219,931,-3024
62,-120,95,-5173,1282,-3029
54,88,113,-1299,-109,226
64,54,45,-809,-1726,3556
-99,-113,68,164,350,6681
50,119,95,6620,-5544,3410
4,72,-13,1816,3813,-4537
-50,50,21,-2882,-719,438
23,35,-93,101,618,5
51,-123,87,672,475,-302
73,92,50,145,563,-315
121,55,78,1952,1787,-919
-94,-77,-6,6101,-924,-740
54,43,-95,1854,990,-1403
13,30,-111,476,862,-149
58,-72,78,567,-293,1817
-98,45,-39,-211,-1537,3341
-20,47,70,-307,-4299,4308
-113,120,5,-2426,-1525,4129
-72,-64,-66,-1396,-3142,3254
-38,7,48,1548,-3158,3345
-19,65,-17,817,-1385,3133
-39,-52,70,2461,-2151,3551
40,-21,-52,3883,-294,3197
-23,58,-63,-654,1897,-25
100,-105,-29,-5093,1378,-2280
65,-105,39,-1024,85,-1550
44,37,49,3245,346,-34
52,71,5,2965,414,253
94,98,-24,1032,551,-67
-126,78,2,148,267,-425
114,32,10,411,-241,-214
111,46,36,-211,-136,-186
108,47,31,-264,-10,90
103,63,34,-341,-130,250
112,91,35,-301,51,398
115,114,32,-303,14,470
-127,-119,23,-299,116,378
-114,-99,20,-65,108,242
-115,-95,8,49,137,121
-116,-87,-1,-96,131,49
-109,-97,-2,219,143,56
-107,-96,-9,209,92,23
-100,-97,-6,245,109,-22
-97,-114,-8,428,131,64
-97,-107,-6,73,8,-18
-96,-114,-4,96,33,65
-94,-106,0,-71,65,146
-95,-104,0,55,133,210
125,49,101,-2919,1631,-4572
-122,44,109,-915,2980,-2694
81,-13,-108,1644,2153,-2138
12,-6,-15,455,2222,-3446
32,78,17,1226,598,-5101
-109,62,-16,-10022,7972,-2324
74,-25,117,1813,-234,-1446
89,21,-81,1410,-1249,1928
-67,13,3,-4780,-881,397
-31,-83,-27,429,-2905,7571
-69,8,4,4048,-2458,2246
39,54,-6,1048,2597,-3234
-22,22,93,-3228,449,-167
26,-8,-87,1309,-452,542
58,-84,78,204,187,-338
44,64,71,-28,-325,252
62,88,115,615,444,-138
73,-118,108,197,359,-507
-110,72,29,1835,766,-1082
-41,89,-30,1581,432,-1649
1,93,-55,573,-177,-946
92,5,102,2119,-308,207
7,-10,107,1901,-1431,1335
-54,-30,25,2733,-997,1118
-58,-10,117,2853,-1484,4382
98,110,-62,568,-886,3930
122,-111,-88,-267,602,3559
-107,-125,-38,-1635,-650,2965
-122,-53,-18,265,-1623,2879
-27,42,32,-595,-1648,4781
3,56,19,232,-161,3456
-68,87,-47,461,-322,2649
84,-115,100,-1506,-660,-93
82,44,50,-1777,506,-1902
80,-69,61,-55,763,-1089
45,99,54,1914,305,-245
65,116,28,1755,278,-78
99,115,31,779,273,-542
127,75,36,325,374,-703
110,61,34,46,63,-571
110,49,25,-107,79,-237
100,55,20,-67,45,318
109,81,14,-222,5,498
-124,105,24,-276,1,572
-113,-113,38,-347,-72,470
-116,-111,33,-30,164,370
-119,-101,25,51,128,441
-117,-82,12,-14,134,425
-109,-75,6,64,104,302
-98,-66,5,98,82,124
-54,-102,-84,-4119,1805,-3202
8,108,-17,924,545,-4038
122,-20,-64,-101,3312,-4856
41,0,58,-948,2463,-2342
-117,-42,-17,-446,2507,-889
-108,104,-109,-1540,2342,-1590
-96,120,27,-207,-916,-1944
13,-124,-114,-4232,1406,-2543
30,-103,-121,-1999,1709,-1949
47,9,-83,2677,-1613,1174
-81,77,50,1892,-457,4829
9,83,-27,-1280,2231,7679
18,49,-96,-3827,-498,-1128
-114,-86,40,2392,945,-3038
-27,66,42,-1070,-710,637
54,-120,-106,549,213,-659
28,26,82,164,-248,120
78,-108,82,-132,288,-360
79,81,60,642,309,-532
-125,95,-19,1224,931,-1176
-37,-6,-98,3683,587,-890
116,42,-128,1319,-1640,-314
-16,-13,114,1817,-2017,1104
3,52,55,1268,-19,1402
58,72,78,1448,-631,1932
8,80,-124,1363,-1915,3485
-91,-108,-128,-337,741,2489
66,-112,-75,-633,-1026,3201
-62,124,-49,-331,-919,2619
-107,-4,-43,1695,-653,2979
-82,31,-82,-273,-169,2727
-112,-66,-127,-228,-391,2518
-109,-82,-96,104,-849,2685
-102,-8,-107,-555,-509,1747
126,36,115,-1063,50,117
87,-47,90,536,322,-335
68,-102,73,979,292,-462
65,-123,49,752,317,-306
81,122,32,431,376,-394
113,92,32,465,253,-558
-127,64,31,664,243,-626
-115,35,45,920,323,-491
114,20,15,632,259,-277
113,34,10,-207,85,144
125,51,6,-392,54,473
-113,72,14,-115,-1,581
-101,99,14,-141,2,465
-100,114,15,-37,1,350
-100,-121,16,-143,-44,263
-105,-118,21,35,-1,209
-119,-41,-105,-9679,2944,-2242
-9,-39,-69,-1896,-510,-2541
-31,-18,89,-1203,-215,1544
-123,35,-89,-1155,922,5118
82,-72,-56,-224,626,6054
52,22,-19,10232,-4034,1951
-128,125,-92,-867,1491,-2541
47,58,-43,-2393,600,125
79,53,32,1120,-218,168
74,117,33,579,-207,109
118,-61,-1,-99,-175,-1102
-124,82,24,947,-156,-1158
-61,0,-87,2577,1545,-1841
-83,72,111,1060,201,-1130
111,80,65,423,-736,-280
-63,36,88,1651,-2112,1064
-10,5,-117,2110,-438,2427
-28,88,102,1191,-662,3099
22,80,-103,2020,-2145,3757
-91,-31,-80,77,-814,1902
-75,-87,-58,352,-675,2755
110,-36,-48,-1876,-1066,3185
84,-9,-116,1086,-336,2683
101,-51,-53,1447,-1079,3460
-71,-44,-98,853,507,2551
-62,32,-105,141,175,1938
119,43,114,-939,-440,160
75,-48,75,-453,1,-384
53,121,58,1229,418,-64
52,113,36,1053,316,-123
87,112,45,262,173,-422
106,78,50,167,306,-569
113,58,44,233,317,-374
115,44,22,371,326,-260
-124,40,11,337,319,-203
-109,43,1,141,149,-21
-106,53,0,-87,-47,108
-108,64,3,-123,-86,199
-119,81,5,-134,-111,334
-121,102,20,-230,-139,381
-118,117,19,-107,13,423
-110,-120,18,-21,-50,439
-111,-104,14,-144,-20,302
-110,-93,9,-224,7,233
-109,-86,4,-92,12,187
-106,-80,2,7,59,66
-106,-81,1,73,66,18
-102,-83,-4,47,100,-35
-99,-85,-10,24,100,-52
-92,-86,-15,14,117,-48
16,-52,73,2496,-1333,-6003
-26,125,56,-5908,2070,-2473
39,-90,-34,-1874,403,44
84,-98,-116,-1308,-211,4138
126,2,108,-3179,1702,5492
-55,17,-5,1524,-1467,4439
-105,102,-55,2258,852,-3805
-23,92,83,-1396,335,112
39,56,62,155,-48,-365
53,67,12,-144,-29,-26
72,77,29,-33,-146,-105
114,-126,35,-121,195,-776
-123,-128,-6,89,300,-1772
-90,-118,-47,518,-555,-1112
110,104,-50,1218,-534,-394
38,101,-99,1338,-530,155
27,63,-124,1478,-562,813
18,72,-86,643,-1427,1469
-28,84,-97,710,-1986,1800
-57,-24,-51,-87,-530,2091
44,111,5,2009,-2178,3044
-106,-99,-34,-558,-1221,2642
105,90,38,-1378,-1478,2694
-122,93,91,-812,-1823,2552
-106,42,10,237,-685,2432
-123,54,-55,175,-999,1721
112,-5,-75,647,-698,1700
120,-17,-111,918,-99,1007
114,0,113,224,195,248
98,-95,85,1469,138,45
88,118,64,2232,63,187
100,104,39,1491,315,6
94,80,20,526,351,-336
108,60,25,116,245,-285
110,32,37,424,-45,-114
109,44,41,117,-3,23
124,43,43,158,14,109
-121,56,53,-55,-80,152
-125,70,54,26,52,191
123,84,48,-10,110,143
-123,89,44,75,152,163
-99,81,30,423,178,243
-81,88,28,19,-176,358
-116,124,32,-437,101,221
-118,-127,27,-32,249,173
-101,122,21,445,264,188
-58,105,-2,593,82,258
-84,126,17,-157,-93,156
-101,-121,11,-259,259,110
-94,127,17,331,214,220
-42,54,-68,-5483,4070,-2047
47,-11,19,-714,509,-712
100,119,15,-1844,105,4671
69,58,-46,-4282,827,7409
112,56,-12,1326,-3454,2622
49,94,-56,3005,1957,-4644
-52,73,25,-974,-156,386
51,78,104,-97,233,-158
68,76,101,389,140,-123
101,86,108,439,152,-338
119,92,85,406,838,-928
-65,106,54,1716,1425,-1897
-80,108,-8,1571,698,-1459
-90,59,-46,2400,613,-599
71,62,-60,1781,-1122,229
11,50,117,1175,-729,836
-26,52,-97,1497,-1502,2304
-7,121,-99,499,-1637,1922
93,123,-110,657,-730,2917
-14,-77,-2,-1073,-2236,2668
-86,106,-14,-685,-486,2275
89,38,26,494,-1029,3198
-60,92,-85,-656,-999,3172
114,-5,-30,-441,-3368,2979
-98,33,33,-1466,-910,2152
-76,-105,-100,2569,990,2270
118,-48,-103,2463,-1289,1624
-121,16,92,93,-331,383
117,-21,34,-957,910,-771
65,-123,46,651,207,-347
66,117,45,927,-1,-169
101,113,29,426,261,-558
113,79,37,452,162,-612
119,64,43,323,64,-481
116,54,40,135,29,-455
113,52,40,24,105,-313
111,52,32,-21,97,-52
112,67,25,-158,67,334
126,89,27,-224,150,514
-114,107,29,-195,145,610
-87,-124,26,-81,-55,627
-127,-84,20,-380,27,340
-115,-83,18,-84,275,180
-99,-104,11,613,192,322
-78,-86,-2,257,134,150
-77,-91,-2,166,-32,-1
-93,-94,14,9,-29,-75
-99,-99,23,97,94,-51
-94,-110,23,262,174,84
-84,-104,16,208,147,85
-23,9,-59,-3996,-825,-5030
-109,-101,-118,-4207,2911,-7832
-85,38,-47,-442,-135,-2902
106,69,-116,-3297,1981,-2846
-18,-49,72,-3610,4361,-3792
-14,-113,-15,-4639,2937,-2453
102,-9,-79,-1755,-377,-409
-109,-29,61,187,1670,2917
-16,52,-76,4669,-1332,2314
-106,-119,50,2752,1237,9551
-26,-50,-86,-6545,-972,-2063
-5,-72,-90,929,1040,-1188
-45,-96,-15,456,-174,410
14,-48,109,87,218,-248
21,95,78,107,-14,-101
22,69,116,449,34,104
53,-94,114,191,782,-716
67,47,111,1670,870,-764
49,56,6,2762,-219,-620
-113,87,-73,2350,510,-829
-99,125,-85,477,-36,-772
29,-21,-127,1707,-561,287
2,-52,67,1611,-975,1443
-61,-38,26,1972,-2571,1814
35,3,33,3241,-631,4246
93,23,-72,2722,-1074,4011
89,-36,-105,-2031,409,3301
-111,56,-65,-4175,-913,2141
123,-85,10,-2140,-2214,2140
55,-25,-2,2004,-2031,2506
94,-63,-23,2830,-868,3032
119,-59,-77,1983,-319,2578
-112,-69,-61,3613,190,1089
-124,11,99,-565,1455,923
56,-69,59,-1439,335,-688
42,87,51,31,280,-412
69,59,32,628,372,-294
75,65,25,450,197,-311
78,62,29,225,5,-330
91,41,46,267,-11,-262
80,67,69,-401,-217,-70
97,79,63,-403,313,-191
115,62,42,208,207,-105
116,73,32,109,18,-69
120,79,21,-111,146,-45
115,78,11,-68,19,244
116,98,14,-136,25,433
126,118,11,-101,33,407
-113,-116,21,-101,5,336
-116,-110,22,24,29,214
-90,113,24,-1818,2008,-5737
-78,-76,-102,-848,1341,-4228
38,-82,-118,-1198,1504,-2016
93,22,88,-1759,1195,-2367
-32,37,-76,-2287,2393,-5824
-121,-96,-79,-9228,3815,-1243
-10,-56,48,-1274,1583,405
76,63,63,224,-2137,4447
65,-40,117,1923,-2277,4443
-99,-114,-40,-268,-165,5195
-118,-73,105,5113,2156,-6352
-38,81,80,-2522,-273,1169
4,37,-91,1292,365,-264
32,68,127,307,171,-65
46,66,112,-224,-46,32
45,37,-122,470,131,116
83,122,99,424,439,-632
124,71,75,1762,762,-894
112,8,-14,1973,-753,80
120,78,-64,1161,-1095,36
-108,26,-46,2597,47,-435
69,29,-91,2013,-564,524
1,-10,-79,2182,-1091,1447
41,42,82,499,-475,1615
-5,19,-98,1049,-1815,3094
93,25,-99,1042,-806,2775
100,105,-30,-663,-959,3289
-58,45,-20,491,-446,2642
-89,-18,-38,56,-868,3197
-81,25,8,-1013,-956,2402
-70,-12,-24,657,-598,2665
-99,12,-41,941,-998,1734
95,-11,-108,392,-181,722
43,-68,96,304,192,295
29,-109,79,444,222,376
47,-124,64,551,123,329
78,119,54,609,231,-156
82,99,56,350,156,-381
82,61,69,528,207,-335
96,42,61,723,378,-300
114,43,44,244,262,-455
113,29,36,-27,46,-373
115,21,34,57,115,-46
112,35,24,-45,59,142
122,60,18,-237,-1,231
-126,76,23,-276,-50,321
-121,89,25,-21,61,402
-120,114,25,-31,-44,364
-119,-128,24,-98,11,254
-118,-122,22,2,55,215
102,86,13,-2663,2931,-4648
-44,-105,18,2382,-70,-2478
-103,35,2,1044,-2718,-3306
-57,71,-39,-5419,3733,-4944
-86,83,91,2199,1830,-3181
126,40,89,-8130,3984,-557
-42,32,2,-2063,1466,-929
10,-102,112,3817,-1340,1022
82,4,-27,-2338,5958,6779
-76,29,-65,5088,-2511,7056
-125,-30,27,-1294,1607,-5200
22,55,-40,-378,155,-72
-40,11,-123,120,98,-115
19,89,-125,-364,53,349
85,-94,64,111,363,-499
48,29,97,281,-156,403
50,94,70,339,105,14
51,118,84,64,216,-237
56,87,115,655,387,-199
84,75,40,1646,623,-285
-120,92,14,1986,234,-646
112,106,-53,684,-551,-504
-117,24,-76,1826,-598,-48
78,37,-116,594,-686,281
-38,-14,-115,2108,-1321,1136
39,11,-102,1612,-898,1873
2,85,119,230,-1060,2301
106,83,-51,-14,-1297,2401
94,67,-46,389,-931,3203
-124,24,-11,1204,-1039,3466
110,2,-15,871,-943,3330
-44,26,-55,200,329,3356
-89,23,-53,-409,-927,2647
-102,-39,-43,474,-1049,2488
-126,-32,-83,1078,-86,1604
98,-12,104,232,417,8
73,-67,77,-146,177,-576
60,85,64,509,207,-404
66,58,67,1142,258,1
77,46,39,1187,219,25
71,46,38,570,-30,-292
90,40,50,-99,31,-384
86,10,53,143,-20,-148
91,19,61,35,60,17
101,34,57,-188,63,144
112,45,51,-111,146,199
115,62,44,8,116,186
119,72,38,-41,127,218
120,79,26,65,148,289
126,96,20,-51,142,278
-56,32,113,164,5905,-4034
-114,-38,-104,-4314,8335,-5202
-29,54,-123,-3418,1587,-2222
9,-7,-45,295,461,1781
124,90,-78,-4328,255,4642
111,-6,-23,2814,-5116,9221
111,-66,-113,-2659,-1263,-4588
115,22,-46,1418,1362,-430
-12,-57,28,516,-548,437
-9,109,-65,-153,172,151
26,-112,-109,152,-8,-117
30,90,-26,422,151,135
42,86,-117,45,202,71
25,63,114,406,119,-46
26,73,115,404,401,-333
79,51,91,1463,1498,-848
104,54,55,2154,890,-816
120,75,11,1434,-56,-822
121,71,-67,1107,-289,-148
111,68,118,27,-1198,-514
-12,12,-47,1328,-2689,1361
-21,31,-74,796,-1254,1152
-50,9,-56,1460,-1683,2219
36,37,-11,1238,-1787,2647
27,54,-34,1034,-1438,3142
101,72,-22,209,-1369,2611
61,18,84,2065,-3225,3733
-74,67,34,-194,341,2084
44,-91,-50,1353,-493,2648
88,-94,-39,1859,-903,3373
117,-49,-116,450,330,1806
101,-28,109,-920,399,933
80,-64,87,-482,275,576
71,-82,81,546,83,213
71,-109,59,757,158,-277
47,-120,47,127,23,-508
39,122,43,-56,11,-390
65,100,48,280,142,-545
83,72,37,429,75,-791
88,65,36,137,-1,-721
87,54,37,82,-75,-472
88,56,32,-80,-35,-286
91,60,30,-146,-4,-91
88,67,26,-90,9,139
97,92,27,-196,52,343
108,117,18,-281,71,406
112,-117,17,-299,55,402
117,-97,9,-131,133,387
124,-82,7,-168,112,397
-122,-70,5,23,151,287
-75,114,-36,-2898,2253,-4400
41,70,-72,27,2690,-2949
39,1,-103,258,1227,-2335
4,-79,-99,-117,2315,-2833
-85,-10,30,1189,3067,-4508
-102,-40,18,-3401,1450,-3782
14,-1,-94,-4063,836,-2603
30,-43,-126,-844,-42,1331
92,44,-49,-4187,233,3563
22,-8,14,-1775,-3671,3750
-1,31,-64,-594,-824,4122
-73,-50,-114,6090,2389,-3632
-12,-113,-29,-1252,-391,714
6,-79,-95,994,140,-201
18,42,121,379,113,48
45,-124,-109,184,-33,-116
37,81,-98,535,132,-114
31,70,-125,385,223,-89
36,86,112,505,348,-400
64,44,74,1532,679,-498
97,13,-39,1904,-298,-522
116,12,-85,2251,-613,-566
-125,55,-91,712,-237,-196
93,-59,108,2648,-290,403
112,-15,97,2275,-804,1433
0,-27,78,2417,-3946,2947
58,-72,75,3180,-1644,3691
-58,-85,-43,-1104,609,2918
82,57,13,324,-1682,3389
-44,-24,-37,1609,77,4323
-62,20,-66,-5,-833,3710
-87,-16,-35,-501,-1230,2783
-85,-41,-82,141,547,1927
121,-14,127,6,543,1069
62,-10,89,-303,-3,202
54,-39,70,-456,99,-157
32,-102,90,1160,189,39
26,121,46,1699,303,112
56,-126,35,600,367,-457
72,105,40,154,242,-539
75,65,49,228,162,-584
82,49,44,348,251,-681
92,25,35,455,210,-580
94,22,29,137,26,-289
96,29,33,-132,27,-2
101,45,31,-240,97,183
112,58,31,-131,99,356
117,77,31,-103,-15,475
117,106,28,-153,76,490
127,123,29,-150,122,463
-25,98,20,-3747,2067,-3850
-44,23,-69,313,684,-2981
-107,125,-15,-975,5310,-3797
15,8,31,1210,4726,-4631
-4,33,-14,5207,2294,-6335
114,-30,20,-9318,3084,-1229
10,-61,60,144,-1123,-523
33,-8,-105,769,-814,4112
-24,69,4,-51,-529,7196
93,109,-18,-1407,-379,5964
107,30,94,-423,1902,-4301
-48,101,48,0,252,-194
-11,15,43,516,-100,421
46,-62,70,324,194,-244
47,-118,76,-146,55,-85
27,114,104,256,8,105
63,-110,64,-96,161,-130
24,97,83,379,7,-10
14,106,89,-66,85,95
30,106,83,230,51,53
51,-126,89,216,340,-306
80,43,41,1476,291,-439
-116,0,-89,3377,22,-793
121,95,-38,506,-302,-1112
101,-8,-49,1797,-621,-162
96,-1,-103,876,-582,218
52,12,87,286,-408,675
-4,0,-111,786,-1435,1656
71,27,120,-37,70,2324
0,57,-60,736,-1730,3078
-86,5,-91,1049,-114,3341
113,88,-12,-297,-1072,3546
-69,40,-63,-356,-675,3364
-38,53,18,-100,-1525,3150
-86,-33,-37,882,-956,3094
-87,-30,-100,794,-414,3163
-126,30,-93,-782,-753,1515
116,6,96,-841,273,515
71,-30,115,389,151,0
57,-112,59,1651,375,-237
53,-114,53,827,27,-696
71,98,42,605,363,-771
81,50,36,598,239,-624
81,30,41,620,50,-478
83,16,52,595,15,-313
112,13,49,236,214,-177
103,16,46,-10,5,-53
97,22,41,-181,-35,144
105,36,36,-112,185,318
107,54,30,-51,10,576
39,-80,120,-2462,1951,-4593
-28,-68,-53,1064,4044,-8852
42,28,103,997,491,-3087
44,84,38,-1108,550,-2578
1,18,40,221,253,-4100
-79,-11,-68,448,-1207,-4262
-61,-64,91,-6585,12,-3145
-40,-97,119,-2330,2627,1058
-29,58,44,71,1045,5222
-51,3,44,-247,358,7974
-96,-2,-18,-3782,-447,413
-29,-74,-39,3011,1183,-3142
5,-60,-57,-1681,-148,119
-5,98,67,809,-35,205
-3,-80,20,617,126,-457
-18,64,89,-70,-78,395
-16,108,115,244,165,232
2,-111,77,-1,153,134
-2,117,83,279,294,189
29,123,48,812,674,-160
65,-127,-8,1105,-42,-727
-103,33,-94,1479,-26,-742
78,1,115,2726,-1144,15
89,-13,-89,3230,-580,661
120,53,-89,959,-357,735
59,40,105,461,-680,1184
-9,-16,-110,1249,-1247,2677
47,41,-91,108,-335,2755
54,88,-90,-166,-227,2868
-116,98,-68,-158,-42,3006
121,74,-84,228,181,2843
-107,83,-48,-15,-441,2747
-99,26,-65,-360,-178,2437
-112,-16,-87,-326,-513,2411
-107,-80,-57,1094,-769,2684
-91,-58,-93,837,307,2198
125,-27,-118,-469,269,899
122,-70,100,-7,164,342
73,126,76,1091,-204,202
62,115,75,469,95,-63
70,92,51,-70,104,-244
83,74,69,-26,85,-335
95,65,66,-81,114,-467
109,51,61,-108,89,-430
118,60,58,-273,118,-362
119,53,39,-28,103,-212
118,60,38,64,63,-106
119,66,38,-45,68,44
127,72,31,24,54,303
-128,95,28,-149,29,337
68,59,-19,-3005,1801,-4930
87,75,82,-2250,1131,-3624
83,39,5,1219,1838,-3027
-40,-37,-61,884,703,-4600
120,-76,-92,-3991,4019,-6211
-27,60,88,-4501,4221,-2347
-14,-64,-81,-1872,-2,2309
-56,41,80,2313,827,3653
61,50,77,-327,114,6728
-38,31,-40,-2777,-1083,2531
66,-92,51,2294,460,-3510
-69,125,93,-1072,489,509
24,-61,94,238,-249,-132
46,-102,110,885,40,-41
58,-84,54,-481,259,-396
4,48,89,351,-187,213
24,96,77,279,144,52
21,75,76,416,151,14
46,-20,84,1237,1552,-150
73,86,-9,1499,-65,-1580
124,113,-66,844,-54,-907
-106,20,-95,1720,-531,-301
-80,-24,81,1517,-988,291
113,-90,34,1957,-1126,1367
4,-50,28,423,-1597,3240
86,63,-107,341,-1561,3774
-111,-84,2,-681,-1854,3635
-46,-85,1,-474,-276,2856
-41,-113,114,-7,-1090,3430
1,76,29,1269,-136,3209
-77,48,16,1761,-662,3247
-128,-30,-85,1855,-602,2590
115,3,-113,-223,-422,1124
91,-4,118,-1393,-83,-107
76,-81,104,-249,303,-71
56,-94,105,134,8,-165
70,-114,75,377,235,-63
83,-103,58,12,131,-546
99,116,55,379,35,-650
117,111,46,108,31,-633
117,100,42,-229,64,-662
108,93,35,-299,32,-598
105,94,35,-355,3,-415
117,99,33,-186,100,-139
121,110,33,-123,-42,-31
-128,-126,32,-141,-13,33
127,-113,32,-268,38,124
125,-104,34,-234,-9,257
-126,-85,28,-118,47,439
-118,-59,24,-294,35,411
5,6,-104,-3370,2004,-5575
-12,-35,-57,185,1201,-5238
79,-61,96,2163,622,-1924
-9,61,42,-872,-135,-2750
-6,-57,-1,-1884,1870,-4583
5,-120,-96,-1396,859,-1668
-87,80,-6,-7059,3143,-1735
-21,-79,-18,-1120,1499,1851
-54,93,40,-1416,860,4305
-105,14,100,161,212,6502
-16,77,-61,2558,-2042,5803
-61,-111,-19,2162,1737,-6253
115,72,-122,-384,-462,960
40,80,82,708,-73,-88
58,89,105,143,208,-194
53,76,61,-97,130,0
37,49,102,74,-115,192
53,83,107,194,89,40
71,123,96,112,60,-534
81,88,78,591,-163,-872
127,22,-48,1232,-44,-1149
-110,30,-47,1445,-549,-885
-99,31,-82,1058,-316,-558
70,-6,-97,1457,-293,224
70,12,-98,1015,-810,1116
-9,22,-109,796,-1011,1842
92,53,-48,799,-1259,2434
60,63,-58,327,-2007,2826
115,63,-6,722,-1363,3373
-68,74,-12,836,-627,3182
-77,108,-27,-418,-958,2165
127,30,-22,-902,-1304,2082
105,-110,-6,535,-790,2628
-118,-115,-76,1627,-405,2866
-101,-64,-79,419,-551,2260
-96,-17,117,-505,434,718
-126,-56,102,308,405,-47
79,-125,68,1470,44,113
68,105,49,1307,69,93
69,103,38,495,76,-256
92,79,64,374,124,-433
97,52,60,149,13,-613
102,41,66,15,81,-476
98,33,66,99,-14,-468
105,25,60,261,-17,-342
110,32,50,108,131,-17
106,49,42,-195,55,117
114,60,37,-65,107,327
126,83,36,-190,113,355
-120,94,36,-50,104,427
-112,100,9,-5157,2713,-5723
7,-113,-21,472,1639,-3284
-86,50,-119,282,2015,-3703
-93,-12,-16,-736,2679,-5328
46,-31,90,-4778,4301,-4760
41,59,-126,-4322,1809,-343
-84,99,-3,-523,761,2522
51,-3,96,-407,-328,4388
-68,-109,74,278,324,6752
-42,101,-126,1353,-2004,3243
-53,-119,-66,2300,1284,-4143
-36,77,-128,-1242,181,551
-13,72,111,698,-627,430
46,-66,-101,379,429,-428
39,86,89,-10,-65,-55
17,34,-126,493,17,103
19,60,105,288,156,61
57,-114,97,99,332,-770
74,31,63,1797,216,-580
95,42,-53,1050,797,-1173
85,85,-63,419,-931,-498
127,32,-52,1764,-231,-394
59,1,-85,1650,-26,253
-13,15,-98,1338,-877,1068
29,20,-95,1013,-1040,1872
2,50,-86,1136,-1857,2112
74,44,-89,523,-748,2720
63,96,-49,-616,-1571,2889
122,51,-27,-189,-944,2558
121,1,-3,25,-1518,3247
-73,22,24,-274,-1271,2738
-71,-7,47,262,-1153,2730
-106,-73,1,2049,-1021,2817
126,-54,-41,2066,-612,2171
103,5,-124,222,309,700
81,-23,102,-436,493,-203
50,-117,79,418,243,-82
58,122,70,706,248,-131
63,110,53,585,185,-323
85,87,50,317,196,-510
94,62,49,394,116,-581
97,46,50,307,-17,-582
99,37,53,104,24,-406
95,37,49,-86,-52,-257
97,41,54,-129,-33,-57
103,56,54,-91,51,166
105,72,49,-163,17,289
117,93,49,-197,105,332
121,111,42,-84,51,420
-124,-126,38,-80,126,445
100,-71,-77,-3889,1564,-4336
-127,-1,101,-1495,2449,-4709
117,1,77,1156,1098,-2208
-124,-117,-28,-796,351,-2660
-101,-40,-91,-822,2969,-4347
121,-41,111,-4455,4190,-3946
-103,27,-99,-2826,1072,-674
-17,-120,4,-1299,51,1365
-51,109,-5,-590,1413,3653
70,-105,23,607,-1445,5825
56,-9,38,-4021,-2385,939
20,-57,125,2922,2193,-3409
-121,17,31,-325,-878,735
13,60,-73,547,-13,93
25,106,-78,450,199,-246
27,53,-112,-78,130,-19
11,17,-112,734,-87,297
23,84,127,-143,237,-19
1,16,127,589,-79,312
21,95,-118,102,235,111
23,95,-128,462,128,0
20,64,83,250,125,6
27,61,76,301,61,-152
49,38,69,448,714,-492
75,25,46,944,1038,-612
100,27,13,1047,509,-387
103,-36,-5,1921,-394,481
83,-24,-57,1916,-464,-44
82,-61,-75,2284,-796,197
46,23,-62,408,-1317,1017
52,-9,-81,1007,-1291,1889
83,8,-51,858,-1202,2434
72,14,-43,684,-1799,2986
122,24,-17,69,-1658,3074
124,-5,-5,435,-1884,3287
-90,27,5,-592,-1495,2912
-92,-20,29,425,-1389,2600
-117,-43,9,843,-869,2407
99,52,-52,-1046,-431,1126
63,5,-47,-166,-369,495
37,-84,-85,1798,5,742
27,-51,115,1093,363,119
12,-107,81,1421,-33,165
14,97,80,1893,1,139
51,77,64,1337,285,-132
79,71,51,232,405,-633
88,38,52,49,173,-718
81,1,54,163,17,-509
80,-2,57,163,45,-344
74,-1,52,34,-12,-128
111,-26,-51,-5352,1223,-1810
71,54,97,-4898,2711,-1379
-109,-65,123,6678,4939,-3290
104,62,90,396,2909,-5386
-5,-38,106,-6902,6279,-1805
-18,80,120,-890,1041,197
33,-95,79,4687,-2463,1526
-28,-99,-101,86,3111,7603
14,-2,37,3608,-949,7015
30,-100,28,-6382,607,-1550
40,-114,5,2205,896,-2449
101,-90,71,-445,14,185
70,31,110,-283,52,186
80,112,56,224,-110,-347
83,24,100,-266,-43,284
81,63,106,322,-26,103
96,125,100,-186,324,-241
82,85,101,505,260,-232
112,115,83,345,782,-545
101,24,36,2352,-31,-788
-110,-120,-22,288,42,-1498
-61,74,-7,1236,414,-1238
115,34,-32,1558,-292,-583
42,10,-73,1453,-387,-111
-2,17,-68,960,-1233,927
-33,19,83,771,-449,1369
-5,25,-97,679,-1681,2538
38,4,-118,1116,-358,2887
124,51,-93,189,-274,3121
-127,8,-67,923,-673,3606
-93,53,-49,-778,-208,3068
-44,15,-11,-826,-865,3357
-24,-54,-21,-102,-999,2990
-23,-81,-10,771,-759,3300
-70,-78,-70,1502,-377,2345
-114,-28,-104,317,-288,1177
91,-22,89,-416,324,-253
74,-126,74,954,321,-367
70,96,71,1063,-14,-338
62,67,67,825,-63,-360
69,48,61,393,34,-489
90,42,74,-243,-51,-382
90,28,74,-57,-47,-203
93,41,68,-144,-3,-217
103,58,61,-389,72,-229
111,55,50,-120,129,-172
110,63,40,-126,104,-73
117,78,29,-137,127,3
125,83,25,-4,151,52
-127,91,17,-26,121,121
66,-11,104,-4522,1486,-3529
70,-25,65,-1404,3374,-4740
-77,-41,-59,-379,3125,-2924
68,90,57,194,1315,-1548
-92,22,120,46,1318,-2319
47,-103,-30,-1244,2698,-4086
-50,-64,-10,-4829,2201,-3823
-45,72,3,-246,951,-1558
24,-59,-89,-288,693,1546
-10,-103,-33,4016,170,7158
-125,-44,61,2668,209,7382
-118,127,106,-6203,1123,-5468
-60,-16,60,2269,77,-383
-6,-8,-31,339,-24,83
-13,-128,116,326,-389,198
23,-38,21,95,-141,-625
2,42,71,-143,133,104
-14,88,77,-76,-170,136
-6,96,73,828,-73,78
-17,114,87,-73,105,191
-3,125,95,53,97,201
-3,118,86,201,195,65
13,100,75,78,229,42
37,92,61,215,783,-282
64,103,48,111,1026,-1189
69,-1,-16,2256,-531,-685
86,0,-99,2044,-553,-126
-120,13,114,1069,-451,-398
91,-41,94,1399,-187,-194
82,-58,-120,1457,-1005,866
53,-10,114,1095,-769,1925
34,52,-88,715,-1318,2651
65,71,-97,177,-861,2628
69,66,11,226,-1311,3234
-46,119,-61,-46,271,3040
87,57,51,1168,-1512,3604
-84,71,-59,-559,305,3259
-127,0,-76,-118,-998,3147
-104,-82,-58,1290,-802,3393
-121,-83,-106,2199,-159,2454
121,-24,124,848,14,1181
70,-32,79,145,455,-437
39,102,82,1503,136,-522
39,45,91,1730,92,-345
31,15,91,1355,-86,-185
37,24,103,260,-70,-335
53,2,102,-115,-101,-360
54,4,113,-436,-193,-157
74,27,109,-597,49,-308
87,26,95,-289,132,-343
-44,-103,73,-3577,4642,-6076
6,15,-2,-2992,3014,-3303
-84,-52,-47,-3527,1722,808
-40,110,-25,-67,-1346,4454
-116,110,-88,441,-1442,6626
-103,-76,39,-5552,-31,3199
-24,96,2,5568,1330,-4603
-79,-33,-23,-1215,-377,836
7,-49,-104,635,84,-450
5,100,125,65,-240,-51
34,118,-115,393,109,-184
15,102,122,269,23,-78
16,90,-115,348,116,11
10,101,-124,315,59,74
32,118,116,111,493,-253
51,102,84,698,940,-777
70,81,47,1724,213,-1080
118,29,-69,2552,-317,-904
-96,58,-110,1404,164,-676
85,-42,-119,2190,-581,7
89,-33,96,1602,-201,1238
-39,-2,113,1430,-1930,2145
-12,66,96,409,-1058,2652
82,112,-36,-369,-1727,2733
-122,48,-33,1239,-210,3707
-110,110,14,899,-339,3107
-93,33,-73,705,182,3197
-97,24,-46,61,-1219,3272
-73,-46,-39,111,-739,3139
-94,-79,-45,829,-714,3077
-104,-49,-70,1134,-218,2244
112,-1,126,425,102,594
78,-59,91,369,527,-572
45,104,83,1112,256,-364
41,62,71,1074,192,-193
55,50,65,597,125,-256
55,54,72,45,-73,-295
77,31,82,84,57,-484
74,25,86,80,-18,-454
90,17,76,72,126,-443
82,18,58,-197,29,-313
83,19,54,-128,67,-18
97,37,42,-285,49,131
112,60,33,-364,23,244
112,87,32,-485,15,248
112,109,33,-294,110,208
123,-125,18,-326,22,186
123,-106,21,-350,120,99
-128,-97,20,-159,97,29
-116,-86,15,-25,104,-99
122,11,-6,-3904,1864,-4601
-48,-110,-49,-3596,3698,-6255
-99,-42,76,370,2407,-1789
79,-87,-99,93,1118,-2498
-107,-100,64,-2790,2870,-4458
-97,16,-112,-2372,2129,-3969
-109,-41,1,-4144,2774,-1191
-53,-103,-127,860,833,1229
-89,62,-13,-241,550,3715
52,46,-52,-188,-506,6715
125,-10,110,3861,-2690,3252
-77,-106,-76,-125,2467,-3898
-21,112,42,-1014,-198,427
-47,75,-125,426,-94,587
29,-12,103,173,365,-461
37,107,102,230,-13,63
42,113,114,374,154,-91
15,92,113,236,166,-89
-2,54,122,199,261,44
21,-126,95,296,689,-394
40,88,46,1374,311,-568
43,44,-10,2234,-435,-853
96,95,-57,1308,-207,-673
99,47,-109,1252,-474,-474
88,44,-104,930,-359,-195
14,46,111,612,-894,257
1,44,-102,201,-528,939
11,21,-72,784,-878,1367
23,33,-50,1053,-663,2427
96,33,-65,1068,-176,2731
-11,72,-32,-78,-1670,3114
-106,25,-18,676,-641,3152
-103,-14,-35,665,-776,3310
-42,44,-79,-530,-144,3086
-63,46,-62,-612,-817,2319
-78,51,-72,-620,-1054,1660
77,-65,-16,1067,-485,1737
78,-53,-101,1003,83,1576
61,-85,-127,1520,-393,1459
70,-122,104,2100,-167,956
72,118,87,1785,92,184
51,86,92,1383,267,-229
43,36,89,844,-16,-475
52,19,91,102,52,-735
69,-21,96,271,78,-668
77,-47,93,269,-26,-300
81,-32,94,-26,-22,64
76,-11,79,-429,23,181
98,23,68,-745,61,244
100,46,63,-501,7,269
-91,64,-43,-11533,-396,-3681
-53,57,125,-4538,3690,-4919
-19,-62,91,1823,1120,-1246
-8,-22,-102,-781,1359,-1660
69,4,105,-1457,2936,-2497
123,93,50,1590,1708,-2649
-31,-30,46,-9103,5468,-814
74,97,-37,1115,623,542
-101,53,-106,-2488,1901,3650
-126,126,106,1730,-1318,6459
83,66,-38,1671,-1796,5387
-90,120,-82,5255,1328,-6935
-121,-65,-70,-3445,-332,2299
92,-57,-105,2030,8,-550
77,113,-119,-585,236,-15
50,71,-119,700,-43,-45
58,91,95,-56,429,-231
66,28,65,231,354,-224
106,95,2,294,808,-1357
74,10,-49,2002,-403,-1272
-119,5,123,2812,-556,-563
103,1,100,1960,-1305,613
100,-27,49,1449,-842,877
115,70,-121,-243,-1726,1331
99,-21,-77,1943,-1554,2367
-66,62,-114,1624,-1267,2986
-111,102,-39,521,-3120,3413
-79,58,-1,236,-1259,2743
-23,-5,2,1150,93,2171
-86,-23,29,1084,-1547,3249
-93,-75,-43,2018,-75,2586
-64,-72,-87,1630,318,1819
-126,-57,101,631,495,1043
119,-128,69,1240,692,411
70,89,39,1620,426,465
42,65,31,1287,94,297
54,55,34,482,139,169
53,61,38,-130,-18,116
30,56,62,-96,-336,-95
60,52,73,169,90,-635
67,11,75,592,-172,-714
78,-12,89,349,-234,-619
75,-3,108,-41,-262,-400
74,-7,96,-9,33,-198
77,13,80,-389,-19,-145
83,32,52,-936,0,-91
83,58,33,-1107,32,-3
69,98,-21,-1379,77,42
70,-91,-25,-2371,-94,72
-107,-60,-4,-1856,402,221
-68,89,41,-3234,1839,-3004
102,47,56,-2147,1961,-5315
-66,38,-84,-637,2025,-2957
-39,-104,104,-1051,1590,-2172
42,75,-92,-526,4068,-1708
-82,-110,-103,247,4349,-4468
30,6,-54,-3963,1573,-2925
2,56,113,-3094,-204,-1326
34,-74,1,-1451,654,2686
7,115,-46,1298,-1970,4334
-10,-3,5,-1084,588,7729
86,74,-8,-2973,-513,-3861
-116,-118,-98,1776,894,-594
38,-48,67,-492,-7,160
37,95,-55,329,232,27
55,60,96,163,302,-101
38,37,-124,371,83,158
38,59,92,228,289,-50
34,32,41,60,265,-96
78,74,63,886,1241,-995
62,-15,32,2215,-547,-8
-95,41,-31,1956,65,-286
-86,-12,-40,2575,125,129
108,39,-72,1370,-209,297
33,18,-78,946,-687,851
36,-6,-84,1189,-1392,1656
-3,25,-68,705,-1654,2512
107,13,-22,1065,-1395,2749
84,8,-58,2330,-1739,3058
-83,77,-2,56,112,3441
121,79,-38,-1367,-700,3187
113,0,14,-591,-1588,2932
-80,-31,1,201,-725,3413
-62,91,-70,-1390,-566,1492
-115,104,-105,-2447,-664,-232
50,-100,102,1188,200,118
23,-92,95,1535,-4,229
35,-69,80,192,146,45
56,-102,71,356,339,181
69,-117,68,400,269,-172
79,120,59,404,290,-291
87,100,38,255,292,-409
104,79,31,355,311,-291
106,78,20,152,197,-118
97,92,10,-235,63,38
104,92,16,-15,119,118
118,106,17,-59,36,87
-122,123,26,-166,66,7
121,118,23,73,5,122
120,-120,22,-193,25,107
-51,-11,-92,-7699,1856,-5870
-23,-92,-46,417,2393,-3797
-112,34,119,-214,2359,-2266
-75,101,-21,-1630,1990,-2328
81,11,114,-4141,2492,-3755
57,-53,-37,-7053,3488,-2391
-110,-34,101,-377,1408,-536
-16,52,-104,586,499,1836
51,-121,7,911,-1268,3916
71,15,-121,3390,1165,5531
-59,-108,63,894,-922,4148
-100,28,40,1044,700,-4089
25,15,-20,-1224,-578,1244
83,92,-107,1025,-40,42
74,-121,-118,173,246,-287
64,76,-123,-255,212,-7
62,-8,-109,383,284,169
71,49,99,173,288,-45
84,49,74,812,463,-193
71,-60,20,2367,-435,-80
120,69,-101,697,-610,-414
-75,37,-100,1262,-83,-1352
81,-58,-84,2505,-411,-377
81,-51,-103,2187,-100,770
60,-38,-82,1303,-352,1853
-37,19,117,453,-1243,2675
-127,38,-26,704,-809,2960
-96,37,-102,965,-238,2680
-38,-3,-60,982,-363,3372
-58,14,-88,-583,-866,3108
-71,-128,-40,1978,-1474,3649
-2,-89,-51,1103,-889,3407
-67,-61,-36,-341,-465,2370
-112,-41,-107,-1012,253,1307
56,-50,-99,-392,-207,598
33,-85,-120,603,116,247
24,-75,105,3,330,-251
26,-113,75,-56,430,-516
43,94,66,747,441,-588
62,67,38,837,403,-702
95,28,24,575,209,-708
71,15,26,161,-87,-501
83,-4,36,201,159,-302
96,5,35,62,101,-135
105,23,39,-160,27,33
98,46,38,-391,-13,72
113,68,46,-340,195,210
112,75,38,65,201,292
-125,98,33,78,243,335
-123,109,14,147,282,203
22,31,-91,-4772,763,-3270
-89,-18,79,-1811,2623,-4601
-10,34,-128,-1976,1786,-2904
-105,92,-86,337,2319,-2330
-12,70,-77,-1808,2586,-3596
38,111,-1,-3545,4690,-4393
122,-41,87,-3415,2072,-1457
-46,-126,-82,-1292,892,1601
104,62,34,2517,-1773,4961
-128,-69,-49,-2898,2305,4244
84,29,-122,3573,-1846,5566
-88,121,111,526,1412,-4743
-86,-31,81,-922,369,294
2,3,68,648,30,300
73,116,124,447,27,-124
96,100,115,39,490,-300
63,34,99,847,188,-332
121,51,64,1743,1404,-1287
-94,65,-22,2060,-575,-1445
14,-27,-117,3832,-543,-715
-96,-27,-101,1839,-227,-160
-8,-34,79,1267,-643,887
-62,-58,123,493,-1063,2322
15,-17,48,701,-854,2978
89,-100,-96,2863,-1401,4241
-7,61,-80,262,-616,4916
34,-1,106,2191,126,4301
2,6,18,1432,-985,5038
102,-45,-74,1017,1663,2988
25,42,-37,-1621,73,2796
-65,59,109,-2088,-59,409
107,-55,75,80,-227,-201
32,-38,92,-1002,-618,-801
29,-70,74,-1121,57,-653
48,-69,46,-1180,823,-485
69,-104,29,-141,703,-464
84,-117,40,717,117,-399
95,-123,23,566,193,-583
110,116,20,228,275,-791
108,87,4,261,186,-648
104,84,16,1,-26,-409
109,89,13,-231,13,-189
127,105,26,-383,127,-180
114,105,19,-60,119,127
106,120,19,-62,46,443
113,-108,10,-250,180,634
-116,-76,12,-313,209,706
-100,-54,9,-174,144,516
-93,-39,11,-47,97,280
-97,-40,5,168,168,112
-90,-106,113,-3858,2920,-3658
-52,-29,-89,-1637,2074,-3825
5,74,116,77,1709,-1786
101,115,-39,-1406,-3022,-725
-21,80,-64,-1580,3519,-3608
29,120,-99,-515,4072,-3218
10,-1,-68,-5347,3550,-1635
-3,-95,88,-1204,2313,-737
60,-63,-42,-831,1011,2779
-84,46,48,2912,-1967,8780
61,-5,95,-3753,-1537,2642
-79,-74,21,5688,2748,-5437
92,-71,85,-2527,-635,1229
79,29,-21,1237,199,187
84,96,-79,71,223,-111
85,81,-117,-220,21,-75
47,10,-92,632,-150,292
72,72,127,395,135,-156
125,76,113,1263,1308,-1288
-125,35,60,3091,-584,-1008
-41,65,-96,2168,-932,-1043
-76,39,-73,599,-166,-761
111,-56,-102,1338,-232,305
84,-29,-128,1831,-861,1024
16,-29,124,2279,-1769,1936
10,0,97,1885,-101,3184
114,89,-51,542,-790,3366
94,76,-54,-306,-612,3534
-28,-116,-5,-732,-592,3347
-78,0,16,2069,-1038,3623
-51,30,-31,1023,-368,3552
-47,-117,-48,-1783,-501,1805
-117,25,-79,-751,-779,419
44,-119,116,1373,-43,558
27,120,84,1511,322,520
30,104,90,847,103,411
66,81,72,480,403,307
84,71,94,310,222,51
109,60,90,342,296,-234
104,38,80,265,263,-729
94,0,68,454,311,-695
96,-23,66,649,299,-323
100,-13,44,229,111,74
103,5,40,-296,-10,245
106,23,46,-363,-26,323
110,45,44,-162,126,456
118,74,44,-204,93,370
-120,89,35,-103,189,200
-128,111,19,-221,24,-8
-120,100,21,-29,128,85
-100,-122,110,-4141,1609,-3624
-100,-88,-48,-5815,1003,-5234
-63,-104,-79,-1013,1459,-2827
-93,-50,-126,592,1851,-1776
-63,30,13,1040,1211,-2242
11,-118,-18,-4355,5556,-4905
79,13,-30,-4707,4395,-2717
-40,9,-78,-1705,2210,1370
18,38,105,392,956,3886
-61,10,-42,-152,1078,4665
-115,-65,22,1627,-3786,3918
-53,120,-121,-648,517,-1478
38,-114,-25,-496,712,-868
32,-47,96,637,-216,542
11,-106,-110,-348,-236,178
34,-127,120,534,353,-395
33,50,-121,-25,147,10
34,26,88,734,-51,93
87,-33,57,2536,1259,-73
-121,-5,-24,2258,936,-488
113,25,-54,1585,-716,-297
114,15,-105,1335,-1011,6
-116,-22,-125,2299,-758,1008
80,-11,120,1474,-1197,1704
48,-13,-86,1211,-1684,2630
5,46,-98,1435,-671,2676
-94,-122,8,1279,-128,3368
-123,125,-47,-230,-797,3243
-91,-124,-24,-763,-681,2968
-96,-45,-65,1054,-821,3414
-69,16,-115,-794,-828,2636
-122,-5,-106,-1954,-1234,1508
58,92,109,1014,60,1811
52,-55,118,-678,-214,1628
58,48,127,-2529,-348,769
63,-5,118,-784,120,136
49,-23,112,278,136,-94
28,-47,86,1065,467,-226
50,-83,48,1542,743,-500
92,-124,11,1331,910,-781
116,93,1,868,439,-731
113,68,4,477,64,-647
113,37,16,660,155,-362
104,31,9,381,99,-65
107,52,5,-319,-30,82
112,64,17,-417,-89,202
113,88,25,-385,-4,377
118,102,29,6,166,514
126,123,19,-9,74,515
-110,-86,12,-577,82,237
67,-85,13,-3368,2069,-5319
-80,124,97,-1276,1738,-2577
-116,-120,-96,-273,1423,-1874
-110,118,2,-1711,1277,-2648
-123,-4,-79,-848,2166,-3892
-81,-127,-4,-5815,3478,-1511
-53,51,-33,-4168,2452,-691
31,15,-33,-2318,800,1603
-7,93,-102,-888,-820,3039
-87,-67,12,2502,-1041,4647
22,71,-66,2712,57,5439
99,-54,-67,-505,1267,-4373
23,25,-90,1317,-275,24
1,9,40,-721,-7,409
70,97,124,370,50,-117
75,79,65,104,114,-136
49,-3,126,527,-38,253
84,116,101,116,438,-468
85,38,88,446,-2,-128
96,115,68,-175,572,-1091
86,20,44,1381,478,-1063
86,30,-14,1272,-714,-307
102,23,-72,2326,255,60
105,45,98,1123,292,686
90,-30,-103,1919,-554,1239
28,-5,-62,1408,-974,1711
84,36,-96,843,-359,2356
116,30,-17,1086,-1646,2757
-93,33,-55,121,-535,2809
-93,73,89,-322,-2214,2915
-86,30,-12,11,-312,3076
-122,64,65,-877,-1389,2161
-109,-54,-73,238,-169,1971
120,-83,-59,343,-1338,1985
124,-57,-92,176,-799,1944
97,-26,-128,179,-277,1186
86,29,93,-1799,207,-638
82,-76,59,-371,547,-706
54,109,59,1286,-35,-35
52,-117,64,692,-270,-238
73,105,50,807,353,-120
77,115,46,-75,81,-259
89,113,45,-508,129,-300
92,86,43,199,234,-154
101,98,27,46,231,-99
109,105,26,-20,190,-4
116,98,15,239,227,76
118,117,5,-134,176,70
120,119,3,-123,124,191
127,-128,6,61,147,302
111,2,-126,-5020,3412,-5430
86,-92,15,-476,1337,-2486
-98,66,17,1975,-1912,-1212
10,-2,114,-1426,2151,-5155
-45,26,123,-2370,5703,-5600
109,-22,-41,-8663,4953,-1151
20,4,-36,-888,-296,380
-108,-123,105,1469,-1203,2507
-98,-2,46,-1479,2056,4819
-66,18,-61,6147,-291,7855
125,-43,-7,-4471,-2402,-2544
52,-33,-23,1857,1195,-2188
-2,-88,95,-1182,-202,750
109,-116,-96,414,514,-346
90,107,84,111,-4,-407
74,66,105,273,106,-23
47,83,108,-67,7,44
61,90,119,144,130,47
56,74,109,183,186,132
57,80,101,276,111,84
56,78,108,154,310,87
56,87,105,249,368,-81
79,107,95,410,1215,-754
71,92,56,603,555,-940
99,31,-16,1803,157,-446
107,12,-42,1810,-288,-218
90,-25,-98,1454,-342,-261
51,-61,-85,2159,-1394,723
49,-66,-123,1781,-895,1427
23,-30,110,1392,-1093,2377
121,0,125,647,-662,2778
-119,-10,-111,1036,-639,3390
-81,48,-105,-205,-270,3349
-54,46,-42,-321,-564,3236
-69,8,-47,72,-840,3592
-64,12,-48,-485,-485,2980
-60,-36,-109,317,99,2608
-82,6,-113,-285,-364,1393
127,-15,101,-568,90,146
63,-103,98,710,-60,271
39,-114,79,306,-37,89
48,-109,72,-256,83,28
62,-127,69,-11,238,-56
76,115,55,262,224,-195
87,106,49,276,189,-412
93,92,38,181,204,-475
98,72,27,194,201,-443
99,68,22,128,106,-295
102,71,17,-108,86,-189
108,78,17,-208,103,-18
55,-64,-93,-3709,2314,-3464
101,-32,121,-1934,2394,-4076
-127,-47,110,-635,2692,-2145
99,103,-10,-725,1314,-1130
21,34,-87,868,962,-1407
-32,-108,55,1311,1772,-2835
53,-61,92,-6517,4930,-4780
7,13,-2,-322,2224,-1211
75,81,-74,329,2576,2933
-27,-126,122,76,-323,5962
27,-48,56,1994,-3288,5947
-117,-54,9,-2482,882,-2299
72,-99,12,148,1692,-1656
-33,-125,37,149,-174,749
46,-118,114,236,-43,246
67,-88,109,379,178,-213
51,110,-103,29,223,-167
18,63,-110,290,35,112
37,115,-122,205,315,-218
11,61,118,282,33,23
14,63,93,144,273,-145
38,55,70,435,423,-284
49,51,55,888,221,-530
75,4,33,1960,112,-826
103,68,-53,829,-646,-536
104,-46,-84,1888,-620,-57
72,-51,116,1819,-635,341
23,9,-123,984,-1349,766
-18,-12,-39,1860,-1404,2106
30,69,-53,1802,-1008,2448
90,44,-70,1565,-398,2760
104,111,-66,-755,-547,2587
-113,47,-19,-476,-705,2792
85,-12,-38,837,-724,3300
-75,86,-79,-1644,-376,2325
-72,45,107,-2057,-713,1522
104,-50,-48,-590,-2154,1567
104,-81,-109,1344,99,2248
47,-34,-56,828,-1209,1619
62,-26,-85,574,-303,939
68,-17,-88,386,130,135
62,-80,122,808,604,-217
57,-107,79,783,693,-411
82,116,39,784,681,-601
98,73,18,752,481,-691
105,48,7,645,283,-584
111,41,12,315,150,-428
111,36,8,-19,-94,-285
113,38,19,-160,-110,-119
109,51,32,-274,-197,9
-114,-83,24,-1812,4730,-5049
73,71,58,-3307,4664,-5177
-4,-96,65,-1476,1898,-1859
49,-30,-29,-1616,2245,2694
101,31,-62,1451,-2380,5987
67,-76,10,1173,-1577,7670
-44,-121,9,4278,2983,-5387
-98,-93,-121,-937,-78,-556
-48,94,-121,-108,-645,102
25,-107,-112,630,109,-110
20,-77,87,-139,-92,-251
-6,120,125,289,20,104
-6,-98,85,-3,186,-97
1,-112,85,149,114,-40
-11,-119,79,124,249,-88
1,-99,69,146,241,-221
30,120,20,695,220,-396
44,36,-24,1860,411,-245
113,36,-61,2028,203,-362
-113,9,-91,1888,-709,-284
-106,-98,126,2169,-1295,393
64,-28,68,830,-1230,2258
71,24,100,-240,-1580,2490
47,72,-88,720,-1494,3884
85,-91,-30,-310,-1576,3291
-96,-111,-2,245,-506,3513
-102,-118,30,-395,-881,3148
-51,52,-8,779,-226,2917
-75,112,-11,-412,-93,2128
98,-19,-74,1140,-569,2685
85,-51,-90,1433,-703,2526
88,-13,121,-116,-508,1424
115,-22,56,-492,487,301
99,-71,59,581,358,-127
71,-121,70,1031,-104,-376
65,105,49,761,179,-444
71,88,43,431,310,-439
85,57,38,430,185,-398
93,47,41,207,14,-412
86,46,42,-108,-78,-436
80,51,46,-336,19,-409
107,42,43,-99,247,-44
117,56,39,116,193,235
-125,69,29,110,139,310
-126,111,28,-404,-34,236
105,-127,30,-528,-41,38
96,-113,36,-665,113,-77
120,-114,40,-281,422,151
-107,-112,23,261,428,362
-106,-85,-4,243,223,198
