AccX,AccY,AccZ,GyroX,GyroY,GyroZ
27,3,-64,2862,-895,-6663
-68,-92,-54,1144,-2316,-9093
109,103,-66,-198,-2199,-8069
58,-99,42,-1445,-945,-6028
21,-58,-5,-3274,545,-3966
-58,49,-95,-6360,2201,-557
123,113,57,-1351,1424,1279
-92,113,5,-1482,-1285,1294
-49,-109,-34,-186,407,-810
-22,-100,54,408,-361,-1060
-14,-70,120,76,-1142,-1431
-37,76,9,1583,-1817,-1198
-54,-110,-110,1258,-1928,-691
-62,-11,35,-546,-320,-217
-36,42,106,-1776,-1627,2286
-78,1,98,-4941,-411,3227
-114,-37,70,-3484,391,5696
-57,113,-51,2391,-639,1616
-12,74,-1,-458,-195,-2888
-4,-57,-8,4080,-536,-218
-10,-90,-20,1302,-200,-1854
-67,37,7,2861,-686,-1634
-97,111,-56,-856,-1281,-2856
126,50,39,701,-459,-740
14,-45,126,1019,-1735,747
-53,-128,120,2084,-932,1097
-15,-88,47,2236,610,2783
94,0,59,1893,2423,5357
46,122,-116,1827,1654,5282
55,109,-109,-1416,2272,5434
-106,-103,-31,1403,-1319,5458
91,-6,49,1386,-487,4184
-44,62,-48,2370,1847,3505
-127,-35,-50,3554,718,2717
-123,-103,-29,1755,903,2750
13,-74,-30,69,-39,987
-21,107,-36,-219,-171,-383
-56,-6,-2,407,-431,-346
-35,-23,-10,519,72,-381
-35,-58,-6,631,-229,-268
-11,-48,-17,-349,-90,-433
1,-58,-27,-493,-385,-562
19,-58,-52,-390,-51,-420
18,-52,-68,-238,-186,-368
27,-27,-84,-500,-28,-261
48,-4,-104,-620,-52,-359
43,3,-123,-152,-198,-95
52,32,-128,-319,21,-165
57,48,113,-340,-102,-151
77,60,104,-224,-17,-47
121,87,-40,1907,-618,-6486
107,89,63,2306,-1960,-8978
-50,27,122,-422,-2139,-7406
28,60,85,-1088,-701,-5813
38,4,-111,-2931,914,-3889
-103,4,-34,-4224,1227,-1858
85,95,-74,-923,444,-957
-112,-110,106,478,-1646,366
-84,-113,76,384,-181,-714
-65,94,117,762,-783,-1009
-64,-37,-70,794,-1454,-894
-63,-2,87,-2625,-1112,-586
-62,103,-2,-3646,-1587,421
-66,97,-69,-2611,-2375,3744
-66,87,117,-4849,-1319,5841
-114,23,-112,387,1603,5295
54,88,26,341,-280,-2838
79,-40,36,2428,135,-1865
-105,-92,-56,2620,-617,-2432
-85,-95,-14,1094,-603,-1895
-5,-87,-117,772,-2768,-1233
105,64,-29,227,-2276,-126
-52,-6,85,1814,-1033,351
-65,-102,-27,3972,-1212,2564
18,-10,-117,5167,885,5421
26,-100,-62,3762,325,6598
-42,35,-45,2087,3990,4810
-29,63,-39,2386,2016,4247
-44,-91,-58,1674,1872,3486
17,121,-63,1650,1107,1800
-86,-38,-91,1572,1735,2140
107,77,-64,3292,503,1182
104,26,-27,1585,715,1048
41,18,5,622,25,128
10,-18,6,723,45,-434
-18,-34,45,858,-478,-502
50,-66,69,394,-604,-593
49,-68,77,-294,-386,-577
36,-80,82,-58,-445,-258
67,-113,51,462,130,-191
15,-85,41,222,-300,499
17,-27,10,-663,331,435
47,-5,-38,-672,370,344
82,28,-90,-615,217,-182
67,6,-94,-43,-345,-89
55,24,-103,-276,-191,-187
68,15,-99,37,-43,-25
88,25,-113,-69,-105,37
87,53,-119,-410,-176,44
94,54,-125,-290,-53,-84
-67,-57,21,1067,-1119,-6970
55,-89,105,1532,-2014,-8880
-116,-127,-110,-1241,-1214,-7967
80,-83,126,-2133,-1657,-5940
5,-44,-88,-2877,-129,-3614
-39,107,31,-4902,1485,-1632
24,-11,86,-3312,1567,-218
-91,116,4,682,-1253,939
-61,81,30,1955,-143,-212
-37,44,108,504,-928,-390
-39,91,3,947,-1508,-1293
-56,111,-109,-1913,-1228,-1085
-50,123,-29,-1112,-1482,2212
6,-58,107,-3362,-485,2944
-52,64,52,-3832,-678,4895
72,-84,125,2609,-22,5875
-28,65,-106,1955,-557,-3532
-94,-32,15,1377,46,-4121
68,18,-33,2999,-2352,-969
-67,13,-67,-537,-1133,-1862
3,-116,114,2720,-1284,-1146
-54,-76,-74,3343,-3229,761
23,68,-25,3473,-2540,1774
-127,36,-91,1348,4126,4245
114,-5,-98,2639,2044,5119
123,126,-11,1867,4522,4479
-78,125,-28,1107,1738,4810
-91,62,-73,2364,1532,3487
32,-22,10,-2090,117,3962
78,-77,-12,2327,404,3415
-47,-53,-28,1993,916,2797
-91,122,-27,2279,559,2609
83,-83,-21,-107,529,721
-13,121,-42,-563,-306,-494
-19,40,-29,-269,-393,-763
-6,0,-10,613,-358,-453
4,-2,-20,554,-37,-303
6,13,-26,-94,-179,-414
19,11,-28,-395,-701,-543
40,20,-60,-419,-119,-162
48,26,-81,-628,-36,-476
57,27,-104,-374,-123,-192
57,48,-106,-634,-307,-222
67,69,-123,-543,-103,-33
67,87,123,-723,-84,-40
72,112,105,-702,50,111
84,-117,98,-526,-92,-33
92,-102,83,-360,57,-12
89,-89,82,-304,-68,10
101,-68,65,-437,69,-67
91,85,-67,-2171,904,-7050
-113,-117,54,-399,359,-5540
87,-28,-51,-2367,-83,-3580
23,37,-45,-1347,404,-1841
-107,94,-20,-1785,-181,-910
-38,-36,-83,-16,-207,-24
-1,-45,-87,1437,147,-564
12,-40,36,1233,-1122,-931
5,14,-56,1204,-1318,-519
2,-3,85,-605,-956,396
13,-113,-97,-2301,-1381,2244
69,-78,-114,-4073,-1179,3429
62,90,70,-1895,-866,5481
121,-99,87,1081,793,5089
78,22,-84,1633,-424,-3344
9,-50,19,2154,-1033,-2815
66,24,1,3195,-1019,-2141
-118,-57,-75,-2065,-342,-2615
-39,13,112,3708,-1421,-25
-9,-18,-20,-559,-545,-162
103,-58,-38,2660,-811,1727
-4,-74,-65,1409,-203,2933
10,-35,99,2526,2856,4194
90,-99,-101,272,2931,5228
-54,30,-29,2567,2608,5354
-24,-99,-34,98,2446,4098
8,79,-13,943,1285,4051
91,54,8,731,802,3398
-70,-115,20,2747,1839,3294
-12,67,46,2585,1763,4179
-71,-99,36,1058,948,2462
30,-81,-11,-1455,-414,-723
-36,99,-17,-1545,-1124,-1712
30,-6,4,-787,-816,-1522
16,-28,27,393,-610,-654
-14,-8,23,49,-627,-387
1,29,2,-858,-319,-633
48,27,-21,-1078,-193,-915
69,11,-48,-285,-213,-586
85,19,-80,-134,-32,-571
81,38,-104,-505,17,-259
90,50,-123,-580,-101,-113
85,81,120,-473,-235,-18
99,99,115,-350,-72,-170
102,111,115,-260,-108,17
86,-126,110,-203,-276,141
96,-112,111,-231,-130,234
99,-97,102,-257,11,283
100,-83,94,-73,32,363
112,-70,88,61,-1,299
80,-72,104,3209,867,-7742
55,-8,58,-711,972,-6871
61,-41,11,-824,-115,-5052
-106,-71,97,-1785,-292,-2798
-126,-36,125,-2117,-263,-1604
-50,45,58,255,-633,-1970
-46,-92,-16,-1656,-151,-95
-4,-40,109,1392,-39,-796
2,116,-37,1071,-1118,-1171
-2,37,123,452,-1235,-317
4,98,-126,-2026,-37,406
31,84,25,-2211,-348,2806
7,70,-25,-2850,-1505,4814
-81,-113,83,-1590,-974,5937
-60,-101,68,1948,508,3763
-64,-119,-63,786,-610,-3145
-76,48,52,3662,-90,-3554
-78,-46,33,1504,-1434,-2395
38,-107,-114,-786,-1626,-2355
-26,-20,-5,1148,-1446,-232
-99,-37,-83,2329,-932,2091
-29,-59,-92,454,-1359,1772
-72,-93,125,3031,1931,3791
-36,100,-43,1150,2588,4856
-83,55,101,3555,3720,4797
-84,-20,-81,-1739,1627,3931
-22,5,-66,2257,1308,5509
16,73,5,173,985,2897
-81,-118,-7,-140,376,3389
-102,80,5,2460,783,3415
-73,-48,61,670,-90,3377
124,-33,32,-528,35,1499
-13,-96,-17,-944,-275,-557
-25,100,-11,-178,-215,-639
-25,48,-13,169,-100,-723
-23,53,-19,-183,-185,-539
4,67,-48,-714,34,-764
60,53,-83,-272,17,-851
89,47,-105,-101,34,-984
97,48,-114,-282,-229,-1023
110,57,126,-683,-297,-838
112,52,122,-471,-259,-681
109,68,114,-307,-279,-307
98,89,111,-471,-285,-120
95,107,109,-506,-303,46
93,-122,107,-432,-219,356
88,-102,107,-323,-100,398
104,-78,111,-168,-133,479
111,-61,103,-164,83,476
120,-53,90,-67,169,564
117,-46,-86,2042,243,-6222
111,26,-83,411,323,-7462
-16,33,-73,322,133,-6282
102,-10,69,-939,-1085,-4801
27,80,-80,-1526,-276,-2631
-101,78,80,-1814,237,-1526
115,-127,26,990,195,-1720
-50,29,-126,-1478,30,172
-20,-38,-77,2125,-389,-186
-6,52,67,-750,-1441,-1300
-29,-37,56,-703,-1691,-1640
-45,-85,70,-2847,-611,-1168
-24,-88,-85,-2674,-75,2078
-37,97,23,-974,668,4240
-50,118,75,-540,8,6196
-26,3,54,1656,-238,4534
104,-53,65,2424,-775,-3133
95,31,23,852,-331,-3009
101,91,-96,1853,-1469,-2058
126,4,85,-946,-1348,-1926
-112,51,16,1609,-1875,-340
-97,-21,109,1680,-2061,1952
103,-33,114,1740,-1080,3019
110,49,-42,2176,-257,3469
-111,17,-1,1492,3379,4300
34,15,48,563,1326,4776
-37,9,31,1923,2358,3499
17,-76,-10,863,2268,3713
17,67,11,2932,569,3617
99,44,-28,1487,1237,2817
97,100,15,2508,602,2866
-98,-102,30,670,890,2040
91,67,57,85,0,1777
51,86,20,-888,55,717
15,77,-11,-1093,-363,-114
2,28,-33,-221,-401,-686
8,27,-20,-46,-530,-558
21,36,-32,-445,-364,-787
44,38,-42,-651,-531,-878
73,27,-68,-331,-224,-776
77,27,-72,-216,-472,-816
89,33,-93,-270,-332,-693
92,35,-99,-303,-187,-549
93,34,-120,-243,-191,-194
92,58,119,-371,-137,34
97,83,109,-706,-105,229
94,107,94,-591,-75,397
111,-114,84,-486,-1,437
104,-88,72,-614,-55,421
105,-67,66,-542,-59,376
-70,-15,93,1773,1435,-6678
-1,-21,-63,3775,1213,-7817
-62,-5,-116,-647,-76,-8889
11,-85,-49,-463,-771,-7238
99,-42,16,-1493,234,-4716
14,80,88,-1998,1200,-3320
12,25,-9,-1346,568,-1519
-52,105,-78,-2936,280,-1267
111,-118,75,977,504,-1332
-106,-26,94,-328,-1495,153
-81,32,-111,1226,-542,146
-70,25,-113,1936,-1132,-798
-71,-40,86,573,-697,-497
-58,-7,114,-256,104,975
-14,74,122,-2515,398,2532
-87,112,5,-3823,156,3345
86,125,13,-2950,-1310,5549
74,32,95,2162,304,3973
-4,-32,25,1228,-615,-4300
76,-92,40,4772,-747,-2657
-128,22,1,-769,-1895,-2867
-7,112,-11,1658,-2082,-167
45,-126,84,989,-989,1209
-89,121,59,1183,-1853,2347
87,40,-70,2348,2623,4229
-52,-65,19,1412,1646,4781
-75,-126,-54,2169,2484,4505
-1,-22,16,1330,1435,4763
-62,-57,50,3107,164,5720
73,-111,45,-817,73,2328
-107,-11,46,-322,530,4819
-59,-71,4,1289,834,3219
-3,-106,30,46,89,4288
113,43,-28,-1900,-12,1569
-33,-16,120,-1407,309,-1221
-45,115,118,-125,337,-1364
-47,76,-98,1159,-592,-304
-54,114,-102,340,-117,-78
-41,118,-116,-413,28,-636
12,122,-123,-747,194,-655
69,126,125,-816,331,-925
105,84,117,-90,263,-1403
76,52,122,713,-449,-1007
92,48,122,344,-193,-660
56,64,113,-373,-279,-333
49,77,112,-576,-175,118
65,99,104,-300,125,324
91,123,97,93,204,412
109,-117,88,124,239,516
122,-108,87,249,109,283
88,-92,-128,2794,-282,-6405
118,57,-86,2156,-952,-6837
-4,28,-128,1930,-1987,-6734
-16,117,64,-1621,-887,-6513
-70,82,-57,-2332,-467,-4997
-96,105,120,-1053,-693,-2950
-27,-86,79,-3889,220,-1498
-119,-35,38,477,712,-627
-63,-79,-96,-2142,44,499
-21,77,-42,106,-167,-288
-5,107,9,233,-219,-722
-3,-44,-42,-329,-1770,-828
-28,123,11,-1622,-1736,-706
-33,-16,-18,-2322,-331,1521
33,35,-108,-1953,-172,4035
94,-116,75,-1913,1462,3838
119,80,123,-271,1097,5783
-96,108,-76,3851,218,1932
-71,-32,93,984,-806,-2608
-44,117,71,915,-1242,-4445
45,-55,42,381,-2646,-3967
10,54,-20,2688,-1959,-2022
124,-22,-124,-376,-1532,-707
89,-32,68,2029,-1355,1602
-114,22,-92,5040,40,5706
-67,33,-94,4763,7032,5766
102,40,120,-1781,4320,4003
12,-13,-127,-890,3680,4940
-90,19,-49,3357,947,4442
66,96,-102,-2343,857,1775
44,-70,-48,1629,408,4395
95,-115,-6,-1983,-1052,1483
-114,-4,-17,1814,660,3207
-80,-106,1,377,426,2566
-118,111,-9,-54,-170,1394
33,-109,-40,-1458,-187,-222
20,40,-62,-214,-373,-1221
63,16,-41,245,-205,-612
40,3,-26,579,-418,-471
42,13,-27,8,-181,-673
26,8,-39,-177,-206,-518
44,-2,-80,-319,184,-344
50,-2,-94,-84,109,-236
69,16,-117,-351,250,-38
71,48,107,-713,252,36
77,63,92,-533,214,136
113,96,81,-573,202,177
-89,122,90,-373,336,306
-95,-124,84,45,35,247
72,-91,102,237,-215,-308
88,-47,109,1233,1075,-6127
-37,-65,-114,2296,280,-7033
83,96,72,-533,917,-7507
36,78,28,-919,49,-5581
-63,-128,-99,-1425,-362,-3413
70,-30,115,-1176,-805,-2416
-78,-18,103,476,-954,-686
-25,-44,-32,-2634,-254,-1421
-23,2,-106,735,-1384,-1273
-38,107,-30,-542,-607,-566
-25,-126,-66,-2167,-1225,1453
34,96,63,-2003,-26,3865
-63,2,12,-917,-276,6847
36,-3,101,1442,1213,6886
127,77,-103,-1328,-1190,-4407
95,31,66,2297,-293,-3659
0,-64,29,1713,-760,-4064
45,-11,-15,-3238,-1141,-3608
91,78,-15,2491,-1310,-567
-116,18,123,1590,-1055,1020
-87,37,-107,-199,-1242,956
-105,41,-61,3028,698,3182
101,-117,26,2002,3034,3781
115,-14,-33,1794,4304,3368
-113,-125,-58,831,1010,3886
-21,-119,-50,506,1741,3852
9,25,6,1003,980,4324
51,5,17,662,304,3981
-119,46,23,1328,643,3146
-99,-111,47,1154,1074,3819
-34,-102,58,127,1109,3012
-62,-126,39,-708,852,2361
63,-101,-23,-776,47,784
17,-127,-65,-1060,-214,-722
8,83,-63,-368,-47,-836
-3,43,-65,164,-202,-398
27,68,-77,-492,-108,-634
45,82,-111,-1100,-320,-824
77,82,-117,-949,-446,-1069
98,69,-127,-511,-283,-1111
99,65,-126,-295,-281,-825
88,87,109,-626,-168,-555
89,91,106,-480,-328,-383
98,115,97,-482,-158,-189
99,-102,97,-688,-245,-134
97,-92,92,-338,-160,69
91,-63,98,-540,-116,105
95,-49,92,-280,-62,322
100,-29,91,-221,-2,382
113,-13,82,-181,78,374
-18,-16,-36,776,435,-7018
119,37,-54,1046,399,-7781
50,-29,-117,-1038,-248,-6190
22,-7,12,-1642,659,-4722
75,-2,84,-1215,1298,-2727
14,-31,8,-1261,62,-1956
-56,-109,-73,990,-1486,-394
-49,47,-61,-1429,-604,-1334
-39,96,-27,221,-1033,-974
-41,112,45,-438,-1177,-808
-39,-99,-53,-2936,-483,1029
24,58,49,-2762,333,2263
-113,47,58,-2754,-468,5663
-51,106,-120,1934,910,5972
-13,-117,-85,1998,-1006,-4193
-67,-111,58,776,539,-3699
-118,127,12,3164,-892,-2520
-69,113,48,-2102,-1271,-2426
-100,-106,-17,2497,-1463,1145
-69,-122,63,2818,-1518,3512
-77,24,-53,219,-1074,3859
-96,1,-39,3840,1607,4245
-36,11,-110,-620,3187,3608
-54,85,-87,4339,2592,5119
1,82,-59,2129,2460,4299
-36,50,8,422,-534,5143
-71,-55,-9,-217,19,3051
-7,54,73,2844,1756,4584
76,-54,84,648,1322,4495
99,27,-26,-1733,-646,479
-100,-79,-112,-1909,-800,-2126
1,31,-42,563,-402,-1453
49,-5,-13,850,-362,-142
-18,86,0,-499,-394,536
8,125,-38,-1556,-116,-403
51,-121,-87,-1658,322,-1259
99,79,-127,18,431,-1244
95,61,127,661,-101,-1027
86,73,124,126,-136,-949
82,57,105,-260,0,-623
86,63,97,-320,-52,-48
94,84,98,-220,-195,133
98,118,100,-118,-182,119
121,-128,108,-13,-198,39
-119,125,113,267,-249,283
111,-105,119,-95,-172,236
76,-116,108,190,-108,235
107,-119,94,315,195,379
-124,-119,82,430,-12,480
125,-100,65,-47,32,532
-126,-84,100,2908,-2253,-7834
-76,-6,37,1662,-2304,-7187
-20,93,-53,-2445,-2389,-6521
102,104,107,-2595,-565,-5180
-44,-63,1,-2543,-411,-3047
-65,87,-125,-14,-1423,-2216
115,0,49,-1270,-1873,-605
113,61,-118,-1918,-1401,-1487
113,97,67,-2323,-1330,298
126,-95,108,-2119,24,1492
99,-103,70,-2839,573,4244
-23,-81,121,570,-421,7281
125,124,59,3580,409,3204
8,-84,-89,650,-764,-5524
67,18,26,2897,-995,-4059
104,19,-8,-4879,-2056,-5530
-19,113,126,4537,-1808,202
-75,-16,71,-372,-2269,1719
-19,78,-100,5357,-1261,5988
41,-35,40,2259,2865,6416
10,-108,105,1271,3988,3783
-41,-85,-99,913,3060,3578
-95,-56,-76,874,2873,2819
-41,-103,-30,1874,1034,3693
39,120,-55,-27,-70,3850
57,-1,-31,2357,-641,1789
-100,70,-5,-1555,-444,2550
104,118,-23,1459,-384,1757
-103,22,-13,-49,461,2696
-108,-106,33,-1589,-162,1932
-86,-124,-81,-1677,464,-630
28,89,-92,-217,-587,-1338
74,29,-65,484,-211,-1206
66,24,-58,201,-229,-420
35,21,-74,40,-208,109
49,62,-101,-663,149,206
74,88,-116,-782,-89,-21
105,112,119,-570,91,-174
98,106,118,15,88,-96
122,118,105,47,119,-29
107,-119,101,-200,-24,-20
102,-113,107,-291,-43,-90
104,-99,100,-370,18,47
114,-81,100,-367,-28,-49
-125,-73,96,-150,-94,-95
125,-46,92,-368,-121,-153
-110,-33,86,-695,-203,-280
-88,-17,90,-643,-191,-307
-113,0,88,-516,-337,-610
-108,-3,90,-451,-273,-778
19,59,-42,2490,-383,-6119
0,107,83,4236,715,-6595
-87,16,-39,-1131,-583,-6859
-76,-108,-80,-960,-1800,-4938
-42,-5,82,591,-1944,-4595
-58,92,-113,-2712,-1314,-4497
-115,-115,99,-2012,-2446,-1556
124,50,78,-231,-1261,-455
120,51,-2,-2867,-1751,448
-118,73,-7,-4360,-824,2041
96,82,13,-2426,-438,4228
-58,-70,-115,1186,-21,7731
-23,47,50,4665,496,4086
-38,-84,-53,-149,-781,-5396
16,48,34,1720,-584,-4239
-84,125,-1,2825,-2607,-1608
-35,-10,-18,1168,-2139,-2729
11,61,88,443,-1112,-350
36,21,21,2947,-1228,2031
50,-73,38,3363,258,5336
49,30,118,-1376,3992,3780
-120,49,104,4248,4084,3723
88,95,-113,-4588,1296,3301
31,-121,-114,4732,1462,4463
-30,-67,-46,-1773,933,3300
4,86,-43,775,73,4411
64,-88,-40,2710,362,3064
-110,-48,31,472,-86,3028
-15,81,27,1226,761,4104
29,-107,62,-240,458,3588
-111,-13,-25,-2003,362,755
-13,-88,-84,-1473,-954,-1438
23,109,-88,-849,-477,-1164
16,29,-77,717,-558,-581
-1,57,-73,314,-169,-75
3,79,-78,-252,-53,-131
54,105,-104,-682,-9,-329
66,114,-115,-468,-57,-400
72,114,-128,-302,-65,-680
90,109,118,-66,65,-652
92,98,111,-64,79,-734
91,101,107,-25,-6,-332
105,111,101,-264,88,-299
-123,123,106,-68,156,-37
-107,127,111,191,8,-42
-121,-117,105,141,69,93
121,-108,110,-119,42,31
114,-109,105,103,152,174
127,-111,102,467,245,96
-104,-118,103,711,158,171
-99,-96,-106,2121,1476,-5985
109,51,78,2693,2193,-6269
-74,-31,7,1125,-105,-6198
46,20,100,-1364,-1737,-5709
6,41,-11,-1120,-1857,-3550
35,37,-85,773,-1812,-2303
-77,25,60,-1286,-2301,-630
-65,6,99,-1661,-1023,-1775
-79,108,120,-1184,-2095,-512
-87,69,34,-2386,-1060,1682
109,61,119,-3239,-223,3343
100,30,9,-936,-619,6447
38,-102,103,2214,-324,5197
-49,26,-75,1676,-609,-6192
-107,60,28,2255,16,-3836
31,-110,-41,-2215,-2430,-3233
-73,-23,64,3313,-1859,210
-43,0,88,-282,-1044,1426
-98,-41,-1,2346,58,3668
-13,-73,-104,2882,764,5081
-57,-34,-11,-588,1757,4992
-88,-7,-32,3759,1659,2948
-39,81,-11,-1747,2464,2232
-80,-114,-25,4905,1150,4521
-6,35,17,-2555,228,2019
13,66,5,-604,-987,4071
67,-30,-18,1784,-365,1829
-112,-122,22,1653,608,3072
-68,66,46,2806,539,3978
-14,-83,12,580,1147,2881
99,-67,-19,-1141,-500,-252
34,-117,-98,-1817,-552,-1346
57,26,-97,-695,-471,-1408
43,28,-78,7,-293,-615
19,38,-68,172,-379,-523
62,57,-79,26,18,-639
-111,62,-90,-95,210,-538
118,60,-100,56,-449,-872
81,78,-106,-600,-240,-1019
109,62,-101,-610,-200,-974
-123,54,-122,-80,-45,-438
123,79,-125,-181,-232,-87
127,98,125,-477,-165,67
116,123,123,-608,-110,283
121,-115,123,-239,31,511
-121,-100,110,8,90,734
-122,-67,99,-147,29,626
-109,-52,98,-216,72,580
-101,-53,94,68,12,517
-105,-31,88,-77,82,513
47,122,86,3035,1578,-5452
-6,-83,-62,554,976,-6905
-42,-28,98,-2503,2063,-6966
30,-41,84,-663,-1766,-5288
-118,53,-123,-801,-1661,-4864
55,24,-30,192,-2091,-2383
-76,-63,21,-68,-1440,-1445
-87,-51,67,696,-2096,-439
-88,16,113,-1486,-473,927
-46,-116,14,-3326,-1047,3222
-35,120,57,-3107,-128,3837
-117,91,122,-1148,-2716,5183
-88,-127,56,5792,718,1424
-110,-15,28,-102,-20,-3611
-37,79,19,2001,30,-4502
22,-28,2,-625,-374,-3458
-101,75,-118,1057,-1823,-1017
-5,-120,64,245,-1364,2825
66,-22,15,3378,-1195,3983
111,-111,90,1987,4413,6345
-101,-16,-115,1127,4458,3737
-4,-117,84,-229,2702,4885
-113,93,-80,506,1088,3919
-56,10,-29,-1191,-690,3058
61,-23,7,-1662,-389,2200
19,-111,19,4149,137,2819
-107,34,40,-78,367,2691
-128,84,12,2232,316,3141
-63,108,27,693,168,2987
118,-82,26,-1054,-521,1375
53,-121,-54,-1621,-332,-883
13,62,-67,-892,-625,-1105
26,23,-57,245,-394,-761
20,28,-52,152,-192,-423
39,39,-58,-31,-207,-294
58,62,-68,-624,-97,-517
60,61,-99,-664,-138,-384
81,71,-118,-510,-16,-280
98,90,117,-508,263,-390
98,95,97,-236,104,-266
101,114,79,-299,42,-367
109,115,74,-177,83,-280
114,109,76,196,45,-144
124,124,81,174,2,29
122,125,84,246,-51,68
-128,124,96,407,45,306
126,-116,104,65,-86,367
126,-106,113,67,-76,388
-106,-97,119,199,194,525
-104,-90,122,270,97,412
80,-94,122,2160,-1037,-6327
64,-85,8,689,-171,-7937
-112,-116,-43,-403,-531,-8383
54,123,-120,-1466,-2373,-7488
3,35,7,294,-2132,-5453
-92,-47,-110,-485,-1870,-2653
-13,-14,-36,516,-1853,-1620
66,-42,16,820,-1760,-218
87,106,-25,1088,-2641,160
73,-67,-10,-2300,-771,382
92,-97,77,-2574,-1573,4534
64,-25,-22,-5337,-2811,6531
-33,35,104,3797,700,6005
-69,92,-8,-387,1635,-7865
115,33,16,296,785,-3112
93,-72,120,2752,-789,42
-11,105,-8,3193,261,-803
31,-4,89,-388,-357,-1754
96,46,49,2159,-804,-232
-66,13,-52,1650,-994,815
100,-67,-74,2509,-973,2425
24,-78,-55,2169,-464,3398
123,15,-12,1607,402,4079
-52,45,59,3044,1570,4540
-125,42,112,694,2083,3420
33,-112,-109,707,930,3353
64,110,54,-2410,-1008,3212
-68,-122,-33,-248,-1227,4965
20,-111,-63,2431,289,2129
36,-79,-57,3620,310,2842
106,-43,-62,2487,170,2853
94,-94,-46,1519,661,1866
35,-84,-30,249,-431,673
-4,-126,-20,-302,-554,-521
-10,69,-9,102,-511,-740
-18,27,0,518,-53,-261
-43,37,-2,150,-283,-182
-15,64,-27,-582,201,-414
9,53,-43,-481,44,-519
11,44,-71,-24,-107,-545
115,27,-87,516,523,-626
74,27,-112,592,-25,-511
55,42,-105,-117,-286,-670
84,26,-77,60,265,-456
109,-3,123,849,614,-124
104,23,123,886,161,386
104,53,-120,41,7,379
109,57,-126,-125,284,471
118,59,-126,13,37,620
96,84,-111,-91,-205,716
-83,41,-35,3565,959,-6080
35,-66,-118,792,438,-7359
-8,1,38,395,-1375,-6131
-112,122,-80,490,-2144,-5836
-44,34,-109,198,-1542,-4197
-20,122,-63,813,-1323,-2126
-8,-89,-47,560,-1331,-749
-94,19,-53,-841,-2130,-216
-94,-26,19,186,-1697,214
-95,-54,-49,-2285,-1080,828
-83,3,69,-2690,-1764,3005
28,30,102,-3485,-883,4442
-62,109,109,1200,220,6484
-2,-7,124,-470,88,-5745
63,-87,26,1221,476,-2535
-83,-71,-14,2042,-782,-2484
85,-108,-35,-8,-64,-1644
19,-40,-122,1133,-604,-1756
69,-51,82,692,-119,-728
119,-112,53,827,165,-99
-60,88,41,2921,859,2189
-9,45,41,-590,1791,2938
81,-73,112,6,2502,4907
22,-36,0,-169,2074,4273
127,119,-60,-384,269,2477
92,31,-28,-989,-100,4071
-95,9,17,-410,-577,4167
16,12,17,-1029,-335,2589
-24,-2,33,1565,-1560,4574
67,65,-11,1060,-383,2292
101,-88,-4,1243,-685,4238
-61,110,-21,1149,531,3763
-22,-78,-60,4,485,2895
85,-11,-117,-1902,103,-101
3,-43,119,-1390,29,-853
11,123,-124,-84,-39,-747
-11,115,-97,749,-438,-184
-24,-114,-89,93,2,-124
20,-76,-124,-1062,456,-543
49,-78,115,-889,268,-921
70,-71,-126,-290,-340,-820
112,-90,106,-4,167,-1018
97,-99,96,293,-71,-783
108,-109,82,71,-78,-799
110,-109,89,-78,-106,-781
118,-103,105,-498,-29,-537
110,-120,121,-3,-321,-572
107,-119,-126,226,-157,-186
93,-111,-120,227,-133,378
108,-96,122,84,103,618
7,40,-48,2299,-1218,-7665
-77,-53,41,1547,-890,-9490
-109,65,124,-1376,-4618,-7434
-23,43,90,-799,-5446,-5044
112,89,-15,419,-3646,-2954
-24,71,-29,151,-1251,-309
-78,-30,16,-1882,-1231,269
97,104,82,713,-882,-223
99,-53,5,-2319,-2041,-858
102,5,-14,-1952,-576,2099
-106,43,-128,-3209,-150,5131
44,-100,-3,-5245,-2883,8893
4,-12,18,-1573,-1165,4706
-18,122,75,2376,758,-1909
114,34,-81,739,154,-2639
5,122,-29,1890,-240,-1513
2,-51,58,-34,-318,-937
-16,-66,-106,1238,-167,-1124
14,-94,-4,993,-889,-1028
127,81,-17,1151,-1792,-590
83,-84,19,1503,-1717,-462
38,-45,-26,5960,-248,2401
23,98,-55,2388,591,3785
23,-120,-10,2155,263,4930
76,-29,-25,2195,1648,3897
95,97,27,-1086,2329,3305
62,-123,10,-44,1169,2678
115,84,-8,552,685,2400
35,107,32,435,-1496,3524
36,31,-117,600,236,779
19,93,-100,1656,706,1192
30,119,-90,1648,125,1507
40,82,-90,1372,372,1203
63,32,-53,1284,175,1135
55,34,-44,957,246,1037
31,40,-56,226,80,231
25,54,-54,-869,-22,-147
16,31,-64,-622,-154,-456
15,11,-81,-132,-248,-416
33,26,-84,-219,-92,-605
60,30,-98,-501,-2,-817
85,17,-113,-353,-201,-647
75,32,-123,-501,-201,-637
68,38,116,-522,-17,-531
86,49,83,-291,225,-319
99,53,77,149,90,-153
125,88,61,-171,99,-188
122,80,55,58,-121,-97
117,89,73,-9,-126,22
117,82,68,462,164,104
22,117,120,2793,621,-4975
-19,125,-57,2427,-1283,-6760
123,2,28,625,-103,-7904
-79,52,-63,-1517,-2645,-7451
-31,-76,72,-3108,-631,-5825
80,-19,86,-1076,-1145,-3430
24,104,-63,-177,-1012,-1959
123,18,42,1010,-1788,102
-93,116,24,-1284,-1613,-1760
-121,-28,-8,-284,-2690,-495
113,92,-18,-3351,-964,1521
54,19,-23,-3926,-1483,5089
-13,26,78,-1255,-1733,6667
4,120,-103,2569,225,4410
-95,-108,13,1591,519,-4234
3,-33,34,2823,319,-2572
117,-88,17,1740,346,-2124
97,38,5,-544,42,-2187
125,26,54,1916,-1181,-403
-27,-45,-84,1947,-1477,480
-79,-10,-95,1721,-402,649
19,29,-53,975,-836,2410
90,-12,-121,3256,1179,5104
61,41,-84,4200,563,6263
-15,-112,75,-1484,1571,4490
3,16,90,-500,2557,2734
-72,72,45,2103,818,2950
-48,-34,34,184,710,2632
-29,-17,8,2122,29,3852
59,77,-36,-1337,-148,2455
76,-92,-78,358,-625,2069
113,124,-73,990,-133,2382
83,-104,-58,1263,91,1682
9,-94,-87,232,65,-185
-7,-123,-87,-527,-454,-860
11,96,-78,-535,-311,-994
27,43,-61,173,-263,-995
56,39,-68,403,-174,-812
78,46,-77,74,-35,-629
73,36,-94,-47,-336,-557
89,48,-102,-378,-192,-469
85,46,-119,-465,-178,-285
82,61,123,-361,-219,-99
86,84,117,-588,-144,43
95,94,107,-384,-47,129
103,127,100,-344,-43,344
113,-116,96,-207,15,238
112,-100,89,62,65,331
121,-91,90,127,168,210
115,-104,87,374,39,261
97,-2,-13,2017,-33,-6635
-59,-86,-99,-234,26,-8037
104,-57,-127,-614,-1627,-6948
-39,25,110,-2010,-2013,-5336
98,60,119,-682,-2108,-3499
125,-50,-8,-100,-1246,-1957
0,-124,106,1950,-434,-581
-106,-23,53,-24,-773,-387
-73,-61,-127,1208,-298,-40
-64,-90,-19,-478,-2312,-558
-90,-30,77,-733,-1274,902
-77,111,-91,-1842,-518,3818
65,-95,93,-5309,798,5545
111,3,67,-3108,-631,6572
-49,-96,-23,6552,1883,1899
30,-31,-90,-982,-761,-5525
120,-21,-35,1639,-516,-1318
-32,52,-62,2023,-218,-515
58,91,-124,2072,-802,-1491
5,14,54,-152,-1154,-1312
94,75,-84,-242,-2076,-499
-85,-64,-84,1548,-1956,86
111,10,105,3317,-1403,1727
-127,108,-14,710,755,1441
-4,97,13,2290,2219,3642
54,123,18,2606,4021,3969
71,-35,-1,-88,2473,3240
64,-34,56,-2672,358,3109
-128,-52,-3,1693,1811,3202
-89,14,57,-2005,-328,3166
15,-92,-23,3696,1695,3070
-1,50,8,-545,-169,2459
127,127,-60,727,1024,2379
-128,119,-29,648,133,2227
-70,52,-32,1253,856,2621
-122,90,18,1385,-285,1980
60,107,-30,171,-114,24
4,73,-31,-836,-342,-1023
41,16,-60,-372,-29,-668
34,-16,-54,499,-282,-261
33,12,-56,190,-285,4
55,45,-66,-646,-181,-475
87,39,-90,-337,-72,-615
87,19,-90,264,-418,-462
79,39,-92,-292,-144,-573
104,35,-114,-226,40,-413
112,30,-121,223,-142,-192
123,48,-127,-56,-12,-157
113,57,123,-148,-119,-79
123,59,126,102,62,-9
34,-117,111,2137,613,-5374
-4,1,89,1651,-120,-5976
127,119,-4,1316,500,-6483
94,69,-126,-665,-1229,-6852
-9,80,84,-1824,-2205,-5463
56,-60,47,-2729,-1674,-3842
-113,-10,-108,-1228,-415,-1331
-78,-5,63,1064,-243,-820
-69,-71,-1,-107,-1153,-782
-54,19,23,486,-1234,-1453
-59,111,-12,-253,-1773,-1275
-91,-12,71,-1937,-1903,-446
-114,-40,-56,-2053,-2807,2416
38,19,-42,-2973,-823,4112
59,-81,68,331,-57,5693
123,-44,64,-2442,-721,4020
-126,99,22,4763,1264,-378
44,-123,6,2269,172,-4091
79,-118,-3,4225,-557,-2544
29,56,-72,-505,-1389,-2516
-38,33,10,1519,-2136,-934
-80,-58,-25,1582,-2146,282
-16,-80,63,1020,-1440,-275
-10,-20,-83,2499,-56,2481
-109,119,-100,4851,5549,3920
-14,24,-113,2065,4565,2267
-19,-101,-110,-989,4136,1579
48,49,-69,-847,2642,1880
88,-108,-18,762,1560,2431
-80,110,15,-955,133,1727
51,76,24,-2245,848,2299
24,-45,-3,1676,474,2075
84,69,46,-1706,-1114,2745
81,96,-7,1439,-168,2558
-76,-35,30,-883,-36,2212
-116,47,-2,1059,193,2599
-96,44,1,1172,109,3156
-124,120,3,234,-338,1965
47,-86,-70,-1651,-267,-302
12,113,-95,-1305,-487,-865
39,60,-84,-268,-491,-690
13,30,-76,591,-353,-383
4,48,-84,277,14,-276
36,54,-102,5,162,-384
75,55,126,71,104,-243
71,66,120,-60,-166,-480
93,68,113,-75,-143,-516
107,48,110,100,-30,-522
127,38,98,185,-29,-35
105,65,105,-147,-418,185
-39,-98,62,2571,59,-7038
-74,97,-48,177,-516,-7295
72,-99,-111,-1457,-1665,-6336
-104,22,94,-2028,-1464,-5015
-87,-93,116,-141,-959,-3432
54,-19,-31,798,-437,-1829
-46,80,-37,2635,-1970,-249
-59,-44,-92,1076,-1401,-1114
-58,22,-39,1202,-2044,-110
-79,-78,-107,-415,-2239,1623
-88,-95,11,-3286,-952,3196
-126,-91,-110,-964,789,5329
18,-59,62,-2618,-1832,6832
62,49,89,5787,1452,-296
-61,4,-48,-786,-247,-4779
-99,43,-106,-153,-662,-2094
-73,79,73,-65,-1074,-549
-64,108,78,1782,-163,-724
125,-74,19,1258,-331,-156
-1,125,-26,1470,-882,283
88,69,-2,623,-35,1141
86,-48,-52,2738,-642,2480
-72,55,109,1525,2101,3175
17,-128,-65,1175,2040,2591
53,-70,-40,-1052,2054,2507
49,-108,-56,132,789,1902
89,-68,0,-1048,454,1448
-128,-44,21,74,266,2473
-25,21,-26,131,467,1882
57,-89,-6,-1492,93,1769
11,-14,-34,1800,-188,2413
77,21,-37,-55,252,1976
81,-42,-17,842,-448,2533
-123,-58,-54,1276,555,1848
123,109,-24,1050,-100,2588
127,121,-29,454,338,2319
127,86,-28,-159,70,2035
102,116,-67,-494,-106,1075
64,119,-87,-736,-269,163
42,97,-103,-453,-63,-333
32,69,-104,374,-160,-75
31,65,-111,412,13,-188
48,77,-119,49,55,-118
64,79,-128,-176,-176,-261
84,94,121,-558,-146,-403
96,89,109,-410,-14,-403
99,91,96,-300,95,-443
101,102,85,-342,5,-312
108,109,75,-272,-73,-385
118,119,76,-210,54,-314
