AccX,AccY,AccZ,GyroX,GyroY,GyroZ
-115,-87,99,2201,-2249,-8432
60,-91,72,-127,-6767,-14224
57,-13,-100,-4235,-3136,-11013
3,-26,-72,2239,1462,-1626
-49,89,-56,676,2443,-12
81,-110,87,-2310,1456,9445
85,-67,101,-600,2754,15340
80,-89,-11,-4574,1359,6827
-17,0,90,2185,-522,-2473
-24,-54,-66,-341,258,2661
56,-68,4,-197,93,1550
85,46,3,-3376,-103,1623
-79,105,-31,-2501,-71,2431
-64,-89,-76,-1673,927,3337
20,105,-64,-3134,363,4043
93,-51,73,-3182,-1387,3709
-61,-26,68,-3317,584,1042
32,64,-123,-2949,-1564,3516
37,7,-26,388,-1918,3561
68,-59,-47,2966,-1287,3638
48,-63,26,1533,532,1906
-48,-122,-23,238,-86,67
-92,62,-18,-1084,-153,-1020
-68,-54,-14,976,338,-847
-71,116,-10,2116,108,-955
-60,48,-34,1822,80,-977
-45,50,-9,155,-293,-1009
-34,20,0,-373,-307,-799
-61,20,17,-590,-453,-554
-72,31,17,-716,-318,-223
-75,54,11,-713,-137,173
-76,100,15,-786,-128,511
-62,123,3,-596,64,622
-47,-107,-1,-479,77,600
-35,-73,-12,-625,53,515
-31,-64,-21,-431,76,424
-22,-56,-18,-161,42,255
-28,-49,-29,-153,-10,107
-31,-50,-33,-229,-14,-45
-24,-59,-30,-99,-60,-23
-26,-63,-31,-52,-83,-90
-12,-65,-20,-155,-106,-286
-28,-71,-18,-322,-169,-228
-43,-77,-18,-266,-25,43
-37,-76,-21,-47,90,255
-22,-60,-31,-207,-24,245
-9,-47,-33,-302,-87,148
-7,-44,-27,-264,-74,89
-17,-42,-26,-188,-96,84
-16,-40,-22,-135,-33,79
-100,-2,-19,3112,161,-5239
-67,3,-11,2050,228,-5828
-96,-6,54,1330,249,-5121
64,106,94,1326,1007,-4164
105,-63,9,3857,2313,1813
19,-36,25,-38,-4026,-9589
65,67,-51,16,-4473,-12943
48,90,-28,1078,-2259,-9298
9,-85,40,1167,2475,-3275
-51,54,89,-1402,2070,7902
-54,121,98,-3463,-10,10739
101,16,8,-3849,-411,12122
119,84,122,1542,3461,-2211
41,-72,-113,-2945,-2982,1595
-81,-86,-119,700,-2647,1759
19,-124,-65,-1521,100,1887
54,55,-76,-1513,122,2813
39,-45,-32,-2128,-1901,4597
81,71,-28,-2675,-1993,4213
-9,-111,98,-1142,-271,3346
-107,-13,39,-2015,156,2752
-3,-30,-92,-2574,-3547,1357
-21,-127,-59,745,94,3114
80,-49,95,2388,1331,4888
5,-96,54,1536,-915,3145
4,-1,-20,-2158,-704,1548
-32,-34,-28,-1869,-196,83
-76,118,15,547,-184,-1036
-66,-3,-14,1436,463,-1441
-92,-6,-40,47,221,-1357
-96,-52,-24,-262,-319,-1112
-94,-100,4,-662,-164,-1077
-92,-101,47,-4024,664,-2034
-85,113,37,-925,451,170
-95,-99,51,2092,-595,691
-64,-47,0,1794,143,849
-56,-24,-26,499,370,400
-53,-20,-44,-489,216,237
-52,-33,-39,-467,-62,265
-45,-33,-35,-429,-86,321
-39,-22,-24,-456,-151,352
-31,-8,-14,-307,-217,112
-36,-5,-5,-167,-164,-47
-42,-16,-3,-48,-89,-130
-43,-23,0,-121,-77,-71
-40,-30,0,-50,-57,-65
-41,-34,-2,-102,-39,-9
-41,-33,-7,-134,-36,29
-39,-30,-11,-173,-31,87
-27,-27,-11,-92,-66,90
53,60,-90,1041,538,-11131
-108,3,79,-1277,-481,-16616
-25,86,-118,622,-3732,-13054
94,-111,125,909,3198,-874
67,-43,-65,-50,1131,7456
-106,47,3,-714,880,14342
-65,-77,85,-4398,-1170,13221
-63,43,-79,2357,266,-908
99,-38,-107,-5782,679,-4307
-63,75,47,2966,-2632,4403
103,72,-73,-3803,509,3020
80,-34,18,-1116,-731,2851
-119,24,24,-1538,-1781,3083
-16,34,39,-1410,-188,2346
21,103,103,-1552,-552,3854
45,-124,-112,-1417,-1530,4386
-114,126,-96,-558,-764,3379
85,-88,-88,-899,-1141,2970
92,117,106,-343,-805,1978
-4,78,74,-141,-677,1118
-31,59,36,-12,80,1262
-62,48,7,633,281,1217
-76,15,-25,1339,85,763
-73,-19,-28,1659,-164,271
-79,-73,-29,1644,-143,-203
-95,-125,-11,773,-274,-691
-93,104,15,5,-292,-876
-84,68,29,-49,-256,-843
-75,54,39,-228,-191,-878
-67,47,38,-237,-146,-751
-66,43,33,-170,-92,-551
-87,49,19,-288,-116,-230
-79,65,13,-530,22,126
-79,80,1,-474,71,379
-57,113,-1,-606,56,563
-44,-125,-10,-498,100,603
-38,-97,-15,-596,-10,523
-30,-72,-18,-484,1,380
-28,-63,-20,-314,-47,192
-31,-51,-22,-321,-106,45
-26,-60,-19,-66,-93,-103
-30,-60,-19,-214,-154,-117
-36,-60,-16,-290,-124,-92
-40,-64,-10,-99,-64,-101
-34,-67,-13,-5,-50,-137
-34,-69,-14,-93,-126,-114
-30,-70,-13,-239,-79,-63
-37,-64,-10,-384,-77,141
-36,-59,-10,-225,-17,172
-32,-46,-16,-256,-5,208
-58,33,-10,2578,-2352,-4991
85,-77,58,625,-1737,-3738
-8,28,50,1675,282,-2974
-34,-50,-56,2351,-2436,-5882
21,-64,-14,-2264,-5151,-15901
65,101,87,-826,-4895,-13834
76,95,51,1082,1629,-3713
2,100,120,-632,1594,10499
51,11,101,-1388,1887,13485
-63,69,71,-4583,-304,11415
-43,-7,43,-412,2925,-4257
-67,-60,104,-2144,-2803,-938
-92,-118,-17,570,-975,3288
84,44,-114,-2457,1248,3185
-19,-59,13,-1299,-1269,2417
-121,29,-55,-1695,-635,3098
-110,15,10,-761,-830,3063
-75,-117,36,-2474,-1521,3598
19,-126,20,-1806,-1006,3167
-75,-42,-100,-2512,-3025,2497
96,120,75,-765,-278,2019
79,90,14,295,1472,1955
23,117,15,-780,9,1890
-27,108,59,-203,-1795,2640
-4,83,47,1184,-1128,2286
7,98,3,1374,-65,1368
-44,85,-16,1174,-127,246
-86,19,-1,1299,-450,-181
-97,-43,-5,1172,-40,-569
-109,-109,0,793,14,-851
-92,112,7,547,-35,-873
-79,82,12,285,-52,-1028
-67,55,7,-139,18,-1051
-63,53,-11,-637,73,-810
-59,63,-15,-861,-155,-480
-69,82,-13,-787,-275,-212
-74,97,-21,-572,-39,52
-65,124,-16,-570,-65,253
-60,-103,-26,-588,-110,415
-52,-76,-21,-771,-108,438
-42,-57,-22,-497,-33,414
-38,-40,-18,-385,-67,351
-36,-29,-23,-330,-67,238
-37,-21,-22,-211,-28,132
-34,-26,-27,-13,-18,8
-27,-33,-29,43,-39,-48
-29,-44,-35,19,-83,-109
-36,-51,-33,-31,-97,-60
-37,-58,-29,-53,-86,55
-38,-57,-25,-91,-80,147
-51,-38,14,1864,-3647,-11677
18,-98,-69,-3881,-5209,-13453
-59,-22,-123,1024,-3022,-10208
-104,78,92,1246,2482,2571
-80,103,-51,-1643,2593,7263
72,-38,-26,-1312,849,9952
-26,-58,3,-532,-605,11016
-56,25,-102,-4723,2363,-1851
12,39,18,-984,-2188,1480
54,56,-34,617,-1464,2334
7,-84,-31,-882,-240,1813
36,-26,-28,-2223,-284,2839
60,-40,-4,-1145,-1344,4174
-90,67,28,-1556,-869,3777
-40,99,74,-1791,-952,3325
45,104,55,-1345,-560,3768
52,72,123,-955,-1427,3752
126,-107,80,-1510,-87,3016
119,82,41,392,261,1901
60,76,32,745,-654,1373
-15,17,17,1085,-793,1262
-63,5,-9,909,-185,1439
-78,37,-25,52,309,1092
-94,-16,-24,1347,1,578
-88,-57,-21,1863,-218,-123
-85,-78,-21,672,-201,-756
-89,114,7,30,-233,-1166
-84,78,22,-11,-215,-1212
-73,53,28,-25,-120,-1198
-63,37,35,-133,-120,-1037
-62,33,22,-188,-21,-759
-69,41,17,-368,-132,-446
-74,55,3,-537,-55,-101
-74,72,-1,-585,-17,243
-66,88,-10,-445,59,441
-53,117,-17,-542,-25,720
-47,-104,-16,-771,-75,833
-36,-81,-15,-526,-38,723
-29,-51,-13,-332,-76,507
-24,-47,-17,-74,-61,205
-21,-46,-23,-72,-91,-12
-30,-57,-25,-118,-155,-75
-36,-61,-27,-197,-105,-55
-25,-74,-30,19,-178,-78
-59,-67,-31,-225,-307,-62
-41,-64,-18,-285,-30,-86
-38,-81,-15,139,-120,64
-33,-59,-21,-426,-79,-9
-35,-59,-21,-473,-82,46
-36,-55,-13,-206,-19,62
-50,125,75,2363,-954,-4714
-20,111,-61,117,-1593,-5650
-113,43,116,-102,-1178,-4637
43,-89,42,-544,1460,-1954
-15,113,-29,2325,648,-1029
-46,73,17,537,1466,-4407
-4,-77,72,3741,-1823,-12807
4,61,-62,542,-5465,-12607
86,92,126,776,-1081,-7398
-85,-37,-71,650,2174,2767
16,90,-14,-2264,1661,9133
-87,-55,19,169,2026,12419
-90,-36,-104,-6011,-896,7540
112,-19,-31,-2616,2629,-3525
106,29,30,1082,-2211,3811
-128,-99,-63,-1212,-351,3059
24,-66,-11,-1697,-748,3384
-85,-24,-35,-2812,-123,3682
-69,-14,52,-679,-1111,3674
37,69,48,-2524,-1031,2934
-15,121,-115,-2632,-2296,3066
-71,89,70,-597,697,4223
-122,-108,108,-492,-333,2868
118,-82,44,-340,-551,2116
58,114,38,720,-1030,1626
-11,104,17,190,-580,1082
-54,80,0,261,-90,966
-86,48,7,1212,-141,934
-119,3,-8,2064,-218,556
-98,-27,-26,1657,-10,-199
-90,-59,-5,704,-259,-819
-63,92,45,1197,-375,-1471
-71,-15,57,1934,-195,-1614
-87,-34,53,797,-3,-1205
-69,-9,39,-791,37,-579
-78,-20,35,-750,-313,-321
-80,-2,19,-633,-96,3
-67,32,6,-594,45,299
-67,58,-2,-592,-73,592
-48,93,-5,-794,-30,663
-44,127,-11,-653,-79,643
-30,-108,-8,-456,-31,454
-38,-93,-18,-389,-57,199
-37,-75,-25,-484,-51,58
-36,-83,-26,-142,-71,18
-36,-78,-29,-148,-84,-42
-28,-80,-32,-149,-124,-190
-34,-84,-28,-169,-179,-220
-37,-92,-28,-85,-87,-235
-40,-97,-29,-125,-126,-127
25,-52,-10,6072,-1279,-2166
12,81,-30,-1911,-5115,-13884
43,-45,122,-3483,-5347,-17531
-78,-8,-115,499,-1580,-6444
-113,85,75,1941,2894,2790
43,107,-61,-2647,1749,9467
-36,7,-58,-85,1602,11832
-35,-72,-3,-2208,-845,9923
101,-33,-39,-2412,2919,168
84,58,124,-2947,-1571,191
65,-72,-54,923,-1057,3133
71,-97,-98,84,610,2752
50,-21,-55,-2431,-485,1909
120,-30,-40,-1924,-922,3060
-69,-76,-7,-213,-668,3331
-51,-68,43,-586,-1085,3548
99,4,16,-1639,224,4323
-123,94,87,-2285,-176,3643
-35,108,28,-1937,582,2432
-128,-54,53,-2218,-642,1835
35,-102,75,-465,-1146,1216
-9,-99,42,-119,-440,909
-34,-108,25,120,69,766
-60,63,-32,2219,360,967
-109,67,-54,1907,-474,115
-93,34,-52,697,-277,-653
-90,-71,22,1497,-161,-1143
-69,89,-2,2563,205,-812
-36,108,-2,199,-55,-1542
-8,70,6,-1023,-117,-1651
-32,56,11,-964,-335,-1324
-31,42,-10,-441,72,-1039
-57,49,-14,-35,-125,-356
-52,71,-31,-504,-50,48
-44,97,-32,-618,-152,293
-85,123,-31,-612,-380,623
-67,-113,-15,-567,70,910
-47,-87,-14,-506,7,1206
-22,-32,-9,-849,-116,1139
-5,-5,-10,-870,-38,749
-8,7,-9,-401,-37,435
-16,8,-18,-3,-3,107
-19,-3,-23,159,62,-13
-21,-13,-30,101,-4,-69
-13,-30,-33,125,-12,-167
-18,-40,-37,81,-77,-271
-14,-45,-32,-122,-109,-360
-20,-63,-27,-6,-155,-285
-26,-66,-25,-75,-123,-221
-35,-65,-17,-111,-170,-89
-90,-117,45,2680,-7377,-13769
82,36,0,-1856,-6508,-14434
-106,-117,-28,1437,-2816,-10367
76,-115,-26,1794,3492,4657
13,21,-114,-2280,3048,12681
69,32,1,63,1844,11678
-3,-56,46,-3722,2132,-3366
24,36,-97,-1138,-1540,3559
-128,-46,111,988,6,1661
21,-35,-58,-1606,-362,314
7,-128,-55,-1483,1065,2227
-8,-75,-45,-1675,71,4435
-125,43,-2,-2025,-87,3461
-120,91,34,-2310,-448,1994
-62,-47,53,-3014,-646,2596
-83,-91,49,-1721,-1150,3883
-28,-79,74,-889,-577,4202
35,-90,127,-234,-451,4195
56,-107,117,126,-617,3954
89,98,41,-87,4,2088
33,91,-42,-567,750,197
-22,22,-38,43,358,-80
-58,-36,-28,989,-176,472
-83,-69,-43,1212,-123,426
-85,-93,-36,980,-77,18
-73,-121,-22,669,-147,-181
-77,109,0,164,-423,-414
-78,99,23,-181,-469,-579
-78,91,25,-340,-258,-648
-76,87,28,-492,-172,-569
-73,89,25,-399,-82,-375
-75,88,18,-160,-19,-208
-67,92,3,-171,71,22
-59,109,-7,-469,20,184
-46,-126,-12,-538,-6,347
-46,-107,-14,-518,6,372
-39,-89,-17,-483,26,339
-34,-69,-19,-408,-7,278
-34,-58,-21,-344,-41,178
-29,-53,-22,-262,-21,80
-25,-51,-21,-149,-86,-33
-28,-53,-24,-175,-85,-97
-30,-60,-20,-94,-122,-72
-26,-62,-16,-131,-106,-80
-26,-63,-14,-151,-123,-64
-29,-65,-13,-156,-86,-18
-32,-67,-13,-164,-69,101
-35,-56,-12,-286,-46,244
-27,-55,-16,-83,22,218
-17,-44,-20,-250,-46,254
70,-81,-45,7401,555,764
0,-2,-63,353,-3546,-6856
-104,-120,73,-3329,-8997,-13243
54,-124,-117,-1334,-3022,-9526
-94,7,65,3103,104,-1170
-13,-6,73,-1899,3471,5401
78,-54,-106,-1392,2364,10215
8,118,2,-359,2846,7592
44,-53,90,-4181,-285,797
59,-35,93,92,-647,345
79,91,-83,-497,-92,352
-20,-122,-28,-563,-94,2043
3,-96,4,-1483,112,2086
39,-48,10,-1928,-565,3191
97,-10,26,-947,-34,2947
74,-109,23,-3455,-1254,4023
-71,80,23,-1628,-691,3367
-23,-100,52,-1870,-403,4049
-8,-115,42,-1877,-1010,3916
12,87,100,-1038,-1330,3640
100,47,41,119,409,2789
83,88,50,-334,17,2342
12,124,24,-1018,-571,1254
-36,99,22,-667,-500,304
-84,13,22,1244,-178,405
-114,-15,4,1733,-72,556
-115,-42,-15,1446,95,102
-94,-76,-6,924,43,-193
-101,-100,1,162,-120,-545
-85,104,15,482,-81,-896
-65,72,17,416,-30,-958
-67,48,19,58,-110,-895
-73,48,18,-314,-183,-614
-75,51,13,-469,-110,-376
-69,53,7,-340,-38,-85
-67,66,6,-329,-101,248
-66,92,0,-571,-69,394
-57,116,-1,-473,20,535
-50,-126,-9,-364,51,609
-35,-98,-15,-411,-12,628
-30,-79,-16,-450,-57,498
-24,-64,-15,-365,-59,322
-29,-56,-13,-199,-84,71
-33,-58,-16,-178,-50,-73
-29,-71,-19,9,-29,-98
-25,-76,-25,-65,-85,-143
-30,-76,-23,-213,-148,-166
-31,-84,-20,-90,-110,-133
-34,-84,-18,-168,-105,-92
-42,-81,-19,-261,-117,43
108,63,-10,1161,-578,-6308
-22,50,28,2784,-6785,-15120
101,-104,-39,-2874,-3721,-11452
72,-7,20,3126,-219,-1976
85,-40,43,696,1711,2409
63,38,72,-1115,3882,9064
-82,115,87,-1705,570,12670
-101,-90,38,-2833,3994,-1175
-13,47,23,-1441,-2680,2681
37,49,-117,-1649,288,-430
-32,-94,-61,-1145,525,1893
61,113,-20,-674,133,2445
118,-103,8,-51,-136,2995
113,46,-53,-2566,-470,2711
-61,29,-33,-1788,-116,3612
-42,103,9,-2291,-876,3752
16,112,22,-1734,-383,3986
102,90,8,-3007,-350,3044
43,-113,127,-2639,-1815,3020
-124,46,81,676,-434,3007
99,63,76,2241,-112,2241
1,41,18,2061,-294,1302
-36,24,-20,402,233,612
-76,-10,-27,21,313,376
-110,-75,-15,1063,46,357
-97,-110,-30,1567,138,-29
-76,110,-31,1216,104,-433
-54,64,6,874,-332,-696
-56,31,23,195,-544,-1138
-39,-2,49,-331,-445,-1322
-30,-21,60,-632,-385,-1068
-69,-9,42,-697,-371,-594
-85,18,37,-820,-209,-379
-81,34,3,-344,127,391
-61,66,-7,-322,29,597
-42,101,-14,-523,59,574
-44,126,-16,-370,3,623
-35,-116,-19,-310,33,448
-30,-108,-27,-271,5,377
-32,-87,-24,-394,-159,326
-28,-79,-17,-288,-170,138
-32,-80,-15,-177,-334,-79
-41,-83,-24,-3,-179,-74
-35,-83,-32,-124,159,-69
-40,-87,-32,-158,57,-52
-31,-97,-37,-65,15,-37
-20,-98,-40,-56,-29,-56
-21,-97,-41,-194,-165,-26
-27,-99,-35,-146,-141,57
-27,-95,-35,-232,-152,219
68,-43,-96,2971,-1544,-6652
57,-46,34,4171,15,-5084
12,-5,20,2940,-2138,-5995
68,19,-75,-999,486,-2449
-88,19,-56,355,-352,1431
-122,-40,76,3428,-7280,-15319
-79,-85,97,898,-6119,-13000
-62,-52,6,1021,-1732,-8959
56,116,109,-210,3734,2983
-125,14,-70,-2996,520,13831
90,71,81,299,3457,11964
123,-25,-93,-1660,2272,967
91,-19,125,-3626,250,354
61,-12,39,-813,-1562,1881
-8,-60,-68,-11,118,768
16,36,-105,-1727,909,2376
26,31,-66,-2012,581,3628
-64,29,39,-813,-2216,4166
-115,20,-19,-1714,79,2320
-104,-87,-13,-3489,-1560,2303
117,-70,123,-1714,-1458,2914
27,-77,71,-1328,228,3414
-92,-48,-80,-816,-1285,3571
56,-90,115,-258,-563,3198
35,-81,35,-1462,-463,912
-20,-127,7,-1385,-234,-165
-68,91,5,127,-118,658
-91,45,-8,1326,-168,879
-91,39,-31,1118,-163,719
-83,17,-21,998,-245,460
-88,-12,-15,855,-260,58
-91,-41,0,283,-251,-337
-97,-69,7,51,-183,-484
-97,-88,14,-33,-94,-519
-91,-113,2,75,91,-490
-84,-122,-4,56,82,-345
-73,127,-10,35,98,-254
-62,122,-21,-46,89,-166
-59,124,-27,-207,23,-44
-55,-123,-30,-345,-23,72
-58,-109,-35,-455,-88,212
-55,-97,-31,-410,-62,331
-47,-82,-31,-351,-72,372
-42,-59,-30,-379,-109,323
-40,-48,-27,-400,-120,248
-37,-41,-23,-276,-108,184
-39,-35,-23,-170,-88,73
-35,-39,-23,-102,-60,31
-36,-42,-25,-49,-58,-16
-33,-47,-27,-130,-53,-36
-112,-93,84,4232,-2093,-4008
4,117,81,3205,-1592,-3787
4,-38,-63,1883,-2018,-6844
-76,88,-11,-1805,-6443,-15099
-6,15,-125,-830,-4086,-13033
-91,90,120,3638,1273,-367
82,-64,-115,65,2877,6444
37,28,-17,-3199,1044,7645
7,-111,-17,-153,2362,7569
102,-111,-89,-3757,-587,2078
49,-106,5,-2822,-233,2648
-94,-21,-78,460,-210,627
14,-81,-33,-265,-453,3398
47,-77,-60,-716,139,4151
50,53,-16,-3432,-1220,2686
102,34,2,-663,-1539,3103
125,-68,6,-1789,-343,4081
26,2,49,-1082,145,3783
34,-42,-5,-126,686,2809
-81,-58,49,-646,-1117,3405
-54,-83,48,-1587,-1062,3133
-14,108,76,-443,-705,2507
5,73,6,-243,14,1730
-68,-90,11,-2512,-790,296
-93,78,7,-605,69,-217
-122,18,29,1625,-128,254
125,-4,-3,1401,61,-430
-121,-36,-11,723,130,-691
-102,-67,6,132,124,-709
-86,121,-6,687,300,-560
-77,111,-13,456,279,-636
-56,96,-23,194,270,-545
-53,71,-30,213,90,-312
-52,82,-28,-187,-101,-108
-57,81,-34,-301,-126,118
-67,98,-26,-345,-194,477
-68,126,-27,-542,-142,586
-49,-111,-19,-453,-160,662
-35,-94,-14,-91,-76,678
-47,-58,-17,-548,-197,417
-46,-60,-16,-312,-54,344
-40,-40,-9,-220,-62,141
-36,-51,-19,-51,22,-76
-38,-60,-27,-99,23,-51
-42,-59,-32,-174,-24,-43
-37,-65,-35,-52,9,-99
-23,-72,-40,-23,47,-169
-25,-76,-42,-63,-69,-190
-32,-81,-43,-130,-84,-84
-30,-78,-42,-260,-116,17
71,-69,-91,3595,-1423,-6436
98,-119,102,595,-1268,-6859
85,-17,7,2862,1484,-2637
115,116,-22,3560,1690,446
80,-39,57,-48,-8206,-13953
57,14,84,871,-4777,-11453
122,77,-13,-1365,-1692,-11899
-30,-107,58,2338,4322,2330
-76,63,-75,-3353,850,11395
77,70,52,302,3606,14858
-89,-33,-48,-2924,2858,4462
-77,-73,101,-4911,1680,-3118
116,-73,-102,-2232,-4527,4931
3,100,-3,-388,-2562,5821
-32,25,-3,-1887,1042,4055
-63,87,27,-2426,-930,3077
37,49,93,9,-209,3378
-87,-85,43,-1069,448,3337
115,-88,53,-1543,-896,2837
100,-114,49,-1355,-1174,1522
55,46,90,648,-931,1975
64,103,45,-74,-83,2929
10,-68,17,-1716,-303,1647
-43,-103,20,-626,-496,908
-68,-78,7,-485,-104,494
-94,-106,1,274,88,-494
-52,66,-10,1696,422,-1142
-27,-24,-34,1831,387,-1421
-41,-69,-44,451,-35,-1360
-61,-57,-2,-1091,-598,-1056
-66,-107,-6,-404,-98,-965
-56,-108,7,-244,6,-833
-50,-104,-2,-304,33,-676
-64,-98,-7,-400,-182,-433
-76,-79,-16,-565,26,-102
-82,-66,-18,-479,-128,248
-72,-46,-18,-499,-20,463
-58,-21,-14,-439,-40,658
-34,0,-4,-478,-57,724
-21,16,0,-360,-87,619
-27,34,1,-281,-56,410
-38,29,-5,18,-5,161
-28,15,-7,225,17,20
-19,0,-13,159,-34,-2
-30,-4,-13,-108,-109,-14
-35,-24,-12,113,4,87
-23,-25,-17,-37,-45,174
-22,-24,-19,-76,-106,158
-19,-22,-13,-178,-154,178
-23,-16,-5,-241,-90,147
5,-27,26,2835,1959,-4549
77,-20,107,4325,2275,-4948
112,108,68,2276,200,-5395
23,-75,40,1481,806,-2477
-112,108,15,3527,-863,2451
-47,-6,111,1932,-2590,-578
-32,-75,-39,1693,-5393,-11279
118,-115,4,-4960,-5859,-12055
2,-93,-75,-1531,-3427,-11029
-15,-49,-7,2641,3137,-681
-23,108,-55,-1878,1571,11283
57,126,-16,1222,3781,10004
-39,1,26,-1601,154,6598
-100,-95,113,-4764,4102,249
26,44,-126,-378,-2689,2075
32,-95,-94,-156,-530,2360
19,-57,-10,-814,124,3293
48,99,34,1686,43,4553
-98,-8,-17,-1450,499,4141
-33,1,112,-2295,1564,3169
14,91,-70,-1321,541,3567
10,3,-18,-978,-83,2594
34,65,-29,-2783,271,2091
-11,31,9,-2519,-94,2173
30,46,7,-1251,233,2310
17,49,35,104,-475,1766
-12,53,20,502,-400,1009
-60,30,4,725,-107,599
-81,-13,-7,1102,121,453
-102,-39,-18,916,-26,274
-85,-60,-5,698,-21,-254
-85,-101,0,550,-29,-599
-65,118,8,185,15,-950
-54,74,11,403,-15,-1073
-48,57,14,169,-68,-1015
-53,41,9,-52,-106,-788
-60,44,10,-261,-141,-466
-58,45,2,-243,12,-150
-64,64,0,-443,-112,229
-53,91,0,-681,-15,424
-45,114,5,-607,40,520
-39,-124,-1,-225,77,728
-32,-95,-5,-398,31,665
-19,-77,-10,-362,70,508
-13,-69,-16,-133,9,338
-16,-62,-21,-123,-10,151
-20,-66,-22,-20,-84,57
-23,-70,-25,-40,-98,-69
-21,-76,-25,-80,-146,-121
-19,-85,-24,-36,-187,-139
-90,69,46,3747,210,-4507
-74,26,116,1067,-1400,-5253
77,-75,-75,1427,-227,-5275
24,15,-42,897,-798,-4089
-89,-82,-48,1273,-754,-2553
-15,-89,-73,2602,-764,-1458
88,-47,-128,1275,-3016,-8288
-42,-55,118,1050,-4278,-12755
26,95,-2,-5919,-1177,-18510
65,-80,104,3775,-615,5729
-83,-78,-105,386,2938,6074
48,114,-95,-1996,994,7997
60,2,-110,-551,-131,10582
83,0,8,-1867,-361,5785
124,-48,10,-2664,1096,403
-91,-124,-33,-244,-1675,2899
-90,50,-51,-2330,493,502
72,-46,-36,-822,-882,1252
105,-41,-7,-845,-1032,3102
80,-16,53,-924,-2343,3761
-49,-25,-112,-1490,623,3145
-83,-119,6,-2448,-573,3327
-3,94,37,-1097,-537,3480
84,-113,10,-1609,70,3731
74,-125,71,-938,-478,2796
104,69,43,460,-313,3129
81,125,48,38,-714,2586
26,-107,4,-757,-232,786
-43,109,0,5,-84,160
-119,39,7,1146,-328,70
-107,-13,-5,1965,27,-124
-85,-38,-21,1259,99,-638
-61,-87,-20,62,61,-1497
-51,110,-1,43,-133,-1547
-41,75,2,94,-108,-1461
-58,59,0,-133,-270,-1197
-55,67,2,-548,-137,-828
-69,65,-17,-399,5,-401
-68,80,-16,-303,-73,77
-67,103,-30,-495,-105,407
-56,-124,-25,-570,-62,530
-50,-97,-25,-545,-110,722
-40,-71,-25,-701,-125,848
-42,-39,-15,-643,-191,805
-29,-15,-16,-347,-77,544
-23,-6,-19,-206,-52,152
-24,-10,-21,-94,-58,22
-36,-20,-23,-48,-39,-82
-35,-31,-28,9,29,-95
-30,-37,-29,17,-26,-102
51,31,35,6347,401,-4033
-39,88,1,1115,-597,-4936
40,49,107,501,-323,-5419
54,52,110,2322,638,-3666
50,2,85,2051,190,-1811
48,-64,-10,2577,634,-3259
13,76,-81,3097,-3801,-6272
-53,-103,85,2860,-5179,-10570
108,-83,-114,3499,-3455,-6721
48,77,-58,2074,-1196,295
-97,-54,-114,-3168,1537,64
96,108,35,-4342,2248,5292
56,77,-40,-1939,870,8863
117,28,13,-2870,3883,1445
35,32,-17,-1881,-663,4105
66,114,-70,902,-456,-672
72,-10,-73,-517,-925,1751
82,121,-36,-2043,-367,3508
55,-101,-7,-2449,-737,3240
121,-38,-1,-2296,2,2611
10,69,57,-1648,427,3478
-5,-106,51,-3460,-1504,4837
116,-18,52,-3921,-333,2374
85,-1,-97,-3219,-2060,2907
34,-34,-77,-1515,-2927,3462
49,-122,103,402,-1654,2200
-3,-124,73,877,-187,961
-61,127,49,1115,33,1208
-113,111,32,1025,-197,669
-103,65,11,1358,142,135
-100,-1,-6,1889,303,-347
-96,-60,-21,1195,184,-842
-72,-100,-11,455,190,-1213
-50,82,-3,903,125,-1179
-29,49,3,478,24,-1188
-36,42,11,-14,-202,-956
-46,29,9,-166,-229,-663
-54,38,2,-461,-137,-292
-57,51,6,-419,-77,149
-51,55,0,-57,-77,617
-57,91,0,-137,-10,886
-36,-123,-2,-780,-23,841
-28,-113,-5,-472,-72,785
-20,-88,-6,-291,15,681
-23,-67,-12,-336,-18,480
-21,-76,-20,152,36,293
-20,-61,-27,-166,-65,29
-21,-77,-28,-15,-67,-70
-28,-79,-24,-96,-146,-148
-20,-95,-23,102,-36,-208
41,3,-55,1598,-2144,-5715
-75,21,-19,1325,-3810,-5202
24,-42,-110,1520,-642,-5536
-120,-120,-86,3728,-296,-3895
-88,-47,61,3339,-3296,-6236
76,83,22,-1626,-9618,-13812
-80,-78,-25,-429,-4768,-13112
-43,-3,79,3245,1803,-3433
77,-24,-35,-838,2560,8215
60,79,-6,-3231,3295,8620
-32,-54,-52,-3929,787,9508
-42,92,-99,3762,2545,2294
-79,19,126,-9028,706,-4314
30,-45,-10,1987,-3182,4610
110,-53,-45,-548,508,4416
93,-82,34,513,390,2759
-101,6,-118,-2967,486,1512
83,-12,2,-906,-1708,3822
-64,31,-22,-1589,-954,4079
5,48,3,-547,359,3247
88,11,-52,-430,1580,2413
105,2,22,-195,1115,3313
121,-36,10,230,458,3926
-105,13,18,-1724,-124,3039
94,109,0,-3366,-254,1419
29,54,-24,-704,-42,678
-41,4,15,1714,-366,577
-82,0,-15,1747,-326,535
-74,-20,-43,755,234,-377
-48,-79,-17,673,-22,-939
-41,100,0,597,-319,-1326
-48,72,20,248,-438,-1476
-52,48,34,128,-342,-1209
-44,18,18,226,40,-765
-55,43,25,-419,-200,-460
-66,50,8,-741,-148,-374
-59,62,-2,-665,77,-49
-55,76,-7,-362,-34,358
-46,107,-17,-624,-122,469
-30,-116,-22,-675,-41,509
-27,-101,-14,-432,-144,548
-27,-79,-20,-498,-142,496
-32,-52,-9,-487,-193,426
-36,-44,-12,-323,-110,392
-29,-30,-10,-329,-41,247
-29,-19,-7,-243,-93,152
-18,-31,-14,146,68,-46
-18,-32,-20,35,-14,-270
-15,-59,-28,111,-17,-350
-18,-72,-27,44,-61,-273
-108,33,45,2607,845,-5323
-82,36,-75,1688,-6534,-17319
56,-71,9,-1470,-2558,-9350
85,-89,-118,2070,-1127,-2915
41,-10,50,-1914,1969,5233
6,114,-111,-1428,2145,10437
99,113,-16,-1790,1011,7962
-76,3,-88,-1126,2023,206
88,-102,-93,-3697,-1040,4219
-58,-63,-52,1536,-1277,1436
110,84,-85,-3779,-22,1316
-28,-49,-36,-1919,-1244,4414
47,-70,-15,474,-929,3676
-108,-101,5,-2513,-221,3584
-37,54,47,-1586,-574,2811
60,101,36,-1974,232,3493
-127,-127,28,-1737,-548,4497
105,90,-127,130,-2277,4542
116,99,123,1418,-1665,4135
94,-80,29,-297,-46,2113
27,-12,-41,-2966,871,-380
-106,111,38,261,-582,295
88,80,57,1703,-847,447
-127,75,0,1179,408,-470
-103,-7,-10,1761,615,-1018
-77,-92,-15,1881,162,-1390
-54,92,30,1238,-202,-1779
-37,58,44,180,-69,-1805
-38,38,24,-790,327,-1618
-52,35,14,-831,85,-932
-73,34,-7,-408,-37,-319
-65,59,-15,-201,35,331
-67,87,-33,-468,-84,606
-50,109,-27,-575,-113,871
-34,-101,-10,-789,-415,1090
-21,-87,-9,-422,-255,918
-34,-48,3,-637,-462,707
-36,-36,6,-375,-222,548
-46,-17,7,-432,-251,363
-50,-12,7,-289,-103,269
-54,-13,5,67,-53,115
-37,-21,-10,171,102,-171
-27,-37,-15,191,-13,-331
-28,-62,-30,148,-5,-393
-30,-78,-29,139,4,-352
-30,-87,-32,-4,-54,-171
-30,-85,-31,-206,-105,-59
-32,-80,-26,-309,-151,49
-35,-78,-24,-255,-53,188
-36,-54,-27,-520,-102,253
-65,-83,-97,2793,2403,-6208
-65,-104,-102,3549,1816,-5652
-67,68,80,3617,994,-3795
108,74,41,4094,511,194
36,-119,69,56,-2831,-2931
101,105,-93,-861,-7452,-16988
44,55,-49,930,-2687,-12427
110,-49,-52,2493,3637,1030
-108,11,-32,-4076,1581,9363
16,-55,50,248,3328,9728
97,-34,34,-2117,1073,5941
-2,115,-81,-2094,1749,-2108
25,103,-91,458,-2197,2953
-26,-58,-93,-2016,-1332,1617
-8,-33,-24,-2061,-758,3319
44,-77,-47,-995,-172,3972
5,77,32,-1494,-1549,4439
110,-101,-28,-3699,-933,4819
-26,-83,-36,-3097,-1463,4286
-35,91,68,-1006,-728,2714
39,53,46,292,520,3266
56,50,79,550,21,2528
75,61,70,261,-1286,2240
45,-100,36,-1396,-859,1432
-27,122,11,-421,-176,277
-108,26,23,1527,-177,29
-126,-6,8,2038,-183,176
124,-30,-16,1447,45,-11
-110,-69,-11,691,148,-445
-98,-103,0,248,-95,-765
-76,124,16,66,-99,-1054
-67,79,16,81,19,-1199
-68,62,11,38,74,-1078
-67,56,2,-68,71,-760
-77,57,-4,-220,-20,-339
-77,65,-19,-372,57,34
-67,92,-20,-661,-59,321
-54,112,-23,-481,-28,552
-54,-115,-28,-674,-122,651
-46,-86,-24,-723,-127,656
-36,-60,-22,-498,-124,550
-34,-40,-20,-475,-165,420
-37,-25,-22,-428,-125,277
-35,-16,-16,-271,-121,105
-38,-20,-17,-31,-44,-68
-37,-26,-22,27,0,-194
-28,-46,-28,149,-64,-256
-30,-55,-32,43,-84,-301
-33,-66,-29,32,-102,-254
-34,-78,-28,56,-93,-116
-10,0,-101,-1625,-6717,-13672
107,-28,42,60,-5469,-10337
-89,79,42,2607,1378,-3278
53,0,74,-1337,3291,6448
109,34,-36,-2439,3215,10793
22,118,75,-1324,840,8563
-61,-26,-122,77,3047,972
-76,119,-90,-1519,-703,3421
-74,-22,-57,-2094,-1680,3362
-11,42,-58,-1235,-976,1448
94,-123,-62,-1726,408,2898
-124,-89,-20,-748,423,4014
50,-48,-35,-2072,681,3085
121,-51,12,-3878,-1221,2510
113,-15,-126,-2349,-1894,4122
74,-3,65,854,955,5834
22,-108,95,-484,-283,3931
-120,17,22,-3318,-1210,928
10,4,41,-2480,-1323,231
-111,-64,112,846,-1054,723
-118,115,48,3386,280,-249
-101,38,-33,3616,906,-1148
-57,-75,-65,2635,469,-1525
-47,-119,-9,496,-407,-1811
-34,63,32,-8,-627,-1786
-45,4,31,-178,-319,-1672
-60,-43,43,363,-146,-1140
-95,-58,22,507,32,16
-66,45,3,-1207,54,321
-63,66,-15,-1389,-151,291
-51,106,-21,-1343,-59,546
-46,-91,-27,-1217,-116,818
-34,-58,-22,-772,-88,816
-41,-32,-21,-441,-210,605
-34,0,-29,-565,-60,157
-36,-10,-25,-10,-52,74
-34,-22,-37,134,-35,-17
-30,-23,-46,-220,-137,-151
-35,-33,-38,-147,-167,-128
-32,-46,-37,34,-87,-95
-33,-49,-32,11,-140,-147
-33,-55,-33,11,-113,-185
-35,-62,-28,-52,-108,-123
-49,-68,-21,116,-60,110
-41,-75,-37,109,126,337
-30,-44,-32,-412,-88,461
-15,-35,-30,-282,-11,458
-10,-15,-25,-388,11,117
-12,-7,-17,-352,-46,-61
-12,-21,-22,-153,145,-84
66,102,23,4544,1347,-6817
50,-87,104,2450,-687,-6909
23,-58,117,968,-214,-5192
-57,-43,62,3429,1413,631
-59,19,-58,1337,834,2762
31,13,-14,-1585,-6086,-10115
7,-60,7,-468,-5343,-14259
-119,115,3,1245,-2476,-10039
-10,-56,106,2222,2797,273
-124,80,51,-2895,2986,7659
-113,22,90,-1298,3217,9859
-80,124,-106,-3506,303,8789
-124,-67,-99,-413,1408,-1553
70,-10,-112,-4219,-3044,1047
57,-63,-70,1215,-1335,1287
69,-3,-21,-762,497,1776
-59,-53,9,-1327,-1028,3543
-25,-15,-30,-1169,-850,3125
-2,56,77,-1411,-1387,3803
117,90,0,-1594,-518,3993
-83,39,47,159,-5,3322
4,110,15,-1305,643,4206
60,127,45,-1872,-369,3406
58,55,57,-846,-578,2622
55,58,53,-527,-420,2502
13,83,63,-406,-429,1823
-16,82,31,90,-31,1002
-71,62,10,317,-1,178
-99,-22,-4,1029,155,-287
-90,-47,-5,950,30,-207
-91,-83,-3,620,-40,-234
-104,-103,0,152,-107,-441
-93,127,4,146,-23,-756
-80,95,13,328,-81,-821
-69,80,2,74,-99,-844
-65,69,0,-215,8,-606
-69,62,5,-218,-105,-189
-82,72,-1,-131,-51,167
-88,106,-3,-688,-194,413
-75,126,-8,-751,-57,703
-26,-79,-3,-726,52,662
-19,-72,-5,-164,-221,262
-32,-53,-1,-361,-252,-132
-49,-56,-6,-423,-68,-103
-57,-73,-3,6,-108,58
-51,-61,-9,-125,-22,79
-42,-58,-14,-212,-44,21
-39,-57,-14,-155,-33,10
-34,-63,-15,-83,-28,42
-35,-55,-21,-239,-43,8
-28,51,-8,827,-942,-6314
-24,-23,-97,-1915,-6248,-15284
-11,-30,52,1315,-4968,-10558
114,103,-70,2516,773,-2255
30,-1,-48,-895,2081,6878
30,-127,-4,-2645,3397,7566
82,-92,-69,-484,1754,9690
-7,122,56,-2611,1306,377
-44,-120,-2,-3025,-619,1025
-2,-18,-59,1268,-1206,3840
5,-62,-29,-1824,-1056,853
7,-42,-66,-2577,-943,2591
48,-33,-36,-864,-548,4899
127,67,6,-510,-1025,3460
22,120,-26,-1601,-231,2765
-55,-112,17,-1150,-940,3911
-62,99,77,354,-1481,4088
12,41,9,80,760,2592
2,91,43,-1762,901,2268
54,-21,32,450,1050,2717
72,12,34,801,394,2562
37,43,-18,192,-25,438
-13,-46,-41,871,103,-457
-63,113,-34,1425,76,-308
-81,93,-37,1016,-14,-26
-83,90,-26,99,-139,-27
-72,73,-6,-91,-342,-162
-63,70,13,-118,-374,-432
-58,66,20,-271,-359,-518
-61,69,30,-543,-396,-578
-73,66,28,-377,-377,-425
-79,67,32,-121,-476,-315
-69,94,12,-294,-80,-40
-60,102,2,-484,140,-26
-59,108,-4,-431,57,90
-49,123,-8,-366,-4,169
-43,-127,-16,-145,87,219
-41,-111,-24,-304,-6,196
-36,-102,-26,-254,-49,246
-33,-94,-27,-175,-32,235
-28,-82,-26,-255,-73,171
-23,-79,-22,-113,-98,121
-36,-69,-20,-156,-109,38
-25,-77,-21,-43,-11,-59
-25,-79,-22,-216,-155,82
-30,-70,-22,-276,-74,54
-25,-73,-19,-13,-4,45
-19,-69,-31,-219,-105,8
-17,-74,-30,-149,-123,45
-15,-71,-29,-200,-147,48
2,-67,67,2549,-53,-5413
52,79,88,494,-7743,-13643
108,57,77,855,-5068,-9827
-104,33,-71,1216,-173,-1283
-84,-38,11,-1115,2373,5847
99,-90,-59,-1697,3921,10619
-58,-93,54,-2846,1956,7236
-68,-38,-114,-2214,1462,-2668
-100,126,-75,-1447,-1743,4001
-67,-85,-84,1171,-360,2722
76,-69,-37,-2451,130,432
56,-83,19,-1974,-449,4069
99,-61,-1,-1662,-358,4363
-113,-98,38,-3060,-1092,5597
-36,109,44,-2977,-440,3265
-13,101,94,-1791,-316,3557
-46,-106,106,-2132,128,4393
-125,-1,-103,-1251,-1906,3652
40,-94,63,523,-1541,-45
-28,13,25,1445,-109,-1368
-64,-27,3,931,428,-21
-122,-105,-16,1102,416,1049
-123,-81,-34,696,269,1978
-84,-2,-52,-545,235,1310
-47,10,-31,-758,-237,-446
-53,-52,-3,21,-355,-1476
-62,-103,5,368,-55,-1245
-75,109,-3,395,58,-872
-70,112,-11,-210,-4,-631
-64,104,-11,-327,-140,-415
-65,117,-10,-523,-116,-244
-65,-128,-12,-595,-55,-160
-59,-119,-12,-437,-14,12
-63,-102,-16,-339,-176,237
-57,-80,-20,-626,-49,287
-56,-65,-14,-533,-141,416
-42,-46,-15,-309,-24,421
-38,-31,-17,-326,-155,321
-34,-22,-12,-275,-140,237
-34,-22,-12,-124,-72,215
-35,-12,-13,-300,-88,131
-35,-22,-10,4,-14,120
-25,-17,-20,-168,-30,52
-22,-21,-18,-175,-89,21
-26,-24,-16,-94,-50,-48
-26,-26,-19,-225,-52,-74
-28,-32,-15,-179,-78,-17
-25,-32,-15,-157,-4,-4
-21,-29,-17,-226,-66,28
-17,-29,-17,-197,-39,79
-12,109,-12,3002,-1842,-5739
121,-100,66,2121,-1145,-6141
-24,-85,-97,-1068,488,-6661
112,92,81,-940,1042,-3868
113,27,-48,-1101,1108,-2578
-36,-24,119,-2114,-108,-1030
8,-117,-82,614,-693,-503
-44,126,-28,-2480,616,-3893
-85,-118,42,-429,-6199,-15991
57,-29,79,2143,-6687,-10819
71,40,-127,5404,2157,-2923
64,-71,53,-6132,2847,9882
125,-1,71,-3678,1637,6376
32,79,85,-429,871,6355
118,-55,44,-790,1732,979
75,-47,13,51,-2719,2188
-35,-43,-65,-661,-363,-831
-93,16,37,437,-184,1997
127,-65,70,1394,-1133,3566
-86,4,42,962,-1025,3833
-32,116,60,-180,-1369,5183
46,14,68,-4070,-1251,2654
75,-49,-103,-1595,-1932,3477
-97,-109,-8,-297,-92,152
-83,-96,-5,-311,-68,163
-79,-83,-9,-311,-85,133
-77,-73,-7,-314,-72,78
-74,-75,-8,-58,-3,23
-68,-75,-11,-6,-34,3
-65,-76,-15,-54,-16,-30
-58,-76,-16,-179,-80,-59
-55,-79,-16,-227,-73,-7
-55,-76,-10,-209,-69,32
-49,-71,-7,-185,-43,62
-48,-62,-8,-316,-54,95
17,14,-21,-75,-56,106
18,16,-18,-188,-94,86
18,13,-15,-109,-66,71
16,13,-13,-178,-73,91
17,12,-12,-156,-56,94
19,14,-15,-188,-75,82
21,14,-15,-171,-65,70
21,11,-14,-121,-65,70
24,12,0,-77,-32,-2
18,1,-4,-103,47,4
20,-5,-12,-316,-40,231
22,9,-7,-243,80,243
28,21,-6,-86,-9,64
28,15,-12,3,57,-12
18,0,-26,10,-45,21
-102,-92,-56,1238,1484,-5783
32,96,98,549,2271,-5837
-27,-114,22,-302,1282,-3623
-74,-29,-51,151,1047,-1359
46,81,-109,-429,35,-274
-17,-85,81,-3989,-1565,-4861
41,98,123,1872,-5232,-12424
28,73,21,49,-5123,-7285
-11,-115,111,2873,50,-966
74,-12,24,-5537,5139,6543
64,-109,86,-1804,2637,5795
52,-60,18,-142,-1059,4465
-15,51,83,-177,-414,-790
-90,74,-27,-586,-837,304
95,48,73,-188,-752,959
-122,-85,-120,925,-723,3083
-105,2,73,261,-920,3292
-3,72,87,639,-735,3964
33,-53,-126,-1283,-2396,4098
58,-40,124,-1431,-2201,4410
-128,112,-97,-75,-805,1893
93,124,117,-428,-605,3790
-48,-96,-44,-1614,-1978,2508
7,60,-46,953,-1689,2209
-69,77,-62,1390,-1444,916
-109,30,125,1291,-304,-203
114,115,103,2791,97,178
73,48,35,4287,261,1579
53,91,39,2479,-27,1502
79,-97,61,-1006,36,811
84,-97,80,-2036,-152,292
84,107,77,-332,-30,168
89,74,75,1027,190,-75
100,97,56,409,212,-307
111,74,42,110,123,-470
118,23,53,641,39,-371
124,1,50,969,192,-239
-116,18,50,152,147,-313
-100,12,44,-339,-31,-232
-101,8,42,-354,-108,-84
-98,14,43,-279,-30,63
-99,41,31,-452,-107,138
-91,54,27,-475,-64,176
-89,69,28,-334,-89,212
-83,90,18,-322,-77,200
-80,102,14,-298,-80,149
-78,104,9,-140,-75,157
-74,124,0,-344,-98,120
-69,124,0,-180,-114,95
-59,-121,-5,-220,-128,-40
-18,14,53,-589,1356,-6146
-11,62,-16,-1157,1010,-4667
-53,81,-62,915,1119,-2775
-70,-124,87,-451,-240,-1500
-19,111,26,-2825,-1868,-3358
45,-10,61,1695,-9151,-11170
5,122,-100,1119,-5704,-6164
-8,-17,-79,2264,3417,2918
-4,46,16,-6160,5641,5805
93,93,-75,895,2422,6294
20,62,59,-2051,127,4044
90,-21,82,-281,-399,860
-75,-55,-53,1427,-1873,292
-112,123,48,802,387,342
122,-18,78,1288,58,2120
-119,-65,-15,539,105,2665
-22,-20,-2,887,427,3517
-39,67,-6,-860,-47,3117
86,95,30,-639,-390,2888
121,121,92,-148,-916,4116
-54,-128,126,769,646,3563
-38,90,-102,1010,42,4212
-43,-128,-106,-809,-390,3595
-94,67,126,-1141,-974,2581
125,22,81,-679,-877,1200
102,17,68,-773,-406,270
74,-39,56,-87,-7,198
42,-70,79,853,-224,464
55,-67,57,900,134,368
83,-60,44,3,103,-351
93,-110,41,213,129,-587
109,114,37,225,195,-686
125,84,24,140,202,-700
-121,66,17,113,136,-604
-112,61,15,-94,37,-436
-111,58,7,-184,-43,-232
-109,57,3,-143,1,-16
-103,75,-1,-409,-115,162
-90,97,-2,-448,-124,300
-83,110,1,-231,-76,337
-75,-128,0,-248,-52,290
-70,-114,0,-183,-63,239
-71,-111,0,-134,-78,269
-78,-102,2,-172,-47,297
-78,-99,5,35,-12,285
-71,-104,1,277,55,236
-68,-95,-4,-25,-48,162
-60,-113,0,277,19,133
-57,-111,-4,77,-64,104
-52,-119,0,114,-43,141
118,107,125,3084,-772,-8413
93,-10,2,1205,-433,-7975
88,-78,-10,-1973,973,-7320
45,-101,52,-2363,1726,-3147
43,-35,-47,-156,-175,547
57,-40,0,-753,-218,-1496
-88,-121,-89,-488,-4703,-10338
45,42,-93,1954,-7048,-8598
-100,-16,-109,4965,-310,-588
-102,-61,38,-6703,5810,8531
112,-73,-91,1060,4825,6619
99,43,85,-2058,225,2837
21,-17,24,-1993,-1399,367
67,-49,-93,-44,-1776,1806
61,-29,-1,799,-812,2371
62,-68,-24,980,-638,3632
73,84,41,640,-1111,4257
-115,8,105,-558,-947,4681
-45,-7,-99,1800,-1421,5776
62,101,-72,2287,-674,4261
-46,7,-110,1733,-264,3082
-50,38,100,-948,218,3095
-73,-7,64,-1360,569,2322
-82,-15,78,-106,-102,2476
-103,38,78,16,-471,1677
120,26,52,689,-69,188
95,-43,31,1350,334,-483
76,-96,28,1122,88,-711
84,90,50,990,-189,-845
108,52,60,594,-143,-1113
127,18,72,292,-81,-1092
-127,-2,72,-244,-267,-933
-126,-2,69,-609,-216,-702
-112,3,65,-580,-85,-378
-101,-2,42,-35,73,-97
-107,25,38,-366,-318,199
-98,48,27,-654,-75,321
-105,74,22,-567,-240,529
-93,98,16,-483,-89,540
-83,122,13,-494,-147,478
-83,-108,10,-386,-155,426
-83,-95,5,-332,-126,261
-75,-86,5,-199,-87,132
-79,-83,2,-147,-92,-24
-77,-85,2,-193,-106,-113
-72,-94,9,-105,25,-187
-70,-101,-2,-130,47,-19
-68,-95,-12,-152,-25,34
-48,-94,-23,-29,11,-33
-45,-89,-27,-194,-138,-110
-102,63,32,539,1150,-6340
31,-53,50,539,1067,-7161
-30,124,94,327,-756,-6356
100,119,38,-869,133,-4501
-109,-84,-17,673,300,-1149
52,-48,-41,-1189,1003,-2044
92,12,-36,-597,-7847,-9913
101,-119,72,2321,-8155,-8119
-23,10,-13,4965,217,-671
105,118,35,-4703,5271,6649
-58,-59,-91,-1969,3752,4272
-1,-29,71,-1911,-461,3336
57,-3,64,-1829,251,483
-108,76,-113,1025,-1529,1417
-82,78,52,-530,-283,1167
-84,-53,90,1195,9,3162
12,13,7,209,612,1598
-33,-54,30,1328,-1734,2984
-65,-73,79,338,-635,2767
-59,-92,-116,5,-397,3116
-1,127,-91,776,-117,3838
58,49,-124,1522,71,4247
108,-99,-77,2935,168,5740
81,-16,-102,1629,2641,4740
37,79,105,-319,1685,3641
-120,92,34,-2532,-140,2011
78,-49,46,-954,-1336,242
67,-95,47,-175,-657,-403
48,-122,53,-49,127,-239
47,118,56,387,236,119
63,109,63,748,-64,-30
88,102,76,519,-204,-526
101,81,75,-73,-120,-850
104,59,78,-377,-73,-893
112,28,67,-227,-32,-660
116,25,58,-164,-57,-408
121,33,52,-303,-99,-148
-127,48,39,-427,-38,29
-119,64,34,-539,-59,149
-111,80,31,-520,-83,279
-109,105,27,-454,-129,381
-113,125,26,-499,-134,389
-104,-115,25,-413,-75,384
-101,-90,24,-362,-154,306
-91,-86,22,-203,-15,160
-88,-81,18,-171,-32,68
-82,-83,7,-25,18,-31
-76,-87,3,-33,-44,-54
-74,-96,1,46,-76,-90
-71,-98,2,-49,-50,-121
-69,-45,9,3443,1096,-5950
96,75,125,3119,-1286,-6149
62,0,-102,12,-121,-5678
15,-74,-111,1479,1070,-2574
80,106,32,1484,2394,-703
13,47,61,2131,-1517,-4093
-49,83,35,1144,-7943,-12214
119,88,-33,4274,-5126,-5301
102,88,94,455,117,-1054
-51,-74,69,-4307,5681,2394
-46,-53,88,-529,2426,7566
121,27,-71,-3446,2497,4022
90,83,109,-3161,-361,5832
105,-16,-88,1385,-2010,2688
-113,23,114,-3416,562,-296
-79,38,31,545,-935,3976
83,-63,-30,-2428,820,2126
-44,-105,-37,-2850,277,1241
88,41,95,-2918,-2614,3365
63,50,21,-1011,840,3534
-74,-89,-85,-1070,-1312,3611
5,-18,-29,-16,-1586,3359
66,105,-68,2942,706,2505
62,-114,-1,155,1828,1167
-38,-68,-18,333,149,1041
-48,-110,0,268,-389,1103
-34,121,-23,115,238,704
-39,89,-31,305,169,531
-71,88,-10,321,-551,660
-90,105,10,7,-487,300
-88,106,31,-127,-396,0
-87,96,35,-89,-233,-389
-76,82,47,-202,-342,-467
-89,78,45,-399,-319,-488
-85,86,39,-747,-114,-578
-68,84,27,-734,6,-406
-76,95,19,-539,-132,-278
-73,97,12,-222,94,-141
-63,108,-2,-262,93,96
-54,120,-20,-195,74,191
-46,-113,-26,-476,-62,149
-37,-108,-26,-398,-131,182
-45,-81,-18,-436,-239,139
-41,-81,-17,-52,-13,114
-39,-67,-18,-226,-178,31
-33,-68,-12,-191,-156,-29
-39,-66,-9,-250,-138,-86
-41,-72,-6,-138,-100,7
-35,-70,-12,-184,2,40
22,13,-34,-209,-95,78
-3,11,-43,3594,1113,-7845
-49,63,26,2438,-669,-7311
121,53,124,1362,830,-4667
39,-100,55,3171,1510,-1340
26,-91,3,1626,-825,-6627
-84,106,11,2325,-7621,-11005
-20,94,85,2494,-4416,-7132
82,-4,-125,886,3384,2940
-9,-13,63,-5720,2659,8200
-85,-118,40,-1220,3316,7724
-25,-63,93,-1807,535,1355
40,-47,94,-1800,-2221,2314
124,-115,-101,592,-1033,-36
-62,-66,16,-2192,-863,2346
-5,-118,50,-1256,563,3421
25,84,10,-1265,-816,4041
86,59,36,-658,-485,2658
37,-55,77,-2368,-501,3103
-108,55,55,-1740,-701,3971
-35,-23,60,-1055,-645,2522
-71,-107,49,-1222,-619,3222
-37,87,24,156,-670,3644
-19,46,29,278,-710,1443
-42,-14,20,1105,-423,1564
-72,-75,12,1688,-50,1891
-82,-53,5,551,2,1434
-88,-26,21,-514,-272,948
-89,-66,9,230,200,147
-105,-78,19,374,-66,-305
-102,-92,7,-396,38,-643
-91,124,13,-405,44,-875
-79,91,8,66,84,-787
-72,82,6,57,-58,-669
-62,79,1,-213,-69,-583
-59,86,-1,-455,-31,-508
-60,84,-4,-354,-104,-445
-60,80,-7,-148,-91,-154
-63,99,-8,-437,-216,85
-61,118,-9,-607,-204,219
-48,-102,3,-813,-152,306
-47,-86,3,-535,-137,296
-51,-75,9,-240,-172,347
-54,-60,1,-183,-24,300
-41,-67,-1,90,54,339
-34,-67,-15,53,-20,358
-26,-67,-21,-18,18,374
-33,-62,-26,-153,-71,367
-29,-61,-25,-102,-43,359
-5,-54,-15,-139,-143,313
-13,-38,-5,-214,-170,24
