AccX,AccY,AccZ,GyroX,GyroY,GyroZ
-63,-105,-123,-602,-2313,-6527
112,-72,-128,-2480,-2444,-7124
-42,-101,-82,-6061,-2194,-9023
59,-19,95,-6598,-2388,-8026
-21,126,-6,-2492,-1106,-6931
37,-58,-11,-228,-2377,-5694
101,-61,-120,-856,-2038,-5811
-62,37,98,1292,-754,-2487
65,-39,98,3730,695,4679
3,56,34,521,3081,7678
40,-113,-12,-1636,5212,6249
-11,-118,84,2990,6377,5154
13,-119,1,543,1869,5626
-122,53,-71,136,-2519,3944
35,112,-25,-503,-467,3162
-7,-55,-43,1376,-665,3207
87,-111,-93,1151,-635,3908
68,-123,-4,718,-990,5414
-100,0,-29,-3470,-4422,4704
-125,-30,100,-3135,373,2384
-27,-9,0,-885,691,1025
89,-65,-31,569,-1469,527
61,-95,-114,-201,-1205,-587
-19,22,104,-359,-1081,-1287
40,-125,-98,1069,1452,648
-64,10,98,-989,-1750,670
41,-43,-38,-67,-376,52
-4,-68,-110,174,490,-613
-25,-76,-107,-602,-167,-256
12,-51,-64,-2753,843,-76
39,-71,29,-396,291,-145
32,-28,32,-219,-135,5
51,-9,-15,18,16,-118
56,20,-49,-203,120,-275
58,23,-51,-234,142,-216
71,9,-19,-21,-23,49
79,25,-21,-153,-9,68
85,28,-25,-46,8,-24
90,31,-41,-161,-5,-47
96,23,-42,-77,44,-35
97,25,-40,-68,10,-12
107,26,-35,6,7,-25
109,25,-39,30,-73,7
116,21,-43,13,10,0
121,21,-44,100,11,-9
125,26,-45,-36,-18,10
-127,26,-47,-70,3,-10
-122,27,-51,-137,15,-35
-117,26,-49,-154,22,-24
-114,25,-49,-133,15,1
34,-42,-80,7069,2154,-144
106,52,114,4277,3231,-426
-46,-64,33,2751,910,-2895
103,17,6,2391,-3141,-3342
73,113,58,107,-4503,-5372
-30,-56,-14,-2036,-6327,-7587
-71,49,-48,-1005,-5343,-8397
-51,-123,-11,931,-4776,-6978
107,-81,-115,630,-2440,-6116
42,-25,52,1508,105,-2920
-96,-23,-63,-187,1401,3292
-39,65,-76,-2599,2045,5959
-65,-103,85,-319,3790,7792
-86,-34,-62,-4289,2095,3383
96,81,-126,-2249,906,3868
-6,45,51,-2652,-2317,3042
-84,37,22,-1989,-4340,4762
-83,-63,-29,-2071,-4686,5780
-34,71,-55,-496,-3235,3549
2,7,89,611,-3382,5271
-44,52,-13,702,-2143,3241
-87,89,115,-1098,-385,918
111,-16,-116,91,-65,275
44,126,69,1536,-473,-287
47,15,110,1778,1603,-968
-6,9,99,-321,-416,-3
-3,-25,-13,-441,-615,467
43,-9,-65,-976,202,-139
39,-19,-87,-949,112,-101
62,-26,-33,-873,152,-154
61,-66,11,116,5,4
57,-50,-34,538,-135,15
70,-19,-58,363,49,-69
84,-1,-52,195,104,-137
80,-5,-42,-31,35,-35
83,-10,-43,-171,-20,10
98,-16,-48,-115,-20,5
102,-15,-50,-147,16,11
104,-20,-54,7,-1,-8
109,-15,-56,32,17,-27
115,-9,-56,-28,-1,-15
120,-8,-60,-126,23,-7
122,-7,-58,-70,-18,19
127,-2,-58,-119,-17,8
-125,-4,-62,-86,21,-23
-121,-9,-64,-7,11,-22
-118,-11,-63,97,1,5
-113,-4,-62,58,2,5
-109,0,-67,-14,-5,3
-105,0,-68,-109,14,-9
77,123,58,6040,1246,-2409
-107,-5,-85,2435,854,-4759
36,-87,16,1882,-1211,-4921
-45,-92,10,1750,-1708,-4809
122,120,-69,-1094,-4155,-6736
-6,14,74,-2181,-4256,-8141
53,-46,65,101,-4125,-7748
86,83,-85,-115,-3797,-7135
117,91,35,79,-3100,-6652
-124,24,-35,948,-2558,-3556
-3,-87,-14,1356,1328,1205
-87,-32,0,-59,3923,5703
-35,75,-95,-2154,4281,5411
-25,-72,-84,-400,5047,7520
-7,106,-89,-4244,2939,3349
115,76,100,-202,3891,8149
-42,7,-106,-1960,-748,3684
124,-68,89,24,409,4850
40,-48,86,814,593,3629
-10,3,88,-3198,-225,1827
-65,48,58,-5681,-1250,2518
-79,35,102,-1433,-1878,2774
-60,-65,98,-1912,-726,2027
-82,-58,93,-1119,-245,-79
79,-79,50,-803,-542,113
77,112,16,-1061,-594,-407
59,55,21,-782,-675,-105
46,52,72,-993,-728,93
52,16,113,272,-289,515
65,55,37,-448,-170,65
60,75,-67,-932,-448,618
53,-2,-83,-187,-261,-256
61,0,-61,-382,388,-176
59,-5,-28,392,-133,0
80,29,-22,299,-39,13
78,55,-54,-252,-182,-41
83,40,-62,-154,55,-136
79,18,-70,-61,7,6
88,19,-59,148,1,-23
97,35,-60,-153,-48,25
106,32,-55,-53,3,-68
103,23,-72,-78,14,2
110,23,-79,9,71,-26
115,44,-71,-296,20,-37
120,31,-57,-78,13,-17
123,26,-72,11,-46,50
125,35,-82,-82,-14,-20
-124,36,-72,-64,16,-30
-116,44,-73,-257,-1,-32
-115,34,-73,-115,49,-38
3,-98,-29,3345,1479,-3700
113,-125,-73,2254,-769,-6796
113,-21,-84,-537,-1011,-8241
-61,-122,35,88,-1832,-8564
67,-19,-12,-296,-2048,-7776
-20,-80,-31,-258,-2897,-7292
-108,7,-23,427,-1904,-6546
-87,22,78,1454,-2921,-5518
25,75,71,-785,272,-4031
-83,-72,-80,1724,1264,6802
82,84,-43,-2178,1108,8004
-81,-2,56,-1611,3343,6288
-73,-2,-38,-751,2519,8441
40,74,-123,-1326,977,5756
-42,43,-127,288,-31,7016
123,-46,-128,-1841,-2328,5520
77,125,33,-1766,-1468,2795
14,61,31,-681,392,2852
-40,77,99,-224,-854,3081
-48,90,60,-256,-956,3185
-88,-102,35,-1700,-882,2110
-128,-102,47,-1928,-1001,816
121,71,75,244,-454,282
80,16,15,1474,-95,-364
53,10,-31,475,-534,-653
35,-33,-56,-44,-532,-1126
12,43,10,-2629,-151,-1679
89,103,111,-621,1233,363
27,-68,-12,419,-1093,435
100,52,-72,-1307,-192,65
79,-18,-103,145,192,-679
48,-7,-74,-958,-19,-229
75,-58,14,-120,127,171
99,1,-18,-265,140,67
116,68,-50,-843,74,-157
104,32,-36,-482,33,-291
105,12,-34,-141,49,14
108,22,-51,55,-151,79
123,38,-41,-44,-57,45
127,40,-32,-94,-39,-6
-126,43,-39,-178,-9,-48
-126,36,-50,-44,7,-8
-124,36,-51,28,-25,36
-119,40,-45,25,-37,12
-112,42,-44,-32,7,-22
-110,40,-49,-75,-20,-15
-108,38,-52,-71,24,-44
-105,29,-53,26,-28,-1
-100,31,-52,53,-2,15
-97,37,-55,-12,28,-41
-108,-118,115,5775,2572,-306
-98,-102,-23,3224,17,-3132
-25,118,-51,591,-1264,-3748
-103,18,-46,964,-1183,-6262
68,127,-53,295,-2708,-7620
-69,118,-78,-994,-2563,-7846
11,-92,-83,208,-3516,-7327
-57,125,-85,-258,-3026,-6712
-116,-63,-30,-548,-3358,-6740
-97,-39,45,315,-3142,-5614
46,-69,-38,208,-2010,-2597
-72,-9,-64,1147,769,1991
127,47,10,-445,2650,6170
-50,-73,-114,-417,4349,7399
-47,-110,-5,-1209,5144,7009
-25,-66,-80,-1103,3968,7277
8,-55,-69,-481,2573,4932
-15,25,96,-4412,-344,3967
-125,67,94,-1670,-2163,5840
87,11,116,237,-97,5119
72,38,54,-2129,224,2886
-76,78,81,-1974,-1575,2703
-72,49,112,-1345,-1309,1965
114,-127,113,-2662,-1820,1650
115,-119,112,-2098,-878,902
85,60,88,579,-600,15
35,-5,32,1878,-739,-402
4,22,-51,-56,-302,-960
8,-14,20,-556,-36,-755
49,-53,-101,-207,739,64
15,-61,-26,-172,-450,383
42,-27,-71,-552,212,-315
37,-39,-81,-653,135,-399
46,-42,-37,-812,15,-84
59,-56,3,94,54,57
63,-27,-38,73,-38,37
75,5,-65,-297,37,-101
77,0,-56,-240,10,-103
81,-6,-48,-127,59,-38
87,-5,-49,-37,4,-23
94,-1,-51,-31,-43,34
98,2,-56,36,5,-30
101,1,-62,40,-36,-7
109,6,-63,-53,20,-24
113,3,-61,-62,-16,-23
118,3,-59,-65,-2,4
120,4,-63,-15,0,-16
125,5,-67,-13,-11,-26
-127,3,-65,12,-16,19
-123,8,-66,-14,-8,0
83,-4,-65,3038,-1755,-4213
-58,47,-36,-501,-4291,-5710
66,-115,-115,-3480,-5599,-7974
91,5,-6,-3575,-4398,-9378
-117,-85,116,-770,-4306,-7102
-36,9,-47,752,-3604,-5400
-25,-22,-114,1236,-2942,-3881
-110,-83,-109,1026,815,-554
-88,104,25,-594,2281,4777
34,-38,-16,-2260,4277,5033
91,5,56,-1612,5334,6506
-76,-99,-75,-1805,3868,7280
-20,-93,118,2069,1949,6623
100,84,109,-8506,-629,1184
81,-2,40,-3235,-4157,6697
111,-22,92,3130,-354,6279
63,99,111,1716,-428,4255
49,-118,100,-1251,-509,1059
-23,109,87,-1727,-478,1756
-34,3,88,394,-595,2002
-94,84,39,-676,-190,1786
119,43,35,117,-142,617
-128,8,76,1227,-591,790
107,-41,9,919,-411,611
71,-49,-26,-170,-504,104
47,-95,-33,124,-719,-95
21,-83,0,-1448,-806,-1021
33,-60,86,-1946,-518,-352
106,121,-63,-698,1106,545
39,-100,-4,286,-815,445
56,-87,-78,282,-443,-359
44,-128,-101,580,31,-455
47,-91,-103,-851,232,-305
69,-81,-69,-857,440,-158
87,-75,-10,-60,166,-5
97,-46,-3,9,-145,116
103,-45,-42,5,-14,-71
99,-55,-74,71,-113,-34
95,-51,-84,-195,-111,-8
104,-43,-62,-35,75,-38
114,-33,-45,31,15,28
121,-28,-53,11,-30,-6
120,-31,-70,-50,-15,-34
121,-35,-76,-48,3,-22
127,-27,-74,-77,14,-24
-119,-20,-67,-180,67,-8
-116,-10,-67,-253,81,52
-117,7,-74,-431,37,-36
-106,1,-71,-537,6,-71
-105,-6,-65,-290,47,-73
106,-46,-91,1029,-2851,-5828
-25,112,-122,-1934,-2721,-7131
5,10,-126,-1658,-3036,-8716
71,67,-107,407,-3197,-7397
23,8,-71,361,-3447,-6833
-81,81,-23,-225,-3578,-6604
75,73,32,1427,-3134,-4757
18,28,49,266,-316,-2640
-96,29,-54,489,1712,3390
91,-80,-1,-1554,2376,6756
44,-60,-124,-2161,5191,6403
3,116,-31,-1252,4848,8324
65,-94,-128,-1398,2036,7952
-57,83,60,-9413,-2091,3613
-59,-59,-38,-2633,-3603,7490
-123,122,-101,4189,-1358,6478
-78,59,65,-385,927,3274
118,-41,80,-2903,-443,1565
-6,-119,-76,-371,-1714,2187
-88,47,-85,1428,-1401,1918
-63,89,65,-187,-565,834
101,103,37,-1326,-630,275
112,69,1,-819,-174,-89
68,-18,-4,850,-173,259
65,-21,-21,140,383,285
41,34,22,-1972,-259,-385
47,-30,-96,-496,-622,131
82,-24,104,-1102,434,-295
83,-2,-13,-1212,275,-392
53,-39,-64,466,-443,-658
52,-23,-64,-32,-116,-305
72,-11,-26,-368,205,-24
88,16,11,70,-53,-102
96,33,-1,-191,16,-179
100,36,-27,-351,117,-166
101,31,-48,-161,39,-151
108,39,-43,-344,62,-114
115,35,-23,-292,44,-3
119,30,-11,61,22,11
123,34,-24,140,-58,23
127,37,-36,237,-57,-20
-127,46,-41,60,-31,-41
-123,42,-37,0,-23,-14
-120,40,-37,-49,-18,-9
-112,39,-40,-163,15,-23
-109,31,-40,2,-12,-27
-107,35,-38,-49,26,-28
-102,31,-38,71,48,-13
-102,35,-43,-83,-73,32
-94,32,-43,-4,-2,-4
-65,3,-110,-309,-3890,-6181
63,-33,31,-2833,-4390,-7815
-48,51,10,-1850,-3955,-7524
-1,-48,82,-610,-3290,-6044
1,73,-42,-741,-3456,-6622
125,-6,61,1117,-2334,-4474
19,-69,-49,230,-2329,-3583
-110,-30,-109,768,-192,135
7,-84,23,-155,2662,4391
60,-52,-50,-844,4441,5750
24,-23,6,-1702,4737,5366
-114,81,-61,594,6280,5891
-117,47,-74,2350,5117,6488
25,71,-125,-1749,3067,3619
21,-41,-88,-2903,1487,4215
93,22,115,-3896,-10,4360
65,-1,-120,-1262,1132,4276
-116,23,54,364,1329,4413
-20,-6,103,-1123,-899,1956
-29,109,60,-2407,109,2486
-127,32,104,13,-578,2186
-96,-24,53,-149,-177,1272
86,-100,52,560,-582,922
30,101,33,1128,-806,1312
10,-107,31,-419,-661,197
8,111,36,-413,-406,-55
-8,86,28,-1150,-482,-533
-22,35,-4,-694,-959,-124
-11,50,-19,-741,271,43
-54,46,-3,-385,104,-117
-26,64,0,468,2,96
-1,99,-21,368,-110,9
10,117,-50,-52,-43,-118
6,104,-52,-71,94,-100
10,112,-54,-156,37,-73
27,-127,-51,-232,99,-124
31,-123,-48,-166,-17,-78
38,-119,-50,-104,-6,-9
42,-114,-60,-25,-14,-19
49,-107,-66,-26,33,-35
55,-99,-70,-58,4,-45
61,-93,-67,-57,-50,-22
66,-94,-68,29,-23,-22
69,-92,-75,28,-31,-10
74,-86,-79,75,-89,14
78,-77,-84,-43,-80,-48
85,-74,-85,-54,80,-44
85,-74,-91,-95,-5,3
94,-64,-90,-117,37,-48
96,-60,-90,-158,-103,-36
-121,-37,27,-1934,-4477,-4145
2,-41,56,-1233,-6867,-5752
125,81,-27,-4184,-6827,-7866
83,21,73,-3413,-6601,-8058
15,92,43,-1963,-4777,-7395
-123,13,-78,1041,-2705,-4435
-33,44,118,1185,-812,-1831
104,-84,27,656,1225,2327
-12,96,45,-785,3548,4553
79,-26,-100,1575,7374,6878
78,-104,-19,1369,6954,5704
-109,67,103,5030,6569,5996
25,-16,-17,-3404,836,-764
52,-22,-16,-1788,1849,3226
108,-45,30,-2777,196,1355
-109,-56,-29,-1008,1691,4635
-67,-73,19,-1858,2125,4416
-104,63,30,-2592,1061,5044
89,84,-23,-1705,1286,3529
22,-119,-27,-2125,-135,1441
-39,-72,-18,-1082,-357,896
-93,69,6,851,-425,1772
92,59,-20,-417,-1343,1486
94,42,-70,-1669,-696,123
49,-108,-31,1368,-527,112
32,-77,-39,531,-631,157
33,-70,-35,-102,-391,116
44,-100,-3,308,248,-165
23,102,-38,759,-202,-9
15,105,-78,164,-306,-113
34,120,-70,-768,126,-169
34,102,-39,53,-10,38
48,126,-38,176,12,-32
53,-123,-63,66,-60,-51
50,125,-75,61,-65,-15
57,-118,-83,-147,12,-29
64,-105,-76,-104,-19,-14
70,-102,-74,-124,-42,37
73,-102,-80,-29,-19,-17
77,-102,-85,64,-18,2
77,-93,-89,-3,-82,58
91,-81,-91,-53,26,-55
93,-83,-92,-73,17,-44
93,-78,-95,-95,27,-47
98,-76,-96,-63,-69,36
107,-65,-98,-55,22,-76
107,-64,-99,-83,-19,-31
113,-62,-100,-17,45,-38
116,-58,-105,-60,11,-62
120,-53,-102,-82,-5,-18
-108,84,-37,2835,-2664,-3644
-74,69,-18,593,-2927,-4816
-10,48,16,-1720,-3653,-4889
-40,29,31,-918,-5777,-5961
-8,116,-60,-3079,-5169,-7738
17,39,31,-3263,-5741,-8270
65,71,-34,-1778,-4759,-6782
-43,53,111,158,-3531,-5079
59,-105,35,1713,-1825,-2186
-102,77,-43,1539,-715,325
14,9,115,12,2089,2437
9,-92,63,-923,6137,4670
-102,-22,-34,-1297,6367,5029
-57,-58,-33,-163,7220,5288
43,-32,113,119,5797,7131
-36,-107,-99,1247,3818,5106
-95,0,-103,-4486,2376,2563
-61,56,-12,-4465,-541,2565
46,-49,-22,-894,1339,3185
-41,-14,100,264,126,4533
43,117,51,-1157,1320,3864
-12,-81,-20,-3677,1001,2486
-60,125,-15,-1850,-571,1403
-41,-128,43,-221,-1115,1678
-101,76,-11,-748,-1015,501
93,42,-46,-1149,-706,-158
70,-3,-49,-425,-659,179
39,-35,-19,909,-1144,695
101,83,46,-556,917,-1138
46,-29,28,584,-314,-366
25,-73,-45,117,-797,405
46,-58,-87,-629,402,-195
15,-94,-82,-188,-129,58
24,-80,-75,-45,-312,51
65,-34,-36,-194,506,-473
53,-47,-14,411,-385,24
67,-46,-42,334,-87,55
62,-57,-79,272,-144,100
64,-47,-97,-128,46,-2
74,-38,-85,-198,34,-44
87,-29,-66,-239,54,-90
88,-35,-63,-120,0,-24
87,-39,-71,-15,-55,20
91,-37,-79,94,-49,-14
98,-30,-84,76,-50,18
105,-18,-85,-39,23,-45
108,-22,-85,-80,24,-36
111,-24,-88,-57,10,-7
115,-23,-88,-1,-33,-24
119,-20,-87,36,-41,-48
-27,-73,105,2867,-2115,-3703
37,16,99,548,-4386,-3470
-116,32,-114,-425,-5146,-4639
113,-13,-29,-1410,-5913,-4410
81,-68,6,-1147,-6821,-4700
-117,-115,-38,-2315,-6831,-5641
-4,63,-78,711,-4199,-3694
44,-83,-127,926,-2793,-2026
106,-34,101,239,788,786
-60,58,79,-1274,4234,3596
45,127,-63,-1823,5095,4879
69,116,-8,82,6931,6120
-102,-1,-103,630,5755,7146
-52,-53,-73,-1784,4547,4711
-120,-29,5,-2935,1423,5486
20,-32,42,-4163,1481,3448
9,-104,-4,-585,1585,3640
62,-15,-1,-776,1429,3780
88,19,-65,-2012,507,2513
-11,87,-48,-1275,150,2344
37,17,-46,-340,409,1698
-30,-94,-39,-2948,3,1326
-62,112,-57,-1927,45,703
-110,113,-28,-1125,-663,605
-123,16,-47,814,-845,351
105,9,-79,250,-926,-204
49,-28,-56,-94,-1293,-241
56,-87,-6,-144,233,-20
44,-74,54,-258,657,-193
33,127,-8,1215,-553,426
70,-91,-78,685,-133,11
61,-98,-100,245,-99,-117
67,-95,-82,119,153,-114
84,-78,-61,-36,43,-51
90,-68,-59,-423,16,-48
91,-81,-58,-364,34,-38
92,-88,-63,-121,6,-41
99,-78,-61,-104,-13,-28
104,-74,-55,149,6,-46
108,-66,-58,222,-124,37
113,-62,-67,239,-36,2
116,-58,-81,44,-27,-3
123,-52,-85,-138,36,-65
-128,-50,-76,-102,25,-66
-125,-52,-69,-32,11,-72
-126,-51,-71,-4,-38,8
-119,-45,-72,-6,-18,6
-111,-38,-78,-104,-25,-16
-108,-37,-74,-85,9,-31
-105,-33,-74,-43,-35,7
-77,-17,92,1495,-2838,-4015
-109,-67,-105,165,-5650,-4989
-45,-32,44,-2634,-5937,-7306
9,-79,37,-2956,-6649,-8520
91,-94,-95,-2900,-6014,-7924
16,-98,56,-144,-4306,-6185
-97,-112,32,1509,-1124,-3351
-49,78,3,2954,497,1714
-59,-95,69,-1327,1996,3821
-35,-9,24,-1806,4861,5315
-47,64,123,-2015,5583,5029
-18,-6,-69,-67,5673,7710
-14,-42,40,-104,5139,6116
115,80,97,3226,1126,9064
-85,104,-125,-3445,1604,3600
-96,27,-41,-4670,-15,1443
-3,-20,-39,-1717,1934,3762
60,-82,39,5230,1595,6457
82,-87,-123,-3578,2040,1873
-57,-99,19,-3499,46,943
50,-67,-40,-3472,1191,1713
-70,-62,5,-2776,-256,658
127,-118,61,467,-1641,1772
115,37,5,2282,-1945,1132
69,16,-63,825,-1208,-63
34,-15,-64,-613,-241,-438
34,-69,-27,-894,403,-304
17,-116,-3,-161,44,-52
33,-114,-22,215,-83,130
38,-103,-32,516,-18,-15
38,-85,-47,408,-237,114
55,-77,-58,136,15,-71
59,-81,-60,-111,15,-86
64,-79,-54,-263,45,-116
61,-83,-47,-138,0,-18
66,-84,-48,124,-52,9
81,-85,-55,295,68,158
87,-72,-64,169,38,4
88,-68,-66,-69,-65,-61
98,-75,-58,-19,-15,-50
96,-75,-59,55,-91,26
103,-67,-61,117,0,14
107,-60,-69,64,-98,-2
112,-61,-72,12,-13,-28
114,-62,-72,-34,-9,24
123,-50,-79,-114,39,-9
127,-50,-78,-112,-38,-55
127,-45,-73,-136,16,-33
-126,-48,-69,-72,0,6
-121,-48,-69,38,-17,20
-109,118,-50,1165,-3452,-3566
-118,73,-45,562,-3508,-4122
-76,68,-68,-758,-2988,-5476
1,89,-45,-1282,-3699,-5809
-14,-21,-1,-1696,-4353,-8097
97,-126,108,-1621,-5564,-7483
121,52,39,-2285,-3985,-6541
30,-87,-100,91,-3488,-5825
-98,49,-73,127,-1792,-3969
99,72,69,1711,-1084,-1477
-20,-34,77,-656,1255,260
2,-99,50,-1788,2496,3202
122,5,-105,-916,5300,6195
79,41,4,-2086,4504,4936
104,18,-119,1937,6196,8384
3,103,-35,-3182,2494,2921
99,47,110,-1303,214,5182
-48,-82,-124,-2412,596,4910
82,-47,50,-2992,895,5294
-103,92,82,-2622,918,5952
-126,-94,41,-1613,1114,4718
114,-67,-23,-561,1118,2460
55,-63,-65,-297,610,2884
-55,44,-32,1122,-1311,1330
-102,-23,-34,91,-796,1031
109,-88,-23,-397,158,629
69,-93,-45,-783,73,412
55,-98,31,1338,-1258,993
123,0,73,605,-853,-389
108,-24,16,-641,379,-695
21,75,-11,404,-553,129
17,69,-58,-143,29,-25
34,-116,-40,-1642,537,-381
57,-117,43,65,59,-183
67,-104,47,497,-266,136
76,-77,-20,-134,-255,-176
73,-83,-44,-498,-28,-97
84,-105,-36,302,74,26
99,-61,-25,-179,62,-51
103,-48,-12,-250,-8,-116
97,-64,-13,-42,-87,40
102,-69,-29,130,-71,-15
110,-61,-38,128,-13,9
124,-39,-40,-277,172,-193
123,-43,-23,51,-160,28
-126,-35,-26,55,72,24
-122,-35,-46,-161,-24,-55
-121,-38,-38,-157,-23,-67
-117,-36,-25,-21,12,-12
-111,-30,-28,-28,-36,-7
-87,-46,37,981,-3078,-5492
-65,-59,54,1396,-2960,-5778
101,-36,68,887,-3473,-6030
-40,-56,108,818,-3345,-5815
-101,-83,110,-389,-2384,-6631
-117,-126,-73,275,-3109,-6758
-77,70,-85,483,-4067,-6496
-121,-127,83,822,-4969,-6634
-121,-122,-59,1900,-2409,-3976
-71,-84,-101,1475,-310,-2039
74,36,49,1286,1656,4441
-24,-14,41,-3424,2228,2455
39,5,-120,-1990,3890,4482
11,77,33,-1974,4344,6024
-41,-23,17,-1425,4970,7406
-78,-104,67,-414,3540,6852
-127,-73,30,-2506,2390,3758
73,-72,-45,-3189,493,2706
110,-56,53,-4711,1019,2041
-30,31,32,-1614,-849,5489
11,-29,70,-2608,-1260,5800
108,-27,49,-2656,-588,2885
48,50,29,-1828,-557,1699
-36,-52,59,1048,-664,1877
-80,119,1,2301,-717,1021
117,-113,-93,-430,-795,23
84,38,-59,25,-986,-94
31,-60,-5,1220,-1258,35
18,-57,35,751,-464,337
54,-19,57,-349,834,-285
18,-82,-23,-248,-455,-30
33,-104,-63,-144,-57,-433
22,-102,-62,-352,-152,30
21,-100,-38,7,49,-6
47,-79,-27,359,57,21
57,-61,-42,-17,-53,-29
65,-58,-47,-195,-11,-63
62,-71,-56,-129,19,-39
64,-69,-54,-7,20,6
75,-56,-57,-96,10,-14
83,-51,-51,-52,3,-19
87,-48,-55,-28,-42,10
90,-47,-63,-3,-4,-24
95,-44,-66,2,-14,-8
99,-41,-64,27,-22,-1
108,-33,-63,-37,8,-33
113,-34,-66,-64,-4,-33
114,-34,-66,20,-17,-38
118,-35,-67,47,-32,-5
126,-28,-68,52,-29,-30
-57,-53,-97,3250,1313,-4061
-62,125,70,3849,-361,-5929
19,94,-11,1541,-400,-7550
37,28,94,2100,-3418,-6644
127,79,-99,85,-3719,-7245
69,5,-53,-681,-4689,-8065
103,79,19,317,-4458,-7401
92,10,104,807,-3652,-6806
1,-7,-41,-18,-1124,-6112
59,-62,48,1508,629,-589
-12,82,-5,-429,978,3769
-45,83,-12,-1638,4060,5566
-95,-71,-107,-2052,5054,5130
-26,-14,-4,-3627,3201,4955
22,46,-105,-1817,2526,9260
-84,47,-11,-3202,-2759,4817
89,59,75,-3845,-1202,6574
48,-10,73,212,98,6419
65,18,72,1016,881,5054
-34,-114,55,-1603,2339,3741
-85,62,11,-3905,137,2787
38,7,69,-788,-1804,2092
8,-50,76,31,-1659,1941
-89,-92,31,-474,-1061,1266
116,100,5,17,-682,489
71,24,-17,792,-1334,182
61,43,0,-263,-1218,-334
33,-2,62,-662,-477,-732
43,-45,82,-703,960,22
16,-59,-11,400,-196,-398
8,-17,-94,-56,-338,-480
21,-23,-84,-838,32,-156
21,-27,-53,-1189,338,-85
28,-43,-4,261,-44,57
51,-7,-25,252,-74,24
55,4,-49,71,-150,36
61,5,-64,2,-10,-89
62,-1,-60,-11,-32,-10
69,9,-54,-50,29,-52
73,2,-52,50,-15,12
80,6,-63,48,-8,-24
85,8,-69,-10,-13,-39
88,14,-68,-37,-19,-46
90,8,-63,93,-81,14
100,11,-68,44,-34,-1
105,13,-72,4,-18,-14
108,22,-76,-154,19,-45
111,16,-74,-122,7,-8
117,16,-70,-124,23,-19
121,12,-71,25,-2,-9
8,33,1,721,141,-7442
32,24,-120,2111,-1684,-6792
12,92,111,174,-2725,-8106
-30,48,29,-1078,-4189,-7760
30,54,120,834,-5237,-6153
60,95,2,718,-3671,-5728
-81,-60,-90,-336,-1312,-5577
-110,75,-123,2036,308,-529
26,-104,50,-1230,1808,3131
-60,88,26,-2397,3771,5422
-48,100,-102,-3909,4543,4745
65,108,-71,-1575,4884,8003
-112,-89,-28,-2719,1950,5764
-55,95,-1,-275,961,7910
1,-119,-62,-1580,375,5522
52,56,46,-3881,-1089,5045
113,25,27,-2307,994,4905
109,-11,59,-916,-114,4544
-122,-119,-47,-4214,-564,2283
-48,-46,49,872,-1745,2480
-57,-112,-1,1631,-1030,969
107,-83,-104,-2279,-280,-157
78,23,-92,-942,76,-586
16,-53,-51,395,-591,-73
-8,41,-7,-1514,-832,-166
104,73,105,-1250,1515,-283
46,22,82,-570,-387,223
51,0,-52,148,-371,-224
37,-3,-80,360,-22,-374
10,-39,-90,724,-361,-211
40,-9,-89,-658,323,128
49,-30,-37,782,-39,117
78,-8,-14,634,66,-13
75,-21,-37,624,-337,88
70,-33,-75,451,-125,69
73,-23,-103,1,-21,-59
85,-20,-88,-324,130,-134
91,-20,-59,-253,88,-92
91,-21,-57,-100,-35,3
97,-23,-70,-58,-31,12
99,-22,-76,66,-21,-27
104,-19,-75,97,-22,-37
108,-17,-72,228,-62,-10
115,-12,-76,126,-52,-11
120,-11,-88,-33,-24,-33
119,-12,-88,-117,-10,-18
125,-15,-83,-55,1,-30
-125,-11,-83,-57,0,-47
-125,-12,-82,-17,-30,-16
-122,-13,-85,48,-27,-13
33,115,34,-395,-3475,-4525
-107,-81,-68,-1685,-3962,-6453
108,-85,-36,-1102,-5308,-6665
-63,14,106,-397,-5759,-5929
-69,-52,-1,385,-3475,-6404
2,-50,-60,2156,-252,-752
-120,8,85,-2074,2176,844
-89,-83,-1,-1847,3683,3358
75,-70,82,-2256,3792,4290
-101,22,-13,-2366,4156,4806
-95,123,-83,-1715,5073,7556
83,-120,-51,-1183,2941,6635
-63,113,-72,-2695,2125,3447
116,-49,-128,-2015,606,3947
35,-13,100,-3480,232,3027
8,83,83,-2128,-319,6038
-128,-51,-79,542,985,4713
109,107,52,-1947,746,4024
66,-107,-12,-2485,-813,1147
-11,102,52,-1532,-975,175
-70,8,25,-714,-254,335
91,-15,-2,-58,-676,389
90,-31,-27,278,-946,407
73,-73,-49,1074,-1536,522
56,-30,-29,-123,-1032,4
119,21,41,-1070,1556,-859
-2,104,21,449,-703,43
40,-123,-41,44,-140,14
53,-110,-81,-264,208,-265
48,-94,-75,-668,151,-26
54,-101,-23,12,52,16
77,-79,-7,127,56,40
85,-65,-44,-137,-135,-11
86,-69,-56,-211,-2,-69
83,-78,-59,-22,-42,-46
91,-68,-50,-7,24,-19
102,-55,-47,-22,-21,-19
105,-49,-50,-57,-31,-36
109,-53,-57,-8,-13,2
112,-52,-63,5,-12,-18
119,-46,-60,-18,6,-32
123,-43,-55,62,-9,5
-127,-38,-61,9,-12,-5
-124,-38,-66,2,-21,-28
-122,-34,-66,-56,2,-36
-118,-35,-63,-19,-18,-14
-111,-32,-62,-35,-6,-19
-110,-30,-64,32,-87,-42
-109,-32,-65,-23,-84,-12
-105,-30,-66,-37,11,-24
-93,-119,106,3486,2159,-4134
115,-97,65,2700,-120,-2817
119,-92,-112,1237,-1998,-3744
97,-74,-52,1154,-2660,-3399
55,-102,-32,1685,-1614,-2784
-95,-116,-87,1793,-1439,-1762
100,69,80,1594,-2070,-853
104,52,32,565,-1966,-1961
-101,50,36,1018,-3356,-2585
-28,114,9,-729,-4414,-4325
-30,105,64,-1470,-6158,-5472
58,-14,-40,-943,-5952,-5600
-110,45,44,-892,-3637,-5400
-92,27,96,1685,-695,-3340
66,-91,31,1872,1886,1056
-62,21,-15,-1424,1090,2269
46,-36,-34,-4355,2297,1806
0,-22,64,-1820,4357,6255
-126,33,9,-2490,4656,5393
-45,-72,-73,-1001,3794,6059
44,-82,-111,-3275,179,3257
45,83,96,-1752,-1735,4209
27,-48,72,-572,896,5657
35,-41,72,241,2604,6194
-7,108,65,-3366,593,5531
19,-12,39,-4976,-1019,1145
27,-36,22,-2838,23,2459
-45,-88,-118,793,-870,3269
-88,-98,61,-223,-772,1504
-100,83,17,-706,-456,455
115,15,5,39,-375,814
68,-22,-4,405,-797,669
64,-36,-20,514,-561,517
62,-43,-52,-194,-267,354
65,-34,-59,-632,-52,23
43,-57,-25,-402,-657,30
42,-47,18,-556,-757,23
48,-78,61,-265,-44,-15
38,-79,32,123,54,-26
26,-85,-48,636,-636,-171
40,-67,-99,143,61,-327
37,-82,-88,-97,386,152
41,-58,-89,-494,153,128
74,-34,-48,-400,152,-123
82,-30,-27,-253,-56,-153
81,-50,-32,98,-95,-79
79,-49,-67,328,-78,-88
75,-50,-81,262,-156,22
88,-38,-81,35,-18,9
100,-25,-65,-13,-12,-55
117,-74,-52,2721,-2979,-2932
-109,-125,-100,642,-3229,-4218
-91,39,-36,-78,-3428,-4091
118,17,-2,-1044,-4838,-3893
125,70,-90,-3471,-4902,-5912
-27,-42,-9,-2093,-3837,-5580
-51,-27,110,-3042,-3336,-6056
-126,-71,-82,-1952,-2574,-6056
65,122,-64,-1032,-3208,-5939
79,-73,16,810,-3120,-4189
34,47,103,1850,-687,-2276
-125,-123,-40,2932,1241,1473
-106,22,66,-381,1319,1542
-82,102,6,-2888,1933,-46
28,65,107,-1291,3291,2730
-23,-123,27,-1153,3770,4589
108,97,-48,44,5454,6594
31,-109,-84,4218,5532,6872
103,-95,66,-2746,255,-208
-30,-53,-20,-1877,1576,2458
47,-61,81,-3098,-822,250
57,-120,85,-1409,177,3706
79,88,-91,-1137,907,4784
-86,127,-69,-1040,787,6936
-47,75,105,-1399,-478,5931
71,37,-51,-5701,495,3073
-85,-78,-24,-1575,281,1294
123,-128,122,1479,-968,2748
-96,98,48,852,-246,2026
73,126,-20,-1143,-332,1176
87,52,-42,-525,56,352
34,-29,-42,515,-797,379
10,-9,-69,-621,-875,297
-13,-49,-72,-212,-682,102
-43,-49,-59,-64,-772,39
-11,-27,-15,52,252,-508
33,-18,34,-496,528,231
-17,-17,-23,-848,-160,-34
3,-44,-64,-506,97,-121
-15,-62,-83,-8,-88,-119
-4,-39,-81,-34,5,21
18,-22,-56,231,-4,-23
29,-4,-61,-182,4,-7
34,-12,-66,-161,31,-30
34,-20,-83,-48,6,-24
36,-15,-87,9,-1,-75
44,-19,-78,207,-21,-91
53,-13,-70,312,-82,-20
57,-18,-76,411,-58,-41
62,-12,-96,201,-69,-24
-37,7,-67,-2725,-5256,-2539
-99,-9,-43,-2983,-5442,-5581
-62,17,31,-3404,-6709,-6017
112,53,-106,-4609,-5438,-8464
121,97,-42,-1898,-5183,-7387
-16,112,-90,884,-3320,-5870
109,-78,-24,1387,134,-3465
16,99,107,1168,1954,2076
98,113,77,-3184,1777,1214
-46,67,-77,-1954,4153,3569
-77,-7,23,-2399,3723,3962
-74,-53,-74,-847,4914,6713
-34,-73,-82,641,4391,8285
91,-117,-15,-695,3084,4957
-65,-102,-60,-2535,2920,4221
23,6,40,-4609,320,2578
83,41,-36,-2965,1482,4985
104,13,54,1605,443,4448
98,-103,-60,-2526,758,1475
6,111,-72,-2530,-160,1093
-2,13,46,173,-506,1713
-72,66,14,-1538,-376,1373
-65,38,-15,-1669,-14,581
-122,86,-14,-2442,-494,1271
-101,49,-22,-1071,-496,517
123,28,-38,2,-893,445
73,21,-58,206,-1478,418
42,21,-38,176,-1253,117
44,11,24,1281,-852,-5
94,27,15,-10,707,-380
46,-27,-96,-728,114,-216
26,-50,-122,-381,61,-291
16,-65,-120,-128,-62,-254
38,-55,-87,171,85,48
52,-47,-62,600,-92,9
68,-13,-87,16,2,20
73,-15,-86,-259,-10,-13
75,-28,-87,-213,100,-16
79,-35,-86,-93,138,10
89,-32,-85,3,115,16
98,-27,-75,189,39,-52
105,-19,-78,241,7,-105
107,-15,-92,47,0,-66
110,-15,-93,-8,32,-23
119,-10,-86,-113,87,-1
123,-7,-79,-185,75,14
-126,-8,-81,-116,37,-7
-121,-4,-83,-103,41,-83
-120,-8,-77,53,-14,-76
-118,-8,-78,101,-51,-23
29,-128,55,-841,-5092,-2662
-77,-42,26,-4300,-8075,-3779
0,51,-52,-5016,-7407,-6242
80,-46,104,-3034,-7220,-6805
-68,-42,108,-1045,-4424,-7101
116,103,56,1194,-723,-3553
26,2,63,823,-480,-1288
-22,-104,29,-2024,2678,3284
72,53,3,-1157,3872,7359
80,-104,123,-3275,4685,5268
94,69,-74,-947,3658,8275
-38,99,106,-1153,2754,7637
-20,85,64,-3138,-2000,6543
-70,18,21,-1887,-99,5266
87,-2,-46,844,626,5674
63,-46,-88,-3032,-518,3823
-92,-96,-13,236,521,2195
9,-116,-2,-2045,-1477,2249
-52,41,29,-755,-1803,2177
-106,74,7,-2670,-1131,1476
44,-51,-4,-1180,-1311,869
22,125,51,970,-1511,425
68,122,69,-133,505,-923
-14,97,-48,-1664,-538,413
-26,38,-79,-731,35,-28
-42,34,-112,-402,-34,-50
-32,56,-124,-973,279,142
-2,71,-74,-667,579,-189
16,67,-41,4,2,-36
29,76,-36,182,-57,-1
19,86,-71,270,-160,20
25,94,-100,173,-34,-70
37,103,-101,-131,26,-78
37,95,-81,-98,50,-79
40,77,-80,166,-86,-3
50,85,-95,101,-42,-33
49,84,-103,86,-57,-25
54,88,-101,74,-16,-59
62,84,-102,121,-32,-53
63,83,-106,27,-29,-29
66,80,-112,-17,-16,-35
69,78,-117,-61,-32,-54
72,76,-116,-15,-37,-22
78,77,-115,-23,1,-41
81,73,-118,4,-36,-9
86,75,-123,-15,-25,-17
88,76,-124,-45,-37,-10
92,73,-125,4,-9,-37
95,71,-126,46,-65,-28
98,73,-125,94,-15,-24
-87,29,98,-906,-4763,-2835
42,68,13,-3280,-5615,-4413
-37,-120,-56,-4007,-5957,-5460
-86,21,42,-4016,-6846,-6628
-110,-81,-100,-2275,-4559,-7112
-33,33,3,-951,-3794,-5847
67,58,-61,-1285,-189,-4754
-82,98,-23,313,1400,1271
-119,127,-124,939,2574,8762
-105,43,43,-1721,4146,5138
14,67,-114,-709,4442,6331
47,84,114,-12,4455,7668
-21,88,-107,-1358,3343,5941
-100,-55,108,-3610,-1411,4967
-67,-2,97,-2849,1381,5199
64,113,76,-2787,-145,4671
-111,100,88,-2159,25,3179
-121,112,92,415,625,3600
108,118,25,-825,20,1121
4,-65,0,-3918,-973,263
-34,40,40,-306,-1055,328
-94,-24,11,1019,-1268,811
124,12,-49,-944,-945,77
79,14,-64,-1643,-1096,-131
33,-44,23,1138,-1952,523
81,0,33,1004,-153,-322
103,7,-3,-203,960,-131
39,-53,-100,-343,-532,-354
50,-59,-112,-370,-16,-620
46,-61,-111,-728,175,-245
44,-40,-98,-805,36,6
56,-38,-84,-184,-81,20
70,-23,-74,56,-263,104
88,1,-54,191,174,-138
77,-9,-70,401,-209,104
80,-5,-103,190,-99,8
83,-8,-121,32,6,-52
86,-7,-116,-37,-42,-52
94,-4,-98,12,20,-47
97,-5,-93,63,-41,4
101,-8,-106,35,-26,-3
101,-12,-115,88,-19,-23
105,-8,-118,58,6,-57
109,-6,-113,106,-19,-49
116,-5,-111,46,-35,-22
120,-2,-115,-17,7,-23
120,-1,-119,-39,-7,-47
125,-1,-116,-49,18,-25
-125,1,-117,-47,0,-47
-121,4,-111,-65,11,-34
-60,102,-125,4859,-237,-3504
-120,34,25,4631,2093,-3305
-32,29,-21,3293,797,-3393
-49,-3,120,1658,-3139,-2082
108,-10,106,353,-4171,-3813
-44,3,85,-639,-5422,-4725
103,121,13,-1937,-5937,-6872
-44,-80,-7,-1693,-6063,-7717
40,37,121,-359,-5948,-6911
110,-103,0,-971,-4530,-7260
46,-100,-42,-630,-3767,-6174
38,-5,126,355,937,-2534
-102,54,-28,-702,2599,4496
-114,-32,118,-694,2923,7781
44,-119,-21,-934,4001,6973
98,53,92,2050,5947,9033
11,17,-90,425,2393,7720
-20,91,107,-2415,2499,6223
-123,48,106,-3529,116,5468
-12,25,9,-1093,3498,4768
-82,39,-27,1751,1177,4455
-128,-118,-80,-1982,606,1919
49,19,-71,-774,90,1509
-23,-18,9,651,-608,2491
-68,-92,-9,-136,-666,1899
-105,-60,-48,-1446,-105,895
119,-71,-77,-1749,-252,321
72,97,-66,221,-892,120
34,-97,-1,483,-1570,-73
101,-48,74,17,589,-646
18,88,48,1301,-423,16
33,46,-63,1079,-437,57
19,66,-112,-727,-248,-294
14,68,-61,-1001,139,-267
25,87,9,286,160,46
46,119,-7,366,-149,133
62,122,-68,-129,-39,-75
50,108,-80,-276,-47,-116
53,110,-64,-8,-55,-53
69,-120,-46,85,2,-5
72,-114,-54,49,-14,-3
76,-109,-73,-142,53,-72
78,-109,-72,-122,-8,-22
95,-99,-60,149,-61,0
104,-77,-65,67,-33,-123
92,-89,-71,96,-127,-71
93,-105,-73,311,-46,7
98,-95,-83,230,-103,56
113,-80,-90,67,-90,-44
114,-78,-96,-186,24,-76
-114,-108,51,3215,-1798,-4592
-111,87,98,3481,-3026,-4936
-119,61,-113,2680,-4211,-4018
125,-25,-69,1231,-5609,-4426
19,-80,-47,-2659,-6025,-5957
88,12,-11,-3026,-6177,-7378
-55,118,123,-291,-5413,-5673
113,-39,0,749,-3700,-4598
-9,72,-101,965,-1577,-1440
-29,-18,-87,-506,2363,1549
-66,106,38,-763,3403,4436
73,104,86,-2063,3598,3183
63,43,125,-1372,4136,5919
-12,19,109,988,3855,8429
-51,-75,93,-2078,2388,6022
90,-109,102,1884,1682,7375
98,105,-85,-5594,2615,2184
-45,97,-101,-2284,758,3933
-42,-113,-19,482,684,4543
-50,-54,-13,-1272,-979,3030
-50,6,-48,-2774,239,2263
-65,-76,11,-1288,133,1360
-104,90,-1,648,-780,1089
107,124,-64,-999,-903,770
79,41,-120,-214,-506,321
15,7,-120,573,-1246,326
6,1,-124,602,-907,-56
125,113,32,13,1357,-995
14,12,-24,7,-687,232
30,3,-64,-425,-23,15
20,-15,118,-512,240,-139
26,-3,-127,-785,32,-127
46,-2,-71,-248,205,-246
58,13,-24,39,-66,33
61,17,-48,275,-185,40
63,16,-81,178,-95,-47
64,17,-109,72,-28,-65
72,28,-98,-111,37,-71
83,32,-74,-67,46,-74
82,25,-80,-36,-68,0
86,22,-88,72,-17,-47
90,24,-97,100,-82,6
96,34,-93,27,23,-71
100,33,-98,-43,13,-61
104,32,-98,-101,0,-23
108,31,-98,-44,25,-61
110,32,-98,-49,-13,-43
117,30,-97,34,-11,-32
120,33,-100,30,-55,-30
126,37,-101,-26,-11,-40
23,-31,-20,217,-3496,-4952
57,-15,44,-585,-5182,-4855
59,6,-15,-2006,-5615,-5814
104,-11,-26,-2069,-6164,-5547
-124,97,4,-2673,-4407,-5707
-46,28,98,-3434,-5126,-6689
-95,97,53,-1299,-3893,-6434
80,-108,-21,1477,-2467,-2162
-65,-100,102,2536,1010,1751
79,-2,77,-1933,4845,1315
-37,37,-11,-295,5856,4238
43,69,4,-1773,5319,4792
79,-66,90,115,5179,7319
17,-97,72,-3543,2622,6348
-108,121,118,956,882,5993
-65,79,39,-4868,2792,3735
126,-39,-11,-1272,717,4894
120,-24,-59,1429,827,5605
56,-119,-35,-2798,-386,3087
49,110,-31,-2137,1659,1481
-8,123,-8,-1664,99,1675
-54,-16,14,1001,-635,1583
-71,77,-60,-1918,-425,-351
106,0,-55,-965,-1418,-395
50,-49,5,2032,-2637,907
59,70,0,-637,-1152,-462
88,17,-10,-591,1121,-172
-17,-88,-66,-305,-861,-116
11,-71,-111,-530,336,-187
4,-75,-114,-245,-75,-126
13,-63,-93,-304,190,-60
42,-35,-56,134,-4,-50
54,-20,-62,14,5,-33
51,-21,-87,-82,-21,-59
46,-31,-107,-22,-80,-16
54,-22,-101,-38,35,-80
66,-22,-93,8,27,-63
71,-15,-91,6,2,-31
75,-10,-99,-100,31,-49
77,-16,-102,-2,-31,-44
84,-15,-100,112,-18,-59
89,-6,-102,94,-23,-14
93,1,-109,-44,21,-45
102,5,-110,-153,-9,-48
102,-1,-104,-34,-11,-53
105,3,-106,-52,13,-46
110,4,-111,-31,-33,-63
116,7,-109,-53,21,-54
117,9,-109,-108,-134,-80
119,16,-116,-142,-50,-96
