AccX,AccY,AccZ,GyroX,GyroY,GyroZ
116,-46,-73,2252,-3621,-4719
-69,-87,105,1404,-4819,-5676
-93,90,-21,-3058,-6735,-7239
-41,-93,7,663,-5660,-5585
2,54,-114,2042,-6831,-3271
-105,-123,-107,1204,-5611,-1489
54,115,10,833,-3237,-126
19,110,-36,978,956,80
22,20,82,308,630,356
29,37,0,508,238,-28
27,-6,-2,-238,34,244
29,-31,60,403,0,441
66,21,81,-180,245,-146
90,11,82,239,162,-22
-109,32,72,63,180,-130
-83,28,53,-27,13,-150
-79,10,59,-76,-139,-2
-49,3,76,48,-47,-16
-26,15,79,20,-73,-43
-6,25,91,52,35,-141
10,39,87,-130,100,-279
6,54,108,-4,-200,-38
54,46,-108,-3,255,-90
81,28,-83,-43,742,-79
-50,27,12,-1350,1927,-798
58,-1,58,-3535,3458,-1003
-86,-118,103,-3490,4117,1966
36,-124,103,-2776,4165,5658
-85,11,67,-3392,2614,6147
-79,30,36,-3294,1726,8896
-18,-67,-47,-4244,317,2439
4,55,-51,-298,-2935,5593
-12,120,63,-2264,-1729,3024
-47,44,68,-862,-1057,978
-124,-28,32,524,-673,1439
22,-87,-2,1793,-1102,623
11,-114,-41,1069,-593,-58
3,93,-55,459,-191,-231
-10,75,-69,-804,-40,-334
-7,41,58,176,-245,61
27,35,38,-614,772,-1
22,94,117,-735,-342,-137
50,43,89,178,260,-162
41,77,85,-386,-137,-118
41,67,-112,180,-329,142
54,71,-82,487,39,98
69,108,123,-84,50,-93
74,104,103,31,-39,-129
75,100,107,134,77,-44
73,109,107,202,-45,7
45,-35,-68,-822,-2703,-6397
-82,-76,-114,-653,-4414,-6881
-78,44,-94,4519,-6824,-5727
-27,-108,-16,-877,-7011,-4256
105,73,100,632,-4992,-1833
-76,80,49,1006,-2259,209
-124,117,-93,39,-658,218
42,-69,33,687,150,598
-29,41,115,262,494,-176
-53,42,55,-265,-168,117
-10,21,78,-38,-181,263
70,36,-116,-157,214,-37
-111,-105,11,452,1513,1153
64,76,64,371,3384,1241
-23,90,13,-521,4142,1788
97,108,-60,-1136,4244,3265
-61,-37,85,-3496,4416,4953
80,-41,-50,-2319,3725,3677
-62,-49,-52,-3270,-797,6706
35,71,117,-2351,-1267,2862
95,-40,-114,1608,485,4423
48,-6,-73,-607,1239,2928
-3,-44,-70,-412,-69,3082
-14,-61,-71,-660,-579,2099
-107,-17,-91,-986,-1009,939
82,-48,-98,-146,-853,-391
65,102,-111,1346,-263,-1044
66,68,-125,1829,-98,-486
36,48,119,1564,-458,39
16,56,-33,1205,-184,326
62,60,112,-568,1240,-278
37,47,95,83,-1100,399
93,68,116,-1298,77,-285
102,45,60,-520,707,-753
89,62,81,-1163,-33,-463
83,28,-125,100,-89,168
94,52,119,462,-35,213
111,109,68,98,-253,139
121,115,75,10,59,-91
118,121,78,-139,61,-84
122,118,76,-216,-6,-66
-128,114,75,-40,10,-9
-125,122,66,-9,-42,-2
-119,127,62,70,-3,0
-118,-118,58,21,-50,-5
-112,-114,62,46,-27,-3
-108,-107,56,-58,-50,-11
-106,-108,54,-2,-50,-21
-101,-109,51,22,0,6
-100,-101,53,79,-13,20
-21,15,-122,-565,-2972,-5657
90,-25,60,233,-2597,-6608
-55,-33,95,53,-3484,-7139
44,63,-78,1838,-2990,-6474
124,1,106,1248,-4864,-3757
95,-51,35,1813,-3408,-930
67,107,124,622,-2133,1048
35,-97,-117,231,-150,177
-7,27,43,384,500,473
15,-115,95,-716,715,-1009
12,29,20,850,-46,788
66,58,42,-88,-101,-162
93,52,90,-233,-115,-241
120,49,123,-474,331,-558
-101,31,86,-91,223,-214
-68,34,84,230,-3,242
-54,60,100,-92,-84,61
-43,56,-119,-2,221,61
14,21,-53,-55,809,61
90,-99,55,-381,2298,855
-50,77,109,-1559,2891,2181
-106,49,45,-2447,3120,4161
87,77,-84,-1697,4464,5018
-90,113,103,-5888,2297,4352
-58,113,-50,-1871,2436,1018
81,26,76,-938,-1653,6974
-48,-104,-68,-1757,-3276,4925
-9,29,53,-1772,-1279,4304
-18,-25,7,-830,-1338,3569
-94,24,-51,147,-1206,2178
71,-18,-91,1429,-728,-217
15,-114,-100,2750,-403,-1007
-1,47,-100,2917,-365,-933
12,28,-79,1738,-450,91
-17,21,-64,161,-491,361
38,97,113,-1746,1080,-613
-25,55,99,-899,134,313
1,52,-112,-932,-1131,323
53,29,122,-576,659,-522
63,35,68,850,828,-878
40,59,94,-560,192,-655
49,2,-110,645,237,110
77,35,-55,463,105,251
115,88,-79,111,-199,162
98,-126,117,-526,-381,-133
100,107,104,-644,192,-229
106,98,89,-286,30,-36
98,110,91,-80,-114,44
102,115,102,29,-90,-70
91,124,89,435,-337,-8
-64,58,103,5087,1751,-2060
4,110,-124,1025,-2259,-4703
2,-29,29,-313,-2794,-5865
57,119,-65,-624,-4400,-7251
119,-117,99,-863,-7040,-7402
81,-73,-62,2109,-6400,-5517
-39,94,70,2046,-6707,-2404
-46,95,-110,834,-4384,-1045
-34,-23,75,487,-2364,-550
45,1,-116,741,399,108
-15,-81,100,-125,462,627
-51,-22,-65,-258,492,-17
-65,-40,74,460,-54,333
-16,-32,-116,123,-109,10
27,-34,-80,-171,94,-108
103,-77,18,-444,949,193
-13,91,71,-1074,2692,750
-96,30,81,-1832,3520,2018
97,68,-31,-2995,3539,4120
-52,40,-97,-449,3886,5979
-102,46,36,-3407,4101,4747
-23,40,20,1180,2240,5926
-10,45,-12,-2022,2883,5101
-15,-34,51,-1874,-2761,4540
88,-109,-30,-1383,13,2824
-19,126,9,-1457,-6,2320
112,63,-41,-559,-592,1464
71,7,-79,331,-731,415
64,-58,-110,685,-220,-136
8,117,-120,1351,-455,109
4,108,-114,1148,-697,473
15,111,-121,392,-462,278
29,115,-125,-737,-378,-328
101,111,-80,-2865,2575,-1378
-5,22,-91,179,-1170,116
42,102,98,-953,-969,219
93,80,55,846,582,-264
66,-124,23,605,55,-210
64,-116,43,-280,-413,32
96,126,-84,-262,716,-158
73,-111,105,-134,-424,104
104,-98,75,-368,-36,-107
105,-113,49,42,131,-17
104,-94,48,-18,-29,39
117,-83,83,-180,164,-109
116,-88,85,-42,-54,-2
125,-85,61,5,-27,-12
-123,-76,51,-17,9,14
-124,-70,60,9,39,-8
-119,-67,59,-44,-4,-18
-69,33,27,1616,-4244,-4607
28,-13,99,-120,-6618,-5565
37,92,24,-2209,-7228,-5488
-79,98,15,-780,-7577,-3661
25,42,-85,-56,-5795,-1879
-87,94,22,-944,-3387,-906
105,17,-1,140,278,-583
-39,122,-42,349,1115,327
-73,25,-119,-627,532,480
-69,119,18,3,339,85
1,-127,12,238,-291,-40
40,88,93,64,-89,-232
97,0,-128,-171,224,-100
117,3,94,6,368,173
-87,14,94,151,171,337
-38,24,-109,468,501,426
37,-24,-40,451,1399,585
-87,121,24,56,2487,1339
113,-124,35,-794,3835,1604
-36,110,-27,-1634,4761,2348
55,122,-119,-2076,5563,4901
36,121,-4,-3930,3730,4230
-127,-73,29,-1662,838,6518
25,92,-88,-2747,934,5061
62,110,49,-1271,-2838,3702
-62,-78,-25,-596,-1313,1216
-68,115,-33,274,22,1866
-91,-95,-30,16,-110,2060
70,-72,-42,-258,-924,432
21,-115,-48,-18,-828,-716
20,87,-47,596,-423,-781
2,64,-79,735,-16,-306
2,21,-50,985,533,163
12,53,-12,-1017,443,-108
30,49,-118,-108,-341,68
63,63,110,-647,229,-253
70,47,87,-484,367,-425
64,41,100,69,7,69
68,50,115,453,-22,147
79,81,108,283,18,55
87,99,102,29,-50,-15
97,106,96,-192,57,-39
99,106,90,-211,-11,-45
106,104,86,-168,55,-68
111,104,89,-58,-48,14
116,109,81,66,-15,29
123,121,79,53,-9,34
125,-124,75,43,-21,15
-124,-119,78,-26,14,-15
-120,-115,73,-76,14,-41
-84,-4,1,3757,-1433,-5603
-30,-35,-10,579,-3435,-7116
-91,-117,-67,862,-5508,-7540
-98,-50,-40,1915,-7325,-5152
-112,-113,-12,1354,-7292,-2444
3,39,123,398,-5075,-718
-27,-66,-123,-126,-2414,-127
62,121,36,338,-88,201
16,-10,86,207,359,360
-29,38,-90,26,572,-417
-35,-7,108,423,179,297
-1,20,109,-71,-221,248
42,58,-96,-33,152,-222
82,58,-111,-251,22,-248
109,0,-110,87,85,-7
-110,14,121,-58,-34,71
-92,19,-107,43,-22,172
-68,45,-121,-18,40,-93
-58,33,-100,141,13,58
-4,28,-65,227,489,-102
85,-24,16,227,1380,97
-21,-94,-119,-691,2759,437
79,-101,84,-2640,3545,1109
-84,119,24,-2253,3955,3072
68,-102,-13,-1085,3336,5467
-118,20,-127,-3963,4656,5746
-118,44,-67,-6554,3122,4756
-19,101,33,-1508,-1784,6363
-60,122,-48,-3515,-4156,3370
29,10,82,-656,-1337,3050
-50,-18,110,729,-671,2344
105,-1,28,1116,-844,1278
6,-36,-22,1066,-1218,-245
-6,-100,-20,599,-1259,-1047
-2,87,-38,992,-355,-337
-19,83,-65,275,428,311
-25,75,-80,-123,315,-87
-5,75,-70,-1163,-335,-624
45,30,-108,-1301,1443,-272
-21,48,-109,145,-1205,-87
20,61,124,-286,-571,476
37,78,75,381,71,-35
29,113,73,450,-270,62
49,114,-121,55,302,-64
45,-124,-125,-357,-28,-16
58,121,93,-440,-44,-147
63,106,86,-282,13,-85
65,108,75,168,-132,36
76,122,78,181,48,13
82,-115,81,148,-16,25
-66,-45,99,1061,-4055,-5523
51,58,-85,-98,-6437,-6333
-98,-65,64,-1583,-6863,-6592
-117,30,-84,-946,-7010,-5530
-77,-30,73,76,-7593,-2529
40,70,54,-150,-4146,-970
49,58,18,61,-455,632
32,-58,62,-502,1538,-10
2,-122,95,-81,433,-204
-48,73,-5,470,-37,-79
-36,-1,110,690,-372,415
24,55,-116,-353,-152,-228
74,22,-68,-382,64,-225
123,9,105,205,40,-47
-121,5,118,-96,-38,95
-115,-1,-88,14,168,209
-54,-54,10,-56,847,788
71,126,82,250,1877,1566
9,62,80,-40,3177,2124
114,51,29,-432,3901,2998
0,109,-53,-3201,4797,3802
-97,97,-46,522,4117,4693
-68,-41,112,-1894,2306,6778
36,68,96,-2087,1361,3936
36,119,-28,841,-1462,4382
-27,77,61,-1967,-495,2491
-89,7,-8,-1814,615,2288
113,-81,5,104,-740,1926
81,-66,-23,737,-654,1117
39,-112,-71,1377,-404,-37
1,101,-62,1080,-601,-554
5,58,-62,625,-428,-415
-6,16,-75,424,-182,-48
-9,23,-89,160,25,185
56,120,-4,-2384,2383,-1215
32,67,-38,-683,-727,29
50,65,-78,-775,-298,-104
57,44,-116,-53,128,-66
70,57,88,852,-83,-130
79,101,91,-433,-12,-154
81,94,101,-59,9,56
92,120,-126,27,4,1
99,-122,-122,-43,17,-11
101,-123,110,-97,47,-31
112,122,85,72,127,-58
123,-123,78,-153,100,-168
126,-125,94,67,167,-129
-126,-120,108,156,116,-31
-126,-113,101,296,-40,34
-123,-101,75,103,-53,89
-25,122,40,9728,-1983,2696
-2,88,102,-3110,4695,-4730
119,-48,77,1359,-6418,-5655
-81,-126,-52,1734,-4723,-8487
-44,-65,-50,-1444,-8220,-9223
-114,74,117,-1941,-8625,-5339
107,59,-120,2857,-6773,-1978
85,-25,113,494,-4579,-261
-79,-110,11,19,-1366,-215
80,-38,66,831,1054,-366
-6,59,-89,-203,1,508
-114,41,59,506,202,-76
-99,80,55,-281,-458,-126
22,-8,-108,-410,-4,-587
68,-64,123,-258,160,33
122,-83,-119,24,436,169
-96,-65,-76,-65,729,779
-16,99,78,549,1120,2083
-79,-39,79,159,2176,3159
66,-42,-64,-203,3707,3977
4,95,12,-1952,6267,3360
104,64,116,-2548,5690,5398
-82,71,-33,1413,1704,3847
-89,-26,-1,666,386,5061
-33,4,-13,-639,107,2441
39,-109,-37,-3677,263,4724
-61,25,-62,-1775,-565,3190
-104,-29,-63,553,-156,1490
55,-41,-116,1134,-330,-594
4,50,-117,2709,-748,-1360
-12,-65,-86,3334,-652,-534
13,-24,-69,1222,467,505
89,-22,11,972,3395,-394
-12,55,121,-1102,-425,265
37,85,107,-903,-551,383
72,81,38,-1123,-853,-496
83,27,-98,-946,-207,-626
83,-11,110,564,-127,82
86,18,98,334,291,16
118,48,88,-576,105,-319
122,108,81,-2851,-324,-1030
-106,-39,125,-4420,174,-1740
118,-72,-84,-1505,-212,-796
90,-63,91,-1245,-570,-160
106,-81,77,506,-96,280
-99,-20,-125,120,49,136
-80,-5,-46,827,706,208
125,8,98,180,59,-242
-105,-39,91,1088,-21,0
-112,-12,81,624,-279,108
119,-50,36,1757,-1267,-6386
-83,29,39,2005,-2566,-7190
2,3,74,1275,-5649,-8448
-34,-52,-53,311,-6639,-7447
-119,21,76,2044,-6002,-4188
33,99,-51,987,-4156,-1057
48,90,19,863,-2059,28
-45,-2,-58,224,-130,-756
56,-65,57,613,741,-315
-40,-50,62,-110,-36,641
-46,15,41,351,-214,155
37,124,67,-475,-520,-459
84,7,-88,189,111,-53
124,-19,127,-215,92,4
-110,-14,110,-241,-28,317
-87,32,114,-358,83,183
-91,84,115,-380,113,-86
-61,69,-96,6,242,11
-25,54,-88,-107,319,-77
10,-7,-47,-270,721,331
91,-39,17,-838,1091,1001
-76,-69,16,-2635,982,2710
30,105,-21,-2309,2127,3545
-103,127,-50,-999,3275,4707
58,-86,-22,-409,3323,5138
-106,-10,-87,2814,3275,6816
92,0,-5,-5573,1271,4062
-43,36,23,-612,-973,2363
-7,14,80,968,-666,5620
23,-110,51,-3245,-387,2310
-109,-11,3,-1529,-944,2597
-118,-76,-12,1120,-576,2229
69,-68,-41,1686,-597,786
24,-84,-69,747,-584,-505
4,88,-66,727,-383,-941
-47,-55,-50,2455,-762,117
-41,15,-31,1191,-571,1583
-9,-112,-19,-2672,271,-247
56,94,44,-564,1217,-560
2,85,-57,-778,-497,-203
10,56,-102,-210,-17,-698
23,80,98,-1270,740,-745
61,84,75,-591,90,-129
79,117,97,-592,-225,9
99,-112,93,-890,57,-324
69,-113,126,-493,122,-381
68,105,-103,551,89,-98
98,116,104,829,59,255
112,-115,83,675,-16,380
122,-92,78,164,94,135
101,-52,-17,7647,-355,1116
52,124,-37,1521,-411,-3483
44,-119,41,-2507,-5115,-5678
-18,-110,-39,949,-6546,-5721
90,-111,63,-2849,-6773,-6363
-94,48,-17,-1340,-6347,-6476
90,114,-56,1549,-5985,-3053
-107,83,-7,157,-4163,-1622
106,75,-70,104,-794,64
3,26,101,455,803,253
1,58,97,132,413,412
-41,61,-27,308,-236,-341
-65,-17,-104,834,-300,480
42,81,-84,-451,69,-524
71,41,-113,65,-181,-133
-122,-5,-126,-63,29,-13
-116,-6,-122,76,-129,328
-107,22,124,-12,-268,227
-93,66,-99,131,95,-106
-73,40,-62,-79,364,-126
-20,12,-69,364,587,175
79,-45,42,586,1624,565
-68,-101,-86,-710,3069,743
98,86,111,-1991,3928,1695
75,63,-20,-2506,4930,3594
-72,-18,88,-2684,5153,6269
-117,12,-71,-3359,4077,6068
53,-32,-90,1534,881,8423
26,-127,-10,-3807,755,2249
91,26,-126,1139,-1505,5603
-13,-49,50,117,-843,2531
-38,-23,50,-1405,254,2358
82,-31,-27,-315,294,1027
-28,-86,-19,343,-1276,-909
-33,89,-9,537,-1145,-1086
-66,27,7,458,-711,-618
-39,56,79,-453,1726,-153
-80,64,53,255,-101,747
-8,77,-107,-677,-265,161
29,82,-105,-836,270,-433
38,80,116,-1244,352,-1015
24,37,112,-1418,222,-649
15,27,-100,-516,-193,-11
36,25,-88,992,-9,370
54,113,114,551,-5,47
63,-126,101,246,68,-54
68,-119,99,-52,-22,-49
72,-115,101,-301,8,-100
84,-115,106,-429,130,-116
87,-118,108,-331,26,-84
43,-121,127,698,-3681,-3781
-17,-31,8,1836,-5365,-4288
-106,113,118,-550,-6793,-3781
99,0,-11,-3165,-8099,-4703
-97,-115,120,-1130,-9120,-3876
-56,-71,72,-257,-7398,-1460
-45,-35,20,-361,-3817,-85
-36,-19,46,436,-390,290
59,-71,-78,946,1706,-433
108,51,100,263,458,651
99,60,38,200,-282,36
-53,83,70,-80,-477,69
50,-25,-12,304,249,-124
-125,-74,15,-297,1018,123
-4,89,78,229,2337,897
-82,8,91,511,3918,1995
65,29,-1,-53,4864,2800
7,67,56,-1365,6150,1776
124,42,115,1816,6283,4097
-104,-78,-84,-3478,4678,3488
69,-126,-18,-3449,2191,2225
94,44,-120,45,149,4201
-38,80,-53,-2737,253,1912
-67,-41,-17,-356,-346,3350
-72,-45,-47,-1196,17,2002
-105,-105,-92,-579,739,1644
-100,100,100,1145,820,1461
99,120,-112,1389,-1358,888
60,96,-122,806,-1641,-90
-2,105,-63,-638,-1752,-468
1,29,-99,-375,-248,-591
17,-109,12,-2710,-1793,-813
91,-35,8,-1414,2552,51
51,-117,93,-385,-728,35
83,85,67,-368,373,-1103
87,120,-11,-521,964,-622
71,105,9,-417,-134,-373
97,106,7,57,-77,-147
111,-119,0,-1137,18,-409
71,125,-65,-1499,-665,-33
114,29,-44,1014,1002,435
-115,-68,56,582,-260,261
-115,-66,30,377,-168,201
-126,-61,31,-92,92,27
120,-69,98,22,-57,-1
-121,-81,116,-3,240,31
-112,-76,68,-225,17,85
-106,-83,44,-31,-146,142
-101,-82,65,220,-28,155
-102,-78,83,224,-10,88
16,-54,42,2138,-4315,-3765
-111,-48,-114,-1250,-5865,-4936
121,-32,-4,-2762,-8548,-4627
-38,78,-101,-2551,-8815,-3883
37,-95,-68,-435,-8011,-2683
118,-115,51,-997,-5560,-1504
-61,-116,87,1067,-3006,639
-124,-25,106,565,780,-123
-21,47,41,-949,1298,-542
-18,-44,66,84,714,258
-45,-36,-77,-132,-38,258
10,-27,85,472,260,269
83,-6,-75,605,590,-6
-75,-76,10,252,1931,-194
61,-124,45,681,2741,303
-51,83,-4,256,3578,174
94,50,-32,-1077,4297,556
35,11,68,-7410,6222,1507
79,53,-89,-3643,5043,3027
124,97,-109,-1331,2462,5267
121,23,77,-1992,893,2617
55,49,58,-1818,-1569,1235
14,-95,-24,-1246,-477,5393
-6,61,16,-1175,-890,5250
2,-17,-47,455,12,4131
123,-48,-81,820,-835,1078
66,-107,-89,820,-1154,-769
59,63,-71,743,-745,-731
32,6,-58,3329,634,556
-29,4,63,2472,1758,-365
13,50,-49,-363,-544,1439
54,79,-9,-1609,-943,826
88,73,-18,-1850,784,-1104
57,-33,-65,-2571,1068,-1130
112,-91,-33,333,-618,89
102,6,-98,323,-689,340
53,70,111,-568,165,-46
65,103,110,-809,-286,30
79,127,95,-673,-419,-55
72,-92,80,-1149,-320,-246
-106,-73,67,-832,732,82
-58,-42,52,-361,842,-232
-84,-60,45,1071,42,-744
-121,-84,47,959,-640,-920
-127,-68,31,-991,-58,-1366
-88,-41,22,-2583,422,-1097
-59,-24,44,-2251,-69,-235
-115,-4,88,-1884,-845,-390
-102,6,-114,-360,-129,210
-91,9,112,1605,630,247
-45,-91,-47,-238,-5730,-3815
-77,-84,64,-3599,-6517,-3863
22,-98,-67,-1953,-8353,-4150
-44,47,-116,-485,-7913,-4460
-88,64,49,-140,-4953,-1466
70,-61,82,-877,-2593,358
40,98,-37,1027,1155,394
-74,49,24,-163,401,361
-112,35,-109,709,-267,162
-56,22,-93,-232,411,-263
-26,20,-95,196,-424,298
15,35,-67,-529,121,-312
68,-25,-90,348,133,74
114,1,-116,194,-41,10
-111,-17,-85,138,142,69
-87,-42,-40,178,458,243
-37,-84,11,559,690,762
120,14,104,1371,1369,1826
17,3,67,321,3331,1086
-82,31,-45,-199,5457,1293
-125,65,-39,1511,7533,2305
43,-108,-94,-7013,5746,986
20,47,-112,-399,1410,4481
-116,-27,-63,-4841,1153,3301
-74,-102,-29,-2343,-1278,4622
105,61,-27,-2882,-1603,3080
88,-105,-20,-1812,-883,3389
-84,102,-21,1625,-330,3626
-85,-70,-24,1999,-606,2643
47,-7,-51,1109,-938,-141
2,-101,-52,916,-382,-1556
13,22,-54,1315,318,-1348
-8,-10,-53,1333,-148,-154
59,8,21,-380,4016,-679
-66,42,72,-362,-1082,-26
61,44,-11,-433,-41,462
80,68,-6,-1032,-457,-268
89,48,-89,-670,-182,-467
90,58,-126,-1174,-226,-488
97,59,115,-817,91,-321
90,82,-111,-10,216,175
90,103,-88,221,-117,214
108,-124,-98,-16,-122,62
118,-119,-126,26,-68,0
123,-124,113,57,89,38
-128,-119,118,121,76,68
127,-104,-127,-43,-36,102
-127,-104,123,-69,-50,84
-125,-106,118,60,-150,175
-118,-89,113,-119,-82,118
-83,47,14,2376,1931,-4452
-48,-80,-15,6182,-2809,-4268
-38,42,75,4216,-6264,-5804
59,-43,-73,-2721,-8918,-6608
-44,8,-60,-59,-8789,-5142
88,-24,-58,883,-7619,-1964
-40,68,106,-1134,-5500,155
87,29,34,1296,-3048,1099
55,78,6,251,842,-140
-21,-26,71,-642,294,97
-19,-68,-90,40,-281,-727
2,-10,-79,24,194,-349
22,-29,122,-874,-369,-7
84,-48,-127,-350,-164,325
95,-33,-92,427,46,399
115,63,-61,-65,107,162
-125,68,-82,50,342,-72
-79,75,-107,-360,93,-189
-62,-1,-87,532,245,151
-32,7,-103,-81,477,11
-5,77,-128,73,-107,267
11,102,-105,110,10,12
22,103,-87,11,110,-206
42,37,-74,5,21,-24
57,1,-65,-188,253,266
86,17,-32,-27,351,596
118,23,-11,-10,948,619
6,21,53,-1108,1805,473
107,-57,32,-2393,3333,1216
109,-120,-26,-1180,3114,3368
-103,-70,-47,-2185,3059,4190
91,-28,-126,1885,2244,4135
-28,24,-46,-4593,2374,3469
27,-18,31,-1890,-921,3607
-8,-14,89,-1708,-1143,4171
-20,-105,23,-734,-103,2759
-70,88,78,1397,-1965,2478
-98,127,38,1234,-1193,2813
-107,-75,28,-24,-569,1314
49,110,28,463,-573,1196
11,32,45,1658,98,2463
2,64,-34,1582,361,1859
-7,69,-12,907,-1,1069
-11,60,-31,799,278,199
-22,27,-34,1241,25,-286
-48,-5,-12,1257,-845,-641
-39,-18,3,1047,-1003,-771
-24,-2,9,-677,-954,-1280
90,23,-111,-3555,2691,-846
-63,-87,-23,458,-922,36
-55,4,-87,4743,-1230,3079
70,-95,-22,5823,-835,2288
4,64,25,2220,574,-3435
77,11,-71,714,-4377,-4634
-47,-52,45,1692,-5266,-5371
-99,84,106,-1893,-8439,-5540
-7,-37,20,-3658,-7866,-5881
-63,-91,-82,1448,-7375,-3563
-15,-2,69,-708,-6225,-1797
79,-53,7,508,-2691,-201
103,29,-95,-365,-495,397
101,-36,-65,428,962,-206
-49,124,-39,35,304,249
-96,20,-10,-14,-117,-295
-55,-38,99,91,-415,237
34,1,-53,-32,-18,-165
89,-30,-84,-83,278,34
111,-23,107,-118,-91,310
-118,19,99,328,-59,121
-124,44,-73,59,206,-38
-105,18,-108,-76,-67,47
-59,19,121,-47,34,-49
-44,25,-115,49,-33,10
-19,42,-106,-2,84,-204
-8,40,-112,157,45,-151
4,38,-95,246,-57,13
38,8,-47,252,471,-53
102,-42,63,101,1451,15
-1,109,-112,-233,2433,1170
-110,112,119,-1585,3465,1531
85,-83,0,-4030,4845,2060
-122,-1,-113,-917,4186,5189
67,-57,-78,-2066,4267,4829
101,112,-117,509,2517,4511
-40,109,-12,-6911,26,4305
21,-71,4,-110,-1313,2016
-113,58,106,-664,-817,2865
72,-39,69,213,-397,3866
55,-69,33,604,-575,3847
61,-56,10,438,-654,2963
20,-37,5,-580,-986,549
-21,-102,9,-88,-1035,-1271
-29,20,-5,1830,-126,-992
-6,47,8,-1063,2061,-676
-49,-2,-47,-1428,554,-652
-45,-38,-37,723,-1290,815
7,53,-42,32,-258,174
65,77,112,-152,518,-729
46,63,106,-397,483,-453
49,23,-77,393,668,-273
24,-31,73,216,-4561,-5334
105,-81,-45,-382,-6572,-5861
-31,80,-42,-3001,-9108,-5444
-13,119,-106,2981,-7956,-2007
-7,-24,67,81,-6004,1278
61,80,51,285,-2067,1497
-8,-67,-40,1003,-93,762
-57,8,4,-25,348,-249
-59,-111,-108,-149,292,-373
-37,23,5,-484,-129,138
14,-14,65,-77,-329,335
61,-4,91,-32,50,-173
77,-18,87,338,-2,-24
-110,-10,83,-44,-97,-50
-96,-10,101,404,154,-5
117,-3,95,71,117,38
-83,27,56,-195,-94,-138
-50,10,73,-115,72,-29
-18,-12,98,188,217,-179
11,0,121,134,600,-365
86,-17,-92,-172,1458,-577
-46,-27,-2,-248,2101,-532
75,-50,34,-704,3245,-108
-125,-96,37,-1064,3435,378
7,-51,-75,-3181,5336,389
-13,-38,-83,-1362,3537,3482
0,5,-94,28,3507,3908
42,94,99,-2229,2543,3881
-63,-21,-22,-3931,2563,3094
-2,-82,-22,-516,1890,4332
-39,-14,-21,-2781,580,3543
-40,-78,-91,116,-1790,3674
-51,96,68,1114,74,2049
82,-111,63,-896,-608,1314
27,120,42,-1035,-817,379
7,64,21,-588,-501,-371
6,23,5,-167,-159,-624
-27,-41,7,683,-256,129
-24,63,18,-1873,-107,-547
70,28,119,-660,1567,-761
7,32,-28,-209,-653,18
50,2,-87,778,210,-190
52,34,127,208,197,-304
91,57,119,-976,80,-154
101,63,-114,-256,70,-56
79,86,-48,-418,197,-132
80,87,-85,-346,-203,74
108,86,-118,130,-146,194
110,111,124,-27,48,20
114,120,118,-43,-86,6
12,-12,59,733,-4453,-2898
-7,86,-114,36,-5267,-3800
-105,-116,30,-1188,-7457,-2420
40,-20,-41,-4407,-8377,-2723
-112,-117,114,-1698,-9486,-1534
117,106,104,-1250,-6572,11
102,-96,-58,-11,-2260,361
-120,-26,57,-94,426,-222
23,28,-24,551,1298,-197
-102,22,-3,-7,305,-60
-41,33,-8,-153,-103,-127
3,-19,112,265,222,183
40,3,123,-1,184,224
79,31,106,-359,366,80
98,3,74,-29,344,160
118,17,37,-189,9,54
-88,7,46,-43,-169,-36
-52,-8,92,126,1,-182
-39,-8,107,420,51,-105
-29,-12,94,494,83,-48
-34,27,57,270,-367,-19
-22,55,74,125,-417,-26
39,64,-123,68,-324,-185
71,28,-121,-98,-26,-237
80,-25,-125,-109,292,-72
126,-49,-83,311,862,9
27,-39,-2,-34,1862,-625
109,-40,1,-2154,2923,-897
-70,-32,-16,-2789,3806,-262
37,-47,-29,-2903,5076,2402
100,-81,-46,140,6450,6329
19,107,-17,-4429,4446,3399
-45,120,-73,550,1320,3427
-106,-48,-46,-5305,1012,3320
93,-43,70,-3570,-1499,3591
-66,89,116,-894,-2108,5338
21,49,-125,1259,-554,3719
-15,-114,105,1444,109,3045
-10,-46,27,1081,-684,-159
-62,81,59,1214,-1266,-1674
-20,-38,78,1025,-322,-962
-16,42,-103,-2465,2328,-1148
-104,-44,104,335,-568,904
-42,20,9,-189,-697,771
22,93,-23,-2022,207,29
57,74,-111,-1509,620,-972
57,66,-124,-1594,-17,-1530
64,76,109,-3193,269,-1445
54,-30,-91,-497,437,-65
42,10,-104,1526,-321,847
56,67,95,6125,24,-4006
-37,20,-12,1429,-3038,-6344
-116,104,99,208,-4907,-5872
-76,-10,126,-596,-5225,-6069
25,-51,35,-400,-6787,-5204
121,-126,-124,363,-7047,-4206
120,-14,32,1357,-5960,-1555
60,29,-17,-284,-2601,258
-65,33,-55,166,-84,205
30,83,-89,84,714,219
3,122,-114,469,-31,113
-34,74,70,406,62,-132
-9,46,117,129,-541,229
53,71,-50,-283,-62,-98
99,30,-37,130,194,58
-127,35,-79,-800,281,-178
-112,19,-123,417,-12,377
-73,76,-123,179,177,108
-60,82,-123,-39,-5,-56
-52,61,-90,121,-13,27
-21,71,-91,-127,41,-70
-4,60,-95,293,-36,91
17,87,-100,-45,-72,-9
34,86,-79,14,-98,-8
28,86,-65,13,-24,-62
52,89,-69,255,-49,-60
79,84,-73,313,84,-63
67,94,-87,-56,-87,-59
80,102,-64,35,-114,13
108,96,-32,28,208,-36
-76,85,14,-87,682,-134
52,-21,108,347,1927,278
105,-96,-126,-350,3306,756
-93,-93,106,-1875,4084,1635
67,-117,33,-1238,4946,3360
44,-53,30,-2292,4603,4551
-81,53,-97,425,5484,3462
76,-86,-125,-4530,1435,6377
-114,71,86,-5179,-1801,2065
-57,-22,-28,-1281,-2774,6180
-17,-126,-49,1209,-198,3402
-60,-78,-94,1082,175,3237
59,-14,94,1170,-618,1873
-41,-53,52,1521,-813,-258
-70,121,33,931,-1264,-984
-71,62,32,-173,-668,-459
-89,54,19,-844,-175,-73
-97,43,0,-749,-231,-164
-54,54,-9,-1092,-199,-589
78,-82,-123,-7487,2684,-2289
-20,-66,28,-1484,-3463,-3643
-16,-59,-52,1882,-6918,-3369
-22,-59,29,-1020,-7784,-3885
66,22,-127,-2674,-9947,-3707
106,-122,122,-1536,-9428,-2423
35,99,-19,-1071,-5477,-1248
47,21,79,-1496,-2509,65
-70,-2,47,804,785,-724
-24,-88,-96,643,1178,-747
-103,116,-63,264,426,677
-107,-104,57,-120,244,672
-61,52,104,51,-249,756
-6,92,-87,-162,-4,-412
32,0,-78,-259,10,-196
73,-86,-113,47,35,171
119,-32,112,-140,-72,103
-125,-35,-121,289,30,86
-117,1,-116,3,-70,-10
-92,4,-99,119,-45,-30
-73,6,-86,53,86,-17
-33,17,-98,-7,82,-59
10,12,-117,188,203,-165
37,-16,-105,288,324,39
123,-47,-13,-106,1024,163
-3,-81,106,-760,2979,218
98,-116,-117,-1640,4041,732
-11,-123,32,-1793,4833,1897
53,-33,-77,-1918,4896,3851
62,46,-96,-3979,4518,3908
112,43,94,1044,3787,2653
10,-34,-9,-4075,2298,3537
-121,108,-15,-4134,-524,4145
117,47,15,-1066,-2071,4536
83,-39,-115,-801,-1941,3782
-62,-60,50,-1217,397,3489
-101,-1,30,-1091,-536,2156
14,14,4,-538,-1258,-216
-24,98,-8,1467,-510,-2068
-16,6,-7,2742,-81,-1006
-52,-29,-13,976,596,340
-91,-12,8,-1677,1009,85
-62,8,-81,1118,-1335,1032
-6,86,-8,-584,-953,439
71,98,-83,-595,1020,-603
31,82,-111,-484,250,-1122
40,69,-125,-1024,151,-644
76,58,115,-1311,505,-579
71,74,94,-942,209,-344
61,93,115,-849,-194,-158
80,91,-116,487,-10,126
-51,-112,-95,3146,-2839,-5346
100,8,-124,1939,-3459,-5444
114,61,-113,1232,-5717,-4150
-12,44,83,320,-6462,-3465
-87,84,117,-1096,-6382,-3440
-108,-48,81,840,-8847,-1544
118,-117,-47,1063,-6267,-380
79,-18,96,-111,-1755,-275
38,-12,20,866,1098,-170
-51,1,86,625,1221,148
85,-50,4,-753,-502,165
-64,-104,58,446,-431,482
10,-19,-77,193,-203,50
48,0,-36,-168,111,-266
106,-65,-106,672,269,251
99,-10,116,-214,-138,187
119,-10,-118,-86,4,34
-106,-21,-95,-141,95,-3
-81,-27,-100,27,59,36
-52,-10,-125,62,79,44
-43,8,-121,-129,14,10
-16,5,-111,-9,191,-93
-1,1,-104,148,121,36
19,48,-103,-39,-88,51
30,28,-102,-79,39,27
41,34,-106,-49,-30,98
56,51,-102,45,-19,64
64,62,-85,-188,28,-105
63,55,-90,82,4,56
107,49,-71,126,355,-61
-99,39,-24,250,977,-40
-2,-11,66,-126,1744,-23
55,-105,89,-337,1869,913
-114,-101,71,-1383,2666,1330
34,-37,-29,-2526,3452,2317
37,-114,-82,319,4192,4171
102,-5,-74,-918,4872,4396
-16,30,14,-1587,4829,4011
-20,25,-42,1777,2183,4071
66,-4,65,-7061,52,2587
100,-58,13,-4382,-1406,2414
-124,44,86,-248,-466,3540
-70,47,116,3022,257,3761
121,-90,39,3291,18,2370
-26,-82,42,1711,-1018,65
-52,108,79,111,-1045,-1192
-30,15,112,-881,-392,-831
-67,-42,78,-469,-157,-266
-89,-44,67,-313,-292,216
-42,-10,13,-320,179,126
22,-19,12,1393,-3362,-4858
49,-103,-63,1061,-4813,-5475
20,-16,-61,-1902,-6996,-6148
95,40,123,-3918,-7910,-5608
112,-60,78,2039,-7007,-3043
99,-123,-128,-22,-5104,-1095
1,125,106,399,-2463,176
109,109,12,730,-1218,-443
36,-71,32,839,60,-207
-26,36,121,-82,488,-166
-39,-47,-88,137,336,296
-55,-56,79,-158,-294,474
28,-37,-103,149,-188,21
53,-27,-55,476,248,-134
54,0,-86,-27,-109,-27
107,7,-106,-254,-115,-40
-101,-15,-85,76,8,-39
-81,-13,-71,-259,95,-76
-61,-14,-91,-134,119,30
-52,-4,-94,7,155,22
-37,17,-95,28,79,43
-15,31,-91,-2,126,-28
19,48,-85,-56,58,-17
12,41,-74,-155,23,70
31,52,-71,-140,134,-25
47,30,-62,66,247,44
88,2,-42,279,610,125
-105,-47,-1,248,1181,432
50,-54,78,-443,2582,409
110,-42,96,-2065,3450,456
-74,-18,67,-4044,3978,1575
-87,127,73,1691,2907,6814
-61,-107,29,-5816,3520,4143
-75,17,-93,-501,1402,5109
-69,117,14,-4452,2655,2576
-34,-60,51,-1399,725,3710
4,102,94,3789,-14,5374
-60,-96,124,-3361,-637,2212
88,-46,80,-2348,-760,1204
85,86,79,780,-492,1835
20,82,45,2034,-746,1231
3,57,19,1852,-653,427
-7,35,52,1142,-460,556
-46,38,37,-725,-607,459
-38,43,35,-1228,-540,263
-47,33,35,-7,-1070,686
-52,9,3,2167,-1063,783
-40,72,-11,803,-382,-49
-9,110,55,-1731,938,-662
-42,21,-21,-646,-183,6
55,81,-105,799,-1795,-5562
14,-13,32,1380,-3983,-5532
88,72,98,-325,-5264,-6320
-47,-66,-38,-2281,-7725,-6958
95,-51,-37,-991,-9025,-4030
83,6,-36,1111,-7424,-1721
-12,108,-76,301,-3808,-709
1,39,-9,556,-1293,-657
78,-104,32,589,10,-370
5,73,52,1181,467,522
-56,-40,-94,109,-22,134
-59,-36,-111,531,-167,751
-19,35,-105,-74,-220,14
27,30,-69,-152,-305,-34
62,-11,-70,42,64,71
99,-25,-89,-108,96,64
-108,-27,-102,3,169,113
-93,-19,-89,127,236,35
-107,-1,-110,-73,255,85
-56,12,127,-7,126,132
-21,20,-114,115,103,-48
-15,9,-98,61,73,31
-4,15,-100,27,94,174
21,37,-114,-157,159,43
45,49,-100,40,-58,25
50,39,-85,-162,31,-38
58,48,-99,-66,164,51
85,70,-104,-121,108,29
108,60,-74,-90,330,19
-97,44,-8,-218,892,-81
36,-9,113,-779,2302,-192
-123,-66,110,-2650,2891,202
-46,-111,40,-3011,3554,1995
-16,-96,16,-1232,3232,4860
8,107,54,473,4253,4556
-127,105,-127,-1230,3730,5401
63,116,-5,-1226,1916,4614
4,16,33,-1275,1160,5068
-92,-54,-76,-308,-555,3886
-42,-127,-125,773,1154,2665
125,-126,-99,473,508,1909
27,114,125,-160,-18,1273
8,73,121,294,-69,975
-51,48,86,878,69,1104
-79,48,71,1699,-224,1085
-78,21,60,2455,-263,909
-62,48,35,1087,-69,349
-83,100,26,-1862,-584,-184
-82,74,40,-2076,-879,-440
-101,93,104,-2926,-1307,-1200
-3,-10,-124,6323,107,3408
-98,-108,-46,4612,1099,-1111
87,110,72,-537,-810,-4757
-48,96,86,3160,-3706,-4428
-5,67,112,443,-5280,-5915
2,105,86,-443,-7785,-6191
-44,-20,-88,40,-8800,-4491
84,97,-114,-731,-7577,-3735
-2,-80,57,-951,-5635,-2118
-42,7,21,221,-1181,-1021
-85,17,-126,501,1524,-1080
-15,-14,-92,450,-319,761
-32,6,-73,-25,30,210
-49,-3,-86,-1,-69,737
-13,43,-103,-591,-196,161
48,-1,-65,-274,283,-232
85,-18,-105,149,-14,95
108,16,-116,11,-214,217
-128,37,-86,62,-77,58
-98,19,-69,-71,22,41
-66,6,-84,-375,66,-106
-44,-4,-95,260,70,210
-39,77,-62,150,151,12
-37,72,-73,-146,-114,23
3,44,-86,38,-78,144
11,56,-61,-104,-54,108
26,75,-72,2,4,-82
55,48,-43,306,221,89
121,11,73,-35,1284,158
-23,-56,-80,168,3187,365
63,-109,-75,-381,4003,622
-9,-25,70,-3616,4544,322
59,-30,5,-2875,4175,2630
21,56,-25,-4447,2597,5125
28,37,27,-995,2454,3435
73,-64,-119,-2172,2592,4810
31,110,-74,-4080,-2448,4771
-4,103,87,-2010,-975,3613
-105,80,-124,-2666,-1227,2385
108,-70,-124,-193,-1227,3540
112,-59,90,1477,-828,3260
63,-50,38,1788,-536,1578
-24,-71,10,1137,-666,-120
-17,-125,4,208,-134,-803
-27,78,1,-22,-214,-486
-40,21,-12,351,-228,-178
-42,18,-24,494,-192,47
-32,72,-21,-1638,-437,-551
32,100,-23,-2786,452,-772
23,59,-5,-751,312,-299
113,-11,-113,136,-4143,-4050
-75,96,115,1048,-5652,-3733
124,6,102,-1162,-5052,-5034
8,100,19,-1525,-5596,-4947
-121,-34,-120,-1953,-6800,-4701
-48,103,103,935,-5553,-2382
-64,4,-103,388,-4195,-536
-17,127,-114,768,-2034,965
44,31,-128,434,422,714
17,4,24,-286,465,46
-71,120,-68,1,711,-261
-36,-23,35,128,-58,231
24,13,93,9,33,139
74,46,-106,-246,-12,-18
125,23,126,99,182,-55
122,20,107,-9,6,175
-99,39,115,-100,-40,60
-72,48,126,35,36,10
-56,62,-124,-167,44,-70
-19,41,-103,22,87,92
-11,14,-100,206,285,216
44,7,-56,115,716,35
-95,-48,16,-467,1504,77
43,66,105,253,2513,1463
-66,64,88,-81,5360,923
33,-120,-44,-1368,5995,1918
-69,-57,74,2199,4560,6344
86,62,114,-9886,4960,1283
-83,-2,120,-1159,-1399,7361
-60,69,8,-3039,-723,4409
17,-57,95,578,645,3054
-43,-121,56,250,654,3081
-26,112,55,97,642,2998
-68,-91,18,-53,-80,2403
29,-57,11,54,-1336,528
-7,-104,8,42,-889,-502
-30,32,6,890,-429,-362
-46,12,-6,633,-188,826
-37,30,-36,297,-73,570
-9,53,-58,-11,-150,287
-17,75,-46,-1219,-560,-694
4,31,-120,-1370,661,-723
-13,-79,33,74,816,-246
10,15,-125,1422,-567,481
39,20,118,1634,-219,-166
56,88,98,-1334,379,-424
52,72,100,-1289,-193,-230
59,90,126,-1003,-329,-479
63,85,-82,-538,135,-266
66,64,-96,204,181,207
72,17,5,4976,4006,587
125,3,110,4676,337,-234
104,33,-95,2853,672,-3578
10,-44,116,3023,-3461,-4611
17,-99,-122,3010,-6114,-5133
-45,-117,87,-201,-8939,-5709
-48,4,-17,-2535,-9709,-5121
-31,93,72,1082,-8295,-1966
48,-126,111,-497,-5235,289
-32,-65,41,873,-1512,1155
107,-9,-70,-17,-222,-1272
42,95,-40,656,635,-317
-9,-14,119,-777,335,-290
-48,-100,91,299,-86,661
-2,34,-114,-457,-234,403
38,85,-48,210,346,-264
67,82,-68,-147,400,-233
107,25,119,-69,78,-126
-126,14,116,18,-13,166
-100,46,-128,-39,-246,163
-67,44,-94,-1,226,-125
-51,47,-97,6,62,-31
-13,50,-95,-109,402,-204
3,45,-96,57,395,5
22,88,-110,-103,98,-44
100,60,-64,-36,673,-172
-91,1,-6,-239,1189,72
40,-79,34,-694,2241,397
79,-96,5,-1255,2957,1609
-111,-110,-29,-810,3565,2507
-64,109,-47,-683,4790,3811
32,-116,14,-1436,5324,4541
-101,-26,93,249,6397,5188
108,122,-58,-9334,-19,-193
-116,-16,86,-1556,-2740,5015
-69,-90,-48,-352,-2456,4533
12,-102,-88,151,-239,4016
-17,-41,70,-828,165,2807
81,-5,3,-794,-831,604
-10,-88,8,520,-1131,-763
-35,-18,0,2758,-117,-763
-44,-15,-7,2624,122,739
-46,2,-19,1644,12,1067
-39,65,-7,-240,-285,753
-8,69,-11,-1427,-192,-199
-17,86,19,-2876,-197,-1013
29,26,48,-1424,1174,-958
-9,-9,-63,402,-361,-52
19,-8,-88,1110,79,80
57,69,-126,-231,297,-177
-114,33,100,2909,-5086,-5545
34,93,-26,-1727,-8971,-3001
95,-106,-12,-3387,-8022,-4146
9,-102,10,-1608,-7748,-2572
-8,-125,89,-1093,-5992,-838
-49,61,-95,-378,-3378,674
-29,32,-58,-337,-714,579
55,96,-34,517,488,-226
-13,95,15,482,449,-33
-25,46,87,-288,230,-361
-28,-5,123,104,-326,692
51,59,-128,-203,14,-62
97,47,-108,-192,111,-91
121,15,-117,108,127,56
-108,26,117,-189,41,93
-90,26,126,93,11,199
-58,61,-123,-185,106,-76
-41,43,-113,148,154,7
-29,59,-123,-84,36,34
-1,60,-123,-246,43,-102
10,50,-116,20,-35,104
28,78,-104,37,-97,90
46,88,-113,25,-42,-110
49,78,-97,67,-163,-27
86,62,-71,194,166,-69
-127,57,-39,-11,503,-80
-35,35,15,-841,990,43
26,-33,53,-1420,1573,861
120,-105,1,-1069,2728,1749
-105,104,-41,-1310,2932,2992
-105,-123,-88,-456,3581,4080
-28,-24,-94,1059,2340,4766
-16,-50,-117,-3052,3196,3393
-80,93,16,-1266,586,3448
14,-115,15,-1232,1124,2854
-113,-33,119,205,-629,3537
-116,-94,108,750,-568,3501
104,-122,83,-509,-381,3033
92,121,70,-817,-158,2034
61,108,29,-393,87,1213
13,99,-6,401,-49,217
-4,40,-17,1975,-308,-192
-29,7,2,2242,-687,-34
-26,-19,21,1618,-354,-5
6,94,102,-2747,2200,-1218
-25,-24,77,319,-507,531
18,24,-4,-510,-393,159
48,35,-35,-836,110,-264
56,25,-90,-589,266,-487
62,39,-106,-939,-65,-543
17,-59,98,4096,-2546,-3760
61,55,-37,2067,-5458,-5729
-94,-35,-123,3802,-8758,-4815
53,-76,54,-2758,-9776,-4923
-26,-81,-69,-2833,-9094,-4555
-106,66,-51,2881,-8904,-966
-74,-68,27,328,-3521,792
30,15,-40,328,-114,822
81,117,-7,297,777,296
5,84,-97,501,273,173
-83,51,48,-1,-163,38
-8,16,-105,436,-247,199
62,56,-49,-374,5,-142
116,49,-76,-262,-22,-207
-104,-19,119,538,77,76
-94,-7,117,-235,-152,283
-93,6,-91,115,-13,227
-58,78,-87,-101,40,-6
-38,71,-89,231,49,-44
-22,57,-108,36,77,-72
13,28,-97,113,28,130
69,38,-69,186,193,60
89,8,-50,384,559,121
124,-34,-61,334,857,291
-51,-28,-32,561,1358,227
-27,-36,35,65,2613,381
-8,-74,33,-581,2704,1313
30,-85,5,46,3282,2417
-78,-10,-35,-2835,4281,2119
126,114,-113,744,3531,3614
36,-45,76,-5189,3355,4737
78,89,-33,-3333,359,-478
-44,-65,78,1955,-121,4622
-86,-3,82,-727,544,4075
-98,-60,78,-238,-121,3118
113,95,50,-1542,36,1806
113,31,48,-1228,208,2917
-85,65,58,-605,-245,2960
76,-101,62,-713,-899,1663
10,-121,43,636,-499,165
-20,66,31,1723,-204,-213
-7,32,4,1976,20,-101
-13,13,-8,1602,-62,175
-31,6,-33,657,21,-261
16,19,-23,73,403,-431
34,17,-38,104,252,-314
26,51,-28,-1701,-357,-900
52,2,58,-867,29,-281
62,-26,-18,-417,356,72
55,13,-91,3,-537,359
-21,-42,-45,5342,960,2073
-33,-74,-51,7263,402,3426
37,3,85,5365,-871,1242
-57,114,107,-162,-2913,-3323
-36,-38,10,114,-3358,-4611
75,21,4,3852,-4437,-3313
86,19,-55,-547,-8262,-4525
77,26,92,-1670,-9517,-4353
-101,-30,-127,1498,-9029,-1104
72,-18,114,320,-5683,1221
32,-115,-3,170,-2509,96
119,-16,-115,217,-569,-1035
114,-15,119,-406,274,-239
19,-119,-123,15,192,212
-4,-44,71,469,-375,474
26,21,-117,-175,-199,-48
53,47,-61,-112,93,-210
85,34,-91,303,16,119
-121,37,-120,9,8,19
-110,5,127,63,-72,190
-89,12,-121,-13,-196,146
-58,32,-102,104,-115,55
-55,37,-96,5,-88,111
-18,78,-85,-299,29,-60
11,52,-79,188,255,106
11,67,-105,-230,92,-18
40,49,-107,152,56,90
71,53,-76,15,267,-39
-113,36,-20,-727,1105,-208
-7,56,8,-2632,1873,-864
43,32,-28,-3614,2191,-346
76,9,-60,-3538,2312,1308
68,-21,-25,-1387,1876,3713
-126,-41,3,-1457,2321,3474
46,-80,69,2646,2695,7148
-12,-44,71,-4467,2791,4208
-18,93,-122,2854,-451,5473
51,-34,61,-1936,3022,4574
44,18,-81,554,-1952,4439
-68,44,-96,-267,-337,4900
-112,9,119,-857,291,2784
60,-23,49,-773,81,1175
-20,-63,10,-444,-412,-104
-26,78,-2,384,-296,-919
-23,43,-14,568,-233,-325
-32,33,-25,220,-389,24
-46,54,-25,-544,-710,-29
-51,-98,30,-4372,-222,-1744
79,88,69,-2940,1432,-968
-5,33,-84,-83,-739,145
-104,121,117,6058,-484,2126
-10,-42,-108,6702,109,1887
-32,23,-19,6885,1445,-1339
79,55,-3,1752,-393,-3367
-89,-87,-105,1078,-5968,-3855
69,-36,4,-587,-7487,-3616
5,-85,112,-3121,-8095,-4622
122,29,28,-3570,-9476,-4631
-105,-81,83,-332,-7664,-2828
-86,76,125,-181,-5330,-629
-11,-76,-36,-167,-1125,199
-4,-1,111,164,1570,-280
-1,107,-88,-63,-238,433
-11,47,18,111,165,-255
-42,19,111,513,-373,580
30,-117,-99,-124,-13,-110
92,95,-75,-48,210,-231
102,67,109,-126,-171,91
126,27,115,46,-95,160
-116,47,-121,-35,-224,167
-74,79,-109,-31,-55,37
-37,85,-102,-95,124,32
-42,74,-85,37,91,204
-24,84,-111,70,141,183
-13,105,-115,-208,-14,87
14,99,-102,0,-27,43
38,95,-94,102,55,-8
55,92,-70,155,106,98
100,51,-30,338,829,220
-58,-11,52,1154,2619,175
34,-89,-127,687,2894,762
70,119,56,-693,2389,1472
126,-128,-53,-2434,2526,2724
120,-108,-120,-617,1307,5355
-82,16,-72,-4324,2831,4367
11,-119,-31,1298,2756,3128
102,-47,-29,-270,2359,4741
-17,-44,69,-2263,647,4309
63,-33,94,-1778,-77,3018
-38,107,118,131,-173,3504
-77,104,-108,1701,-726,3673
110,-85,57,506,-752,1793
25,-53,-25,-1022,-601,369
-33,101,-13,-98,-296,-395
-48,22,-7,1469,-107,-116
-69,-7,18,1766,-492,596
-56,51,-12,622,-469,60
-51,66,-1,-1138,-724,-988
51,68,75,-3462,1415,-1040
-23,-49,2,-719,345,-410
48,79,-117,2561,-4948,-3597
16,107,-89,-160,-5300,-4110
77,-33,-107,-2901,-5917,-6111
-82,95,-124,-2877,-9510,-5334
-5,-89,-47,2025,-7270,-2276
18,-94,-41,-298,-4573,272
-28,-51,-42,665,-1233,913
105,20,80,24,489,174
-26,-74,-53,-1,-78,272
-46,-124,-98,192,367,-347
-17,81,99,168,-251,174
47,58,120,-267,-12,-114
76,41,-115,-423,21,-37
112,33,-118,-361,-32,117
-127,50,-119,388,18,342
-107,111,-119,-45,4,-31
-79,107,-117,-121,-8,-107
-53,69,-110,113,14,-75
-28,85,-124,-155,-13,-54
-14,63,-106,322,-45,15
-5,68,-97,108,12,-71
-8,89,-97,198,-160,40
36,110,-75,-52,42,-80
54,97,-61,9,75,7
96,120,-81,-270,340,-144
-101,75,-48,-395,952,-13
-10,-4,55,95,1749,204
48,-79,69,-339,2924,913
73,-62,5,-1270,3343,1799
113,-12,13,-3488,3077,2387
-101,-121,-30,687,2461,4594
25,119,-50,-4001,2633,4846
-81,-70,-17,254,1442,3670
85,127,-10,-1153,3531,2964
-102,-16,-72,170,49,3897
-27,51,-54,-1538,-138,3173
-91,-5,118,-2092,-232,3015
111,111,-107,575,-1454,3925
119,84,-127,2153,-835,4106
47,-125,76,2020,-270,2530
-26,-119,63,1449,-558,524
-42,110,57,635,-305,-227
-60,65,51,-192,-161,-441
-64,43,37,-638,-226,-325
-63,32,21,-707,-335,-273
-45,26,1,-774,-276,-494
-13,-120,6,-5373,282,-1902
54,56,-19,-3361,1139,-938
-22,-54,-68,-184,137,-114
25,70,123,-491,-316,36
-27,-40,-56,4835,-2508,2085
-76,9,-109,8757,-3070,2802
81,-122,-54,1656,-1607,331
-7,-4,-127,-1273,1108,-1051
-67,32,-67,2932,-3564,-2193
0,-120,-119,-2290,-5491,-3354
28,-98,85,-4082,-7789,-4481
89,-102,-111,-2976,-8752,-4434
-125,-60,11,-3391,-8913,-4501
-124,-65,-44,394,-7373,-1488
-29,-79,-13,52,-4028,-92
-52,14,116,-208,-2282,136
121,56,86,869,-379,-59
8,65,-2,-239,-553,622
1,64,98,540,426,-56
-2,33,-2,9,273,96
13,11,-122,-154,-128,113
62,-13,-85,167,128,-156
111,8,-85,-268,-94,-10
-126,8,-71,109,-57,22
-93,9,-62,-37,361,-138
-94,29,-86,-134,-52,162
-50,58,-88,-193,133,-261
-34,9,-60,230,6,161
50,-27,-37,-57,476,273
-119,-26,7,-740,755,953
20,-71,44,-1772,1716,1321
11,65,13,55,2613,2911
87,-83,-98,-508,2727,2890
74,7,114,-183,3681,2836
-76,-124,-114,3749,3067,2086
-35,47,59,71,4646,3266
-114,-105,-123,-2607,2155,3646
122,76,-85,-2243,1471,2028
-79,35,-10,498,964,3992
-126,-1,47,-1267,579,3129
-123,17,60,-818,-859,2527
112,-68,64,-724,-212,1827
26,77,39,407,-45,1513
8,84,36,370,-723,1782
-14,87,-14,-448,-563,1085
-25,88,-13,-886,-332,449
-21,64,-24,-304,265,-67
-18,68,-22,-126,138,-112
-3,58,-26,213,156,-251
0,43,-49,307,240,-290
15,54,-59,-1293,382,-216
5,22,-50,-482,-112,-8
26,38,-92,-190,-102,9
42,60,-123,51,19,-73
39,9,95,6208,-205,3128
-47,-52,86,4963,-1204,2001
-70,48,-35,478,-1081,-3175
67,-122,-74,2290,-2810,-2957
27,3,89,2841,-5079,-2476
8,-84,29,-2982,-7849,-5770
9,-48,35,-758,-10669,-5047
79,-41,-49,146,-10497,-3038
-3,-103,102,-88,-8072,-1556
49,-7,-6,760,-4067,116
-109,-3,27,526,-206,621
41,7,12,444,573,350
-44,94,-49,645,169,535
-32,99,81,-243,3,-49
-41,0,-105,415,-125,252
38,34,-72,-644,-102,-208
87,-58,-37,272,418,110
-124,-66,-88,568,427,271
-119,-21,111,483,207,282
-121,42,90,-302,-262,57
-79,46,-89,-149,-51,-115
-55,9,-77,-55,48,36
-20,21,-116,-283,8,0
2,19,-126,-84,-30,72
20,22,-90,65,117,23
84,22,-57,-111,562,140
-27,13,26,-392,1566,412
23,-49,47,5,2677,614
38,-48,-10,-1843,2653,451
49,-97,-41,-2089,3186,845
-105,-117,-59,-362,3506,2537
-17,-18,-66,-2697,4599,3076
95,-45,119,-83,3697,3217
69,39,-93,1857,1873,6754
-11,61,45,-5885,729,3354
-114,82,0,-1676,-2877,5603
98,-113,68,287,-854,4269
-77,22,87,3599,1618,3423
-92,-85,33,1885,1613,2334
50,-33,4,702,91,1093
-81,-108,49,719,-629,-191
-80,51,88,501,-622,-1077
-77,31,101,-257,-388,-583
-74,10,59,-921,-273,-629
-48,39,20,-1696,235,-509
20,31,95,-1968,1353,-814
-21,-12,5,-809,-501,128
12,24,-37,-790,-447,-216
41,37,-97,-924,228,-541
40,25,124,-262,299,-260
40,-76,102,6107,1902,1450
86,-106,78,8813,1106,1539
83,24,-69,2140,-281,-883
96,-124,-51,-128,-1278,-898
112,43,114,3434,-292,1734
27,-23,-20,2625,566,-1990
41,-19,-56,-1082,-7686,-1133
-4,-39,-21,-730,-5206,-2209
96,-69,8,-1726,-6604,-1392
-47,118,-34,-2456,-10177,-1005
115,68,-116,-3449,-8998,-1944
-47,-66,-76,-986,-7523,3
93,10,3,229,-5237,1843
-69,-110,-67,-280,651,644
71,10,-68,-235,1394,-611
-96,106,22,349,1082,84
111,9,-12,-500,243,-29
-96,-3,108,42,-30,324
7,53,-91,56,221,-210
68,0,-64,-138,436,-276
100,-85,-78,-44,831,94
-66,-110,-75,-306,1190,357
37,-108,-60,-1463,1940,703
107,120,-63,-1859,2659,1722
15,-112,-125,-2413,4566,1527
-116,-48,56,658,4439,2884
90,-63,39,-890,2334,4774
28,79,38,-3113,3088,2044
-63,-108,57,-628,256,4697
-95,-72,125,-2556,6,3477
-54,98,-13,-1585,-1078,3251
-61,-22,-49,477,-527,4531
-82,-6,15,-236,-1163,3531
-55,-52,-91,49,973,1930
-121,-31,-81,-66,103,950
60,-73,-67,543,-971,-45
41,-127,-73,570,-681,-408
46,93,-91,437,84,-103
16,90,-96,31,-304,183
24,96,-120,-203,103,322
94,84,-97,-6,1304,-312
91,98,57,-1704,672,-421
31,30,-84,-195,-778,-64
88,56,-118,412,-260,142
116,92,72,484,154,117
100,107,43,802,-290,146
85,-124,60,-929,-102,-17
123,93,-88,-118,441,10
-112,99,-56,547,318,95
118,-115,120,-273,-14,-104
-11,80,-41,9647,-3586,4135
-49,-60,85,4933,-3052,412
-83,-105,9,-497,328,-2119
26,54,33,1177,-2677,-2771
37,54,60,-1161,-7877,-2575
-45,64,-71,-4555,-9839,-2775
15,10,-101,-4632,-8973,-2713
-87,11,-14,-1201,-8955,-1274
-105,-40,116,-1252,-7120,853
57,19,120,-55,-3130,1735
5,26,108,-2833,1895,-1394
3,113,2,1188,891,-742
-88,-55,23,-493,370,357
-90,-31,68,-3,246,427
-8,84,-82,282,-35,259
49,122,-114,-63,293,-402
73,36,84,-232,-151,-27
102,-1,123,131,124,139
124,19,124,93,93,82
-99,41,119,76,-67,-45
-74,39,102,27,-187,43
-65,38,98,-19,-232,56
-42,33,105,-11,-302,-39
4,29,-122,268,-35,9
38,42,-88,69,89,-3
83,1,-58,-189,867,-195
-50,-49,-10,-1228,2029,-833
30,-101,-41,-2990,3156,-619
91,-68,-70,-3961,3972,210
-104,72,116,-7181,3672,1024
43,115,-127,-2187,428,4859
122,-95,78,-1778,-650,6478
-3,102,101,-700,613,4011
-14,-63,-71,2026,-1949,5234
-64,-70,-112,-2117,-2278,4659
-81,30,84,768,-1828,3402
93,-108,60,2070,-193,2506
77,74,67,2923,158,2919
99,83,21,2254,698,2582
84,-113,24,908,305,1648
8,-97,-14,-390,-402,148
-29,85,-10,-535,-1092,-460
-32,35,-18,-508,-588,-154
-48,1,-33,-229,-1,-26
-44,2,-10,485,924,-111
-16,46,69,-1650,880,-681
-10,10,-45,-483,-606,105
12,33,-77,-866,-364,-253
30,36,125,-707,-2,-238
25,39,112,-304,-23,-1
68,6,54,4396,-327,-3331
-12,-42,-85,1125,-4284,-5700
11,-110,98,3162,-5474,-5139
88,42,-118,-684,-7855,-6204
21,20,65,-759,-9418,-4895
121,-87,-64,948,-8500,-1456
55,-82,32,-156,-5324,834
-31,-32,-45,508,-488,898
54,-98,-111,-54,680,24
-45,-60,-51,15,504,77
-56,48,8,-69,30,-35
-18,56,30,298,-633,380
67,106,-64,-111,13,-177
92,76,-89,-241,196,-119
119,47,127,8,162,-47
-100,61,100,53,51,129
-87,52,-113,114,242,219
-39,66,-108,-105,419,108
-27,60,-90,-61,548,197
8,45,-104,155,777,146
53,35,125,22,528,282
-125,-21,-53,-371,983,480
-56,-90,-14,-356,1762,855
86,-97,-36,-983,3109,780
-114,-88,-92,-2015,4059,1791
-114,-58,-79,191,4167,3718
75,-62,-112,-4841,5994,3321
-78,-115,14,-1765,-93,4514
-32,-84,-12,-2102,-1384,5173
-91,19,65,-1643,-1301,3087
-37,-7,118,794,-1120,3527
-60,-70,52,932,685,2893
119,120,17,86,-141,2879
120,115,4,-413,-255,2419
101,-123,-18,62,-288,1336
7,125,-45,446,-493,-93
-4,65,-16,928,-402,-114
-21,38,-29,1220,-364,112
-27,79,1,-585,-375,-436
12,37,82,-763,674,-237
22,54,-42,-1022,-21,-411
28,53,-105,-1163,-160,-285
40,42,114,-915,199,-468
37,23,116,-35,-78,73
42,28,-114,754,-303,407
59,68,-97,412,41,138
66,123,126,-163,-97,-36
74,114,110,-396,4,-186
77,93,104,-241,8,-7
84,103,94,-266,56,18
31,91,3,6347,1266,1482
31,35,-90,6265,320,1463
29,7,-113,2852,-39,445
26,17,-94,-1114,50,-52
59,-21,-117,-1739,1088,-523
10,-92,-59,1225,346,759
-24,-87,-58,2502,-1132,1795
24,-25,-45,1812,217,1134
90,-50,-83,2938,-173,511
-109,81,-117,5730,-3520,-1076
121,-37,-42,-2681,-5633,-3670
1,50,24,293,-6906,-3487
-23,-57,-114,-3556,-8502,-4372
-23,-10,111,-4262,-10073,-4099
104,-97,-44,-936,-8028,-730
40,61,-31,-1336,-4637,679
-66,53,24,-842,-1276,749
88,49,33,-7,-8,187
-12,93,32,686,188,252
-42,90,-90,142,478,-304
-61,74,103,297,-70,419
18,108,-126,-221,16,-101
67,87,-94,-389,112,-106
102,19,-110,19,243,175
105,19,101,-16,124,141
-126,44,90,-111,-91,82
-78,54,115,163,4,50
-71,69,-128,-95,-30,19
-46,73,-128,-85,-61,36
-14,73,123,-117,-7,-136
15,52,-124,40,-37,-45
96,41,-94,-358,450,-322
-101,33,-91,-1314,1071,-718
-16,0,-96,-2035,1819,-755
-18,-30,-46,-1310,2287,495
-39,10,-31,-1796,2286,1814
-32,42,-15,-2338,2707,1774
52,-55,-7,-4079,2102,1671
47,-110,55,-2536,229,3000
73,84,49,10,-1049,5828
20,102,37,-589,940,5647
-39,-1,49,3131,-292,4922
6,-128,-4,803,61,4869
-78,45,37,-608,-351,2274
-119,25,33,-1655,-949,2395
57,-85,19,-989,-673,1919
29,117,36,228,-69,1477
39,105,32,739,341,1324
28,121,-6,632,391,860
22,99,-9,500,-137,-262
-107,105,92,3912,-3040,-3136
-66,17,95,-958,-5723,-4155
-33,63,106,-2650,-6917,-4386
40,109,119,-3643,-7635,-4514
-56,-1,-113,-3427,-9500,-3592
24,74,-105,252,-7602,-875
1,-31,29,-337,-3596,367
44,50,-23,-591,-1415,-393
-72,43,109,30,501,-922
42,-59,37,140,594,-175
-81,-66,102,304,-53,701
-10,26,100,41,-118,441
7,-98,-65,294,-238,277
53,-95,-21,-157,119,-320
88,78,-54,-164,148,-114
124,41,-118,-8,-75,177
-98,48,-110,11,87,2
-71,53,-99,171,-32,12
-15,35,-88,361,157,-116
31,0,-95,155,521,-207
-109,-79,-95,-628,1117,12
-73,-48,-47,-2161,2221,385
-43,7,9,-2859,3137,771
37,-76,-11,219,3002,2893
20,36,-53,-979,3245,3899
-103,52,-62,-284,2213,3639
104,-102,-94,-1879,2291,4159
-111,-103,-37,-1149,-239,5422
-85,79,39,-1917,335,3590
-122,72,-12,-2316,-2486,5638
-72,-52,28,-1015,-703,2172
-78,103,49,1827,197,2609
123,117,44,1963,-608,2388
94,-114,28,1404,-662,1665
49,-114,-11,847,-100,441
-3,99,-26,246,25,-165
-12,54,-31,284,45,48
-23,35,-55,563,77,357
3,111,-96,-1387,286,-180
26,-112,-112,-3149,-206,-912
-42,-94,-81,1812,-251,96
26,28,-42,-197,662,-124
37,80,126,29,-627,400
56,96,115,107,-441,-100
68,123,78,-1147,239,-532
69,78,-109,-1072,295,-253
51,47,-93,290,-146,155
79,109,100,218,-246,125
95,127,105,166,41,-5
89,-122,110,189,-20,73
37,50,-18,5128,1039,1837
43,58,-9,3639,710,976
14,-95,-6,495,-363,-27
101,-100,-81,2692,-101,-1302
-77,-112,1,6787,-1174,-2088
-18,18,47,2502,-5690,-2589
57,58,25,-1919,-5514,-3980
-44,-112,-36,80,-7264,-3282
-51,125,20,-4250,-8335,-4078
-30,63,-119,-4607,-8783,-3380
-91,-37,52,2546,-7441,-256
-34,21,64,-301,-4428,786
107,-14,23,570,375,15
46,121,54,1030,504,-375
-30,-46,-26,-273,132,-629
-52,-1,-111,554,375,77
-26,29,69,-240,-529,212
52,31,-110,35,-107,-74
51,27,-72,55,-55,0
86,31,-72,-244,80,16
-102,21,-128,139,322,75
-87,42,105,-268,134,41
-67,42,120,17,100,123
-58,32,-127,-184,149,22
-49,30,-125,-49,69,60
-4,46,123,-11,70,-66
33,38,-121,-84,127,-54
79,32,-121,-370,273,-114
-110,29,-128,-955,935,-363
-35,-48,-47,-286,1675,-582
-42,-54,27,389,2816,342
-16,28,64,261,3470,759
67,38,51,-1943,3838,810
-92,-34,-39,-1474,3355,3090
-80,70,21,-5614,3487,2748
-48,-46,-77,-1118,1165,4967
0,121,-58,-3485,2075,5462
-37,-89,5,-1020,1211,3519
-29,-40,113,97,-1421,5653
-80,-117,103,-1140,-1073,2642
-45,-100,-96,-1977,-808,3143
-109,112,-125,605,-752,2429
54,-124,92,2018,-736,1379
-23,102,35,2361,-358,41
-22,61,40,1016,124,473
-66,46,24,-673,43,385
-87,-1,-13,-609,175,519
-62,23,-9,-762,-72,266
-15,54,-24,-1416,218,-461
10,53,-48,-1756,494,-1052
27,-124,-109,7152,-388,687
108,-52,88,3937,-823,-2297
-13,71,-91,165,-4912,-3834
-2,-110,74,-1124,-3531,-4315
90,-117,-72,754,-4549,-4364
-36,-54,-77,-1475,-6084,-4367
41,108,-2,-5751,-8224,-4251
1,-63,71,-645,-8493,-2975
108,21,-71,1336,-4922,-869
113,-98,-2,697,-979,-1002
120,-11,-57,-343,1187,-999
-71,-29,-33,120,421,838
-43,13,63,14,222,-104
-56,45,83,153,-321,323
18,95,-52,117,76,-260
50,84,-70,-975,-143,-69
93,20,-107,168,-37,273
126,62,123,-68,94,60
-122,68,-107,-130,-148,-3
-75,56,-101,319,64,-101
-74,17,-101,498,-66,15
-13,50,-66,227,152,-39
49,2,-42,211,696,105
110,-72,-11,234,1566,23
109,-92,-78,-386,1629,102
-125,-84,-99,-672,1624,932
13,27,-21,-2311,2002,1532
54,-34,13,-1647,2161,3390
-87,-27,-22,1206,2037,5502
16,-70,-38,-2570,3836,3746
18,69,-43,2459,3046,2424
1,64,-16,1872,3625,4578
-115,-67,13,-4046,989,2638
-93,74,-66,-1711,-122,4070
102,-104,48,-1092,-465,3375
-103,103,40,506,579,3475
118,-103,26,-499,116,2970
51,-29,-1,-1504,-531,1482
-7,-92,-10,-289,-793,-122
-17,78,0,1228,-405,-759
-3,24,-8,1389,48,-838
-1,44,9,607,-45,-261
-2,39,-16,-46,72,264
-3,39,-37,-146,-191,136
22,56,-45,-952,-154,-265
69,113,0,-2512,1247,-742
27,94,-77,-1248,-527,-52
80,103,-111,-1482,-89,-572
86,80,-121,-773,155,-272
78,84,116,99,-114,38
53,28,-103,3086,-4973,-3350
82,-36,-124,-2653,-5312,-4054
8,-100,66,-2577,-7407,-3169
-25,2,92,-5676,-7142,-4672
-30,-118,-72,-2469,-8342,-3692
-45,84,97,158,-7048,-1151
-22,-79,63,612,-3703,-8
-77,-121,-22,184,-97,196
41,14,95,-92,630,186
2,94,-37,341,647,366
-57,82,52,80,86,87
-64,112,64,377,-378,127
3,87,-56,-90,-110,-56
78,93,-60,-108,100,-129
117,101,-84,-15,201,-264
-128,77,-117,-144,-164,-57
-106,29,-109,-84,35,-61
-104,10,-98,-28,-212,313
-28,66,-100,-20,121,-20
-11,45,-25,175,259,614
46,17,51,-62,1291,664
-34,-1,50,56,3123,56
61,-3,-47,-575,3773,-460
86,-80,125,138,3269,564
116,-65,-127,-572,2958,1444
-97,-65,-78,-2959,3764,2213
55,114,-62,-275,4126,3825
65,17,84,422,3834,5487
-63,60,64,-6725,757,2543
-111,-76,104,-2640,-1786,4277
-42,58,-125,-908,284,3789
-103,-15,-64,-57,431,3433
-110,-50,87,-232,61,3819
-128,-57,37,-454,-711,2799
46,-37,6,-442,-1488,1189
-16,-115,-10,218,-1209,-632
-21,62,3,1057,-325,-527
-15,19,-25,1419,388,25
-26,28,-48,778,67,275
-2,56,-45,-627,-303,-227
33,54,-68,-1133,-180,-606
29,111,-44,-3947,-27,-2047
74,10,55,-1542,956,-531
14,26,-97,38,-598,-307
77,-120,109,-121,-429,198
98,-112,89,362,302,-36
83,-117,89,933,-23,285
76,-103,-112,370,-203,281
95,-83,-78,-252,228,-104
96,-83,124,-322,-276,-65
120,32,113,7312,-4499,-2312
-87,80,-92,-5008,-7223,-3368
53,5,9,-5389,-8810,-4038
96,71,-10,-1960,-6358,-4375
-42,62,-77,1658,-7234,-213
-36,-39,85,940,-4545,425
-24,-65,-48,38,-1082,-349
25,30,-97,1654,452,363
-61,108,98,1066,1128,290
-44,59,61,-159,390,15
2,30,-40,-81,-496,258
72,43,65,-184,-376,81
95,24,-98,253,-21,90
-118,45,-124,-304,189,-125
-100,18,109,-11,59,192
-78,17,89,273,70,269
-59,29,82,255,77,24
-41,50,119,27,-115,25
-27,57,-118,-19,65,73
3,65,124,-42,-1,127
26,64,111,-195,24,60
31,61,117,-202,19,-69
49,49,-120,208,136,-54
69,52,-93,-134,354,-184
-122,43,-23,-405,1083,-265
-70,-7,9,-98,2126,-125
-19,-14,-23,-1139,2122,-153
-16,-17,-66,-1700,2050,147
76,29,-42,-2309,1670,800
65,41,14,-2396,1302,2651
-59,64,13,-721,766,3914
67,48,57,-1993,2658,2789
2,-63,-4,574,1838,5190
125,-121,-25,209,2081,6062
9,-56,51,-683,763,2397
-64,95,58,-1673,-369,3056
110,-34,61,-1516,0,2346
101,85,52,1129,270,3360
105,88,54,2304,144,3037
106,87,25,2267,589,2049
34,96,14,1104,-71,374
-24,59,41,483,-1663,-475
43,11,78,1455,1309,-549
-48,-4,-51,1567,599,-8
-62,-18,119,678,-250,1471
-43,11,99,-152,-238,713
-2,46,20,-1534,-21,73
14,45,-29,-2621,42,-928
76,48,-30,-2847,266,-1361
86,67,0,-2414,439,-1603
-25,-54,-28,3244,-2129,-2693
-106,118,-39,2140,-4234,-3537
-18,-101,-6,-1632,-7011,-3066
9,-60,69,-3396,-7979,-4091
-91,-16,-32,-1052,-8523,-4261
-50,6,-124,609,-6749,-1211
46,-36,24,519,-4044,1066
13,-29,-23,77,-668,1139
-9,116,46,790,840,457
-100,-70,-57,98,606,306
-96,118,22,-115,86,-478
-20,45,67,42,-322,345
78,24,-125,-119,299,-332
113,-24,122,1,197,61
-123,-13,37,-43,-58,173
-96,13,53,195,-244,369
-56,41,114,-127,27,-7
-50,23,-121,-109,202,-20
-26,2,120,-258,209,264
-11,47,46,-76,14,288
-23,87,70,-70,-433,117
14,86,109,-137,-167,-150
33,54,-127,129,-183,-31
53,57,-121,-131,-101,-27
70,47,-114,1,-14,156
82,69,-98,-174,231,168
113,72,-59,-396,644,163
-82,45,23,-625,979,383
35,-17,79,-1236,1848,563
119,-76,65,-3129,3123,196
-25,90,37,-2099,4086,2267
103,-32,-23,-3166,4622,3830
109,11,-43,480,3108,5148
40,89,-59,-4506,-212,3885
-12,-89,71,-3209,-452,4260
-44,39,-107,27,-2024,5257
-33,17,97,19,-670,4270
-117,-66,113,945,-1630,3925
-106,-69,98,-174,-733,3017
91,-30,18,-1256,-48,1056
21,-70,17,-330,-395,-79
-12,102,4,1297,-154,-445
-28,26,-22,2273,-35,-377
-31,1,-27,2279,-134,-79
-31,-2,-19,1418,-141,147
-37,8,49,510,-849,271
-24,-17,35,482,-239,247
16,69,58,-1475,-541,-274
43,48,-12,-2560,458,-1162
43,-20,-57,-847,370,-746
21,-65,61,9779,-959,1220
-3,8,-15,5463,-676,-27
-90,-126,28,-1834,-1685,-3003
-124,-13,24,-2281,-5409,-3277
-39,-58,12,-1115,-5964,-3575
-108,31,27,-4613,-6756,-5117
40,3,-81,-1883,-8270,-4045
-56,37,127,-1217,-6941,-3385
42,120,-50,560,-5852,-120
56,78,-82,-421,-2878,726
-58,84,-34,644,76,473
-50,121,-45,234,1044,192
120,-112,-58,305,344,821
-86,106,25,-347,350,-266
-24,57,100,174,-234,436
59,51,-101,-118,273,-96
91,12,111,-180,-57,189
108,-23,87,777,3,461
125,44,106,106,-79,156
-96,77,120,-150,-154,58
-92,64,115,124,-133,-29
-59,68,107,-119,-298,-21
-23,39,-117,-82,-108,75
-16,45,-114,11,-65,139
11,54,-125,94,52,-24
19,68,-123,-25,-56,36
38,66,-110,28,131,92
88,79,-114,-398,293,-196
-98,46,-66,-241,722,-238
-5,-27,32,320,1853,14
-66,-74,3,-945,2019,825
-29,-35,-68,-2675,1634,1451
49,-84,-65,-1432,1466,3677
-109,-124,-30,1546,1777,4506
-102,67,109,310,5509,1290
-36,94,-49,1985,2519,3502
-69,-73,-35,-2942,2360,3599
-94,-12,39,-1002,1308,2650
-88,-40,18,140,1114,3688
121,-43,74,-649,1235,2550
98,-104,63,-1210,283,2971
99,61,69,-224,-122,3291
-112,79,99,75,-558,3415
74,-73,60,-380,-776,1787
-21,-83,49,-575,-1036,-575
-37,60,54,501,-980,-1152
-27,-47,21,1322,-355,-576
-57,-71,8,1405,-299,-3
-36,24,31,-2500,887,-625
-3,2,24,-1339,498,-100
