AccX,AccY,AccZ,GyroX,GyroY,GyroZ
69,-3,37,2260,-5619,-10775
-34,65,-124,1644,-12756,-11894
80,113,10,2078,-10516,-5972
39,93,78,-879,-3951,-3772
-83,-8,15,-777,-2136,-950
10,29,-50,-1,623,328
125,24,58,-835,993,284
59,42,-86,-395,155,501
100,45,-101,530,681,-135
-94,93,92,-68,-70,19
-15,2,-88,-176,692,91
-7,58,66,2,88,233
87,-71,-80,98,922,630
-48,-83,-58,-562,1997,1591
30,-53,119,-119,2441,2238
69,105,-30,-788,2177,2964
91,6,-38,859,3357,2852
-46,-105,-112,-901,2770,3292
57,-89,53,1326,3587,3696
34,-36,58,378,3254,3508
-110,5,91,630,2863,2932
-71,-86,109,1332,2627,3560
-52,121,98,2996,2936,2781
-46,58,108,2720,2522,2740
-127,58,97,2167,1613,1670
50,67,-112,674,750,1096
-40,24,-60,444,187,604
-60,-18,-28,900,154,378
-93,-34,22,930,8,377
-91,-37,38,790,-80,147
-67,-36,61,386,-281,30
-54,-59,79,226,-241,24
-36,-70,75,140,-65,-156
-38,-84,72,256,-91,-133
-37,-90,68,316,-85,-75
-23,-79,50,26,54,-107
-29,-91,29,199,104,-2
-17,-77,3,-119,115,16
2,-64,-24,-56,152,74
5,-50,-43,-159,13,-26
9,-37,-50,-127,50,-112
11,-49,-66,154,167,15
18,-24,-83,-260,49,-52
23,-25,-95,-68,54,-7
32,-9,-108,-99,65,-69
35,-8,-121,0,39,-30
53,0,126,-73,98,-28
54,20,118,-136,-84,-45
61,16,115,37,157,-65
69,28,104,-22,20,-13
103,40,87,-5437,2114,-1008
-85,106,77,-4775,1741,-2030
59,28,101,-1763,-972,-5859
-16,62,-17,-4203,-1659,-8875
119,-111,-124,-494,-4464,-12650
-58,70,-25,3783,-4091,-10518
-78,-106,-106,3725,-4186,-7337
119,-85,88,1455,-2801,-3907
-21,112,79,-671,-1600,206
97,-124,-58,-1430,658,610
118,-27,-109,-127,625,212
31,59,54,-1,264,65
109,61,51,-84,58,-193
-44,-19,17,207,4,59
11,-71,46,-82,550,318
38,-60,-11,129,626,581
-109,114,22,180,1147,1743
6,-5,103,-931,2556,3034
-95,80,-52,-421,3385,4269
-120,22,3,-1003,3181,5372
22,-105,-126,1276,2979,5387
112,0,97,1129,3193,5446
3,15,72,2821,3650,5405
122,76,-25,2799,3213,4556
-101,-22,-26,3834,2376,4204
-2,68,4,1337,679,3011
-127,19,3,556,1169,1185
-9,122,45,2787,598,1210
-55,110,56,2680,349,816
-100,124,70,1492,443,488
-124,82,-120,1265,-337,328
-123,96,-77,336,-353,-39
-114,72,-21,247,-789,-368
-78,34,-6,92,-352,-640
-55,-9,16,635,-808,-534
-46,-18,27,231,-555,-502
-40,-30,32,-237,-402,-471
-41,-41,23,-63,-299,-168
-40,-32,-6,-207,40,-228
-20,-27,-41,-65,-4,-105
-19,-10,-71,-320,81,-61
-23,-2,-88,-181,109,-23
-14,7,-112,-12,185,153
-7,35,124,-328,156,84
-2,43,110,-66,68,97
11,55,100,76,154,144
11,73,94,-58,-2,58
19,79,91,-10,100,81
26,83,86,81,78,51
37,92,77,11,144,13
-25,-115,-66,-3333,884,-3972
83,-58,-21,1998,-1162,-6022
47,97,-114,1778,-4529,-9355
97,115,104,-1939,-11276,-12534
-27,-5,28,437,-7735,-8274
34,-33,41,-424,-6472,-4688
5,36,-89,36,-1296,-2384
-52,26,-6,-555,2284,350
89,93,-91,-977,1521,724
9,20,20,-430,179,230
86,-118,110,959,-30,-193
-63,69,-96,-726,97,106
53,91,-122,-279,874,1159
-97,6,50,-112,1710,2102
2,-16,15,652,3030,2967
-12,101,-96,673,3291,4068
35,52,41,-596,2930,4668
-89,-3,114,664,3492,4748
-69,92,100,979,3330,5074
93,-79,57,1646,2521,4499
19,71,-28,2557,4229,4567
55,27,-103,4310,3221,3911
22,50,-71,1336,2227,2946
123,10,-31,835,256,1931
38,-31,-8,403,588,1068
-33,-121,61,1708,156,824
-55,107,84,2242,331,741
-84,102,127,1837,265,455
-63,91,-104,978,2,-165
-54,46,-40,1032,-506,-268
-39,38,-6,435,-548,-403
-20,-12,19,482,-550,-354
-21,-19,-2,228,-380,-168
3,-33,-9,130,-144,-609
-11,-59,-26,262,-42,-129
5,-41,-43,-373,-91,-173
9,-40,-69,-268,-190,22
36,-12,-98,-439,18,-19
11,-9,-102,-205,-470,247
22,15,-116,-502,-18,-2
20,22,-127,-209,266,-70
31,44,115,-134,248,33
40,58,104,-41,196,41
49,81,86,-145,90,-5
59,93,82,-240,274,20
66,104,75,31,245,-36
78,113,60,138,276,58
80,122,54,78,253,6
95,126,52,123,231,54
105,-117,49,-99,73,-24
42,-15,-98,-1860,-4745,-7109
-118,44,-57,-5226,-9555,-10192
-65,-114,-111,-3458,-9201,-10961
99,-101,82,1166,-7025,-5838
-74,66,54,-169,-4308,-4200
109,-104,-106,93,-2534,-1534
-12,-59,119,258,1789,448
108,-1,77,-777,1610,554
108,-71,-64,-231,175,123
-8,67,59,-17,463,-353
67,-28,-5,180,336,-19
-113,-94,-47,-6,743,580
-31,-123,-85,138,1681,695
44,-70,40,657,3098,1903
-91,58,-60,302,4035,3108
-109,-67,17,189,3786,3847
-126,113,90,1908,4279,4728
114,-91,4,-1391,3292,3275
-75,30,-115,2072,3498,3714
-66,47,-121,2054,3294,3409
-24,34,89,2709,3176,2536
4,-103,98,3183,3636,3331
79,-68,37,1927,3357,3232
92,35,28,-44,1588,2444
6,72,23,-1194,524,1330
-79,4,21,-114,228,541
-117,-35,51,954,-18,671
125,-3,73,186,-200,295
96,-74,-118,1884,-234,527
120,-47,-93,1623,-132,88
-119,-60,-94,1289,-72,-323
-119,-118,-57,1081,-428,-535
-104,118,-59,568,-231,-464
-71,90,-55,28,-261,-588
-60,47,-51,134,-190,-507
-62,33,-56,107,-36,-317
-64,44,-75,-316,25,-214
-59,60,-106,-517,51,-218
-61,48,-128,-56,77,-171
-33,52,98,-70,112,-135
-1,61,88,-121,-31,70
-12,82,85,-298,-52,54
-19,100,95,-254,83,200
-20,118,83,-101,132,88
7,124,72,129,160,138
24,-115,52,-42,212,87
22,-110,46,-58,123,118
20,-101,45,-223,184,103
24,-100,40,-41,243,101
33,-104,29,23,97,119
120,108,-16,-5165,1952,-2495
116,15,79,-1473,-2675,-4722
34,-16,-50,-3032,-2858,-7733
120,56,-81,117,-6856,-12196
-28,-84,39,1457,-8848,-11509
-112,-125,92,-138,-8259,-4839
-73,-84,-54,68,-3222,-1621
61,-63,68,-1980,1629,1775
-34,-124,78,-50,1544,266
57,101,-7,701,-292,-64
-97,-57,-35,177,697,85
-57,-6,-115,-153,378,432
49,-65,-128,323,917,578
123,73,-108,317,1777,1398
-113,122,58,339,2083,2306
-121,1,-32,761,2536,2113
83,75,-62,1685,3411,1602
-103,-82,54,102,1725,2426
-24,-113,79,-1569,2691,2774
60,-1,30,879,2658,3473
-110,-80,-61,635,2747,3600
-54,13,-98,600,2687,3263
28,2,126,2020,3250,3067
65,-16,54,1538,2263,3741
89,-78,86,1756,2056,3088
75,-47,74,1157,1321,2535
36,-53,61,909,1267,1792
-1,-90,67,1441,764,1231
-50,-127,85,1792,555,1283
-85,-112,96,1019,450,936
-111,-128,124,761,198,631
-121,115,-112,532,-191,369
-100,90,-76,383,-80,-73
-87,58,-65,398,-263,-237
-76,39,-45,327,-258,-285
-65,10,-33,381,-227,-396
-63,-5,-32,273,-236,-308
-50,-16,-37,224,-219,-287
-23,-17,-54,-185,52,-135
-23,-12,-71,-194,-68,-111
-23,-2,-83,-204,143,-51
-13,21,-112,-209,168,-66
-2,28,-128,-128,123,-6
8,56,103,-293,173,-18
4,56,97,-54,53,2
18,71,87,-134,234,23
32,95,72,-292,85,-27
35,84,78,37,112,96
37,115,68,-293,162,24
50,122,59,-98,71,-53
-29,120,36,-429,-3229,-5282
-22,-6,-80,-2848,-8663,-9402
52,-113,-56,-3818,-12025,-11849
55,76,58,325,-8193,-7711
-91,6,-111,1092,-4126,-3645
72,98,61,-682,-861,835
-88,-41,20,-1365,2430,338
20,-89,56,250,619,-229
32,71,84,-79,352,-65
114,-41,82,93,132,470
-10,-88,40,-192,861,711
37,80,43,337,1511,1477
79,-106,-27,385,1781,2065
127,-50,-109,99,2157,2650
-117,70,54,1312,1922,2857
-70,-77,26,-148,2700,2684
-34,-80,-30,1852,1600,3576
101,-16,-69,217,3660,2686
124,-54,-114,1286,2031,3897
-4,116,59,129,2834,3060
15,21,86,1389,2035,3367
44,-13,93,763,2396,3335
72,-58,73,1561,1752,3256
97,-44,78,949,1212,2509
54,-59,58,905,690,1713
21,-104,59,1325,451,1087
-8,85,91,2080,463,893
-42,69,119,1529,412,746
-48,55,-118,1012,144,572
-69,40,-91,868,223,389
-57,14,-67,840,114,206
-60,17,-59,454,-68,33
-45,-15,-52,772,97,-82
-31,-28,-45,468,-105,-72
-24,-32,-49,55,-71,-164
-9,-42,-45,106,-3,-127
-2,-41,-45,13,9,-44
6,-34,-55,109,60,-98
20,-25,-74,-62,110,-59
28,-12,-91,-103,163,-90
32,-13,-106,60,114,-15
34,4,-123,-140,181,-72
40,12,-126,-82,94,28
56,25,122,-156,196,32
74,43,106,-279,179,99
73,65,95,-250,80,12
80,70,96,12,146,-52
84,83,87,-74,23,-21
89,86,85,-114,108,-48
99,89,84,-132,77,-28
-94,97,60,2055,-1724,-5690
123,39,-99,-477,-2965,-9727
109,95,-114,436,-7951,-11336
15,115,-51,1457,-7522,-8078
31,-110,53,-19,-5373,-4300
-5,-80,93,285,-2150,-1048
24,-68,57,-306,1545,489
-104,-89,-68,250,1652,-101
58,78,-94,-765,-389,510
-118,-9,23,-201,270,113
-28,85,51,629,427,1148
-94,-20,50,-340,1521,2399
-86,78,-50,658,2237,3151
-26,-29,80,293,2469,3390
-12,-25,42,2111,2212,4660
-104,-61,-17,-1345,2825,4741
-7,-99,-124,2139,3647,5098
-88,-88,93,976,3177,5290
40,39,7,2169,2887,5707
114,-17,-30,4057,1699,5044
50,-89,-50,796,2127,2820
121,51,-26,1867,-20,1977
26,-19,-19,2221,462,1081
-37,-91,23,2014,-27,919
-88,-115,57,1637,478,639
-101,122,83,926,76,16
-91,83,-126,1124,-254,-55
-85,62,-41,418,-669,-450
-71,13,-21,575,-197,-337
-57,0,-3,478,-250,-433
-38,-20,-13,227,-474,-174
-24,1,-19,-354,-12,-309
-15,-25,-42,77,-46,-278
3,-7,-64,-167,11,-266
-1,-9,-82,-169,-59,-306
1,13,-107,-217,183,-201
6,-1,-106,76,-190,-94
18,27,-120,-248,89,-2
32,51,123,-311,215,-27
32,65,107,-204,11,59
37,81,106,-120,91,-51
31,81,96,12,122,-5
54,98,80,-196,173,49
63,101,71,0,22,-26
68,121,69,-2,-18,-113
79,109,68,407,-13,-137
83,101,73,506,5,-131
93,98,62,353,90,-116
93,91,64,564,-58,-79
103,80,51,640,198,-49
-45,36,52,644,-2938,-6666
-32,3,121,-13,-6424,-9571
28,-68,-16,-994,-7993,-11151
-52,-95,14,-454,-6604,-7205
-66,43,-93,-297,-5880,-4538
33,99,43,-80,-1523,-2144
9,-109,86,-407,308,595
90,-20,28,-295,761,532
-44,4,-42,-373,1303,168
-40,-50,-42,-64,1471,550
84,6,-81,622,1850,1718
-51,26,46,501,2546,2999
-18,-126,-56,-326,2608,4181
28,-13,117,-125,3370,4380
89,-92,-44,1723,3179,4433
-67,88,-92,-880,3732,4074
25,38,122,2135,3015,5226
-31,-108,56,1977,3705,4695
69,11,-8,3696,3254,5477
108,107,-86,2383,2333,4123
-44,-120,-91,791,1109,2301
28,-24,-37,2584,-570,1614
34,-128,-14,2932,416,1188
-57,126,68,1383,513,1198
-83,119,61,108,525,900
-90,120,95,431,7,382
-98,94,126,714,-705,258
-85,85,-91,231,-697,-206
-95,50,-59,826,-789,-423
-70,50,-42,185,-652,-477
-46,28,-53,165,-530,-748
-44,-10,-42,260,-396,-443
-34,-13,-39,-85,-412,-474
-18,-21,-69,2,163,-185
-27,-8,-108,-518,-35,-369
-25,-3,127,-372,164,-107
-21,4,111,78,196,-35
-9,36,77,-137,206,38
-5,42,76,-83,167,-31
11,54,65,-154,120,117
23,71,61,-65,122,86
7,92,69,-151,126,116
32,105,58,-72,397,87
82,102,44,306,402,12
58,113,38,360,13,84
51,119,46,258,163,-68
44,99,43,515,234,57
82,113,36,421,117,-175
53,92,42,217,-321,25
45,113,65,-356,219,37
-109,4,-43,-5720,1951,-2651
-88,9,-26,-335,656,-4018
-33,-68,-101,1662,-3855,-6138
-4,45,-115,-3944,-7226,-9852
-11,90,-16,-1199,-7710,-10719
5,51,55,864,-6390,-7443
-5,78,-54,-16,-6165,-4608
51,-92,-58,-116,-2492,-1898
43,-113,-26,-599,507,187
-113,41,-102,117,1172,377
-20,56,23,-449,688,337
40,-23,31,460,1159,343
93,49,17,500,1429,1476
-55,32,-54,507,2311,2633
-12,35,-107,239,3002,3668
22,-61,-27,1202,3649,4315
66,50,111,1306,4001,5025
-106,25,16,911,3736,5231
63,-114,-75,2779,4769,5138
-30,-48,4,2618,4071,4378
27,-68,-125,2888,3173,3725
-118,-56,-124,560,623,2555
49,126,-27,696,614,1648
-7,51,-15,1788,638,1285
-21,-13,17,2345,477,1253
-47,-5,-19,1474,738,629
-63,-22,-2,1078,222,374
-76,-62,41,750,-227,134
-80,-85,100,769,-241,-211
-86,-118,-126,734,-429,-239
-56,107,-115,532,-311,-448
-44,88,-105,178,-442,-364
-33,67,-94,221,-249,-275
-30,52,-99,116,-192,-197
-26,73,-102,-323,-73,-151
-18,65,-116,-13,44,-16
-15,78,121,-61,197,-16
0,108,94,-560,134,-111
0,85,83,145,167,60
11,115,58,-216,282,-9
16,121,51,-226,-56,-14
27,124,43,-42,194,83
30,-116,48,-288,-6,34
42,-109,42,-167,226,82
51,-104,40,-36,61,35
59,-89,32,-173,67,-8
54,-95,42,62,105,31
70,-82,27,-89,229,11
91,-89,19,68,143,49
93,-70,21,-257,103,64
118,55,65,-6538,1688,-3540
119,-91,-75,-2862,705,-4101
127,125,-41,1193,-1283,-4783
103,57,43,753,-3367,-9681
40,70,-21,950,-6556,-11078
-16,93,8,839,-6680,-8968
17,-18,120,348,-5694,-5292
-100,-121,18,1199,-2065,-2703
-18,-102,-39,553,-684,-47
95,80,-126,-799,947,194
20,-42,-33,42,561,180
-18,24,-78,295,517,25
45,-56,-105,-63,782,514
-126,84,-104,167,1326,1304
-75,47,119,69,1727,2464
40,92,30,127,2665,3425
60,123,-12,130,3456,3895
-89,26,-103,-837,4053,4963
1,-107,-32,1059,3879,5295
122,8,-94,2016,4507,5157
39,-106,2,2524,4239,4218
42,21,9,4415,3098,4071
-19,33,-59,2076,2442,3433
87,-56,6,2380,945,2148
77,-87,12,1566,1247,1669
-33,-122,26,1517,458,1312
-55,-128,62,1102,406,907
-109,96,76,1343,354,592
-120,113,107,1077,336,208
116,115,-114,683,-132,144
121,93,-73,715,-208,-293
-113,87,-44,298,-346,-168
-77,54,-24,71,-301,-560
-69,14,-6,485,-496,-393
-52,19,7,56,-532,-522
-37,0,-10,-309,-169,-299
-52,-7,-16,-79,-268,-321
-52,0,-46,-133,87,-56
-42,9,-69,-122,-29,-58
-33,25,-97,-406,120,58
-34,45,-109,-636,10,134
-8,61,111,-344,282,159
5,68,99,-35,159,224
1,108,78,-591,107,125
-13,104,71,-315,214,102
3,114,62,-93,159,-66
16,100,51,245,79,104
30,117,46,-48,226,-13
41,115,41,-95,139,84
57,-128,36,103,167,8
73,-45,-24,-4075,607,-3817
93,56,-56,-1636,-17,-3550
83,-50,-91,-668,-2844,-4061
-42,-71,35,-1773,-3146,-6773
88,-20,-16,-755,-6980,-8289
-16,80,114,-1170,-6833,-9310
58,17,-24,350,-5813,-7606
-69,17,-124,771,-3830,-4657
127,79,119,62,-1863,-2789
2,97,80,-666,-559,-280
72,-111,101,-71,1179,399
121,84,-46,-10,1152,509
4,71,116,-329,1097,1129
100,33,119,866,1423,1763
-109,-108,39,304,1554,2329
-67,-80,35,233,2383,2776
-66,-31,-15,584,2771,3240
-44,-87,-107,-171,2000,3487
15,-79,50,954,3499,2954
-1,10,35,950,1237,4292
113,-128,-47,267,2501,2356
85,-22,-31,1518,1778,3376
-75,7,-62,2192,2852,2120
-22,-38,-121,1574,3297,3106
-1,127,116,2254,1729,2318
35,-102,93,985,1775,2420
-1,81,88,2152,1136,2006
22,107,70,1464,1124,1635
-14,97,71,1423,780,1425
-74,107,53,1228,953,1096
-112,102,85,1157,87,885
-119,107,108,1117,221,524
124,109,-96,843,75,218
-119,95,-64,667,-173,-99
-105,72,-43,471,-162,-144
-84,39,-19,384,-148,-266
-85,22,-17,454,-146,-475
-74,-25,-3,613,-220,-278
-78,-19,-9,-59,36,-156
-62,-34,-25,256,165,-321
-28,-40,-43,475,164,-176
-39,-12,-90,284,148,-325
-37,-17,-113,265,72,-23
-16,14,127,-182,-87,-13
-29,7,-118,-372,145,462
-2,101,121,-1676,196,214
-18,88,86,-602,277,-91
11,80,86,122,130,-233
30,112,76,-267,125,-418
26,63,76,261,-70,-404
-30,6,90,-3463,-2038,-4978
2,78,110,-2006,-3768,-6210
120,-1,14,-3894,-4958,-8630
23,-19,65,-1965,-6104,-9388
-21,-14,61,804,-5491,-8922
93,-28,121,-284,-5063,-6874
-122,80,14,1860,-3016,-4427
-36,-74,-79,1269,-1531,-1356
-98,86,-24,-793,-5,137
-82,4,-126,-1444,784,238
76,-63,32,-290,612,307
33,-89,-109,62,350,395
102,-71,-100,56,263,679
-81,123,-58,332,1171,822
24,95,-61,338,1952,1707
70,55,-122,548,2691,2396
80,-94,30,288,3157,3277
35,18,-51,404,2111,4392
114,-126,103,913,3110,3455
108,74,80,308,2903,3861
-92,-49,-34,3519,3644,2716
-128,64,-42,715,3163,3302
-70,4,-77,2560,2420,2246
-17,-96,-117,2724,3628,2398
-85,-71,-119,1348,1128,2313
-37,-79,-94,458,2079,1909
-70,124,-93,1720,1361,1740
-49,-123,-119,1495,1029,1099
-86,95,-121,1776,348,979
-118,95,-110,1165,589,644
103,71,-93,1362,94,598
108,83,-83,1147,433,512
105,76,-52,1025,-74,519
119,85,-37,781,-152,166
105,74,5,556,-325,111
111,49,35,245,-13,21
116,36,22,-23,161,153
121,36,-6,-370,420,138
-119,24,-40,-155,150,-36
-87,39,-65,-443,283,-209
-112,9,-78,22,-118,-319
-99,-19,-85,338,126,-287
-86,-9,-91,155,22,-232
-74,-2,-96,38,161,-89
-58,11,-115,212,115,-194
-57,15,-123,185,84,19
-62,36,116,95,172,-43
-50,46,104,202,2,-23
-31,45,99,414,158,8
-29,50,86,110,26,168
37,93,104,842,-2385,-5154
3,88,-16,-4408,-6831,-8632
18,-21,-74,-5573,-10723,-12764
-25,-17,-98,2214,-7522,-8527
45,-116,-98,1565,-5907,-4825
68,-42,-98,210,-3023,-3461
6,-37,-33,-704,-1310,132
42,35,101,-507,653,818
61,-109,-122,39,871,656
40,118,-11,262,122,169
-119,17,37,-120,785,53
-55,-56,25,333,1034,645
12,-79,8,227,1750,1381
52,-38,-73,-137,2278,1779
-14,-30,-120,59,2622,2126
-28,54,29,763,1475,3238
41,-82,-10,-254,3367,1759
-50,89,-16,2503,1493,3550
46,37,109,-91,2589,2445
-1,123,-117,1568,2923,2467
72,-29,79,1358,2193,2710
119,-34,59,989,3031,2318
-101,-55,17,1328,2564,2586
-55,-112,-7,1615,2641,2997
-38,-47,-89,1267,2347,2176
-32,-55,-101,792,2213,2458
-60,-47,-98,-109,519,1655
-57,-56,127,543,926,1589
-85,-63,118,1513,333,1461
108,-36,118,1332,51,1093
113,-53,-104,1333,42,786
89,-66,-69,1213,-158,549
100,-90,-44,1370,-201,293
105,-96,-28,1008,-340,195
99,117,-21,957,-335,104
95,106,-2,636,-238,-97
108,83,-5,460,-144,-34
109,80,2,137,-284,-208
-117,51,1,206,81,-205
-96,39,-34,365,244,-152
-90,39,-66,304,96,-290
-108,34,-72,-36,-53,-238
-91,30,-86,-125,254,-129
-71,33,-113,-141,204,-201
-55,34,123,84,181,-208
-43,35,116,88,62,-175
-43,50,110,-19,110,-59
-45,68,108,-125,235,-129
-28,74,101,-27,263,-79
2,76,81,338,244,-67
35,91,-70,-1781,-2567,-5238
-89,-120,86,-2184,-2939,-6795
96,79,-101,-1263,-4386,-9128
124,112,-80,-2776,-5922,-9745
23,-14,100,-1684,-5198,-9302
-78,-13,-74,-102,-4347,-6815
62,-96,-80,1055,-2647,-4702
-112,-42,-43,1188,-999,-2629
80,-37,71,17,398,-116
-64,102,20,321,954,788
71,-76,-92,763,684,1022
64,-87,92,-54,761,1310
-97,-121,46,171,1365,1641
-25,41,-21,673,1600,2698
23,125,-84,279,2110,3360
10,-9,120,564,2108,3867
51,127,51,1238,3171,3732
46,24,16,1278,2008,4265
-125,41,-22,1035,2295,3870
-77,99,-86,1936,2294,3913
-77,69,-90,1933,2413,3234
-14,-27,121,3787,2454,2779
49,-108,83,2675,2384,2669
29,123,76,2154,2077,2084
4,77,116,1753,1462,1874
10,67,-128,1528,1152,1453
3,72,113,1117,1250,1455
-82,71,101,1096,680,1087
-106,70,107,1176,621,737
117,46,-114,1402,185,726
108,55,-74,911,78,393
117,50,-59,404,-289,268
-126,35,-37,361,-92,24
120,15,-12,420,-380,-92
-127,28,1,-51,-349,-133
-106,-1,-5,-26,45,-336
-102,-34,-15,333,-255,-293
-88,-31,-22,113,35,-308
-71,-44,-45,96,36,-245
-70,-34,-64,-252,-76,-149
-65,-40,-76,-121,9,-179
-73,-32,-84,-159,-11,-24
-64,-17,-103,-131,257,12
-60,-12,-124,41,75,41
-55,0,115,-72,160,109
-39,22,92,-149,259,118
-24,25,82,-92,133,202
-23,56,70,-204,187,215
-22,58,68,39,123,202
-9,83,55,-222,203,126
19,-106,-112,-560,-2430,-5457
50,-42,86,-36,-3901,-6315
63,-23,-116,-2077,-4296,-7971
48,-83,-82,-323,-5020,-7685
71,116,-122,310,-5118,-7352
-127,115,-101,121,-3728,-7511
19,-54,-33,2025,-1785,-4762
-121,-97,-62,2367,-33,-1277
16,-61,-39,768,220,525
46,103,85,85,343,-151
-1,-74,-101,23,168,556
45,-81,112,-486,507,270
41,-88,-3,-24,258,711
123,-66,-18,-182,646,431
-50,89,-7,24,834,1520
32,11,7,437,836,3184
-125,-123,-42,1247,2337,2904
49,-96,-75,2224,381,4619
119,-38,5,1619,1587,3880
120,16,9,3646,3308,3423
104,-24,-67,1809,3698,3724
-60,-107,-112,-1246,4021,2290
-77,-66,-125,3091,2921,3006
27,-54,-105,1198,3349,2602
47,83,-116,2896,2967,2393
110,14,75,3405,3376,2567
81,110,74,1193,1961,2684
27,-107,86,-213,1171,1350
-95,-122,77,-234,368,660
-120,70,121,1522,-73,527
125,26,-58,2414,156,830
99,70,-51,1373,403,330
91,63,-30,819,-392,280
106,34,4,829,-322,9
117,31,43,361,-161,-105
108,-6,49,536,-131,-85
113,10,45,127,-65,-64
-122,5,38,-171,-29,-155
-99,-11,15,-167,116,-212
-92,-13,-7,-102,161,-299
-84,-40,-30,239,122,-190
-68,-21,-61,-62,210,-117
-46,-13,-77,-132,-23,-51
-55,3,-85,-118,31,55
-67,30,-87,-311,-23,-22
-56,29,-89,-21,249,164
-39,61,-120,-296,242,26
-22,55,123,-17,176,137
-15,89,103,-245,213,39
-24,89,96,-143,195,141
18,-7,-20,-553,-2601,-5014
-61,51,-74,509,-3429,-7194
6,79,-108,-1472,-6633,-8310
3,83,-45,-1849,-6794,-9411
-85,-78,-104,2628,-6103,-7132
-121,5,-94,3660,-7084,-4940
5,-10,118,2847,-5026,-2693
-15,122,-123,732,-1097,-842
-59,-123,93,-934,1033,111
-103,90,-24,50,981,186
14,68,-67,274,-13,510
75,92,-40,-290,33,54
-100,51,18,164,187,152
-48,58,8,102,549,194
-13,47,-31,87,818,355
33,-69,-14,303,1607,984
-71,40,68,427,3136,2165
-8,-111,26,277,3913,2733
-20,69,36,660,3837,3830
-38,-14,-117,32,4533,2523
-31,-3,94,816,4605,3196
-38,-87,73,1462,4680,2755
44,-66,-60,991,4792,2640
-122,40,-110,4145,4553,3730
-71,-117,56,2252,3761,3442
106,1,74,205,1933,2637
14,5,68,-1203,1236,1378
-27,-75,69,809,866,1507
-61,-82,88,2676,674,1672
-100,-14,49,1794,829,1093
117,-46,60,1977,306,791
104,-51,107,1675,-349,650
74,-26,-86,838,-598,489
79,-40,-40,360,-353,-21
89,-52,-19,146,-430,-185
109,-76,0,286,-556,-538
-122,119,7,372,-366,-581
-116,89,8,374,-431,-634
-105,64,-9,151,-227,-570
-97,40,-19,-122,-165,-390
-89,33,-28,21,-170,-305
-86,31,-44,46,145,-126
-91,23,-57,189,123,136
-64,63,-83,-301,316,195
-59,82,-114,-271,304,366
-48,120,119,-422,356,296
-42,-119,104,-248,255,216
-34,-108,91,129,159,114
-30,-103,94,-40,193,90
-28,-93,82,-153,171,-13
56,52,-24,-5043,3005,-887
-81,104,-12,-4495,1481,-4620
-77,16,8,-1121,-1668,-5247
1,17,-112,-201,-4551,-6890
-36,-2,-21,-1564,-7304,-9037
-40,99,-32,-67,-8682,-8746
76,40,115,1318,-7910,-6816
-83,-3,15,-184,-3901,-3843
-77,2,-100,686,-1657,-1900
-58,-16,21,-286,-110,404
-112,-18,79,-291,792,132
92,104,28,-444,227,82
48,10,92,706,675,151
113,110,0,24,235,443
-101,0,72,-697,926,858
2,-92,53,61,1563,1587
63,127,24,-312,2737,2234
50,110,-69,920,3059,3310
52,114,13,1190,2315,3289
47,-76,-24,119,3330,3443
116,28,98,2619,3520,3610
30,58,89,454,2922,2274
78,-48,60,2140,2506,3058
-72,-14,-28,1569,4207,2688
-62,-43,-69,1861,2410,2734
20,-107,117,2143,3373,2959
57,31,-95,674,1871,3319
54,35,63,1194,1690,2065
-15,30,22,1403,735,1472
-79,2,44,1650,14,807
-124,-51,86,2094,-13,687
103,-50,113,1206,302,650
105,-56,124,494,291,439
120,-74,-106,712,-393,302
-128,-65,-68,504,-553,-17
-114,-100,-42,519,-168,-178
-115,-123,-31,447,-459,-181
-102,126,-40,292,-199,-332
-88,114,-39,-72,-321,-433
-90,90,-56,286,-786,-534
-81,73,-71,202,84,-13
-69,72,-74,-199,205,-397
-65,91,-120,-388,260,-125
-50,90,126,-433,81,-261
-48,92,117,128,21,28
-47,97,116,71,144,61
-37,127,95,-178,176,15
-23,124,88,-40,177,155
-22,-111,81,-157,193,78
-4,-110,71,130,250,99
-35,-73,107,-788,-3131,-5532
94,-25,-32,-1471,-5648,-6376
-35,50,123,-1747,-8287,-7478
-55,23,-20,-638,-8171,-7001
-29,-58,-84,363,-7453,-5460
74,-36,-67,-62,-5438,-3793
-91,-85,-1,535,-2655,-2118
12,-121,29,1280,-1240,-204
119,-34,-21,-691,577,206
-112,98,51,-903,971,29
-27,112,-48,-470,361,313
125,-19,2,159,349,725
49,19,97,135,1711,1739
62,-92,69,-418,2722,2431
50,-86,-47,1239,3077,2749
31,-119,50,144,3444,2795
72,20,-3,1266,4220,3112
50,106,120,686,2952,4640
-61,-16,15,876,4283,3612
-20,1,-15,3321,4338,4182
118,100,89,2486,4162,3350
-84,64,-7,3529,3728,3007
110,102,-8,1369,2691,2607
36,4,6,2132,1265,1590
9,-51,-11,1267,1072,1442
-70,-89,-13,1887,573,1197
-112,-123,-20,1949,541,944
118,-112,22,1426,-208,776
113,-82,67,386,-38,568
-126,-85,-122,484,-334,-123
-109,-84,-77,659,-348,-93
-101,-100,-35,442,-475,-173
-114,-102,-14,-448,-218,-155
-62,99,-30,-172,27,-672
-79,56,-43,418,-412,-397
-43,36,-51,40,37,-410
-51,32,-78,-86,213,-41
-55,54,-94,-274,-243,-25
-48,72,-108,-333,216,74
-37,79,-122,-62,180,270
-28,111,115,-405,179,151
-18,123,100,-127,200,147
-8,-125,96,-14,186,80
-8,-116,87,81,169,59
17,-112,73,-39,190,-13
19,-107,70,-70,173,73
25,-116,68,-52,260,113
24,-89,59,-310,260,221
37,-82,51,-199,374,81
46,-79,37,66,166,62
-115,-48,120,-1664,-2116,-4735
-67,6,18,-2804,-3714,-6411
-4,59,-34,-993,-6181,-7351
119,-9,6,-695,-7651,-8316
35,-80,87,1743,-7623,-6802
-18,22,80,2522,-4616,-4580
49,-43,81,1933,-2078,-1664
-52,71,-38,-1980,-1060,188
-91,61,53,-850,969,573
67,-24,-77,462,246,317
41,64,-24,78,534,158
60,83,-49,-601,522,306
127,-26,-48,277,675,727
-49,-69,-48,941,1505,1040
7,-47,-78,-420,2252,1437
-5,-19,74,558,2491,1904
60,-24,89,529,3065,2766
64,22,9,1692,3268,2621
113,-114,-85,389,4671,2862
-65,-102,75,1349,5003,3342
-92,-125,19,2143,4721,2971
96,-21,-85,820,4542,2131
83,41,-81,2677,4138,2699
-65,64,-99,1725,3872,3502
-98,-80,115,257,2705,2675
-113,-72,55,18,1886,2071
65,-69,42,122,703,1276
-19,-116,48,2275,357,1512
-84,-98,67,2626,185,1181
-126,-115,103,2457,44,795
-124,-105,-119,920,33,520
115,-94,-77,-27,-511,339
124,127,-20,233,-654,36
-122,115,-9,699,-424,-136
-102,108,14,369,-591,-347
-91,83,19,98,-385,-325
-84,69,14,-84,-219,-425
-78,40,4,177,-235,-384
-70,32,-11,-116,-17,-157
-74,45,-29,-449,26,-189
-64,28,-60,5,262,1
-48,62,-95,-358,98,-37
-37,72,-100,-275,42,28
-34,85,-118,-142,208,-46
-39,93,-122,-96,-11,12
-20,89,-127,-16,293,51
-6,102,115,38,96,107
6,124,98,-279,242,119
6,125,98,31,130,100
18,-113,85,-102,188,23
-94,42,1,-624,-2101,-5810
39,-29,0,-1554,-5846,-7761
-103,-96,6,-1399,-7352,-8273
-75,34,-79,32,-6658,-7802
-27,118,34,1332,-6544,-5556
-113,61,-59,-553,-3850,-3775
125,103,-65,-129,-1507,-1320
118,34,-92,163,-228,-151
-58,-108,109,-143,268,146
118,-9,-34,-519,90,482
103,-47,0,573,726,373
70,-92,-27,-314,118,111
-112,-118,-20,-491,581,-144
-45,-24,-79,289,868,183
33,117,-47,-225,1437,1302
-90,92,-32,469,2856,2201
-108,-106,-109,-765,3586,2924
-73,26,-36,1331,2955,3288
-67,-113,125,-293,4349,3528
-80,122,110,2150,3862,4339
-30,17,29,-546,4369,2586
84,-53,-22,666,4252,3656
-111,120,-66,3496,4240,4427
9,-87,92,3238,3681,4164
-68,-2,70,1215,2112,3227
91,10,103,201,1198,2139
29,-54,64,827,1187,1507
-44,-73,67,1805,793,1425
-101,-58,66,1903,597,1262
108,-62,117,1706,227,881
110,-43,-127,526,159,379
103,-65,-78,658,-510,207
109,-85,-14,381,-558,-121
-126,-116,11,215,-630,-415
-111,110,27,317,-503,-397
-99,79,41,320,-316,-384
-99,85,22,-279,-246,-323
-86,72,16,-283,-93,-296
-79,64,-24,-91,46,-129
-65,65,-40,-60,51,-129
-65,88,-65,-353,40,-105
-56,88,-79,-298,174,-40
-46,89,-98,-39,101,-108
-29,102,-114,-90,114,16
-28,110,-123,-81,110,-37
-21,114,126,-9,100,60
-5,-122,105,-196,194,64
-6,-112,110,-116,45,68
7,-106,103,-21,191,-48
15,-103,93,78,97,97
-60,-30,-49,-3668,1751,-2602
52,-29,35,-194,-2086,-5673
-92,100,-42,-142,-6171,-6880
99,-23,15,-2066,-9130,-8679
-31,-62,121,-1133,-8569,-8481
13,-7,21,-53,-7936,-6200
109,-118,-50,399,-6128,-4606
-55,-84,46,601,-2627,-2010
-86,113,93,-151,166,-82
49,-66,84,-162,537,179
-1,-81,-85,404,130,430
59,76,-3,-692,1,374
125,58,67,263,537,-16
-94,79,-25,111,371,60
-48,-7,-52,-401,598,477
4,-45,-82,378,1034,759
40,-81,-67,-166,1716,1250
95,-112,-104,676,2169,2144
-121,-75,75,-201,2603,2759
119,-55,40,891,2450,3710
-57,100,-62,160,4043,3208
-95,80,-102,1419,2901,4227
2,3,82,603,3630,4019
54,-15,5,1866,3708,3258
62,-90,-24,2858,3628,3774
-119,-80,-102,3182,3481,3371
113,-66,123,2249,2322,2993
48,-39,114,1147,1526,2184
10,-65,94,1242,1319,1772
-67,-74,82,1521,771,1405
-127,-57,75,1359,518,1106
104,-56,110,1761,247,715
77,-49,-104,1320,118,707
63,-15,-70,52,-56,156
76,-36,-45,133,-254,-53
88,-72,-25,611,-471,-640
109,-80,-16,482,-742,-849
-119,-97,-8,-21,-865,-1098
-111,112,7,-130,-852,-1070
-89,88,14,-344,-670,-1089
-93,75,3,-862,-462,-949
-93,36,-13,-704,-396,-782
-97,18,-17,-11,-145,-293
-101,30,-41,-94,176,-129
-101,40,-71,-119,313,254
-92,61,-92,-283,476,517
-82,77,-117,-162,523,707
-55,120,109,-209,653,857
-38,-120,95,47,541,785
-24,-87,71,-43,442,691
99,-128,26,-225,-2145,-7083
37,-33,77,-3424,-6701,-9600
-3,-41,87,578,-6387,-8212
34,87,71,-150,-6750,-6695
47,-111,-97,675,-5298,-4893
-89,-94,65,313,-2993,-3128
24,-106,59,-499,-1128,-1032
92,-58,-97,-165,721,269
52,-115,-12,515,-22,511
-31,67,-83,-582,-74,284
37,39,-22,12,78,-178
93,-1,44,96,552,-54
-75,-36,-12,-284,928,447
-3,107,-60,-202,1772,1157
62,60,-112,381,2474,1899
-118,95,87,40,3223,3041
126,-117,-23,980,3870,3372
112,-124,83,249,2497,4277
-16,119,-12,-817,2998,4307
102,-63,-37,3320,2520,3772
-14,-123,-72,250,3186,2733
-28,-104,-66,3299,3346,3730
74,-76,-122,3500,4454,3136
-103,17,-69,5420,3559,3274
96,-66,-19,1318,1556,3150
53,18,67,-1371,1258,1408
-38,-106,48,170,663,1217
-98,-117,75,1341,292,1294
102,-45,118,865,194,914
69,-68,-118,1568,103,677
88,-51,-109,950,10,-5
101,-106,-44,1399,-752,-149
115,125,-12,863,-361,-478
114,100,13,380,-539,-330
122,78,17,-108,-284,-500
-114,52,18,124,-212,-452
-107,34,-8,180,-28,-428
-109,33,-38,-175,-238,-480
-93,13,-52,-150,-65,-363
-85,19,-69,-336,-126,-311
-84,12,-86,-92,-60,-224
-79,21,-94,83,39,-186
-75,30,-104,-116,124,-43
-64,43,123,7,72,-40
-57,59,118,-199,167,131
-55,76,105,-269,182,149
-22,85,100,-117,431,392
-36,124,77,-392,405,215
-28,124,69,76,332,164
-10,127,54,145,468,112
-5,126,3,-905,-3581,-4505
112,-42,75,-1862,-6058,-6189
2,54,-88,-3021,-8460,-7030
-19,39,-115,-1764,-8897,-7302
-59,-87,-82,1016,-7814,-5895
3,17,13,1568,-3423,-3306
63,19,36,456,-1445,-1004
117,-91,48,-1402,1433,902
-40,-99,34,226,1198,680
-126,52,-103,83,11,869
32,86,69,-291,1078,439
122,-75,58,191,1745,1206
-24,120,10,-430,2918,1805
10,122,86,469,3579,2702
-26,61,-22,-84,3961,2910
-6,-126,120,1278,3670,2849
42,36,-22,-85,3295,3871
85,45,-96,1141,3713,3452
98,18,-121,2589,2322,3129
-3,22,44,1207,3938,2559
25,51,87,4385,3987,3375
-9,99,-63,3409,4559,3151
33,121,-93,2763,3317,3245
-72,-52,-82,-264,1731,2009
4,-59,-52,-995,380,967
-62,-95,-4,101,119,823
-114,-97,63,893,-658,626
-126,-72,105,870,201,188
-121,-110,-125,1334,-445,-100
-93,-102,-121,285,-345,-227
-60,126,-66,-436,-886,-1036
-69,67,-45,479,-630,-669
-47,49,-27,238,-531,-849
-10,30,-60,-324,-42,-713
-35,-4,-46,-204,-412,-630
-20,-14,-59,258,-56,-206
1,0,-83,193,20,25
-72,9,-125,-28,33,449
13,46,123,-879,245,384
-6,-127,75,-1788,99,465
-51,-122,68,-1247,15,-156
7,103,63,-86,118,199
-1,-101,51,-452,382,214
40,-90,17,10,576,-135
21,-121,35,844,-139,-192
-50,-101,27,338,-31,-170
-1,124,31,467,231,-440
123,69,18,1356,536,32
91,118,24,401,-62,155
25,-115,12,-684,102,-130
-46,117,-96,-871,-2522,-4782
58,109,100,-134,-4233,-6224
10,23,-93,-1732,-7463,-8559
-13,-1,25,431,-6884,-9757
-52,92,127,1951,-8636,-5509
-80,23,115,-1308,-5508,-3201
-126,109,-56,-855,-3479,-1502
-16,-106,-47,846,-846,-603
96,54,-90,-867,935,280
-82,83,7,-1463,1060,109
6,-74,75,1031,414,981
-91,-114,-112,-672,2060,1679
18,77,46,-366,3734,2025
2,-50,89,711,3091,3131
83,15,-46,-493,5830,2191
-63,30,73,2479,2080,4719
-64,68,-111,-1829,5850,3003
75,102,117,4411,3582,5549
61,124,-11,1492,4195,2800
-123,92,35,4052,4962,3990
-94,89,-99,4381,5915,4055
-5,-76,109,2299,4129,3522
22,54,-74,-1870,1126,1711
82,-28,-94,-2253,922,265
-7,121,-15,1237,-52,1382
-34,-90,31,1674,312,1197
-111,-31,27,1032,244,240
-86,-50,28,498,-171,-230
-56,-62,104,321,-1106,-924
-35,-88,-104,15,-1276,-1296
-2,105,-52,341,-1077,-1361
36,57,-37,62,-883,-1210
24,51,-41,-431,-696,-948
10,36,-49,-376,-549,-603
-14,31,-44,-222,-356,-201
-22,59,-60,-233,180,-7
-29,78,-96,-237,275,153
-22,98,123,-3,387,322
-5,109,99,261,454,458
10,-122,84,8,432,519
48,-104,69,-172,368,585
50,-83,63,-349,394,676
51,-65,51,-283,327,426
48,-61,44,59,141,175
47,-58,39,-18,-8,-52
69,-79,40,101,-92,-126
66,-79,33,-150,-157,-282
68,-102,31,186,-190,-334
70,-109,28,-8,-160,-278
73,-116,21,-89,-67,-194
-26,-58,-111,-1561,-4238,-5276
-23,-93,-94,-3582,-7475,-7996
2,0,-117,-3174,-9429,-9778
7,-16,90,509,-8554,-7492
-24,-118,-91,-787,-7449,-4485
-36,-88,-12,-303,-2610,-2262
-20,-37,-15,837,226,-329
-121,-116,120,-813,-9,538
45,-52,25,-486,1486,576
-11,33,-20,114,289,783
53,91,44,384,1022,128
92,116,-43,-135,607,55
-107,-84,-9,264,976,603
-14,119,-16,253,1712,1147
57,65,-22,420,2680,2221
85,-85,115,422,3077,2698
87,-16,38,843,3482,3167
77,-78,-52,471,3437,3544
112,-107,78,2241,4228,3417
-88,36,29,1052,3189,3629
-41,-109,-19,3305,4262,3217
61,122,-68,3246,4370,3020
-22,94,42,3862,5863,3404
-24,-30,45,1225,3257,2966
-59,33,5,-689,2417,1643
54,-13,7,-330,931,1318
-16,-46,2,1162,619,1367
-80,-27,13,1952,613,949
-126,-48,19,2614,273,754
117,-50,46,1939,-320,336
-126,-66,107,1151,-649,114
-101,-68,-98,-87,-681,-206
-94,-94,-55,-250,-977,-408
-81,-119,-31,-55,-788,-532
-63,114,-27,-98,-784,-801
-60,86,-28,-120,-683,-629
-68,77,-34,-302,-704,-548
-53,80,-40,-546,-478,-494
-57,70,-49,-361,-378,-413
-76,68,-55,-178,-245,-361
-71,58,-84,-36,-36,-152
-85,70,-96,-353,100,133
-64,106,126,-642,293,255
-56,119,103,-438,259,384
-43,-100,83,-516,421,376
-31,-79,66,-190,265,317
-28,-66,58,-36,312,297
-15,-61,48,147,391,284
-17,-54,32,59,284,278
-1,-52,24,195,322,231
-30,81,-123,-2880,-3436,-5336
-98,-88,35,-1807,-6547,-6540
-47,-49,90,-4066,-8060,-7103
107,124,93,-2132,-6865,-6902
8,66,-95,225,-6232,-4683
41,20,27,-1274,-6195,-3795
-126,-59,79,1276,-2694,-2375
-84,-44,123,142,-333,-545
-93,-84,-46,-1640,1193,179
83,-37,57,284,753,159
70,9,46,-344,152,546
-88,18,39,49,709,260
-22,-43,-125,189,1349,986
88,-107,109,154,2292,1672
-122,52,-12,257,3290,2474
-116,-126,-86,1137,3655,3244
-127,-29,99,510,3434,4051
-16,58,-87,3005,4620,4019
18,-1,85,352,4972,3985
45,-124,-47,4531,4496,4712
-53,59,66,2598,6521,3600
42,-67,45,4751,4787,3628
-109,47,-82,1787,3681,2541
20,79,-41,-254,2128,1603
-93,-6,-57,-139,2021,1191
47,-35,-57,1552,1139,1662
3,-18,-72,1793,671,1171
-60,-33,-27,1448,490,1209
-70,-14,2,381,-29,464
-73,-21,73,387,-799,257
-68,-73,-87,626,-936,0
-54,-85,-49,339,-998,-224
-42,-120,-5,478,-1014,-287
-30,119,14,160,-653,-262
-36,-123,1,-20,-589,-179
-5,-125,-18,-277,-252,-437
-34,104,-44,345,-211,-340
-55,108,-66,139,-145,-138
-41,125,-84,-341,24,-140
-8,122,126,-230,229,-107
-5,-126,126,-202,-128,-79
6,-112,111,-162,49,-36
-6,-108,115,-122,-114,5
5,-89,111,-287,142,-40
20,-100,111,64,106,21
26,-82,93,-71,168,71
27,-76,86,-120,270,62
32,-74,75,41,185,107
55,-63,64,-19,327,97
62,-61,59,-46,264,154
-84,112,15,-802,-4306,-4960
27,-114,-63,-3848,-5694,-6191
-105,-128,-14,-3936,-8122,-7948
82,-23,-21,-686,-6164,-7216
-84,24,-67,668,-6576,-5485
88,-85,99,677,-3879,-2754
-76,85,9,713,-1942,-809
-77,121,68,-1035,452,279
-34,49,8,-454,386,117
-103,-22,28,331,435,418
91,64,13,612,207,41
-93,-125,27,-572,252,40
-25,109,4,-337,405,-15
-13,46,-48,100,497,147
13,67,-83,-117,481,198
27,61,-86,71,726,406
-100,-120,21,-12,2000,1234
-28,-101,-19,424,3035,2096
32,-102,-93,623,4354,2682
47,-16,-5,954,3409,3505
54,-11,-50,1390,4964,4152
102,101,116,1305,5010,4736
84,111,80,3129,4674,4042
-39,-21,23,1903,3806,4134
24,-84,-39,3022,4993,3937
19,57,127,453,3842,3318
-65,99,114,-290,2080,2416
62,42,95,680,1295,1342
-42,3,87,2217,1080,1693
-93,4,59,2851,1149,1251
104,-2,36,2707,557,891
100,-7,62,1443,-78,343
98,-10,125,142,-501,184
100,-64,-2,331,-767,-22
119,-97,30,881,-599,148
-117,-79,65,-72,-542,-113
-111,-114,77,-76,-357,-142
-105,117,75,410,-159,-107
-96,-127,36,12,57,-99
-89,118,21,198,-5,-76
-69,113,-8,70,272,28
-67,-127,-46,-128,87,4
-54,-121,-58,-161,118,19
-47,-125,-67,87,208,37
-41,-110,-73,-16,157,-19
-22,-115,-90,58,202,65
-7,-106,-113,-118,170,56
-2,-92,-114,-68,184,50
2,-83,-118,-51,-80,-37
13,-88,-110,124,122,-17
-118,46,119,-1774,-5699,-4720
-25,-68,-108,-2714,-9112,-6385
-21,-23,8,-2102,-9719,-6384
-63,74,-124,-1744,-8785,-5396
87,126,-75,-1737,-7801,-3612
-10,97,-86,668,-2760,-2350
39,-88,8,4,-1654,-738
56,-49,-85,-185,62,-256
64,-25,40,379,432,113
-23,98,-10,204,18,288
-6,107,51,-320,502,127
-9,120,-11,-46,256,-24
38,105,-33,133,287,136
79,-122,-77,-271,313,145
79,91,-72,-139,616,282
104,78,-94,-173,830,539
-59,-6,-52,354,1710,1175
49,-85,-28,630,3276,1801
57,56,108,-237,4311,2147
13,4,80,1795,3238,3047
91,-83,-10,136,4573,2395
-19,99,-11,2230,3812,4075
107,-11,-118,-87,4209,2194
33,6,-101,2639,4580,3945
109,119,89,2227,4624,3128
-54,37,14,3481,5424,3757
-28,-77,-108,2790,3598,3716
-79,51,-127,-715,2030,2780
0,77,-109,-1037,1156,1432
-76,-12,-88,1224,844,1445
-119,30,-85,1581,441,1308
78,71,-81,1656,257,783
29,40,-68,1974,188,420
25,36,-51,1352,-411,180
50,31,-34,219,-229,-52
60,-29,20,391,-580,-277
81,-35,44,-179,-649,-537
94,-73,72,-10,-644,-583
105,-115,82,301,-339,-357
109,-123,67,209,-221,-431
102,-125,46,-20,-83,-273
121,117,17,9,-13,-191
125,127,-1,-249,199,58
-126,-118,-17,-295,263,64
-113,-94,-57,-382,380,112
-107,-87,-70,-161,268,136
-96,-75,-87,-89,358,122
-84,-52,-117,-287,300,68
-80,-57,-125,-64,256,109
-67,-43,121,-170,169,9
104,120,98,-3430,-5938,-5287
50,-91,40,-2815,-10409,-6460
-52,59,-58,-3188,-9031,-7417
2,-94,18,-428,-8402,-5290
119,67,34,-865,-7618,-2952
113,-76,-94,193,-2564,-586
77,-59,78,91,246,300
112,96,-74,-712,296,246
-125,-59,48,85,1078,-181
69,-102,68,231,37,149
87,-128,75,-230,402,15
-33,72,66,-126,267,119
13,-20,101,57,1019,518
60,-29,61,-43,1576,857
89,-11,7,635,2015,1123
-124,-63,31,492,3124,1755
-107,-28,-50,714,3402,2222
118,19,92,1350,3226,3116
-117,-92,-44,916,4320,2574
120,-78,-87,1820,3795,3329
110,0,48,1095,4010,2749
-119,-67,51,1471,3168,3022
-64,121,16,3248,4488,3354
46,-63,-22,2433,4056,2982
112,14,-123,1582,3451,2910
55,91,124,-43,1887,1537
7,30,115,888,1289,1381
-62,6,105,1584,1126,1172
-102,-13,87,2328,952,993
104,-9,55,1980,851,650
99,-34,61,1588,149,310
108,-61,89,1277,-290,180
113,-73,-89,445,-622,28
115,-100,-57,441,-739,16
-116,-99,-18,56,-515,-77
-110,-118,10,105,-599,-195
-105,127,11,56,-248,-72
-98,119,4,-106,-34,-94
-102,116,-14,-23,86,-19
-87,124,-45,-97,268,-71
-72,114,-76,46,226,-2
-67,127,-104,-66,285,-31
-61,-123,-115,-116,143,59
-48,-121,125,14,290,20
-48,-114,112,87,170,51
-38,-108,105,18,150,71
-27,-102,89,115,131,30
-15,-112,92,162,91,111
-6,-99,93,0,93,119
0,-92,88,-48,209,122
