AccX,AccY,AccZ,GyroX,GyroY,GyroZ
27,36,25,-4538,-5834,-1864
-96,93,-103,-4425,-12692,-3216
-116,59,106,-6278,-12397,-2982
115,-63,-110,-1317,-8022,-2505
-42,-31,-68,-3409,1067,-131
61,113,-76,3461,2900,1811
-24,-69,-25,-1748,-47,-458
-77,123,32,-239,2681,-294
-128,118,53,375,1743,2739
65,-123,55,-278,7338,1761
38,41,-125,-163,4350,4086
-45,24,113,2271,4511,3203
115,2,123,-2088,2971,3701
54,3,-49,1040,2749,4405
109,83,44,-205,3881,3915
91,37,-112,478,1134,3515
-116,-36,-59,1059,987,3720
88,11,-55,-245,860,2119
-8,-54,-93,69,463,410
-70,-56,-74,-351,-362,167
-120,-100,-48,-285,-516,-192
126,-102,-25,-118,-320,-197
122,-120,-20,186,-28,-278
-124,118,-4,272,21,-614
-110,102,0,22,-71,-839
-105,76,-3,-49,-84,-913
-99,33,-5,412,179,-818
-106,22,-15,437,62,-465
-105,31,-18,40,118,-235
-88,34,-22,-31,108,92
-86,57,-34,-330,42,228
-89,84,-25,-323,-3,41
-55,81,-31,-21,148,24
-58,97,-30,-432,-114,300
-79,127,-30,-733,-185,247
-77,-85,-13,-1053,28,57
-67,-92,-21,-352,195,-109
-66,-93,-27,-125,76,-112
-54,-76,-46,-572,168,-176
-56,-91,-47,-45,177,-124
-51,-91,-57,26,125,-112
-37,-101,-53,344,209,-97
-51,-90,-64,-129,-68,-239
-56,-92,-59,-456,-59,-71
-59,-90,-45,-222,30,100
-57,-78,-49,-62,33,43
-53,-67,-53,-135,84,-67
-29,-85,-52,235,213,139
-15,-72,-64,26,69,214
-14,-60,-64,-34,34,95
28,60,-61,3193,-3357,-2553
116,-66,35,-2399,-4426,-5005
5,-125,-35,-4092,-10729,-5106
-41,-66,-17,-5104,-12061,-4133
116,-53,-4,-4053,-8579,-2407
-102,109,-43,578,957,-1118
2,125,-6,582,2484,135
60,-121,19,-181,-773,547
74,118,28,-2,-229,-333
127,-39,39,148,38,-105
-48,-94,-99,-168,-193,-90
0,-101,-92,34,159,-149
-2,-111,-61,114,140,41
11,-67,-95,-107,41,-65
48,-92,-114,67,-43,-118
76,114,-127,88,5,52
-120,-85,-128,-142,96,-54
-120,-105,-67,46,270,-8
-94,-108,76,-243,92,-56
-78,-120,116,74,-88,154
-33,-80,126,-98,138,-93
-17,-104,93,93,-36,65
7,-82,109,-187,65,-11
36,-90,91,2,23,15
69,-91,101,47,200,77
85,-83,-96,-120,955,-92
-25,-99,71,-833,1921,-84
53,2,23,-288,1671,1460
89,-90,86,-927,3620,2431
95,-43,55,-1077,3191,3853
84,-1,-1,-799,3260,4097
-28,73,-3,1245,2906,3998
-35,-58,43,779,1219,4110
-26,105,126,84,2164,3562
-2,76,-65,706,1746,3764
-21,67,-39,1089,1197,3386
-95,100,-14,986,330,2774
86,-80,-40,-280,254,1344
-6,-122,-79,87,300,-8
-40,29,-80,1487,181,-332
-79,10,-57,1179,-187,-165
-81,2,-51,384,-91,6
-72,7,-33,-190,-162,-244
-51,-11,-31,-164,-83,-432
-27,-24,-27,-344,-104,-765
-21,-49,-36,-347,-86,-690
-21,-67,-53,-164,105,-526
-14,-80,-88,48,214,-261
-3,-58,-109,-386,114,-143
6,-53,-128,-437,65,-70
-56,-121,67,7082,-1798,267
108,53,-48,949,1056,-2308
-94,94,108,-687,-8413,-4454
30,-63,37,-3684,-11387,-6375
14,62,-4,-5702,-14546,-3666
-113,-61,-40,270,-8086,-1206
78,126,-127,-1438,3192,246
84,-10,23,-386,15,919
54,57,-60,201,-271,-53
109,12,-9,-513,-201,-78
-95,-84,-94,44,-317,109
-44,-57,-64,85,55,-100
-46,-89,-55,-107,245,38
-19,-95,94,197,-131,63
-7,-97,106,-3,-134,55
38,-102,-107,-237,156,5
82,-121,111,18,144,88
88,-108,122,13,31,79
126,-98,73,-110,81,-20
-112,-121,101,-159,178,-10
-65,-107,120,28,207,-131
-12,122,-121,-616,452,362
-127,-11,46,-1687,2206,1732
-43,-22,20,183,3212,2261
57,-104,-41,-425,4442,3023
36,35,-99,1404,3162,4123
-54,-105,-83,1137,3575,3101
-50,51,4,2750,3103,3550
50,-20,-32,-1655,3517,3499
10,28,9,1900,2904,4019
4,61,-112,946,1492,3252
-38,-117,110,-534,1165,2805
120,-90,102,-58,446,1792
11,109,124,1865,-312,11
-6,35,123,2070,-1,96
-73,40,-104,634,19,-169
-64,26,-90,-333,-129,-35
-46,7,-76,-526,-244,-198
-20,8,-63,-538,-118,-527
-16,-26,-77,70,-94,-732
-14,-49,-71,53,-265,-770
-2,-66,-85,-206,-70,-607
5,-76,-106,-213,136,-336
9,-68,-119,-191,130,-167
20,-61,107,-47,170,17
36,-41,97,-99,154,82
47,-22,79,-254,60,0
52,-15,72,-201,56,-68
48,-13,67,-141,-9,18
51,-10,60,-27,116,108
109,49,-112,-2004,-3640,-3818
-51,49,80,-4829,-8663,-4688
20,26,-10,-6663,-12799,-4420
-97,-106,-51,-6485,-9825,-4146
-124,-14,-85,-1561,-4611,-1420
52,76,63,-282,1304,874
-86,-85,15,133,1652,1533
-6,48,-108,-78,-767,-516
73,5,-20,-235,-584,-382
12,-69,75,156,93,-52
41,4,-80,-521,72,10
0,-113,-103,242,-1,131
21,-59,-78,-127,95,124
45,9,-55,-77,167,-374
97,-103,-118,-148,265,88
-102,119,-86,-134,358,400
-16,98,15,-221,1202,776
84,-87,15,660,2646,965
-121,-6,91,-563,2737,2278
110,-70,25,1652,3259,2840
1,23,-106,1353,5078,3166
104,-16,119,-1474,3951,3533
76,125,-91,868,3089,3516
7,-62,-35,-358,4031,1441
-68,-52,89,-343,524,3621
-64,110,117,-639,107,2437
-88,100,112,-962,116,2322
-106,56,126,641,-284,2695
-111,97,116,715,-63,2038
90,120,94,1012,61,878
39,76,97,1751,-161,146
21,-17,85,2569,-132,373
-23,37,98,813,-167,523
-12,48,112,-234,258,1
-14,-6,121,337,87,-133
-1,-8,121,265,-4,-345
20,-28,118,205,10,-542
38,-47,124,76,-86,-463
26,-63,121,-80,-123,-346
37,-50,122,-488,-83,-220
50,-19,99,-773,191,-299
47,-41,82,-34,208,-405
55,-58,58,347,232,-155
66,-18,30,-409,169,112
79,-1,15,-344,14,174
90,23,17,-267,-141,50
86,45,18,-315,-123,-108
84,56,15,-717,-76,-114
86,73,14,-782,-83,-209
96,50,9,151,74,-127
-86,59,-84,6011,-3124,-719
12,1,79,7117,-3178,-3313
-15,-57,-78,-1628,-7958,-2336
94,-116,9,-5136,-11455,-390
-4,94,-81,-6365,-10987,-763
-55,36,5,-4272,-11803,1037
37,-79,60,-554,-2186,-381
-74,-55,62,62,1901,1166
-6,124,-80,611,1465,435
-124,-106,-7,91,-401,-379
86,37,25,-209,-872,-175
30,98,-46,-90,491,18
3,-114,5,87,-22,198
10,-105,-6,-5,384,-56
25,109,10,153,325,-32
39,122,-32,77,301,-60
95,-125,-52,277,412,-280
-102,84,15,29,445,273
48,21,112,-517,2042,214
109,-118,76,-414,2855,814
72,-26,16,-1385,4737,2624
60,4,-15,-128,3001,2996
122,-59,29,1353,3622,3057
45,126,-61,408,4221,3533
-72,-51,57,-3233,4884,3442
-57,13,40,2260,1275,677
-115,-118,-81,602,1087,4311
-94,-65,65,-1334,1970,3761
-126,127,109,-635,431,2924
-84,96,-120,835,-181,2713
-107,-88,101,957,309,2071
72,-39,67,485,235,377
6,-121,56,748,0,-651
-14,62,84,1094,-301,-492
-25,46,93,901,-127,-33
-23,38,83,449,180,-176
-5,30,109,85,-250,-385
9,8,108,18,-158,-484
20,10,121,-544,-227,-724
24,-11,103,-368,-9,-528
27,-15,97,-259,-45,-409
39,-11,80,-243,40,-177
45,-1,69,-251,84,-121
54,4,43,-117,221,-15
61,17,32,-249,110,137
64,28,9,-325,102,279
75,54,8,-307,82,403
92,75,2,-195,120,370
96,97,-10,-244,-76,101
84,112,6,-355,-277,-7
-30,80,112,7393,-2963,-574
-2,31,-76,-2456,-4042,-3398
-77,-30,-81,-2778,-10666,-2663
-34,114,105,-3658,-13456,-1149
40,23,69,-5566,-10375,-201
-105,19,72,-2210,-5361,748
8,122,71,-204,937,234
45,50,43,-2361,1172,-9
93,119,-84,440,-3,-12
101,-99,99,-363,-535,174
-32,-84,-3,-24,-218,56
-11,-37,-54,-39,-140,-89
23,-88,-81,-187,-168,2
49,-123,-94,83,-18,-7
86,123,-53,146,167,-25
121,108,-92,110,401,-53
-94,80,-77,33,1001,-29
62,9,20,-726,2597,205
-42,117,9,921,2620,2202
-17,-127,100,2619,4724,2520
-70,-21,78,2433,3971,2356
118,125,108,362,5698,1959
51,109,92,-510,3148,2878
106,-107,115,-2055,3633,3249
80,29,-6,-74,2000,3062
-70,-8,23,1616,2137,3142
-27,43,46,144,2288,2404
-57,83,40,-659,2160,2437
111,120,90,239,407,1736
14,70,124,1092,-858,-143
20,42,108,786,-177,67
-11,43,100,185,244,450
-55,54,95,-78,-27,470
-34,75,96,-423,-161,4
0,82,112,-380,-179,-504
16,42,-124,92,-290,-894
17,21,-123,-119,-144,-1103
19,-5,124,-265,-44,-1077
36,-30,107,-302,114,-879
41,-48,88,29,194,-685
51,-54,75,100,85,-254
55,-33,54,-341,182,39
60,-25,46,-231,188,260
77,-7,21,-90,239,507
85,26,12,-386,106,544
98,42,11,-144,127,527
100,69,-1,-102,66,420
94,86,4,-141,-62,291
101,80,4,210,173,271
100,98,0,69,28,21
6,94,80,-1681,-10483,-3276
6,109,25,-7429,-13665,-2478
-75,-92,-7,-5822,-11095,-2518
74,35,124,-1147,-3937,-307
112,10,58,-1282,1857,1227
-56,-2,-118,1197,449,437
79,-60,93,668,-952,-393
-126,44,126,-619,133,133
-45,37,93,-182,116,14
-40,-31,-29,358,-104,-173
-58,-105,-9,-197,161,102
-9,-101,0,436,51,-45
30,-18,-38,-280,199,-97
87,-70,-22,211,124,-215
-90,75,57,351,1465,-307
66,-29,105,-218,2510,205
-31,-71,-101,-2429,4384,1540
-115,33,-22,2468,3552,2817
2,-48,-43,908,5321,3539
111,-100,47,1159,4633,3382
-112,-11,-79,-2456,3086,3613
-7,-24,-117,-23,-77,3495
81,-122,35,380,1024,4097
-96,-96,-34,247,2615,2865
-46,-79,7,1066,1043,3101
-106,-34,61,-390,-1286,2405
94,-20,66,-1188,-430,1447
22,-95,64,396,936,-23
0,118,83,1541,397,-405
-7,92,103,1302,-76,-423
0,58,124,876,-72,-417
19,15,107,686,532,-800
38,-8,117,363,235,-762
52,-53,99,277,339,-629
49,-59,96,229,245,-372
58,-73,73,171,324,-135
66,-50,75,-156,101,173
89,-34,66,-383,85,418
72,-13,57,-185,239,325
97,9,50,-224,77,428
97,34,35,-250,183,294
80,48,32,-129,-42,47
100,40,29,47,223,87
85,55,18,-266,-6,113
94,61,21,-88,182,140
106,80,10,-189,49,11
125,85,1,-205,99,-161
126,77,-8,-64,-57,-272
-124,72,-13,-135,42,-225
-122,80,-12,-217,-107,-242
-30,-60,-22,-3731,-4870,-5833
-86,126,41,-1725,-10641,-4400
42,-41,-4,-6004,-11998,-3954
-112,-28,-70,-3910,-8225,-2957
79,-74,-96,2341,-5716,-1851
-5,-17,56,-2527,-2106,1031
-128,-46,-87,1432,1317,-273
-36,-74,108,510,483,173
62,41,-26,-827,-348,142
-106,-87,-87,190,-464,-80
8,-126,121,-134,-53,47
42,105,63,-86,91,125
62,122,73,-163,451,107
87,-113,22,-224,338,95
88,121,-8,-142,318,78
-106,90,19,-178,782,-94
4,95,46,-255,1526,-317
-65,-7,125,-121,2189,379
39,-30,40,828,4141,1527
19,-9,98,857,5790,3043
42,-14,-63,1172,6826,2171
78,40,-68,2661,5203,3228
-84,-3,46,-258,5231,3517
-122,-37,-73,-361,2739,3261
-55,112,-6,1509,2677,3593
-57,-67,23,439,2219,2537
86,-92,21,618,1669,1906
9,-81,33,395,773,858
-54,-115,80,114,-138,67
-61,70,127,54,157,77
-82,45,-114,394,77,188
-85,59,-106,193,176,259
-66,106,-101,-808,-32,-98
-54,71,-102,-400,-58,-336
-42,68,-92,-559,-20,-596
-28,18,-105,-349,82,-627
-19,-14,-113,272,137,-417
-13,-6,126,58,130,-321
-6,-1,99,-301,121,-325
-3,-11,90,-190,156,-235
0,-19,70,-177,83,8
1,4,54,-320,54,186
20,11,38,-123,39,264
44,36,34,-92,34,429
29,97,46,-865,-254,197
41,93,45,-473,28,-85
38,70,50,267,31,-14
47,87,33,20,277,-29
49,87,19,48,62,-158
66,65,9,201,203,-150
-51,-60,-124,2714,-5656,-3135
-44,-126,81,-2182,-7907,-3936
27,-54,-15,-3491,-10823,-1193
45,-99,-39,-6682,-10461,279
-11,-3,54,-839,-5076,-1096
21,-72,-100,-445,204,268
102,122,27,-205,1140,161
-4,-127,13,-5,-623,138
64,-52,-44,-421,-454,1
9,-17,-79,6,231,-141
18,-30,2,-111,359,-147
8,-100,-113,-226,133,-95
41,113,-42,180,225,-64
102,119,-18,-197,753,64
-34,113,-2,-1020,1047,965
88,-67,56,-949,2551,2169
-113,-31,-107,816,3493,2665
-82,39,-48,3045,3844,3740
5,-115,70,937,5750,3605
117,24,27,1682,3798,2719
-78,90,102,1541,1570,3670
122,-27,-100,1433,1748,2374
121,91,16,1302,2679,2628
-107,111,-20,935,2525,1974
-120,-128,31,-69,1636,1820
82,97,49,-283,870,1079
32,93,66,79,250,527
7,72,74,-264,6,32
4,25,93,-69,75,-41
-5,29,109,224,-59,291
1,33,110,285,24,228
19,76,112,-597,139,-322
27,58,106,-669,-36,-490
52,25,101,-224,177,-627
50,12,87,103,99,-642
65,-4,75,156,188,-627
64,-11,53,-66,134,-466
75,-15,45,-131,146,-186
78,-14,33,-100,98,23
105,16,34,-354,146,166
99,42,31,-513,-66,65
104,53,42,-418,70,32
101,51,42,32,193,242
101,63,23,208,254,295
106,77,4,36,222,305
117,82,-12,176,109,311
-124,84,-20,300,24,200
-110,94,-12,8,-131,131
-119,100,6,-128,-140,80
-123,114,17,-379,-137,17
-67,16,-25,826,-5127,-3310
86,56,-125,-597,-10370,-1900
-101,-39,61,-3756,-10055,-164
-104,98,-100,-4086,-8632,463
76,-51,-22,-1907,-6841,-461
18,-11,-77,620,-18,-178
78,122,35,-476,84,970
24,123,6,-353,-114,-255
106,116,115,-394,-130,272
-63,-92,-101,-150,59,15
-25,-63,94,-714,210,58
24,124,90,-96,653,-285
119,-97,66,-721,973,32
55,-67,-4,-1117,3665,541
112,0,-21,-2394,4785,762
-115,-10,38,1327,3216,827
-105,-46,49,1637,4420,2227
111,53,67,-329,5914,1962
-42,-127,14,-233,4052,3571
91,-124,23,424,4690,1968
53,56,121,3282,2105,4074
-110,108,70,-3309,2261,3097
126,-91,-23,-335,806,3127
-116,-124,67,749,603,2475
87,-73,42,-553,1285,1295
28,-88,47,-1230,841,440
4,53,65,327,512,211
7,31,84,700,466,446
8,49,73,369,329,507
15,75,71,15,184,293
31,100,65,-362,89,70
49,84,66,-276,69,-525
52,59,69,45,61,-649
63,16,65,264,60,-599
58,14,56,60,50,-578
75,1,48,13,57,-523
91,-8,46,-115,6,-409
95,-14,42,-50,-26,-193
95,-8,38,-160,64,54
90,25,33,-512,-28,144
104,32,27,-388,226,278
103,51,23,-232,70,349
118,78,8,-211,181,344
108,98,0,-247,116,275
118,105,-14,-258,52,214
-127,-127,-18,-294,53,44
-125,-127,-23,27,5,-285
-112,96,-27,487,13,-377
-86,83,-28,241,-87,-240
-112,79,-21,26,7,11
-16,-7,-51,-891,-6040,-3237
8,97,101,-3094,-11218,-1553
15,29,-120,-5486,-10482,-357
13,-29,-62,-2678,-8582,179
-122,44,-12,-2205,-3106,162
112,-34,55,-894,1841,283
21,63,100,329,-123,140
29,86,-61,116,-277,-195
125,28,-81,-405,96,171
-88,-19,32,-665,138,155
-53,-102,27,37,288,-73
-40,-82,-7,-126,34,15
-12,-94,-14,-103,417,-127
17,-96,-33,-438,240,59
61,125,-10,2,574,-82
111,-90,-50,15,495,-234
-74,101,9,-521,1324,78
92,-27,119,-511,2317,638
-59,-95,-86,-1214,4850,863
-123,127,56,940,3724,2619
-33,36,-46,-903,5160,2774
34,87,96,1218,3796,3389
-121,26,77,-215,3555,3271
102,-127,-52,1725,1322,3339
-89,-50,-36,-116,2153,3257
-98,-110,13,545,1383,2669
-123,86,39,1104,1626,2797
113,98,67,1201,1038,2377
89,-118,61,343,1062,1688
26,-79,54,-490,491,555
1,102,77,167,-188,-241
-9,53,111,426,-27,-238
-33,30,117,232,72,-223
-23,17,112,-30,51,-240
-2,36,126,-536,-107,-431
22,12,117,-538,-53,-538
44,7,116,-496,115,-635
40,-13,102,-123,109,-616
70,-28,80,38,304,-766
57,-50,60,183,141,-517
53,-46,51,-69,124,-172
60,-38,29,-244,123,217
74,-13,32,-366,13,377
79,10,26,-367,17,351
87,47,30,-535,-12,269
86,47,21,-189,30,272
94,66,26,-164,-5,321
87,90,11,-209,106,204
99,95,5,-91,105,88
106,97,-11,57,81,-27
-34,-99,-22,-1837,-3564,-2790
104,20,78,-1020,-7350,-4161
-28,-88,-51,-2685,-11374,-2755
-58,62,96,-6424,-9723,-1885
-111,1,-43,-918,-6203,-1494
-106,-114,60,-328,-1650,628
-96,54,40,12,1257,515
3,79,-25,-415,-175,-293
37,-79,86,-335,-466,243
-47,-91,-75,-24,287,209
-19,-34,49,-110,356,-17
-27,-119,28,-21,738,-93
-82,30,-85,178,2375,159
-28,-56,-85,-447,3078,1530
90,-33,-94,663,6085,278
90,10,8,1401,3590,2094
-126,34,126,929,3871,2475
10,46,99,-622,5279,2429
98,61,7,1910,3033,3600
-8,-56,64,123,4618,3434
30,-119,-71,1240,2532,3376
58,126,-99,1205,2597,2988
5,116,-36,1047,2152,2348
-95,121,-41,728,1626,1406
81,77,4,373,-7,312
64,55,47,-142,0,256
20,26,70,-364,180,295
26,16,75,-100,234,271
26,62,72,-724,52,-113
39,45,81,-570,-197,-339
49,28,81,-300,-222,-666
57,10,95,-189,-324,-757
72,-22,83,-58,-115,-805
88,-37,82,-155,-119,-757
76,-59,74,-95,-156,-390
99,-51,57,-361,157,-147
101,-35,55,-392,-21,159
111,-15,34,-552,212,222
108,26,18,-786,142,266
88,32,5,-234,132,316
110,48,-4,-69,319,257
-109,86,-1,-372,69,234
-106,101,-8,-348,118,-64
113,83,-12,116,95,-224
125,73,-10,140,110,-108
-126,72,-6,94,164,-36
-107,73,10,19,179,176
-127,83,-3,-24,264,247
-103,91,-11,55,379,200
-86,112,-38,-195,153,-2
50,-116,-32,-2060,-5480,-1244
114,93,-52,-1856,-7419,-2139
-90,93,58,-1560,-11839,-455
13,-61,-39,-7562,-10114,1563
-91,-119,21,-1719,-8548,-6
31,115,65,1512,-2336,63
-90,-83,4,223,4506,-80
-112,3,89,-728,-508,483
-49,10,-11,172,-1208,146
28,0,33,-734,519,1
-34,-59,89,-323,111,-26
-51,111,76,-110,158,-182
20,99,-123,-11,348,-19
95,95,105,-152,599,56
120,-123,90,-198,1076,-168
91,26,-16,-309,2809,297
-20,82,-104,-143,6530,-604
-66,75,85,372,5764,1482
-66,-17,-41,21,6145,1876
-19,-61,24,-548,3963,2668
48,-60,-31,-79,4681,2311
65,-35,72,-757,2158,2785
64,126,97,367,2089,2634
-123,95,-35,-657,2567,2751
-122,47,-14,1440,2203,2959
124,-124,23,-258,1892,2413
98,-62,28,-1753,1165,2467
43,3,20,-2928,586,1690
1,-86,52,-1362,-427,-545
11,105,86,697,-401,-303
2,108,92,851,-108,-121
4,-127,80,-129,128,-274
11,101,68,-140,110,-462
38,88,62,-384,41,-739
58,58,50,-34,206,-805
69,25,42,301,4,-700
72,25,36,-23,24,-551
74,16,28,-87,2,-385
76,17,23,-221,0,-77
72,38,25,-368,21,110
88,47,13,-177,101,187
99,70,15,-164,68,311
100,93,9,-359,17,349
110,111,12,-323,182,289
106,120,1,9,82,284
116,-125,-5,-15,239,189
120,-113,-18,-180,76,127
-124,-118,-19,-10,184,53
-117,-115,-28,-38,65,-47
-111,-124,-31,31,65,-104
48,38,124,394,-4794,-3407
112,-35,49,-1563,-8825,-4686
-73,122,-104,-6175,-11024,-3890
83,-15,-100,-4709,-9017,-2953
-79,59,-104,-1911,-5306,-1404
102,4,126,-933,-578,-267
-11,-36,92,405,227,316
109,-21,-76,-87,-594,-49
114,-51,-83,122,-374,137
-24,30,-56,-40,425,-16
-19,11,105,-489,643,13
-3,-120,97,-456,1191,136
97,14,118,-746,2762,548
105,123,42,23,2210,1830
-5,-125,-107,696,3599,2010
64,-29,54,2134,3669,3704
17,-39,-19,-909,5546,2968
99,-15,102,1231,3859,3840
-64,-120,29,-197,2327,4111
-64,64,-110,161,1306,4226
33,24,-104,1740,2209,2862
-8,-66,-105,2667,1712,2640
-48,-46,-93,1042,906,2100
-116,-86,-60,799,208,1043
108,54,-16,2004,251,406
73,59,26,540,96,484
35,47,24,-570,264,631
29,86,25,-1023,-85,424
45,-117,19,-1207,-233,224
63,-116,49,-430,-412,-401
73,96,41,358,96,-780
84,88,47,-284,-3,-1139
99,56,25,-944,-52,-1095
107,71,44,-1605,-396,-1353
100,9,10,-245,213,-865
77,10,7,388,-39,-83
96,43,-13,-88,295,152
110,62,-24,-304,17,340
-127,82,-21,-222,64,414
127,112,-19,-550,-40,367
-125,-127,-28,-589,-10,426
-126,-103,-19,-358,19,403
-127,-86,-20,-103,70,273
-116,-87,-24,253,161,75
-107,-95,-32,365,54,-25
-106,-100,-29,191,92,-138
-106,-121,-33,263,110,-100
-98,-125,-38,-1,68,-86
-100,120,-38,110,64,24
-96,127,-44,-32,95,5
60,-113,74,2668,-2518,-3534
114,-39,-50,-1005,-8299,-4168
27,92,-90,-2055,-11734,-3532
93,-13,-111,-5073,-11103,-1027
-54,-123,5,-1490,-8093,-566
27,120,-1,-1390,-3943,199
-44,-81,-31,-364,1329,1222
68,108,-100,955,279,79
87,44,-29,-168,-237,-330
-128,-7,116,-135,-473,-12
-23,-65,50,-67,-114,84
10,-109,55,-197,-37,162
43,125,-8,23,334,-195
36,-118,-65,-200,23,-64
75,120,-10,-2,126,61
-124,-96,-6,-223,433,-3
-105,-125,-62,-236,488,-24
-61,125,-4,-118,1151,-63
-116,50,-109,-493,2714,358
39,-7,40,-1169,3627,672
23,-93,99,-1233,4570,2344
118,3,-95,-2468,6902,2216
-65,-34,53,-891,3740,3884
16,-47,-2,2630,1568,3196
100,-94,98,1142,2869,2840
100,-89,73,737,2292,3029
-54,71,-99,789,2686,4074
-71,-108,105,-242,1648,2656
-87,91,-101,462,1037,3279
125,-101,-109,-361,1147,2043
45,107,-101,-34,490,1120
18,93,-112,116,362,886
-17,62,-110,478,98,129
-21,54,-89,-67,-123,-178
-33,15,-80,-90,-118,-161
-39,-21,-64,552,-57,71
-30,5,-77,182,169,-1
-16,7,-90,-95,216,-195
-7,-1,-91,-150,-178,-331
5,-37,-104,524,287,-247
20,-22,-120,-43,74,-430
26,-47,120,-61,9,-274
18,-40,117,-173,5,-245
29,-42,111,-275,194,12
36,-47,103,287,165,73
48,-9,89,-376,0,51
56,-10,72,-269,119,-70
52,-3,73,-229,61,10
72,12,54,-598,256,-43
72,28,62,-608,-68,-17
87,35,-7,1476,-7357,-3789
107,103,2,103,-10522,-1801
-127,19,-103,-4368,-9532,1734
84,7,-127,-5630,-8327,1659
-42,-15,59,-1856,-6951,720
77,64,-27,1517,-691,-1413
-80,83,22,-1571,2117,947
124,17,35,-689,429,525
75,119,118,536,-178,39
3,-75,-22,-165,160,222
48,-127,-114,-317,464,166
21,98,-6,424,-182,-182
-128,74,92,130,65,-136
-44,66,-40,-5,1131,-1
106,-29,-40,693,1553,453
-35,82,105,885,4343,525
-41,-1,45,1807,5701,817
-72,49,123,1435,6464,1987
-4,62,-113,-567,5970,2831
85,61,11,-3036,5066,3122
-86,-55,119,2165,2234,3257
104,-82,-21,2055,3181,2511
74,-11,-43,-760,2151,2340
80,-112,-31,381,2076,2103
46,101,34,1598,1241,1406
24,-114,0,641,1268,495
-26,-121,32,-97,431,-5
-56,59,95,3,-169,248
-68,24,94,678,216,490
-68,64,100,9,213,323
-60,107,-128,-724,-199,14
-48,93,-123,-704,-204,-215
-44,72,114,-554,117,-223
-37,77,101,-566,258,-417
-17,42,71,168,181,-408
12,36,59,208,76,-589
4,27,53,-80,-126,-578
-3,1,47,-46,-71,-406
-5,1,50,-246,-110,-140
4,1,45,-208,20,181
22,30,39,-378,-1,285
41,54,27,-384,82,236
40,75,27,-409,51,186
51,77,19,-225,83,223
45,106,5,-386,161,165
46,113,-4,-172,136,-47
53,95,-13,295,180,-129
69,89,-28,154,118,-138
74,79,-35,87,3,-61
72,68,-29,263,87,-45
-128,106,-52,-1328,-4471,-2287
53,-52,28,-2660,-5876,-4691
70,31,-126,-3710,-12256,-5343
-77,-80,-12,-4978,-10479,-3795
35,8,10,-1308,-3774,-1102
-74,62,116,-565,-1131,196
77,40,-102,44,-105,485
-118,-97,-27,-14,1174,-46
110,43,-53,90,-128,0
-78,-19,23,-731,197,123
-16,127,41,87,431,-27
-40,-120,-61,-213,-67,-35
39,85,9,-166,269,-55
91,-123,-61,-267,490,-53
93,-121,-35,-307,525,93
-27,74,50,-465,1737,115
88,-60,122,-34,1773,1387
-100,-28,-45,-774,3909,1599
120,-73,40,1787,2839,2468
-50,-23,23,722,4457,2842
13,27,-97,-46,5194,2171
60,122,78,1339,2683,3663
-86,-69,104,-602,3316,3713
125,-73,-43,539,984,3142
-108,93,14,1130,1201,3859
-83,-111,39,290,1667,2573
123,-119,43,397,1540,2101
52,-78,53,387,801,1224
-2,125,76,976,-124,19
-31,46,117,1047,-249,-194
-38,22,-116,721,79,44
-49,6,-117,572,261,217
-40,24,-125,76,186,96
-24,20,124,-28,-34,-147
-10,10,120,-29,-23,-370
5,-17,120,38,-21,-490
2,-34,114,82,-78,-524
5,-41,110,-196,-92,-499
19,-58,106,-246,-16,-336
20,-55,96,-297,27,-110
25,-47,82,-336,48,-51
35,-32,63,-404,84,35
42,-22,52,-347,111,38
45,-18,41,-125,74,88
51,4,26,-230,78,71
51,1,17,-55,127,112
57,21,6,-228,58,107
61,22,3,-91,62,116
64,33,-2,-146,54,94
68,41,-4,-154,26,40
72,38,-78,-425,-4083,-4222
-38,-9,-64,-426,-6208,-4749
79,56,-38,-2214,-13427,-1228
-5,96,22,-7389,-8272,-2211
56,1,-102,-2035,-6055,-1359
-109,22,1,-433,-2583,375
-52,-126,122,-281,1340,997
-82,83,0,16,-106,-76
62,53,9,272,-698,-162
107,-106,-116,-173,180,137
-84,-90,78,13,63,252
-63,-28,0,-190,-23,28
-31,-128,39,5,117,-35
-7,121,7,52,208,10
26,-94,-12,-179,325,-85
50,-116,-22,-135,195,-63
70,-116,-41,-261,241,-37
114,113,-34,27,249,-43
-66,82,-5,-259,1011,101
71,-25,88,548,1629,160
-68,63,76,746,2334,1299
-35,120,-91,67,5052,1205
-94,-104,73,1720,4154,2662
49,83,-125,763,5130,1746
10,41,-56,1976,3632,2816
120,-60,-108,-604,3495,2984
111,57,-9,837,3081,3429
-93,102,29,696,2191,2845
-96,93,33,721,2407,2647
122,127,57,227,2151,1726
35,-83,36,-279,1403,1001
-27,106,82,59,757,74
-58,37,-125,626,-131,-196
-63,14,-104,642,-211,177
-66,18,-99,363,44,306
-57,38,-103,-143,86,49
-48,44,-100,-475,-90,-182
-29,32,-101,-620,-89,-422
-23,10,-109,-334,-31,-497
-19,-5,-115,-137,-51,-486
-12,-19,121,-146,53,-421
-3,-19,108,-302,27,-323
8,-22,95,-310,80,-214
12,-18,75,-274,50,-66
20,-6,66,-312,90,-7
25,3,52,-268,80,67
34,20,45,-282,31,120
38,27,37,-144,87,184
40,51,29,-347,12,141
51,58,22,-113,123,98
86,33,-25,832,-6662,-4560
6,-37,122,-2722,-10070,-3482
-25,-120,70,-5972,-11252,-1339
-7,-66,-14,-2718,-8900,-402
-16,52,80,1069,-4181,-1238
110,-5,45,475,821,-742
-46,-65,-27,-901,739,642
-11,-75,-21,-561,-402,186
-103,94,-112,-457,377,67
-18,-101,-97,-54,493,123
-35,-89,88,-265,366,-99
-44,58,21,108,112,-101
27,68,46,-84,353,-89
33,117,40,-74,115,-4
58,-114,-4,-338,-17,34
96,79,4,-66,17,-44
-118,69,5,-91,72,40
-83,81,-13,-11,125,-13
-75,93,-32,202,-109,-148
-60,-102,-41,-286,-79,-46
-9,105,-31,154,160,-190
3,123,-36,-132,183,-84
62,-122,-18,-212,1025,-337
-72,70,114,-1085,1053,664
54,2,84,-1781,2895,1141
57,46,-36,1417,2669,2515
-119,10,91,-1211,5216,2437
-18,-114,109,1587,3545,3438
-24,120,-24,11,5053,3476
-55,-120,-13,1543,3276,3365
-39,-14,16,633,2397,3618
-113,-117,-86,1387,1047,4297
-83,-93,-123,433,3011,2418
97,100,-79,2336,1590,2663
19,-37,-93,1089,967,1491
-59,-23,-93,429,-29,173
-93,103,-21,1224,51,108
-118,66,-28,659,938,368
126,94,-35,255,306,191
-112,96,-32,-163,34,-79
-111,39,-6,97,-134,-216
-114,10,5,497,-294,-355
-104,-23,35,951,-86,-108
-91,37,2,-198,171,-274
-82,10,-5,-555,120,-306
-83,-60,-14,-76,86,-205
-85,-31,-41,-312,134,-115
-82,-33,-64,-296,70,6
-73,-18,-91,-184,-1,-90
-73,-21,-94,-40,-10,22
-103,-38,12,-3997,-5970,-3293
48,-83,72,-6566,-7031,-5138
-32,73,-12,-2738,-9413,-7083
-81,60,105,-3079,-7425,-7706
62,-61,28,-1422,-6774,-1053
28,73,-125,-704,2121,3184
71,-99,81,1080,187,-247
20,54,92,790,-381,-523
-65,-76,-71,-853,-64,365
-33,-104,35,-80,-228,85
17,70,79,83,132,21
36,96,27,-17,-100,-18
70,105,13,-32,51,6
107,-128,10,-209,184,9
-127,109,16,-72,260,142
-104,-102,-21,-653,315,96
-92,103,-35,34,82,-55
-56,-126,-38,-135,100,25
-37,-109,-41,-100,41,17
-12,-125,-54,-3,127,-20
8,-104,-61,-105,24,-19
40,-93,-53,34,110,-85
41,-73,-88,-317,-24,61
63,-84,-69,-20,-15,34
94,-56,-55,-92,146,-82
118,-87,-43,179,516,18
-20,123,66,-1166,2041,263
99,-25,101,-1349,2461,1814
-100,111,-3,629,2910,3131
-72,91,-89,2404,3462,3749
0,-64,82,1998,5258,3320
39,-115,11,1270,4549,3771
30,-71,60,1455,3551,3666
-5,-46,-96,440,1994,4165
-22,-47,-83,-141,2069,3173
127,-72,-69,-268,1708,2519
35,-98,-47,828,816,2076
-31,-71,-40,1306,-70,622
-68,-98,-14,1158,-65,-33
-98,63,25,1142,211,-188
-124,52,34,632,66,107
-126,50,35,199,115,245
-113,58,35,-3,72,118
-103,62,28,-330,-43,-150
-95,41,20,-343,-56,-287
-90,11,15,-186,-45,-347
-85,-9,0,7,43,-309
-80,-12,-8,-158,6,-267
-75,-29,-31,-172,-3,-244
-65,-27,-38,-297,31,-175
0,-77,-57,2298,-2876,-4539
-2,62,75,1209,-3997,-2481
-120,10,21,-351,-6814,-3088
42,-82,3,-3336,-11311,-695
-88,114,120,-4806,-10834,-467
67,-117,68,-659,-9173,-233
-83,-124,-9,-428,-3153,-241
20,97,29,-400,3004,374
-94,-120,-83,439,-168,284
9,-59,-17,417,-238,-243
-24,-28,-55,-489,155,-45
12,114,47,-253,124,189
27,78,15,-76,157,131
53,68,20,137,312,39
91,-114,-34,-413,319,-122
96,99,-14,-41,170,58
-120,112,-22,-118,304,61
-114,-126,-56,-183,87,37
-72,118,-42,-133,161,-59
-40,104,-64,-57,115,-13
-29,120,-70,11,96,-46
-7,-121,-66,-42,102,-13
86,117,-19,-142,998,2
-32,56,100,-390,1452,715
37,-26,72,-675,2955,1114
76,-107,-47,445,3218,2376
90,-86,-108,707,5045,2485
-103,-60,93,1809,5110,2714
-38,108,-32,334,5736,3062
-46,-123,39,587,3366,3434
-55,-97,109,537,2049,4289
-52,-87,-118,-243,2619,3357
-86,127,-108,1484,1525,2860
65,-16,-123,1049,913,1606
-17,-56,-120,1049,558,-38
-80,97,-53,1252,16,-360
-97,11,6,1075,115,-39
-105,11,19,526,345,275
-100,14,12,91,516,392
-111,34,-4,-302,189,457
-89,73,-7,-1106,40,48
-77,42,-26,-579,-57,-134
-78,11,-26,91,-209,-464
-75,12,-23,139,-144,-325
-74,3,-37,-257,-10,-342
-60,-21,-57,-285,51,-348
-57,-29,-67,-145,-38,-183
-46,-34,-82,-92,52,-161
-47,-42,-92,318,-98,-30
-39,-30,-102,148,41,22
-101,-35,-128,-3096,-7727,-2819
-9,94,55,-4620,-13417,-1231
37,25,-106,-5873,-11199,-1392
-41,0,-24,-718,-6144,-1496
-125,28,86,-651,630,-119
88,-72,-27,213,819,970
88,-81,82,-457,-107,204
-84,-45,-120,348,475,-352
2,-71,-37,-132,-252,41
45,121,8,-120,188,77
55,108,-61,-94,-71,110
102,-119,-49,-231,202,-54
-124,104,-39,137,295,59
-102,-99,-87,-186,212,45
-98,-121,-42,-152,322,-19
-67,-82,-111,-402,141,-17
-35,120,-71,-70,184,90
-20,-99,123,-349,108,-56
6,-108,-100,-229,69,-35
29,-101,-119,-263,-39,4
61,-90,-67,299,244,-108
-110,123,-2,222,851,0
52,-33,96,-647,1951,1393
96,92,26,1068,3716,1603
-107,-97,-97,1564,4146,2766
-21,0,52,1271,5406,2274
-59,84,15,1094,4839,2945
-21,-91,23,273,4018,2944
-58,108,82,992,2993,3726
-32,-96,-105,428,2075,2975
-103,100,-80,1202,1907,2764
97,107,-53,1374,1490,1897
36,-119,-64,477,1244,1104
-47,107,-47,582,538,501
-81,78,-5,640,-227,111
-95,54,16,343,-21,91
-111,41,39,93,-8,115
-108,42,23,-21,160,235
-96,57,17,-294,20,-149
-79,36,13,-176,-215,-374
-72,6,14,91,-148,-512
-69,-23,13,239,-125,-470
-73,-35,11,-77,-176,-396
-64,-54,-5,-108,27,-233
-59,-53,-23,-249,11,-115
-52,-51,-37,-243,108,-65
-51,-51,-54,-203,41,37
-45,-45,-73,-164,70,77
-47,-34,-86,-188,89,130
-43,-22,-102,-156,102,133
-21,15,-30,4869,-2489,-1178
-21,36,65,-2904,-4790,-2576
86,32,-82,-1831,-7363,-3613
115,-14,49,-4236,-8697,-3490
-89,27,94,-3064,-12016,-2452
-31,123,-16,-1198,-8953,921
65,-79,-33,404,-1570,1311
-91,-111,52,413,880,926
-72,-114,53,1190,-607,204
11,104,-96,-815,679,-429
121,-70,48,24,-343,62
-58,115,61,-216,-74,145
-15,112,39,53,207,47
9,-115,-20,-172,294,-71
48,-90,33,-374,587,-219
-125,97,77,-551,1180,330
55,-22,-97,-1061,2164,659
-98,126,-27,460,2714,1630
-127,-113,81,870,3958,2404
-114,64,-123,-10,4795,2668
-79,75,108,2136,3993,2602
38,-38,102,766,3433,2816
36,111,-111,1648,3582,3037
-100,-28,-109,-344,3370,2577
107,58,2,2098,1812,3659
-54,-102,-18,619,2735,2701
-101,99,42,1100,1605,2412
123,-128,43,251,1078,1722
47,-107,38,-212,295,450
8,108,76,-386,-373,-624
-22,22,107,326,-497,-297
-48,6,116,254,70,-46
-39,39,109,-488,138,-182
-4,11,91,-251,154,-445
24,-12,110,72,-366,-574
28,-34,102,270,-373,-660
26,-24,109,-12,-363,-604
21,-36,89,-101,-98,-324
31,-44,87,-244,73,-120
27,-39,76,-266,-14,128
46,-24,53,-114,232,98
50,-8,49,-122,-17,161
63,2,32,-119,160,78
61,11,26,-81,-34,134
64,15,15,-84,158,187
59,35,8,-214,6,156
71,37,0,71,137,70
77,48,-6,-107,57,14
83,35,-11,82,4,-43
80,43,-14,-254,-39,20
15,104,18,-250,-5247,-3989
6,-122,38,-2601,-9077,-4800
32,90,21,-3645,-13638,-2775
-93,-12,-120,-3796,-9388,-1225
81,112,-80,841,-3708,-733
62,35,94,240,1534,479
8,-27,91,-159,276,192
48,-67,-23,-260,-586,119
-86,-100,-103,-229,227,98
2,-48,-112,169,110,5
-17,-79,45,-235,273,-222
-6,33,37,-98,350,77
96,89,47,-137,847,119
-94,85,105,-221,1009,680
36,-5,-54,-173,2207,898
-73,87,53,745,4503,1331
-113,-89,56,1054,5335,1963
-40,-28,-93,1708,4717,2700
62,-73,-29,-686,5693,1952
1,102,108,2309,2430,3417
-84,-54,-124,69,3587,2963
98,99,-59,1101,1996,2875
-112,82,-9,1064,2335,3008
-100,117,-1,122,2183,2095
118,97,12,1249,1447,1735
66,113,38,1093,667,772
3,88,67,271,145,346
-28,50,79,275,315,335
-40,48,76,275,385,297
-39,48,70,258,22,-7
-27,40,81,235,-180,-233
-13,25,102,-104,-315,-568
-11,-2,113,-290,-446,-635
3,-34,119,-53,-328,-565
12,-47,126,-31,-306,-402
11,-49,116,-229,-171,-256
15,-43,107,-450,-112,-159
20,-34,90,-588,-34,-74
19,-40,78,-175,50,63
28,-20,59,-257,185,139
32,-2,35,-291,131,169
42,9,21,-182,187,164
48,19,7,-85,97,99
53,31,-5,-116,66,22
56,28,-7,41,36,9
58,38,-10,-50,8,-44
65,34,-10,11,22,-35
68,33,-12,-2,42,-37
72,37,-17,-86,10,-11
76,34,-18,-6,76,29
126,-103,2,-871,-5754,-4101
32,25,96,-2829,-8749,-4146
-100,48,48,-3361,-10909,-3720
19,-118,33,-3922,-9704,-2755
-54,36,77,464,-6319,-56
-33,-77,-96,-281,4387,891
-111,-64,17,-1128,518,59
-48,11,123,179,-868,-186
-104,100,67,-266,616,-35
-33,-70,-97,315,-135,34
-30,-59,117,-99,-32,-97
-23,68,-120,-137,210,-104
11,75,76,218,-56,13
45,122,67,9,64,0
70,-117,75,374,23,-199
123,-114,96,-125,209,-27
-85,45,103,118,931,-6
-6,73,81,92,1646,-450
-121,-21,-89,391,2442,-157
-26,-13,-71,2216,3834,1194
-68,62,24,2236,5145,1219
25,-46,100,857,5801,1294
25,37,-36,490,5058,2346
63,37,-80,2205,4748,1863
64,70,36,1903,3300,2104
-111,81,-3,1340,3815,1483
110,56,42,512,3524,1758
119,82,35,-46,3327,1586
54,80,25,7,2138,1132
-6,94,20,208,1308,733
-86,105,61,309,-23,332
-100,65,117,564,-469,84
-105,43,-106,1076,-104,130
-99,70,-91,512,85,32
-103,68,-95,-19,-209,-109
-87,63,-81,-330,-346,-318
-83,35,-73,-342,-416,-390
-79,11,-69,-179,-392,-438
-77,-2,-73,-269,-269,-374
-79,-14,-81,-423,-205,-240
-69,-21,-90,-258,-92,-202
-64,-19,-104,-238,-4,-49
-58,-12,-121,-163,113,-13
-62,1,117,-385,74,35
-55,-1,103,-155,180,52
-45,12,78,-71,140,36
-40,7,69,7,152,83
-36,25,56,-105,78,13
-32,17,51,109,92,56
-26,26,43,79,96,17
-11,-68,44,-3668,-3651,-1166
-71,53,50,-5303,-9670,-3566
-51,14,-64,-7541,-13703,-5152
-83,-123,23,-4446,-9164,-5127
-22,-52,20,942,-2940,443
-35,-37,-73,-300,1422,1956
31,38,42,338,344,-563
72,62,122,175,-735,-680
51,124,36,-223,230,113
-124,-41,-126,-253,385,-76
82,-100,101,335,248,-70
62,-109,105,-484,355,74
66,-110,84,-160,-67,120
110,-74,58,-306,71,-213
-99,57,84,-95,44,87
-74,63,-7,294,-92,19
-57,111,-7,-204,14,-48
-24,85,35,68,301,-161
8,85,-12,-193,208,60
14,108,-81,274,176,-168
-100,34,25,-477,1350,291
45,81,125,-280,2510,1780
68,-70,15,146,4811,3260
8,73,2,1525,5486,3382
-56,29,-93,1362,4354,4175
4,60,-7,503,3898,2926
-33,32,63,668,2886,3865
-20,76,104,-691,2315,3407
-12,-50,114,2021,1715,3481
21,-52,-114,2935,1383,3444
65,55,97,1490,1586,2677
11,-124,43,149,1028,1303
-93,100,57,-70,-245,-94
-119,-3,103,600,-281,-34
121,-49,117,1032,68,124
95,-36,100,733,148,189
126,-31,100,252,-95,-54
-112,-28,117,-93,-297,-434
-98,-64,-121,-216,-280,-655
-102,-90,-112,-472,-273,-897
-100,127,-110,-281,-122,-700
-106,85,-117,170,11,-512
-98,89,114,-24,236,-209
-85,103,92,-474,245,-50
-70,99,72,-176,229,130
-64,124,53,-363,282,144
-50,-126,35,-279,233,108
-43,-111,17,-144,151,68
-39,-107,4,-128,78,-9
-25,-105,-1,-124,-14,-66
-72,-65,110,4358,-3275,-1186
-93,125,125,-1969,-5319,-2236
-90,-1,-32,-1407,-11018,-62
103,11,124,-11337,-14690,917
103,8,-49,-5985,-9880,468
57,-105,34,-859,-5054,-93
-36,65,-13,1083,574,-211
-67,3,57,523,302,-448
-89,-121,-32,-945,284,-392
20,99,96,-193,-664,119
-65,-81,-101,30,-486,-42
18,-41,8,-126,373,-112
7,-33,-59,-14,728,-178
-37,-91,109,-452,541,72
-8,-128,71,108,410,-49
66,99,-120,-33,1059,-68
-70,16,-64,146,1604,41
57,72,122,924,2327,772
38,117,-50,1169,3419,1866
81,-57,45,1031,5541,1604
52,22,-72,3040,4758,2070
22,2,25,1776,4839,803
-112,123,-122,1913,2392,2601
-28,-71,-86,-581,2937,1681
9,18,-4,1418,3307,2276
107,-73,-88,-1032,3288,1108
61,101,-27,-286,1910,1993
67,40,12,1192,1621,2681
73,120,23,374,966,1671
42,-128,-4,-913,551,846
2,-123,14,-1637,41,463
-27,35,32,-355,149,85
-38,43,56,473,-136,260
-38,68,54,112,-42,176
-22,96,53,-553,25,-195
-5,84,60,-804,-140,-652
3,37,63,-33,-248,-637
12,22,68,6,-130,-683
8,-1,63,131,-126,-571
12,-12,56,115,-10,-412
21,-5,40,-218,57,-193
29,-11,26,-139,168,-6
35,9,13,-390,94,48
51,9,0,-83,220,178
49,22,-10,-81,72,342
53,47,-15,-91,236,329
60,65,-29,-108,93,280
72,74,-31,-24,114,192
72,86,-35,-20,56,131
77,91,-33,-16,42,9
-94,-49,-98,-1481,-4357,-2599
115,-61,-53,-2773,-7561,-2625
23,56,58,-4725,-11948,-159
83,-76,112,-8001,-10764,-134
31,5,107,-2341,-7272,-1234
-28,-125,-100,512,-2876,-2372
15,-45,61,-278,247,-718
51,-48,-73,-261,611,262
94,93,49,-751,668,337
-125,-42,-9,-601,-27,-184
-30,-125,4,-123,188,-203
-7,-115,-11,-144,-2,-121
17,82,5,348,91,-173
30,67,-22,-685,176,203
71,-120,4,-147,-44,-98
-114,-57,-54,-45,-28,-406
-43,62,-61,-98,807,-176
85,56,50,-508,2165,-212
-112,-64,75,-356,2366,1005
0,-91,-46,-15,3920,1264
-12,-116,64,1260,3986,2513
117,42,-48,-1001,6020,2476
93,42,-43,598,4056,3638
-116,-82,-85,578,3603,3498
1,4,-27,-584,3036,2233
-97,12,15,1051,914,3493
-118,-108,43,1599,1836,3632
98,-90,90,644,1760,3058
82,-91,86,-91,1307,2163
17,-54,93,-240,50,947
-40,-62,125,-882,-591,-219
-54,65,-124,165,129,-497
-75,21,-93,466,-8,-405
-82,-15,-108,521,323,-203
-55,5,-112,-14,-32,-303
-19,-11,-126,-200,-173,-366
-6,-34,-110,17,-135,-419
3,-49,-119,21,-76,-370
21,-58,-114,49,-117,-370
21,-68,-110,204,-47,-296
17,-77,-115,88,-13,-165
16,-80,-110,-6,23,107
35,-61,-127,-280,199,388
38,-19,111,-677,0,335
15,-4,96,-606,76,245
17,-12,86,193,352,173
22,-2,40,290,330,118
34,12,22,-243,170,161
41,13,9,-220,135,149
45,12,0,234,163,-53
108,-120,63,-1854,-6421,-790
47,58,67,-3086,-10374,-2243
27,98,96,-7353,-12310,-1631
-114,-40,-105,-2643,-8917,-3164
-108,-108,11,729,-3865,-1024
-64,-77,-2,-2019,4569,820
-98,20,116,-1861,1302,179
-64,13,15,-45,-1035,-412
-86,116,-88,-154,47,-138
-73,-91,92,-554,-17,-1
-35,-118,64,2,228,-129
-47,74,13,-126,136,116
-14,70,-5,-180,314,106
45,93,31,-14,581,-22
122,76,44,-366,642,239
-35,-25,107,-441,1148,1132
-85,20,92,398,3514,2538
-78,-88,59,-544,5621,3128
-121,-48,-58,1452,4611,3482
-80,32,82,-292,3654,3656
97,-32,86,1550,4100,3283
-73,-60,81,3679,4284,2769
-18,70,-90,146,3099,2642
86,-76,30,446,137,2304
-126,44,39,1272,1729,2547
115,91,30,183,1803,1702
85,92,27,143,778,1376
42,103,40,-139,-9,595
15,77,54,-128,-96,185
-9,43,69,367,-32,205
-13,42,71,399,146,202
-10,62,72,-90,-35,-102
2,48,72,-185,-243,-432
18,35,91,-345,-323,-643
24,-3,89,81,-210,-655
34,-19,92,149,-222,-696
43,-37,92,58,-197,-470
48,-53,96,287,-132,-414
40,-73,92,730,-224,-355
56,-45,78,-29,76,-8
62,-44,49,-368,504,307
60,-28,35,-370,373,418
78,-8,10,-316,343,389
74,0,5,195,-103,203
78,22,-2,170,-61,81
73,27,-14,227,106,11
88,29,-18,-71,358,82
88,12,-16,237,56,33
93,27,-19,-68,-49,-110
99,18,-9,96,-95,-102
9,110,80,-1592,-7161,-3190
4,-73,-106,-6380,-11378,-5606
-1,-67,-71,-2719,-11486,-3496
-68,53,77,-281,-5783,-1276
83,84,-89,118,1465,777
-7,-68,-7,1173,981,-145
-48,78,6,-292,-432,-487
94,90,64,-484,-85,-25
4,-82,81,136,-197,76
16,-70,-27,-661,26,149
-19,77,-32,-134,19,98
23,89,-49,-145,92,0
90,124,-65,-248,246,-33
107,102,-58,214,243,17
-116,113,-72,26,353,96
-45,85,-19,67,808,83
-121,1,91,-907,2318,390
20,117,43,-1537,4704,1375
34,-69,-120,1675,5463,3538
125,24,-9,-1120,4739,4565
-81,26,59,-2684,5149,3851
-113,-112,-28,2302,1923,4444
69,-89,-30,-1547,1890,4300
-50,-70,19,1775,465,2584
-71,103,71,2303,1373,2638
127,89,90,2315,971,2377
64,103,87,1947,729,1561
16,-121,86,36,593,271
-6,74,108,-625,163,-138
-30,-42,-128,936,41,339
-54,2,-126,819,29,356
-43,44,125,-215,100,79
-35,37,-117,-385,-329,-41
-35,51,-109,-601,-183,-342
-6,19,-119,-349,-61,-765
2,-21,-118,167,-201,-744
5,-39,-122,61,-251,-682
13,-64,122,-40,-203,-415
-1,-47,121,-407,-87,-184
21,-53,90,-239,172,-79
33,-32,74,-257,-96,-104
46,-35,59,5,130,-68
46,-22,49,-266,-21,4
44,-9,34,-347,91,173
43,1,26,-277,48,232
49,25,17,-322,35,195
56,39,5,-198,68,130
59,53,0,-293,21,47
60,52,-1,-51,14,-16
68,62,-9,-96,32,-54
-103,3,-110,-388,-5965,-4437
-42,7,66,-4136,-9385,-5337
61,-119,-37,-3169,-10718,-4352
-88,13,124,-1838,-8847,-2134
-54,121,-40,-1006,-2261,-602
-5,65,-113,227,1147,6
70,-60,74,288,-427,-180
60,93,106,646,-412,29
-109,-32,17,-373,-204,-38
17,-12,9,-123,238,-62
-4,-72,-118,-215,-165,130
22,-115,-98,114,-13,60
49,-128,-127,-142,310,-49
61,-106,112,-262,-37,119
-128,-88,-74,76,276,-60
118,-87,-121,-169,186,-5
-99,-111,119,-189,349,-45
-4,84,-49,-143,1271,87
-119,-10,86,-57,2764,245
-67,-124,65,878,2635,1807
51,-27,114,145,4215,1833
93,31,37,-101,4452,2910
-61,51,-47,565,4885,2713
23,74,-43,1191,4494,3129
31,-98,17,-1053,2963,3633
42,63,109,646,2058,4069
81,-123,47,-506,2678,2976
-51,119,106,852,736,3054
104,-78,101,398,343,1773
51,-105,101,-1088,672,-60
1,7,-115,511,97,200
-42,-18,-84,1203,-292,647
-34,19,-97,380,242,267
-30,42,-94,-413,138,61
-16,14,-101,-224,40,-100
-12,18,-85,-252,-319,-424
1,-11,-93,-62,-117,-463
-1,-24,-89,-192,-233,-562
11,-48,-108,-29,2,-420
13,-47,-119,-180,-67,-318
20,-45,112,-430,-20,-233
29,-27,104,-806,-139,-160
53,-26,88,-345,218,-174
47,-22,75,64,-192,-80
52,-6,73,-301,27,-93
48,-4,60,-329,57,88
56,17,50,-306,126,138
67,28,37,-123,115,143
80,50,23,-241,89,25
77,51,15,-106,8,5
-66,57,-87,6320,-1714,-2551
-95,108,126,3504,-726,586
16,-74,124,-1562,-1642,-172
40,-109,-59,-1538,-6436,185
-91,58,-91,-9946,-8515,166
27,44,-47,-7050,-9533,-3132
-57,30,-17,-1531,-8385,-5533
-119,-23,-127,-892,-6160,-3164
-63,-99,64,-646,-1401,598
97,16,-13,275,2964,1216
-42,-11,63,-647,-469,-315
19,-27,-9,438,-428,-568
-24,39,-64,-660,197,425
8,-120,61,-59,644,-38
-5,-61,-95,-135,-70,-190
26,71,-24,-273,166,-153
91,31,23,246,719,-77
-71,114,-4,-88,1110,40
70,63,62,-196,1906,671
78,-24,59,-223,3049,1296
-39,-53,-113,1533,4387,825
-39,52,110,857,3820,2119
23,21,-34,1459,4850,987
116,113,-59,504,4549,1667
53,29,-49,1158,3821,2317
-65,-112,-88,135,4066,1621
-118,45,42,1258,2563,2666
-80,82,24,585,2533,2022
-121,26,112,848,1854,2123
-124,-5,126,1090,2395,1986
83,35,-128,935,1625,1331
33,83,-120,115,842,711
-23,51,-87,95,-69,278
-36,16,-62,153,104,101
-47,13,-52,-126,170,59
-55,2,-51,-125,14,80
-51,3,-53,-152,-98,-177
-42,-6,-40,-48,-240,-270
-31,-30,-47,16,-220,-379
-18,-40,-42,-124,-217,-437
-15,-60,-51,-214,-224,-387
-5,-77,-53,-220,-166,-308
-7,-80,-64,-291,-68,-149
-2,-67,-80,-666,8,-128
1,-77,-103,-214,38,56
9,-59,-117,-227,107,2
10,-48,117,-262,48,45
14,-49,104,-19,118,73
14,-35,93,-134,109,75
20,-26,76,-162,84,65
84,113,-84,-2892,-7189,-3418
64,-59,-60,-4236,-9388,-3261
79,21,-37,-5348,-10116,-3530
97,12,-10,-1100,-8133,-3120
104,75,127,796,-4050,-1978
104,-84,-35,177,774,1446
68,-44,-56,-300,1428,-43
52,-65,-65,66,-556,184
-36,49,88,-689,-1,142
82,79,-60,85,27,152
85,-99,118,167,147,-169
71,61,47,-166,121,-47
122,49,86,46,260,105
-104,98,70,163,331,-1
-68,-109,72,-191,731,-232
16,67,-126,-99,1513,130
-121,-55,-70,-583,2371,796
-60,-29,113,692,2870,2645
-67,60,-15,2291,4508,2266
-21,52,123,525,4536,2324
40,-87,2,-28,4269,2045
55,-124,6,1474,2837,2430
98,-72,15,136,2993,2841
76,-123,38,376,2582,2272
66,124,36,1374,2128,2778
76,-85,63,402,1468,1695
24,88,72,1092,1684,1690
-1,100,92,958,1285,1387
-33,67,95,1523,982,1030
-50,109,107,748,611,585
-62,104,-127,36,256,344
-73,65,-104,215,108,435
-84,72,-110,211,51,325
-93,86,-114,13,-43,69
-85,82,-103,-44,-201,-210
-76,58,-100,61,-213,-305
-57,46,-93,-127,-179,-524
-48,20,-100,-252,-240,-554
-40,3,-103,-254,-227,-578
-40,-25,-115,-83,-178,-415
-35,-27,-123,-161,-79,-301
-27,-32,116,-152,59,-159
-20,-21,96,-254,-23,-68
-17,-22,84,-150,35,3
-14,-14,74,-82,44,46
-6,-2,59,-196,22,132
0,8,54,-213,23,198
-1,33,46,-273,140,204
4,44,38,-242,112,161
11,50,28,-19,101,94
-32,58,109,-2491,-5711,-3564
-82,35,116,-2653,-9745,-3848
54,30,-96,-5096,-12855,-3053
78,78,56,-862,-5988,-1245
100,-116,-124,-1765,97,1318
-15,-81,-24,351,949,91
0,-34,-77,859,-90,-752
83,-81,37,-705,-457,74
11,-60,-69,408,182,-121
-14,-22,52,-507,-5,117
-31,-104,6,-285,201,-92
20,99,-16,14,111,84
47,-101,-26,-33,87,-18
78,-118,-7,28,270,-74
94,-109,-53,89,4,-126
112,-107,-49,-165,27,-66
-97,-109,-55,-116,6,-68
-38,103,-19,-163,480,153
126,0,86,-229,1792,667
29,21,116,969,3095,1811
83,86,-85,1127,6559,1764
83,106,101,2007,4711,2918
2,70,-121,495,6918,3392
-13,0,-90,-858,2799,3604
-59,111,-42,1616,2488,4369
10,-42,16,-80,2744,2747
-60,102,33,2108,1841,3023
-104,-41,-10,1343,754,1908
2,122,78,1680,682,656
-47,85,86,1049,833,487
-81,63,-127,273,-6,103
-69,36,-81,-143,-67,307
-72,34,-74,-148,-35,194
-68,51,-64,-332,-146,-61
-61,48,-58,-338,-259,-337
-57,-5,-49,388,-259,-357
-46,7,-47,-55,-148,-425
-36,-30,-70,-100,15,-417
-36,-45,-78,-74,-22,-290
-26,-54,-105,-85,133,-164
-23,-43,-127,-275,65,-91
-17,-42,117,-113,17,-46
-13,-30,93,-156,9,-40
-8,-25,86,-208,14,16
-6,-16,78,-128,-5,43
0,1,70,-135,4,-28
4,2,67,-87,-83,-12
8,4,62,26,17,-8
8,18,53,-189,-17,-42
16,7,48,45,59,-3
