AccX,AccY,AccZ,GyroX,GyroY,GyroZ
-110,-5,-97,5280,-1214,-5855
-24,-37,77,2851,-2312,-7570
79,76,79,1338,-2424,-9301
82,64,-42,-2439,-2478,-9043
-58,82,-98,-3536,-842,-7553
-125,113,112,-1029,-1339,-351
99,41,52,4501,-2620,11073
68,52,-75,1720,3592,11997
-68,73,-102,3757,2698,12103
78,-96,53,-10824,-2060,2934
91,100,-40,7536,-267,-9192
16,125,60,677,-2350,-10887
-58,-8,-26,-1826,-1248,-10538
-76,61,104,-4996,-931,-9464
74,-125,-110,457,1416,3753
113,-34,-19,1210,974,16467
-21,3,-59,-1921,1816,13497
17,22,-57,-2939,-970,5721
96,-84,15,4490,-4272,-10223
29,-61,94,1209,183,-14719
6,2,68,-4337,890,-15727
99,-126,-31,3948,1136,-9013
11,-74,40,1477,-387,9959
-16,4,125,-4569,-5133,9815
101,96,-102,884,-129,7459
24,-4,23,1667,-2426,3766
-93,15,-31,130,1472,112
-86,38,26,984,-650,-2132
48,99,-119,-154,1303,642
112,-29,5,-207,570,-131
36,1,-26,1402,684,191
-10,-2,0,1246,-1891,686
-42,-88,-72,299,-434,1697
103,-128,-57,-2258,295,1604
66,-53,-23,-17,-592,2580
-43,123,39,-755,-397,3019
99,42,62,-871,-731,2813
-14,27,1,-698,864,2568
46,73,10,1367,142,2874
85,25,-27,-222,-1041,3480
94,29,-108,-112,-2023,4948
43,57,34,-80,924,2802
-75,100,68,-619,-436,987
115,100,73,-673,-909,-10
75,-49,34,1574,54,-97
83,-19,8,481,466,-393
89,-21,-9,-695,92,-752
117,-82,4,-463,-35,-986
123,-108,5,189,177,-770
116,127,-8,636,201,-540
-33,127,30,5415,370,-5691
58,116,-10,5680,-2635,-7669
-64,63,0,2191,-4676,-9689
55,-80,-79,-2798,-2516,-10844
82,15,-84,867,-3147,-5662
94,-13,-30,-2154,1190,5676
-7,36,55,-1047,2365,12882
108,24,18,-1105,2482,13530
-59,64,91,2866,5056,11824
18,51,12,-872,-1835,-748
105,-96,-54,5117,-1961,-7802
78,75,41,1943,-3172,-9344
-127,5,117,-1034,-2084,-10176
-94,-3,98,-1528,-1301,-7839
124,-20,-68,57,-19,1113
-18,-93,68,990,2890,15784
-67,-75,-62,-7001,1138,11522
-122,32,6,2305,4588,9142
104,-49,39,-3885,-5750,-3000
122,19,83,6579,132,-8793
-46,-122,-25,1879,-2623,-10958
84,-108,-39,594,-1018,-12725
120,33,-111,1358,-281,-11738
-37,-74,-50,1172,-1063,-2597
3,44,117,1103,24,7486
91,-39,-63,-5372,-2567,7930
27,57,0,303,1240,7549
-16,-106,-18,-1183,-3462,7118
121,26,-122,-7,2033,-43
12,-39,109,3276,-368,633
81,-5,22,-329,438,-670
-121,107,59,365,-55,391
-90,90,11,18,-543,-101
-22,36,7,92,261,-179
8,-75,67,1701,-787,56
-26,125,-18,1633,-892,998
-85,-39,0,154,-894,1919
-13,-21,-70,-641,1119,1750
-61,53,67,-591,-865,3352
-118,-12,-20,961,1606,2621
54,62,65,-542,-450,4244
-35,-110,16,-2008,1645,3089
-64,77,32,306,556,4292
-41,33,88,1627,202,5115
-14,55,38,74,524,3733
-62,78,27,-888,17,2510
126,40,32,-864,-343,828
70,24,39,219,-450,9
82,113,63,3419,295,-206
88,72,10,2546,316,-772
-100,3,49,12223,-882,-9086
-111,32,27,2762,-5270,-9050
70,37,-122,-610,-5064,-10565
-59,8,123,-1922,-3287,-8480
-117,30,-15,-1830,-1825,-4491
1,-82,-65,514,167,9397
-83,-42,25,-385,2200,15255
-2,-84,-64,-1763,2158,15396
76,-44,23,-6517,-41,6404
-120,-100,-50,6481,-1600,-7571
79,-50,40,3835,382,-10920
-69,107,-13,-3442,-499,-12609
3,-77,61,3083,677,-8190
-57,-43,-79,-3902,469,-3075
32,27,72,2170,-2523,16456
-22,40,-100,-2326,1186,16696
-126,-26,101,-4191,1362,11287
-21,-87,65,-10489,-4812,-3782
98,-68,3,6601,649,-9040
81,4,2,3710,813,-10563
-99,40,2,-843,3099,-14033
97,-91,62,2267,2495,-12445
60,-79,114,282,1916,-8372
-82,-83,-17,3892,1508,6403
-29,117,95,-2944,-4984,12287
83,39,-61,-7094,-5363,9128
41,-7,-111,-1231,-2528,4472
-69,115,-25,4173,1917,213
-108,-106,-103,140,-951,-682
-15,106,-77,221,512,200
17,106,-105,204,-203,197
113,64,87,420,-89,24
-48,-45,19,1253,-11,220
-12,-74,21,1320,-230,809
120,127,-4,-287,-1411,2233
-80,11,-15,-1458,-921,3388
52,114,-13,-529,127,3263
-123,-74,-12,-1746,-475,3110
25,3,104,-2444,-2762,3594
126,-86,-78,-882,-2106,3654
-100,-81,38,1192,-1978,3762
-48,-115,-51,2030,-885,3257
-86,93,-40,2323,-1138,3117
-79,-128,-125,876,439,2209
115,-81,86,-985,203,773
50,50,65,319,-60,-595
44,-52,57,1904,293,-384
54,-98,16,1896,443,-419
71,126,-2,1594,347,-543
99,91,0,1043,113,-723
58,-37,-15,1173,-2042,-6669
-97,-59,-15,420,-185,-8176
-46,123,-14,-2874,-713,-9135
125,49,118,-2861,726,-7450
101,34,-124,3610,2154,-1538
-125,78,-82,283,-1573,9253
-34,13,73,2933,3163,13734
-111,-22,1,-101,2787,12384
70,66,-110,-9044,-2056,2671
101,53,49,6752,-503,-8367
15,-110,86,1118,-544,-10021
20,-124,22,-4052,180,-10714
-37,-77,83,925,-122,-8675
-69,-42,-50,-2176,-297,3600
-95,26,-110,3215,112,14781
105,-59,-95,-2171,499,13866
-104,30,-50,-6865,-3120,8157
32,90,59,-6903,-3777,-984
110,-72,30,7126,4060,-9248
-69,-11,34,1835,1557,-9559
17,100,-9,3543,2017,-10834
-101,-88,-95,-2375,1453,-15490
102,125,23,-117,2864,-10487
-30,-40,9,2521,1877,8393
-87,-28,112,-3695,-3094,9797
-6,52,-15,-400,-4951,10667
57,99,31,-1965,2,5644
-70,-44,-6,-2191,-1509,1699
-76,-65,-14,2437,1450,-1388
41,11,127,765,-484,656
122,-106,120,-873,764,-452
-89,50,-101,1358,500,-62
-6,2,52,1033,296,67
78,-105,30,2025,-69,789
8,5,69,2073,-1176,1532
42,124,-5,-1006,322,2277
85,-97,1,-541,677,3184
107,28,36,-246,-226,3602
127,84,49,267,-98,3342
-24,-50,34,-2756,484,3328
-93,82,119,132,-973,3745
-32,74,76,-889,123,3182
-78,80,86,-2187,-629,2609
-91,20,78,-854,-563,2505
-116,22,108,670,-500,1798
109,16,73,1030,-62,1015
86,25,52,345,112,278
73,-6,45,252,56,-124
68,-72,38,943,179,-373
95,-107,19,737,343,-715
-63,122,111,10252,2541,-7256
71,82,51,3132,-4185,-9267
-55,97,-48,1173,-3051,-11027
-127,-42,22,-1912,-3776,-10207
62,9,39,1095,-571,-3554
-103,-30,-5,581,-2328,19223
-66,102,-6,-2085,6270,14996
-94,-11,-19,-1349,1600,9453
-79,-49,53,-1241,-3315,-3507
83,-34,123,3828,-187,-9841
-15,-118,83,1508,-2508,-10848
63,-111,-67,772,-1499,-10735
118,0,-117,-2890,-308,-4807
-125,-22,-59,1632,501,15264
-30,-59,-75,-2271,3202,12940
-15,12,-44,-2732,318,10254
-32,-27,-73,-9613,-5511,4033
49,-2,63,6439,-594,-8227
99,14,14,3033,258,-8181
123,-97,15,903,1402,-10631
-96,-26,-113,557,314,-12927
-64,-61,76,-1296,545,-11826
-104,-19,-70,1235,1290,288
64,81,-120,857,-846,9296
114,4,-102,-1981,-2156,11049
124,82,45,-2397,-564,6375
-120,-17,86,-2109,-575,2925
-47,30,-96,810,-78,-1255
1,-79,127,1083,-804,-437
29,67,-109,-3,357,296
47,90,124,401,-490,262
-115,34,70,214,288,91
-12,6,-19,97,-725,-602
30,-126,27,1881,-593,600
-51,94,8,124,-1456,2452
-61,94,48,-254,-38,2860
38,74,54,-365,38,4226
99,-75,83,47,-767,3339
-84,-15,66,315,60,3151
127,-18,105,-176,-744,2854
-106,109,114,1177,697,2619
-101,70,107,358,98,2520
-114,63,102,-799,-406,2302
-118,-34,81,539,54,2339
-121,-16,70,783,49,2113
124,-5,56,315,-205,1629
70,10,33,-136,-352,647
53,-39,44,262,-239,-174
62,-88,48,664,84,-444
70,-124,43,770,125,-619
118,-122,-55,3201,-3502,-5536
70,-7,92,1252,7,-9585
-126,-125,-41,1856,-3378,-9702
-124,-58,90,-1094,-2391,-9994
72,-94,113,-2564,-3064,-7673
-84,68,52,1919,-155,713
9,-35,126,2977,3451,15884
4,36,23,-3442,5471,14369
-67,69,19,4900,2430,11901
13,-10,54,-1897,-3945,-1396
-94,51,2,6114,846,-10949
75,81,86,-18,-2806,-12258
-53,38,12,-1461,-418,-12404
-21,31,56,-3877,55,-10167
-7,69,-33,3733,-513,9615
26,25,-117,-1465,1582,18385
45,-71,-127,-2760,-2263,13776
13,-13,45,-5430,-3172,8732
93,-59,54,-1980,-597,-6827
61,-1,24,2507,1279,-10126
-14,-57,36,-303,628,-10603
54,-122,90,-481,3035,-12217
-16,-14,-123,-1429,1930,-12650
-36,-6,-53,-661,1056,-7354
-116,-94,3,2451,3932,-475
0,103,48,1100,2109,10694
-30,-46,-36,-2755,-4083,14824
-30,75,124,-4437,837,7338
30,-17,-29,-1436,64,2644
26,-42,68,1891,150,-3293
-32,-114,111,1253,-351,-267
65,-42,105,-348,-208,537
125,-23,45,567,-1357,407
-65,-38,22,293,-1179,459
-33,-83,37,-340,-1247,748
-68,-77,-33,-2225,-121,335
-93,-93,-7,-2422,-994,1685
107,87,126,1384,-1627,2562
-82,-40,91,286,-854,2889
-97,5,103,-692,-1399,2865
-43,-78,-88,46,-838,3331
1,-77,-80,-212,-1101,3047
41,98,-99,491,-358,3533
-92,-90,83,-605,-514,3924
-127,84,-78,735,-1958,3050
-92,52,101,1857,-652,2706
98,93,96,959,-768,1667
62,93,74,126,-249,550
38,29,50,438,225,-288
43,-25,41,866,121,-438
90,-1,-86,1328,-529,-8060
64,-36,49,6021,-1211,-9543
81,22,-23,-1352,-1349,-10613
127,100,126,-2357,247,-9658
14,-65,-115,1895,-2217,-4449
-98,8,-46,781,392,9765
17,-33,16,-2539,2037,13340
-39,12,-69,-613,-383,13830
29,-75,-68,-8275,-3669,5883
98,-105,29,8162,481,-6237
-116,-59,-45,3371,261,-9775
125,-99,-61,-2862,-428,-10752
62,67,-87,-771,-436,-9985
69,15,-64,-457,2444,-3796
-121,7,116,1296,-726,13584
-85,10,94,-1012,2471,14305
-102,19,-24,-2500,-1800,13270
-127,-65,58,-12465,-6952,-185
43,-39,34,9145,3909,-11130
-102,-85,-117,910,277,-11482
20,10,-88,-975,2457,-12928
-51,126,21,-4361,2267,-14142
42,-43,-88,1697,1876,-3197
73,-105,-11,1944,-373,9039
-118,-40,58,124,-3598,14555
74,-86,120,-5154,-208,6201
73,-72,11,-2955,-122,2745
20,117,-24,3452,775,-2876
14,-125,-115,668,-1086,-86
-125,76,127,-836,801,-125
-75,41,71,1142,201,69
16,-5,-6,1175,-318,-366
37,-120,11,1623,-1032,86
53,-103,-10,704,-340,1219
-12,39,-16,-993,-1353,2279
-127,46,-3,-1059,-1455,2886
40,122,1,0,794,2999
3,-78,60,-697,675,2748
94,-36,-115,-822,-950,3253
109,-97,-113,-232,-903,3793
-95,-115,-117,-202,674,3220
-96,62,-119,223,-128,3940
-36,74,-122,-90,-1061,4310
-62,106,103,-576,-839,2204
-106,97,52,-747,-250,-381
92,-28,57,348,-185,-895
52,-79,63,1042,-351,-132
46,-76,42,537,81,-75
74,-91,20,194,290,-348
91,-108,17,193,15,-500
114,-66,60,6023,23,-3102
81,87,39,3489,-2069,-5973
127,96,-6,3252,-2694,-7939
-113,29,66,2593,-5434,-9119
30,-90,20,-4033,-5332,-10472
-126,105,-75,-1161,-3751,-6426
112,-82,113,-372,1161,5435
11,-52,-30,-191,4352,15513
40,-35,-87,-1467,1466,15302
101,42,-61,-3713,640,11072
1,45,-43,-68,-2662,1332
-37,68,-55,6344,-124,-9669
13,-128,-3,761,-1210,-9389
8,-117,-108,-1499,-421,-10502
0,54,-39,-4672,457,-9985
-101,58,0,4588,1928,-3105
-127,107,-46,-1398,1636,16196
32,6,-85,-5769,-1063,15997
27,113,92,-7653,-1235,10310
-116,-92,-49,2995,-2222,-6385
-59,54,64,4191,2305,-11318
-40,-92,58,-4030,2087,-12652
-34,60,-112,2166,3178,-12885
-48,85,48,-2250,-1702,-9318
94,96,-123,4491,-758,8859
36,112,-70,-2815,-1259,10094
42,65,-46,-2070,308,7728
-116,-83,108,-1478,-2240,5000
-108,-21,-109,-320,1708,-2414
22,-74,-95,2542,-645,-1101
-115,98,-114,-85,911,128
-97,-122,118,-383,-468,116
-45,51,39,614,-853,-49
24,24,57,564,-216,390
-31,-64,12,778,-257,1161
-54,-36,38,-44,-1045,2387
43,27,-6,-160,237,2868
24,96,32,-75,-512,3501
122,127,3,1786,779,3318
-86,-46,93,565,-272,3532
-67,-46,12,-872,643,2503
-109,49,89,52,-683,3433
-88,16,70,-1265,-129,2934
-100,38,67,-1819,-501,2592
-115,1,58,-758,-574,2014
118,-4,75,292,-747,1057
90,-13,67,643,-257,327
65,-10,59,270,-1,103
53,-40,53,213,21,-162
69,-63,44,383,194,-408
-91,17,84,1997,-1247,-4795
127,-24,4,5950,-42,-10833
-33,89,25,855,-2613,-11283
100,118,-2,-1942,-521,-11361
12,-61,-1,-857,-2889,-7601
-107,-92,61,-2731,549,10522
37,-26,59,1433,643,17768
-65,-27,38,-1212,634,12798
-16,29,36,-9785,-3811,2751
91,-126,39,8042,1922,-8590
26,-84,-11,2297,215,-11150
92,78,71,-6396,3374,-12630
89,-44,-33,739,798,-9061
-15,33,102,3044,-2502,8530
-3,-87,13,1142,449,17257
-76,95,-2,-4074,-2515,12692
65,-60,-30,-4145,-1550,8479
-48,54,60,5821,1880,-11029
39,-51,8,2512,1832,-9677
-54,-105,99,-3457,1761,-11954
-14,55,16,2339,1606,-12397
72,56,41,-1984,1884,-11266
-108,111,-99,1405,587,1182
-9,-16,-69,688,-5661,9696
16,26,-5,832,-2591,7116
48,79,121,-501,-2059,7139
41,-54,-2,-455,1427,-1882
69,-58,-93,3362,-893,-678
54,47,111,7,-126,-337
-92,-40,63,34,319,511
-87,-42,44,1005,-930,1241
-56,-72,29,246,-426,1075
-16,-45,0,-530,-247,1725
-33,24,40,519,-1080,2763
35,120,39,1668,-1242,1781
69,126,1,1816,945,2336
-112,-36,60,-1205,-351,3757
-46,120,113,721,-159,3211
-42,-121,113,-514,124,3520
32,87,87,248,1138,2835
91,18,123,2663,237,3947
104,-120,96,-395,146,2781
86,105,-19,-2348,594,1826
56,-36,15,-773,5,1335
31,-121,36,1068,-326,-50
55,-126,34,1764,196,-64
55,-127,22,1238,232,-139
68,110,34,505,-110,-592
80,64,43,507,-222,-622
99,33,43,519,-13,-656
-110,11,-18,3669,703,-6770
-55,99,35,5259,-3887,-8242
-83,15,-91,1775,-5747,-9360
-3,47,4,-4294,-4283,-9989
2,98,-61,-2722,-2598,-7305
73,-85,-80,-1713,1845,4931
-56,25,-47,918,2986,15261
73,-120,-54,-1296,2611,13634
-110,-46,-4,-2678,2733,10045
82,112,-69,-2191,-2105,-3297
-85,-37,71,5530,-482,-8665
94,121,-20,-1160,-1976,-9978
-78,-11,9,-118,-928,-10200
-54,52,-55,-595,-1476,-7097
-47,49,105,699,-554,8057
-30,-4,-19,6326,7341,15914
-64,117,80,-776,775,15657
37,-97,61,-16208,-2350,7509
-84,120,-106,11211,568,-7109
21,-44,26,-1033,-891,-10126
-114,-111,-45,-1702,1971,-12071
12,95,1,1574,959,-12456
-45,-61,119,997,-270,-11667
-48,30,-43,1433,2149,-7141
14,87,-74,1537,2947,8965
-112,-81,31,-1064,-3095,12688
71,1,10,-6302,-3000,10101
84,-35,42,-4399,305,2614
55,-106,64,4771,-873,-1694
24,80,-128,830,-439,-561
93,48,113,-861,1133,267
114,63,58,-66,228,-67
-15,-3,-27,309,555,-536
28,-47,-27,873,-1324,232
62,-45,-71,499,249,358
-32,33,-7,314,-422,1617
95,-60,-84,1195,-12,2105
-113,32,-42,-107,564,3582
-97,82,-40,-1254,71,2979
19,111,29,-888,-158,3956
110,100,57,636,808,3571
-85,-79,44,-715,955,3909
-66,41,50,860,186,3320
-66,22,94,-7,-439,3293
-85,23,27,-1037,248,2131
116,35,24,-1200,-194,1237
72,-2,31,-603,-494,-176
69,-75,31,1118,179,-287
68,-87,18,845,318,-411
82,-110,1,296,154,-666
-109,-31,-52,5451,762,-7118
-8,127,88,4871,-2884,-8805
65,18,-49,268,-1517,-11255
-27,28,59,-537,16,-10762
1,-58,-40,438,-2041,-6170
122,16,81,986,-2050,12343
-35,-73,95,-810,2673,17102
10,54,-110,-1422,807,11817
29,-82,-60,-8579,-3329,2190
95,101,5,10360,1772,-10257
19,123,108,2704,-1538,-11887
66,-109,117,-3769,1900,-12703
65,-37,98,3645,-309,-6607
-21,-34,-11,-1028,-862,13743
108,30,-92,-4610,1310,16028
-10,-105,52,-1451,-2152,13031
-70,74,10,-1275,-2511,3247
-91,-103,7,3452,309,-7851
-84,-68,-117,3001,1292,-11729
111,-82,-91,-308,724,-14077
23,35,-128,2599,1933,-14661
121,-24,-96,4158,2335,-13567
84,95,-120,4335,2117,6456
21,56,-77,-2508,-33,10125
105,65,23,-4328,-2543,13995
-80,19,67,-3612,-3247,8284
-35,-2,30,608,1225,6475
82,-89,107,2003,643,-2332
66,-35,-17,303,-427,-2054
51,-6,15,1023,62,-661
-107,-4,23,200,-315,-374
-38,-4,-5,-1186,-834,-455
8,115,-25,375,-534,-296
-66,-97,-32,-805,-727,852
113,-124,-67,-1610,238,2202
95,-121,58,-3073,-2166,3684
0,-113,36,-630,514,3780
-44,46,-97,-403,-2067,4077
-128,37,-112,-103,-986,3283
-117,42,-27,496,-1481,3194
-71,-81,122,1377,66,2977
-109,79,102,2281,-427,3027
-123,19,69,2223,-492,2587
-115,-70,34,2557,177,1802
126,-40,19,658,228,589
95,-44,19,-850,-88,-349
76,122,38,-145,-153,-460
81,77,33,916,124,-330
94,83,35,458,-69,-420
113,66,25,141,-14,-537
-57,92,63,2809,-1877,-5485
3,-45,71,3042,-485,-8213
39,98,1,2442,-2230,-9215
45,102,98,-1087,-1286,-9734
-125,-61,-60,-2744,-2110,-8652
-48,-102,0,-1118,1849,9822
-121,-74,101,-542,188,18108
-8,33,25,-5877,-1639,12480
-61,-24,45,-4663,697,2736
-78,-122,43,9929,-543,-6472
108,-120,87,2267,-882,-11092
-88,64,-89,-2925,-649,-12354
21,103,119,1711,-1173,-8355
92,-91,-111,-2671,1551,5742
11,-58,42,266,-1903,17469
59,-95,84,-4087,-2578,14491
117,122,125,-3572,1427,5022
68,11,24,2874,-446,-4950
111,-2,-84,3640,1054,-11074
56,-121,37,370,231,-12972
-87,-31,79,3185,122,-13195
-112,-18,103,1886,-702,-12820
-33,45,-107,2937,891,-3438
-93,65,-7,3464,3459,8099
-88,24,-32,-4420,-1345,10518
5,-71,22,-4170,-2363,10578
33,16,122,-2014,-205,6776
-28,-115,-34,976,80,-97
-126,-80,104,1226,2167,-1126
61,-91,21,1776,-1008,-651
91,23,-22,252,-657,-131
-101,-8,-19,-276,292,-154
-50,-115,7,634,-780,-411
-53,-116,1,513,-1509,665
-119,-80,3,-1071,-2327,1447
67,13,38,-1544,-2457,3149
-92,64,-78,185,426,2350
88,-103,70,406,-1013,3745
-56,15,-8,-1647,145,2841
-65,-22,-93,168,-2373,4085
42,75,-122,1873,-770,3805
-108,-81,45,319,234,2187
111,78,83,544,-56,2411
-123,-17,44,1402,820,2532
-91,-45,14,1961,1023,2432
-106,-5,23,1109,19,1777
106,3,34,143,-747,388
73,-60,47,387,-506,-494
57,-122,52,1000,-25,-490
59,116,51,618,98,-538
93,-48,-13,4381,177,-8963
-119,117,-123,1370,-1147,-9502
-84,52,-12,-2284,102,-9506
-63,64,126,739,661,-6161
30,31,86,2005,853,2748
86,12,-34,-3826,134,13026
40,113,93,-4063,90,14836
42,-83,-69,-1790,173,11963
-21,-46,19,-2417,-3387,-2796
105,64,7,6970,1597,-7635
33,-123,92,1505,-861,-11356
32,-38,25,-419,1827,-11593
-39,23,-97,1644,86,-8669
85,-94,29,-1632,982,4229
-124,20,9,-1025,-2000,15894
116,112,-83,-3470,-264,12866
-99,-14,-124,-5263,-243,8069
-84,79,18,-1388,-4292,-3284
115,84,18,7419,3291,-7888
62,-91,35,1321,717,-10816
-2,109,-24,673,2735,-12421
111,20,66,896,1029,-12893
-46,35,100,2758,1748,-9217
48,-66,120,1926,2051,-38
30,-88,-123,746,719,11260
-117,-94,48,-3064,-2684,14567
-110,-81,-97,-7389,-413,8920
-57,18,-82,-798,-1851,3407
-28,85,-92,3627,2088,-1566
104,-123,1,783,-1058,-1161
-99,48,8,91,419,-313
-91,-18,1,312,-129,251
-52,6,11,-437,-1220,648
9,-91,-27,-226,-88,640
-31,-75,-8,-101,-662,1578
48,-58,-124,-1141,465,1120
-72,-121,99,-2647,-3968,2212
14,89,-2,137,-535,3034
30,-8,-101,-285,-1184,3466
-121,-90,53,-541,-6,2678
70,-70,4,-1035,-2461,3172
-22,103,-97,532,1032,3243
-77,123,-88,878,-1132,3568
-123,-71,-116,-1719,-2202,2282
98,-94,95,-2184,-1546,1183
63,93,114,15,-369,641
51,53,108,1888,499,311
47,33,44,2099,762,-192
63,0,6,1497,660,-472
112,-42,-13,891,643,-787
59,-47,-67,6064,-2235,-8181
51,97,52,4340,-1569,-10693
-11,-10,121,-2235,-2552,-12054
82,-73,105,-2839,-2164,-10173
2,-24,100,-106,-1534,-5837
-95,24,38,-985,1250,2319
120,33,87,-1243,3004,16505
-97,27,16,-4395,464,15612
-115,6,97,-3187,-1484,9901
0,-100,24,3608,-1675,-3596
127,-15,50,2715,1379,-8800
7,-90,65,-1531,587,-12099
-17,-85,33,518,1373,-10141
-70,-89,18,4924,-511,-5098
6,123,102,2927,4299,12906
-103,23,-109,-7239,4681,15334
-35,59,124,-962,2075,12334
-21,-84,-94,-2037,-3863,-12
-90,11,39,3639,-862,-9432
-33,-118,20,-691,574,-11991
61,-49,-36,-1929,2035,-13860
-95,33,99,602,-258,-13596
-29,56,-78,2901,1310,-10000
-103,124,75,5098,4518,5694
63,-123,32,-4019,413,10805
-124,33,-43,-584,-898,12282
-8,-111,-111,-5790,-2657,6922
-18,-30,122,708,1080,774
-90,-37,94,2282,394,-430
70,83,-12,345,-419,-1100
88,17,26,684,673,-187
-124,37,8,12,-413,133
-80,-17,-5,-406,-852,513
-41,-102,-6,-236,-401,933
-42,-112,-45,-737,112,1040
-16,-28,-40,-719,-41,2445
24,-16,-54,615,497,2780
14,90,69,156,-1055,4384
70,87,-57,-488,506,3064
115,-107,82,-1070,-270,3574
91,93,94,-1431,-1025,3267
-34,22,73,-778,307,3514
9,-24,84,273,-462,3474
-1,-4,116,100,-504,2925
-36,45,71,-297,-255,1925
-103,38,70,65,-392,590
117,8,68,387,-146,174
74,-49,56,1099,163,50
75,-68,22,1250,456,-4
101,-78,0,634,433,-455
51,-43,-80,4696,-1654,-4382
-15,-16,17,1151,-299,-10310
89,104,-69,869,-2666,-12265
10,76,82,-1665,-805,-12295
-122,-3,61,-592,605,-8599
51,-45,-119,2348,-2264,6485
-42,-56,4,-987,1399,17170
-9,-125,47,2418,115,16268
51,-127,42,-10725,-2998,5662
28,60,60,7619,477,-4864
-37,-9,-30,3172,204,-9968
-9,-91,86,-2010,1416,-12359
-78,111,122,1186,961,-9980
-5,-64,37,-578,3419,-708
-112,-84,90,-573,-4454,17563
30,-34,-86,-4482,-84,14684
-74,-39,-127,-3460,-560,6635
-63,-121,75,7686,-1634,-10710
-48,-13,31,1853,1077,-12786
32,80,-128,-2211,2011,-15272
37,-99,89,4162,1987,-11546
-21,-29,-100,-368,284,-7440
-105,42,-77,3110,1441,7474
-81,38,-70,-2277,-3576,12485
-110,83,13,-2180,-1504,9886
5,84,-55,-2740,1067,7544
124,117,-82,2441,732,2072
119,-121,-6,549,299,-2484
30,-126,24,359,755,-476
90,47,22,326,-452,-111
-93,14,-14,158,-242,64
-60,-37,-22,246,-378,690
-69,-71,-21,-215,-738,1651
-28,-77,-39,-532,691,1101
33,72,19,-319,953,2411
39,-100,3,-631,235,2596
22,-82,24,-903,-1008,2900
96,-84,33,-388,-681,2895
98,-116,115,239,-927,2773
-92,109,66,-349,338,2794
122,97,111,-773,-426,2982
-86,33,59,-230,-115,3283
-87,19,80,183,-926,3099
-82,27,47,-2,-261,2026
-102,68,29,-669,-60,986
106,35,43,462,-141,98
83,-23,36,1294,47,-241
98,-52,9,621,373,-767
110,-107,6,821,198,-744
-127,115,0,682,97,-855
-88,126,-39,3982,-4926,-2246
-114,-22,-11,2296,1203,-11236
41,90,61,2261,-3670,-11080
31,-121,-79,-2818,-3097,-11944
22,-94,26,-2906,-4017,-8821
4,-111,-43,3529,-1396,2334
74,-64,85,-482,2240,15232
116,96,62,330,1735,15097
18,80,45,1495,2772,12290
24,16,-64,-2011,-3190,519
-128,70,81,4788,1502,-9449
-80,127,0,1272,-81,-11576
-16,-40,115,576,-586,-11842
-5,-9,106,-5953,-1743,-10688
-33,-124,59,1141,1391,7903
-8,-33,57,845,272,15973
34,95,-80,1613,1036,14472
-95,-84,96,-11282,-2417,5748
4,-15,71,7733,-236,-7238
126,-76,-79,2374,2598,-12191
53,120,17,-2776,949,-14890
30,58,-119,2734,454,-13878
5,-78,-96,786,1240,-11683
-15,-107,111,4276,2576,1309
-88,127,112,1503,236,10598
-46,18,41,-3134,-1907,12077
-43,26,-51,-4671,2037,7764
45,40,-60,-246,-2426,3184
-51,-16,39,-204,1796,-994
-9,-61,69,942,-1494,-733
24,118,40,-370,416,-319
45,26,89,638,-8,278
111,36,37,252,-342,100
-53,-1,-7,620,6,-318
-55,-42,-33,-578,-898,122
-84,-72,6,531,-1121,412
-96,-16,8,913,-1449,1928
-128,-19,-5,573,-141,2229
89,7,-19,216,-85,3385
-69,50,0,312,371,4008
-47,-62,1,-2248,304,3905
16,-74,70,-1889,-1017,4161
115,47,114,1010,-412,4074
-73,117,-114,-136,-451,4220
-33,56,102,-253,126,3646
-15,23,119,261,-542,3352
-74,66,122,-7,-789,1993
127,78,79,-79,-202,407
56,-14,66,783,150,-489
48,-107,56,2077,212,-90
-26,17,117,-1136,1670,-5676
21,4,120,7708,-2733,-7476
-123,85,49,3777,-3300,-9966
-118,83,26,-1121,-3431,-11432
88,-105,19,-2714,-3574,-8861
-13,52,98,-407,-6,633
124,-54,-79,2921,2577,16832
-6,100,-32,-2407,4546,15695
70,58,121,-1433,3689,10914
50,103,121,2328,-4163,-5945
71,51,70,4274,998,-9463
23,-126,-53,-2718,-1157,-10790
61,-97,123,4299,-1336,-8001
-96,109,24,-10151,1328,-7288
3,-119,-63,6298,-1418,16062
26,-10,-1,-2539,3061,13451
-5,-109,-112,-477,-711,12216
39,-114,-36,-8047,-3737,-1148
-84,-28,63,6247,2773,-8525
-99,-26,24,-2123,2901,-12182
27,113,13,-4547,6594,-13173
11,-64,-97,-702,7583,-13127
95,-42,-24,1540,3016,-7861
-13,82,-124,5669,3572,3856
-84,-31,5,1500,-2120,10927
104,4,34,-1878,-5139,13978
-112,1,114,-5880,-847,4296
-4,22,-84,-999,-29,1344
3,91,-24,3037,-71,-650
-12,-90,98,-198,130,244
20,120,102,249,-115,476
52,-78,110,572,-137,-6
79,-81,112,388,29,-219
64,76,120,458,-39,167
80,108,94,346,85,1
100,62,87,1043,-82,100
-85,16,43,618,136,11
30,-51,46,788,430,136
35,68,53,1518,-780,780
87,54,8,440,280,1283
47,-75,23,-1183,-166,2867
50,-34,27,472,-264,3863
43,-126,33,-997,-820,3942
9,114,30,-600,-300,3807
102,-113,-120,-1140,-284,3946
-108,39,125,-109,147,4788
-72,78,-97,-983,-385,3930
-37,19,-123,-376,-115,3737
-34,86,124,-655,-315,3235
-107,-110,86,-1296,-427,1346
41,11,18,3202,2295,-9047
89,-93,-55,891,-372,-9584
-115,126,-38,-89,-142,-10452
-33,64,125,-847,1333,-8015
-114,-74,-22,-206,-1337,8858
44,-24,106,-356,-560,17223
21,-48,-125,-1484,-548,14710
11,-55,13,-14826,-5247,5708
-7,80,9,10457,2662,-5614
37,-3,15,5713,787,-9444
51,-116,83,-1052,395,-11200
9,11,13,2926,-1067,-10051
-107,72,70,614,-355,-4868
-95,115,54,503,-538,14024
-10,-71,15,-2303,3444,14334
-20,-86,106,-765,1346,12759
54,94,39,-8991,-1324,2145
21,-80,18,6342,-151,-7306
100,-41,-35,4358,1176,-8561
-15,-116,-6,584,1432,-10937
-96,-29,-108,304,67,-12779
-6,-61,-85,1548,1328,-12858
-53,-26,-62,2247,5320,-9586
12,-45,-37,4826,7922,3080
22,-88,108,-4108,-4853,11909
-116,-30,94,-2974,-2591,10614
-124,71,-28,-5505,-3271,8813
11,49,117,-2291,1646,546
-20,83,127,3611,-577,-2344
38,80,34,379,-178,-27
28,-15,46,-408,-246,568
89,46,61,608,-194,-113
-109,8,46,-226,230,-264
17,-17,52,892,-1063,-104
88,-92,66,1129,-492,-102
4,-124,67,747,-640,1160
-85,-59,-11,-1190,-784,2273
110,-31,-4,-548,-279,3317
-53,110,24,19,-603,3922
10,-112,28,906,243,3840
-1,-28,57,-1456,14,3064
57,-73,69,-1043,-102,3785
60,58,90,1315,-637,3895
100,49,89,1131,-396,4105
-103,11,38,-35,255,3308
112,33,-121,-1092,-1214,2340
-122,-45,82,606,594,1649
119,12,43,318,820,526
78,5,42,-729,-76,-1022
68,-74,46,-150,-28,-1061
113,-50,-94,3835,-1270,-7109
-42,109,22,1846,-698,-8362
-70,-123,-98,1200,-1323,-9347
124,-19,-109,-432,-2098,-8375
67,-67,-104,-2929,-2411,-5218
96,-50,56,934,1939,6819
121,-29,10,-2097,2217,16715
98,97,-62,-2282,-2557,15081
22,117,5,-9501,-876,5206
-38,-91,19,6984,21,-3794
-4,-58,17,3436,1207,-8309
-42,109,-14,-287,-1326,-10018
42,-85,37,-373,-367,-10393
123,50,10,-3377,-281,-8363
5,-52,90,4715,1995,3302
-9,-39,-31,-2401,488,16727
94,40,-68,-5206,-1485,14683
19,123,30,-7697,-3015,5403
40,15,15,5830,-623,-6970
-38,3,29,2286,1685,-10604
-23,-63,115,-637,1340,-11654
54,-118,114,2995,2785,-12119
-81,6,9,1020,880,-10756
-18,-58,74,1468,1144,-5211
-26,-84,110,1678,980,7084
46,97,-22,-5266,-2627,10698
-70,-100,88,-1523,-3288,12089
-6,92,-13,95,-617,4398
29,123,87,354,776,-1757
-13,-22,43,997,-977,-914
32,53,115,-362,415,880
43,-99,104,65,-25,-229
99,-119,104,205,149,-159
122,95,80,139,-115,-341
-74,58,54,522,23,-434
-66,38,40,421,-604,-288
9,-28,42,974,44,-469
-8,-32,32,874,-81,668
-36,-21,-11,-190,-196,1176
-84,-57,12,96,-459,2692
-111,-21,-26,-404,394,3005
2,52,49,-273,-157,4055
-12,-108,66,-1107,76,3347
98,101,117,1309,362,4534
117,84,-101,441,378,4034
-45,-88,39,-1407,888,3826
-105,-36,-125,1564,-768,3743
-88,-53,-120,661,13,2979
-108,-27,76,-1576,536,1974
99,-4,85,-1931,-557,1404
-6,90,-101,5511,753,-7603
39,-94,-92,5960,-1218,-9191
-88,15,-59,-1244,-1332,-12326
-50,64,-111,-1118,-623,-10348
-14,45,111,1683,-820,-5924
106,-50,14,-1594,-464,10790
-72,-43,-124,-423,2162,16656
-22,11,-5,-105,2497,14326
18,-14,-64,-11523,-3307,3347
51,-109,57,9309,478,-5473
-1,-107,-73,2861,-170,-9710
-119,117,-69,-2741,367,-12179
-70,-126,36,197,407,-10294
-48,-45,35,-756,2035,-3222
-113,32,102,183,-2404,15569
51,-49,-48,-2320,1820,14398
-54,-56,10,-196,-2236,13186
55,-22,29,-7082,-2646,2850
-31,-97,19,3439,236,-8343
-40,-14,-6,1269,1472,-9462
-55,-43,83,-1082,1782,-11026
-7,-115,-93,-2382,1633,-13382
-45,-97,113,-434,4041,-11385
67,-72,8,3089,1332,-6304
-6,-66,-108,1874,1815,4776
0,-89,75,118,-2974,11717
103,18,61,1491,-3496,13524
-116,74,64,1973,216,5702
-1,82,-128,-641,1468,-1260
-54,115,-35,717,-239,-1390
-39,39,87,52,195,-286
16,82,55,-157,-217,193
61,38,47,280,340,-292
97,28,34,-509,-509,-227
-90,-30,45,-185,-10,-365
-28,-76,26,169,-236,-222
25,91,-14,1599,80,-131
-53,95,-9,1003,-1195,946
126,-75,25,-655,-1738,2753
-107,0,40,-1201,-1060,3479
-70,6,41,581,-310,4078
53,106,78,-305,84,4047
21,-71,116,-798,-753,4719
-114,-120,96,-820,-558,4030
-105,45,-44,1247,-1420,4407
-1,-60,126,3001,829,3819
31,-29,64,2277,1427,3518
-86,108,90,-521,1,2395
71,51,51,-732,-683,-228
51,-48,81,595,-400,-664
-59,122,-17,2908,24,-6001
57,-51,-110,1992,144,-8802
-81,-36,-105,-307,10,-10278
-68,-67,73,-2755,-951,-8770
118,85,22,2737,542,162
117,52,-68,-1454,-927,13714
113,98,-6,-3072,1799,14780
-44,-111,-97,1371,-620,13560
47,-105,-5,-1640,-3095,-2358
-116,-6,53,4722,1337,-8924
102,-114,0,824,-508,-10921
-25,-96,124,-2147,383,-10894
6,-12,17,1263,1616,-5946
-99,-87,-52,-523,-2639,10588
35,-39,107,-637,986,14930
-116,-24,70,-3418,-1503,10212
105,118,28,-3887,-4579,752
78,-70,16,3445,1228,-6501
100,7,-13,1801,2133,-10032
40,-21,35,-511,1897,-12150
-122,-5,26,1019,2505,-12436
-17,91,-114,-907,2587,-10726
-31,-82,37,4809,2750,-1610
13,-78,-67,4230,2818,6648
-127,-82,39,-1901,3797,11777
98,85,120,-3789,-1050,8998
116,27,43,-6198,-3638,8942
45,17,-63,-1506,941,-849
22,-97,117,2770,-1214,-285
48,122,59,-9,997,-797
61,55,44,-1423,1581,-7
99,49,62,555,802,-101
-72,22,29,170,342,-200
26,-66,59,2663,-148,214
-62,124,60,2204,-692,583
-30,-77,46,-517,83,361
-23,117,-8,-520,731,1096
-27,125,-5,-396,624,2224
103,-35,-3,-1468,545,3204
43,20,-15,-1183,517,3573
113,102,16,-1761,214,3672
-23,-103,11,-978,999,3721
-103,126,87,-142,-567,3792
-56,102,50,-1610,-433,3152
-85,-10,114,63,-740,2806
-107,-40,-120,229,-623,2822
-104,-56,101,211,513,2452
-119,6,96,-883,110,1702
117,50,70,-1790,-180,271
94,-48,49,181,278,-724
