AccX,AccY,AccZ,GyroX,GyroY,GyroZ
-66,-109,52,3665,948,-5990
73,-41,9,3924,1176,-4761
-21,-116,-103,12883,-1761,-2591
-50,-85,114,16112,-1557,-941
10,23,91,8606,6037,-4986
76,-95,127,5452,8159,-7660
72,-59,100,-468,6247,-5213
-100,-105,-11,-1782,-84,1552
68,106,83,-2107,-1423,-492
-29,-27,80,1668,291,613
-69,105,35,180,742,-359
-105,92,38,-263,-578,533
-65,88,75,650,-314,186
-58,-110,89,488,104,91
-76,-78,88,-176,-361,94
-43,-93,73,-789,-364,-170
-20,-88,119,-2424,-1763,970
-89,-41,-85,-8238,-2061,942
-45,-22,54,-10287,-464,1209
67,99,61,-9446,511,2568
-86,116,-53,-9454,-891,1741
-26,93,11,-4159,-276,2562
84,65,99,-4381,-2325,2338
3,-9,-10,-1514,-1118,2627
-80,-74,26,-496,-3071,2920
-8,103,-18,25,-1435,1308
-45,79,-18,1229,-455,1706
-76,-125,-95,-508,-437,523
-124,90,123,67,-389,-37
123,-25,116,1780,224,-53
-119,-27,75,-295,217,-281
-117,-58,76,-1365,69,-24
-113,-119,33,92,-149,329
-105,-64,21,-167,-410,296
-87,-66,6,30,1,-8
-90,-74,3,245,114,-65
-94,-67,19,165,-72,129
-89,-60,20,125,-31,66
-84,-50,18,-92,-44,2
-81,-47,14,-144,-20,-67
-75,-53,4,-132,11,-32
-74,-53,3,-48,-37,-9
-67,-58,6,111,8,22
-68,-53,9,166,-34,42
-64,-49,4,177,-6,45
-63,-43,0,75,-15,7
-58,-44,1,106,-40,22
-56,-44,5,85,-24,22
-58,-48,7,162,-34,6
-53,-43,3,86,-27,41
-80,33,78,7412,-1625,-92
92,-125,-114,12169,-2869,3032
38,121,15,16103,1449,1633
-116,-86,-109,15169,2852,-759
-69,-94,106,13191,3462,-5737
-28,-62,-123,-6705,2546,281
7,-113,-24,1417,-2895,1687
25,-14,23,-1215,958,-199
-87,64,-55,1656,1037,-877
-115,-60,-112,-859,-306,542
-46,120,-42,520,-489,-13
-45,-76,-18,-1264,-26,-30
-32,-68,-22,-3192,-948,-104
-128,97,36,-7576,-1734,398
-8,-7,-57,-9555,-1778,463
-22,-49,4,-9703,-822,243
-22,-45,7,-9309,-1647,510
84,40,-123,-3036,-863,2541
122,-36,122,-2047,-2914,2823
-2,121,-113,-2391,-1214,2361
120,-16,-11,-558,-2422,2346
-61,-46,-44,-335,-1388,2268
-90,-79,66,-1397,-1593,1138
-87,-100,12,-1507,-1611,712
-105,112,-38,-930,-1137,30
-124,52,-81,1665,-739,502
121,-62,-69,3769,-180,908
-123,-79,-114,909,286,373
-110,-21,63,-717,68,265
-122,-61,57,688,-512,207
-101,-48,46,-244,-117,29
-101,-77,63,11,-12,-83
-105,-73,66,-216,-89,-50
-89,-75,50,-71,-6,-39
-83,-78,31,145,18,-107
-88,-74,33,176,-60,48
-90,-72,40,276,-100,102
-81,-68,39,310,-89,118
-77,-72,38,372,-131,120
-79,-79,29,272,-98,30
-76,-86,31,358,-71,67
-73,-89,29,412,-70,66
-69,-81,25,207,-26,4
-64,-76,23,-18,-4,-57
-63,-77,24,-70,-42,-51
-63,-80,25,-12,-35,3
-56,-77,20,65,38,-11
-54,-69,18,43,-4,-31
-51,-67,16,40,37,-49
-49,-63,16,33,-20,-25
119,25,-91,-2878,2873,-4462
68,0,-9,4663,202,-949
-115,107,-115,11840,-3052,4021
-39,9,40,17458,509,5295
-53,-76,16,12194,5044,-1339
-116,-81,102,15049,4460,-6179
-90,53,4,5107,4329,-2677
119,-88,119,-4209,2369,-661
37,-127,-124,-996,-1665,366
-33,46,-79,1297,570,-9
-100,-100,-34,-167,116,-163
-94,53,-78,790,-421,287
-93,-42,30,-1485,-921,578
-30,-68,98,-826,-639,26
-7,-2,-82,-2815,-1993,882
-94,-10,-106,-7382,-1376,551
-81,57,-22,-9204,-84,502
59,-23,45,-9594,-187,1802
-65,113,19,-6639,-1051,3082
65,-78,121,-5635,-1685,3761
-85,-5,-96,-5786,-1887,2770
-43,-10,33,-1615,-1696,2141
-100,-66,-105,-390,-2023,997
-72,-116,51,-1097,-513,1394
-107,-123,-47,-1282,-705,1937
-115,3,-20,594,-1549,1999
124,23,-70,868,-1093,1735
59,105,-92,4355,-1217,1321
127,-85,93,887,335,-643
105,87,44,909,-273,354
99,50,13,1574,-160,264
121,96,-7,-670,46,-509
125,96,-12,-1269,24,-116
115,88,-4,-1091,-209,-290
118,-115,24,-1428,-271,-88
127,100,116,624,50,57
-115,-128,46,242,305,-31
-114,-114,-18,205,-97,71
-107,-115,-28,75,-17,-43
-109,-85,-19,-490,-177,14
-105,-96,23,179,-32,-40
-97,-78,23,-139,81,-57
-92,-90,-9,8,13,-42
-88,-85,-16,-47,-46,-33
-92,-88,-8,206,-14,31
-84,-66,-3,6,-17,-6
-77,-67,-6,-22,43,-46
-76,-57,-9,-184,-35,-66
-72,-73,-9,115,-14,15
-74,-67,-20,44,-43,30
-100,15,-92,-3151,2385,-3333
-32,-69,-127,-243,3131,-2098
76,16,-49,43,3062,-1607
-116,125,127,-1329,3738,-2692
23,-102,51,-2034,3147,-2361
48,-120,-53,-2839,2346,-2585
17,2,-94,-2029,2620,-3032
-112,21,87,-2156,1501,-2336
-5,-1,-14,-1292,1890,-691
70,-81,121,3685,363,1203
-116,-48,-1,14473,-507,3778
118,-114,-59,16550,2547,4390
-32,-111,-120,18444,1987,744
-100,121,45,10364,4181,-4379
57,-65,-6,-872,2708,-950
9,42,-14,-1907,-2380,1062
-1,100,34,1586,-883,534
-31,-65,-47,-309,1116,-1077
-94,-110,-81,-87,-437,531
-35,-85,-35,-424,-698,153
-46,-45,4,-1847,-692,355
15,-72,4,-2721,-853,83
85,-106,-78,-6109,-243,309
117,57,-83,-7134,-1202,437
119,-9,119,-5672,-587,1136
-123,125,125,-4665,-929,3649
-121,-63,-127,-3366,2024,2528
19,-15,-121,-1343,2505,3550
49,-121,-36,-2317,360,2858
9,66,41,-2570,-2027,2147
77,52,-27,-2217,-855,2361
3,-11,-21,-1947,-538,1787
-41,-47,-22,-1266,-1084,1747
-36,38,-102,-2536,-595,953
-85,4,109,-1578,-552,261
-109,-19,90,-160,-402,98
123,-72,79,2426,-186,566
93,35,90,6568,-397,1101
86,60,21,3400,-631,987
-116,122,66,-2303,213,-226
-99,92,120,-1411,112,418
95,60,-122,-884,509,-1113
-111,40,40,-1311,702,-784
-95,49,-10,352,63,-104
-108,76,-15,716,-185,-177
-93,103,-26,-713,65,-246
-86,80,15,-411,-3,-216
-55,86,45,326,413,-426
-45,118,67,113,196,-591
-49,-121,69,477,10,-619
60,31,-29,-4370,2281,-2064
-36,-49,115,-1038,1043,-1390
102,-34,53,-1106,2336,-2500
98,83,55,189,2162,-2366
17,119,56,-2906,4727,-2807
-112,-19,-45,6115,1496,-585
8,84,-88,14842,-1427,2243
-3,83,30,17519,112,3691
73,54,58,16813,1440,-1681
-72,21,-76,14645,2341,-6188
-18,36,23,862,4552,-3838
-48,-70,-82,-4638,755,2036
114,-124,-61,445,-1885,-187
26,77,-14,1062,1137,-746
-58,-124,-35,194,157,-130
-58,-123,-66,-875,-665,569
-2,-106,-2,502,-1202,611
67,29,47,-2596,-1808,916
-58,46,104,-6351,-1830,1495
-29,-88,115,-8537,-1121,772
-93,-68,-11,-8171,1533,2230
-114,121,42,-11293,1344,3423
-83,-96,-35,-5842,122,4767
-110,-84,37,375,-865,4523
34,2,82,-865,720,2743
20,-38,15,-2113,229,2738
-4,-85,-98,-4424,-449,1105
-38,46,55,-4957,-1156,-757
108,-29,-46,-82,-2685,-431
-115,122,118,2545,328,1007
110,-60,-113,977,-566,319
-126,17,-7,-988,-77,408
-103,-61,71,-464,774,-74
-97,-55,-8,-770,63,37
-84,-85,-8,236,-211,-190
-80,-58,-24,-634,63,-424
-84,-56,0,-1130,-170,-271
-91,-88,47,530,-189,195
-86,-69,62,643,-6,161
-76,-42,21,441,53,100
-76,-44,1,383,-93,73
-70,-42,-9,-11,-3,1
-71,-38,2,-95,-105,0
-70,-41,18,45,-44,-43
-61,-45,22,-72,95,-98
-61,-54,13,40,-15,3
-59,-57,5,237,14,36
-56,-45,0,122,-46,41
-50,-42,6,120,-12,14
-40,-39,9,-4,39,7
-39,34,-54,-2318,3085,-3979
8,-99,-18,-2928,4577,-4271
-87,127,31,-4448,3638,-4374
-121,6,-111,-3328,3103,-3890
-38,48,-16,312,1771,-2960
-113,88,124,1325,2567,-2031
-88,-127,105,-72,2380,-2945
119,40,-123,11854,-2198,3191
-127,115,-14,18231,-2349,5804
-25,87,-109,21059,4505,-1254
-78,87,-32,14377,3311,-5949
-120,41,60,5124,3442,-4276
-15,-85,-116,-6698,2686,-170
42,-38,-58,-844,-1412,529
-3,-70,-94,1444,470,-420
-59,-103,-39,-602,508,56
-78,-99,-53,-1072,-698,314
-20,-39,4,-3020,-1576,1213
79,-6,99,-5804,-1865,1408
12,122,110,-10434,-1743,1165
-51,-97,-89,-10084,-788,1290
49,-4,-87,-11425,-1324,2135
39,-42,-52,-8651,-3107,2945
74,126,-72,-4613,-3575,2096
-85,80,-39,2195,-1882,3503
-92,48,-61,668,-2426,2335
-53,-17,72,-1401,-1222,1998
-79,-103,-34,140,-1318,1589
-93,-88,-60,-747,-1245,116
-119,30,-26,4117,974,551
86,-74,49,1082,798,-109
119,-109,39,1133,525,948
103,119,42,1895,-413,761
-117,-84,3,-769,-123,249
-112,-66,0,-1957,-666,56
-117,-102,17,-814,-662,-104
-120,-117,68,312,37,-103
-111,-114,80,366,606,-88
-121,-82,26,-1,-164,16
-108,-93,-1,36,-120,30
-100,-77,-3,-239,-57,-32
-97,-71,8,-113,-28,-35
-95,-69,29,21,-17,-11
-87,-68,16,-9,60,-55
-84,-67,4,15,-25,-28
-77,-73,2,139,56,6
-78,-67,1,156,-44,25
-76,-65,5,184,-6,25
-70,-59,7,100,-20,35
-68,-54,5,-8,-35,77
-53,-74,65,-177,5177,-2652
105,7,114,-1690,3683,-1419
33,-1,61,-1892,3789,-1787
93,-12,52,-1774,3324,-898
122,-115,33,1003,2199,-1000
-117,11,-68,68,500,-1400
-73,-89,-62,-3273,4872,-2792
12,-57,-4,1362,4983,-2003
-57,-92,77,9816,-239,3328
127,110,62,10059,-1324,5832
115,113,98,24764,-1882,6288
62,-59,-120,15815,3262,-6949
-102,-107,50,6902,3311,-3847
-90,-128,55,-7180,920,675
85,94,-9,534,-1575,268
27,24,-45,1038,1008,-427
-74,-96,113,-395,61,-114
-66,-118,-96,-144,-935,520
-31,-47,-16,77,-707,414
-16,-7,6,-137,-717,269
10,86,41,-3151,-1603,278
-62,57,60,-7869,-1864,1122
-53,92,-4,-9573,385,2062
85,-90,122,-8354,697,3122
-19,111,73,-7230,588,4278
-86,-108,-115,-1963,392,4656
29,-56,-4,-4789,146,3856
-116,114,-59,-1498,921,2280
-21,74,1,-1465,-1137,2452
-11,-85,28,1330,-369,2766
-42,-80,0,693,1205,2172
-92,-65,-42,-780,-784,1540
-122,-109,-74,-266,-1419,1063
69,95,-67,809,-1893,301
55,88,-50,196,-1176,-708
109,40,-54,-1121,907,-348
85,30,38,-604,456,-361
91,47,-17,-514,-252,-353
104,76,-49,-1435,-173,-480
123,-121,-70,-2867,103,-751
-123,119,-32,-2268,415,-309
120,64,56,373,230,89
118,-118,-18,692,-409,291
-118,-84,-29,737,-267,167
-111,-67,-34,508,9,35
-113,-48,-36,133,-70,-17
-111,-50,-30,-353,67,-120
-104,-55,-32,-529,74,-120
-94,-72,-35,-276,42,-52
-97,-68,-36,-136,-10,-2
39,62,-43,-3316,5647,-1832
-112,-108,39,580,1857,-1084
-93,-1,24,13231,-4471,2719
92,-1,56,16080,-2551,3322
-78,-91,53,22248,660,-247
-49,-67,96,15575,5189,-8991
23,-2,122,-5189,3190,-118
71,-99,73,1710,-169,36
-108,40,90,-2681,-518,-169
-25,25,-83,1466,914,-410
-82,118,111,-70,-416,304
-57,-122,-67,-130,-724,503
-7,-113,-14,-321,-785,418
71,-70,-23,-2529,-2388,971
-16,-20,56,-7781,-2753,1834
-10,-37,-91,-9462,-908,1501
-26,-92,35,-8037,226,3351
69,-42,0,-8790,-739,3606
-113,106,91,-3557,-797,4952
-106,-125,24,-1308,136,4054
-22,19,18,-992,-1026,3609
-6,-19,50,-2350,-1496,2938
-63,41,-71,-1434,-1106,2462
-54,-50,-102,-471,-1366,2315
-10,-77,-89,293,-1820,2423
-39,37,71,-1473,-358,1345
-108,15,103,2085,-217,285
93,-122,-109,2913,901,-2105
108,-111,102,-2033,603,-828
106,73,0,-1602,-40,257
85,-110,-16,-1072,-966,275
-120,-92,-26,-881,-6,213
-120,-69,-36,-961,2,-63
-118,-93,-29,-724,247,-139
-122,-110,-18,59,244,-97
-125,-95,-37,756,-78,63
-116,-88,-35,1315,-203,259
-112,-90,-30,1440,-218,330
-106,-95,-22,1246,-144,263
-99,-105,-5,442,51,78
-96,-99,5,-427,236,-84
-94,-109,-13,-360,153,-170
-91,-119,-28,-290,62,-85
-90,-116,-21,86,-30,-1
-82,-106,-21,179,-27,10
-73,-97,-20,175,25,-4
-76,-106,-14,354,-60,13
-73,-98,-14,184,-66,54
-68,-85,-17,88,-62,43
-63,-77,-25,-112,-7,-34
-83,-42,95,-4304,2366,-1978
82,-70,-23,-842,3858,-2498
-125,-101,71,895,4034,-1281
95,94,-62,-527,1913,-266
-34,42,50,634,3734,-1703
-82,52,36,-222,2456,-2839
84,123,-108,-754,2352,-2750
25,-15,-34,-2885,3048,-2255
9,122,-74,-4073,4428,-1930
123,71,82,1287,1586,-1180
86,-41,-94,15154,-3904,4950
47,33,77,17907,1011,5356
87,90,-35,20340,2383,-1431
-91,5,-49,11721,1646,-3198
-18,-40,80,-2607,3007,80
61,-15,-9,-1378,-1285,-31
27,89,-126,-889,1089,-455
-46,5,-105,1075,122,329
-28,94,-125,1105,-606,279
-15,-67,-79,-911,-435,230
-5,-112,-35,-1189,-209,101
-2,-33,-73,-5064,-348,-99
47,-127,-76,-8246,-1438,-298
-102,42,-113,-9502,-2253,-328
-32,-39,30,-7641,-1795,-557
121,24,-31,-5815,-928,1288
-38,112,96,-2971,-2709,3358
-67,-120,101,-163,-1554,5833
-80,-77,-11,-2554,-2081,4749
-79,44,37,-2519,-2310,3757
124,96,106,776,-1422,2714
-122,104,-35,-252,-197,2168
-38,86,96,-77,-427,633
-128,16,82,595,-692,-244
-114,121,-128,4933,389,187
124,-84,-55,-394,979,-170
118,-88,23,-1013,260,-314
125,-120,-32,-1223,-27,-163
-107,-128,-33,-1989,-195,-470
-98,62,64,-403,264,-8
-109,81,33,301,-24,196
-105,-117,-22,612,-329,199
-94,-115,-23,716,6,57
-97,-108,10,346,-35,102
-89,-98,17,54,-4,26
-80,-92,-3,-407,98,-103
-86,-102,-8,-377,-27,-40
-81,-121,-5,-86,11,81
-82,-105,-14,137,-94,110
-76,-100,-17,223,31,30
-123,16,-36,-2277,4219,-4040
-58,91,7,-1503,3422,-2628
106,-57,-1,-2062,2606,-2310
-111,115,-40,-1886,3327,-2686
23,107,-117,1338,2107,-1845
-74,107,-24,-2319,2396,-1858
109,-73,71,-292,2597,-1848
-67,105,1,812,4334,-1226
-27,12,-63,10267,336,2968
-56,75,-16,13749,782,6889
34,-57,-40,22215,-828,6237
-11,-30,45,14618,3588,-5000
89,-53,33,287,2679,-800
46,40,-90,-3238,-895,400
-15,115,-48,-940,301,-1526
-28,-24,-37,1006,184,652
-63,64,-103,-201,-1123,492
-31,121,-30,-786,-901,346
-21,-108,-28,-1812,-1017,-43
92,-126,15,-4571,-2754,756
-3,121,-54,-8638,-1991,129
-39,8,102,-9019,-1594,358
53,100,-85,-9855,110,348
75,-35,-8,-7149,-1846,2459
51,-92,-24,-4538,-2794,3163
-65,-30,125,383,-1383,3466
-110,45,-48,1139,-1512,4271
-27,36,57,-587,-962,2636
-49,-68,-29,-217,-1550,2449
-63,58,-9,757,-1217,2380
-65,-34,-51,2152,-582,2520
-74,-97,-94,2757,-750,2358
-119,-89,117,1652,-593,1293
91,-125,103,359,-792,51
81,73,-123,-487,-788,-631
83,55,-112,-751,-223,-262
80,35,91,-589,234,-210
89,43,24,-648,61,-163
95,55,-12,-751,-182,-154
104,61,-25,-527,-157,-183
106,94,-45,-1255,-205,-393
98,119,-72,-2080,-140,-272
105,-102,-64,-2004,-389,-105
-121,-68,-19,-942,418,-343
-124,-48,2,-380,-12,-96
114,-47,-48,89,-247,104
119,-50,-64,628,-7,66
125,-28,-70,601,-130,96
-119,-18,-55,419,-40,10
-113,-14,-49,179,-12,3
-43,44,-45,-1215,4585,-4196
-71,72,-76,-1557,3620,-2193
9,-77,-87,-1996,3290,-1733
78,57,13,-1410,2529,-2358
80,-66,83,-996,1775,-2597
-72,-62,4,-1325,454,-1052
84,69,34,-1869,5051,-2229
-40,48,-86,7933,307,798
-97,-79,-107,13334,-1873,4258
-56,-27,111,20839,-1594,4158
31,54,-114,16438,1786,-3594
-104,-62,-65,9053,2868,-5797
53,-59,-23,-7387,3933,-1009
2,13,-68,-653,-4708,2466
109,93,-4,881,1035,-1424
-22,107,-25,-46,270,-224
-42,-82,-58,-1910,-1770,409
78,-60,8,-3928,-1947,739
0,110,5,-8187,-2381,1036
7,-8,46,-9617,-1647,2006
73,-72,-90,-7884,-409,3395
26,-27,35,-6978,-982,3223
-100,89,-90,-3903,-1864,3636
-54,21,46,-2180,270,3325
0,32,51,-1555,-1857,2661
0,117,45,1473,-2877,3217
-4,121,-35,-811,-1754,3005
-32,56,-126,-862,-1158,2654
-49,23,105,399,-996,2206
-110,-26,84,2319,-834,1018
65,25,103,6433,-356,-877
80,124,126,-2024,888,-673
78,34,105,-464,-21,140
76,66,2,-1221,-464,-156
115,83,-29,-1891,243,-189
113,90,-50,-1679,68,-407
116,86,-32,-968,26,-41
122,106,-41,-621,49,27
122,-124,-55,-253,-49,-48
-124,-107,-59,253,-61,27
-128,-96,-56,392,-126,45
-119,-86,-53,476,-71,39
-118,-86,-48,319,-123,82
-113,-89,-43,117,7,-32
-106,-85,-48,-109,12,-59
-106,-88,-57,-100,2,-23
-105,-83,-64,-55,-28,-10
-97,-79,-64,45,-17,-5
-95,-78,-62,30,-27,1
-90,-81,-60,123,15,-9
106,14,-127,-3380,6168,-3004
113,-115,-61,1446,4843,-1602
23,86,121,600,2829,-1384
112,-125,85,-341,2121,-2102
-97,2,-25,471,3775,-2786
51,92,-73,179,3740,-3002
22,73,-27,-2561,2744,-1980
58,-124,-29,-2670,2629,-1423
-52,-123,58,10030,-1055,1022
-24,32,2,15416,-2503,5004
-104,74,-13,25733,13,5896
-89,85,-124,12046,4761,-7632
106,-83,33,7112,5098,-4288
-13,23,62,-8435,-22,263
110,26,30,-705,-3271,930
-97,-100,-26,1936,1687,-398
-93,-80,-50,-865,-426,448
-24,-104,-15,-1611,-2202,823
79,-76,66,-4354,-2558,890
-21,-82,8,-8631,-3229,1098
-44,-44,69,-8727,-1490,1045
70,-12,-71,-8405,-910,2857
53,-78,-21,-7155,-1666,3282
103,111,125,-3704,-480,3893
-109,-42,79,-1506,-1885,3675
15,16,43,342,-323,3466
-58,27,-47,-2362,-1446,2777
-26,-93,-37,-932,-2489,2457
-28,-3,-19,1667,-1438,2822
0,-13,-91,2664,-248,2400
-74,40,84,966,-582,1052
104,-36,57,282,-569,-542
85,83,-54,1539,269,-871
120,55,-83,-615,1085,-224
84,71,15,396,-842,343
113,101,-25,-297,-432,47
-102,-99,-67,-2489,419,-691
-98,59,57,-885,550,-89
118,35,63,732,149,269
122,113,-8,531,-614,458
-93,-105,-3,213,-77,31
-93,-100,10,-236,137,19
-92,-100,2,-268,-4,62
-86,-101,14,-456,270,-72
-80,-111,-11,-256,305,-166
-83,-119,3,214,-64,98
-109,-101,0,399,-264,180
-81,-91,-15,524,-88,-74
-48,-101,-4,715,-22,151
-91,-80,33,108,-196,193
100,97,54,-2076,4981,-1587
46,-18,-108,1307,2664,-1182
-13,-54,-95,8130,-1012,-79
-26,-111,10,13536,-384,3371
-37,-49,-69,25145,851,6412
120,4,62,15113,5798,-7297
-1,-107,-115,26,2816,-182
82,41,112,-2182,-1846,-396
-55,106,-55,-863,-776,512
50,13,-35,544,865,-521
-45,116,-77,491,-219,383
-49,-90,-61,-110,-1043,630
-12,-93,6,340,-652,399
-13,-19,-33,-2014,-1123,-59
75,-67,42,-4370,-2071,984
3,-102,30,-7643,-2368,866
-122,56,-102,-7858,-1247,1981
46,-30,0,-6558,544,2774
-65,-52,9,-6440,233,4415
-127,113,122,-2007,-715,4373
77,42,56,-4277,1525,3765
-14,-80,-22,-1866,-1604,2634
3,-56,-54,-3870,-1762,2266
23,-126,-50,-2694,-1508,1695
-48,47,-26,-563,-1276,1611
-61,54,-92,-432,-712,1203
-91,32,95,508,-503,701
-111,116,-122,6380,-302,988
113,-122,99,1646,-529,-380
-100,-90,71,-1384,583,-155
-127,119,27,-570,-337,-240
126,120,-24,-550,-250,-244
-103,-113,-26,-1457,6,-300
-102,123,0,-895,57,-159
-103,125,3,-276,-115,50
-97,-100,-28,23,-190,-22
-89,-102,-30,350,25,-12
-93,-88,-38,368,-78,38
-89,-82,-28,351,-13,40
-88,-68,-19,-66,-50,16
-81,-67,-25,-202,-14,-8
-79,-71,-34,-180,8,-33
-77,-75,-37,9,17,-8
-75,-75,-39,183,-11,22
-69,-72,-33,243,-15,65
-69,-63,-29,205,-22,38
-66,-59,-34,109,-28,20
-61,-58,-39,57,-16,10
-61,-61,-37,0,32,-12
-58,-65,-39,16,5,18
109,99,-9,-3156,3264,-1676
4,16,27,-1283,4085,-3443
-39,22,-25,-535,5478,-2720
126,94,81,-823,2866,-1752
89,103,-3,-628,3593,-825
40,-44,67,279,2966,-63
2,-102,-69,-36,1999,-1444
-75,-101,62,331,1630,-2630
-40,-123,-120,-2476,3755,-2151
-60,29,95,509,2090,-1463
-68,92,-109,11604,-2920,1011
-26,-115,-69,20050,-2092,1902
-28,96,-61,21811,1596,458
-113,-3,-26,10459,6086,-5783
103,-6,106,2987,3851,-2055
-47,25,-100,-6660,-123,-368
-128,-108,-31,1023,-1964,874
77,31,-51,159,1840,-1175
119,-121,-80,-1978,-377,365
-60,119,-45,-1698,-1253,380
49,-80,8,-4110,-2211,896
21,-21,2,-8627,-2433,-530
-10,-83,-108,-7449,-374,42
19,54,67,-9364,-802,1591
22,-41,40,-7173,-1758,3128
19,-127,-27,-5160,-2232,3521
-101,-104,52,-1449,303,4638
-109,-83,121,1228,-1321,4044
20,-51,5,-921,340,2398
10,-118,-56,-1190,-1191,2911
-12,-12,-94,-551,-1993,1881
-62,-27,-105,-304,-1719,2214
-101,-22,82,-624,-1351,1227
108,-64,75,101,-820,150
98,-90,60,833,-78,-389
93,-70,16,-746,159,-1091
93,54,112,1,1060,119
89,-118,17,-1245,-112,-53
68,-100,-55,-893,-1045,104
105,-105,-56,-492,274,-118
116,-112,-35,-4,406,-265
109,-111,-1,84,-219,183
-127,-102,14,57,-49,47
-121,-76,-27,11,68,-127
-118,-65,-37,-186,-29,-116
-119,-74,-28,62,11,50
-121,-63,-28,35,-91,36
-107,-58,-21,-78,23,-38
-100,-58,-22,-115,27,-60
-101,-58,-31,-29,14,-58
-33,-124,57,-164,5575,-2413
-35,-84,-15,375,2966,-834
-102,-20,-105,-387,2757,-1020
-109,-25,-95,-1372,3838,-1330
-68,86,125,391,2403,-1739
-67,-126,44,73,1948,-2464
-82,97,-31,-2540,3968,-405
6,59,-26,-281,2539,-582
62,86,-17,4255,1496,-1046
-75,57,-122,11880,-1095,1556
64,71,-8,22458,313,7066
119,104,27,25188,4745,1486
-74,15,78,4737,4371,-5342
117,-80,-117,-5026,-3144,2755
-45,-57,93,-50,-1109,-968
72,52,11,-801,1821,-621
-106,16,-48,128,-1241,794
-39,-66,-58,-2470,-1031,502
25,-116,2,-3199,-2329,861
-36,-105,-44,-7549,-2803,1102
12,-2,101,-9883,-2310,1245
98,-116,-63,-7585,-990,2494
78,-109,-53,-7150,-408,4327
-26,-49,111,-2355,-719,4667
126,0,28,-3834,-947,4538
-3,-86,-9,534,805,2632
-62,-57,-68,-2453,-745,3163
13,-69,71,-130,-1959,3387
-73,69,-37,-1282,-437,3513
22,-69,-29,-1826,-1568,1329
113,35,114,455,-328,-602
99,54,126,3722,-93,-86
93,93,57,2198,-399,590
91,-118,38,-205,-661,-203
92,-120,49,-1120,-236,-170
113,102,78,-923,508,-300
-124,-95,41,-2107,364,-441
126,-114,-11,-1181,-106,-191
-126,-114,-33,-550,-127,-61
-118,-114,-27,107,-195,291
-119,-114,-16,499,-155,193
-110,-90,-4,412,19,29
-107,-65,-18,140,-25,-56
-101,-63,-23,-93,8,-77
-98,-66,-24,-135,36,-16
-99,-70,-23,-113,-60,-21
-93,-76,-16,160,-42,-1
-87,-70,-20,222,-44,19
-87,-59,-27,157,-55,4
-87,-56,-30,55,-39,23
71,96,105,-2487,4648,-2084
29,50,73,-892,4734,-1941
-99,-7,125,5160,-42,352
-70,22,77,14993,-1047,2958
-100,-101,-63,20702,187,4866
83,-48,55,17538,6091,-4329
124,-56,-127,8306,3995,-3318
-118,70,-21,-10850,250,343
106,-6,48,1346,-2039,221
58,2,34,847,785,301
-40,-128,-46,-190,56,-38
-63,-86,-42,-562,-1051,496
-5,-51,-2,-1636,-1960,631
95,-38,6,-5816,-3008,497
20,-54,99,-12188,-3374,-1087
-85,23,-55,-8633,-2263,-338
22,96,-58,-6887,-2035,994
61,104,126,-4986,-3664,2697
13,-48,47,-854,-2466,3664
-96,103,87,-2635,-1284,2018
120,28,-79,212,-1367,3118
121,33,52,-1063,-1950,3284
126,-90,29,-737,-1919,1940
-92,-107,-62,-1264,-1806,2406
-80,58,-42,399,-2470,2833
-31,70,-83,103,-1385,2951
-88,-109,77,-1801,-1165,1077
-118,-7,-28,4476,-1057,1046
38,127,113,2064,696,-1614
70,-112,76,-1815,312,-381
80,-121,1,-1039,130,299
91,-90,-18,-160,-188,-41
117,-65,-27,-905,48,-143
-127,-103,8,-744,409,-282
-127,-105,11,-571,276,14
-125,-86,-19,231,10,-39
-117,-75,-16,734,-109,76
-113,-74,-8,875,-87,217
-110,-84,0,996,-144,220
-106,-87,1,605,-86,160
-103,-96,9,341,-4,44
-98,-95,10,-65,48,-93
-94,-95,0,-158,55,-111
-88,-97,-8,-1,17,-72
-82,-97,-8,158,-42,8
-83,-98,-4,254,-54,13
-82,-97,-1,247,-76,17
-75,-87,1,214,-52,36
-74,-78,-3,92,-53,-17
-71,-76,-6,-38,-13,-43
-108,99,127,-2300,3670,-2598
68,8,1,-1320,3658,-1882
56,-4,16,-499,2391,-2811
94,-106,83,874,2690,-3372
-120,40,-17,-1366,2977,-1669
-96,112,-13,-1987,3595,-1069
-81,47,-10,5392,1458,-602
25,31,-74,15749,-3252,5037
-82,24,-117,18650,-23,5610
104,-68,30,19967,4659,1259
118,70,-33,3170,4621,-4927
-82,-34,-6,-4201,-3395,2786
-28,8,19,1223,-913,-420
-9,61,-32,-507,2073,-1076
126,18,-96,-265,-1010,276
-45,98,-51,-2117,-1846,341
-115,38,-40,-5158,-2032,273
41,-42,26,-8780,-3588,1847
-59,72,112,-7068,-1552,1740
60,80,37,-7810,-1564,4072
-40,96,0,-3357,1657,3024
65,99,-115,-1822,1178,4515
-125,-121,-2,-4158,751,2912
123,31,35,-2941,-1241,2929
-42,-51,57,-2960,21,3049
-5,-32,-9,1364,-1237,3748
82,-30,-54,1671,-2262,4094
55,22,-77,567,-2018,2975
-111,28,65,57,-807,-273
109,-58,50,-391,290,-2146
-126,125,31,-357,743,-1298
64,-16,126,2957,593,25
69,89,5,-208,94,841
127,-72,102,-2031,-346,-180
-115,-115,7,-1158,-357,-709
-104,97,-8,-202,122,-612
-106,86,4,155,22,10
-121,109,24,724,-412,391
-102,-114,17,227,-203,148
-95,-96,12,-96,-40,-141
-99,-97,14,-281,-88,-125
-98,-106,2,35,-35,-32
-94,-101,-8,180,-88,-34
-93,-105,2,305,-33,84
-92,-100,10,385,-97,73
-87,-83,3,256,-87,65
-83,-73,-3,-91,20,-89
-82,-81,-1,20,-30,-104
-76,-89,0,-13,-58,2
-75,-88,-5,42,-37,6
1,-22,38,-2058,4341,-2762
-111,-64,39,1446,4374,-2520
-109,22,58,-196,3267,-1975
-9,-92,-74,-2181,2830,-1968
23,-116,101,-1967,2658,-2701
-86,116,-112,1107,4285,-2253
18,-34,-76,102,2927,-2879
52,-43,70,-1944,5086,-3628
94,107,17,5068,1096,-1599
104,-25,113,14967,-2957,1924
97,41,40,17550,-505,4681
-22,-58,12,15927,4822,-150
16,109,-17,15618,4713,-8344
-33,44,-101,-8935,7629,-3847
3,-45,-115,473,-4732,4469
42,67,-54,-137,1008,-1483
-52,31,-45,26,843,-494
106,-105,-62,-2433,-1308,942
32,-109,68,-5733,-2570,1202
-15,14,48,-9735,-2499,2088
-73,36,-124,-8452,-1449,1953
-81,-16,-104,-9855,-1045,4652
-6,122,-85,-4639,-559,3313
45,111,77,-2277,22,4364
-21,-43,-44,874,826,3784
-78,92,-119,-3449,-2080,2892
97,52,45,-1095,-2110,3854
-23,-56,-114,819,619,2468
47,-37,99,2816,-1408,3113
-34,80,99,434,-2142,2629
96,69,40,-311,-683,-259
71,-87,22,1480,832,-1954
54,-39,81,2772,885,-2377
47,-90,-70,1599,-63,590
53,-50,-91,981,-339,1481
68,69,43,535,-644,254
101,112,40,-1653,130,-593
97,55,25,-1662,234,-639
87,16,24,-1066,-98,-116
99,44,1,-700,-56,-21
108,85,-20,-508,-120,-25
112,114,-19,-395,-124,-89
117,122,-23,-353,1,-86
121,-124,-29,-143,-34,-67
-127,-114,-38,40,-46,-15
-128,-113,-37,106,-26,25
-124,-108,-36,218,-28,49
-119,-99,-38,230,-20,24
-114,-98,-37,219,-8,18
-112,-99,-37,197,-22,13
-86,73,33,2626,3558,-1998
4,24,95,-899,4751,-4015
12,9,-61,-1426,3710,-3435
-51,104,-57,-1409,3441,-2930
-39,-12,6,226,3010,-2478
-18,-31,-61,551,2299,-1912
-24,10,-90,143,1747,-2995
98,-79,-80,1451,568,-3298
-122,79,34,-1976,4464,-3372
107,82,-10,-2518,4785,-3399
75,55,-41,2012,-937,-336
-93,-56,82,5348,-4016,3105
3,48,122,11718,-2144,5242
-61,-109,102,25315,4320,8966
45,-42,-51,22493,5603,-6128
-92,58,55,-3428,6546,-5386
-36,-20,65,-1994,-4978,3781
-8,76,-84,-917,455,-1544
-91,4,-9,304,657,-147
114,118,-2,-1054,-1536,880
-92,-59,53,-3893,-1960,665
-125,98,57,-8616,-3153,1677
-9,-59,-100,-9260,-2942,751
-124,-126,-25,-8243,-1634,2483
-5,78,-74,-7159,-1797,3390
-86,-34,-55,-3831,-2637,5534
41,112,-18,-925,1940,3378
-22,57,16,627,-185,4128
-38,69,-11,-2291,-1886,2783
-114,127,-32,-1464,-1939,2540
-17,-89,-81,-2378,-1000,2319
-53,-57,-65,-2367,-1537,692
-121,-72,-123,-1814,-554,-186
104,72,119,1811,1,-609
35,-12,4,6427,846,690
32,93,-118,768,-696,692
82,-78,2,809,-1188,851
97,-70,-8,404,-499,63
108,-76,-21,-1312,419,-651
89,-126,26,-732,27,-153
98,117,29,-714,65,-191
121,-101,-30,-183,303,-379
107,-93,-30,15,-330,-91
119,-121,4,356,-27,102
118,-97,-7,687,-286,100
-127,-75,-26,252,-201,58
-123,-72,-27,83,5,-35
-122,-78,-23,21,28,-64
-120,-87,-17,37,-90,39
-114,-89,-19,57,-22,19
-53,-55,-96,-1359,5211,-2646
-100,-82,37,2932,1468,-1155
-55,-98,-123,10359,-3195,2145
80,124,-69,17759,-2825,5213
117,79,24,18650,2497,4143
-22,-7,42,15283,5908,-6678
96,84,-82,-30,4579,-4370
-100,61,127,-5809,-3824,1896
5,57,39,1740,-754,238
-49,92,-90,-737,1596,-693
110,65,-20,-1131,-2075,950
47,-101,56,-3713,-1798,828
-86,-103,92,-8078,-1934,815
-68,-83,-107,-8946,-420,1015
-25,59,-79,-8278,47,5238
14,3,-87,-5789,-314,6440
76,27,-114,-1742,-2160,5631
1,-97,123,305,2844,3544
-19,-13,90,-2341,956,2396
-63,60,-91,-1497,-901,2859
-48,-99,-90,-55,-455,2884
24,-113,104,871,369,2344
-19,-15,75,98,-431,1568
112,-15,37,-63,-1053,-546
89,-113,24,1210,-474,-1408
21,-55,-57,4478,8,-693
80,32,-57,-687,991,411
51,48,48,152,-222,239
89,102,-16,-1494,-553,-96
127,84,-20,-2084,432,-721
115,33,44,-966,500,-416
-128,91,26,-1238,515,82
123,123,-17,-35,-130,-160
-115,-123,-28,-68,-75,-290
-112,116,11,289,-75,106
-114,-119,0,475,-244,147
-103,-85,-17,-177,-79,-123
-77,-30,-12,-1083,482,-360
-91,-58,-5,-651,176,-457
-84,-49,-11,-834,14,-211
-76,-43,-9,-305,-19,-119
-71,-35,-20,68,-85,-52
-66,-21,-17,28,29,-73
-66,-16,3,316,-19,35
-62,-14,-6,204,-2,41
-62,-17,-6,257,-22,94
-61,-24,-5,342,-59,111
-55,-23,-6,245,-9,82
-56,-26,-4,216,-6,63
-54,-28,-4,100,-18,39
65,86,15,9487,-3912,4338
-94,-14,-95,20745,-936,12001
62,106,22,23948,4755,2196
-36,120,-44,6859,1227,-452
34,-21,-119,-2594,-1276,313
-42,84,10,631,1408,-1587
-84,8,-112,-1982,154,-270
-122,-27,-17,297,-1696,890
3,-60,80,-4454,-2147,852
-113,36,-94,-7010,-2180,1098
-44,-97,-52,-10605,-1748,1419
-21,51,-13,-7854,-710,2741
54,113,-5,-8294,-1684,4084
15,33,-4,-6304,-947,3721
77,-107,-49,-1726,-315,3961
-85,-79,-124,880,-2542,2587
2,-102,125,2229,203,3481
39,-67,-38,111,563,2695
-29,113,-52,348,-667,2358
-111,111,-107,-636,-1206,924
101,15,-100,1418,-782,718
51,106,18,4092,-885,537
86,-117,101,-786,83,-685
71,80,52,-50,197,358
79,85,13,-441,226,-12
112,107,-13,-1583,79,-293
121,-88,3,-3007,-347,-506
-128,125,86,-1029,60,-282
-118,124,37,-620,670,-343
-128,-92,-8,-101,-209,-16
-113,-80,-11,277,-172,1
-113,-57,-1,78,-3,71
-107,-49,7,149,-87,58
-101,-36,16,-33,-41,-37
-94,-34,3,-254,84,-196
-96,-51,-5,-30,-31,-162
-91,-55,-2,169,-20,68
-87,-46,5,357,-37,91
-80,-29,6,181,2,20
-79,-22,3,-3,20,-62
-76,-26,-2,-115,-4,-49
-74,-28,-4,-155,-31,-19
-69,-30,-2,-66,-36,-25
-64,-32,0,43,5,-41
-65,-34,-5,127,-63,-3
-61,-37,-5,243,-85,61
-59,-27,-8,198,-66,65
-61,-25,-6,138,-26,10
-60,-28,-8,151,-43,10
-57,-33,-6,231,-42,33
111,-2,54,-636,4307,-4385
55,30,15,-1086,5666,-3331
123,94,-3,-1792,3656,-2620
73,43,119,-1231,3060,-1142
75,-14,66,852,1416,-579
11,-113,-46,515,1134,-2645
-101,-6,-94,137,2165,-1604
-31,31,-26,-4024,5790,-2800
-43,60,-59,1268,2941,-111
33,3,84,1575,3107,-781
-45,43,14,11085,-6144,7791
74,-110,-89,16001,-1608,8147
-77,3,3,23781,3077,6979
-98,-69,37,8775,5044,-7390
-38,-54,115,-8116,-1810,1334
-39,68,-100,2651,-1143,334
71,47,-119,-1142,2494,-960
108,-113,-45,-1376,-1950,503
24,114,12,-3729,-2769,827
-64,-26,14,-9051,-4539,575
30,-73,31,-9565,-2978,105
-5,-47,-92,-7847,-1973,2576
120,-57,51,-8057,-3559,2854
24,-44,-125,-3319,-1943,3588
54,13,-8,566,-1662,4352
-103,81,64,-613,-830,3008
-107,41,-66,-2628,-2387,2452
-82,52,2,-396,-3098,4077
92,72,-4,1900,-1982,4017
13,-16,-41,-18,-1459,1586
40,-37,126,-621,-450,-1665
96,-124,-85,4548,1689,-1233
78,-1,-35,762,1356,426
13,82,54,545,-942,883
47,-81,35,487,-1572,762
104,-25,-9,-831,-327,289
124,-37,-32,-2118,511,-1096
113,-116,38,-1721,728,-769
99,114,48,-1040,278,-185
110,-43,-16,-671,-299,-215
-125,-19,-15,-60,-109,-78
-119,-2,-22,49,66,-31
-123,-1,-17,321,-86,64
-120,-24,2,606,-102,159
-114,-32,5,479,-74,89
-108,-23,0,128,-87,-16
-101,-16,-8,-237,86,-114
-101,-11,-20,-320,-129,-110
-107,-7,-28,-377,-271,-5
-94,-19,-17,47,28,44
97,37,126,893,4727,-3147
54,-121,-83,-1063,3961,-2603
25,-61,-43,-2564,3489,-2111
-84,-50,-52,-872,2107,-1296
124,44,-47,1166,1143,-2086
75,62,-86,-671,5196,-3062
-16,-91,11,-2421,8197,-4104
-115,-47,99,969,-24,-1160
-46,-43,13,5953,-3131,927
26,30,75,10919,-2726,3278
33,119,-34,24329,320,9277
80,116,-82,24905,5467,-3461
-70,-29,19,2319,4177,-5661
-40,-51,87,-4941,-1326,2202
75,85,-71,-308,-1665,-1265
62,16,-26,-24,495,246
-64,101,-35,-132,-1081,490
-9,-76,-40,-1925,-2557,1281
-20,-55,45,-5326,-4430,2226
53,97,11,-8044,-3894,1650
25,-128,78,-5852,-1041,3003
40,47,102,-6477,403,4867
-52,57,83,-3203,1669,4575
78,-86,107,-2540,2411,5349
100,-78,67,-1472,-1927,3709
-60,-27,-57,-575,1595,1869
-31,-43,84,-2325,1294,2322
-98,62,-108,-1310,-1293,1991
-97,-69,-56,-828,-1121,2345
-51,-58,68,-1534,513,2119
-70,-43,96,-1601,-1018,1875
-96,-30,63,-549,-1000,962
115,-88,51,2406,-821,342
69,45,18,4871,-782,-365
32,-125,-86,982,-351,-793
123,73,-26,-247,1087,272
49,59,32,139,-812,256
99,84,17,-970,100,20
120,83,-37,-931,635,-516
120,99,-39,-1418,-126,-829
-124,-124,-44,-2537,-27,-709
-112,-101,-43,-2583,383,-580
-115,104,47,-210,183,164
-126,-127,11,1014,-219,481
-117,-84,-22,1070,-500,457
-105,-63,-41,825,-200,129
-102,-47,-39,396,-22,120
-102,-43,-12,4,59,10
-91,-60,-25,-313,335,159
-82,-81,-29,-49,625,-147
-14,-94,42,2047,4230,-3093
125,-92,81,1647,2737,-2750
-115,-110,-127,-795,2549,-3514
87,-76,33,-4325,2816,-2892
44,-79,-114,-3777,1723,-1795
80,117,-20,905,4105,-2548
29,53,-96,-1845,7227,-3681
-59,-60,-52,-2687,2400,-1436
-67,-44,68,23,-72,850
9,62,23,1052,-450,611
-53,-125,45,13393,-4146,3357
-84,-84,-120,23581,-835,13454
11,80,-95,24236,3838,407
103,-34,-95,-449,1898,-1493
-41,-14,-24,-3500,-2989,350
49,-88,12,2612,2191,-2241
-118,-79,-105,-626,-30,786
-107,43,-115,-344,-1229,797
-57,82,-28,-586,-1500,526
-5,-70,24,-5166,-2704,667
-84,61,-28,-8469,-3233,1090
-53,-52,83,-8488,-2645,1137
10,101,-34,-6092,-1390,2786
47,121,61,-6426,-1300,3899
3,-81,69,-1309,-70,4758
-117,96,0,-1945,622,5116
-28,100,-25,-149,-1034,2209
-79,84,-107,-2715,-1618,2685
117,127,4,-1644,-2127,3228
-88,11,-89,262,139,2945
-56,92,50,-691,120,2275
-71,45,47,-161,-1447,1379
-110,42,5,-578,-455,5
110,-3,2,-323,-7,-700
54,95,23,4344,-777,-698
125,-61,-83,-185,997,312
59,-81,-31,479,-585,-151
101,-118,-36,413,-120,510
118,-89,-62,-571,349,-347
-126,-78,-58,-1487,-21,-459
-127,-59,-40,-1926,-188,-516
-115,-89,20,-809,297,-184
-126,-99,23,186,240,-54
-125,-75,-27,725,-320,292
-111,-55,-45,751,-213,205
-109,-37,-44,307,-137,156
-106,-26,-32,5,-73,9
-99,-36,-21,-43,103,-119
-100,-47,-25,-67,61,-49
-104,-57,-38,41,-44,32
73,-28,-33,3931,5194,-2559
63,104,66,1145,4951,-3285
-47,-89,117,-5201,7293,-4122
1,-75,-47,-1918,4511,-803
59,-67,27,-351,3688,-1501
64,-86,-45,648,2516,-2282
-98,-106,105,554,-53,-2040
-44,-116,-95,-2232,3286,-1611
-33,88,-36,-580,1303,-549
-26,-83,-120,3944,693,-250
-97,116,-28,9535,-2482,1201
24,81,-87,13233,-1208,3250
-43,-98,76,24603,3274,6783
-127,93,-64,14810,4605,-3493
-83,-101,-99,-14,3361,-2758
-56,61,-115,-2155,-2685,1514
6,-1,113,-295,832,-1546
-94,35,-73,-435,-217,542
-71,95,-45,-151,-1723,1356
54,-39,49,-4357,-2421,1857
-29,103,105,-7650,-2911,2291
-77,-72,-62,-9343,-1949,1846
16,70,43,-6029,-628,4562
-22,48,-14,-6441,545,3542
98,-30,14,-5221,13,3692
-43,-106,-16,985,3350,2959
115,-87,-46,-2254,88,3874
125,71,53,-3731,-2492,1993
-128,-109,14,-2240,-1773,2805
-70,11,11,-115,-1540,3272
-44,62,-58,-65,-1142,2882
-78,60,-117,506,-835,1959
113,-15,52,1388,-204,-132
106,-36,8,59,340,-1377
89,-63,42,288,536,-528
66,88,-80,164,290,-19
88,-117,78,-1115,-238,321
98,-89,23,-626,-802,355
125,-20,7,-1840,-611,-110
-123,-46,10,-1774,354,-460
-120,-39,-10,-1582,435,-535
-128,-20,-21,-595,71,-248
-119,-11,-29,351,3,-10
-116,-4,-20,592,-150,140
-107,-16,0,938,-118,167
-106,-25,3,918,-138,148
-102,-25,-6,618,-76,83
-93,-31,-26,438,95,-3
-98,-34,-12,196,-99,33
-92,-46,-4,130,21,22
-85,-79,-50,-990,3539,-3482
-71,9,14,-3056,2032,-2868
-48,7,25,-3395,3206,-2369
122,-118,119,-1681,2273,-1187
-78,10,-24,1506,602,-1839
114,-128,44,-55,307,-1461
-98,-55,-112,-4030,6567,-914
-31,91,-44,186,4342,-76
-35,83,-75,6454,-1647,-157
-44,79,-100,17119,-4568,2014
-70,33,61,25209,-1705,2671
4,-12,61,18462,5233,-6472
-78,13,-27,8498,4022,-4822
-37,117,-13,-13262,2371,171
18,-113,-9,4295,-2018,-1793
29,-100,108,-2982,391,857
-39,121,-4,-18,-1397,671
40,-2,24,-4723,-2355,778
8,-34,22,-9918,-3733,737
-20,-98,-119,-8044,-2672,777
29,-4,75,-8289,-1404,3956
82,104,-36,-7445,-575,3109
-49,-118,-54,-5234,-1551,5381
-120,104,65,-686,-1276,4045
4,-40,-88,2566,-1247,5378
32,69,-7,-2766,-745,1569
-20,48,-15,-796,-1312,2933
25,33,-126,-88,-1468,2795
-82,120,-87,-1834,-2468,1256
119,25,6,-846,-102,-1208
-9,-99,-76,6915,-50,-391
64,22,-107,2620,593,178
61,19,45,3361,-359,1624
110,71,10,513,704,330
119,68,6,-1144,327,-527
97,77,16,-2504,-1006,-803
93,53,6,-1911,-1063,-441
97,89,-5,-2300,140,-488
123,-124,-19,-2706,692,-433
107,-116,0,-1061,-52,-69
106,119,14,536,-10,63
120,-90,-24,773,-87,199
-119,-46,-55,728,-113,-121
-122,-36,-46,225,-47,-186
-120,-35,-28,31,67,-14
-119,-33,-13,-111,56,-2
-112,-30,-27,-264,-33,29
-101,-35,-37,-337,66,-41
-97,-40,-34,-195,34,-38
-97,-48,-25,235,-25,6
79,-125,83,1639,4742,-2765
-126,-103,-8,-201,3674,-1684
-72,20,101,-1468,3135,-1875
63,-17,-33,-1480,3598,-1366
-126,-96,3,-819,4020,-572
4,104,3,1180,2732,-1613
-3,-68,-85,1070,1742,-2591
101,119,-45,-1167,5012,-2892
-69,-51,94,1967,2818,-2759
-76,94,37,6840,-3023,574
-47,-23,110,9457,-4780,3594
90,57,-34,18084,-3324,1971
-64,101,-21,16251,2174,-2201
22,-23,11,13843,4897,-7725
-125,-68,6,2313,3683,-4124
-113,70,-87,-7311,1044,-60
36,98,-64,1757,-2637,1725
13,113,-97,-319,1114,-645
-109,-91,-94,-2188,-1147,212
32,126,48,-2625,-2485,1691
16,-9,122,-7289,-2785,2292
-95,19,47,-8095,-1612,1534
66,115,49,-7036,751,3099
-64,94,65,-6951,1069,3986
105,-35,115,-3330,1030,4930
112,12,-40,-3145,-369,4927
-88,45,50,-3303,387,2611
-74,-47,19,-2274,-1028,3124
7,67,-5,-1583,-286,2660
8,127,-110,-1573,-2253,2887
-73,61,-30,3008,-90,2009
69,-10,-83,2182,-1118,-1102
100,-121,47,-248,-954,-1675
81,70,16,-274,504,-141
69,76,35,-389,280,419
73,105,45,66,-602,494
105,-117,47,-411,-357,245
120,-113,40,-531,148,-46
-128,-119,-2,-770,429,-486
122,120,-1,-365,162,-246
121,114,-4,134,-48,98
124,-124,-6,403,-261,288
-120,-92,7,226,-161,167
-116,-76,4,-69,-136,68
-109,-82,-7,-228,112,-155
-111,-98,-13,-19,22,-54
-110,-104,-12,201,-43,4
-103,-104,-5,524,-105,97
-99,-93,-9,305,-62,122
-97,-80,-10,212,-34,83
124,-77,35,-818,4817,-2951
96,-45,-116,-457,2510,-1250
-101,51,-116,-2239,2912,-1552
53,-5,43,-1307,3285,-1216
114,-68,-55,-1294,3020,-689
58,104,122,363,1646,-358
-114,-111,-32,1268,-37,-1210
16,-25,-42,645,449,-1595
84,-105,-54,-1129,2831,-1454
86,35,-64,563,2795,-1097
-55,53,99,5624,-1745,-2334
37,74,42,13726,-4608,-2432
79,115,32,19344,-838,-1650
-15,-64,107,16302,5350,-4033
27,-4,-42,15251,5464,-8617
23,9,103,-11462,3902,-526
-108,-74,118,-261,-4707,2449
98,-50,-29,1188,1270,-536
-101,122,-86,-1161,-366,-26
-67,-71,-64,-3788,-1825,1188
82,108,13,-5650,-1881,1448
-31,51,-20,-7781,-2877,1417
-81,-95,-10,-8484,-1441,2700
-87,-86,-80,-7737,-1272,2946
49,-112,77,-4968,-2138,4003
90,29,-90,-638,1196,3718
124,-10,102,596,191,4348
18,61,-25,-2037,1176,2839
-97,-57,-94,-2848,-1647,3043
-39,67,-62,-1460,-2707,1938
-46,16,-46,-585,-2044,2521
-33,60,119,-365,-687,2204
-119,101,115,-516,-1309,866
121,6,82,2688,158,-115
55,105,-57,1662,1026,-2207
126,-108,66,-1080,943,-109
78,94,9,781,-764,311
84,126,-23,1386,-653,526
123,-68,-28,-1544,235,-448
-117,-37,-24,-2395,113,-448
-119,-126,27,-559,23,-255
-114,-107,8,-468,204,47
-116,-94,-25,277,-11,31
-111,-71,-37,671,-66,23
-111,-47,-30,138,-110,53
-105,-49,-20,224,-73,14
-99,-57,-3,222,-116,47
-95,-63,-8,395,-72,72
-94,-66,-20,322,-37,52
-91,-70,-27,276,50,-1
-17,12,109,-885,3545,-3992
-105,-98,-126,502,5686,-3030
-3,-33,-18,1308,3083,-2040
69,-125,-49,-1299,3726,-2733
125,-25,-124,908,1614,-2319
32,-35,50,661,2082,-2456
-19,-20,4,-2244,1561,-3029
121,107,125,-1606,2298,-2438
-61,-99,60,-5279,2819,-2819
-90,79,119,-3132,1042,-3336
114,-80,-68,953,-3008,1123
-114,0,-64,100,-1046,1297
-38,-76,-78,13224,-3520,5155
-108,-96,45,24826,6449,7877
-118,50,-81,19202,1093,1128
-125,26,93,7654,780,-1381
36,-126,19,-5733,-681,-58
-70,-15,127,423,809,-1614
100,24,86,-902,-653,1150
-111,-120,-108,-168,-1166,613
-33,-67,-18,-1995,-2084,1587
-84,-90,6,-6351,-1855,1501
-81,96,-34,-9852,-2608,1956
70,110,20,-6872,-587,2401
106,35,0,-6512,649,4716
-121,-112,107,-4116,-1021,4730
121,-73,-45,-4725,-766,4711
-52,-72,48,-1413,824,3760
-42,-24,-57,-2142,-841,3108
-13,81,28,-1158,-2549,2399
37,118,16,-2183,-2162,2726
-6,-83,-12,-2345,-1028,1448
-110,-96,-67,-766,-287,-120
88,-28,108,2323,378,-1087
49,-102,58,3355,-76,387
47,59,118,4008,-631,1516
52,86,-92,959,-851,573
94,-121,85,-493,-58,0
96,-126,35,-561,207,-427
102,101,5,-210,168,-489
101,123,3,-798,95,-409
111,-119,0,-1585,98,-306
115,114,13,-695,-74,131
119,-127,15,48,-229,150
-128,-103,-4,35,-125,140
-119,-86,-21,212,74,-38
-120,-81,-24,330,24,-28
-120,-79,-7,119,-49,72
-112,-77,5,80,-12,47
-105,-65,-9,-126,4,-22
12,6,-28,-902,7097,-3557
-81,-111,80,-131,5937,-1363
-78,-55,54,940,4419,206
52,43,6,-868,2497,-602
75,-23,-111,148,3422,-735
-83,78,78,1218,5433,-2260
-26,-88,52,-2804,4940,-2089
-49,55,-10,2398,1520,-1445
-51,-108,116,13238,-4182,2471
27,-110,37,19442,-1165,4553
66,-107,127,18318,41,4527
-113,-82,-92,13508,7547,-7666
-41,74,-30,-2891,4002,-1726
51,-35,-28,-3994,-4059,2518
36,53,-37,583,571,-77
-66,86,-97,644,1062,-772
-100,-65,-105,-2834,-1453,455
-9,-70,39,-5995,-4062,723
50,116,-15,-10182,-3749,2211
26,-34,-34,-8539,-1403,2832
-46,50,9,-6842,-1733,6473
-57,79,-77,521,2630,4910
-31,-46,-39,-370,3788,3571
-7,-115,105,-1330,860,4097
0,-24,90,-2726,-199,2893
-98,0,89,-2226,-692,3043
-39,-127,117,-210,-683,3037
81,-98,93,-237,-426,2646
-57,31,90,-2999,-683,1407
121,-20,49,-2639,97,-783
113,-99,55,-1177,791,-1186
15,33,119,3310,-944,-539
82,-87,-69,-79,569,-648
-120,-77,50,-1311,-291,-58
-122,-25,-36,476,-888,227
-126,-60,-88,1038,199,-760
109,-42,-69,-856,-45,-1150
-101,-37,-14,-3553,726,-726
-116,127,83,446,311,183
-122,-74,9,1136,-523,330
-115,-15,-11,724,-756,497
-98,0,-23,433,85,100
-85,13,-35,-134,174,-159
-88,8,-23,-613,-69,-234
-99,-13,-3,-505,129,-216
-92,-28,-10,-192,83,-16
-85,-19,-22,172,-108,112
-77,-7,-31,100,9,58
-72,-8,-20,246,-58,70
-77,-6,0,225,2,89
-55,82,-55,6496,-618,-1228
-78,4,-47,21105,-1962,995
121,-51,12,19285,1274,3101
-17,36,54,14150,7868,-6157
44,90,-89,5600,3520,-3441
112,48,-90,-6825,1051,-773
98,-29,-97,-1038,-2454,2083
9,-17,-98,184,-333,678
-54,-14,-95,-4482,-1411,944
126,120,-86,-8149,-2470,1497
-45,-36,-94,-8546,-3345,596
-116,-69,-43,-7149,-1935,2588
-50,40,-46,-5388,-1421,3599
29,-111,-102,-1364,-1026,4153
-12,-90,-38,-3713,1045,4577
70,27,120,-2841,-1983,3712
-113,36,-80,-3744,-380,3229
42,-90,44,-1631,-1335,3181
122,-115,32,89,-3442,3782
-25,49,-17,-2472,-3675,2366
107,-93,92,-199,-317,-309
66,95,121,6702,1772,-2176
32,1,109,2202,764,-248
57,117,72,-846,-600,1078
58,118,34,1262,-1000,454
97,-75,-11,-622,-82,-7
121,-58,-23,-2017,565,-567
109,-115,13,-1375,506,-510
110,122,11,-1010,360,-117
109,-104,-11,-78,-161,-22
122,-81,-15,471,-262,127
-122,-57,-16,399,-77,122
-117,-47,-15,329,-50,30
-116,-65,-6,250,-10,9
-115,-75,0,152,-38,19
-107,-68,-5,19,-29,11
-105,-57,-17,-109,-7,-25
-99,-56,-22,-41,33,-26
-94,-62,-21,74,7,10
-92,-66,-17,121,1,33
-88,-65,-12,225,-5,37
-84,-60,-18,247,22,15
-81,-57,-20,200,-18,19
-79,-64,-15,302,-57,80
-78,-64,-11,228,-98,77
-75,-60,-13,23,-28,7
-67,-58,-17,-27,14,-33
-64,-60,-21,-46,4,-8
-68,-62,-20,10,-44,31
-64,-59,-18,103,-41,51
85,-49,96,-5494,2024,-664
103,-54,26,-2523,5871,-2493
-114,-1,20,2506,4770,-112
-73,-67,16,341,4738,-94
65,-48,-61,-591,3987,-541
44,112,86,965,3417,-1237
-29,120,95,290,2305,-1114
-51,82,-37,-96,3155,-1312
16,41,45,-2375,5266,-644
5,-5,37,-1272,3391,-1295
-46,-34,94,4105,-1488,-929
48,64,53,10885,-6550,3102
-119,-42,-81,19168,-2487,4730
68,-114,-23,25110,2934,322
106,-59,51,14047,2524,-6027
-35,-98,106,-7010,4592,-2682
-111,-21,11,-90,-2506,2196
20,8,80,41,1104,-1023
-95,90,95,-1649,-449,384
-84,-120,125,-1891,-1855,1252
111,-50,-17,-4593,-2961,1531
0,-34,99,-9841,-3194,1104
-82,-82,-114,-15506,-539,-2637
43,-87,79,-7442,-1271,339
71,-100,95,-6632,-4408,835
-24,-1,-101,136,-2977,3432
-98,40,-44,-376,-2125,3734
82,69,-20,-1320,-2598,3606
106,9,67,-3330,-3132,3535
-92,-53,64,-787,-4818,4429
-29,26,8,2943,-1532,315
-66,66,-20,2797,-816,2156
115,66,-83,1586,189,52
77,-34,-96,2807,399,-198
60,101,115,2668,479,-444
65,-63,-91,-2256,-455,-631
63,124,-110,-1540,-778,459
83,119,101,-810,-537,530
104,126,48,-809,294,-92
119,-123,3,-650,371,-328
102,106,27,364,52,-155
108,94,58,1032,61,276
116,126,51,806,-82,298
127,-92,33,180,-165,87
-122,-91,26,-222,-34,-24
-120,-98,26,-200,10,-47
-113,-96,16,-464,36,-95
-110,-99,21,-360,-7,-84
-105,-103,21,-117,8,-4
-103,-95,14,70,-41,48
65,42,-4,-1306,4213,-3730
6,-33,-65,-391,2502,-1156
50,-27,-85,284,3708,-1896
-44,29,87,-782,3266,-1560
36,18,-41,-1519,3164,-1506
29,-19,33,-1036,1637,-1633
7,-68,-23,-470,1220,-2280
-37,83,54,-1930,4471,-2082
-36,-23,73,692,3728,-1875
-54,-100,50,1983,1665,-196
-107,1,-95,5832,-437,1299
-87,122,26,12276,-1688,6354
-113,76,105,21239,3211,7713
-98,2,-61,19405,3981,-4729
25,-91,76,-2693,761,-1492
47,-119,-93,-1347,-1088,823
13,-20,-127,428,1880,-2012
111,74,64,-1194,-820,1243
-89,97,119,-548,-1304,1144
34,-72,-45,-4617,-2016,1844
-70,-81,-19,-8401,-3442,2486
-6,-17,72,-10482,-2572,1669
-62,-41,-102,-9697,-2538,3841
-29,105,54,-9724,-3363,4553
-106,-31,81,-3644,-2043,4900
-71,118,6,2330,-4240,3976
56,-84,-77,3575,-708,3233
-43,127,-51,-1745,-209,1863
-81,119,-62,62,-945,2087
-89,-4,-105,2699,-863,2686
-56,-27,102,3039,-527,2220
-127,-35,97,1864,-1074,1091
81,-65,77,806,-449,-407
54,104,71,-273,99,-1436
66,94,-96,-68,672,-713
62,12,4,677,697,500
41,38,51,1304,-352,514
89,68,48,164,122,358
113,85,12,-625,430,-131
114,96,0,-1300,-14,-632
114,105,4,-1809,-143,-709
119,115,12,-1493,-27,-448
125,-116,24,-954,-74,-179
125,-94,29,-568,-106,107
-127,-94,15,203,-27,204
-117,-68,-14,432,-20,86
-101,-53,-19,132,49,-46
-99,-54,-21,-74,50,-115
-104,-64,-6,96,-49,-27
-103,-63,3,263,-18,63
-23,39,18,6914,-2567,1156
-87,-15,18,8879,-1735,1603
70,3,22,14213,696,2822
-5,47,-22,18185,3899,3016
-91,60,11,15865,5430,-4792
-96,-120,-39,-8531,1991,-2522
-11,-18,121,315,-1757,1247
-77,97,-92,-1255,-648,-175
-77,15,-115,1649,399,127
-113,-33,-108,-2128,-1317,764
-20,-68,-69,-3590,-2325,889
-31,-102,48,-4678,-3862,1349
-12,96,-25,-9142,-2871,1217
83,-101,87,-6576,-21,1638
28,71,111,-6686,77,3948
21,-43,97,-5472,-188,4205
79,109,-103,-1996,-1515,4763
-79,-125,24,-3326,-239,4695
-105,-63,38,-1070,-1815,2936
-64,-69,-9,-2181,-1688,3881
-96,-19,-97,-215,-1259,2867
-46,127,-121,3159,-1270,3045
9,-103,-111,2857,-1043,3239
-94,25,50,573,83,1086
61,-9,28,-1246,-64,-1524
61,-125,25,-472,-137,-1651
27,49,40,759,-336,-799
32,-62,80,950,889,486
32,31,94,461,-333,667
71,105,-46,-174,-815,332
89,77,-21,-764,550,-729
73,0,17,79,196,-19
57,8,47,939,-344,315
86,71,16,321,77,68
92,104,-20,-506,-32,-147
98,84,0,-612,44,-105
94,64,9,-103,-49,87
99,80,-14,48,-48,43
115,101,-25,-157,41,-64
112,96,-18,18,-49,25
117,102,-23,112,-28,65
123,119,-32,-29,-8,1
124,116,-32,31,-7,-10
126,105,-33,229,-134,-93
-119,115,-32,291,23,91
-119,-123,-42,162,0,34
-114,-125,-37,112,24,44
-110,-124,-38,72,25,54
-108,-121,-36,32,0,41
-103,-116,-40,-32,-8,20
108,61,2,-1790,3902,-2833
-101,10,-79,-1159,3535,-1899
121,-63,-122,-345,2137,-1117
-97,-8,50,189,1048,-1792
-48,107,26,65,3724,-1896
-52,-13,56,-1746,4799,-2044
-74,4,15,1587,1508,-591
-70,83,-17,4739,-2485,307
108,97,-42,12481,-4383,1715
8,91,122,18933,-972,3633
44,-5,-104,19838,4240,-522
-40,106,124,17959,4397,-9126
-28,-17,-78,-12450,3437,-1109
-15,13,38,-277,-1977,1274
-50,-50,-106,414,555,106
-112,81,-84,-313,-396,129
-114,-92,-30,-2343,-2259,1084
60,-108,52,-4850,-3459,1719
-84,122,59,-9140,-4545,2246
-97,109,56,-9281,-1179,2547
-117,104,-94,-9309,-355,4592
-52,21,-50,-5098,121,3610
-20,118,7,446,491,5334
-37,69,32,813,1137,3560
-39,38,-75,-896,828,3961
54,-23,29,-3217,-974,3014
-87,-34,8,-566,816,2654
62,-91,-22,969,962,3508
86,47,-71,-1866,-977,2410
119,51,80,-1744,-1513,-647
124,-59,49,1,-880,-1423
-120,93,34,1508,-572,-1097
73,32,35,3189,-796,35
34,42,55,2838,-598,1178
25,-71,-110,-1484,-454,435
113,83,-39,2775,1398,541
78,-117,-84,579,-779,631
105,-122,-26,-2722,-313,-231
93,81,-44,-1982,270,-982
80,59,-50,-1315,80,-532
85,-119,-47,-1938,-271,5
118,-64,-8,-1615,227,-363
-118,-54,32,-1124,238,-424
127,-59,-31,-136,10,-145
122,-67,-29,659,-54,-44
119,-48,-28,750,-196,297
-123,-22,-20,852,-230,240
-115,0,-26,41,-86,96
-114,3,-42,-432,-9,-111
-111,-17,-48,-545,-5,-172
103,50,-72,4013,6096,-2517
110,116,29,1982,2377,-1546
-78,-20,4,-226,3726,-3479
105,-12,89,1549,2961,-1697
88,-47,115,-497,5119,-3141
-102,-98,-119,-2296,3904,-2221
82,73,72,-41,1562,-1190
-63,103,95,83,-685,-2021
-40,104,-100,-1222,1323,-1387
-16,-74,-67,-99,2901,-1360
-17,-20,113,818,15,-69
23,63,100,4845,-910,-876
-55,31,-26,12910,-3299,1761
-80,-29,-74,20846,-869,9971
73,-39,96,21286,8043,-133
-118,-44,88,1711,4690,-3660
35,102,0,-296,-3215,3629
-43,118,-86,-624,1289,-3707
-109,63,-8,-2149,235,470
97,21,-89,-160,-1350,644
-94,-119,-44,-2801,-2327,357
-40,112,79,-4388,-2672,792
-88,71,64,-7976,-4009,413
-125,-68,90,-7894,-2280,1669
-71,-109,28,-7021,-565,3267
11,-118,-60,-9752,1886,2136
58,41,104,-5367,-692,3203
32,-98,-89,27,-2468,5160
13,94,-122,-1154,-1323,3790
-77,57,124,-2027,-2236,2104
-99,-42,80,-1674,-2348,2164
-95,49,24,-229,-363,2516
-73,33,-73,1192,-756,2061
-78,50,123,-12,-1219,1642
-112,87,81,-1044,-1129,335
101,-6,62,1221,-786,-253
70,-59,35,2085,-923,-519
2,-79,-7,1619,-275,-424
83,-118,-6,-1133,865,277
35,-64,-41,-336,-1392,13
103,-55,-54,-1514,123,-27
108,-65,-49,-1428,897,-495
82,-91,0,-264,35,-101
99,-109,43,170,-105,170
113,-74,-7,402,-63,101
117,-42,-22,332,-87,-86
126,-45,0,299,70,74
121,-30,-16,-5,8,65
-124,-18,-19,-265,-4,-103
-112,-35,-1,-362,108,-160
125,1,63,-349,3938,-3898
-103,87,-127,-1218,4246,-3057
-107,-128,-105,-1802,5010,-2854
3,77,86,-1828,4279,-2074
122,22,24,-1852,3483,-1423
-67,-11,43,-1201,1749,-808
53,-59,71,236,1948,-1233
47,-96,90,1668,480,-1483
107,-61,-45,-785,220,-394
-89,31,-64,-784,3254,-1145
-77,56,86,4677,1765,-719
-47,-73,-123,9487,-2510,2399
-29,-111,84,12956,-2300,824
88,-66,105,14302,2628,1068
-105,-66,-41,13068,6439,-1070
-71,43,-36,15471,6346,-5636
-49,37,-36,-7273,2739,-3496
-128,-31,113,-936,-4197,3345
46,23,11,171,1309,-703
97,-105,-26,-312,189,-146
87,-59,-62,-1553,-1417,777
-63,-44,-7,-2111,-1618,754
107,-32,66,-5733,-2315,1449
-48,110,13,-8332,-2821,1462
97,-93,-128,-7585,-1423,2042
-110,-23,16,-7101,-332,4119
24,119,25,-6036,299,3822
-25,120,-27,-4912,-831,4120
-107,-4,19,-2672,502,3082
117,-10,67,-1474,-1141,3254
-105,-79,-6,-2350,-576,2005
-47,-7,27,667,-2080,3513
69,17,14,1077,-1465,3557
9,109,-38,736,-648,1664
73,9,-83,1989,-546,-644
102,-103,-96,1652,-291,-1186
115,-114,112,-553,120,-657
40,69,87,-574,-553,68
33,59,-70,1964,-948,1471
86,-128,-88,-138,83,315
109,-73,34,-1594,316,466
127,-104,21,-1446,-43,-632
-121,-120,4,-1299,129,-880
-124,95,21,-1222,433,-303
119,88,22,470,-81,337
119,124,12,1017,-420,510
-124,-84,21,791,-209,378
-119,-64,23,361,-24,86
-114,-57,16,-145,62,-129
-114,-73,17,-303,62,-168
-25,-20,118,6783,-3168,903
-54,12,-72,13646,-3393,2432
117,106,-28,20286,1899,7981
31,-8,17,21283,8692,-4216
93,-17,-30,-914,3306,-1484
-41,65,-84,-3074,-4838,1077
4,-39,-51,584,630,-986
-100,-28,33,1826,644,-79
121,-85,24,-756,-977,723
-64,-23,90,-2154,-2298,754
-91,-35,-114,-5313,-2246,739
-85,76,86,-9202,-1880,1232
-3,118,-79,-6927,-928,2872
106,-87,-6,-3395,1940,4949
55,65,-72,-1590,1232,5558
96,119,98,-2009,2876,3534
-17,0,-24,-4852,2248,3219
93,83,-123,-2657,-551,3019
-75,2,49,-2555,1211,2517
-120,-87,63,-938,261,2134
-121,-87,106,-922,-1160,2104
-125,-68,86,-1311,-576,1894
127,13,19,-2613,462,972
95,7,-2,-1872,193,-147
77,-6,-16,-344,-353,-575
65,61,-91,4916,-675,-89
41,0,-31,2080,128,-280
82,-98,75,-1399,55,419
80,-86,-30,-1069,-367,-252
105,-120,-53,-911,480,-737
105,-119,-47,-1297,258,-452
98,111,0,-415,-12,52
108,-127,-4,292,-101,113
120,-86,-31,249,-50,-105
-115,-66,-27,-28,137,-224
-124,-73,-24,56,5,-51
124,-64,-32,52,-126,39
-114,-52,-31,-137,-54,-80
-110,-55,-23,-114,-25,-49
-109,-59,-23,82,43,-13
-94,-54,-37,284,153,-117
-90,-49,-42,-102,15,-157
-91,-60,-29,53,8,-36
-89,-69,-17,509,2,73
-82,-55,-30,449,26,85
-81,-43,-36,283,28,57
-78,-39,-34,21,13,-17
-74,-45,-30,-87,15,-16
-74,-54,-30,40,25,-49
-65,-64,-30,167,8,37
124,102,69,7968,2264,-90
104,-66,71,1242,1896,-4029
-35,-24,-111,-3320,914,-6018
47,-113,81,-2410,1560,-5477
-81,-14,21,-4047,1576,-4553
42,12,-68,-5436,2539,-3482
35,-36,-32,-3103,992,-1503
-70,17,94,2268,90,-2495
-85,-127,98,1347,230,-2862
98,49,-10,-1752,1412,-979
-125,121,103,-1064,4279,-2124
-116,100,59,5803,10,-731
-119,-61,-86,9600,-4347,2436
28,115,33,12730,-332,600
-111,-87,-80,13813,2550,1488
-2,8,66,15901,6944,-2528
-63,-15,92,14183,2795,-4722
-118,63,-108,-8080,-605,2081
0,-108,14,24,-1615,-294
-3,44,-49,-1222,2795,-1821
41,-24,-88,463,-1615,1302
-112,-86,-91,-2800,-1707,803
28,114,33,-4186,-2165,1878
-78,113,-60,-7835,-2814,1745
82,-53,-114,-7025,-2335,2470
-85,64,6,-5921,180,3326
68,82,26,-6857,1317,3948
13,73,-30,-6967,1719,3409
72,48,-2,-4645,-1223,2831
-97,-52,83,-31,-1365,3315
-114,-71,92,524,-1763,3161
-82,-127,38,-213,-2214,3038
-43,20,-18,1381,-872,3316
8,105,121,-557,-310,2261
101,-125,-113,-1218,-1626,-104
79,4,-126,1134,-294,-653
80,-72,98,887,256,-1125
83,-128,-32,-833,877,-23
89,-101,86,-616,538,-238
80,-64,3,251,-573,105
-122,-84,-1,592,24,-82
-123,-31,-15,-1743,-29,-430
124,-57,-20,-1526,-425,-227
122,-87,28,-788,-213,138
-125,-105,58,352,136,267
-127,-50,10,614,-183,157
-115,-38,-11,619,-26,90
-111,-34,-17,376,56,-56
-113,-22,-14,-77,-23,-43
-110,-24,-2,-298,72,-104
-50,62,-113,-759,6080,-1950
-63,-11,-46,1433,-448,-322
-54,-31,-24,5403,-4247,2327
-44,86,-76,11184,-2525,3371
-23,65,-5,17148,195,6152
-83,71,73,18321,5535,3140
102,79,77,11994,4106,-5236
102,10,34,-6639,-2191,1660
105,5,-6,655,-1516,556
-46,53,-116,-646,2281,-1710
52,124,-109,-120,-1338,789
-100,-43,-71,-3118,-1551,622
98,-54,-59,-7570,-2527,-213
109,39,-120,-11298,-3934,-525
-26,107,5,-6617,-2592,1023
124,12,-55,-5918,-1268,3077
-110,-67,-44,-3488,-1382,3399
52,-5,6,-513,387,4161
-117,123,-44,-2371,-608,4920
40,-6,-112,-3081,-2558,2715
0,-51,85,-737,-1625,3596
-6,89,56,1050,-2201,4003
19,104,-16,1229,-1573,3217
-116,56,-60,1770,-1726,1343
46,30,-80,91,-532,-1078
51,-111,-71,1014,533,-967
56,-125,76,-94,191,-645
38,86,5,-3,-45,-156
46,108,-18,-732,-185,79
58,123,-30,-1064,-182,45
78,-81,-13,-1706,-197,-75
105,-80,55,-1103,405,-397
94,-80,25,-933,29,-36
96,-85,-17,-209,-40,-9
99,-66,-31,128,-23,56
103,-41,-40,105,-138,80
113,-31,-23,138,-79,25
119,-28,-6,6,43,-19
122,-27,-10,-57,-47,-1
125,-29,-29,-45,23,-16
-127,-25,-42,-100,-37,-11
-122,-32,-33,78,-29,-6
-112,-34,-19,189,11,45
-113,-28,-30,141,-3,95
-112,-14,-39,-118,-33,-36
-100,-26,-35,-103,93,-98
-106,-33,-46,-14,-34,-49
-97,-39,-36,117,-144,183
-90,-26,-26,417,-44,196
-86,0,-37,-19,73,-45
-6,-90,-6,7051,2404,-2392
-73,115,97,14370,-2395,-1436
-8,82,41,17935,-5530,-325
78,65,-66,12902,942,-3566
37,40,-24,7257,4741,-7128
122,-82,34,3038,6454,-9790
54,-111,37,-3786,4782,512
-126,-29,-20,-833,-4655,1631
81,102,-48,152,1171,23
-55,-78,96,-814,422,-628
-95,-14,98,-4088,-1962,1088
39,3,-31,-10435,-3765,1271
64,-76,-84,-14726,-4052,-1013
22,69,-119,-7480,-3775,825
70,21,-20,-4954,-2834,3222
87,-87,-89,-2679,-2789,3996
-113,84,5,340,90,4065
-128,7,33,2414,-1857,5631
75,76,112,-773,1701,3015
-73,66,89,-457,-2184,3041
-44,-92,-4,-1994,-2163,2222
-81,-119,-91,-3041,-2027,1637
114,-12,95,-307,-1054,957
47,-80,-122,8825,-399,798
103,-23,-70,-928,1245,-641
71,-123,5,-836,-939,362
76,98,11,-72,-224,-151
82,116,-19,-780,119,-310
101,-114,-11,-2087,140,-264
92,81,75,-410,124,22
91,99,9,4,-251,208
110,-122,-9,209,-129,23
114,-109,-18,131,81,-36
107,-103,-25,282,-127,52
117,-93,-8,105,-14,-6
-128,-85,-5,-163,-2,-59
-121,-87,-13,-254,-6,-76
127,-99,-33,-160,31,15
-127,-92,-49,-29,-35,27
-110,-90,-38,109,-30,39
-104,-86,-13,309,30,16
-106,-81,-21,269,15,0
-108,-77,-33,189,-1,28
-103,-71,-35,89,-7,47
-95,-66,-30,-70,-8,25
-93,-67,-25,-152,27,10
-88,-76,-34,-19,73,-23
-86,-77,-37,142,-15,38
-81,-72,-31,145,27,30
-80,-63,-31,113,-5,25
126,104,-57,2817,6613,-2979
-108,-37,-34,234,3780,-3014
41,-28,98,-1124,5612,-2806
-6,120,-81,-2026,4088,-2150
-19,-122,69,-1778,2233,-1108
-80,29,53,1631,1815,-2254
-45,-4,18,-831,-35,-2335
-42,-32,20,-2235,2804,-2112
-47,58,-108,-576,3554,-1814
-65,-94,52,1141,11,-682
-53,-125,-89,5403,-4057,860
0,-74,-1,15708,-3594,2632
-3,-48,81,23861,1146,6578
8,-10,68,16017,5814,-6665
-7,93,-127,4188,1526,-2086
-15,102,-12,-6585,-2429,1988
-22,-63,-115,777,2735,-1944
7,11,79,287,-1552,1066
118,-79,70,-1976,-1285,813
37,84,-64,-5144,-2278,1301
65,-63,87,-9834,-4351,1163
108,-109,-44,-9576,-2281,371
122,79,-16,-5728,-489,3729
110,55,-116,-4887,-2107,5934
27,-79,-112,-1609,-405,6176
-62,28,-114,-906,-2096,4738
92,-103,47,-3421,-1695,4101
38,-74,41,-596,-2337,2483
42,66,32,-300,-2121,3767
8,-71,-30,-983,-1134,2113
127,-102,-120,218,-441,-39
-17,60,-26,6987,35,-1307
43,-86,-118,-929,566,-699
50,106,68,-52,-536,415
22,-115,-37,-25,-527,414
62,-100,-22,-525,226,-123
86,-51,-34,-3099,263,-589
82,99,43,-1057,320,-127
72,122,1,-16,-193,-88
91,-97,-27,-290,-136,130
97,-72,-48,89,-1,-25
97,-63,-39,505,-132,78
102,-66,-25,631,-71,38
118,-72,1,564,196,-133
113,-55,-26,133,50,-153
124,-63,-38,2,125,-136
124,-66,-41,-21,17,-61
-126,-60,-31,-222,-8,-11
-110,-61,-27,-228,40,19
-107,-59,-38,-28,14,-20
