AccX,AccY,AccZ,GyroX,GyroY,GyroZ
-54,73,-75,-9849,-608,-3806
52,116,-59,-15205,1047,-7603
-13,65,23,8812,-690,-2034
-16,103,-122,10920,845,-12946
104,-91,-82,12756,-5706,-15058
-22,-114,122,2959,-7074,-6704
13,88,44,-465,11110,-4724
-112,-20,-37,2838,18265,-3115
-128,22,-73,8303,13241,559
-92,-42,84,-9216,1309,-4912
-93,15,-101,1001,-2031,-957
71,-74,-109,419,-459,1653
-69,37,-38,-928,61,-603
-88,-38,-104,-842,-1060,50
-47,-29,-97,-1270,-1494,483
-62,-75,-92,-4012,-2822,-424
-36,-52,38,-5845,-4802,197
74,121,47,-9232,-3826,-1167
-32,-65,89,-8924,-1361,-1049
41,64,56,-7370,-1436,222
-41,18,-84,-5417,-1720,1900
-60,52,23,-2793,-1407,2753
90,-21,3,665,127,2899
80,52,101,1326,-1391,3984
-35,-112,-38,-604,-2304,6266
23,-85,-87,-342,-424,3790
110,33,127,469,-592,955
-88,-103,28,1701,-102,-1581
-121,9,-1,2590,374,-985
121,-62,-35,2279,557,213
-111,-122,-58,2081,666,273
-96,105,-47,1629,414,-4
-69,102,25,-13,-581,-705
-78,24,46,-168,-499,-898
-66,49,49,-1246,110,-815
-72,33,45,-1262,261,-658
-71,42,20,-749,144,-394
-69,75,28,-725,-248,-312
-49,77,8,-264,248,-120
-61,104,8,-502,-139,28
-52,117,5,-371,101,53
-53,-119,4,-541,6,109
-49,-102,-4,-722,77,106
-56,-95,5,-512,27,220
-43,-98,-1,-57,383,484
-35,-71,-14,-168,208,227
-15,-58,-26,-362,121,-42
-24,-79,-25,-123,48,-169
-32,-82,-5,-114,-12,-192
-38,-95,3,-155,35,-120
35,127,121,-1863,-321,-9849
84,119,-8,2326,-4716,-6610
-126,24,-78,2654,-2188,-11039
69,116,44,8368,-4847,-11519
6,-23,119,3243,2851,-5181
-121,13,39,-454,18227,-3964
102,-21,-47,7180,13393,-590
-102,20,43,1235,4609,-367
-75,-7,95,-5892,6190,-3072
95,-92,127,161,-5467,-1213
30,-18,-62,-226,-662,1251
-105,53,42,-914,-18,15
-29,2,-112,-1635,-1152,-503
-14,-25,-104,-1952,-3326,533
25,-24,113,-5488,-3748,391
110,94,116,-7073,-3929,-1588
81,102,-127,-9497,-2880,523
-84,47,-10,-6026,-546,-1035
51,41,-125,-6888,-1562,2478
23,58,-75,-3554,-570,2544
125,-56,-94,-3378,-2094,2455
-50,-81,-29,-826,-1765,2331
8,127,-15,943,-2384,2376
95,46,-75,3132,-1308,3614
-125,42,43,3393,-371,2868
39,119,36,793,-368,1002
-38,96,-16,-736,577,-822
-66,-34,-22,601,725,-1004
-98,-96,-14,1280,251,-636
-83,121,-24,1409,198,-109
-84,110,-29,739,146,-180
-71,119,-16,-399,-25,-342
-63,95,-5,-377,-29,-495
-54,78,3,-39,-71,-438
-51,81,9,-207,-114,-309
-56,83,9,-259,-76,-220
-61,90,12,-454,-69,-71
-59,108,9,-734,10,-13
-55,112,5,-366,61,149
-54,-128,-5,-380,106,221
-50,-113,-13,-422,90,209
-44,-106,-23,-240,110,161
-40,-94,-31,-366,33,69
-40,-91,-33,-348,6,21
-41,-89,-32,-268,0,-10
-41,-87,-33,-253,-42,-55
-39,-87,-35,-284,-42,-103
-38,-86,-29,-332,-85,-122
-39,-84,-28,-389,-69,-135
-36,-81,-26,-450,-89,-110
54,-118,65,-5136,-2468,-3948
-92,100,-19,800,-3674,-5471
-94,6,13,6999,-2249,-11165
-125,-64,-34,7641,-4739,-12740
-48,-120,97,2935,-3114,-5578
14,103,104,-1458,10389,-2472
111,-26,-20,5748,12502,-3525
-108,-104,76,5709,9538,483
-12,43,-87,-2591,5348,-3970
74,-74,-95,-353,-1429,-223
8,9,-114,-1316,-2798,203
33,32,23,-252,-310,326
17,80,-42,-1475,-657,-76
16,32,-85,-2807,-2714,444
69,-34,96,-7213,-5307,-696
-11,-31,58,-10485,-3068,-1407
-120,-57,100,-9661,-1515,-300
-47,-28,19,-8197,-2071,1974
78,51,-77,-4547,-3008,2327
-82,89,-97,-1609,-2269,2919
-1,125,-104,162,-1150,2960
80,81,2,860,-2326,3359
-59,31,81,2315,140,3190
-122,32,48,2659,-710,2542
33,111,51,-387,-971,951
-54,58,-3,-1026,345,-801
-89,-87,0,1795,841,-449
-94,-112,-7,2156,341,-23
-82,120,-8,1051,58,-512
-59,112,1,-359,242,-774
-50,70,2,-524,289,-571
-48,46,1,190,153,-419
-35,45,0,185,141,-410
-21,55,0,-268,58,-365
-30,44,-1,-209,-52,-180
-37,59,5,-427,-90,-12
-36,66,2,-417,-6,173
-33,86,2,-571,-78,214
-36,114,2,-733,-60,194
-33,120,-2,-505,44,159
-32,-128,-5,-345,-38,192
-32,-105,-14,-493,-10,104
-31,-100,-16,-455,40,19
-31,-98,-20,-376,15,21
-34,-87,-31,-382,87,-106
-27,-96,-36,-200,52,-134
-22,-91,-42,-299,-42,-182
-25,-91,-44,-377,-19,-259
-28,-95,-43,-359,-88,-194
-28,-94,-37,-301,-67,-122
-55,110,-11,-7524,-811,-2953
98,-95,92,122,-4051,-4226
32,104,-65,4287,-2426,-7623
87,69,-49,6704,-2291,-14752
-87,-49,112,7981,-8495,-8247
26,119,-90,-5658,13450,-4424
124,-51,-44,10026,13120,-5050
46,-98,44,6075,9250,-673
-100,-124,-64,-6786,5872,-3154
91,98,-23,-272,-4095,-1312
0,6,66,-448,-1855,1547
-15,96,64,-206,309,155
31,47,-73,-505,54,333
13,90,-107,-1215,-195,98
60,49,-118,-2607,-1401,-14
28,-15,118,-3886,-4017,1084
-87,65,-63,-8425,-2665,-720
-108,-90,-20,-8130,-921,-1188
42,106,92,-8731,-695,1193
-101,-72,-110,-5484,-1693,2136
-31,73,-26,-4155,-844,2253
-53,-123,126,-3060,-1644,1700
33,-119,-83,-1963,-1091,2557
47,50,84,363,-762,1835
90,49,-111,782,-2128,2317
90,9,101,1347,-965,2515
41,-8,53,1557,-427,1529
-21,0,53,642,127,733
-35,-21,23,336,644,-42
-39,-77,6,589,666,-315
-33,-103,-12,837,616,-309
-38,119,-14,910,281,-497
-42,115,-13,236,119,-561
-18,96,-19,-18,381,-688
-3,60,-13,509,112,-742
4,30,1,796,-47,-696
-10,47,17,26,-371,-720
-12,26,35,-48,-211,-563
-15,19,50,-181,-258,-167
-35,40,57,-678,-315,333
-36,74,54,-1033,-43,564
-22,90,35,-734,296,762
-19,121,22,-632,129,884
-9,-98,10,-635,160,694
-3,-80,-13,-270,265,311
-8,-78,-16,-39,123,-38
-12,-87,-25,58,102,-219
-13,-109,-27,105,14,-346
-14,-111,-16,-121,-117,-359
-15,127,-10,71,-48,-424
29,-74,-111,-1085,-3816,-3385
-77,-57,-9,-701,-4037,-4516
69,-80,74,2145,-3432,-8403
-95,102,41,5470,-7717,-12158
38,-2,124,1221,-7711,-6135
0,38,101,-2384,117,-2337
-60,-2,-39,-1110,12033,-4990
125,-115,-97,6123,17828,-5786
-44,18,-11,1606,8975,-2184
17,67,-19,-5066,2132,-1921
-102,-51,62,305,-3094,679
-17,18,-93,148,81,396
-20,74,-67,-1194,434,-524
-36,58,100,-806,-986,402
-17,64,119,-3583,-3210,188
-128,-14,19,-6776,-3878,-848
-58,-57,75,-8985,-2648,-999
-124,-40,-106,-8230,-1722,-111
-49,-64,24,-6797,-875,2122
38,13,-60,-3864,-2239,2822
85,79,-66,-2233,-2925,2178
-99,73,-21,-600,-741,3776
17,80,77,-685,1076,2096
114,-31,-109,2110,-651,3007
-41,-6,93,1799,-950,3874
109,75,113,-289,-1487,2175
-5,84,-11,-1628,474,-688
-54,-61,-5,614,1083,-896
-77,119,8,1611,327,-352
-104,117,25,1074,-331,511
-94,124,0,348,72,501
-71,-109,-3,-424,233,74
-48,-114,7,-364,-21,-317
-46,115,16,121,-30,-657
-54,96,18,138,-8,-776
-58,70,16,77,5,-766
-51,67,10,-104,55,-518
-48,72,10,-316,1,-268
-50,68,5,-239,-49,-111
-47,84,5,-485,-50,46
-48,92,2,-417,16,172
-44,105,-3,-347,34,291
-45,121,-6,-388,20,346
-41,-124,-12,-376,39,345
-39,-104,-14,-357,12,304
-37,-101,-15,-185,54,159
-36,-93,-19,-237,13,41
-39,-94,-19,-205,6,-57
-38,-99,-18,-149,31,-105
-37,-103,-18,-84,25,-159
67,56,-50,-8324,458,-1335
14,-77,-2,-12388,-2246,-1374
22,-57,52,2101,-1047,-2950
-37,-44,112,7617,1492,-11694
126,-99,102,7302,-4405,-14083
-112,-124,-74,3398,-9744,-11308
-7,40,-114,-1509,1456,-2361
2,21,-33,-2346,14048,-4101
88,105,-103,8978,16212,-4961
98,-29,80,919,8503,-3684
41,-45,-103,-6468,2317,-1899
-63,-101,119,1003,-2565,-9
-45,108,-57,-403,-458,726
-7,106,22,-926,377,-311
-35,85,-67,-486,-29,475
1,116,-86,-1325,-1163,-351
-6,73,-13,-3178,-2527,-68
45,52,-93,-7935,-4204,-1766
-57,-25,122,-8344,-2211,-1069
87,-48,23,-6622,-1533,338
-13,-62,-89,-7133,-1563,1442
-58,99,-57,-6590,-2004,2948
-35,-49,35,-5336,-2311,1533
-43,99,-51,-1030,-2648,898
-13,67,-22,943,-1121,2129
39,-117,68,-386,142,517
-51,-2,-96,1734,-1164,1514
9,-53,56,3214,-207,2703
33,-23,19,2191,-203,1881
6,36,-6,-229,279,844
-34,11,-24,-1102,497,-284
-66,-84,-15,541,313,-330
-71,-126,-22,1148,328,-162
-75,-117,-21,623,103,-104
-67,-123,-18,14,37,-311
-53,115,4,-185,-62,-550
-46,79,7,398,94,-601
-41,78,18,109,-86,-675
-37,63,19,-162,-7,-649
-43,57,18,-260,-31,-360
-48,64,14,-416,-15,-96
-35,78,9,-550,1,64
-41,82,6,-343,74,261
-40,87,4,-71,54,478
-36,105,-6,-61,100,534
-35,114,-14,-183,31,509
-40,127,-15,-353,-12,525
-41,-115,-19,-373,-16,477
-37,-101,-16,-340,-44,338
-36,-95,-16,-160,-37,18
-92,94,-20,-6325,314,-2029
97,92,-27,-6122,-3313,-3123
123,-7,10,3843,-2835,-4205
-115,9,61,4857,-671,-11231
-126,111,-62,6063,262,-15259
-54,92,14,6142,-7762,-13572
115,36,59,-4186,13086,-2868
-97,-111,-96,5999,15033,-2961
-27,78,-27,2254,10532,4025
48,-22,95,-7067,4424,-5286
-88,-26,69,984,-195,-4869
30,-24,-67,-725,-1732,3536
-21,-97,4,-433,278,-134
-5,-102,-89,-1158,-1195,-349
63,81,-48,-1147,-1979,698
-2,44,-26,-3009,-4286,113
-95,-9,118,-4907,-853,321
28,-59,-10,-4789,-1943,-435
32,-126,54,-7854,-2401,-92
10,-3,126,-8664,-2049,1287
-41,0,113,-6201,-1148,2597
-101,105,-34,-4202,-1317,3139
4,-76,-84,-2959,-1338,2827
70,98,90,-1135,60,1794
86,96,-86,-453,-1403,2051
111,39,-102,859,-1484,3020
89,44,95,1082,-613,1806
58,37,50,1244,94,888
-6,-23,13,1691,197,152
-41,-72,2,1717,179,142
-58,-100,-7,1084,295,171
-61,126,-5,640,260,116
-51,104,-2,568,128,-149
-38,87,9,339,-36,-425
-31,58,20,187,-98,-661
-30,46,33,-10,-145,-702
-35,39,38,-157,-135,-547
-46,40,36,-434,-214,-530
-44,62,31,-861,-41,-124
-40,70,24,-762,10,-91
-25,99,18,-717,6,4
-21,119,11,-679,88,-114
-18,124,5,-341,88,-135
-23,-124,-4,-73,128,-124
-18,-124,-13,7,130,-228
-20,120,-25,103,40,-196
-3,114,-26,-191,-94,29
-23,-122,-14,-610,-213,178
-30,-100,1,-636,-19,239
-24,-101,5,-71,68,218
-98,62,-59,430,-4886,-4091
-61,107,82,7597,-2501,-10187
28,-121,-127,11462,-8134,-14428
-122,-110,-13,1249,-8729,-3695
95,122,-17,-5768,15442,-4993
4,29,-73,7553,13703,-4328
-120,-71,-104,4101,7215,1075
104,-36,-44,-9527,3211,-3334
-41,86,8,619,-1869,-165
-28,35,69,-888,-1450,983
-28,56,25,-242,336,-584
-43,15,-36,-600,-72,544
23,29,-113,-576,-323,28
32,22,-99,-380,-1122,556
57,13,-94,-1235,-1588,575
25,5,-88,-1830,-3028,1388
105,-20,65,-4898,-1334,-177
95,-40,-102,-7044,-194,-1144
4,25,-86,-7227,82,701
13,56,-96,-4625,306,1748
-62,-7,-72,-5123,830,1028
-17,35,26,-5025,-746,1229
56,75,-3,-4301,-930,1969
22,109,94,-3624,-1601,2274
84,53,8,-614,58,1802
70,34,44,955,-1426,1251
30,4,118,1233,-1887,2031
42,-18,0,1347,24,1987
14,70,43,-1116,-237,673
-14,56,29,-1143,91,-326
-50,-51,31,953,330,-547
-45,-75,-5,1178,687,-910
-29,-98,-21,744,616,-958
-5,117,-26,481,445,-956
-5,78,-21,659,207,-823
-3,68,-16,219,99,-620
-15,81,-17,-594,-56,-302
-23,81,-19,-522,-68,71
-18,89,-23,-423,2,296
-13,-128,-14,-758,-119,425
-6,-109,-17,-757,-54,469
-4,-81,-10,-768,-186,331
-3,-59,-5,-720,-167,106
-12,-53,-7,-417,-29,-2
-18,-54,-11,-251,99,-26
-10,-48,-17,-378,134,-117
-15,-55,-26,-284,60,-196
-8,-56,-31,-344,77,-229
-11,-63,-36,-274,46,-202
-12,-64,-35,-178,36,-209
-101,120,38,-10189,-607,-2855
6,40,-46,-2336,-6177,-83
-60,8,-112,5077,-1825,-7732
42,-60,-21,8967,144,-16243
-79,-57,72,5102,-2613,-10858
-52,117,-62,-1544,11296,-7016
44,49,-53,9263,11124,-6318
-33,-55,-94,4472,9917,-1551
-94,95,-38,-7488,2841,-640
40,8,-91,394,-2081,-3703
25,67,-6,-498,-1351,3114
-66,-76,-64,-286,97,-355
37,-98,44,-1043,-307,186
72,-85,29,-1106,-1391,509
36,-94,58,-3037,-3253,792
-90,73,-25,-5273,-2699,-305
-72,85,-106,-5988,-2070,-1511
69,56,45,-5043,-1366,-389
-19,-80,-13,-4560,-1122,1316
2,20,-39,-4435,-201,1812
-123,-114,32,-4454,-2076,3140
18,-90,50,-4657,-1094,3211
51,-101,6,-4092,-546,2442
29,-128,-55,-2932,-2465,2729
62,-6,-77,845,-2242,2713
-119,-46,-87,1894,-1316,2387
-60,-8,100,1652,-541,2753
95,60,124,-61,-706,1720
-3,0,38,626,274,15
-77,-110,26,1912,473,-696
-88,88,18,2100,503,-643
-73,67,22,1462,608,-6
-101,71,39,122,104,54
-89,77,39,-946,-49,-171
-56,71,39,-823,87,-405
-48,62,38,-341,47,-686
-29,53,37,-45,121,-803
-23,35,28,247,152,-828
-18,16,18,338,108,-793
-16,12,24,142,-17,-580
-22,5,41,63,-159,-171
-28,17,57,-84,-25,226
-27,32,64,-199,128,461
-31,48,53,-244,114,524
-17,64,44,-448,152,659
-19,80,29,-420,135,704
-27,96,17,-317,54,495
-41,111,1,-408,37,357
-41,109,-2,-280,2,360
-36,119,-2,-251,-84,265
96,31,-82,-8290,-881,-2795
59,-117,33,-6953,-4541,-4949
91,-21,-124,1682,337,-7178
-29,35,43,8782,-1538,-11919
-57,-95,78,6246,-3667,-10773
-35,-100,87,2801,5163,-7205
-100,-101,101,4230,15287,-6220
-31,-53,-27,8533,13774,-4401
-19,11,-75,-6349,7109,-1126
41,97,120,1879,-1129,-2449
-36,37,-109,-1694,-3356,907
-122,-122,-55,312,514,1369
-56,-120,36,-507,-260,-587
4,76,-37,-380,-1210,885
-42,90,32,-548,-1593,129
-9,68,1,-1646,-1316,623
4,-5,23,-1990,-3011,91
-4,-39,126,-8169,-3586,-2303
-3,85,-93,-7832,-3907,-1840
72,6,-42,-7333,-3310,479
65,34,55,-8159,-2398,1766
59,-73,-105,-6846,-1812,2342
16,124,79,-2845,-2291,3075
-72,-101,-60,-539,-1283,3705
56,100,29,1212,889,1734
57,93,123,401,-1914,1587
61,42,-117,253,-1744,3025
68,-32,41,1675,330,2293
40,-6,61,1197,158,1516
9,9,10,304,645,493
-32,-41,-7,676,632,-320
-48,-113,-19,1270,648,-498
-46,93,-25,1336,580,-327
-43,86,-27,704,389,-210
-37,75,-21,82,65,-386
-18,57,-3,-311,-265,-506
-21,43,9,-204,-412,-470
-25,45,23,-347,-378,-518
-30,56,32,-721,-422,-435
-37,67,33,-899,-361,-330
-44,80,33,-921,-285,-169
-50,107,27,-988,-172,-4
-48,126,21,-862,30,133
-42,-120,13,-373,186,270
-36,-103,-2,-73,246,316
-26,-88,-18,-227,266,198
-19,-87,-32,-163,184,146
-21,-83,-39,-181,112,64
-18,-82,-44,-180,70,-13
-20,-83,-45,-226,-13,-102
11,-104,-6,-6436,-1990,1304
10,36,64,-1549,-3837,-8757
93,-114,-127,5464,-2667,-10451
-16,3,29,6042,-3097,-13493
-100,-128,-49,7909,-1445,-5514
76,-37,-29,3610,17620,-4656
-18,39,82,8584,8428,-2192
122,109,106,-2064,4222,-1504
82,-113,39,-2389,-275,-1627
-31,-12,68,-652,-1600,556
-20,27,-42,-133,-266,359
14,40,-29,-802,76,-341
11,47,-114,-441,-323,531
85,60,95,-683,-1079,-84
115,-1,127,-1189,-2880,859
82,-29,-49,-3072,-3616,1277
99,-84,95,-5432,-2423,428
-59,73,123,-4539,-422,-210
-68,-36,15,-5316,-736,1018
-119,52,-18,-5653,563,1840
-110,-55,-124,-5705,1993,2417
-15,91,-24,-5379,474,3128
37,30,11,-1823,-12,3060
119,111,-92,-2442,-975,2706
-99,34,67,-2270,352,1931
-119,23,108,-1844,-716,2034
81,-22,-104,-353,-1095,1786
56,-21,109,852,-63,651
23,-22,65,1273,376,225
-7,-72,24,1227,569,-492
-10,-115,11,1039,642,-498
-10,106,-4,721,593,-387
0,88,0,265,114,-245
14,74,-4,88,37,-472
26,71,0,-226,110,-558
25,57,17,-121,-145,-718
18,49,27,-201,-304,-827
-1,55,34,-452,-125,-283
-41,68,23,-522,-151,240
-29,92,14,-616,-22,482
-2,111,13,-519,-11,542
9,-108,18,-666,-193,461
3,-91,20,-522,-92,116
1,-101,18,13,41,70
-7,-101,3,5,31,49
-13,-93,-1,-399,-56,80
-11,-96,-6,-270,28,16
-6,-97,-8,-98,-25,-22
-6,-97,-8,-137,76,-145
-12,-98,-8,-298,-30,-140
-55,82,107,-6102,-3192,-4397
116,-117,9,1542,-4217,-9688
10,-61,103,2416,-2407,-11209
46,24,-64,6920,-581,-12248
41,26,82,3350,4297,-3523
122,38,95,6254,13635,-4175
47,-89,45,5794,8075,361
-22,78,74,558,4879,-2117
106,63,-8,-3513,1192,-1524
81,-46,-100,-578,-2896,-395
-19,27,-78,-404,-169,1127
-19,77,-109,-973,7,-535
61,64,64,-753,-1003,662
54,55,88,-2480,-3209,535
-108,-37,40,-2951,-3724,1433
-118,-40,-94,-5427,-2307,-192
101,-25,47,-5453,-1523,-65
-27,7,-62,-3994,-444,1190
-105,-92,-32,-4587,-259,2825
-81,36,127,-4423,560,3282
-48,-69,-83,-6736,879,2873
26,-18,-43,-7044,-576,2234
57,78,-58,-256,-1209,2482
-106,-30,-91,2730,-566,3432
-128,60,-92,540,-1940,2862
118,23,103,-322,-142,2195
69,-19,82,938,394,1462
-7,-65,61,2208,-1,420
-22,-106,31,1888,265,-222
-44,97,14,940,691,-600
-47,66,17,333,707,-292
-59,46,18,222,231,-133
-34,40,20,23,-116,-230
-19,41,34,-194,-177,-470
-19,31,40,-269,-279,-616
-23,35,52,-647,-389,-768
-23,40,54,-880,-263,-698
-28,44,51,-821,-156,-553
-30,52,43,-575,-138,-324
-30,69,36,-649,-167,-131
-26,91,26,-747,-44,19
-29,110,17,-570,63,181
-27,124,8,-462,77,283
-24,-109,-3,-449,133,315
-20,-96,-10,-445,106,293
-12,-85,-17,-321,129,185
-9,-74,-22,-272,25,38
-11,-72,-21,-213,-29,-139
-15,-75,-16,-193,-32,-206
-21,-84,-11,-136,-56,-252
-13,27,-81,-6483,-862,1723
-111,-97,114,-5129,-14,3179
-113,108,-128,-5124,384,3066
-29,-56,12,-5198,-172,2424
-6,-128,64,-2413,-790,2541
55,-101,38,-1246,-1439,3209
107,-20,-123,2312,329,2422
110,-39,116,2759,-1048,2779
107,1,87,94,-489,2543
63,35,24,-1762,800,723
-6,-40,-2,-272,701,-92
-35,-101,16,1327,30,-222
-44,127,7,1269,156,-178
-57,106,-3,681,227,-337
-52,107,6,-153,61,-357
-44,98,22,-454,-230,-417
-24,71,46,-29,-43,-647
-21,61,45,152,-12,-651
-22,67,44,-318,-63,-756
-25,57,35,-401,-1,-529
-34,55,31,-319,29,-238
-34,64,25,-320,24,85
-27,90,23,-540,31,230
-21,102,21,-503,86,319
-17,117,18,-408,58,326
-10,-119,15,-392,55,359
-18,-108,16,-280,61,265
-15,-96,14,-227,75,126
-35,-73,10,-340,-33,258
-23,-71,1,-321,-83,153
-27,-64,-1,-325,-98,125
-32,-54,-2,-388,-141,53
-26,-55,3,-146,-119,-16
-7,-51,7,-147,-79,-77
9,-53,8,-51,-74,-190
-12,-60,-3,68,-95,-400
-5,-68,-3,-153,-16,-419
-12,-89,-10,12,-76,-416
-18,-92,-18,-184,-20,-431
-2,-107,-18,-155,71,-182
-10,-110,-33,-28,-86,-17
-13,-99,-40,-329,-37,-10
-25,-97,-42,-403,-138,106
-29,-89,-41,-395,-91,239
-18,-80,-37,-324,-36,426
0,-66,-41,-219,91,369
18,-63,-50,-57,-57,346
-3,-56,-56,-166,-216,192
-47,-48,-49,-494,-193,74
-49,-58,-37,-335,145,152
-30,0,-94,-7279,294,-3752
65,9,-107,-3484,-1719,-4374
8,-124,-23,1434,-1071,-3956
-79,-106,-115,3381,-801,-4799
55,112,-119,8199,-4269,-7986
66,24,-43,8229,-8901,-7298
-67,-85,-68,-1025,-1013,-4748
-99,-69,-60,-649,9646,-4677
-55,-43,90,8755,13853,-7112
86,116,29,4216,8401,-4605
12,61,1,-6350,7020,-1283
68,21,-97,172,-6638,10
80,23,-84,-266,-459,704
-83,127,88,-185,151,612
-10,78,-72,-333,-164,89
16,88,-112,-1040,-1196,426
75,45,-46,-2000,-1211,110
10,51,-25,-3450,-1783,351
87,1,103,-5511,-1022,-883
26,-44,-4,-5336,-906,-854
34,7,-121,-6659,-1197,237
17,108,-55,-6226,-327,1356
-21,-55,-7,-4731,-895,2611
-47,23,10,-4900,-1128,2460
17,32,-2,-3352,-201,2399
25,-9,115,-741,-897,2326
82,-17,99,59,128,2248
89,-20,56,-340,60,1802
48,20,89,-1192,-880,1650
14,-5,53,-306,-211,918
-28,-32,39,720,132,71
-45,-54,15,798,376,-378
-61,-95,1,893,385,-342
-67,-120,-7,558,291,-282
-46,-121,-2,-3,179,-361
-22,105,-6,55,151,-616
4,91,2,-273,42,-691
-11,90,-1,-415,-102,-539
-46,100,0,-782,-377,-481
-42,-121,13,-1365,-148,-277
-22,-118,-4,-922,268,-238
-2,-101,2,-650,49,-22
-1,-60,-13,-803,104,-236
-5,-62,-12,-507,120,-259
-17,-61,-18,-236,177,-246
-10,-74,-23,180,170,-252
-9,-86,-33,303,72,-263
-16,-89,-38,-91,-85,-143
-26,-98,-26,-301,-125,243
-20,-86,-8,-239,-165,582
-42,63,70,-4777,-3286,-1931
58,127,56,-2978,-3282,-6955
13,81,-51,4483,-1349,-11091
112,0,39,5505,-4674,-14880
-123,11,-47,3735,-13835,-6442
-6,-42,120,-4461,2038,-869
-65,-117,-36,-1622,14754,-4399
-118,64,-97,9861,22126,-7810
-43,-33,87,-1143,9000,-5042
-51,-37,1,-4946,-587,-276
-80,-6,-45,624,-2251,467
-68,-86,-7,-502,-352,135
-43,-105,6,-678,63,1
-42,-108,-68,-995,-1221,22
-6,114,-39,-1053,-2360,288
-17,88,-11,-3976,-4958,805
-122,-12,110,-6276,-4600,214
-106,7,103,-6372,-4052,1986
-51,-22,-117,-4106,-1359,2924
107,-81,109,-5717,1962,2525
82,-83,-94,-4975,1632,2865
-106,-25,-29,-4773,1771,2971
30,-64,-13,-7781,293,2913
-2,-118,52,-4778,-1484,2002
6,109,-26,3216,-2563,2263
102,-92,-112,4587,-1731,2206
100,-6,76,1613,-138,2057
-5,-3,50,-166,295,1511
-40,33,72,-1501,-166,324
-70,-45,80,-248,-59,-769
-71,107,69,649,631,-1355
-54,31,53,1526,883,-1041
-74,18,44,1153,422,-423
-85,39,53,-180,-88,79
-57,51,40,-663,106,184
-47,64,42,-740,26,-73
-38,50,26,-124,100,-238
-51,55,25,-181,-205,-19
-69,76,19,-148,-472,166
-48,71,21,502,-354,189
-39,71,28,617,-173,-94
-40,87,21,-417,-54,-239
-57,99,21,-1339,-112,-187
-78,75,-1,-613,21,343
-119,108,-3,-307,-384,720
-52,120,-25,-114,516,565
4,-89,-28,-739,552,171
15,-97,-46,-397,215,-607
-39,112,-10,358,-586,-539
-21,107,10,166,12,-329
-96,-99,25,-1221,-2529,-7937
-14,77,84,3140,-1728,-6687
-127,21,-93,6709,-7317,-9730
-81,81,-36,3418,-6715,-9872
-84,-48,-74,1886,-6489,-4219
56,65,-93,467,-2528,2541
-70,-127,-58,-587,657,-466
-2,94,104,-492,-307,-207
10,94,126,-559,-161,-63
10,67,-112,-471,-403,156
13,56,-107,-406,-732,271
8,69,-77,-700,-1087,265
-11,54,-85,-2541,-2070,-114
9,50,59,-4225,-2942,-833
-126,16,-47,-5110,-1638,-2477
46,58,66,-5476,-1651,-399
41,102,-17,-5147,-951,1005
-38,-1,-90,-5452,-498,949
-58,68,-48,-5054,-704,1716
-93,105,0,-4738,-924,2183
-49,-73,102,-3838,-2676,2875
2,-120,66,-2148,-1949,1771
29,123,91,-1380,-975,1571
10,18,74,856,-158,1647
1,-5,84,1933,-1003,1909
3,-45,48,2118,-859,2200
-2,-14,41,513,-446,1582
-17,21,28,-1115,298,503
-42,-43,9,186,444,104
-95,-75,5,1104,-32,-96
-95,-87,-2,562,66,-578
-74,-106,-7,-108,358,-818
-50,105,-8,-204,403,-906
-53,87,-8,54,119,-705
-52,84,-9,-78,13,-577
-39,82,-14,-295,40,-460
-35,83,-15,-388,2,-352
-38,83,-18,-344,-45,-197
-45,91,-15,-355,-119,-10
-42,107,-13,-530,-83,116
-37,116,-11,-439,-51,248
-43,-119,-12,-419,-89,335
-43,-101,-11,-497,-36,282
-39,-89,-11,-439,62,218
-33,-88,-17,-142,83,176
-32,-81,-26,-200,76,95
-33,-77,-33,-216,48,-6
-31,-84,-35,-146,47,-63
-33,-87,-38,-166,-10,-113
-33,-90,-40,-224,-43,-133
-16,-30,55,-487,-4513,-3514
-27,-58,-77,2435,-4349,-6253
-1,-16,-87,7921,-5305,-12822
97,3,-35,4743,-6379,-6635
112,44,-84,-6638,12550,-3882
-44,-128,-93,9266,16136,-4433
17,-103,-45,8384,8685,-319
-55,-119,32,-7445,2969,-3489
75,-97,81,1004,-2485,16
-67,123,112,-830,-1589,796
-55,112,65,-815,-429,12
-41,89,5,-490,-58,99
30,107,-78,-335,-293,338
31,117,-67,-801,-810,138
41,91,-51,-547,-441,84
18,83,-38,-1269,-659,-22
8,42,-22,-1989,-707,-128
6,50,-56,-5431,-2291,-1288
-91,-32,72,-6229,-1794,-1293
91,27,-110,-7169,-1496,-435
102,-122,17,-7201,-669,396
-7,17,-22,-7096,-473,2451
53,107,-8,-5275,21,2265
74,73,-16,-2815,-899,1758
-118,90,-44,-2115,-1001,2315
99,22,-71,-193,-2306,2235
76,-43,-105,681,-1422,2609
66,-43,110,266,-424,1933
32,-17,96,-333,-69,960
4,-30,74,158,14,357
-32,-68,49,921,69,50
-25,-94,47,879,324,37
-29,-121,15,926,649,-199
-36,93,10,837,246,-684
-19,59,22,326,144,-721
-15,45,30,-162,51,-687
-24,24,34,-96,-8,-497
-20,30,28,-225,-34,-450
-14,39,32,-467,-90,-308
-17,51,28,-485,-128,-59
-21,75,30,-645,-193,-1
-20,95,30,-762,-37,45
-24,116,32,-632,-138,111
-14,-114,32,-736,5,108
-14,-99,26,-643,80,-7
-10,-86,25,-489,18,-11
-13,-81,19,-336,139,-40
-15,-78,10,-309,138,-77
-9,-75,2,-269,123,-77
-6,-74,-3,-248,37,-135
109,10,82,-1399,-4944,-5303
114,65,122,-992,-6148,-4703
-45,-123,-76,6354,-5816,-9339
-58,-124,-82,5554,-6248,-8242
-123,-87,4,-2706,-181,-5950
-42,-9,62,764,12324,-7146
-98,-119,-39,11479,14678,-8801
64,83,56,4383,8033,-4357
-77,15,-15,-12420,-494,956
-79,-5,-75,2386,-3292,-2936
-70,71,22,-507,596,3043
-83,-104,1,-681,1100,-930
-13,106,-116,-1026,10,126
-14,-116,-126,-323,-8,152
-22,-112,-109,-568,-145,-113
23,116,-94,-730,59,-61
19,105,-95,-847,-721,-10
31,126,-22,-2740,-1934,-365
-71,-123,12,-5241,-3944,-123
-112,-45,57,-7626,-2581,-1177
-74,-13,59,-8097,-782,-119
17,111,-76,-5445,-567,1781
-69,19,-2,-4123,-1305,3442
-53,14,40,-2013,-1422,3666
-21,-45,69,-1174,129,3316
-99,11,45,-2469,1755,3132
92,-38,-120,-2438,-346,2345
-93,-118,122,-355,152,3542
-124,-23,118,-84,-588,2528
27,68,75,-1098,-770,-65
-47,-30,36,-132,365,-1065
-97,-115,46,1057,435,-430
-120,109,39,1852,330,530
-88,106,3,1535,194,38
-47,111,19,-217,54,-927
-38,77,42,-773,-201,-1174
-37,28,42,-286,76,-861
-49,25,36,-53,-92,-711
-45,35,26,-372,-18,-483
-33,32,15,-359,105,-269
-34,50,9,-740,-131,33
-27,78,15,-789,24,255
-6,103,9,-553,117,100
-15,120,13,-317,-136,-2
-33,121,10,-71,36,-101
-41,118,6,-298,152,89
-30,119,10,-528,237,461
49,-125,50,-67,170,645
35,-128,27,876,-28,207
-61,-95,23,-205,-338,-571
4,17,126,-2040,-5030,-5364
81,-76,55,-605,-4802,-7009
52,27,86,3487,-4374,-10871
-92,-97,55,5858,-6931,-11300
47,-92,-39,-4199,-326,-1728
-114,-28,-56,2583,14567,-5643
-46,-9,-34,6119,13489,-3919
82,-96,-123,873,10266,-1996
-66,13,-31,-4237,2626,-2528
31,-92,84,-1324,-3096,64
-56,11,-118,-68,-10,1158
-81,-123,-75,-796,752,-610
-11,108,42,-715,-393,432
24,105,68,-590,-568,-427
-13,98,115,-1048,-635,-93
-18,60,113,-961,-772,127
-6,19,107,-2551,-2451,-17
-48,-73,97,-4099,-4151,2044
73,-108,-84,-6445,-2103,177
21,24,-16,-7356,-385,-704
-66,36,-99,-5570,308,377
-119,82,-62,-6734,-956,2734
-93,109,-25,-5327,-10,2491
51,31,89,-5466,968,1776
60,-88,60,-1617,-2212,1763
78,94,56,1081,-3283,3197
92,99,-31,566,-1916,2765
60,99,-121,116,-693,1660
18,112,-127,-461,-545,357
-22,47,77,495,188,-115
-39,-13,60,1134,255,-328
-68,-12,52,375,79,68
-97,-30,11,-51,357,-289
-71,-60,0,270,537,-530
-29,-89,-9,366,493,-573
-17,-108,-14,265,236,-681
-26,-110,-8,-204,-98,-595
-30,-111,1,-595,-83,-426
-44,-122,0,-268,-68,-277
-46,-101,4,-578,-139,-150
-31,-93,22,-660,-132,10
-19,-77,28,-682,-20,27
-37,-43,19,-1052,-118,-78
-27,-24,21,-1357,80,-2
-60,-24,19,-499,168,128
-60,-37,1,522,113,432
-23,-20,-11,196,52,376
7,-12,-9,-143,-14,106
19,-25,-5,90,0,-263
-1,-44,0,95,-130,-258
80,-103,124,818,-4616,-10321
25,17,-42,8309,-7835,-9059
-19,-29,118,10244,-7961,-8506
93,-100,65,1485,2687,-6053
18,-99,-35,-115,-3286,-1965
-51,-73,-28,1309,7954,-3290
56,-30,110,2063,8346,-3658
-105,-31,52,1084,4603,-1852
-56,-37,114,-1412,3864,-2815
105,33,-86,-1129,2313,-779
70,32,-16,-789,-1769,-131
-2,52,-40,-213,-867,360
-62,93,78,-499,135,180
-13,97,-45,-468,-653,-95
11,81,-33,-792,-1174,595
-19,58,29,-2423,-2739,-74
-46,-22,-12,-3557,-4927,1998
-101,-90,127,-6874,-3289,-627
-104,-78,71,-8214,-1265,-1057
41,36,-100,-8833,50,336
115,5,92,-7329,-1445,2902
-128,-23,-6,-6291,-1738,3361
8,96,45,-2275,587,2668
-98,-5,-83,-5026,-1483,1521
123,-55,38,-3876,-3582,1345
-121,118,46,-161,-1868,2366
79,-96,26,2238,-1400,1076
1,111,-95,4002,-1151,215
-53,90,10,2299,244,-1028
-50,41,0,596,1182,-845
-58,-42,4,985,678,-312
-39,-92,3,1234,256,-384
-12,-127,-14,1037,389,-850
-2,111,-5,18,308,-860
-13,98,-14,-455,165,-554
-22,87,-4,-179,-63,-178
-15,105,-9,-520,-93,81
-9,127,3,-803,-176,175
-3,-112,10,-701,-105,199
-12,-96,16,-515,-95,185
-16,-87,14,-350,4,276
-16,-79,7,-223,92,305
-4,-66,0,-155,75,200
4,-69,1,-36,49,84
-8,-64,0,-252,-49,-12
-17,-73,1,-186,57,-12
-16,-75,1,-202,39,17
-12,-73,0,-239,5,-25
-12,-70,0,-320,-19,-89
-12,-81,1,-111,33,-56
-37,-45,30,-7267,-873,-5476
36,-122,71,2151,-2969,-4179
25,-37,-10,6167,-3399,-7530
-66,109,-51,12062,-7491,-13255
19,126,-53,7673,-10790,-7011
-18,-62,31,-10169,4584,-4392
58,-90,62,1387,11667,-6140
101,125,84,4389,14792,-1510
-85,25,-60,-1004,6014,-2160
-9,-100,-52,-1794,372,-3423
-110,1,-112,-1122,-679,645
0,88,-57,348,214,796
-11,-83,-64,-908,599,-327
53,-109,126,-169,-230,355
22,-70,-95,-663,-261,-431
19,-114,-76,-543,-427,58
19,126,-83,-1326,-869,-203
20,88,-102,-2440,-1775,-893
20,79,-110,-2927,-2139,-289
43,59,105,-4265,-2295,-1948
-72,48,-34,-5147,-2008,-2434
-109,104,118,-5054,-2327,-709
39,-55,39,-4934,-1843,531
16,114,-15,-6574,-816,1124
-3,-65,52,-5658,-672,539
-64,-57,119,-2695,-638,635
-75,-103,25,-1808,-1970,2091
-3,-126,-49,-1275,-959,2168
-26,120,-16,-851,-1439,2308
44,76,-62,-134,-1346,2710
47,8,-78,842,-1276,2318
46,-22,-104,506,-687,2030
17,2,112,-439,-165,1073
0,-18,83,-33,225,154
-21,-65,61,862,301,-101
-42,-116,43,1103,272,-239
-43,121,43,750,167,-101
-54,96,57,592,-58,-76
-44,74,57,573,92,-71
-41,80,69,-123,-82,-262
-35,75,71,-391,-17,-260
-41,67,80,-113,-52,-177
-39,68,68,-92,116,-132
-29,89,67,-447,61,-130
-26,93,61,-407,-58,-88
-23,100,65,-299,72,-31
-27,119,56,-423,93,-93
-23,119,53,-298,75,-72
-22,-126,50,-297,57,-73
-22,-128,46,-175,90,-39
90,-97,61,-2660,-1731,-4499
7,-115,-104,1201,-5770,-4759
-69,-71,-114,5842,-7448,-10128
-57,-53,82,6782,-9628,-12397
-115,-26,23,-1415,-4316,-3161
95,70,-59,-6428,3877,-3142
-40,-37,7,5980,15783,-5197
16,-128,-77,6993,13061,-2798
-53,112,10,354,5541,-1908
-60,-114,-59,-6141,3443,-1712
21,-31,121,3,-3309,-1014
-89,12,-41,0,-234,816
-81,66,12,-281,635,146
-21,76,-97,-445,-456,196
-6,96,-71,-308,-392,155
-2,98,-61,-39,-846,664
5,92,-33,116,-1941,1163
-50,78,7,-1612,-3704,1157
59,-6,-68,-5361,-4068,468
38,124,22,-5723,-2695,-581
20,-108,98,-6028,-1185,629
97,-14,-20,-5601,21,1715
93,-100,-87,-7149,1285,2311
102,10,113,-8036,1472,2284
-69,100,-6,-6097,1054,1833
31,-123,32,5528,-617,4372
-103,-37,-74,4545,210,4428
105,-116,125,-3741,556,1603
43,-23,98,-4521,-96,1122
44,-58,83,-2804,-971,2125
12,47,90,-2284,-1217,928
-19,1,33,103,15,-752
-59,-62,45,1888,320,-458
-83,-111,28,2054,225,-530
-92,110,26,1427,0,-472
-71,106,19,-26,329,-217
-66,95,17,-632,134,-310
-55,80,20,-322,-12,-146
-38,79,17,-139,5,-237
-44,90,16,-361,-75,-264
-48,87,12,-395,-29,-197
-49,101,14,-469,-103,-33
-37,107,12,-363,12,-8
-40,-126,14,-536,-80,-113
-38,-127,11,-362,97,-140
-38,-125,8,-285,48,-73
-29,-126,3,-161,107,-26
-25,-116,0,-269,30,-48
-29,-117,-3,-251,73,20
-29,-110,0,-313,77,37
49,-75,-84,-10265,227,-3146
73,102,97,-5476,-6629,-797
-91,-104,-57,3087,-4860,-2199
127,-34,-55,6754,-2601,-13852
-53,15,49,7366,-6610,-16488
-125,-67,41,1711,-13371,-4809
-81,57,107,-8765,16293,-2811
36,40,-55,10006,16206,-8587
-6,12,-31,847,16490,-6518
82,-90,-30,-5076,-2126,1448
37,-87,-48,1079,-2262,9
106,72,-26,-385,-277,668
119,95,21,-1076,282,-474
-117,53,-69,-494,-161,523
-72,67,-95,-723,-338,-452
-81,33,-67,-1609,-902,83
-91,33,-68,-4229,-2836,-41
0,8,25,-9333,-4065,-1231
89,114,30,-10022,-1397,-794
8,-52,87,-9660,-64,1594
-102,-33,85,-6998,6,2212
-5,64,-8,-4528,252,2158
96,-75,-36,-3870,-1361,1036
-119,74,9,1051,-2215,1446
76,88,-15,944,-2796,1749
38,16,-125,1865,-1182,1951
0,-18,78,2575,-796,1571
-9,-7,65,1497,-325,1553
-24,18,53,-291,207,671
-53,-22,42,143,372,401
-82,-55,27,699,202,176
-80,-68,9,618,353,3
-74,-82,-7,418,372,-460
-62,-120,-7,591,197,-807
-34,93,1,487,84,-1002
-31,70,11,156,-79,-1106
-51,56,22,-225,-349,-1027
-58,46,31,-541,-222,-732
-61,49,30,-682,-79,-409
-57,60,22,-564,-90,-128
-46,89,21,-315,-163,47
-49,112,13,-542,-104,52
-56,109,6,-290,-7,292
-37,117,-2,-266,39,524
-33,-125,-12,-272,-71,533
-33,-113,-13,-244,-174,416
-31,-93,-9,-486,-134,203
-30,-96,-1,-344,-139,167
-44,-92,1,-258,-105,99
-58,-83,0,-410,-90,17
-114,116,-60,-7240,569,-1856
-87,-30,118,-9535,-3011,-2625
73,-125,-113,3190,-1490,-5261
-88,-67,-126,6864,-363,-11558
-35,88,-121,9259,-5926,-16048
63,124,49,9476,-6980,-6846
61,95,-119,-6300,12741,-3528
66,98,-60,3564,11625,-3951
89,-98,-102,5666,6522,-1134
-84,99,-48,-5259,1576,-3476
-65,81,86,-202,314,-1064
-42,-75,49,-346,-719,541
-32,-2,-80,-522,-215,-196
-71,13,-47,-536,410,296
-52,44,-118,-748,-327,-272
-8,36,-124,-744,-719,100
11,7,-87,-1807,-1537,24
12,24,-86,-4895,-3214,-501
93,-57,49,-8086,-4345,-2214
-98,127,26,-7298,-4378,-1146
0,85,114,-7470,-2491,460
24,15,89,-6369,-961,2668
9,-67,8,-4478,530,2306
115,-46,-103,-1932,-1298,3594
-56,43,-67,-2411,-1092,2431
67,-85,-56,-118,-690,2179
14,80,-73,1303,-1098,2420
59,66,109,258,-511,2514
50,-9,96,1364,-1002,2366
50,-55,70,2588,-418,2561
19,6,24,1144,-126,1239
-39,49,4,-1613,54,-1377
-52,-87,21,-374,177,-1350
-73,77,43,751,52,-749
-80,87,34,175,6,-513
-71,91,31,-381,121,-331
-56,77,16,-241,211,-290
-43,81,11,-163,121,-300
-33,81,2,-197,67,-324
-39,75,0,-188,14,-75
-52,101,-8,-614,-61,309
-54,-123,-6,-701,-139,295
-31,-99,8,-543,-117,-94
-38,-105,12,-228,43,-232
-42,-107,13,-172,122,-250
-33,-116,13,-140,235,-149
-24,-110,15,-91,125,40
-13,-101,6,-216,2,-21
-39,-104,-2,-144,-3,-174
-37,-120,-7,-140,109,-33
-77,-69,76,-3295,-2873,-3367
-63,43,-65,-1635,-6764,-3548
-81,62,12,2788,-6729,-6310
91,68,-109,4112,-3626,-14075
13,1,-39,5040,-9188,-6929
95,-51,38,-5949,-1350,-771
-39,-56,-64,-1812,10768,-5928
106,47,-91,6354,23975,-7504
31,100,-2,3442,7352,-842
39,57,-8,-6270,248,-4005
117,1,-122,-704,-795,176
-1,32,-123,-78,-664,242
122,87,0,-637,-402,65
-119,73,-25,-674,-107,106
-78,86,-48,-727,-415,-404
-64,58,-18,-1116,-689,8
-53,50,-44,-3218,-3655,812
65,-28,-108,-5739,-5070,151
-28,122,-90,-7373,-3706,-1441
-106,-45,-71,-8038,-1266,-1592
117,-23,73,-8981,-1845,1487
8,-77,67,-6771,-35,2346
56,-87,122,-1916,-2000,2861
-120,18,39,-676,-2835,4877
33,-116,108,475,141,2085
34,70,-109,966,-1022,2281
83,58,-128,-130,-1045,3021
48,-49,-114,2070,-971,2732
27,-24,82,2078,-83,1565
-52,-49,37,1884,248,47
-71,-90,12,955,481,-642
-92,98,22,100,418,-830
-96,75,29,-212,183,-328
-100,49,25,142,84,-244
-70,54,20,-149,24,-569
-46,44,26,-195,-79,-651
-51,34,28,-284,-224,-673
-63,32,28,-399,-265,-571
-64,30,25,-459,-215,-359
-63,52,28,-729,-274,3
-54,70,21,-741,-110,80
-51,94,16,-807,-116,82
-55,121,8,-816,-89,94
-60,-126,1,-605,-9,118
-59,-111,-9,-553,58,136
-53,-87,-22,-562,-9,67
-42,-84,-27,-380,55,-64
-43,-75,-33,-411,-41,-190
-46,-82,-37,-266,-17,-274
-44,-85,-36,-256,-39,-285
45,34,-123,-4364,-3782,-1738
24,-15,-122,-2520,-2585,-3975
-123,94,120,542,751,-6665
40,26,-60,8493,-2821,-15276
126,99,-42,6527,-10279,-10893
-108,-54,-109,182,-8300,-2928
-18,-104,-121,-3744,11853,-2503
-19,-43,77,4108,15013,-3874
40,29,-7,8173,14370,-6478
105,-29,25,-5274,832,-2051
83,-41,-67,-1445,909,-1253
-78,36,68,216,-56,416
-58,76,-112,-869,-1247,68
-29,34,-59,-180,541,22
-66,90,-125,-676,-236,176
-4,59,119,-271,-604,140
-13,58,-111,-1404,-1621,198
-55,46,-80,-3409,-3858,719
77,-44,86,-5206,-3985,-190
123,-83,-32,-6104,-3196,-888
77,-31,9,-5871,-1070,372
120,75,-70,-5179,-237,1434
119,-44,-69,-5690,-166,2292
48,-113,-78,-7148,-471,2798
121,-66,10,-5151,-1261,2749
-76,119,-109,-1333,-1192,3343
-3,63,-69,832,-1842,2601
52,64,-82,851,-1046,3008
67,45,108,817,-408,2271
26,-85,96,2753,-700,2279
3,-36,93,1369,-332,1854
-53,-4,24,-488,664,-74
-86,-64,9,-500,673,-949
-98,109,15,545,362,-805
-97,65,9,1047,191,-448
-90,70,3,396,76,-412
-76,72,7,-310,-28,-591
-58,45,17,-231,-167,-619
-54,37,26,-97,-261,-674
-53,36,32,-333,-315,-667
-59,37,40,-579,-266,-473
-70,42,33,-568,-135,-255
-70,52,33,-550,-124,55
-66,79,24,-618,21,282
-67,96,12,-507,102,253
-55,105,4,-378,96,320
-33,120,-8,-222,128,337
-48,114,-20,282,36,276
-64,117,-29,165,-42,341
-81,122,-33,26,-17,326
54,46,71,-7587,-4048,-1320
105,48,-72,-127,-1061,-3830
38,-103,-23,4152,-1017,-7341
-36,99,-46,6150,-1846,-14542
91,-16,52,9480,-7079,-14147
-92,-13,-25,-6166,1109,-3648
-93,-112,110,3565,9557,-5233
-15,73,10,6468,13068,-3234
-87,29,111,4552,8308,-747
-6,86,-82,-7422,4424,-3517
111,70,-54,782,-421,-1194
-128,50,-12,-2241,-2371,933
-8,73,99,233,1931,301
-6,115,119,-1106,-289,-569
55,80,-126,-465,-650,275
34,86,-84,-2072,-1796,-265
51,27,-66,-1264,-2372,915
23,98,-123,-5408,-4939,46
-74,-108,-61,-5232,-3063,-855
100,23,16,-7302,-1258,-211
0,127,-113,-7088,-49,618
-16,-20,102,-6877,52,226
-91,-123,-79,-5998,-1126,1496
-121,-77,44,-3971,-1567,1472
-72,-25,-118,-3903,-1005,1768
-12,57,-48,-4587,-1562,1242
-31,-123,36,241,-1959,1061
-9,88,-28,1269,-783,1195
34,-13,127,-1534,-862,736
-12,-116,-121,-619,-1464,342
-42,53,-125,151,-839,1022
-39,86,79,-299,-735,773
-36,64,81,119,-968,583
-25,58,64,348,-528,637
-30,73,33,-41,26,119
-37,64,19,-490,391,-448
-55,39,17,-349,393,-402
-62,9,2,29,429,-412
-50,6,-1,25,275,-342
-35,6,-6,-227,178,-379
-27,-3,-2,-309,183,-378
-27,-10,-1,-300,171,-414
-19,-14,-5,-282,142,-232
-23,-8,-6,-350,0,-144
-20,-10,-5,-259,-67,-37
-22,0,-4,-413,-112,-9
-18,1,3,-436,-119,49
-20,7,4,-470,-64,131
-11,21,11,-740,94,204
-21,8,17,-312,-119,-22
30,-46,-5,-3100,-2816,-3376
-21,48,122,-7647,-11352,-1050
-75,21,-29,-6307,-4817,-4173
34,92,-106,-1760,1713,-11561
25,81,-70,4687,-7621,-11844
-78,-38,110,2037,2094,-9743
99,-37,23,3277,8202,-6635
65,6,24,3811,11277,-5052
8,-114,-88,2698,10735,-3850
13,-103,94,-8832,5049,-2729
93,-13,102,1488,-248,-3616
-50,-22,-89,-554,-1792,2642
-3,-92,-41,47,-1137,-314
-3,-91,-30,-662,-14,496
39,-58,-86,-1924,-2303,155
-126,-75,29,-5644,-6098,1121
-99,-40,126,-7418,-6357,-805
-73,-80,104,-6035,-4780,1204
-105,44,-6,-5794,-2880,3215
-125,15,-50,-5027,1136,6420
-39,-78,58,106,3565,4794
49,-17,98,-3963,2096,5440
25,119,-118,-7224,-805,2346
80,13,119,-774,-971,1481
-113,66,46,-162,-2252,2011
23,-85,53,1841,158,371
-36,124,34,2704,-514,557
-48,108,112,1987,-1126,1622
-5,126,5,632,1259,1148
-52,-120,27,-381,537,-201
-83,64,37,53,-66,-523
-85,31,48,701,-94,-350
-90,14,44,685,187,-451
-77,-1,56,349,93,-469
-68,-14,51,150,162,-267
-72,1,66,-370,-169,-195
-52,-5,50,-579,78,-206
-81,-4,62,-309,-159,-49
-80,-19,35,153,269,171
-25,-26,32,298,16,700
-118,100,70,-1322,-905,1203
-93,120,27,-1306,213,-372
-23,31,21,449,810,-1026
-62,23,29,888,-88,-289
-73,45,21,-149,-245,-138
-76,57,16,-796,82,-238
-47,28,3,-185,177,-98
-37,64,-9,-894,-98,-127
-54,66,16,-534,-197,-30
-56,52,7,322,117,83
51,-92,-119,-6662,-2152,-662
18,4,99,-3087,-9922,-1316
8,-87,-101,1088,-694,-8851
-111,-23,-103,8417,1836,-15666
37,0,-13,16052,-6089,-12783
71,-26,72,-7395,1540,-5760
28,90,-69,6422,11275,-6091
-20,81,65,3233,10835,2941
120,62,-109,-5736,5334,-1404
61,54,103,-827,-474,-6278
13,-125,-109,-990,-1642,3310
-65,-97,-51,-146,491,-1400
36,56,103,-36,372,511
28,118,84,-471,-102,-76
58,99,99,-542,75,-519
37,103,-126,-1651,183,-1226
66,-10,123,122,-576,149
97,93,122,-626,-1324,298
-111,88,-98,-2722,-3226,-116
-71,49,105,-5575,-5262,-1367
-90,82,56,-8690,-6482,-1688
-110,-110,-5,-9190,-2652,-1250
-8,108,30,-8315,-2446,2810
-24,-79,-39,-4917,-2013,2719
45,-32,-71,-1152,-2594,4393
-17,-35,35,686,-1677,3855
112,-36,4,125,-1042,2664
-81,109,-34,463,-1110,3779
-17,-21,-75,2045,-2148,4024
-126,-100,-85,-1029,-2178,2398
-3,47,58,815,-266,-641
-81,-105,-2,2662,1212,-1615
-70,112,-2,1845,1119,-981
-82,87,13,578,357,-340
-85,62,14,-175,-191,137
-55,62,7,-379,54,-207
-41,63,14,-304,1,-314
-33,54,19,-21,-90,-404
-35,64,33,-262,-191,-435
-29,59,35,-336,12,-449
-43,54,27,-357,-39,-187
-48,68,16,-651,12,-109
-39,70,18,-375,4,115
-39,93,0,-354,3,126
-35,110,-4,-481,-98,12
-30,103,-10,-74,28,47
-26,120,-16,-332,-42,23
-36,116,-17,-301,-46,62
-40,124,-18,-388,-53,44
-36,-128,-15,-281,-136,117
-79,104,35,-4765,-2569,-1130
-2,-59,91,-4273,-2456,-4691
-120,20,96,887,-1478,-6583
-42,-6,71,7801,-4685,-14485
-71,61,24,3443,-1779,-12931
-24,50,-110,2039,-288,-5129
50,-113,-113,4042,9372,-4127
122,-33,-35,4011,12502,-3371
-14,-17,-93,683,5004,1947
78,-42,-13,-7735,4850,-1544
-30,95,113,1006,50,-2500
-55,-56,120,-338,-1806,2099
-127,52,-32,-471,951,-880
-69,37,86,-373,486,17
10,34,4,-137,-770,33
17,18,65,-475,-534,-120
-20,34,103,-1149,-1504,-363
-40,-5,-120,-4334,-5384,-288
-38,-62,5,-8026,-3938,-1794
25,99,58,-7243,-1678,-1704
73,47,114,-6418,-809,1043
72,47,110,-4019,-2195,4345
-52,-38,31,-4021,-3000,3717
-124,-38,-34,-3305,2387,2479
-69,-103,-88,-2389,-975,3150
69,-92,-75,-1808,-2117,2710
-10,-70,-83,2117,-2068,2788
-102,-1,-127,1135,-428,3823
-106,-8,96,1347,-230,2645
52,18,53,592,-199,1062
-19,32,0,-951,391,-740
-78,-98,-14,66,541,-966
-102,125,5,837,20,-401
-92,118,-7,435,36,-402
-63,94,-13,31,253,-906
-66,56,-10,34,152,-983
-61,34,-15,168,182,-488
-65,58,-11,-419,-209,-208
-45,68,-17,-809,-165,-263
-29,72,-2,-509,-94,-111
-39,92,-8,-345,-141,-133
-45,102,-5,-249,-77,-242
-43,100,-2,-129,-158,-75
-53,118,-3,-390,-146,-43
-60,123,7,-413,-93,-113
-57,125,8,-425,90,30
-52,-119,2,-346,130,46
-46,-125,-5,30,119,70
-33,-114,-12,-215,69,23
-31,-109,-28,-323,101,44
63,-69,47,-10630,-2610,-2434
41,87,19,-4844,-2249,-1552
64,7,-11,8121,3945,-8816
-97,105,58,10259,-1052,-17810
73,-55,54,10409,-4155,-9296
-83,86,108,-2551,7913,-7913
-17,-64,71,8064,9555,-1993
-111,119,0,5087,9570,1434
-98,101,-121,-3154,4288,-2736
-28,-47,-39,-2517,2564,-3160
-85,24,-42,-2146,-1048,155
-25,35,127,277,-1147,300
-31,103,12,-868,87,317
-11,99,-88,-462,-448,30
32,85,-109,-841,-1424,237
61,52,-54,-1769,-1789,-77
45,32,-40,-3402,-3039,324
-66,-43,126,-5218,-2743,-922
101,-89,-101,-4820,-3662,229
69,-14,43,-4752,-1974,184
-93,-86,-94,-6507,-816,921
73,112,100,-7254,-609,1375
53,-87,122,-6590,-1223,2396
61,41,0,-7147,-2112,3188
-44,-67,95,-2980,-570,1698
-9,-125,118,644,-2611,2969
108,-127,-66,1210,-1046,2630
111,89,123,1186,-1195,2153
92,24,116,1618,-1243,2194
46,-18,58,1458,-615,1592
-6,-53,58,1965,-322,862
-37,-85,19,1740,277,-88
-65,109,18,1248,448,-442
-75,81,21,582,440,-385
-70,50,20,359,283,-324
-62,35,24,-38,-17,-463
-45,27,29,-237,-62,-415
-45,25,30,-425,-158,-470
-43,22,40,-357,-187,-383
-43,24,35,-302,-145,-269
-47,43,35,-675,-275,-277
-46,47,35,-574,-101,-81
-50,67,30,-676,-112,4
-47,84,23,-684,-36,49
-41,104,14,-563,27,86
-38,116,2,-492,40,56
-35,-128,-7,-455,3,4
-32,-117,-18,-413,-3,-79
-32,-118,-21,-271,1,-88
-31,-112,-26,-336,-79,-115
127,-86,-17,-7272,-845,-2374
-126,12,-115,-6732,-5532,-3439
-100,7,-34,2177,-1500,-3750
-41,-121,31,2613,1943,-11982
-104,-17,81,7165,-3165,-14578
-69,111,33,11473,-8578,-10236
36,-125,-92,-9596,8209,-3362
-107,81,-120,2531,9591,-4626
-9,38,57,4300,14389,-2081
-15,42,114,96,5491,-4453
35,37,-11,-3600,2705,-3203
66,-21,-78,-1174,-4994,3138
49,105,90,722,1270,332
-31,-73,126,-1068,-225,-296
48,96,110,-251,-355,667
49,-116,-125,-1735,-1416,-238
86,57,-54,-2491,-2056,149
82,16,-86,-5006,-4827,1661
-82,-62,-11,-6295,-4672,604
-102,-102,-30,-5803,-1963,886
-94,65,-127,-4918,-2267,1723
100,48,97,-4810,-197,3437
51,-113,-22,-5418,-399,3395
-75,11,56,-5355,-1197,4939
42,-110,43,-2493,689,2846
-120,88,74,793,-601,860
69,-33,-78,3825,-2942,3362
123,28,99,2322,-483,3549
53,90,54,460,465,130
-18,57,15,-1638,1070,-1540
-64,114,2,1156,437,-454
-84,93,-5,1748,49,-226
-69,98,-23,758,424,-134
-38,95,-38,-185,651,-253
-23,76,-24,-16,101,-383
-17,62,-13,117,-235,-563
-9,54,1,-185,-181,-715
-23,44,9,-318,-261,-536
-38,53,12,-595,-295,-321
-38,57,13,-452,-89,-81
-39,76,12,-507,-161,193
-33,112,11,-958,-180,108
-25,-120,0,-948,-10,-2
-27,-121,-4,-469,2,-24
-29,-113,-12,-314,13,16
-27,-96,-30,-410,71,-86
-25,-102,-36,-268,-16,-40
-24,-94,-43,-353,-43,-83
-24,-96,-42,-235,-45,-81
-23,-91,-44,-276,-98,-127
-118,-29,101,-6102,-3207,-5809
91,-35,104,-1553,-2924,-5537
-128,-76,-30,-46,6876,-6584
-12,-49,29,15606,844,-13063
-27,-2,-28,11369,-14009,-7951
-70,117,-14,-6422,-987,-2817
-38,-6,-68,700,12190,-3434
-63,-70,-110,9277,14107,-4610
20,58,24,-1360,6197,-5376
124,18,105,-4517,3420,-1590
87,-40,98,-798,-2994,-2154
-92,82,26,-257,-573,2610
-73,-14,34,-1053,-61,-1233
-12,-82,-119,-415,-485,716
75,-65,-128,-1321,-1534,-164
61,-113,-64,-3314,-2822,-80
84,100,-109,-4569,-4176,638
-52,19,-26,-6712,-2842,-594
99,110,25,-8210,-2032,-1206
29,-78,-122,-7211,-353,1070
-76,-12,-75,-4732,-872,2478
-75,80,37,-2637,-903,3269
41,-99,88,-3440,668,2112
117,-5,-97,-4683,319,1358
-11,25,10,-745,-1003,1788
3,-23,96,99,-1859,3961
-65,-1,9,1130,-1867,3605
-91,35,-54,-361,-1442,1854
16,1,-119,84,-497,-38
-25,-117,70,2252,614,-514
-55,55,74,3518,-140,188
-96,-5,50,3536,-334,844
-84,48,102,63,-292,-194
-48,78,93,-2502,180,-873
-35,5,68,-1785,137,-1036
-52,-13,67,-35,-123,-415
-58,-21,53,598,-32,-129
-48,14,48,-173,-4,-37
-43,10,30,-593,-105,229
-75,47,49,-913,-267,297
-51,66,31,-573,72,101
-25,58,33,-24,-76,-214
-49,79,37,-539,-326,-121
-78,84,36,-639,50,-190
-58,63,30,29,169,-8
-38,90,18,-501,-31,-13
-42,107,7,-673,-11,-137
-40,92,8,-36,106,-62
-31,117,4,-475,-40,-131
-35,119,0,-404,16,-221
-84,-124,-120,-9932,-499,-7073
88,9,-4,411,-5028,-5895
-56,12,-108,7281,-3897,-6398
-106,-21,20,9377,-5154,-12460
77,118,-33,6567,-6397,-8188
-117,27,-121,-5518,10510,-3943
60,-74,-22,7825,10151,-6191
-34,-27,-115,4512,7226,-1805
119,81,71,-1169,4364,-4048
-76,30,63,-852,2124,-1314
23,-36,98,-1696,-2756,1001
-79,69,30,-361,-67,271
-69,122,23,-855,611,-112
-15,94,-110,-573,-148,59
2,102,126,-625,-182,227
-3,121,-91,-603,54,-57
21,95,122,-498,-553,399
31,62,-113,-1987,-1701,-344
9,37,-30,-3173,-3716,1553
105,-52,-7,-5656,-4157,331
-55,-81,-56,-8975,-3017,-1415
58,-80,-47,-6994,-1397,696
-77,120,94,-6030,353,3523
-1,51,-96,-4681,-471,4017
93,-102,112,-5509,-1468,3780
85,48,47,-2158,1400,2745
-126,-21,1,499,-1952,2934
-51,21,-22,382,-1943,3845
-73,70,-98,-154,-1120,2705
70,69,40,693,733,161
-43,-13,12,1938,460,-851
-66,-103,-10,1411,544,-777
-78,-125,-4,276,133,-579
-80,117,-2,-165,-25,-42
-54,82,6,277,149,-281
-23,94,9,-33,-7,-671
-14,77,9,-256,-142,-880
-18,51,15,-293,-160,-957
-38,37,9,-202,-151,-672
-53,52,12,-502,-207,-237
-53,62,4,-622,-127,-21
-43,84,5,-794,-171,187
-42,113,2,-943,-79,303
-39,-108,5,-906,-57,179
-29,-98,2,-512,-16,96
-23,-86,2,-315,-47,58
-30,-69,-14,-444,62,-69
-31,-63,3,-503,-10,-30
-25,-74,-3,52,265,-2
-29,-60,-27,-172,107,-226
-12,-75,-91,-5646,-172,-3796
-79,37,-7,-9856,-5687,-3577
30,-54,67,-3505,-4575,-2127
-118,58,91,10184,-130,-12946
-62,10,-62,8599,-2789,-13870
24,81,109,-330,2236,-6414
-60,103,-18,483,11971,-4980
61,100,114,13900,11597,-4614
119,97,41,3,7215,-2519
5,88,41,-6904,2771,-1696
44,-54,8,121,-1865,-1405
-11,61,92,-378,-514,1617
-40,-86,24,-754,872,-839
-3,93,110,-273,-416,823
48,-103,100,-985,-534,-339
32,126,-123,-1173,-1200,178
17,124,-107,-4237,-3148,-546
98,75,71,-7256,-4805,-775
25,-42,-109,-6866,-4145,-1468
-57,29,-58,-5785,-1610,-2342
-104,20,-96,-6241,-3038,218
12,86,-104,-3936,-2735,3131
68,108,-67,-3037,-564,2537
99,122,68,-1543,-52,2838
-77,-17,-62,-3266,-2215,3212
91,38,-91,-802,-2206,2946
-100,107,-31,-984,-1817,3309
126,-21,94,2407,-936,2492
-88,-74,114,3383,-405,3626
-123,21,32,1183,564,1939
-1,52,-1,-790,285,-422
-65,-59,5,-495,-310,-1563
-80,37,36,1598,-316,-850
-128,68,17,1454,-186,473
112,113,23,-297,-130,108
-96,107,24,-1015,180,-326
-77,96,27,-661,-38,-426
-63,84,31,-150,-66,-549
-65,77,22,-112,30,-659
-66,76,9,-487,43,-657
-64,65,3,-415,7,-404
-71,67,-8,-297,-12,-117
-66,80,-19,-427,7,20
-61,97,-20,-592,-112,144
-56,110,-25,-497,-152,212
-48,117,-23,-346,-71,231
-55,-124,-28,-417,-154,220
-64,-102,-26,-569,-205,138
-67,-97,-20,-467,-117,104
-69,-83,-19,-507,-50,19
