AccX,AccY,AccZ,GyroX,GyroY,GyroZ
-125,15,-109,-5029,-1542,-3206
35,-110,29,-1613,-1449,-1879
-31,-33,81,-6810,-1138,-1833
-98,64,-42,-6131,-2685,-684
-116,66,118,-7801,-2225,1038
-69,59,-119,-802,262,1276
-76,-20,-9,-2938,-1318,-1412
20,65,105,6965,-5997,1846
-33,-104,107,893,1264,-1252
-51,-116,-101,-598,6791,-2139
6,33,-7,-627,1727,-1180
-80,-92,118,3136,140,-1093
17,-84,-61,3128,-153,-564
-32,99,-97,2580,151,837
-28,84,-48,2768,395,2709
-72,7,50,2113,-2397,2905
-69,97,-63,4847,-1778,4527
-110,127,-53,1904,-2611,3567
-24,1,103,595,-2930,3202
-44,9,-84,853,-1616,2398
-122,35,-25,72,-2768,2506
106,-10,112,-1247,-2724,1768
-45,45,3,-4591,-5016,707
-72,-50,71,-497,-3187,390
-21,68,82,436,1175,-573
22,104,-14,1202,3662,-607
4,-50,15,-764,1461,-675
26,-56,-63,-1661,598,-1094
106,-93,92,-879,848,-1039
-102,-91,69,-870,1203,-990
-80,-75,41,-668,1113,-942
-84,-79,17,-269,835,-940
-84,-84,27,-212,258,-723
-81,-79,44,-455,-337,-509
-78,-74,50,-274,-777,-158
-82,-71,55,-98,-801,151
-101,-56,74,34,-1115,296
-116,-32,122,-233,-1285,413
-125,-5,-117,-143,-734,290
117,6,-94,-466,-431,-46
72,116,-66,-6072,-722,-2507
64,96,-92,-6477,164,-1951
44,-46,-105,-3509,3817,-759
49,-55,-6,-6452,854,447
-121,-6,-123,-6528,-2612,1623
-48,23,40,2805,-1702,797
-81,112,-113,-4388,-3660,-3582
66,45,33,13162,-5794,3534
-70,-92,108,-10795,3266,-4827
-88,-123,-115,1813,10521,241
-128,-104,-57,143,1326,-1112
-95,105,-108,9476,-5102,1484
-100,52,-31,1681,-3490,-2421
-76,40,-86,6768,13,1021
-71,77,42,1072,-373,1847
32,-95,-49,1269,-3365,2469
-124,-34,8,3136,-1626,2172
-125,-119,-24,-143,-1279,716
4,41,-54,752,-2369,1855
31,-71,-37,-878,-1982,1850
-15,-73,-20,-1288,-1452,1203
-75,-104,-15,1026,-448,1048
47,-42,45,1507,-1554,994
27,-47,109,-3153,-2257,-735
65,-123,-87,-1103,-28,-700
37,84,115,1313,456,-883
55,110,-111,1094,457,-441
62,-74,-78,1,65,180
56,-54,-89,-2300,-308,-535
79,-68,92,-823,-1,-543
108,-75,83,-502,382,-541
110,-54,71,-725,413,-651
-128,-33,69,-993,63,-678
-110,-29,61,-390,-130,-386
-112,-30,60,-267,121,-246
-116,-12,60,-582,77,-319
-112,7,41,-483,-169,-260
-119,24,50,-521,-583,-190
-126,21,65,-426,-727,-272
-104,-7,78,78,-255,-29
-66,57,-108,-5124,-690,-2217
99,-64,96,-10353,-125,-1761
-30,-2,31,-1933,2435,741
74,-125,87,-10522,-3113,1230
-44,-36,-76,-72,-899,2408
108,92,-124,-13980,2666,-8716
-46,-9,104,31360,-8032,8499
78,-106,16,-23160,1298,-7989
89,-4,-12,2828,11573,2178
-70,-110,4,5366,-2199,741
-110,3,90,1929,-1865,-3325
86,3,1,584,-2691,-1054
27,-25,53,4768,-451,1025
77,-73,-65,4768,-3845,829
-72,85,-74,1606,-2228,873
-91,-51,10,2352,-2316,77
-15,-34,23,5157,-1200,1335
-95,-79,9,-1,-2587,760
-16,-103,102,756,-1979,1334
-22,111,79,463,-1284,1232
-100,-74,7,1958,-899,680
84,-98,64,-251,-979,-481
68,-120,-10,-421,-182,-491
72,103,-84,-356,696,-297
61,105,-91,-291,316,-455
88,108,-128,2,332,-242
96,-114,-104,-863,-73,-476
111,-84,125,-1563,-303,-603
122,-79,95,-1710,-236,-703
127,-62,57,-1201,39,-585
-115,-30,45,-944,50,-482
-120,-8,58,-767,-347,-301
109,-4,57,-627,-350,-322
121,5,55,-632,-52,-233
-124,30,54,-480,-217,-97
117,48,60,-303,-461,-154
119,50,85,-410,-385,-175
-128,50,90,-419,-134,-183
-123,46,81,-110,98,-165
-112,33,77,301,286,-132
90,26,-111,-5500,3972,1980
127,-48,-71,-10382,-1090,1983
-119,93,-104,1225,709,2004
38,53,-33,-8586,-7430,-5114
96,-103,-113,16397,-4083,1382
14,-52,-55,-2122,7366,-3258
-106,62,45,-17811,12987,-2660
-70,-64,-65,16555,-47,5959
30,103,-48,3854,-5140,-2297
-38,119,116,7367,-3697,-147
-27,-70,56,3814,-3897,1398
73,63,63,1376,-4315,820
-28,41,16,4881,-2318,1507
110,110,-3,929,-1873,807
110,44,32,3757,-3466,2674
18,-125,-2,-986,70,684
-105,-113,49,2977,1,1606
-12,1,-56,-3508,-2718,-672
80,-83,-6,-2566,-954,-449
120,67,81,150,1808,-236
88,-124,75,2883,1848,385
86,-103,-93,-417,442,-530
107,-105,-127,-757,49,-938
-73,-115,84,-239,365,-724
-45,-107,93,-372,455,-683
-38,-100,84,-326,359,-732
-36,-116,74,-360,284,-789
-21,-119,57,-234,276,-517
-24,-120,61,-138,-173,-193
-60,-107,78,-195,-913,132
-64,-90,103,-629,-1263,304
-68,-56,118,-696,-1277,557
-106,-9,122,-774,-945,432
127,11,102,-639,-229,81
-111,30,83,-228,308,-187
-90,41,62,70,463,-399
-78,13,67,204,264,-380
-87,-15,63,277,162,-152
-86,-34,57,162,264,-37
-68,-18,59,143,54,-4
17,-41,-37,-8209,-2461,-1156
54,-107,-10,-10172,-2745,201
94,23,-18,-12656,-3211,787
57,111,-2,-20494,-11755,30768
119,18,45,-24653,24928,-26953
37,87,-85,30188,-1177,-22067
22,-49,-64,-32097,2908,14155
89,22,-34,-680,-208,-3678
115,-58,-80,5672,-3212,1010
19,84,-117,-803,-822,-841
-107,-100,96,-252,-307,-394
72,2,-82,2791,-610,329
1,-33,-16,-3625,-3454,-2203
-84,-52,-6,3046,-985,846
-44,-118,94,2658,-194,1577
-117,70,85,1338,-101,1375
-125,58,123,1142,-1338,885
123,60,-86,-2650,-1212,-1191
-110,-17,-15,163,-720,399
104,-50,-25,633,-758,-111
103,-19,-52,1148,-380,48
121,-4,12,-1188,-515,-85
109,-9,-74,99,-203,-206
114,-35,-56,229,-551,-322
114,-44,-78,283,-666,-466
127,-53,-90,-58,-378,-155
-123,-46,-109,-401,-102,-112
-124,-35,-116,-243,-169,-78
-123,-23,-115,-336,-202,-101
-112,-10,-116,-299,-191,-97
-108,-10,124,-102,92,-4
-109,0,126,-86,119,-8
-104,16,125,-276,23,24
-83,26,116,-308,127,101
-78,29,97,129,244,22
-53,11,107,407,329,106
-47,-26,-118,409,183,34
-55,-70,-103,297,25,73
-71,-96,-86,-826,-180,-296
-36,-90,-123,-157,-50,-117
-7,28,-112,-2845,-4813,280
57,-63,-82,-12765,-10956,-1882
7,53,-117,-8970,155,-6502
-99,-27,110,-12346,-18239,25244
106,110,-111,18821,31759,-16589
-54,51,-32,29316,-3217,-12195
112,-49,35,25588,11937,6552
-86,103,-5,12861,-1060,-2443
-125,64,2,-4170,-5926,-4732
39,-99,-27,11473,847,4745
70,-103,118,-526,-1734,-459
103,-94,-24,1378,66,1083
-6,-9,46,150,-2186,-219
113,-116,10,2609,71,492
114,-18,-45,65,-2096,1660
106,-109,77,-2905,-2061,-1553
-25,-12,-21,5425,528,2864
-123,-6,-6,-374,-1443,350
-124,24,-113,-2920,-932,-614
-116,0,-39,226,-646,187
109,-8,-4,-438,-236,-718
-124,-14,-26,-192,28,-519
-123,-14,-37,-479,-462,-156
125,-5,-85,120,-317,-187
113,-11,-85,181,-482,-641
125,16,-79,371,-684,-385
-126,15,-62,-566,-900,-552
-103,17,-108,-381,-56,-165
-100,4,124,319,547,171
-95,-7,-113,190,336,-12
-81,-20,-119,471,260,92
-92,-64,-82,-130,-285,-242
-57,-92,-103,-265,61,120
-55,-82,-105,-458,625,38
-88,-99,-76,165,-352,86
-64,-89,-81,-167,-391,-21
-67,-92,-94,487,-489,285
-125,-86,-88,371,-791,60
112,-93,-81,553,-915,-262
123,-76,-81,612,-769,41
-33,82,-4,-4296,-398,-4343
4,-7,-122,-6812,-1035,-4044
-64,109,49,-6850,-234,-1388
110,-68,-50,-5186,-1570,-460
-48,-117,46,-3962,-3995,472
116,50,44,-16,-2667,975
-14,-45,117,-3753,-1196,368
109,-69,-115,-7286,-1987,-3735
41,32,115,10440,-1666,3153
-84,-68,-41,3446,-994,-1587
89,-119,-9,-10639,6150,-4651
-84,-23,49,-1806,5022,2652
44,66,88,983,-357,-2125
70,-22,69,11234,350,-370
54,-66,-4,7776,-2368,965
114,58,8,-2047,-3062,-2644
-5,-81,-47,7451,-1810,2543
-23,94,28,1769,-1733,-218
-46,113,45,1183,-2489,828
-66,119,-52,-149,-2418,-786
-61,-37,19,6264,1648,2123
64,12,-51,10270,4329,6170
105,55,9,-2682,-1540,-1919
-80,-32,-99,-9338,-4085,-4246
20,24,87,-9419,-4621,-3806
90,26,-113,-792,-311,-1474
-106,-68,-88,7344,2994,3082
42,-98,-76,1773,831,277
10,-8,69,-2857,-2066,-1034
44,27,-51,-3374,-2128,-1506
88,35,-127,-2009,-1064,-1173
115,28,97,-41,484,-199
65,28,-90,-1179,-19,-624
48,56,-115,-997,-13,-333
52,96,-108,-1651,-475,-282
57,-128,121,-933,-325,78
50,-102,124,-584,-169,90
31,-77,-115,-602,-179,-117
23,-71,-103,-886,-364,-365
35,-67,-116,-774,-159,-361
-7,-65,84,-4602,2774,346
29,-44,-92,-9618,827,1824
-47,46,-93,-2628,-2637,1631
87,-88,-59,-1797,-4484,-28
4,100,99,-8,-3377,790
64,-48,33,-4742,-5003,-6134
-20,-32,33,13677,380,2639
25,-28,-13,1710,2426,-1613
104,-24,-71,-15342,4318,-1303
-57,-32,-98,8540,2616,3339
20,69,14,-1436,4071,-4109
18,106,-56,2350,1114,-1912
-6,114,67,5450,2700,-6594
-84,8,123,8716,-8616,6428
-87,102,49,-114,-2814,-6609
7,-106,-86,4363,297,4214
15,122,27,-5549,-4972,-5483
-96,39,-89,7067,-97,2673
-103,-1,65,-426,-1920,-1967
-72,-75,-50,1024,3666,-1185
-119,-109,17,14883,3443,6147
14,71,-11,-4294,-663,-750
10,-113,-65,-9662,-3741,-1606
30,-127,-21,-9178,-3372,-2310
112,90,49,2581,1277,551
-108,-10,-116,8466,3682,3381
71,-95,-73,971,815,-93
113,-52,-69,8,-114,451
104,-65,-83,-1344,-1490,-524
119,-78,104,200,-1171,-509
-121,-98,-117,-47,-1011,-602
-119,-100,-110,-198,-644,-443
-123,-94,-113,-45,-561,-415
-126,-83,-74,-241,-933,-487
114,-92,-65,-509,-894,-449
113,-77,-78,-1100,-371,-405
-120,-35,114,-1010,149,-32
-119,7,122,-655,-78,-28
123,45,-101,-1009,-757,-99
79,62,-100,-1686,-831,-299
33,72,79,-1455,4425,1302
118,81,-26,-8773,5495,843
-67,-44,-128,-5032,281,1705
-121,-2,37,1203,-4432,1470
-90,-27,31,-793,-2138,1418
-59,115,123,-3282,-3410,-2440
-126,86,8,-9686,-5897,-9661
-22,-41,39,20717,424,7032
-73,-94,-22,-17394,3948,-6415
-2,-97,69,-13791,4955,516
66,-86,-105,9734,2105,1948
-85,105,-108,11645,1050,650
97,-74,-80,-7409,2485,-3297
-114,-120,-126,7600,1118,-1620
87,-5,124,4748,-3503,-249
-117,-40,103,348,-9067,402
31,-98,19,-592,-2998,-6941
37,10,74,3558,-3296,-67
113,90,123,-1794,-4041,-1582
112,82,-19,-1765,-941,-1777
-117,124,124,2075,1112,-271
-121,82,-81,4265,604,626
-88,88,95,6421,259,2291
-29,-77,-100,-4581,390,-3264
-74,-74,22,-2163,3018,-614
-87,-92,-36,2930,3060,1162
106,86,-109,704,-6,154
109,109,-87,-761,-1783,23
-122,-100,-115,-707,-1569,520
126,-27,-109,-635,-1109,517
97,-29,-110,-375,-303,-124
113,-49,127,-190,616,-323
-79,-42,107,-451,1182,31
-72,-34,65,-150,1190,176
-74,-34,37,780,1054,294
-111,-66,86,533,-7,-157
-118,-75,-127,-405,-866,-667
-48,-79,-110,-1016,-950,-376
6,-98,-96,-1076,-101,155
-41,-71,115,-282,-260,-161
109,63,73,-6754,1110,-1838
-111,-57,49,585,4149,-280
8,10,22,-6983,3980,-652
111,-109,95,-6204,3362,819
-100,49,127,-2906,-2525,1639
-85,57,52,-1223,-2833,1284
87,-113,66,-1190,-2689,1636
-49,-114,102,-3589,-4336,-2557
-31,87,28,274,-3647,-3774
89,-87,55,16312,342,7200
20,-20,55,-13671,6763,-6809
-110,-98,34,-3586,3429,2453
-122,9,-86,4307,2741,1220
98,15,49,-1963,2042,-1956
23,92,-30,-500,5517,-5805
-86,119,75,18055,-8389,6642
54,-38,42,326,-6212,-4014
-84,13,48,-817,-2446,-850
2,85,-29,1828,-2619,-516
35,7,-36,4164,292,422
-89,73,70,-182,-2349,-871
-67,-81,-70,-1647,-3492,-2782
110,-55,69,8503,-524,3120
77,127,-1,-2361,832,-1901
-117,-127,-54,-1901,2202,-644
-111,112,-29,1932,2875,805
100,91,63,3042,1501,1134
90,79,-68,189,-478,11
-126,-113,-67,-428,-1005,117
-109,-93,-66,-1160,-1393,-170
-119,-88,-102,-352,-905,-307
-111,-117,-128,360,42,-336
-73,-110,-121,504,562,-12
-83,-81,-86,134,-173,-94
78,-101,-47,-888,-1318,-1171
123,-116,-84,-1304,-908,-1039
-32,-122,-76,-2568,-710,-196
-84,-103,83,-2452,-1122,-392
-121,-55,-34,1424,623,73
-112,-11,86,1487,547,609
108,-30,0,-2076,4571,1737
-51,-83,-83,-7210,2013,318
116,86,-76,-5851,5661,2162
-72,-52,38,-8953,455,2810
-120,-113,26,-264,-2680,3909
13,-84,-91,2448,-2805,-1230
-22,-57,-54,-3229,-4132,-6013
67,22,-86,2030,-4295,-4011
-114,-35,21,23854,3446,14936
14,-71,2,-26374,5479,-13292
-116,22,-2,-663,4143,6044
98,117,106,9045,3122,4801
-74,126,91,-2251,-1425,-3806
8,68,46,-1108,7482,-8722
91,-123,94,28997,-11634,13242
-40,103,52,-14492,-11013,-15432
-103,89,-63,16124,3660,2914
0,-33,-124,-4200,-2944,-1984
-125,63,48,-1157,-5954,-1639
-22,-13,-89,3098,1475,-2073
-44,-123,-121,14450,2386,9480
82,39,-27,-9787,-2768,-5688
-88,-54,28,-4707,3947,-1581
-25,22,110,4423,4534,3514
64,22,-128,-320,-103,-601
104,87,38,1645,-223,547
122,99,-120,530,-860,647
-128,-85,-61,-1392,-1712,-42
116,-61,-93,-643,-1291,-272
116,-72,-108,-528,-531,-793
-119,-109,-127,-444,201,-754
-102,-103,125,-725,145,-638
-95,-93,110,-845,-10,-373
-84,-67,78,-226,118,-62
-70,-41,87,-191,296,18
-78,-22,86,-144,477,-97
-63,-18,78,-190,476,-177
-46,-12,82,-245,111,-218
-33,-20,84,-171,-165,-131
-26,-29,79,54,-60,84
-43,20,-15,-11573,768,-2208
98,-128,51,3286,10807,4759
-71,-121,-69,-2928,5145,-1919
-48,120,66,-16954,1095,1183
2,-86,-68,5322,-4753,7245
76,75,-110,-2670,-3182,275
-102,-80,-119,-3978,-2122,-635
124,104,75,-6340,-3397,-9420
-5,-24,-122,31027,-5,10939
113,58,73,-32062,3418,-11764
60,-106,109,-8860,7269,4321
-56,75,6,19014,1300,5221
-125,19,-52,-2726,-3612,-4945
43,-81,64,8098,1419,-324
-92,-103,112,4315,-2956,1976
-61,76,108,-1400,-8621,447
-108,-29,75,1562,-3456,-6951
47,22,-75,7551,3945,3493
-41,73,-58,-66,15,1040
65,-100,-11,3190,-1727,1118
72,-101,-48,-4151,-1491,-1365
-54,-119,56,-2813,1741,-2055
-26,-90,-50,3794,3577,768
-82,65,125,1959,1154,-291
-82,84,-38,-140,-725,0
-107,119,-53,-1630,-2118,11
-126,-97,-124,-891,-1767,22
116,-59,-95,-956,-1643,-373
-125,-24,-89,-1049,-859,-474
-110,-18,-112,-1178,106,-475
-78,-7,98,-519,970,-203
-74,14,111,-960,698,-324
-54,40,87,-715,696,-182
-46,53,76,-771,498,-139
-57,53,57,-343,470,-241
-64,52,75,-763,-78,-410
-58,62,66,-731,-441,-254
-58,68,58,-477,-507,-32
-63,88,70,-262,-671,91
-79,97,95,-163,-893,-9
95,17,44,-6121,724,-773
-112,14,-13,-2005,7191,2563
99,-115,1,-11096,3210,1681
52,-71,-22,4378,-5177,3512
11,-126,-44,-1451,-3266,1679
-45,113,87,-3736,1116,1195
14,93,127,-8554,-1597,-3703
8,86,29,11227,-3874,1072
-78,-89,-37,10280,-2178,3098
10,-41,-101,-11041,7258,-6302
125,-83,-3,707,5959,4634
-112,-31,76,5303,-3024,-1585
121,48,-123,692,-3462,-3102
22,-81,-32,8428,2199,-941
80,122,8,-2280,-3568,-1376
35,88,8,-3055,-6662,-8042
-116,-31,-7,9473,-3380,1832
101,-103,-56,-6517,-3127,-3772
-5,-36,32,1063,-607,-212
-60,-113,2,2461,-198,-336
65,-110,-118,5919,1885,1577
103,111,80,4114,1373,1084
7,-92,-126,-6346,-133,-3905
-68,15,35,-2543,2131,-593
-82,-26,10,-704,1283,-365
-124,-91,53,805,-488,-52
-98,-45,59,1300,-115,1299
-112,-9,123,-561,-281,1055
-117,57,93,199,51,1120
-112,62,104,558,448,336
126,24,121,480,449,-655
-115,-61,106,31,315,-1142
-65,-83,88,-20,465,-624
35,-107,-29,-2989,-1141,796
39,111,93,-1483,478,518
27,106,46,3449,1210,1153
-5,51,-41,2919,810,787
-81,85,59,482,-581,-289
-90,124,11,-379,-955,-582
109,-40,-42,-1506,-3010,-663
-124,97,-20,-1771,3081,-2514
7,121,-7,-2986,926,-3075
-120,-19,68,-5652,-1528,-3366
10,-9,15,-9118,-5671,-5776
57,79,-77,-15914,-8836,-7444
-104,-64,-13,-25094,-5577,-13561
1,119,-65,6330,8960,5045
-86,26,-90,12748,2790,7282
-108,-91,82,-11329,-680,-7371
37,-1,-40,5696,1560,4266
107,-66,-79,2591,382,342
-89,84,81,-847,724,-2312
119,33,-128,6379,3755,2794
7,44,-85,821,2670,-829
-5,40,-16,3707,2441,38
1,107,-22,9088,158,1597
-93,-32,-123,3290,-3298,-729
-25,27,59,3988,-1406,-403
-62,105,79,5223,-447,-1160
-16,94,125,2928,-158,-314
-93,-18,-18,2414,-1372,-289
120,-113,-61,-1156,-1937,-226
82,92,105,-617,-1480,-224
112,14,42,-743,-778,-115
-111,26,-40,1048,1552,1119
109,64,-43,235,2127,1033
106,-123,-113,251,2639,1192
-114,-71,-123,605,2789,1564
127,-75,-92,-467,1727,699
-103,-84,122,-243,1417,81
-61,-91,121,-735,905,-521
-21,-83,83,-444,618,-427
-12,-86,87,-474,-70,-731
18,-62,104,-4,-713,-653
-84,-111,-90,-670,-2362,-1759
-33,-79,-102,-1939,-2002,-1903
113,-75,-105,-1667,-112,478
19,-80,-92,-2563,-106,122
-29,-69,50,-66,532,-115
9,-72,94,2280,911,504
101,-104,90,-4179,-1276,-1803
-89,3,-32,-5020,-5062,-1057
40,52,118,-5978,-7755,-784
-73,-118,15,-2904,-3804,2095
86,-48,77,-4695,-1031,-1642
-108,-122,51,-6431,-4108,-15717
16,-24,-120,-28286,13138,24037
-116,26,105,31804,84,-18988
113,-8,57,5671,4328,9086
-76,-56,42,16554,7798,6116
-19,-84,-10,-7679,-349,-5771
20,72,65,1522,4207,383
24,31,-50,4511,4849,2397
-58,-97,115,4089,2877,2992
-1,-81,-11,1116,1120,-907
29,99,-65,-2518,-1062,-1188
-76,-64,-32,-1521,1332,27
94,-56,-69,616,-16,112
-14,-58,-120,-1223,-35,-68
3,-33,90,490,137,1265
-15,-89,-122,-417,-744,851
-54,-89,117,744,-949,1634
-53,-120,93,-78,-1930,1302
-30,81,10,27,-3193,740
-9,-81,67,541,-3373,1455
-55,-118,34,382,-5111,847
-11,-31,-95,-1779,-3064,-1123
-50,31,-21,3124,-4054,2348
27,-79,69,-264,-1736,-348
48,-90,-89,1584,-2202,2348
22,-117,-56,518,-2502,1120
38,-51,-79,377,-1421,872
-68,-36,-35,-906,-3505,-495
-83,-37,115,-1553,-2465,-1713
126,67,82,598,3488,1007
-1,-122,39,1108,1341,589
-68,-119,-81,1365,105,-463
-41,-106,-13,-796,-1148,-485
-27,-77,-4,-1342,-1434,-498
-39,-32,35,-1606,-2108,-1182
-36,17,72,-2972,-2411,-1956
42,33,0,-2775,-1074,-1558
-112,17,-101,475,1770,342
122,27,-128,1476,2383,658
94,18,-126,602,1607,224
114,7,124,-26,649,198
-124,-5,90,254,200,270
-97,-37,64,887,24,612
-121,-48,86,845,-590,701
-125,-53,101,1059,-805,786
-117,-57,-83,1431,-1047,1123
108,-46,-23,678,-1081,1078
69,-33,-10,387,-1011,684
27,-33,-4,-89,-1066,309
35,-30,-18,-170,-791,63
47,-16,-1,-285,-842,39
29,-27,-15,-252,-433,-13
40,-32,-31,32,96,32
56,-27,-50,-124,614,-69
92,-17,-83,-530,1023,-287
-120,-3,-111,-503,1157,-334
-86,6,-126,-441,863,-511
-57,9,117,-515,683,-534
-44,10,114,-718,438,-544
-18,23,107,-858,282,-375
26,61,79,-632,286,-89
-18,59,64,590,60,91
-99,15,74,1174,-654,-596
-65,-35,-41,-826,-1246,-1399
0,3,-66,-1305,-558,-738
66,-27,-74,-1615,567,615
29,-99,-17,-3304,67,-1294
83,-85,70,3803,1894,1631
-1,-111,-22,2720,1330,1030
-105,9,37,1296,1345,542
-122,83,123,-938,646,-413
-28,26,29,681,2535,170
-46,-21,92,867,2512,-105
-54,-14,87,1149,2309,-96
-39,-72,101,-258,834,-518
28,-33,-119,2135,4102,857
0,-36,-128,88,-730,-193
85,-27,-12,-2291,-831,-1581
16,27,-120,915,482,998
-46,78,3,-664,-289,406
-102,20,-89,72,26,-152
-110,-53,-121,130,-275,-612
-39,-89,119,-284,-543,-145
76,-16,-121,57,-701,1153
15,80,-7,-401,-2276,1085
-17,-40,-97,2269,2456,629
121,-86,71,1353,613,254
120,-75,28,-1188,-896,-683
-39,5,-54,-2180,-1836,-266
-15,62,-95,-1007,-1360,455
-99,51,-117,-633,-1107,-262
116,-33,112,-62,-316,-836
-90,-47,101,391,544,-141
-56,-13,-111,-674,27,69
-60,29,-107,-213,-502,-54
-102,6,-105,-339,-101,-385
-53,6,-82,-1410,450,-411
-25,23,-107,-1300,528,-312
-38,35,95,859,376,207
-30,16,-92,-149,683,124
-18,3,-65,-233,923,278
-1,-18,117,1350,1461,789
35,-70,-106,2602,1417,1236
4,-66,10,2175,912,1139
-17,-45,102,1186,818,539
-33,-31,126,916,426,732
-72,-51,108,-158,-257,-38
-55,-86,61,-229,-228,-183
-27,-94,45,-809,-794,-275
-16,-72,-3,-1007,-875,-328
-8,-55,-26,-1003,-845,-398
-10,-31,-62,-1099,-966,-514
-10,-22,-102,-614,-669,-284
-16,-7,-105,-534,-593,-177
-43,0,-117,-423,-607,-112
93,-105,-114,2122,5524,-635
-92,-65,95,1206,4375,-2980
-9,94,46,-1435,1161,-4183
48,15,-44,-3356,1612,-5049
20,-95,-54,-4326,827,-1654
-128,34,20,-5973,-7899,-2682
-122,-65,-103,-1614,-13625,-1532
-12,-36,-1,-10895,-7454,-1750
2,71,88,-1598,1786,2893
51,83,84,-21684,-5093,-23596
77,-84,-127,-27245,14497,26538
99,115,43,-25756,8774,-14029
-100,5,-31,9340,6628,8001
76,33,-18,16365,-1925,-2528
19,89,117,-2967,3055,-3401
-101,27,111,3196,1628,825
4,126,30,3243,6557,4184
-66,-53,124,-8640,-4522,-2930
2,-68,-35,-1048,1235,1197
-41,-10,17,2189,-1838,1008
126,-8,-33,995,-1852,1664
56,-20,92,-1974,-3271,1122
116,-123,-113,2087,-2457,1550
-118,70,-100,2857,-1704,4642
-92,-8,-121,-2095,-3812,-909
-55,99,5,4673,-2963,3045
-41,-78,-65,1084,-1489,704
123,-3,81,-3495,-5384,-1392
125,-53,85,598,-1515,-337
91,-76,-37,-630,-2084,171
85,-37,-110,190,-568,383
0,-53,81,83,-856,-171
-44,-73,103,-1039,-1970,-1177
-20,-78,8,-473,-1851,-683
-7,-55,-53,-361,-1155,-569
4,-16,-17,-1723,-985,-999
53,4,-66,-1802,-69,-541
68,13,87,324,1227,363
41,0,105,808,969,115
50,0,-120,434,107,69
-37,-88,-2,2529,4594,-1163
67,41,76,-154,3667,-2822
86,2,45,-1774,3268,-3726
-53,66,44,-226,3154,-1875
-52,1,-118,-4338,1677,-3201
-74,-116,-70,-1023,9,-1071
-84,-11,54,-6199,-4453,-2443
-18,-55,92,4842,-6270,1402
96,-83,-117,-8143,-10194,-566
63,75,69,-5663,-4247,1013
16,101,19,-3047,-1624,342
110,32,126,-12832,-4623,-13309
-115,35,45,20486,1895,4359
28,81,-28,3258,13501,-1673
-121,-98,5,-20641,4449,-4585
-47,-111,-79,-27819,14025,20015
-23,-116,67,-23549,520,-13760
-72,42,-92,12890,2200,5675
32,13,-11,-3635,3099,2326
-46,-22,-112,-1975,-4895,-1309
80,-108,49,-1082,-512,1492
87,-65,92,428,368,-40
35,-49,86,2211,2531,2181
-93,91,-38,-3606,-1881,-1284
-118,47,-110,-1731,-1842,1068
112,-123,46,4563,-2468,3041
-118,116,-41,1763,-4155,1881
-127,-66,60,2327,-3090,2889
-32,-76,-128,-1147,-5766,842
31,-52,123,3863,-1415,3314
119,-23,113,-5081,-5945,-2732
86,42,108,5757,-2486,4368
-74,35,107,-5985,-4569,-2599
43,11,6,-238,-1931,-54
7,-90,73,-817,-3283,-929
29,-88,69,-399,-1677,-473
23,-106,39,-715,162,-303
-11,-92,-53,292,1390,31
-27,-85,-65,-176,884,-369
-9,-88,-109,17,651,-437
50,-45,61,1656,6070,-1995
-40,-24,-47,4938,9249,-1575
77,67,84,-4129,2589,-7728
-112,79,3,-2895,2994,-5137
52,-50,71,-2302,3621,-1640
5,51,18,-3013,1293,-1875
3,126,89,-3992,-838,-2606
85,-104,68,-464,-1803,1551
-67,6,47,-7391,-8855,-1669
106,-128,-125,-4012,-6375,-531
100,39,-86,-2863,-4551,1006
-101,43,123,-3091,-1275,677
-6,55,59,-6224,-4641,-5510
121,-39,-8,6034,-594,-2881
-60,31,-111,8574,17296,7427
49,-13,-57,3140,3993,-3950
119,-80,-40,1344,5954,-2317
-61,33,-32,1847,646,13
-60,-118,-107,1369,4699,3347
-28,32,-114,-2680,-2442,512
33,21,54,-2418,-2756,-348
101,42,-36,-481,-3237,98
-93,-82,79,3874,-5394,2309
101,122,-85,-846,-5116,703
109,-68,-55,3015,-5119,2189
6,-92,21,-3118,-5121,-2179
75,94,-6,5740,-5622,21
-69,99,-80,-4087,193,-2918
-16,-49,30,9419,-761,4828
-5,79,48,-6080,-4272,-3697
-49,15,-51,5781,1117,3698
-8,-79,45,-4209,-2219,-1905
3,-49,-111,1379,951,-448
1,-75,-17,-1038,203,-1140
18,-45,-77,-787,145,-708
43,-56,-84,-795,-180,-273
34,-65,96,602,858,207
49,-57,-123,114,629,-140
89,-22,-106,-146,148,46
88,-40,121,199,218,-55
-51,11,60,-3419,3449,-1125
38,-123,-46,-4113,4688,-327
100,35,-99,-6465,5728,392
-91,-51,-103,-5374,838,1831
52,-76,66,-4263,-6237,-687
-32,-43,-48,77,-2463,1299
26,-43,-49,-7638,229,-2121
-55,-4,13,-2384,-2703,-6088
17,45,59,27885,-173,9936
-11,-48,-79,-22520,3010,-11203
87,-121,105,-3534,11698,8792
-74,-35,76,13570,418,2739
21,-42,-34,-5860,-6980,-3724
-26,-120,-90,6041,5204,604
116,43,62,5264,3947,1370
-101,110,-2,-10055,-13668,-941
94,4,7,3621,-7749,-11861
-8,98,-99,18300,1239,9159
75,-107,65,-12326,-4487,-4773
-90,-95,-119,5738,60,1826
78,-49,78,1967,-841,-539
61,-12,63,1093,-1062,-825
64,-60,-89,5223,1271,1087
-128,3,127,3713,1284,2040
-1,124,-24,-4525,-462,-1981
-80,97,58,-1191,2126,-103
-84,68,42,2024,2515,1042
-123,39,-105,1280,1050,683
-123,64,-51,136,55,581
-119,85,-63,-399,-301,419
-103,96,-85,58,-84,314
-98,92,-81,6,99,-54
-75,86,-78,-82,154,-114
-41,80,-78,-79,233,-65
-8,62,-90,308,619,24
-13,25,-104,458,935,75
30,6,-86,234,786,333
12,15,-97,245,-69,545
-64,-8,-76,-100,-1085,-109
-15,5,-68,-204,-997,51
9,-92,57,-4719,1758,-1440
43,-56,-91,-9837,6994,724
40,-86,-31,-8079,2781,563
46,-57,-36,1503,-5524,-416
-95,25,-119,-1123,-1606,630
106,-105,28,-9428,1721,-4076
-122,84,34,-914,-2433,-3883
-109,-89,-11,22562,-1264,9308
-28,54,100,-18774,4635,-8839
-106,-111,-77,-1807,5573,3898
-94,87,118,12418,150,4958
30,-79,-75,-4352,-3223,-2905
102,-113,-56,2093,3215,2227
96,94,122,696,1841,396
124,4,123,6561,-4717,4950
99,106,-5,-1993,-11338,-4119
109,37,-112,8527,-1675,2944
-28,-99,-15,423,-898,-494
126,101,93,-947,-4232,-37
106,25,90,-532,-2047,-2463
-114,15,-78,10630,741,4844
94,58,-85,98,-3328,-1120
22,64,-30,731,-513,-845
51,-21,56,-1920,1493,-819
53,31,-52,-1692,1416,-601
63,26,-80,-1193,-202,-1053
-125,62,122,878,351,-299
-108,91,-39,-1188,87,-837
-108,-103,-95,-2164,174,-1118
-119,-4,80,-3924,-2321,-1535
-85,17,-69,-5255,-2250,-2196
-41,57,14,3591,1632,1180
-128,-82,-12,4931,1396,798
117,-92,-93,748,388,-494
-120,-13,-69,-1183,-121,-233
-89,-17,109,-434,-23,352
-122,-49,67,785,451,351
-119,-79,74,980,812,415
-94,-83,113,458,484,437
-86,-75,121,487,306,434
38,-35,21,-4459,4315,-1499
69,-127,23,-8127,6702,-3155
55,-38,38,-10735,4026,-1467
59,-76,71,2425,-4605,1996
-55,44,-27,-1495,-3616,-236
13,-106,24,-3192,-1778,-1060
71,89,-101,-7380,-4730,-5617
35,103,-95,17531,-2779,2466
-74,-111,-74,-9756,6702,-2654
97,-37,-96,-12191,6324,-2009
81,-89,69,10631,2033,6411
72,-37,-23,476,-3254,-429
78,119,-51,2450,5473,631
121,62,64,-3147,5180,-3136
-16,-67,93,9009,-24209,1772
-18,-38,4,-491,-5596,-10043
-56,-15,32,12153,726,5762
78,18,-43,1099,-3127,-348
96,-43,14,-3416,-4929,-2357
54,-107,-65,2387,-818,911
-110,-52,-124,-2123,-879,-2339
-65,-70,31,3647,294,-47
-52,-31,-38,6781,-343,1918
67,-30,7,-2281,-2062,-729
49,-63,-23,-2151,309,-712
104,-116,127,-1442,1437,-687
108,-109,76,309,1364,5
87,-108,-117,-195,130,73
90,-65,-111,-874,-539,325
89,-28,-120,-1052,-538,338
108,22,119,-758,-3,309
115,38,114,-581,571,13
-116,44,95,-509,891,-105
-95,43,67,-398,878,-133
-95,31,54,-205,585,-139
-97,24,56,-192,65,-143
-108,18,74,-345,-598,-177
-99,26,75,-269,-743,-101
-88,30,100,-195,-823,-84
-98,16,-106,-366,-987,-275
-67,-58,-76,-5774,3169,-313
-65,0,29,-3686,1746,455
-37,-76,-128,-4186,-3896,1461
45,-64,-127,-312,-802,2243
-106,112,-12,-5387,1282,802
-113,51,49,-9952,-4602,-7522
72,56,11,25162,-1018,4314
-111,-56,106,-25713,4270,-6145
60,-65,86,-4186,4915,4799
-116,52,-70,14700,2826,6836
-108,121,-76,-6327,-3295,-3919
-113,-32,53,8800,953,-767
100,88,23,1808,1093,-417
70,111,-29,3163,-5076,2137
-73,18,-37,-5221,-12973,-5482
-114,-77,-49,6908,-2078,-1925
-104,-27,74,1745,-103,-503
-63,-115,-82,-3496,-2557,-1516
-55,104,86,3186,-332,-1220
-49,-64,-88,8842,1857,3092
-39,70,13,3795,-968,1760
-72,-45,58,-3342,-1737,-1977
-113,11,122,-814,2578,-1356
-44,3,65,3061,3790,934
100,-2,19,1733,1217,629
94,33,86,-1179,-715,-688
-40,44,4,-1490,-148,-726
39,21,-27,-1421,-1624,-514
5,17,113,-4160,-2097,-1443
117,3,86,1052,3017,1009
-54,9,-32,5157,2014,2123
80,-54,9,-1007,-1062,-95
113,35,-111,51,-1313,993
-128,88,-50,-771,-2567,763
95,-110,-20,-486,-2553,120
97,105,-35,447,-459,-567
-95,64,-52,-661,1671,-886
-22,116,-106,-1279,2742,-414
-21,-41,-100,-2204,1295,-667
-15,9,-126,-2273,5,-1214
111,-101,-9,1898,5449,1497
83,-38,96,961,-2003,-301
-103,-17,9,1064,2252,307
-87,-40,11,-3720,-712,-2055
-25,17,-119,1533,231,644
-47,-20,-61,-310,-302,-157
-43,-8,-82,-577,-233,89
-61,1,-65,-566,-610,94
-68,9,-69,-469,-938,71
-67,-1,-81,-65,-969,15
-45,11,-108,157,98,358
-45,28,-52,-439,405,214
5,32,-89,-201,1307,387
21,28,-6,53,2450,-1
30,5,31,914,3091,579
28,-5,-61,43,3504,-387
56,38,25,16,2986,-237
36,63,-86,-944,3319,-1229
-4,73,-114,1954,4114,-587
118,-114,35,-162,2479,-2077
70,-85,38,-1377,1963,-3316
118,-94,-56,-1114,2225,-3394
-104,91,96,-451,2380,-3083
-99,99,57,-1367,893,-2365
-53,31,11,-2757,839,-1665
-110,21,125,1717,46,768
23,-63,-16,-1960,-1645,120
96,5,50,-4071,-4503,79
113,34,-101,-5064,-6850,-353
90,-125,22,-5100,-6466,-1395
19,-65,88,2124,-9998,-1990
-47,18,-61,-7334,-82,161
-112,122,-110,-18027,-5134,-17470
-58,50,-5,10478,18488,19471
12,30,-77,-7900,9835,3790
3,60,46,27268,12484,12125
-113,-96,84,-3311,-2551,-5105
-88,-27,3,-3116,3551,-534
-42,89,86,2838,-587,666
-18,-57,-112,-5221,381,-1083
-86,-56,8,2259,-6864,1113
65,-108,71,3321,-3062,1428
-103,-28,-2,1543,-7233,1556
47,97,-121,2751,-889,1242
-45,-12,101,-714,-3637,667
-14,43,-59,2565,-2561,2351
-37,5,25,2174,-164,777
24,-46,36,4351,4319,3155
3,5,35,-2418,-1673,-1725
-79,-74,6,-2607,-1686,-2408
30,-103,-64,-2351,-1048,-974
23,-75,83,258,-148,508
-15,-100,-77,-424,-582,-315
27,-82,-65,-47,-45,245
37,-64,-70,21,166,211
40,-79,-48,43,-159,65
60,-91,-47,407,146,262
53,-89,-9,466,286,177
51,-38,82,-1381,306,-255
86,-15,48,664,2179,230
-80,24,-19,1898,4005,343
-88,-77,109,-89,5102,-1796
-64,-15,-99,2538,4396,-1477
81,50,0,-2441,2407,-5803
23,110,16,-67,3524,-3629
107,49,-51,-3924,2707,-4964
116,12,59,-3856,1237,-2325
-14,38,-79,1163,1271,-26
71,-60,-123,-1355,-641,-314
-31,-108,-71,105,-1577,1358
8,-62,-66,-7765,-5388,-741
72,-66,64,-5963,-9173,-655
19,-106,-75,-694,-9394,-2992
-69,-69,17,-4761,-5405,2387
3,-93,-56,-22246,-4881,-12987
-6,-38,95,20446,8137,-4320
78,73,15,-17636,16456,10589
-30,40,45,-28422,13771,24934
-82,95,62,-26644,1523,-16210
41,8,97,14216,6870,10118
-36,-5,64,-9808,-5224,-3706
-19,-84,123,-3996,-776,263
20,-94,-108,4636,-143,2911
116,13,-69,-620,-5826,732
-94,-32,2,1840,-3965,2036
-83,-1,126,2229,-5444,3407
34,-93,35,1404,-4662,353
106,33,15,3851,-3853,4146
30,2,43,-1983,279,-1862
-95,-34,49,190,-4880,1634
109,33,-113,-5026,-3853,-3870
53,55,66,4756,57,2403
-90,15,34,-5042,-2616,-2636
22,3,-112,947,601,70
-37,-73,-36,-292,-298,-864
-4,-65,-69,-1275,-496,-583
25,-32,125,-1190,-497,284
53,-24,61,968,950,929
5,-22,108,881,865,986
7,-26,115,746,590,892
26,-67,-114,709,130,718
-112,-33,-52,-326,371,930
-49,-19,-32,127,674,1095
-48,-71,-14,311,897,628
110,34,63,354,-141,18
114,45,75,-1456,-420,-328
-104,82,-35,-120,-154,-206
126,76,-111,1396,844,-82
85,82,-83,697,294,-508
91,67,-66,-399,-679,-521
102,79,-118,176,-732,9
127,100,-94,560,-680,149
-126,-110,5,-270,-1094,54
-125,-75,6,-132,-752,-126
-75,-60,44,-517,154,-368
-55,-64,-21,506,1740,181
-128,-95,-43,289,1431,-64
-116,-93,-62,-60,864,-338
-68,-58,-89,-766,-19,-328
15,-14,-46,-2244,-1426,-1088
28,58,106,1093,6693,-790
82,112,-29,2705,8713,-2133
101,-74,100,-895,3349,-6989
120,31,-119,-438,3737,-4889
-115,-69,100,-6966,1578,-6199
8,108,78,-16733,-7276,-4884
-25,59,-32,2345,-9790,-2692
79,-40,-50,-3956,-8272,-4802
104,28,-28,-3803,-4948,-335
53,-45,68,-20342,308,-30323
-102,-74,-93,8219,21824,24698
119,-67,89,17705,24437,25910
-77,17,46,-13908,-2301,-10529
-112,-100,-66,3058,3184,3254
-107,-99,-61,5773,-2586,1331
8,-120,62,-12014,-4900,-5660
106,-87,47,2670,-2444,1553
-36,83,-104,7837,-1252,7570
-7,-84,-16,-6536,-7218,-1634
-95,-78,71,7276,-4451,5949
25,-114,100,-2306,-4621,-636
-34,-53,35,3181,-6915,2784
79,-105,-105,-263,-352,-546
4,-39,90,-187,-5047,-38
15,-23,31,-53,-2343,-2323
-80,18,84,988,227,2479
-68,21,-48,-3020,-2139,-1041
11,49,-83,478,800,161
31,39,-89,-1394,929,-813
35,25,110,-970,376,-969
18,3,88,-284,-459,-579
23,-29,100,-170,-803,213
56,24,84,-445,288,903
79,70,-126,-386,-128,906
66,72,-106,824,-241,281
120,16,-94,1172,879,-94
103,120,61,-825,522,-712
-92,-87,91,-2138,-402,-521
-94,-116,42,-1039,-690,-1024
-73,-77,-63,308,1478,729
37,-120,88,4579,5581,-116
52,-4,-21,2856,4927,-1987
20,41,95,-1847,487,-7224
67,123,-18,-956,1530,-6254
23,-58,30,-2737,1390,-4660
85,-26,-14,-1736,1451,-1301
58,-30,43,-3104,-2431,-865
-10,-90,-65,-8575,-10521,1751
19,-104,84,-8260,-11240,-3541
-33,-75,26,3411,-4256,2746
11,-69,-31,-13421,-2043,-4469
-118,55,-25,3254,-2016,-24902
-66,64,-70,3749,20087,28463
87,-94,-52,9559,15378,13308
-78,-99,64,-10071,1613,-7926
122,61,-21,7142,3305,1641
-102,95,-30,-756,3086,2003
-63,-128,-45,-5139,-3190,-4857
123,53,110,7003,3042,5494
64,-46,-114,-4748,-2803,-5113
-53,126,-14,2912,690,4230
50,-53,105,219,-2584,1172
43,42,-57,2906,-1287,2291
61,23,30,1621,-1711,2461
-17,11,-100,61,-3452,633
114,76,-53,6149,-3180,6060
125,-53,-86,-6992,-9649,-1026
-99,8,32,5507,-4313,5229
41,111,-108,-5388,-5014,-3518
89,-30,28,5804,-5893,3783
-118,63,52,-7897,-3211,-5093
-1,-59,-106,4047,-1078,667
-95,-65,44,-2367,-1020,-1088
5,-38,40,-577,1699,348
-13,-74,-24,188,1665,467
-38,-84,112,1404,2829,848
-3,-89,57,689,2659,394
58,-64,51,1309,1669,1112
38,-66,-95,183,-1119,402
-21,-55,-53,-726,-2750,-876
94,83,64,-4934,5846,-1842
117,127,-22,-1968,4096,-1120
30,35,-112,-10858,2333,-324
21,-31,53,-7872,5609,3055
126,-66,-127,-3211,-5505,1081
-119,119,-53,841,-4200,1968
-106,-117,-113,-3324,3263,-818
45,-11,-93,-7699,-1613,-3484
94,-44,4,23416,-7758,3544
-82,60,42,-15153,7897,-4670
119,-121,35,-3747,11238,1091
-5,3,-125,6785,-76,2820
-21,57,-41,-4657,-3273,-2473
87,70,82,-5348,11093,-2729
92,-20,92,29941,-5691,22075
-41,45,71,-23087,-14451,-20303
-105,-124,-56,21837,3830,8385
-47,73,-26,-7967,-4824,-2402
85,24,12,4545,-5378,-703
-45,49,-5,3115,-2825,-973
100,126,48,4353,-1352,606
-97,45,89,4580,-937,1612
-27,-65,87,97,765,-1366
76,-31,11,-971,4446,-1786
-68,-5,-116,520,4778,531
126,0,-46,275,2047,1000
96,2,-40,-1238,-147,345
-119,46,-126,-155,238,866
-100,92,-115,-26,285,773
-103,118,-78,16,208,239
-98,-115,-47,-829,-155,-411
-14,-77,-87,-989,-104,-704
23,113,-120,422,490,-407
18,21,95,2489,1451,312
16,-25,49,563,-188,-637
-113,-31,-113,-2324,-182,532
-109,105,-114,-2595,1357,765
-100,-26,-119,3417,1040,1217
109,-2,75,2510,-65,85
96,109,126,-80,-1019,101
-92,70,-122,-5405,2373,-1105
-82,-84,-121,6849,1582,3174
21,-44,75,-1296,-1423,-1069
-103,76,2,-4702,-3132,-3222
39,-116,19,3101,-33,882
-11,75,56,-2456,-1693,-1276
16,-83,-91,-738,-368,-244
1,-94,-72,-1375,-384,-628
7,-99,87,521,907,68
-15,-95,-126,-26,528,-154
-21,-83,-122,-219,-178,-106
-60,-24,-55,-757,-1600,23
-85,31,101,541,-3939,-17
-62,114,14,1975,-2252,-188
8,-117,84,-8156,4366,-2657
-47,10,-14,2224,7925,-1466
-10,118,-65,-13079,3503,-3366
-17,-11,-2,-9473,2919,-62
98,1,83,-1821,-2963,2455
71,-35,-31,-2356,-2736,1399
105,-39,-122,-10006,-1071,-5172
74,-116,-6,1212,-2449,-8034
86,61,105,26973,4644,17073
-27,-104,27,-27652,1949,-14421
-41,-72,52,2224,6556,8877
-86,-12,-45,20809,-1812,6743
77,98,-75,-8941,-3973,-2455
-28,-82,-82,11512,-3097,3327
123,52,27,-1453,-5036,-2617
-36,-42,85,8312,-2833,3513
29,-73,22,-577,-2695,84
-119,127,5,5028,-665,1925
36,91,40,1130,1710,-1447
125,-13,6,11261,3766,5916
103,44,65,-6104,-5300,-262
-82,106,-121,-8491,-5295,-5019
17,69,-48,3874,2426,1122
-39,27,36,-992,931,-1137
-79,127,41,-680,-629,-548
60,-83,6,-3220,-1411,-1045
-2,117,-109,-8342,-3177,-3104
-43,94,-68,-9797,-4681,-3361
113,77,-42,4983,3727,3456
43,-104,-124,6800,4507,1597
12,-105,75,4343,1573,732
73,-2,13,-4690,-2813,-1834
-92,69,-38,-1447,150,-254
-44,40,-77,2613,1526,991
-44,-39,126,1144,313,288
-45,-57,-124,1825,684,718
-71,-79,-60,1229,268,562
-111,-75,-32,-449,-760,-167
-85,-78,-87,-685,-667,32
-62,-80,120,309,87,477
-86,-72,-120,218,188,295
-91,-62,-117,2,55,129
-90,-68,127,-40,-71,56
-83,-71,-128,-164,-256,1
-80,-75,127,-187,-166,-37
-56,-75,123,-75,115,33
-34,-68,126,-98,235,100
-6,-46,126,-8,261,145
-21,-50,126,280,190,-2
-59,-98,-125,68,201,-308
-43,-113,-103,-921,-79,-365
5,-100,112,-910,-259,20
14,-93,77,193,257,393
0,-61,99,327,348,459
-12,-32,-103,-562,-18,47
-14,-47,-123,-424,145,-45
-2,-64,-124,-386,406,101
23,-22,-71,-615,208,42
1,-21,-88,-755,103,-334
-24,-38,-116,-737,-272,-531
-23,-49,122,-443,-355,-369
-22,-12,-122,-367,-584,-369
-20,26,-94,-645,-701,-395
-15,42,-46,-387,-324,-507
-13,63,11,-884,-368,-612
-3,-72,-97,712,-1191,-187
-97,-48,52,-2869,6754,-2416
66,69,38,-9155,3773,-3565
11,68,42,-14862,5047,-1698
109,-61,106,-161,445,3305
13,0,-61,-59,-5126,604
-48,-15,-1,1423,-279,1295
-6,-126,-121,-10048,-2138,-4699
-88,125,-92,2329,-3270,-1676
85,-20,-89,11245,-2148,2639
-86,-44,-62,-9984,7806,-4381
87,19,29,-8081,5938,1073
-92,126,-19,17190,1152,8006
-52,-79,-118,-8966,-1868,-3403
51,0,-44,6974,2104,1253
-64,-91,-75,394,-481,631
-121,-113,-81,4622,-7626,3370
-116,41,83,303,-10097,-4676
-93,-84,26,7428,-1514,-460
-64,-57,77,3934,-1915,230
102,54,123,-3930,-3194,-1523
-121,-84,73,6126,2854,1651
-84,-118,-95,4339,3241,822
-6,-92,-96,1017,1092,-140
44,126,-121,-2142,-1568,-196
38,-87,-21,-3285,-2427,-792
90,-88,81,-2225,-1376,-871
-113,-93,34,1655,886,347
112,-114,-115,310,573,-289
113,-101,123,764,808,33
115,-110,-100,-191,26,-261
-122,-98,-105,-341,-362,-180
-109,-94,-123,-118,-300,-171
-107,-97,-115,-84,-194,-228
-95,-96,-106,-229,-115,-196
-92,-90,-110,-291,-170,-153
-91,-87,127,-139,-110,-50
-98,-77,117,40,-162,-62
-107,-59,122,-175,-256,-142
-101,-56,115,-123,-160,-3
-100,-48,119,-147,-131,-20
103,-84,87,-5225,989,-968
-106,94,33,3004,5678,1086
-82,-67,50,-7863,3188,-2979
-121,-24,118,-13536,7623,1335
-121,48,93,-6598,2090,1342
-18,-45,-17,9560,-3823,4799
98,-48,-29,-3463,-986,-1627
-14,-108,7,-3052,-2715,-1710
34,61,56,-8697,-3411,-6010
40,-50,-75,14584,-1193,1889
-14,90,-16,992,2392,-838
-32,-8,57,-16955,8588,-3706
45,124,-67,16797,3790,9818
-22,127,122,-8594,-3349,-3793
84,-77,20,8571,2207,1205
9,-114,-29,1773,-1722,1507
-60,-57,-20,5516,-11220,3064
101,75,86,2301,-9400,-4306
76,-2,41,6514,2467,-386
40,116,114,4781,3468,5992
35,-121,126,-2061,-2299,-1652
-68,-91,98,6626,1730,1658
6,-100,118,-2085,-775,-2395
-111,97,11,-3357,-1123,-1402
-67,84,85,-550,-458,-129
-96,75,64,1749,475,884
-120,74,-66,-1306,-834,-221
-104,120,113,-129,-650,300
-119,121,109,638,-580,165
113,-113,-77,-44,-932,-182
99,-103,-77,-502,-1013,-323
103,-105,-108,-307,-511,-253
106,-90,-115,-280,-233,-284
121,-60,-121,-298,-48,-227
119,-43,127,-208,-45,-317
-116,-43,123,-126,145,-405
-93,-54,127,-100,280,-327
-76,-47,-126,-363,323,-283
-79,-52,117,-520,271,-403
-54,-45,103,-500,241,-222
119,4,86,-2815,-2858,-1584
-12,-90,-11,-777,3580,-80
91,84,-18,-3767,2998,-475
-126,126,-89,-8477,4741,500
-54,-43,-40,-10403,7754,1803
42,62,-72,1031,-1579,3545
110,-58,-74,-9840,-4988,2074
-61,-36,35,6985,75,1237
49,-107,-6,-7635,-6597,-6240
-95,51,-50,7544,-2283,-2334
-73,-37,-71,13135,-113,5620
-25,-59,59,-21650,8014,-6093
-88,-39,-18,9194,5231,6277
-36,-80,20,6012,-4404,-791
-1,-81,-46,2055,2923,-82
127,103,121,4616,-195,935
117,36,66,-2744,-14180,126
-39,-119,116,4276,-7071,-5032
-85,46,24,4729,78,1338
-23,25,-98,-3421,-3496,-1160
-36,52,-28,2671,-1295,-70
-66,14,7,3787,605,-98
70,-56,-34,4502,1007,683
-128,108,-23,2439,-1303,437
66,71,-78,-2173,-496,-686
85,47,18,-3057,-2,-705
106,10,58,-386,1163,-541
112,2,103,2390,981,114
114,22,-51,1038,691,-432
-86,96,-2,-763,648,-132
-73,122,-56,-2139,473,-648
-32,125,86,-1001,943,-403
-7,126,63,-384,978,-248
-16,-121,65,-294,580,-257
-22,-119,70,-279,52,-199
-39,-97,67,-393,-408,-146
-89,-41,106,-1223,-1439,-709
-100,-23,-113,-1764,-2213,-1306
-55,-29,68,428,-943,36
-83,-41,119,464,11,-178
6,-114,54,-5310,1324,-462
50,127,41,-2544,6508,1007
-24,83,-38,-4072,6050,-175
-2,-22,-128,-8937,3901,190
-51,17,27,-952,388,2009
-55,34,-93,-1711,-5016,1333
-88,86,70,-210,-1391,1466
-98,-13,-103,-6415,2608,90
-7,-96,-23,-2896,-4114,-6192
-14,-34,15,20382,-3927,9681
126,-113,-27,-17005,5159,-7218
-5,91,-5,-8177,9096,973
46,3,113,9709,-338,3433
-51,21,101,3608,-1730,-1845
-103,120,-107,5082,-891,-893
-33,55,-115,4445,-2623,-254
-63,-114,14,-1553,-5974,-1446
48,-43,-85,-835,-5039,-4062
-81,-26,49,5245,-1355,-176
-48,84,122,-507,-1848,224
111,113,127,-1875,256,-1816
-43,-38,-9,9330,1286,2110
-103,-105,-23,10991,-1210,3574
-54,-9,-69,-9695,-3327,-6332
-27,40,1,1265,3921,1187
94,-64,67,1868,6023,3750
5,-26,47,-6196,-3208,-4607
-84,-80,124,7939,2905,2762
103,-2,-106,-1423,-1132,-782
-108,106,-56,-1926,-233,-897
-63,94,118,566,484,-242
-34,79,-75,-965,169,-1042
-7,106,-124,-982,602,-730
-46,-86,-118,-3000,-2739,-1055
-66,-59,-49,-3520,-1908,-1292
-42,-18,-105,1561,889,503
-74,-45,53,232,-233,-274
-70,-25,36,1554,969,563
-126,-24,100,541,54,106
-118,-24,-121,-654,-551,-230
-88,-105,21,-3691,-2939,-1275
-7,-74,32,-293,-636,192
-31,-97,109,-190,-221,-216
-51,-73,126,-41,3,-87
-56,-46,-102,-1308,-183,-481
-30,-15,100,-790,223,-295
-33,4,81,-721,417,-450
-26,20,68,-540,456,-535
-3,25,72,-665,380,-467
29,38,57,-407,764,-169
3,71,69,-1072,-689,-346
-28,62,46,-2170,-1744,-783
41,24,-8,228,320,420
36,-4,120,576,159,516
8,0,-92,338,294,192
8,-3,-91,638,490,312
-2,10,-99,723,577,371
-2,9,-78,448,325,688
-14,25,-17,-393,-154,1247
7,-18,82,-294,-245,1056
54,-16,-42,-1072,147,-68
-3,34,69,-232,1524,-494
-54,47,62,1667,3273,-1678
44,104,71,-6141,3024,-4375
105,27,-84,-7189,4544,-2940
-102,7,26,-14319,3867,-578
107,20,-124,4627,-3563,4136
50,-112,-120,-9316,-5419,-566
-71,-123,-62,680,971,2722
-52,-5,69,-12701,-4822,-9115
-67,47,127,17059,-1939,704
103,-24,51,3036,2835,718
45,-31,108,-21661,8445,-3715
63,94,124,12897,2928,7562
-36,-127,-111,8425,-762,714
62,-7,-38,-1446,-1759,-2159
-72,-128,-10,6548,-3067,-377
41,49,108,4554,-8574,972
31,76,75,1276,-8724,-3926
35,-94,27,2237,-1220,-1936
28,32,58,-5562,2812,-1250
93,32,-38,-3016,4089,939
108,104,53,-9017,4076,5
121,-33,-6,-9018,6847,3289
-100,53,1,-6967,-2982,1302
102,77,-14,7114,-4968,1053
-58,-18,-97,-6546,-2218,-3517
-40,-2,90,-4064,-3049,-7722
-58,-44,19,27534,1506,13047
88,-76,-12,-21398,5408,-9638
36,-10,105,-4880,7424,6177
-2,-59,-110,10106,472,1714
-90,51,65,2282,-766,-1767
-94,1,49,1784,-240,-749
-99,55,103,3177,-740,-2508
-23,106,-71,5726,-6788,3757
75,107,-55,-4083,-9018,-5789
123,-52,-124,7778,-2619,-1356
-64,3,-65,3055,-1495,278
-119,14,-82,-2515,-1865,-2466
-37,-121,31,5777,811,1940
-26,-77,79,1056,465,-804
-90,-84,-92,4288,2426,1046
33,105,-94,-527,-535,-660
94,74,2,-2061,205,-557
-98,103,88,-7,1427,645
121,96,-104,405,319,419
76,82,-85,1015,-91,90
68,88,-29,-473,-447,-800
-114,89,-52,-1448,-362,-933
-57,69,109,-222,564,-342
-38,68,108,293,812,-98
-51,125,-90,-1011,-106,-73
-39,-105,-116,-2471,-801,-783
-27,-63,14,1032,815,646
-100,-104,-108,-1788,-1085,-1040
-56,-90,31,478,-208,-5
-23,-86,80,281,-40,217
-40,-51,106,369,-131,344
-104,-47,127,30,-497,22
15,-61,-122,-5672,4392,-769
0,6,-26,5217,5123,1053
110,22,23,-12167,1671,-1146
-113,-86,48,-8156,4365,809
60,110,19,-2076,-1595,2168
57,54,-67,-1315,-4660,2058
125,-90,-56,-973,-140,1977
126,92,-94,-13882,-3221,-6347
-19,60,-76,28683,-4374,3249
-51,-31,30,-20748,1183,-4734
85,76,86,-9306,11951,2251
51,-114,-107,13281,163,3456
-68,86,-91,537,-2992,-2681
124,-81,103,1932,1618,-1118
96,68,-15,4861,2055,-2430
-92,-115,4,9361,-10668,6158
-57,72,33,-5901,-10469,-14189
113,10,38,16428,486,5284
34,-111,99,-6197,-3144,-2564
-41,61,-27,805,-2315,1180
-33,-65,99,-202,243,-3235
44,-71,20,8396,2029,5646
32,61,-64,-7451,-1348,-3670
-89,-66,45,2282,484,1201
123,100,-51,1603,-137,587
68,93,-60,-826,16,-1390
118,107,91,1028,1441,-382
-101,71,70,1645,2052,-373
-66,83,102,2756,2429,505
-83,100,-35,327,998,54
-89,110,-12,-1564,-667,-675
-57,106,-111,-1316,-879,-551
-26,103,80,-39,29,-47
-22,116,99,136,435,147
-39,-117,-109,-205,-134,-114
-32,-95,-123,-581,-62,-33
-55,-100,75,43,88,-62
-76,-111,88,243,-311,-145
-65,-99,126,-311,-682,-194
-23,-69,127,-131,-516,83
81,-109,58,-6331,3183,-1672
-40,-106,63,-8386,5884,-1372
75,-26,19,-11799,6333,851
-34,60,115,-4619,-1525,3678
121,-110,-116,834,-6066,2216
3,113,-96,177,-712,1487
46,-42,-7,-11257,-6123,-9264
-122,79,4,15943,-2481,-124
-95,-62,98,14987,-3696,6952
-61,48,-9,-21488,7980,-4939
87,75,71,-14,3900,4525
-116,100,40,17366,1741,4797
117,-96,-26,-6940,-4326,-6306
45,105,88,6611,1309,-164
-54,-125,-27,4777,930,-363
56,-114,46,1056,-5598,2612
-28,43,-71,-3502,-7274,-5360
36,-120,56,6679,-1226,284
70,-78,98,-1031,-2170,-1118
-72,19,55,-1268,-238,-986
96,126,105,4443,1998,1491
24,25,-55,3493,974,368
-84,-71,85,4183,-78,883
81,97,-94,-2722,-983,-1946
-70,75,-81,-1443,724,-628
-80,65,64,1251,1182,352
125,61,-88,272,-93,-378
-119,107,-56,25,-580,-33
-103,-118,-43,-1823,-720,-347
-79,-85,126,-1112,274,-82
-57,-72,70,-432,995,-39
-57,-68,72,-10,1128,-147
-39,-51,98,-696,546,-163
-10,-24,86,-786,44,2
-7,-10,59,-47,44,264
-33,-23,71,250,16,79
-51,-34,101,-87,-154,-49
-34,-45,93,-181,-178,10
-17,-49,69,464,18,348
-35,-48,95,641,-204,269
-26,-117,77,-3814,1782,-2393
4,-124,5,-7287,3180,-2440
-95,0,96,-11838,6387,-1241
-105,125,0,2686,-3253,3765
46,-97,-114,-8982,-7985,-813
73,-73,-30,5297,976,4333
2,79,-119,-13048,-4970,-5976
84,-69,-67,10277,-2915,-5890
50,-61,-89,21591,2930,12544
-114,94,122,-25032,6077,-11240
19,75,-94,6519,6697,9635
71,75,-68,15704,445,5056
-61,97,-95,-146,3133,-2514
73,46,74,-196,2060,-1345
39,-11,-42,4170,-6299,2956
53,87,-5,-2699,-10410,-4967
36,-41,80,9577,-2342,1735
35,93,69,-1049,-3597,-1632
-115,-53,40,1467,-2423,-1582
-92,109,-28,2922,-1024,-609
86,41,-4,1330,316,-242
50,8,-28,2519,-441,700
-91,-32,123,1739,-1854,-417
72,106,91,766,-236,-740
77,95,-4,90,1831,-74
87,74,-107,-191,2582,-162
102,86,112,1891,2503,553
79,79,-33,-190,485,-245
109,103,-69,-852,-197,-279
-109,115,-115,-939,-205,-340
-77,-122,113,-308,176,-225
-62,-106,122,-307,272,-390
-63,-102,122,-575,150,-552
-58,-102,107,-636,-16,-585
-47,-101,96,-567,-353,-463
-47,-97,100,-526,-598,-248
-45,-87,87,-262,-295,65
-54,-72,79,122,-42,301
-81,-55,102,95,-416,194
-94,-45,123,-234,-698,115
-49,74,-90,-4292,948,-3038
113,96,32,-4575,-767,-2020
-11,45,-108,-4575,-4728,-775
-38,-8,32,-4162,-6003,96
-88,-22,-120,1540,-3110,2592
127,-88,32,-4604,-1023,-1729
-32,10,122,41,-405,-3318
111,-128,52,14010,-1800,4510
63,-116,-111,-10595,1801,-6276
107,-99,-85,-779,7428,1055
35,-21,-25,-2509,3195,-1012
24,-47,109,4655,2987,566
-13,-26,9,1165,888,-1934
5,113,119,5552,3126,461
40,43,-35,878,2574,917
-120,-96,-81,1881,1449,1434
105,-101,-123,895,327,1799
-86,-69,-93,-518,-2304,1569
-44,60,74,-1360,-2858,877
46,-128,-30,1039,-2710,2021
45,-125,25,437,-3338,799
91,-15,-120,822,-2977,1084
-105,-76,-14,4462,-931,2344
68,-37,90,-530,-3179,396
122,-64,68,2302,-2379,1401
-88,-93,114,3200,-1672,1790
30,48,-127,-1164,-3540,-97
44,125,-126,-224,-1699,-625
82,56,-13,2599,-543,1002
3,-120,-80,-542,-2390,435
-40,-80,-102,-2383,-2419,31
-34,-110,-8,-1840,-625,-214
21,124,-101,283,1652,78
18,-112,-104,849,1755,277
15,-83,-84,-81,1061,75
42,-66,-105,-834,488,-150
73,-49,103,-557,306,-221
92,-42,97,-246,207,-416
112,-50,112,-310,14,-608
-95,-39,123,-609,-131,-611
-30,-121,-98,-4237,-191,-3078
-74,-25,9,-5769,-1490,-3086
48,31,-102,-4876,-4763,-936
18,75,16,-5766,-8237,-907
97,104,-82,528,-6184,844
-19,-103,66,-1500,-2351,1494
107,16,-14,-7064,2133,-2078
21,86,-33,431,-2033,-2936
-67,46,111,17373,-4127,1642
67,-52,-27,-19211,11034,-3515
49,88,105,4553,6467,8205
-74,52,8,10720,2639,892
127,-56,-41,-3609,704,-2764
-34,74,-20,3298,5646,818
103,-116,-117,668,3595,4627
45,45,-28,-1453,-4210,636
-93,20,-94,3257,-7070,1582
126,-39,59,-2455,-4176,-656
-36,-5,7,794,-2351,1205
5,-116,22,1336,-6044,-1279
-54,-50,27,3693,-3210,544
-88,-19,46,2809,-2929,726
-69,126,-22,179,-1753,-38
54,-39,-1,1796,-560,692
16,-79,-106,1673,586,266
-78,87,-2,-3047,-2877,-2358
86,59,-112,3649,1491,260
48,69,22,2476,564,86
17,114,72,-308,-474,-192
45,-120,-11,-1576,-484,4
42,-99,-86,-926,-387,-136
53,-90,-123,-143,-10,-134
63,-68,-90,-607,-86,-240
80,-55,-101,-678,-22,-238
100,-48,-125,-307,153,-190
113,-45,-119,-319,151,-178
122,-37,-123,-309,109,-195
119,-33,-123,-368,-117,-308
127,-39,-128,-416,-130,-324
-109,-33,-123,-353,-177,-269
-40,-76,-69,-4763,3921,-472
49,-11,-92,-1621,5711,635
44,-61,-125,-11467,7871,7
-100,11,70,-7437,2269,2476
89,42,-80,662,-7400,3003
126,-61,-100,2333,-284,2415
-87,74,12,-1713,-996,-1251
-37,22,-65,-6801,-4103,-5755
8,-7,-37,11955,-6225,-766
61,-21,44,6836,152,4181
-91,-100,15,-20499,10122,-6045
90,11,69,9594,5840,7556
-13,-99,12,2110,-5138,-2827
32,-29,-39,6684,5222,2680
123,-96,-11,-5563,5519,-150
59,44,120,6725,-2274,7263
4,20,-77,-6844,-14272,-2210
122,-22,-19,5319,-6437,-4501
-82,-106,123,7022,-808,2185
33,-64,-83,-2233,-1976,-2717
-37,76,-90,4796,-2411,1436
-1,48,57,-3056,-1559,-3644
-104,18,39,7605,2650,1595
-8,-42,123,5964,1174,1673
112,-126,-5,-771,-803,-501
91,92,122,-1530,-419,-154
108,21,-62,-1240,232,-105
120,10,-111,887,922,273
116,15,-60,564,537,276
116,55,-47,130,554,255
-123,67,-59,-110,476,14
-104,57,-77,62,547,-133
-77,48,-84,-86,579,-243
-34,60,-87,-384,500,-117
-19,72,-115,23,512,91
-33,64,-113,215,329,-173
-29,55,-100,80,157,-249
-33,49,-88,-449,-262,-403
-4,41,-112,-431,-472,-157
25,70,-122,-120,-325,370
-92,-90,45,4074,5608,410
-82,112,112,1470,4690,-2209
-74,107,112,962,3906,-3842
35,97,-94,-2084,1064,-3782
-97,6,-122,-9865,-1274,-4523
14,-8,120,-11755,-5379,231
-31,69,120,-5169,-8480,2468
-43,61,64,-3321,-576,4770
17,118,-15,-16956,-3824,-13433
80,-54,92,27103,2518,7892
-106,9,83,-16642,1008,-6757
-2,26,-71,-16666,8005,674
-117,-53,66,21013,5557,12270
-96,-20,-65,-4750,-3271,-6151
-44,-42,-21,3725,931,1302
115,71,-47,2424,-1386,1063
123,-30,-94,3901,-2937,371
115,115,53,1456,-4179,488
45,-61,-4,548,-4154,-25
-89,-86,-93,3920,-1902,1221
-105,-100,65,1060,-1790,1175
-89,35,-45,3998,-776,3428
-7,0,77,1956,-1118,1918
99,-49,12,647,-519,-29
2,-88,-26,-3367,-1799,-1844
70,102,4,-1730,-875,-1464
101,70,-98,812,-104,368
27,92,-12,-90,-517,-286
37,-100,-22,-514,-531,-559
76,-72,-48,-1007,-349,-954
121,-69,-100,-884,412,-948
-91,-70,124,-413,884,-826
-56,-59,122,-506,564,-492
-82,-47,-118,-2332,-744,-1184
-29,-40,-6,1386,1413,-214
-51,-50,100,1258,283,277
-111,-34,-67,-1230,-1284,-595
-122,7,-124,-1137,-1417,-412
-65,-18,105,935,805,216
-79,-19,-78,1844,959,202
113,-55,105,2905,4484,-468
-8,23,-27,-469,2479,-3670
-84,-2,-53,-853,501,-3729
121,-118,-28,-7164,-1883,-5693
-114,14,-127,-8173,191,-1034
42,111,70,-4981,-2626,471
23,-35,-72,-4532,-6390,447
117,-76,-77,-368,-1289,2879
21,117,80,-14270,-1461,-5675
-115,33,-76,8532,-1857,-8726
-81,-105,-116,25756,4455,11112
-22,98,57,-27414,3597,-9052
68,-9,-112,6106,8649,7383
-62,41,26,25414,5892,8038
-19,-5,-104,-7426,-681,-6473
118,118,6,5165,4398,715
-116,12,-66,1572,5582,568
84,124,45,4229,51,4264
41,-19,-101,-6755,-5498,-546
93,86,47,-233,-1770,2142
32,-61,11,588,-2957,566
27,57,59,867,-3033,1688
2,-83,-11,641,-3430,547
83,-63,-11,2884,-2893,1466
102,124,-46,186,-3843,877
118,-11,39,2452,-3719,398
-127,31,-104,324,-3805,-629
-52,-23,-24,1708,-1178,671
-113,3,124,-1417,-1882,-269
-112,-76,1,717,-894,-100
117,-102,-24,1739,29,652
10,-118,28,904,88,-54
1,124,3,134,219,-39
0,115,-32,-271,241,177
-4,127,-78,-390,63,149
4,-110,-93,-37,-55,258
12,-73,-91,-70,2,117
19,-56,-89,-297,165,-227
38,-55,-105,-368,346,-530
73,-69,-124,-452,311,-732
54,47,-118,2502,3581,-2169
-9,125,-59,-1784,874,-4702
59,70,-67,-2174,1460,-6021
-22,-35,42,-11445,1909,-3974
-86,99,8,-4777,-832,1006
86,-46,-39,-5180,-7479,412
74,121,-55,544,-5187,2090
61,30,-63,-2950,1720,700
-117,127,-58,-11747,-3942,-9242
23,-75,79,27650,3062,9795
-106,76,84,-24697,4312,-10714
-102,51,-67,-2638,6403,2971
-123,-119,88,20202,8455,5582
29,63,5,-14919,-4279,-6533
-80,112,104,8388,3934,3464
68,-52,69,1803,452,1911
45,-10,95,3383,-4115,5751
-112,73,-78,-3336,-9138,1984
20,53,-95,1495,-4715,1321
81,37,-46,4036,-1403,361
65,36,45,4173,-1990,4306
46,-14,-64,-6185,-4755,-3211
-45,-24,63,4917,-1542,891
-93,-94,71,3965,-265,462
38,-61,-78,2278,-290,732
-33,-78,-76,-2350,-406,-662
29,115,-25,-1553,813,-632
79,84,113,424,1438,-206
76,79,-92,612,828,-209
92,99,-74,-122,402,-201
114,125,-86,-924,-14,-396
-123,-126,-125,-546,22,-430
-102,-112,121,-547,6,-475
-91,-99,118,-630,-222,-415
-99,-91,114,-618,-521,-327
-112,-74,109,-623,-643,-253
-115,-55,116,-634,-728,-170
-121,-31,122,-663,-693,-118
122,-3,118,-529,-533,-126
110,6,121,-489,-428,-195
-85,65,-100,-7078,-1868,-3701
-40,28,11,-3133,-137,-19
-127,95,-3,-6497,-6797,-410
30,94,-37,-5146,-9959,797
115,28,-69,1026,551,2787
69,-97,-46,-5116,2206,1063
-68,-40,-84,-11370,-4592,-7210
-118,-85,-38,17804,-6401,2938
-123,117,17,-9323,6779,-1940
19,-122,37,-12323,9541,107
112,-123,-40,17550,5736,9495
-45,-36,-123,3392,-2061,-3545
91,-106,108,6402,4015,2860
59,-96,18,3187,-170,2398
-10,114,-6,3826,-695,6404
-4,20,116,-2280,-6074,1924
-63,39,98,1971,-2624,5823
-37,-94,53,-3496,-4419,-577
7,-119,-80,5924,465,5146
23,-122,125,-2646,-3318,-1272
-64,28,-127,3658,1398,3586
119,-105,57,-1503,-2950,-96
-27,105,27,3887,1074,1802
111,16,-124,2141,562,1177
21,-16,-83,-842,-865,-228
91,-15,-125,-2424,-1479,-598
-102,-16,-111,-723,-93,583
89,-25,95,1312,840,847
65,-29,-87,641,219,287
75,-15,-66,192,-196,183
105,-8,-94,-48,-63,313
98,-12,-89,115,-441,-67
102,-7,-81,-79,-612,-230
124,-3,-70,-347,-575,-406
-106,9,-112,-134,91,29
-120,14,-123,271,302,-2
120,30,124,-4,241,60
118,30,123,-80,-29,-102
-123,62,126,-140,-190,-118
-113,65,-121,-281,-248,-289
