AccX,AccY,AccZ,GyroX,GyroY,GyroZ
5,56,4,-1289,3943,-1828
90,-38,14,-1927,2785,-2232
-96,-15,27,-4953,1966,-3253
124,114,-71,-4367,4158,-3568
67,-80,-92,-5055,3133,-2794
-59,77,73,-2755,2277,-2054
44,31,-115,-2456,1676,-1468
-29,118,61,-1103,906,-670
52,44,98,10,-326,-285
86,-109,29,887,-1849,1138
-121,44,-44,2433,-2366,1925
109,6,94,5495,-950,2647
-4,-63,79,807,3452,-2156
-30,-79,77,-3830,3497,-4801
-128,-118,-33,378,428,-291
11,-54,90,2261,-1266,-383
101,-102,-117,-3905,-2471,-191
-36,-76,-102,9023,-3387,4588
8,-101,-72,13398,-1660,11082
122,18,29,-2978,-4779,2507
-118,32,-23,-320,-8117,3098
-7,120,39,775,-1045,-1163
115,-39,-85,1722,-937,1319
59,-21,112,170,-1003,857
-60,-10,57,2638,82,1704
96,-59,69,-2061,707,-1132
117,47,96,-1237,1478,-823
-114,54,54,293,1070,-170
-81,58,81,-424,121,-99
-98,115,110,-875,-150,-718
-34,88,61,29,491,-128
-63,97,95,-908,-254,-302
-58,104,45,128,78,57
-63,-126,79,-449,-68,-87
-65,-106,70,-307,-265,61
-59,-78,91,-180,-232,60
-69,-75,94,-171,-64,9
-73,-81,85,-132,-88,33
-76,-80,86,-213,-138,37
-65,-78,85,-26,-49,120
93,-63,8,-3414,2121,-2487
14,-105,-92,-2100,2958,-1654
-105,-35,-14,-5750,3128,-2279
126,-40,-40,-3775,3742,-2356
50,-79,118,-4289,3395,-2680
-108,65,38,-4761,1733,-2686
50,77,98,-1522,580,-431
124,18,-95,-348,-255,569
-17,98,69,-1357,-766,483
-35,-119,-41,-376,-1154,555
126,-6,27,1239,-2067,2115
-4,-80,-65,5786,1182,3557
73,-86,124,-2850,2156,-3782
91,-15,92,-321,2202,-2650
-7,-75,-33,240,681,-835
65,72,2,2959,226,50
-12,-78,1,148,-1093,679
-11,-62,0,3949,-1290,2997
42,64,28,3510,-2167,3825
127,-126,85,2845,-2105,4531
-96,-56,58,2550,-2195,4316
-10,63,-117,62,-2354,2522
84,84,-122,1398,58,2649
59,124,-49,-1437,-3409,1707
-74,20,11,-144,-2425,1491
1,84,21,1499,-2977,2400
-75,-83,-127,1021,-2292,2183
-116,-72,67,2594,505,775
73,-12,98,-997,823,-893
82,-87,-28,-3858,451,-2313
-81,83,49,-2511,883,-1384
-66,68,-33,965,335,705
-60,82,70,555,268,433
-58,-121,83,694,786,117
-109,-106,-121,-872,-20,-1095
-28,-111,111,-763,282,-880
-18,119,75,-607,202,-458
-63,125,53,-141,-265,-85
-56,-104,84,-175,-390,-119
-59,-96,104,-401,-502,-126
106,-107,-85,-3561,3055,-1842
24,-128,115,-1856,3619,-1073
-125,-1,15,-5598,1816,-2005
-84,-19,-72,-5720,5017,-1812
123,-128,27,-4847,4985,-1952
-112,49,14,-7470,1339,-3017
87,88,-71,754,-58,879
-99,101,27,2489,-277,1236
65,31,-94,-1578,-2911,-38
-105,-102,-33,2941,-3524,2486
-62,-95,39,4698,-813,4331
-40,-15,31,2403,666,-349
55,37,89,-2650,4847,-3970
-32,-64,-69,-1470,2049,-2046
120,-97,80,2255,799,226
-78,90,71,1083,-963,-217
2,13,8,1581,-308,1601
-33,-23,-103,2089,-1475,1833
84,-49,125,3837,-1669,4249
25,-31,93,1395,-2896,3941
17,101,63,706,-2177,3250
77,39,-92,865,-2182,2535
-51,-27,122,2063,-2242,3425
87,14,-29,1575,-1921,1459
65,34,-61,3751,-3518,4654
101,-46,-103,2372,-2416,4804
-43,21,-51,-689,-481,-739
-17,107,70,-1809,1306,-2089
110,13,-84,-3491,1411,-2152
99,-13,45,1933,745,-38
54,6,-88,1714,-160,276
-123,80,11,-2490,-475,-1262
-49,52,102,-180,921,-647
-23,19,101,8,827,-839
-5,47,112,-765,151,-623
15,68,78,-452,196,-420
-6,78,57,-57,239,-349
-38,98,76,-492,-421,-293
-46,118,59,237,-369,94
-57,126,107,129,-408,310
105,-22,-41,-5640,1271,-3115
34,24,-81,-1590,2901,-1374
117,-2,46,-108,631,-1265
-50,-127,-45,-5309,2190,-3086
-94,81,-43,-4722,2841,-2528
93,14,-92,-7369,4106,-2231
73,82,69,-5083,4594,-1466
-105,37,105,-6475,2047,-1744
38,-88,40,-4093,403,-857
93,-96,5,1814,-1248,641
46,-97,11,830,-2888,40
72,-34,-18,1989,-3092,1034
71,69,22,4464,-489,3240
-126,38,1,7943,1418,2453
-21,111,19,-2206,3930,-3324
124,-48,107,-936,1984,-1600
-101,38,-104,504,248,-1370
-59,-127,-52,612,-759,-856
-58,-16,-116,3182,-1977,1451
-51,-97,124,4038,-2222,2220
50,56,-42,3500,-2426,3527
6,100,-84,1178,-3230,3073
69,114,56,1745,-1014,2963
78,120,29,1648,-1744,2496
117,-48,-71,-150,-2587,1920
-44,-115,87,1037,-1081,1635
-52,123,50,1093,-1635,1792
-43,-105,91,384,-2377,1485
-47,-113,58,1949,-592,1573
-96,125,83,1283,590,210
-128,119,2,-473,1637,-863
-103,81,-44,-2773,838,-1533
-73,66,39,-382,939,-377
-72,48,53,911,397,408
-63,60,123,-66,-53,-39
-18,68,127,527,356,86
-7,88,-101,-189,230,-182
-4,90,-112,-622,20,-282
-9,78,95,13,-31,-44
-17,78,103,235,-170,161
32,-44,76,-6154,3864,-5453
-81,-95,-32,-4261,1474,-2854
-20,-26,-124,-6166,4024,-3293
72,20,-28,-13400,3950,-4811
-90,-59,117,-4979,-2592,-1426
50,-116,-51,5769,51,4047
-50,-7,-3,1955,-3948,2426
-109,79,42,4979,-1641,4494
64,-123,96,-3962,3344,-1585
-46,76,13,-2233,1530,-3419
-75,37,60,80,1377,-1223
119,-108,-7,-183,785,-493
7,35,90,1015,-140,567
-88,7,-28,-556,-761,80
-13,11,114,3421,-1160,1754
-28,80,8,2185,-1761,1933
80,-123,-68,4024,-1642,3058
-116,95,86,4008,-1906,3398
89,-8,17,1809,-1547,3607
-114,21,0,2246,-2481,4441
21,44,-28,-204,-5243,1856
53,-96,84,24,-2154,1953
-18,-124,9,1265,-3319,3379
45,3,-42,2601,-602,2240
-2,-89,-70,-1176,600,-1923
-121,22,-40,-2597,2114,-2008
-96,8,79,-625,1237,-377
-119,10,16,2472,811,943
125,52,-71,-2533,-968,-684
-65,84,73,513,-33,-19
-42,60,-117,24,165,13
-49,86,-125,-452,291,-460
-33,69,86,10,109,-76
-63,75,98,-781,-371,-246
-52,94,71,80,-244,180
-53,125,113,-461,-411,66
-67,-105,114,-266,-207,-111
-63,-116,105,-107,36,-15
-65,-123,99,-240,7,-44
-47,-112,83,-3,-21,202
-21,-115,-100,-3935,1215,-2543
-52,-119,98,-1472,2035,-1477
110,-48,-41,-3330,1682,-2423
42,124,60,-6321,1717,-3381
-122,127,64,-3016,4855,-2269
-10,20,29,-4877,2139,-2369
85,-113,22,-2864,-110,-1064
94,-119,29,1304,435,295
93,-106,48,-2029,-1328,-387
14,98,25,344,-1654,859
-74,-97,97,609,-1892,1305
-58,24,-94,3570,-755,2803
-80,-87,78,880,920,1668
59,11,31,862,4933,-1186
38,-3,103,-880,1663,-1897
-84,58,-62,-540,-77,-1592
-10,98,-46,2171,-323,-286
-55,75,-59,1897,-1815,551
-65,-3,-122,2207,-1346,1240
30,-29,112,4472,-2634,3097
78,66,-62,3254,-3382,3418
62,42,82,1934,-3069,2883
66,-90,-80,-1048,-2361,2717
105,31,-33,4305,-1197,3111
-117,-80,-122,220,-1788,1889
-13,100,-48,1690,-1477,1955
91,-26,111,3905,-2156,3803
-53,3,90,-1157,-1531,947
69,127,37,474,2468,-1640
-127,-45,-82,-1676,1898,-1460
126,-46,38,-718,33,70
-123,11,65,2653,371,1448
-109,29,-44,-693,171,-327
-67,64,-77,41,227,-291
-38,-11,-115,-92,701,-478
-12,-49,81,396,658,293
-65,11,121,-1008,-692,-95
-48,44,117,-501,-472,-25
-53,74,123,-679,-323,-125
-57,65,94,-71,-93,118
-90,48,-119,-4136,3299,-1759
-115,10,-11,-2809,3853,-1239
-15,-92,-22,480,2491,-1478
73,-29,-84,-5634,2072,-3175
73,8,104,-4854,4759,-2696
-6,-23,-98,-5784,2101,-3416
123,125,13,-5962,765,-3286
-7,-82,-46,-1525,-1038,-1579
55,67,-23,52,-292,-453
94,-23,-80,-156,-694,158
-9,-18,-27,1105,-1017,1203
-65,56,-17,968,-2218,818
-108,-88,-40,7634,-2491,4039
58,-43,-56,217,1543,1224
-98,11,33,-1844,1424,-2366
-111,58,-87,-1759,2126,-1852
-81,6,93,370,2415,-53
111,-28,-12,-590,709,-117
-7,44,86,1772,913,966
-95,105,84,-342,-214,384
-32,47,-85,2941,-307,1486
-33,61,-88,1861,-1294,1395
-119,-110,29,5564,-1552,3945
-53,-54,119,3382,-2576,4829
100,75,125,727,-2447,4683
0,-119,-105,2004,-3151,3723
-107,-90,-41,913,-3298,1604
84,74,79,2089,-592,1380
-37,-50,85,2393,-2252,2269
-7,-93,34,-771,-3634,2626
-63,-54,-57,803,-942,1873
28,-88,124,106,1388,-731
79,1,-69,-132,2181,-980
-118,-25,126,-1061,746,-531
-122,-20,100,-905,-495,-119
-81,1,83,927,18,117
-86,4,-114,-203,-223,-131
-92,10,-125,-450,-429,-178
-94,32,-123,-432,-493,-359
-84,34,126,-800,-502,-342
99,-9,-26,-5012,1399,-3117
64,-93,-117,-3464,2219,-2318
21,101,-107,-4484,2917,-2139
-94,49,118,-4796,1941,-2165
124,-11,61,-4654,2018,-1793
86,-112,-7,-4191,1084,-1138
67,86,-56,603,-2500,-230
10,-121,106,-1446,-1680,634
-86,54,-38,2161,-1357,1904
-110,-90,-78,1286,-2380,1792
-128,36,77,4032,-1681,3504
76,106,91,5961,2736,1040
79,8,76,-6863,2682,-5837
82,58,-102,-334,2707,-597
99,120,101,841,4,-1136
-54,22,-17,1613,-679,-284
-22,-33,-23,1993,-356,1269
-74,25,117,1848,-1148,1686
50,-91,34,5741,-2271,4199
76,0,-20,2229,-1492,4170
-8,82,48,1883,-1915,4024
-32,-2,53,1081,-2383,3844
-75,-12,27,2967,-2861,3172
-70,-120,52,-3725,-3237,752
-98,35,-23,998,-924,1504
-50,-5,67,1094,-1745,1283
1,103,40,1995,-1675,2092
-36,-108,-104,639,-1679,1578
-77,-96,109,461,-79,589
66,73,-14,-3,845,-907
112,-8,-96,-755,577,-640
-121,-8,98,324,442,224
-126,-30,98,-232,124,-37
-122,11,110,-202,-170,35
-101,18,112,-191,-194,-22
-88,33,116,-271,-143,66
-89,38,102,51,-168,125
-94,51,126,-406,-179,-148
-80,53,108,-146,-79,128
-86,65,105,-200,1,-58
-2,-37,-114,1071,5124,-1358
86,-3,58,-4365,1858,-3559
-23,44,53,-3287,2723,-2759
105,23,56,-6052,2219,-3137
30,123,98,-2300,2156,-2207
-47,40,79,-8587,2753,-2976
-109,51,-97,-5675,2045,-2187
58,-36,-120,-50,840,303
36,109,-22,473,-140,306
-113,66,-23,-1233,-953,543
125,18,105,677,-2357,1311
28,-93,22,3678,-2875,3057
101,-55,-74,1367,-17,2964
-103,-118,-38,2083,1412,-941
-54,-61,-22,-3201,1505,-3199
-72,106,50,520,2074,-707
-79,-13,-43,492,70,-467
-39,62,96,1778,-266,539
-103,84,85,533,-374,874
108,56,-14,2550,-1022,1146
-98,-46,17,2448,-638,2171
-69,-49,-13,1831,-1024,2421
48,127,-85,2212,-2385,3082
93,118,-12,388,-1566,3694
64,78,3,787,-2310,3759
-23,-83,79,750,-3501,1540
-120,97,22,187,-2474,904
2,55,82,2753,-2741,1590
103,99,-91,3626,-2159,3085
-10,-49,51,-1317,-971,1572
61,-87,118,-1422,447,-830
77,84,-52,838,1106,-562
100,-3,-65,-1104,132,-828
118,-16,89,737,257,325
108,16,-105,-338,-198,-117
-98,58,-104,-251,-102,-157
-77,44,-127,-200,78,-186
-58,39,120,-252,66,-55
-57,52,94,-108,137,-49
-60,73,98,-478,-91,-112
-13,-44,-100,-3036,2137,-2145
-55,-24,-80,-3258,2009,-1910
-108,51,22,-4598,3061,-2730
-124,121,26,-9371,5793,-2708
110,-120,69,-3024,3823,-1150
125,-127,47,-6988,1090,-3259
52,-63,-14,-1452,71,-981
73,-120,-22,-305,427,-446
-109,52,-90,-556,-1068,-64
79,13,-28,1687,-2133,426
70,103,-92,2610,-3229,1259
120,82,-22,3628,-1983,3712
2,-127,17,2330,1905,435
9,75,37,-3552,389,-3182
-104,-39,97,1387,3218,34
-14,-11,73,612,1027,-350
93,-74,6,-420,958,-95
-52,101,55,1313,200,575
-97,-126,29,627,-909,85
-71,39,-67,2093,-524,947
-25,-72,-87,2284,-1418,1712
44,-62,116,3272,-1732,2807
53,-107,4,1751,-2469,3126
68,26,44,1093,-1610,3007
51,48,14,1304,-2893,2565
68,72,82,718,-2243,1647
112,124,-119,2166,-2487,1900
-62,57,97,1872,-1930,1752
15,66,-128,1933,-1991,2592
-38,-120,-68,428,-1443,1780
123,-90,124,1056,-106,762
71,67,31,153,380,-567
109,-22,-59,-1029,-106,-492
104,-15,123,259,23,-34
127,-17,-109,285,-131,102
125,15,-91,-626,-269,-357
-97,10,-125,-46,171,-22
-87,7,117,-320,183,-186
-84,30,116,-152,98,-13
-68,27,94,-30,168,8
120,-85,-40,-2461,2683,-2873
25,-72,29,-1474,2872,-2320
-97,55,69,-3735,3515,-3533
-113,-22,78,-6475,2719,-3818
-61,11,34,-2780,3739,-3015
47,23,30,-6934,2466,-3586
115,-35,117,-3697,852,-2169
49,-122,84,-52,-439,-496
109,50,-22,-178,-1109,285
68,51,-33,-222,-2145,909
64,-93,106,897,-3890,2157
77,127,-39,4157,-2437,3587
-56,-56,31,4262,2618,2044
39,-53,34,-2879,1725,-4067
-38,-82,-20,-3075,2760,-1857
9,-5,110,3051,1432,-82
55,74,127,252,-217,220
-72,88,-46,1613,-964,761
-105,68,-82,1220,-1152,1166
-36,35,85,3440,-1503,2609
-32,-20,-34,2543,-2541,3083
88,6,7,2812,-931,4183
29,44,100,1320,-1645,3704
33,71,47,1067,-1229,3081
-6,-90,-112,-31,-3400,1898
67,-32,-7,-1025,-1991,417
-34,-46,-52,3349,325,2158
-13,26,-25,3998,-701,4165
-64,-64,-28,-2699,-2499,1543
-105,-33,55,776,-757,860
60,-128,68,566,273,-1282
-118,28,3,-873,1295,-1481
-63,-71,-103,-1591,1024,-1054
-93,-43,38,2107,364,939
-120,16,-40,-1481,-857,-453
-69,39,-102,-971,-409,-350
-41,46,122,253,94,231
-68,73,-114,-412,-48,-243
-48,68,119,-217,-24,41
-68,84,108,-255,-140,-123
-120,56,-78,4156,3701,-2304
-45,-118,117,-4191,4827,-7892
-102,120,-25,-1532,2133,-4183
86,114,-16,-4924,1862,-4799
-89,60,-82,-7971,4393,-6212
59,112,22,-5130,1315,-3259
-126,120,96,-769,-18,-1062
-49,-121,84,-727,-1653,685
57,-16,-72,-2437,-4447,10
-7,70,72,4204,-2658,3280
-7,55,36,11148,635,2934
-92,-3,-2,-3515,4376,-3397
33,-81,-110,-1021,2813,-3342
-20,46,-96,-919,425,-417
-118,-103,116,103,-322,309
32,-36,43,5330,-577,2445
-13,30,0,-1107,-2750,241
21,-90,83,4381,-1552,4300
75,82,-91,4081,-3863,5051
-24,101,43,-652,-3723,2359
99,-78,-62,2731,-1636,3630
34,107,-2,1354,-2628,2336
62,-80,35,-5765,-4857,-129
96,58,-113,1982,-109,-279
-54,-31,-120,12661,1729,7085
122,-117,-85,-6545,-1425,-73
61,-102,-37,-5100,-627,-3613
-7,9,-41,6038,3440,2009
-102,-39,-87,-951,551,-520
-100,32,92,-894,-775,145
-89,47,100,-129,-511,183
-92,80,-115,-322,-228,-43
-69,60,112,184,301,134
-86,77,127,-433,-6,-199
-57,74,95,40,124,122
-55,86,96,-149,20,-45
-53,84,100,-380,-173,-4
-53,98,97,-116,-60,21
-42,109,100,-178,-69,123
-47,120,102,-127,-27,20
-111,-10,62,-3366,1149,-2928
-66,5,118,3135,4244,-2282
4,25,100,-6817,2881,-5003
-51,-47,-104,-4562,2108,-3319
-38,25,115,-8858,3211,-2982
84,-86,-64,-9320,3739,-3682
41,43,16,-465,-340,-1348
-16,-20,91,-378,699,339
17,-103,22,-1152,-3740,-534
119,97,122,9497,-2962,4696
-20,-13,-62,-4233,3291,295
-33,48,-93,-2155,4411,-3690
111,109,-16,-550,1959,-945
-47,-124,-46,3808,-1451,-652
98,-19,-5,619,-1074,524
31,-5,-49,2557,-1444,1669
-122,-25,37,3354,-2034,2142
59,10,40,3491,-639,3646
30,-60,83,456,-2143,2895
29,-122,25,1831,-1579,2446
39,120,66,772,-1870,2464
118,95,-12,2771,-826,2762
102,-8,-64,-161,-2586,1225
-72,-94,25,478,-1818,1273
60,112,-32,2735,-1890,2352
26,-47,-119,1086,-1412,1678
-40,-45,114,307,888,239
-92,29,-79,1116,956,-287
-100,-2,-48,-1323,-309,-641
-42,-27,97,983,386,342
-68,6,-83,-1123,-271,-500
-31,1,84,625,98,532
-66,37,-122,-472,-220,-44
-57,64,127,-705,-158,-164
-37,57,68,386,229,242
-59,74,109,-915,-315,-204
-37,75,51,263,-119,335
-52,93,93,-440,-345,-35
-45,102,86,-339,-278,-12
-52,110,80,-90,-94,-56
60,-115,107,-5272,2323,-4446
-85,99,58,-5493,2180,-3482
27,65,-72,-5098,890,-3140
-79,-55,64,-3229,2153,-2831
76,-61,6,-7332,910,-3086
25,-51,-74,-2610,1049,-792
-62,75,-14,-1364,615,243
30,77,58,-438,-1149,995
-6,94,-101,487,-2471,1115
-47,23,-29,2521,-3988,1035
-79,21,-28,3299,-1983,1737
57,-70,-110,-988,4441,-764
75,54,69,-1325,3391,-2224
48,-117,17,181,1306,-650
31,-112,63,970,-250,-42
-111,64,-23,942,-393,504
90,113,-41,1341,-1494,917
124,64,-81,3675,-1783,1414
-14,-36,-60,3805,-1286,2381
35,40,-56,2322,-2095,2865
70,-3,-50,1849,-1519,3014
120,55,-53,1468,-2994,2670
-84,33,127,1954,-2360,2732
52,127,-56,2300,-3011,2515
85,51,117,4811,-3068,4641
-88,-65,-87,741,-2041,2868
53,-2,-119,1855,1787,-992
44,111,96,-476,1884,-2148
-117,-20,-88,-646,1234,-1610
-104,-103,62,1267,419,308
124,-73,-66,-1305,-696,-260
-73,-21,-116,-168,-20,-9
-29,-2,-93,-91,143,-5
-38,24,-98,-313,336,-310
-36,40,-126,-292,407,-415
-32,48,101,-544,148,-470
-25,34,77,-100,-43,77
-35,43,83,-210,-213,196
-22,97,127,-357,-377,159
-31,77,114,-12,14,165
0,52,2,-3722,1844,-3142
-116,-34,8,-6541,1307,-2796
-127,64,71,-5136,4575,-2393
-65,111,-77,-2420,3125,-1968
47,-113,-54,-5706,1107,-3150
-7,-84,-92,-464,1509,-880
-76,50,-21,-941,48,-390
30,71,113,-500,-149,372
-113,13,51,-747,-2257,183
-126,-126,47,2084,-3345,1995
-63,-65,-38,5801,-1252,5014
-76,75,82,-502,3198,-1787
-59,62,93,-2746,2591,-3351
28,94,108,-227,852,-934
48,83,117,2513,935,-442
-35,127,11,58,495,312
-72,-48,-55,-1627,-204,45
-23,48,23,2778,113,1638
-16,50,-127,2523,-2435,3601
24,98,-21,2361,-2502,3506
65,76,-59,4926,-1731,4313
32,41,38,211,-1531,3712
66,94,-20,108,-2812,3738
37,-24,11,2560,-3328,2731
105,40,23,-5092,-1704,-2171
-73,-33,-67,7201,-21,4420
-47,-102,39,10306,-154,8026
-90,67,38,-12587,-5228,-3650
64,-84,-121,4050,559,-515
-109,46,73,-379,1763,-1188
-113,-9,-94,-3980,211,-1412
-97,63,-53,3423,862,1492
-115,46,-66,-2124,-1016,-591
-69,121,76,-170,-235,-168
-68,96,110,-853,-347,-333
-46,102,61,-74,178,77
-71,-126,86,-520,-152,-120
-62,-127,60,224,196,184
-94,-94,110,-659,-249,-233
-79,-99,79,169,121,59
-7,116,114,-4058,2234,-956
-82,118,-124,-4919,2148,-928
121,27,82,-4979,2091,-640
43,-103,104,-3026,554,45
28,110,4,-1671,591,-87
-119,86,50,-1342,538,615
-38,77,74,-500,-1658,699
-41,-86,-128,1461,-1946,1970
-54,89,-80,3219,-1263,2890
-119,-72,-127,3248,706,1287
-24,-120,-37,3244,16,-783
105,106,4,-2068,2804,-1960
-35,-7,108,-123,979,-1261
116,-109,2,-9,761,-591
-41,124,114,287,-365,-299
-13,120,59,576,-264,155
-41,100,-37,1451,-412,383
21,38,-78,2746,-1159,1907
80,-54,-83,3357,-798,3263
108,65,-92,3245,-1029,4148
100,57,25,2336,-2210,4178
106,83,23,1678,-1758,3442
36,91,83,1046,-2481,2328
106,83,25,2,-2277,1163
3,-2,-65,336,-1996,822
-115,-90,70,3254,-3405,3770
112,-85,2,1822,-1850,2549
-82,-6,-84,2685,1801,834
-2,57,108,-1749,2008,-2874
-95,-7,-83,-1068,1822,-1152
111,-43,110,-478,-49,-409
-114,-49,93,796,4,592
-83,20,-63,-1157,-12,-232
-29,43,-124,553,627,-71
-31,32,-87,-123,329,-442
-22,36,-100,-586,135,-658
8,15,116,-121,259,-312
-8,20,117,-297,-86,-70
-11,27,100,-303,-293,256
-33,69,113,-322,-515,211
-15,66,0,-5393,1384,-2651
-6,52,0,-5025,2765,-2519
-20,-26,-62,-3422,3078,-2203
-104,-105,-63,-4575,2764,-2118
68,-43,91,-4594,1454,-1738
-5,-61,-7,-1286,-641,-724
74,-99,-16,1235,-1812,564
-30,-107,-45,-565,-1764,569
-115,116,116,-543,-2155,49
-18,-125,-79,3555,-2175,1279
89,12,124,936,-339,1964
85,37,89,4887,3775,1069
-67,43,87,-4851,3221,-3516
77,95,105,440,1806,-750
28,-126,-106,304,-318,-923
-84,24,11,1702,-193,-124
-96,91,22,131,-435,466
-83,71,116,2614,-269,1251
-50,-9,-88,3368,-738,1097
64,81,-120,4912,477,3907
-11,59,-74,2925,-1976,3356
77,30,-10,1918,-1368,3366
77,28,-115,2067,-1066,4023
20,-72,-34,-4,1437,2688
-71,-54,-27,915,-699,1490
-9,110,-121,-1465,-2998,541
114,42,79,-975,-2935,899
-21,7,-18,2244,-1593,3415
-18,-114,67,1434,-1022,3605
-96,-35,30,646,226,1519
89,-90,-40,1541,777,-317
90,54,-35,-722,-218,-1325
-94,-15,-84,-1801,-586,-1187
-53,-9,120,1163,183,121
-76,-30,-68,-1294,-28,-837
-57,4,97,171,-169,138
-62,45,-112,-681,-572,21
-79,70,-126,-324,-198,107
-99,83,116,-4,-62,73
-98,90,124,-202,-232,-63
-72,86,104,-2175,2762,-3300
-91,-56,39,179,3582,-2049
-56,40,95,-2858,944,-3003
74,-84,-108,-4476,1565,-2105
-33,-45,38,-6790,3249,-2104
54,-110,57,-4483,956,-1989
-40,-55,74,-3576,2174,-2606
-1,52,-24,-1041,1741,-609
38,-11,35,-1043,-1267,-544
-66,-32,16,-395,-2412,583
42,14,-54,3047,-3568,2973
-80,-7,-89,4356,1779,3183
-115,-111,74,-3420,-460,-4757
126,28,7,-1905,2209,-1563
29,54,-49,231,1145,-1203
-114,26,8,-2360,1274,-697
13,109,-108,1281,922,225
-66,-34,-122,-2621,102,-527
-70,85,-102,2238,-267,604
12,39,-127,1281,-411,1729
52,27,73,2964,-928,3206
125,20,116,2967,-2018,4245
-78,69,-38,1925,-2200,4479
92,-125,-58,2100,-3012,3636
51,122,42,1794,-2855,2421
58,66,82,2213,-2178,1805
-88,28,91,-2683,588,222
-74,98,-13,812,-2043,1618
-110,109,-46,462,-3982,2254
16,-97,-105,3454,-1432,4100
106,-94,126,-441,-557,-280
77,70,15,-1938,-971,-1248
113,-30,-121,-1862,-430,-892
-114,23,84,1267,350,643
112,49,-69,-1370,-355,-590
-98,85,106,-175,98,-159
-96,86,121,-751,159,-580
-54,75,69,49,328,33
-75,95,91,-594,16,-246
-44,112,77,-122,228,-18
57,-20,126,-3790,1827,-1488
11,-87,93,-4652,1837,-1561
-21,-125,106,-5033,1823,-1371
-57,23,118,-4885,2699,-897
112,-90,-121,-3649,1428,-558
71,-125,-80,-839,-190,-186
96,99,28,-1476,-68,115
-17,-84,33,313,-381,1137
101,2,54,-190,-1662,1108
113,48,69,1241,-3701,727
-87,-118,-18,6557,-1402,5134
72,-92,95,-846,956,-758
105,19,37,-3017,1016,-2453
113,39,-99,244,2918,-1338
117,2,123,1029,1979,-834
-122,-68,68,-1907,210,-714
55,51,118,1594,285,289
-38,92,-103,-568,-744,195
-64,41,17,696,-316,766
-32,35,-41,1685,-488,1437
-25,41,-53,1603,-851,1848
24,-38,-100,2432,-1362,2466
99,-4,123,2184,-1693,2993
86,44,-34,1668,-2367,2118
127,-47,19,1877,-1726,2451
66,16,-82,-214,-2332,1744
79,74,-113,3081,-2755,2374
97,-111,-88,333,-1654,322
-2,2,-15,2742,-1324,1646
2,75,-85,1728,-3242,2147
24,101,-26,1155,-1280,2143
-104,125,113,557,1131,82
77,12,7,156,735,-608
-121,-64,-51,-2427,-125,-955
-93,-34,105,153,-104,87
-104,-1,-97,-182,-121,62
-98,19,-109,-592,-105,-112
-79,37,-126,-131,76,-10
-76,61,-123,-503,46,-197
-65,63,118,-535,94,-260
88,94,-22,-3340,1152,-2752
-36,79,-30,-3520,1536,-2261
59,80,-22,-4808,760,-2275
27,94,-3,-5361,2058,-2286
-37,-47,-28,-4322,2148,-2024
90,-51,-19,-5639,1407,-2012
66,105,-96,-4364,1803,-1405
7,113,60,-4936,1196,-1645
-31,77,-4,-669,-897,-34
88,-10,-12,3352,-1145,1471
79,-11,-92,-159,-965,1024
78,-95,-31,5113,-4184,3740
110,-115,75,10122,-430,7267
117,57,-42,473,2299,687
-69,-46,-49,-3543,-1218,-4002
-72,-17,-2,-3904,3738,-3214
57,9,-44,4050,1694,-644
16,9,103,-3614,-353,-1774
-8,46,115,1995,628,91
-104,99,39,33,353,-206
-73,44,-74,837,218,287
-61,72,-79,493,-1131,1406
35,47,116,2014,-1135,2512
71,74,58,3951,-2138,3976
48,66,4,2806,-3226,3618
89,-8,19,2958,-2223,3696
29,77,-88,-906,-2449,1980
-96,115,20,2305,-1598,2965
-64,97,7,682,-3110,1851
72,-12,73,3642,-3650,3970
8,54,-97,954,-3456,2487
59,-67,-4,1314,1580,-1244
82,-2,67,-161,3610,-1980
114,-20,-42,-5197,-66,-1570
-108,-30,-40,1220,-123,467
-119,51,100,3898,502,1752
-97,9,36,-3822,-447,-1637
-25,83,80,924,939,310
-50,39,123,-587,-15,-139
-56,71,121,-1038,-138,-461
113,97,-91,-5671,1210,-2733
107,20,70,-4973,903,-2199
72,62,58,-7437,1534,-2036
-31,99,61,-2885,3006,-476
-1,-89,-121,-10723,-770,-2836
-16,-19,55,-4128,-468,-1268
82,94,91,4614,1969,2404
107,12,54,221,-827,620
67,-6,105,707,-1966,1162
-70,-120,-119,8542,-3245,4141
69,82,-74,2600,-1674,4056
-94,-71,9,4678,4836,964
-74,-13,40,-6682,-1454,-5580
94,-5,-30,-880,4160,-1552
-44,45,36,860,679,-1699
30,24,-26,-1132,703,-37
0,-24,-10,2668,820,1181
-117,106,42,-1084,-1097,411
-2,17,108,2905,-460,1604
-2,29,-68,2058,-1119,2497
63,6,-82,2930,-598,3599
89,50,-48,2408,-1675,4190
108,41,-55,1954,-1374,3605
124,9,20,484,-1280,3634
-116,-29,-30,1836,-2135,3651
23,105,-117,-594,-2734,1949
2,118,66,3289,855,2762
-103,-31,59,3335,-2423,4764
53,-5,126,2715,-2481,6296
-85,-1,-109,-3705,-1890,1613
-113,-99,67,4311,2052,-2736
80,9,-60,-2119,1884,-3135
27,27,94,-3113,1621,-1235
-128,-120,-18,3931,-470,2338
93,-95,32,-1103,-1588,-266
-65,-31,-39,-2336,-778,-730
-77,-40,-121,445,190,235
-80,-7,-90,-67,216,-52
-86,10,-103,-791,-205,-448
-92,0,111,-342,-295,76
-16,3,-29,-4217,1467,-3374
-36,-66,-93,-3104,2373,-2992
-103,127,-121,-3611,2419,-2518
35,47,80,-4708,1402,-2351
-5,-64,22,-1449,648,-877
-9,-125,12,-1611,931,-728
-19,15,10,183,-1015,80
91,68,60,-975,-1222,574
-78,104,-121,-19,-1811,997
53,-126,-30,183,-3166,1546
85,30,-80,2888,-4299,2887
95,32,8,4794,3723,3892
97,-58,-67,-3044,-87,-5090
40,-119,44,-4361,3033,-3368
-63,9,-68,3991,3490,-506
11,-45,-18,-1894,-155,-1697
27,-2,51,1523,1388,274
-88,19,-77,2081,694,1084
-123,81,-78,-311,-340,993
-119,-30,-87,962,-1276,1534
-29,43,-95,-1650,-1481,3243
18,-13,108,629,-3741,3897
-98,-19,38,3173,-3751,5169
94,33,-45,3234,-3869,3695
103,19,70,1855,-1319,2996
15,-58,-6,-610,-3473,2245
-52,40,-38,3496,-797,2660
65,126,-112,1401,-3450,3215
28,3,24,463,-3772,2376
-97,-27,-53,4748,-452,2334
-47,-96,39,-2791,671,-1920
75,-9,-38,-420,1926,-726
64,-87,-100,-1134,-279,-346
56,-9,-116,1418,-518,703
86,-27,10,-1681,-281,-728
-107,-13,-127,602,845,340
111,20,-87,-782,-25,-279
-117,28,-128,-654,26,-148
-88,30,104,-436,228,-225
-84,32,84,245,-49,303
-31,27,48,-3280,1573,-2844
-111,-107,-78,-3025,1680,-2680
56,-38,-107,-4534,1332,-3011
-17,5,-110,-4718,1164,-3078
-71,-47,-123,-4460,2285,-2675
-115,83,117,-4934,1791,-2734
60,-88,56,-6018,531,-2730
-9,56,-48,-179,-957,-3
73,1,-8,1713,-748,1349
-71,-3,-36,304,-2179,1748
-8,-71,72,3733,-2814,3071
119,-118,10,2259,-1732,2999
45,33,-1,8514,1753,4586
18,51,-26,-5013,-38,-3962
14,-15,22,-1953,1792,-2283
-107,35,-114,269,1593,-1009
-54,12,29,-739,1145,-1372
109,-110,-63,-365,786,156
11,109,-4,1002,720,608
-43,-87,-53,-1534,-451,350
-26,-93,93,1011,-1590,2018
-12,41,20,4369,-3129,2731
52,5,127,3265,-3351,3539
103,-35,-41,4258,-2516,4352
57,9,-97,520,-2587,3547
77,29,98,954,-1059,3168
61,-63,-81,1266,-2355,2399
-106,72,35,-705,-1755,436
118,36,-68,5339,-1732,3590
20,68,107,3454,-2244,5046
35,4,59,-5112,-1536,-1775
83,83,-29,2445,2669,-1285
-89,-109,-66,-437,2234,-540
118,-79,121,-793,-174,117
117,-32,93,2304,27,823
-128,-10,27,-2054,-822,-838
-68,-40,-127,174,344,34
-80,-34,-112,13,198,152
-85,24,-111,-578,39,-334
-42,18,119,-129,167,27
8,92,-50,-3640,822,-3349
-96,87,-104,-3663,1577,-3696
45,118,-104,-5411,2050,-4011
13,113,99,-5760,2580,-3489
-41,-31,-16,-5397,3560,-3112
67,63,-84,-2649,1510,-2028
-30,-88,-34,-3983,441,-1497
-4,44,-69,-281,262,354
61,99,116,-649,-1605,258
-7,111,-9,904,-2117,1061
9,27,-23,1625,-3529,2073
-35,111,123,3287,-1700,3689
-23,-56,23,1999,1684,1019
-103,27,9,-2499,-159,-3086
-41,14,-94,-270,2116,-1334
-39,29,81,187,1673,-1519
63,-59,-35,-450,725,-751
-13,-120,43,2678,-672,-383
-80,-50,-98,-1633,-703,-866
-98,8,-102,2767,-629,674
-94,4,-124,1894,-902,1398
-43,-42,54,3510,-1237,2550
10,-2,67,3836,-1476,2857
10,-34,61,1100,-2315,3134
100,-15,-49,2979,-786,3576
8,-86,66,-668,-2179,1620
-80,84,-56,3574,-1556,3480
-64,-105,71,334,-2714,2082
-103,-53,108,2395,-3111,3641
56,81,-26,2565,-1518,3210
-51,25,-8,367,61,-1329
33,43,90,-1387,1274,-1838
-128,-81,-113,-1847,91,-756
-128,-87,47,1275,-719,1204
120,-11,-67,-207,20,326
123,70,-71,-685,-2,-211
-105,42,-106,-331,587,-188
-89,35,83,-70,650,-49
-94,59,63,-628,-86,-52
-91,83,48,-94,-14,-3
46,-65,-96,-3045,1649,-2816
-51,125,72,-2242,1983,-1727
87,106,53,-3545,1419,-2019
27,-67,102,-5090,2280,-1474
-13,-34,100,-5726,2336,-1382
-55,-71,38,-3904,2886,-833
103,117,75,-5184,1992,-1262
102,124,-95,-1294,2106,-43
47,75,100,-861,610,208
96,23,100,83,-40,729
-42,34,-57,1927,-868,1687
83,123,66,1332,-1908,1564
-54,-87,-86,1068,-2939,1344
126,-70,-35,1847,-2018,2597
-32,-26,-31,849,-978,869
8,-106,9,-891,786,-1216
-125,118,-62,210,2289,-1277
34,-5,-1,219,3196,-1285
48,116,-90,-34,1342,-1263
-37,34,-5,-48,1049,-1018
44,-104,47,1308,-279,-535
-127,55,-110,1249,-890,224
38,-48,-13,1702,-1547,826
77,62,-30,5812,1659,5229
11,77,-74,3,-5809,4057
71,24,9,1239,-4515,3712
62,82,112,3590,-3647,3207
18,67,124,1580,-3218,2101
118,106,-34,1181,-686,1231
-93,99,47,1750,-189,1597
22,90,-10,2371,-1041,3127
57,-114,-42,1741,-3729,3415
37,14,61,1238,-526,2996
94,-88,123,4686,3228,1374
-47,83,-101,1945,2168,-1073
-126,-87,66,-5409,858,-2929
-83,100,-6,-90,-142,387
-119,-90,48,3085,-104,1417
-113,-23,45,-2249,-563,-1043
-51,-18,126,541,518,-13
-88,4,65,-4525,2488,-3733
89,9,-26,-3601,2336,-3447
43,90,-14,-4621,2552,-3244
37,-44,124,-3352,4281,-2399
-124,-67,90,-3817,1123,-1993
46,52,-33,-7006,1599,-2943
-32,-69,123,875,-52,200
19,108,-71,-143,-830,50
-73,101,90,2318,-1259,1318
68,-78,69,-51,-2484,1333
77,-25,-94,2147,-2963,2246
-15,113,14,3460,-1283,3472
109,59,37,-2118,35,-1531
108,-37,-17,-431,1993,-1237
-3,48,-107,-200,2326,-1425
-73,-15,47,426,950,-373
59,-43,-20,-60,382,-487
-21,122,105,202,76,-2
-33,98,41,137,-476,1109
-31,76,-112,604,-855,1844
-45,52,-58,1729,-2330,2479
20,85,-46,2897,-3546,3637
80,75,60,4743,-4095,4533
25,-128,-127,836,-3281,2542
-12,-117,-8,788,-2666,2090
70,109,-86,1360,-1600,1726
-75,13,118,852,-2416,1955
77,69,110,3757,-2144,3809
-27,2,66,991,-1140,2270
45,-66,-56,-702,329,-794
71,38,12,-1002,1391,-1216
109,-29,109,-155,1224,-599
105,-16,58,1425,370,632
94,35,-90,-1132,-701,-362
-108,60,-122,-121,-304,-276
-81,50,-98,-108,49,-403
-75,40,-109,-61,256,-378
-63,24,-128,-289,129,-355
-40,14,120,-291,-76,41
-41,46,105,14,-118,140
59,-70,-98,3164,-2533,3375
-101,-66,88,3711,-3029,4448
-56,10,77,1440,-2366,3919
-118,-86,36,1651,-4984,3938
-87,89,-38,3483,-684,2609
-21,-98,119,-218,-961,1825
43,-69,-95,802,-4507,2474
20,28,45,4423,-2509,3372
30,-14,-125,1181,1312,-1006
32,-121,-1,-1992,2789,-2191
-42,-42,-89,-4782,2392,-2651
-79,7,-40,-1362,-146,-626
-114,33,-26,1486,-647,878
-87,47,-108,-3527,-1849,-1210
-43,88,43,1288,121,675
-28,87,-122,-263,808,-168
-43,-127,101,-1429,47,-430
-61,104,14,79,-451,60
-76,105,48,396,-934,390
-125,-113,-82,-2128,-1532,-264
-91,-120,91,84,-466,434
-91,-103,-121,-89,-201,123
-89,-89,-125,-250,-138,64
-111,-90,123,-696,-456,-220
-103,-99,103,130,-82,121
-78,-95,119,-269,353,163
-64,-82,91,-64,294,174
-28,-55,88,-376,165,154
-51,-55,61,-205,-57,-43
-35,-76,60,-105,-65,144
-23,-63,75,-38,-8,164
-15,-54,69,-46,-44,203
-40,-48,71,56,-260,169
-38,-61,78,345,-95,290
-16,-91,70,924,238,649
52,106,-22,4487,1556,2390
-11,117,-123,2220,765,1254
-28,105,-70,-1640,-490,-716
31,76,81,-272,-267,45
31,64,87,142,41,55
62,-85,-126,-3143,565,-3409
116,-76,-120,-252,1601,-2031
20,-71,-34,807,80,-1301
-98,-31,46,-4383,147,-3172
-121,-67,-12,-1687,645,-1944
91,118,112,-4633,813,-2302
-106,-63,-107,-4592,2610,-2016
-126,4,-62,-3566,3052,-1669
-41,-112,81,-6239,1335,-1701
121,-48,27,-2307,750,-35
32,109,41,-2285,722,-169
28,99,90,-620,558,573
55,117,-49,32,-317,704
112,122,29,33,-1039,969
-37,-87,-67,-89,-763,570
-127,4,-123,-1655,-1705,1042
68,-90,-12,3034,-2301,2681
-113,88,62,4289,-145,3067
105,-31,-46,-88,-581,-333
-116,-51,121,-860,1378,-1803
14,-19,106,1135,2046,-1888
70,35,120,-471,2084,-1514
-119,-33,25,802,364,-371
34,-45,-84,-1381,88,-12
55,94,20,1351,-922,734
-12,2,-76,956,-1573,1396
-20,8,77,3058,-1852,2148
12,-18,63,4017,-2532,2312
50,12,-120,4498,-3004,3838
18,25,93,1994,-3448,3078
99,32,108,1184,-1342,3072
88,46,-5,448,-1667,2539
-49,67,-7,-1846,-4225,1131
-48,-3,97,3589,-4889,3873
-54,-65,-112,6654,-1007,5542
-107,39,108,-1399,1517,-2661
-11,26,-2,1582,4203,-2107
-116,-110,-88,-2999,1833,-1483
103,-23,47,-1613,-1483,97
110,29,33,2915,-699,1129
34,-4,-59,-3825,1439,-2397
42,-36,-57,-3510,2464,-1976
-43,115,-49,-2674,1784,-1756
-82,86,113,-4132,1652,-1114
-71,-2,82,-2496,2279,-175
-122,0,96,-3233,1406,-487
-114,-121,-61,-3244,727,-504
-114,108,-127,-1377,-1247,228
-1,101,110,-177,-2354,9
-1,76,-22,1043,-5008,389
-33,-29,-31,9335,82,7217
-92,-70,5,-1649,1088,-1024
-31,95,124,-3103,-753,-2689
-43,-128,-25,957,1127,-935
-19,-67,57,802,1336,-382
-122,17,34,-793,421,-1138
105,-27,-66,1190,550,-298
40,-71,-56,153,-248,-200
-67,-118,-121,-77,-605,-424
-40,-20,67,2193,-537,869
-89,22,41,1005,-994,831
-4,-77,-67,2666,-1170,2065
4,-13,-110,1063,-1428,1924
-31,41,-48,2212,-3722,2251
53,-35,8,1907,-1365,2345
37,50,-126,117,-1946,1451
91,33,92,1363,-2088,2246
-90,72,13,1516,-1853,1953
-55,114,101,-281,-2894,1140
7,-82,24,2278,-2224,2135
-21,-80,-80,2466,-1513,1966
125,-103,113,1446,1281,161
88,21,12,-1122,1427,-1321
126,-21,-88,-2430,-12,-1075
-112,-25,62,120,-637,122
-104,0,-121,130,-320,271
-112,48,-88,-12,-143,-4
-84,42,-98,137,356,-19
-87,65,-98,-646,-11,-188
-79,74,100,253,159,31
-128,38,77,-2977,2725,-1656
-10,91,-60,-9243,436,-3128
122,-51,-123,-1231,5664,-209
98,-66,-92,-5601,3020,-1763
-29,-48,6,-4783,2153,-1321
107,109,-61,-359,1021,492
2,60,34,-1455,-1040,-180
114,26,115,616,-503,794
-38,67,10,-184,-1103,946
-64,114,119,-453,-2429,963
76,101,114,1057,-3176,1180
-22,9,-99,4483,-1205,4122
-17,18,-58,1531,1471,1029
65,0,-101,-1683,461,-2158
-72,-56,73,-649,164,-1433
0,-40,-121,395,1916,-897
80,-68,94,-928,316,-948
-19,61,15,1142,242,-387
93,89,-111,-646,887,-195
107,-127,-45,33,791,-125
108,-54,-97,-917,-133,-431
112,-124,24,-33,396,81
62,51,-45,1055,-9,1179
2,-25,-102,1993,-723,1827
-5,-96,-90,2514,-2570,3144
44,-110,-32,2781,-2307,3007
-8,3,102,597,-2695,1976
13,1,72,2220,-2362,1872
73,-18,95,1820,-1249,1821
102,60,-57,145,-1667,1590
-88,12,44,1519,557,1609
-74,18,13,3332,1672,2405
52,113,-34,1266,-1185,1844
81,107,-60,-1845,-1595,477
-86,26,12,1108,-1054,1671
-81,25,48,1072,-1235,1951
-114,50,32,831,-827,1188
125,39,32,500,-90,183
125,26,25,-38,272,-446
-119,-9,-7,-204,176,-453
31,-24,-68,-4552,-1128,-1352
-8,0,90,-758,-536,-492
61,3,38,370,2314,156
27,57,-44,-317,2359,-1594
67,-101,15,-780,1903,-2162
13,39,80,-3882,2004,-2952
-32,-96,26,-807,2680,-2159
-112,23,-110,-3976,2938,-3016
127,-90,78,-2758,3844,-2773
15,-22,45,-3885,2514,-2607
-110,26,-30,-4589,2084,-2665
75,116,79,-3284,1590,-1840
43,-62,0,-1285,289,-589
115,116,38,-252,-480,598
-33,-67,-89,678,-1841,954
-114,3,57,834,-3033,584
109,-33,-107,1782,-2569,1279
-64,19,79,1089,-89,2495
-51,35,-106,2326,2183,485
86,-12,13,-2374,1080,-2635
50,118,-99,212,1983,-701
-128,77,54,-1176,181,-870
36,104,84,1290,-621,561
-75,-71,-6,337,-1146,894
-109,87,95,2527,-1998,1522
-52,14,24,3939,-2785,2808
-50,-39,-46,3221,-3363,3076
-50,89,120,1440,-2696,2640
42,-16,93,3263,-1483,3224
27,52,105,-4,-1199,2204
-72,-57,-128,2850,-793,3129
-109,64,-8,2650,-2940,4754
79,-83,-91,3905,-887,6849
-38,113,54,4396,-1811,1251
-113,106,91,130,-312,-2755
90,-52,-29,-2506,1687,-1045
83,54,-71,809,1135,-153
31,-85,3,1852,27,1047
23,13,121,-3963,-653,-1322
-127,43,-125,68,626,-385
-118,63,1,-4191,1288,-4237
107,69,-68,-1846,1794,-3765
65,-91,-13,-3471,2059,-4203
53,-115,-106,-3274,2580,-3972
-16,20,46,-1607,2068,-2989
-103,-74,70,-2412,1405,-2779
93,45,14,-2512,1020,-1692
69,-36,-87,-789,198,-968
27,-95,-26,-1174,-1361,-669
111,-101,41,-1216,-1891,-140
-11,-90,-108,-233,-2681,475
-25,-94,55,-109,-3645,1268
-86,56,-117,3960,-2158,3860
-6,-111,4,-490,2072,650
-58,72,-113,-853,1221,-2204
-68,99,110,-916,2135,-2371
24,-15,-2,1073,1801,-419
32,-55,-92,-1008,-329,-765
2,54,20,2339,412,674
-93,103,55,-13,-937,803
-64,82,-28,803,-874,1474
-35,92,-79,2040,-961,2302
-57,60,-65,1696,-2115,2454
24,30,-105,2223,-1312,3280
-4,81,32,1553,-2968,3410
37,76,8,2035,-889,3208
-7,-93,70,-40,-2195,2511
82,67,-46,1169,-2068,2438
25,30,-61,1400,-3108,3038
-56,-30,105,7238,-2510,6774
20,-16,-56,-1068,-1657,3963
102,-16,123,727,649,-3095
30,88,82,1283,1961,-1787
71,7,30,-2158,867,-1565
48,-46,-98,177,90,-453
89,-36,-75,-284,215,-394
-94,49,-60,-852,229,-664
-64,66,-84,-535,236,-885
-29,71,-104,-752,431,-881
-27,81,-125,-787,324,-907
-49,-105,-44,-3295,1397,-2771
-86,103,-37,-888,2545,-1878
104,-80,67,-3874,2642,-3093
54,-65,2,-3457,2507,-3034
36,-74,-74,-3902,3707,-2720
-80,65,114,-1052,3178,-1683
10,-30,-92,-1566,1461,-2005
-34,-110,-114,-2478,1274,-1608
-50,115,68,-2562,982,-1471
-25,39,4,-1260,-767,-472
124,107,-24,1991,-2268,849
20,-71,-85,1361,-4186,-89
30,-113,-25,4622,-5179,2092
-8,-12,36,8617,1782,7175
-99,-123,-72,-2,1701,-3866
-109,-71,-17,-6580,2536,-4632
107,-74,86,1107,2070,-1112
93,109,-94,-364,310,-1064
-87,-38,32,360,-738,-17
-47,37,53,-487,-385,1055
-47,88,-62,1157,-257,1530
-49,-112,105,362,-1731,1518
33,-125,86,1713,-1919,2639
48,80,105,2535,-2409,3495
81,43,-92,2823,-2450,4463
71,-5,68,881,-1419,4158
20,-119,-84,1377,-2837,4368
6,-40,-77,582,-871,2626
16,-115,121,1324,-2350,2204
-103,-9,78,2302,-1585,2858
-44,32,-105,1801,-1807,3879
-96,-55,-35,-141,-1463,2700
-29,-31,-125,941,-864,93
-6,112,89,-842,938,-1577
-122,-101,-87,119,1111,-622
-127,-70,107,1961,373,1021
67,-26,-8,-1047,-959,-470
115,-28,-54,-386,-355,-205
-112,-56,-73,219,24,111
-108,-22,-48,-485,-6,-215
