AccX,AccY,AccZ,GyroX,GyroY,GyroZ
22,-41,69,-4538,1728,-1086
35,41,65,2369,2150,708
-67,-60,-118,1010,1140,144
19,62,73,-7078,-162,-796
-118,31,-120,-5043,-410,469
-26,-37,90,2869,2518,111
14,107,-63,6766,4838,1344
-102,-41,98,2462,-49,-961
-123,-99,-103,-9359,-1016,-297
27,64,-124,-313,1023,2108
-115,71,-102,-941,2277,-594
44,40,79,-4231,-3424,-5683
-58,-5,42,7362,-855,5413
33,120,57,-1618,1645,-1761
72,-72,-25,-2500,-756,-2207
88,-52,74,877,2264,-879
126,-34,-91,-4772,-3682,-389
-117,117,76,4738,171,-1716
43,103,126,7215,-800,799
-6,5,97,-897,-4821,1019
5,-118,-53,2443,-3984,57
-115,-105,-23,5400,-2151,833
-83,49,-68,-286,-1365,609
-113,-111,-11,-488,709,-40
-86,-83,-55,628,273,647
-51,-63,-84,-955,-730,699
-8,68,-58,636,-1545,1970
-48,-42,-67,-157,-925,149
-64,-75,84,2242,658,518
-95,-115,-114,1443,742,534
124,-109,-68,-2001,-728,-212
-111,92,34,-949,-173,-654
-56,100,19,1204,973,98
-46,118,-99,-434,-57,427
37,-56,-8,-2282,-311,-142
-79,73,-29,-1405,2922,-203
52,-96,56,-1166,2037,-992
83,-35,70,-2516,194,-1735
-57,86,-106,-2802,1455,-491
125,-75,-62,-5556,912,-677
-43,16,4,1547,4731,-1646
-54,64,-52,9128,5818,2308
-45,59,-65,-11688,-1305,-2660
39,98,-29,736,847,3018
22,1,80,-9552,-3700,-878
37,-47,51,-9807,-8898,-4656
-39,60,75,7033,-320,-128
92,76,-102,18827,16243,11771
-51,-123,12,-19501,-8240,-8510
5,49,-55,-5585,-4844,-2397
67,-109,-40,5392,3176,1496
64,-125,-123,8771,2504,-9
-71,50,-96,607,-2657,-728
-106,60,49,-2567,-2958,-1027
25,113,114,5002,-1082,1359
-113,-106,1,4692,-2041,2539
-120,-60,68,638,-2620,1015
-100,-26,0,2518,-512,1346
-97,-30,48,-594,-1145,1414
-19,-8,-70,203,-1009,1371
5,40,-19,923,-1333,935
1,-86,-61,371,-2345,-147
-7,-54,98,4476,494,2022
79,-118,21,1765,37,1161
21,41,22,-3817,-1002,-1553
-93,30,32,-500,837,-714
-78,65,75,-132,580,490
-114,43,-121,-4109,-1423,-692
-89,79,-89,-837,466,-506
-95,77,-102,1990,1733,-70
-103,70,44,60,-328,185
-98,96,49,-988,-773,337
-99,108,-4,178,83,191
-90,99,27,144,3,39
-87,115,41,-226,-60,140
-87,117,44,-774,-356,103
-95,120,-1,-15,-20,113
-90,126,29,-529,-299,-31
-77,121,2,103,143,106
-82,-124,31,-402,-169,42
-103,-108,-104,-8871,-886,-1684
125,-14,-28,-3899,-992,-1132
-24,-73,-74,6414,8599,3369
-107,113,115,-3280,125,-3862
-109,-103,15,406,5175,-2885
24,-56,122,-5420,3564,-3521
78,-77,-79,-1842,400,1770
109,-45,-43,-494,308,1258
-117,-107,-110,-8480,-4571,1677
-39,112,-78,-12049,-8933,-5832
-101,29,-68,7474,-450,-5001
36,127,7,17398,16255,10780
-18,-65,-83,-17833,-8515,-6805
-124,33,-22,-12244,-6837,-4845
-51,104,-90,7696,6281,6638
22,63,-62,4449,-3938,-7941
-64,-20,37,11030,3023,2101
17,-2,59,3050,-3119,-504
-45,47,91,-2085,-3121,2755
-37,84,-80,3802,-2241,890
0,20,21,3204,-644,1754
-9,91,-124,-1267,-2978,1944
-104,-109,54,-1296,-1309,-1611
-121,-58,-112,4601,-593,3616
-78,-43,-61,612,-688,63
115,124,65,1832,1266,-348
95,-127,85,2052,1823,77
101,87,-74,-2945,-3,-811
-112,80,41,-3581,-1070,-856
-91,90,-87,-84,537,-88
-88,64,-39,425,253,-95
-83,73,11,-138,-83,-158
-74,87,11,-427,-19,47
-69,93,6,-707,-293,193
-81,93,-40,313,121,180
-80,99,-3,255,-46,257
-79,100,3,495,83,225
-77,102,7,654,488,123
-70,112,40,-530,-145,106
-75,111,12,-528,-186,13
41,-119,-68,-1929,4858,2880
-61,-4,125,-4130,-92,-3161
101,117,-53,105,1519,-961
13,-105,69,-2500,635,128
29,-20,90,-194,684,-1482
-4,-42,120,5858,6234,-2204
-36,-28,66,-6837,-130,-5270
-26,46,-50,-734,2827,474
-108,121,106,-4016,-146,1114
95,127,87,-6203,-1711,2285
-7,-116,19,-14817,-9884,-4546
-66,119,70,4630,-712,-4871
120,109,44,19881,16267,8690
62,9,-79,-18103,-9605,-6820
-82,-75,-35,-6202,-6205,568
-115,4,116,11610,6566,1173
-94,-105,-45,9258,-1020,-692
105,-106,-64,-1123,-5551,473
-89,105,-31,60,-4753,-1745
-104,27,99,7090,-2005,1090
-95,40,40,646,-1796,1560
-44,80,0,322,-383,1465
-29,125,-85,1720,-36,2858
-65,48,-71,-105,-759,1018
-80,-99,60,977,-911,-291
19,-23,29,2804,369,1500
-53,-76,111,1455,-490,999
-101,-113,-99,451,-857,652
92,125,-121,-762,57,51
102,70,91,-2344,69,-868
-104,69,-24,-909,1090,-565
-91,58,-35,-565,676,-417
-86,70,-28,-57,56,-29
-106,121,26,-1399,-994,-8
-100,-127,12,-2067,-1040,-259
-83,127,-92,220,470,59
-93,126,-23,-158,-220,70
-94,-125,-37,452,83,160
-79,-121,-5,144,6,294
-96,-95,6,-170,-215,278
-114,-61,-85,-1312,5789,888
-31,-4,78,-11300,-3654,-3389
69,77,-102,506,-1267,2128
-25,40,105,4717,4606,1189
25,-51,-102,-1121,1905,-2199
-44,-43,-126,75,2026,-3165
-79,-27,-26,3510,5038,-2368
-31,-83,-49,-6757,1220,-1869
-124,39,-49,-2432,2548,-206
-52,20,24,-3631,1432,3220
1,-80,51,-16468,-4424,-2315
125,-11,-116,-11142,-16883,-10698
97,-110,24,11234,5488,4256
98,-38,83,13432,14883,8256
-11,20,26,3906,1837,-2040
-123,-3,73,-7304,-3869,-1860
74,-56,26,-3456,-2435,-3259
109,-3,114,4269,-639,-1311
101,69,84,8082,-1798,-1061
5,-97,-43,5376,-2520,-409
35,-91,117,2092,-2891,2657
-28,48,63,1969,-597,2323
-55,12,68,-896,-373,422
-21,96,6,320,-2209,958
13,-17,-120,585,-1235,1266
38,-97,101,2255,-2644,-1020
-58,-107,31,7335,3069,4717
7,19,104,3807,2128,2721
-75,18,-123,-6887,-2392,-4138
-89,63,45,-2475,224,-2852
66,29,-78,926,1982,-633
-12,-5,43,-493,-288,169
-67,13,6,-53,-251,250
-47,40,35,-554,-690,468
-56,57,-16,630,55,265
-81,58,56,272,-503,52
-62,52,80,-556,-595,7
-46,52,39,-115,138,177
-56,62,50,-404,-59,176
-67,74,27,-230,15,155
-14,36,21,-3758,2556,801
82,-97,-77,-13154,-1465,-2015
-15,-69,-113,-557,704,-140
99,-45,5,12603,8737,2431
68,-48,44,-3915,-3932,-1676
-9,110,-5,-3429,958,-2670
107,-66,49,1767,4063,-3355
107,-111,114,2079,1915,-1384
-16,-104,-67,-6942,871,-3324
112,123,-122,-1460,1537,-381
-68,97,-64,-3460,-1545,3097
-17,-68,15,-12478,-1302,-923
-13,-80,-79,-5357,-14514,-3191
70,-128,37,18190,6470,2942
-20,41,-44,16742,8613,-1339
-113,53,44,-24478,-9366,-7736
29,85,-46,6875,6650,1978
-55,-70,105,10037,967,1632
-11,65,109,2224,-4684,-975
101,72,17,-402,-4750,504
1,-74,-102,2766,-3756,-162
-107,23,-73,5351,-1693,978
-47,-53,91,-453,-1068,2972
100,18,-77,-721,-855,736
-25,-63,-103,2965,106,2209
-107,9,-88,-731,-1564,329
8,-56,31,1639,-1377,-519
-24,65,-48,6545,2702,2306
51,-71,17,1326,627,900
37,79,3,-5064,-1832,-1902
-101,77,-14,-1143,897,-382
-98,53,-33,4,1254,-202
-102,77,54,-2319,-1344,-33
-118,110,-43,-582,-712,35
-113,106,-6,-835,-717,-132
-98,121,-26,-256,-19,114
-108,-128,-22,-80,18,144
-114,-118,-17,-24,-28,81
-111,-120,-21,272,137,150
-111,-119,3,-130,-101,111
80,-58,-36,-3814,2830,990
-55,127,70,-3345,-1047,-194
37,57,46,4238,4546,-1216
-74,107,7,-800,-275,-1703
-26,-26,-119,-1325,2642,-4579
93,-77,-116,-1974,2231,-3837
-90,47,25,3623,3561,-601
107,124,20,-7896,-1329,-1793
-55,-125,-17,1136,1278,2808
-111,72,-74,-8827,-1773,960
-107,49,-41,-10606,-16215,-3326
44,-1,95,20253,9785,3351
87,21,-101,10101,9020,-1584
59,37,98,-21805,-15003,-4921
-28,-84,-12,14877,10224,3367
-39,-30,-62,9439,-412,840
96,-107,-77,-2663,-7413,-558
105,-117,91,-61,-3820,-1786
-106,34,72,8640,-2501,1898
-50,28,21,2741,-1901,2681
-34,103,26,513,-757,2423
3,-82,-85,535,15,2864
-64,-12,24,-589,1296,-509
70,-97,56,3513,-258,2296
-27,-55,97,4632,540,572
-86,-74,-63,2604,634,468
125,95,7,-1940,165,-368
-102,31,122,-3610,-601,-769
-60,16,-26,-779,602,-196
-66,10,-30,622,674,155
-80,32,74,-608,-744,90
-72,57,39,-911,-541,-25
-56,61,29,-1086,-330,-240
-42,61,-4,-617,-138,-173
-44,48,-11,31,5,0
-43,61,7,-149,-27,190
-54,87,9,-387,-152,266
-63,97,-7,-159,4,104
-62,101,0,-249,-109,34
-49,107,-5,-270,-71,41
108,7,-64,-4936,1706,3819
-98,10,99,-4934,3176,248
-68,102,-96,7335,6237,-469
-111,-96,-98,-1192,-239,-1568
-89,-65,92,-5028,-706,-4090
-70,76,-44,-783,4041,-2049
-127,100,-116,2082,2087,-142
4,-86,30,19556,-3613,-414
-42,74,-61,-10030,1988,-1410
-7,-28,64,-6572,-4262,2607
107,-70,-114,-16586,-1194,-5251
-117,118,-120,-11797,-17653,-2275
-102,43,15,14202,8775,2340
27,20,-45,21669,13710,7331
-98,-2,124,-7019,-4933,-9733
-87,-71,-87,-10637,-4916,-1707
40,98,90,3793,284,2646
-98,122,94,6625,296,-1584
-113,-39,43,7069,-2380,1684
31,-119,114,-2920,-3929,-774
-111,95,-87,4490,-1678,2164
-25,9,-25,3429,941,1879
14,50,78,-2722,1158,1409
39,43,-19,-507,-1072,2115
42,-87,-122,1716,-2499,1056
-77,-85,81,5527,-1458,1944
-49,-106,127,7953,3710,5486
-102,92,4,-4001,-2193,900
-123,-62,-28,-10951,-4434,-4281
99,-29,-113,-2633,-71,-2059
-14,-122,113,859,2153,-68
-91,112,-28,-251,610,-255
121,118,-82,1281,969,-165
-106,-120,5,20,-49,-90
-85,-103,41,-1594,-1022,-221
-84,-116,-25,-461,-474,-97
-75,-114,-6,-503,-314,36
-75,-108,-11,-108,-146,247
-86,-98,-9,276,30,405
-107,-80,16,-544,-389,290
-111,100,42,-6344,2053,939
-67,9,-31,-1537,651,-833
-107,19,124,4229,4722,17
58,57,41,-4537,1449,-2984
117,56,74,-1028,4368,-3172
75,49,28,-2217,4247,-2699
-66,-48,54,1895,2221,678
118,-67,124,7328,1520,725
-1,123,-89,-11125,-3461,1245
-59,-115,-34,-7649,-2028,366
-36,14,-17,-9951,-13157,-5929
21,-106,-69,8722,2944,-1007
-76,-78,-66,19717,17830,10580
93,-59,-87,-16403,-8505,-6082
75,69,-122,-9276,-5603,-1207
50,125,-5,6631,2557,3874
35,126,-90,9226,160,-5246
-126,-100,46,6400,-1781,1218
77,-116,-103,-172,-5157,204
-123,17,-1,741,-1905,720
-36,23,35,2942,-816,1450
-27,-127,80,1013,-135,2240
-92,16,39,-2332,-874,80
-12,-108,-33,462,-2495,2326
-76,-74,-103,-621,-2026,-561
-34,-34,17,2276,-444,-217
-36,-53,19,4595,1462,828
-93,-64,-80,645,385,641
120,86,126,-2878,-367,-712
-96,95,-22,-78,593,-173
-86,75,-31,798,958,52
-81,72,53,-794,-585,79
-79,76,0,-30,-168,153
-67,67,10,-21,-19,175
-71,85,16,-117,27,204
-76,88,17,-324,-187,122
-72,83,-10,624,317,78
-62,97,29,-31,204,-13
-60,103,24,-778,-280,71
-61,93,-13,-136,-36,101
-128,-114,127,-1431,5214,-704
116,29,29,-9886,4584,-3039
44,-114,106,1805,-4082,-3652
-103,86,59,10187,-983,1360
12,-19,-14,-11221,-2013,-4094
32,-14,99,469,6026,-1181
29,-54,-119,-8038,1132,-5402
-30,98,-49,-5295,-866,3602
66,79,110,7520,1563,3918
108,-4,-67,-3552,-2278,2223
113,-31,-41,-17513,-3870,-6148
-26,15,-5,-4243,-9818,-8946
47,62,46,10632,4893,6852
2,95,59,22866,13954,2410
-25,-111,110,-21493,-7897,-5587
28,-50,101,-7124,-5754,-2078
-14,29,-42,9104,7201,809
113,103,127,11329,893,880
41,17,61,4065,-1119,300
17,-100,-122,-3704,-5060,647
95,49,-52,1356,-2200,1868
10,-4,-4,4529,-1162,1817
-70,1,54,-629,-1555,1352
-33,90,-31,-550,-946,1429
-51,35,-96,542,-2823,101
-6,-43,88,2892,-1319,-605
-34,100,-25,4392,868,-1496
53,11,115,4611,2584,2843
-103,-92,62,-2135,-435,1357
61,124,-49,-5128,-1781,-476
102,70,-59,-1056,-15,-1069
-81,46,-68,1239,1966,-168
-87,61,55,-1270,-24,-224
-94,86,-11,-1135,-464,75
-89,79,-45,17,-29,57
-86,82,-8,-177,-256,38
-77,87,-1,-69,-100,109
-73,89,6,-15,-104,137
-70,90,4,220,80,145
-71,92,19,66,34,137
46,22,-57,2014,7290,2448
-112,28,81,-17276,-682,-4018
-78,106,-12,7152,4279,220
-95,52,-64,3677,1075,-599
40,116,-16,-13261,-1099,-5069
72,-53,-86,1185,8023,-291
-32,-1,-46,7858,4315,4464
127,-64,71,-11983,-1384,-1719
-69,3,-51,-7366,-6362,2611
-35,47,57,-15466,-5952,-6974
-68,-23,125,2689,-1759,-4803
49,8,48,22085,18826,13627
-31,-100,73,6309,-565,-6372
-84,95,63,-21149,-9302,-5964
39,-65,-85,5050,3934,4694
-117,-71,-126,6988,14,-1587
81,-93,68,8177,2469,-1841
-74,88,-4,3340,-1734,498
122,-1,87,-627,-4880,1041
-10,86,-45,4213,-2495,1693
18,-104,-98,2458,-1071,3063
126,-5,56,-2889,-1646,-342
0,67,66,1649,-186,1442
4,14,89,2959,-524,1512
36,-33,112,1879,-497,1405
-81,-67,86,2143,-215,784
125,127,114,2907,1004,174
85,109,-36,-1680,172,-808
-115,51,98,-4199,-175,-1253
-82,73,-55,-1926,236,-474
-73,76,-83,-160,361,9
-79,96,-17,-296,-508,-103
-81,112,7,-1022,-824,-34
-100,126,-4,-1108,-608,95
-112,-127,-21,-668,-347,-224
-80,126,-36,232,282,96
-91,-117,2,-372,-283,128
-88,-108,-26,228,79,221
-88,-103,-9,131,50,204
-95,-96,-5,-30,-22,175
-106,106,62,-8500,5196,-913
-9,20,-53,-8856,-7181,-2692
-63,-111,58,12726,15074,3174
-6,12,-125,-12188,-4686,-4096
59,120,-46,1773,5228,-715
39,56,83,-1962,4536,-3826
49,-124,-87,-4578,1788,-2571
0,-45,56,4109,4213,4762
-118,117,71,-1172,-633,1339
-40,-30,-39,-14170,-6371,-578
-26,18,-89,-2955,-10063,-6758
-111,69,-26,14605,9120,3263
-102,82,107,6708,3841,-1586
-37,-20,112,-18889,-10209,-4995
-5,-119,121,11263,8002,2164
101,-15,3,9340,-329,775
30,53,-49,-4306,-5443,-608
63,-124,-106,-1101,-3547,-2124
90,-68,76,8488,-1316,-90
53,96,42,6097,-804,2864
-75,-111,-99,-653,-1799,2026
-81,29,-18,2828,-1837,1917
-78,-7,-64,1364,-1059,1290
-44,0,106,764,-277,1306
-37,8,103,-55,-14,1441
-62,-52,109,-1305,-1212,373
-112,-90,26,954,-286,623
103,-123,76,793,119,22
100,105,110,-853,173,-633
-117,82,31,-1100,775,-751
-84,85,16,-1495,59,-485
-89,76,-22,-473,-89,-147
-99,72,-21,-55,-119,-14
-82,96,0,-584,-238,155
-82,114,-23,-246,-89,180
-92,117,-19,95,-72,163
-98,121,-1,-75,-145,191
-100,-124,11,-469,-282,175
-98,-113,0,-542,-253,79
-89,-113,-12,-246,-25,57
-68,-104,41,-4461,2201,1010
4,123,15,-6937,-497,992
92,-83,90,472,825,-371
29,-126,99,7262,4981,-202
-123,-95,-55,-4284,1930,-6291
116,-99,27,-1948,3791,-635
1,-122,-110,-196,2300,1260
106,22,-49,-7983,-1577,1940
17,79,21,-11948,-2741,-1533
-60,-35,7,-9944,-19342,-9803
52,-74,-104,13396,9896,1946
1,-84,-22,24086,20755,12912
-128,109,36,-28059,-9750,-10989
-97,123,-81,-8002,-7971,-167
-118,82,-67,10554,12665,9236
-127,118,-112,1138,-8585,-8451
-65,-26,45,8235,-1371,-3322
10,3,-26,16928,6160,-1682
-15,72,-52,-4424,-6216,3325
62,84,-46,-2009,-3528,-1034
15,51,104,8772,932,3083
-70,-5,115,-769,-1649,681
-73,107,-117,1354,-353,1539
121,-32,-115,234,255,-135
-41,-2,-114,-482,-1180,1541
-96,-76,97,-658,-886,218
-66,-104,39,45,466,-21
-58,125,1,1596,1463,87
-69,106,36,1203,1449,303
-96,79,103,-556,-106,-389
-68,56,60,-649,-385,-145
-62,62,42,-914,-108,-101
-45,76,15,-787,-221,388
-89,104,10,101,-320,398
-101,115,63,-992,-885,61
-59,105,6,246,535,242
-71,123,48,-266,482,-29
-59,-123,26,-773,21,-201
-63,112,-6,295,-15,-86
-58,96,42,-182,-358,225
71,-45,-85,-6229,-315,-2374
-19,122,91,3182,3192,-905
77,-70,-40,-2491,-211,-791
91,30,67,-1938,2122,-2756
120,-81,41,-2382,3329,-831
-117,36,92,6998,8694,268
29,-54,87,-8970,-1242,-901
-88,-66,-24,-4613,-2380,3258
-45,106,-18,-15085,-3715,-3655
104,69,96,-1516,-5275,-5326
30,-119,-69,16292,13585,9064
126,84,-78,28544,4136,1845
75,-26,-57,-30422,-7922,-12310
-109,69,-2,-3114,-3049,1634
-83,-38,-93,12072,8500,3336
-54,109,28,10243,-3874,-7070
75,-47,72,7786,-3210,4245
-18,107,71,-8576,-4599,-3589
-85,123,53,7327,-1924,1580
122,77,-83,10779,65,3884
-19,121,54,-5940,-1916,845
0,50,-59,2084,-1065,807
12,-74,-15,5425,2321,696
-36,30,32,6989,4089,2501
-84,-54,-101,-234,-243,1668
-74,94,82,-6151,-2820,41
-96,83,-31,-1732,-554,166
-86,21,16,-1255,-221,-458
-78,38,22,-1354,-438,-624
-63,52,-20,-515,270,-534
-59,62,15,-1066,-396,-415
-53,70,-15,-356,-210,-183
-54,59,-2,44,-157,-37
-49,67,0,368,161,230
-53,84,18,136,52,346
-74,102,24,-225,-154,223
-72,108,19,-625,-314,208
-65,114,-5,-367,-183,216
-75,110,-8,-207,-158,99
-66,121,-7,-133,23,84
19,34,-103,-4663,734,2054
-107,-22,-17,-2819,3498,1151
126,22,125,-868,521,-1888
114,26,-35,5902,4862,680
-23,101,127,-3882,337,-5949
16,-120,-99,-4234,4643,-3654
-64,18,-73,-8912,-2352,1046
56,92,79,11328,6846,4250
-73,54,-81,-9166,-3111,-346
17,-56,-90,-16259,214,-2373
-23,105,14,-9040,-13775,-6714
-27,69,-51,11683,-1890,519
-105,-118,-34,18559,20106,12962
127,88,-111,-8560,-7478,-6865
-62,-84,51,-13841,-5863,-2987
-26,18,53,584,-2826,544
-96,-92,0,7293,1124,-1789
-119,-3,38,12719,3222,-844
87,104,65,4961,-3864,2351
-10,-86,126,-7794,-6306,-2408
-96,99,-128,6183,-2551,457
28,99,10,6548,622,3322
-63,102,122,-5698,-1288,2086
117,45,-121,629,-1954,612
-90,-121,-45,3105,1236,-584
25,-71,18,4949,689,799
12,-95,74,5263,1685,1407
93,-39,25,2047,1292,1541
27,88,77,-7169,-2227,-1572
125,79,36,-4750,-1441,-1500
-57,59,76,974,2127,-489
-63,40,15,-684,-79,-386
-70,53,15,-1447,-954,-179
-63,74,-69,953,643,88
-74,81,33,-841,-575,91
-75,98,-7,-362,-265,185
-73,107,-24,133,59,302
-83,115,-4,-53,-194,254
-84,116,2,-54,-162,211
-84,120,7,-139,-171,125
68,-72,-41,-8670,-282,2916
-61,4,-24,-9579,-379,592
5,15,-126,6883,3514,-979
119,-64,-43,5688,5072,1070
29,-29,64,-8727,184,-6079
99,51,32,656,5905,-2540
-75,-121,-41,10213,5837,-1092
13,-82,-1,-15332,-4998,-328
73,62,59,-4583,-5798,6150
113,115,57,-12657,4523,-6912
45,-23,69,-10047,-16341,-8395
43,-117,54,26955,8951,7835
60,-105,10,32062,2956,12425
74,40,-40,31981,-5646,-19564
-112,-23,98,-3521,669,5542
65,-79,38,12434,4377,252
117,-82,-75,14360,2598,-1587
-38,90,23,-2907,-3943,1439
-63,-4,61,-4929,-3634,-1693
-75,-1,-97,6105,-198,1579
24,26,-81,3182,-1463,2239
-107,11,104,-3853,-2201,-166
-57,38,-89,2448,-3242,152
-30,57,0,5127,-911,629
35,12,53,3361,1365,1695
36,-48,88,2070,1738,1365
28,15,-88,112,1087,2834
47,-38,-37,-3381,-1629,615
17,114,66,-4244,-2366,-1817
-82,96,-55,-448,322,-946
-43,61,-72,980,1753,-125
-84,56,10,-408,430,-130
-82,84,-12,-135,-66,-72
-68,89,13,-657,-627,11
-61,91,1,-602,-435,31
-51,84,-17,225,171,208
-60,98,-4,239,172,238
-76,119,11,-239,-174,187
-75,126,4,-484,-264,187
-71,-127,-12,-258,-92,112
122,49,62,-1462,4891,2245
-119,66,-29,-5331,-231,-1860
67,-23,-94,3886,4067,-1337
-70,-12,15,-1634,-1359,-1504
-44,-16,108,-6574,-2323,-1771
-56,-89,-71,2870,4058,-840
-50,27,-92,-2982,1926,-4195
76,-5,-105,-3202,660,-2606
4,72,-36,8240,8521,1045
100,29,-13,-10346,-3588,50
92,-100,-123,-2625,-609,2308
24,22,-97,-10723,-11565,-2091
-12,48,60,7157,-1178,-1608
-124,107,-26,17696,14550,7939
-69,-74,104,-21915,-6861,-10502
33,90,-111,-2988,-1396,1365
64,-53,-7,9536,6829,2871
-106,-81,3,6380,2582,-465
88,-63,-34,-4861,-4329,-878
124,-85,-23,1457,-2821,-1171
-74,-54,-63,9097,526,1282
-114,102,2,-2443,-3498,1579
-79,79,31,2234,-1145,1643
-40,-106,37,1883,-2233,2078
-109,42,-82,588,-2565,179
-39,23,45,4276,134,1033
-37,-81,13,4886,2277,636
9,-78,-126,2731,2320,1526
-92,-33,-27,126,964,1572
57,101,-21,-5185,-2098,-1054
-94,32,-10,-1505,-721,-1313
-31,22,-69,1666,1557,-84
-43,17,117,-2315,-866,-97
-62,62,-13,-1679,-696,52
-65,72,-45,-663,-396,-7
-63,88,-4,-1098,-798,-112
-51,82,-35,167,52,1
-52,84,3,-98,-88,114
-64,103,4,-43,-91,246
-69,110,9,-244,-214,254
48,92,-8,-2789,4884,315
-5,84,-86,-947,1729,-2447
31,-101,-76,487,618,-2106
-117,4,22,-4528,-33,-3268
-115,49,114,-2219,5491,-4231
-108,88,84,-8078,-568,-2527
-103,-23,-110,4988,2919,4295
127,-65,-68,3477,1772,2295
-65,-79,-124,-13550,-3943,-1790
-38,-12,-97,-7220,-17430,-5855
44,114,-82,17146,8766,2806
72,87,58,28706,9565,3916
-48,-57,62,-31602,-12800,-7825
20,-8,-5,6990,6548,2321
-14,98,-25,13567,3605,3869
9,24,-85,5092,-2376,-2062
-108,-54,-15,-6363,-4472,-2050
78,5,-19,3529,-378,814
-94,-39,-5,3698,-827,1913
-90,-32,67,460,-2711,1780
-59,-126,-34,1843,-3444,3098
-105,32,-73,-218,-2374,172
16,-110,-82,1574,-2206,1308
-52,-8,61,2380,254,365
-48,-30,83,2012,964,1012
-83,-40,124,874,523,996
89,-95,-126,-604,36,-103
110,101,87,-1671,-117,-748
-110,82,25,-1249,129,-624
-85,82,-4,-904,149,-172
-86,84,-11,-814,-153,-187
-85,96,-28,-271,109,-175
-71,99,-16,-264,-3,-22
-70,103,-13,-354,-87,87
-74,111,-24,-174,-83,125
-73,116,-23,-9,-180,196
-76,122,-10,12,-103,216
-73,-125,8,-489,-381,225
-77,-115,-19,-64,-47,189
-76,-122,-9,-92,-94,114
112,20,-77,-5180,4888,585
52,-71,-88,-4868,398,-3291
127,-1,20,3393,4251,-982
51,67,67,-5193,526,-2702
48,32,48,617,5102,-3857
86,99,-118,-4482,3289,-2939
95,-78,92,-1298,-3321,5067
-128,-89,118,2668,2327,374
-13,120,-15,-13019,-6592,216
16,-92,79,-13354,-16610,-5649
-123,-59,-53,1109,-341,-6215
65,14,14,23073,24106,12359
65,107,106,9387,6731,-4955
-87,89,-92,-22235,-9896,-5759
73,-66,-111,-1848,-4207,3004
52,-81,65,8438,2194,-3443
24,-111,80,12285,5327,-630
42,-90,-13,4047,-4670,2799
13,19,82,-5502,-4757,-1574
-34,118,-50,6343,-1462,2885
-96,44,96,309,-1739,2160
109,-47,-45,-915,-2815,-478
-66,-13,28,2795,-1296,57
43,23,-74,5371,2500,1079
-39,45,27,5017,2696,1034
-41,24,52,-1638,-623,2442
55,116,-78,-8115,-4584,316
54,127,111,631,190,-118
110,115,113,4787,3798,1207
92,84,-70,-1786,-575,-397
101,99,93,-3129,-1495,-817
-110,96,-62,125,547,-364
-90,69,24,-1400,-327,-472
-89,90,-41,-73,459,-201
-92,102,4,-1089,-355,-176
-94,112,-45,-259,4,94
-98,117,-33,-422,-205,148
-106,-120,-47,112,20,164
-94,-110,-13,-463,-359,91
-78,-95,-40,105,-20,201
-77,-96,-116,443,8935,4966
121,61,-97,-8258,74,-5707
74,-42,40,8276,8601,-119
-78,-32,7,-7024,-1740,-3493
-87,-118,126,149,5696,-3912
-43,-21,118,-1316,4477,-4811
82,126,-73,1220,2570,1010
127,39,114,-6778,-1240,-272
-93,80,-59,-11082,-9583,14
51,-101,-69,-11191,-10051,-7707
116,-45,-80,8023,2792,-5079
75,100,-107,28261,15005,9676
-12,-23,28,-28139,-10257,-8701
-39,-67,-34,-15457,-8678,-701
-36,115,127,10813,8081,10655
36,-32,-34,8120,-2003,-529
89,0,71,8569,-2301,-11371
0,-127,95,8108,-2106,6616
-86,35,115,-1780,-3301,3532
-62,65,107,172,-3864,2084
-63,-115,42,252,-3278,2929
75,-122,41,-2238,-4899,-1177
-124,-2,-118,-725,-2532,-1689
-118,59,-12,2272,1410,244
126,-53,-51,2399,2031,26
-112,-36,3,2123,964,1287
103,-56,123,256,-588,1271
24,-95,114,-3453,-1500,-255
54,-104,-49,-2083,-39,-478
69,-104,-113,-533,798,-58
64,-100,-69,-988,105,-122
70,-90,-86,-295,-62,-72
81,-82,-57,-641,-411,-3
80,-82,-67,-318,-249,75
82,-85,-71,-13,-127,-29
95,-76,-77,571,-1,77
85,-80,-38,226,-296,74
108,-50,-3,-939,-574,339
105,-41,-28,-874,-515,340
99,-44,-39,-848,-166,233
-37,-86,106,-4626,1594,2123
-114,84,-128,-6948,1473,2777
95,-15,28,398,1979,-190
88,-82,-92,4912,4260,921
-89,37,-121,-2382,4785,-1282
73,-37,-32,-8250,6243,-284
-76,-33,84,-6010,5735,4301
105,-109,-91,8368,-1861,1391
9,-96,97,7531,7657,4196
31,-90,73,-19510,-7430,-4616
-39,-18,-24,-13480,-13991,-6756
-26,-63,-8,11020,6962,-1568
-107,93,82,20454,18746,7994
99,-73,85,-5678,-3719,-2746
-70,-83,-25,-12396,-4708,-2044
76,79,69,4918,4000,1822
-38,-53,-46,11726,-420,-5317
-56,-63,-46,6124,1286,3477
-48,91,117,-4509,-4930,-472
66,3,51,-4020,-2959,-1889
-83,-105,-80,4197,336,127
-6,-71,78,3428,8,1844
-28,25,-83,-757,-2708,1142
-60,-18,12,-804,-3885,463
-13,-5,-93,2206,-3131,697
70,-17,-112,2204,-1653,1351
110,120,-100,913,-958,501
22,27,115,2896,-139,2417
87,-95,-110,3785,523,1084
35,76,-41,-1339,-454,-1523
124,59,108,-3108,-654,-1537
-97,63,2,-3185,-1089,-312
-126,126,-91,-169,-107,751
84,102,-38,295,-20,88
111,121,-13,-193,-143,-147
120,118,-9,-172,-34,-116
-119,125,1,-688,-144,-58
-127,120,-18,-411,-160,-12
-122,121,-23,-269,-74,59
-116,-124,-24,-272,-95,163
-15,-60,-59,-4287,1046,1697
113,109,-15,-11391,-1018,1520
-72,9,1,-2094,-1172,-3097
-121,-123,40,8960,7669,4972
-61,80,41,7057,7411,-3948
67,77,-15,-5495,6233,-8599
72,75,-5,-23824,-1071,-4974
-79,-4,49,44,-892,14011
-91,32,-102,1036,-1470,112
13,113,-59,-13353,-3521,-7954
35,39,20,-22960,-15682,-16559
-31,91,23,14813,19075,-4178
108,25,104,25473,29288,30392
-16,-81,-42,4149,855,-25401
18,-33,-20,-16572,-5194,317
90,-67,-100,-8833,-5070,-3497
-21,68,-125,7223,2325,-275
8,-33,-96,12544,2702,3674
-74,-103,-106,-135,-2028,-621
20,-61,75,-3726,-4157,-1568
-77,52,-80,5470,-1756,741
65,25,87,4574,-2250,2127
-22,59,62,-2298,-5513,-1277
-117,61,107,-845,-4666,-1759
-35,-4,2,826,-1116,2119
110,50,-32,1143,-131,16
-122,-65,-95,1735,68,-1815
109,122,-109,8882,3534,2381
4,-26,16,1422,1136,1132
8,40,44,-7539,-2240,-2051
108,-114,112,-3873,-748,-875
82,-101,8,3161,2262,1025
80,88,3,-2154,-616,59
60,118,-95,-1424,-1065,-280
95,-128,123,713,38,87
116,-114,-61,-173,-235,158
117,-96,-68,288,93,350
82,-102,-34,-394,-201,185
77,-84,-37,-892,-433,291
75,-75,-54,-887,-521,223
-55,53,39,-4812,3456,1784
93,-93,16,-2885,5369,1426
-96,-97,-64,-2512,6676,481
29,-119,34,-1682,4311,4354
100,-3,-112,6287,-1602,6924
-59,-10,-5,1278,-6346,1475
-52,-54,57,-17289,-4769,-3879
25,-72,89,-8496,-12162,-7643
-28,-14,48,20779,10841,9071
3,-28,-70,-269,5919,-134
-42,46,53,-10030,-2151,-2693
-59,8,-73,7160,4609,3776
108,106,35,8206,-697,-3340
-53,65,-3,2005,-1704,124
-40,122,-81,-3477,-4049,-2364
106,-102,-26,1104,-2510,-3791
81,48,-82,6741,-316,668
124,-36,112,3878,-330,1748
47,45,22,-1171,-5671,1180
-95,-53,-12,-1556,-5067,-1436
-69,-1,29,2216,-3005,-1935
20,67,24,4552,1268,1192
-102,-26,117,1157,174,-275
-96,-88,48,1179,150,204
125,126,67,2187,1046,1094
79,59,-82,-2396,208,-235
115,35,-23,-2411,436,-470
-112,73,-115,24,1095,579
116,65,-78,350,436,489
113,58,-13,-686,-827,65
-124,79,-41,-308,-508,267
-123,89,-27,-699,-460,267
123,93,-46,-364,-198,159
126,101,-53,-17,12,96
-127,107,-42,-95,-85,57
122,106,-36,-239,-149,-2
-122,109,-37,-350,-122,21
-117,112,-46,-265,-40,-8
-113,113,-50,-299,-14,-16
-108,115,-54,-277,-50,37
-9,59,98,-12795,3543,2233
-43,42,98,-4420,-378,-1240
61,-39,-119,12579,9819,5441
-45,5,13,5050,6488,-3399
-39,-8,-3,-6863,2838,-3289
-70,109,17,-4267,-1926,2333
-109,93,61,787,1875,1704
46,45,-19,-15344,-7755,-1939
-76,-57,-63,-20044,-15638,-10053
-39,-99,117,23620,14420,5125
118,-78,73,14928,14626,8490
110,123,-39,-3187,-2556,-2923
-25,-59,3,-17857,-8134,-5175
11,96,39,1337,3796,5537
7,-45,-54,8189,-2603,-3932
-32,3,115,9575,3607,-4832
78,89,-37,4722,287,2569
-9,-60,77,-1344,-4162,1717
5,91,-21,-3346,-1292,227
-40,-1,49,1318,-3630,256
-73,84,-30,3065,-4329,1755
112,109,-70,-1750,-5153,-2495
-35,66,30,-20,-1838,-315
-47,-41,-67,3026,1261,45
-51,-18,-27,5103,1947,1433
45,-43,-12,1476,990,1363
36,85,-19,-5874,-1376,-1566
103,111,-32,-2965,-360,-912
-126,-111,83,1007,1241,1002
88,119,-37,-495,-223,277
86,-121,-40,-526,-459,-55
111,-118,-51,-66,-140,-46
123,-118,-38,-147,-114,22
126,-122,-34,-184,-106,48
127,-118,-35,-90,-88,111
-127,-113,-26,-327,-155,155
126,-103,-34,-336,-136,129
-125,-95,-44,-297,-59,127
125,-98,-51,-148,24,17
-118,-92,-52,-109,17,93
109,-30,-90,-4204,225,5018
47,125,47,-12924,152,15
-50,-89,-15,-4283,-769,-1516
105,-29,98,13625,8329,5748
-102,-44,-92,8679,5626,513
37,42,30,-4538,4415,-5037
14,107,-127,-648,4602,-2385
90,87,83,21964,-285,1491
-107,38,-28,-23623,-10134,2471
-27,18,96,-21905,-2617,-7218
-77,111,40,-16832,-16747,-18582
38,12,38,-19016,-29900,17527
96,-99,90,1715,6910,3968
124,29,81,-10603,-2323,-1522
-128,127,-94,-4646,-4304,-890
95,-22,-40,8240,1965,-910
116,66,-103,388,-1201,-747
79,-62,109,-1166,-1636,-1465
78,-45,-23,4929,-959,-1325
-44,-20,51,5326,-1726,-2297
47,-119,-105,3760,-3018,1283
4,-118,-22,-1991,-6371,2456
-119,69,-73,-999,-3164,-260
-88,76,90,1506,79,311
87,-52,20,-690,-198,-1493
-100,-19,-104,2299,-19,-1366
-50,41,-107,8797,2657,1732
-114,2,30,1294,842,2289
23,92,18,-7178,-1877,-1325
90,-107,-62,-3348,-723,-843
122,-68,81,533,1232,969
58,-102,-11,-2272,-1050,136
55,-46,-79,-1362,-920,87
63,-30,-75,-1287,-577,-63
72,-22,-88,-499,-103,-129
77,-31,-70,-260,-23,-253
88,-17,-62,-358,54,-29
86,-19,-72,-410,-102,26
76,-25,-87,429,-149,-92
84,-14,-53,-53,-263,-58
38,3,-86,-1859,4644,6549
-25,-12,-28,-2464,5401,-1833
-22,-105,-115,2440,7152,458
10,-37,-30,-3862,95,814
-18,-47,53,-7854,-777,-4840
-88,-71,-49,-9956,11672,15496
46,-66,98,-6580,5781,7006
-13,-107,83,7090,-1313,-4672
-15,76,-59,2200,-2344,-3448
7,51,35,-10911,-12206,-14510
26,-82,-127,-3973,-4805,-26366
45,-76,39,32062,5888,21018
-118,50,-75,13888,7648,3078
-50,87,-115,-11039,-3075,-2722
-115,116,51,-8938,-7688,-5728
-102,4,-50,7158,6257,2806
41,-17,-109,10964,1684,-3116
-71,120,-64,4092,1344,1584
-92,61,86,-1936,-4002,1372
-37,-71,-114,-1116,-3251,1789
-12,-68,-118,-124,-5376,1929
4,-127,42,107,-6052,-545
113,76,-45,2739,-2859,1300
64,71,-56,947,789,-966
47,-57,-49,4084,582,1623
63,72,10,1403,283,-589
89,52,-85,-733,23,-1285
-108,34,94,-1600,-155,-589
-112,37,-4,-2537,-854,-246
97,50,-87,333,0,110
107,26,-36,685,-340,64
-121,45,48,-380,-882,54
-122,72,33,-566,-333,26
-126,61,-11,-6,454,-19
127,72,-9,-188,303,102
122,92,-6,-597,-179,185
113,97,-24,-717,-344,37
-121,108,-34,-576,-253,103
-125,114,-38,-390,-90,19
-121,124,-34,-599,-104,-21
3,50,-74,-3670,2197,-1634
58,127,-60,532,4347,1248
104,-111,-25,-1142,2731,190
109,64,-44,-1899,4785,-598
-59,-69,-88,-5798,5479,-2353
-82,-105,-1,5228,1961,1831
-74,-63,67,13017,2603,5179
-14,61,52,-20565,-5314,130
-78,-54,-70,-30705,-9030,-13203
-119,-108,37,7165,-6629,-2301
64,-16,-75,-27866,18929,24235
-23,-26,49,1439,1584,-12369
31,0,-79,-17891,-2374,-2360
-35,-115,75,-2200,-4224,-72
-12,-44,106,13673,4552,1044
-83,21,-82,5177,-789,155
54,-51,-8,-1870,-2524,-323
79,-85,67,-588,-2985,-1049
-61,-40,7,7225,-2217,270
13,115,-88,3895,-3494,3695
-67,62,114,-4697,-5817,2075
-124,-109,-65,-743,-4602,1852
76,-111,-3,-1929,-1785,-2853
100,38,54,3384,1856,-2271
48,-29,-128,10104,2762,4419
-104,27,-55,-596,-2083,3419
-81,-127,9,-7846,-3012,-2290
-27,121,-18,-1744,-323,-2115
-121,115,-128,2149,2138,580
90,-127,25,-1101,829,768
44,-94,-26,-1073,235,535
42,-104,-63,-705,6,-237
77,-105,-79,-183,-103,-420
95,-118,-57,-464,-228,-242
111,-103,-64,-270,-147,183
104,-103,-58,-199,-307,117
97,-96,-65,320,-66,41
106,-87,-33,-59,-127,90
107,-79,-36,-288,30,141
102,-75,-56,-99,95,61
-54,37,-13,-6658,6753,6648
72,96,-49,-6857,-1931,-5547
-36,75,-8,7371,5986,5501
-76,-23,-70,6116,4564,1101
-93,-85,-25,3855,5034,-3405
-126,69,15,-7111,3602,-5241
-4,-62,-114,-5002,2569,1226
-52,95,68,-7925,-7131,1578
81,-10,54,-19104,-105,-4089
13,62,-10,-18863,-23194,-15730
-11,-128,76,-27254,-26315,2434
-65,104,4,-344,22023,18020
17,59,82,-4013,-8659,-14992
-94,58,33,-2762,-6808,9820
-35,73,-26,6253,6100,-9067
118,-87,75,4566,-2281,3716
60,-92,95,959,-1881,-353
-64,-28,107,42,-2234,-321
95,-2,-111,5212,-2339,1617
18,-120,-59,-364,-2290,458
-1,-111,-54,-1977,-4339,-625
34,-15,-14,-183,-4796,-1450
114,57,-85,896,-5435,-679
53,27,34,3480,-2132,-1717
127,-41,50,13170,4978,4573
-117,-81,-111,1311,1208,-1773
53,8,-93,-9707,-2043,-4442
-63,-39,-65,-5220,-1514,-810
126,-33,22,3534,2090,1995
55,83,4,-474,130,-458
117,-123,-2,-2369,-905,-862
-116,-86,-99,679,395,554
94,-98,-1,-1390,-651,95
80,-72,-49,-462,-292,34
105,-81,-30,-590,-405,-201
126,-83,-41,-72,-170,-52
-125,-76,-22,-283,-134,88
123,-78,-32,-9,2,147
118,-65,-26,-183,-80,236
113,-50,-39,-198,-208,295
-96,54,57,-10348,-1767,3193
118,113,71,-7881,-1508,1814
-77,-95,63,10679,6895,2434
34,-77,-85,16468,13358,7099
56,120,55,-2351,-1703,-7709
-46,-112,-52,-14944,1817,-6246
29,11,32,-6578,-2837,6768
-84,65,-117,2323,-883,3939
-26,-93,126,-7473,232,368
-63,100,44,-25539,-6866,-21031
72,116,-5,-6983,-11000,-4661
-31,-88,84,-14644,-31662,25090
93,-113,75,-4052,-2287,3065
-69,-8,-52,-8738,-6046,-8273
-98,-44,43,1660,6224,9684
-62,-48,122,3251,-2206,-4735
39,126,-50,6294,-1836,-3993
-49,126,-21,5540,1232,3588
-101,-120,-125,-1649,-3356,-3390
-25,-98,104,621,-3844,-947
-7,-69,98,218,-5823,-2871
49,-16,4,-1823,-3551,-2027
120,70,-62,2357,-1333,-631
-27,68,-99,1500,-1027,-448
-125,-10,120,989,-2227,-1980
118,24,26,3956,93,-323
56,-70,-119,1645,666,-381
46,-101,99,256,1710,-299
76,120,59,-1348,1179,3
81,111,-43,-774,404,493
49,120,-45,-474,-283,435
31,120,-40,-581,-466,-37
66,-110,-52,-488,-291,143
57,-102,-46,-477,-193,139
52,-97,-50,-517,-193,-11
62,-99,-71,14,-75,-34
70,-91,-44,-259,-277,32
72,-91,-41,-298,-311,71
77,-86,-42,-325,-166,124
72,-81,-48,-242,79,114
31,120,65,-4260,1164,3487
62,12,38,-5131,12,1458
18,-57,-125,-310,1436,-171
9,-96,50,3248,3121,3515
19,-106,-92,-1213,2025,117
-102,-92,-58,-272,3553,370
117,-104,7,3250,6512,928
17,115,23,-287,5640,-1100
-89,45,38,6237,4209,3658
-38,65,-59,-3451,525,1969
104,-90,-107,-32118,-12777,-11099
3,51,6,-21724,-22637,-8162
-120,114,-1,-31739,30972,6889
10,16,-16,14048,16453,12505
16,-57,-63,-10938,-7440,-3496
105,19,69,-12520,-9440,-6297
-97,25,-3,7259,7296,2860
-16,-51,-37,7604,-5382,-7722
2,120,-88,5224,-2765,2562
35,-103,-54,-2314,-2425,-425
50,-68,84,1500,-2293,-1213
55,-62,34,2631,-1608,-362
61,-7,123,453,-4504,340
-3,-49,-45,-82,-3174,-559
-24,-42,85,1077,-2113,-927
-49,-23,-6,2759,-878,-170
-58,-70,-14,4438,489,387
-107,-47,-110,3221,480,1508
20,-119,44,-4150,-562,-126
49,-115,64,-5664,-829,-713
69,-76,-121,-2383,158,50
44,-73,73,1913,1430,272
53,-91,-47,-36,225,-271
79,-68,-22,-1067,-308,-173
88,-69,-54,-1049,-355,14
87,-69,-74,-503,-277,32
89,-69,-61,-333,-253,-14
101,-61,-59,-56,-62,110
92,-57,-43,-219,-120,65
98,-45,-45,-279,-64,160
95,118,5,-4380,2280,2510
-57,-65,116,-4506,1087,-1136
-28,-91,19,545,2718,251
-91,45,31,-1232,983,1280
-54,-11,-92,-4590,852,-564
-97,2,15,2503,5333,1182
63,-75,62,1378,4455,-540
-97,-74,90,-1216,2357,-617
-123,15,-14,1746,2537,1381
-6,-80,-61,1612,1203,5013
-73,34,54,-12431,-5727,1530
45,3,-10,-31215,-7658,-17507
-53,107,123,-32314,-28184,-18918
-23,99,10,-3441,-10950,26496
103,-30,-102,18797,-6747,9136
-86,103,2,-20234,-11561,-18907
4,83,-92,1690,6627,8444
89,64,-7,1402,-1933,-3233
31,12,-52,5132,-5577,-10256
52,115,25,2588,-1114,-1192
3,70,-3,2433,-2870,-2074
91,73,63,2339,-2314,-315
12,-51,21,-80,-2024,-1606
87,12,-69,2615,-1413,642
-82,-64,80,1613,-801,-1649
-108,-50,-98,3065,1214,-2726
-26,123,-121,7713,3300,2349
-97,-39,108,-269,-941,2986
9,-118,24,-6441,-3562,149
-46,-115,-42,-3140,-1152,-1195
54,126,82,355,1516,-302
66,-115,-70,-561,668,230
43,-105,-41,-1303,-279,159
40,-80,-75,-1141,-568,137
49,-62,-72,-1336,-792,214
46,-48,-98,-692,-351,218
40,-42,-89,-466,-43,3
42,-41,-89,-173,42,-4
45,-39,-78,-152,-66,73
51,-36,-75,-136,-145,86
-122,99,78,-3377,-610,3293
2,-49,82,-5276,-611,3843
94,-44,-95,-1640,3042,2217
-61,-32,-81,3055,3800,1470
-46,56,-73,-2099,2926,-1327
-41,29,118,-6781,3658,-1173
85,-42,103,-8265,3550,3588
-48,70,53,-2838,374,13274
-27,0,-50,-9041,5262,11367
0,-3,-73,-25569,-9324,-4942
44,-63,88,-21369,-3739,-20484
-80,48,-83,630,18693,23264
-13,-53,-39,26754,19817,-13881
118,56,28,891,-19070,23743
83,-122,49,-15846,-2830,16354
-113,-80,-59,11491,8759,433
34,8,112,10235,-166,-7763
82,-12,70,-4486,-912,-348
43,-54,-46,-1179,-3116,59
56,94,-101,2966,-1856,-4420
15,17,14,3617,-3090,-676
25,20,89,153,-3641,-1722
11,118,22,723,-4516,-2428
-14,61,-94,-69,-1512,-2057
-65,45,71,1892,-739,-1366
104,51,-18,3695,532,-140
62,-7,-31,2043,501,-769
102,10,-53,3232,671,262
96,-23,-124,2326,-486,1427
-15,-99,-55,-2295,-1014,-12
-11,93,29,-2143,383,-859
60,96,-119,-129,1635,-135
70,-122,-23,-2105,-199,624
32,-90,-103,-1118,-507,799
-6,-74,-114,-873,-610,299
-8,-75,-120,-324,-267,-102
4,-87,-103,-162,-180,-181
39,-80,-85,-103,-171,-77
46,-86,-74,-250,-178,-67
57,-86,-78,-240,-92,76
103,80,-92,-3534,1811,4643
95,-10,-20,3028,5779,1390
-113,-98,-94,-8520,-361,389
41,94,60,-56,2175,2671
61,-27,-101,931,4564,3239
-34,62,-108,-4679,4061,-924
41,78,72,-3609,3296,6645
-59,126,-51,1112,746,3073
-49,60,-12,-7296,-5458,-4555
47,114,113,-22401,-11220,-11361
-2,-77,-4,11139,-1184,-11635
-56,-45,13,29073,21584,21622
-89,23,27,-16785,-5878,-7067
121,69,50,-14508,-10099,-5033
107,77,121,13029,8934,7139
4,81,119,12948,4167,1458
-1,117,-111,-858,-1049,-7774
24,-25,127,-4087,-3954,-4705
98,-40,-39,3021,-1349,-64
-50,-71,36,4494,-1223,1224
41,58,118,-1027,-2430,-3287
-114,-19,28,1319,-2683,-488
-103,-96,-5,428,-2079,-3567
-17,84,106,4896,619,-1386
114,122,-33,6658,-862,1116
25,58,62,1949,-599,2848
-17,116,23,-2336,-195,-814
41,69,107,-2733,434,-1560
-91,-120,-71,-1619,534,-156
124,-111,-96,-610,112,374
76,-113,-82,-879,-165,-84
94,-88,-100,-583,15,-130
106,-85,-76,-1075,-284,-124
109,-81,-105,-711,-326,-34
99,-73,-118,-371,-487,-51
86,-70,-114,88,-594,-116
79,-66,-113,484,-324,-178
91,-43,-67,-145,-523,126
75,-34,-65,-629,-549,267
53,-45,-95,-278,-208,17
-30,-33,4,-13211,-3443,-1027
80,25,96,9341,4903,6715
109,-121,11,5606,8670,6047
-52,43,82,-6037,3484,-2101
86,-41,-41,-6652,1305,2671
-68,41,-66,9372,2580,3842
-14,-110,-40,-3964,-3190,5148
53,57,16,31045,-5324,-14209
-60,122,39,-7912,-18859,-16157
58,82,-31,-18277,27656,31327
-9,87,-52,-1690,-3088,-11850
-57,101,48,-19975,-6775,-4052
-40,117,-72,-5523,-948,6815
98,27,-111,10460,6203,1795
50,-35,87,4464,-5065,-10509
-6,-78,61,7739,1838,-8264
24,-71,103,3655,-2065,1451
106,117,6,-1281,-4933,-2169
-11,4,72,-949,-6417,-4229
-83,99,21,-342,-3400,-3628
-81,107,103,2894,1296,-997
-109,121,17,5126,2336,-1549
5,-106,28,8198,1163,1907
33,1,95,2095,632,2397
-41,-4,97,-7294,-1242,-2582
-115,-105,116,-3515,342,-183
89,-93,63,589,880,1517
12,-101,-58,-2032,-827,609
-17,-81,-116,-922,-726,-171
34,-51,-83,-1616,-1063,-113
56,-19,-106,-1362,-638,253
33,-8,-116,-1349,-374,371
18,-9,90,-224,230,156
14,-21,101,538,281,-164
31,-18,-112,459,16,-129
38,-20,-95,393,-24,-133
53,-19,-74,105,-57,18
55,-18,-57,-673,-277,102
50,-17,-86,-631,-159,116
47,-21,-105,-639,-104,109
-128,61,-3,-3230,841,5208
97,89,-25,-4060,701,4135
-6,-44,29,3543,3826,566
106,-54,-22,-2223,1194,-698
6,-47,85,-3234,3232,2239
-27,-12,-128,-5765,1953,-863
-45,-10,56,7756,8145,6420
-75,-94,48,-9175,2906,-1485
-118,-30,-87,-7942,-663,5265
54,26,-45,-550,4864,9481
11,69,-88,-6256,-2188,4359
-16,-43,41,-19849,2902,8246
92,-99,74,-31790,-15694,-25847
45,38,27,-10381,24432,23881
126,-4,8,14740,-3315,-17240
-2,-125,44,-517,-5713,-30339
-118,124,108,-12333,-6207,14441
23,-90,-22,9237,7216,671
11,76,95,7074,-205,-8142
1,112,38,-428,-683,7191
-17,-32,74,-4211,-4478,-10319
15,-124,-101,6324,863,1193
-18,-118,82,1744,-1775,-2166
-70,-47,98,494,-3468,-2319
-103,3,-114,2156,-2421,-3104
95,86,28,480,-2705,-4472
-84,88,84,3857,-702,-3626
67,66,64,8030,-1197,833
70,75,0,2370,-285,3143
31,0,127,-8694,38,-2686
16,-51,-126,-1429,2305,546
-65,-29,108,2701,2423,1554
116,122,124,-1781,-942,-70
-95,-90,21,-2038,-1469,-186
-50,-15,-16,-2051,-1865,669
-97,-4,-59,-1985,-1349,148
-95,0,106,350,1487,358
-86,-13,-74,-848,644,38
-86,-8,-103,852,884,120
-81,-26,-50,92,-452,-92
-112,108,-125,-6244,1151,1909
72,114,-2,-805,2759,2792
-65,122,-43,-1337,2963,4992
-92,19,110,-3401,5211,972
-37,49,-22,-3097,-3203,20337
4,26,14,-4591,-1370,-468
-76,-113,43,-2939,-3521,486
14,-8,-32,-21200,-14611,-17774
-84,-85,40,-30034,11089,32570
-110,-1,114,23825,23942,-19074
-59,-23,-28,-14196,-12671,-21138
78,-65,35,-2261,9721,12573
83,100,65,19470,7549,-5241
4,-125,-40,713,-2815,-4072
-9,116,-31,-5939,-3073,1040
-30,72,-116,-213,-3539,-7927
0,-39,62,3633,-108,-519
24,24,-30,1949,-3068,-4721
-31,119,-85,122,-2747,-4722
75,4,-80,4285,898,-230
-120,112,15,390,-389,-909
30,125,12,3137,1667,-3031
-43,-75,-28,8943,1716,-305
114,-16,-39,-138,-692,2477
-28,27,119,-8992,-2959,-1530
60,-17,-61,-1445,938,1337
-7,-72,94,-2,919,1404
-53,-88,-50,-2280,-1220,168
-39,-46,118,-1130,-959,215
-57,-12,-117,-1791,-1817,274
-62,4,37,111,191,299
-58,-6,102,-50,404,60
-51,-1,-104,-530,-355,112
-63,-12,121,15,-170,-196
-35,-24,125,152,139,-233
-9,-15,-113,69,103,38
-9,-19,-92,-355,-96,123
-18,-26,-110,-425,-122,111
-13,-22,-127,-412,-124,159
-15,-24,111,-201,81,107
-113,0,55,-4456,-2327,2006
16,-58,-71,1379,1971,-582
8,-11,-111,-589,-55,2133
-86,-59,95,-2583,-49,-385
43,73,68,1273,2214,1607
-21,39,82,-5591,-183,647
-7,-42,-101,-231,4275,5551
-1,-115,122,2232,4171,7688
56,98,-11,-10237,2663,1475
66,82,100,-6783,-8222,22371
-59,97,-82,-10671,-362,19425
-88,80,-27,-14421,10432,14955
-38,-92,48,-4604,-30721,8445
93,-62,14,17534,-12874,10962
-31,103,92,-2827,1875,10915
90,34,-91,-6319,1927,5200
64,4,112,8784,4823,1080
22,-59,127,5146,2851,-623
-48,116,103,-2757,-2044,-6635
6,109,-78,2803,-511,347
-83,46,-27,321,-1949,-3931
92,-55,-115,3130,-381,-2521
-103,-48,1,156,-1270,-2021
110,80,22,986,-4034,-2183
19,66,69,300,-1794,-2301
-10,-110,45,3055,-1278,-612
119,17,96,-3425,-3123,-3021
91,81,-61,4389,1894,-1904
-84,75,-128,7260,3032,-186
-99,-59,50,968,-59,917
52,71,-68,-1752,-239,-53
50,64,-2,-1357,549,-314
82,92,-94,-874,343,106
88,124,-95,-746,97,752
83,-100,-91,-1250,7,883
44,-95,119,-665,-2,362
34,-117,116,-444,130,-411
62,-123,124,-402,-24,-344
103,-100,-119,-545,-405,132
89,-103,-120,-552,-768,4
111,5,-110,-10247,-1081,3291
-23,95,30,163,2947,2906
59,-48,-64,-6995,-895,6043
63,54,87,2178,-10817,24434
15,-4,-41,-22694,11059,-30426
78,18,-92,-25253,3452,-245
-106,8,99,7371,-18441,11661
89,58,-5,11699,21255,-14706
37,104,23,-30626,-14571,5600
113,-49,72,4598,11591,-25247
-73,-126,-54,15662,-5144,-1114
7,-76,-96,-1325,7300,7812
-14,-35,-32,-4724,-8746,-17550
-79,67,118,6865,5559,-4471
-21,60,83,11059,-1025,-13765
-34,127,-5,2138,-2717,6243
73,-108,-8,-4078,-5289,-296
83,-50,2,-1057,-2106,-1401
114,-72,18,2247,-1797,-1384
26,-18,-13,-1482,-1888,-1796
-90,-14,52,1007,-1834,-1322
-95,-18,10,234,-2072,-2179
-118,4,-52,4126,-1217,-1509
102,-17,70,2246,-1125,-1442
46,-32,69,980,386,-813
31,-80,103,-1972,-263,-391
23,-82,-63,-1430,131,620
-27,-85,-104,-665,154,674
-51,-75,-113,-373,93,220
-51,-75,-117,297,134,-195
-17,-69,-77,-288,-255,23
-4,-64,-86,-433,-283,198
-9,-73,-120,68,103,42
-16,-78,-95,-47,-44,-46
-4,-78,-92,-162,-187,71
0,-77,-99,-89,-137,72
3,-78,-99,-71,-48,48
11,-77,-95,-204,-20,6
17,-78,-92,-385,-58,100
19,-77,-98,-551,-124,188
54,71,-7,-2402,2274,4298
24,26,-62,-3008,4952,1186
-88,-69,-41,-6840,1698,-108
-84,88,98,-9085,2834,4405
27,-74,44,-6453,-5474,17676
5,85,45,-5070,13804,23359
-62,36,77,-25080,-13224,10649
104,-38,-35,-23274,17608,29282
28,55,-19,-5878,-21314,-24243
-4,28,52,-9033,-21610,15283
50,-3,-1,-27965,-8504,-7403
-128,41,-28,-11047,-9077,9189
-120,68,-54,16739,9361,3156
-121,-117,62,9128,7217,3188
-123,-1,103,-6751,-15874,-16226
-60,12,-59,2291,5851,-17064
-68,-124,-39,5829,-1155,6483
42,53,-75,-6251,-5130,-5595
-105,91,-8,2395,-2828,-4006
-91,-75,-105,2926,-2976,-3210
-13,66,-113,6355,511,-750
86,90,-10,1979,-1011,-777
-86,-22,39,131,894,-522
-49,-101,76,-2474,2226,587
-88,-79,119,1507,3558,998
109,127,-49,899,1325,157
-122,89,20,-301,-519,-465
-51,119,13,-1173,-1251,-160
-29,-124,-21,-1459,-1002,55
-24,-119,-59,-1932,-550,295
-28,-104,125,-1016,336,465
-60,-118,101,-223,567,144
-72,-119,121,306,291,-96
-55,-99,-98,132,-354,120
-46,-73,-85,-138,-550,370
-64,-67,-69,-447,-721,230
-70,-78,-83,-341,-396,-93
-52,-81,-87,-234,-77,-32
-46,-86,-93,-177,227,6
-47,-91,-95,-231,151,-45
-27,14,69,-2720,2734,3040
100,-79,127,-3506,3877,577
-3,-31,18,2807,5325,4807
-121,66,-69,-1567,6262,2390
80,-128,100,-4422,7304,-1058
-49,18,95,-1279,-413,17216
-10,16,70,-19240,5275,9103
-118,127,41,-31263,-11787,-3846
-119,-46,116,-26266,-24942,-17619
63,-14,29,24684,-28909,-10539
97,92,78,-13869,-14011,-16492
-91,-65,-30,-10906,-12246,3671
83,-93,111,16589,13994,-1443
24,-26,-57,8963,5797,1015
-20,-97,-31,-5186,-10487,-12208
49,-98,-15,1587,-351,-14623
2,26,43,3039,-1234,2116
-20,89,-103,110,-3056,-3815
1,-79,84,3458,-3831,-3261
125,-76,74,-344,-2832,-2562
-15,65,41,2089,1133,-4130
37,-110,40,3989,1350,-1479
-25,-87,-84,3608,1309,1346
-74,90,89,-172,-1206,1803
41,15,3,-2468,-1012,1003
40,9,103,-2882,428,107
77,19,27,-2885,189,171
82,55,-53,-1245,435,431
85,67,-34,-756,-106,1034
80,101,77,-3332,-2438,1246
1,-125,-63,-359,-45,431
16,107,-24,418,453,-456
66,86,76,-1360,-1299,227
15,36,-34,1167,792,-1460
85,16,-15,1294,861,-1446
127,48,-8,1948,1017,-489
-93,69,-125,267,-480,1298
101,60,107,-1135,-1284,1160
40,42,25,-616,-194,188
54,20,-13,-255,426,-515
88,-98,21,-280,3280,4018
-87,90,74,2918,5317,4876
30,34,85,-12830,-157,685
113,-91,-12,-7949,-9278,2632
-108,-43,22,8815,6740,22904
27,-124,98,-19731,3976,18025
-118,-50,-122,22062,-19118,-28198
62,23,68,-27976,-10670,-31532
79,99,113,21324,-11217,-16088
-1,42,96,-19961,-23059,-17937
123,20,47,1416,10293,5340
-9,126,29,15557,11219,-1565
30,-46,40,6728,2268,-2090
-112,-101,95,-5943,-8664,-12699
-55,9,37,4202,637,5473
47,10,11,3963,693,-4995
-15,82,-15,-1311,-4419,-2652
67,116,6,286,-4176,-4933
-47,12,101,1137,-2314,-6147
12,27,-118,115,-798,-2195
-77,24,20,1936,1335,-1884
-10,-35,122,1521,-532,-1338
-71,-105,-70,3405,1128,287
78,10,49,-1201,1372,-162
87,-20,17,-1147,3405,755
109,-27,1,-1493,1472,694
107,-50,-36,-257,-168,362
104,-66,-28,-289,-1009,105
114,-40,-44,-69,-706,148
-128,-17,-27,-91,-567,248
126,-32,3,-523,-400,39
-123,-29,-13,-806,-166,339
124,-35,-40,-753,-196,285
117,-33,-57,-478,-302,167
121,-26,-63,-432,-49,250
112,-27,-69,-185,89,158
119,-21,-55,-506,-257,56
125,-29,-88,7,-74,-229
-106,-35,-76,-50,-65,-194
-79,-59,-60,-115,-305,-170
