AccX,AccY,AccZ,GyroX,GyroY,GyroZ
-24,89,110,2062,6052,1233
99,-126,-89,-139,7925,-1785
-3,6,45,-1560,7165,-2686
-43,21,-44,-1867,6407,-3188
93,71,45,-2715,5002,-3332
86,110,-15,343,7148,-3114
13,86,65,-5526,4683,-4507
-107,-11,95,-8910,985,-1565
18,-92,-111,-3416,1670,581
-35,-83,-70,-1390,-1768,-968
-87,-73,94,-3477,-7324,-19051
-123,-11,83,10954,-16590,-30666
-98,-61,-39,21495,9621,13510
-3,22,-87,18539,-563,11740
65,-111,-121,-21714,1531,-12714
-8,48,-24,6385,1060,1434
77,-85,-67,3639,514,380
83,106,22,-3312,-1642,-1956
-107,15,-41,4612,-119,-302
89,-114,-66,4941,999,723
-71,-128,76,-505,-1967,-314
71,-101,75,4735,-1126,2760
37,-91,9,1511,-1618,1880
44,-63,96,567,-1012,2736
-93,7,56,-802,-4295,1417
-34,-67,-7,1114,-2314,-238
9,4,-80,-424,-2672,-629
56,-48,-16,-1999,-1380,194
47,-83,-88,1947,-1339,1359
58,-52,7,1810,-1565,1412
68,-69,22,-579,-724,-208
72,-101,-103,565,1471,-167
69,123,-97,-730,700,-457
102,-119,-111,-847,-384,52
97,-101,122,-548,-497,236
102,-103,113,-505,-7,-233
127,-108,95,164,489,-46
123,-94,120,-454,-9,6
120,-80,109,-737,-277,-62
-118,-86,89,-184,68,29
-95,-122,47,-208,6324,-952
87,46,-16,-1256,5992,-2726
110,-82,72,-1050,6210,-4220
-67,127,110,850,5995,-4923
-69,90,-104,-4192,6688,-7788
43,-69,65,-11065,5189,-6515
-10,15,-80,-12573,2532,-2285
-116,56,88,-5234,-2093,-1144
127,120,-52,9666,-6943,-10334
11,-55,86,13852,1685,-3355
-46,-92,20,-1983,-21260,7903
92,16,25,-6502,7467,2358
41,88,47,17006,7597,1208
-57,-97,68,-11617,-3620,-4284
-117,94,-59,-2845,-3622,-280
-127,79,74,4883,635,-257
76,-128,-50,8008,78,2943
61,-121,-75,2722,-3038,1950
88,0,58,262,-1912,2941
-16,-20,33,976,-2492,1712
-51,-85,40,1418,-3242,2084
-41,-10,-13,83,-4003,1950
-14,-19,-67,1639,-4575,1987
35,30,-51,-10,-2536,281
90,-99,28,-1055,527,-861
26,-51,-55,1933,1020,874
25,-121,24,-3252,-991,-494
64,-84,102,-1580,-540,23
77,-95,58,-32,520,111
73,-101,96,-761,-124,-211
98,-106,73,-344,-188,-91
105,-121,77,216,-26,157
103,-117,107,97,-3,158
108,-92,122,-159,-43,237
105,-84,112,-374,-179,146
107,-85,88,-14,29,98
117,-78,99,-280,-65,1
126,-77,91,-188,-56,57
-128,-81,92,-244,-94,18
-120,-78,92,-289,-74,26
50,-127,-108,935,6947,1016
-75,29,-67,-2221,7603,-2072
-113,115,29,4186,9831,-2998
47,-70,-74,-6350,6134,-8580
-50,27,-37,-5770,7577,-6723
-100,98,111,-7147,6916,-2456
114,-104,36,-10050,949,-64
-14,43,86,-9851,-921,-5448
-32,66,13,22206,-23604,-25376
-69,-62,-118,19214,16471,16724
-64,98,-107,29238,-12537,-2913
29,-79,71,7841,2797,-3495
33,35,83,13087,4692,3219
-110,31,-67,-6283,-1859,-2389
1,-7,10,-6948,-5466,-2479
109,-67,79,4871,-681,130
102,-86,-120,10615,235,2550
-116,12,-5,3182,-3372,2873
42,-21,37,-655,-4820,325
78,72,-50,1627,-2583,2136
80,8,-7,2850,-2857,2290
91,-4,7,86,-1994,949
121,-34,127,-631,-415,1252
79,-63,26,562,-551,1214
72,-93,-20,2111,54,1325
27,-115,35,-1152,-532,-229
66,-128,-67,-1925,270,-887
115,-110,82,-1776,637,-592
117,-90,58,-1650,188,-343
88,-70,77,-2189,-1259,-562
94,-61,20,-849,-874,-483
107,-55,58,-80,-474,-131
115,-68,110,-1051,-577,-314
-126,-66,87,-352,-99,-33
-127,-65,89,167,127,181
120,-58,105,7,79,188
113,-35,87,134,138,226
117,-24,90,-219,-188,108
126,-28,65,226,70,158
-127,-40,85,-74,-71,16
-70,-122,77,-4603,4955,-1975
-86,-104,17,2771,10570,-2266
-21,123,22,-6930,9058,-8881
122,27,-77,-11335,7147,-6061
-116,99,-88,-9361,5906,155
-52,80,-41,-5056,1542,1905
-115,-11,115,-12503,1154,131
95,30,31,26983,-22071,-20874
-87,-72,-105,9865,3770,2138
-61,89,-102,-32711,-5903,11438
-28,115,16,-23267,-2547,-7524
9,75,82,11749,6032,2490
-52,40,9,4816,1314,1631
-77,66,-105,-8580,-4787,-3273
33,100,-36,2239,-533,-797
60,125,-103,9324,1225,2403
27,-100,29,970,-3464,923
84,-52,126,-262,-2823,937
87,-10,-116,4900,-2999,3793
-1,-76,42,-1132,-3977,1285
52,-23,-41,2588,-3705,3254
47,-83,-105,-517,-2574,1075
115,-14,28,-813,-1900,481
-91,-12,3,885,-1720,1373
-90,-39,17,2914,-1342,2384
-33,-35,59,470,-607,863
-58,-102,-28,-706,1488,-1584
47,107,-104,-1013,2137,-1822
-121,-125,-123,-1887,454,-1017
-121,113,84,-1771,-571,-355
-126,108,16,164,-42,235
121,-125,75,85,-302,275
109,-98,109,-958,-760,-103
-128,-104,64,224,87,98
127,-99,107,-95,60,66
127,-94,103,-337,-44,60
-122,-89,85,-134,-6,117
125,-85,86,-252,-168,60
-120,-80,80,-295,-60,64
-112,-73,73,-185,-31,52
98,-121,121,-4059,929,-2553
-38,-75,109,223,5163,-416
108,27,-123,2684,6713,-1551
70,-85,3,-6314,5708,-4938
19,97,-20,1055,9196,-3511
113,49,125,-4278,7394,-7227
-83,-30,79,-6273,6854,-5586
37,-45,-109,-13374,1711,-1803
-123,93,27,-3424,-1455,513
-10,45,-53,-3229,-645,2157
-37,114,1,2909,-10576,-27054
-21,-112,7,13981,-4913,-13214
-31,37,109,24670,23208,24623
-26,47,75,30718,-10224,-14357
-36,43,-102,5605,4069,1537
-48,-58,122,13860,5432,3973
-99,-58,-62,758,-2206,-379
23,-57,64,-6519,-4763,-3542
-9,16,-126,5252,-17,37
44,-127,-22,6671,-2387,756
-10,-72,79,2574,-6975,519
27,-4,-7,5180,-5087,2035
74,-22,-29,1410,-3884,1846
-72,-75,-39,2419,-320,2644
-113,9,-17,-1506,-536,1446
-89,-16,89,-351,-742,1109
77,-126,80,3092,-1115,2753
-55,-23,124,-2694,-1672,-1152
18,-113,-89,-613,1014,-1079
55,-112,-123,-222,1531,-321
44,-107,-92,-2295,-200,-590
60,-99,49,-1024,-213,1
61,-96,45,167,-35,151
65,-85,92,-715,-542,-214
91,-80,82,-537,-375,-165
115,-83,78,-72,-27,-31
116,-103,99,288,87,215
97,-110,116,166,60,316
88,-82,112,-328,-27,194
102,-46,66,-208,22,190
3,68,-49,410,6337,646
112,-48,-103,-2311,7686,-2323
109,39,0,1972,6965,-2285
-66,-31,-79,-2727,5503,-5115
107,63,12,-4649,7279,-6903
10,8,-18,-11124,7058,-6793
79,-102,-5,-12349,1988,-189
-45,81,-119,-1485,1177,2822
66,-125,73,-153,340,2269
98,-36,78,-10014,-2684,-6669
25,-56,56,16563,-14153,-24413
-26,44,91,1864,3122,-13867
113,-68,-12,29274,15664,29180
113,-17,-34,32572,-9512,-19563
47,60,-18,-6,2761,1475
-73,-60,13,14148,4842,3591
-62,33,7,4791,-156,1083
87,92,23,-5509,-3075,-2553
126,-74,-40,6051,52,1211
63,127,-120,3787,-1003,1722
56,-49,77,1497,-3384,535
71,-46,68,328,-1638,1088
26,-78,-37,3355,-1699,2953
7,-95,16,-1024,-2715,2245
77,-81,97,-794,-3539,2966
-107,14,64,1270,-2844,2819
-50,-82,82,3661,424,2205
-38,8,92,4576,1049,1968
-113,-125,-104,-4929,-831,-3300
-123,119,-88,-3999,404,-2668
-45,124,6,127,1614,-197
-120,55,82,47,-356,155
113,74,100,-1184,-1170,-439
-104,96,49,485,-4,239
-107,112,-112,-1219,-964,-40
-118,-113,76,-167,-271,253
117,-101,126,-1268,-761,-209
121,-90,62,296,77,118
115,-92,114,-629,-263,-178
-128,-80,94,-432,-164,-93
-81,-41,-52,-4461,3223,-1893
55,-10,96,-593,7719,-2009
58,-119,-17,464,6926,-4434
-103,77,122,531,7952,-5378
44,-46,-8,-3546,7846,-7554
80,86,-75,-17159,3659,-7848
-21,52,73,-14083,2501,590
-115,-59,-94,1244,1636,6297
-25,19,114,6530,-16060,-19896
-102,84,-4,12866,-8879,-21290
9,122,-17,-29972,10123,20574
19,-117,23,-30248,-9831,-9967
4,108,-17,8403,5191,2258
-71,-73,59,4810,1322,531
116,18,40,-3601,-2525,-1731
-77,-72,-123,-1163,-2149,-1288
118,-30,-80,5344,127,267
60,119,60,3355,-2407,902
63,-120,83,2516,-3595,231
-125,35,-89,3446,-2926,2577
-127,-23,40,1311,-3416,2130
98,-33,9,-289,-3415,604
-114,-96,25,-598,-2741,-367
-127,41,31,3229,-1940,3010
-22,-21,-118,5822,-1095,6502
-34,44,-15,-4421,-3050,-1521
112,-127,-21,-2904,966,-4466
-64,104,42,594,5017,-1561
-62,119,121,-2582,1800,-149
79,-88,84,-2033,-1978,1379
42,-99,4,1281,-1308,834
89,-103,62,1056,370,-819
109,-103,93,170,624,-1062
127,-122,-93,-2468,-1184,-829
-98,-118,45,-175,-96,408
-124,-107,76,0,32,65
111,-68,117,-601,-274,-5
-128,-56,88,-593,50,41
-126,-50,61,-258,94,102
123,-55,46,343,308,154
60,14,100,-4274,7147,-2977
87,101,-62,-553,9308,-2120
32,-109,-86,-2684,7418,-5018
-19,-55,38,-667,7240,-2886
-108,-22,-72,3695,7825,-3259
95,21,50,-6633,3304,-7322
4,29,-6,-14170,-219,-2438
16,94,-30,89,486,1740
-22,31,54,-11368,-1879,-1336
63,80,-82,15386,-17630,-30631
-128,-103,50,1354,-92,-19991
-13,68,24,23605,12607,26210
-128,49,94,-14489,-4625,-12674
27,88,-37,-8587,-4647,-3747
30,56,-26,12506,4736,5310
62,66,76,7630,171,918
30,30,58,-3884,-3060,-2058
-5,19,65,3813,-1364,760
15,-123,-102,2124,-1983,820
7,96,-38,1290,-3035,55
50,-85,-28,2180,-2921,2199
-40,-65,19,-844,-4196,-115
66,106,104,3717,-3538,1279
-98,-64,91,3763,-1905,3467
83,95,-33,-460,-2762,1880
75,-86,69,-2375,-1979,-595
62,-31,-54,5375,796,2223
-77,-26,80,2142,752,623
-15,108,72,-6653,150,-2990
99,-88,83,-1905,1127,-488
110,-119,-6,8,1631,233
86,115,63,-522,-140,21
83,-110,68,-471,-890,-167
99,-88,87,-788,-965,-295
106,-91,103,-629,-906,-308
122,-91,94,-39,-71,-11
123,-97,109,-126,140,75
121,-91,104,-13,38,319
111,-88,87,282,169,320
122,-74,89,134,211,327
-74,-85,-125,3945,3671,3069
125,-64,97,-5024,6856,-1309
-106,-47,-119,3024,8397,-637
112,111,58,-2907,8162,-6828
108,52,86,-6607,9527,-6872
52,-14,-75,-13105,8728,-3621
72,22,-31,-6940,4120,4262
-122,-122,55,-137,-930,1692
73,3,-103,-10445,1387,-10640
-55,5,-107,1200,-19540,-22344
18,-91,77,20430,13303,14373
112,-113,120,-12568,-3549,-677
-2,-100,123,-12978,-3347,-8846
115,-34,51,11940,4350,3684
77,0,112,10629,2593,1798
-5,8,54,-8076,-7438,-4443
-100,55,33,1438,-2284,-467
-65,-31,-69,10272,1080,2614
34,112,-5,2149,-3456,202
86,28,-15,21,-4012,1586
42,-36,-8,1509,-4192,444
101,-43,52,1326,-3997,817
-112,-94,-55,-276,-4047,1249
-99,19,85,2047,-3214,2462
90,27,77,1197,-1489,1346
40,-51,-1,587,935,498
-24,-52,0,-188,794,-516
11,-86,-5,-2772,-97,-1225
78,-90,89,-2044,617,-634
79,-94,47,-600,433,100
75,-88,49,-440,113,105
66,-67,71,-493,-511,-83
84,-66,71,-303,-452,-57
100,-72,84,-113,-93,-10
110,-71,107,-354,74,26
111,-68,85,-152,173,125
112,-63,76,-78,82,135
109,-56,69,-68,33,136
113,-46,67,-273,-33,60
-127,-47,57,16,-21,76
-47,-34,126,-2384,3040,-1585
-98,71,10,1799,7631,773
-42,127,-77,1157,6837,-3965
-111,48,74,-3533,8854,-5914
81,-117,-96,-9531,9200,-9226
-69,-28,-119,-20258,5195,-5212
-66,46,-4,-8634,-400,1868
97,-67,13,1498,405,2436
-72,-83,98,11545,-13143,-13208
-70,67,124,5294,-11411,-24501
72,94,75,10474,22331,20886
-51,-26,-74,-19578,-7112,-5354
110,-84,-94,-4391,2200,-5422
-120,18,-21,8012,2852,3058
110,27,-30,2277,-693,-982
-87,60,12,-1197,-3414,-1754
99,-63,-28,7351,-232,621
89,-107,119,5038,-3669,-64
65,-51,87,3519,-5026,-229
-80,30,-115,5131,-3769,2346
-83,-4,113,-1352,-4298,1376
-59,-59,-125,-1380,-1889,2194
-91,-20,6,1485,-422,2284
-46,-69,-4,1217,-508,1635
-77,50,-33,3657,503,3415
-59,1,55,-908,-613,571
-80,127,-23,-2111,-120,-2162
75,87,87,-146,1509,-1188
100,76,124,-734,605,-496
98,89,113,-920,-241,-103
105,106,109,-2175,-1011,-377
-126,125,39,-781,-239,-90
-121,124,45,-156,303,69
121,-114,68,-280,71,17
115,-90,67,-332,-107,100
109,-74,62,-262,-76,71
110,-66,69,-339,-127,-38
109,-52,79,-932,-449,-239
-123,-53,52,-789,-304,-132
-117,-59,40,-475,-146,-63
67,9,125,-4077,10454,-2209
-114,-7,27,1368,12472,-3612
23,-48,17,-680,6925,-2371
-66,-21,-53,899,7914,-5060
-48,19,-80,-7461,6114,-8246
-62,87,61,-17689,-1022,-4928
-32,-92,27,-12034,2629,2179
33,92,32,11741,-5265,-6826
17,56,-27,4087,-12049,-28078
-85,-96,-128,17488,10355,12664
113,93,-77,-16570,-5533,3642
97,73,-24,-7751,3441,-9481
51,-56,-35,9556,2849,2901
84,75,-125,1884,-938,-622
-125,61,10,-1774,-2118,-1638
127,-24,24,3325,-462,-430
16,-56,78,4027,-1982,-1184
71,-120,111,4068,-2103,-1486
-119,-26,-128,5728,-2200,3
-91,43,-101,6182,-655,4735
5,-3,125,-2351,-4003,3314
94,-87,-123,-1646,-2653,2756
-89,0,20,1682,-938,3633
-90,-17,55,629,-947,1936
117,-8,-8,1248,-624,1693
-24,10,-24,1718,-106,1172
-65,-105,5,-2998,-157,-2046
67,105,104,-1042,1468,-1298
98,93,67,204,1444,-420
67,121,-63,-2460,-1434,-818
102,-127,-122,-3811,-1741,-793
-123,-122,1,-511,119,2
107,-91,38,-139,-64,99
90,-63,63,130,-286,169
94,-49,76,107,-112,262
85,-41,100,-363,-210,45
91,-44,89,-621,-282,-137
105,-42,84,-888,-305,-133
111,-41,62,-894,-282,-108
122,-42,39,-102,103,78
-125,45,-19,1253,6525,2647
27,87,-125,-5759,6322,-2833
-112,18,-67,4979,10545,-1554
23,29,111,-1487,8624,-3614
16,73,112,-390,8870,-5208
14,-68,47,-9024,8872,-8557
9,40,112,-21290,-2101,-4106
92,-53,-2,-17122,136,2196
-112,30,-121,-30513,-17289,-13057
28,-80,-104,-5698,-4541,-22487
-45,-19,-2,13682,16940,19755
-58,56,91,8230,12248,-284
113,-3,35,-19803,-11314,-7815
53,-51,-122,6271,5197,1862
93,-64,-13,11420,3824,752
17,74,-44,-1026,-2657,-920
54,-101,-26,-472,-3188,-3051
-116,-8,64,4150,-600,1069
114,11,-90,2961,-2705,-609
-71,-16,-5,1053,-1858,4226
44,78,81,-626,-4175,2176
96,-124,23,1098,-3637,2414
106,-88,26,-1088,-3681,214
-122,99,121,781,-4060,-1033
33,-86,-46,5482,-1982,1076
-38,60,-41,8170,1776,4641
117,4,-52,-478,-55,-389
-28,90,36,-8317,19,-4502
-74,-103,25,-946,2082,-547
-100,84,75,172,644,-336
95,100,-94,-3102,-2595,-1192
74,-60,71,-2517,-2150,-766
111,-60,40,-1106,-812,-255
106,-26,63,286,175,205
72,-16,-109,-1746,-802,-537
82,-5,84,-920,-171,-298
91,-16,72,-127,85,-133
99,-23,95,14,-123,2
94,-11,120,-257,-216,73
85,0,112,-234,-74,49
-45,-112,-102,2291,4529,2217
-90,-70,120,-190,8404,-1492
46,-18,-4,-1427,8249,-4014
43,-108,-122,-1925,8410,-6987
34,32,12,-10550,9201,-9119
-15,-103,59,-20627,1272,-3463
-74,25,-37,-4406,-920,2562
114,54,-42,-13533,4021,-3075
-26,-96,78,19825,-28705,-28948
119,104,68,14042,14852,9942
-66,32,51,6968,-6694,7600
20,12,-91,-17258,1898,-9678
-110,6,49,9539,4138,2781
-76,34,-46,3832,1318,496
69,-73,127,-2263,-3027,-2518
81,21,102,2358,-1305,-879
67,-110,43,7976,-1004,1900
116,-112,5,1001,-3857,634
-94,-75,-54,1970,-2932,2144
105,99,36,2839,-2622,924
104,-32,90,-938,-4353,2360
50,-123,-10,554,-4320,-26
-118,-70,-122,382,-4233,534
-67,-68,57,-796,-2192,642
-126,-66,-73,2404,1687,1941
35,-38,-30,-894,-258,25
77,-87,-68,-775,-1081,248
66,-107,90,2114,1251,504
36,114,-61,-915,811,-947
102,109,-44,-3718,-1334,-1018
119,-111,21,-1640,-393,-53
94,-104,32,-343,-400,35
106,-91,59,-177,-146,87
109,-62,86,-458,-62,27
108,-63,59,-142,104,13
118,-79,65,-125,-26,27
126,-74,73,16,9,156
123,-68,77,37,32,135
124,-61,90,-400,-99,1
-120,-54,68,-336,-48,49
-59,-37,-97,2287,8192,-113
15,67,112,-1107,6990,-4668
-28,86,-85,-11080,4811,-7791
-38,98,116,-8587,11652,-4876
6,105,-49,-3775,6224,326
86,-64,96,-3644,-704,-1903
-64,-71,-118,-25566,-2042,-2038
-16,51,39,26109,-7339,-22858
86,33,62,-2463,-5463,-19726
-45,103,-65,31761,12963,20034
110,36,-68,-24730,-4492,-6501
-56,-49,-66,-8059,880,-6591
-21,-109,36,11577,5227,4705
123,13,-128,6103,2136,-722
79,36,-108,-4744,-3577,-2609
26,-98,44,5160,-655,-54
79,-114,99,6749,-674,1158
73,-113,0,262,-2896,-231
99,45,64,6085,-3114,549
-76,81,7,5960,82,4413
-27,-54,-84,-3792,-5119,2240
71,-33,-74,-965,-4540,2793
-121,-19,8,-67,-1916,2638
-123,42,-44,221,-299,1600
76,1,-40,1050,-681,703
12,-52,-45,1545,-422,150
-6,-125,-10,-1340,-71,-1339
102,77,-102,-1026,1448,-483
110,90,-127,-918,759,-132
87,114,-121,-2187,-1345,-401
104,121,59,-800,-616,-181
125,-112,65,22,2,163
125,-103,99,-559,-151,26
120,-95,71,-6,154,138
119,-85,74,27,176,145
125,-81,89,-219,-43,113
-126,-77,83,-103,26,134
-126,-78,91,-399,-126,22
-113,-77,79,-331,-47,90
-104,-77,68,-179,44,97
119,-7,-71,3248,4071,2421
73,-71,113,-13515,7396,-7034
-66,7,109,8450,12743,3193
116,126,91,-3335,5245,-7387
-49,-26,-73,-8746,10603,-11540
78,53,91,-32066,187,-7937
96,-55,-79,4209,-4210,3280
114,37,-126,-1666,773,1200
-37,-18,-83,2461,-17538,-28058
100,-23,-120,22009,17885,14152
-18,-86,1,1795,-8858,2222
-23,68,58,-12231,-1332,-6672
65,-60,106,7197,4947,1115
-104,68,81,-920,-1132,-1474
103,21,2,-676,-1104,-1955
77,92,37,4202,784,-592
69,-122,-120,1120,-1042,-80
70,-90,40,1717,-3409,-65
-105,-102,-126,7094,-2931,2521
-38,-103,-40,8322,-756,6011
92,126,116,-4974,-7337,1545
-82,-55,34,353,-3412,2174
-109,-90,-105,-3556,-2562,-1866
-83,39,-94,1192,-1342,-361
-33,-2,-100,5044,-274,2219
32,0,-126,1784,-1851,1880
-67,-105,61,-1692,83,-1327
29,89,-90,162,2996,-984
62,-92,-37,-3333,605,-1358
62,-47,-88,-4791,-1916,-1080
62,-38,-4,-1604,-1125,-277
93,-48,10,743,402,134
69,-41,88,-807,-465,-438
124,-76,95,-1808,-861,-415
-94,-91,12,841,398,717
80,-20,75,1017,305,548
78,-20,107,-6,171,185
79,-21,108,-110,-122,156
93,-16,107,-206,-5,65
99,-20,109,-672,-126,-164
-31,-26,-55,750,5610,-1461
-111,-61,53,-1445,6400,-4003
88,17,-119,-2589,7732,-6852
-56,-68,111,-6416,7797,-7551
-17,-111,3,-14792,5035,-5307
57,44,17,21792,-1037,-7912
9,124,127,-12509,-14204,-13582
-96,-42,6,-11527,5782,-11767
46,-85,35,-27127,24482,27677
36,54,-87,-29031,-18126,-9830
13,16,116,8668,4630,2736
31,70,11,7125,2394,1564
-107,-97,94,-4877,-2837,-2977
-75,64,93,1068,-1015,-1855
-64,-23,-21,9938,1488,2067
81,95,80,1318,-1277,146
94,124,48,-71,-2777,-776
-106,-42,116,5789,-735,1776
47,-126,84,386,-3414,835
58,-25,-57,-10,-3313,2763
50,63,-57,1438,-3951,1705
108,-63,122,311,-3537,1892
99,-46,41,-722,-2370,611
123,-56,-80,826,-765,711
-94,-78,-72,1513,-164,1019
118,-59,-6,1125,-1207,1339
-21,-88,0,-680,-1085,-281
35,89,-85,14,1345,-1070
108,70,-114,31,2033,-774
119,93,-83,-2254,-25,-900
-127,96,86,-2057,-834,-291
-121,-128,10,818,95,640
119,-105,88,183,136,320
118,-80,110,-1122,-304,-192
-116,-77,69,-739,-12,-195
-104,-104,55,-359,-15,-120
-98,-113,65,-301,-80,97
-96,-105,56,78,-14,333
-104,-82,71,139,-35,327
-118,-78,85,-181,-187,138
-14,-34,47,-5610,369,-1339
24,-114,-26,-207,6007,259
-56,115,91,7331,12719,-788
-20,68,100,-6407,7917,-8247
-94,18,-85,-4168,10700,-7506
23,-51,-19,-21610,3924,-5843
125,-26,84,-15622,-2457,577
-48,-100,20,14316,-1838,-3081
127,110,53,-8255,-13669,-29430
43,-94,-117,23509,15885,19215
57,-83,-54,30139,-6555,7649
56,40,-125,-27670,-1013,-9636
58,31,-18,9271,6261,3069
57,60,79,9549,4042,2089
10,-45,-50,-2999,-3463,-2620
19,-121,-70,-10,-1765,-157
103,-116,60,6456,23,1636
87,-68,-30,-53,509,210
110,-58,-64,161,-352,670
67,-76,-81,741,-110,689
17,-70,-63,-1712,-120,-673
70,-67,118,-2553,118,-972
110,-68,66,-2354,138,-548
109,-78,21,-151,169,-43
106,-107,70,535,-33,83
-126,-32,88,101,-65,42
-112,-64,109,-294,-47,31
-93,-63,100,-283,88,96
-96,-61,88,-451,-172,8
-86,-65,67,95,68,184
-87,-53,96,-414,-184,107
-92,-44,75,-136,-55,48
-90,-46,85,-379,-156,-48
-82,-38,88,-540,-245,-19
-86,-25,76,-475,-238,18
-96,-15,79,-693,-300,-151
-88,-10,70,-507,-181,-84
-83,-5,72,-537,-203,-115
-80,-3,69,-594,-248,-104
-73,-8,56,-282,-84,9
-119,104,115,2058,8967,1376
-78,-13,38,-5576,7276,-4626
64,17,-30,-879,9011,-2755
-12,-93,-22,-4567,8016,-4579
117,38,-81,-9537,4199,-4699
-120,41,34,-13632,1828,-370
31,105,58,607,1669,4080
-26,61,-24,-15352,-3042,-13478
-28,-117,76,19614,-15065,-26240
-110,123,-126,13147,13702,15084
115,79,20,31576,-11495,12308
29,-87,-8,-25812,662,-14721
99,-124,36,4800,4632,3104
0,-94,43,5110,458,-153
49,3,1,2718,-595,-1198
-107,-48,-78,1347,-979,-687
90,20,104,3277,-1522,-604
85,-102,-127,3359,-1629,1114
-94,81,20,5086,-2037,2560
102,-46,105,-1573,-3359,2068
51,123,36,1267,-3060,965
125,-64,37,-748,-2759,1366
62,-74,-123,-433,-2463,94
84,-45,24,150,-1944,-210
93,-35,19,-403,-2124,179
83,-82,-12,133,-1771,170
36,-59,-24,721,-1019,412
12,-76,-22,-1503,-303,-752
46,-89,-95,-860,866,-586
57,-74,-109,-1918,114,-960
87,-78,125,-3547,-1072,-963
-125,-84,53,-2570,-1104,-303
79,-34,-23,1931,435,536
73,-35,85,1177,282,411
71,0,-122,57,403,357
61,1,123,-723,-143,62
73,-9,77,-39,113,57
91,-28,88,-195,-17,-15
114,-35,85,-238,36,66
120,-40,79,-190,-19,84
-50,-10,102,2258,5507,1309
99,110,-126,463,8046,-344
61,-57,-33,-4972,7001,-3049
-1,-52,99,-392,9658,-2283
127,100,-30,-1367,8164,-3316
102,21,-78,-867,8675,-4967
33,90,-89,-9230,6186,-8054
97,-48,-93,-28240,-4213,-7122
-50,57,102,14374,3805,-1760
65,-29,97,3561,-10614,-23343
-63,95,29,25408,19137,21758
-60,-81,-126,22706,-5038,-3217
33,-79,14,19167,4477,768
-100,37,52,12090,4765,2078
82,-4,121,-15071,-6794,-5870
-90,112,-78,-172,50,-2220
-100,-29,-115,12834,2065,3688
42,30,-42,5358,-2380,921
33,-119,-13,-3609,-3630,622
-118,-112,38,6300,-1053,3147
83,26,101,495,-3256,2809
37,-42,26,41,-3435,964
100,-69,51,-810,-1759,1433
37,-16,-55,2,-2733,1010
51,-102,84,-252,-2120,-1045
87,117,31,-665,-2223,-1501
-113,-97,-20,1347,-1704,641
-93,-109,-74,3714,484,2044
78,-73,-27,2177,1329,876
16,-80,21,-829,299,-607
75,117,-28,-1492,18,-717
-112,86,-92,-1757,-69,-613
-106,88,63,-280,-26,188
-118,109,75,262,-99,621
124,-113,103,-282,-196,374
111,-99,107,-217,-290,102
120,-102,119,-768,-295,-283
-117,-99,102,-973,-94,-340
-124,-76,98,-1446,-645,-309
-123,-75,66,-690,-425,-123
119,53,-26,2099,4986,2126
34,-127,9,-4305,5723,-1977
-23,0,116,102,7515,-322
-61,-117,-15,-422,6858,-1022
94,20,-82,-467,6737,-2611
-27,66,-107,-1752,7532,-5531
-24,85,59,-10057,5963,-8160
57,78,100,-15313,3924,-1908
97,40,-58,-3785,1971,4260
-94,92,-49,10158,-10438,-12531
50,50,104,1088,-16025,-23958
-29,63,-37,17401,14279,20328
76,71,111,23743,-5785,1700
-92,-7,-30,-22731,-3216,-7003
52,11,7,6843,5245,1928
58,124,14,10019,1933,1733
-28,-8,66,-309,-2653,-1555
18,-100,-95,154,-3579,-701
81,90,36,6683,-887,792
-120,-14,37,3834,-2882,542
8,73,65,-177,-5033,-2171
-5,0,-52,5945,-3107,755
77,-46,83,1075,26,2517
-64,-82,-4,-1013,-2400,1140
20,90,48,23,-1115,1191
69,-93,31,-3,-1808,1775
99,-61,9,1677,-1014,2622
81,-51,-18,824,-1064,1268
47,-75,-30,723,-210,401
17,-95,-35,-580,255,-683
68,109,-99,-1505,851,-1163
112,100,98,-527,765,-661
-123,94,70,357,516,-46
126,93,123,-799,-515,7
-110,106,75,27,0,389
-112,125,97,-282,-74,318
-103,-112,94,-16,6,298
-108,-109,113,-511,8,88
-116,-116,79,-89,147,178
-128,-120,84,-258,-163,93
-38,70,113,2944,7707,-2274
-55,-42,-38,-5596,6212,-4020
43,8,-118,-4673,7863,-5263
65,-110,-58,-3236,8116,-4452
-94,-14,-31,-7511,7589,-4799
-74,20,125,-15808,707,-2768
5,11,-118,-6046,-322,2082
91,51,118,-1236,-4167,-5898
-126,101,-83,1645,-10988,-24040
-125,115,-94,4603,5648,-7441
-59,-14,-104,29894,17068,21173
-11,-83,111,-31069,-10638,-17723
-55,124,-31,-1165,-3438,-360
-17,52,-65,13863,5104,3270
-60,17,-87,4767,1381,-1185
63,101,42,-3009,-3946,-3755
7,-39,-76,3743,-2613,-2020
69,-101,-66,10448,-3907,1165
-98,33,-65,5150,-4599,4102
83,16,-14,-1808,-6840,239
-22,38,102,2901,-3038,1025
32,5,125,506,-421,1619
94,38,104,1341,1666,2907
-12,-83,89,949,-442,3501
38,-30,101,-2173,-1786,-1782
7,104,126,-1735,2600,-3295
-91,-124,59,195,3874,-294
118,-121,85,-460,1493,399
42,118,83,-569,-631,76
92,111,51,132,-187,-188
-115,124,72,98,55,69
-115,-119,96,182,-158,77
-115,-108,-112,-908,-842,-357
-97,-123,93,-270,90,18
-87,123,58,28,731,197
-96,-113,57,323,239,462
-114,-105,86,18,-583,423
-123,-97,97,-271,-719,307
-113,-86,96,-254,-338,298
-103,-79,89,-10,261,165
-89,-52,-61,-178,6028,-2102
80,67,-114,-2671,7724,-3555
-30,55,-1,337,8843,-3015
54,-35,-28,-2478,7415,-3849
-101,106,-106,-334,7033,-5028
76,108,-76,-3938,6633,-7277
-127,-60,-102,-13590,7055,-6340
2,-29,-127,-15741,2601,-2068
-107,-101,-100,4647,-1113,1954
-102,29,125,1950,-8258,-13650
12,81,-69,12811,-18725,-29534
-100,-36,65,19056,15423,15834
-11,83,54,-30007,-2299,-1222
88,-67,-30,-4290,823,-8054
-121,-97,100,17717,5162,5022
74,-2,-101,6296,538,71
-12,-90,-88,-11649,-6117,-4614
104,12,116,6012,1986,25
75,-59,-15,12496,1322,3311
53,-64,114,-4541,-4384,1584
38,-61,-125,4230,-3931,3207
73,-43,10,1649,-3516,2657
-47,-20,5,-1423,-9402,643
57,-27,69,-458,-7106,-1395
-65,-42,-69,2697,-640,-44
-91,22,-109,7097,6588,2687
-3,-16,84,1546,1887,332
4,-30,98,-917,-597,938
-32,-108,-61,-563,115,453
-18,85,-81,-1055,351,-889
42,78,124,-711,684,-575
106,89,122,-1088,310,-534
109,73,96,-173,52,-235
113,71,113,-884,-43,-541
-100,77,58,-261,711,-84
-108,89,59,-393,329,159
-119,112,57,-397,-172,226
-122,-125,62,-389,-501,164
-113,-116,65,-281,-360,120
-113,-108,71,-271,-215,16
-48,-65,40,-5150,4680,-3516
-94,-15,87,-2168,6567,-2468
40,-38,-62,-3024,7011,-4665
24,-126,19,-2880,7815,-4944
121,84,10,-9027,6008,-6393
-16,-5,-106,-16020,905,-2514
110,0,-57,-8501,-236,998
36,-126,33,-13070,672,658
-3,98,-104,26179,-24126,30922
-83,-73,-117,-2973,7742,-8764
-67,-35,-36,-23157,22204,23081
-121,19,65,29941,-14542,-11029
-2,19,-21,4587,4277,1497
16,-124,-116,12354,7068,4669
-14,111,2,3466,-1530,-1940
3,101,-28,-4874,-4138,-2763
64,-83,-84,8173,-1891,2343
-80,-29,-123,11293,-573,5655
43,53,-112,-6560,-4946,1115
65,-54,-50,4485,-2625,2160
39,-108,50,875,-5760,1288
73,-114,107,-1646,-4713,-596
-48,-19,6,-995,-1927,1137
-4,40,-88,2427,945,3149
115,76,8,2395,99,3115
116,-5,40,-782,-1562,-357
-67,113,-104,88,1286,-2715
86,77,98,1079,2919,-1631
-106,103,-74,-1120,1183,-610
-115,114,-127,-2067,-302,-289
127,-125,52,-1317,-406,-415
115,-107,72,-1846,-1111,-602
-112,-111,24,-166,-83,-131
-84,-98,62,-393,208,-35
-89,-98,33,520,317,221
-108,-97,49,933,122,441
-113,-100,93,75,-409,352
-92,-101,55,1112,113,791
-111,-99,109,251,-138,514
-117,-88,93,54,177,224
42,-67,-121,-3380,6497,-3951
-121,124,-56,2097,8300,-3938
-17,-101,98,-1549,8514,-6949
103,4,-25,-6169,8816,-8254
77,52,121,-17860,5908,-5714
-12,16,125,-20129,-9,1184
-4,58,-81,11217,-2941,-2272
59,96,-11,5751,-10297,-17951
-124,-25,27,10081,-12369,-29025
15,-52,-9,28398,17974,22058
47,-103,81,-28321,-11393,-9118
-113,55,103,1687,4648,1223
106,113,-84,14961,4016,3518
27,91,52,-860,-998,-1169
-49,87,-79,-4751,-3482,-3559
49,-96,-107,9838,-57,2673
-100,-84,-121,8344,-486,4210
30,-90,-120,-4940,-5401,1001
107,-33,-72,1566,-1753,2152
37,4,-49,901,-3530,1144
88,-63,120,829,-3097,364
121,47,108,664,-2293,1630
101,-12,67,-410,-2183,877
107,-68,-38,1537,-817,1028
93,-47,-30,2882,175,1949
7,-49,45,-985,-533,310
-2,-90,-63,-1254,118,-986
75,115,-124,-771,1003,-1015
121,95,101,-321,983,-517
116,108,106,-530,292,-363
-121,106,99,-1190,-425,-151
-107,123,42,185,341,229
-117,-120,74,-55,107,100
-112,-106,82,-379,-164,98
-104,-107,69,-185,-122,195
-109,-100,68,74,-5,225
-114,-95,91,-423,-257,133
-105,-92,75,-125,-52,206
-100,-89,76,-46,26,178
-102,-89,82,-86,-2,95
-62,52,122,-2630,4354,510
-62,88,71,-1028,9085,-551
16,-86,-98,1053,6047,-1274
-12,-31,-23,-8214,5439,-5629
50,-58,71,-11927,8423,-3459
-24,-38,-110,-9651,5624,2251
8,23,2,-4809,3416,3185
15,69,81,-18007,2165,-4495
73,-80,-60,19634,-17886,-22877
-70,-50,-17,1233,2663,-3076
-70,-110,103,-22933,16334,18847
-31,38,-72,31791,-14817,-13190
-11,-94,60,6086,2889,2163
120,41,-34,18637,2978,4162
-35,111,49,1552,-3358,-1301
-44,8,-47,-5131,-5073,-2685
101,-110,-79,9353,-1105,2653
-54,-77,-32,5559,-1532,3813
85,-53,61,-2649,-4686,400
112,33,-101,2442,-2342,508
-111,-21,-86,2308,-903,1389
116,25,-42,-144,-848,1507
99,-15,117,-468,-1328,1478
-119,5,71,-511,-2020,1930
122,-7,23,1539,-906,2159
-12,-41,11,1149,-735,381
-2,-127,-17,-908,-380,-2071
127,119,-91,-1461,980,-1639
-94,119,124,-1580,393,-443
-123,122,66,-1333,-508,23
118,-128,27,486,-213,319
-116,-128,83,287,-399,244
-107,-106,112,158,-64,349
-124,-92,118,-372,146,133
-120,-89,92,-186,186,73
-109,-94,82,-62,-51,200
-121,-88,82,-98,-135,163
-113,-80,93,-399,-214,83
-107,-76,87,-270,-67,26
-97,-75,86,-142,138,-32
96,85,-108,-1169,7218,-3456
120,60,-33,-136,8617,-5475
-118,-36,-126,-1675,9450,-7060
115,86,90,-3597,10128,-8322
95,5,-13,-11339,6212,-7363
-3,-41,-86,-21114,-501,-1528
56,-46,-123,-1711,-2553,3135
-81,121,100,12952,-4513,-14813
69,98,-59,1855,-13260,28961
79,10,-102,26663,16378,21226
-24,13,72,-14425,-3355,-446
7,72,54,-7610,-2586,-7281
-63,30,88,11863,5212,4351
-110,88,84,1754,1145,-1179
87,39,-16,-3642,-2201,-3677
82,-2,-44,6767,503,569
120,-105,108,7527,-1055,3295
66,18,67,-635,-3296,1113
-119,-96,0,962,-3566,4908
-109,124,27,1660,-3923,4102
-25,-21,53,-791,-4467,2645
31,58,33,836,-3359,2210
-126,60,-118,2612,-1686,1128
-66,44,81,2832,-320,353
-78,-83,84,-2023,157,-1939
52,-107,-110,-1593,1600,-1110
65,-121,85,147,1346,42
38,93,107,179,-145,-47
86,82,86,1394,479,-4
117,99,-109,413,359,-292
110,100,-94,-579,-172,-630
111,99,-94,-2133,-1043,-1028
-116,110,96,-1780,-756,-587
-101,110,67,-854,-275,-95
-111,-125,65,13,-30,260
-124,-105,75,91,-137,301
-128,-87,80,-119,-18,177
-123,-70,74,-126,106,159
-125,-73,75,-256,10,-2
-113,-74,62,-51,115,36
-119,-43,-125,702,5859,-897
120,70,95,-2913,8063,-4368
-23,-50,-16,991,8450,-5215
35,15,-108,-1098,9127,-5482
-13,30,5,-2647,8650,-6906
-104,8,13,-11854,5785,-6763
-87,127,-81,-19852,436,-1798
33,-27,90,-1772,-423,6364
37,-104,-91,8320,-7338,-19347
-99,26,115,4511,-15656,29977
68,15,-50,18223,17051,14975
-1,125,-89,16855,4721,12464
57,-73,115,-22526,-1101,-15436
-76,122,-89,2241,788,2201
127,-108,-49,5579,255,-275
-14,112,-60,2664,-267,-1947
37,-32,-100,6978,-1080,356
-122,-57,34,7520,-2329,2458
-121,-46,13,2959,-6658,2563
-90,53,55,4115,-7989,560
-51,-90,-5,2519,-3856,1046
-76,29,-68,58,1059,1578
66,-56,37,-1423,3330,774
127,11,-97,-1036,3196,2916
88,77,-66,1222,-230,2778
-107,-35,-8,892,-2885,1114
-86,-103,-78,2550,-617,-962
-16,94,-26,768,796,-1582
83,80,-61,-312,2157,-470
94,88,-68,-1727,1212,-424
120,83,94,-1228,556,-508
-119,64,62,172,368,-407
-109,72,97,-221,-39,-586
-80,88,98,-676,-147,-246
-87,92,92,-1046,-408,-128
-85,105,56,-482,-307,128
-88,116,51,172,-136,384
-107,-119,86,-322,-436,287
-113,-104,81,-317,-404,285
-114,-99,79,-250,-254,203
-113,-50,-86,622,6961,-622
90,30,-103,-2544,8174,-4278
-109,-120,64,1353,8743,-3490
4,92,-41,1079,8038,-4130
-86,127,-48,32,8477,-6114
17,108,-81,-7295,8580,-8981
16,-25,-102,-24682,-3213,-5831
99,-23,-21,-9191,1357,-1208
-47,13,49,20184,-22152,-22531
-60,29,-117,880,-7869,-25767
-18,-25,55,22629,11529,17026
71,92,-73,-2863,2632,-4191
-83,30,-92,-13829,-3783,-6278
99,-1,-73,6504,4276,1117
25,112,-88,9307,1403,1877
-29,31,91,1133,-2877,-1685
52,-71,51,4765,-3523,1516
-99,92,-59,5772,-2870,3693
125,33,58,-1911,-7482,1988
90,0,127,941,-5788,-852
-124,119,74,4073,-2498,653
86,22,103,2398,-57,716
29,-3,112,-651,610,-303
29,-115,-63,216,2716,481
59,-122,116,1426,2592,1093
113,-111,-68,1168,459,1694
74,-81,-8,-403,-1062,1668
-11,-110,-91,-777,-464,38
27,105,127,-496,541,-1042
97,91,111,-458,735,-710
125,89,100,-592,386,-345
-127,94,81,-351,166,-81
-126,103,92,-588,-200,-203
-107,113,77,-489,-98,-151
-99,116,75,-348,-45,-22
-103,120,81,-435,-239,0
-94,125,66,153,47,283
-103,-120,91,-130,-77,234
-105,-107,90,-251,-76,188
-107,-97,81,-279,-15,97
-117,91,-103,1562,10023,-4992
-64,-89,21,1118,9130,-2660
88,2,-28,-4340,7729,-7110
-78,57,-22,1699,9382,-7750
117,-78,48,-10311,7211,-10067
65,-116,105,-14190,6040,-4059
58,21,104,-12342,-1396,1848
118,81,33,7954,161,5975
-105,37,59,547,-11050,-19512
86,80,49,8652,-8739,-30204
-81,-15,75,11464,7994,6748
-3,-62,-32,24936,18712,16197
106,31,-85,-22027,-9361,-12097
26,57,82,5417,4236,372
-77,-120,-31,9452,3127,1646
71,114,-54,1773,-369,-1234
89,-84,-9,1066,-2477,1503
33,37,-78,3969,-3050,1797
40,79,-82,1603,-4565,1462
94,-7,127,1916,-4899,1452
81,-48,-55,5122,-1173,3181
88,-19,25,2552,1978,5411
103,-55,-95,-1380,-66,2420
123,-63,-29,3471,-474,3089
61,-20,113,-2348,-3073,-714
-34,78,-94,-641,338,-1893
55,44,125,1881,2465,-371
57,42,-33,-552,965,-537
101,68,-97,-1824,442,-836
-67,14,65,-1353,594,-433
-58,33,68,-332,-887,352
-72,66,66,-286,-68,10
-79,77,71,-396,326,-542
-67,80,52,-12,164,-127
-83,80,74,207,-348,170
-101,92,101,-47,-456,328
-116,112,119,-264,-605,353
-125,-123,122,-427,-414,151
-113,-111,111,-440,-2,-13
-107,-109,90,-250,348,-86
65,-77,70,1324,5736,-35
25,83,99,-3220,7852,-4812
59,-62,-23,1105,9679,-3094
-12,-79,-42,-1610,6455,-4308
-47,70,-93,2436,8280,-3291
-3,-85,-9,-3416,8066,-8417
72,3,-113,-10682,6309,-4953
-16,-126,-55,-23085,-1693,-4132
-81,97,-111,18929,-1557,-5348
-74,83,88,-1244,-16666,-26283
83,102,-70,12989,-6126,-20132
98,-121,29,23728,9368,20070
58,47,57,-771,2376,-8544
-48,20,-52,-13703,-3706,-6417
89,112,17,4040,3398,952
12,116,-45,6669,1524,1353
-42,-113,-111,2182,-3292,244
-67,109,76,4046,-5163,1289
71,-67,-88,4169,-2246,3165
56,-37,70,-1438,-4347,1088
-114,-9,-22,2671,-1166,3742
21,37,28,-1077,-2569,1875
22,17,78,-285,-2015,739
54,-32,3,1890,-988,1107
81,-68,4,1218,-491,669
-123,-98,-53,1430,1308,263
113,-47,-70,2688,1848,446
46,-20,-5,774,174,714
-13,-80,-30,-1184,-673,-870
68,-122,-107,-1279,-401,-1006
114,121,103,-353,-36,-703
-117,105,99,205,89,-331
-102,122,-103,-1096,215,-148
-112,124,-126,-1646,-171,-465
-94,-115,48,392,-8,75
-101,-123,113,-405,-384,-131
-90,-108,105,-352,-157,228
-107,-93,96,-344,-343,270
-113,-82,87,-20,-307,256
-116,-70,107,-363,-429,197
118,-98,11,-4325,2016,-3925
24,76,-84,3341,2290,95
-39,-27,54,-1785,-1480,-1378
-17,-49,-23,232,1578,-630
-79,-1,-89,-919,1172,-1314
105,-117,-35,2218,4500,-1378
-35,-118,-59,-3164,3655,-4822
-37,-95,101,10,5817,-4996
-20,56,-76,-3151,5224,-6425
-12,-72,98,-4652,5786,-5579
81,-56,-11,-9955,3143,-4692
61,125,-69,-28068,-4020,-6419
-20,76,38,27298,3452,-16657
109,29,-100,8518,5017,-13450
-5,19,123,-21423,102,29214
-112,-27,-84,-30106,-8730,-12346
118,88,125,6873,5623,1750
-11,-51,15,11428,2253,2534
21,68,-45,5723,40,1293
-18,19,78,-5251,-3684,-1463
-6,109,-20,7676,5,2009
21,-19,65,808,-1752,1948
-38,1,-17,58,-2173,1141
-70,17,-84,2537,-2646,2640
-42,-17,-72,63,-1899,1716
-43,-7,-113,774,-2385,2020
-2,-70,103,-1316,-2540,1203
123,-58,-25,-842,-2040,1596
-81,9,-60,4355,-341,3369
51,18,58,1906,-779,2000
-81,-60,13,213,-622,-674
8,125,-65,483,1222,-1537
93,81,-93,-509,1583,-1161
105,69,121,-563,542,-327
88,71,111,-784,-631,13
104,85,98,-498,-600,158
115,116,105,-467,-225,92
119,-120,108,-881,-79,-319
-125,-123,81,-663,45,-366
-116,-125,66,-343,30,-220
-98,-38,124,767,8030,-1348
-23,-95,-89,1515,8956,-4413
103,40,98,-3202,5457,-6835
-78,125,-54,640,7504,-6735
-75,34,-22,-912,7950,-7900
-100,24,13,-14059,3788,-8066
-12,-36,59,-25129,-1779,-3011
-126,85,-117,11484,17,2911
-100,-127,70,3961,-20952,-27246
46,0,-83,13730,-3596,-24674
48,39,121,12837,19202,28070
27,34,-123,1533,6245,-14592
36,36,-16,-16208,-12015,-3082
-6,-9,84,3577,976,-421
-10,-78,46,13755,1979,3342
11,-108,12,7639,183,1503
69,-48,-121,-773,-3945,2126
42,17,21,943,-3865,2026
74,92,35,1001,-3551,1880
-30,68,-9,409,-5129,483
-38,1,121,755,-4161,334
-60,-118,52,-407,-3229,-1751
68,-37,-40,748,-320,314
65,-65,-100,932,1689,481
113,-2,105,1872,2476,1787
34,13,-38,1796,-79,1257
-16,-93,-62,1360,-769,71
17,113,-72,1607,573,-392
82,65,2,-1090,497,-485
106,91,-88,-1594,612,-117
118,126,100,-1646,420,-143
-128,-123,31,-106,581,-23
120,127,71,-118,99,-387
-110,-114,81,-561,-64,-205
-113,-100,80,-1168,-625,-157
-111,-99,27,-37,-138,45
-114,-93,66,-142,-328,0
-120,-86,83,-517,-435,-43
-117,-88,71,-237,-238,6
-105,-82,79,-153,-51,70
-3,-16,32,-973,7523,-571
-112,-112,-86,61,11027,-3149
22,-12,-106,-830,8265,-4915
8,-42,77,-1735,8694,-6131
3,70,75,-6809,9146,-8064
75,-13,-104,-26905,-919,-6799
-120,-73,105,-2621,2986,-4976
-116,-69,91,23000,-19903,-21782
28,9,0,-2667,8089,-2558
-7,97,-104,-31534,20467,19576
61,92,-94,32379,-14392,-13945
-84,39,6,-118,2166,557
-83,92,121,18468,4305,6418
-32,52,-98,4180,2553,-1944
-12,-94,-126,-6166,-4890,-1316
21,-53,43,5847,-758,1394
67,-120,1,4350,-1782,2677
-1,-65,98,-986,-4207,1043
45,-21,-3,1604,-2352,2486
-10,-34,-45,-1,-3406,1675
7,-46,-107,788,-2495,1193
39,-27,-103,253,-2325,1049
65,-31,71,205,-1097,892
65,-60,13,548,-368,833
93,-63,-19,503,564,586
87,-39,3,-932,-812,428
76,-71,-39,-728,-648,-100
96,-101,-71,380,336,-404
125,-117,-36,-1631,-185,-752
-107,-119,-115,-1361,-286,-335
-122,-88,68,38,14,173
-121,-81,80,582,157,443
125,-75,125,-396,-281,60
-116,-71,112,129,-162,155
-113,-81,-127,-71,-133,79
-103,-83,121,163,114,191
-99,-92,121,240,207,225
-91,-89,125,-2,211,192
-89,-80,121,-239,20,127
-78,-80,104,-131,91,84
-37,-23,-29,-2344,6579,-2066
-109,113,-96,-2676,9672,-2884
7,30,45,-1847,8617,-3615
-48,16,-52,838,8181,-2567
-28,-18,-3,-2350,7660,-5793
62,-53,21,-13641,6426,-7537
-104,-23,-54,-31615,-3554,-4502
-20,38,-36,27621,869,-5202
-46,-97,-21,-6220,-17688,31419
34,-53,-53,8542,10660,9968
-59,76,-36,24878,13077,14030
-113,98,19,-22200,-10124,-13949
19,53,63,-6282,-5176,-1654
83,38,-127,13378,4207,4558
31,-24,-53,8311,2921,917
92,-96,-109,2371,-1572,1509
13,13,-116,-1746,-3918,699
9,5,-16,1886,-2788,1416
26,-95,-20,1505,-2119,1276
12,-44,-40,539,-2386,1377
43,-47,-113,-527,-2733,1768
50,-54,40,-131,-4592,1799
104,109,-68,1742,-3467,322
-5,-47,124,6334,-182,2543
111,90,-114,5049,1160,4268
95,-91,-23,-4271,-1808,-2090
-43,105,-32,-2110,1283,-2963
-91,91,108,-733,2637,-1454
-80,-113,-112,-2747,960,-622
96,-11,-88,-5470,-2411,-998
64,25,17,-4256,-2327,-1358
121,-2,-53,892,746,66
121,-20,72,1303,958,258
83,-11,-102,-1647,-735,-785
112,7,83,-714,-447,-24
124,-23,90,-308,-848,384
127,-40,78,1017,-205,765
112,-45,-128,273,-267,394
115,-26,-108,-652,-520,168
124,-25,83,378,129,418
47,59,41,1690,6149,4
-9,122,-90,6266,7853,-157
36,-43,102,-1967,8065,-6988
27,-70,20,-209,9178,-8521
-9,85,-53,-7971,7459,-9174
-116,-89,36,-15809,3676,-3576
31,-1,20,-22814,-3772,-5755
-88,-46,-70,29196,-4187,-5620
21,69,-33,759,-8421,-32742
65,121,125,32121,17882,26802
-53,108,-85,29838,-9123,-10150
-66,-3,9,5296,3615,1052
28,-6,110,13631,3898,2228
-80,-122,7,300,-2473,89
-59,-44,-31,-3721,-5740,-2609
-122,-56,-24,8458,-542,2721
-25,20,50,4080,-1953,4685
-10,57,47,-3445,-4509,-422
-125,-46,-13,4202,-1029,2229
43,-21,28,-272,-1926,988
45,-125,125,2485,-801,1418
74,-128,74,-120,-1168,1377
115,117,-29,-1033,-2034,1197
-60,-51,-91,2861,-1340,2910
-82,-22,82,221,-2145,2660
-8,-30,-14,361,-1256,1083
-63,-119,-48,-221,270,-1158
44,61,-113,151,1699,-1599
123,76,122,792,2011,-277
116,99,-94,-873,555,-434
124,97,115,-1343,-332,-830
-65,35,61,472,951,-566
-10,42,46,1630,1663,402
-59,51,-118,734,582,38
-88,79,-67,-2210,-1677,-450
-83,95,98,-1858,-1741,-1
-91,120,60,-1153,-1329,203
-87,-102,70,-496,-552,261
-106,-88,75,-143,-69,107
-116,-81,74,-105,320,-212
-86,-64,-51,-3143,4466,-729
-30,-85,69,670,7383,-936
-73,88,11,-1970,6263,-4856
116,9,-106,285,8099,-3530
66,-112,-32,-122,6470,-5719
94,-20,10,-7519,5086,-8355
-104,-124,-34,-16101,2114,-3148
-96,43,-14,-2940,1184,2493
-99,64,-7,-5518,-1673,-5152
122,29,90,15045,-14663,-26237
1,-44,12,21503,9849,937
58,123,20,25302,-4695,10473
59,-40,64,-20033,-2763,-6709
0,-124,102,11307,4340,2136
-111,8,65,2911,-109,93
0,-32,-104,-5437,-4720,-3416
-28,0,115,5218,-2738,-1340
-117,-34,42,13547,-112,5488
64,-34,100,5266,-2859,7242
99,106,93,-5553,-7422,1614
-108,28,-102,2324,-2463,642
-32,-29,-19,2128,549,958
0,104,-27,3854,1658,3436
-54,-100,74,2061,680,3523
52,5,61,-3239,-1118,-1898
-75,-120,113,-780,953,-2827
62,33,90,2389,1235,-1256
58,38,-50,1240,16,-109
66,90,-9,-864,121,-545
127,116,-54,-3988,-353,-1598
-79,-73,69,-1656,486,-588
59,-19,-77,-6154,-3225,-2415
114,20,-44,-3404,-1059,-1530
-109,-21,-90,2062,1727,452
102,-39,57,204,369,-201
90,10,88,-526,-557,-212
91,1,93,-819,-1091,-275
114,-16,58,380,-337,109
113,-13,94,418,-170,293
93,2,-127,-637,-580,94
33,93,64,1635,6747,-940
-26,113,101,-7408,6571,-6069
44,-38,-22,-3365,10243,-4367
33,-122,24,-12794,6826,-5654
-20,-83,-126,-16116,2667,1060
-51,85,-88,-6352,1357,5111
-53,-106,-79,-6600,1252,-689
112,-32,2,12962,-21588,-23870
-111,8,-93,11439,-3705,-24392
4,3,-9,28642,20899,30310
110,-37,41,29300,-15149,-15294
-116,42,-11,-876,4097,-1971
17,-25,-75,23777,6451,9005
18,73,-20,7368,3580,-2479
-13,111,38,-12621,-7095,-5731
-86,33,6,8454,-1531,2115
0,-30,80,15089,1711,5951
59,-56,-103,-10803,-6903,-504
-102,22,-108,4503,-2328,1976
-81,-62,9,1562,-2541,988
-101,-59,-90,-1146,-2110,835
-99,-45,-55,1831,-573,2187
101,-88,-94,2763,1352,1865
-114,127,-41,511,395,951
-79,-88,-75,1187,104,1873
83,-86,-7,-245,-965,1285
8,-127,-24,-2448,-1459,-552
76,79,90,-659,481,-702
123,62,80,436,1303,-277
-124,72,93,93,1064,-466
-87,91,91,-293,642,-523
-92,82,88,-364,-154,-576
-95,70,98,-608,-572,-730
-74,111,126,-2078,-1172,-866
-70,121,62,-1376,-796,-259
-83,127,42,-420,-397,-27
-82,-105,53,14,-113,205
-97,-82,81,-468,-284,109
-97,-63,63,-270,-21,96
-99,-57,57,-318,61,-93
50,-79,-15,1669,5485,1727
-109,-111,-93,-6103,9669,-7969
-86,23,8,4163,10493,-2132
13,80,-37,-2576,8254,-4565
-102,118,-23,99,7793,-4381
-22,103,-36,-7789,6555,-8284
-55,55,65,-22721,-3493,-4884
10,-38,24,-10587,-774,1829
-119,-90,-68,21576,-9545,-12359
-6,41,65,-6154,-11841,-31929
-78,-1,76,6939,12003,15194
89,-80,-103,12952,17997,17076
74,46,-63,-1674,-1974,-13076
25,68,40,-11794,-6510,-2316
111,10,-109,1399,352,-1457
125,-89,81,11072,2060,54
-107,-60,122,9136,-2409,2237
-111,120,25,1157,-3276,1626
105,-53,-32,120,-3467,1598
-95,-55,-47,3177,-3532,2510
-75,3,28,87,-2652,2029
-62,114,118,848,460,504
-89,-5,-99,1274,2541,5860
-25,105,-50,-119,-893,4848
122,61,90,-146,-2443,-208
-109,100,-18,762,-276,-2735
100,-124,-55,-355,661,-3135
-75,-99,-81,-2364,204,-2070
-98,-121,97,-1581,-408,-1084
-107,94,27,591,135,-292
-116,112,109,-345,-361,-384
-116,-122,120,-1051,-654,-363
-106,-102,103,-1049,-576,-191
-106,-104,70,-108,-114,105
-113,-103,90,-154,-223,231
-119,-90,89,181,-159,411
-110,-84,90,436,44,534
-126,-72,112,-171,-243,344
-120,-67,89,83,-35,300
-116,-73,93,96,14,221
-19,89,47,4729,8781,157
-111,9,-24,-7024,6511,-7349
-80,92,103,2501,9089,-3900
100,34,-38,-4621,7509,-7884
-99,-24,-123,-11131,6996,-5602
96,70,-62,-29132,-1858,-1227
-48,33,-29,18099,-2100,-817
125,119,-71,2385,-13174,-30790
19,57,-106,-7669,3054,-20911
94,-7,72,-24038,20613,-27607
93,59,-48,28447,-4718,-19423
-94,17,-97,-20806,-13475,-3612
55,-48,74,-29299,6356,12099
-57,-109,25,24194,10767,3435
121,-88,-105,-18669,-12624,-4591
-26,94,26,10745,-670,5226
-17,-67,47,1694,-3631,3934
113,101,31,-3376,-3553,-653
-104,0,102,3221,450,1196
64,-34,121,-1333,-1614,-678
115,22,-2,-2696,-2823,-437
-121,54,95,2771,-542,1850
71,9,-52,3635,113,1836
-18,-34,28,-1347,-888,-380
0,-65,-121,-331,1180,-792
61,124,98,-622,1420,-1013
-98,-62,87,-1288,1342,-476
122,-88,78,-1182,-99,-538
121,-122,26,476,-221,-230
-117,-107,100,-67,-453,-278
-91,-67,121,-1264,-277,-254
-95,-73,61,-845,124,-112
-107,-85,36,11,300,54
-71,-43,52,-608,319,90
-81,-39,43,-47,-330,123
123,-70,79,-90,-1208,108
-117,-60,69,-342,-188,266
-54,-7,51,-530,696,585
-105,-16,46,332,-230,367
116,-33,88,-43,-799,-220
