AccX,AccY,AccZ,GyroX,GyroY,GyroZ
-28,41,-51,2420,4894,519
32,-10,12,1111,5472,176
-96,-112,-61,-1487,3462,-2079
108,65,104,-54,3518,-3341
-103,-89,-38,1162,3087,-2934
-8,-79,-58,61,4415,-7249
125,-128,-11,-1887,3933,-4859
-8,-118,-107,-254,5031,-1963
65,93,-125,330,4478,-539
17,71,33,-1288,4300,-30
30,-15,79,433,2373,2264
-14,9,25,1769,-1006,532
-102,123,38,7357,-3297,482
-104,-45,60,6875,-6141,-1824
-11,42,63,9959,-6508,-364
-26,62,3,5735,-6169,-731
-95,-29,-20,6137,-6373,-2090
19,104,127,-5734,-4956,-4699
7,-86,107,6892,3095,-484
94,-120,-76,13769,-112,5520
54,5,75,-1542,-1515,-198
63,95,74,2663,283,2763
-69,104,90,1304,-1291,2955
107,73,-40,-212,-419,4197
-116,-124,66,1156,-897,4963
48,-84,-14,8031,504,6373
120,-5,-26,1857,-1787,4426
-37,-79,-25,-1847,-3253,914
22,-7,118,168,-526,-1204
115,-127,46,2836,2044,-425
-121,125,75,917,1773,-1109
-64,123,53,-570,747,-1820
15,88,14,-1204,373,-2268
-73,39,-56,-1711,737,-2427
-7,20,114,-275,1402,-1325
15,51,118,-389,1022,-1332
61,106,76,-583,715,-1138
15,111,73,-406,-94,-940
1,108,56,-647,-226,-742
-13,115,35,246,-256,91
-85,-3,37,6475,4613,2441
94,74,47,5236,5386,1370
8,-73,95,2307,5922,-937
2,43,-67,2341,5723,-2096
-14,34,8,-1178,5321,-3116
114,-90,-34,-1997,3860,-5704
-77,91,-37,-2866,4186,-6478
-94,-19,-54,6803,6522,-3131
87,-126,46,-2133,4657,-5707
98,122,-19,-1708,5565,-2649
-118,5,-50,-3344,2216,847
44,110,-80,5231,-409,1742
-125,-75,100,8529,-4674,-1028
-5,-78,-5,9749,-6564,-2166
65,119,32,4077,-6751,-2709
65,-57,-19,5905,-4244,-973
86,-99,55,676,-5644,-2578
61,-126,-84,-1124,-693,-4648
98,-96,-81,7591,3257,-1173
101,-57,115,13535,-1736,4083
58,-7,-73,-4448,-2790,-737
126,-94,53,7236,3066,2187
-58,-79,-3,2707,3366,2973
-5,-121,-89,387,-928,3031
31,21,121,-1488,-1364,2668
106,-86,-6,-1150,-1423,3242
-66,-38,-8,4372,-854,4783
-27,84,-86,835,-1170,3847
-74,119,60,1506,569,1602
92,13,28,1771,871,-806
-94,-41,28,-896,687,-1902
36,-100,-55,-1025,1291,-1308
123,122,-119,-193,1505,-1128
-93,63,92,377,1113,-787
-113,81,-127,-314,-2,-785
-72,-121,-83,-1438,-291,-1331
-14,-116,116,-1218,205,-1035
-21,113,59,-101,592,-320
-66,115,56,201,158,35
-84,-111,86,-470,-395,232
-83,90,-22,3480,4253,1485
-89,126,-112,2881,4845,786
122,-63,39,2346,4567,-132
83,-24,-122,-965,3670,-1414
87,49,95,394,4050,-1119
-2,-53,-87,-881,3881,-2325
-92,-35,-62,-1371,3378,-3229
-114,5,125,710,4126,-2798
58,69,117,-1198,4190,-2900
-60,-98,-125,-2580,1974,-3993
-47,32,55,-1914,3082,-3409
-91,-95,121,-860,4039,-2839
104,100,32,-757,4405,-1088
72,3,-105,-1812,2824,-1126
-104,9,-111,1649,-963,-1706
-10,42,-54,5261,-4060,-2867
94,40,47,9582,-5424,-2263
-103,-77,36,7297,-2582,-1996
-3,-37,-119,2364,-3200,-3873
-27,93,-11,-4854,-1892,-2808
-122,36,1,4152,41,134
114,-85,80,12495,2509,4883
20,-14,94,-2528,-3077,-242
38,-48,103,1093,-521,705
-44,-84,73,2921,950,3923
120,74,62,-68,-37,4944
119,20,-61,2745,-800,6396
-75,30,53,186,-4819,4765
-59,-88,-26,1115,-6652,2646
-109,-112,36,1905,-4332,488
13,-27,-120,299,-864,813
36,-18,108,1445,1588,1796
-52,-94,20,3211,2436,-642
-4,-111,43,756,1448,-1521
88,-10,-18,-2527,973,-2625
-105,-41,-104,-1470,260,-690
-80,-19,69,1256,547,23
-85,44,-88,-1020,-119,-604
-74,91,123,-670,121,-616
-79,87,98,-407,183,-428
39,39,85,1031,4126,-2262
-15,-100,-96,897,3768,-2605
-60,-37,-67,-583,3468,-3651
97,22,-104,-72,4035,-3698
-61,-59,-51,2123,4185,-4492
-37,3,38,-3725,3194,-6789
62,-106,-111,-3699,4873,-5145
64,-79,-23,-4056,5136,-3347
-1,69,18,238,4730,1655
47,5,-128,364,3466,2490
96,-62,-15,-2649,560,2723
69,-86,-79,2788,-1267,3701
27,-55,77,5392,-3102,413
-73,-17,43,5700,-4826,-2065
-93,104,-98,6988,-6822,-1098
-101,6,40,10957,-6647,-71
-56,99,-68,5755,-3154,3388
-19,-90,63,2629,-5986,-295
-28,-57,85,-892,-2744,-3478
59,118,-72,5638,133,-332
-121,3,-63,2995,-3843,144
24,-32,-87,3268,-1403,354
41,59,122,7192,-1057,2569
-32,-72,-78,2125,968,1729
56,42,-80,2248,-12,1677
-101,-65,-87,2517,1494,3169
53,-11,72,1476,797,4049
8,-116,71,-2019,-1337,2940
111,-55,-2,2984,-309,4833
-108,73,126,858,-1338,4408
-65,116,108,-1116,-581,1762
-126,20,-44,5200,2075,548
-111,-5,80,-776,1158,-2380
79,-75,-65,-1253,1775,-1859
104,114,126,145,1314,-1275
127,87,114,303,699,-1165
-87,74,-94,-414,-52,-1275
-58,80,-102,-876,-131,-1085
-32,73,124,-378,61,-750
-26,71,124,-357,-57,-307
109,97,-34,3610,2929,1394
-124,-119,100,3622,4514,431
99,-17,29,67,3911,-1372
123,114,50,6,4177,-1591
27,-13,91,581,4943,-3257
12,91,123,-592,5171,-4591
-51,-2,-114,-1039,3994,-6093
-20,-2,-104,-5041,2773,-6623
-64,8,-2,-1016,4301,-3680
-18,-104,-35,943,4088,-2747
105,62,47,-2667,3286,-3016
122,-43,-90,-3663,3746,-1472
-124,-2,30,-1262,2454,1575
-7,10,-83,3915,-1036,1951
69,26,-9,6100,-4401,-296
57,-89,18,7022,-3991,-336
-98,-32,-68,5974,-7723,-573
124,32,-34,3577,-9850,-1824
30,-128,-60,4145,-4665,-352
16,-83,19,-953,-2319,-611
-49,58,63,-2399,3003,-4018
-73,50,-61,6647,2476,-476
19,-52,83,4904,-3334,387
113,-128,-18,4001,-4135,-608
-21,-98,88,3811,120,1820
81,3,-72,4580,2230,2474
8,36,101,2387,1497,3347
23,81,13,215,812,4803
-17,-124,-3,2288,76,5255
-98,-54,83,3241,-379,5349
37,-71,-93,1289,-1370,1409
13,83,-125,-232,-666,-1917
-84,-81,25,198,1381,-1903
-18,96,-13,-102,1721,-1521
50,61,-65,133,1337,-1447
122,20,-91,34,1016,-1431
-35,-10,-116,324,1041,-838
0,49,-77,-421,247,-833
-9,67,-85,-1032,-84,-1329
-6,71,-126,-1018,-124,-1043
-106,-127,-72,3212,3245,563
-71,113,15,5446,5544,757
118,-79,-41,4064,4742,-358
-126,-9,126,-14,4141,-1884
101,102,35,4019,5888,-1115
-94,-58,91,4664,4923,-2899
91,113,22,470,2493,-5237
121,-31,-23,-2081,737,-5734
55,-13,-22,-3449,609,-6590
-10,-104,-5,1063,3599,-5092
-40,86,-88,-3656,3614,-6039
-33,113,64,-6207,4417,-3929
113,83,22,-2957,3928,5
19,-96,-78,-106,844,2685
-48,-61,-110,1689,-1286,1728
48,121,32,6115,-3846,752
-15,-50,87,7705,-5891,-1882
-14,104,-86,3823,-4929,-2904
43,-72,25,7212,-6468,-4070
-45,54,109,7362,-5567,-2398
75,66,120,6421,-3866,250
-57,82,8,-2570,-1405,-2124
76,-113,17,9944,1361,1252
-114,-52,96,-348,-3287,10
-4,76,125,3125,108,1129
-83,68,60,3876,3053,1710
0,96,111,-1750,1553,2374
-76,28,93,4,179,3601
80,116,-52,2372,57,5637
-5,13,80,-1202,-4668,4546
-125,-3,41,2590,-3501,4153
18,83,100,1316,-858,2302
-116,56,-46,3529,1871,292
82,20,36,2047,908,-590
-63,-118,74,-3767,-396,-2847
95,32,122,21,1309,-882
125,46,-120,1353,1110,-640
-98,92,-42,-1171,120,-1789
-41,-110,-72,-1568,262,-2674
17,117,95,-424,1179,-1921
-29,-77,-110,4731,6497,826
45,60,91,-512,4307,-2249
18,-68,16,1113,4551,-1875
28,7,-99,-4015,3082,-2454
32,-55,103,-2558,3634,-3216
-113,-99,123,-922,2455,-2743
-120,113,-92,-867,2813,-3353
13,90,118,506,2791,-2867
15,-126,-68,-3838,2444,-5544
38,-69,64,-7334,2198,-4820
-16,76,125,4450,4399,1068
-14,94,-77,1670,4263,-17
-42,104,1,-4980,3851,-1440
14,-64,-21,-5987,2696,512
33,-24,-26,2658,1651,3583
60,76,-5,-1002,313,619
69,-115,31,2643,-1586,-24
-117,40,-20,6598,-1900,-88
-41,55,-44,4672,-3896,-2749
-51,-91,-42,7889,-6040,-3596
-25,-76,-118,10854,-6443,-2042
27,4,83,7806,-1404,2047
-51,18,-3,2547,-3519,-1278
86,18,-65,4542,-1990,-534
36,-26,60,1085,-3482,-184
-43,-73,110,3403,-2374,1217
-121,-18,-120,2183,-1229,1727
-27,24,-7,3080,-783,1441
39,-72,-64,1263,1087,1926
111,-7,-55,1346,1848,2563
11,-120,8,5843,312,6423
-113,16,-33,-2597,-2182,2596
-118,-59,19,3251,-692,2201
108,-49,-121,2185,-406,1550
96,-33,-113,-309,-29,17
125,-68,68,-64,565,-458
-67,-111,3,361,1012,-923
-13,124,-14,-548,938,-1526
33,109,-69,-487,772,-1627
67,90,-101,-1440,23,-1862
-85,-117,127,-1674,2230,-3324
-87,28,45,-3794,1368,-4183
-109,53,-12,-2804,1147,-4267
-116,-31,-7,689,4096,-2493
-116,104,-123,-283,3578,-1107
12,-11,42,2213,5211,-93
-26,-38,17,-2481,3560,-173
-26,-28,96,3157,767,1371
86,115,-86,5320,-1442,47
20,-27,43,5945,-2614,-1048
-60,104,32,6618,-4707,-1522
-31,55,-69,6623,-3903,-942
-15,88,102,5921,-3893,-898
-3,-92,-120,4748,-3448,-1159
-45,74,53,3564,-2278,-620
66,-48,83,5438,-361,579
-68,-16,84,1624,-1047,888
-30,32,108,2156,-969,878
-117,-37,-127,2822,-1381,1418
-21,-118,110,1654,718,2237
-65,-89,-112,2468,605,3551
127,-87,98,1046,-859,3454
118,-83,46,2647,-1719,3909
51,-27,116,2102,-1664,3485
53,46,-99,1915,-980,3349
47,86,-61,804,-2,128
42,11,-122,-619,1487,-1501
-116,-93,37,-662,2018,-1991
0,102,-49,-521,1748,-1878
90,93,-81,443,1708,-1450
-78,91,-59,-374,1269,-1555
-17,96,-98,-569,863,-1520
-5,87,-112,-661,375,-1272
-8,72,107,-871,161,-1166
0,69,60,-862,-94,-636
-10,90,39,-192,-550,212
-37,106,49,-173,-847,549
-70,-124,74,242,-1221,856
-101,-105,124,-515,-1606,675
-112,-89,120,-150,-1255,874
-102,-111,94,3785,4358,1409
-116,-114,38,2733,4963,495
-112,-20,-98,-310,5632,-799
16,17,-61,636,5953,-882
-102,104,32,-735,4417,-2130
76,-54,-4,-718,3894,-2662
7,-69,-19,-961,4044,-3454
-46,-12,18,-1688,4491,-3778
-61,45,-89,-4537,4685,-2691
-106,0,-24,1208,3984,-1648
-89,9,0,-1498,2497,-3263
-83,86,-55,-250,3043,-1289
119,-18,-115,-2263,2008,-31
13,-5,-41,-1957,1016,1384
-65,32,-34,5040,227,4032
-103,-41,-44,8081,-1873,1027
6,-58,3,6044,-5118,-1535
118,-67,100,9544,-6179,-328
-49,-28,51,4498,-8281,-1654
-28,8,-86,649,-6329,-1341
44,-81,-44,-2994,-4616,-4298
-76,-57,14,5946,1727,-678
-124,-52,5,11920,1920,3679
-118,124,69,-5329,-3545,-467
-123,93,76,2342,1871,2485
6,28,-48,5940,2967,6085
-84,-34,16,-1723,-1747,2021
-100,-124,-125,-1650,-2550,1411
-84,62,-56,3026,-1802,2003
-78,23,109,-1674,-4043,569
-24,-1,-35,2316,-2166,1754
-32,-88,94,2846,-1512,1938
7,85,73,2063,633,1030
2,108,6,4114,1637,1884
-77,-118,102,704,87,699
-77,90,89,27,-257,-414
-1,30,49,121,259,-781
80,32,32,-537,648,-881
-124,45,-14,-505,795,-985
-91,60,-69,-643,824,-1010
-4,-22,51,7189,4327,1958
1,60,-6,8871,8913,1869
122,-126,-84,5332,5999,-1826
-122,17,53,-2332,3260,-5108
-90,-66,-126,1987,4326,-3911
121,26,-86,-1092,3516,-6045
61,-112,-124,2115,3840,-5679
81,123,39,-3510,2184,-8468
119,-80,-63,-1343,4654,-5568
7,23,44,-57,4980,-1877
-72,76,-31,-430,4584,222
110,-46,-86,-3522,1574,-1272
-92,113,-31,1049,-1664,1395
-92,3,28,7776,-3279,1995
23,-60,121,6188,-5344,-918
-33,103,120,10057,-6649,-1670
26,-106,85,6631,-5700,-1055
103,-51,-31,5333,-6460,-714
104,83,-36,6621,-1585,2197
-100,-98,-119,-1210,-946,-845
-90,-49,90,2567,1170,2894
92,68,80,2215,978,4725
-73,126,60,-531,1283,4876
72,115,-15,-202,-3644,2041
98,25,-60,-252,-4203,1305
60,-22,-107,135,-6697,-87
-76,47,-121,1107,-5529,731
66,-52,-80,5219,-2455,2055
40,-81,-63,4011,1068,1655
-67,-41,-80,3838,1910,1064
-121,-95,-21,-120,997,-662
-22,68,107,-681,1713,-600
58,37,-20,-445,2411,-435
105,86,-108,-217,2231,-488
-107,-124,-107,-506,1261,-733
-79,-113,-114,-929,374,-1321
-12,-106,111,-988,360,-1262
0,124,85,-348,445,-1121
17,127,87,-321,345,-713
21,-108,99,-181,-9,-603
-122,88,-43,3024,3771,-397
69,-107,52,3539,3971,-857
10,71,-47,1053,4030,-2624
-20,-86,-81,1274,4487,-4141
-83,-10,93,1510,4222,-5076
40,-41,67,486,2828,-6209
55,30,-24,903,3550,-4150
12,-11,42,-422,488,-5582
-114,74,38,-12288,3227,-8114
-97,-117,91,3853,5399,1786
89,60,-57,1191,2893,-1843
-18,-89,-90,-6119,1387,-1036
-31,-74,70,4877,202,4816
119,99,49,5025,-1981,2150
-61,-105,-52,5567,-3352,-1267
-1,75,25,6743,-4130,-1582
107,-100,-47,6325,-6328,-2626
75,68,77,7401,-5107,-739
-111,43,111,4932,-2410,-126
-19,37,110,-621,-2067,-3009
-14,20,-54,6513,4126,-1383
51,-16,10,4095,-531,-108
-74,-111,74,2235,-2188,-224
108,-78,57,2122,2028,1930
-29,22,-49,3709,424,4525
-80,-112,-78,-961,-2273,3882
37,70,70,1033,-4448,5465
107,91,-80,4971,-1819,8566
58,-85,-127,3247,-1842,6385
48,-13,-12,3775,105,659
48,51,126,3354,1286,-2158
105,-43,123,-401,1481,-1221
-100,85,-15,-870,1613,-228
-93,47,-82,986,1226,-305
-12,79,-25,451,425,-708
61,79,-6,-373,286,-1488
-73,61,-23,-1040,1128,-1265
-11,8,84,1051,2228,-724
-53,11,114,1353,1162,-515
-79,21,-70,-1237,-522,-889
-85,4,125,3950,2706,1754
35,0,27,1953,1441,1142
68,-20,37,1886,1649,571
-121,-5,83,3972,3306,717
48,-110,-27,4539,5063,-862
-55,77,116,2739,4879,-2673
-120,-109,-91,675,3158,-3408
97,-116,70,-265,2564,-3306
96,33,68,-769,2201,-3724
47,-85,51,1082,2563,-3968
20,-6,-91,-1920,2357,-5983
16,18,-94,3258,5396,-4121
101,87,93,1017,3760,-5391
-55,87,-71,-840,4304,-2306
-105,-36,35,-1707,2769,-75
79,32,20,-539,-796,1225
35,-116,61,12216,-3201,2092
-5,-2,-86,1638,-3934,-2815
2,11,96,2529,-4025,-3180
34,46,-68,7786,-5054,-2275
-36,59,37,8322,-4952,-1107
-10,-88,91,3318,-6253,-763
6,-64,67,-1642,-4352,-1926
118,35,101,11279,-2109,2904
18,-16,-82,5093,-6160,1199
41,-121,-61,-1648,-2675,-1505
102,3,-105,3013,-397,-144
2,27,-85,4209,-1010,1878
75,-56,-94,28,-729,925
-73,55,-10,1183,-294,862
106,-17,-18,-1631,-953,-547
-92,-107,72,3803,1266,896
112,-112,92,3048,1444,1244
87,-87,103,447,1156,621
-98,-122,-6,816,1756,492
-42,-112,-52,734,1558,117
1,-113,-25,-1446,449,-980
84,116,-114,-382,896,-623
124,109,124,-889,750,-726
-115,-127,96,-529,688,-373
-15,-116,37,4604,3949,2770
-63,4,112,8378,6068,4003
-31,37,15,3667,3747,518
-44,117,-95,1759,3257,-1499
-29,-16,-54,3464,4116,-2162
-59,84,24,500,4554,-3422
-95,78,25,-560,3315,-3451
123,-78,-104,1078,2943,-2858
53,-27,-103,112,1555,-3724
74,-21,122,-1001,1773,-3657
-90,88,68,1099,2118,-4285
51,-72,-40,-242,2984,-3560
-33,82,-99,2583,4457,-2747
-104,6,-34,-1702,3888,-3281
-69,123,94,-4621,3601,-1131
99,52,90,-1934,2097,1173
82,-8,-124,2405,25,3069
36,80,-75,5683,-1893,370
-45,-41,-47,4413,-4161,-3276
-120,-4,9,7660,-5272,-4369
115,-108,31,8954,-6444,-4310
-39,-63,-128,9291,-6892,-804
-14,8,-96,6528,-5209,2458
92,-81,-52,-3790,-485,-1235
-15,-28,-34,7231,-600,1345
75,-10,1,2283,-8265,60
12,65,71,-404,-4168,-1595
55,94,-81,4354,-1720,189
-109,54,88,3535,-318,-1091
32,87,22,671,48,-178
40,-61,56,4700,3949,2416
25,-21,75,-1554,-1983,409
102,-125,-111,-1382,-925,15
121,80,69,2499,634,787
-93,94,104,1134,1326,720
-103,-103,51,923,1510,395
127,-51,63,-1482,295,-713
-47,-67,-11,-2109,483,-1165
39,-52,-88,-1765,1152,-1038
121,-27,116,-1516,1369,-984
-103,65,-103,3921,3031,722
-121,117,100,3984,4559,580
59,-45,27,4238,4810,-289
14,90,-11,2298,4898,-1811
-45,-46,-29,2790,5458,-2119
94,110,9,1338,3960,-3865
76,-29,-34,-3234,4704,-4237
-37,92,-4,-4369,3092,-3086
-68,-113,14,6016,2357,-2917
-66,114,94,-2644,3228,-5326
51,100,-48,2745,4895,-2168
-53,27,49,-672,4877,-2120
37,-82,-31,-969,3971,363
-109,-23,-39,-1936,3147,1592
-101,-86,106,2386,-1199,4457
-72,17,-114,6846,-1697,2846
101,20,123,6214,-3760,-804
95,28,29,6698,-4945,-2832
-69,-57,-89,9619,-6495,-2349
-81,-104,119,6915,-3644,530
-29,-121,-25,1999,-6625,-1861
-114,-85,-116,5099,-4109,-1342
-65,2,-14,4561,-2846,1005
38,-60,89,5677,-2520,1866
-100,94,60,2842,-3056,1313
-110,-124,119,299,-2758,549
112,-72,78,1219,-1938,19
-37,-22,109,2277,-851,201
124,-18,-35,6623,1298,2746
-106,-6,96,2390,295,1986
83,-23,-10,3074,787,2231
4,-25,-35,1773,857,1587
17,-39,-95,1610,1599,712
30,-65,118,-5,1386,-464
-53,34,-53,-1099,1482,-550
-52,53,-92,740,522,134
-10,54,-38,-234,283,-996
114,30,-71,-828,688,-1085
-113,22,-113,-506,776,-555
-102,49,115,196,728,-285
98,3,112,4336,2888,2165
-128,-26,-5,6878,5588,1994
76,-108,89,3523,5888,-1036
102,-41,-81,1142,4610,-2234
70,64,-97,1252,4102,-2507
-104,-113,-53,835,2749,-4202
-123,-29,116,262,3430,-4095
60,14,105,-1720,2960,-4698
18,12,14,-1394,4424,-4874
-22,3,-11,785,5630,-4064
60,-120,-96,-5504,2196,-5665
-99,-24,-70,864,3726,-403
63,-106,-126,-316,3946,-274
-41,86,32,-3486,2428,434
-60,-77,76,822,838,3879
73,-93,74,6022,-666,3809
120,-5,-89,5514,-3071,-821
-100,26,3,5727,-3804,-2000
118,-80,12,8139,-5163,-1399
99,-103,-95,8516,-6013,-1339
-78,-67,65,7384,-5722,569
39,-62,-115,-3502,-6535,-3789
3,-83,-44,-543,985,-6011
88,119,-38,12730,2270,911
-46,64,75,7068,-4438,318
-40,-107,120,1603,-2358,-452
45,-87,-98,3556,140,1255
27,-12,-43,3696,2431,2937
-79,-69,-112,520,1930,4677
-9,62,106,5759,854,6196
49,-55,44,1290,-2099,2989
105,86,-127,3735,-60,2144
45,50,-59,1336,613,901
45,-52,76,545,1567,-21
87,-126,-2,422,1634,-409
113,80,-47,880,985,-300
-92,54,7,-142,81,-660
33,-8,-49,1933,1590,-225
-125,0,-75,2192,2842,97
89,25,-44,1135,1776,-835
-78,-87,76,3890,3800,2086
111,-95,-15,5749,3614,1851
69,-95,-32,3849,3236,1280
24,24,116,3501,3778,-492
7,115,-58,2212,3482,-1644
-21,-11,-31,1255,3588,-2461
-48,31,-24,671,3532,-3376
-79,63,-99,1463,3795,-2419
-3,121,-100,-256,2180,-3960
8,100,104,-1490,2206,-4171
-6,-66,13,-1359,3820,-3909
-78,-51,17,440,4080,-4605
-54,-110,75,-47,3258,-4759
-10,-14,11,-15,3935,-3555
-53,-126,-86,737,3353,-1170
110,102,55,653,2435,917
-73,-106,-13,3878,600,2021
-40,8,90,3017,-219,1311
77,103,-1,2707,-1970,-393
16,-117,-3,2327,-2625,-1951
-15,-9,-42,6387,-5881,-1433
-46,-63,78,10755,-5155,-304
85,82,81,6641,-5091,648
-57,-24,-97,1024,-6852,-983
-99,74,122,3059,-3248,-658
91,69,-106,4713,-1969,661
-47,111,7,3618,-2682,420
1,-88,113,2802,-3218,571
-42,42,-46,2777,-2356,76
-72,-68,67,3324,526,170
-81,116,55,892,1426,732
43,-51,1,3455,3235,2713
101,-39,49,2507,1030,2337
91,-73,64,2456,48,2267
80,-75,97,455,-305,944
118,-114,22,1308,697,829
107,120,39,385,672,-138
-82,104,4,-135,924,-494
-11,96,-48,22,1239,-686
40,104,-70,-179,996,-1023
-69,-65,-105,4262,3972,1607
-87,-53,28,6254,5856,1806
68,73,2,3688,6249,-353
-84,45,-59,3479,5443,-2140
106,-62,42,-121,3492,-3957
102,-23,-27,-1343,3659,-3662
-8,68,96,-51,2576,-2923
-57,115,83,-4903,-1320,-5593
74,-116,32,19,3148,-4882
-65,44,-85,-219,1888,-5824
-1,-24,-50,4594,1875,-1276
-71,-109,-105,4221,1551,-3188
106,-21,-124,-583,4070,-4403
102,58,90,-2806,6260,-1891
-31,-70,-62,-2683,3093,352
73,54,-86,-3153,2666,416
-84,-10,-36,-1095,174,-517
-111,113,72,8002,-3048,-1250
-93,108,43,12743,-4329,-612
120,99,-13,7052,-5790,-106
19,116,-44,5707,-6412,-1523
-86,-89,122,8060,-3059,1878
77,105,89,1074,-3987,207
-45,-17,-73,5003,-483,582
50,102,64,168,-3786,-13
18,-23,-48,2052,-3883,-138
-106,-119,-88,3219,-131,708
83,-65,123,1411,-1173,1179
69,-1,-85,3305,531,1271
-51,-28,28,1352,-447,883
-90,-39,-85,494,356,372
115,-105,87,-105,571,-251
-15,94,-58,909,2143,86
-55,125,-103,3821,2129,1769
-106,-102,47,-1563,-7,-117
-4,100,92,1055,1676,352
103,108,79,1350,2721,371
118,101,93,2625,2128,1151
44,40,-27,-201,68,285
121,33,-112,293,43,409
119,-46,-87,3205,2633,2112
110,-14,41,3183,3666,1877
109,34,-85,2947,4433,701
68,53,41,3670,5299,-600
33,-105,-101,1267,4707,-1635
-117,8,-14,603,3348,-2289
-93,76,-5,-1695,2997,-3958
-46,79,-101,-298,3977,-3413
-123,18,122,-475,3854,-3534
43,6,64,991,4285,-2959
101,69,41,1288,3844,-3036
45,95,95,-2756,1981,-4817
115,-45,35,-4311,2534,-3807
-70,48,102,3322,4816,-267
89,77,24,-672,3801,-729
64,81,6,-1312,3697,1449
-52,68,117,-1973,3726,2029
-62,86,-51,-4824,928,2262
-39,-29,-14,1416,-1119,4025
-9,51,110,8346,-2148,2571
-90,-4,-79,4803,-5042,-2448
-98,107,-35,9878,-4585,-620
-109,115,-52,8480,-7227,-1312
108,-119,40,8956,-5704,378
77,12,-113,5287,-8140,57
-109,108,127,-1150,-4207,-4298
-103,6,-104,10382,-1159,-185
-128,7,7,-108,-3592,-2125
67,-84,-76,2687,-705,-2304
-79,-33,-38,9648,3596,4646
-74,-120,121,5346,-1312,4988
-25,-82,-122,2787,-4274,1557
-57,82,114,5350,-2727,2229
93,95,-117,407,-685,1372
-39,98,-5,484,1708,383
-128,103,-76,-1711,1639,-1332
53,-54,-84,-2331,3525,-1898
-67,-109,-20,-698,3742,-757
-40,-95,-62,-133,2161,-1124
24,-65,-25,-894,830,-1806
-86,-26,-88,4304,3718,1856
111,25,98,3932,4074,1257
28,93,60,2621,3932,-1130
58,-90,120,2036,4235,-1907
28,-34,-110,1981,4317,-2706
-40,115,-78,-287,3780,-4002
-92,-121,113,-852,3674,-4257
90,-14,30,-863,4089,-4199
-52,12,3,288,4045,-4088
-97,-28,-1,-3473,3659,-4849
122,-118,-104,797,4940,-3146
123,42,-25,-2950,4797,-3437
113,26,-122,-1473,4189,103
27,0,-78,560,4016,3046
91,65,120,-772,1607,3208
122,-117,78,1842,-1615,1935
82,64,58,11102,-3843,1124
-82,21,103,8239,-6474,-422
-118,21,-126,6890,-7686,-578
-111,58,-17,7205,-7364,-1412
-95,-53,29,6928,-8586,-2007
109,-99,67,442,-7736,-3645
28,53,24,8358,3172,-289
88,-54,29,7161,-5004,904
126,123,-84,-690,-4518,-3054
-10,-112,83,4741,-786,68
-102,120,-44,-1738,-1124,-1363
-126,-14,4,5498,2866,1795
-104,33,-5,280,-227,657
117,42,47,1257,1267,1384
31,34,-35,-222,1171,964
55,105,-112,610,1759,1598
107,-88,104,-276,2201,1226
-56,-62,-57,908,3563,852
47,-20,-63,320,2973,13
98,-10,-15,-1084,1428,-625
90,111,100,231,1654,-1421
-76,109,-38,-1907,558,-1968
102,-88,-116,-1890,1421,-858
-124,-118,50,-437,1748,-136
-122,75,108,1052,3303,-3782
-52,-123,17,-421,3657,-3512
-43,-54,-89,110,5546,-1530
116,-48,116,1860,3980,1495
80,-90,96,803,837,65
-105,-37,60,8723,-4001,-1968
11,-16,-118,6833,-5380,-2856
-36,52,-100,2659,-6539,-3478
65,49,-93,9371,-4479,-1030
26,-57,-31,2641,-6316,-1517
-75,-41,11,1076,-4190,-2477
-65,-64,-69,7273,-472,1130
-7,38,-82,5155,-3307,-997
92,23,12,2576,-6318,-1061
5,-65,41,1960,-3803,-2204
89,-24,-29,3566,307,-105
-24,-54,-56,4847,869,878
-6,-72,-31,4135,-3,663
-124,-118,46,3573,-614,730
112,-26,59,658,76,-158
117,-37,-62,691,2079,481
86,-26,69,-2215,2420,-207
-117,78,33,-2762,2505,-48
-47,-123,-124,-1539,2740,3
-35,-110,51,298,2088,425
73,123,73,-1068,1438,-532
98,-113,38,-23,811,80
102,108,58,-332,244,-296
99,107,100,-270,-427,-150
75,110,101,-63,-427,17
75,109,-119,-130,-469,-36
62,125,-107,207,-298,350
65,126,-89,271,-49,458
39,-111,-76,-234,-37,319
61,-120,-102,270,497,49
79,-120,-97,68,598,-39
109,-101,-103,-117,561,-110
117,-101,-112,-327,401,-275
-116,-101,122,-357,443,-233
-95,-103,95,-104,404,-107
-63,75,97,2604,4508,228
-86,79,-15,2268,5319,-178
122,-50,108,1806,5806,-887
23,29,-68,1277,5067,-1817
-94,-86,-70,-254,3952,-3232
31,-39,113,435,3462,-3543
-35,48,50,-1589,3914,-4223
114,-110,-43,-918,3093,-4402
84,-80,56,-6238,1143,-7473
-3,-25,-113,4934,6464,26
-11,82,-63,-2142,3526,-3582
56,-46,88,-1533,4011,200
-58,107,-113,1513,4756,2755
97,-71,-127,-1609,2238,3057
-57,40,-17,-2549,-365,1585
-32,119,-100,8026,-3243,272
-7,-45,-77,5692,-5277,-2449
-105,1,33,5492,-6203,-3657
77,124,43,6775,-6568,-4902
-61,-34,-78,8142,-5666,-2908
69,-2,-88,4165,-5660,-1335
-55,59,-88,7100,1090,2372
98,42,10,2206,-4443,-890
48,1,79,-150,-7346,-2655
18,-101,17,948,-2259,-3365
69,118,54,1826,-744,-3232
97,-67,27,5479,881,-1509
-7,-105,-50,5858,-331,-152
-103,0,42,4477,31,-93
30,106,115,5075,801,758
-86,2,-121,1554,1227,106
93,-14,55,-1098,1423,94
-125,-73,18,-815,2926,669
-89,88,-112,-1009,3685,458
16,-62,36,-3149,3359,-328
117,7,89,-2042,2868,3
101,-19,52,-1369,1368,-807
-97,-15,79,-2528,1051,-1302
-65,-23,-40,-661,617,-322
103,-37,57,-1609,-380,-1209
-15,21,103,2998,4044,-381
-118,-122,-51,2423,3412,-1119
70,39,16,178,2928,-2457
47,76,-95,1722,4157,-2502
-87,-80,-93,40,3681,-3849
-67,-70,52,650,4074,-3501
102,92,61,1628,2205,-4076
3,64,79,-3081,2928,-5303
-58,26,97,3381,4151,-2992
-93,54,-82,-1263,3500,-3283
123,-72,-62,2628,4292,958
-84,101,-109,-1282,3036,1692
-68,-85,23,471,1,2351
62,83,56,5656,-3549,225
32,-21,20,8267,-5350,-1990
20,-114,-65,4358,-6119,-4043
-43,37,38,5756,-5871,-4856
76,-77,-110,7656,-4487,-2599
47,44,-116,3194,-6277,-2617
61,32,-80,3869,842,-512
80,74,-73,10098,-2620,640
-10,63,-3,2104,-7147,-1217
-43,29,-59,1249,-2592,-2531
30,-125,46,4082,-1187,-1118
-114,2,-123,4435,1610,680
9,-42,-38,2375,-841,216
-88,100,77,4013,524,1174
89,45,-117,1835,503,702
81,40,48,2731,2025,1319
23,73,35,1154,2174,550
49,105,-86,168,2474,33
127,120,-86,-2272,1585,-1106
69,-97,-4,-1211,2320,-733
-118,-87,10,-3374,1360,-1833
-42,-84,117,-1736,1771,-1199
-26,-59,-128,-1530,1053,-1001
-3,-33,86,-1727,943,-798
11,-55,32,-671,1078,-117
-36,-31,53,-453,431,-107
-37,-44,35,5,218,162
-47,-20,82,4388,2961,2161
-29,-109,-108,5726,3869,2699
98,24,119,5699,4817,2202
-22,108,35,3448,3852,-14
112,-39,85,4279,3723,-1129
31,-116,-46,1473,3074,-2948
61,-25,-82,-1061,2297,-4391
121,-24,99,383,2765,-4135
38,5,83,2753,3158,-3622
-3,33,-68,-1622,1094,-5159
4,31,78,252,2071,-4812
-34,-87,127,-432,2824,-5619
-47,97,81,1731,4444,-2901
40,-36,-85,-1617,4174,-2481
-11,-115,-10,331,4202,784
-56,124,-106,-36,2551,1511
-47,-83,22,1532,-400,2482
-49,-120,102,6492,-2024,955
126,-80,91,552,-4679,-4230
-103,-60,-21,7016,-4160,-3600
86,-102,60,8092,-5488,-3543
-3,31,-8,5300,-4393,-2687
-52,96,-115,3030,-3771,-2095
-55,48,-23,5914,-1752,-436
33,69,-123,6465,-3663,-212
34,-49,-55,1856,-6941,-1549
-18,-81,-77,2832,-2925,-2162
-6,122,-26,4550,-1173,-361
75,-80,44,1112,-737,-1079
103,-36,75,4505,596,715
-31,46,-79,-590,-1032,-726
14,21,126,5437,2806,1949
114,61,-49,3051,1815,1679
22,111,-67,1387,1126,1419
43,107,-111,689,1072,610
103,99,-126,-626,671,-335
-22,79,35,-599,1515,-212
27,99,-6,-1143,1461,-606
122,123,-77,-1554,1567,-860
-62,-120,108,-1743,1730,-810
-67,-5,30,5062,3222,2462
123,-27,-89,6202,3646,2920
-110,-88,-93,3762,4130,1627
94,-18,-122,7613,6647,1964
73,-31,-65,4360,4883,-488
12,95,39,804,3231,-3121
111,-34,-32,1059,3503,-3517
86,-9,-61,3,3455,-4727
70,-1,117,959,3983,-4373
-26,77,-64,-1608,1652,-5659
-98,-23,62,-3928,3494,-5820
-2,62,-98,4657,5328,-3863
-24,73,0,-527,3934,-4762
-88,102,-26,1828,4875,-1574
-119,-29,119,-1151,3623,1273
51,-66,-126,1,1177,2631
47,-60,34,3188,-1280,2678
55,36,-84,5956,-3784,-1862
0,79,102,3084,-4840,-4400
69,-57,107,7316,-4502,-4521
6,-73,90,8308,-5023,-2676
-5,-15,-66,7961,-4727,-2714
37,49,63,1046,-4188,-1987
-42,-122,-33,4483,1242,-1
5,116,-71,5273,-2858,887
-75,90,65,797,-4954,-1382
96,18,39,2835,-1670,-899
83,13,-33,2039,131,-402
-41,-113,93,888,-1698,49
-97,-95,38,6432,1583,2477
122,-68,126,1327,-2472,512
-25,29,9,625,-974,515
-9,23,-124,3483,1955,1616
124,71,-117,1194,1748,1012
119,82,74,449,1527,629
-96,90,-5,307,1585,190
-33,74,-39,-882,1021,-834
53,74,-97,-850,1017,-947
-127,51,-113,-1118,712,-1018
-69,60,85,-817,793,-743
-86,46,-116,3110,2659,1634
-95,13,-35,2787,3222,1474
-101,8,57,2412,4130,713
111,90,-114,2286,4436,896
5,-68,-27,3427,4631,-99
-115,74,-73,1325,3903,-2410
-74,89,-102,1631,5199,-2868
54,-107,-58,-641,4604,-3785
-103,-120,-120,-962,3943,-3716
81,-122,-126,-1520,1479,-3415
101,85,81,-4180,1069,-4959
-114,92,-81,2094,2633,-1970
61,3,50,1836,2994,-4106
62,109,-108,-254,2755,-4001
53,-117,46,-1520,4130,-2074
-69,-119,-59,3198,4460,1740
-34,-112,-11,-1019,3036,1743
-91,-81,32,3294,2667,5153
118,52,33,4558,1417,3836
91,121,120,-611,-1279,-200
-79,92,55,2992,-5189,-2132
12,-121,52,7913,-6990,-3757
84,-63,-126,7062,-8717,-4293
-7,4,40,5351,-7577,-2098
-44,114,86,3176,-5538,-1912
19,88,5,4693,-2741,707
114,15,-3,5483,4240,1375
89,-92,75,6103,-1342,1560
46,-104,24,-1673,-6988,-1049
16,29,-102,3369,-2382,-100
-3,46,-7,3990,-449,372
-1,-57,38,4374,254,1609
123,60,37,5085,175,2915
-86,26,93,1068,-236,1509
88,-13,-24,1952,1079,1191
69,-63,-64,494,1421,442
82,-102,80,-463,1279,-244
-109,120,-7,969,1593,-70
-68,116,1,-555,1107,-1087
34,83,-70,-39,1153,-1002
102,53,-127,4288,2288,579
86,22,26,2851,1706,931
114,-32,74,2524,2984,738
-122,-64,114,2896,3236,493
67,-15,-39,3438,3231,414
0,-1,-111,574,3596,-1121
-39,86,107,2806,4260,-962
-99,-53,-22,223,3238,-2634
-96,86,-92,208,3886,-1775
-9,84,-103,-2070,3171,-2578
68,86,-12,118,3381,-1789
-20,66,29,-2451,2601,-5085
68,-128,107,-8201,1317,-6091
-54,-37,-102,7474,4018,1699
-36,107,96,5814,1716,-1774
-9,54,-59,-1333,1795,-4480
-19,82,-64,4136,4194,-1762
-31,-23,84,-2945,3192,-2640
62,-83,-50,-4946,1947,-605
33,-87,121,-2750,2228,1690
25,-65,41,4965,1086,6108
19,44,115,1270,-2098,1819
113,-87,84,9620,-2838,-348
100,6,47,6912,-4891,-4002
116,53,-34,3275,-5872,-5946
24,49,-97,6038,-7430,-7177
42,79,-10,9403,-3756,-1281
-44,-68,-38,4946,-3698,-299
32,-42,5,320,-1050,-2103
-65,-1,-91,4261,-668,-325
46,-31,-50,717,-2605,-199
99,124,36,5240,-2219,843
80,-1,11,1482,-5092,-590
-41,65,-23,2370,-2633,-160
-45,29,110,2371,-2506,-529
-61,-23,97,3974,-1537,27
-55,102,-92,1668,193,847
45,-124,31,3807,681,1187
10,104,-62,1729,1618,1793
-113,-68,87,1999,2006,2098
101,-118,-27,6195,4324,3514
79,-67,114,9046,6665,4205
43,13,-95,5282,5046,945
-48,-76,16,1181,4060,-2404
-41,121,-29,1507,4448,-3492
-57,62,-56,-887,3760,-4874
-81,-117,92,882,4938,-4663
54,-41,-42,-1109,1678,-6616
-126,-103,-96,1605,4466,-5691
85,-100,-109,740,4441,-5358
76,18,126,-11,6448,-3700
22,-96,56,-3257,5417,-1254
-62,-9,-15,-6210,3076,1852
-26,9,-30,6161,1192,6911
85,-1,-46,2254,-3374,278
56,-104,87,8285,-3827,-378
-126,65,-123,4248,-6402,-3594
32,86,79,5598,-8023,-5676
55,-7,119,9674,-5143,-1406
92,-85,21,6526,-5640,-328
47,88,91,-2741,-3140,-2780
93,53,18,12831,1261,1283
-37,-26,37,-968,-5771,-342
-12,-107,-81,-155,-2899,-2248
83,114,90,7516,-271,784
-17,71,41,406,-676,360
43,-18,112,3297,145,691
36,105,-49,2838,2203,1899
105,11,114,4236,2501,2401
-13,-61,-36,-977,-484,352
49,-123,23,1848,531,863
84,118,64,527,662,-57
-105,112,49,-147,775,-361
-34,99,-11,-702,1064,-838
64,84,-86,-613,1480,-668
106,89,123,-2081,1047,-1143
-35,-92,34,-2757,706,-926
-72,-81,-52,1208,801,267
104,-90,95,23,-499,-381
-116,-100,89,782,418,-147
-30,-44,-72,3953,3764,2788
-79,-48,46,3289,3945,2539
57,-31,-91,795,2631,1531
39,-56,-54,-1059,1057,994
50,-24,-90,1328,2025,1647
3,70,39,2279,4195,674
105,-123,-106,1441,3247,-784
41,-73,-75,-139,2743,-1965
91,15,-30,-2059,2522,-2587
-69,72,-47,254,3857,-3060
-97,62,11,1016,4419,-3629
114,108,-18,2067,5060,-3446
91,-68,63,-2620,4191,-6590
-93,65,-7,-2262,6149,-3804
6,78,-96,-882,5222,-1148
-101,-121,-9,-1111,4530,1926
-8,-73,46,979,2974,5527
-99,51,47,1279,-831,5435
-38,1,-61,3392,-2015,5259
67,-104,45,4946,-1300,-87
76,93,-59,-439,-4187,-5958
91,-21,13,8902,-5180,-3050
38,-30,82,8080,-7444,-3651
62,72,25,7806,-7768,-4329
-72,25,-39,2452,-6520,-2736
-111,-34,-20,493,-1578,578
90,22,55,11586,2521,2458
37,8,113,3336,-9215,2138
-26,-119,126,-4894,-4380,-3863
93,-128,124,10317,-291,2716
107,124,119,-559,-703,-1067
98,63,-18,553,2900,-193
-67,-98,110,2718,1414,1156
-105,95,-83,-138,-333,473
-50,60,16,4080,1585,1755
-114,118,109,175,900,1109
111,-89,25,159,673,942
125,-85,-1,138,231,142
-80,-101,-44,263,615,-299
-11,-123,-88,147,927,-602
-124,-75,127,2808,3841,608
87,-40,13,2528,3748,-165
124,22,78,2255,3845,-534
-6,33,-111,1382,3469,-697
-117,-42,-68,-62,2938,-1990
-60,90,-98,-1413,3087,-3292
118,-118,-12,1446,4092,-2644
42,-33,33,-743,3650,-5044
-74,-57,11,-3312,3241,-4849
-125,-124,-128,3406,4629,-1613
-12,31,-62,-762,2272,-1863
75,-62,71,5132,3358,390
99,-88,-42,1732,5086,1022
-24,42,-90,-2345,3170,1625
-76,-15,-115,-1096,782,3799
126,-33,-70,6146,-1172,3772
70,-91,-114,3755,-3757,-2840
-78,-40,-88,7024,-5841,-3241
-25,-93,-99,8775,-8583,-3792
-37,-12,-3,7899,-5790,-1247
-116,71,-109,3537,-8009,-1609
-35,84,-86,-2262,-4309,-3382
-113,-91,-39,9401,471,1060
-55,14,114,2363,-3747,-1065
11,35,-76,-133,-4386,-2872
-37,0,78,4288,-1734,-1579
30,121,27,2227,-1297,-74
20,-52,46,5548,1291,1433
-28,-7,15,1816,-2248,-386
32,37,-78,2865,-501,528
-46,62,-109,4074,1165,2246
25,-121,-85,2525,1064,1596
-76,-86,112,683,1082,543
-22,124,59,-1291,1016,-466
-86,80,63,-465,2778,-59
-84,120,47,-2763,1841,-1401
40,90,-113,-1359,2146,-547
13,-67,-79,504,1600,-162
84,-83,-79,-706,2167,-1462
-105,-86,-113,-49,1949,-1360
100,-93,-75,2690,2183,2316
18,-30,46,16,1006,1397
17,-53,-18,409,916,959
25,-55,-35,868,912,1204
7,-63,-12,345,577,878
-2,-86,-14,560,657,955
-17,-96,6,577,498,721
4,-120,4,1019,943,688
-32,-102,46,897,655,924
-38,-116,74,578,372,291
-27,122,72,883,614,571
-28,115,93,903,736,610
-27,115,88,1171,948,635
-26,123,99,927,939,591
-26,118,109,1288,1010,736
-40,-119,121,1336,1203,479
-43,-128,-102,1742,1395,546
-54,-128,-62,2715,2235,658
-109,-49,-7,2372,2358,650
67,66,19,1863,2312,-638
73,-112,2,2053,2325,-1495
60,-54,18,1272,1567,-2041
88,51,-29,395,880,-2599
120,119,-62,-810,51,-3489
95,-93,46,1936,1058,-3234
122,51,-124,-474,-357,-4472
-38,90,55,5687,1832,-2688
-68,-98,66,1712,-373,-3950
-56,89,-7,2468,1432,-3584
88,53,31,2452,2026,-1810
-32,-47,11,1371,3448,-2247
-60,-23,-93,3698,3272,-43
-17,114,-106,695,1915,-1445
87,-86,101,-35,-116,-582
-119,-75,6,2260,-3016,-2128
-58,37,-108,8950,-4210,-1227
113,102,-70,4406,-6641,-3277
-14,-32,61,9028,-6456,-869
62,46,-27,10210,-6845,99
-13,-103,112,-431,-7989,-2041
-11,-103,-75,3182,4000,5323
11,42,-90,7186,4593,4193
3,-33,86,4254,4508,2238
-16,44,85,2879,5475,-79
90,27,-12,1919,4707,-2374
71,81,21,90,3205,-2938
69,-35,59,-2440,3856,-4282
-42,106,-84,1532,5843,-4219
-87,97,-5,-421,3335,-5857
17,31,-81,930,5113,-4711
-65,102,23,3327,5722,-2587
9,51,26,4665,6051,-4173
-22,118,79,-5181,3753,-3497
-37,-99,39,-960,4076,2835
4,9,119,1227,1512,4335
2,-44,-76,854,-2558,2983
92,51,68,7289,-5226,399
125,-25,-25,8144,-7246,-1490
-45,-54,79,5538,-8722,-1739
-32,127,-83,5695,-6875,-1771
91,-58,-79,933,-6306,-3060
96,-10,119,4202,-1206,-20
57,-77,-49,7083,-2169,-204
33,50,-128,653,-4444,-820
96,50,125,2937,-2835,-228
41,-75,-41,3032,-2327,-638
100,81,4,3094,2270,1024
-62,63,90,5280,-1003,2710
-41,121,90,-4637,-1394,-834
-51,-79,15,4945,1495,1561
106,107,-20,-1092,-854,223
-54,111,28,3311,1757,1578
-109,120,69,1658,1593,633
-107,-108,55,286,1235,104
-43,103,-14,658,1658,-213
38,117,-11,-865,1162,-1067
81,-92,13,-3770,-185,-1997
-26,114,80,-409,1360,-849
-6,92,95,223,1856,-383
-15,104,85,282,1550,-188
49,22,79,4802,3987,2618
-41,-13,46,5683,3856,2389
-83,-26,29,3107,4369,1478
110,-125,-106,1649,5468,90
0,96,-54,2308,6579,-1387
127,75,32,-2251,4837,-4413
-111,107,-64,-1622,3957,-4298
126,123,-62,54,3061,-5206
-85,126,-84,282,4324,-4584
96,57,12,-1108,3788,-6197
-121,122,33,-966,5136,-5843
-115,-82,62,-2218,6141,-3810
70,-3,112,-7838,4367,-1031
-8,-78,-119,-2890,2785,2148
112,66,-51,1652,173,4107
-50,-96,56,4531,-2367,1583
92,46,114,8243,-4220,-369
99,-95,93,5151,-5384,-1951
-92,-13,114,9799,-5599,-376
-14,65,80,3269,-5556,-1122
-60,-16,11,3646,-6577,-3003
-36,-125,-110,4429,-4274,-2162
-64,66,-117,6335,-2642,-1177
-67,-63,108,5638,-4177,573
-66,76,-50,1011,-1719,-904
49,-4,59,4836,-352,-106
100,-64,124,-2670,-2,-827
-111,-106,59,7649,1559,2765
36,-68,38,-877,-723,1204
41,-48,-70,1472,1914,2466
-31,-68,-67,5440,2124,3026
-125,-75,53,2354,436,2075
-104,-110,66,819,449,1019
-86,73,22,1007,732,695
-82,68,-6,409,839,339
-23,91,-23,-208,475,-238
9,78,-46,188,371,-618
64,79,-35,-479,412,-984
-119,94,-63,-815,364,-1300
-97,88,-108,-330,372,-1245
-59,-18,38,7340,3315,3048
117,-32,-65,3174,3435,1027
-76,10,-97,1486,4908,-221
110,122,-27,3377,4593,-114
64,-66,-58,877,3323,-1797
72,26,-80,599,4164,-2423
122,117,-112,1326,4709,-2239
-40,-56,-76,-2214,2944,-4947
97,32,-111,-3450,2721,-4717
-41,-128,0,2024,5487,-2510
-75,-85,-114,3922,3037,-3111
76,96,-39,-561,1958,-6118
-51,-75,37,474,3504,-4138
-84,-80,-55,2287,4724,-1082
92,-98,117,-906,4360,-92
-42,0,-57,-281,1634,3068
-118,-46,-10,1868,-2036,398
-96,20,30,4408,-3420,-1299
-45,-63,83,3002,-7371,-2398
122,58,11,9031,-6005,-2646
-3,98,28,5467,-6684,-2267
47,58,-41,1854,-6722,-3895
71,98,101,2839,-2356,-2513
103,-9,-27,7182,1388,1465
-18,62,52,7859,-4393,982
47,-77,-24,-3519,-7810,-3073
34,-119,96,3113,-2299,-2394
-116,-109,120,4299,1455,1213
-74,100,95,4356,-776,1843
-90,-76,-44,-1348,-3322,-276
-35,101,-104,5647,1454,1926
103,-115,10,3170,1341,1269
-25,-43,-19,1594,1165,916
5,-89,-57,-49,1005,-387
90,-111,-107,-1435,1257,-1077
13,97,-50,-981,2683,-915
123,63,116,-1563,2909,-1017
-46,91,25,-1405,1596,292
-110,126,13,-611,82,447
-81,-93,49,1073,687,-402
-59,-2,-114,4970,3230,2901
-43,5,46,4519,5024,2522
122,12,3,5021,5981,1184
5,-46,-32,3971,6307,-759
-37,14,127,152,5141,-2334
-89,-96,35,38,5100,-2663
34,-21,0,-1402,3619,-3524
21,14,124,-1013,4408,-3583
-24,1,75,-310,2871,-4762
106,-48,74,-2756,2922,-4709
83,48,4,3062,4580,-3035
76,-5,-98,1030,3957,-3315
-9,-127,59,1753,3765,-2013
114,59,-30,2876,3750,290
40,113,-27,-3547,3209,2018
-82,124,-123,-3586,-945,2160
-23,-29,-28,9246,-1662,-522
13,-39,105,5043,-6299,-4341
17,55,61,9229,-6471,-4608
-57,-112,-74,11817,-6587,-1999
-32,37,-27,4105,-7300,-1434
55,64,1,-1255,-3729,-2765
114,-40,34,6937,2027,-582
19,88,75,2514,-2064,-976
-28,111,89,2068,-3406,-889
73,11,14,3139,-1901,-1062
113,-64,100,2310,-680,820
-78,-121,92,5127,-373,1619
115,65,-18,1833,2161,2018
-44,-53,56,4855,3328,2879
60,-67,-86,-265,591,940
105,-106,33,835,782,1211
118,121,8,179,725,540
-114,107,-50,299,697,314
-68,108,-37,-134,495,-180
-11,63,-101,-158,627,-390
60,50,-116,-10,384,-357
102,71,-89,-546,43,-534
-88,66,-119,2,851,-361
-57,55,102,-166,916,-351
59,44,-93,4687,2284,1235
67,73,52,3544,2324,1315
107,88,93,1270,2266,843
46,30,6,14,1661,640
-14,7,-9,-844,-360,173
30,-24,-29,-3173,-1212,-763
-72,-25,81,43,207,356
-32,-27,-72,1073,1454,517
-57,-3,-67,3406,2821,1394
-118,32,105,1256,2350,926
-19,4,-103,-202,-75,683
-46,2,-126,-2803,-1398,-50
77,-24,11,-706,25,-694
-92,-41,-68,3393,2519,356
49,44,-90,2342,1352,-127
79,-22,-49,-126,57,-862
-91,-39,-96,383,775,52
-94,-51,-105,-607,977,120
-118,-84,104,376,1589,434
103,-82,99,2984,2991,1213
-12,107,-48,4209,4934,700
94,15,67,2738,3803,-1053
-43,-55,-101,1804,1461,-2363
17,58,5,-3748,-280,-4639
-104,-19,80,-2639,1987,-5027
104,-54,80,-170,2649,-4388
-126,81,-43,-813,2211,-3868
15,-49,-89,816,1353,-3751
9,-14,-96,332,2062,-4136
-48,-10,-18,1565,2864,-3580
-52,99,-14,1499,3679,-3434
-70,41,33,154,3306,-2571
-97,-99,71,-1995,2280,-1795
125,-46,-30,-8596,238,-798
38,99,99,8947,1715,6095
94,10,-45,-757,-1214,-108
21,27,-37,2301,-1989,-507
-37,-103,25,2027,-2794,-4762
24,25,-78,2869,-2787,-7095
-59,-40,24,12453,-1796,-3162
-113,68,-27,12197,-3683,-2477
-2,83,-52,1997,-6506,-2234
-35,64,-25,2071,-2342,-2014
34,103,119,8128,482,636
-23,54,-60,-776,-3833,-2340
107,-12,93,5112,-2154,363
89,84,-110,3369,-477,158
5,88,-91,1931,311,1190
113,-111,-53,3319,1782,2263
-122,-81,-60,2654,605,2047
111,-93,117,4093,906,2502
9,-69,-21,318,-634,1327
49,-76,-128,1844,416,1400
50,-57,-92,510,513,277
43,-102,123,-362,858,-709
-92,118,25,-452,1633,-921
-3,122,-15,-959,1469,-1335
52,79,-88,-502,1096,-1223
76,43,-106,-864,85,-1140
110,60,-120,-1605,-268,-948
-107,89,87,-689,73,-338
110,-120,105,-510,-26,-398
97,-86,121,-991,-196,-646
110,-70,103,-732,-129,-456
124,-66,81,-253,41,-168
124,-70,78,277,29,91
112,-67,110,-51,-312,135
115,-75,103,285,-181,257
103,-66,125,22,-498,155
118,-78,-125,229,-410,362
118,-84,-118,220,-238,469
108,-83,-119,274,-119,568
98,-73,-109,-112,-228,485
119,-57,-120,84,5,524
127,-39,-127,19,244,349
-124,-31,-128,-109,154,101
-103,-53,-125,-26,237,41
-86,-68,121,-187,597,43
-53,-74,87,253,838,209
-38,-58,80,332,479,179
52,75,28,-809,5868,337
126,-68,3,16357,9044,13388
34,84,-113,12018,3175,-1987
78,-107,-109,-12767,10842,-6681
37,35,-22,11325,5335,-4013
29,-54,24,-25776,3185,-15377
43,3,-101,20737,4132,466
15,-75,22,-15511,5073,-11603
-103,-95,74,2636,7421,2152
38,-67,-32,7039,1366,-185
22,-25,-52,1996,-3279,-5319
-24,80,-36,7628,-6526,-4847
122,65,91,9284,-5701,-5338
116,-28,105,-674,-7616,-6638
-41,-29,44,-876,393,-6286
-25,25,108,12945,5282,2339
96,-106,90,9817,-3771,150
-128,-45,41,-2720,-8178,-3218
-33,-93,-101,5583,-1207,-682
-67,-41,125,1545,2511,-654
-82,66,-54,10798,5025,2455
44,67,19,11008,1277,5196
-92,3,-86,-5256,-3954,-625
118,0,111,-1309,-654,-599
14,109,-35,-2461,3707,-405
58,-18,53,-7126,3921,-1845
41,-85,47,-4420,3925,-532
57,83,-64,3656,4860,798
-36,16,-104,-805,1092,-1659
123,93,107,-2128,819,-1507
113,37,28,-232,1010,-640
35,-22,29,222,922,-660
58,-24,73,-40,173,-605
32,-44,53,100,-368,-321
-50,-111,44,608,-1345,-149
-62,-102,104,-13,-2458,200
-12,-52,-115,-506,-2702,812
48,6,-126,1274,-1675,1837
-52,-12,-74,2246,-967,1875
92,-48,-58,1195,-261,828
-74,-100,-110,4421,5712,2359
-123,3,-52,6279,8122,2940
-63,-119,-126,10328,8558,-1943
-18,122,106,-6105,6243,-9244
104,-28,-106,-4351,2281,-4892
-18,-66,79,-1980,1805,-6589
-127,-30,-82,3268,3172,-4725
-19,-32,-5,-3786,3241,-7432
-14,126,110,369,5674,-3369
19,-19,-20,664,5355,-836
78,-118,107,2289,2765,1215
36,82,62,6389,-5042,2275
-38,-19,-98,4056,-4594,-2182
-7,4,-113,6160,-5771,-1277
-118,104,91,6061,-5860,-1972
-103,-71,23,1659,-5163,-2609
77,-9,-109,4639,-1073,-757
-56,-41,-94,6840,-2163,1101
-21,-67,-28,1409,-3744,-848
28,-120,-83,1728,-1917,-735
5,-93,111,4841,-678,97
89,94,-84,2197,592,477
12,80,-30,5331,-486,2707
103,-75,-116,3763,785,2563
-98,-9,-52,3744,190,2463
52,-58,52,-2175,-1320,154
-102,113,21,1553,1802,988
122,-125,44,214,1595,41
-107,-109,-1,-22,1130,-168
-28,109,-36,-223,945,-605
24,103,-41,-789,1107,-1113
107,110,-73,-1141,1089,-1326
-73,126,-124,-1641,895,-1388
-56,-102,98,-728,668,-953
-33,-85,109,-1230,327,-1005
-4,-54,74,-300,557,-716
-5,-56,87,-414,465,-803
16,-66,68,-34,598,-543
6,-77,85,-329,150,-429
16,-99,49,321,200,120
-23,48,94,2817,2432,1901
-48,-15,-37,1691,2115,2267
-69,41,88,6737,6057,3533
-68,23,47,5716,8000,-294
3,-127,-109,-2247,6058,-4804
102,-89,-16,-2929,5289,-3333
-23,-23,113,-1785,5299,-4749
-80,-75,44,-1018,3178,-6081
-115,-66,-94,494,6443,-5141
50,118,24,1372,5168,-4523
65,59,95,-3544,6204,-3431
84,4,-78,1321,4275,3706
109,93,92,9928,-3554,2193
-31,19,127,8558,-5521,-1435
63,-34,104,349,-7051,-1491
-22,-82,-80,6250,-4655,-1796
-48,16,40,7352,-4990,-1873
-80,-49,24,-1507,-5517,-3240
108,8,42,9467,-1033,577
12,72,111,7670,-3849,3259
109,40,-53,-3715,-4748,-2608
-93,-17,118,5399,-2302,567
42,18,-76,3903,-1283,-89
18,-55,52,3978,1525,1719
12,-3,-45,5065,1515,2546
122,-86,-24,1263,693,871
-119,-106,108,3808,1795,1750
70,-114,-82,278,908,416
122,88,67,685,1501,17
-67,76,38,-96,1445,-614
-1,71,-6,-897,1233,-1011
89,61,-67,-716,1166,-1144
-111,86,-89,-1271,732,-1420
-61,108,-102,-1251,286,-1445
-13,88,106,-628,579,-975
14,105,108,-783,778,-703
49,-103,105,-802,601,-610
14,-93,69,-71,474,-383
-5,-99,68,-342,245,-311
3,-90,62,-49,-68,43
-27,22,-54,3062,3439,1071
-12,4,124,3840,5034,1022
-99,100,64,3398,6236,393
28,112,121,-658,7006,-1704
-53,64,95,-2678,4927,-2171
86,59,-58,981,5621,-1366
-62,-37,37,80,4668,-2846
-59,48,4,-2551,3735,-4386
-38,-15,-123,442,4702,-2928
-102,50,-79,805,4284,-2960
-52,113,70,-1625,5604,-2707
75,1,96,3907,5349,1577
-104,0,106,1124,1607,1466
0,47,-111,5396,-1803,516
-26,93,25,10635,-5195,-1505
38,11,116,2560,-6476,-2870
32,-95,89,6422,-6612,-1629
-31,25,91,7827,-6542,-2327
-10,83,81,2369,-5090,-1993
-117,-106,90,4622,1229,826
-8,11,77,10411,-4152,2216
54,58,-22,-3444,-6039,-2270
-50,-36,-108,3818,-1829,-283
40,-103,79,5741,-2797,1197
-43,-27,-28,-2041,-607,-1134
39,-43,-122,5003,-47,1103
4,13,83,-327,1475,512
-103,122,49,5256,3798,2305
-28,-98,-72,-699,792,587
45,-102,49,469,916,861
99,127,33,79,1119,23
-71,-93,-2,-501,1337,-471
1,-70,-36,-1163,1324,-952
98,-47,-64,-1842,1180,-1267
-88,-25,112,-919,1383,-1023
-82,-33,115,-1366,759,-1197
-64,-33,90,-854,731,-935
-34,-34,68,-860,686,-675
-45,-44,57,-269,486,-468
-45,-44,62,-440,129,-227
-104,41,72,3369,3640,1296
-122,68,34,1705,4562,-81
126,112,-69,1873,5568,376
-10,-76,122,381,5451,-1088
121,71,53,988,5483,-1564
-30,30,14,-192,4206,-3776
-18,75,-76,500,4086,-4484
32,89,-70,-757,3839,-4296
56,2,-26,-2467,3734,-3192
-16,-26,105,2179,6464,-2194
-3,125,-93,2890,5358,-1483
82,4,40,-3535,3352,-1111
78,8,40,3700,399,2717
62,-114,-124,4479,-2047,1011
-25,-56,69,6096,-5097,-1610
-38,13,-91,4866,-8028,-3026
119,101,64,8158,-6097,-1856
-72,-3,-100,5234,-4002,-2155
-56,-61,-61,1404,-3820,-3587
-96,-49,-12,5740,633,-715
-74,45,91,7098,-3181,460
11,-4,-115,-770,-4083,-597
48,36,100,7513,-916,3313
-75,120,-27,1741,-2875,1411
-49,112,-127,3363,-1708,1877
44,31,-103,3393,-1804,1972
24,-49,65,-147,207,1078
-67,-97,121,4999,2024,2595
7,2,-113,2020,1691,2020
-6,-21,94,-832,1000,638
60,-46,-47,663,1329,638
-103,-49,-38,715,1567,-128
-17,-74,-74,985,1976,-685
62,-120,-81,324,1431,-1319
105,-128,-75,-757,266,-1661
-124,115,-93,-1222,-284,-1860
-70,110,-127,-1002,-174,-1585
-51,118,-120,-1018,-83,-1125
-40,-123,106,-824,155,-788
-50,-91,98,-161,59,-419
-62,-43,0,3280,3167,1074
-73,-75,100,3776,4161,1098
104,-11,25,3104,3944,384
73,48,-82,1576,3860,-533
43,-24,16,1386,5044,-1245
-25,86,68,-412,4409,-2645
121,107,-10,87,4532,-2943
34,107,-92,-1137,4075,-3435
-16,84,90,-270,3693,-3330
88,-77,40,514,2800,-4041
116,127,124,-7482,1107,-7477
71,21,-96,2296,5401,-709
80,-40,68,3585,4651,-804
84,-114,81,-3039,3556,-2148
96,48,88,-723,3462,1280
-93,-82,-120,3861,2105,4050
50,-18,46,1956,-1679,631
18,9,-86,5970,-3200,231
124,-84,124,2758,-3890,-1328
60,-22,87,3730,-4608,-1268
-67,115,12,6414,-4072,-470
-66,-122,-116,5310,-4205,-1939
-100,104,80,3836,-5438,-2006
113,-2,91,5087,-5842,-2391
-73,-121,9,4012,-5408,-1023
-6,80,62,2198,-1823,-1235
-59,5,122,4813,-1376,-279
63,-48,-61,3812,-1651,152
3,118,-1,1217,-884,595
116,113,70,3332,475,1696
-99,-128,75,-780,2,662
-110,-116,-98,1014,886,668
-105,124,92,356,837,859
125,124,18,1901,1156,1321
105,107,15,1206,999,1059
-112,-123,-23,1780,1485,958
-48,116,-25,1982,2056,406
8,101,-41,985,2144,-575
74,83,-25,-552,863,-1397
-104,46,-73,-1780,68,-1471
12,-80,102,4418,4012,2811
-22,-64,-70,9147,6083,3469
47,85,114,5446,6281,469
-21,-78,-32,1405,5045,-1121
-110,-62,-51,2069,4145,-997
86,-122,23,-1669,3305,-2931
47,-122,-95,48,4474,-3060
-30,-17,-122,1497,3931,-2910
-70,13,113,61,1698,-4676
5,-57,74,723,2029,-5228
66,-81,57,2585,3571,-3816
-69,93,110,2409,4355,-3419
102,-3,125,-1525,3140,-2054
82,-20,98,4050,3912,2283
-52,126,-84,5253,1100,1286
-123,63,-6,61,-2021,-1565
78,-84,-2,5195,-5190,-472
-82,-26,-120,2766,-6736,-2276
-61,85,75,7544,-7147,-2704
-29,-106,-56,10319,-3688,304
124,125,100,3251,-7980,666
-56,-58,-51,-2580,-2991,-2794
55,44,-110,5638,-959,144
30,73,25,2544,-2155,-200
13,49,-9,2856,-1962,-387
34,-25,70,2453,-1572,580
59,-107,-28,4869,682,2014
39,-51,24,3275,3383,3690
47,-81,120,9056,4478,6523
12,-49,-34,2226,-328,3599
29,48,-72,-8535,-3658,-1231
-82,-23,116,2675,719,1768
-102,-55,-70,2392,2056,1215
-115,-12,-64,1038,1757,-406
-42,-54,-77,15,1011,-1169
36,-85,-109,-181,647,-1416
90,122,-117,-326,-92,-1804
-106,106,-97,-393,-220,-1599
-59,94,-85,-235,23,-1449
-14,75,-96,-2,373,-1166
28,-16,-71,3513,2540,1845
30,-12,19,4858,3927,1800
109,7,123,7283,2762,1186
6,53,-116,-2564,2030,-2941
-38,-26,-67,2663,6755,-2377
71,-120,-105,329,7052,-3408
66,26,-56,-848,5642,-3916
-44,84,-86,-2989,3656,-5028
-72,79,103,-2684,4280,-5710
-39,81,-111,-6129,4306,-6638
-38,126,41,651,7331,-2477
-124,-76,97,-2108,4837,-2225
-66,69,123,-1510,4293,1199
98,86,-4,-1711,1410,3147
122,-108,-114,6828,-1570,4557
-33,5,92,5742,-4112,-551
28,125,-17,2369,-4454,-2738
105,-12,-80,7397,-6231,-3186
-113,-100,101,10554,-5362,-1620
-118,-41,63,4745,-7045,-3090
-107,-50,-68,-555,-4729,-4177
86,-19,-98,7895,-799,-123
-4,14,113,3052,-2551,-65
-119,-49,-92,1457,-3189,-1407
100,-122,-10,5041,-1051,-320
60,20,-92,505,-1985,-416
-118,-35,-74,3315,-959,556
115,91,18,2373,-1231,492
39,127,-128,5098,1309,2461
-118,116,11,1632,1,777
-113,118,-23,1400,399,998
-96,71,-90,245,1028,336
-82,56,111,-1,1340,69
-38,28,27,-866,1574,-152
58,38,-104,-1379,1633,128
87,107,125,-417,1237,271
-127,126,103,-42,1408,-32
124,121,104,-29,1180,-445
-101,-128,121,-680,781,-673
-70,107,86,-95,734,-475
-18,-43,68,2754,2797,1620
8,-58,-108,5853,4689,2790
82,71,-76,5547,7073,1923
41,-97,-15,3705,6623,-1596
52,-81,81,2853,6226,-1851
-87,26,41,1366,4326,-3494
-83,-87,0,-51,4093,-4181
43,-118,49,-1619,3444,-3921
46,36,3,-3927,3907,-8228
96,46,48,3912,8085,-3983
26,-75,21,-4826,4815,-3218
107,-118,-95,4684,5024,3179
62,114,33,1021,3182,2177
-118,-13,-108,-2097,391,3656
-38,42,96,-2183,-885,2237
-90,119,107,1524,-3822,-100
41,61,-112,6612,-5937,-1141
-43,-99,-100,12132,-8113,178
-78,101,86,3806,-10628,-2780
-52,-4,113,8262,-3503,-4195
-89,48,27,2801,-8434,2034
-13,-14,23,-4734,-15,-2503
64,107,-16,11020,628,3142
-68,-16,32,-936,-5836,301
-68,-36,-88,-1670,-3635,-2279
107,127,-114,6300,-979,3596
99,-46,40,3060,-4932,87
-80,-102,-17,-151,368,667
-103,16,-72,7132,1734,6274
106,1,-97,-1822,-2230,-1180
-13,-43,82,562,1519,1597
92,19,5,-2905,-658,-1694
-63,-110,39,-1815,-1066,-1096
9,-111,13,4297,601,1677
58,70,-57,751,-11,43
89,79,-94,2414,967,530
34,65,25,-1823,-757,-914
119,40,-119,909,467,319
97,84,-45,-586,33,-104
115,102,-117,42,580,4
-68,-49,-16,1845,5124,-1106
-88,-6,-121,655,4521,-2022
114,72,-23,-18,5791,-3493
-31,73,-1,-5778,6397,-5472
-113,40,-22,-3228,5467,-1402
1,-59,23,415,4986,-3632
-54,122,105,-5749,3509,-6889
51,-36,52,-5071,5525,-3793
-120,-93,-82,-4004,4913,-721
88,-100,-40,-3304,4081,1714
26,-19,29,-91,1464,4480
74,7,64,3821,-826,3823
-113,-103,73,3253,-2438,-157
-123,93,-108,4899,-5661,-3317
92,-127,85,13047,-6408,-663
-20,-121,-21,8529,-6751,687
24,-41,-60,2371,-5755,802
-23,-97,-79,-1646,-4425,-2823
-30,-31,-51,4905,109,-183
39,-24,-118,7077,-4337,859
15,-106,55,827,-5810,-812
121,89,4,4551,-1845,311
58,126,114,3120,-1630,634
-80,-111,115,1296,-2052,-154
-87,-2,12,2806,-500,381
39,-63,35,2082,-560,773
-2,-125,-53,680,413,610
-67,101,105,1877,1061,678
-43,86,85,797,1173,1168
-70,85,7,771,1538,777
-66,79,-32,565,1243,745
-36,102,-39,-354,583,307
4,91,-72,-206,477,98
41,70,-112,-58,783,182
76,99,-126,-755,657,-20
111,111,92,129,822,75
125,-124,122,-636,315,-401
-81,121,82,-71,375,-178
-74,111,88,-92,316,-193
-64,116,90,-192,95,-108
-73,29,101,3584,2429,1056
-116,51,16,3213,2700,601
-127,85,-121,2662,2939,-256
127,85,-32,2683,4109,-710
21,-106,118,2359,4403,-960
-49,-4,-67,-354,4188,-2388
109,-93,-72,1176,4855,-2750
-108,-49,-55,-2844,5239,-4420
25,9,93,2775,5279,-2567
85,73,-40,-3637,1946,-6253
-104,-15,-34,1667,3940,-3875
55,-63,98,-1669,2812,-4533
50,53,-36,1325,5168,-1784
-46,32,-49,2259,4007,-820
74,-78,-55,-2444,2870,-1229
84,-75,41,2308,1003,2645
43,5,108,1343,-1185,1538
26,29,109,4734,-2949,-237
-4,-115,40,4552,-5768,-2352
57,13,-120,3452,-6802,-2886
27,-91,-16,8681,-6521,-2502
-87,-78,-81,9468,-5475,-358
-93,84,17,601,-5484,-1136
32,-26,47,4494,254,786
6,31,-12,9890,-3364,3533
-34,109,-63,-3403,-5020,-2220
61,-113,23,5389,-739,1323
-23,77,-68,-1066,-1861,-955
-87,26,-11,6231,-215,2078
-105,-60,20,83,778,1626
-40,25,12,4944,1827,2869
97,-46,-36,-1234,-1347,617
-64,-76,-8,3973,692,2579
94,-60,107,1215,220,1600
64,-45,55,681,581,722
122,-51,50,-302,540,-219
-97,-84,-6,179,727,-543
-22,-98,-10,-697,905,-1115
71,-93,-58,-955,1199,-1349
120,-95,-97,-532,1203,-1406
-79,23,52,3433,2489,1851
-96,-33,-19,1815,1769,1219
-25,-111,-38,3146,2655,2137
-52,-75,45,4327,4103,2605
74,22,-3,2110,4030,2974
-55,37,-35,1409,4525,537
7,22,-63,3035,6091,-1328
-27,-24,61,2926,6152,-2430
106,107,-7,4320,2722,-3383
90,11,-113,3515,2999,-2223
34,-113,22,-675,2952,-1232
40,14,20,1661,2772,1546
77,-102,125,-3490,-1469,423
-127,91,-8,2804,-2477,-3146
-97,-64,-40,11347,-4310,-64
-124,-42,-114,4997,-7379,-2244
-127,67,-52,9437,-6083,-790
-89,44,-123,9193,-5771,2837
-85,-125,-60,-6802,-6852,-2753
75,49,98,4354,78,-1736
5,-71,-76,4209,-1115,-1471
-117,-123,118,2734,-1106,1185
-9,60,-123,2949,-2241,1387
-95,-9,107,2390,-627,1208
-96,-17,-125,1153,-703,449
-3,113,-33,1801,2126,1401
120,-30,-54,4278,3888,2171
24,-14,-2,3039,2113,2010
7,-28,4,1675,1014,1321
40,-93,36,397,-221,-65
-124,115,27,701,233,36
-27,33,-16,458,1058,-263
1,33,-26,118,722,-318
3,38,-27,-384,-92,-350
8,80,-40,-1707,-878,-332
20,99,-89,-768,-501,83
10,125,-60,-743,-572,-322
-13,-109,-66,-851,-347,-644
21,-79,-73,-1363,-8,-642
54,-57,-118,-860,380,-498
36,-111,29,2181,6193,-66
-83,-37,82,1478,5835,-428
10,-21,74,-753,5440,-1729
51,46,-39,-2993,4795,-3043
51,-118,125,-706,6404,-3313
-85,31,-25,-1114,5157,-4477
-75,-75,-51,-2827,5521,-4688
-92,26,120,-1358,5927,-2444
3,-97,-18,682,5880,-813
-100,-90,19,-3485,3964,-789
-20,6,37,-4416,1680,1688
-88,5,46,7455,-315,6196
-80,125,86,1611,-2585,548
111,20,-17,8725,-4177,579
108,72,-104,4432,-6858,-2813
-115,49,73,10200,-7271,-2027
-60,-44,-24,9575,-4720,-189
2,27,34,402,-6901,-2213
-98,-37,-104,168,-1821,-3547
76,83,-65,7886,-1848,-151
79,77,-70,2729,-3938,-417
-98,14,18,2155,-2171,-1154
111,107,118,5935,-135,1487
-118,-16,93,-950,-2779,-236
-93,62,-71,2976,2659,863
5,-86,-94,4194,2641,2446
100,-87,20,-1649,-990,1330
95,102,33,2716,193,2601
50,-120,126,1283,160,1425
71,-72,-122,-58,321,766
-103,-62,39,-2053,1013,-456
-32,-128,113,-1886,1418,-636
2,-94,66,-1122,674,-252
92,-113,21,304,525,73
-126,120,50,552,588,0
97,113,113,-744,-26,-334
-127,116,76,30,218,115
-110,-124,89,-129,210,77
-114,-106,96,-235,-103,-84
-120,-110,95,-314,-307,-93
