AccX,AccY,AccZ,GyroX,GyroY,GyroZ
-61,125,-60,-5429,1559,-224
83,106,-9,-7741,1657,-515
126,-11,48,-5187,2223,1279
-28,62,-88,-14016,-4013,-614
28,-112,-88,-12307,-2879,3357
104,51,-85,-2883,1897,10241
83,-64,14,-2556,382,5700
29,-46,121,3385,-1400,4981
7,104,-98,7075,-2363,2167
-96,-127,-77,4220,-5642,-2733
120,-125,27,19358,-9326,-4431
114,-22,68,1008,-11663,-9919
-63,81,-6,8631,-1704,3919
35,87,20,-10690,475,-4262
10,-39,43,1198,3002,-20
-60,-61,21,-1164,-1621,-617
63,-24,99,562,-155,-539
-97,60,97,74,1640,-76
-77,11,20,-52,316,-805
112,100,29,6092,-634,-115
-101,-10,-121,4186,-2954,2021
98,-40,27,2745,-4836,1595
-12,2,97,398,-3672,-805
-92,-71,65,6739,-1491,252
84,125,84,2721,-2986,802
84,32,10,2903,217,1164
88,112,-115,2908,2097,382
-28,78,-109,2504,1201,38
16,18,-72,1316,437,239
-6,34,-37,-718,-488,223
13,-63,-119,-253,-754,-383
61,-102,97,453,428,-246
86,-71,-102,-1407,352,-433
123,-52,16,-1215,1006,-484
-106,-25,-39,-1036,1040,-704
-83,13,-84,-571,1021,-534
-78,51,-93,-1682,284,-733
-68,83,115,-1814,-71,-706
-43,111,68,-1105,186,-544
-31,-120,54,-349,480,-318
-73,-95,86,-5295,1041,-1751
-16,127,23,-881,2919,662
63,-72,-98,-4866,869,-517
11,-105,-51,-5097,1536,28
-122,-94,16,-6329,935,-76
-120,-82,-55,-8549,1604,-183
84,-85,123,-8912,-28,-223
-112,-63,120,-6444,-175,1488
63,-16,-77,-13924,-3485,3121
-13,-113,-104,-5719,-1657,7847
-102,-68,-92,288,321,5749
20,-82,-110,6572,-3077,2372
45,-50,-45,3859,-2391,1595
-116,-12,55,9107,-5009,-356
119,51,-29,9575,-10105,-9385
106,-31,63,5095,-9472,-13980
-91,108,122,-224,-1934,-2335
39,102,-82,18812,1305,1378
33,18,21,-15313,-2411,-5380
-128,39,90,9377,465,1074
-38,-24,-25,340,-3383,-3119
-79,-70,-95,3328,-1737,-1811
-54,-34,-111,5666,-458,-622
-102,-32,5,3883,-927,306
98,-15,27,3503,-3766,-767
90,-78,-13,4595,-2125,662
4,36,89,1654,-641,-331
-91,23,-47,2321,2038,209
112,-36,-100,1430,2815,-138
62,-18,46,3488,3583,882
-19,-77,-94,1020,1756,-68
23,-100,123,1148,1066,135
59,123,-118,136,672,-296
-119,-125,-124,119,434,-437
-85,120,118,-157,313,-474
-67,114,99,-833,162,-742
-28,-110,35,-1332,-265,-461
-44,-86,-32,-1602,-685,-644
-23,-67,-112,-127,12,-208
-38,-25,-78,-297,148,-302
-38,-47,-50,3471,3987,2211
-88,112,-38,2164,3748,1009
-107,-58,-37,6045,6164,3250
-39,-58,66,2034,5511,617
8,-115,-100,3362,6044,1004
-60,-76,-84,-604,6329,-77
-13,96,10,721,6389,-359
-46,-81,94,-212,6356,-1292
-33,-36,117,1168,6970,-859
-98,13,34,4920,3023,-1582
11,-43,119,-6155,1570,-2874
100,-83,-103,10309,-475,-1711
-68,61,-127,1718,-632,-3572
21,69,27,7123,26,-1897
-26,31,-52,7850,-1453,-623
49,-74,-28,-943,-4014,-5547
-112,-55,-65,12448,-1891,-294
4,85,-82,9889,-6096,-1169
40,-71,62,-8119,-15179,-7463
64,-15,-19,-3076,-3168,-9453
33,-112,120,8866,6044,-587
9,60,109,8622,685,2082
16,34,94,3254,-6434,95
45,0,-51,3522,-2243,-920
-126,-49,-40,87,360,-713
104,-16,-80,3373,-624,1382
-58,87,29,-1470,-245,-1448
-16,86,6,4398,2534,1290
111,-122,-104,1394,-10,510
94,-124,-109,-766,-1176,50
-104,100,89,-1254,-1091,-355
-40,81,6,-194,6,-291
17,83,-63,1886,1684,309
4,88,5,808,1433,-175
36,90,-2,-393,1081,-281
85,76,-75,-487,857,-25
94,77,-118,136,778,160
90,74,-107,80,192,90
100,86,-98,-253,-138,122
116,94,-112,-121,-68,253
66,107,69,-3782,3682,-330
-71,-85,-54,-5871,2358,-830
-78,6,-95,-6199,3421,-482
115,113,-79,-7503,1990,-256
-113,5,-96,-7749,73,856
56,12,-102,-7035,76,1159
-22,21,-80,-3299,3046,1383
-115,-72,101,916,1486,2729
-70,-47,-61,2390,51,2800
-8,53,91,-240,933,-2643
76,-81,-111,23872,-9021,-247
-68,67,72,-10787,-12939,-11153
19,-118,-117,-1425,3082,-12538
45,-100,-56,-28720,4215,19452
89,-43,-12,-28845,-349,-15570
-106,-72,68,12390,4811,7329
112,-79,3,-6564,-2083,-3451
14,70,-49,2154,2686,16
0,-74,-60,-504,1646,-158
39,91,-38,1300,641,267
-112,103,108,2377,-545,790
59,102,58,3503,-1799,-380
-84,80,-40,8163,-2532,3990
-104,-123,5,221,-3538,-271
-40,66,49,1943,-1936,1630
-49,-97,-10,2142,-2147,-61
-59,-29,89,2006,-3344,1323
97,-74,82,-1156,-2995,-1243
-42,-87,34,3203,904,78
39,-85,-86,1762,1611,1840
-62,87,-102,-1992,450,-1064
57,-13,-97,1460,1795,-309
104,-23,-30,1455,1495,-37
107,12,22,169,585,-53
-117,12,2,-1236,203,-374
-65,-11,-88,-475,695,-537
-48,-17,-107,-585,-75,-181
-58,-66,-117,-552,-612,-607
-25,-78,101,640,335,137
-97,0,-95,570,-712,48
-37,94,93,-5834,4749,-1043
-52,-126,66,-8325,5736,-657
87,112,11,-11507,5419,-254
-121,-6,-12,-7898,4012,2910
-120,101,-92,-7613,2149,2771
23,-43,-90,-1384,2274,3488
64,2,-57,1875,-346,2796
-76,71,-114,-574,-337,-39
39,-77,72,10574,-3147,-805
59,85,1,14799,-9121,-3962
69,108,101,-3080,-9503,-10897
-69,6,-71,2041,-546,-14032
43,79,-4,26424,6707,17586
91,10,89,-25376,-1658,-13332
-56,-21,23,8381,1988,3113
59,-118,89,5911,-2022,160
106,67,8,-2061,-601,-798
-36,127,82,-2362,1217,-1727
101,65,122,1510,888,-156
-91,43,69,2903,-428,-63
112,-61,-103,1685,-1224,773
100,-10,70,2820,-1106,1116
-116,23,114,4707,-2659,1127
113,114,42,700,-2778,1635
46,-8,-39,578,-1655,434
94,-113,-98,2702,-1631,644
53,-107,-106,1217,-1467,168
98,91,112,1942,-726,193
99,93,80,831,941,1039
22,106,6,922,1400,453
53,59,-39,1804,1480,233
73,58,6,1568,760,702
31,40,99,-465,-939,-153
-124,-8,67,-1038,-1006,252
-93,-55,-13,-375,350,709
-98,-74,-49,-813,1057,55
-85,-38,-116,-81,1202,431
-123,-27,-89,-839,13,-140
113,-20,119,-377,-325,-334
-109,-23,117,-27,-414,-37
-25,-14,-103,-3689,3690,-981
34,37,-84,-2611,5171,-5
66,45,-36,-4895,2137,-888
73,55,-10,-5543,3530,-289
-42,-3,108,-4319,2856,117
96,21,-60,-7422,2313,-1441
-114,-59,8,-6211,2820,482
61,-11,73,-4235,1690,1144
-101,-8,51,-8559,1453,1841
-84,60,11,-5054,2486,4774
-90,74,-95,4034,2192,6977
74,82,78,-2926,-262,606
118,81,99,5825,1261,3041
110,59,-120,1914,-1104,611
-20,102,98,4795,-1903,135
-67,-43,-92,6110,-3082,-1523
-82,-64,69,7168,-5051,-3110
62,-15,28,6396,-4855,-7314
85,-74,-98,7959,-7683,-8023
-24,10,82,7823,-1336,-430
-37,-52,-118,-3586,1043,-1389
-50,16,-58,-3248,-125,-2404
-66,-75,-31,2575,-1572,-624
73,106,-19,5350,-2598,511
15,-98,-74,-73,-2758,-468
30,-53,69,302,202,371
96,43,64,427,-1315,-491
-86,-104,-19,1586,518,-64
46,-3,-60,4424,270,951
46,103,-78,-181,-1638,-292
78,84,3,2693,-30,989
60,40,-97,1236,-858,456
60,61,77,1301,396,404
24,64,35,1264,687,-218
25,49,26,1174,361,-331
25,31,28,327,-100,-381
52,19,22,10,-415,-17
50,-1,-2,10,-332,-228
110,-27,-26,665,450,33
110,-8,10,-578,56,-314
108,-19,106,-4943,611,-2009
-115,18,-17,-687,2706,52
26,-20,-97,-3836,1110,-1359
11,-3,-97,-2800,1960,-606
-29,-49,-13,-5053,1166,-969
-36,-55,-45,-4593,1493,-47
-107,-75,-10,-6297,584,151
-128,-61,96,-5573,1779,1098
55,124,-114,-7353,381,608
-103,100,34,-9935,-1508,2374
-94,99,-16,-3168,1918,5027
42,77,-43,-5123,1078,4989
64,11,53,735,501,3667
77,61,-93,-7,-418,3010
-10,120,-104,2070,-620,3159
-50,-108,-115,2765,-1324,2002
-109,43,109,6812,-2357,789
97,-37,20,6089,-4866,-4184
-51,40,115,14119,-8258,-7726
4,-114,95,5252,-8651,-10528
1,-37,-69,10638,4257,7814
66,-95,116,-2844,-770,-4302
-57,-121,60,-47,-526,-1164
46,45,37,-1197,-2109,-1624
126,15,-78,2926,-931,-1598
117,64,74,1211,-2383,-904
68,86,-24,1614,-2175,-1682
79,107,-7,1752,-1552,-779
49,52,35,4211,-2906,-696
71,116,-76,947,-3714,-730
57,-35,124,3704,-1726,-1059
-2,47,127,5213,58,72
58,78,82,2727,-617,602
65,28,-86,-2159,-710,349
71,26,77,-1035,2330,883
87,56,7,-400,3146,460
91,81,-116,1275,3961,693
-112,63,110,1721,4411,213
-57,9,-70,659,3036,-139
-4,-54,-59,-139,1411,273
63,-86,-85,-4313,1466,1421
57,126,122,-2527,2010,3593
-12,30,-3,-6418,1930,2347
18,-47,-123,-5764,2062,2945
-10,60,18,-6040,1173,2377
-71,-70,93,-4854,1150,4140
101,75,-40,-2928,2325,4399
-34,-80,-1,-2082,1490,5170
60,33,-53,-1343,-481,3660
97,-77,71,4767,200,4483
71,109,0,3749,-1562,1666
9,-21,20,3724,-5535,-2638
62,-96,-25,12727,-7047,-4924
-79,75,94,-88,-12000,-13161
107,-69,103,-1128,-3176,-24101
7,-114,118,-27100,5215,20157
-43,95,-77,25642,525,-15263
50,1,-62,3028,4559,6644
-67,6,-16,3909,3746,2063
-50,-8,40,2415,-5143,-3521
45,-34,-91,5441,-5194,-1413
112,-78,35,100,-4599,-2571
-54,98,-10,1341,-2063,-1170
106,-64,-11,4966,280,363
-89,51,-32,2904,-2359,-1654
-104,103,40,1661,-2571,-2404
-16,-79,-58,3411,1047,-806
122,-72,33,1255,1412,136
117,-84,-89,-1493,2776,644
109,20,-39,653,4465,1963
77,111,-101,960,4275,1967
62,105,-120,2283,3842,1514
44,73,-70,2002,2762,488
48,16,13,210,645,-831
100,5,1,-968,-739,-1187
-98,-17,-32,-1264,-1327,-1283
-31,-28,-106,-347,-1081,-603
-32,-27,-74,105,-911,-200
-33,4,-57,169,-730,-117
-55,25,1,-364,-1063,-538
58,45,-21,-4719,1559,1860
80,-9,9,-5174,948,2846
99,111,-117,-3933,2642,3816
4,-14,124,-4231,2660,3477
-108,-79,42,-3657,3552,3659
-32,-62,32,-5712,2923,3450
-58,61,-33,-6120,2267,6934
34,-100,-87,-7713,-1839,4513
-87,113,-75,9721,3737,5355
-47,45,22,4736,-4697,611
93,-7,75,-4016,-2743,-8141
-49,-97,-91,17966,-6780,-2014
-32,32,-99,-2340,-10075,-14065
-128,76,-96,4568,-4320,-17292
-82,32,95,10095,-3460,584
8,-96,-103,5363,1399,3421
-16,-20,-21,-26147,-764,-12824
-79,71,124,19931,9396,14086
-60,49,53,6540,-2253,-1330
-77,0,-12,-10116,-11655,-9009
-63,2,-110,6261,275,-2683
66,-39,4,7030,-2071,82
-88,85,21,810,-3819,-2661
103,29,-41,4649,-1248,-1267
47,110,-120,2338,-1655,-2006
33,-105,-95,2503,-146,-992
8,62,80,1249,3013,-204
-108,100,19,-1130,3815,-285
-70,-40,96,-2921,3778,575
-61,86,-10,-2092,2429,1702
-66,125,-48,-3257,724,909
-35,-79,-18,1336,2587,1618
-80,-93,105,500,2399,578
-89,-116,-100,-1087,863,-281
-87,110,99,-903,158,-658
-73,112,75,-1147,-730,-829
-56,93,13,830,-846,-463
-63,88,103,1238,-1463,-185
-65,107,-97,597,-1347,23
-89,121,-70,-367,-1278,-464
-4,70,-77,-5153,766,1206
-7,69,-112,-5775,710,2435
39,38,-115,-6916,709,3818
56,-16,61,-7755,1192,4110
-104,-93,-66,-7637,1515,5154
45,-33,61,-5122,1998,6917
-77,22,-10,-4665,665,6897
96,-93,94,1337,157,1363
114,-42,91,5138,-1594,1553
-14,98,97,3512,5,-16
2,16,103,2495,-1354,-898
21,-41,-90,9755,-5556,-3280
58,-117,-68,7275,-8705,-10717
25,-85,36,884,-5738,-12951
70,-125,-97,7586,-2419,-7898
80,-87,122,21971,8887,13339
90,61,62,-24547,-3804,-12400
45,29,-37,2416,2600,1634
85,0,95,9071,-673,-436
58,-42,90,-1563,-4477,-4024
-116,-74,12,3934,-320,136
83,62,17,576,-2202,-1608
103,68,-51,5494,-2181,-688
-97,24,116,3021,-1692,-239
-20,-91,-56,2986,-2415,-1965
76,90,87,798,-2394,-1436
8,-17,-3,-1252,-568,-382
-37,-92,59,-779,2206,32
-66,-109,-66,853,3143,1120
-118,-25,-58,2674,3053,2238
89,38,7,910,2423,1781
84,85,-48,618,2543,1506
77,91,-37,378,1783,498
101,79,-1,-309,537,-698
-111,56,-30,-1142,-349,-1297
-69,46,-85,-1595,-631,-1305
-40,57,-119,-1331,-1106,-1079
-32,85,-117,-1407,-1339,-825
-15,106,74,-896,-45,-184
-27,112,53,-111,519,-29
9,-45,-19,-5148,1953,1501
-7,-52,105,-5907,2051,2347
-22,11,77,-3946,1719,1268
-38,80,41,-4562,585,1989
-68,-44,72,-4116,-27,1913
-97,-94,127,-6228,158,2776
89,-57,-77,-6032,434,2267
61,-72,61,-3972,2019,3856
-29,-59,-29,-8003,1304,3026
99,122,118,-610,-145,3865
-96,121,-100,4608,-1111,1358
43,12,-88,469,390,-1746
39,117,70,13387,-5246,-501
67,-71,-71,2338,-5576,-6521
-116,-113,-93,7667,-4215,-6655
127,-95,-125,3732,-4817,-11525
-117,-112,27,15374,4012,5793
65,-127,108,-17437,684,-4898
-7,0,-2,-1982,1188,-1555
-83,-72,-97,4120,-145,-1302
21,-35,-117,5614,-950,30
50,28,77,1218,-2260,-1039
27,-19,33,2959,-2166,-8
33,-10,-89,5254,-3767,-278
47,46,-84,-801,-2420,-203
26,102,-77,4230,-2852,-1880
-107,42,-106,2907,263,341
-73,-101,-39,-219,-254,-391
-79,29,-119,474,-520,-41
84,-9,25,2688,146,740
37,-14,-118,748,-293,52
65,0,119,264,-126,559
63,40,102,-301,78,563
37,45,55,-166,531,209
43,48,32,-615,911,-273
111,80,-24,-1698,1092,-402
-99,98,-107,-1592,1384,-447
-41,-125,99,-684,1719,-160
-35,-100,121,-968,931,-448
-43,-100,90,-845,760,-770
62,58,21,-3917,2628,1224
-15,115,-13,-6570,2959,1398
-29,22,109,-7665,2797,2537
48,17,63,-4233,4663,2935
-82,16,-115,-6849,3137,2990
22,-40,-49,-7595,2672,2631
4,3,-14,-4223,4221,5908
-63,2,38,3954,-134,4864
-106,81,-94,-3882,-1550,-82
-70,-14,-66,7111,-245,2025
-31,-61,-44,-3763,-1003,-2048
124,-44,111,25236,-11850,-3133
-45,123,76,-4288,-10663,-15656
114,85,-111,7044,-4231,-14173
-117,88,-91,31367,5192,18455
97,-69,90,-31260,1560,-15081
42,-14,100,2209,3488,3839
-107,8,-97,4340,677,424
28,-8,126,-2867,-4275,-5075
106,58,-86,3781,-452,-874
-74,-123,-110,3536,-2682,-800
-101,-37,126,3907,-3285,-792
13,49,-90,3669,-4675,337
-102,14,-73,4568,-4214,-1077
44,43,-104,4498,-3951,-2602
125,-18,-19,1739,-1053,-3154
-104,122,36,3379,4542,1069
31,-13,-71,-3182,3576,126
87,3,-79,-4615,1774,1201
96,37,-91,418,2611,2190
85,105,-106,1288,3330,1292
-125,-103,-118,1229,4051,737
-110,-127,-125,854,3837,76
-87,50,-120,1098,2870,-693
-50,9,-27,425,420,-1190
-31,2,36,-931,-2132,-1442
-24,-35,0,-2594,-3443,-1487
42,-52,-85,-2183,-2397,-923
-84,-89,-84,-858,-761,15
98,-106,-84,887,37,547
98,16,46,-5380,1221,979
107,-37,-50,-6361,1875,535
61,-94,-96,-2285,2418,678
30,90,0,-4656,2402,-455
33,-11,53,-5063,1544,-537
122,-23,-61,-7617,1704,516
35,-93,119,-2379,1688,1704
82,-108,85,-5219,2363,2147
-2,-90,-61,-4208,2343,2745
-31,-20,80,-133,2011,5455
62,-121,-50,-1304,1241,4406
-82,105,-112,1173,-2687,2123
80,-19,-69,1289,-4110,1011
-56,-40,-114,9998,-4728,-586
-9,-58,-6,13016,-9622,-4267
19,-98,12,6160,-12235,-13860
-7,-61,112,-101,-7395,-11473
70,121,-90,13872,4687,6186
115,115,-45,1717,-224,-3553
82,-57,-88,-19309,1119,-5990
125,78,-93,10845,2086,2434
75,-63,-113,15628,-3939,2204
102,115,-110,-1656,-8049,-293
-71,-20,-13,2178,-591,95
-5,96,9,7258,1221,2589
-35,-104,-34,-1357,-2765,-1532
10,-1,-96,1882,1241,-1150
29,-77,-101,994,1939,84
-78,-15,-103,-16,1060,146
-51,0,107,-488,546,-524
68,21,78,924,595,-166
6,-40,95,-351,558,-632
112,-26,21,-1485,1755,-533
42,91,-51,-2782,1749,18
5,-127,86,-440,1971,265
-97,53,100,727,1050,-612
-93,66,-107,-323,302,-1245
-30,104,-109,-1756,-530,-1052
-17,124,86,-945,-836,-125
-34,-116,56,-338,-424,393
43,-8,-74,-4738,2300,995
-30,76,-26,-7409,1308,2906
-66,6,18,-8046,1078,2429
35,-24,47,-5991,2877,2994
-51,-41,66,-8779,1852,2854
80,-122,22,-11397,704,4649
-56,-48,-43,-5065,1592,8463
-90,-76,-89,1458,325,5839
-18,-15,-107,3912,-1070,2031
93,90,115,-40,-1884,-727
-77,6,-99,9287,-5516,-2459
-63,74,-58,15528,-9334,-6987
60,-5,-109,543,-12210,-16646
72,-82,3,-383,-2754,-21697
69,-9,78,-30544,12637,29259
-26,83,-116,22478,-314,-21333
24,-104,-18,4543,3237,5560
86,103,80,26618,2054,7479
119,35,-108,-8045,-11422,-3802
-128,112,7,-4625,-6134,-3886
51,41,83,4729,-951,-1631
-5,121,75,2872,-1874,-2537
-57,48,-124,6073,-1775,-1221
84,-56,-93,1398,-3123,-1888
122,-127,-55,6834,8408,860
-45,80,-24,14612,5777,753
-38,-84,-96,-18478,-6068,-4080
-69,97,95,-6880,-1694,1730
7,86,108,1308,2228,3906
-16,-86,-30,3574,4838,3327
110,-40,10,6242,5545,2542
50,46,70,2225,2802,-933
-66,20,90,-920,924,-1095
-23,8,42,-2185,-855,-728
-53,-5,-81,-1056,-1869,-591
-51,-39,-80,113,-1546,-207
-21,-30,-100,1094,42,606
-26,-24,-2,-250,618,439
-50,-9,-23,534,-49,515
-72,-30,8,315,-928,74
-104,76,36,-6191,1451,-201
-83,-125,2,-3129,2229,57
106,68,74,-3956,1851,-210
85,-83,117,-3941,2224,363
110,-105,-92,-5789,1656,503
-89,-105,101,-10987,1162,1545
-116,7,-62,-6976,1336,4021
-22,0,-115,-999,1533,7651
-27,-86,-45,-5081,-972,2579
-107,112,-84,626,-2561,2916
-38,-35,-21,3542,-1456,3421
69,-82,-110,-1271,-2200,-990
38,9,-48,5896,-2291,25
117,99,-114,7569,-4353,-2770
102,107,-56,13034,-6323,-5100
-31,-75,89,8021,-12821,-13197
-77,73,-97,138,-3243,-8809
-117,-83,79,14788,5545,10800
-39,106,47,-8441,-2646,-7548
43,-80,101,3618,-140,1782
66,118,-110,366,-2430,-2234
28,-21,-5,1454,510,46
-62,-78,76,-1186,-934,-1480
13,-116,-88,3313,423,-350
126,-33,11,4101,-1158,757
122,-120,13,1328,-2119,-474
-13,36,89,2799,390,1640
74,123,107,-373,386,707
-2,102,27,-234,-813,-433
72,-3,74,1878,318,540
38,46,102,709,-32,161
60,54,38,439,5,162
116,51,-55,1361,852,1211
101,61,-54,767,885,869
104,71,-102,774,763,770
89,66,-97,1676,566,780
78,40,-5,325,-496,135
-119,13,10,44,-717,25
-72,-20,-38,507,309,363
-82,-42,-15,462,479,83
116,-111,26,-6699,768,351
-24,33,8,-5968,1738,1186
-36,-37,103,-8310,246,1196
37,-25,45,-8307,-680,2516
68,100,97,-8679,499,5419
-100,-122,15,-5510,1100,7126
77,21,-71,1279,3518,10048
-49,-28,-22,-3226,-1336,3205
75,-87,4,2874,-618,3895
-49,90,-44,733,-3625,145
60,-65,-47,4308,-4371,-1142
60,5,-16,11459,-5688,-4745
47,-12,37,16297,-16199,-15743
-10,-110,92,6916,-257,-9895
-29,108,84,17408,7190,17030
-54,-88,-110,-10028,-2865,-7136
2,-95,87,-2523,1077,-1145
80,50,30,2094,-544,-662
-38,-1,-102,137,-2565,-2153
55,54,120,-216,-507,-1093
40,127,76,4022,87,-1540
125,81,115,1758,-324,-209
100,-18,75,3494,-49,-33
109,89,-7,2040,1005,1574
102,105,-88,1123,-1509,1117
-86,-122,23,2201,186,1488
-95,41,-35,1360,-2217,996
-58,-6,-109,1151,-1802,360
-92,-88,97,1821,-1308,438
81,-99,-96,-507,-2071,-67
60,-95,66,-1640,-1379,-157
77,-122,-15,-710,-1049,139
97,124,-123,287,1413,82
92,-113,108,1921,2466,812
85,-122,-97,-43,1525,95
-122,-113,96,374,1492,236
-99,-120,106,8,805,118
-95,117,101,525,186,48
-92,102,-112,40,-716,-212
-82,91,-110,-39,-858,-161
14,82,71,-6245,1402,95
-55,93,69,-6989,1035,797
-111,86,-36,-6583,1222,801
92,72,-29,-8415,-91,285
-124,58,-64,-8940,-284,-26
-80,-117,-41,-8291,-1588,1179
44,112,115,-11732,-2359,2136
2,-23,6,-2260,-1183,8040
19,-77,95,-3531,-2334,5026
67,-1,-91,235,-688,2881
76,115,97,-527,-2374,2272
-5,117,103,3501,-2718,5789
59,-127,-109,2667,-2483,3194
-106,111,63,4702,-3643,1906
-121,14,-76,10255,-4783,-2192
-21,48,38,14838,-10445,-8320
-18,116,-123,2801,-13370,-14091
-97,-105,-18,-4156,-4917,-14299
-115,99,55,-24938,15264,24813
-18,-104,-89,-26119,-7483,-13193
73,-102,-114,9094,3229,4947
12,-22,-23,-518,-2707,-2328
69,58,42,-225,-1691,-874
56,-106,-4,-2295,-1301,-1630
53,36,108,1506,-636,-2358
77,-105,63,6788,-726,668
-32,110,53,3197,-4032,-875
9,-82,117,3117,-3566,-1236
83,38,-78,2978,-2777,-2210
3,1,-9,5253,762,1924
-101,-95,46,222,1489,59
106,75,27,-560,405,345
83,-5,68,-467,390,228
94,-39,-36,83,1460,288
99,-6,-106,1118,2293,656
121,48,-101,729,2167,1072
-126,95,-125,382,2153,982
115,98,-120,902,1593,701
102,47,-72,586,469,-344
-108,20,-39,78,-390,-967
-27,121,115,-6862,1451,-1083
70,100,54,-5426,1962,75
-119,65,82,-7237,1394,-794
62,54,-62,-10147,-211,-1244
1,8,-80,-8963,-340,2067
5,64,-22,-8913,-1782,2349
-60,47,-100,-11319,-3397,5458
3,-49,-33,-5607,-1030,8996
28,-70,126,-7850,-3831,7045
83,54,4,3507,-2513,317
17,-36,75,3785,-3362,4682
117,-46,25,3401,-2703,1861
-71,-41,88,5928,-4302,-3490
17,90,42,17575,-9133,-8930
54,-25,-25,6134,-17428,-19017
-102,124,39,-5358,-2242,-18669
-7,6,122,28132,15760,28889
80,32,53,27567,-2107,-19659
8,-23,94,2856,1670,1100
-29,40,9,28075,3331,8782
-60,86,56,-15202,-9159,-7630
80,-33,-116,2055,-2042,-2941
-34,66,49,10532,1833,1493
105,-116,73,1247,-602,-1020
13,-40,59,6211,-899,1232
-69,89,30,2919,-3552,-672
-49,106,-87,911,-4586,-1307
-39,58,65,2772,-863,1034
98,-32,127,-1990,2547,-532
124,1,71,-5139,4837,-1145
1,-98,80,-2533,5160,1074
17,-5,6,704,4351,1953
1,-47,85,-118,2711,1034
16,-61,32,728,3041,971
1,-127,73,322,2060,277
-16,89,91,1083,521,-148
-88,102,-71,390,-2442,-674
-108,-105,-77,-2660,-4481,-1396
-46,127,71,-512,-3015,-544
-18,103,59,-77,-1107,255
-37,37,-124,-3707,3573,881
106,124,-116,-7635,5352,-710
-21,-30,37,-10446,3286,-2033
-110,-98,-126,-7820,306,-163
-38,-26,-125,-8222,1390,721
36,-77,-110,-14063,-1187,28
-2,-96,-22,-6196,-1443,4193
-42,-39,99,-4920,-1063,6342
-61,-57,-65,-2059,-1002,6310
-20,41,-117,4107,489,5282
-114,-93,41,-2991,-2837,1009
-29,-73,9,4769,-2810,3543
-77,-59,-81,138,-3173,-1345
41,-22,-24,6842,-3884,-3254
-58,111,-35,24402,-14009,-10801
-74,88,93,-1779,-8989,-13868
35,-117,-97,6005,-1494,-2345
28,2,91,21206,5057,4249
-46,31,-109,-23447,1387,-5022
-29,22,-106,9468,3044,3535
-20,-91,15,5089,-1576,-2030
70,114,-124,-1394,-5012,-2847
112,-69,-123,1072,-1786,-3002
-83,-81,87,4906,-868,-510
104,-63,26,4397,-3916,-1569
-76,-120,96,3208,-3941,-2969
88,49,-93,8797,-1791,392
102,19,83,1164,-67,1296
116,-21,68,2329,304,290
-5,77,-37,-1559,-1549,-1260
117,-19,-55,-2340,1476,-704
-67,-60,-57,-1998,3796,11
-43,44,-127,-145,4031,1201
-53,82,117,39,3265,1123
-52,111,84,557,3083,1055
-57,88,120,281,2092,372
-19,67,-108,624,1252,-41
-7,19,-62,-73,18,-666
52,-28,-82,-186,-238,-70
55,-45,-124,1111,-387,744
-38,-108,122,-2840,3317,-1447
68,-64,51,-612,3337,-1359
-115,-106,-123,1058,2049,-1550
-117,-126,-55,-1035,247,-1869
-110,125,-127,-993,-7,-1211
-108,81,96,-573,-353,-664
-122,94,43,529,-137,359
83,-127,98,193,-1281,364
21,-66,107,451,-2129,609
-13,-42,119,466,-2382,656
-68,-27,-103,307,-2446,460
-84,-50,124,1098,-1119,486
-86,-65,-115,1844,203,634
-120,-85,-98,2012,725,469
-127,-117,-49,1293,522,298
-79,-97,-26,194,163,405
-76,-100,-45,254,44,426
-109,100,-101,1041,857,133
-115,67,-77,679,1158,-348
-73,54,-74,160,1109,-299
-27,59,-102,-82,847,-192
-34,57,-103,324,123,-165
-38,70,-51,-379,-708,-428
26,109,-51,-957,-443,-463
51,125,-78,-669,-67,-298
37,-126,-95,-567,458,-431
77,-84,-53,-1117,733,-602
-110,-67,-4,-362,1240,-913
29,70,-113,-1238,2474,-954
34,112,-31,-1667,2296,-878
-25,120,-1,-1720,2683,-519
-107,-49,-108,-4192,1585,-621
47,-66,-102,-8050,1574,-228
29,99,-46,-6873,3119,883
0,-63,69,-11937,3468,-478
-27,10,126,-11520,136,988
-84,25,45,-10472,499,2705
39,-51,89,-12099,701,7372
-66,-10,10,-3662,-2163,7940
-48,-37,-127,3568,-1346,4439
-110,-116,-104,5946,-2398,681
-31,74,44,9917,-5564,-3029
82,117,59,17242,-11064,-9604
3,-48,18,-6889,-12137,-21133
65,-84,101,16515,4885,7210
68,-120,-25,-19391,4905,-5573
72,95,-50,-22238,1652,-7208
-87,87,101,19186,8516,9521
-87,-84,-29,13971,2720,2690
72,17,-124,-10056,-5884,-6878
3,112,75,5608,96,736
121,-80,69,15690,-1210,5947
97,108,94,-3046,-6574,1045
-101,98,96,1112,-3771,-543
-15,-69,-98,8332,-2219,1994
-121,-44,-23,4833,-1323,283
15,52,54,5707,-63,3151
124,-15,13,-3412,-1829,-1179
6,12,-121,101,1886,-816
2,-57,-28,3837,3698,307
-72,-58,126,1497,1746,-212
-30,-34,-96,195,350,133
20,-77,-119,-1817,-567,-495
103,-112,53,-1514,-303,-877
-86,125,-19,-682,336,-647
-97,-98,-53,-1088,493,-758
-119,-38,-100,-1373,158,-732
120,1,117,-1325,-300,-1020
-107,51,78,-779,-407,-1191
-57,112,112,95,-712,-403
112,118,-83,-701,-1445,-474
108,-91,126,-1500,-498,-579
-97,-45,121,-1412,-30,-403
-85,2,94,-803,223,-222
-94,28,87,-502,378,-405
-120,25,92,-990,170,-604
-112,27,59,-1085,365,-567
-90,36,30,-798,411,-378
-73,50,26,-259,321,-61
-63,64,37,119,184,158
-50,-72,-33,-4546,1813,894
-94,-97,-105,-5358,2361,859
95,126,-53,-6141,1574,-20
126,0,-60,-4333,2379,-529
109,-101,81,-5619,1516,-544
-51,57,-121,-7863,889,-562
4,52,79,-7814,1306,1961
-55,-36,-122,-10306,925,2174
101,117,-105,-6551,2185,6540
46,77,19,-6353,-32,4056
-16,-114,-100,526,-2511,3225
58,-24,61,-284,-3008,1746
49,38,16,2133,-3878,1042
-110,13,23,3138,-4703,-2570
-90,-100,-105,15677,-7316,-4258
81,-43,85,13089,-14290,-14618
71,89,-67,-412,-8424,-17903
-36,109,17,22853,8333,18248
12,-7,107,29859,2044,-16146
38,-5,82,5691,640,5245
125,-15,32,13814,2648,4333
-23,66,95,-11612,-3302,-7031
-109,0,-127,2865,3158,572
-38,-114,60,5878,1564,907
103,109,-64,3090,-1907,307
116,-27,6,4329,-2977,2234
-50,-26,-54,2693,-3048,261
75,-29,73,4773,-595,698
37,-25,-117,4098,-1964,1644
-79,36,-94,-4118,-3793,-403
-102,34,121,1758,-712,1151
111,-12,-59,971,-840,128
120,-15,57,1676,807,296
73,19,14,1004,1274,-40
69,77,6,792,951,718
37,61,-7,-460,100,550
45,55,-78,566,604,293
60,61,-43,-48,5,-6
85,53,-46,-388,-320,-330
-100,22,-87,-237,287,-338
8,1,12,-9601,2843,-302
-61,24,27,-6711,1309,1825
-21,-113,-98,-11632,1155,77
-85,49,-83,-9984,-1069,1531
-97,127,-95,-9915,-2167,2197
70,-80,57,-10882,-3025,3863
53,-56,108,-3201,-2180,9766
-70,79,100,-3489,-1471,9949
-84,24,90,1037,-1740,2592
-116,-13,108,63,-5101,178
-93,-43,-40,12784,-5890,282
0,-105,50,7751,-7125,-5155
94,48,46,11183,-12530,-11335
-111,122,113,-3791,-10978,-17630
-1,-39,85,19805,8625,11672
-118,98,31,-22850,-1667,-8360
-13,-102,28,-1443,4382,2115
53,45,-109,9943,2129,3246
-49,30,126,-7327,-5081,-4212
-89,-70,-14,-451,-1592,-1600
-54,-87,21,5933,499,-397
104,-41,-128,6175,-1806,1689
74,-47,23,4425,-3493,3324
-37,18,79,-803,-5469,-1110
54,16,-45,3979,-3245,-169
-103,-71,22,4643,-1124,344
-71,-28,116,-322,-70,663
50,-57,31,-572,-892,-385
110,45,-28,-2794,-1066,-1176
120,53,-27,-2666,1306,-197
114,85,-72,-3999,722,-1120
-70,-115,25,-1776,863,154
-75,-82,-9,1941,1752,1929
-104,-50,93,-586,1318,1067
-59,3,1,555,2260,1550
-61,-21,0,1038,2321,1137
-96,-76,4,1807,1729,342
-67,90,121,888,-145,-41
-21,22,-96,-303,-1258,495
-19,8,-123,295,-1424,584
33,-120,27,-5617,2480,1030
-62,-126,39,-6096,1254,1030
84,-88,120,-8750,-59,-119
-108,68,90,-8904,-71,881
-98,-83,69,-8095,-1086,1270
98,85,1,-9785,-1555,3973
50,-2,-58,-7997,-1354,6842
-23,70,13,-756,-2016,10380
-42,-44,-70,822,-3052,4551
11,65,50,4362,-2435,3452
50,31,-103,6074,-6561,-514
13,73,102,7039,-6643,-5670
110,119,-14,19458,-12666,-8143
-115,-121,90,-9120,-9194,-20304
21,22,-72,6696,-362,-791
119,-109,71,14719,11750,8273
9,-44,121,-12746,-5642,-9235
-123,27,-17,2025,409,330
-122,73,36,7482,-421,312
116,-110,11,-490,-3018,-1255
-36,14,-34,2554,-3010,-877
-89,-57,-25,3536,-3189,-439
13,-46,-34,5135,-648,-212
-116,110,-9,7374,1232,2554
-117,-38,101,2516,-1372,750
75,-124,33,199,-1341,404
17,73,-118,1161,1157,470
-37,33,64,1163,2221,153
-65,22,14,2559,2482,345
-65,27,98,670,1522,-316
4,16,55,-93,1470,-758
103,-20,19,179,1477,-881
-47,-81,22,-206,966,-1360
12,-104,18,-110,410,-884
3,-120,26,-1162,-460,-1022
35,-108,-83,-1025,-279,-399
10,-60,-111,-611,-753,-166
-27,-4,-101,-649,-1366,-182
-59,57,-117,-860,-1332,-150
-85,82,126,-576,-1028,-73
-60,-123,112,-2464,3939,1282
53,90,-24,-4547,3271,729
-74,83,-52,-2588,3436,1070
-105,4,81,-9529,2074,-1260
126,-27,-53,-5230,1987,436
42,125,25,-7820,1077,-1490
-67,-20,-50,-5597,103,-937
30,76,-18,-4936,2122,1639
-64,-80,-92,-8022,516,864
-101,107,91,-3134,1844,2958
74,81,-20,-872,1160,3167
79,77,-6,-401,-353,1995
92,-20,-8,1166,-3250,1292
-120,-46,95,11799,-5048,82
116,-50,-13,12621,-9584,-5310
-74,-60,88,10499,-9374,-9292
-51,35,-74,1900,-10318,-240
59,-74,5,6501,3732,473
-8,-48,121,-5597,3680,-6550
85,47,-90,4517,432,2007
-26,-47,-41,-2604,-3750,-4761
-84,0,77,4676,-176,264
32,110,-33,-104,-1116,-1593
17,-118,-115,2814,-732,-224
43,-45,-52,3128,-611,1054
37,-9,43,-547,-1584,335
14,-78,-11,3767,-2367,-432
113,113,46,3497,-1082,559
15,68,90,3169,-1003,373
6,9,73,2179,416,944
-122,59,52,2942,671,1126
45,40,-109,2377,-572,527
-16,57,-17,869,-1579,320
-30,20,-24,-860,-1391,-127
-6,-24,-123,-293,475,-308
38,-62,44,391,2127,-630
79,-31,36,96,2279,-903
-104,4,32,-887,1781,-1169
-3,29,-4,-1663,1049,-1457
35,72,0,-3365,-1130,-914
-78,64,-98,-6220,2798,-2498
-18,73,-66,-5843,-143,-1893
-59,-19,12,-6362,1561,-1341
-22,-18,65,-2998,-419,-1156
1,-59,96,-7171,803,-1937
-64,-95,-37,-3311,1271,-991
-12,56,63,-8539,549,-2892
123,73,-13,-2344,709,358
-60,-58,80,-2207,1038,1745
85,-104,8,-7008,-997,583
-117,2,53,-9623,-807,1813
-25,119,-69,-7379,-65,4161
43,-122,-110,-3778,-128,3890
101,69,22,4577,-380,1232
-92,-117,-23,3259,-4337,-1239
-89,-71,111,10037,-3487,320
8,45,-89,21025,-7505,1660
-128,17,111,4235,-12878,-3568
-19,-54,120,-3148,-9535,-9132
-85,-3,-124,12517,3853,8230
-110,71,8,-16447,1871,-8827
89,-55,83,-2726,4435,132
-18,-43,109,4690,1670,-473
-9,99,-99,7028,-3526,-1070
55,-48,-8,5677,-5262,266
110,-115,115,2661,-4273,-555
41,-65,-63,3509,-2981,-718
122,16,29,3456,968,1124
-104,-72,109,-635,-476,-438
-58,41,3,-355,645,70
-123,86,51,527,1672,281
101,77,42,-1524,1225,-545
115,62,-47,-1023,981,-167
-124,94,-115,-672,638,-132
-81,94,-94,-394,249,-17
-101,102,-127,195,629,307
66,-110,25,-857,951,-690
84,-83,127,395,-1012,-168
100,118,-85,904,-2054,-695
-95,85,-85,2024,-321,355
75,-49,-39,-3835,3111,-760
5,-64,-127,1203,2591,1009
81,-57,98,-6329,557,-769
73,-126,85,-1799,3779,1407
-80,-109,-18,-7483,3572,1584
-86,0,122,-3578,4272,1421
37,120,-114,-7234,-824,-293
-27,-18,-46,-5682,3986,457
-30,114,-36,-5774,2702,822
-11,-5,74,-10529,3501,603
-113,-86,117,-12734,-1305,2288
118,98,33,-5555,-2570,6267
121,93,47,10351,-3152,7685
102,-77,63,-7350,-2941,-3517
-92,24,-6,16496,-6300,35
127,81,22,6521,-9623,-10777
-35,76,54,-1198,-12695,-19150
47,103,59,-1249,-876,-21058
87,-59,19,-23307,11830,-30077
17,30,-120,20021,-1427,-26633
76,-57,57,6625,1815,8485
54,-92,27,20514,-113,2789
-102,0,-42,-4490,-6436,-3894
-89,91,19,-3868,-4946,-5956
-84,-35,-115,5736,2183,940
-105,66,-1,4764,-459,-126
41,127,90,2968,-1566,-129
-76,-32,-10,1963,-3312,-1544
-5,77,111,808,-809,-984
-80,65,-6,3961,2490,992
66,46,-107,1752,1440,-198
2,22,-80,3311,408,701
-44,-79,-22,147,192,-594
79,-78,91,-659,1436,1
109,-6,81,-1514,847,515
118,19,54,-2476,160,-162
-94,53,-95,-389,1024,-115
-91,39,-89,-1175,1411,-771
-6,106,85,-1368,2203,-416
54,-70,77,-679,1604,-75
-116,-114,-99,-3499,4987,208
-115,-79,-96,-2196,6537,1069
-65,-70,-125,-10147,3469,-1315
-19,-96,14,-10224,-385,-400
-76,-70,101,-1877,-1862,789
-123,120,45,-8824,1118,1466
-73,97,-84,-12299,846,699
-73,-11,107,-20001,-4191,2041
-67,42,-102,16568,-2315,6751
51,64,8,-7060,-1628,-136
-3,103,91,13445,-2231,4089
-98,106,-5,5915,-7179,-5511
-83,-27,-93,19718,-13440,-12117
-75,82,81,-11874,-9775,-16273
-76,95,-60,6758,4126,-1263
-122,-115,109,23306,322,5947
65,-121,70,31970,-617,-13015
-71,37,90,10587,6073,7392
35,-45,58,17527,-3481,-2260
-102,106,-42,-4861,-8863,-3843
121,82,102,3132,-1611,-3071
62,-90,125,8231,-954,2497
-70,-76,126,-3172,-3029,-1835
-15,-38,-16,5406,1807,426
38,73,106,3773,1447,-346
31,37,109,3195,1219,598
-3,33,123,1881,1288,755
-5,57,101,2118,1622,995
-44,67,-88,1502,826,275
-54,45,-29,-748,-300,-1370
113,-67,-115,-2232,-182,-1854
-21,-111,-40,8,1721,113
-59,-74,57,-3292,-219,-938
-16,16,121,-3527,-1054,-797
-29,30,-12,-1050,-352,-125
-34,44,14,334,299,28
-24,90,52,1012,1093,424
-91,109,-99,-240,-387,99
110,108,108,-56,-259,40
-127,103,100,-251,34,-182
-63,-48,84,-6127,2227,-946
127,-49,14,-4670,1513,230
60,78,89,-4613,3197,749
-75,83,111,-5700,663,699
60,34,26,-3366,841,187
-9,-63,-67,-5263,661,-960
44,62,-65,-3642,660,-983
-125,-72,80,-4388,419,-210
-17,-72,-92,-7726,542,848
-30,24,71,-10550,-1513,1148
-81,-20,80,-9884,-962,3689
-32,111,39,8250,-200,7835
84,86,100,-4797,468,-248
-90,-11,-23,-589,-1980,2059
78,54,-15,4009,-1811,3656
-61,73,-33,3227,-2210,-424
86,32,120,7242,-3509,-1804
-5,-27,7,9128,-7531,-7375
2,-43,-61,3776,-6013,-12286
-97,122,-36,5259,-6319,-8967
62,88,-46,9939,860,9666
-10,37,-22,-14091,1592,-6476
-17,-102,42,-9851,3362,-5768
60,-68,-76,6517,4784,2571
-24,-49,48,13572,-2295,1268
65,54,-101,-2442,-6034,-2270
108,-26,92,2342,-1681,-608
-79,29,-86,6616,-25,1329
-125,-17,55,1793,131,519
62,38,63,7463,445,2140
-51,-69,78,493,-1297,702
92,-102,124,3146,830,1449
16,10,-66,2006,713,-97
-6,7,126,2159,1462,1059
-57,23,-70,367,432,504
-63,-20,-98,553,-308,-73
-3,-76,-108,1082,-300,-455
56,-88,-77,176,135,-589
95,-74,-99,-413,213,-552
127,-62,110,-1208,-250,-803
-90,-108,-95,-4273,3485,665
86,-54,-27,-6089,3312,500
111,-85,120,-7536,5667,986
-23,101,-3,-10973,3603,-674
110,-94,41,-6036,756,986
67,-68,-78,-5981,400,1025
-43,-72,105,-8294,269,2946
-56,11,17,-12562,-1041,3468
-71,119,110,484,-750,8360
-16,-37,110,712,169,2013
19,44,-50,667,-4251,-1422
124,-15,70,8289,-3817,-514
-87,-29,-52,12947,-6694,-5834
21,75,-111,8625,-11779,-12453
107,10,-9,-5953,-7664,-14011
-72,45,-70,7777,1725,-1432
77,-28,55,23478,7921,7804
-54,-6,-14,-29256,-1840,-11992
-102,-14,-95,5135,4055,4048
61,56,-115,18200,-1539,2850
-25,62,124,2761,-7405,-2173
71,-41,72,1688,-6092,-926
-3,-108,59,3083,-3841,-2300
-78,30,49,5361,880,-419
117,47,28,10385,-123,2090
105,70,-39,-4653,-4557,-2327
-97,-95,-107,-1014,1561,-494
76,-80,17,4114,4747,1719
-25,-86,101,-956,3429,-598
98,12,-34,2981,4117,1528
46,1,62,1549,2565,397
52,-25,103,810,1136,-430
87,-66,-71,-1377,-1321,-1342
-84,-70,120,-3515,-2243,-1571
-20,-62,-114,-2700,-1093,-607
-75,-56,52,-791,173,26
110,6,98,-794,-391,17
121,-97,105,-1588,-527,47
-122,-43,87,-825,-457,-33
115,-40,104,-489,-457,-599
117,-42,-102,-5844,2612,-305
96,16,90,-5221,2907,1127
22,84,51,-5344,5184,1187
-82,68,-24,-7512,2100,827
46,-73,86,-2824,117,1443
36,-113,7,-7247,1189,848
101,5,102,-5962,2469,1615
42,27,-50,-13949,126,1218
-52,121,-66,-4768,1494,6234
126,-40,-109,-554,3238,8059
35,-2,75,-3800,-4286,-897
-53,-106,-60,2663,-5263,-431
-123,-127,-109,16033,-6958,-1756
79,75,-98,8174,-10691,-13438
94,111,26,-8264,-10515,-21410
-52,122,-110,12480,3855,-2390
-13,-57,43,-31855,11776,23460
82,70,70,24436,-5784,-24426
-31,-126,102,5173,9744,10856
24,-96,-26,-28542,-1194,8765
-49,-76,-113,-17488,-13526,-4601
-107,60,2,3531,-3264,-3897
68,29,-45,10205,330,3863
117,11,-106,-5198,-4238,-2763
40,-1,-57,3843,637,-1665
29,107,47,6975,1409,257
-94,-34,58,1597,-247,-187
114,-52,-37,1871,1077,910
57,-107,-25,1150,1227,415
48,-117,-95,2320,2606,403
79,-89,-67,1056,3216,5
117,-72,-97,423,3361,-256
-87,-86,122,-525,2779,-779
-25,-105,114,-1274,1525,-1005
13,-109,40,-1308,806,-941
16,-119,-47,-954,253,-846
8,-89,-76,-651,-516,-607
-10,-51,-63,-829,-1451,-770
-13,5,-90,-440,-1405,-576
-25,33,-78,-969,-1358,-803
-46,-125,-47,-4691,2603,-15
-42,-26,-87,-4124,3190,817
89,48,-68,-7245,4429,40
-32,-105,127,-6077,4149,364
0,105,-66,-10419,494,-883
-125,2,-91,-8939,1443,1094
-93,-18,-95,-14519,-490,1126
60,-123,58,-14840,-1646,4995
49,-79,75,13148,-1118,13275
-18,47,33,-11859,-1405,-4568
-40,71,95,12225,-4787,1371
118,-90,-6,12241,-7042,-5222
-83,25,-45,13009,-12274,-9812
21,-115,34,-3135,-12644,-14216
15,-76,-83,-4507,-3354,-7726
-95,89,127,30038,15121,15858
-65,-94,-116,-32257,-2463,-15799
-10,29,-108,3863,1584,1970
13,55,-127,22094,626,3569
-32,57,-45,-471,-7566,-1638
80,99,64,-338,-6517,-4602
-123,-23,-115,3626,-3586,-3976
-39,67,-27,3285,-2100,-4531
-32,-104,-62,7183,1891,1746
13,81,-54,1208,905,-2283
67,109,-25,2266,2540,-1681
7,-119,-88,5816,4146,2134
-2,1,25,-3738,195,1063
61,-51,-29,-3578,29,1113
107,-55,-127,3585,3870,1645
54,22,96,2729,3920,345
113,-20,-114,-346,2788,-509
-99,-38,65,609,2562,-190
-75,-91,110,-1511,379,-1226
10,-115,24,-509,172,-628
-102,-46,-14,-994,150,440
0,-70,-20,1305,-354,786
-115,110,37,-276,-1083,-740
-41,-120,8,-1111,-738,-298
8,-69,-64,-1854,-552,308
-90,-108,-99,-5753,343,-1393
-48,114,33,-1254,2384,699
99,-117,-97,-4559,1707,-145
83,112,67,-4766,1967,-212
83,64,37,-7659,1787,-982
36,-40,-30,-6932,-362,-498
-8,122,12,-3033,-389,653
86,-81,-16,-7078,-911,-43
-82,-60,35,-5130,792,1747
-127,-5,-16,-10290,-1476,1453
93,-12,28,-5706,-567,4834
-44,-37,-45,2872,1418,6977
122,117,5,-4114,-4290,-914
-102,56,4,7469,-751,3017
-6,104,-106,7026,-3822,-811
39,-87,-125,6535,-4266,-5190
64,86,-52,8016,-9449,-9529
-118,-101,-42,2202,-5267,-15857
53,19,23,14799,-3737,-4927
-84,52,52,11431,2417,12637
97,92,-96,-24209,-854,-12103
-73,-61,-70,-13812,4710,-864
-89,0,-83,23491,5079,6737
-5,-112,65,18423,-3751,3037
-79,-50,-46,-1544,-10684,-673
89,64,107,-3212,-3079,-2868
93,-41,24,7334,3167,2178
-69,-112,122,2247,1182,-770
-43,-92,18,2872,1388,-240
106,-6,-55,3034,2584,1392
-21,5,7,-2317,1310,167
12,17,91,-202,1045,837
-28,-4,96,-532,-452,-283
22,-3,34,-400,-343,-774
83,-9,12,-713,-103,-797
-105,16,-9,-883,-142,-755
-97,22,-14,-919,-388,-960
-68,-5,-69,-894,402,-916
-58,-3,122,-479,965,-580
-67,35,-121,-890,21,-549
41,103,-49,-4108,4964,164
-30,25,53,-6541,4101,1239
87,65,42,-11182,5789,814
-41,-95,-15,-7524,4912,1469
38,-31,-26,-8723,1343,1718
81,-4,-75,-7135,-113,4905
69,32,102,-7913,-387,4447
20,97,13,-1854,-652,3063
46,33,1,3533,-3056,288
-97,103,15,12620,-5466,-4539
-99,-8,46,7134,-8872,-7574
-51,52,-22,-6822,-8784,-19325
-117,-65,-71,9544,-2955,-11930
-76,-12,61,25925,7744,20649
57,27,-52,31402,2500,-20531
-85,14,1,369,3581,4847
78,-104,87,28281,1172,8188
114,-100,80,-7491,-8458,-3914
-100,-97,43,-3067,-4337,-6214
121,-114,43,11142,1552,3046
-91,22,-109,1174,-1751,566
126,7,26,962,-236,-764
-56,84,109,3276,238,325
125,-124,48,925,44,-91
94,-38,-30,1187,458,-326
-73,-80,105,-175,2502,819
104,-37,40,-1984,-465,-654
-63,49,110,1416,991,742
-68,70,-13,-510,41,843
-93,119,-52,-1575,-151,567
-98,111,99,-751,196,281
-100,99,73,224,473,492
-106,105,88,103,172,467
-108,123,101,496,-215,581
125,-124,-115,97,-717,291
113,-117,-110,26,-608,-25
-116,101,-82,357,-488,-146
-76,28,-103,1086,191,55
-15,-47,-65,466,832,3
-29,-31,-51,-203,248,47
24,44,127,-6397,3216,251
-35,-1,-121,-5371,3881,850
-109,-35,101,-8406,2443,958
-102,49,-64,-9754,2748,535
-47,-80,-49,-13308,271,1446
-90,63,121,-13033,-2021,2786
116,-126,-81,-4093,-181,7912
-107,23,122,1936,200,3227
77,97,127,396,-2276,-84
68,106,71,2995,-1259,2287
-60,48,-44,1232,-2910,-213
123,-69,59,6003,-2428,181
-107,-104,5,6373,-4878,-4477
30,-34,-25,10904,-8098,-7616
-28,-51,125,5153,-8196,-11542
33,-24,71,1652,-6536,-10704
-5,121,117,17015,3670,9079
-32,126,-83,-9732,152,-5455
34,6,25,-12225,1853,-4215
55,28,63,8643,1222,2665
21,-52,26,10398,-4009,-563
94,54,2,2186,-5668,-1968
-60,58,-103,1038,53,149
-84,-110,107,-361,1003,309
15,109,-53,3719,456,748
-65,-15,-7,3077,117,715
69,60,-4,1151,-71,639
49,44,-85,541,-89,258
67,33,110,373,-185,637
68,41,60,-80,71,1103
69,35,-7,86,904,1160
78,45,-81,1541,1907,1581
91,72,-79,2064,2328,1617
91,82,-78,2065,2504,1644
-6,16,-46,3323,1875,912
-28,-112,-46,2021,-1025,-1129
-88,-98,4,-2073,-1867,-1196
61,-113,67,-924,138,33
21,53,-43,763,1568,302
-51,88,12,1695,935,272
106,-82,-94,-4493,2785,-294
52,23,-93,-6528,2093,260
-38,-89,50,-5237,3022,722
121,80,-107,-5704,3740,-191
85,-55,-46,-2803,3988,-84
21,40,-71,-3917,3365,-387
60,-26,-59,-6101,5141,155
-23,-47,-123,-8668,2447,61
-57,-55,-119,-1126,3466,3857
-113,94,84,-4699,2240,2431
39,-109,-49,-5564,-61,2214
88,-1,-18,-3306,-2084,1463
45,31,-43,6198,-4312,633
-50,97,111,9095,-6381,-1661
-123,-65,111,11996,-8045,-4063
51,29,36,3530,-10498,-9519
26,-61,-35,3699,-6384,-16854
63,95,-22,11192,-2966,2221
-62,68,84,3067,4891,4986
1,45,-16,-30774,228,-11240
-121,-63,74,-2589,8456,4311
73,-96,-89,-28256,1772,12770
-72,70,-16,-8147,-10976,237
69,98,76,-8948,-7737,-4898
5,63,36,7561,-79,303
-59,-3,5,5249,1760,1034
-59,88,121,7240,1455,1688
16,-79,-101,-710,-1979,-552
60,85,-125,-2003,-531,-213
65,39,-62,3077,1897,1471
-39,31,23,3213,1672,1266
-85,71,70,3661,1700,1341
127,51,-107,1808,1181,131
-68,-9,-99,1004,868,-653
21,-52,-85,168,380,-675
64,-89,-108,-106,134,-618
95,123,-127,-572,-148,-650
119,126,82,-1211,97,-518
-100,-93,20,-1378,257,-410
-85,-46,-56,-1223,214,-340
-85,-48,7,-5613,3165,300
65,94,-125,-4755,5229,-930
10,-51,-14,-5786,6812,-190
-98,-62,90,-7329,2182,554
119,-62,26,-5671,2755,1882
79,85,58,-10080,3544,1581
95,-10,52,-14976,389,3000
-121,33,80,632,-1597,8157
-37,81,113,2229,-148,3701
33,-52,0,2342,-3419,-1066
-1,-87,121,6062,-2660,-1608
125,-105,-23,14740,-10280,-8556
53,48,-22,-1516,-10741,-18047
98,-90,-69,12572,-4267,-13277
104,89,-98,26477,11657,28779
47,-101,57,29319,-3754,-19876
-48,-88,-13,-2682,7309,6765
119,-87,43,27720,2763,6587
52,-106,7,-6122,-9681,-2944
49,24,-96,-3303,-4436,-5720
40,88,-60,7310,1451,1760
43,-5,45,3756,-989,480
-6,69,77,370,-2540,-365
49,-20,28,3842,-1552,231
19,60,33,4126,-505,881
-31,-79,-12,1599,-2153,-175
-82,116,96,1696,150,495
108,20,86,1610,1298,-93
108,44,-10,2324,2640,771
35,71,31,1099,2246,433
35,55,19,170,1193,292
17,11,-10,-10,377,-48
42,-25,-43,194,-72,-231
82,-24,-41,13,-20,-254
115,-16,-44,-49,126,-216
-124,-8,-45,-270,-24,-377
-97,-3,-37,-728,-356,-260
-71,-10,-72,-823,-151,-101
-57,-3,-119,-440,155,-51
-49,29,-111,-342,74,129
-27,-55,71,4513,1881,1254
-51,-105,61,-4235,-935,-1641
25,-61,64,587,804,87
40,-95,-90,-616,-1,-482
95,-13,-3,277,-550,-172
-83,44,68,-1541,-657,-494
110,-76,74,-700,1306,-113
66,-118,6,-287,3180,-406
23,-107,101,-2389,3271,-316
-41,-97,67,-5033,4706,12
-95,5,57,-7209,5152,26
34,-86,-43,-4644,5956,-306
96,-105,22,-7365,3706,-1711
124,-48,106,-4929,3602,61
19,64,36,-8365,1771,-1308
111,-83,-123,-11436,407,1445
11,-111,-51,-7457,976,3946
-120,21,-96,-995,1172,6226
81,-52,18,-2426,-2884,-326
4,-112,62,3494,-3525,613
71,-22,121,4702,-2558,-943
125,123,-121,11292,-8177,-6045
75,-18,-71,9258,-7443,-11713
3,-54,24,1360,-12340,-14055
115,-113,67,6943,3862,998
-50,0,-106,22173,5252,5452
-48,118,-78,-32234,-3150,-9333
83,-83,12,10738,6481,5466
-21,-23,9,17043,-776,3366
122,65,79,-7145,-8503,-3621
-54,-18,89,192,-2589,-2967
88,13,-4,6451,1019,2037
-34,100,-108,2236,-2054,297
20,-107,118,3126,-2667,-1023
86,-86,39,4725,109,1574
-47,-98,42,1303,-1326,-52
-22,75,-69,2630,425,1178
63,122,-39,700,301,414
-6,56,-121,763,203,-171
28,10,101,813,268,101
-94,104,82,-4098,3867,65
93,92,8,-3098,4616,2
20,-62,-39,-7651,3247,-532
-31,0,-128,-4152,3721,-599
88,-36,-116,-8039,2762,-985
58,72,114,-3894,2200,146
1,22,3,-6905,1347,-696
86,-113,-3,-6608,1710,414
-99,-43,-109,-14311,-1022,1120
-121,-28,94,-8538,-887,4850
53,9,-31,2133,1894,5978
-125,66,12,-1903,-4828,-1326
-22,91,11,5361,-2665,1552
110,-90,-42,7550,-5923,-3097
102,-1,-65,12488,-7044,-4505
-98,59,83,2485,-10717,-12198
-53,-112,-27,-306,-5235,-16367
-48,48,39,8126,994,273
58,115,1,24603,3087,8329
-81,-107,19,31663,-3952,-15452
-77,-21,9,8661,8284,6650
35,-54,107,26565,-138,6253
-121,-100,124,-7238,-8768,-1092
27,44,26,-2471,-6280,-4260
-29,-56,90,6500,21,1941
-116,-48,60,3812,-2663,-2054
118,-125,75,3067,-1784,-1504
75,-19,1,2256,1898,303
-102,5,-64,-413,3185,143
96,10,103,-554,2539,573
63,-7,0,1214,1934,1061
27,-19,6,1359,1496,531
52,-27,14,1003,1267,113
110,-40,32,555,877,-112
-94,-32,54,-36,110,-461
-79,-69,52,-603,-729,-599
-46,-113,-34,-2067,-1356,-516
1,-88,116,136,96,105
-10,-26,-80,925,343,598
-82,34,11,-277,172,231
27,124,87,-3610,3261,455
-60,-127,-47,-2922,2505,-502
-82,109,26,-5067,2750,154
-119,79,22,-6677,1423,59
-75,-38,24,-5487,1012,1272
-102,-27,-49,-7340,2820,1313
-14,23,-114,-9931,1178,332
-40,-17,54,-6240,450,2951
-15,36,9,3055,1117,6449
-119,119,-15,-4461,-2695,1803
-56,123,70,808,-1767,4091
-103,-53,-12,10420,-3397,4616
-106,72,67,2134,-4767,-1316
-89,13,-115,10068,-4111,-3492
36,-8,6,5915,-8602,-8415
85,18,26,-1716,-9409,-14963
65,106,16,550,-2527,-19233
-21,34,88,24844,3688,16017
29,99,-69,-26296,3171,-9212
76,-59,-85,-18332,-322,-5354
84,84,19,16804,6786,9439
88,-95,-82,17319,-4016,-1866
-62,80,49,-3864,-8863,-3464
-38,-47,-23,1479,-2029,-2394
-34,-35,-106,6665,4795,2417
-98,101,69,2881,1387,1654
-95,-99,-15,3806,1079,2218
-2,113,17,1078,799,622
-2,121,-92,684,1375,1044
-42,98,89,232,1234,905
-56,42,-30,1262,1714,690
-48,20,-18,1162,1365,390
-32,-1,-8,704,757,168
19,-28,-16,1014,293,-215
55,-68,43,971,-461,-706
-90,-91,98,183,-630,-252
-77,-81,93,-288,-382,-9
-60,-62,109,-1106,-174,-381
-10,-74,62,-577,789,-245
-18,-68,56,-761,4,-232
-57,-87,79,-5684,2392,-423
-23,-13,96,-3892,2409,737
-9,-20,33,-10380,2819,1115
118,-119,117,-12205,426,2478
-114,65,-86,-15256,-825,3713
-71,115,102,12298,3036,10740
-30,-65,-99,-5171,-3432,-2516
99,119,-120,767,-2168,1245
-29,-23,-77,4143,-2459,1101
69,37,-88,5894,-3656,-2781
88,-98,25,8887,-4746,-6308
-115,76,56,17049,-11925,-12578
-30,12,104,53,-10801,-8150
65,20,-6,6620,1907,412
-3,58,6,-10896,3144,-5025
62,32,-89,-15930,1426,-2453
-90,-33,71,12915,2004,3058
-79,-66,-41,10967,-3434,16
-12,2,93,-6059,-6414,-3808
57,116,-68,2410,1435,-793
-2,68,8,3783,771,133
-56,73,85,1581,-87,1100
-58,23,103,2256,-431,1288
-74,89,88,2875,391,2307
38,96,-92,1067,-582,427
80,41,37,2581,228,812
58,80,82,1737,423,608
27,83,80,492,308,17
35,34,-3,616,510,-288
74,6,-24,1425,658,237
72,-22,12,1038,95,173
70,-42,21,389,-57,-37
109,-39,18,75,-75,-125
-118,-33,18,-53,-105,-126
-108,-35,-2,-404,123,-385
-94,-27,-31,-601,280,-341
-94,-1,-51,-2110,-716,-532
-68,16,62,-1758,-864,-330
-77,19,11,683,363,136
-107,63,104,161,44,-7
-63,-10,-30,-5275,3424,726
92,123,107,-5265,4506,-116
15,85,90,-3289,6171,643
-69,46,3,-10492,1518,445
57,-101,-1,-6874,5513,2576
85,40,21,-12539,2520,-166
1,115,74,-13222,878,4407
35,76,50,-545,2038,5813
-34,-84,-50,-355,326,1589
86,-99,-87,-2576,-418,1594
50,-69,40,4317,-3974,1217
-90,-43,48,9719,-7502,-4414
-30,89,79,16301,-12039,-11507
-82,102,23,3449,-8609,-17577
-19,40,-33,-1083,-7880,-14017
-68,73,30,31581,13440,20933
59,-18,62,-30268,-1990,-16429
-122,88,-125,1820,880,3499
101,-96,-50,7294,-784,-592
57,-49,-58,1821,-4033,-3218
-126,99,-92,3619,-1892,853
84,-123,-38,1220,-1849,-2359
-102,89,95,3899,1530,3237
-13,98,-65,5038,-2755,968
9,-98,74,-266,-4430,-1288
-24,-56,122,3654,627,732
88,117,-43,-1037,644,-730
70,62,6,1892,810,355
39,30,54,2094,175,371
14,8,70,1386,881,231
6,-14,48,1586,1481,70
9,-19,77,1038,934,-193
53,-28,107,-432,-102,-741
-109,-76,49,-1344,-160,-521
-68,-108,-64,-1324,318,-314
-70,-72,101,-2154,-492,-285
-103,21,55,-1742,-1143,-53
110,57,15,-2477,-1476,-923
-124,119,-81,-270,-253,-237
92,111,-36,438,170,-704
-10,115,54,-4628,5379,-235
-3,7,-121,-5241,4545,297
-102,-81,84,-5729,6072,-1769
-27,121,-40,-5860,5450,-2321
-92,60,-58,-7833,906,-2539
56,-116,64,-6567,2902,-942
79,102,110,-11630,-505,-1608
-55,114,35,-11815,313,1608
124,121,12,-10387,-1780,5099
96,8,-113,-4572,-1106,307
-32,118,-51,7183,-3145,2844
-104,-122,-24,7601,-3862,282
-72,10,-78,7184,-5186,-3399
-91,-117,-5,13743,-8798,-5925
-112,-83,121,7218,-11991,-13444
-16,103,-71,2202,-6414,-17722
-6,-98,-73,20191,2999,14410
-67,-8,-102,-29661,2328,-10217
99,21,-26,-16734,2229,-1357
-56,36,-49,8922,6654,4914
-113,53,27,21786,-365,3873
103,77,127,-2775,-8885,1247
-75,-102,-72,-2225,-4882,-2917
-117,-74,71,7156,172,1010
114,-73,65,698,-2650,117
-39,-96,-83,4764,-398,-470
94,-75,118,5634,2825,2617
62,-46,90,-2953,312,-499
112,-124,103,1248,625,1423
22,41,88,476,123,290
44,2,4,831,569,301
64,24,26,874,495,830
31,11,38,137,130,351
69,-3,-16,273,472,-204
126,2,14,768,23,-356
-103,-11,61,96,-490,-571
-60,-32,34,-518,-6,-668
-24,-26,19,-2160,-676,-420
37,-27,-82,-2420,-981,341
-67,35,12,-661,-194,321
123,-37,5,-4927,3447,-21
47,-1,11,-4516,3213,153
3,-80,11,-4069,3304,330
95,-68,-61,-9763,219,322
-68,126,-91,-7379,691,-193
-28,93,48,-4064,1995,2395
-93,-67,-15,-9609,-269,-57
-7,15,-34,-9361,-525,2287
-39,-20,-14,-7061,-304,5338
58,-108,-21,-2957,-1118,6436
110,-75,-113,415,-2457,879
73,75,-121,528,-2462,233
-126,78,64,4610,-3463,-891
-108,124,77,15012,-8354,-4730
-101,-110,-48,7591,-7772,-9480
56,15,38,6408,-10355,-12531
-10,-30,69,296,-4581,-4237
-17,-39,-20,23867,7976,10993
96,123,125,-24362,-705,-9675
-100,-32,75,1923,4252,3096
82,-128,-91,10083,957,285
-28,-58,63,-2944,-3638,-3121
9,-50,-68,2229,511,-586
-116,63,-78,2410,-454,-1396
-82,52,-83,4042,-1140,13
99,-61,-30,2789,-2531,790
84,12,58,-415,-3655,-425
95,-51,99,1805,-3888,-891
8,-109,-5,-70,-1748,-2339
108,-2,52,2025,-1170,-648
-11,-107,100,124,-1458,39
93,-99,43,-1779,-894,-496
69,-124,-66,-1540,208,-764
105,103,41,1035,2449,286
60,-121,80,1975,2045,700
52,125,-97,453,826,342
89,109,-109,160,528,335
-122,93,-125,167,593,454
-81,122,115,314,651,703
-122,104,-128,168,320,229
