AccX,AccY,AccZ,GyroX,GyroY,GyroZ
-86,-96,-96,-1270,11057,1255
-30,9,58,-9644,5021,2599
9,-55,25,-18599,-5330,-1353
-117,56,-82,-13509,-9112,-2098
67,79,-10,-26833,-12011,-4067
33,-72,-13,4914,14012,1455
-109,9,-44,-14985,-7980,-2605
93,46,-33,8629,-11698,-25614
65,-115,-101,11712,7134,13831
-60,-59,19,4982,5921,-4210
-85,-100,-117,-2889,17267,-7537
-122,22,-61,19733,-14120,-19866
-63,103,-124,-10560,18966,-25725
-9,67,-41,-3792,-17493,-5729
-20,-71,42,-10571,-1597,-10624
53,41,2,18101,2525,7362
-22,-100,70,-4223,-3319,-1443
12,7,-70,-11415,-5257,-5415
107,115,42,5433,1241,3355
-38,126,89,-205,439,2352
10,-29,-87,-5439,-2757,575
-41,101,30,-4076,-3042,1663
-82,84,-40,116,-2444,2387
-118,122,94,-1516,-3037,2667
82,-66,-93,-419,-3382,2465
-121,124,-99,-1535,-1454,1022
-29,-88,-21,-740,-2509,1329
-9,-96,-40,-361,-525,1136
4,104,13,-387,-820,-219
59,101,-51,1530,736,532
40,60,-8,-163,442,-408
63,67,-69,497,605,-187
80,45,-69,-382,84,-254
71,48,-110,-121,-268,-387
105,54,-126,72,615,90
105,36,-122,185,93,-102
111,31,-122,146,12,29
125,24,-127,585,339,123
-127,43,-68,-68,-93,-12
-123,45,-94,176,-9,-43
77,-27,-83,2105,5442,943
26,-3,-33,2127,12546,145
16,-9,109,-8746,14420,2266
-127,111,88,27883,-17910,-2921
22,24,-119,-2679,-30449,28669
-66,9,20,-15232,11403,10299
-118,60,122,-11955,-2248,14903
-120,100,-91,12330,-18562,28043
73,-9,26,738,11613,9782
-47,-47,-60,4606,22742,10069
-49,125,-46,-7680,14161,-7487
44,-111,-84,30763,-12433,1618
98,113,96,-31785,-14503,-6109
93,-74,-13,13161,580,569
23,64,86,8000,1699,-6070
-86,-9,-57,11814,-2166,5468
-104,99,43,-7130,-4673,-3840
119,-9,-116,-10499,-4958,-7389
7,4,-31,5591,2274,3355
106,-87,66,2015,505,1956
-74,-109,-44,-3935,-2139,-168
-128,-23,7,-2058,-1369,1979
56,64,73,-2250,-2783,2801
-86,97,113,-2557,-4275,3206
-87,-126,105,-2485,-3547,3709
-96,-106,-72,-1164,-3005,3419
-74,108,2,-1634,-2268,1649
-25,102,-14,-563,-1097,848
25,125,-55,625,-331,1653
-26,60,-9,-649,-2149,-238
51,50,112,2246,-308,63
-128,55,-65,2080,974,631
90,9,30,-1260,-1013,-621
120,4,112,419,-172,-39
-123,-21,50,2282,585,675
125,-41,-110,1090,-28,409
115,-48,-104,-86,-159,-206
-100,-56,82,178,175,32
-98,-54,70,446,363,176
-95,-57,82,244,226,-48
94,98,62,2304,4786,1703
-128,127,50,972,5818,-316
120,-65,-80,-1722,9067,-2129
34,-104,43,-1811,14854,-387
-3,60,73,-32150,-12955,-3894
119,58,90,-11780,-6680,8851
-32,-79,123,133,6695,7618
55,-66,-22,-4281,9490,-1125
70,68,88,-25887,-9283,-15449
94,44,-97,1263,-7520,-12005
19,-74,91,2925,18820,18014
-97,83,-97,-2258,15699,7062
-44,64,37,-19580,1734,-6322
76,-50,21,10246,-10588,15267
78,100,109,26896,-21456,-5528
-30,30,-117,6691,-288,-854
-61,-32,88,5807,454,-13754
88,12,-24,14677,189,10729
-11,127,-108,-16234,-8522,-4616
93,120,55,-12138,-5097,-4180
73,-99,63,4032,-661,2482
-21,-81,-66,-424,-894,3414
-12,-15,91,-2494,-3317,2436
100,81,81,-2036,-4679,2645
91,112,108,626,-4473,3392
74,77,-26,-130,-4316,1758
-124,-124,22,-918,-3149,823
-53,102,-113,1979,-220,636
49,114,-23,2630,1148,1428
55,98,35,819,-405,1124
52,116,-39,1087,-126,1706
3,44,-77,306,-162,405
28,26,120,863,538,107
46,-9,124,149,399,-334
88,-34,82,-339,487,-522
119,-27,51,203,499,32
125,-31,42,674,466,201
-128,-36,80,36,24,-215
-104,-39,54,168,176,-66
-101,-44,47,288,113,63
107,62,-21,-612,6474,90
86,-59,77,-2129,7188,-4158
94,-30,-43,8589,14272,567
-97,-11,20,-6802,13086,-1602
19,-70,-117,23526,-16975,-861
112,-20,-62,-1625,-15752,-12177
-91,-54,76,-16316,-1042,1588
95,-44,-53,-19995,-7458,-863
-76,80,36,5260,-11709,-27356
-55,-106,10,18561,27259,30280
51,-69,-70,-6102,12830,-15247
94,-51,-101,-19828,5105,-5568
40,-92,-65,2976,-24006,-1560
22,56,-45,-24640,-1783,-29176
-39,35,103,27008,-25662,30472
-49,46,118,-30206,22473,-7409
-14,-97,-29,11814,1379,28377
77,115,32,-24454,-10601,-13038
47,-75,-40,-18353,-1304,-10439
-83,-90,-51,17890,1650,9918
-96,-54,-82,-1853,-1661,109
29,-37,125,-6768,-3340,2549
121,94,-57,-2452,-4517,3764
57,125,0,-2316,-4250,3539
91,121,71,-123,-3478,2981
-111,-74,-84,-122,-3043,2888
-95,-89,20,5,-2761,973
-38,-116,-32,1163,-930,-183
29,-91,-78,3060,1228,1165
3,82,-2,-1,418,-180
14,76,-122,1499,918,352
48,19,-94,189,470,8
44,29,-118,-384,134,-85
70,13,98,-833,191,-394
114,34,41,291,642,128
113,19,60,25,575,-192
-122,11,44,493,695,-68
127,31,71,-75,300,-30
123,11,87,-362,-387,-642
-84,12,34,534,303,225
-64,-118,122,5846,8574,5198
-48,11,-67,-3639,2187,-8323
-23,17,-97,9010,14635,420
110,-128,-55,-18788,8628,-3251
-33,-110,0,-24812,-7641,-8016
92,106,-71,29962,10692,12304
-105,21,75,-4464,4202,-2253
43,8,60,25962,-18842,-1128
-55,-102,-59,-29845,-6067,24754
10,-63,-78,-7933,20828,29481
-67,-83,126,-325,20492,14500
50,-124,-49,-21166,3882,-17252
-3,25,67,20311,-17499,1071
-22,-22,112,20779,1757,-30031
96,7,-60,-3406,-9230,-21986
5,-28,-94,10693,2351,13840
126,-76,87,-1461,-1187,1679
74,-103,-80,-17960,-9897,-6430
14,63,92,1592,-5073,-1483
3,89,59,1698,-1755,6396
-35,10,-116,-4165,-5175,3353
25,90,-127,-3486,-6750,1614
96,119,123,236,-4041,1333
-37,-120,5,1097,-1941,1786
-19,-115,34,957,-673,1013
-4,-121,-33,879,222,810
7,118,-82,1128,152,1029
2,113,-77,1477,-230,1074
-15,54,-69,750,-388,-29
7,32,-102,689,366,-310
49,-1,116,532,1111,-365
103,-25,89,113,1256,-276
-126,-9,73,-162,884,-127
-112,-2,51,-35,692,-116
-96,-8,31,296,471,-187
-90,-18,51,373,-44,-130
-81,-20,55,309,-104,127
-91,-16,56,277,4,183
-90,-9,54,548,110,213
-98,-12,65,475,139,89
79,115,17,-1092,2712,-4567
1,42,20,6788,7627,-2553
79,94,-12,6897,14785,-2030
-82,-111,82,30875,326,-3849
-100,19,-109,-25836,-2066,3785
-127,19,-110,8750,-9772,13952
-97,-61,-39,-8878,13955,-4182
99,-95,-30,28491,-7807,-31640
-73,127,-104,-2468,-12682,-11461
23,58,-120,-935,25060,29536
87,-27,70,-10730,18076,-683
-64,30,-26,25954,-19212,-11028
88,47,86,-30017,5857,29978
-43,124,-54,2322,-14752,2180
112,60,-14,19020,-6197,-8733
43,-51,27,3872,2389,12633
-128,-100,58,-11338,-4568,-4727
70,80,112,-10459,-4089,-4304
98,-107,28,5345,-1428,4403
-105,-75,99,-2816,-3557,5137
78,-120,-103,-4682,-6308,4244
-81,-54,-73,-2148,-6013,3879
20,88,-49,-3346,-3463,-271
4,112,106,-1077,-441,-768
-53,-14,63,3971,631,2249
-29,103,-45,7359,1910,6391
13,-24,105,389,1183,4056
-117,30,64,-3245,-1479,-1900
34,24,33,-335,1273,-1932
-80,15,57,3366,3169,713
-71,-67,-40,-87,1135,-815
-20,-45,-91,-158,1460,57
-42,-69,-82,-683,-199,-488
-16,-39,112,-16,104,126
-38,-48,-97,-126,-655,-285
-33,-31,-91,-37,-389,-257
-38,-38,-77,-179,-271,-221
-31,-51,-112,729,379,276
-39,-48,-81,613,261,371
-57,-45,-70,183,-93,9
15,-94,-4,3768,5584,-2177
-122,57,-107,4644,2939,-4833
-10,52,-9,757,15758,-3208
-29,-1,103,31416,-3271,-4090
-109,-19,-98,-12511,-398,-7859
79,-39,70,5518,-1497,21181
-78,-9,-2,-20547,7917,-8693
-39,14,11,-15616,-14877,24065
78,-119,-115,9474,8210,10229
-50,68,74,-6828,18624,25895
-54,111,-111,25843,21107,-465
90,-37,-65,-45,12796,-27858
55,-94,-73,21862,29680,-1941
-16,-28,6,-2411,3870,18024
5,101,40,-13614,-16588,-11295
104,-27,-14,1922,-1621,-5938
-86,36,27,5501,4956,7791
88,-119,-88,-9958,-6117,-3490
-7,39,73,-5551,-4130,-2313
1,114,55,-120,-2434,4996
-14,85,-4,-3481,-4497,4010
-1,-40,100,-60,-4047,3522
91,-35,-18,-1854,-4732,2901
-127,4,-20,-507,-2606,1793
-8,-59,-61,-296,-1170,-31
113,-21,-85,2893,-115,1382
-121,-40,-14,3852,-160,2379
-57,-92,70,905,-727,825
-102,88,35,-2687,-1877,-1594
-25,105,110,-865,77,-1026
76,70,27,1017,1658,-19
94,49,47,1164,1920,154
107,29,70,873,1215,-14
-119,7,95,110,352,-214
-92,20,67,-69,367,13
-90,15,42,46,131,-29
-95,15,36,367,88,-23
-83,11,49,249,125,12
-79,5,47,455,195,85
-74,5,52,580,243,195
-116,-32,103,3727,4967,2064
29,-37,106,3068,4283,1105
15,-66,23,355,4073,-932
30,105,-95,-825,5379,-1372
-12,98,-65,-2013,251,-4060
-73,84,40,-5259,-2615,-7704
111,-66,-20,-1948,919,-5013
-26,-31,86,5793,10147,607
-26,98,89,-17903,1665,5398
-39,54,-15,12465,-7376,20320
18,62,-4,13671,3156,-2372
12,-28,100,-8092,1781,-2209
122,-45,-12,28651,-17605,6961
103,-116,-69,1546,-1207,30902
2,45,-107,1279,11906,23182
-90,-124,-31,-6548,17329,18651
-109,82,119,26281,-21315,-3741
-126,-64,126,-13041,4527,3108
-81,75,109,12787,-4157,4430
61,69,5,-6230,5275,-9176
3,-97,-64,-13606,-5538,-383
-44,-66,93,11458,-1182,536
120,-66,-69,-4852,-3272,-1673
33,-19,114,-4324,-5060,-739
-65,43,-62,-2789,-3345,1823
-27,54,2,-3419,-5037,1309
118,113,18,-406,-4300,3189
103,45,113,-903,-4719,2062
116,-120,-92,-1047,-3604,2198
-112,119,-63,-1073,-3078,10
17,-106,98,3567,-473,834
122,-41,-93,5538,971,2977
-14,-91,73,2558,830,2209
-40,35,71,-2778,-1248,-1347
17,61,-118,-968,-331,-586
62,16,76,-137,582,-398
81,9,77,-356,804,-628
108,23,53,188,840,-187
122,17,57,-63,433,-247
-127,15,52,-41,259,-245
-15,-90,-87,-3972,2196,-1704
-125,-16,34,-2559,3252,-3339
61,-89,69,11095,10263,1678
55,-9,60,2770,5722,-7880
61,-30,-57,-20790,11270,-6738
-88,-27,-24,31228,-13307,4762
67,-41,44,-31406,11087,5834
94,102,100,-9886,-3522,-4635
62,-7,4,27531,-21036,1888
-2,91,-12,-12610,-5036,27245
-84,-56,-22,-7276,23470,28264
81,79,-77,4715,15880,-9244
15,127,63,28808,-7297,-22855
-35,-21,-109,-25959,-2065,16002
-20,-10,66,16236,-227,28113
-99,-50,-123,-16045,-15872,-24013
33,5,97,28785,5566,4572
-43,107,120,-3359,1287,5978
-41,100,125,-25787,-10041,-11071
-90,-111,84,8963,-2603,-1702
-81,113,113,4274,2346,9461
6,-20,-87,-5079,-4096,73
-77,96,29,-1157,-3925,5434
34,94,-96,-3153,-5397,4642
37,-84,-55,-27,-5826,3752
-122,-64,19,17,-2673,1948
-50,122,-37,413,-219,-815
86,-81,-119,4289,2300,1484
48,118,47,1721,-308,1177
18,56,64,-614,-1712,377
2,29,-86,-408,-467,284
58,11,127,-748,1823,482
122,27,101,-254,2444,749
127,12,58,1891,2156,1647
80,-90,-110,1173,190,-229
-119,-93,-73,135,-372,-624
-64,-70,-113,197,-55,154
-91,-57,-116,-193,-87,-232
-96,-47,111,52,-81,-533
-64,-51,109,-66,107,-478
-77,-46,101,3636,-306,-5472
-32,-21,114,3551,15364,-3771
-57,93,-95,-30110,6999,-3196
-106,45,90,-21067,-5037,3106
-96,-128,-93,-4405,-16301,-1956
51,-54,-40,-2981,18747,16058
67,-121,0,-14342,-23239,15215
94,-38,94,-3937,561,-3827
102,-16,23,-4748,25063,31269
-9,77,106,-2202,17556,-7994
23,-50,-94,22027,-29086,-10582
-114,-95,67,23212,-10306,-12968
96,-116,-49,24615,24753,24750
75,-3,-32,30294,-9174,-17455
-49,-37,-20,3179,10359,19408
124,55,107,-2798,-543,-1511
-36,74,40,-21223,-9010,-5971
96,-62,-32,-1624,-586,-2469
61,-114,-120,8554,2079,8596
30,95,-127,-1700,-2158,3382
125,-96,-125,-3926,-6149,4315
102,23,124,138,-6771,4884
93,-79,-1,5621,-1140,5681
18,-44,-101,2198,2604,1525
32,-46,17,-5175,-3449,-1012
-65,-20,114,-2326,-1238,-253
-27,-86,-56,3022,3393,1077
-4,67,106,362,1102,-1572
91,71,100,396,416,-1252
125,30,86,422,35,-308
-124,33,74,268,438,654
96,27,110,-393,-284,213
102,41,56,547,94,323
104,34,87,374,27,-109
114,32,107,202,70,-254
-120,19,89,135,397,-106
-93,18,50,789,1103,6
-81,0,71,623,836,-46
-78,-5,90,-37,282,-87
-71,5,76,-224,-13,9
14,96,-123,-2990,3171,1227
-126,15,-5,-1790,4079,-1888
-73,-69,73,8958,9245,2421
106,-84,52,4957,6399,-3749
117,-66,-14,-7774,11029,-8512
-49,-77,119,-29116,-1747,-913
-127,-72,-69,-11163,-4277,-4975
83,65,-94,7278,-12650,-15264
102,61,-70,-1079,4975,-6041
89,-75,119,-15803,-6703,15495
-79,58,-121,22512,-15386,26843
36,9,17,7866,14677,14699
5,21,53,24037,16369,7032
115,0,94,-15489,4980,-30346
-104,-63,57,-23434,-2460,-14220
-35,119,117,17357,-11642,24743
23,-2,-100,-3872,-12854,30374
4,12,-61,3013,-9911,-24385
114,16,50,19328,4026,-11441
5,67,-41,3958,-3642,13484
46,-55,-28,-7611,-7620,-3701
-3,126,56,-8765,-6864,-8406
-48,53,-3,4045,3204,5117
-11,-13,54,-2994,156,3289
107,-1,41,-4753,-2386,5051
39,0,92,-3534,-5027,6295
-6,2,-35,-3293,-8015,3708
-85,71,-41,2362,-1351,3020
-18,-98,-107,57,-1141,-832
33,-86,70,564,-352,-600
72,-120,39,739,-972,708
14,111,-102,3010,1350,2147
-58,15,-13,-86,283,-1060
30,25,-91,-324,275,-882
88,5,101,-199,15,-501
92,-3,76,278,150,-126
99,-15,81,494,116,-2
101,-13,109,193,-64,-3
107,-4,111,-92,-54,15
114,0,83,-7,250,43
37,66,-4,-376,4922,1753
-14,96,81,1981,3850,-176
0,-41,105,-2904,-1724,-7054
-32,84,43,3281,3072,-1534
-25,126,106,-397,2257,-3931
107,-19,39,-8215,6408,-7647
-61,-64,3,-16501,1302,5002
108,-74,-2,-12947,-12638,24314
-80,-82,26,32664,-8671,-30230
35,-99,-13,10804,17254,17991
-124,-39,-108,27578,-24358,-12373
41,-103,33,25351,-12363,28030
-110,-61,67,-6678,23076,25420
-104,-69,-8,-10223,18320,-23
-35,-16,-92,-32290,-2190,-10160
51,-84,121,25279,-8780,-22633
-30,93,-117,-20519,-29571,-10132
-28,10,-67,-24988,-8906,-14868
116,-7,-4,13018,7771,8327
61,-51,23,6882,-263,3406
-3,-15,-81,-12195,-7957,-1946
-96,4,-22,-6160,-5675,-3391
58,22,-76,2034,-482,4728
112,-53,-10,1337,-650,6580
127,-39,-65,-2643,-3814,3824
101,118,-83,-2740,-4532,3346
-71,-44,101,-1515,-2555,2592
54,-19,-36,2251,-127,1845
53,-7,85,2553,2495,3082
123,-107,-115,-2359,-809,-406
-76,116,-37,-3754,-2075,-2375
1,-127,-19,3065,1722,661
8,17,-114,1401,690,-1422
66,2,-69,-1437,-521,-2499
-108,35,41,472,637,-125
104,9,85,-704,-303,-159
93,36,43,-411,-162,6
94,46,27,34,-97,38
103,35,17,899,500,454
106,14,64,843,435,341
-11,-100,-66,-2157,-1154,-5348
-98,-110,-56,1637,4626,-6198
80,125,92,6870,17589,-2800
-84,-78,-36,-6696,20047,-4332
-31,77,-63,18122,-16459,-17369
-118,111,8,200,-6323,-6910
-44,7,117,-17292,10057,2665
-77,-20,-38,23837,-25461,5884
-124,-117,-64,-28394,-12613,14557
-123,-13,-107,-17296,31548,-26782
72,-10,23,-14724,9448,5629
14,-19,68,-16193,-29246,6673
39,-68,122,-8695,-6473,11695
-98,-94,-61,5327,-10946,-3708
75,-84,-16,8613,6937,-3174
0,-127,-3,1302,2233,5760
-63,-101,24,-15397,-11594,-4122
126,-105,64,2607,-4134,-518
65,-127,81,656,-2108,3713
76,2,-112,-2145,-1157,1422
35,-97,-37,1474,-1674,5045
-101,-111,126,-1486,-2751,3702
-53,-59,-92,-2489,-5220,3631
22,-80,80,1934,-2913,4200
111,-63,12,-777,-2231,2805
-52,60,-13,1217,-1185,3372
91,35,0,1347,-347,3245
-42,119,25,-749,-1347,-214
-41,67,-110,585,-168,-852
22,36,-127,14,654,-1397
99,45,79,-12,1347,-918
-91,44,37,904,1417,274
-122,5,82,755,542,-21
-116,-3,88,114,586,-401
-73,5,71,-113,462,-469
-55,4,51,55,572,-505
-23,-4,14,720,953,-147
-15,-33,51,847,728,-23
-28,-36,101,-160,-180,-304
-25,-20,83,-405,-502,-167
2,-47,-78,-4087,1270,-4197
-106,101,-121,-914,4899,-2061
-79,97,24,3046,16790,977
89,-101,69,-12387,16868,4260
-16,-120,50,20560,-9912,-6397
82,5,-115,25316,-11863,20877
98,-40,46,-18804,-6938,3044
-112,52,-22,-31929,14060,-12745
61,17,7,-29006,-4244,-32603
106,-68,-35,5445,-30693,25451
-119,-104,-4,-8303,18275,-4982
-23,49,19,24423,-11339,-10359
-35,39,-117,-18266,-15714,25341
-2,78,23,-25552,-27530,-22908
-87,103,68,14276,5439,7444
-122,27,-16,8276,986,4864
-22,-39,-118,-17255,-8684,-5857
116,-121,-59,-358,-4541,-3120
-14,112,-107,4392,1402,5385
39,-6,-19,-2927,-1922,2060
-80,105,-23,-2450,-2565,2215
-68,-29,14,-2224,-2967,4838
-96,57,97,-1643,-3532,4409
-35,93,-70,-3000,-3448,4055
9,9,-116,-37,-1830,968
-124,16,-126,757,-425,1373
-60,65,-46,942,-1280,2172
61,29,-53,171,-1375,1259
-40,-45,-94,-681,-535,-590
28,-90,-103,-703,588,-890
85,-115,126,374,994,-93
102,-122,-95,-282,425,-422
114,-110,107,179,647,-682
-101,124,64,524,1008,-849
-42,104,26,1341,1615,-93
-53,66,81,293,855,-328
-28,79,96,-343,166,-187
-22,81,67,-250,65,-96
-28,75,65,-41,-42,-9
-26,66,46,759,305,414
-15,-124,-29,2352,6072,1172
21,120,126,-434,1010,-3758
103,-83,97,2181,1667,-6406
-32,-107,111,8349,5623,-3467
35,-84,5,-4888,14492,-9180
-67,-32,115,19735,-10789,-6015
42,28,-36,-10343,2714,3296
-18,8,-21,15533,8909,16129
59,-91,-88,-11333,8222,-7392
-121,-80,60,18422,-25725,8990
-46,-94,-75,-186,-9692,31224
-127,-85,-67,3423,-31598,20770
68,-39,17,-31040,12128,-21923
64,93,-112,-30967,-25142,-2567
-120,-49,87,-9242,-2092,11944
-45,117,-100,-3737,-13176,-10244
63,-115,23,10917,8450,-4522
-17,80,-1,-4693,-4074,2215
-27,109,-2,-6972,-3437,-2972
106,90,-83,502,-2832,-1020
65,18,53,1891,-3146,2811
93,126,-1,-8077,-3656,-1711
31,-56,82,2688,-2718,5180
97,18,117,-197,-3190,3697
105,-123,-13,-3422,-5069,2871
-106,-64,-46,529,-4586,2611
40,13,77,2521,-2653,3106
13,94,-52,1645,-1849,2390
-100,-1,-45,-932,-1869,200
126,-90,-3,1013,430,217
-72,110,-44,1043,1500,103
-24,93,-83,432,1705,-320
73,88,108,185,1843,-267
89,53,57,1243,1517,-152
125,-2,84,1138,768,-231
-104,-27,102,554,-3,-20
-106,-31,124,-173,-609,-28
-102,-10,89,224,-200,435
-126,-8,99,20,-253,42
-125,6,90,253,146,-14
-25,42,-107,1241,4838,1373
28,-115,116,-577,515,-5674
-29,-65,110,6784,3013,-4059
-106,23,-114,88,8018,-7713
45,18,-121,-10869,15422,-8822
105,54,-57,25787,-21426,23840
-98,-87,-78,-1718,-26047,16307
-125,-51,109,-2603,20956,24493
41,-68,-67,-16726,-20,6969
-25,104,-9,4326,-17154,20668
-31,111,110,-1654,14188,15123
-97,-110,9,-21478,6615,17967
-21,29,78,-15089,-5363,-2141
-121,52,73,-8615,9967,22621
32,-25,7,-27450,-1391,-19601
-31,8,-75,-4943,262,-7784
84,23,-33,24013,4872,23161
-40,18,28,-5834,-12299,-12783
-35,99,30,-18062,-8923,-4831
-93,72,-64,5469,-2918,-5273
-41,18,112,3046,1245,7453
65,112,-77,-2405,-2950,1683
-44,70,-97,-1424,-4594,3188
-103,-117,-65,-1362,-5280,3415
123,-96,-45,-1480,-4997,2267
-44,-91,-44,1229,-1739,1921
22,115,-35,1837,50,799
-112,-101,-9,1734,235,1637
94,-92,-8,1588,-176,1782
44,90,-20,528,-786,609
30,48,-94,860,16,167
30,6,-99,44,152,-721
81,6,121,42,870,-704
125,-13,110,-519,649,-663
-96,-6,69,324,833,12
-97,-38,69,330,635,-225
-72,-37,79,331,222,66
-79,-34,68,285,414,-21
-76,-31,78,-6,148,-148
-61,-23,70,149,-50,35
-73,-2,-102,335,3559,-3297
-11,112,-119,-309,-1859,-7382
-26,-32,54,2388,2518,-3373
20,-61,45,-6242,11368,-3466
35,-94,-11,-18015,9538,366
36,-52,-67,27322,-15485,7445
-40,-87,-99,-1147,-28643,-16025
36,-23,-11,14932,1851,13763
81,-97,-70,-21161,4223,-2781
125,17,-74,-15191,-16933,-30915
-43,98,-120,9714,18888,16800
97,118,125,17597,20706,6949
-71,-44,-70,-17864,4115,25749
-126,-16,-53,20551,-26278,-22381
1,2,-22,17115,5891,-25693
72,93,120,-4080,-10458,10512
21,116,-81,17031,-10991,-17362
104,-7,9,9470,-2670,6863
10,72,-73,-3199,22,2267
38,95,-46,-11329,-5177,-4524
-38,-41,-122,2100,-3014,-424
72,-29,-34,-502,-500,4147
91,-9,122,-4451,-4403,2129
-99,93,4,-1655,-4366,3819
89,77,-116,-1005,-5513,2625
-86,-2,-51,1362,-3805,1820
55,11,-100,5084,179,3989
-56,-69,76,-3690,-4187,119
-106,-84,114,-5148,-3241,-1485
-72,-1,-4,5261,3953,2736
-100,88,-54,2286,1501,92
-23,24,14,-1985,-610,-2042
56,53,105,342,547,-178
62,-10,-98,-594,-435,-951
108,14,65,846,822,696
60,-12,-120,672,-46,216
89,5,123,712,38,351
91,3,112,395,157,265
63,-5,101,309,130,-264
94,-5,124,-164,-276,-616
55,-41,-37,1482,7169,1904
10,96,-106,3697,11089,5949
20,104,-103,7676,-319,-6109
63,73,41,-7447,-3912,-13454
-123,17,-86,148,5975,-2467
32,43,-50,-12204,2860,-3273
-42,106,-79,-19242,-13364,21127
96,7,-117,-13265,-16940,-20109
60,-58,9,7270,5697,9264
108,27,11,-22477,5793,3426
105,-31,47,-7039,-19501,24063
-23,41,122,10034,9977,10647
-33,-65,55,-9769,13819,16000
-109,59,94,-24667,-6687,-227
-117,33,-127,713,-4933,-25181
-58,58,31,-25232,-5635,11339
-47,-61,-74,24742,-8542,16607
-64,-98,49,-17219,-4830,-14061
-17,-6,-95,-2222,-1693,-1092
-32,-112,-39,4108,2161,1873
127,-4,-16,-3511,-3125,-592
58,44,-14,-2071,-1582,972
-55,12,-108,-1063,-612,2754
35,36,45,-865,-2696,3447
-20,69,86,-3268,-3273,3858
-121,-99,91,-953,-3409,3631
-92,-116,-84,654,-2378,4709
-57,-90,37,-344,-2178,2930
-52,126,24,-398,-1336,903
18,114,-29,48,-479,807
25,45,-86,588,-435,644
74,26,-98,642,-703,831
68,25,-92,-66,-984,402
81,10,112,175,-415,145
109,6,60,2007,724,942
94,-36,-117,592,16,23
117,-50,-120,640,134,24
-126,-48,-104,392,223,302
120,-54,-112,-479,198,-418
-100,-55,53,193,679,-241
25,-14,80,4464,4030,-3619
63,-29,-63,3665,5908,-5337
-111,98,58,-15,8294,-6057
-67,-34,102,-16610,12696,-4334
-69,-22,111,22025,-14120,-1289
87,-68,-96,195,-31086,-22368
-99,18,99,2818,8899,7384
-103,-3,-114,-24713,2772,-397
-117,19,-121,-4418,-12402,21001
50,68,83,-3478,6966,10062
-66,-56,43,-13143,17005,21385
25,75,14,-21937,-13723,5913
79,-61,-69,9127,-6403,28047
-41,0,-96,1695,-3757,-29129
-32,-109,102,24160,12178,2426
59,-67,-81,-7991,-4439,-7724
-26,-101,-94,-13455,-9984,-1119
-16,36,36,9745,1239,-1292
-86,-18,-20,158,-1710,897
-14,-119,-122,-3481,-2169,-1748
-83,16,-86,1886,-494,2503
17,-69,107,-1288,-2437,2535
-94,55,-111,-2752,-3478,2243
116,105,64,-874,-3677,2599
119,86,69,1575,-3379,2525
-124,93,-109,2728,-1069,3004
-65,95,49,-1266,-215,2633
-49,-125,-22,-450,-451,2373
-35,120,-89,1695,546,2377
-41,45,-16,-833,-777,340
16,40,124,-254,-473,-113
88,14,82,622,-528,382
103,8,91,1228,-169,944
78,-10,-93,360,-762,312
62,-9,-80,-436,-989,-242
84,-22,111,573,126,13
98,-43,105,793,750,84
100,-40,-128,-21,424,-265
116,-28,92,-221,349,-248
-123,-24,56,-220,301,-379
75,19,-48,-115,5142,2203
-27,63,13,4113,7215,2548
55,-112,-9,4529,-1440,-6178
6,-61,-85,-5403,-3553,-9749
-120,106,41,3108,4533,-5536
124,-14,74,4987,16954,3162
-44,78,-32,-27726,6080,-8429
67,-69,32,7427,-12606,-5327
-114,67,23,22930,10476,1004
-77,-82,45,-11280,-525,-869
126,114,34,-29558,-19294,-7646
-4,82,66,25644,-9768,31422
-117,-103,115,-7835,23229,28732
106,-107,-27,-12223,14599,1641
127,62,87,-26685,-9680,1465
-30,-18,-9,16634,-4601,29498
-45,-69,-21,-32144,-3592,-13693
69,-25,-102,-3500,-11268,-14135
-125,91,83,8032,4475,8891
-98,-1,54,4708,-2178,1949
70,54,53,-11809,-7511,-3633
3,-103,-76,629,-3535,-2968
125,10,-108,1598,-599,3047
-115,-127,60,-1468,-2230,2825
-66,-34,106,-58,-3027,4238
92,-34,-45,-1507,-5005,3966
51,76,-59,-1117,-4876,3697
-104,84,-96,415,-1810,2703
46,-97,97,1539,1001,2394
88,26,37,3897,1634,4317
-38,-75,-81,-3953,-3224,405
-120,-62,-92,-849,-1549,-8
-78,83,76,1961,731,-15
-17,44,116,1614,1209,-139
6,-4,-106,513,778,-909
106,-10,99,101,967,-623
127,-30,76,215,635,-457
-119,-56,55,599,243,-221
-121,-58,104,-140,-371,-358
-118,-32,78,-277,-97,-194
-56,-95,64,-3503,2647,-1933
80,98,-22,-2814,2677,-2410
62,75,-36,2731,1970,-6059
-78,-100,53,9512,12443,5334
-38,-33,71,-6334,11373,-8186
-67,-8,31,24639,-12308,-7154
-91,33,-73,-8031,680,1911
57,-97,-3,-3382,445,2951
37,-124,1,648,6056,3003
22,-8,48,-23201,-16594,-18140
104,121,59,9498,6952,810
-52,-16,47,21968,26412,25336
-92,121,-102,-16468,9812,-22925
-127,-108,38,19647,-19838,-12599
-23,-89,34,197,8832,30902
-13,-125,126,690,-17717,-338
-16,60,-119,-3547,-4616,-9673
-115,-114,60,9740,1066,6169
-38,-60,119,-10587,-2694,-3544
-102,-88,74,-5880,-3761,-5808
90,-128,-101,5661,252,4577
-88,97,-127,-2615,-1393,417
67,-23,81,-268,-1472,2995
-111,23,-44,-2595,-2624,2907
-123,115,-48,-4565,-3849,3166
123,-36,-114,-1326,-3394,3756
-86,-128,-45,-1416,-3997,2314
-59,-93,-122,2370,-574,2186
-7,81,-43,-65,-128,624
88,-118,-54,942,6,1242
86,52,-48,880,-1164,174
93,64,-126,2349,-227,660
56,17,-58,955,-592,-209
47,5,-43,-173,-878,-392
68,-28,95,975,887,-43
98,-42,-120,508,959,85
103,-44,-113,-116,615,-128
124,-29,117,-583,318,-412
-123,-20,91,-597,159,-769
-93,-13,70,-165,350,-717
-104,12,-104,2627,1201,-4755
-70,36,-101,2322,5787,-2091
-15,39,50,-668,12607,247
69,-97,17,29812,-6464,-5696
-111,44,-1,18396,-2076,3255
-8,-46,-107,3270,-9244,-17885
86,-73,-18,-4884,12631,13507
-38,72,46,-2830,773,13478
-26,48,-3,-17001,-21790,-32302
-6,-30,34,-159,20747,30772
36,-79,-9,2719,21839,15165
-39,-45,-52,-29984,-690,-23156
-76,88,52,27133,-13600,26626
100,-36,-88,-31604,-11453,1452
75,0,39,-3613,-4742,-15743
-42,61,-113,10449,7227,14201
-64,-109,27,-9827,-8091,-3722
-100,109,-115,-10131,-4267,-9320
-123,23,44,9490,1587,3985
4,-16,-89,-665,-424,709
-107,105,70,-2814,-2567,1067
-12,11,18,200,-1231,4142
89,22,-112,-4124,-3431,1981
100,104,12,736,-2032,3879
92,79,-33,-1629,-3219,3336
52,-124,-63,-904,-3009,1105
-87,-127,-80,71,-2512,916
-6,107,-79,2650,-1935,1700
72,-119,-34,2615,898,3034
-35,111,65,887,65,1735
107,51,75,-1471,-2038,-762
-94,15,-77,-375,-894,-1689
27,5,120,218,670,-745
69,-1,101,215,1194,181
59,2,116,-862,656,-177
71,21,66,-299,469,-132
90,11,60,303,142,-195
90,1,79,124,-37,-383
101,4,93,-247,-156,-386
114,11,79,-291,-121,-327
37,-82,113,-2174,2615,-5024
83,-107,-121,654,6708,-1425
-63,-50,16,-2757,10060,706
-19,-20,-23,-25554,-2912,2821
92,44,-65,3751,-12289,17687
-35,38,-86,-28866,-28664,26692
-92,-4,19,-3055,8851,1831
124,89,25,-9155,5026,21245
81,-4,-120,-5426,-22483,10245
32,-100,6,2892,9650,5522
-85,54,-104,-1156,23508,28305
-72,-13,49,-2886,20099,-12060
-16,-89,0,32402,-5408,-19080
-26,65,-21,31783,-2008,-18572
-71,-109,92,2062,-27058,-11826
114,125,-66,15568,1697,-29326
104,-7,54,19952,20870,-30581
-100,36,104,-21573,-17680,-11836
81,60,-118,-10900,-3217,-683
69,-118,-26,7767,705,-672
104,-79,98,-2239,-414,1824
-96,-8,94,-1186,-2320,2023
-3,43,110,-829,-2957,3652
-124,-9,-82,-2221,-4776,1971
73,-119,-28,-814,-3959,3389
72,36,42,-1394,-4270,518
-73,11,-2,1681,-764,474
-26,46,64,1241,-1103,1496
-34,39,26,-509,-1099,512
4,47,-86,1688,-323,904
46,61,-89,2672,28,1748
-2,17,9,877,-1213,544
-39,-3,-50,111,-613,-318
-14,-39,-110,45,114,-736
62,-49,91,471,854,-192
70,-48,106,496,696,150
58,-48,117,-95,8,-336
76,-36,83,-106,181,-347
100,-33,80,-496,300,-405
119,-27,54,-484,325,-437
-117,-86,53,-438,5529,-3594
-88,16,-127,4278,14260,1498
37,60,-22,-9623,13597,-1954
84,111,1,19435,-24990,-5691
76,33,-86,194,-31577,-27565
-13,-50,26,-5709,9237,4502
18,95,51,-14822,13452,13076
83,75,-79,5352,-11217,26778
95,40,107,-15016,-5224,-8494
101,-23,65,236,14753,-28916
-118,72,-84,-13801,-10624,8231
-14,53,-25,17045,1210,25571
-106,-3,55,-14879,-2023,19949
-54,-80,-19,30658,23958,30894
76,107,-8,-9517,-5824,-20591
1,95,64,-23112,-7538,-2217
-82,113,-39,25447,-1953,1608
23,-44,5,-6533,-4818,-573
25,8,25,-6988,-4195,-2330
-35,60,95,5473,960,4413
70,-121,-88,-536,-1550,2527
-76,62,-30,-2561,-2255,2587
-50,70,-127,-1053,-1639,4057
-73,114,-31,-1011,-2700,3715
-73,58,-55,-845,-3164,2527
-21,66,-50,-265,-2029,2008
-14,43,-61,1524,-1187,1224
43,25,-42,576,-1290,398
125,34,-106,1659,-49,1399
108,41,-95,1959,958,1950
60,-27,-42,96,-479,277
67,-55,-95,188,-595,-80
81,-90,123,45,-397,-471
110,-97,100,361,226,-213
-116,-99,88,271,713,104
-88,-88,46,954,1339,526
-111,-104,79,694,957,118
-88,-98,94,279,456,-81
-75,-107,90,-53,-102,-373
-59,-112,68,100,-9,-241
8,104,31,-5875,-948,-4391
-73,97,-80,-5106,-2928,-6380
-7,21,68,-5551,-2623,-3892
-2,-14,-44,-7525,3229,-5350
117,-75,-21,-1484,17485,8414
-58,-94,-51,-21172,500,11084
120,45,-111,-24244,-2251,3108
-126,99,-70,20886,8671,-4087
-111,-89,9,14392,5411,6812
85,73,-53,23799,-27699,4957
13,-94,39,-30714,-3570,26898
31,35,-128,-7564,-29724,31265
-55,-32,-49,23733,-15668,-14361
-63,-82,-54,-2163,7311,5228
48,43,-71,4172,-6063,843
33,105,-56,-16639,5839,-17282
83,-103,105,14311,-1143,7533
28,66,-33,6896,1379,10357
-52,-16,79,-18121,-12995,-8468
-83,-105,-124,-2787,-3441,-9590
-37,-111,67,11077,1620,10809
61,-31,-33,-5088,-3222,-895
51,104,21,-4302,-3276,1840
12,-60,0,1649,-1903,5727
-56,-58,4,-1299,-3267,5863
-100,-59,-8,-2020,-3315,3832
-41,-39,-5,-187,-2015,2049
9,-49,12,1338,2,768
25,124,-2,175,82,-406
84,66,116,795,835,-244
-111,40,96,660,531,346
-74,22,90,958,-210,919
-90,9,126,480,-787,752
127,-2,124,-88,-601,-12
-117,-9,91,-345,-128,-249
-109,-15,77,-411,-111,-297
-99,-1,57,-461,8,-174
-100,18,36,-56,111,-30
-101,12,37,320,146,-19
-100,6,44,263,207,-159
-50,81,-124,-936,6683,3596
-125,44,86,-171,2169,-783
52,-8,-109,-2468,5115,5892
-71,25,28,222,7185,7618
51,63,-71,-7229,1538,-1295
-49,-41,31,-3243,-1716,-26362
34,-20,-23,-4144,-5040,-27194
33,-70,59,-3352,5949,7447
92,-61,6,10021,37,-24099
-60,123,48,31714,-17829,3006
103,-12,54,-27719,-1302,-28498
111,-123,-1,2375,16857,-25156
-52,16,-88,-14412,-7215,19229
-94,-13,-77,-4170,-1737,-25682
65,-40,-14,5466,-13799,17927
100,-115,-121,25268,11154,5630
-98,61,-73,6535,6078,4755
71,-69,-14,-23546,-15560,-6304
-123,26,48,14520,-2042,2577
-121,55,9,-3135,-3618,-3418
26,-2,95,-5917,-4420,-2574
-43,90,13,4663,775,3227
27,121,-111,2902,-294,3435
-60,-76,67,-2017,-3196,1568
-77,27,-97,318,-2861,2750
-74,-5,-24,1174,-2563,3052
122,-11,19,-38,-3197,1866
-51,14,-14,618,-1079,1366
34,45,-21,959,169,1937
107,107,-95,1335,3199,3261
78,-117,-106,3008,3996,4557
-33,52,21,1829,717,3037
-101,-114,29,-565,-1404,-1353
-21,-108,-49,-351,-1278,-2103
79,-74,-63,-1570,-1197,-1961
-105,-37,126,-1074,1144,-333
-125,-58,114,-640,1302,-577
-116,-52,96,940,916,-29
-103,-64,-96,95,364,-498
-70,-46,-96,-352,59,-375
85,93,57,-4093,2479,-3334
76,-101,-48,6077,6732,1622
104,-106,-43,-1464,8385,-162
-27,-69,-101,-10353,10084,3999
114,-53,86,30728,-18904,-11307
-86,-5,83,-9446,-13050,-3265
81,-85,-3,-6321,-269,-2879
40,-17,32,-9090,14850,6120
-67,-37,13,1880,-16424,31157
29,70,72,-3522,2981,-444
39,-3,55,-2952,20976,20946
-47,-25,-57,-21816,4429,-2051
-66,41,-70,5022,-21351,23952
-14,108,20,-21646,-24335,24943
-116,55,-90,24144,31834,-27488
-87,0,-69,-8334,-19213,-14718
115,49,-81,-20927,-5429,-9708
-56,20,-105,14629,597,4755
-106,17,41,-1396,-840,-160
-42,106,-99,-7308,-3919,-2384
-85,-3,63,2156,-792,3521
8,-104,46,-1200,-2326,3852
95,1,-112,-3125,-4292,3427
74,-114,-119,-697,-3944,4639
116,122,-87,-621,-3293,3264
-47,-62,-40,1368,-1019,3158
-37,117,-48,-245,-1047,614
-106,-81,-70,2201,-762,1094
100,-54,6,2330,34,2315
-8,46,1,-2170,-863,-818
67,51,20,1123,411,469
69,-11,69,2428,112,872
70,-42,-93,918,-272,584
61,-31,-81,341,-147,514
38,-44,-90,-523,-297,-514
82,-44,89,195,764,-394
123,-77,115,-776,516,-1158
-82,-49,31,-34,1100,-282
-72,-57,42,-151,659,-255
-67,-35,28,-3,303,-90
59,-9,35,-2487,4795,793
6,-6,-29,-184,7997,5236
59,-106,-49,5455,4977,2953
-83,-76,102,6075,3109,-1750
18,-19,56,-4980,-6991,-16259
1,-63,-95,6544,1614,-4128
56,-39,-54,-5199,-108,-4333
-66,33,-107,-7447,16367,11683
106,-38,-82,20618,-11502,-7337
36,-45,-55,-7750,-11446,-13196
-75,-40,-75,9587,2874,10295
92,-29,77,-20123,11167,-1349
34,99,-48,14197,-17910,25968
-101,-104,-62,11609,18759,25248
44,71,-30,-2965,23421,6678
-106,-1,-81,21410,-23808,-16485
106,111,3,-1599,14675,19590
35,92,-18,-4235,-16538,-452
108,-20,3,-9574,2339,-17053
-88,-26,-99,12619,1880,11398
30,37,63,-2571,2071,1432
58,-105,45,-9203,-7546,-4555
22,10,-72,548,-2978,-3237
65,1,-30,2494,935,6174
7,99,-86,-4557,-1798,484
2,77,41,-1846,-1538,3015
-113,72,-128,-2889,-3168,2038
-90,-56,117,-2211,-2544,4305
110,-82,-61,-2401,-3753,2549
-90,-77,-49,-340,-3824,1931
-4,-86,-59,-313,-2447,1980
13,105,111,740,-758,1039
-107,-122,115,2658,113,1776
-78,-108,-31,3131,-633,2418
68,95,94,417,-1981,1386
-92,7,-28,-1637,-1111,-1445
15,-15,96,382,1063,-903
109,-35,87,855,1553,-29
126,-44,118,467,1383,138
127,-45,110,-330,841,-398
37,52,-101,881,5674,2196
24,-104,-105,1400,3411,-1798
-30,-105,-128,-2782,-1318,-8995
-80,-49,123,2900,5535,-3007
-122,57,73,-4823,12588,-1154
-128,71,-49,27797,-5868,2675
-89,-9,105,-15656,-4562,8561
-77,-59,27,13904,-3509,-6964
54,-128,-74,-15933,1319,-1615
26,-33,-105,-27467,-6536,-5144
-77,-54,-16,21233,-8914,-22719
-109,59,-93,6158,26563,27462
8,48,-123,2114,17681,-6890
-29,-74,104,14876,-22888,-10354
125,-116,57,198,9039,268
35,120,-76,5992,-12975,7752
25,2,-58,-3995,3638,2319
112,120,-101,5125,-8458,-4570
-6,93,-26,-4661,-2384,-750
-13,-124,-127,42,-1962,-2739
54,-98,82,-351,679,1389
-111,120,53,-1840,-174,973
38,-57,61,-1562,-2476,1562
-74,-57,53,-3037,-4285,1352
-79,-5,21,-2567,-3894,3273
43,65,64,-4378,-5697,2931
47,107,-34,-1612,-4633,2098
7,-79,70,6740,-1988,3726
12,-100,-52,7101,3178,6847
-75,127,83,-7424,-5432,-2368
-87,-17,96,-9976,-6752,-4829
-6,63,74,9217,5092,4915
-96,76,-122,4399,3854,1386
-17,-20,18,-2496,-96,-2124
100,48,27,970,1140,372
88,-49,86,-139,-499,-688
121,-25,39,1098,-136,463
102,-36,102,257,-353,206
93,-20,115,-121,-108,-94
97,-4,85,164,165,49
7,-22,71,-6298,2290,-6649
-101,106,-93,10431,13406,3977
-95,97,42,877,16021,-1334
92,-23,-91,-30480,786,-2092
-78,-20,34,-17516,-4578,-5914
-52,-4,-111,5695,-4675,9927
17,-79,52,-325,10762,-1487
95,101,127,25008,-14618,-7094
95,93,85,31871,-7634,-24037
-86,-12,13,-4688,20663,19361
44,-9,75,-746,22875,-452
50,-124,14,-25997,5590,-13579
-5,-52,-38,-3950,-28837,14176
-24,-123,-55,23278,16227,21615
72,-91,-79,-14501,-21837,-19989
-68,-62,-73,19279,-821,1459
60,13,-56,2230,3661,4338
-108,-122,-107,-12128,-7840,-9305
74,-77,108,4468,9,-2888
-47,5,74,2020,2981,3896
-26,53,-23,-2851,-1582,19
-75,-25,101,-3062,-2435,2741
67,-41,76,-5177,-5351,2605
-46,122,-18,-2064,-5007,5452
8,-83,-117,-1611,-5922,4307
63,-113,-36,-1542,-5583,2909
-78,-64,-7,1951,-1819,1545
82,88,-8,2400,7,142
97,-79,-46,3836,1590,1842
79,122,108,-284,-1100,972
-50,102,7,-1355,-1602,-120
-82,57,-101,-1111,-538,-1108
36,36,77,-65,1002,-820
91,15,87,-343,1300,-896
116,-7,50,-88,1130,-699
127,-26,36,475,600,-215
127,-20,63,95,29,-142
-126,-6,75,-230,0,-285
-117,12,57,-105,13,-164
-112,3,39,361,170,91
-1,-92,4,7304,4109,695
42,7,-78,-579,2816,-7710
40,54,-9,1094,13711,-1154
-127,103,112,-14415,11398,157
-5,-105,-96,-19065,-18023,-10109
28,116,-82,25228,-2226,-10389
3,-93,-36,10035,5261,8249
-102,11,117,-17589,6935,3327
-32,121,-15,4659,-13584,15900
60,-123,-32,381,5037,13764
68,-6,112,-1459,15116,21948
-30,0,-14,-8184,16239,2255
90,6,70,-30508,-19268,7728
-46,-81,30,12777,-4570,-8418
66,61,-124,8805,8323,-5030
99,42,119,26060,-10004,-4528
17,63,73,-14128,-3986,-5129
-27,-52,102,3586,-3458,-5264
100,69,124,2541,1039,1819
55,-94,1,-661,-883,-1388
16,-61,115,-3046,-534,-589
-85,-27,-72,1918,452,1780
96,-99,-118,-1873,-1563,1238
63,-46,96,-3570,-2267,1491
39,24,34,-1501,-2759,3086
-27,69,122,-3246,-4440,3916
112,97,83,-3375,-5445,1910
-44,-51,102,4789,-3739,5516
-15,-74,116,942,-1001,5529
-112,-68,31,-4069,-5669,102
37,-117,-37,252,-1171,-328
-117,-72,120,4942,2633,3806
7,121,33,2210,1282,2640
-85,26,-9,-525,-116,-681
-12,-17,111,434,956,-1187
93,-47,112,52,540,-1495
-124,-44,120,-502,63,-1434
-106,-50,93,-210,75,-1129
-78,-56,84,5,247,-718
-72,-47,97,-211,171,-478
50,-34,66,2786,2866,1715
112,28,6,2964,826,-1238
48,38,73,-464,-1776,-6060
-57,32,116,-303,-411,-6457
54,-103,125,1940,5223,-3072
-26,-97,-117,-3075,12478,2798
-105,68,72,-25702,-3336,4058
39,46,-31,28281,-5674,7905
5,22,-17,6883,-1946,-7210
-45,29,-118,9131,-487,-1072
80,55,-61,-3198,18247,7005
108,10,-90,19378,-9398,31366
109,6,-42,-24171,-1052,-796
50,-33,79,12450,-3695,-1058
-39,36,-11,2269,12120,-5228
-33,-82,30,-8406,8305,-10325
-101,104,70,18440,-17531,-16316
-119,-34,-49,-28494,2012,-27619
-36,70,58,21652,-6194,-3214
-110,-91,-3,-5843,-10499,-20570
-45,76,-38,14095,6611,-1669
38,4,-40,-993,1525,520
-71,-37,-60,-16442,-8961,-5072
10,-42,-42,5449,-829,-476
-128,67,-109,2417,3177,5872
125,-107,-68,-3147,-2511,1074
22,25,58,-1839,-3344,1897
-45,-115,108,-1954,-4286,3001
-84,-74,116,-830,-3684,3328
-108,-50,-73,-354,-4245,3449
-107,-17,-49,758,-680,2597
-57,49,27,177,1660,2424
-74,-75,59,-1083,654,767
-27,95,-52,-7,-350,654
33,56,-84,92,-662,595
46,31,-114,789,-1678,149
32,23,-98,1326,-1558,-885
51,40,-112,874,-451,-993
59,37,-81,-835,-408,-1044
74,47,120,-2057,-201,-1074
84,36,-120,-8092,357,1552
-64,81,111,2238,-438,630
101,-88,110,13197,6298,4041
109,-80,-95,-8864,-2973,-13140
-83,-5,111,6495,10229,1272
-43,49,-103,-6777,7368,-2487
46,99,-94,-31876,-12689,-3609
87,95,-84,25834,1364,27366
-71,89,-125,10017,-2297,-13220
33,-110,3,-2553,-5788,-7173
106,20,-105,1721,13832,3167
38,-90,12,28162,-15284,-7383
1,116,-101,-11730,-1855,-11279
10,127,64,11802,-3748,709
-106,-92,-73,4615,14209,-685
63,46,41,-625,11048,-9346
15,-107,12,15419,-17639,-11454
71,-55,-65,192,18243,18545
-25,-91,-121,-4404,-17143,-5747
2,29,79,-12151,-7004,-12263
34,33,42,14006,4922,3226
64,111,-75,45,-831,1381
72,100,29,-9631,-4505,-5638
50,-92,-72,-1169,-2028,-604
25,121,-81,-474,-1750,2931
10,86,43,-797,-3813,2375
-65,-117,80,1145,-4149,3363
108,-81,-70,1823,-5252,3712
71,-18,65,-135,-4716,3748
59,89,64,217,-3138,1775
-43,4,-8,2539,427,2567
49,-3,84,186,-721,2391
38,-2,15,31,-1073,2087
-30,-27,-23,365,-1033,1120
-113,-119,-73,-41,-817,-836
-30,80,-120,-215,476,-1186
56,72,96,-869,1078,-559
103,88,30,-39,1715,122
115,58,35,482,1174,-134
-108,32,60,760,386,-260
125,-39,-27,-3282,7666,5072
-28,-82,61,4719,8074,8421
-87,84,-1,11095,217,-2389
27,87,36,-7560,-6839,-18876
-101,105,-24,8828,5706,469
-114,86,103,-10702,5387,-1827
16,-103,105,-19438,-5536,2599
33,71,63,23315,-1713,11243
88,101,89,20623,1214,9133
18,30,7,-10335,-1871,-10670
7,66,89,-4486,13828,3609
36,-40,43,25211,-14443,-22024
-62,53,-43,-21001,7966,9492
107,63,-50,-13717,-7088,-6070
118,-53,94,6955,14071,-3023
88,21,33,-18670,4863,-12244
126,-17,107,-3403,-16167,-728
123,4,-25,-28749,5930,25011
67,-127,110,-5394,-10638,-10089
80,-87,-13,10791,-10144,-8569
-97,-92,-43,-1748,2309,818
14,84,-115,-4613,-2942,-3550
-62,37,43,-1257,-1427,-717
-123,10,-70,-1816,-97,-117
-41,69,-9,83,-1224,2406
48,-30,23,-1110,-3394,643
-13,70,56,1248,-3382,3308
122,45,-104,-882,-3403,2926
79,-76,-26,189,-3228,3932
35,-81,-3,241,-2339,3067
-4,-5,110,672,-2553,2290
34,-51,71,-1664,-3358,639
99,-75,-91,1777,-661,1227
-51,74,-42,1430,-604,1006
9,67,-67,343,-480,904
42,102,126,2184,677,2032
20,62,-48,684,397,1311
2,22,-112,891,1044,444
50,-47,106,1322,1373,-76
103,-71,126,257,916,-290
98,121,-100,-4756,205,-2265
-100,-68,7,-2823,2077,-3094
-51,23,109,4746,6311,-1268
73,81,-57,9848,14118,4068
106,1,14,-2194,15096,1924
93,-49,-95,24863,-15333,-23340
102,48,18,-19373,-14206,-5903
-81,62,34,2355,-1902,2103
90,-14,-66,-6426,18389,6516
105,-84,-84,26737,-14583,30088
106,-64,82,8675,4657,2669
-66,-35,85,543,15892,18715
-3,-62,-85,-7946,16851,1811
69,52,-15,-25813,-16408,-5922
71,57,95,31165,-4956,-22311
30,-20,-110,-3510,151,-24605
19,102,38,25894,-10647,257
115,69,-63,-6852,-989,1275
20,123,-73,-1232,-2633,-4195
-92,112,-50,1278,-575,296
61,-76,-1,-3118,-1862,-1315
0,-49,-34,587,320,1144
116,-57,113,-1511,-1096,1355
61,10,97,-3812,-2332,849
99,126,57,-2678,-2724,2508
42,91,40,-1747,-3500,3161
-30,82,101,-913,-4000,3738
-85,-54,-7,-413,-3689,5228
127,-81,69,-1126,-4622,3889
-79,-65,59,1055,-2959,2742
20,101,-79,427,131,164
-106,-112,-119,2211,812,1721
-14,-110,-128,265,-2594,1830
24,99,69,-1354,-2978,794
-80,25,-113,326,298,-420
5,-45,81,570,2390,-1809
-113,-20,81,1034,2155,-854
-58,-25,85,924,1473,333
-99,-54,119,-533,127,-92
-107,-35,57,-286,63,-190
0,54,-75,-2500,3828,2010
75,-37,21,-2455,-735,-6879
101,44,79,-6724,-3341,-9742
45,57,-56,-7678,3452,-8467
-17,-5,41,-10361,3893,2218
-64,-39,53,-163,635,-32350
-46,-17,-2,-31871,-10011,-19858
-1,-43,-121,507,-3164,-88
-20,-36,50,3559,14641,5854
-124,-83,-13,-23979,-16957,32338
-28,-20,23,-6161,-3877,-10101
-112,-40,7,-1084,11914,-21711
44,-37,29,2893,-6222,3601
-48,53,-28,21685,-1734,-8811
1,4,90,24263,1560,-6644
76,74,57,-22014,9868,-25768
106,-10,59,24202,9875,19988
-50,30,107,-4837,-27,436
-54,-99,-71,-16161,-9518,-8402
103,41,-101,11061,-3136,-3045
-31,-73,-19,2092,657,2515
-36,-95,26,-1666,-974,-2148
-91,-66,123,947,75,1141
95,-82,-51,-2836,-1778,486
95,42,47,-3042,-1403,810
122,74,50,-1992,-1541,2733
36,108,100,-2568,-2417,1889
-31,-121,76,-236,-2836,3976
110,-99,-71,-856,-2153,3144
104,-84,12,-2272,-3389,2888
-78,-87,16,-1093,-1413,3214
-47,96,41,-3060,-3267,1717
10,77,-69,-578,-1997,154
93,57,-95,1430,-235,705
111,56,23,326,-1523,510
84,35,-63,672,-1209,-56
87,24,-65,898,-547,-57
102,-25,-90,291,-397,-701
-126,-29,91,2009,1105,14
-119,-43,-115,1011,828,242
-9,15,-13,3604,5104,2264
29,33,111,5167,2622,22
40,9,-91,-9432,-4823,-14493
-53,-91,103,6179,10790,2389
81,-102,14,-10193,10254,-3266
104,-19,-51,32134,-12110,-910
23,-5,11,-15599,-14634,-7998
31,18,-96,-6157,12924,4687
46,116,-14,-6615,6662,-405
57,-82,-124,-22196,-6772,-25995
11,-39,40,620,-1288,-1832
113,-65,-66,-4893,18033,19338
-28,-101,-1,-14699,-3749,12321
84,-116,-68,18120,-10302,2437
49,-6,6,-28943,6963,3069
44,49,-59,-1784,-7405,-18414
-100,-91,-107,-27296,4808,-6691
-71,8,66,-24201,-1581,17776
1,-113,78,-9408,-6808,-2082
41,0,31,-14770,-13394,-8228
15,-27,-78,5043,220,-4094
-52,70,33,2037,467,2054
-102,112,-97,-939,-2050,-81
41,-48,54,-354,-1548,1105
17,-23,52,407,-2060,3109
-119,-22,122,-1083,-2316,2954
127,115,-89,-1448,-3109,4446
31,-92,-57,-1593,-3492,2905
-107,-69,-54,733,-2862,4566
-63,-77,0,-172,-1970,3476
-34,124,43,-648,-2151,1648
59,125,-81,831,-1145,521
-119,-126,-91,2360,-193,1839
-120,102,7,1502,-1615,1595
-22,64,14,124,-1607,635
-87,-2,-54,-915,-445,-1439
15,-27,113,-471,890,-1210
119,-40,41,1032,1842,102
117,-44,82,766,1531,268
110,-47,116,-321,608,-407
-102,97,25,1769,4725,2040
-23,-93,78,-4473,3336,-2606
-114,29,73,-1908,1104,-8798
-47,-111,-113,17590,12053,2669
116,47,79,-15509,10239,-7444
-124,-20,-23,27192,-15083,1305
-106,40,-49,-3186,-22073,-17392
-95,86,98,-9126,9659,5307
-43,-61,-92,-9515,10545,5366
77,85,-61,-12143,-9219,30515
-120,-23,18,-5056,-5247,-4706
-76,90,-72,-9833,7356,25032
121,108,-126,-8037,-3717,30304
-7,-6,-53,-11952,-10385,-29788
-41,63,-32,10116,8502,-24856
42,-71,-1,-5623,3511,-25362
-51,-25,-89,-3051,809,-1316
126,10,117,7687,302,2337
15,-110,30,-911,-3746,-1659
73,-119,-91,-1838,-4409,-1145
27,78,-123,923,-1633,-719
-11,32,-86,-2648,-1988,-433
125,47,2,-812,-1120,682
56,37,5,-534,-670,2444
0,11,53,-2134,-2525,1458
29,108,30,-115,-2002,3894
-58,64,-88,-3079,-4258,2447
-101,86,127,-885,-5859,3121
-125,-120,-69,2707,-6224,3567
-7,-111,-108,-121,-3996,2757
24,-116,98,-1057,-2671,-2114
67,-6,-89,4243,2389,2286
2,111,15,502,966,1070
-19,69,-17,-1156,-635,127
6,56,73,-263,639,161
24,4,56,84,672,-670
61,-13,41,983,642,-463
100,-24,79,127,367,-395
106,-22,74,-194,221,-226
110,-20,60,-321,107,-211
66,3,76,-2111,4042,-1017
45,85,78,-3142,-2501,-9318
-31,57,71,4737,8872,2835
51,91,-113,4496,18330,3186
114,67,83,-27072,4953,-3976
121,48,115,-27795,822,-1597
56,-9,45,9587,-9977,-1404
-82,3,62,-4472,15352,3172
4,0,-31,-28606,-10333,-18082
36,62,95,15647,-5437,-14881
4,-2,-83,-7345,26058,27604
27,52,120,-31628,-10328,-3578
-93,-82,103,-11229,1297,19305
48,51,-7,31411,2336,10985
-110,-25,-2,-25047,-4831,-31928
98,56,36,-2198,14723,-1050
-20,126,20,19435,-678,17029
48,17,51,-11237,-6601,-5805
-48,-85,101,-13181,-5067,-5037
18,5,-32,6999,-2250,-1336
-94,64,117,1017,-750,1352
-49,1,-103,-302,-1670,2692
64,-35,-86,-895,-2807,3331
-10,39,-67,-2621,-3948,4024
96,-91,-30,-799,-3955,4587
121,-38,28,-2909,-4079,4889
25,-79,10,615,-4343,1245
-8,-77,39,-565,-2042,2645
-8,-90,-24,2257,259,2111
-9,116,4,1444,1251,465
61,66,-37,1253,1466,535
60,3,-59,540,940,280
97,-36,-63,-1092,-292,-229
-128,-34,96,171,-490,14
-112,-41,104,566,-277,211
-128,-43,-87,-173,-237,-414
-112,-27,-117,-446,-190,-340
-97,-36,101,-23,69,-190
-88,-39,75,74,371,-185
-83,-33,76,624,301,97
-17,121,63,-2447,4936,1866
-76,-69,51,-1121,1862,-2353
-37,-7,10,5787,472,-4722
-39,-43,-93,-755,6461,-5139
90,63,35,-2677,19070,2261
104,71,71,22989,-14706,-12760
78,94,-30,-2492,-5155,-6895
11,-25,70,-4393,7469,10440
92,101,33,-20935,1142,-1035
-51,-101,22,-10393,-7104,26992
50,-53,-56,7340,5708,12445
83,41,85,-12592,12840,16961
-12,-44,-82,-23588,-6895,8681
-62,41,52,16511,-7707,31751
92,36,-37,14386,-28305,31476
-126,113,117,9564,-5977,-24888
-11,59,-73,2728,5339,9828
-115,-7,97,770,-1547,-5006
-28,33,82,-1811,-1793,-542
90,58,-95,1753,-1193,-575
55,-10,90,-435,-1448,-1931
-26,21,-71,-901,-1125,-318
-65,-25,100,-253,-1882,1511
90,-49,-125,-2081,-3394,1904
-15,17,91,-1444,-4568,2662
-76,-32,110,-1613,-4605,3012
122,-128,-57,-1405,-5735,4268
119,-91,-41,1605,-3911,4309
-72,67,85,521,-3383,2473
-44,67,37,787,-2402,-407
127,-25,38,2057,-213,2217
55,75,83,55,-1149,-68
61,58,-57,1617,90,842
-11,15,-60,1486,734,1119
-38,-27,-33,-1189,147,-844
34,-18,105,-697,967,-652
111,-22,45,-235,1362,-464
-127,-28,35,884,1291,57
-123,-53,69,388,487,-189
-118,-56,75,137,35,-141
-72,18,5,-2026,3665,1593
-40,59,-68,2406,3808,790
-105,-124,118,624,2421,-6447
-15,42,-117,7659,12644,2929
3,58,-125,-11915,16165,-2456
84,7,-7,19751,-22050,-12209
-8,103,13,192,9117,23339
-55,-2,25,1528,-2656,-919
-123,97,-49,-18502,39,-3081
-41,96,125,7463,-10102,-10272
-72,105,110,17324,5612,3414
-120,15,-48,-12702,22255,4137
74,113,-122,18860,-21639,-10953
124,-14,78,-11695,6729,-27805
11,-83,-102,4237,-285,12676
19,65,120,-17215,-1589,-19738
0,126,-1,30525,14121,32755
6,60,44,2689,-8098,-15101
-27,13,3,-17052,-9270,-2049
-37,5,-12,4303,-2638,-3588
-90,48,92,3477,-312,2528
-33,103,-102,-2590,-1141,263
116,-22,8,-883,-1024,2759
48,-12,56,-3407,-2435,2566
-31,54,-10,-778,-1853,4581
111,-99,-14,-3106,-4227,5640
70,-80,-63,-5084,-5277,3478
113,-41,125,-631,-4067,2752
-50,-50,34,2220,-3315,1592
65,-103,9,-35,-836,1586
40,-106,-49,35,316,845
88,106,-62,-1157,-641,-171
103,-124,-125,1287,-276,1019
48,58,-106,666,-395,-35
60,12,96,309,121,-517
103,-1,62,826,693,33
-121,-22,92,422,212,122
-101,-20,100,401,-22,352
-111,-16,107,-239,-256,105
-125,-21,67,-50,101,-22
57,-19,-33,1762,9070,1791
21,75,-113,13229,17619,7006
-103,-19,83,-14894,5758,-3831
121,63,75,1010,2610,5605
-19,43,89,-541,-15377,-25577
11,80,0,14981,-5241,24272
120,66,93,-1399,6957,27689
10,-89,-49,10642,4607,-20208
17,5,-84,-7878,-28848,-32642
-3,116,-89,7353,24867,5946
51,12,-65,5793,26727,-2001
110,114,79,-15152,14452,-11453
75,83,-62,20855,32002,-8072
11,-72,38,-1283,29213,-7835
-82,-48,-11,10767,-26578,-125
-12,34,76,-8629,5985,-4850
14,-12,0,5713,-1104,-4385
-32,101,-96,1421,691,3531
0,25,69,-1084,-2304,-2241
89,31,-100,-710,-2222,-310
39,39,87,-3506,-2786,233
-23,52,-69,-1294,-1976,2250
-120,105,-15,-1513,-2373,3858
-11,50,22,-911,-3813,4458
-75,0,-71,-1810,-4689,6837
32,-11,-71,-3438,-4613,2459
-100,97,-119,909,-2256,1838
-28,-24,127,4694,-887,1841
61,-17,36,-789,-845,2367
46,-74,-64,-1673,-213,1985
67,-120,-104,-2228,-1103,455
105,-114,67,677,-955,734
71,113,95,2048,-363,1074
20,62,-77,-768,-841,-523
38,61,92,-885,164,-709
81,56,68,-837,344,-616
107,61,20,145,837,-207
107,46,49,-147,480,-511
-128,56,36,-111,501,-420
-108,57,34,-196,401,-413
-108,105,117,-3329,7139,6678
123,-1,105,1774,8833,7420
-47,-99,18,14455,3373,-1398
-68,23,99,-10835,-8973,-15907
30,100,-71,7245,9762,-812
0,-118,69,-4633,10126,-2159
111,71,67,-31979,-14627,-6178
-84,71,93,-28997,-1548,19603
-116,-22,115,18843,16155,6131
-69,-28,40,-16506,1665,-6684
-57,49,72,-30806,-10264,-13137
73,-41,-19,15014,9902,8495
32,111,-68,17597,20846,2667
-10,-116,88,20178,-10755,-11019
-33,-60,68,-17743,2604,6234
-85,-41,-116,22714,3989,24900
-75,-54,-43,-16497,-12549,-29546
48,-41,38,14069,9264,2816
-8,39,93,9569,4842,7784
-74,31,28,-11818,-9001,-7545
65,-56,-114,-11971,-2612,-8579
-89,-3,31,11625,1563,7499
13,-68,115,689,318,1015
46,-100,-68,-5967,-2906,-874
7,126,-63,414,-2405,2510
-2,3,22,-556,-3931,2965
-84,63,93,2510,-3675,5756
50,55,21,-759,-2488,6014
-32,-86,-36,-8533,-5938,544
-123,-4,94,-27,-5642,-19
107,-67,100,5491,-1083,3093
42,-42,-126,3466,643,2648
-60,120,99,-1367,-975,-414
22,69,-70,-935,-1141,-770
85,78,97,2163,69,1068
55,25,-84,2006,118,1161
4,-17,-44,-428,-367,-667
49,-22,-116,-213,388,-547
106,-30,110,-336,525,-451
112,-21,94,-133,571,-263
-125,76,34,-5140,-3533,-2155
-85,-85,82,-713,-44,348
-17,54,-106,-890,1682,229
-14,82,-87,590,1246,746
-77,41,-97,936,838,-413
-35,74,-76,1855,823,692
-62,38,13,388,798,-301
-31,76,104,86,492,59
-22,51,-128,868,1750,-565
42,117,-2,2167,2602,985
-70,13,87,8656,9799,-2234
-90,60,-8,1446,14114,-2756
-128,-11,51,-18848,9099,2331
123,-20,-96,-804,-10658,-4126
-88,-7,10,1646,5378,9138
38,-91,-118,25744,16707,8378
-28,-104,-39,14557,-20994,-9957
-47,80,-56,-17463,-4605,-25583
-104,94,7,-12185,21573,13106
-16,126,111,-10633,9589,13055
-113,101,77,4407,-14619,5717
86,20,-17,23739,5432,10070
-121,-83,8,5634,-9988,-23480
32,69,39,124,9242,-1028
-27,70,18,8645,-1778,583
122,-27,-107,-13043,-5770,-5198
121,-41,65,-6244,-322,-4824
-52,65,75,8665,-492,3916
81,-11,-16,-5233,-2850,-3343
-12,-77,13,-1733,-1830,1064
-120,-116,-9,657,-2449,4113
18,111,89,660,-3892,5187
-88,1,-16,2012,-2527,8804
-36,126,-102,-4248,-5454,3150
40,28,36,-1049,-4611,1923
121,-12,39,2412,-3862,2973
-60,-78,88,-1069,-3052,1274
-46,83,-60,-1492,-369,-232
49,35,-125,-1482,-453,-1215
-68,-54,78,3834,513,2815
78,-101,7,3112,-159,3916
-111,16,81,-3377,-2045,-1424
-49,53,49,-1631,776,-1806
94,41,6,565,1922,-562
-105,8,40,1061,1477,-130
-104,-6,95,387,602,35
120,-16,87,-336,-107,-287
-120,-4,62,-252,-124,-228
-105,2,41,336,151,31
-97,0,65,424,365,126
-95,1,71,250,561,107
-84,0,62,309,511,170
-81,0,54,496,427,128
-67,-13,34,1151,720,375
-61,-34,62,1252,738,464
-65,-41,110,505,306,255
-71,-39,113,-150,-48,-9
-70,-39,81,75,12,-56
-54,-35,68,360,331,123
-53,-38,82,292,275,44
-49,-39,95,-4,104,-58
-40,-33,78,199,263,77
-42,-32,71,294,339,49
-41,-35,79,243,275,-67
-32,-34,78,208,264,-58
-26,-36,78,168,168,-86
-20,-31,78,160,125,-13
-23,-32,78,194,119,-12
-21,-28,83,165,169,-4
-25,-30,79,211,147,-24
-24,-32,81,204,213,-1
-23,-26,85,155,197,23
-25,-22,76,318,269,31
-30,-24,84,224,245,-61
-25,-21,90,77,162,-75
-17,-20,72,299,222,67
-20,-23,77,335,201,19
-23,-24,91,187,138,-38
-15,-22,89,236,206,-1
-20,-25,89,258,210,-58
-116,13,-112,5413,7801,1318
-57,125,94,8158,6408,701
-89,-13,57,-2171,-2566,-3222
76,-73,9,-11060,-4653,-6622
-107,2,69,4580,1632,3642
4,-89,-28,-325,-150,6
-24,94,-52,-484,-274,-255
-30,69,-49,450,30,-46
-51,97,-7,979,631,500
-102,49,57,-50,-284,-800
-109,-86,84,1763,431,848
29,98,38,2242,3695,-1483
30,62,14,6875,8366,-1828
-16,114,-40,193,14448,-1268
38,-23,-63,28878,-8838,-5903
-75,126,-24,-4180,-16481,-25851
-21,-10,-56,10275,3543,32719
89,17,-47,-2022,23915,-9595
-105,90,38,14382,32259,-21320
84,95,34,27810,10705,-7136
-115,87,89,-8663,24289,14185
84,-39,54,-14223,1883,-4164
-59,-64,-59,-3154,-14136,1136
-115,63,124,30659,1658,18174
-57,29,-62,-2560,-6010,-8946
79,-52,3,15331,-5900,-1810
48,-117,-53,-5587,-2786,-1739
-71,-64,116,-228,-2371,-3845
-45,14,-106,176,-2570,-3041
-110,40,97,-373,-2264,-1202
6,-18,-112,-1729,-264,1431
68,-49,-89,-19,-721,2784
-78,-25,12,-721,-2242,3201
57,-13,65,-1043,-3803,3586
-41,78,-122,953,-3600,4091
-50,-92,3,-1225,-4041,3539
-4,-53,-13,1388,-3271,3586
16,-83,36,-373,-1590,1282
93,-115,-3,-667,-1693,650
-44,-63,-102,1337,-416,2431
113,65,62,4123,1857,1752
74,17,-63,1498,1289,1457
67,-22,-45,-662,300,352
113,-28,96,-25,232,621
103,-28,85,205,-33,483
93,-36,85,63,-103,-29
113,-40,69,86,25,-123
122,-43,66,164,251,-124
-123,-47,69,47,217,-243
-105,-51,59,270,231,-183
-96,-61,68,170,153,-199
-86,-52,67,57,210,-61
-87,-46,58,71,220,-128
-81,-44,51,230,201,-51
-79,-40,51,254,324,-21
-71,-40,48,393,360,55
-74,-42,52,351,245,18
-70,-42,62,261,75,18
-62,-35,65,175,87,23
-66,-43,52,437,162,53
-61,-42,71,163,163,32
-60,-38,66,183,175,25
-58,-38,57,287,262,-9
-55,-41,60,199,218,5
-51,-36,58,136,171,17
-52,-34,53,226,171,6
-49,-33,53,220,235,-20
-46,-33,55,230,222,1
-44,-30,56,180,209,-51
-42,-33,52,282,209,-22
-36,-31,59,148,199,-37
-33,-30,51,261,240,-5
-33,-30,55,226,193,-43
-31,-32,55,193,168,-50
-27,-33,51,286,198,20
-31,-32,59,195,156,-15
-27,-27,56,200,186,-14
-30,-29,51,267,212,-2
-26,-26,57,173,173,-27
-27,-29,50,322,211,-11
92,-38,-50,-3958,4042,-680
68,63,63,-855,5512,202
-57,-110,39,5155,11036,5516
70,73,44,755,12769,86
-48,-112,38,-15937,2514,6076
115,33,4,-28349,-7354,-8063
-75,101,78,3759,-5796,10649
36,-113,-109,834,-2078,-5103
70,-35,-124,-12184,-4185,-65
44,-10,76,-6724,-8142,-18204
14,-75,110,31363,20514,25172
4,-14,3,-21331,9248,-22931
-123,93,-105,20676,-16817,-14647
44,35,90,192,14158,20591
122,10,15,-2480,-15559,-6034
6,44,19,-3739,-1404,-5242
101,-8,80,9435,4829,27
-58,-117,83,-632,-103,1543
20,-69,-62,-8000,-5725,-4036
40,47,-70,-269,-3665,-2264
66,34,-40,-490,-1495,2156
-58,-65,-33,-3267,-2159,1999
80,116,-74,15,-1673,5863
-128,-95,-100,-1536,-3565,5128
58,-58,-11,-3839,-5655,4419
83,61,57,250,-6138,4972
-80,-50,10,944,-1871,2779
-18,-82,-4,-394,-78,847
-123,-114,-89,180,-397,-490
5,24,-27,3094,-1108,3374
62,-54,109,812,-2920,2183
64,71,46,-2539,-2488,-2371
-77,39,-121,-480,809,-2085
76,19,75,80,2624,-483
-122,28,2,2341,3746,1310
117,-14,118,551,1698,62
-116,-14,107,245,691,-146
-102,-29,91,-469,-184,-813
-69,-12,69,-341,-199,-517
-65,-1,72,-426,-240,-368
38,67,8,-492,6302,-775
69,12,-107,1180,7976,-962
-94,36,14,9995,9330,1623
126,-85,-24,-3793,6811,-5064
43,104,-20,-15272,-179,-3063
4,44,26,975,-4528,6436
-15,-86,-107,22642,7239,178
59,-29,98,-4179,-6989,-3494
125,1,11,-8787,12466,3814
11,24,-58,-11703,-14740,-24726
29,110,124,21359,6021,19565
80,-123,-96,-3520,11041,-4673
3,88,-111,20199,-17256,-5660
4,-62,17,-1205,-1432,3042
16,-85,113,8425,-5695,1289
-56,102,-57,-8280,-658,-25851
-55,18,17,12079,9584,3971
21,60,64,622,-3392,-5707
-119,-128,88,-4893,-3135,-1952
-74,-113,72,-1327,-2024,-1182
-73,-59,11,-1464,-861,1526
-39,110,0,-2993,-1956,668
106,-121,-49,-2467,-2192,2454
11,-75,-9,-413,-3191,4209
127,120,123,66,-4548,5337
18,-11,10,-831,-5813,6755
-81,-122,82,-4454,-9200,3028
-123,13,-117,-831,-2229,1304
-30,-80,-10,226,-2794,-1705
58,-88,66,2952,-305,302
25,-100,56,1969,103,384
11,74,29,-527,-742,-593
64,41,-125,373,114,-406
107,90,79,3016,1768,1993
98,0,-76,1382,71,680
108,-27,78,2998,1650,1398
88,-87,-103,835,1113,299
-125,-77,-126,213,1139,360
-106,-80,124,-1160,3,-222
-98,-65,60,-650,-287,-37
-90,46,76,1630,6543,-2
72,-8,-101,-2469,3450,-5109
-39,104,-71,1396,8643,-2832
-37,-98,-120,-9526,7312,-3475
-99,-35,45,-24165,-20838,3385
101,-120,77,-29252,1050,23515
120,68,31,7958,-1943,-8048
31,106,-22,-6277,1689,-4149
32,-47,77,-13335,13378,1717
-59,-45,-39,-9986,-8493,20577
8,123,-71,-28233,5464,-30396
22,29,-42,-20626,16100,-19886
-67,81,-75,19944,-17861,-6672
-1,-117,1,194,4754,16626
-106,33,-95,-2988,-13632,-6107
-128,19,-88,-7326,227,-11841
-95,-84,34,8088,6995,5278
78,-103,125,4509,-1836,-210
76,-20,-68,-11614,-7690,-2277
-114,67,-101,-4949,-4532,-4648
5,-48,35,3512,-843,2297
110,-20,-38,-1374,-1946,411
29,34,-61,1872,-1924,2924
-37,-23,-117,4387,-2074,5369
-112,-94,-121,1395,-3147,7967
-36,58,7,-5800,-6277,2805
65,117,91,-273,-3822,1913
-123,17,28,3225,-213,1268
-77,-56,40,1064,408,-424
-53,-117,6,-1455,-570,-1378
28,108,106,-517,127,-341
58,110,27,3524,1519,1991
44,46,-118,1992,390,993
35,2,-103,1549,149,467
34,-22,-80,22,140,-239
60,-27,-111,-835,297,-518
118,-21,52,-514,750,-231
-128,-10,24,235,982,176
125,-23,40,270,495,-60
-102,-17,37,445,493,123
