AccX,AccY,AccZ,GyroX,GyroY,GyroZ
-27,-109,45,423,766,-5990
104,-57,-52,341,2221,-6723
4,47,82,-11,3013,-5113
0,123,-46,495,2497,-3419
-81,11,-14,-1334,3430,-2407
28,-4,-110,-1318,2947,-790
10,10,32,-1835,3044,855
-39,-49,-118,-2504,1748,2675
110,-10,58,-1560,1920,4279
-84,38,33,-2925,1300,5613
35,-102,-23,1194,-1401,7780
-101,-70,33,843,1613,6440
70,41,-92,5758,-630,4893
-82,-116,-117,-3451,-4121,2221
54,72,25,-2441,-5410,431
-102,78,-59,424,-6780,-2028
-57,38,-37,-3335,-5934,-3730
-24,-14,118,-1152,-5554,-4428
-90,120,-63,-2273,-4179,-5215
-78,110,22,-2989,-3700,-5036
-86,-71,72,-2144,-1470,-4508
-57,127,-56,-369,-528,-2226
-100,22,-75,193,-388,889
48,-88,60,-1428,-983,2524
-110,48,-7,-1111,488,3733
1,18,-111,-2847,1154,5579
-18,107,42,926,-566,6447
-114,-85,12,-579,660,5003
-36,-25,-36,642,-1207,4959
-45,-50,97,-456,227,4000
-91,79,-111,-241,-357,4347
127,-62,-126,632,493,3472
100,-26,-106,-1018,-1148,3778
96,-10,-57,-272,-652,2818
-25,9,-107,1569,-713,1446
-110,-11,-100,1303,-596,-544
90,107,-99,994,19,-1073
26,-7,-121,807,-11,-1051
-11,-82,126,1036,-810,-794
80,-120,-65,343,-79,-247
83,105,-56,-818,1625,-5805
64,-21,-1,-1017,2250,-5369
-30,0,-52,-806,3889,-3882
-3,124,35,-279,2313,-1975
-31,114,-66,-948,2819,82
123,-33,3,-13,2157,1958
-109,74,-35,-1770,1570,3459
-21,84,-74,-1682,202,4577
-58,-57,127,-392,-1649,6954
8,-66,-62,-1734,-2225,6885
116,35,105,-3995,-2207,4420
-128,-28,100,-1517,-3549,1245
-113,82,-17,-399,-3394,-1176
-46,59,-88,-2795,-3297,-4020
-9,12,-108,-2992,-1128,-6942
27,-107,-46,-1200,805,-7319
29,-85,-95,303,2300,-5939
113,115,40,-478,3151,-4175
3,82,-80,-951,3260,-3319
67,-2,43,-901,3703,-974
-15,9,-110,-79,3376,1012
-1,15,27,339,2697,2747
106,40,73,-1435,3214,3929
-12,-107,97,-702,2584,6297
23,-88,91,-792,3127,8524
-61,126,21,-598,3249,7293
-61,-63,83,-456,922,6181
-79,45,122,-2227,824,1328
46,-74,110,-4765,-5134,658
-68,-58,-6,-3297,-5576,-3958
-37,67,-21,-2585,-7995,-4496
19,69,71,-3152,-6169,-5911
116,-23,-104,-2932,-5680,-6906
-5,103,-48,-3283,-2787,-6637
-66,-26,103,-2422,-2246,-5669
51,72,-105,-1002,-328,-2827
113,-67,42,922,360,-152
26,-117,-37,-551,-282,1601
64,26,-115,-1393,329,2965
113,-35,36,-2560,434,4589
-27,-49,2,-573,-1383,7437
26,-58,-107,-2445,117,4641
-124,42,71,-170,-1878,5059
-122,-4,-57,218,-805,4072
97,-79,4,-581,-530,3945
109,-124,-7,-100,136,3063
74,45,-88,582,-69,2863
-7,33,-106,470,-787,2251
-34,26,-93,414,-98,997
-99,-28,123,1124,-349,-221
-113,-94,-126,980,-128,-616
110,58,121,550,81,-1022
80,-32,110,798,-57,-656
91,-60,123,477,-106,-347
-124,-81,119,419,103,-484
-126,-95,108,204,-3,-531
-121,-101,97,-86,37,-328
-115,-78,86,-142,-47,-119
-107,-50,77,-152,-70,-92
-106,-21,72,-226,-128,39
-98,2,75,-230,-147,23
-94,28,84,-232,-98,-19
-89,32,83,1,-88,-98
-87,23,81,132,-114,-82
-88,31,79,-52,-74,-172
-89,20,78,67,-35,-162
-82,11,76,100,-6,-87
-74,16,66,169,-52,-112
-72,16,65,63,-28,-84
-75,14,60,127,-64,-43
-65,21,60,93,-40,-49
-62,18,58,138,-94,-9
-62,28,60,94,-93,-58
-65,22,62,83,-114,3
-56,28,67,108,-69,-49
-61,24,68,108,-91,-25
-57,26,71,91,-39,-12
-53,27,64,131,-52,-1
-45,37,62,28,-50,-41
-50,33,61,127,-60,-24
-87,-13,-10,1864,-2436,-5108
36,102,-61,-1361,435,-10324
-110,43,32,-1188,958,-7912
-37,-11,110,-3383,3099,-5320
74,-102,45,-1578,4102,-2583
-124,87,-30,1030,3162,-249
-124,-65,27,-1864,4241,2854
-44,-119,-27,-2341,109,7314
32,-35,-125,-4608,-2156,8743
88,22,67,1304,-6015,9902
13,-83,-12,-3676,-3765,2740
-26,87,100,182,-7238,-2564
-110,57,99,-464,-3809,-7282
106,-28,15,-914,-135,-9346
-47,-108,-30,473,2002,-6833
-29,-119,-62,-293,4938,-4821
-79,19,7,1343,3344,-1554
-124,-94,79,-1023,4620,1968
-2,99,120,-2432,5261,5152
16,-26,89,-3142,5448,7318
-98,-37,80,-308,6020,8977
-111,-97,-77,-5314,1354,5454
-98,92,118,1784,-3543,1602
101,118,-32,-5841,-7992,-975
69,104,33,-4372,-9196,-6041
111,-3,8,-3054,-7363,-6402
-42,-103,63,-3458,-3155,-7672
31,32,53,-2315,-4283,-6769
-58,35,-107,-3402,-343,-5988
77,122,105,2740,-701,-1724
69,-20,-116,431,811,1984
-5,74,-25,-1038,252,5457
74,-90,89,-2041,2176,6587
-53,102,-26,-466,-752,9503
-36,-33,-36,-2563,1503,4817
59,-36,-2,-1284,-1688,5283
105,21,-39,-290,-486,3369
-91,86,-48,293,719,1967
11,102,113,300,254,2185
-36,-1,114,-662,-546,1934
50,22,123,4133,-2139,-1564
23,46,-36,-2883,127,-5049
61,-127,-123,-121,818,-6766
-111,-87,-120,-1434,4599,-6085
43,66,16,-1061,4403,-3455
1,37,-113,-674,4846,-1543
96,61,11,-605,3267,788
-121,-51,110,-452,1990,3053
34,87,83,-1873,1186,5921
-48,-76,-123,-2080,-1043,7238
22,113,24,-1577,-3841,8037
52,98,64,-3310,-4182,3410
-119,57,-34,-79,-7297,-1317
51,27,-39,1518,-4287,-5276
54,-42,86,-2563,-1980,-8882
-29,-19,-10,118,2375,-7980
-19,-63,-53,-524,4228,-4630
-115,-7,-92,-132,5694,-944
-3,-18,-90,194,5236,4232
66,52,-70,-3847,4152,7414
-82,-127,115,2560,2222,10553
23,-9,-49,-3659,8787,6982
65,87,15,191,-1840,3047
-52,-86,-66,-2284,-7361,-1316
39,119,14,-1816,-11864,-3344
88,-26,47,-4007,-11221,-4732
-21,71,63,-4442,-7551,-6508
-56,100,-23,-1645,-5618,-5878
-47,22,-52,-4245,-3327,-5034
33,95,-6,-1993,-1857,-2250
82,-18,67,1668,384,1832
-117,52,-88,146,1528,2708
-79,-109,24,-1528,2227,4012
-91,-121,-112,-3140,2948,6457
-74,-83,-51,4038,925,6377
66,107,108,-2534,3035,5761
-32,85,77,951,1549,5550
23,-60,-123,474,2024,5580
-37,-79,24,-761,1836,5463
39,-115,43,-731,3113,5373
-94,33,25,-1031,-1018,5513
96,-26,14,2562,-3038,585
-100,-84,107,1927,-2288,-1392
105,-116,-16,1281,1129,-1953
80,-9,111,1910,848,-1668
114,-85,118,709,-1149,-1500
-76,-39,-44,-2099,-1353,-2060
-34,-68,-39,-2511,-261,-2937
70,61,-59,-1353,431,-2654
54,20,-84,206,-115,-2206
-50,1,-112,1135,-726,-1956
124,21,84,1774,-1443,-1006
-107,37,125,-101,-356,583
-86,-99,-127,-1858,89,739
-86,-86,91,-1641,-167,903
-76,-58,112,-1073,-803,912
-55,-18,126,71,-616,927
-67,26,79,889,-1195,53
-67,50,61,501,-644,520
-71,80,92,-1041,-191,770
-109,-127,57,-1403,-483,811
-125,-76,62,-619,-263,95
-92,-104,53,255,427,-791
-84,100,-20,1094,-368,-1547
-91,21,-1,752,-181,-1184
-112,-31,-13,955,-273,-916
126,-63,-14,556,-180,-366
-121,-15,11,-575,50,91
-105,13,-3,-668,-54,135
-98,34,14,-615,-70,538
-84,63,29,-203,53,316
-77,79,26,91,-170,-67
-74,100,40,171,-109,-406
-105,59,1,232,-466,36
-104,62,5,-234,-254,159
-88,100,15,-602,-67,291
-76,121,21,-170,722,-125
-87,98,-11,776,515,-23
-62,-124,18,-928,-13,-157
-60,104,-9,-573,-1055,305
-16,-113,-92,-690,2794,-4405
-20,117,-95,-908,3667,-3729
119,106,51,-359,3934,-1596
-7,-78,-58,405,3520,538
-43,-116,-46,-280,2974,3247
62,-60,25,-667,1668,5036
127,-81,112,-765,-1341,7230
-94,99,95,-8,-3343,8630
-109,-41,37,-2158,-4330,6145
-106,-128,110,-1892,-6134,821
13,17,-108,-2380,-2574,-5575
64,-19,110,-2534,-1555,-8924
-55,-34,-33,-1093,2532,-8656
-54,50,-84,-381,3675,-5488
-95,83,-72,-502,4338,-2854
-38,115,-66,2339,3694,983
-89,76,68,-1319,5451,3542
-22,-99,-125,-3428,4648,5636
-114,59,-122,1238,2290,9410
77,89,-20,4838,3322,8545
116,106,80,-4727,3447,4392
125,12,94,723,-2777,1291
-24,-105,-53,-3673,-6746,-917
65,-82,114,-3380,-9599,-2001
-106,-114,0,-5840,-7172,-4491
-31,-16,-88,-2979,-6332,-5806
-80,-56,36,-4007,-5173,-5402
105,-123,-118,-4299,-3144,-5555
60,-24,28,-3024,-714,-4054
2,112,-72,1416,50,-645
67,-2,101,1054,875,1820
22,-67,-19,-679,654,4135
-28,65,-117,-1,2017,6170
48,-6,-44,1159,1678,7728
41,116,2,-691,1836,4911
-22,40,37,-1034,-16,5049
-76,123,14,385,-380,4090
-107,-94,127,1102,1591,3852
-100,57,10,1896,1386,3806
-53,-85,23,60,1384,3514
-65,66,88,-3059,663,-5952
-94,101,89,-2625,-223,-3519
12,93,-46,-3233,-746,-2142
-80,69,59,-4695,1136,736
25,116,-33,-2514,5425,702
-48,48,105,4056,6663,1705
108,-53,65,7616,5637,2359
-88,-77,41,6885,5748,1761
2,-115,95,2489,8126,2471
27,-106,49,75,7996,4133
22,-42,-84,-1030,9451,7397
-45,5,-72,-7041,3743,4979
107,-88,-110,-2204,-186,1592
-17,-40,-31,-2808,-6846,2203
57,54,-48,-3490,-8639,-1291
-113,-102,127,-1462,-9871,671
27,23,-42,-6869,-7960,-3170
-13,122,117,-5825,-5684,-6160
22,8,15,-1945,-5091,-6142
72,-25,0,-928,-2698,-3062
-75,14,-71,-545,-1061,-2327
-103,5,112,-49,-156,-163
82,66,41,-16,78,1484
17,-108,-40,170,-163,3743
-66,-33,-51,233,1835,5943
22,18,102,187,1541,7638
-74,2,28,-200,2228,5526
-114,22,-20,-1313,336,5337
-17,-53,73,-1815,707,5059
-68,37,108,-862,1289,4168
-95,73,72,853,1945,4064
3,-44,37,2667,361,4817
-5,98,79,1628,-443,4684
43,112,105,-579,-1103,1783
-104,59,-98,-718,-864,-786
88,-116,-62,406,-229,-1310
43,-6,-78,1748,-87,-1243
76,-35,-90,1376,-43,-1167
94,-40,-94,33,-399,-1440
-123,-60,-78,-1272,-423,-1696
-9,-66,98,-4859,-1015,-4690
-92,-49,-96,-3602,5967,-4869
56,-54,56,1187,4957,-1464
-65,64,-32,-1110,5490,-517
-32,26,38,2224,6290,1634
-126,75,54,5516,4627,2145
-11,-2,-67,352,3252,4615
49,-49,63,691,3985,5600
62,63,-94,1009,5284,7736
123,-79,36,4791,4196,8987
-96,75,30,-1737,5835,6775
-125,-87,-51,-10304,2333,791
112,-19,50,-4564,-6269,1525
-22,73,-35,-3037,-4944,-5067
16,-51,116,-80,-9594,-5115
117,68,38,-4169,-9886,-5927
18,-84,-46,-1648,-4905,-6546
-26,-106,-103,-2142,-4462,-6362
78,81,-78,-3034,-2909,-5323
-113,-77,80,-1753,-212,-3262
32,110,-5,626,-858,-319
78,23,-74,633,-412,1224
-11,-86,126,-980,-210,2267
-33,-62,55,-391,-241,4214
76,-79,27,-113,-732,7233
97,111,79,1128,580,4378
98,-101,2,111,-37,5538
82,-41,76,-1463,-157,4559
-117,111,116,-444,554,4590
109,75,77,236,809,2797
60,-91,62,283,812,3214
81,-120,81,-414,508,3512
106,-8,110,-1616,171,2700
43,40,81,-79,-472,1926
-71,20,117,1526,-696,378
-112,-30,111,1564,-283,-1267
117,-107,-122,187,19,-940
100,114,-123,-435,119,-1286
-98,54,-123,351,352,-1755
-32,-30,125,1141,437,-1788
-82,-90,-38,-1576,1527,-4369
-90,42,-39,-2311,2353,-4466
-5,34,-68,-595,2624,-3611
11,-114,47,-1340,3277,-2491
-17,87,8,-1130,4303,-463
-18,-91,-98,1007,5016,1978
-25,52,-57,2116,4537,3252
62,-96,28,-538,4543,5510
-118,109,81,-114,2801,6669
55,-18,41,2919,1520,9866
100,-36,-118,4559,1895,8061
113,123,19,-5258,2615,4082
-87,0,-90,372,-5924,2940
14,-81,38,-3321,-6344,-3283
-67,107,101,-2430,-11447,-4329
-44,26,26,-4340,-10017,-6472
60,-13,27,-3300,-5839,-7633
124,-109,98,-1013,-4795,-3922
70,-4,37,-2649,-2714,-1587
-56,34,36,-2989,-1185,557
44,92,-32,545,529,3312
4,57,100,-1130,178,5630
-36,36,-14,706,1028,7428
10,5,90,3303,-1274,9764
-104,-118,6,-2874,1796,6131
57,-34,-74,-2185,-378,3919
-55,-84,64,-876,-889,1356
102,73,118,2284,-694,830
-13,-82,0,553,526,203
-102,53,-30,-1009,1446,-209
56,23,105,1660,2069,-524
-117,-68,-83,2248,-416,103
5,66,-4,-1444,303,-508
20,-3,-7,-1034,111,-750
-50,-63,-12,130,-891,-487
-23,31,93,-1255,-260,-650
-21,14,-117,-733,-248,-630
-60,-21,-115,726,-560,-451
-85,14,-113,16,-154,-292
-69,-7,123,452,258,-103
-95,50,1,-1166,2359,-5608
50,-98,-102,-766,3037,-5711
124,83,63,-2939,3787,-5305
-59,59,99,-3343,2865,-2960
-39,-67,102,-2397,1959,-1260
-36,-76,-75,-786,2225,1610
-43,-79,-68,358,2711,4367
45,75,115,117,1745,5768
69,-50,98,910,2106,7438
36,63,59,2078,2588,8851
-76,108,-16,733,1933,8785
-30,42,-41,-4705,2830,7261
124,-31,-9,-6065,-273,3064
81,123,76,-1774,-5862,-776
-67,-76,-81,-3168,-4369,-5017
-11,-65,35,-2009,-6423,-7060
-113,-54,-98,209,-6402,-8689
41,-1,-25,-725,-6682,-9371
110,50,-55,-3843,-4976,-8129
-66,6,-122,-2284,-3441,-5076
7,64,100,-1776,-2246,-3381
32,22,-79,-427,-804,-823
111,-69,-51,1604,-84,943
-20,119,-94,584,197,2780
33,-6,-113,-532,501,4267
-37,119,105,-766,1199,6261
-11,-74,-3,1542,-541,6808
-92,-75,-57,-964,1312,6145
57,-17,66,928,-2087,5402
14,113,104,312,255,4450
-67,-118,120,674,-41,4842
17,12,-123,301,345,6155
-45,-27,-36,-2037,258,6069
78,-8,-72,-1966,-857,3180
3,46,-10,-104,-1043,466
-117,87,12,1938,711,-1893
36,-53,-85,1816,797,-1063
-2,-85,117,1051,356,-937
69,111,-118,1772,492,-1428
-49,-2,-80,1671,138,-1630
-79,26,119,-1720,3112,-4267
-78,-119,-62,-1113,1834,-3103
56,26,3,-3467,2778,-2630
-75,-72,117,-700,2773,-154
0,-50,-115,-948,3567,1316
73,-65,-68,-258,3342,2942
-71,50,-71,895,3456,4624
-12,67,92,1266,2620,5678
101,24,6,3279,3961,6425
-42,-82,18,-981,3563,5616
-123,-65,91,-793,90,5464
-107,-25,-4,-1042,-583,5532
50,85,65,-1899,-1299,3965
-89,97,-43,731,-5162,792
-89,-119,-80,-765,-7842,-1238
-68,121,-128,-1303,-10345,-2141
17,89,-16,-3691,-8428,-4199
34,-34,64,-2069,-5825,-4905
48,101,-32,-686,-4849,-3567
56,55,32,-710,-2963,-1848
123,-57,43,988,-1266,-912
92,81,30,-1269,-952,123
35,-45,18,-1608,100,1033
18,81,-86,-74,1058,1294
72,-8,-6,-202,1236,1318
73,-8,-126,-180,1514,1537
101,103,-110,-291,2174,2390
60,42,87,-753,2426,4026
-83,-105,-40,1025,2321,5680
102,28,-89,-1956,2602,5867
31,-76,106,182,2034,6191
66,99,15,318,1423,6520
76,-53,28,1063,1707,2925
110,83,108,-439,1459,2891
-87,-56,124,242,-41,1609
-117,-76,-64,461,535,462
38,77,-78,1482,94,-134
-10,34,-101,2000,-173,-454
-1,-19,-109,1694,-274,-529
48,-24,-80,513,395,-931
55,-37,126,1464,4101,-4087
90,121,118,1314,4109,-4757
-69,20,-58,216,4726,-4482
45,80,53,-1014,3502,-3416
87,79,86,-947,2392,-1490
23,26,-75,-1182,3127,752
-24,-21,-10,1377,1969,3315
-69,88,114,384,2299,4863
113,115,85,-562,2632,6019
-118,-86,20,37,2208,8729
81,-2,-115,2007,2064,9876
84,-119,-112,-8429,3001,4941
44,-91,-53,1221,-6531,-988
-44,-119,-54,-3647,-5901,-3363
69,-38,-93,-2568,-9671,-6093
-111,109,78,-4372,-7863,-6931
24,38,-94,-719,-3913,-7211
-35,57,16,-202,-3823,-6632
-11,-63,19,-2766,-3717,-6765
111,-122,23,-908,-1803,-4285
-104,80,65,-308,-440,-1766
80,19,16,1138,-581,396
-52,22,-36,-423,-213,2026
-6,-75,-79,-1567,-12,3498
64,9,-126,-1758,202,4352
42,-31,124,-2243,-1022,7015
109,7,-79,1869,-1612,6762
-4,-84,-40,-1189,1128,4760
46,-94,83,1401,-722,5270
80,-118,122,484,28,5355
7,-73,-102,-631,-464,3991
-55,87,-85,-371,775,3180
98,-34,-96,366,-58,3245
50,-33,-83,1206,-163,2899
-33,-7,-78,1234,-316,1388
-127,-20,-109,1216,-342,-204
98,-97,-103,992,-288,-509
105,83,-97,717,6,-957
117,32,-109,609,-148,-1320
-117,-4,-86,261,-283,-1575
-103,-119,-119,-171,4631,-2608
38,87,-128,2795,7571,-2621
-74,-109,113,1484,3021,-3484
-91,124,89,1367,2788,-3274
-53,-30,111,-466,2316,-1273
-114,-5,62,-1232,3256,869
8,74,-75,-418,1326,2033
108,127,-112,98,-19,4898
19,-33,112,2885,-201,7039
-45,-48,83,917,989,9054
35,33,108,-3952,-734,6141
79,-37,113,-6122,-4231,-1673
-58,-49,122,-2904,-10563,-5836
90,-95,-57,-611,-1187,-8670
-37,-101,126,-460,-88,-8406
18,89,8,-2992,3793,-7036
117,86,-50,-907,5086,-2807
47,113,-76,-63,4024,1457
15,87,-23,-2338,5177,5364
10,-32,52,-691,5191,9037
-49,-96,24,-1127,5115,9786
82,-125,102,-5658,1224,4364
-72,-25,28,-7496,-4534,153
-1,-61,83,-739,-9896,-3428
29,-5,-57,-680,-8920,-5207
91,15,-43,-3614,-8308,-6781
-24,125,69,-4848,-5413,-7318
-90,-59,117,-4010,-3744,-7003
24,-46,-37,-116,-2027,-4236
-23,-42,85,2224,32,836
-60,-61,3,-888,2003,2110
82,-27,-36,-2233,1609,5492
-123,61,42,-1096,3188,8780
0,-94,88,-426,1538,9313
-64,-119,12,-4507,3409,5510
-107,75,-86,-4019,-2656,6516
54,-43,42,-2415,-1028,3919
-61,-97,125,-829,-1295,3622
26,116,71,1418,-1556,2650
87,-103,-38,2471,-1154,681
-127,86,120,590,1983,-4766
88,-88,97,-651,2931,-5005
-37,34,-31,-666,3463,-3885
-41,42,-71,-864,6175,-1672
-29,48,119,1979,4841,725
-92,-122,26,2552,4453,3767
14,113,49,-649,3893,4952
-16,24,87,151,3900,7118
-2,110,52,2395,2680,9295
-6,13,40,-3038,4078,6991
-61,-11,15,-13909,2626,534
-20,-27,-69,-1139,-7087,-647
2,90,114,-1680,-4918,-5882
88,67,-52,-734,-7969,-6261
109,96,100,-4730,-7685,-8420
-32,113,-73,-1565,-2961,-7822
16,-29,64,-1115,-2117,-6349
-87,110,-47,-1292,-1851,-4808
-73,49,-118,-1124,-1035,-3087
-27,36,-102,-524,-546,-1795
-14,39,-83,140,-43,135
-72,-121,-111,148,-176,1561
-68,-49,114,-36,-235,3029
4,81,69,-25,-101,5376
-57,25,38,546,-121,6375
127,-64,6,-399,713,4896
118,-45,-24,705,-768,5090
117,-46,94,-27,25,3719
69,83,86,1096,188,3401
43,41,99,361,534,3023
8,-77,98,436,1069,2864
18,-61,100,-544,1103,2605
3,-77,120,-1663,461,2212
11,-47,-77,-2168,-313,1914
-38,-28,-80,-272,-507,670
-82,-44,-76,1128,-231,-426
-84,-87,-86,1071,498,-1014
-77,111,-128,920,527,-1677
-73,25,102,616,362,-1645
-68,-29,99,442,223,-1586
32,124,-95,1576,3432,-3568
-77,2,108,1714,3385,-3958
92,-96,106,-28,3597,-3716
-59,-34,5,-382,5012,-2897
9,73,-128,-818,3885,-505
-79,86,59,-935,3996,1134
-73,76,108,3442,3712,3832
88,38,47,3605,4492,5987
-52,13,44,3291,3703,6610
-51,-21,94,3559,4505,8167
-3,40,-27,-5565,5388,6509
-50,-17,86,-18085,1233,-4117
-27,109,89,-1356,-10933,-1646
103,-102,101,-3670,-4114,-8820
101,-102,-4,3133,-10087,-6880
-120,-110,-1,-5424,-5316,-8269
22,78,99,-407,-3262,-8822
-72,97,40,-1522,-1511,-6485
-93,15,116,-932,-1787,-3989
-104,111,-121,-1223,-1520,-2474
-45,58,-52,-359,442,-1265
-93,42,120,867,-282,506
-95,-94,127,-559,-388,2312
-2,-20,91,-845,9,3717
120,17,32,102,-127,5875
-119,-11,-4,699,-770,7894
-87,27,71,-771,1098,5417
57,-16,-51,1526,-286,4953
-14,-56,-18,-621,-395,5183
-103,113,49,-1215,-671,4948
-83,-62,-3,-3441,-1211,4046
-29,-31,-119,-3312,-601,2984
110,-37,74,-400,123,620
-34,32,-57,4446,270,-1319
-81,-107,-116,4158,395,-1107
121,73,93,1904,711,-1041
113,10,81,481,557,-555
81,-47,58,1094,-88,-116
-126,-57,88,949,36,-177
-81,-64,111,364,-89,-275
9,21,87,5157,-4787,-819
60,-21,-82,-60,456,-7459
-111,-113,-102,-3152,5799,-10835
-45,101,100,-3343,5789,-4168
-14,50,83,846,4513,2242
-13,114,34,-2127,3193,3732
-42,-65,-91,-629,-547,8255
66,95,108,-4581,-5504,10485
120,-106,-58,-853,-8290,7264
76,66,-76,-297,-7936,-3939
-17,-116,102,-3627,-2956,-11020
80,22,-19,-1594,4114,-11464
76,15,-109,-24,6512,-6594
91,-49,106,1837,6070,-1800
40,109,-84,-1594,4203,6312
84,-34,22,-6786,4672,10596
-76,102,-84,609,245,12213
-51,-102,41,-133,1340,6740
20,46,-18,-6564,-5604,-324
-21,-20,-78,209,-8503,-6040
67,122,-62,-374,-6211,-8579
-54,68,91,-4840,-7414,-10494
-25,-126,83,-2882,-4649,-8118
-49,-84,-44,-3494,-1051,-4656
-105,20,31,451,-1756,-1894
-17,115,-124,1700,1725,1197
89,-106,-93,-570,1026,3187
-51,-95,28,-855,1110,4981
120,-110,-63,-532,178,7340
-36,77,-101,132,1212,6789
-74,55,-117,-727,-170,4996
59,52,15,84,-170,4679
2,-121,30,2054,-870,4694
-57,-113,-119,-846,1879,3546
-124,35,20,1300,296,2919
69,-10,64,1130,126,2470
63,-20,103,-227,1808,1562
-30,-73,30,1111,78,1224
-79,-73,70,1444,-61,-236
-70,101,-97,1245,-255,-1043
-43,113,53,-2563,1470,-6206
125,-109,91,-1868,4990,-8914
-97,92,-2,-2285,5516,-8211
-43,-125,-35,-1576,5305,-3762
-119,-31,5,-1122,4016,-1701
-48,-1,43,-497,4019,-199
-41,9,-119,345,2762,2847
8,-40,-92,-2126,1399,5917
105,-115,-47,-515,310,8611
-56,-62,28,-955,2041,10863
-24,-78,-94,4684,2575,11781
-112,-81,-23,-8143,2064,5495
77,-74,-24,-5359,-4213,867
16,19,-50,-4426,-5352,-5298
25,-15,-50,-56,-6753,-8256
71,29,-55,-1317,-6609,-9081
-83,-39,-92,-4282,-7005,-9732
9,36,58,-5541,-3662,-8773
-10,-87,113,-1485,-1218,-5145
65,74,29,1190,-1305,-862
89,-95,-92,1004,788,1440
-31,-47,78,-1031,1062,3705
-79,102,-45,-12,1969,5299
-105,-101,99,-1568,1565,7522
-99,-36,41,577,1045,7575
-26,31,-39,-1539,1465,5909
16,-101,-84,1,-882,4705
-122,-96,47,-651,-9,4056
31,10,93,-400,-988,4797
87,0,-40,-18,211,4171
14,19,-126,1079,-57,3566
120,47,79,2053,-1091,2446
-43,87,-128,1310,-807,-471
-99,-45,-109,395,-222,-1284
115,56,-123,780,-247,-1397
-114,6,-104,636,-240,-1654
-81,-50,-86,495,-217,-1988
-42,-125,-66,172,19,-2125
-8,65,-74,277,27,-1965
-29,5,-94,379,-38,-1273
18,-12,1,-3104,657,-4749
-111,-62,-127,-2613,1632,-6977
-91,-125,-65,-2674,2239,-7404
52,1,9,-3768,2689,-5592
-40,-34,117,-4411,2570,-3057
107,-89,-56,-4165,4470,-683
-89,-78,10,2530,3570,2502
2,52,25,1062,4156,4733
-121,-29,108,-1682,1459,6979
88,47,106,-478,-748,9548
21,-108,-76,-1566,-1374,9486
67,14,63,-869,-1194,8421
41,28,-50,-9761,-4153,1659
55,-120,-114,-4376,-5306,-2230
-47,-77,61,-2309,-3168,-6701
-12,39,-2,-2877,-1517,-9397
85,-44,-34,-2350,2147,-9992
-27,-65,-111,-961,4064,-7347
-82,-20,-39,-1221,4995,-3870
-45,-49,83,-137,3710,-1325
0,-22,121,-185,3859,3663
29,55,-82,-2796,4911,4362
-52,-4,28,-3053,2929,6712
80,-58,27,-989,2141,8591
-84,51,-61,2553,1939,9616
65,-122,121,-3527,2974,7374
15,-29,-12,-5817,808,847
4,-7,41,-4939,-6342,-1881
32,-27,-47,-2770,-5675,-7648
16,82,72,327,-8176,-7865
111,9,39,-2740,-5108,-8148
-50,-67,-75,-2742,-5267,-6801
13,-7,102,-4540,-3592,-5542
-89,119,-100,-1851,-696,-4165
120,49,-94,592,-1065,-2145
47,-64,-11,-172,-135,-583
14,21,-23,-440,174,651
-49,67,-67,287,265,2977
-4,-54,-91,138,857,5099
-47,63,-101,360,1218,6188
-59,46,85,-181,2565,5378
-88,-4,-28,324,1344,5327
-68,-100,25,1179,1309,5140
-76,-45,64,951,1534,3521
96,9,40,518,1368,3529
65,-73,54,-592,715,2821
68,-100,113,-1697,296,2647
40,-97,-123,-573,206,1542
-70,84,70,2115,-1084,899
-96,89,-128,879,-655,533
109,86,-80,-681,-306,263
86,47,-82,-356,-324,-124
101,-3,-78,337,-442,-168
74,-19,-77,425,-1066,-509
87,-102,-59,969,-288,-60
46,87,115,1900,-190,60
106,82,115,850,-378,-206
112,12,97,420,-361,-151
96,-14,96,130,-281,91
69,-38,60,482,-151,409
75,57,44,-241,-431,292
93,44,71,943,-519,527
90,-122,110,-6,-32,641
90,-66,94,-1030,144,200
65,-108,68,-423,12,42
38,106,56,409,-205,283
43,-102,61,-50,78,398
48,-35,33,-42,-107,-125
55,-59,32,363,-64,-112
75,-73,18,335,-40,-159
91,-80,18,127,10,-219
79,-90,8,33,-172,-442
84,124,35,53,-39,-248
87,-122,29,98,26,-214
97,-101,15,11,-48,-128
95,-63,17,-368,73,-145
95,-44,10,-274,84,-111
121,-23,7,-163,207,-160
121,-20,-14,79,40,-316
120,-17,-13,-39,71,-338
-72,-94,120,-1921,908,-7419
-47,-66,-72,-1792,1841,-7449
122,-80,-89,-3049,4141,-5983
91,29,-116,-1354,4420,-2636
-65,-29,20,1982,4527,344
19,-7,-33,-818,4882,3645
-59,106,31,-4033,15,7797
-83,69,-98,-4524,-3723,10494
14,-117,66,1438,-3637,11883
-25,38,-72,-10122,-3753,1407
110,35,-20,-2574,-7168,-4767
-22,16,-49,-1515,-1663,-7393
46,-98,-66,540,754,-10015
-103,63,-100,-531,1818,-9678
16,51,122,-4899,5686,-6586
-15,9,-24,2086,5623,-1393
-128,80,-41,-2790,7166,4564
96,42,-81,-5666,1809,9030
-21,118,-65,-3214,-262,11600
-109,-97,-53,5696,-2009,11477
88,-111,-76,-11653,-3653,-226
108,41,0,3204,-10656,-5901
62,-54,-110,-153,-8736,-9094
120,107,2,-4848,-9378,-12167
8,35,-116,-2994,-2770,-9556
8,30,-83,-533,-28,-4071
-117,-41,-116,-80,-1079,-960
32,-73,98,841,1574,-36
-29,63,101,-310,168,2578
31,14,54,-1291,202,4860
-51,68,26,-2217,243,6366
50,68,50,49,-1057,8162
-22,7,100,-1058,429,5934
122,-58,38,1605,-1143,5300
62,-96,-105,2,530,4641
5,-53,109,1387,987,4163
-47,-46,39,269,247,2811
86,95,50,309,93,2163
-31,-34,58,648,-72,1683
-66,-66,64,1160,-239,1225
-98,118,-118,-583,3009,-6410
7,39,72,-474,4606,-4881
-23,87,27,-519,6213,-2369
51,124,-37,1825,5109,677
24,88,91,-897,1301,6746
-77,-4,124,-2445,-5103,8854
-103,-11,-9,762,-6633,4956
-105,-49,67,-3199,-5053,-3173
-119,-124,47,-369,-1479,-9573
-8,51,-52,-385,6276,-9213
-2,-93,-103,667,4962,-4984
48,-123,6,683,5481,245
11,120,20,-5471,4597,8323
67,56,-11,-3402,1019,11268
-60,-44,69,604,614,10749
-128,-123,76,-2237,-1669,1985
7,-38,15,-3767,-9771,-4307
56,-92,98,2266,-9243,-8773
-97,82,98,-7062,-8147,-11765
-78,-1,75,-3189,-3352,-10182
-17,-69,-94,788,-52,-6367
-2,-31,-124,-565,607,-1229
29,-73,-92,-576,-739,1540
-73,86,61,-524,-401,4455
-61,56,80,-1308,179,6720
-57,13,39,-985,352,8205
-64,-28,63,-694,-467,6723
-84,32,85,-1543,-889,5512
26,-17,-112,1461,-829,5374
-26,-79,-75,-77,-346,5277
-3,-16,-108,1753,912,5346
-66,11,26,3240,-65,4489
-65,-85,2,1748,-207,2295
-7,-118,14,682,-184,-346
-119,-36,45,1315,-319,-519
77,51,77,1263,-223,-718
91,-42,82,1755,-369,-603
109,-92,112,1134,-594,-926
-107,123,-96,-15,-472,-1045
-93,100,-95,-669,-533,-1220
103,9,97,-1354,3029,-3761
112,99,106,300,1903,-5808
59,58,29,-2054,2772,-6479
11,-4,50,-1495,3504,-4167
-122,-44,48,-2215,4248,-2179
58,118,71,-2175,4850,-557
91,102,-44,-1774,3687,1375
80,-34,33,2379,2576,3644
83,-22,-87,2456,989,5138
-70,-54,97,280,4233,6140
-56,-73,17,-103,3833,8713
51,-35,-64,1242,3711,8979
-99,85,63,-1148,3644,5906
-61,7,26,-4096,-1001,1681
105,38,-74,-6737,-6668,-1260
-1,26,88,-6255,-7500,-3840
43,-43,-37,-8045,-6637,-7488
-108,-36,82,-113,-4306,-7452
-38,69,64,-2888,-3118,-7053
-21,97,-73,-2498,-1047,-6354
15,84,120,-1365,-1692,-5112
-124,52,-66,-841,-573,-3453
-103,-51,-29,178,114,-1207
-26,19,-104,-466,-1080,755
-25,-72,-117,-1253,198,2397
-3,-68,94,10,-35,4054
-103,64,44,215,104,6410
2,-100,58,-763,488,7384
-63,-104,50,237,77,5603
-68,-91,83,1982,-522,4191
80,8,120,-801,399,5033
22,-122,98,1287,-751,4281
-31,-58,91,1013,113,4343
-113,-96,111,1314,-406,4153
52,-22,125,1424,53,2773
-29,52,124,1245,-57,869
-108,23,123,1310,-36,218
42,-10,-127,722,-546,-756
56,-68,-90,53,-10,-1513
116,58,-83,11,28,-1978
92,63,-111,428,2912,-5110
106,80,103,1017,3171,-5653
-50,75,32,-393,3254,-5793
-12,80,-121,-1448,5758,-5600
-124,39,-92,-1051,2922,-2821
53,27,-68,-1459,2614,-353
-102,20,111,-398,3371,2154
10,-110,8,-3051,1993,5186
1,-50,7,-2374,404,6194
55,-49,14,-2130,-1144,7826
127,-73,4,-147,-2863,10202
47,-33,17,-5349,-1504,6433
-2,-98,23,-4557,-3403,-1868
-81,85,60,1714,-6457,-4768
68,-5,109,-37,-4917,-8337
94,-102,-94,1425,-5920,-8963
-58,6,51,507,-4508,-9636
-22,94,48,-676,-3745,-9230
12,7,-60,-1869,-2930,-7735
73,-51,-52,-1627,-410,-5712
25,-22,64,2126,344,-1573
-58,-95,-72,475,556,2092
111,125,101,-1992,-539,4525
70,48,-82,-1966,-97,7224
-38,-28,1,-2477,174,9444
34,3,74,-2267,394,7260
56,-44,-72,-2267,-1741,7091
-50,-77,-54,-29,-2152,5977
9,107,104,-3667,-170,6094
-10,103,100,-2455,-1067,5751
-123,-88,38,1951,-2001,5926
-95,-19,-15,3115,-2006,2990
48,-37,88,3684,-2269,445
-86,-38,-124,115,-241,-138
58,-127,93,520,-645,-921
87,-1,-102,1002,-475,-1535
-65,-128,-48,1617,-281,-2782
-97,113,-56,3078,-907,-2851
116,-12,9,921,-980,-2106
-128,-13,27,-907,-572,-1852
84,116,-104,63,1730,-6555
23,-3,-125,557,4506,-6792
-6,19,100,655,4984,-5234
-30,-27,94,-242,4786,-2700
-93,-14,-116,118,3584,443
59,-107,86,-418,2448,5444
-43,122,46,-3531,-298,7374
-83,39,-119,-2984,-7034,9190
64,-3,-97,-1365,-5448,3150
76,43,21,-3905,-5537,-5477
39,-63,0,-1058,-313,-9249
123,-116,-59,663,2176,-8802
-1,107,-110,-1214,3742,-6393
-62,-128,109,284,3867,-3244
46,-64,33,-2683,5066,1508
7,-88,49,-3531,4668,5704
-128,-76,44,-3821,2688,6843
20,-65,92,-2334,-416,10908
-63,-98,115,202,1972,10229
102,51,-115,-5689,109,7537
85,50,124,-1721,-5389,-4026
27,19,-122,-3417,-6756,-6996
17,75,116,-2418,-6803,-8925
70,24,-4,-4302,-4099,-9508
-77,12,85,-3067,-2563,-9925
34,-82,40,-3311,-798,-7918
-39,-18,0,-2519,-55,-5832
-25,-103,-10,-756,679,-2844
88,84,-35,1773,485,336
-29,94,-64,158,-390,2630
79,-94,9,-935,115,4173
-82,10,21,-983,-26,6186
-17,90,51,-1289,-645,7641
35,-118,58,-399,-350,8240
-72,105,106,-462,-1608,4802
-70,-23,-78,-521,-1789,5599
-47,-51,-69,1136,-1907,6169
123,-124,-89,1694,-971,6520
69,51,-123,756,-52,5537
-53,-43,113,687,-681,1070
87,-53,-53,425,1753,-7103
-73,105,106,716,2635,-8602
-122,-96,42,-1227,3804,-6676
-30,-114,-56,-3517,4386,-5011
62,-58,63,-1551,4302,-1696
9,-98,107,960,2380,1359
40,77,-56,-3505,1138,5067
-1,-8,-46,-4049,153,6240
60,66,115,-3075,-1873,8770
-1,-18,78,-1395,-3917,10566
-51,-54,109,-8507,-2803,2545
100,34,-114,-2233,-8331,-7343
43,-97,-2,467,-3447,-9887
73,15,-40,-3460,1675,-11042
-8,-93,-108,-466,3482,-7117
-16,-14,118,-818,5903,-4024
-89,118,115,781,4254,92
19,1,-32,-2666,4798,4307
-37,20,-96,-7222,7015,3988
-102,95,27,-5185,567,7485
-103,52,-77,-2224,661,10326
114,87,86,-7414,-2637,9276
57,88,12,-6025,1171,94
81,99,-56,-265,-9396,-5380
34,44,-27,-2595,-8169,-9460
8,-29,-40,-1066,-9071,-10527
-125,96,18,-4233,-4195,-12282
12,98,-15,-1753,-2278,-9358
-38,-96,-13,-1006,1565,-6348
22,-47,53,1753,1463,-3243
89,69,114,377,932,1338
-115,-3,-10,-2361,-583,3910
-9,2,-5,-2683,-1145,6386
99,-128,98,-1840,-900,9207
6,103,45,-2113,-1472,9528
-27,29,90,-1782,414,7322
-117,-35,-22,-551,-2018,6743
68,50,53,-2402,-1185,6198
-55,-20,58,-1481,-1809,5426
-47,-6,90,-238,-1883,4038
-71,86,76,-813,1446,-5671
124,91,112,526,1932,-6001
-116,107,115,247,1828,-6216
67,64,80,-1414,3403,-4740
122,-86,25,-786,3709,-3582
-80,125,-2,-2120,2703,-625
-32,-81,46,-3374,3616,952
-4,-15,-100,-1063,2058,4798
-105,3,60,228,1323,6349
-59,-4,49,2659,2805,7659
-89,-3,43,-2465,6165,7801
80,-88,-73,2914,812,6754
-100,-81,32,-5254,1608,5590
-57,-83,59,-6414,-437,34
-23,-126,-9,-3464,-7267,-3269
32,-112,-68,-4148,-8318,-6164
24,-88,16,-5168,-6322,-7600
102,-102,-64,-722,-3435,-8178
-70,-107,127,580,-2946,-7538
16,75,15,-871,-3369,-7512
-76,33,22,-1812,-2169,-6423
121,5,21,-185,51,-3304
105,-35,-80,1170,-905,-691
-65,-65,-57,-1360,-844,142
-115,87,-51,-2086,-273,1898
-110,-38,-66,-268,-887,3232
-2,-40,-49,-1503,-509,4669
113,-80,-69,-884,147,4592
-33,117,87,12,-578,5064
7,-47,-97,-233,-235,4354
12,-112,-75,1377,-155,4009
117,115,36,2278,2260,2689
-39,78,-56,3173,2515,4520
38,-27,82,3788,2788,5071
81,98,69,1061,2714,4328
-55,-29,79,-1289,906,2524
94,-107,97,-1341,539,2526
-21,117,116,-618,159,2841
-50,-104,107,-260,621,3243
-87,-49,82,243,321,1745
62,-53,-5,1027,-1831,-4305
-50,-105,-53,-4447,2926,-3547
-91,49,-22,-3692,3300,-3251
-105,-51,-4,-2165,3485,-2319
22,47,118,-2215,3405,-707
-33,-48,53,-1164,2713,1133
1,120,-67,765,2311,2456
97,90,120,-390,2719,3592
-99,-10,118,-899,2678,5485
76,-121,109,1097,1845,6216
125,-96,-100,2798,1897,7983
69,59,119,797,4110,7723
-72,69,41,-5529,-43,5206
-47,-88,122,-3702,-4822,773
-31,108,79,-2611,-7055,-1951
60,70,-1,-2830,-7847,-4115
-102,119,91,-3457,-7759,-6384
10,28,-6,-371,-5945,-7070
7,90,-54,-3706,-6122,-7653
70,-15,74,-3292,-4610,-6720
42,-128,-50,-1686,-1363,-4075
38,60,-48,-366,-844,-1995
-93,3,-47,921,82,442
127,-35,-44,-932,69,2326
-31,-103,-31,-1303,661,3938
99,-7,-98,-678,1036,5983
48,30,64,-510,463,7229
-124,-1,15,1041,896,6901
120,108,-47,740,393,6833
124,2,-69,186,-1928,5592
24,-29,-117,-2506,-770,4852
-57,61,-30,-1518,915,3891
56,108,-79,533,1051,2946
55,74,127,2478,-145,2787
37,-126,-128,2591,-896,2825
-47,-37,103,2327,-1335,1087
-101,-26,-81,776,-428,59
82,-79,-59,-264,51,-614
50,120,-80,93,-127,-1036
104,97,-53,-511,267,-1755
46,-19,25,1662,-3597,-2202
50,-119,-80,439,-451,-517
65,-5,-11,-132,-1737,-4539
119,34,19,-2188,1616,-5956
-78,47,-11,-2581,3805,-7139
-49,-77,-108,-2855,4742,-5426
100,29,-90,-2349,4153,-3623
93,-93,8,-1872,3781,-1629
-127,-17,-100,-111,2688,1023
-83,61,61,-524,2751,2907
83,-75,57,417,1550,5522
96,45,19,-1299,1911,7247
98,79,-69,-1786,907,9181
-45,-66,-61,-3613,-1872,7826
1,115,-113,-1873,-4661,7198
-6,21,103,-2867,-3286,2710
81,24,58,-1002,-3754,-1236
-47,0,-114,-3330,-5477,-6546
21,-48,-60,-6183,-4468,-9400
108,91,43,-3790,-1877,-10306
14,14,-53,-42,118,-8980
-18,-2,-43,-1903,-282,-8187
-102,108,-75,-894,-285,-6064
-22,-44,-38,-1122,-8,-4320
-26,65,60,-105,343,-2220
-109,118,76,944,247,219
89,-25,53,-491,-167,2212
-118,30,52,-283,-541,4466
107,-85,2,312,-1118,6503
-92,-96,7,862,-1243,7157
-125,20,113,1210,781,6096
-35,-37,92,-1047,-1388,4125
-14,91,-82,931,-1184,5926
-62,65,-24,-878,-601,5494
69,14,-97,282,-1091,7143
-14,-70,-91,1577,-1506,9013
42,125,47,865,919,6610
-108,-18,47,-31,556,2088
113,-106,84,3194,-2665,-3657
68,42,-67,2381,-1819,-3525
-44,-68,-44,1766,-5681,72
78,-78,51,412,-216,-652
22,-12,78,1269,-806,-1443
56,33,-38,580,396,-2499
-59,-40,-78,405,642,-4112
32,-49,-86,296,2443,-5744
-98,-28,110,-150,3838,-6798
-4,86,79,-365,4738,-5583
-38,99,56,-764,3668,-3259
49,-126,-45,-2319,3599,-1890
107,87,-119,-965,3182,1485
26,48,-39,-363,1839,4142
-21,-70,118,-2419,1986,6116
-50,73,-9,-1665,-726,8719
-77,16,118,1532,-2253,10930
60,83,-12,567,-1557,7680
-7,35,82,-4912,-4323,985
80,-57,-70,45,-5624,-3240
73,-95,84,-2666,-5944,-6808
119,114,-86,-987,-4967,-8111
-27,86,112,-1264,-4640,-8675
-9,25,-69,-3067,-4078,-8785
8,6,78,-2135,-2340,-7132
74,-67,-5,-584,-763,-5031
31,-105,44,-245,206,-2430
-54,64,-58,-18,-152,1310
24,121,-114,-185,-358,4898
117,10,-113,-1251,383,7050
-19,124,109,-1801,370,8344
104,-88,33,632,-488,7998
108,111,-55,436,-326,7213
-64,-101,-61,-38,-901,5653
36,-39,0,-881,-1021,6233
-75,-96,-39,-1432,-1592,5935
-111,38,43,1995,577,2985
-27,-124,-85,4209,-952,2612
-11,-63,-41,2506,137,294
-98,57,-82,2510,547,-627
86,-87,98,2175,115,-967
82,40,108,1287,-202,-1339
-78,71,7,-1005,1690,-6266
-6,-106,-111,-3052,3410,-7941
88,17,102,-679,4543,-6333
-57,-34,101,-1798,4919,-4497
-13,47,-88,86,3713,-2156
124,27,37,-3818,3493,-811
35,45,83,927,2512,2558
103,34,-79,-1710,1322,5812
-91,-59,-11,-1695,91,8148
111,12,21,-832,-1094,10547
121,0,31,-2806,1171,11040
-25,-31,90,-83,1387,7248
84,-70,33,-6649,-4465,672
69,-28,93,-3670,-7395,-6154
48,-52,-43,-1638,-6160,-8395
-118,106,-120,-679,-6363,-10847
19,-50,114,-964,-3730,-11241
3,-21,96,-2675,-1081,-8549
-69,83,74,-161,-306,-5686
82,84,-32,-277,526,-2756
-118,-73,37,340,250,2010
63,-47,-19,-2490,-1207,5675
99,0,37,-1471,-1337,7033
108,81,118,-2297,-2582,9023
-82,125,23,-1162,-1370,6567
48,91,-71,-664,-2705,6819
90,40,-53,-413,-1839,7039
71,94,-69,670,-1891,8237
73,28,-38,537,-1292,7597
-3,-22,-80,1309,-1552,2930
-68,-128,-64,2714,-2402,-1349
110,37,-78,3399,-13,-586
34,6,84,2275,423,-494
37,-27,2,1219,-275,-636
-94,-73,74,268,-1181,-2043
35,105,-57,-784,-718,-3700
-73,-90,43,-1318,149,-4573
-65,4,-1,290,614,-4109
63,-72,-75,1104,-185,-2941
-14,-4,-98,415,-226,-2174
-127,-76,-16,-3150,2631,-2266
-11,-30,118,-650,3494,-5917
86,-34,-105,3821,891,-4294
28,6,101,1206,2126,-4795
-88,5,29,-1943,3112,-5898
12,-98,-62,-4064,4133,-4047
-48,-30,105,-4255,3141,-1923
-11,36,-38,-1602,2899,1540
-44,82,11,2170,1327,4601
-62,76,-100,-599,1897,5957
77,32,116,-631,619,8008
-25,-82,83,917,76,9431
59,-43,-122,3474,790,10542
-79,42,-124,-3678,82,7424
-43,-26,98,-4314,-2039,892
-80,-71,108,-4744,-5858,-1066
-9,-3,88,-5074,-5041,-5641
19,-101,50,-4207,-3395,-8065
90,126,37,-93,-2340,-9242
2,-101,-77,-1715,-2216,-9972
-19,-66,104,-4732,-2399,-9276
2,82,-94,-3903,585,-7533
99,-106,43,1594,1163,-3546
68,-20,-62,-177,154,-717
-105,-28,-119,-604,-501,1072
-100,120,-91,-637,-1077,2980
-24,-22,-79,-1056,-1260,4837
-103,30,-124,1302,-2302,7407
-77,119,-15,2606,-4170,8857
4,13,94,-1304,-1735,3613
81,115,-72,620,-2719,4697
-98,-102,-84,1764,-167,3850
-79,-91,57,3068,3303,4164
-57,8,-118,3644,205,7646
107,-111,-108,1579,1361,6496
3,112,-88,-2151,1114,3586
49,-108,84,-1193,-777,34
-70,17,118,511,-367,-697
118,121,112,2213,95,-646
105,94,53,1762,-56,-841
39,12,86,-1353,838,-5412
120,-99,-64,-1938,2017,-7525
3,-44,113,-1503,3348,-7279
-45,53,-89,-1479,3089,-5648
32,-109,48,-1902,2685,-3026
-23,-74,-112,-2863,2921,-1719
-116,67,-103,-278,1869,858
45,44,123,-557,2088,3816
89,40,21,-1195,2857,5348
52,-23,-37,234,1665,7617
-21,120,-73,1366,1645,9171
5,46,-109,4847,564,10276
121,-49,-39,-3838,3623,7679
123,107,53,-1431,-4860,2735
-95,-70,-69,-7145,-7616,-907
-59,96,-18,-6413,-7171,-3851
-5,120,29,-4030,-4731,-6026
85,-6,-85,-2406,-3670,-6992
-55,55,64,-4785,-4687,-7791
-64,-5,99,-4114,-2363,-6332
-118,31,0,-1612,-1327,-3935
114,113,100,-1949,98,-1596
-37,-62,86,-1590,772,-461
-112,-90,19,-2425,1256,967
118,-65,-7,-590,374,2524
59,-46,-69,325,-678,5240
-69,-71,-20,1036,-2672,9303
27,-31,-40,1155,-583,5908
49,-126,1,639,311,4809
-60,2,85,630,1384,3868
-114,-119,59,24,1982,4419
-102,63,-56,373,1432,3570
87,42,-106,905,-63,2851
30,-4,-84,193,725,1539
-77,67,112,1139,-160,890
-86,-26,125,1603,-38,1497
104,-13,-116,1094,-325,1296
-128,-11,-83,802,294,771
-120,-46,-95,911,-263,572
99,-27,-64,263,-566,70
1,-40,-118,79,2405,-7428
52,48,71,-667,3281,-7047
-67,-72,102,-1812,3691,-5433
99,-85,-97,-2055,2790,-3384
-88,113,-30,-2567,2988,-775
-38,-24,108,-601,2040,1398
-18,38,28,-2171,1424,3657
24,-6,36,-2133,885,6234
-58,-73,4,-1156,289,9116
-80,-9,-25,-930,241,10325
-52,19,-109,1873,-1132,9633
68,-61,-97,-4245,-1550,4502
-46,-58,21,-3519,-5720,-939
-40,-32,-43,-2601,-7053,-5436
19,-96,14,-2433,-6217,-8380
122,39,1,-786,-4644,-8936
46,-121,-33,-2568,-4465,-9356
13,121,39,-2100,-3131,-7627
-21,3,-36,-1529,-1777,-5416
-75,-51,95,79,-264,-2159
43,-112,44,-296,90,1024
-85,54,-25,-972,443,3075
-31,18,113,-58,182,5413
-66,112,35,-1175,378,7132
-120,-26,-22,1277,-405,7207
36,14,-108,-165,70,6018
120,-29,-42,-131,-726,4529
-70,-48,119,1239,-417,4312
-109,-92,-91,398,-88,3624
78,41,-117,1005,-151,3632
20,-43,-106,1120,-402,3413
27,-88,121,1903,358,2890
3,-72,89,2059,339,2680
-93,78,99,-540,1447,1696
53,84,88,83,-777,-498
97,-56,-90,95,141,-1274
-116,84,-127,1173,-21,-2340
-74,-28,-126,868,-151,-2596
-43,-86,-103,-36,-167,-2569
-38,111,-105,-207,-285,-2505
87,114,-100,-4235,3381,680
-3,54,103,-1205,-827,804
-118,-59,100,3098,-3393,-196
-51,-94,106,-1035,-270,-8150
-24,-4,123,-316,2847,-10291
36,-71,-8,-2366,5901,-7521
30,-17,21,-1397,5502,-3389
-7,70,14,986,4314,321
111,-122,-45,-870,3483,2857
127,-112,-8,-3195,1501,6602
-35,53,92,-1943,-1825,8166
-126,-4,28,-2373,-4385,10828
-93,-40,89,-2018,-3656,6934
76,-65,-85,-5596,-5606,-4222
65,-67,-84,-84,-3848,-6969
78,89,-15,-1426,-1007,-10257
-76,80,-89,-1365,1802,-9283
-52,107,115,-2365,4913,-6586
81,-43,108,53,4888,-2553
-70,-43,8,-410,4235,1629
-110,-20,-22,-1771,3692,5689
-53,116,-7,-4092,3856,6596
82,-10,69,-3596,2791,9440
13,-58,-81,2600,2637,10741
-83,-61,-72,-7214,2883,5984
-15,-18,42,-2712,-3042,1323
46,-56,-99,-3276,-7127,-3875
34,-69,14,-3990,-8173,-9357
78,-24,-16,-2548,-7347,-9304
-74,-116,125,-3450,-5072,-11156
-57,-30,-69,-3229,-1893,-9812
-53,-82,125,-1258,-1297,-6713
-4,59,-95,-1150,116,-4319
65,22,100,390,732,-584
80,-17,25,-195,-389,2638
60,44,51,-1100,-565,5222
57,-35,119,-1700,413,7624
10,7,-84,271,-1497,9042
100,-94,18,826,1727,7121
-63,84,122,-1541,640,6123
73,124,-14,-394,734,-7253
-81,69,78,-971,2323,-8391
18,-102,-54,-2169,3038,-7610
-35,3,-116,-4758,5192,-5239
119,9,90,-2576,5412,-1702
-4,108,97,55,3699,1823
-71,77,-3,-2807,3262,3898
-78,-26,-36,-4027,945,5243
-60,103,-22,-1949,-801,7252
-11,101,-23,-1672,-1534,8617
89,1,-94,-1474,-2924,8746
112,78,-30,-6466,-5229,3079
62,79,-27,578,-4168,-3102
-62,12,-29,-300,-5284,-5334
90,-16,-44,-3665,-6936,-9594
109,-85,71,-1377,-1355,-9992
-20,57,59,-1233,-1545,-9316
-33,-120,-2,-2514,-465,-8296
123,-125,-96,-1462,-25,-6519
106,-113,-52,-1090,-522,-3215
-126,-11,-27,-171,179,-350
74,50,-32,-1145,-1016,2480
104,39,106,-780,-884,4715
114,10,-99,-683,-247,6931
-43,98,107,30,100,7502
-50,27,-87,899,-1657,8152
-50,120,74,-2017,-1677,4613
-109,58,-59,-284,-3540,5376
-123,-119,-17,-1442,-1144,3426
-25,-21,0,-729,-832,3474
96,-40,-36,-1121,-463,2021
-61,-113,-96,-343,-256,906
127,27,102,1262,1,535
121,-60,-19,1916,453,79
107,113,127,2124,435,-182
78,18,36,1739,-1,-535
89,-24,47,462,-81,-753
-123,-46,77,-851,-94,-673
-63,-59,111,-802,95,-905
-104,-99,107,-33,-264,-540
-33,-52,-104,1602,1410,-4594
55,-101,118,1700,1601,-6147
102,16,122,117,3678,-7240
15,64,72,-935,3636,-5489
-103,-99,37,-1124,3007,-2702
-79,17,-82,-738,2856,56
104,-38,75,-1080,2870,2464
61,-111,-115,-2464,1315,5551
-24,48,99,-1296,67,8341
-37,51,-35,-1158,-929,10771
-68,16,-120,980,-3795,9067
62,5,50,-7126,-1782,2053
106,6,118,1115,-6482,-2324
56,-39,119,-4866,-5692,-7917
102,-74,64,-1207,-3768,-9643
-33,26,11,-844,-2391,-10310
-44,115,-44,-2159,-1643,-9103
-56,127,31,-1346,-989,-6551
123,71,13,-883,-354,-4385
86,-103,-90,128,945,-2097
-112,-17,68,1598,-41,747
66,-11,45,-937,-1046,3336
-103,95,59,130,-883,5236
-117,98,104,-37,-1797,6452
92,42,-90,486,1957,6750
-77,122,70,390,289,5487
-98,48,59,971,926,4685
80,14,81,-1450,427,4572
70,-61,-39,401,-682,3120
67,-42,-42,766,948,3488
49,-86,99,2243,409,2587
5,87,69,2023,367,2889
-39,119,90,651,113,2450
-67,-81,124,-605,93,1273
-115,-100,113,278,-282,429
102,109,-104,926,-329,-293
96,67,-93,550,-325,-858
82,27,-90,-129,-314,-1087
82,-16,-83,-615,-163,-994
108,-29,-98,-595,-73,-1188
44,121,74,-2032,1388,-4902
19,-9,-108,-87,2863,-6468
109,-89,112,-1594,4789,-7574
7,-79,-56,-1352,5470,-5410
69,-94,-107,-492,5447,-3343
13,107,111,2028,4436,133
110,-47,-93,4142,2329,2045
84,113,-90,-2231,3061,3333
-93,45,-47,-6001,3618,5386
-30,126,113,-2045,-945,9218
-42,45,-126,-586,-646,11620
-60,-54,-45,-7725,-1954,6265
54,93,-126,-4230,-5538,-2843
42,18,-88,-3408,-5793,-7666
78,19,7,-5397,-2401,-12047
-17,90,-76,-2586,3771,-10648
-19,23,114,-205,4195,-6319
-107,-2,71,-102,3383,-3647
71,55,18,-3276,2707,-1376
15,-45,42,-2787,2803,2038
-8,1,116,-2253,2177,4514
-28,-18,-121,-2415,2218,7465
-57,45,-128,-1150,2084,10630
40,-38,-13,1386,2914,11767
-94,-35,-71,-4816,989,9673
78,-29,81,-4946,2873,-1578
126,116,-123,851,-10570,-615
43,-95,-41,-6218,-5145,-6546
54,-52,-3,-3256,-8356,-7182
-121,5,-72,-6662,-3186,-9536
-41,-40,-18,-1518,323,-8223
-113,122,97,243,-1710,-6775
35,-49,105,-1951,-639,-5460
0,100,108,-1200,518,-4377
106,-89,55,684,-81,-1373
28,25,57,-537,-117,183
-82,-99,5,-1129,-939,1791
-58,-81,-39,127,-1835,4046
61,88,-39,191,-2553,6476
77,21,-61,751,-2576,6285
-69,-13,8,2378,-235,4528
-69,-26,-28,3680,1020,2762
-85,85,-104,2990,1825,1370
46,-73,-33,1845,293,773
-30,121,34,30,742,-24
-108,-98,1,1351,352,223
-27,85,28,1281,503,352
71,36,64,1652,170,74
95,-31,-114,1390,-585,180
-37,-16,23,-354,-955,81
5,52,113,-1045,-112,-1345
-55,-109,20,-53,889,-606
-106,55,-102,-221,243,-134
-72,82,-78,-1953,169,-51
-51,35,-112,-2152,755,541
-91,26,97,-901,-52,1349
-85,50,107,25,-197,1933
-48,119,120,286,-157,2260
-22,-87,123,249,33,2240
-22,-48,114,315,-293,2025
-35,20,-117,119,-258,1564
-66,56,-109,134,-160,908
-99,74,-115,358,7,292
-109,56,125,487,61,-191
-114,31,93,403,-147,-407
-94,17,90,-83,-78,-733
-88,4,95,-209,-177,-1062
-60,-16,-126,-329,-74,-1397
-40,-41,-125,-238,16,-1645
-29,-70,122,-193,-19,-1770
-20,-106,118,-216,192,-1621
-49,-117,79,-191,54,-1245
-85,-106,45,-613,-119,-741
-117,-68,35,-1161,-119,34
-103,-21,40,-1012,-138,440
-77,31,52,-387,-73,563
-40,38,32,114,-272,637
-10,76,40,-160,-207,515
0,89,47,-4,-305,304
-10,87,58,120,-383,151
-113,-112,58,3183,-3035,-2353
52,-82,-56,716,-1045,4767
28,-41,-20,-1079,-3183,3978
7,19,-30,-4749,-1562,-2549
-24,47,-102,997,512,-7449
-29,-58,-111,-803,2985,-9234
1,18,119,19,5326,-8559
16,95,-115,-217,5125,-4818
8,3,88,1721,3014,-1715
25,54,-64,-2070,4538,795
51,-92,11,-3434,1336,4392
55,-24,87,-2120,-1396,7651
123,-46,-52,-3465,-1694,9476
7,-31,-79,2615,-4925,10792
-57,110,28,-8578,-3575,3588
109,-99,103,-3720,-5573,-4248
33,-31,32,-5266,-1669,-8165
61,76,-85,1140,1645,-8469
-111,0,-100,1255,2226,-9158
-66,-80,37,-4392,4666,-7000
-58,96,30,-1401,4161,-3640
97,-92,-76,-1485,3449,-1591
-5,-51,8,-2034,2716,1059
-119,-54,94,-2772,1905,4523
94,119,-113,-3803,2087,6711
-59,-83,-91,-3819,506,9335
4,91,101,-48,-166,10830
22,-17,124,-706,-1093,8029
103,17,48,-4475,443,6101
-63,14,6,-1211,-3439,-517
37,13,73,-5250,-5547,-4727
-6,84,102,-3280,-4842,-7267
44,-12,-20,-827,-3043,-8600
-112,-99,102,-721,-3581,-8979
18,45,-86,-1486,-2984,-9016
19,-92,-37,-1352,-1943,-7659
-23,-30,117,-619,-1751,-5114
43,-119,-89,-2276,-240,-2528
111,-14,-100,-120,386,-93
25,-110,85,-185,-247,2104
-100,-32,-21,-1290,-1830,8689
64,46,-26,-424,-577,5506
-115,-54,-65,-615,-1682,4788
-2,-86,-7,202,-1475,5036
-11,-107,67,158,-1462,5038
-77,116,32,991,769,3494
125,-19,-96,2015,723,3292
103,-58,110,1567,-103,3579
66,88,-112,-531,-105,2095
-8,-116,-124,-841,238,-114
-101,17,110,1179,-184,-1211
-106,-123,120,1377,16,-1503
-78,71,116,787,57,-1837
-67,1,-125,28,-189,-1809
-63,0,-103,-522,-46,-2280
-37,-81,-82,-152,105,-2420
-42,118,-83,372,53,-2031
-69,82,-96,716,-60,-1398
-113,88,-116,443,-185,-712
-125,114,-123,-207,-61,-181
111,-118,109,-364,-141,481
120,-98,93,-8,-218,1087
-101,-71,103,168,-342,1547
-42,-7,113,-34,-113,1683
-37,43,115,-526,-175,1419
-39,82,117,-573,-108,1112
-30,101,123,-198,-140,773
-26,105,120,257,-237,437
-40,-128,127,134,-159,-44
-59,108,-124,312,9,-475
-66,68,123,750,140,-701
-47,15,94,899,82,-821
-39,-11,78,716,3,-852
-48,-30,78,395,-110,-787
-60,-56,88,230,-106,-555
-61,-65,90,206,-110,-348
-70,-64,91,-15,-124,-2
-68,-45,95,-100,-65,232
-59,-29,95,12,-88,344
-46,-3,98,-86,-47,409
125,-39,46,4221,1312,-2082
53,7,91,-1102,779,-5217
22,-47,105,-379,-1008,-6569
-104,62,-70,-149,-103,-7507
-36,112,-125,-1511,3666,-6467
49,103,-107,-1747,3094,-4461
-25,114,65,-2281,4398,-2093
43,-18,-124,-1316,3314,-62
2,63,-14,-702,2452,2756
40,-58,-127,-3551,207,5272
-113,-117,18,-3925,-1111,7817
-36,106,-7,-2470,-7056,11934
-78,45,104,-2275,-4262,4221
37,-55,12,-2886,-7584,-3611
28,-121,-24,1132,-3758,-8961
82,4,19,-1019,-2066,-11439
-27,-109,-49,-1973,2175,-9887
-8,47,-113,-2635,5319,-6219
-91,95,-22,-1435,4227,-1675
-29,111,28,-821,2471,5893
99,-80,-22,-4305,4222,7347
120,33,-34,-8903,3561,12360
-7,-5,-50,2503,2886,9962
-60,-20,-48,-1442,-533,4782
23,-114,51,-826,-9988,-2462
89,106,-96,-3269,-10521,-7158
-61,114,-89,-3201,-9372,-10045
4,65,-86,-4497,-5771,-10477
-31,-108,73,-6043,3418,-9155
102,9,58,4030,274,-4411
29,100,-88,546,1062,-354
-5,35,-2,-1583,-248,2864
-124,-78,-90,-1040,-1147,5795
-109,-4,-123,-1260,-1649,8676
127,-30,-64,-325,-2107,10492
40,-37,-111,-4011,-2287,6778
59,-2,-93,-2199,-3346,6332
96,-46,-10,-1050,-594,5142
21,83,-100,1026,-845,3925
-123,30,-14,2459,-745,3703
-105,119,59,-3962,-1734,-2663
-8,0,67,-852,-249,-4351
124,-14,-40,583,1569,-6120
-96,20,118,104,2821,-7175
101,-70,109,-305,4349,-6995
-61,113,9,-1290,4740,-4721
-31,31,96,-1220,3990,-2737
6,82,-16,-1405,3775,606
-35,-122,97,-2688,2771,3849
74,107,-80,-6990,1565,5338
66,-59,-111,-5504,-2960,9306
53,-120,-105,1973,-4805,12839
98,-98,-2,-7946,-2602,5229
29,126,0,-1433,-8244,-1909
31,77,-126,1862,-4669,-8435
99,-74,-8,-866,-6869,-12643
-38,27,83,-2073,-4497,-12010
-44,-109,109,-2075,-211,-10144
11,-120,80,835,52,-6076
-124,107,-52,-1835,1021,760
91,-73,16,-1562,470,2021
101,-6,-107,-2005,-1092,5901
-112,-15,-53,-1793,-1444,8290
50,-121,64,971,-2695,9459
122,107,8,-3008,-1254,7151
-88,122,59,-18,-1635,5683
-63,-31,78,-332,-363,7005
-122,10,85,-1303,-263,7440
-86,-3,-61,1156,-2819,4802
118,19,-92,2527,-3115,-1004
7,40,-20,1406,84,-1209
-122,-51,-93,506,1050,-120
30,-83,56,1051,-491,-640
106,90,109,1323,-386,-1340
-77,-25,-107,706,160,-2017
-47,-122,-118,1108,-58,-2142
-38,54,-117,814,-288,-2317
-64,38,-116,-112,-325,-1462
-83,43,122,-257,-321,-1000
-66,119,119,-815,426,-929
-122,23,44,-1956,2009,-6462
78,-103,-104,-723,3596,-7005
100,97,93,-1084,5403,-5369
107,-33,-73,-1454,4413,-2195
54,1,-84,-1672,4492,57
-2,-91,-62,-467,3436,3046
-76,-77,-7,-691,1123,7847
-80,-115,-123,-6544,955,7963
-30,5,-111,-3059,-3222,10859
123,121,-126,-1219,-1369,8680
122,82,68,-4289,-3488,511
86,79,-122,-202,-5352,-5406
74,12,-57,-992,-7184,-8814
84,-69,-45,-190,-6198,-9549
-75,-120,88,-1994,-3172,-10148
37,-13,26,-1230,-1009,-8457
-23,85,90,-1184,-19,-7232
49,-77,-86,-550,-212,-6088
-68,-19,-73,1284,931,-4067
-128,38,67,2591,355,-1686
112,119,-17,-958,-899,192
70,-86,2,-2091,-1535,3265
97,29,19,-954,-2178,6031
-34,96,66,-925,-3933,8512
111,-35,110,-713,-2556,6917
-62,-2,-5,-180,-635,6006
109,87,-120,-401,-2930,6137
-63,23,-52,217,-1292,6455
-66,-128,-44,2696,-206,7925
93,-39,-111,3972,396,8815
-36,-106,29,1431,-1651,5409
-72,-51,73,-332,-2872,-1021
-69,-115,-21,-2259,388,-1238
48,-22,-98,1267,-229,353
25,0,119,2504,-579,-158
-106,54,-126,331,9,-1972
-38,-61,-96,-129,-171,-3093
56,-6,-28,241,-123,-3610
84,-109,0,516,191,-3648
45,72,-31,636,44,-3174
-66,103,102,-1384,-515,-6127
78,-115,127,-670,1426,-8643
-44,82,32,-1130,2661,-8144
-102,81,115,-2680,4379,-4871
44,-80,10,-1228,4648,-2332
-124,34,-127,-81,4239,1147
-42,-60,-95,-1995,3968,6015
96,42,100,-3024,598,9092
-21,-104,88,-4435,-1617,10922
109,-34,-74,5407,-1133,11578
124,77,30,-8761,-2114,1678
39,112,-36,-3516,-7983,-6372
68,35,117,442,-5600,-9634
111,-80,-53,786,-6183,-10747
-27,120,25,-2307,-4824,-11538
-29,-64,-59,-4186,-1959,-10339
9,-114,77,-2626,-1065,-7237
-47,-9,27,1296,-201,401
99,96,-5,-1304,-214,4029
-74,-77,-43,-1586,-958,6135
-24,-75,-60,274,-911,8109
-18,-112,-89,1006,-3290,10845
10,-51,-54,-2623,-525,6600
31,71,-35,1032,-3250,6326
-67,107,-123,29,-657,5290
38,-89,4,1251,535,4474
92,92,126,1971,-1087,4300
-61,-50,-104,307,202,2519
43,-57,-114,85,-203,502
-50,101,115,1059,-41,-428
-63,-33,88,1494,451,-911
-48,-80,60,1291,145,-1524
-41,83,72,1234,-405,-2237
14,-19,-117,681,-209,-2857
-3,13,-72,840,-192,-2372
-42,-35,-74,770,-46,-1240
-60,47,-84,-12,-515,-1200
-62,99,-82,-943,-1,-1228
-91,92,-122,-636,3,-401
-77,-89,119,-604,97,88
-35,7,-77,-3062,2842,-4869
-55,28,-45,-326,-1780,-4217
-120,-65,-104,-2108,3055,-5783
106,-84,104,83,4764,-4519
-44,117,85,406,4163,-2602
122,-113,108,-1273,2762,-1754
62,-86,28,-2778,3845,208
-80,-42,13,861,2115,2972
-2,22,-82,252,2071,4318
-1,83,86,-762,2276,5680
-33,93,45,-1828,1662,6612
118,-95,-43,-289,-80,8141
31,61,-54,-615,-586,9476
-93,-70,59,-3201,-149,6605
-6,43,-7,-6500,-3972,-1734
-27,11,113,-4347,-5696,-5984
-1,27,4,-1643,-4070,-8565
105,111,108,-577,-3970,-8763
-57,48,-98,-1666,-3651,-9392
-76,-73,-74,-3060,-931,-9079
-33,-10,-40,-1054,156,-7246
112,-4,-89,196,-239,-5328
62,71,103,1070,391,-2757
76,-3,39,2107,-408,-635
-68,10,94,-1258,-131,2148
30,-92,95,-1164,-900,5099
9,-10,110,-1537,-644,6417
3,108,-103,-1414,-1560,6933
7,69,-23,-1254,-1081,6380
-52,79,121,1380,-1885,6088
78,127,-50,1124,-690,4023
-56,-124,-43,767,-464,5202
-63,56,41,-1024,727,4384
-56,127,-53,1134,873,3283
-69,-95,-95,643,104,3313
69,-46,101,1546,-1163,1528
-3,-67,-112,1118,-844,370
-82,-120,-114,919,-271,138
103,108,126,526,-110,-160
97,90,113,539,-204,-552
-88,24,-80,-2753,3749,-4005
-121,46,-33,-2211,-1260,-1845
-29,39,18,-1258,-1767,-680
61,22,21,-674,-2265,-997
-90,-52,-55,1403,1848,-3339
-27,97,-121,520,2904,-4874
15,-42,113,432,4778,-5095
-63,-96,113,-156,5385,-4513
-25,102,31,-1446,4044,-2842
-86,37,-66,-2220,3154,-140
2,39,-104,-1074,2137,2222
54,-49,22,-2545,1305,4043
-89,-80,-21,-2134,-68,5436
61,18,-52,-3459,-1371,6304
-59,-17,60,-1746,-3225,7879
11,-109,12,-1694,-2960,6525
67,40,-80,1583,-2895,3912
-51,26,60,-1534,-3723,1151
-14,16,-94,145,-3858,-2226
-84,-14,9,-300,-4168,-4993
117,-57,-20,803,-4751,-6316
-105,52,-20,296,-4409,-7985
-29,114,6,1508,-2853,-7726
-35,-28,104,1793,-3052,-7080
99,-127,-26,372,-2218,-6355
-73,-118,86,715,-2376,-5249
-69,-69,51,526,-1673,-3974
-78,74,56,-874,-1029,-2737
-30,-40,28,-724,-535,-1295
71,-1,-65,-1144,-317,520
24,63,-113,-1042,-1289,2202
31,-29,115,-1790,-1038,3641
85,68,111,-768,-1458,4741
0,41,-42,603,-89,5868
-100,-104,16,133,471,5784
-97,-18,-49,39,-204,6041
51,106,-34,-1996,-807,4643
36,-119,-57,412,-1830,5282
82,-50,17,26,-580,3471
-9,105,-53,-250,200,1444
-78,101,127,-2879,-956,3568
18,90,114,-1144,-75,3429
-42,83,-2,2910,-893,2910
-34,52,-60,2624,234,710
122,-88,112,3060,-588,-1043
49,25,125,1460,-124,-341
34,17,-122,151,-185,-418
40,-35,-109,160,-266,138
60,0,-83,-222,-320,-341
82,-32,-62,-168,-343,-441
83,-99,-55,289,-88,-112
106,-61,-68,-55,-95,-400
119,-73,-87,-42,24,-200
109,-67,-123,118,-88,-280
113,-58,120,-14,-46,65
121,-27,113,-202,-44,-28
-122,-33,105,256,-197,-126
-118,-6,97,227,-269,-30
-115,4,110,-61,91,-97
-111,-21,115,246,-107,-99
-101,-32,111,460,-3,160
-114,-22,99,295,-257,-82
-116,-30,108,163,-49,178
-104,-9,109,-33,-144,-188
-107,-19,111,57,-41,-10
-101,-28,112,191,-137,-130
-99,-16,109,158,-18,11
-98,-15,110,98,33,-133
-97,-33,92,322,-178,-46
-92,-16,88,368,-384,-381
-92,-30,82,627,-561,-352
-104,-10,66,366,-579,-291
-124,-16,58,-524,-871,200
-73,52,108,-1207,-232,-698
-44,34,42,188,325,-410
-89,-4,-5,680,166,-107
-70,50,52,-280,339,93
-73,17,41,373,100,267
-73,22,55,472,66,196
-70,20,72,354,20,160
-126,-51,-84,-7905,-424,-2933
83,40,9,-2584,-307,-3148
36,-65,-4,-310,2621,-4293
109,-8,-102,-214,3533,-5291
115,-111,127,1071,4680,-4445
47,-119,-38,1103,4202,-3960
118,-47,54,777,3474,-2882
101,9,-27,405,2748,-1457
116,-11,-89,-845,2843,217
-30,-52,37,1331,1065,1902
51,105,126,-1352,2480,3524
47,-101,-106,-1796,2591,4524
82,124,-82,-1976,2361,6629
-112,-107,-85,-1795,1250,7612
16,-114,95,-1958,696,8913
-50,23,-101,-3606,1387,9151
87,-122,1,-4812,-1440,2335
-64,48,19,1121,-4781,-1808
-38,0,-50,-2116,-6116,-6019
-1,-122,-43,-1523,-7752,-7806
69,-103,108,-1254,-4614,-7712
-51,81,-19,671,-4455,-6960
40,74,-62,-2417,-5207,-7736
-7,-65,-16,-2341,-2993,-6962
-14,122,-59,-651,-2468,-4867
-14,28,45,217,-747,-2529
95,65,45,442,-431,-743
49,-66,19,-473,-678,1460
68,59,-11,238,-334,2891
36,107,-75,492,-754,4563
-122,-106,-19,-1052,2009,4292
-93,-15,22,906,905,5383
-23,-90,47,-510,1354,4629
-63,64,43,1361,507,4882
88,77,-97,34,1706,5322
55,62,-96,356,1396,3946
126,39,114,2267,808,4488
67,22,-117,1152,922,3261
68,13,-127,517,937,2303
-34,117,-122,829,273,2063
0,-88,-41,1372,2067,-7522
14,81,18,916,16,-7642
-35,-53,13,-516,1899,-7563
69,93,-1,-1715,2428,-6468
-73,-109,-117,-2040,2337,-4795
46,-25,81,-2543,3178,-3139
77,-44,-75,-1072,1496,-1577
-99,75,122,-2006,1722,546
69,74,-125,-2714,1199,2498
-106,-19,-63,-3040,1195,4524
93,50,-14,-2382,709,5935
-74,80,81,-1311,604,7871
54,-118,125,-2256,2036,7903
-76,82,-110,-248,769,8766
-55,96,37,-5683,-922,3267
-93,-4,77,-3308,-6492,-1640
-18,-8,33,3821,-4438,-4530
-86,121,108,3758,-5363,-4705
-119,77,54,818,-8177,-5832
-7,57,68,2839,-4613,-4877
-88,55,10,1545,-5625,-4701
-20,-2,-7,-730,-5972,-7636
24,-45,78,200,-2996,-7279
-79,46,-40,1513,-1768,-5055
1,28,91,1334,173,-2237
65,18,-34,532,-789,-376
-104,-116,116,-1586,-1525,1823
-93,-21,66,-1683,-898,3706
-81,-106,15,-1949,-941,5407
14,103,90,-2408,-767,6165
63,46,102,-270,453,6150
91,-85,16,-285,737,6672
98,-111,20,-415,1041,5088
15,40,-41,512,753,5947
43,126,-110,-584,514,4148
-42,29,-120,-439,-361,3119
-70,-66,-87,-1039,-293,2743
-78,69,-108,-27,-608,2174
-127,-4,-99,34,-874,1936
121,-69,-50,-156,-495,1557
-58,92,-86,-1737,3873,-3220
52,-12,-83,-410,1616,-1746
-94,-97,71,-648,-2674,-1336
81,-110,-104,538,1353,-6252
115,78,113,382,2224,-7040
94,-44,103,-459,3937,-6578
11,46,99,-2201,3854,-4352
-68,-38,111,-2864,3349,-2782
-47,47,6,-2569,3031,-254
5,3,-98,-2247,1456,1874
-23,-8,-93,-1919,-194,4073
56,119,-67,-2965,-2166,5352
111,20,-8,-3511,-3116,8299
15,-42,-47,-68,-4684,8956
-71,29,-114,3785,-5843,8679
-116,16,81,-2422,-3082,5638
35,-74,102,-4224,-3342,-2078
-15,111,84,1716,-5889,-7402
-10,9,-115,-2447,-4430,-8642
70,-92,10,-1034,-3357,-9143
-60,79,85,-212,-2867,-9686
-56,87,24,-1288,-2790,-9271
28,30,71,-1709,-1698,-7579
49,30,-115,-890,-706,-5175
70,3,15,-93,133,-2876
81,109,-72,-87,265,64
125,-92,56,-1086,-506,2920
-59,-93,24,-782,-1307,5531
-68,-14,84,-1741,-1381,7242
-98,127,-95,111,-2289,7755
126,-36,5,-1247,-1403,7394
-18,0,-63,140,-1837,5981
74,-83,-19,159,-1941,4388
-23,-10,-30,-178,-2042,5021
-57,24,51,-314,-2087,3767
82,-123,88,860,-1272,2324
23,54,56,2332,-664,2121
-53,28,36,3232,-287,953
122,-18,-23,2113,168,123
68,-108,-67,1485,265,-364
6,-56,-109,-12321,6994,-2111
-86,19,29,3607,-2793,1401
57,-35,-112,-815,849,-307
65,-90,2,-272,381,227
74,-85,12,-200,745,126
114,-3,72,-85,2031,-685
115,-108,-109,-783,-1481,-681
105,14,-54,4395,2621,-4297
-99,-1,127,4048,2686,-6466
-126,110,108,2816,4626,-6122
-18,-87,124,899,5318,-3790
90,-100,93,831,5517,-191
110,5,-111,-2017,2717,2263
40,90,100,-2531,-784,4566
-86,34,109,-5425,-1255,6300
59,-10,-15,-3375,-4897,7907
15,-95,63,2153,-5195,8412
-62,21,27,-7281,-2719,1706
11,30,-6,-334,-4344,-4408
36,-59,39,622,-4980,-9279
13,44,-54,1666,-4820,-12031
-121,-42,31,-732,-2517,-12971
48,-107,-18,-2056,-13,-11027
77,-107,-69,386,1871,-7752
90,-62,43,-311,1608,-2251
90,-31,17,-1379,-1093,2125
-100,11,89,-2798,-1742,4483
57,53,-37,-1968,-3147,6816
-14,81,-120,-1631,-3560,9291
-65,-58,92,-1745,-2765,8013
-29,3,-20,515,-2159,6463
104,-90,-75,-1595,-1431,6237
5,31,54,561,-3082,6905
70,56,124,1744,-516,6253
-88,-21,-92,3387,-2052,4451
9,6,121,2281,-442,317
-22,6,81,1961,-268,-932
100,66,16,1272,-412,-917
103,-35,2,-23,-449,-1505
-62,-112,45,-724,-1030,-2440
10,9,51,-2287,741,-5007
-115,-80,-102,-635,2259,-6343
41,-33,-124,12,4466,-6640
-46,62,105,158,5229,-5267
-81,116,-125,-686,4654,-3717
-21,46,27,-2085,4237,-1727
-77,37,-114,-746,2522,1848
-99,-24,-35,-4425,3375,4222
12,86,-50,-4402,1508,6592
112,48,127,-5430,-1511,8918
-43,-93,-96,-2319,-4062,8587
9,87,-103,2158,-4201,5647
-12,-110,-63,-1533,-2215,4264
-60,35,79,-6705,-4907,-2662
-23,34,-36,-1858,-5594,-10431
66,-108,42,-1778,-5564,-10114
-78,-45,-49,-4173,-3563,-10269
43,109,25,-3049,-1370,-9417
8,-111,-22,-2028,248,-6946
57,-59,10,-1919,508,-5678
-13,31,0,1499,628,-3543
-70,-38,0,-414,150,-652
60,10,8,-1621,-321,2121
-128,-64,25,-856,-1365,5132
-64,-77,51,-1034,-1279,6953
60,23,7,-533,-2426,8838
-59,71,-69,-504,-2714,7701
105,-89,29,-1972,-1999,5021
67,100,-8,138,-2631,6272
-87,-35,13,173,-1713,7222
-75,-75,17,711,-2121,5303
49,41,122,-214,-2944,4564
69,-35,-128,1170,-1410,2140
-29,-39,26,3885,-1057,-248
120,105,-84,3782,-70,-888
64,20,86,2173,305,-1279
78,-96,56,800,-268,-1871
-118,61,116,272,-1017,-2739
0,-66,-18,-711,-603,-3404
-50,26,-4,-236,-800,-3613
