AccX,AccY,AccZ,GyroX,GyroY,GyroZ
79,-44,16,2511,-2034,-4129
-73,39,87,3711,-2342,-5608
-114,-121,89,3408,-1595,-4987
82,56,52,1653,-1876,-2425
-71,38,53,1562,-1055,-451
64,14,25,3273,124,-70
-71,-77,97,2579,1515,925
-4,75,-102,1407,4462,3211
52,-67,103,-1567,4768,5853
86,-14,-62,-8446,1355,5713
-125,11,74,-9496,691,2382
-1,97,-2,-36,735,2018
18,72,40,4270,-967,817
-43,-125,-36,3599,-2114,-465
-50,83,19,1261,-1545,225
-99,94,61,-372,-38,271
-108,110,32,-1088,1091,-896
8,31,-2,-539,1498,-2110
18,-112,33,130,697,-3340
78,-66,-3,1534,-1398,-4051
24,4,70,823,-979,-5996
-52,38,1,-3580,3619,-6182
93,-7,67,511,67,-6519
-88,58,12,4870,-3515,-4790
116,-27,-38,4382,-4692,-3101
-109,-17,51,2606,-4561,-1010
35,-5,1,-686,-2564,973
-10,-13,20,-259,-157,2411
67,-10,20,921,2922,3178
-101,-30,-83,1461,7033,3457
-51,19,73,2096,9863,4700
102,50,-32,-2612,7991,8659
100,27,-25,-3924,-829,9164
109,-56,98,-1118,-2784,4139
45,117,-46,1118,-2497,-1111
-23,-50,4,3505,-3050,-2231
18,44,-121,3782,-1808,355
-42,-102,-106,1670,578,928
-90,34,-113,-2759,813,39
-49,22,93,-4301,-120,-1427
108,-36,70,1579,2661,4049
-107,-47,72,1020,3389,4882
-55,91,-33,624,1036,4228
-115,-33,-78,129,-2028,2003
-9,-25,13,-115,-3855,-224
18,127,105,1245,-3286,-1465
-38,-14,-30,2515,-2602,-1512
-61,-76,46,2947,-1678,-610
-92,-65,127,1908,-1121,324
-110,-33,-89,986,-824,574
-109,-11,-66,229,-874,262
-113,-40,-60,818,-711,3
-102,-74,-62,1827,-500,-195
-104,-66,-58,1987,-583,-89
-96,-50,-28,1525,-605,-21
-87,-49,-3,1162,-411,178
-72,-58,-3,1414,-230,124
123,-15,-6,1030,-486,253
65,24,-2,626,-558,283
-96,28,47,-269,213,282
-69,34,12,-975,694,121
82,34,-85,-167,116,-371
60,-26,-100,1032,-864,-981
-100,-39,-27,-12,155,-1175
-94,-128,-49,-32,61,-151
121,-107,-74,462,-722,1179
121,3,-40,-77,-915,986
-117,82,-6,-1050,-288,431
-95,86,-32,-1210,665,64
-88,49,-103,-438,677,-143
-68,28,103,58,337,-434
82,9,97,11,528,-889
-106,78,39,-215,-864,-1072
105,120,84,-585,-1320,-1526
127,-23,-115,-91,692,-2932
-52,91,83,680,451,-3709
-122,12,63,942,-1186,-2452
102,44,109,927,-1342,-1093
67,81,-127,798,-539,-663
51,95,-110,370,302,250
33,-74,-51,938,2563,3828
54,113,-126,-1821,3310,3036
-99,-114,-40,-419,1065,1723
-12,12,-64,-243,-740,613
38,43,-64,65,-1198,-404
-116,-28,7,-511,-259,-1206
8,77,14,-712,-258,-1586
-32,49,-8,-956,-711,-1325
-10,62,-16,-1508,-589,-1675
50,20,-31,-1659,-92,-2646
105,-97,-70,-794,246,-2490
74,127,-101,355,-200,-1191
17,-116,-124,1174,-562,-543
23,-104,-99,1391,-475,32
31,-100,-82,1008,-306,433
30,-62,-46,-216,-529,938
76,-1,24,-2373,-94,1524
96,-16,-8,-1697,693,1610
-74,-52,-63,57,1313,2398
50,-128,123,-240,416,3013
-51,-17,68,184,-108,1718
89,-41,125,99,340,-50
73,-68,86,192,496,-505
-6,-76,52,479,-836,-1105
-14,112,93,1378,-1307,-1449
57,75,-95,499,-237,-1723
88,52,-109,-981,450,-1337
67,65,99,-1908,384,-549
70,119,63,-2582,211,69
118,-89,58,-2358,640,42
-84,-29,25,-1920,822,-231
-74,-12,-8,-1216,609,-787
15,-40,-10,-1194,505,-681
-81,84,-30,-2314,-23,-250
-84,118,-29,-1866,687,-935
-32,109,-35,-1621,1180,-985
-19,-106,-65,-1764,999,-843
-40,-76,-77,-1416,514,-985
9,-89,-40,-1190,20,-957
4,-55,-10,-1620,-182,-279
-76,106,-55,2206,-1633,-3985
75,-36,31,1767,-2030,-4997
-32,94,126,230,-1909,-4915
-98,41,89,-67,-1031,-4038
-41,-6,-17,1641,-602,-2867
119,11,-39,2762,-350,-1089
104,23,0,2487,366,-4
-100,55,37,2027,1595,938
-54,26,68,1650,2345,1600
25,-26,111,1641,3105,2353
-2,-101,-78,1486,4470,3378
17,-9,-115,-371,4630,4228
-82,-43,-15,-1823,1402,3082
-5,-65,-43,57,-2089,580
9,-99,78,479,-2491,862
104,-5,-57,282,-67,2748
-68,-80,84,565,942,2112
24,20,4,137,-1268,-408
40,-98,89,705,-3745,-2042
-110,49,12,990,-4171,-1551
-11,-2,-64,1608,-2118,-1238
-24,27,-21,857,281,-1066
-52,-8,-105,-158,1623,-583
-86,-39,36,-378,1063,-113
-77,-75,-44,-121,289,-120
63,-100,-10,-802,7,113
114,50,-87,-1841,-246,153
59,76,98,-1468,-54,-1294
6,-57,117,-1332,1027,-1977
32,95,28,-274,930,-1383
-62,106,-55,577,-276,-457
-29,-125,-20,619,-770,-261
30,-110,33,58,-606,-171
7,-98,43,-82,-568,-54
-12,-93,44,-33,-409,59
12,-99,59,-121,-241,414
8,-77,58,-251,46,810
37,-64,42,201,268,863
99,-112,35,1636,132,406
36,-128,17,2275,-839,619
-86,109,105,2423,-1900,-4324
63,96,-61,3247,-5174,-6532
77,-38,90,657,-4299,-4428
72,73,-104,-1541,-2704,-1855
87,25,-96,-1315,-1366,-284
-31,5,-103,-43,37,1461
47,28,-90,373,1470,3226
-14,24,-122,660,3050,4534
62,-57,108,279,6028,6853
-69,126,-13,-4942,5591,8935
59,28,-3,-3726,1103,6139
-29,126,-80,-410,764,1256
-110,-112,104,3880,-3893,-3609
-20,88,-48,5611,-6781,-1884
-41,-106,-121,2268,-1185,1556
125,37,-93,-1736,3736,103
-37,82,6,-5488,3999,-853
-1,39,97,-3025,1370,-1333
31,14,-78,-378,-448,-2276
73,47,-9,-460,-756,-2833
-78,-12,28,-248,52,-3784
-18,-46,75,-1673,-10,-2841
-59,72,-48,-1175,-281,-1623
82,56,0,-225,-355,-2884
-15,-121,61,-1396,-92,-3485
35,58,-52,1747,-1196,-4036
23,-45,-30,1745,-2968,-2371
14,-91,33,879,-3160,-339
-56,-83,106,421,-1926,1401
-37,-45,-82,195,409,2518
-43,-59,-111,990,3325,3515
53,-48,78,335,4932,4255
-48,-49,63,-641,4806,4912
-20,-29,84,-468,2682,5016
-9,87,-57,1396,-1045,3128
-115,-97,-60,1376,-2608,962
85,102,44,158,647,-146
29,47,7,-42,894,-1755
-103,-76,12,-531,-1290,-1813
110,115,25,592,-1755,-1021
114,52,32,-4265,2496,-512
-81,19,107,-3296,3344,-1184
-55,-75,-112,-1527,3402,-1487
103,-105,122,209,1820,-1278
12,-95,89,969,113,-879
-21,-32,61,599,-1036,-370
-22,13,61,-406,-1053,-1104
-68,9,84,-1086,-826,-1673
-105,-37,113,-1772,-431,-1486
-109,-61,125,-1700,-676,-1104
119,-60,123,-930,-1566,-1076
-100,14,-63,-1299,-2294,-2105
-103,14,23,-1904,-2568,-2659
39,-109,117,-1240,-2570,-2960
-48,49,-58,-748,-2287,-1898
104,-6,-14,117,-1512,-305
37,72,40,-217,-1006,1068
69,123,55,-599,664,1470
110,106,3,-287,2318,2181
-31,73,77,510,3252,3134
-69,83,-31,690,3325,4236
21,-111,-97,-208,2644,5351
-106,-64,-120,-439,1333,4933
-100,-19,87,-139,158,3142
94,6,66,-292,-653,1631
48,13,44,-195,-825,577
4,41,36,-104,-1321,-977
13,-116,-53,942,-1572,-1801
-89,104,-17,-46,599,-3580
80,-20,-18,-502,1952,-5158
53,109,-13,-1049,245,-6104
84,-78,-24,913,-3978,-5686
55,100,116,-747,-3510,-4832
-99,-38,-90,-739,-1897,-3041
58,-98,87,905,-1176,-1525
-125,-50,53,1108,-1499,-898
73,-15,-128,-151,-1273,314
95,5,-82,-1024,-225,1945
-91,32,-68,-663,972,3315
103,-39,-120,1554,4274,5368
-52,-109,-5,729,4406,7359
-80,19,-76,1160,2944,6012
100,33,3,-1129,1580,3400
-113,-1,-64,21,-3227,-1191
-75,-8,51,1356,-4027,-2103
-32,-118,100,2339,-1188,240
-90,-81,75,1445,1544,975
-80,30,33,-2468,1950,741
-7,91,9,-4139,1446,335
79,75,44,-2890,1161,-1005
-88,7,86,-769,755,-2770
-89,48,38,507,-489,-3708
-14,-38,65,319,-70,-5016
-49,-90,-78,-3773,2710,-5291
66,72,57,-2734,925,-2744
22,89,29,138,-1912,-1094
-92,113,68,2819,-2459,-995
-119,-124,108,2256,-2282,-1387
121,93,-73,756,-1270,-706
82,6,-80,717,292,149
119,-18,-112,268,1009,1687
-1,-14,97,100,1629,3412
-12,0,105,190,1999,5040
68,15,117,620,1810,5425
-41,-94,-5,659,786,4283
90,-9,-39,-197,-1169,2080
-32,-26,14,-406,-2255,-1140
90,-90,30,646,-2120,-1169
44,80,87,1442,-1101,-281
86,73,90,985,715,189
99,101,52,-579,879,-20
116,-123,33,-1815,246,-269
-94,-123,57,-1546,323,-831
-122,43,87,-299,1440,-2040
64,79,40,-316,586,-2431
-115,104,-25,1125,-763,-3595
-58,-43,95,561,-179,-4485
98,-88,-121,-1036,-132,-3727
-14,-46,95,-1111,-1235,-4376
-52,101,26,1816,-1717,-4979
-95,0,25,2994,-2997,-3304
2,-38,126,2550,-2756,134
0,-24,-34,1658,-591,1846
119,25,30,90,2622,3456
88,23,-47,-565,4671,5154
-57,-22,112,328,5791,5817
120,100,110,975,6352,6793
21,58,83,-1162,2042,6871
-27,-3,109,-1430,-1762,3416
49,-53,-35,-152,-5357,-2657
-76,-30,77,1633,-2610,-2294
16,110,-120,2396,31,-30
-15,-54,99,529,1013,-399
1,-46,69,-1479,124,-1095
58,-45,85,-2803,-996,-1292
70,-34,125,-2061,-1076,-2058
100,-116,-114,101,-184,-2449
-98,78,123,597,534,-1710
89,36,-126,-438,601,-976
92,-38,20,-1417,-800,-783
-102,-98,23,-279,-823,-2266
99,120,-125,-1770,-346,-1999
-34,-127,54,-697,-810,-2336
92,110,47,411,-1681,-2190
47,66,103,882,-1389,-1382
4,48,122,1005,-461,-450
-64,56,121,734,290,528
-48,25,99,1092,1177,2007
81,4,85,1293,1967,3170
-7,-20,73,1664,2712,3683
-104,108,93,2302,4039,4117
-82,-75,71,846,2514,4531
76,-80,103,1573,-1153,3635
-11,-115,55,1016,-5279,1506
-127,-124,-15,-140,-2557,-934
-49,118,29,-304,319,-1526
-71,67,-25,-271,1758,198
-61,94,122,-294,1565,320
-39,-92,56,-976,-153,-592
-28,-77,82,-1021,-1935,-1491
-75,21,13,2913,2443,2096
10,5,50,2651,2829,2962
20,12,54,2915,2697,3182
-30,46,42,3512,1834,2794
90,126,82,3368,-642,1968
-57,-27,-78,1888,-2323,1431
-126,64,30,605,-1633,1130
-82,55,107,192,-293,493
118,26,68,1111,195,613
10,56,34,1969,-719,1567
53,-123,81,2104,-1152,2381
-77,37,-80,1018,-571,2319
-48,119,-64,315,-487,2201
-48,-57,-72,521,-957,1369
-78,-1,-51,1096,-1865,721
-8,60,7,888,-1536,8
-86,-95,6,16,-684,-922
41,-86,-41,-1156,-360,-2180
-77,-32,-66,-1643,1291,-3699
102,54,64,-673,1397,-4215
-8,-86,25,596,-1832,-2451
-107,-24,69,870,-2428,-1508
-76,16,-105,190,-1866,-1511
-64,-30,-76,312,-886,-1249
-106,-28,-95,-244,-556,-835
114,-29,-99,-985,-749,-36
-86,-69,-75,-1274,-272,852
-93,-87,-92,-784,177,1622
-88,-83,127,615,937,2581
-9,9,118,915,1708,3403
16,-70,65,-289,1973,3878
7,-107,-45,-1177,1668,3087
-36,-70,-122,-486,588,1430
95,-47,86,19,-647,420
16,-49,109,230,-1020,-102
86,-91,-118,107,187,-638
106,-121,103,-553,958,-688
74,110,12,-1200,596,-895
96,77,2,-1297,92,-906
-72,23,2,-745,260,-1339
18,100,114,2100,2976,4049
25,-104,82,741,3167,5487
15,-97,52,-1702,1335,4941
-114,-30,15,-419,327,1446
30,-87,-7,1114,-851,288
121,91,7,1748,-2011,130
-105,89,65,701,-672,10
-65,95,89,-936,1187,-716
-53,75,18,-1698,1264,-1003
-49,49,-33,-965,368,-1377
59,0,-28,21,253,-2329
-37,-85,-3,453,-360,-2498
-52,-33,-51,772,-3181,-2017
120,-63,55,179,-2458,-3506
-52,-126,98,-1061,-1588,-3981
36,61,42,-1553,-2621,-3675
99,70,68,-2146,-3785,-2521
-79,66,108,-1587,-2989,-1201
-11,93,-88,-564,-1452,589
-34,-95,-70,-209,220,1876
70,-8,-81,-677,1627,2624
8,-12,123,-800,2716,3780
-78,-41,-108,-1181,2953,5604
6,76,45,-4553,1617,7066
-103,23,-124,2024,2012,4849
-25,98,102,-2982,2821,3346
92,-84,14,-457,-1219,-3796
99,-62,91,1432,-803,-2268
111,-32,66,392,1109,567
-127,50,25,-1397,1249,-1061
93,46,0,-1513,622,-2489
-114,-36,22,-818,593,-2478
-94,-23,39,-1427,651,-2606
114,34,47,-2698,486,-2769
78,43,78,-2960,803,-2581
68,28,113,-2023,1424,-2645
34,-67,92,78,1586,-2577
-109,-59,20,698,310,-1537
30,-2,-8,-1271,-1706,96
80,23,56,-1934,-957,1020
-83,-124,-4,375,3299,3600
117,-27,-86,-759,2413,3681
-82,-48,119,636,1385,2791
-122,8,42,1019,280,2239
-81,121,-96,978,-543,963
75,51,-37,-376,220,-319
65,-3,-63,-591,656,-696
-125,-4,104,65,-1229,-950
117,6,-101,-38,-1950,-1231
-46,-38,-27,-693,-621,-2122
-84,-76,-18,-1716,-252,-2163
84,-81,-4,-2126,-589,-2263
-115,45,73,-1012,-402,-2238
77,6,62,-212,-471,-2241
23,125,46,1074,-1047,-1862
95,-127,23,1112,-1591,-514
-63,-101,25,957,-2197,388
105,-99,-97,12,-753,860
-82,79,-128,1278,1132,605
-115,-78,8,-70,1908,2112
-19,-4,-62,-905,1327,3041
-94,6,-85,-256,978,2894
14,58,-123,119,740,2763
65,73,105,486,1060,2398
-97,58,27,922,1528,1487
-79,49,-27,679,1113,1070
26,109,-68,47,-970,-118
106,-106,-86,526,-2624,-2441
13,17,32,-185,-961,-3385
-98,93,62,-1202,990,-3367
28,105,-1,-1928,-409,-3130
119,127,4,-1961,-1741,-3089
122,84,87,-1529,-1166,-2704
62,63,118,-1180,-417,-1924
-27,59,107,-373,-121,-1075
-38,37,92,570,-483,-573
-117,81,97,340,-853,240
-104,86,-106,-103,-1097,919
-22,31,-57,639,106,1737
54,74,-91,695,1520,2986
39,-68,105,-2686,1928,-5109
4,-107,14,-3109,871,-4349
-20,-78,-44,-514,-1663,-2765
80,-69,10,1468,-2030,-1636
32,-49,49,1938,-1853,-1082
-19,-41,76,1220,-1084,-978
-43,-59,115,-460,-257,-707
-31,-88,-113,-1448,270,661
-29,-102,104,-330,915,2655
-112,114,71,1736,1918,3495
-119,96,53,1690,2615,4574
105,-83,43,314,2229,5794
51,1,15,-413,668,4180
48,81,-58,38,-929,1448
109,55,-20,540,-2356,386
-85,-35,43,1574,-1258,837
115,0,70,1112,-116,695
56,27,42,51,-28,103
63,22,45,-860,75,188
-78,15,38,-1247,641,-703
109,-22,52,-848,143,-2281
95,59,10,299,-2676,-4024
74,-52,-91,521,-2061,-6136
36,-48,58,-554,336,-6889
-26,12,-28,-503,-486,-5917
69,99,123,112,-2487,-3147
62,-100,96,1501,-2416,-1273
115,-41,-123,2057,-1810,-636
110,-21,-38,1153,44,402
-80,-47,-32,1627,2480,1989
73,124,-125,3511,3814,3223
69,69,-108,3391,4293,3808
8,-93,-86,5383,5875,4696
-56,61,-88,2254,5089,2810
-83,99,-33,7,811,3464
-93,-78,-118,-1844,-2429,1547
-52,-22,-3,883,-2443,-1946
-26,88,74,3803,-1281,-1840
-88,99,-84,3458,32,-86
123,-104,-71,2296,-796,1018
-91,-114,-16,1712,-1562,-4398
4,-4,77,2251,-3826,-3977
-121,-50,-30,1539,-4012,-2836
-61,-43,89,739,-2630,-2267
80,-23,87,-226,-1750,-1463
-24,-52,82,-331,-1502,-399
5,-78,127,-247,195,1316
53,-38,95,632,2385,1586
88,-51,27,1055,2986,1853
127,-57,-57,1629,3451,3155
41,108,90,1181,2877,3969
106,22,20,73,2248,3158
-45,92,-106,499,616,1997
63,-90,-112,475,-1583,1519
62,-39,-41,845,-1474,1480
125,17,-13,675,75,779
-107,44,-72,-86,1366,-220
-126,2,99,-919,823,-482
92,-19,68,-977,-499,-830
-94,-57,119,-1140,-197,-1952
22,115,122,-1635,474,-2881
112,59,27,-1339,-627,-3564
16,63,76,-324,-1402,-4295
-123,-90,-104,-365,-1928,-2925
12,-88,-97,-298,-2268,-1602
-89,-27,-95,-216,-2372,-2017
-70,-45,-41,-804,-1893,-2058
-96,-127,-43,-646,-1044,-1149
78,127,-62,-481,-944,136
72,-76,-16,-769,-541,1500
-125,-46,-10,345,1162,1828
23,-89,-36,1809,2874,2581
-31,30,-124,690,4283,4442
-26,17,6,-1165,3372,4507
-48,-101,-74,-824,1913,2566
59,-123,71,1391,244,1056
-7,111,91,1544,-779,657
-10,-128,127,604,-90,389
6,-128,-123,-231,403,6
44,-121,117,-918,640,-670
107,-12,0,-2181,-2006,-3491
25,90,75,-854,-1488,-3783
-110,-58,-100,-71,-2278,-3111
58,2,121,30,-3176,-1878
-62,68,-80,-1015,-3216,-1586
-65,45,7,-1690,-1838,-1428
116,-14,-15,-638,-587,-723
15,-17,-48,100,-457,720
-12,81,-27,-47,-86,1833
104,98,3,592,1372,2216
64,50,-26,1631,2998,2684
-74,-34,4,-1828,3588,4612
87,-65,-114,-155,2301,4397
55,107,-42,4092,1766,2209
2,-52,-55,301,-569,109
-75,68,47,-1099,-561,-542
78,6,43,-11,119,670
85,11,10,1355,414,839
104,32,-27,1269,-146,-288
84,21,-7,-251,-844,-741
100,-33,34,-593,-612,-634
-59,-87,60,-260,137,-722
0,-72,35,-816,-475,-1328
-19,27,-35,-950,-1571,-1688
-80,-40,40,-1356,-390,-2285
97,125,50,-2170,-261,-2979
-57,-93,-13,-2625,-1511,-2426
38,-38,-10,-2295,-2093,-1830
0,-15,58,-1964,-2057,-1318
-66,-40,113,-615,-1340,-734
80,-47,107,1115,-146,395
-107,0,-109,-284,226,1340
68,1,-82,-306,1585,2138
115,-118,-108,1606,3018,3343
-89,80,115,-1040,2200,5073
-112,120,102,-2253,1509,3792
-17,-61,107,-2575,2930,1514
-50,-50,48,-1590,1780,-483
63,26,22,525,488,-2026
104,8,36,-473,1111,-1027
-111,103,115,-3499,797,-2774
-119,-113,-72,-3876,1875,-2624
-59,93,-5,-2598,2937,-2531
-124,54,-56,-804,3065,-2494
-68,32,64,1233,1717,-2859
-9,118,48,-613,-1742,-2342
19,95,-119,-1938,-1407,-1013
18,50,-97,-1609,-845,-896
-23,70,-25,-2778,-2021,-341
38,76,108,-3340,-3026,115
-92,117,74,-3734,-2930,-1135
-96,-88,-54,-4855,-1761,-1886
-51,8,36,-4736,192,-2899
-82,15,16,-2358,-395,-3530
-13,-117,7,-379,-2288,-3121
-55,124,-109,-96,-3441,-1192
-22,-114,-68,526,-1253,-838
119,-44,-59,-283,-27,-366
47,-63,-97,-194,771,188
-9,-94,101,964,1310,1417
47,-49,-3,2390,2030,2713
-10,28,-104,3533,3277,3422
-17,-97,-3,2910,4609,4476
-92,75,8,1676,3778,4733
109,-115,-92,934,1098,2946
-1,-51,-92,-386,-1115,1458
-119,8,-59,-1147,-1260,963
-62,45,-116,260,-1211,108
126,-36,-49,71,471,-602
-93,-47,-94,-1413,1202,-1512
53,-19,-121,-2952,-226,-2197
74,-58,-42,-3209,-686,-3565
-124,28,31,-1684,-64,-4390
126,59,77,-449,-537,-4620
-33,-34,66,832,-1751,-3397
118,-88,90,1531,-2141,-1997
76,127,-95,1958,-1752,-782
-24,-102,-113,2481,-920,183
-21,-12,-23,438,-371,1422
12,43,-28,-719,1163,2750
44,64,-7,3193,2027,2742
-67,104,-109,2599,2514,1743
123,-29,81,-894,2038,1620
-4,74,-6,-2920,795,674
43,54,62,-2920,-861,-67
18,-21,-110,-512,-1761,-204
-14,-37,-63,1287,-1560,203
21,-60,-73,2311,-105,395
108,-48,-94,498,836,980
-27,-28,-117,-746,1176,1394
112,-2,2,1091,-560,98
-76,60,-71,1368,-1704,-3147
-85,67,72,-39,-692,-5668
78,95,125,-1167,459,-4133
-119,110,42,-1846,-1014,-1664
-102,-77,11,-1027,-3205,-1414
-60,-77,125,-742,-2279,-1667
-105,-120,-61,214,-957,-969
103,-114,-76,834,227,-398
111,-100,-76,215,250,320
126,-121,-77,436,619,1462
-73,-93,-66,362,951,2467
-75,58,-91,2400,2486,2527
-29,111,79,1923,2637,3174
-9,-45,23,705,1632,3060
51,-47,53,30,721,1918
0,-36,55,-192,91,1655
70,117,37,-1199,49,1698
79,99,12,124,231,539
-97,39,22,908,364,-125
108,79,17,-438,362,-21
113,105,-8,-1158,541,66
43,36,-1,-413,515,-786
-44,-41,21,315,-328,-2151
1,21,-25,-39,-2405,-3603
-22,-44,22,-554,-1936,-5759
-49,27,126,-1080,-1274,-4994
-56,-65,-126,-1217,-1558,-3042
-83,-26,44,455,-2754,-2551
-32,3,63,971,-3819,-2083
78,83,110,2309,4667,2667
-50,-38,27,3564,5804,3174
-95,-80,47,1681,5060,5096
-73,-88,-5,-1892,2182,5675
-84,61,-42,-2228,-1338,3468
103,-78,-2,-2591,-3155,-601
48,118,32,-465,-1763,-1533
17,-5,59,2339,76,-718
109,-20,38,2237,1152,-1651
121,-30,25,662,606,-2611
-108,-84,31,-695,-398,-1442
27,-75,96,-1101,-751,-1552
112,-33,-103,-1125,-897,-1756
101,11,53,603,-1811,-2956
6,-80,118,-476,-1056,-2920
-100,94,-95,-2590,-903,-1782
-12,-99,74,-2635,-995,-1379
123,-63,35,-1918,-906,-1046
16,-32,23,-915,-894,-1129
10,-58,54,96,-395,-835
-5,-74,62,474,168,-4
-7,-81,42,718,581,1208
84,-105,35,1157,806,1988
-55,101,23,1902,1362,2357
-15,-36,47,2604,2098,2994
-93,66,32,742,1344,4193
-73,-61,-14,274,-560,3564
-11,-102,82,276,-1162,1312
-9,105,124,888,-251,520
35,-122,85,1361,-212,1499
17,-113,94,1628,-1017,849
-11,-95,-116,820,-291,618
-59,-48,125,-362,-134,591
-58,-38,92,-457,-576,-450
-118,-110,-93,-501,-556,-2084
73,69,13,-1180,-428,-2615
-103,58,-104,521,-1332,-3868
66,-74,-17,959,-1669,-4984
99,89,7,924,-1183,-4180
-59,62,-35,970,-1409,-2646
-23,-31,49,3310,2851,2899
-114,-74,86,3864,3676,3998
-18,-27,-118,2793,3737,4324
-4,-94,80,1382,1910,3132
-1,7,56,279,-944,1441
-70,3,111,320,-1820,851
103,37,-63,541,-2291,1213
121,62,5,1267,-1809,1261
-92,103,60,1801,-266,684
100,-86,52,714,-533,675
43,-72,60,869,-1198,969
87,-11,126,795,-1016,1234
109,60,-109,32,-463,451
111,71,-100,-409,-323,-9
102,48,-115,157,-417,-310
-116,30,-127,338,-204,-1354
-72,-48,88,-425,337,-1749
109,-82,4,-1037,199,-2160
98,104,-45,-1274,-326,-2510
-24,-49,-49,-1035,-850,-2428
1,-120,-47,-246,-1184,-1970
-6,99,-37,472,-1077,-1369
-31,126,-32,207,-925,-1133
-26,110,-25,-17,-663,-745
-42,88,-30,-142,-380,223
-76,-127,-32,-782,-133,1257
-75,-78,-37,-945,353,1670
-30,-72,-78,25,1158,1846
-10,-60,126,1230,1319,1964
31,-11,93,950,1442,1825
48,54,58,-121,1069,1524
-39,105,20,-682,117,1415
48,-52,-23,-552,-599,1336
53,-71,33,311,-1322,405
-127,107,117,734,-876,381
-103,-70,-112,-500,711,918
41,9,57,-1264,303,185
9,-52,15,32,-284,-593
98,-123,44,492,147,-580
-122,-95,25,-765,707,-185
-31,-49,75,1951,2742,3929
-61,84,19,740,1726,5367
112,-63,21,-349,-63,4746
87,-9,40,-260,-493,1742
-88,-19,18,797,-1542,105
42,-62,78,1287,-1818,681
49,-41,114,1129,-130,1102
81,11,116,-309,1065,289
112,53,68,-2346,1236,-569
-119,51,36,-2418,1083,-893
-29,67,14,-2071,1862,-1798
-83,31,-10,-1978,3259,-3343
1,-1,-64,-1259,2707,-4264
-35,-87,-101,1412,432,-5371
116,23,11,2592,-2229,-4817
-78,47,40,1538,-3332,-2346
-65,116,15,802,-2993,-1957
90,-128,56,-291,-2476,-2585
18,54,95,-689,-1244,-2376
-91,13,60,-224,-533,-651
93,50,61,-673,-519,1734
-93,120,115,-1141,-543,3426
29,-112,-107,95,360,4029
123,98,-75,1878,2798,4306
-3,-13,101,267,4122,5347
-109,-108,100,-1518,3000,4868
-38,-60,77,-700,1733,3266
-79,19,-22,174,-500,1138
-34,12,10,-393,-1713,-633
16,-84,44,158,5,-732
54,-104,47,-298,1284,-1124
78,125,-19,-817,1207,-2293
83,88,-41,-740,412,-2565
93,52,-42,-478,-450,-2749
127,27,-24,-429,-662,-2903
-72,0,16,-1178,-804,-2594
64,50,22,-1658,-1132,-2148
-26,56,0,-576,-667,-2513
-9,14,24,-746,-556,-2566
75,53,4,-1601,-813,-1351
-50,-28,-97,3684,1203,3259
60,-57,58,3654,1922,3283
28,-28,2,2304,1808,2922
-92,-70,-43,1182,345,1700
-107,-123,-19,372,-921,502
-94,89,-39,242,-1127,-155
-118,-83,-116,-6,-2534,-1247
-93,-116,-7,-1375,-3108,-2857
-98,-24,110,-1633,-708,-3982
-52,-54,-122,-2686,740,-2830
-46,38,11,-2240,-1220,-2630
119,75,61,-1549,-2414,-3366
97,12,-127,-693,-2123,-3181
-16,-45,-82,-130,-1303,-1577
-117,-58,-91,520,-610,-255
-105,-69,-92,1165,447,1160
-35,-76,108,1936,1297,1999
-115,-124,84,1941,2101,3030
-43,-6,43,276,1585,4374
3,-21,65,650,-76,2799
65,-28,117,3484,-234,1484
48,73,74,3190,2335,3380
-69,-20,7,38,1552,2388
-89,40,-19,-1819,996,756
-91,-37,-36,-482,-242,202
-118,-53,-9,471,-882,841
-105,58,14,-406,-233,524
3,86,25,-1880,809,-797
48,108,-40,-2157,970,-2239
-63,115,-76,-1018,-987,-4306
-125,-42,10,332,-696,-5735
-71,44,-107,-1778,638,-6465
29,67,63,-2406,-2,-3792
-78,-90,-37,-1014,-1907,-1938
65,-64,-2,562,-2033,-2050
18,-67,49,604,-1305,-1570
-40,-68,70,205,-170,-601
-88,-82,25,418,87,-48
-66,-113,32,300,-154,1000
22,127,89,7,69,2568
81,-84,83,487,2481,5631
49,-70,41,1776,1457,5443
-60,-81,72,1369,1318,3558
-47,-30,-12,1452,250,2286
-89,40,36,600,-332,1753
-121,8,60,285,-494,996
-116,-23,50,187,-646,721
-114,-38,44,824,-264,1012
91,12,40,417,-811,492
6,-39,-123,-517,140,-1425
-30,-6,79,-1042,556,-2008
87,-23,0,-82,-1658,-4082
113,71,-96,-237,-2367,-5985
-112,-34,76,-2351,-1586,-5310
57,-11,-23,-2415,-437,-4775
103,-1,-111,-1146,-608,-4013
-77,35,104,-143,-891,-2858
33,36,98,1030,-658,-1181
-16,53,91,1336,-205,216
-54,55,72,1659,359,1148
17,27,80,1462,905,2183
-80,-57,114,1630,1708,3147
-32,65,-86,2073,3283,4738
123,-29,-93,-563,3039,7503
71,125,-88,-1732,897,6200
-49,-86,76,337,593,1739
-39,-86,3,1927,-803,419
62,-95,30,2011,-1908,1291
-17,-86,119,1779,-1679,1721
-29,-38,-101,635,-846,1177
-79,13,-116,-137,-130,708
-58,29,126,-901,-242,-214
64,18,-69,-2314,-740,-1593
69,-65,-112,-696,-833,-4069
95,-5,-9,-94,-1101,-6300
-44,-114,54,-924,-1320,-5874
-88,36,4,307,-1600,-5153
42,20,10,923,-1956,-3420
120,42,9,1676,-1425,-1181
43,74,14,2360,-162,-178
61,15,21,2257,3361,4124
127,46,-2,2889,1940,2884
-89,125,19,2385,1853,1782
20,-52,-34,1734,2103,2057
31,29,-73,830,-1151,1467
-50,32,78,81,-1594,1577
-109,45,117,305,-1085,1397
-102,45,-104,1049,-156,993
-101,59,-105,1502,-338,712
68,-112,-85,512,-1302,1188
80,-20,13,-382,-1390,1342
-124,-5,41,132,-559,94
-119,0,44,256,252,-609
-89,-12,-11,-448,599,-1298
-52,-112,-83,266,326,-1543
-64,113,123,-42,-194,-1879
-34,46,98,-848,-672,-2796
89,-80,125,-1197,-478,-2974
-128,63,117,-667,-587,-2229
-4,58,59,34,-878,-1026
-54,100,66,284,-765,-385
-15,112,104,-118,-406,116
34,102,117,-331,445,959
-3,-122,68,-260,497,1308
-24,-64,40,-660,186,1602
54,-61,73,-682,671,2049
69,-54,7,824,743,1808
57,-16,-25,1090,575,1561
4,23,-45,1013,316,1767
-50,92,-77,658,57,1319
114,-79,-69,-341,-615,1278
-55,-91,-2,-170,-694,599
3,-95,56,-149,-855,-246
90,-39,50,-472,-1287,-436
82,-49,91,-585,-299,-673
-36,-117,71,-561,1497,-1136
5,-126,-27,-1473,1306,-1216
-21,120,-113,-1336,18,-889
2,-110,-93,-1065,191,-1084
-50,92,-101,-756,1629,-1642
-73,-78,-79,-2918,933,-3332
8,-13,-23,-1746,684,-2414
89,72,-32,2860,-1616,-1987
101,70,42,2429,-1648,-1765
124,-125,11,726,-1369,-977
7,-66,12,-1131,-1049,-659
0,-78,31,-1764,-414,-374
-6,-109,15,-621,194,466
39,-111,20,31,518,1783
-77,-111,46,127,984,2778
63,-123,39,425,1342,3331
-42,-98,56,-315,930,4000
115,20,29,-995,-17,3719
12,77,1,-264,-868,1713
-50,51,29,648,-1700,-235
-113,-12,51,1610,-1288,-442
88,-56,80,1550,-414,97
120,-21,100,-217,651,696
-80,39,90,-1524,921,148
-56,45,60,-848,297,-719
-74,48,50,82,183,-1802
-4,-9,22,30,697,-2663
100,-110,-10,178,935,-3238
101,81,-34,53,-558,-3109
122,54,3,-661,-2643,-1845
-80,-90,-18,-795,-2847,-1365
-45,-119,31,-532,-1720,-2485
-2,88,105,-1715,-141,-1702
51,-84,9,-2056,-120,-146
-127,11,-35,-1413,-1213,49
-71,15,54,-1328,-889,931
-58,33,65,-423,642,1639
58,16,37,354,1629,2306
14,25,49,-268,2440,3474
14,14,38,155,2462,3917
-74,11,48,611,1494,3536
74,15,49,263,-609,2259
-103,-9,31,-2114,-1127,1052
-41,116,32,-202,-316,-173
82,38,42,734,332,-391
-44,-122,0,1749,3008,-4233
26,26,-22,2150,1259,-4649
-72,46,-19,611,-1368,-2559
118,79,-3,-476,-2485,-1502
-27,77,120,-1908,-1948,-1641
-37,-46,70,-2350,-680,-2059
-24,91,67,188,328,-3193
79,80,46,-380,-250,-1891
-86,115,-4,-80,-1294,122
127,118,-3,689,-1426,519
-117,112,53,370,-1031,1306
-24,101,97,-261,155,2879
-56,108,-120,-407,940,4348
-95,106,120,434,2041,4302
-106,33,69,1883,2697,3585
37,-39,8,1683,1290,3104
60,-64,-79,-478,-1565,3126
-52,-39,-36,-227,-2596,868
-110,109,73,213,-66,-764
62,84,39,33,705,-1003
-51,-105,0,-2019,284,-1312
16,-110,6,-2484,757,-1872
94,102,4,-1629,831,-2393
122,-117,13,-1959,763,-2958
-117,-94,24,-2636,1055,-3132
126,-79,35,-2684,1137,-2740
110,-61,59,-2341,1190,-1864
73,-1,78,-2007,1297,-1490
90,26,89,-1518,2044,-1932
104,2,59,-1022,2528,-2079
-86,-1,-46,744,763,-1565
56,25,-31,145,-2046,-56
-95,63,70,-2015,-1401,1396
-36,116,115,-2713,-132,1186
-37,-10,-96,-4520,242,433
52,109,49,-7889,123,217
93,13,-86,-5481,-57,-263
42,-82,83,-1803,30,-1038
-19,-22,82,-421,754,-2783
-23,-63,52,-248,1228,-3906
-49,-67,29,2343,1550,3773
-48,-42,-45,3019,414,4376
-20,-93,-98,617,-496,2610
-26,-98,-30,-1191,-157,900
-12,64,12,-153,87,-424
-103,11,-1,1431,-1082,-518
103,27,48,869,-906,-479
110,59,54,-571,512,-1157
-100,22,11,-1041,385,-1427
-61,26,1,-1438,-284,-1183
-44,73,39,-1232,-754,-1813
48,67,70,-1277,224,-2568
-35,-55,66,-1256,486,-3217
9,-40,0,-1164,-548,-3028
20,-108,10,89,-652,-3089
10,95,39,449,-862,-2245
75,-108,-2,424,-1383,-1526
-8,-105,11,22,-1454,-960
3,123,85,-981,-781,483
-15,-121,77,-535,615,2447
19,-43,26,179,1242,3371
-125,-50,-1,1443,990,3591
109,-94,35,1289,1939,3351
82,-108,21,797,3135,3188
-26,91,-101,2974,680,2772
-55,-107,-117,2668,-2036,847
-82,80,10,1526,-2818,73
-65,25,112,1000,-1029,-89
126,14,127,244,1268,-88
78,73,69,-1664,1336,686
72,-126,16,-2321,494,902
96,-41,5,-2369,-181,683
127,-8,17,-1631,-623,-433
-94,-9,45,-513,-481,-2001
54,-75,92,-42,310,-3320
124,103,83,9,-400,-3924
113,95,99,-931,-1593,-3998
7,94,120,-1494,-2064,-3646
121,61,119,-279,-1846,-2442
-38,48,-115,1011,-853,-942
-72,-56,58,2705,2277,3277
-126,-107,8,4571,771,2856
78,-52,124,2119,-549,3558
-2,33,-36,509,33,2947
-121,78,-58,635,279,1318
-3,25,-105,2484,-45,108
-38,11,-88,2661,-309,158
-33,32,-55,1269,-19,-76
21,42,-34,-1092,424,-923
101,-38,-74,-1465,346,-1655
-4,-53,114,-1425,-1371,-1206
-24,-49,-102,-815,-2588,-314
99,-20,-11,-961,-1470,-670
-71,0,-9,-1560,236,-1527
126,-18,-113,-801,-923,-1583
97,-24,-108,865,-2835,-1400
109,-16,-28,1283,-2751,-1061
107,51,60,-606,-919,-937
78,10,21,-926,234,-723
44,-63,-68,-219,511,-460
58,-79,-74,64,267,29
101,-99,-39,281,297,1080
-123,-52,5,342,664,2053
11,95,-31,-411,723,1995
80,99,-33,103,1728,973
1,21,-82,-141,2435,1174
-67,87,100,-913,1171,1704
-105,-70,83,-1398,826,1108
-107,-24,62,-1126,941,312
-118,-24,21,-168,793,-581
-62,-35,11,-354,331,-1453
-37,-39,26,-1397,125,-1770
-39,-38,32,-1813,109,-1507
15,-5,26,-2089,842,-1427
43,29,-16,-2144,683,-1933
17,72,-42,-2060,120,-2256
49,42,-30,-1251,243,-2375
81,12,-28,-609,176,-2125
66,4,-22,-499,-706,-1526
-69,94,4,-1876,-1634,-580
-4,-42,0,6750,-1994,582
-120,107,31,5822,5086,2053
34,71,24,2645,11001,248
93,-68,99,-236,8232,991
40,78,118,-2846,1139,1422
-118,89,-70,-1740,-2674,991
-70,70,12,-671,-2361,1578
101,102,7,1068,-560,1232
16,-98,22,804,699,882
26,-25,0,-1313,1737,741
56,40,-38,-3012,1142,419
79,99,-72,-2873,326,-1240
-96,67,-49,-1250,551,-3472
79,3,-17,-684,1606,-4906
3,-63,21,-892,811,-5587
47,17,-12,-1127,-2263,-4750
81,12,89,-928,-3656,-4628
-105,126,-19,149,-2939,-5670
-85,66,-16,695,-1690,-5252
92,52,-32,-10,-2595,-2832
13,38,-54,1296,-2811,-871
-43,90,32,902,-2271,282
-95,-127,-125,73,-487,1298
-71,123,104,933,1858,3036
87,-114,21,1970,4190,4357
118,80,44,2985,7340,4991
81,100,67,566,6939,7186
-25,-10,-87,-613,4444,6581
15,-28,-16,1386,2467,4001
36,-59,-15,1907,-5011,-64
-88,54,-46,-485,-3853,-405
-123,36,24,-1609,947,-652
-32,12,-18,-1637,2553,-1353
44,2,120,-1709,860,-2497
88,32,126,-2148,-961,-2614
115,75,-88,-2103,-1895,-3472
-61,59,19,-2334,-1076,-4872
0,64,85,-3774,1315,-5626
-123,-75,25,-2148,525,-3777
-104,-49,12,236,-994,-1517
-15,-81,-11,3081,497,3648
47,8,16,1345,1063,2751
101,-5,35,-404,2036,2162
59,18,-23,-1466,1863,1773
-26,66,-59,-1399,-124,1644
-65,78,-19,-376,-1668,1083
-33,39,23,944,-1682,366
39,34,65,768,-437,-358
51,-74,-2,-1063,-585,-1935
34,123,-16,-662,-486,-3759
108,111,68,206,458,-4885
-25,60,103,-1626,651,-3815
116,-115,29,-2774,-75,-3123
-56,-65,-37,-1837,-1003,-3147
-88,-74,7,-855,-501,-2388
-113,-96,21,129,105,-1037
58,-62,-26,1124,283,-304
33,-65,-55,1365,-416,-84
52,-77,-15,258,-830,868
67,-60,59,-652,-559,1880
-98,-101,85,140,612,2496
85,81,77,1323,2016,3356
118,-103,-12,1098,1705,4395
105,-44,-7,374,-16,3937
-84,-50,39,89,-474,2757
-66,26,-5,487,-1311,1026
73,26,31,548,-1899,125
38,-41,71,1521,-903,-422
41,-95,79,1851,-193,-657
38,-125,86,929,-357,-402
25,-121,115,-724,-353,217
69,-105,126,-1225,339,188
-109,-89,84,-1404,988,-344
-20,-85,49,-1902,960,-1036
-85,1,5,-2477,502,-1731
-77,11,-38,-1500,824,-3306
-93,-81,26,-2191,1862,-4167
-23,-105,13,-2169,1731,-3131
-22,-19,-85,-758,-643,-1689
-112,46,-52,88,-1257,-1580
-89,125,17,4881,916,2999
-36,-84,106,2120,1789,4529
101,99,100,-486,1782,4812
34,-115,54,-582,930,2075
-76,111,11,689,-234,10
24,73,12,1435,-897,356
11,78,57,979,-977,1146
-15,-86,-128,-740,-897,1362
-37,-38,-127,-1403,-751,758
-43,6,-115,-1758,-815,-35
42,-49,-92,-485,-721,-1599
-122,116,-58,741,-1180,-2819
45,106,-60,563,-1475,-3842
-43,16,2,-1013,-336,-4769
111,-116,-8,-1623,599,-4325
-115,58,-85,-979,279,-2335
14,101,109,1045,-825,-1334
-120,-83,90,1916,-1811,-2085
95,123,-86,2253,-2237,-2489
75,51,-2,2398,-993,-619
38,38,48,2475,1154,1231
122,24,63,2748,3162,1990
67,-94,61,4217,4975,2235
95,60,88,4885,6514,3267
-5,-39,39,3443,5190,4373
107,-24,9,-178,510,4051
118,-86,84,-2580,-3015,1936
-119,77,-119,-751,-3168,-982
-104,10,-38,1234,-1331,-1753
94,-51,-4,2612,85,-1003
61,-24,-9,2086,-109,312
66,5,-7,1708,-764,1409
93,101,57,1075,-2069,1905
-120,-84,-81,-69,-2702,1814
-65,-45,44,-666,-1717,1843
-16,-41,69,-212,-123,2156
-2,18,21,968,-113,2244
-49,-73,-7,441,-1089,1286
18,53,70,-1422,-45,-966
81,-39,-19,145,1724,-2244
-14,29,-51,722,2487,-4167
-6,-67,-104,-26,470,-2726
-74,-97,112,549,-1397,-1868
-78,-104,-81,1438,-2531,-1867
-39,-100,14,1410,-2698,-1945
-15,-101,95,829,-2132,-1609
-42,-97,-112,26,-1379,-821
-70,-119,-116,73,-884,64
-40,-119,-84,11,-339,1011
15,121,-68,263,593,1612
-95,40,-58,1315,2101,2308
-61,-5,59,795,2370,4046
-87,-109,-6,515,1674,3909
116,-19,8,-1422,2817,2652
15,48,69,-1483,2017,1678
62,-107,-3,-1216,-475,1098
30,-94,62,-357,-1639,236
73,-121,123,409,-930,-262
104,-120,-119,284,572,-498
126,-109,80,-899,1218,-1076
-128,86,-2,-841,867,-1754
-64,-27,-42,-502,447,-2079
37,-88,-51,-669,783,-2394
34,-46,-101,-2299,583,-2741
120,-31,-104,-4278,1912,-4892
32,122,27,1194,619,-3663
-96,120,61,2736,-1716,-2581
0,-76,97,2650,-3300,-1534
-126,1,-24,693,-3613,-844
-82,16,94,-1886,-1488,-88
-103,-21,64,-1260,870,347
-126,-22,-28,-391,1741,1248
-11,-11,-80,-252,1864,2060
50,-4,110,477,1222,2481
91,-12,118,1341,1022,3127
-93,-88,-105,2472,2535,4148
-100,18,56,2193,2533,4660
32,-49,66,-800,-73,4258
98,-64,105,-2481,-1629,2328
-10,-51,108,-890,-1678,729
-75,-97,-1,-3065,-1725,-3775
76,44,56,-1219,-769,-4636
-114,-119,94,1241,-963,-4247
-36,-99,70,1203,-1856,-2621
9,66,64,-922,-1842,-1696
-29,-7,63,-2048,-3094,-4494
38,119,-116,-565,-1759,-2432
-98,59,-112,117,-84,1066
77,127,101,692,-385,1960
-57,111,-108,385,983,3615
100,-87,-87,-509,1394,3512
72,-50,-67,-251,2132,2075
88,35,79,988,2339,-45
114,-54,29,1357,2281,3715
-100,58,-4,1878,1369,3884
-117,54,-46,2443,1414,3567
-11,-112,-16,-280,769,3075
66,-83,14,-2227,1470,2038
103,86,69,-3976,2402,-182
-85,111,-54,-141,1297,-244
-109,-30,-46,4135,-1221,-983
112,77,-22,2968,-2714,-2318
21,16,119,-841,-2539,-3591
54,-128,-18,-2403,-1957,-4529
36,-52,-75,-2138,-1614,-3818
93,-17,107,-1990,-1649,-2740
-51,57,54,-2519,-1195,-1651
107,117,20,-2143,-765,-921
53,126,-9,-663,-640,-285
-3,-36,-43,-634,-416,449
-89,62,-84,-1047,-1130,1029
-4,59,6,-2719,-1214,755
33,117,75,-2888,-714,619
98,73,-111,-1253,449,942
118,59,-123,-804,599,1039
121,43,111,-636,354,548
104,-32,86,-1,266,819
82,-103,31,1577,92,1154
123,67,-18,2508,-154,1379
127,103,5,579,-19,1124
-95,-86,29,341,-4604,-3109
-54,19,-87,-865,-5544,-1767
-117,-51,78,-1499,-4314,-284
-8,2,-86,-1602,-2505,16
112,-6,-11,-467,-267,-913
120,127,-25,1952,1492,-1029
66,-17,-40,2816,3224,777
-52,-17,26,38,3278,3973
40,34,24,-622,2099,2148
38,-63,-93,-2998,3722,2032
-124,113,105,-5357,4664,4671
38,-36,-22,-2348,3038,4054
-89,-40,-58,2187,436,615
119,-86,-88,3480,-491,-1312
109,63,-79,2917,-1307,-1811
-119,31,-35,378,-130,-1351
-53,27,-16,-2415,1263,-1684
-70,-81,-53,-5909,737,-1819
-13,20,-41,-6186,670,-2469
91,117,122,-5540,2087,-3761
-71,-11,-69,-1520,4097,-4052
75,-35,-69,21,3511,-4287
32,-55,108,2067,44,-3287
-95,-47,94,1716,-1860,-915
104,33,94,489,-1289,445
29,63,59,-195,-641,-689
1,69,69,-1747,20,-886
16,56,82,-3167,580,-213
46,68,99,-3585,59,547
96,-89,-57,-4462,-402,992
-65,-39,61,-4991,-414,1039
33,-87,-73,-3178,-1229,624
31,59,83,-2294,-1418,-1185
116,121,-93,-2945,-435,-2959
60,22,-21,-4257,-1267,-5116
100,-57,32,-3199,-1512,-6273
-57,125,80,-859,-3119,-4581
-105,102,-120,278,-3391,-1364
59,-20,-79,235,-1804,145
9,44,-67,176,-142,368
-119,93,-70,1619,3895,3275
22,108,13,2043,5000,4980
65,-96,-35,1473,4921,8255
20,-54,78,-462,1898,7550
64,-76,-116,-1135,794,3337
-57,-68,-64,-1466,-827,-1253
105,-95,-49,1678,-1975,-3647
25,-112,-90,1964,-435,-1674
-102,-67,108,454,-660,-60
94,-11,105,-1328,-1755,-355
-72,-30,-56,-2248,-718,-1277
-8,-70,-5,-2551,516,-2242
20,-122,2,-2288,1070,-3499
31,12,17,-1258,251,-4318
-41,-117,77,-519,-1426,-4176
-17,-3,-106,438,-1910,-3964
83,47,-104,-377,-2661,-2133
-18,97,-62,-858,-1968,-1217
41,-12,-37,595,-53,-2131
-19,-120,-95,1335,886,-1106
-121,-63,83,648,613,1410
-71,-12,42,378,579,2193
81,0,13,695,1236,2814
-9,3,-41,1342,2126,4011
-11,53,-87,901,2481,4956
73,78,-104,1012,1788,5747
105,-68,112,148,1658,3567
-24,-47,29,398,74,2549
11,31,-13,214,-1563,2183
59,96,-77,1275,-1862,452
-107,29,1,493,-488,-1252
14,-67,31,-973,1638,-1834
-115,0,-49,-2583,520,-1923
73,23,-23,-2374,-1374,-2948
-27,-95,79,-852,-83,-4215
68,55,120,-958,1198,-4596
22,-37,67,-648,963,-3595
-49,-64,39,55,-651,-1979
127,-45,81,716,-2238,-1359
66,-47,-112,1133,-2183,-1568
16,-50,29,-1556,1632,-4420
-14,-95,-15,-1506,-256,-4279
30,12,21,974,-955,-2836
4,8,59,1502,-627,-989
-106,104,39,1104,-310,-530
112,114,20,829,-593,-1494
93,69,30,408,-775,-1409
-126,-25,65,927,-1160,-762
66,-30,-121,89,-1554,1143
-98,-121,-81,-1172,-929,2998
52,68,-67,693,875,2105
-22,-27,-82,2424,2586,1941
65,-57,70,3035,2651,3836
74,102,72,604,1661,4829
80,-71,94,-1166,1308,3280
19,-43,42,-1020,1021,1642
-97,-40,-11,462,-125,1127
40,-29,1,1425,-1412,1047
77,-26,55,1288,-741,929
-22,-19,85,-151,1082,36
58,-89,-24,-2967,548,-1207
2,115,-59,-1932,-992,-4522
53,-112,52,-155,-344,-6363
-43,-121,-55,199,-174,-6541
-30,87,-38,-11,-1465,-5660
30,118,-56,-86,-2309,-4642
45,-98,-96,313,-2380,-3700
78,-99,-111,1101,-2216,-2518
111,-99,-96,2159,-1363,-708
91,-101,-50,2645,244,799
-86,127,-7,3026,2440,1630
-71,22,-10,3537,5586,2543
68,-86,-16,2828,8379,3913
3,110,-18,2631,7530,6596
-11,-96,-14,-1620,3084,5853
-42,-53,73,-3205,-195,3002
36,-18,3,-45,-4004,-1789
-43,-5,-81,2912,-3699,-2374
-66,-95,59,4772,-1315,-1061
93,-25,91,3692,117,-168
-124,11,-35,-4993,1646,2745
77,70,85,-3766,-154,1307
-80,-20,100,162,-973,-1170
30,-117,97,3435,1211,-4283
-14,-67,19,3315,3357,-6346
116,-4,-60,695,2985,-4922
3,76,33,2159,-888,-1692
28,-86,-85,2794,-4724,-1490
-82,-29,101,2102,-4931,-4222
-26,-80,4,358,-2472,-4008
101,117,-3,-1067,-538,-1760
-32,54,-72,44,172,161
-113,77,-93,950,480,1632
-38,103,-60,481,1333,2990
-97,53,-33,57,2999,4523
-52,105,-114,-795,5032,6230
-32,-87,-91,-2012,2769,6405
-29,-92,-4,-1061,288,3104
-108,-102,-9,1165,-1661,-877
77,52,51,2478,-3203,-2223
55,14,-34,1176,-2801,96
48,71,35,376,-708,1595
72,-88,22,-446,1297,970
76,-80,-80,-1048,1778,192
95,-94,92,-1430,1256,201
-123,-114,27,-956,410,-680
121,99,11,2,-114,-2144
4,-13,28,-96,736,-2755
8,-51,-18,-1502,603,-3264
22,-54,-18,-4679,2026,-5580
59,-53,103,-2209,2900,-4704
114,65,-12,1439,-1431,-1768
-96,5,54,1254,-3033,-662
-119,48,-91,796,-2560,-581
-33,34,-4,-494,-236,-919
-39,-4,-45,-270,1453,-541
-75,-62,87,985,875,152
-16,-55,-119,-15,-454,1358
50,-25,-56,-553,-360,2776
85,12,-32,-359,275,3502
-46,99,11,-1609,1135,4701
-66,120,-40,-3162,735,5523
-26,-87,-80,-870,93,3387
-107,-23,-119,1193,-757,700
32,34,-93,741,-753,-828
79,56,-38,-550,1303,-1560
-72,-26,-115,-993,3299,-1205
-63,-46,11,-1247,2633,-1281
-62,-83,-67,-687,1145,-1863
-11,127,-38,-464,124,-2317
-103,21,-6,366,341,-3118
114,1,28,-447,-667,-3175
75,-50,3,906,-567,-4117
-124,63,40,1208,-892,-3728
-69,113,-3,410,-1711,-2514
60,-93,5,-572,-2291,-2059
37,-117,53,-736,-1413,-1868
-70,112,54,-859,-1165,-1109
58,-91,81,-1723,-1177,915
85,-11,-93,-2679,-428,1957
-81,27,-58,-2141,320,2818
85,-38,-101,1138,1502,3279
106,-85,114,1920,1851,4269
126,33,-121,-431,1199,5973
-43,-106,29,17,-35,4792
-128,-83,16,331,-1250,2359
89,-101,86,155,-1347,1242
-27,-96,69,707,-678,687
-123,-97,40,1005,-86,208
-104,-116,22,566,426,-483
-83,-125,14,-644,523,-953
-109,116,-6,-1135,-87,-1296
-68,84,21,-747,-109,-1665
14,45,38,-559,433,-2417
-94,-33,42,-630,1136,-3294
-127,-6,13,-1565,598,-2893
58,-22,-56,-295,-163,-3558
-124,-72,13,-599,-869,-3886
57,-74,31,-919,-1284,-2663
82,-27,10,-520,-1608,-1467
-13,55,-82,-198,1809,4995
2,-18,89,-852,-320,4786
116,72,60,44,-1133,2518
-118,69,71,280,-478,-21
17,-21,33,1470,-294,-2378
5,99,35,1392,102,-2322
32,116,34,-716,994,-1637
78,109,-15,-1715,1253,-2389
95,103,-25,-1901,420,-2608
86,117,-15,-1718,-242,-2486
88,-115,17,-1744,-289,-2618
50,-84,29,-2045,-168,-2635
-26,-53,42,-2336,-198,-2324
-75,-50,49,-2117,-129,-1678
-81,-49,71,-1972,-47,-856
-91,33,104,-2548,-97,-245
-128,89,115,-2299,-122,-648
52,98,124,-1526,-339,-878
31,55,-109,-763,-540,346
104,-112,-93,-2010,199,1465
-89,51,-58,-4034,300,1111
-23,83,26,-4714,564,324
-20,53,116,-3296,623,-593
-45,42,-80,-2665,515,-1287
-81,22,-38,-2964,535,-1717
105,-45,5,-2402,40,-2003
31,-83,36,-1587,-708,-1571
-31,-118,84,-553,-1082,-1061
-58,-85,101,-467,-649,-930
-83,-69,118,-881,-494,-1086
-7,45,-109,-56,275,-1296
96,20,98,874,-465,-750
61,-81,61,2847,-1278,-136
-12,12,114,790,8,2052
28,119,68,-656,1716,3057
74,-99,-57,-32,1617,2406
-8,120,-103,277,1896,2546
-81,-109,81,-185,1634,3673
-80,-27,42,-534,385,3498
-54,-11,44,-335,-383,2592
-30,27,13,381,1318,-5890
-81,97,2,554,-112,-5744
68,23,6,163,-1003,-4539
-126,10,-17,-656,-773,-2865
-56,32,-65,-507,-500,-2055
1,19,-115,526,-1128,-1802
127,-7,-80,665,-1645,-1099
117,-63,-25,672,-1151,-72
111,-96,2,746,69,1900
-61,-45,-18,241,1231,3992
-80,12,-42,-565,2161,5404
28,-114,13,-3131,3169,7376
104,116,99,-5901,2426,6720
-23,46,-54,446,442,4218
-11,24,63,4318,-4031,2313
-39,-23,-20,4970,-5968,1042
-41,48,21,2022,-4259,1286
74,54,118,414,-909,546
125,-15,124,-259,3130,-795
-34,-20,10,-2384,3558,-1012
-90,22,-50,-3092,664,-1907
99,-85,-45,165,-1350,-2958
-30,97,31,546,-342,-2933
80,106,80,-1763,324,-3082
69,-120,77,-3614,260,-3629
63,97,94,-3000,162,-3703
-6,31,-124,-1291,-13,-3270
-128,15,-125,281,-460,-2276
75,3,126,750,-506,-1608
-49,69,108,-450,-764,-948
-88,65,108,-532,-381,-743
-86,28,106,-523,-19,-18
105,56,87,-726,-269,1280
110,109,89,-99,3,2249
-25,98,90,476,728,2446
-20,53,77,257,1594,3535
-118,127,70,-1344,1428,4769
-52,-57,48,-1206,564,3445
-54,93,25,1034,-1563,1728
80,64,30,2467,-2602,2780
116,51,-91,-851,3038,4198
-56,-40,82,-2966,2079,5195
50,7,17,-282,-497,4226
109,-21,43,1777,-323,2309
73,-21,3,2422,-60,1788
-37,22,-24,1344,-240,1352
72,84,-43,164,-207,253
36,66,-41,-344,-249,-1005
-115,-34,12,-534,191,-1487
-15,-74,18,-1153,662,-1551
-14,-40,-15,-1528,-213,-1194
-32,29,20,-1676,-1221,-1855
-4,34,80,-765,-920,-2897
64,-69,107,739,323,-3962
80,108,84,792,118,-3702
87,2,78,1198,-948,-3554
-57,-14,90,1035,-1864,-1641
-33,96,108,-69,-2027,-395
0,62,-76,-339,-710,20
-118,6,-72,196,1799,822
104,-63,80,1801,1351,1214
94,-36,68,1292,502,2486
-42,-41,-117,329,921,3103
-99,-29,-81,-577,2450,3529
-83,86,-126,-2376,2279,4599
-87,-47,111,-3072,960,4886
-66,-45,96,-66,150,4420
-124,-41,43,3042,-691,3598
56,79,-25,2687,-1153,1939
66,90,39,-1694,-224,-458
-35,105,-24,-354,-1920,-5884
-16,-53,103,1955,-697,-7077
-119,47,-71,11,302,-5338
69,-116,-1,73,-2382,-7533
-97,-97,31,-1700,-4528,-7578
-90,-27,21,-2315,-2142,-7824
65,-11,7,-1049,-2610,-5226
15,-48,48,-503,-2043,-3176
4,12,63,-889,-1455,-1511
-125,92,90,-1085,-557,13
-2,75,87,2351,852,3860
29,48,48,2108,2571,4070
-118,-47,45,-348,2163,3119
105,121,87,1348,2866,6244
-105,-125,-118,2138,3144,6172
-29,-117,-94,2237,2825,8206
89,-11,-125,3358,2306,7946
-124,28,-6,5489,-320,3611
81,69,95,2324,-2064,1704
-52,29,-13,111,-701,457
-70,-23,-48,-134,1315,254
-85,-13,81,-681,1830,49
21,-34,22,-930,771,-956
0,-7,0,-810,-1853,-2323
4,-37,-114,-1231,-6017,-4495
-122,-100,-113,-4001,-4221,-5371
95,-2,-22,-5672,-80,-6480
4,91,44,-2909,-1290,-6124
57,87,16,-925,-2214,-4496
-52,118,-36,1472,-1733,-3309
28,-116,-44,1883,-1079,-1921
27,-124,2,1197,-100,-357
-43,120,-30,1624,1270,1171
4,106,-33,1746,2124,2381
125,56,-14,1838,3021,3559
-95,-9,14,2187,4936,5075
32,-65,31,3433,6486,7096
-58,49,9,2919,4992,6738
111,-67,-37,2106,779,3917
-23,49,34,521,-3501,1199
-28,-81,61,-105,-2576,233
-49,114,88,1506,458,-862
81,51,0,2951,897,-759
-18,63,-45,2290,-418,439
10,90,7,1522,-1653,1767
67,-77,-119,1298,-2110,1429
83,23,13,-90,-1810,1096
100,46,62,-498,-1003,422
121,52,103,-1456,-843,266
100,9,-106,-806,-964,330
-105,121,-59,-2165,2495,2977
-27,-90,89,-2492,2143,3168
-5,-105,37,-919,703,3182
-96,0,20,-175,-835,2867
-38,64,108,-822,-1283,2166
-104,-51,-82,-1417,-1190,1351
-91,6,-103,1077,-1047,-719
112,-82,-5,1066,1724,-1518
-90,-89,-120,-156,2618,-2460
-112,16,-17,1783,128,-3456
-51,-109,31,2597,-1691,-3959
-121,-9,-118,1478,-1834,-4094
-82,-104,-75,411,-1902,-3766
56,94,-90,469,-2247,-2826
-93,113,-93,20,-2056,-1610
69,-85,-75,-1106,-2202,-774
37,-36,-18,-2460,-1357,339
8,113,-38,539,-291,1458
41,-5,-19,4308,1046,3693
9,-1,-25,2629,4740,5159
-41,59,-99,-324,5593,3538
43,32,115,-2390,3375,2818
78,-86,3,-2793,501,4088
-44,-14,-8,-233,-1591,3672
-93,32,38,1331,-2219,2170
97,104,86,1571,-1109,546
76,121,105,358,507,-946
96,106,92,-953,979,-1920
-107,48,59,-1228,1023,-2710
-97,-14,96,-1327,1577,-4483
-109,-50,49,-1225,-317,-5348
68,76,89,-379,571,-6425
4,32,-115,-1452,678,-5444
-24,-2,35,907,-1889,-3433
14,83,31,1225,-1773,-2457
101,82,23,1172,-1340,-1720
31,54,28,789,-734,-690
-58,74,32,-189,-345,714
-43,-124,72,-1334,339,1989
59,-34,-117,-2650,882,2968
-92,-100,109,-1378,-2151,-3874
114,109,-103,-162,-2584,-4250
54,-5,-8,-180,-1552,-3452
-86,-78,4,28,-1328,-3058
-18,100,-6,300,-1623,-1756
-87,78,35,51,-1158,865
-88,113,55,625,630,2244
-17,-92,-13,1443,1361,3033
127,60,-68,735,1687,4195
68,-81,-101,1360,3163,4601
-1,-43,-123,643,4455,5926
-3,73,-25,570,2167,5315
-125,-32,123,-377,-259,3405
71,-61,-55,-1008,280,2007
29,53,-73,810,-7,181
-77,5,-96,2056,-955,-26
-84,-10,-86,1333,-576,-682
-33,-47,-86,-640,34,-2023
16,-93,-83,-1926,-187,-2728
-62,-73,-73,-1572,-1517,-3665
98,-1,27,649,-1566,-4269
0,123,103,1157,-1222,-4219
-109,79,-114,-313,-2622,-3596
-102,-109,-123,-1790,-3547,-3096
-68,93,-82,-1933,-2738,-2591
55,25,-73,-633,-1394,-935
-3,35,-50,117,215,529
7,94,-96,424,1758,1804
120,116,111,140,2370,2918
120,113,64,163,3152,4161
-80,93,65,133,3858,5188
-109,-30,92,-1935,3183,5844
50,-106,23,-2044,650,4265
99,-86,6,-425,-1961,1326
-71,124,35,1258,-3131,-166
117,101,74,1798,-1878,259
100,106,109,952,424,660
119,125,56,-213,1767,182
-127,104,-5,-625,784,-292
98,96,-26,-437,-653,-988
122,-19,43,3292,-3377,-3766
95,-32,-8,1983,-779,-1686
-100,-4,34,-1136,-1304,-1953
-120,-29,-27,-106,-1761,-1648
95,-43,-32,-119,-1436,-509
18,46,-103,-676,-1094,-1203
16,51,98,296,695,-252
39,84,5,205,323,688
34,102,0,885,592,645
56,74,5,1714,1202,1257
73,-8,42,2060,1547,1001
80,-41,89,876,1524,714
-114,-83,114,1693,1360,913
110,61,-82,1744,1945,1937
-16,106,94,2792,1043,2783
-7,-38,102,2884,-1689,2493
43,16,18,1265,-2199,1556
5,61,103,178,-1218,138
-32,-16,-86,-44,-1542,-535
-45,14,-37,3132,-2892,-375
-58,24,65,4293,-1166,1003
-28,93,123,938,3567,1220
-80,75,-95,-379,2930,-393
-12,-103,77,821,-504,317
101,61,122,763,-1863,3006
98,-21,65,-1982,362,2153
6,61,-61,-1848,1787,-2696
103,61,127,3062,-3277,-4644
53,-40,-95,5716,-2839,-1746
-118,51,28,1103,1232,2611
43,-51,11,-1469,232,2196
11,26,-85,-498,171,1958
87,90,89,1629,1983,2090
-4,39,-56,10,2670,1637
-50,-41,-102,-632,782,1060
-109,-90,-75,430,-1988,-128
127,-115,29,254,-2642,-2124
-88,-33,-52,-999,-2301,-2564
-5,-8,-43,-2849,-463,-3591
100,85,-118,-1400,675,-6421
-86,-101,-68,1817,-1051,-5737
-122,92,107,2594,-2051,-6112
72,-89,44,472,-369,-5485
-59,-34,33,-3110,-1005,-6412
126,-104,-63,-885,-3101,-6373
-52,89,-58,536,-2757,-4838
-126,39,-99,2736,-3047,-2019
-46,92,-60,2873,-2246,-774
-89,-100,61,820,-765,744
-45,-90,99,-948,1733,2688
31,112,24,-214,3667,4393
-115,115,-35,-1269,5211,7067
120,-39,-18,-3956,5784,9177
64,-104,-55,-4491,3287,7642
-78,12,-86,-4515,-412,4719
74,22,90,3099,-6831,-5097
-99,59,54,7217,-6208,-4159
-75,24,24,5767,-1601,2011
-31,7,3,2321,4223,1650
21,104,-98,-3797,4496,1397
59,-70,-34,-4898,2870,661
107,-101,-79,-14,1347,-4438
-81,-54,-51,3041,-1830,-7648
40,-45,-75,186,-1122,-5897
118,-4,-65,-5197,688,-4116
103,-79,-54,-5141,960,-3446
-46,-5,58,480,-1533,-4583
-114,-89,-77,2563,-2320,-3786
66,-87,-8,859,-1208,-2678
79,-104,-36,402,-1988,-2448
-51,118,12,-439,-3081,-1348
-110,113,82,-1224,-2572,-112
99,-104,-69,-2431,-1849,1590
127,-76,-6,-2124,33,3106
-5,-96,-41,1263,1670,5314
-67,-127,-43,-695,1017,4994
69,48,95,-4324,2176,4089
-50,-123,-85,807,2611,3866
-4,30,-24,5445,-1244,4296
116,-128,-23,3596,-2790,3988
-98,-12,10,-3312,3096,1899
30,117,-120,-5342,5174,2187
85,20,-38,3461,-225,-3742
-81,118,66,2545,-1380,-3613
13,79,65,-777,564,-4195
122,-19,19,-1701,1729,-5972
116,95,36,-2481,809,-6358
26,84,29,-1373,-616,-4989
-95,-83,-43,204,-1522,-3345
-21,-12,-23,-103,-2196,-2277
-65,52,30,-1775,-759,-2006
-111,41,-4,-1481,748,-1281
34,26,-101,-54,-914,-352
6,88,-55,-1276,-2434,590
67,-97,52,-4179,-2527,1264
118,-27,-78,-5092,-2848,1418
-38,93,94,-6153,-2585,643
6,63,23,-8224,-992,-512
-3,7,90,-4948,561,-3638
109,-51,98,-439,-1876,-3587
23,90,-47,944,-3780,-2113
52,102,30,704,-2733,-1058
-80,-20,81,-1741,-1781,-5
79,-65,105,-1127,-924,-891
99,71,125,1148,390,-792
65,-2,57,3296,1270,-94
55,-118,-65,2306,2531,1441
-106,-38,81,891,3910,2268
40,-48,-86,1242,3927,2691
-3,-60,4,1916,3278,3218
63,-4,-108,2475,1971,3420
86,84,-118,-251,1155,2224
111,55,-77,-483,674,1968
106,0,107,1205,926,2060
114,36,22,1574,1253,1410
52,88,-54,386,755,501
-37,107,-99,-959,-266,-674
-87,119,-81,-1833,-887,-1164
13,67,-2,-2215,-564,-2127
79,55,13,-3206,-650,-3640
112,35,76,-4026,-1049,-4108
72,81,-64,-4648,-591,-5037
-110,-86,84,-4147,2213,-6159
-16,-34,36,-1805,1400,-3578
16,0,-11,-1142,371,-2378
124,-94,-26,-4374,1163,-1165
90,-107,-69,-4962,1705,-307
-48,1,100,-42,22,-278
-39,-49,-126,2016,-1416,2134
23,-72,-23,-1888,-2075,3416
-73,-42,-109,-1770,-1392,2979
-66,-33,113,3580,-1342,3712
-72,44,-47,4427,-1817,4960
82,-96,-97,-598,-3441,3692
-55,115,14,-1126,-4141,1581
-13,12,85,714,-1167,1028
-121,53,10,1285,-281,389
31,62,-61,876,-790,511
77,70,-61,-143,-642,1046
-121,89,-53,-823,-283,946
-88,105,-43,-1002,-432,591
-49,102,-33,-264,-53,-467
-123,-90,-49,-318,802,-2899
13,-47,-40,1234,2229,-6015
49,98,-31,3071,3010,-7525
-60,37,-6,2835,1468,-7026
-68,96,-74,2073,-1065,-3919
-97,-61,109,1944,-2581,-1905
-40,-22,98,2767,-2545,-1139
-102,23,-77,1499,-1198,-866
-82,11,8,-2,484,-16
-70,-44,-14,152,2131,1687
-28,-96,-67,1468,2669,3120
-37,74,-103,2456,3088,5354
40,16,-42,2803,3179,7640
2,111,82,2545,5184,7577
48,93,0,2630,2773,4200
-41,52,109,1192,-2888,1689
-123,-118,-97,827,-6814,196
13,86,84,1556,-3474,210
