AccX,AccY,AccZ,GyroX,GyroY,GyroZ
-83,-19,-42,-5129,-2223,285
-31,105,-45,-3605,-796,1085
-51,115,-82,-430,1056,836
-82,106,-122,2808,2400,39
-110,-108,-74,-424,1718,-558
-117,-65,-43,-4729,562,-1240
-55,-83,84,-2640,884,-681
-72,-128,64,421,1263,-358
106,114,80,253,904,-762
68,105,74,-274,234,-945
-116,-105,118,-1103,-1141,-658
85,-80,-82,-1507,-2353,-687
-46,127,33,-1745,-2987,-1373
126,-103,-105,-3341,-943,-1773
-13,-123,-117,-3444,2009,-2257
-63,30,35,-101,3479,-2742
39,-55,-11,2364,1873,-2777
-44,-110,56,-1536,-192,-2932
-118,27,-20,-1989,-842,-1416
73,-52,-81,-213,-875,-130
23,-56,-71,689,-1088,508
6,20,5,-141,-1860,952
124,117,47,-492,-2255,1369
105,30,112,1555,-2621,2760
94,-74,28,1,-3622,2583
35,-89,77,-2607,-2780,1173
77,73,44,-369,-190,993
71,56,7,465,1568,512
42,-119,-39,-954,1788,380
43,-51,-117,-2503,1462,162
30,-66,91,-1820,1068,210
29,-86,60,-899,1157,-69
62,-88,35,-811,1716,-307
72,-74,-26,-959,2347,-853
104,-70,-107,552,2420,-1070
-35,118,124,3154,94,-1351
76,42,-7,561,-3089,-2886
-87,21,118,-5238,-2758,-4172
-98,-79,14,-2967,1505,-2087
121,21,3,-427,1847,-2457
18,-2,125,-4059,2637,-655
70,17,29,-3230,2879,-1054
99,-48,-112,2021,3733,-920
77,-99,67,2405,3536,-1833
117,-124,56,487,2802,-1943
118,62,45,-821,1424,-1583
79,1,4,-787,-74,-586
68,22,44,-418,-938,281
84,-22,35,630,-677,1039
-58,37,106,1493,-958,2577
95,86,-48,2482,-2217,3245
-67,-47,-63,19,-1552,1029
107,21,95,-484,972,1199
1,-127,-98,-836,-33,1761
-120,94,10,4232,23,2876
-37,-29,14,4046,-168,479
17,-67,-109,1165,-1024,492
88,-52,-56,-1066,-1309,1488
30,-91,-90,431,-1354,802
6,87,-109,3148,-559,315
64,112,83,198,-552,-673
-35,-31,86,-2328,-56,-270
-110,-57,46,-1289,-575,-88
-42,43,-128,14,1732,-1343
29,-95,115,-2570,3964,-2505
74,64,67,-2460,4283,-1052
-9,17,-51,2658,3330,-260
-83,-60,46,1722,2107,-1451
-92,-74,86,-273,1477,-1529
-81,-83,61,-1446,667,-942
-71,-110,18,-632,19,160
-36,123,-10,669,-244,1541
-28,127,42,1227,-1075,2939
-57,116,47,1307,-1124,3308
18,-108,85,1525,-1530,3758
-40,-66,-35,1499,-2656,3981
95,125,-59,2193,-1315,3233
0,124,-116,3084,1304,2468
-106,97,-107,4129,1960,1610
19,22,-74,4032,1569,1108
123,-92,79,-1273,-7287,391
102,-53,12,626,-2658,611
-11,-15,-62,1731,3485,-134
-103,118,120,-1107,5785,-1878
10,-61,-29,-1986,4680,-490
96,-67,35,150,2261,108
61,118,-15,259,1323,-1147
-115,-123,-25,-444,1479,-923
-34,-84,-75,-1104,1397,-405
-12,-90,106,-215,1253,-239
-16,-96,76,1605,1169,65
-53,126,-106,1737,486,-309
-46,88,-45,1404,-300,-229
-7,53,30,764,-1233,329
73,55,75,-60,-1823,1504
-37,-95,79,-62,-2029,2662
111,-15,-85,2758,-3448,3408
-117,32,-19,3560,-2898,2064
-87,124,-27,-165,962,289
83,-10,-112,-2864,2906,-54
-126,53,-119,1565,3126,1336
105,-89,-126,6437,1078,616
79,-103,-117,3286,-604,-480
-58,-92,-21,-2258,-976,-770
34,99,-123,-1048,-609,128
27,-21,109,1670,-610,7
71,10,-33,2264,-620,50
104,75,-108,-2721,-1413,-300
3,-102,-67,-2591,327,894
24,50,-123,-1512,-374,1717
-61,16,111,-853,-949,829
-80,48,-93,-2040,2350,-850
-2,-45,116,-5483,3973,-1289
98,114,-52,-2428,3483,367
17,14,123,3277,2906,-303
1,-69,-76,3543,2366,-1765
36,-111,-2,2295,1361,-1880
72,111,86,12,-368,-1942
60,85,-114,-216,-2446,-1211
41,83,-38,-3369,-3907,-668
-121,0,-75,7571,-594,4763
58,-19,-79,717,-1762,2027
-114,-85,49,-2476,-731,632
-34,30,-67,-2182,-1012,546
98,-95,-4,4266,752,543
-34,57,91,2272,-175,-388
19,33,-87,386,-723,-40
77,11,-64,237,-1094,612
121,-80,-31,2095,-293,760
-112,111,5,4466,1129,950
-123,-79,-68,-494,396,61
-66,-32,99,-1406,277,676
56,96,26,-1098,-42,1083
85,100,123,-233,-1054,1226
-32,57,-5,-1478,2755,-839
96,-63,-65,-3311,4294,-1214
-45,2,86,-729,3412,-1764
-63,-52,6,4063,2946,-1192
-87,-91,-115,1322,1303,-2760
-90,-90,71,1706,918,-2036
-103,-123,127,537,-364,-1732
117,82,-116,347,-1676,-1208
103,51,-98,-1348,-2958,-997
-79,21,113,-4,-2641,1313
69,109,98,-586,-2374,2452
-63,10,99,487,-6912,3264
77,80,37,-239,-5433,1548
-101,-117,58,3531,3268,297
-73,28,-104,-371,6455,-3461
51,84,-66,13288,5814,6009
-19,84,-13,3417,2123,1017
53,-102,10,-3865,-101,-313
113,6,-86,472,-1778,2358
-4,-124,-89,-6774,-5215,315
-45,-40,114,-2846,-6239,-1403
-78,121,0,6204,62,-1022
81,19,-12,-1741,303,529
9,-40,-102,-3593,483,966
-41,115,-27,-2054,-211,-826
-8,76,76,-1488,2210,-1024
-15,-19,39,-3689,2933,-789
125,-68,42,-4080,771,422
88,-66,-38,33,1203,1278
93,-103,-72,1279,3142,263
57,99,-114,2582,4185,-700
81,59,-34,2241,2847,-1239
114,29,67,241,684,-1492
-126,34,77,-1928,-1282,-1278
-109,0,23,-76,-1858,-604
-107,-35,86,-441,-3137,519
-114,81,95,3551,-4628,1983
-44,41,-19,-1235,-3376,-77
-121,18,-80,-2202,53,1342
-14,90,-103,-1810,-411,772
63,32,50,1924,-563,212
-19,24,116,806,-1538,-332
23,87,-60,-1884,-2140,65
11,106,-37,-2168,-2163,106
-3,15,-71,232,-667,42
48,16,-68,1122,1096,-328
113,115,-15,-1756,1042,-707
13,3,-53,-2401,539,-465
-104,-23,-95,382,-840,61
-16,-91,-113,-2575,-209,-855
-98,56,79,-5285,1642,-959
-66,-100,97,-3986,759,32
-94,98,91,-135,1204,552
-85,58,73,1593,2807,147
-114,65,33,1086,2852,-456
-68,27,-23,1162,2581,-789
-32,-20,-22,1021,1297,-645
-36,-53,19,603,-805,-323
-26,-94,-127,-397,-3033,-186
66,-64,-87,-1781,-3564,486
-56,78,-96,2031,-3691,1691
107,-86,-35,3297,-2610,1050
-103,6,27,-861,67,331
119,97,-67,-1828,1306,1237
68,-108,120,-489,399,1292
33,-116,97,1880,-760,1035
-79,-85,-32,-4269,1706,-1942
-90,100,-112,-2880,3062,177
56,39,93,864,2632,-486
-93,120,59,3398,1835,-1830
90,65,91,2030,-762,-2150
28,17,-118,-3489,-820,-1709
-69,-20,71,-3553,-767,-1431
-54,-22,-109,-3856,-920,-1556
34,-34,-107,-772,-155,-583
-46,-99,-47,1534,713,146
-99,-24,-94,2843,417,1605
-42,-18,3,1457,-2114,1062
-102,-78,2,1436,-2499,1089
-121,-32,-27,2800,-673,1374
-10,36,70,-14,-880,-502
-88,62,100,-1833,-859,-1212
-43,-4,-37,-2300,579,-1528
-36,-94,-27,-2384,-484,81
-118,12,-117,-5220,-1768,-688
-64,115,92,-3402,989,-2020
114,115,-53,1208,2148,-1702
-37,-100,-102,1948,685,-2022
-74,77,122,85,24,-1243
-89,36,84,-933,447,-546
6,124,-114,-3752,676,-1700
-76,-74,35,-3539,3736,-1257
74,17,-65,5940,4026,4018
-47,19,27,12460,648,6274
32,104,-50,-8346,-808,-1810
-2,-2,29,6491,433,4819
12,50,-69,604,1085,1141
38,70,-99,-340,201,-1195
-116,-58,-125,-2154,-2846,-2828
50,33,-60,4161,1123,1483
-2,12,23,3317,970,812
-45,-46,64,2826,876,556
-53,-81,121,1508,91,392
9,-108,125,1509,67,274
116,-71,-48,2163,-423,864
27,-83,-3,1138,-507,323
58,52,126,-6745,-3865,-2968
18,79,-108,-5236,-1748,-1714
113,-58,-109,2617,3013,470
-78,-25,-68,7936,1807,2078
3,-15,-45,-5724,-1197,-1165
110,-37,-75,1264,666,1768
37,14,-123,2579,1089,2448
-52,110,-95,2337,135,2381
-15,122,-72,754,124,2053
94,-95,96,1781,907,2510
123,-87,38,2996,1229,2384
122,-126,28,3064,858,1809
-10,79,51,2246,857,1502
-25,15,84,1583,305,1815
-9,-58,2,2205,1146,2066
-40,4,56,3099,277,3105
50,-1,-116,676,-1058,1866
31,-77,76,2401,-40,1584
47,-121,-119,3251,552,1115
12,90,-41,3068,55,635
-3,29,56,2246,-762,502
28,-28,-85,279,-1454,124
106,-50,-97,37,-1143,301
-110,-93,120,929,-164,458
-111,125,-113,1666,403,100
-66,-112,-103,1269,640,204
-38,-1,-106,1866,-516,-144
73,-83,-38,-731,-322,-1265
47,-37,75,455,2298,-63
-89,-13,-29,1110,2562,-362
51,13,50,1142,551,-406
80,36,50,75,376,-344
47,-52,-54,1149,788,-459
-33,25,72,-1629,489,-987
-128,-13,32,-1661,1044,1083
-115,96,-124,180,1995,2469
94,18,24,5506,3313,2503
95,106,40,5561,691,129
-80,97,80,-2458,-57,257
20,46,-3,-1607,3067,1958
-121,64,43,4656,3370,4394
104,48,100,8358,763,5278
-22,102,-7,-3589,-2031,1228
91,18,-82,3144,269,2203
76,-4,-20,2470,1732,918
70,99,-14,590,1582,1157
106,67,-84,692,554,1426
-45,-94,-36,2022,-496,2689
88,-17,42,648,-1684,2279
-41,-104,-13,1018,-1120,802
-25,-113,22,1106,-1099,831
0,-66,-91,-587,-1981,639
78,-101,-119,-1110,-1362,509
-125,113,89,-357,-73,419
43,65,-6,2164,688,62
-109,93,104,436,-1445,-768
-32,85,-121,-3922,-1393,-1367
-60,65,1,-4722,-215,-8
-22,85,94,-2535,1254,893
-22,-96,-19,-360,2284,662
-35,34,1,-50,1642,-228
-17,57,-24,-1640,997,-1166
21,56,-85,-3167,713,-1461
19,49,52,-2997,-38,-1296
-5,53,40,-2461,-607,-816
-47,79,69,-2503,-1208,-484
13,-85,45,-2816,87,58
-16,-46,76,-2676,865,-1215
38,-84,18,1013,1935,-1930
113,126,108,1060,1268,-3501
-72,-121,-15,-2024,-944,-4634
14,40,-25,-1994,-623,-4446
-48,118,-110,697,243,-3315
66,30,-88,1049,15,-2331
-98,-15,-64,-591,-366,-2150
110,9,119,52,-148,-1171
57,85,116,-539,567,-897
69,16,-109,983,-230,-691
102,69,-58,-38,472,-1173
-40,11,20,20,-558,-371
-54,94,-82,5952,1552,6425
119,58,76,-805,-810,1379
-60,-99,-72,-773,58,853
-89,-115,-31,2468,1766,2398
17,71,-94,1343,1290,1191
-64,-21,-109,-201,835,46
121,103,-101,1785,719,825
59,-102,-70,-5075,478,-2827
-43,-90,73,-1030,3101,-683
-120,100,109,2763,4093,932
76,-109,51,8858,2259,1565
33,-38,-9,-5027,-633,-3642
-86,-35,81,-2070,-102,-1225
12,-124,-45,3640,3676,3328
17,-44,-14,4357,4796,7148
-83,-114,50,-8645,388,1617
-72,29,55,3976,1814,3640
73,-116,-62,-1817,2844,2581
-32,62,90,-2151,1624,1954
-31,-123,-43,859,1626,1792
9,119,11,189,2154,1453
63,-77,23,659,1420,3041
26,-76,68,-900,367,2865
-1,96,57,2219,809,1477
-5,-93,99,-197,-994,822
-4,-62,-87,-404,-861,519
-37,35,37,1652,-621,1417
-110,62,109,-360,-878,932
-34,110,96,-901,-496,1201
91,-103,-120,-1061,797,1176
62,43,24,2358,1679,2973
-69,114,4,1052,326,1478
-14,29,-55,2452,645,1643
-24,-77,-72,1532,325,1111
-118,-53,-27,-80,-325,850
64,-73,-74,230,-114,-297
72,-105,-93,-563,-668,-1198
51,-4,75,-2054,-100,-905
-125,-102,-5,-4898,-1784,-891
-62,-100,72,864,1368,-706
-23,12,123,-3131,-3216,-3541
30,-64,28,-688,-2008,-3192
2,-93,92,-1435,-2406,-3840
45,-102,66,-1463,-2094,-3160
40,-118,121,-2203,-2205,-2998
50,80,89,-1544,-1028,-1831
-7,65,95,-100,-1259,-538
-72,68,-53,-1182,-1636,-165
-68,63,-93,1345,-812,1113
104,92,-12,1592,-1274,932
54,-88,-105,-785,-2190,1096
7,-90,-71,-1565,-1769,104
40,115,-109,-587,-667,189
43,91,122,316,-285,178
35,88,85,333,-37,210
47,122,74,-504,-117,145
85,114,-1,-417,-14,133
117,94,-18,-384,26,117
-119,58,-69,-104,229,305
-80,69,-67,-661,-481,31
-25,52,-63,-313,-698,325
-31,37,-37,-136,-605,175
40,36,-30,76,-249,58
66,34,25,81,-1199,425
-42,38,83,-177,-2108,367
83,22,-91,-959,-1700,-197
106,48,-117,-1088,-508,293
95,102,101,-718,-309,263
9,-126,13,249,-7,-175
-57,-117,26,-1080,-875,-1320
-91,36,-68,-4206,-2128,-1125
69,-59,-83,-4968,487,79
94,59,-75,-1137,4681,-550
-36,-29,35,3098,4152,-1606
112,94,42,2628,1603,-1847
103,14,0,906,1325,-1051
71,-80,0,-1616,299,-1414
-71,-95,-33,-1144,841,-583
101,-9,-126,-692,1856,566
119,88,64,2247,-963,2451
44,107,42,-2304,-4629,2082
90,41,-45,2547,-4756,2467
20,-29,-60,3422,-2646,2249
40,69,-126,1142,-2635,1123
-72,88,-18,-428,-3640,456
-42,-95,35,-3785,-2002,307
-22,26,-112,-4758,1966,836
54,-123,-80,-3692,2901,1404
-71,67,109,983,8574,854
70,-26,46,10851,11069,-964
-76,119,11,11250,1319,-2255
35,-77,53,-8677,-4648,-4505
-122,6,10,-7634,-2650,-3253
-105,-20,-118,-4406,-563,-740
62,-74,111,-1322,2400,1760
59,-65,-49,7223,302,6175
-117,-69,121,3162,-5492,4266
-16,61,-22,-2960,-5173,760
-23,-13,-29,2636,-682,2708
-91,18,108,2545,-562,2341
13,40,-36,2542,-1949,1524
-12,19,3,2535,-2389,1132
32,34,-64,332,-3860,481
-49,89,-3,-1451,-2368,663
31,-36,-52,-1206,291,-669
47,113,-46,-954,4463,-2598
-86,102,-45,-4604,4873,-1494
-32,-107,-127,-2096,3407,-526
-46,52,-16,2062,4612,-1968
33,70,89,-284,3981,-2469
44,19,65,-219,2354,-1822
15,-40,38,-476,1282,-853
-3,-62,20,-224,547,472
18,-82,26,996,-146,1599
58,-98,31,4021,83,3700
-62,-64,43,6225,776,3981
-62,-108,95,894,1698,2382
26,-39,13,-1890,1112,1684
-116,3,90,2413,2639,758
-44,-35,123,3030,790,803
52,25,60,-995,-2079,-4206
52,-102,40,2103,-998,-3796
69,60,-106,-1257,-1067,-2416
8,124,-37,-1420,-956,-1354
-30,40,116,-796,-952,289
-68,92,103,-989,-412,2036
-34,-56,-105,-500,625,3794
-36,-72,-33,345,1928,4420
-21,-33,34,500,734,2599
54,-56,66,1532,319,990
91,34,-15,1368,4,425
-4,-105,-68,-780,-203,-386
-22,46,101,-1131,580,-1084
34,25,-42,-507,929,-2196
-124,-73,-122,-361,445,-3318
-101,98,19,-1522,-2725,-2471
62,38,-99,-1525,-1456,-4359
98,59,76,3903,1046,-3044
76,91,-122,2197,-1120,-1740
21,-24,-116,-1826,-2939,-790
26,102,-15,-2046,-2504,1539
45,-48,-14,665,-1039,3342
84,103,-95,47,-194,2986
37,67,-116,3029,122,3576
-122,105,106,-1110,-908,1696
-83,-70,-8,2959,-378,528
-42,-10,-84,395,-229,425
-92,-42,75,-1148,827,-307
-91,-54,-39,-1333,822,-1454
30,51,73,-1653,752,-2650
-90,-75,-95,-2813,-1474,-1832
106,-112,-104,-3955,-1119,-3887
-61,-5,-106,3338,1672,-2656
50,-27,-51,2004,58,-3156
28,95,117,494,-1362,-1592
35,-49,35,-2245,-1104,-1212
65,-63,-11,-879,-246,328
95,-125,39,1866,-361,2968
123,103,-85,2725,-65,5157
1,-121,31,-157,-3418,3597
-57,64,-88,-3871,2991,-3176
2,-119,20,186,3696,-1191
57,-27,97,3534,2933,154
38,-93,-1,699,1241,-985
-41,-79,23,-2230,1063,-622
119,126,-123,-1378,1830,1263
-36,127,84,-629,2004,3348
-67,-79,-1,2187,1978,5793
-7,-121,-121,2004,843,6170
8,-97,-28,2523,-1315,6560
83,33,-5,4214,-3110,7619
80,10,18,-493,-1064,2517
-126,-26,87,1232,1412,1521
58,-28,-127,2405,264,3494
61,-43,-114,2468,151,2474
-1,-125,98,2492,663,593
44,97,126,1995,298,919
11,47,-91,2114,-310,912
7,10,-24,1443,-1039,-381
89,-13,63,1198,-2006,-671
-33,-36,-59,-1150,-2898,-1086
-104,-48,124,-479,-908,292
41,107,8,714,1160,-152
-83,84,-35,2279,1289,-1303
-44,-113,25,437,67,-700
-3,-90,-37,-1156,87,-237
-24,110,63,-794,-82,-317
13,98,6,739,916,420
7,48,11,-1611,-2266,296
-16,10,-125,4197,-1736,3200
-73,-117,-113,-5298,-2418,-500
24,-87,-88,784,-268,1262
31,-118,-7,194,1729,-215
47,-27,-14,2350,2861,9
89,-45,41,779,1612,953
87,107,90,2797,1040,2227
-72,-73,-52,1890,-1215,76
-24,75,94,-3878,-1237,-1587
60,-91,99,-3232,3110,-494
123,-8,-72,-2601,3251,-1214
93,-12,61,3275,3506,-737
63,-11,-42,1489,2643,-2058
-123,16,32,-1817,1467,-2192
-96,-34,-90,-551,509,-1313
92,-94,-115,1451,516,-666
9,-46,-21,1987,-312,-336
-19,85,85,-692,-1467,-1213
69,97,-114,-1797,-882,-1361
-92,46,123,-446,-528,-1448
126,-1,72,-791,-587,-3307
-34,-17,-11,-658,-532,-2492
-57,-40,-52,-1173,-630,-2937
-46,-117,101,-7,-130,-2241
-97,116,110,-597,-524,-1971
-118,93,84,-170,-456,-1663
110,47,-128,-285,-648,-1002
48,-12,-93,-22,-841,-549
13,-72,-11,-612,-1142,-322
38,-120,59,-455,-368,794
111,-117,35,1658,361,2046
-28,37,125,1491,176,2401
-39,111,108,-603,-65,1521
-48,25,22,-1186,-1159,1216
-51,-43,-104,975,-1023,2013
-88,-89,-112,769,-941,2125
-122,-76,-126,787,-1131,2147
-100,-65,-119,416,-790,1853
-92,-40,-117,1271,-492,2086
91,-49,-103,1520,-545,1404
36,-96,-60,1231,-540,870
27,-125,-41,795,-630,693
5,97,-51,1709,-535,698
-32,115,45,1189,-1052,454
56,-29,121,-808,-1221,48
25,45,-40,-2357,-1454,-1193
-33,-8,45,-802,2315,-1978
124,-36,-29,-553,3371,-2492
127,-52,86,1468,2912,-2080
-124,-53,-62,-922,825,-2621
118,-57,-116,-1883,209,-2071
-14,-10,-98,1995,-2133,5838
19,22,10,-843,-2774,3673
59,-26,-89,868,-2203,2186
41,-9,-31,1580,-1782,2794
120,-95,-108,4114,234,1919
-10,66,-68,3826,982,181
-27,50,88,2441,296,506
-56,21,-47,911,52,39
-36,-21,-42,1095,692,29
-102,30,39,-440,-653,-721
-38,111,46,-2760,-1432,-1335
-34,-9,-41,-3598,-1973,-959
53,13,27,-2766,184,-1019
-97,51,-117,-2288,3542,-1890
-124,-97,110,-1720,2810,-2066
-108,-87,95,-1578,2584,-2454
-55,-118,55,-876,2672,-2409
38,119,83,-1048,2413,-1672
-4,67,47,-36,2046,-1290
-4,7,67,814,1108,-792
-35,-64,93,631,-569,71
2,-121,70,1092,-1678,1665
61,-96,94,1767,-3062,3930
-18,-16,16,952,-5810,4474
-18,86,100,59,-6003,3201
92,-40,-57,-452,-2099,740
10,104,-26,5966,2067,1861
-120,-66,53,8099,1952,2988
13,-13,54,3779,-342,2989
113,-34,-20,-2258,-2765,1466
80,125,-113,-938,-3185,588
-120,34,13,-170,-2838,-597
40,48,-58,214,1182,-1345
-46,86,-107,-1039,3276,-1873
-108,61,51,-2200,2570,-2593
72,-104,-86,-3227,2864,-2811
10,34,-110,-4155,2263,-2253
58,49,-28,-1001,3217,-1980
56,13,1,368,3586,-2346
48,4,77,134,2696,-2217
53,-14,91,2814,-3392,5255
-48,52,74,244,-5445,4215
20,64,-75,1129,-1968,3221
78,-15,71,3904,548,3266
74,-35,6,7884,2031,3141
-20,-6,0,3404,364,1928
-59,-24,70,-986,-611,1020
78,71,34,24,-2460,399
102,10,125,1906,-3109,585
-106,51,61,-1624,-3269,-344
81,90,-46,-1215,191,-949
-118,39,-97,-1824,2256,-2177
-34,96,39,-3718,2896,-2819
-52,38,117,-4172,2935,-2379
-37,1,35,-2091,2670,-2848
18,-43,-20,1543,3289,-2908
74,-5,112,-1149,2406,-3096
89,28,110,-1608,1599,-2261
18,-110,-26,-1177,1926,-1727
22,72,-96,3191,2006,660
-17,83,43,1620,208,1492
59,-81,-100,-994,-1666,2862
-91,-53,-116,-1127,-4251,3751
43,-88,105,-426,-5075,2584
25,100,-87,1022,-3309,3336
73,56,-114,2025,-1034,2345
-114,-78,43,5696,529,957
30,-94,26,3756,-848,1277
-64,-116,69,-514,-1127,1135
-66,109,42,-619,-1554,80
71,59,-92,477,-1759,184
-85,37,31,426,2847,-359
-3,0,82,1063,6428,-2760
-118,-81,-58,6788,7195,-1974
106,-20,-99,5119,2279,-2051
10,-26,99,-7231,920,-3881
-13,33,-54,-3424,362,738
1,-74,-59,-3136,-1875,976
-25,25,-25,1555,740,898
-65,-101,22,3826,1353,1575
-104,-50,-128,4510,145,4582
59,96,78,-3,-883,4567
-45,-88,14,1311,-1283,4562
-107,6,120,3400,-1630,4678
45,-41,125,4462,-124,2431
121,-78,-38,4529,621,-646
-79,47,-25,1335,709,-1147
54,58,46,-2746,1875,-993
12,-77,-41,-5458,53,-1355
21,69,-87,-1169,1560,-2352
15,54,-18,6180,1487,165
-105,87,-15,81,87,-1822
122,-18,-125,-1788,-715,-1929
-108,106,-19,-576,-930,-1058
-91,91,-37,-341,-823,-521
-16,-88,5,721,-253,587
-37,42,125,-810,-905,437
-88,6,-7,1419,-139,432
70,-32,64,748,-1423,115
47,13,111,-1841,-1936,30
63,44,-22,-2282,-2017,-282
87,114,-36,-1844,-2301,196
91,-61,-30,-2007,-2021,170
72,-37,-57,-2126,-1253,134
73,-69,119,-541,-130,625
48,-68,68,957,635,806
53,-19,107,164,102,677
76,35,126,-1020,-370,542
122,84,127,-1501,-484,266
-124,73,103,-789,256,-56
115,31,52,474,1222,-552
-103,5,61,298,1585,-1140
-60,-10,58,111,1366,-1610
4,120,8,201,1438,-1851
31,11,-24,2919,185,-67
-68,46,-75,-1448,-2828,-241
-106,109,-101,-2269,-2972,-142
-93,-124,-121,-1868,-2331,263
-76,-86,-71,-930,-1478,1109
-123,-38,-64,-545,-434,1031
18,117,-82,-3032,2813,-2356
112,69,105,-2124,4502,-3498
-85,2,41,2075,4745,-3462
-112,-39,-103,4,2035,-4065
121,114,63,-374,1466,-2875
46,-24,-7,342,870,-1374
22,-95,-23,1056,518,546
21,-93,9,-211,244,2455
-71,14,14,-1128,138,4233
126,-4,85,3606,-1893,7630
-58,88,26,27,-3155,2969
-105,-35,-53,-510,-673,2347
-107,-36,-103,1656,216,3423
-51,55,22,6914,1355,2728
-44,-97,-93,5411,181,600
-56,52,23,1609,-610,223
-48,12,28,266,-397,987
126,-40,100,-1008,-1124,1370
34,-19,-48,-3331,-2624,-1391
25,-127,40,-582,1002,-2065
-107,-46,-94,1501,4183,-2186
85,-82,-116,1839,3309,-2475
108,-49,-7,-518,955,-2019
-85,-25,-83,-1768,174,-1008
-88,-63,76,-792,102,-280
12,-34,54,754,41,1419
-28,51,-80,783,-1053,2291
-5,-108,-25,1056,164,2754
-29,85,98,2504,729,2
59,84,23,3626,-1204,37
51,77,-115,16098,3390,94
30,-8,29,-5606,-4579,-1586
-57,-50,-4,-4671,395,-1123
68,114,37,-5319,1420,-449
-52,-78,-80,-1502,1860,1269
49,23,117,6246,2247,5336
-28,92,75,2834,2506,4971
85,84,76,5876,1553,5798
-20,-101,-15,1678,-3077,4068
126,35,-107,-1417,-1682,4253
-50,0,120,-1671,-1601,4923
41,4,39,3285,-699,5676
127,29,70,8563,-440,479
103,-18,-67,6211,-1654,-1767
-32,0,-39,-3448,-2357,-1183
55,-7,-3,-1603,395,-199
25,82,-67,3169,1154,-1164
-92,-54,30,4151,1609,-395
-59,-18,12,-1512,-566,486
-99,42,114,-1759,-1448,-947
25,123,103,3425,1314,-625
69,-86,38,-804,581,-1816
-23,-63,-60,-1115,645,-1357
38,-85,118,2827,1725,1052
-102,-77,-53,2631,181,703
-63,75,38,-678,563,-9
115,-118,-53,-310,1472,164
-5,116,111,2324,1523,461
-94,81,-67,1883,471,-763
27,103,46,-2745,93,-2146
-50,78,-123,-2113,1412,-1657
-58,21,69,428,946,-961
118,-17,-16,-3003,-618,-1391
-14,-65,-87,1490,-702,2922
-46,-14,-4,-308,968,45
19,-121,-94,350,1548,704
-45,27,32,3611,1751,1759
67,-28,-124,5599,1369,1805
-9,23,54,4022,915,646
-66,-112,21,-1936,-885,-611
-14,119,-114,-2306,-894,-914
-9,-106,44,-1719,-426,-145
-8,51,58,-4177,-1384,-479
121,75,-98,-2476,-431,-451
109,31,109,-1907,-287,-875
25,-69,16,409,528,-1017
-43,126,53,343,-36,-1433
-17,-109,106,-1288,-927,-936
40,-112,85,-1347,-691,122
-30,-31,62,-2367,159,938
-4,59,0,-7029,-247,-1307
83,93,29,-15971,-6514,-4572
-25,56,-88,19529,8016,3645
26,-124,88,23952,-1746,6133
-2,121,123,31313,-5214,-11505
-76,-49,0,17773,4459,6034
65,78,18,15211,584,4343
-87,-44,-111,-14948,-4096,-5842
52,-43,-26,5252,-197,1855
-8,115,-11,-636,-2151,-4
-29,-40,10,-1155,-2032,-22
-40,-95,50,-1523,-1938,-97
-10,122,-22,-351,-476,568
0,123,-27,-629,-327,417
50,-109,-76,-19,88,748
85,-70,112,791,434,1124
124,-35,-102,268,-515,1340
99,-24,-71,-470,-1044,1239
-108,-43,-102,-16,161,558
79,119,104,2022,1014,-250
32,56,87,1589,1105,-1015
-52,65,91,-153,914,-848
34,19,7,-609,-3817,654
-49,-13,51,-3935,-3983,-578
94,-41,-111,377,301,300
80,5,-90,-1208,2531,-863
47,69,-113,-1128,1660,-625
-9,127,-112,347,-452,264
-7,-89,-100,-271,-1314,-164
-121,-27,-52,-744,-1004,47
72,17,71,-1974,-1872,-248
-74,20,-28,-2026,837,-525
3,39,-20,-2312,2041,-720
-10,58,-108,639,2887,-620
-16,86,-64,-929,2987,-1819
38,87,-98,-726,3180,-1470
42,1,118,-1161,2343,-1564
51,-21,50,-736,2057,-861
-78,-66,62,-2956,2070,-471
52,35,-1,5735,1351,2103
108,-2,-104,4566,-921,2943
-69,17,89,-1607,-2348,1353
-37,124,-32,853,-302,1384
109,-117,117,84,491,744
63,56,-1,326,861,655
54,-40,-96,526,1313,35
80,-48,-125,369,1186,-848
79,83,-3,1757,-2721,-1019
29,18,-127,-7189,-2352,-4967
101,12,5,479,961,-2619
-60,0,-112,1060,1866,-2100
68,-29,62,1618,280,-1229
33,-104,109,-1677,-1166,-612
38,-117,0,-1183,68,1510
101,-97,-18,57,1038,3134
28,-60,100,-680,-221,7261
-121,125,109,1838,-2668,5940
95,-68,15,1596,-2777,-269
-86,119,-116,-835,-2392,123
98,-116,10,2012,-133,2581
-102,113,122,1100,360,1035
107,69,22,1464,1190,864
100,-72,42,-377,505,35
56,-55,-21,-3996,-1918,-1315
-52,-101,-37,-607,619,-1462
121,-11,-11,1709,4572,-1533
-34,-76,-85,1282,2752,-2090
-73,-120,-100,1346,1050,-1647
-20,86,-103,-1081,608,-986
24,69,105,-734,722,689
26,78,92,-738,756,2071
-2,115,43,-199,727,2900
1,-34,111,1038,-651,4454
-82,-56,-86,657,-1740,3757
-113,-126,103,3015,-1115,2883
11,127,33,3895,-3469,2389
-97,-5,-83,245,-4258,575
43,-53,1,1578,-766,2183
-69,-50,10,2536,1314,2551
48,-10,-25,4274,1623,1971
-110,24,-115,5431,36,1633
92,-15,65,1183,-984,-332
-76,-122,72,294,-276,-1269
57,1,5,1527,1864,-836
-28,26,69,1561,1507,-933
-70,38,76,-703,1369,-1299
90,-59,-4,-1537,1188,-224
90,40,25,-2342,369,-935
-52,28,-42,1427,1340,-287
123,-53,-63,816,1720,-1419
65,38,45,1465,1518,-1173
58,92,64,-904,21,-535
-124,-61,-8,-1857,-865,354
-37,-61,-85,1631,757,389
20,10,32,1363,706,535
58,34,86,332,516,532
48,-53,66,1485,173,1024
10,-49,-102,721,215,1368
-81,-37,-16,1555,838,579
31,52,53,-644,833,696
-96,-40,29,-677,1052,1429
-88,104,-80,2205,1931,354
-29,116,-43,-123,345,-1289
-5,3,58,-270,980,-2087
76,-31,11,627,1138,-2604
-40,-104,74,-1213,481,-4234
74,33,-82,3098,1025,-3483
25,-96,66,-1934,-3042,-5083
51,-2,61,825,-1322,-3500
-23,-50,46,2393,845,-2314
118,-18,-24,792,-1903,-1483
123,107,127,-526,-2587,-290
-117,74,-9,490,-996,2369
65,13,-92,-1121,-876,2486
96,29,-45,2312,1279,2721
-32,29,31,-2094,1011,2523
93,-46,25,1823,765,1455
-89,0,-37,2606,633,338
58,90,-109,-175,280,419
-32,-1,60,-577,581,-531
-90,-105,73,3291,-1868,5216
-3,18,17,-369,-2250,2683
95,-46,116,2602,-436,2162
108,109,-128,967,403,68
36,-128,115,-2332,-772,-175
33,112,27,-3202,-1482,-801
-96,108,-37,-3064,-1155,-1571
-71,-56,13,-3879,-517,-988
75,103,-98,-2955,1213,212
70,-124,37,1788,1903,-146
8,47,103,523,608,-795
-63,-73,-22,1821,1347,-60
51,97,22,64,-71,-1101
23,40,17,-97,-858,-1059
45,9,39,-383,-1327,-282
87,62,96,-80,-792,229
98,90,-41,-1065,-527,-618
84,97,-7,293,-906,187
-43,49,2,593,-1387,-230
-37,71,81,-2067,-1490,-734
9,123,59,-2129,-494,-614
35,108,-11,145,954,-252
9,-95,-38,622,1176,-463
-58,-2,-16,-838,602,-1549
-62,18,-39,-965,695,-2352
-66,33,-71,110,665,-2127
-99,103,-35,-641,208,-2547
-83,81,-44,308,592,-2474
-66,67,-44,27,861,-2840
-35,22,-53,722,1046,-2931
-32,34,-1,-783,394,-2791
42,-112,-36,876,338,-2276
84,42,-25,157,83,-862
121,-34,-68,-219,-46,136
-73,-91,113,1168,912,2022
124,-8,-59,144,-36,1732
-108,-74,69,-641,298,2094
42,66,-80,-49,-11,1560
-65,0,-108,875,1041,984
49,91,116,-821,463,32
-75,76,-98,2720,2252,3441
-86,-94,-106,-2881,7,1006
101,-19,-48,1784,463,251
67,-36,114,-256,1164,272
21,124,24,-1779,1218,-404
17,-8,-110,-540,1057,-1513
85,-120,126,-1772,864,-2776
87,-82,-29,1140,776,-2731
5,82,105,-5243,-2693,-2240
77,-90,-126,4708,759,-3229
-58,46,-69,3624,-450,-1737
-18,15,92,-316,-1356,-624
-27,-128,-22,-581,-749,315
16,109,-124,1143,-192,2102
-62,59,55,-1717,-388,2024
10,56,8,1984,1432,4324
48,-85,96,-2268,398,1759
25,-123,112,-53,-531,1898
-18,102,-32,1577,1263,1641
-128,-79,96,-452,1528,1403
68,-119,1,-898,1637,822
79,72,-58,446,2069,-80
47,84,-9,376,1216,-1785
64,-95,-28,1956,228,-1956
117,56,26,-3702,-1740,-2235
-40,-81,-26,1626,-3,-2213
47,39,-97,2466,-270,-1187
37,-37,-106,-1874,-1024,-613
76,91,-23,-1422,493,653
9,122,-86,-4249,758,454
-53,-71,-52,-1428,877,1935
-8,-98,-70,-541,2747,4394
18,47,21,-2062,1035,3028
-81,-124,18,-643,-267,1335
8,-9,-39,-1780,1270,1703
29,-108,85,-1146,1706,2126
-33,87,54,-2587,386,1836
29,-90,-62,-261,546,3080
-26,2,122,1600,759,2978
-115,3,71,494,-996,2276
4,-69,58,-2778,1523,2736
72,-31,-35,-2020,952,4673
-87,71,104,409,683,4647
28,-57,64,4014,-430,3876
-53,9,-87,1634,-3452,3434
-1,17,-89,2247,-1788,3666
-83,-118,26,3095,1354,3803
-4,-112,-96,1615,-191,4400
73,79,-35,213,-1955,2848
-108,64,96,-2734,-4989,1310
96,58,103,-3944,-6355,-517
-5,-122,49,2784,-2431,550
-93,-9,49,-2328,1465,-778
-106,88,-66,-3731,2688,-983
86,-12,-100,-3664,3887,-2273
98,-108,62,-3661,4424,-1546
-22,25,83,-3219,2845,-855
58,-43,49,-311,-3349,-970
-114,14,43,1014,-3565,1572
75,-38,84,2750,-5161,3535
-7,-115,90,2903,-4245,2802
-122,-17,-126,703,-1910,2304
23,-78,23,-371,-2712,3687
62,-28,-4,4335,-2657,4410
-5,88,-26,4618,-1592,1195
-107,75,-98,489,-2533,-767
-54,-70,66,288,-373,475
-92,85,110,171,334,-315
-31,-108,-109,-296,107,41
-94,116,-69,-4192,95,293
66,56,-106,-4835,457,494
125,-122,81,-3355,4066,-1769
-47,56,2,-5440,6923,-2122
110,28,21,-1959,5226,287
-9,-120,97,2169,2729,-1197
31,93,71,3315,3356,-2510
-6,52,80,186,3232,-3323
-22,22,76,-1166,2352,-3183
-97,-44,62,229,337,-2873
50,-73,-113,-42,-2192,-2888
-22,61,86,9225,-578,5654
41,-28,-26,5704,-3181,7989
118,51,-93,-9496,-6380,130
-119,-51,-118,-106,-3689,2275
14,97,-68,6029,-1814,4965
-65,103,-101,6804,-1080,2552
2,100,84,4253,-3250,1488
-125,-53,-31,-4241,-3365,89
-104,-10,114,-266,-737,426
-43,-3,-97,1483,908,57
9,12,-45,-2292,768,-480
-120,56,123,-3716,1350,-1728
-48,-103,-77,-4035,3294,-2131
-84,-48,9,916,-406,1633
-72,33,-4,1397,-561,2241
-56,119,-27,1712,-529,2355
-49,-49,-46,2455,-751,2319
-69,9,65,804,-2550,1633
120,15,-65,-1332,-4037,606
-126,120,-70,-288,-2578,243
-71,53,-85,2411,310,828
-91,122,-28,-1152,765,-346
-87,-87,-52,-2373,644,93
-69,-100,-120,-1560,386,175
-21,-76,113,-1773,822,163
35,22,81,-2504,1278,-21
79,97,18,-3239,1933,-413
-112,-76,-43,-1805,2287,-11
-101,124,8,-1617,-126,-1556
107,18,5,-2710,963,-1164
-94,-102,68,-5484,1085,-1911
-53,5,-35,-2099,3609,-2960
-18,-104,-91,1937,4592,-3168
-38,70,-128,2437,3419,-3605
-54,-8,110,1156,1690,-3895
116,116,-107,429,-785,-4055
102,-32,-87,7694,1922,2317
-86,63,-64,3131,1152,3645
43,-51,47,-450,-1028,5899
-90,121,116,-4222,-3925,4282
117,12,-29,573,-2712,3981
-4,3,50,3173,-873,4582
-4,-128,-22,4663,-21,1357
124,-28,101,4673,-29,-43
-81,-70,-87,3030,-1328,1533
-122,-96,94,517,-3496,2161
56,54,-38,-2001,-4920,680
-43,-13,-23,2072,-2961,964
57,8,-98,-341,-897,-87
-113,-116,-128,-3127,1927,-1001
34,70,-70,-4216,3241,-762
65,0,-22,-1871,-1891,-1873
94,-43,-37,-5942,-2850,-550
-73,-51,-72,5474,-1097,4249
-64,-44,18,6997,-1078,6664
-10,116,-32,3179,-2161,6160
-12,83,109,-2097,-3169,6598
16,82,-2,1108,-2787,8485
-45,-1,4,-5650,5451,-5890
107,5,9,2370,4554,-1728
19,-68,29,747,4239,-2436
-64,-104,65,-414,2825,-2710
-93,-126,96,-1411,1022,-3159
-80,98,53,-980,648,-2577
80,-18,35,-310,-760,-1306
64,-117,-25,1243,-1902,1808
95,-108,-63,3308,-2555,4965
-19,30,-108,3649,-4572,5681
10,49,69,-1467,-4764,2927
-37,-18,-38,-578,-2941,3075
-5,96,2,4480,-2740,4896
115,-1,36,7053,-1885,3289
109,-29,-42,1166,-2979,-578
-90,-50,110,-3604,-1361,-2518
-28,59,-27,4847,1225,1875
116,104,-62,786,-218,39
-18,53,-23,-1857,-516,641
103,9,6,-5196,-1064,-671
85,0,-9,-2549,1932,-2009
-85,-44,95,-3597,5202,-2733
-42,-22,62,-5239,4557,-1566
-6,119,88,-3387,1749,-376
-78,9,-6,1165,2615,-588
-56,-32,10,1601,3647,-1130
-80,-60,-7,947,3993,-1581
-97,-88,37,-90,2606,-2224
-116,115,22,570,1088,-2113
60,64,101,-344,-1645,-1744
53,-18,85,-786,-3274,-1234
89,-95,-14,1287,-3376,1752
3,115,73,3152,-4022,4124
66,-73,-128,2003,-3205,2654
-24,-101,34,897,-3645,3460
-88,9,57,1415,-3171,3844
113,-104,-26,4533,-1342,2620
-102,-124,66,3204,-1647,318
122,75,-86,-2354,-1743,-756
-82,-65,29,1383,355,368
-91,115,69,1940,852,-544
9,-36,-122,-343,1111,-1070
-34,94,90,-4109,1322,-2044
41,87,-16,-1361,1209,-1336
127,-63,-109,-2664,1781,-2530
-116,-119,54,-5411,3498,-2069
9,115,88,-4805,1607,-592
-70,124,55,-1131,1528,-235
-110,-6,-27,2142,4118,-1543
113,-53,-34,2017,4414,-2605
105,-114,34,1789,2730,-2816
83,92,-111,-472,-427,-2551
58,74,-102,-1971,-1933,-1769
72,-98,-6,31,-1440,44
-59,121,-118,4710,-213,3646
-22,75,5,7713,-1314,7423
-47,117,-110,1721,-3525,5386
-34,94,73,-7772,-3270,-382
13,102,-102,-441,1594,5910
116,-38,115,4363,-2838,4699
107,-52,-73,2109,-3040,-689
-113,48,80,-244,-4025,-529
66,-47,65,-1139,5031,-2441
-113,-67,-63,-9634,3678,-3535
-15,78,-72,-1502,3684,52
51,113,-19,3519,3356,-1347
-37,92,72,1401,2406,-2228
-77,80,-121,-1557,1248,-2560
-83,75,77,-1826,702,-1579
-112,14,35,-828,318,-587
109,-76,-6,1313,-404,1062
-55,-91,-5,1375,-1365,3187
-97,63,48,2532,-3027,6099
70,120,99,1918,-7155,6429
78,116,-119,-719,-6200,3856
12,16,-104,608,-686,4093
-86,104,61,7943,3015,1456
68,-56,9,8330,3283,-172
12,-32,-9,5362,1811,2702
-113,113,67,-2817,-19,1718
5,44,-36,-1236,-2593,1548
-68,72,77,447,-5199,1370
46,69,79,-2784,-6507,765
45,49,104,-5160,-2672,-3316
-6,116,113,123,5314,-2447
35,-95,45,-6239,6451,-3507
109,-33,-70,-9098,3478,-2249
-10,-14,-33,-480,3395,-1659
-7,118,33,2788,4503,-2836
3,-99,-100,-911,3976,-2898
-94,-114,-92,-2250,2775,-2496
73,88,-111,-2488,1721,-2191
26,33,48,-560,1938,-912
-64,-60,73,603,528,37
-24,-120,38,915,-836,2321
46,-54,28,3322,-2423,6525
-104,-73,-26,-231,-4852,5568
16,-75,92,742,-3709,4220
87,-41,-86,1316,-2927,5421
-52,-14,88,6130,-2338,8339
-24,121,123,9863,-1903,3049
47,-66,33,-1546,-2364,-4278
-92,117,38,-3052,-2576,-3594
81,74,-28,-1170,2382,-3999
17,95,-128,-6124,5944,-5095
112,101,-120,-2267,8655,-1323
12,-76,52,11847,2525,3129
-7,80,42,-1490,-287,-1874
-120,-124,68,-3166,-248,-1580
-119,84,-98,-2891,-106,518
-76,-112,-127,-743,-484,1925
-75,-108,94,68,385,2546
-102,-59,52,3068,1486,4165
61,1,-45,1243,384,3801
-106,-47,-18,1768,304,5799
-84,23,63,1620,-728,5531
-76,-98,15,4615,-1068,3039
-31,-71,-109,1207,-4768,370
46,97,108,-5964,-4240,-2971
43,41,24,2918,976,596
-33,13,76,4778,3912,385
117,-87,105,5397,3291,433
77,70,94,2088,207,1075
45,-9,110,-846,-1535,-95
91,-117,37,276,-1175,-306
-88,72,53,913,-477,-56
-68,93,31,1018,836,-241
-84,118,42,309,650,-599
-95,121,27,-403,-170,-555
-42,105,-45,-604,165,-443
-4,-127,-104,-754,337,-372
-11,-90,108,-741,-156,-143
17,-47,89,-1343,-418,-50
67,7,43,-1413,-186,216
51,46,-40,-688,371,411
34,64,-82,137,835,285
-59,62,-65,40,195,-46
-72,68,-103,-781,536,-593
16,65,98,-210,868,-460
35,46,58,931,762,-327
-9,7,109,1527,-290,-366
-6,-10,-62,819,-1350,-342
-21,60,-82,-6011,1842,-478
100,21,18,-3891,2064,802
57,-33,-48,1680,3261,813
63,-109,-63,3478,4326,-660
95,104,-41,2482,4249,-1691
-122,59,31,1002,2581,-1871
-114,10,127,-988,163,-1955
-112,-15,110,-1171,-1397,-952
124,-56,92,-1640,-2073,-404
-15,-111,-1,720,-1065,1450
65,-89,35,4694,-1718,4539
88,-128,-48,2792,-3284,3775
73,-102,-57,102,-1901,2271
-43,34,-86,-697,-643,2640
64,59,117,3574,-606,3725
-79,-88,-68,3225,-1349,520
-64,-120,56,-581,-2043,-652
2,77,-47,513,-291,882
-58,47,-13,411,107,112
-86,56,8,1577,-235,-389
-41,62,96,-851,-491,-1105
-104,112,55,-3137,227,-1573
74,-45,-40,-3250,923,-1414
80,45,-87,-1462,568,-876
-94,7,111,-2652,1114,-2187
-128,127,65,-4639,2774,-2397
115,53,75,-4926,2926,-1675
-113,70,-27,-8,3819,-83
-17,-56,-20,3381,3630,-711
-90,-108,51,1512,2677,-1744
119,104,-117,-672,499,-2227
83,80,119,-2355,-405,-1853
-20,-43,13,12,-1101,-642
-28,121,-35,1141,-880,1056
39,126,-94,2956,-648,3258
16,-95,-61,1582,-4005,5600
-103,5,-33,-995,-9416,4653
-9,55,5,-917,-6253,152
-61,83,43,5719,2565,2091
-60,100,-54,2560,3531,-788
83,-86,47,6396,3334,172
26,39,-42,2152,1267,187
17,-13,-47,189,240,1227
-64,-75,-40,-483,-1260,1090
-58,-44,-41,1190,-1902,1460
6,85,84,-1541,-2180,468
77,-47,74,-3104,-1499,-844
14,-33,0,-2003,818,-1834
-6,-104,-47,-1651,1641,-2149
1,-50,95,-3530,2833,-2190
-86,86,-16,-3097,3554,-2172
-64,95,-24,-381,2432,-1450
-56,-128,89,1289,357,-448
108,114,94,-1842,265,-1318
117,111,18,-1267,1292,-1179
-128,105,-22,-500,1693,-1137
112,39,-5,1208,1101,-719
66,-22,1,2007,73,248
29,-110,58,451,-1403,1254
58,121,88,629,-3186,2554
-77,-82,-103,871,-4154,3404
73,122,26,2575,-4312,4468
-5,-114,-84,754,-4861,3239
-82,72,-105,-2575,-3114,377
3,-101,112,1440,4281,-1096
91,-66,103,292,4733,-1453
46,-14,93,3949,2062,686
-28,-53,-2,-2117,-1733,-1112
62,-6,-80,-3297,-1660,-939
-86,23,64,-2336,-763,-597
-78,11,90,-2647,484,-1353
-80,55,41,-1213,833,-991
118,95,72,-2124,133,-1169
102,-117,67,-3328,1244,-1371
-69,-46,107,-2536,1672,-1229
-60,82,-51,-1165,-488,-677
-90,-99,-17,-2196,-291,-1424
-105,-51,28,-2592,-640,-1633
-103,-23,9,-2147,71,-1601
73,-74,-76,-1040,1062,-1759
-86,-14,16,-3260,2414,-3121
92,-45,-109,-5425,2377,-4055
-102,68,19,-168,4596,-4444
-1,-107,62,475,2883,-4511
73,80,103,-800,3215,-4662
0,-73,16,210,1607,-2380
-111,98,84,-968,-880,-1830
76,99,123,-1514,-1266,-1285
99,63,-116,-61,-829,58
72,78,-14,142,-1150,421
111,-117,24,1608,-926,2259
-98,20,93,1247,-601,2493
-60,7,-30,2117,-402,2968
-109,25,-43,418,-2039,2954
-21,109,-34,82,-3077,3048
87,83,-81,1131,-2428,2965
-121,124,-94,2922,-1487,3077
122,110,-103,3611,-1554,2745
-80,-61,65,2728,-2874,3903
42,12,28,-2365,-4260,2354
-106,-122,127,1073,-2055,867
-85,-27,-107,3624,425,-594
-68,43,-81,1458,1477,-397
-18,-96,-79,-2710,1332,-166
37,42,108,-4359,-231,32
122,-62,-16,-2684,134,-1565
12,-89,-85,-3854,2508,-2394
112,-83,-77,-6113,2973,-1478
-110,-15,-125,-3221,3197,-861
-109,116,42,1932,4829,-1729
120,7,-6,3706,4807,-2910
81,-61,21,2443,3013,-3224
32,126,-117,-938,144,-3588
-17,95,101,-2156,-1243,-3055
-38,1,63,-976,-1348,-2520
-74,90,-11,2796,-634,-144
-75,-65,-11,4705,-245,2162
-37,76,115,5023,-567,4554
118,-61,37,81,-1172,4222
-112,1,-64,-4576,-1490,2694
70,-69,68,4429,-499,3149
-60,-98,2,1447,-2351,949
-86,-110,62,-2542,-2807,-80
-102,-31,-56,1404,-1173,355
-88,107,8,3206,79,-158
-17,-71,59,1540,972,-108
-94,-120,95,-3592,939,-862
101,-114,30,-1517,-349,-949
-72,-54,-114,-1642,648,-2864
-72,59,-125,-5182,2263,-2769
-92,16,105,-5983,1821,-1597
-90,50,39,-2573,1693,-886
-125,-47,-22,2238,3362,-448
57,-111,-36,2360,3882,-1309
38,89,44,1335,2569,-2033
51,61,89,-1183,756,-2028
37,19,54,-1322,-274,-1103
-3,-55,-8,-29,-1118,433
22,-97,-21,1414,-1392,2099
-111,-36,-5,1766,-1803,3434
-95,104,-78,2949,-4547,4822
-12,43,67,-439,-6081,3041
96,-103,-42,-262,-2555,2533
-5,-16,-22,1167,29,1944
-20,-12,82,5439,1784,-1141
-51,107,59,5860,1780,-716
2,95,-25,2382,1116,1319
-57,69,37,-1943,-530,729
-34,27,-69,797,-424,1344
-9,-33,12,1306,147,1179
37,-35,56,-338,795,-848
-12,41,69,-1586,787,-789
-33,69,25,-300,-1,-774
99,-8,-81,-626,1468,-2690
71,93,101,-1788,2795,-3450
61,29,99,-1243,2000,-1585
-28,-13,85,277,996,-1416
-77,-55,30,873,1794,-1943
-110,-84,121,-634,956,-2550
-73,-71,115,-1110,348,-1629
