AccX,AccY,AccZ,GyroX,GyroY,GyroZ
-86,-36,49,2546,2269,-3463
12,-20,46,1031,4417,-4079
91,-52,-87,1181,3566,-4118
-89,-27,106,21,5090,-4063
72,-15,-120,-44,4099,-3751
-123,-88,-85,622,4298,-2222
38,-13,-76,15,2497,149
-25,-4,-59,3220,1686,-3302
-81,10,-115,1215,-629,-4938
62,29,-36,2997,-1777,-4092
39,70,16,1985,-1397,-4894
31,118,11,1805,476,-2501
-111,94,-20,543,-232,3094
124,81,-6,-2398,729,4738
4,-126,-25,-2865,673,4718
126,-50,-78,-2651,449,4550
38,46,-101,-431,1396,3694
62,118,-115,-2094,661,1386
17,16,73,1088,504,-286
-41,-106,21,1606,-314,-1280
-71,107,22,2385,-1504,-3121
-38,-38,-5,3926,-1234,-3721
-37,12,53,3068,-1991,-4371
-103,-40,60,2780,-1661,-3883
33,-73,-98,2195,-1678,-2760
-62,67,51,328,485,-1762
-80,-26,57,637,1095,2835
29,31,81,-2828,-70,4583
-18,-2,-65,-2495,-755,4958
-94,-118,4,-1742,-1099,3994
26,-105,-31,-466,-1665,2213
0,70,97,-101,-3522,2538
-52,-78,27,114,-4732,2673
2,40,114,-157,-6150,3415
105,8,109,-531,-7272,5011
-119,104,28,-1062,-4571,4381
12,37,-74,-1053,-3767,4539
106,-42,110,353,-2963,4925
-40,-82,48,-303,-1170,2919
-46,52,-101,-384,-802,228
79,28,102,1724,3350,-2990
-28,18,-17,1723,3411,-3850
124,-1,78,908,3786,-3924
-71,-40,-16,890,3592,-3801
-27,-22,-50,970,3815,-3682
-62,-29,0,1111,2890,-2789
-66,-90,-21,2750,3464,-3927
49,-115,104,1315,1151,-3346
23,-15,-32,694,-1696,-3779
-18,-14,13,300,-2451,-4662
-118,-107,115,381,-1869,-4136
124,92,84,3606,1428,1700
-11,61,57,-426,2177,3354
-113,8,-97,-612,1564,3512
28,85,0,-1919,1280,3732
-106,96,-85,-2007,1278,3470
0,42,-121,-1729,651,4155
-56,-24,113,716,632,892
-48,106,-57,2173,-489,-3425
111,-67,-36,1538,-2941,-5888
77,-17,-62,2403,-2211,-5368
29,12,-116,2308,-1726,-5045
95,57,38,898,-201,-967
101,-63,19,659,-87,3635
-71,-73,25,-1867,541,5039
62,55,-117,-2052,-1540,4296
120,104,84,-562,-2443,4304
117,37,-113,-1459,-5244,762
-76,-73,32,430,-6958,2271
84,119,-6,-222,-6517,4356
34,-8,44,-563,-7013,5567
-12,-89,-117,-409,-3134,5069
87,-94,100,89,-2093,3513
-75,-18,-40,440,-2198,4334
-48,-35,-111,-851,-2369,2384
-20,-7,125,540,-528,-1694
82,-93,-48,2112,3147,-2562
-77,83,-66,388,-651,530
8,-77,-15,-57,-699,388
92,-76,9,210,292,-151
-82,87,43,5338,-1239,-1562
-114,-10,92,2318,1794,-4488
-74,45,30,679,4178,-5773
118,19,50,1907,5005,-5384
-114,-34,-92,1047,5026,-4196
-41,-68,-1,838,2649,-4999
106,115,-82,-469,3630,-5472
-47,-47,51,1319,-3236,-6662
82,84,31,969,-1661,-4658
-86,-90,-21,350,-2687,-5190
-105,37,-115,2470,1493,2456
-43,-2,-116,-136,2158,4198
21,-19,-71,975,2327,5955
31,-76,16,-452,2437,4961
-111,65,-119,-744,2183,4631
-61,-16,60,-1786,1621,1705
44,65,-81,-90,219,-433
-6,-28,-67,2007,-1015,-4127
-123,51,-52,623,-1734,-4937
-48,10,90,1191,-2540,-5520
92,97,-90,559,-3296,-6260
-77,48,63,3292,-2489,-4157
121,8,-108,477,212,-2717
-12,15,-128,1850,1987,2236
94,4,-47,-1705,1143,4583
-115,16,112,-1508,886,6124
-81,-66,-39,-1930,85,5677
108,-23,32,-235,-1412,2810
-1,68,1,-2760,-5152,-1450
-104,61,-16,-109,-5802,1806
28,36,54,1454,-8567,5303
11,-18,-24,-1905,-8958,7751
-18,25,-47,-2793,-5753,5864
-118,-18,-16,41,-2697,1236
-111,-23,-109,1680,-803,1711
-30,-121,-103,-343,-33,881
-126,123,-12,720,-193,-129
61,62,-125,636,745,-440
34,-17,58,688,546,-504
40,-53,26,748,-202,89
-72,-41,106,1407,3028,-3524
97,-121,64,146,2174,-5262
-24,-42,32,-99,2143,-6256
-69,32,69,-710,3145,-7404
-22,-96,-46,-883,3409,-5849
84,2,115,265,5199,-2536
-111,-127,31,2726,4467,691
82,99,60,-287,2648,3637
-72,-63,-73,-1467,2743,1727
-113,-49,-32,-3327,915,3245
-113,82,-32,-2243,194,2125
-16,122,122,1158,1664,-572
85,24,102,1765,-2574,-5772
73,16,2,138,-3393,-6961
-74,41,-67,995,-1818,-5192
99,30,84,2938,-3114,-4038
111,6,-18,1299,-1185,-566
-123,-3,-29,550,2966,3849
75,85,33,-1146,1892,5836
-106,14,-67,-1540,2593,4767
68,-1,82,-793,2373,5592
-52,45,116,86,3135,1936
48,-67,122,-196,1015,888
-12,114,-126,1924,-316,-2155
-74,-17,80,1252,-3203,-3524
127,-16,12,838,-3838,-5068
0,-99,-89,1915,-4033,-4030
73,-95,-90,959,-3990,-594
-18,80,10,1455,-3201,4903
87,6,-31,753,-2867,3801
-94,20,19,-515,-4024,5442
127,-46,-114,-1576,-7328,7663
75,99,-88,207,-6922,5652
-29,-48,-119,583,-3933,4406
-88,83,105,-392,-3200,4691
-94,77,-108,1058,-2725,4824
-99,108,22,1332,-3203,706
-81,9,104,746,-76,-1953
103,47,8,1179,2556,-1984
1,-21,83,983,1115,-1365
-28,31,118,1079,4343,-3969
41,-3,67,3179,3900,-4809
-120,114,-14,1304,4679,-5915
-70,2,-13,-995,3575,-6717
113,-73,45,-2796,6196,-6217
81,108,-15,3501,-592,-6602
77,-7,32,1852,-1166,-5661
104,-120,-36,2506,-1200,-4813
-57,-32,-69,2432,1008,1229
43,12,76,103,2429,6313
110,-92,-96,-885,2213,5496
58,100,-30,-1416,1646,5649
97,45,-93,-1740,136,5137
84,6,-12,-870,1411,4366
-63,16,-7,1397,466,-1608
-128,-41,81,1106,-2024,-5680
-126,38,17,1777,-3087,-6680
-70,-87,34,1212,-3194,-8057
-73,-47,-76,2449,-2478,-6073
18,-89,-39,2178,2146,156
55,-53,8,-1102,882,4583
82,71,107,-1608,1499,6378
119,6,-53,-1930,855,5922
60,24,105,-2302,-673,3418
-28,-25,33,-2382,-2365,399
69,20,-121,-976,-3841,-416
-116,-28,-117,792,-4645,1555
-9,-73,-68,349,-5527,4005
105,56,-39,-1541,-5861,4032
-26,70,25,39,-3010,3896
25,59,9,232,-2923,5031
-109,17,-125,2156,-2457,4477
-128,-48,66,181,-2257,3373
-49,7,43,24,-2275,1427
112,-90,28,1250,-2655,-96
85,36,-34,449,902,-1056
63,-14,-117,349,1108,-1310
30,99,5,1251,522,-1358
53,89,-9,719,-101,-452
89,77,-28,805,-110,-721
-107,82,-97,-1420,3702,-4961
-9,-44,-81,-495,2520,-4984
-13,71,-59,197,2688,-4397
-115,82,-25,818,3250,-3390
20,124,-53,-196,7294,-2122
-5,-118,41,675,4251,-971
-4,25,-46,3243,-895,-5221
-118,36,90,263,-875,-7085
-114,75,26,1648,-2480,-5476
31,44,-95,1668,-1806,-4472
-120,53,101,1449,-1010,805
81,41,107,429,1937,2942
-1,-126,-120,299,565,4968
-36,24,70,-2042,1807,4360
-108,114,-48,790,913,7040
95,117,-33,-2582,978,5064
33,-87,122,-266,557,3166
-80,-26,77,1021,935,-1320
72,-66,-35,2586,-1328,-3667
-5,104,-117,2420,-1477,-5061
-18,-61,-87,613,-2725,-6326
77,-29,-83,1713,-3028,-7295
-122,-51,8,2466,-2228,-3566
48,75,-123,2242,-943,-2562
-110,-59,30,459,948,1968
-33,-8,22,-1672,616,4605
-77,-60,-83,-1792,520,5961
78,-53,42,-1223,488,6507
88,25,52,-1216,-262,2945
63,-77,12,-1104,-1857,-998
-73,-107,-46,-666,-4195,-1076
-22,-69,16,1055,-6085,1228
120,21,47,2351,-5514,3267
-115,81,-36,2103,-5441,5706
-20,-105,-52,-1844,-4785,4688
-62,127,84,-820,-5039,4586
17,-60,97,2117,-1720,3190
-42,21,-85,2417,-712,3264
-20,-99,-25,2770,-1478,1136
-115,-112,-61,1873,-290,46
-74,-80,-98,547,1989,-4580
-124,-125,106,-54,3682,-5202
-18,34,51,726,3528,-4873
35,22,6,1128,3474,-4520
41,-43,-48,1303,3867,-4236
-106,41,108,2313,1279,-1872
89,-29,-1,2467,595,-1542
-32,111,-87,-426,-1868,-3668
-63,-50,6,-2607,-3003,-5054
-8,47,60,-47,-2281,-4944
-109,-23,-32,-580,872,-4122
-108,41,-56,3601,874,22
-21,16,-3,-1115,4069,5657
33,58,-118,724,2706,5650
20,-107,-73,187,3484,5998
111,64,61,-1997,1764,5211
-75,95,64,-889,669,1954
68,45,-66,905,345,-1321
22,-50,99,2432,-1613,-5056
-108,16,-102,1153,-3446,-4910
6,-27,122,2652,-3557,-5953
-96,24,-4,1228,-3958,-5509
107,-115,-107,1638,-3409,-4791
8,-88,-82,1980,774,-449
-51,-24,-105,-1785,2068,2302
-113,3,105,-1518,1069,6838
21,-13,-29,-1735,2606,6710
-10,-3,37,-1082,1551,5899
94,37,-9,-1335,-389,2789
-20,104,47,-1425,-1838,-350
85,106,-1,-1523,-4269,-267
-119,28,-46,364,-6113,2576
-5,32,90,-279,-6628,5786
-28,-3,-59,433,-4706,4739
45,23,107,-425,-4104,5660
83,-118,72,700,-2072,4712
-58,61,-83,1155,-1145,4492
-123,-56,64,102,-2501,3077
-68,24,72,359,-1378,-338
104,29,3,1873,711,-2152
-104,45,-79,3211,1561,-2981
31,81,46,-733,3275,-3953
-82,-8,-49,-908,3996,-4762
-27,-115,-82,-2557,3630,-6233
-7,57,53,-311,5005,-3607
122,-79,52,3462,4608,-2036
-117,24,-90,-412,2634,-2323
56,1,-127,2066,592,-3602
-20,14,-122,1276,-774,-4259
109,-43,119,400,-3128,-4562
-66,1,-6,797,-2862,-3451
-34,-118,-27,1000,-1398,-229
126,76,-52,-710,52,2556
-97,45,-27,1816,3336,5141
117,120,46,1283,2058,6445
-56,62,126,-494,2678,4731
-112,103,80,190,2916,5034
-13,-84,-85,516,1574,5236
45,121,118,-799,1278,3269
-117,92,5,289,561,286
90,106,-103,1004,-589,-4166
-34,80,-14,1147,-1551,-4072
-33,-125,47,1193,-2097,-4795
-23,39,48,-472,-3223,-5672
-109,-57,123,932,-3263,-4861
-125,-100,31,1117,-4351,-4262
-8,126,-11,588,143,-1801
51,19,-72,2219,-142,1017
-27,-27,-93,1849,2726,4131
-99,47,7,-507,2451,3678
123,-42,61,472,2297,4960
-102,-60,-121,368,1251,3587
78,-93,21,-2252,889,1152
-36,113,28,-1864,-2234,-740
-94,-88,59,-1578,-3432,876
-3,42,106,1506,-5380,3524
-37,114,4,-767,-3614,4537
-128,-72,7,1025,-5725,5461
82,-117,-29,47,-1418,3779
38,108,20,15,-1557,3208
38,-50,-54,2429,-2997,2479
-43,92,38,-219,-141,5278
34,-28,-93,1168,-1188,2207
73,46,-99,55,-839,-714
74,49,-103,327,639,-834
40,-114,75,789,881,-14
-4,88,-21,1192,319,-49
50,120,-27,-457,204,211
80,100,-58,-377,-337,-495
119,56,-21,36,-641,-597
120,72,21,-20,-637,-637
61,83,39,-226,-372,-1084
57,28,36,-22,122,-1061
68,-27,13,265,615,-340
63,-45,-24,624,202,252
74,-10,-12,-394,-443,729
50,91,5,-1664,-845,630
30,118,-1,-1247,-1098,242
64,121,18,-107,-1173,758
99,-99,18,507,-381,1137
54,-12,-35,666,144,566
120,-38,-103,1019,665,669
-67,-44,-77,-33,948,891
126,-50,-107,166,-188,-258
105,-128,-99,850,-1214,-358
107,-98,-43,-212,-937,197
87,-72,-10,-829,-473,107
107,-69,20,-1049,-455,423
-119,-38,41,-762,-80,390
-88,-48,9,810,233,-26
-112,-64,-41,1570,-28,-511
-113,-101,-68,1323,-112,-459
-90,-128,-71,754,57,-279
-102,105,-91,719,-76,-190
123,75,-109,889,-322,75
110,84,-102,381,-323,496
120,107,-96,-163,-346,725
-112,-118,-85,-322,-373,909
-113,-89,-100,336,-595,947
-121,-57,-96,453,-747,620
18,17,39,1386,3304,-4153
117,-23,-117,-608,2633,-4205
103,-33,88,-1517,3044,-3717
50,-41,-59,-376,3515,-3280
-14,-1,-19,486,3643,-1816
64,-52,-86,2791,4218,-1108
52,-3,-22,1675,1670,-2525
-1,89,99,107,-185,-4589
-61,35,-112,131,-2150,-4968
45,-75,10,-1142,-2007,-5282
-29,49,-40,758,-2140,-3812
2,-75,7,1717,-478,181
43,50,92,2125,3150,3902
-99,73,-77,-288,2085,4475
4,-21,-126,-511,1966,3946
-67,106,-8,-464,2684,5352
116,99,90,1805,2112,7403
-93,-105,9,-3824,1731,4666
29,-36,-52,-2147,3218,-63
-5,-63,88,1155,414,-3871
-56,49,-99,2495,-987,-4516
-14,-57,93,999,-1680,-6426
60,-36,-121,-102,-2301,-7498
-4,67,-79,1470,-1759,-6206
-16,-30,25,2175,-2252,-5003
-90,55,-86,2406,-1842,-1598
71,71,74,-284,14,733
115,82,29,-209,530,5017
-17,107,-9,-1598,939,5200
-107,39,-66,95,1583,5444
98,10,-52,-162,637,5201
-113,108,-121,-196,-1055,3013
4,-85,-59,-608,-1327,1743
-20,114,35,-523,-3608,932
126,-51,8,1698,-5297,1338
-7,-113,30,704,-5104,3504
64,106,42,1362,-6177,6437
-75,117,122,-239,-3900,4144
98,-41,59,-419,-2021,4346
39,48,-27,2240,-1720,3086
83,10,-37,-2457,2241,-2613
46,-69,-85,191,1273,-3925
35,-74,13,-537,2453,-4999
-90,-82,51,-463,3532,-6921
-32,-93,-30,-658,2607,-6056
-83,-46,11,-897,1606,-5676
67,-68,115,-1082,3634,-2655
100,34,-108,1311,3989,1029
103,-71,-27,1619,4374,3431
113,80,-93,1113,3531,3732
0,-8,8,-1401,2143,2492
58,67,-56,-4016,973,2678
-77,-18,-16,359,1691,1915
95,102,17,2237,-55,-2858
68,17,59,1083,-2592,-5630
-83,-116,10,852,-3876,-6763
104,-100,97,1970,-5015,-5957
-128,-40,44,1301,-3970,-4787
25,-7,-31,3077,-642,-1767
103,-5,-105,208,1456,1499
103,10,-100,-1573,2364,5961
-95,111,62,-1362,3103,6018
-75,-119,-94,-99,3833,6952
103,-106,22,-171,3463,6399
-114,-36,-60,-320,3841,2822
111,-93,124,1012,260,-1032
44,-127,-63,1565,-2094,-4438
40,95,-74,1684,-3845,-4752
-72,70,13,3047,-5626,-4921
62,-94,-21,-796,-4212,-4328
-29,-71,45,2280,-3378,1646
31,48,-87,1665,-4450,3186
48,-29,-29,488,-3755,3201
-83,96,12,1497,-5141,3762
-19,38,-108,1983,-3774,4763
51,-57,13,2733,-1280,3988
-97,73,-34,3908,-3173,5246
-63,-3,21,-1084,-1359,5470
-40,51,-28,2538,-1086,3840
-82,-62,-126,498,-114,3165
6,-67,-115,-1122,2929,-5094
96,113,105,76,2432,-5071
-65,126,102,-298,2762,-5146
-14,3,122,-509,3185,-4977
19,-96,55,-1210,3208,-4070
-3,80,-71,-672,-437,-5228
15,4,99,-29,1296,-3886
-13,-119,39,1733,1732,1833
86,107,-56,1991,3472,4863
-23,76,41,1229,3706,4674
17,72,121,-543,2051,5044
-120,4,-122,-3807,3220,2480
66,68,-94,416,1213,1307
83,-32,72,1641,391,-3751
76,-34,26,568,-1762,-6061
57,111,-12,956,-2865,-6299
-44,19,75,360,-2898,-5431
78,-108,93,1527,-4172,-3546
-110,-29,-41,1871,-3365,-1747
-30,3,-54,816,-440,-1420
-117,10,-80,945,1679,2417
-26,115,41,-91,1207,4743
-64,-22,1,-1393,2207,3405
83,101,-91,-171,2825,5478
97,-82,-116,3783,3696,5771
83,-4,58,3527,6277,3546
13,-77,-37,-258,2775,-1249
13,36,8,-39,-508,-1031
-14,-57,106,809,-3403,-1831
-11,27,20,390,-5110,-3866
-85,127,79,-318,-6587,-5053
41,-64,-112,-1208,-4837,-4808
61,122,90,3997,-7358,-1372
46,-121,115,1532,1390,2165
-87,90,-56,3951,-1048,2276
110,-83,-37,3098,-1896,4070
46,-61,-15,1377,-2610,5498
110,-125,57,2298,-2401,6634
-13,-88,-101,2372,570,2354
28,74,89,906,-200,3938
-123,-124,28,1942,-1124,4809
-30,-87,18,1005,-770,2738
123,114,53,-1196,-431,2209
73,-34,57,-515,-166,1650
38,-107,49,405,-344,1805
122,-36,-127,-1405,819,1760
-124,5,122,-694,610,385
127,109,57,3052,-216,1007
61,121,40,2820,-167,704
7,-113,56,186,319,270
67,37,55,-117,648,603
84,-29,9,1527,-57,1129
36,28,20,1192,-633,948
18,104,57,-580,-40,483
9,29,40,81,30,459
41,-5,41,854,-334,983
68,38,57,636,-224,869
69,50,51,536,-280,560
75,41,60,154,-187,408
61,18,48,319,-96,379
46,-4,49,676,-220,428
83,-1,38,922,-49,329
87,-27,16,1265,-74,171
57,-29,4,705,-326,154
46,-38,10,334,-312,461
46,5,16,37,-428,428
52,34,21,370,-484,193
52,46,17,360,-611,11
71,72,33,-387,-699,118
-126,120,73,-1182,-314,-263
-95,83,43,94,-152,-401
-62,58,-20,1010,78,-537
29,30,-47,947,136,-418
1,19,-94,994,-134,-122
82,89,-114,353,-429,-441
59,63,-108,142,12,-453
63,21,-118,-50,-226,631
120,97,-80,-547,-211,1119
-92,-122,-80,208,9,707
-80,123,-105,990,-604,347
-27,-99,-115,2270,2749,-3359
-42,-61,-90,-1542,5076,-4347
-10,-56,-122,534,3953,-4155
83,-85,102,1389,4357,-3639
44,-1,96,486,4129,-3979
41,-124,35,2345,2454,-3244
119,67,-101,2002,507,-3770
6,55,55,512,-375,-4012
-81,104,-25,-362,-2709,-4699
48,24,-57,328,-2667,-4312
-48,75,-15,1125,1923,-2426
5,-23,-52,2145,2431,2755
-89,110,80,-240,2226,4389
-36,114,-21,-896,2516,5691
35,13,39,-838,4459,6195
41,-72,101,1020,1639,7388
-86,-111,99,-1641,2200,1887
-18,-84,-45,-720,176,-1827
112,80,-26,2118,-2537,-5461
69,116,-48,396,-2345,-5416
37,-92,73,1045,-3572,-6524
48,88,-92,1053,-3815,-5590
9,-108,11,1720,-3103,-4954
53,68,-71,4311,392,-1200
123,-47,-125,-729,1332,928
88,-58,-91,-1462,2291,3354
81,-1,-29,-1792,1956,6254
117,-101,41,9,1738,6663
49,117,-8,-1390,703,2602
-95,104,40,-436,-628,-403
2,109,-37,-1502,-3514,349
47,14,-39,1241,-5561,3250
-63,-1,-17,381,-5345,5645
93,94,-88,1761,-5755,6639
44,-62,-101,3058,-4697,5575
-104,65,-95,1823,-1770,3882
10,71,-95,231,-1451,2748
-80,98,-31,-1155,-57,2306
-80,50,-70,-3068,1473,2049
119,9,115,-2628,868,1964
-105,69,81,1569,3623,-3162
-115,81,-66,687,3857,-3760
95,-17,91,1340,3284,-3487
90,38,76,2066,2924,-4227
-97,70,33,1028,1688,-4911
80,-35,38,1658,2611,-6073
-93,103,-126,2406,1001,-3196
99,-66,-99,1791,-1409,-3171
-68,31,-51,738,-5076,-4712
-57,-64,-25,1804,-3361,-4125
-53,-100,19,942,221,-577
-64,37,-46,983,2976,4000
-71,-77,-73,479,3209,5131
-10,8,-21,-470,4438,5744
-64,-125,14,4,4000,6823
-6,-72,-75,-2940,2386,5162
117,73,53,-1274,1819,924
62,-58,-31,198,-238,-2924
-69,121,54,1202,-3237,-4980
-23,84,49,1143,-2069,-4480
15,27,57,1029,-4236,-6289
48,-115,-70,1568,-3786,-5949
32,-29,33,2328,-4086,-5507
14,-100,-100,-102,-747,-7062
-98,-15,-111,2023,1097,2908
71,-27,-126,-1305,2610,5231
-80,103,116,-3313,2366,5309
-64,-63,112,-488,2946,7453
41,127,29,-1260,2187,5102
39,-53,-100,-1434,312,2506
53,-32,-10,-2940,-2423,-2621
30,63,-76,-781,-5737,549
-75,26,-79,1245,-7558,3323
-35,45,59,525,-8872,4847
-69,-94,-21,341,-7869,7831
-12,78,53,1379,-3060,4011
79,-20,-102,3864,-818,4866
88,-101,48,2842,-2834,5010
108,27,111,-870,-1597,1145
76,-79,114,2553,-427,-1779
-80,10,67,9124,607,-4669
124,-106,-17,-4758,4720,-5544
-73,2,-128,-1370,811,-6986
-61,67,-90,-3183,3347,-6262
83,-100,-52,-1075,943,-5069
62,-56,64,-1911,1557,-4245
79,-35,53,-1306,1654,-3116
-67,55,29,1813,3514,1102
-64,-27,-92,2371,3663,3024
108,96,-79,1531,3924,3729
101,-28,41,-2232,3349,4403
-126,-26,39,-2683,1576,4311
-126,-34,76,-1867,1788,2862
-88,-43,35,2050,-428,-2857
115,-10,-116,162,-2196,-7316
122,-25,-88,659,-2062,-7163
28,-7,-47,938,-3079,-7127
-102,-58,-18,2696,-2764,-5376
86,-81,106,2506,-2324,-2907
0,46,102,2338,-980,-1058
-80,22,-51,-412,2447,3563
-116,65,-19,-1857,1585,7548
-72,-62,36,-679,3135,5945
-39,0,-116,505,3798,7263
71,-13,115,-320,3953,4226
97,-7,75,-715,1797,1278
20,-2,96,1434,-402,-1729
-26,-102,66,1124,-2629,-3776
-72,43,-72,731,-4582,-5033
112,90,72,1199,-5741,-4994
20,123,-52,-119,-5085,-3632
18,-27,-86,1415,-503,1020
-56,42,-20,3757,-4088,6190
-64,-122,-10,738,-2405,5874
-29,-61,-108,824,-4549,5020
-19,92,114,-2645,-4929,8600
-91,113,17,788,-4090,6739
-38,-68,104,-21,-2979,3762
120,-86,30,1883,328,5360
-128,-76,-99,-156,-1930,3650
-61,62,-62,-2049,1418,-3779
40,59,37,-1008,1621,-4923
91,-56,-56,-708,3318,-5350
-60,-55,125,579,3897,-4422
-48,85,-73,-36,4014,-3333
9,-102,-125,660,2840,-2645
-104,-104,21,1090,3958,-1742
62,-62,71,1710,4528,1179
17,-43,-63,1547,3783,2522
106,-54,79,-1268,3375,2636
79,-79,-13,-3737,2472,2264
-29,-2,49,-1955,2160,1623
22,56,10,-219,375,-4493
-48,39,100,2273,-2108,-3772
-55,-87,14,1344,-2320,-4918
-28,-55,71,1192,-3563,-4991
-26,-32,89,2571,-3477,-2941
-6,126,-41,1515,-4227,-2280
20,68,-102,2030,-1604,-1786
38,-48,110,501,-235,854
-111,-67,107,-1286,1036,1857
-125,53,-120,-805,2143,4287
99,53,63,-1067,2787,3900
103,-82,-12,117,3788,4752
32,-36,-113,-22,4227,4491
106,44,-44,-936,3923,3999
44,-38,-53,-698,2332,1944
-43,-76,-24,1155,-69,-2323
-37,-96,44,1835,-2545,-5022
-10,13,-34,1643,-4375,-5641
-85,-15,25,2318,-5740,-5083
105,11,-17,-682,-4492,-2884
-98,-84,-45,4494,-6232,1611
5,9,-125,2653,-3666,3415
18,115,-53,3041,-1534,3300
-90,18,127,3206,-3687,4475
-66,29,70,1785,-3471,5957
61,116,-78,2115,-1425,4756
41,-123,-118,3379,-1339,5175
81,1,29,2648,-628,3440
-92,-125,15,-1907,2816,-3117
17,104,41,460,2953,-5221
-61,-49,-8,-666,3277,-5905
8,24,-12,-105,3157,-5708
-64,98,24,-46,3598,-4604
52,-112,-101,881,4569,-2995
-96,-84,-109,2653,4194,-545
86,-7,5,1897,4077,1491
119,5,-116,1771,3438,3251
-127,-66,60,-275,2836,3144
62,110,39,-3075,1201,2926
34,71,-58,-1576,1305,3785
5,119,-118,-1594,-283,-82
84,-8,-89,1242,890,-3578
-1,-78,110,587,-2484,-5920
106,-68,15,-212,-2232,-6897
54,-128,97,472,-3589,-6004
-81,-8,98,2173,-3860,-4029
-58,-125,73,4906,-4971,-814
-44,33,-115,-202,-906,-967
-45,-128,108,560,2742,1277
-123,127,123,802,2906,4268
113,-42,2,-533,3109,4414
73,-121,65,-297,3459,4452
50,-21,-102,-318,3409,4729
66,-18,90,-526,2196,4158
6,26,-7,-632,1585,1451
40,-75,94,2089,-963,-1343
40,113,-81,1351,-1940,-3523
-97,-23,62,677,-2529,-4929
-5,-97,62,609,-4642,-6181
-104,21,39,648,-3936,-4479
96,70,29,1543,-3175,-1103
-117,-13,40,1419,-854,1547
22,-52,-121,3318,864,4074
65,-43,-98,2209,-209,4087
-35,71,101,1190,-2090,6088
62,-8,-76,1507,-1834,7300
82,-51,41,712,-2417,6664
57,35,-124,-89,-1531,4689
-70,-110,-90,1597,-1838,3907
-58,19,-69,627,890,2843
-46,-97,60,2027,-504,3414
8,53,80,-1269,-513,2454
-80,114,49,-2956,633,90
97,-75,49,166,-8,91
75,119,74,1571,-194,-115
36,-117,45,982,-394,-584
33,-127,19,-100,220,-609
40,78,1,161,-144,-152
46,94,3,153,-125,36
100,120,34,12,97,-380
-104,81,52,447,112,-654
-96,33,49,1170,36,-914
-122,15,41,731,168,-942
118,-38,19,757,181,-557
99,-76,-27,868,146,-14
98,-54,-33,758,138,509
115,-19,-39,594,1,916
112,20,-41,471,-171,1042
102,63,-36,2,-362,1048
-125,83,-13,-474,-174,1010
-97,75,-25,-62,-355,1121
-124,119,-18,-146,-540,898
-117,-114,-1,-176,-395,577
-103,-118,-2,132,-345,319
-112,-123,-1,469,-246,53
-119,114,-35,546,-191,-312
126,102,-43,163,-334,-127
122,102,-35,-154,-368,-155
-118,97,-26,-130,-330,-228
-99,90,-28,29,-237,-218
-101,96,-32,21,-289,-307
-107,100,-34,-56,-219,-378
-100,84,-27,187,-70,-391
-97,66,-41,447,-207,-296
-99,69,-49,236,-158,-165
-108,74,-57,85,-155,5
-109,74,-71,205,-169,113
-106,83,-81,91,-260,350
-45,-92,112,349,4558,-6230
-80,-93,10,2435,2884,-5352
76,51,-100,-891,3326,-6277
51,-118,-127,-1011,2301,-5936
-102,-18,0,-2322,2437,-5600
-66,51,-74,633,4166,-2470
-124,51,110,2689,4002,1003
126,-32,116,4045,3368,1829
-93,-38,-40,2773,3265,3456
-26,-57,0,-1050,3014,2456
42,-34,15,-3869,2062,2700
62,-95,-67,-1841,2826,1755
11,20,-88,674,882,-1075
6,6,-49,664,-2249,-4838
-5,38,-109,390,-3040,-6111
25,18,51,521,-4160,-6040
5,-101,99,3056,-4155,-5893
92,-26,-23,858,-3431,-4096
93,-23,84,1535,-1835,-2469
18,-21,-107,1002,2117,89
1,8,-121,-1390,2307,3910
20,-13,-19,-1177,2449,5917
85,72,-100,-616,3839,7129
-121,-48,-19,763,4017,7622
79,-108,-109,-1731,2925,5439
51,65,46,-727,1943,1885
-64,-112,23,1077,-293,-2096
-68,68,20,1320,-2565,-3473
27,-125,-19,1263,-3625,-5122
-121,83,50,594,-5309,-7322
121,68,-56,-2247,-4554,-6983
100,126,-58,2237,-2194,-2466
40,-91,-128,4239,531,2974
36,70,44,-48,-1271,4676
65,-103,89,1171,-3061,6796
-16,123,-78,-1990,-7037,8498
-81,50,17,836,-5544,6078
105,4,-84,1437,-3201,5378
-24,-28,62,1026,-1852,4175
-71,-98,-28,-364,-1390,3901
-71,-18,64,-1841,1790,-4291
-46,-35,-86,134,2010,-4685
14,-3,-57,-382,2151,-5230
116,-114,-55,-719,2597,-5686
29,122,-46,1271,1306,-4471
-57,122,101,438,1694,-4437
32,-119,-103,2332,3271,-2539
-83,95,-99,2567,4101,-2192
73,-65,-44,4253,3608,1135
74,-63,123,674,4141,3000
99,-98,14,-662,3039,3465
54,121,89,-3972,3984,2994
-93,-71,-104,-353,1544,-774
105,-81,72,1977,-3261,-4854
59,-74,69,-160,-2681,-5108
125,-89,-19,198,-2764,-5229
27,49,23,-430,-4400,-5404
94,-18,-84,-692,-3877,-4935
-128,108,124,5578,-5087,-2891
-31,-12,117,-385,3148,253
1,40,109,1426,3080,4104
104,-18,101,34,4265,4234
89,-112,78,-13,4896,4615
-5,-110,-122,1576,4298,5089
26,110,41,-1588,4370,4194
-120,87,113,-792,3656,2310
-16,105,-106,1565,-1990,-1151
-2,14,27,-109,-3382,-3904
56,-36,78,465,-5091,-4196
-18,17,0,-368,-6884,-4059
-7,-81,-118,-4008,-4420,-3913
119,-102,75,-2188,-1196,-3565
-105,-55,-86,3940,-2009,2623
-5,-60,-71,3851,-1291,3574
10,65,-128,3680,-558,4438
42,56,100,-2137,-1705,7356
-48,-89,-109,1383,-5054,9577
-37,-70,8,1333,-2717,5643
94,119,9,2655,-1283,4923
-22,52,62,1807,-1007,4527
29,-47,-75,-3804,388,4316
84,110,-86,-5117,-1092,2817
-92,-92,18,1759,-3393,-147
-126,9,-59,3908,1664,-3286
122,-46,43,2570,2013,-2666
52,115,-86,755,623,-659
56,80,-82,585,-246,-482
95,48,-46,785,-326,-1062
115,24,-28,676,-163,-1082
110,-10,-16,466,-399,-1135
83,-42,22,178,-317,-849
84,-77,33,608,-14,-470
62,-104,-9,964,-189,99
11,-59,-29,259,-709,976
24,29,3,-675,-157,1295
74,48,-21,-591,263,1464
121,72,-56,-84,-54,1513
-94,-110,-55,-174,-250,1158
-98,-80,-52,51,-341,536
-120,-91,-48,475,-385,3
108,-110,-39,325,-314,14
103,-115,-42,-67,-224,187
108,-83,-40,-440,-168,89
-114,-79,-38,-276,-18,-361
-109,-116,-36,259,-180,-667
-126,110,-47,708,-275,-706
122,103,-49,229,-157,-672
105,80,-64,13,-168,-333
97,76,-62,62,-218,-84
102,90,-61,-53,-235,179
109,107,-56,-32,-210,293
116,118,-52,124,-225,406
118,-114,-55,237,-214,421
-101,-116,-57,228,-164,500
-77,-95,-51,-53,-246,482
-114,-72,-37,110,28,365
-108,-80,-59,708,18,199
-85,-98,-105,861,-278,49
-96,-91,-98,-14,-281,90
-73,-111,-72,-84,-174,294
-88,-85,-26,830,3900,-4442
54,-29,63,455,3723,-5564
65,39,101,277,5106,-5994
17,-64,8,1364,3626,-5888
10,-77,-115,163,3594,-5772
-57,-125,125,128,1750,-5636
-34,116,-8,3612,-3642,-6395
-72,-10,-109,771,-3657,-4413
-57,-26,-80,-171,-1302,-4082
78,-64,-38,2884,1040,4530
-77,-6,-120,-79,4038,6337
67,68,-102,1038,4076,6838
-10,-81,-127,-121,3646,5039
-60,53,71,-3592,2282,5194
123,-92,-36,-1615,2860,4037
24,-95,38,2195,-1627,-2987
-37,-75,-76,1507,-1763,-8133
-22,-23,88,1394,-2424,-5936
124,68,122,2937,-4217,-6684
-4,-18,-60,1339,-3903,-6067
59,-65,28,1636,-1677,-5407
50,-48,-102,2433,799,715
120,-6,68,-2362,2165,4325
47,-82,-80,-3298,278,8329
1,1,-118,845,1317,8343
-109,-8,36,-2325,1490,4669
115,-15,-21,-2990,-5675,-2546
73,-73,100,560,-7993,1045
70,-71,55,1632,-8367,8473
30,-21,78,832,-6789,6228
118,-56,-36,20,-1597,6907
36,49,105,1347,-1808,4298
-6,-108,37,1042,-1666,3335
32,-66,22,3968,-3503,958
-71,90,-52,734,-43,-2117
117,-10,125,-2341,2962,-2703
-70,118,-23,2362,259,-584
-30,6,-24,1251,-814,1669
55,-95,3,-441,-38,-121
85,124,-10,-170,223,-275
-55,13,-40,-4651,2622,-4692
-92,6,-13,-1346,1403,-4916
-127,-100,-25,-1888,94,-6253
15,84,75,-1451,2622,-6221
-78,-7,55,-506,4250,-4605
-97,38,73,-194,3884,-2520
63,-93,-20,1459,4374,-1820
-88,89,36,1229,4831,-830
-83,-93,-82,1435,4080,2388
-119,104,48,-497,2560,4231
-71,-55,-99,-4088,1573,3594
26,-89,-51,-2200,871,1031
114,121,-57,559,994,-2951
108,25,-15,2581,-2812,-5285
-9,-120,-14,998,-2013,-5926
-72,-59,18,1538,-3663,-5819
-47,89,40,1224,-3382,-4859
120,-114,-102,1706,-83,-2090
-32,-32,-100,988,1960,2622
119,74,-122,-513,2152,4704
126,-46,36,-1129,3195,4942
-103,-98,47,133,4004,6208
-7,11,-46,-615,3507,5471
-105,-12,116,-1820,2786,3640
-22,-90,-31,-1773,1754,567
-56,-112,-81,1811,-1502,-1857
-27,82,119,1433,-2369,-4846
-36,-94,12,1767,-4065,-4228
-91,17,109,-491,-5996,-5381
121,57,118,-604,-3116,-4242
82,74,-13,3639,-5393,835
-23,-125,-108,2086,-392,3908
14,22,-97,3557,430,2816
-24,-31,10,839,-1652,5203
-48,-110,108,445,-6897,9991
-128,76,33,-198,-4570,6411
61,112,65,1518,-3298,7964
0,-36,8,613,-2009,3436
-25,-85,120,2748,488,2240
51,123,-123,966,-769,1530
-97,20,102,1794,2875,-2526
-53,73,-1,761,4919,-4563
87,-65,61,2319,3820,-4317
-66,-77,115,1591,3669,-4479
-107,-109,65,-202,3389,-4766
78,37,105,1088,4632,-3404
38,-99,40,3787,-194,-1923
15,-119,109,1358,-1928,-4363
-12,-70,-104,544,-3143,-5887
-6,-70,-121,602,-3461,-5003
125,82,42,-761,3249,-3459
58,-78,-55,2339,1745,3593
61,51,60,-14,2522,4906
79,103,-94,-692,3010,5399
126,97,-37,-474,2977,5500
-7,125,-114,-1041,1796,6542
-12,-47,10,-1754,1899,4459
-95,-113,-70,323,1382,689
-15,112,108,609,-976,-3507
21,-37,72,1171,-1875,-4579
35,45,7,1167,-2826,-6017
90,-102,58,1213,-3329,-6116
-8,-8,123,580,-4182,-5651
118,-92,-59,1066,-3424,-4099
-58,-5,75,792,-3375,-2638
88,-103,122,-487,-703,-3455
-116,-27,-127,1279,3012,2375
38,52,-89,-1432,943,6894
-97,-88,-64,-575,2423,5131
-46,-121,72,139,2698,5829
56,-96,-47,1356,736,5522
-113,1,-17,398,870,3270
34,-90,-25,-2563,-2817,901
-94,-40,1,-596,-5835,2503
-32,-128,-117,-41,-5366,4136
-31,0,-69,358,-2376,4032
-117,49,-19,732,-3189,3102
-71,78,15,-1170,-2166,4190
-50,18,-16,1316,-1003,2719
-122,1,-62,-745,-844,2687
-42,-47,9,-3746,4461,-2651
-82,125,88,292,5913,-2976
123,-23,-123,3802,4473,-4692
-30,66,70,1020,4435,-4906
13,-10,24,1484,4064,-5700
49,-65,-122,1967,902,-4963
-125,-81,113,1375,-853,-5216
96,95,-128,1770,-3355,-4130
114,64,61,2481,-4038,-3431
49,77,40,1508,-264,-814
-75,-31,-57,-541,3721,4787
94,47,-87,1956,4851,7794
-121,62,-34,-724,5725,5682
-5,30,-47,-2026,3725,5395
-15,-70,63,-2154,3377,4550
-24,87,-38,-929,1567,2906
-60,101,14,2284,-1554,-4099
105,38,95,282,-2756,-5399
89,-66,99,2245,-3279,-5322
88,-105,97,1060,-5322,-7087
70,11,123,2195,-5915,-5388
65,88,21,3727,-5753,-4140
25,-102,115,889,-750,-3841
-77,60,92,1044,3160,757
51,-84,110,-432,3582,6093
112,92,75,21,4366,6260
-55,56,63,410,5183,4726
-3,110,-16,-371,2684,2504
46,-9,112,-138,1968,3158
19,123,45,-1357,-1036,2200
-58,-117,-43,-2914,-3844,1399
94,-56,22,-2913,-5493,4465
77,102,77,2211,-6782,6601
55,-23,91,-1857,-4178,6362
8,26,-52,-101,-3386,5894
66,45,-24,900,-568,4073
-22,-111,-93,2736,1184,4028
89,84,-91,1206,-17,5498
43,-100,-96,-1010,-259,1666
77,-101,112,2223,-1564,-3390
97,78,56,-2200,1889,-3219
11,45,-40,-1577,1580,-4114
-127,-66,72,-2397,3173,-5258
-103,0,127,-593,2632,-5465
-49,83,-43,-496,4347,-4602
-62,90,-64,46,4164,-3249
-94,-49,-103,1229,3830,-418
87,-51,39,1883,3595,68
92,114,-17,2073,4052,2200
-77,115,95,2066,3426,3572
-96,-35,37,316,2371,3191
-101,-84,-28,-2618,1655,2898
37,-30,-27,-3287,1201,1192
54,6,-58,-862,3591,-451
-24,2,19,2665,-2352,-3852
69,67,-71,148,-2594,-5906
94,26,66,555,-3912,-6159
76,122,113,1235,-4425,-5648
-128,-51,-67,1862,-5078,-5942
-93,20,-75,561,1267,-3792
9,-34,-65,-254,504,2348
102,48,-77,504,3329,5853
99,-82,27,-1074,2943,4911
124,-95,-126,-722,3951,4927
-42,-75,42,-219,3726,5416
50,-30,-23,-427,3414,6195
111,116,-116,-1237,3983,2646
88,119,93,967,273,-473
-31,23,-56,1735,-2737,-3078
-85,-113,-97,1240,-3881,-4063
-62,-34,31,1029,-5278,-5014
-44,-19,-69,-478,-4970,-5034
-38,-117,-105,-672,-6829,-3405
66,67,-3,959,-4011,2024
-30,-119,-73,5050,-4117,2372
-44,51,-32,4216,-1394,2409
123,-84,112,2104,-1013,4009
-124,96,-74,632,-4516,9041
24,-8,52,1494,-3003,5985
9,-53,104,2993,-2343,5201
-62,-73,40,2737,-882,4389
-62,-34,-108,-175,-1054,3387
34,-66,-104,-96,132,1603
-115,-122,93,1234,-391,715
50,113,52,483,219,-557
54,-44,54,776,678,-799
27,84,0,1376,-114,-560
22,120,-17,287,-86,-152
-10,-120,-47,4,-321,-566
53,64,-2,-249,-88,-412
58,53,-13,-73,-115,-175
29,65,-18,456,-310,-305
39,63,-2,601,-385,-347
15,12,-11,1992,-816,28
30,28,11,2436,-929,0
41,63,9,1104,-459,-281
31,36,-6,613,-149,137
26,7,-17,1515,-566,-58
40,-2,-25,1314,-222,34
-3,3,-45,411,-210,-10
-14,-28,-34,193,-349,290
-5,-31,-29,770,-383,461
13,7,-41,722,-190,247
49,29,-39,-516,403,146
-122,-1,-65,-1727,1009,327
9,103,-113,-2952,320,-103
17,110,-69,-2644,-145,100
77,105,-17,-1343,267,573
73,100,-31,1132,-125,640
-127,126,-54,1714,-488,504
73,-43,-67,-100,-413,16
58,-64,-39,-463,-87,-192
110,113,-41,284,123,209
100,-126,-76,764,-397,209
97,-75,-65,-98,-234,-26
82,-87,-45,25,9,-230
122,107,-52,838,35,15
-109,91,-108,996,-209,181
89,-95,-111,-144,-515,103
64,-93,-64,-84,-105,-321
19,-127,-13,-1692,2049,-4176
20,109,121,-287,3537,-4674
-87,28,34,225,2596,-5018
28,-24,62,-1196,4176,-5646
3,117,-93,32,3892,-3777
-54,-82,-77,1429,4428,-2021
-78,64,-104,2848,4925,1805
-96,120,-114,2822,4705,3090
-20,60,35,485,3498,3336
108,-86,48,-4657,2048,2078
98,58,57,-1203,2054,2048
-91,14,90,40,3995,-432
57,-17,59,1386,-3520,-4238
-97,120,71,-980,-3238,-6732
-104,-15,108,1546,-4309,-6473
77,111,-119,1442,-3973,-5085
79,-76,1,864,-3543,-4330
-50,-118,-68,1941,-828,-2610
-32,-34,-100,-102,2741,2577
7,32,-112,147,2796,6105
-111,21,13,-1549,3775,4904
23,-87,-109,1021,4572,6289
-97,95,27,1934,4304,5138
69,-82,-93,12,3910,2215
63,-87,-72,-453,3672,625
111,-50,-109,687,-3276,-2833
113,-125,-91,303,-5325,-4151
51,-37,-98,533,-6667,-5029
75,43,-116,545,-9368,-5027
-26,-6,40,-3436,-3342,-5034
-76,-113,32,3697,658,229
13,-80,-98,3708,-548,2954
-113,-94,110,3023,-819,4356
126,103,107,389,-2619,3571
33,-122,-48,-1323,-4811,5218
80,-25,73,237,-4369,5227
-23,-85,20,1495,-3133,4469
17,90,33,1201,-1276,1957
109,-46,-37,232,-973,2230
48,110,-100,-63,-1519,2517
87,55,37,3191,-925,3648
-87,-91,68,173,-130,4280
-18,-104,116,-4158,881,3285
-25,-9,78,1068,-1101,1503
-55,-25,48,4171,-1087,172
103,-2,13,2384,-784,-883
21,-33,9,401,-121,-1268
47,113,26,52,294,-764
-118,4,48,799,1597,955
72,46,11,2149,368,87
53,3,73,1991,-489,-555
-126,-38,-116,262,163,-684
115,-80,-125,181,-181,-404
46,-63,101,639,213,47
46,-35,35,480,209,1
72,-44,2,275,60,411
102,-30,-8,-9,-112,968
-102,62,4,-1799,860,665
-67,63,-1,-1241,167,1016
-99,41,26,608,-1156,1639
-76,-124,93,-328,-781,1316
-80,-118,82,718,-1166,1204
-72,16,90,-1597,-572,-394
-32,-8,119,-1405,233,-83
-53,-92,108,1388,-196,-574
-37,-72,75,744,233,-1175
-82,-70,22,-191,311,-1605
-104,-64,-12,-905,158,-2246
13,-43,-16,-2453,395,-2697
-50,113,-7,196,-1106,-1332
-80,88,6,2260,-616,-896
-88,78,-50,2371,-76,-1072
104,74,-85,1159,-816,-96
61,63,-77,812,-1350,790
95,119,-37,-45,-569,914
-122,-96,-57,-398,-406,1220
-89,-42,-78,-690,-453,581
-32,-64,-59,-1149,-135,899
-52,-26,-58,-675,-251,1056
-104,-25,-78,1359,-844,832
8,-18,87,775,3568,-4260
-45,-6,-11,50,4176,-6218
-122,-71,-42,-48,4831,-6457
103,-115,-123,-689,2770,-6569
19,-106,94,-2702,1362,-7310
35,118,9,-783,1611,-5311
58,59,-105,3289,3587,154
-78,77,-22,1206,3461,3018
122,23,100,719,4298,4503
81,-30,114,482,3506,4917
37,-108,60,-3674,3014,4035
5,21,93,-2450,235,4475
-56,40,-77,-474,861,-792
-96,-33,41,1834,-2564,-6248
-57,112,24,471,-2428,-7634
-73,51,113,2204,-4878,-7962
100,-108,42,1246,-3161,-7238
-86,-72,21,1324,-1480,-5128
114,42,-57,2667,99,387
50,40,-78,-1267,2968,3986
-74,44,-112,-883,3271,9227
0,-54,-25,-902,4431,7653
97,-79,-76,-1846,3256,6736
27,26,-94,-1637,2704,3484
-76,-22,109,810,1641,-906
-87,-81,85,2075,-3949,-4674
92,7,-25,941,-5447,-6165
-121,76,-106,-1074,-6732,-6777
-127,46,-33,1334,-3778,-3471
3,30,117,3191,-4571,2365
-104,77,-45,2112,-4898,2961
29,-96,106,1864,-4576,5498
5,120,-114,1959,-7154,10067
-127,-37,-34,775,-4234,4772
65,-101,64,715,-2270,6523
-120,13,-49,-879,-2950,5685
-36,-44,-78,-1196,-3484,1245
-99,-38,-115,2653,-291,-1930
-89,111,9,2012,2435,-2007
39,97,73,-654,697,-1104
-50,-42,94,1528,4695,-4823
56,-23,68,976,4880,-4683
-95,-43,-104,918,4375,-4629
-63,-93,86,1520,3958,-3883
80,-98,87,1714,2673,-4484
103,-11,-14,-253,2246,-4814
21,-29,91,1163,-716,-5671
122,14,126,552,-2686,-5858
-60,47,23,2462,-2435,-4327
-74,121,111,149,-34,-4911
103,1,10,2648,469,2491
66,44,-71,282,3702,5761
-30,0,5,535,4010,6461
3,-106,-18,-579,3692,5015
-48,-42,96,-2410,2543,4955
118,72,32,-2731,1159,6764
86,-46,-6,-4570,2831,3096
9,-126,55,3687,-1742,-4305
72,-121,-36,2242,-1622,-4729
76,23,-75,2003,-1856,-5684
-65,-57,-74,2115,-3829,-7564
-56,12,-24,1784,-3907,-6626
56,-24,-117,1132,-3728,-6961
125,-20,-61,3139,-3,-856
23,25,-104,-2645,2408,3500
-7,44,45,-697,1340,8056
-78,-5,-80,-277,3197,7076
52,47,39,-1353,2553,5416
-36,20,122,-1256,1141,4017
-90,-92,44,-2614,-2882,-678
78,-110,-25,-1899,-5782,527
-86,43,31,121,-8095,3533
-14,78,-98,1832,-7757,5000
-73,-61,-43,2739,-7074,8035
-106,66,0,-2367,-2867,5682
113,52,33,1026,1215,3644
-42,113,-36,3072,-1032,4550
84,-86,-11,-91,-933,5296
54,-90,-9,-1590,-2342,531
-122,-32,8,1001,-436,-2676
-41,-62,84,-695,3194,-4320
-47,-31,3,-20,2697,-6579
-99,93,-13,-386,3267,-6690
-115,82,-91,-301,1569,-6642
-34,-88,50,-426,2156,-4669
-56,47,-35,231,2729,-2782
87,107,34,2106,5162,-11
26,-103,-35,2733,3485,2660
-107,-90,21,1695,2466,3117
-47,36,29,-4383,2438,3234
56,71,-118,-93,1378,5431
28,52,-35,126,3618,-1700
45,107,48,2166,-2739,-3988
101,-59,65,-466,-2470,-6275
127,-58,-29,841,-4386,-6435
36,-39,27,852,-5197,-5889
-68,-55,-113,101,-3596,-6518
62,93,-48,4007,-1698,-3447
104,33,-77,318,5144,4696
106,121,96,535,3997,6097
-10,-28,53,-1031,3400,5383
126,90,-49,-1477,3150,5417
-5,98,-112,359,3340,7711
57,41,-99,-3005,4039,5349
112,-97,20,1266,511,-2135
25,68,5,1688,-3080,-3770
-34,-117,-119,1977,-3419,-4271
75,-61,28,575,-4013,-5125
6,39,94,-919,-7099,-5431
11,98,60,-1243,-6069,-4467
35,-10,120,2447,-1510,653
71,-72,-87,7692,-898,7560
-39,-72,84,3264,-111,4248
-8,-103,-90,-2130,-3676,5948
-27,69,-44,1731,-4037,8314
-67,-47,-66,-257,-2363,6467
-37,-90,-108,2656,-1473,5394
97,87,124,3029,-58,5362
114,-110,80,2451,1076,3844
80,43,-22,-1123,-429,1692
109,-86,49,-1819,1340,-3982
-101,72,0,-538,2760,-5395
-103,70,89,-1034,3090,-6338
-28,55,-114,-1725,3769,-6915
-58,-9,-98,-1106,3203,-5224
14,-17,-77,-304,3876,-2186
-32,26,-84,1094,3674,-372
36,-96,-101,1100,4885,2067
69,-80,112,1299,3935,3123
19,63,69,-930,2182,2129
91,-99,100,-3111,1715,1665
27,-72,45,-1526,1481,4600
-50,24,22,-234,2590,2075
-64,-12,115,2034,-1299,-4355
-115,50,108,-826,-3165,-8099
-45,106,92,1970,-3282,-7198
50,85,-108,2496,-4519,-5275
42,101,78,1785,-5538,-5346
-13,117,-40,673,1938,-1710
-119,13,-67,217,1848,3237
-90,120,91,-313,2436,6862
-118,90,-29,-337,3967,5843
19,-97,-114,-605,4118,5048
89,-126,40,345,3987,6782
-37,-68,118,-1664,2811,3404
-24,-125,-13,-592,2209,1981
105,112,83,1780,-513,-2688
-127,62,67,1382,-2226,-3801
-49,57,65,1631,-2400,-4415
90,90,117,1724,-5333,-5674
106,-8,59,993,-7427,-6078
44,113,26,-161,-4220,-4531
-12,-119,-122,1597,190,693
125,59,-124,3789,122,4333
41,96,9,2454,-96,5981
103,63,-42,314,-3647,6378
-20,-56,-98,-2267,-8242,8896
12,-38,-49,928,-4932,6972
-67,117,68,3034,-4599,6293
85,-8,-19,-1432,-597,3322
-87,-95,45,586,2640,-3946
60,45,-50,-262,2727,-4714
-46,109,-121,1041,3146,-4218
16,113,28,880,4411,-4819
14,-96,102,1093,3833,-4722
-12,2,-15,-657,1372,-4863
-4,19,-127,877,-280,-5669
-123,-33,-128,1048,-2281,-5303
0,-74,-43,1662,-2929,-5721
29,-46,114,1911,-3521,-4434
92,-2,-22,2126,3039,-2263
-110,-21,-123,-1062,2566,3698
67,79,8,591,3148,7631
-96,-60,-110,389,4462,5869
55,51,-83,-90,3946,6579
37,-122,11,-1525,1996,6862
92,48,-14,-2406,1295,5003
29,-81,83,-871,345,-2338
-26,101,-125,2650,-1277,-3955
-55,-2,3,1324,-1823,-5266
-103,-57,86,1334,-2797,-6274
-48,112,76,2002,-4408,-6828
-64,26,-128,1199,-4973,-6380
63,93,-10,-502,-2297,-8263
18,-20,-90,5333,596,-907
-78,-73,110,-1929,353,2225
-16,15,123,-427,2438,5239
-63,-52,17,-1397,2934,6309
-36,-9,70,-651,3989,5948
17,-23,-94,-848,2883,5640
116,83,-121,-1214,223,4322
126,-29,-9,-3294,-3237,-1100
6,-20,-65,-1763,-5534,-1131
-11,42,25,389,-7641,1824
-109,5,69,134,-4831,3900
-51,-115,-64,1667,-3987,4107
-125,60,31,3270,-1103,4363
-61,-73,122,2589,223,2868
118,-88,-105,486,-102,3107
74,80,103,-699,-1188,2844
-64,64,-51,4641,1409,-2027
39,-29,-73,644,1727,-6753
-11,55,-23,-3156,1971,-8166
115,5,127,-2363,3505,-7900
-112,19,-37,-1832,2411,-6137
20,-112,24,-1168,3620,-2378
-100,38,-72,1629,2408,-380
83,82,9,73,3489,-285
-109,67,125,4093,3914,2211
83,108,19,1229,3691,2840
58,14,31,-2269,2916,4073
-64,-74,-58,-2429,3370,6614
55,-128,66,-478,1089,1612
74,-120,-19,842,-1297,-4716
-105,-119,101,-672,-2506,-6682
-63,-37,102,-620,-3435,-7520
112,89,-94,2568,-4620,-7141
114,-4,78,-1301,-4334,-5438
-72,41,97,2332,-347,-3175
-87,-53,-52,1276,1930,677
-89,30,123,-1132,2944,5175
-94,63,-91,-387,2752,7181
-3,30,102,1837,4199,6478
88,79,-23,1571,3730,6761
65,-71,124,-2689,3599,3180
124,2,-101,435,1534,1311
43,90,2,949,-1015,-2440
59,107,13,962,-3582,-3749
63,-40,-106,-603,-5657,-5204
-9,-28,-76,1042,-8087,-6055
-32,-113,-115,-3431,-6082,-5095
31,97,-51,1427,-5265,-521
112,-107,-19,4361,-3736,2688
43,16,60,5861,-825,1688
34,97,-99,4471,2615,2424
-43,-9,80,1979,27,7437
62,-25,-120,3,-2675,8652
-20,-103,-21,525,-3101,6483
59,35,107,456,-1726,4969
-125,-67,-53,1181,267,4590
-96,72,-53,-614,1879,-4782
107,8,56,482,3469,-5629
47,-103,41,1031,4281,-5174
125,106,47,1414,5422,-3405
-9,69,-94,5723,4685,-1171
-43,-102,24,5574,3965,1209
105,-102,90,1677,5218,-216
7,-118,24,-2969,3101,1652
-99,17,106,-3339,-94,2573
37,-87,-115,926,1165,183
-71,-35,30,2019,-2795,-6364
52,53,30,-223,-4430,-7928
25,29,-21,1316,-3631,-7432
115,53,-15,1245,-4003,-6163
-44,-6,-18,-334,-2063,-6589
114,34,-37,3921,1837,509
8,11,-109,-962,2540,6480
103,-128,-15,-841,2696,7005
-45,81,20,372,3657,7177
69,-48,-71,-375,3783,6920
7,-68,109,-638,1183,5169
98,-25,-40,-1582,2314,-784
103,117,31,2366,-1276,-2693
60,36,-18,925,-3743,-4954
-117,22,-36,224,-4694,-6326
47,56,17,-291,-8245,-6919
-102,14,39,-1998,-2850,-6150
-51,-45,-28,6669,-4345,2203
56,-67,95,3451,-631,3709
-58,-36,114,1235,-1167,3509
92,-1,37,1646,-3891,5796
-10,-9,-31,1502,-4721,8007
-90,-73,-78,1474,-3080,5710
27,-121,-76,2730,-1122,5015
99,-25,118,2955,-1106,6090
-35,-105,110,288,-236,5976
-59,-100,-120,-1329,-2040,3246
-104,-24,-83,-168,-1757,-2179
-126,23,-70,2045,797,-1248
47,40,48,300,1527,-421
-18,59,-89,724,1910,-5424
-74,-15,56,-1193,2526,-6100
-37,-28,-4,-2008,2159,-6486
-66,-90,-109,-1659,2089,-6695
-54,-39,126,-216,3922,-4251
-45,-62,61,2336,2969,-1493
27,76,52,2526,3165,-536
-27,107,-43,1859,2707,1611
83,-96,103,1708,2828,2915
77,-12,-36,-431,3806,2192
113,-101,-93,-2516,4764,3905
-26,-78,-86,-1150,-279,5310
120,17,-90,1460,-2152,-5979
-59,93,-88,-2418,-5427,-6698
-113,44,9,181,-4138,-8546
-19,125,86,-2413,-3974,-8616
114,92,40,2029,-824,-5211
-28,-32,85,2829,1508,364
-26,111,-4,7,2350,2270
-112,-65,-112,-478,2159,4409
-109,95,-67,-522,3111,5671
62,60,103,202,3543,6205
-86,78,-52,387,2738,6500
-100,126,-50,-2482,3121,2295
15,34,-108,397,1194,719
-60,-102,-36,1704,-1373,-3056
-48,11,57,483,-3881,-5342
-52,-29,-3,1971,-5729,-6659
-66,-7,-73,-1008,-5534,-6341
5,-68,33,1423,-3389,-1929
93,4,-4,2637,-4406,1480
-94,-105,77,1757,-2989,2324
101,-97,-88,2990,-2253,2195
51,-20,112,3345,-2987,4774
124,-66,1,2875,-4576,6225
71,96,-46,2364,-2801,5958
-35,114,33,2744,-2366,6487
117,126,-95,2708,-119,2166
42,-51,44,2542,1522,2397
41,-13,10,736,675,3818
-115,22,20,318,3127,-4257
70,-46,72,-911,5124,-5248
39,50,-42,1584,3375,-4432
35,-79,-37,266,3096,-4760
8,-124,18,1310,2138,-5451
-51,81,54,300,1092,-3757
96,77,-104,2268,14,-4310
9,-89,-100,530,-2318,-5332
-100,-113,21,1030,-3456,-4767
39,8,-66,-124,-2648,-6881
17,18,-50,3155,232,-1396
-64,17,122,-167,3577,6789
21,-48,-75,619,3566,8098
88,87,-31,1516,4566,6792
-126,108,-126,791,4572,6678
81,-21,72,-1458,3536,5744
44,-13,-10,-1452,3716,4498
70,38,31,1752,-920,-2648
52,20,-105,766,-3012,-4632
40,119,-63,795,-3368,-5332
-79,-13,46,-368,-4841,-7080
0,98,62,2160,-5712,-7932
-87,-31,-60,573,-3607,-5449
-13,-15,125,202,-4204,-5629
46,29,-116,2928,-214,-1674
92,-35,114,-651,1822,1155
109,-12,-117,-385,3635,7838
-5,62,59,614,5118,9130
-98,0,43,-843,4547,4955
101,-18,61,-1699,2103,3433
3,-13,-22,-2577,-643,1108
-46,78,-125,-2369,-4131,459
-83,-67,44,-2148,-5027,1128
-4,123,104,-451,-6391,2616
-7,-21,67,-974,-5616,4488
16,65,-29,-360,-4766,3937
35,-54,-63,-376,-3413,6570
-71,-66,35,1995,-1540,4211
-85,-42,-22,3859,-1439,4754
28,-47,-26,1052,-2292,2919
-25,-115,22,2156,1972,-3903
-114,125,-79,-573,3746,-5684
22,-67,120,1572,3388,-5289
38,-62,54,1025,2229,-5496
10,-3,60,-180,1682,-5921
30,-59,3,304,1741,-5375
-60,-121,122,504,650,-4724
109,-108,42,668,-1197,-4377
-128,-46,80,-127,-3558,-5741
5,-4,58,222,-2941,-5460
-103,25,36,2575,-1934,-2768
106,-66,-90,-353,3858,1418
44,23,12,2184,3474,7754
98,70,4,1340,4040,7324
21,114,103,791,4173,6453
-78,-62,7,-2555,3415,6218
-68,-45,-41,164,1934,2930
22,-93,-18,-1325,652,-2145
109,-84,-57,855,-2488,-5570
-12,44,55,240,-1927,-5912
-22,59,-35,1574,-3061,-5962
-13,-123,18,1000,-4366,-6603
-97,-44,-97,452,-3766,-6097
106,60,113,1455,-1270,-4081
13,-29,-114,1398,1222,2174
-57,-9,-8,-743,2400,9578
-54,-72,83,41,2459,7097
11,44,-1,-1282,2939,5893
25,76,-97,-735,1381,6154
84,-95,124,-1958,366,2544
-43,-47,-86,-1189,-3345,-1306
76,-51,32,-1548,-5169,464
-37,-70,90,1266,-6191,3927
-17,-56,-45,2132,-4179,4291
-39,51,66,-2739,-4423,3553
-116,-9,70,-1318,-1906,4515
-102,-56,76,2774,-3834,6298
-127,-50,15,3556,-1870,5103
34,115,65,-2013,263,1733
93,-53,-16,-1231,-338,-910
-58,-64,28,2283,2873,-4062
104,-45,-17,138,4486,-4425
9,-127,12,455,4838,-3684
112,-128,11,1118,3295,-3225
114,91,121,830,3405,-4499
-104,18,-14,1198,3548,-4829
29,18,114,8,848,-6073
-104,57,61,-305,-1748,-5573
-48,117,-38,1785,-1935,-5130
-98,5,-43,982,-1476,-5388
0,-71,-66,2835,2814,1039
83,-10,65,-179,2786,6934
-64,-111,84,1171,3519,7391
-66,51,-52,714,4375,6886
-32,-77,66,-1405,3493,6981
-38,-123,-19,-2146,1670,4111
-89,-115,69,63,1108,-314
33,91,-44,313,-2279,-4829
-117,-47,54,249,-1232,-7527
-46,-52,-13,310,-2676,-6680
-120,59,42,2409,-3758,-7451
9,-55,-110,1721,-4258,-5322
-96,-75,-83,-862,-1984,-6740
53,-50,-107,3301,-73,-1387
-27,23,126,-2158,2452,2656
-9,58,29,-1715,1117,8787
-89,70,71,753,3911,7899
-126,120,66,1265,3654,6955
-65,82,104,-1378,2920,4432
-1,56,22,-1542,181,1222
6,-95,59,-3482,-4448,-2920
-16,51,-31,-885,-7125,-181
109,-101,37,1790,-8447,3130
-39,14,91,477,-6081,4814
0,-1,121,977,-5090,5322
95,-101,0,341,-667,3919
83,-63,38,2541,-699,4492
-93,15,-50,1063,-817,5444
-66,-109,-61,-621,225,4821
16,-27,-127,-235,-1501,1914
-29,59,8,842,3716,-3736
40,90,43,2035,3456,-3967
-25,114,-76,-895,4251,-4159
43,77,14,879,3605,-3877
-26,-74,-23,-386,2890,-4748
43,9,-108,-30,2907,-5233
-93,58,-106,-529,-189,-5260
87,26,-71,264,479,-5144
-93,-97,15,2199,-1176,-4025
49,-111,62,1177,-1717,-4519
78,-77,-30,2576,-2455,-4277
105,-89,-73,1954,539,-2919
8,13,-96,-254,2907,2143
19,39,-12,-15,2188,7868
111,119,-71,-263,3413,6482
92,-106,-22,326,4099,6630
80,-91,-100,112,3813,6698
27,-28,-91,-1844,3124,5465
-56,110,-64,-17,2926,926
8,71,-104,2124,-2208,-3625
32,-36,47,601,-3841,-4870
76,55,-9,259,-4610,-6164
-116,-124,52,2472,-5285,-7063
88,0,-7,-549,-3503,-6106
19,96,100,1082,-2999,-5362
-106,106,-101,618,-273,-3987
-126,-6,-99,794,2874,1963
-17,7,24,-1234,1757,8040
77,-110,125,38,2692,6792
-58,-102,38,-597,3084,5464
-19,-79,-88,-1094,1090,5314
-117,18,-40,-2001,-13,5019
123,72,28,-2937,-3806,-249
-16,-107,-48,-2522,-4735,-903
21,66,74,1037,-6405,933
-39,58,51,1170,-5073,3671
-108,-53,-33,713,-4682,3831
-70,98,-26,-1521,-1872,3706
-57,-51,95,1816,-1459,3541
-29,-43,54,2391,-1689,4105
-120,-30,81,1451,2568,-3196
-19,-83,19,1529,3062,-3098
58,-125,-101,1848,3075,-2785
98,4,-113,1202,2964,-3837
-108,-17,64,2150,2892,-3157
-80,89,-18,1392,279,-4882
-54,52,-25,-498,-252,-5093
-109,-60,-55,879,-1927,-5850
37,-47,-93,-117,-3414,-5922
-109,62,-7,1295,-3424,-5350
-19,4,-21,716,-410,-4741
-36,-22,-109,1691,2010,1654
-102,28,-128,-143,3908,5884
50,28,98,-362,4211,8764
70,77,-33,691,4751,7228
4,-37,85,-1616,3269,5375
122,86,25,-3829,579,5071
34,86,-10,-468,2150,-123
-12,-111,61,2468,-2010,-2088
17,78,-82,407,-2360,-5705
48,26,-33,-128,-3572,-5998
11,66,29,2424,-3864,-7764
-10,-2,-55,-2,-3936,-5681
5,80,7,1084,-3083,-4555
-18,7,42,600,-1375,-4130
116,-45,-125,2060,1995,622
-109,38,-101,235,2538,5771
-49,109,-52,1739,2178,7044
19,63,40,1083,1783,6099
-22,20,56,513,412,3844
121,-2,-29,59,-2363,5103
-36,16,81,-1658,-4938,4964
-32,-5,5,-930,-3192,4891
-110,36,-22,-1683,-3808,6323
51,104,31,-985,-2000,5067
-96,9,18,444,-2063,5810
-12,108,15,891,-2240,4665
29,1,-56,1231,-2644,1165
-128,-34,18,1025,-1186,-610
47,24,-50,1154,1240,-1363
