AccX,AccY,AccZ,GyroX,GyroY,GyroZ
1,98,-105,2888,2040,-4119
88,121,-98,7961,532,-4705
17,-1,-92,3018,107,-4133
75,-110,-116,2625,1091,-4179
29,121,0,3040,-458,-4417
-44,-115,-65,2221,-348,-4802
-72,74,115,2000,-73,-4449
-43,23,70,2647,-1054,-4266
-68,-45,-40,1460,-1961,-2535
-116,-32,-118,-456,-6260,-3259
127,-51,38,-3466,-5126,-4100
-15,112,41,-4498,-2470,-5749
-15,87,-30,-22,3865,1197
-12,47,-86,-51,2105,9511
36,-54,-123,2567,5636,6709
-123,-17,-5,-2432,-3000,-4907
-52,108,-35,1369,-8556,-6703
-76,119,-70,-758,1191,-3901
18,108,28,152,4035,8864
-45,-75,-124,1599,7043,8575
-94,116,71,-3408,4089,1977
120,97,43,-1621,-6718,-11305
-42,-21,102,4231,-11857,-4661
-59,65,-108,56,-2185,1250
-40,84,125,387,226,7774
80,16,53,212,-2011,6823
31,80,93,-187,-4321,5345
44,18,-28,-5059,-3572,5100
-75,-19,-125,-3618,-4219,5718
-92,31,-85,-4272,-6118,4058
-8,-123,48,-1275,-3074,2157
-16,29,-61,1913,-1311,2316
-11,-19,95,2199,823,1655
-27,-58,-99,2548,-815,2642
-120,36,120,1888,-2762,1616
18,78,-90,710,-2175,-904
-12,-26,-49,499,-227,-2177
-3,-110,-56,-293,1534,-1985
-2,51,113,-508,1598,-1186
-30,44,78,-341,257,-562
38,125,-77,-4585,3016,-2635
21,103,-92,2497,1437,-6506
-111,30,74,6551,1730,-6862
60,75,126,5034,6682,-8340
102,18,117,5618,6589,-6829
-83,-119,105,5319,5210,-5369
88,57,106,1080,-2744,-1940
-49,80,-84,-4774,-9047,-7388
-124,-55,-99,-2737,2185,-7955
100,-82,-56,2435,4829,11633
13,2,66,3870,4405,6170
2,-74,25,-5255,-8512,-7696
44,-58,57,-3722,-7356,-9655
52,71,32,4020,6726,6616
-104,121,121,2482,8350,10606
-13,37,-85,1882,4441,-279
-120,-62,90,-8172,-14787,-6987
-95,108,-53,-8214,-15010,-2164
-68,-117,118,5200,-4382,7231
104,-88,-12,1431,-6553,8739
59,-42,82,-4964,-4131,5297
-24,29,59,-4314,-3674,5128
-10,112,39,-730,-2801,3097
108,33,-115,3185,-2497,1448
-7,67,58,1846,-1415,120
-49,32,37,2031,-1607,-5
-119,40,-24,1546,-7,108
-10,-12,-90,816,-319,-487
-26,-75,-91,208,-267,-284
-13,-118,-91,-474,227,45
5,120,-116,-463,427,-81
18,108,120,-160,305,-435
-13,38,92,1204,-237,-765
-18,42,95,585,-269,-372
-15,63,-127,-472,-193,557
22,77,102,-323,356,444
30,56,68,238,-54,-84
9,19,55,599,-928,127
10,16,87,399,-802,203
25,27,117,-230,45,90
43,-12,26,3638,2277,-3621
-21,-110,55,4533,2180,-6493
-128,-87,105,4734,2725,-8149
-75,37,-51,6366,4560,-7716
33,-63,89,4337,7286,-4914
-120,-75,-128,3998,7076,-941
39,18,-24,863,-8266,-1580
57,-64,26,-7706,-5441,-9535
89,-52,114,2896,3510,804
-118,-76,-85,3415,5103,10804
-40,94,45,-1855,99,530
64,34,73,-3209,-8327,-13243
51,-124,116,752,3706,-2963
89,117,95,1988,4615,15553
-47,31,-39,2753,7207,9406
-67,-118,-43,-7095,-10548,-12820
-67,-111,86,-6474,-5041,-9741
38,10,125,-2677,-16091,-2408
-58,-48,92,8830,-1338,8135
25,80,113,1337,-3978,7090
-1,-44,-94,-5271,-3306,6428
51,-38,-60,-1736,-5003,5053
-85,-80,43,-788,-3135,4057
-7,33,-64,114,-2578,4299
94,50,120,-603,-1271,2794
12,35,43,1088,-1119,1255
-87,-5,-26,1896,-1528,541
115,39,-44,950,-575,213
24,3,-92,515,-69,-1103
3,-86,-110,604,211,-1689
11,97,-109,284,429,-1525
2,39,-124,-247,455,-877
-7,25,115,-200,94,-333
-1,43,106,-141,-359,10
16,57,120,-364,102,-220
25,59,113,-602,442,-249
25,28,82,48,-169,179
36,48,90,216,-294,211
68,57,98,130,-186,234
63,77,97,-104,-262,42
72,53,114,1434,2439,-3698
-13,99,6,2414,2606,-5174
68,-108,98,1597,4216,-5959
-55,77,63,503,4633,-6095
-120,-117,-21,2336,5832,-2238
97,7,33,5874,7717,231
-72,69,40,8877,7151,2100
22,-9,63,-3317,-6478,-4052
106,106,-28,-6811,-7087,-7644
-51,-118,-73,2039,3931,-2115
-113,-93,-33,4464,4268,9097
-68,-46,-57,6778,5348,9019
-28,51,6,-5332,-2227,-6376
19,-44,125,-6118,-9727,-12214
-77,7,-84,3276,7965,-570
115,20,-56,2975,3399,12412
-63,97,18,597,4861,7350
-120,-89,-5,-5915,-8314,-10509
-71,85,-117,-4221,-7774,-6489
-38,126,119,584,-11763,1163
0,96,-119,3680,-7599,6070
-68,3,123,1779,-5254,7249
47,17,12,-3713,-4988,6845
-74,-66,-117,-398,-3313,4870
-118,-47,-29,-372,-1436,3172
30,116,101,1571,-1396,1600
-65,74,83,104,-1078,1455
106,-10,2,1060,-576,764
56,-49,-41,1914,-764,594
23,-75,-97,2467,-993,391
-25,-80,-120,1538,-622,-705
-30,113,-92,315,-113,-1076
-58,23,-105,394,86,-396
-54,37,-117,-387,402,-32
-51,38,117,-633,180,58
-37,31,100,-370,69,-10
-24,34,97,-323,123,-214
-13,17,91,-269,45,-183
-13,7,87,-59,-140,-60
-7,7,93,-10,-204,10
-104,49,79,652,2745,-6656
110,86,57,-354,2625,-7466
54,-79,-94,1474,6293,-7363
-74,-51,-3,3038,10117,-3774
37,-27,-73,2838,10235,-161
119,-42,-30,7410,5895,3088
112,-34,87,-2604,-11184,-3722
-35,66,38,-7488,-6927,-10680
9,125,-79,4061,6344,3680
-96,-124,-58,1167,5749,14030
-30,-17,-83,2070,964,341
-9,50,-50,-8049,-8669,-14662
-49,-21,-108,-4380,1230,-6982
-27,28,-104,8597,2100,14320
12,67,-48,4952,6445,10732
-77,124,1,-1702,-7041,-5495
-62,-79,126,-6592,-7952,-5207
-120,-59,-96,-4667,-13321,1267
-83,-81,-62,3580,-1474,7643
79,121,-40,704,-5821,8345
-41,-120,-87,-3476,-3150,4328
45,36,107,-4816,-3569,5201
120,43,-70,-1551,-3402,5725
-3,102,63,3052,-2589,2908
-111,107,25,2141,-1715,-612
123,37,-14,2003,482,-1436
25,80,-88,2499,1695,-818
66,35,101,1837,2113,347
58,1,57,1014,421,1550
32,41,62,174,-1120,1751
-7,53,107,35,-1919,986
-19,43,-100,220,-1244,98
-20,41,-85,-91,139,-574
-17,14,-101,-407,773,-681
-9,-31,105,-302,506,-553
-10,-37,93,-158,-150,-177
-5,-30,99,-169,-386,-118
2,-25,113,-264,-162,-217
11,-30,114,-269,53,-204
14,-35,104,-240,35,-46
80,-125,-52,-405,6841,-8038
127,-6,112,5612,2959,-7228
-57,-16,-115,3786,5839,-8208
45,94,35,3364,7780,-5987
12,90,30,3221,8360,-1360
41,-55,-6,5302,4562,3147
-11,-50,-117,1104,-6319,-934
101,74,0,-6326,-6226,-9530
-88,109,-47,-387,2086,-6161
-16,-104,117,820,3307,10943
-53,-28,68,2927,2787,9568
73,-47,77,-5799,-1950,-9333
-116,112,115,-164,-6384,-11392
-78,-57,-25,4232,2952,3115
98,-43,-107,1094,2152,9692
-107,-84,114,2740,3598,7536
-7,-65,115,7,-72,-4543
8,-23,-74,-4629,-8210,-3899
-30,2,-88,-5471,-14075,1672
16,-54,11,-2317,-7551,9500
85,-56,-3,-46,-7465,9716
0,-19,-105,-3674,-2083,3893
27,41,72,-3604,340,5290
52,66,100,-80,-2521,4095
8,58,69,1091,-2806,1017
-68,19,-90,4173,-1573,-1148
-57,-49,-96,2714,-979,94
-102,-49,-107,469,-953,2108
9,10,89,192,-594,-562
-33,-57,116,530,-428,-1851
-10,90,-113,628,350,-1260
9,92,-124,-824,915,-447
-5,84,94,-900,539,-200
3,77,75,-510,161,-184
34,81,84,-498,331,-252
38,73,74,-282,78,-151
26,74,73,-129,-170,-61
44,88,87,-528,53,-69
57,79,88,-369,57,45
68,87,87,-332,21,82
-86,81,-58,-5329,4624,-1373
-44,-5,63,-621,4630,-6199
-71,-81,112,2812,3642,-7147
-105,125,76,470,6862,-7269
-89,-97,-122,2480,7517,-5770
-10,89,36,3692,11137,478
-2,-102,-128,4968,9778,2952
-124,-78,-48,4944,3567,2294
-5,70,-117,-6457,-13124,-8347
11,41,-114,-9768,-2699,-12134
-30,-47,-11,5818,5030,3261
-119,-86,60,846,4714,13705
28,-64,-18,7495,4009,9347
-100,-104,-40,-8965,-11113,-16961
-121,-72,-90,-5304,-3566,-13026
-21,-74,29,8562,787,11588
112,-121,31,3877,3114,13839
60,0,65,49,2181,2758
-86,107,-56,-5817,-4006,-4215
-45,113,-28,-6004,-8340,-966
0,123,60,-716,-7856,4049
-78,27,-9,-625,-6280,5800
89,109,-34,-1545,-1224,4702
2,77,10,-4005,-4933,3410
96,-111,-66,-2399,-4175,4180
93,13,-77,1017,-2784,2371
50,-65,100,3740,-1279,1336
126,86,-35,5667,-99,1429
-17,94,52,5049,-370,2779
-127,-10,103,446,925,1709
-42,-30,127,-1440,145,-692
-66,81,112,-776,-409,-2084
-36,-36,125,865,-337,-912
-23,-38,-124,593,23,-139
-33,-6,123,-407,-190,-383
-39,6,127,-1050,-71,-573
-27,-26,122,-769,37,-541
-28,-37,122,-415,-89,-182
-16,-15,120,-520,17,103
-1,7,115,-808,169,97
5,105,102,1586,1054,-4578
19,38,-84,1603,3256,-7700
-82,90,-23,2588,-465,-7707
-112,58,127,1286,83,-6982
117,69,-64,-31,1777,-8653
-10,92,98,-382,4772,-8009
92,-108,-3,1301,7095,-4693
12,-76,-75,3398,9805,3209
-53,26,83,6333,8911,5409
122,-59,-12,-5505,-16510,-6054
83,-25,-100,-12956,-11397,-13166
-56,-120,-86,6318,7023,1945
-22,-61,37,-418,3940,15261
77,108,41,3376,-72,-368
81,126,81,-6240,-8245,-12790
-27,-68,113,-7156,-1827,-7226
71,-36,127,11061,-1321,13410
-84,53,119,2957,2694,8981
123,-38,-76,-5936,-6916,979
101,-63,118,-1899,-9118,2009
-58,113,-52,-751,-3210,6016
-84,-42,15,-21,-4614,6230
25,-39,7,-4821,-2866,4207
22,41,37,-4333,-3116,3061
105,35,-52,1215,-1810,2816
-76,11,34,3552,-1850,2119
-16,15,-15,2171,-2479,2125
-37,75,-19,1505,-1835,2964
49,-58,-85,363,-613,391
-17,78,-47,214,705,-2030
3,-111,-68,241,2212,-2534
56,-126,-92,-2160,2834,-1903
39,124,67,-2835,1600,-748
4,115,53,-600,-626,430
37,-117,103,293,-783,331
68,-70,-111,-184,-154,-306
56,-86,-118,-681,387,-489
50,124,126,-14,-213,169
54,-118,-126,107,-357,179
68,-109,-116,-35,-40,0
94,25,68,-2352,3439,-2828
-113,-61,16,2997,5368,-6827
-17,110,101,2355,2562,-5757
121,79,100,825,-584,-5374
-126,-116,109,1033,5137,-7094
26,-93,-39,1078,8649,-4591
-122,-15,116,3776,10202,313
-122,-66,75,4906,8383,2033
77,92,63,-3163,-14133,-5917
18,-83,-114,-13570,-5861,-10266
106,-14,-89,7123,4596,2136
74,-116,11,3034,7279,8418
-107,123,118,3965,4940,4138
-35,-52,76,-4575,-10460,-11735
-98,11,-48,-7552,-5591,-8469
-67,11,-106,6200,-285,6320
104,52,65,5129,-1010,6208
-42,-78,-35,-1112,-3221,3441
72,-105,50,292,-7719,2860
101,-40,-55,-1421,458,836
-62,-112,-108,-176,-1694,3298
-66,13,-57,-2,-2101,3038
-59,-20,-49,-2349,-2263,2574
-45,-116,-3,-363,-1319,2197
-8,98,-84,600,-450,999
-30,109,117,-857,-1046,1038
-51,-22,53,-367,-1415,1418
-10,-28,80,-765,-1048,1849
24,-47,43,-153,-841,2060
27,-69,-11,-266,-1524,3264
41,-74,-30,-70,-1712,2728
9,-80,-33,-58,-1592,1253
-15,-105,-17,903,607,-924
-28,39,-48,713,273,35
-48,38,-109,153,-138,339
-55,33,-120,42,-222,-47
-23,-3,126,71,83,-271
-9,-14,-124,-205,-326,89
-3,-9,-99,-99,-309,-23
1,-5,-67,-20,-155,-197
-8,-82,41,843,2205,-4284
31,-18,-107,810,3438,-4643
-9,-64,-47,1675,5298,-4939
-77,77,38,2082,6691,-4169
-21,-82,-12,4759,8815,-1747
-45,-111,-119,6496,6101,1055
87,111,-72,-738,-1729,-174
-10,116,34,-7485,-13509,-8138
72,33,90,-9877,-667,-11132
56,13,-61,7632,7197,5133
94,-78,107,1340,6283,15651
-50,75,-31,-2405,42,-7557
91,17,-75,-10385,-7745,-13736
28,-23,-73,6064,278,8106
-14,-46,70,4671,1751,12630
98,-46,17,8759,5030,7333
109,-100,70,-5328,-7894,-5765
32,-100,46,-10875,-4290,-3877
120,-33,52,33,-8939,2892
-51,34,122,1506,-5035,6535
22,-89,92,139,-5697,6824
45,-86,-31,-7807,-2523,3779
10,-18,105,-3922,-3865,2150
103,-4,4,960,-3363,4147
-86,126,-74,375,-2304,2720
80,95,-116,-627,-839,1701
77,-30,26,1045,133,1814
71,-22,-30,1058,249,1029
21,-60,-79,637,-527,350
23,-86,-76,480,-481,517
21,-75,-81,-100,-35,142
-19,-91,-98,-327,-22,-491
-22,114,-102,72,95,-636
-9,86,-106,41,202,-551
-10,69,-122,-71,222,-470
-2,42,117,228,132,-407
8,38,110,-11,151,-235
15,39,102,-275,83,-19
20,39,96,-276,-50,48
30,37,99,-58,-120,94
-75,78,79,3022,3826,-6401
-82,-5,-103,3345,3091,-7012
115,-40,-9,3270,5457,-8384
18,123,92,1610,6451,-8102
-40,0,-125,3832,10904,-2118
-95,123,-120,8074,7027,1227
-102,123,-93,-6826,-12811,-4630
84,-56,-123,-9657,-6065,-8789
66,122,-42,1416,5640,717
62,-103,104,2978,5346,12310
-3,-61,-11,7559,1341,8254
-73,21,-72,-7976,-4145,-11411
-57,-13,1,-6097,-6601,-10895
13,26,-90,5092,1117,8047
-121,61,24,6112,615,9215
60,108,63,-3480,1507,665
-79,57,-56,-3249,-5336,-1923
-77,107,122,-3147,-8165,2289
-11,1,127,307,-5269,4576
-96,1,-34,-2919,-2204,3512
-112,30,42,-6107,-2896,1990
61,74,45,-422,-2675,4112
118,97,49,-456,-2688,3034
-120,-118,-91,-2070,-3032,1436
118,56,-123,-2033,-2213,1524
95,-10,65,-1251,-2477,2421
78,24,48,-213,-1211,1575
39,39,16,570,-202,-50
6,-21,-37,1155,540,-1452
16,-76,-59,32,916,-1331
11,114,-102,-594,1023,-794
15,108,113,-827,593,-300
7,106,99,-525,-110,-61
29,118,114,-247,-23,-105
51,-127,126,-581,284,-111
44,117,109,-121,-73,-17
51,107,113,216,-198,22
68,115,122,-53,-69,128
74,124,111,-134,4,5
81,115,103,-155,-47,-48
66,-95,-27,604,3019,-5569
75,37,22,2252,4530,-3951
27,-91,-118,2393,3125,-6792
-117,-121,-78,2298,5528,-7972
28,94,21,808,6202,-8151
86,117,-34,-708,11325,-3043
114,-125,-39,2664,10796,2519
-47,-107,65,8147,12613,4134
3,-58,-64,-4050,-22118,-8134
-99,-30,107,-21999,-8529,-16994
-94,-88,-118,10907,13362,15940
17,-39,-36,4539,9447,13864
125,-54,48,1060,1382,-2908
-73,59,21,-13458,-13357,-13242
29,-18,124,-7547,-13539,-10231
78,-127,112,10260,8176,11948
-98,-98,53,15039,-3381,5174
66,64,-36,-2120,972,5362
49,84,30,-4333,-4720,3832
-29,-64,29,-2011,-1788,2995
-64,-78,-109,5394,-2891,9590
116,51,-105,1477,-612,6918
14,121,119,-5765,-241,3985
-11,104,11,-5035,-1888,5327
101,101,-10,-1513,-2912,5343
-96,-89,71,454,-1293,3218
60,-13,52,832,258,147
90,127,20,853,749,-798
89,-69,12,-1654,1459,489
-6,-64,-115,-1089,741,-680
-40,112,119,433,43,-1669
-50,-5,105,2526,-774,-855
-37,4,-127,1627,-468,13
-11,54,-88,-905,441,-172
-6,22,121,-1323,332,-187
-7,-9,106,-148,-254,-63
1,3,-128,-37,-149,-21
21,9,-126,-168,131,90
28,15,118,-435,19,245
33,26,117,-438,-67,361
-89,-122,30,-4881,3614,-3670
-40,26,127,1665,6410,-7727
-44,8,89,3899,4123,-7069
118,-30,-94,1918,7594,-6566
-86,-22,33,4369,8421,-4263
-5,-112,-99,2769,9153,-3303
-64,69,-61,5971,6834,3931
113,-58,45,3774,-14933,-1938
-15,19,122,-9390,-4964,-10810
-59,43,62,4302,4038,5535
-107,-11,-58,-314,4628,11586
-70,125,12,6341,2340,6613
48,-88,-119,-9135,-9771,-14444
54,-87,-37,-5513,-4759,-10048
-105,39,-53,8019,4652,9821
46,-72,114,3944,3353,11095
31,-58,47,-2194,-4100,3600
92,25,69,-7761,-4975,-857
86,-105,122,-6540,-3315,634
110,54,-55,-3287,-6980,5738
77,69,26,-3061,-5123,6388
-84,-84,42,-1936,-3656,5061
70,-76,75,-3886,27,3714
-37,-59,32,582,-2597,1930
-2,-13,78,706,-1583,1174
-52,49,45,39,-992,1547
74,89,-33,385,-499,-384
29,-6,-58,1273,-180,-1991
33,-125,-74,1259,594,-1808
46,97,-101,193,1044,-1183
50,119,114,-1504,1143,-758
33,104,94,-1747,87,-307
46,61,111,-189,-214,189
53,90,-118,-231,-49,31
72,124,-104,-528,203,-62
75,103,-122,76,4,37
87,108,-125,-32,15,-11
96,102,112,-77,33,46
105,87,100,152,-207,109
108,86,114,92,-97,96
65,15,-10,1766,3811,-2089
-121,106,11,2050,2769,-1740
4,-40,-4,-105,-963,-1545
-111,86,14,155,2426,-2729
-107,3,119,2964,1652,-4954
120,-115,-59,325,3954,-5709
-26,-30,1,2674,5339,-2830
-91,84,-86,4232,7212,99
50,64,35,4982,6612,450
-19,35,7,5856,3847,490
104,-40,-7,1701,-6317,-3490
-24,70,-120,-8238,-9566,-11050
-81,-12,-8,-5177,418,-9750
-75,-91,61,3689,3682,12321
-47,-106,-63,2093,5813,10710
-51,-2,-20,-4075,-6979,-9538
-17,-97,-40,-6659,-2227,-9608
-119,-39,-21,4236,1576,8643
95,-36,-43,5685,3471,11250
91,32,-51,-2339,3713,-1614
12,10,-23,-4633,-8761,-4719
16,-68,66,-4057,-10915,-4545
-42,57,46,2220,-5378,2120
-116,21,53,-1421,-5366,6041
-22,100,33,-1665,-4234,5911
103,117,73,-3699,-1941,2727
117,-72,47,-2308,-2076,2199
37,35,-24,512,-3467,1123
59,19,-113,-455,-2348,1094
69,28,-122,-1017,-824,662
97,25,-119,-1103,-139,771
82,42,77,-71,1113,-387
-1,-41,-18,1247,238,-1080
-28,-89,-69,238,364,-459
-22,-100,-104,-47,201,183
-23,-107,-126,173,-203,238
4,-119,-114,-44,-366,48
7,112,-101,14,-294,101
27,98,-83,-53,22,80
34,75,-110,431,-46,271
17,120,58,316,7073,-5664
40,-63,68,3313,6278,-3816
-45,116,-70,3470,6842,-3225
-113,126,-86,4483,7110,-2646
66,19,-82,4998,7525,2461
58,-33,79,7704,5436,2907
-14,-86,-105,-2067,-6953,-5728
-31,101,106,-10129,-3895,-12905
-108,103,51,-619,950,-6658
-63,-28,101,3269,3768,7262
77,-4,95,-1342,4594,12058
68,-128,-114,5311,1089,5254
-57,63,-65,-7063,-9049,-15337
27,47,78,-2993,-711,-11178
29,-64,-59,4483,2414,5697
-72,122,-53,-624,3103,10099
-95,-90,98,2113,2773,10619
67,-1,119,415,1253,-2893
80,-127,30,-6141,-8354,-3832
-27,-77,-126,-5483,-12091,-3741
-39,-33,-84,2365,-2224,3863
-83,90,-48,594,-4330,5406
-40,25,-22,-2292,-3860,4986
66,66,-45,-3591,-2394,3356
50,-96,-34,-1532,-3000,2559
42,115,-31,-1300,-2548,1611
50,59,-28,-1138,-792,998
-12,-78,102,422,-881,1875
47,-46,17,762,-105,1815
66,-29,-37,52,-328,1873
42,-2,-43,-787,-660,1545
13,-33,-61,175,-703,551
-12,-64,-67,452,-495,-515
2,-81,-42,-380,586,-969
4,-124,-77,-781,913,-811
-9,78,124,-407,573,-567
0,76,110,-263,179,-283
14,87,114,-469,143,-204
28,82,111,-430,211,-147
29,72,102,-81,-61,48
-5,1,108,998,2538,-4137
-13,74,-60,1407,3590,-4797
-119,-42,6,1888,5818,-4416
-31,17,-57,4698,9688,-3
-125,110,-71,7206,6803,2610
-52,84,-110,-5348,-1822,-2906
-29,-64,82,-4424,-12131,-12166
3,-22,118,-3094,3439,-6356
-83,-95,107,5609,4092,11697
118,94,-91,8923,6804,13174
117,27,32,56,-3370,-5779
-105,-51,16,-14322,-9919,-14350
-115,-85,-64,-6990,-2626,-4906
-109,59,-63,12047,-2015,9903
81,-87,-122,8172,-2192,7229
-41,3,-114,4688,-7178,3854
-48,50,-51,-8208,1174,1879
-36,93,35,-344,-823,2054
-96,13,-99,-1409,-5380,2836
98,-92,19,-1918,-1549,3009
70,-110,-67,-539,-2255,2307
-121,90,-89,-587,-1790,2020
99,68,-123,-749,-1695,1684
73,52,-92,-1449,-1047,1984
52,20,-128,394,-541,1501
12,-31,57,1920,-417,1335
-11,-91,-34,1428,65,510
-13,-97,-36,59,220,-259
-7,104,-71,228,-14,277
-14,63,-96,1181,-409,290
6,65,-66,643,-212,68
5,41,-57,191,-201,-204
-1,0,-48,239,-164,-494
1,-25,-47,-93,23,-113
8,-8,-56,-784,176,-51
30,-10,-71,-427,356,-6
43,-13,-103,31,87,121
58,-11,-95,256,-120,189
58,-9,-87,289,79,-147
54,-24,-91,-125,259,-94
-64,82,6,4681,524,-4119
26,-79,-65,1217,4227,-7611
-69,-85,-4,2589,4476,-7257
-88,-111,99,4304,5879,-5882
92,106,116,2797,6914,-3930
125,-12,61,2256,6999,-16
-14,44,-78,-12357,1016,355
96,56,126,173,-7179,-12091
-46,69,-55,-6429,702,-10549
101,34,-47,4323,4913,2903
60,-89,65,225,4912,12676
-23,38,-73,7814,680,9367
74,-11,33,-5572,-6467,-12346
123,-53,114,-4579,-6457,-11181
56,1,72,3813,1625,3918
72,-84,87,7175,-3584,7256
-122,-94,-30,-2488,-2130,3971
-128,-48,-85,3239,-5223,729
83,43,0,-2242,-1530,5575
-68,-20,126,77,-4658,3321
-75,-17,33,-2613,-1234,3226
37,-31,26,-2199,-2737,2086
104,-78,67,-367,-1536,2661
32,86,-16,1193,-3078,2737
102,65,-35,606,-1452,796
50,65,-102,-1631,-359,410
-32,-40,35,-572,-209,-79
28,-124,6,426,212,234
-13,126,-50,626,-570,223
0,-104,6,-752,-68,334
16,123,-42,-80,497,314
27,-105,-111,-676,-38,-724
51,90,-66,-733,46,-488
23,63,-59,248,19,-117
55,84,-65,-165,426,124
45,103,-91,-644,-39,-429
104,50,-69,-141,-95,-137
-119,75,-101,697,280,-1367
108,18,118,504,-386,-678
49,17,-36,-365,6,241
57,-98,-120,-574,3257,-4732
99,-46,-126,1900,5542,-4725
-68,-110,-29,3145,8330,-3751
-3,-123,-38,4253,8411,-2032
30,96,-124,2390,6330,-110
-54,-101,86,6439,6521,3305
32,-33,-89,-362,-15171,-5326
71,72,-86,-10243,-2061,-12836
79,-95,-82,1977,7059,-3535
-15,-19,118,4091,3109,15192
30,45,-26,7316,6744,12845
-104,111,-22,-1517,-3130,-7772
37,8,33,-13229,-7403,-14245
-46,-25,0,452,5352,-544
127,47,-105,12141,-2220,12534
62,-42,-109,-8,2271,3576
42,99,-118,-3836,-6341,-3021
-107,32,102,-5968,-5901,-728
-70,48,77,-1394,-5672,2546
-13,-21,-42,1733,-4824,5682
-62,-9,75,-2334,-2547,3533
-58,34,18,-2505,-2697,2511
3,65,-10,-274,-3158,3560
-92,-127,57,-1115,-176,2460
72,58,-98,-231,-2000,2502
56,20,114,766,-1319,1075
32,-3,118,60,-623,985
7,-20,69,-242,324,389
-2,-65,4,50,226,158
-30,-117,-59,516,-300,77
-42,103,-46,685,-497,-90
-13,93,-26,-134,123,-273
-7,63,-59,-483,211,-209
-9,42,-82,-179,-54,-79
10,47,-77,-323,181,-161
15,29,-83,-54,94,-42
29,41,-91,-26,264,-29
37,38,-113,-217,20,71
46,40,-102,-179,46,97
53,43,-99,-161,105,61
81,86,-123,3831,2169,-4589
-127,89,-82,4499,4951,-5402
72,-11,41,4670,6444,-4971
-114,66,12,4495,8399,-4401
-29,6,-116,3295,9436,-1164
-120,35,33,4114,10723,3858
-120,78,47,1193,-22142,-6745
-118,101,103,-10211,-3059,-11655
-38,-65,25,3923,9370,1073
59,40,-25,2104,1870,14527
-77,100,35,5564,3091,9958
12,94,-62,-5552,-12592,-16422
-68,125,-4,-4905,-4838,-14694
70,-94,13,4446,-9170,-4439
-126,-108,39,5393,448,2551
-20,-50,67,6048,-3788,4817
-110,101,-21,-264,-1657,8258
40,7,39,1164,-2490,4683
104,123,60,-657,-1307,3537
-2,-39,56,-932,-2525,3063
15,-114,59,-1002,-2371,3528
49,63,36,-144,-2027,2950
15,46,-92,-377,-2723,2285
-2,17,90,-1297,-3110,2667
19,-22,95,-777,-1349,932
-28,-65,44,536,-62,-313
-11,-102,-10,534,1525,-1212
-17,67,-79,983,825,-981
-66,43,-95,505,-522,-199
-51,66,-57,-1111,-228,-276
-22,32,-57,-1169,381,47
-16,10,-99,41,-112,466
2,46,-102,42,-112,153
14,65,-101,-476,152,-163
20,35,-120,37,41,-93
29,23,-125,136,-126,-1
34,45,-109,-437,-80,30
32,37,-112,-180,-33,-33
42,26,-113,34,-78,-59
62,30,-115,-208,197,-67
26,110,39,1515,2584,-4790
-22,34,-81,1398,-431,-5765
72,8,-85,-2277,5780,-7955
-124,123,21,2785,6514,-2950
5,-9,-79,4369,8331,-607
-67,24,-100,3761,9997,-397
-53,-83,-107,-1015,-3618,-4203
73,-116,-51,-3600,-10951,-11407
10,-9,74,-523,8347,-3811
-40,86,65,1475,3075,13157
26,15,-106,3501,5719,14444
109,-74,-95,-1268,4003,-9220
-43,39,-91,-6390,-11578,-12866
29,42,100,-3447,-10283,-11058
-40,80,-76,5690,-78,3513
-49,-90,43,7260,-3369,3881
46,87,-94,-310,-3221,4689
-101,86,123,-585,-3445,4133
-42,110,38,-40,-3058,4067
34,-111,12,46,-2728,3525
37,-37,33,-1272,-3233,2725
-46,48,-80,200,-6317,1192
-90,-128,3,-1225,-2249,1271
39,-46,-30,1255,-172,1209
-2,-32,-126,378,63,1355
-1,-43,39,313,98,1243
-11,-98,-11,1425,-780,1386
-2,-54,14,678,-351,624
-35,-105,7,623,-334,-173
-32,99,5,213,-114,-232
-44,49,-18,-61,-41,60
-34,50,-34,-237,253,-198
-26,13,-55,129,96,4
-3,30,-65,-154,143,-130
2,23,-71,-156,13,-318
27,6,-58,-423,105,-76
27,15,-79,-523,248,-24
32,22,-99,-338,162,-21
35,20,-108,-156,-225,241
56,41,-87,-300,185,-92
-13,35,124,2044,5138,-3680
-79,10,-88,1565,5701,-3550
27,-105,55,2929,7075,-922
17,82,-42,3169,8557,764
73,-24,-11,3099,9682,3608
53,-2,-11,5806,5971,5087
-21,-10,-50,2144,-12755,-6845
54,39,56,-4677,-8612,-13756
-77,-37,49,1580,8874,975
74,-44,-36,603,4367,14089
-35,80,59,6679,5186,14649
-29,-77,126,-4497,-9982,-17249
-120,-71,53,-5049,-7006,-14425
-22,84,-90,1565,-2085,263
-7,2,-9,7683,-2124,5070
26,74,65,184,-4917,3423
-114,89,-102,-1086,-6204,1564
109,-90,-123,661,-776,6063
23,-23,-15,1279,-3988,5339
-101,91,96,-4101,-1479,3402
68,-116,56,-1624,-1280,1199
40,126,42,-1694,-1030,336
-22,39,1,-1115,-1652,-50
-1,-29,119,-204,-4287,-552
35,-67,-116,645,-2373,503
121,-31,-44,125,156,1408
19,-62,37,1951,-414,1335
1,-16,13,209,-1013,-483
0,-119,24,15,-8,-149
-31,15,-48,1223,53,682
-12,92,-47,-14,366,156
40,23,-42,720,-39,134
74,69,49,-715,365,336
83,71,2,-9,471,-137
-7,27,-60,379,266,-214
26,53,-45,-788,60,493
75,91,-47,2,-11,-228
81,46,-44,230,419,-364
76,15,-73,-81,-4,-163
122,31,-54,-662,117,-239
-91,92,59,915,2789,-3800
99,96,-128,733,3227,-3412
24,-21,-47,563,4218,-3491
-59,-104,14,1197,6064,205
-11,-126,-94,4831,6018,2984
-110,69,31,3070,14291,3668
72,36,25,-1445,-21585,-9153
-28,-101,102,-9549,-4005,-12535
-10,81,-92,3126,7794,511
-30,-3,104,605,4860,16158
-21,-111,-24,6187,3840,11669
-14,101,7,-6593,-16105,-16331
125,-79,-109,-4514,-1326,-12336
-36,20,61,5930,2862,8086
-38,-123,14,6248,210,12683
120,25,-85,-461,3961,3039
98,97,-117,-7063,-11627,-1672
24,-36,40,-4241,-6463,1104
-48,-8,49,1933,-6401,5756
51,124,99,105,-2270,4728
-42,-92,98,-5131,-3565,2698
-12,67,88,-1730,-2831,2822
81,42,31,-411,-3172,3969
-50,77,12,-95,-3081,3527
101,113,-19,-934,-999,680
-31,-16,-125,1161,672,-693
-27,-48,8,1120,1836,-1184
-17,-101,-88,774,1648,-862
-11,114,108,163,355,-362
-73,90,-128,413,-1634,-51
-99,7,-76,1861,-2318,197
-38,67,8,231,-228,484
-16,92,-43,-834,1561,182
-29,43,115,275,655,75
-25,49,101,131,-92,-247
-5,50,124,-534,-165,-151
-7,30,125,-242,-41,-2
-7,28,121,56,-104,7
9,32,122,-161,-40,14
22,46,-126,-533,32,-127
16,-110,-44,-1391,4073,-5121
40,22,53,1738,4601,-5529
-39,-8,73,2390,7440,-5286
116,-126,-53,2853,9580,-4087
1,74,18,3503,10303,-658
34,22,-66,4920,10045,2250
82,103,-66,4035,-11556,-4592
-59,-32,127,-9945,-8176,-10652
29,73,-8,1561,8805,-1574
-50,90,-17,5679,3139,11056
48,23,-123,5998,8609,11204
-19,104,85,-547,-7923,-9137
-34,12,23,-5764,-10590,-9641
16,4,109,-2795,-8524,-3369
15,-108,-1,6673,-1081,3266
42,-120,-61,4098,-3804,3656
109,-86,28,-825,-5860,5223
19,-20,73,-417,-3044,3198
93,21,51,-846,-1618,4776
73,-48,66,905,-3166,877
40,98,27,-993,-1824,1350
48,-40,-5,-1221,-2284,2222
-70,-14,1,-863,-1086,3189
116,99,-60,600,-1236,2160
33,115,-123,1980,-718,837
-8,-45,23,3338,-764,825
-7,115,-25,2579,-348,56
-59,108,1,33,-124,-510
-34,43,36,-1067,386,64
-13,41,0,-510,215,728
-2,58,-27,-83,-214,509
-7,55,-42,-18,-505,27
-1,38,-45,-475,-55,-560
2,8,-67,-349,408,-378
20,-11,-80,-89,341,-14
41,11,-84,-131,448,-282
55,6,-101,-311,-69,23
58,32,-102,-852,-33,-166
75,25,-96,-552,300,-181
97,12,-83,16,215,-17
113,64,125,5806,5929,-5420
-112,-61,-69,4025,5508,-4647
96,-62,81,4523,7107,-3053
-78,106,65,3799,8103,-3140
45,-57,25,2646,9092,895
46,-8,115,4920,6176,6887
92,-34,-122,-748,-7305,321
52,-82,79,-7075,-8910,-11566
20,-105,65,-10454,-491,-12462
23,58,51,7824,2392,9528
117,94,119,4897,4276,11498
54,-53,21,2023,2898,-8267
-121,1,-115,-9514,-9430,-10919
-39,106,-74,-5436,-22308,-10490
-105,25,80,8962,7237,9767
60,59,81,7920,-8683,7402
43,26,-38,-3015,-5605,9787
-125,16,21,-6554,-1315,3547
81,88,75,-870,-111,3634
-78,-12,50,-291,-3763,2692
-43,-1,61,-3751,-955,1946
44,54,64,-1708,-3192,2078
117,48,6,-918,-1422,2106
87,7,127,-517,-1917,1751
23,-24,3,449,-1867,469
-17,-44,-25,703,-1114,-771
-33,-92,-32,890,440,-1352
-14,-119,-37,-563,792,-804
-47,87,-85,-549,447,-136
-40,77,-100,-430,165,-53
-12,60,-122,506,16,-59
15,78,126,17,-52,-136
28,78,-125,-441,168,-213
18,46,124,-15,-73,-34
33,55,-124,-8,-51,55
43,60,-125,-73,-32,104
55,67,121,-137,43,-25
60,61,114,-243,112,-72
60,51,103,-153,63,-58
66,46,92,-140,34,-80
-45,112,-6,-1387,2584,-4081
-1,-46,72,-753,4740,-5343
-20,-55,99,-549,7968,-5231
-93,55,-79,2569,7182,-3043
-11,22,115,2576,12108,-80
65,109,-80,6530,11837,3768
48,-28,-6,2003,10615,2802
-84,-75,22,-2053,-24680,-9190
-71,-126,126,-15838,-3929,-14078
70,-91,-121,4634,6636,3964
72,54,7,5983,3309,13509
-27,89,77,7039,5979,12621
-64,-103,59,-386,-1497,-3934
75,40,-105,-8103,-12361,-8915
76,97,-48,-7646,-6293,-7678
-128,54,52,9801,-2773,6865
38,74,48,2696,-5673,9171
-113,-24,-39,-2209,-4037,6619
124,103,62,-5181,-1997,2037
78,-17,36,-1321,-2187,254
67,85,39,-667,-2611,702
106,79,30,-722,-1609,953
80,-14,-67,1677,-1486,209
16,-51,-77,1253,-820,-51
22,-79,-116,-124,680,438
-19,123,43,-251,-318,945
15,-122,31,-588,-224,1404
57,-103,22,-548,488,1023
70,-81,4,-1349,584,968
59,-112,-18,-319,-124,815
55,-124,-7,309,-240,155
59,114,16,249,88,-147
63,42,1,821,9,296
66,66,-16,-539,105,126
75,53,-32,-868,15,-150
122,109,-29,-1976,515,-736
90,61,-60,-675,-136,-563
118,44,-31,-182,344,-286
123,58,-39,-691,258,-207
118,52,-43,-531,241,-358
122,78,96,490,3316,-4114
109,37,119,1901,4587,-3521
65,-35,-36,2968,6075,-1879
102,57,99,4323,7829,510
-67,-123,44,8766,8654,2941
-83,31,-1,10631,6134,-16
114,101,-78,-7986,4741,-4811
-30,-60,-38,-3861,-16443,-10890
115,-112,-104,-14072,5897,-12411
-38,-108,102,8718,5791,10455
-33,94,103,2382,4918,13877
74,-69,-113,1531,6786,-2549
-39,19,-82,-5646,-13471,-12017
-72,61,98,-813,-13348,-11111
124,41,-37,-120,-2940,2355
-63,40,66,8286,-5372,5542
119,39,6,834,-4626,5072
-83,78,-3,-3626,-1888,1115
-116,-128,2,-662,-3780,2763
-122,68,48,582,-3575,1993
-113,-103,55,-2018,-1848,915
-4,-41,65,-1365,-1893,675
37,-101,74,372,-1018,1166
39,-47,-37,-642,-752,1066
31,-50,124,-400,-645,318
22,-100,95,185,-470,778
9,-116,58,742,-239,573
10,123,82,638,-218,324
21,-128,73,-404,587,-193
23,87,14,-672,684,-380
20,32,-43,-231,-44,-122
42,19,-45,-161,-348,221
65,11,-17,247,-203,324
81,-15,0,980,-96,391
47,16,-11,681,258,82
45,13,-45,117,99,119
111,24,-47,-247,486,302
95,35,-79,-63,-208,-130
108,19,-41,-171,-13,-78
97,29,-5,-659,-81,218
72,98,103,2062,4151,-3309
-119,36,-95,3572,6437,-2016
-33,127,88,5259,7981,-181
-110,10,43,5438,9673,1481
52,-107,-40,6254,8023,2868
0,-2,-23,3319,7891,2799
6,-58,-50,-1958,-15982,-9743
28,-2,42,-1537,-10511,-14661
-125,-78,87,-241,9893,1389
68,10,-36,2705,2131,14553
-12,-22,113,5127,5712,12288
-36,-121,-4,-656,-8994,-12415
-64,-10,32,-4129,-9021,-15783
-7,109,-58,1464,10310,6867
-119,126,124,7861,141,14944
16,63,3,-1400,6326,8553
-31,-3,37,-4376,-8177,-6002
-84,65,-85,-8003,-4725,-5545
-124,-73,54,-2413,-12544,330
115,-26,-71,1334,-6927,6846
65,-9,91,-2851,-4167,3228
53,15,77,-6383,-3186,3186
69,-19,120,159,-2505,931
82,-56,28,1533,-1125,1567
100,37,-64,-1969,-573,1541
32,-33,121,153,-1195,1411
17,-22,62,923,-873,932
7,14,69,-107,150,-673
-10,-84,20,113,859,-1053
-3,125,-48,-3,991,-637
-9,95,-110,-204,382,-73
-21,101,115,-558,-365,166
4,99,-100,-301,-340,111
29,97,-71,35,-216,195
32,127,-72,-362,78,-106
33,101,-87,-16,94,-194
40,82,-89,-66,138,-40
51,93,-105,-366,225,-90
55,74,127,0,29,-60
70,78,-127,-136,105,-164
56,-25,86,4054,3651,-4890
106,-15,101,3544,6416,-5103
113,-41,-43,4027,5991,-4751
97,80,119,5367,8308,-4242
-8,-35,21,5117,9309,-1790
-26,-53,3,7848,10924,5875
71,-25,-23,-842,-1779,-215
-96,54,99,-14323,-12653,-15003
90,17,-23,-11816,6385,-14954
3,115,55,9428,2133,13681
104,6,-49,7016,4140,14499
61,-10,-53,-267,2306,-7679
13,-46,-48,-11616,-7152,-11126
-120,67,-117,-6762,-2997,-9846
3,-12,-50,8519,2215,12092
112,63,-45,7156,1570,13187
126,27,77,5590,5507,5616
-3,-48,63,-12524,-7867,-9740
54,-23,-67,-6251,-8770,-7166
-31,-53,95,51,-12544,477
54,76,86,4228,-6727,5435
-45,84,41,-312,-7578,5145
-86,111,83,-5839,-1058,5408
-109,-63,81,396,-2097,358
84,-27,-39,2550,-2953,1310
74,52,-19,-1204,-2015,1755
35,-45,-40,254,-121,1185
35,-66,106,1783,-523,1630
36,-37,38,1072,-321,1437
10,13,-1,-1016,760,-587
-44,-83,-53,-626,742,-1429
-41,33,-82,137,495,-515
-31,68,-100,-669,466,-14
-13,86,-124,-652,24,181
3,79,-115,179,-258,161
22,110,-96,-171,52,-107
24,90,-97,1,71,-149
30,82,-102,-118,98,-32
36,82,-113,-213,116,4
51,79,-126,-156,55,-39
119,-5,68,2171,4154,-4452
-65,36,96,2136,5245,-4340
22,93,-93,4513,6097,-2929
84,-80,97,4843,7645,-1506
90,-87,116,6103,6416,650
114,-20,5,6630,5582,1426
-127,-59,111,-3083,7825,-3815
82,105,-107,-2446,-14995,-10583
97,-116,38,-8318,-7143,-10370
-115,-22,91,2731,8672,2978
71,91,5,1563,2601,12779
-113,-112,60,8313,2366,12257
-93,-56,91,-7242,-13622,-15741
25,-114,47,-6396,-1927,-13165
3,57,53,1461,25,4426
-109,-42,43,7889,-3742,9875
-30,-51,-106,-1852,531,2151
-80,-92,-39,-3189,-4662,-1861
25,118,20,-5523,-5513,-368
4,-126,-73,-793,-7901,2399
113,-12,57,-588,-4179,2029
-39,-93,51,-3970,-5343,1198
92,33,80,-506,-3543,330
110,-15,84,219,-3304,1753
113,18,89,-52,-800,1340
8,-39,-21,1049,-670,1046
-1,-26,-119,550,105,901
14,-18,60,-708,937,448
-13,-75,-45,-294,626,-20
-29,122,-100,-243,61,-370
-19,91,-87,-289,74,-128
-16,78,-87,-118,-113,255
-2,93,-76,-72,-292,189
21,106,-60,-127,78,39
28,102,-74,-114,132,-99
32,82,-92,-26,210,-164
41,66,-109,-53,31,20
46,68,-118,-25,-87,25
54,71,-110,83,-250,-51
70,97,-80,-499,123,-329
-21,-71,77,3298,2106,-3723
-25,-46,107,4775,2544,-3998
124,-77,-55,6733,6056,-5624
80,58,111,4657,6754,-5705
19,104,89,5423,8560,-3772
-105,9,117,3938,11068,659
1,-112,59,367,-12236,-5406
-20,4,121,-6050,-9848,-12308
-32,-50,-71,-4325,10187,-4992
-44,-55,-84,3455,2687,15011
82,-44,-75,2968,4067,12770
-86,70,-15,-1554,-5002,-8072
-30,-125,45,-6206,-5947,-14762
-125,-57,32,-6251,-3871,-6243
-10,-69,-70,9040,-1591,11927
116,0,60,3705,1268,8545
-42,-7,9,-660,-950,1480
84,112,51,-4401,-5118,26
-71,47,-39,-8771,-6537,1296
76,-68,-33,-1851,-4989,2504
72,-39,64,-1798,-5206,4039
78,-125,72,-2934,-4756,3529
-26,113,87,-2780,-3407,3029
-95,20,25,-115,-2479,1837
106,24,-66,791,-2630,1176
77,27,122,1234,645,263
14,16,29,-284,1157,-805
-38,-101,-66,-54,618,-836
-29,121,-80,-584,689,-399
-18,90,-111,-570,632,6
-14,88,126,-105,56,-5
1,93,-124,-181,-43,-17
15,90,-114,-17,-89,23
19,91,-107,47,13,-52
32,88,-116,-101,90,15
37,84,123,-55,80,-37
45,84,119,-260,108,-97
51,69,116,-114,-79,-31
56,73,-126,-220,-18,-51
62,64,-123,-81,68,-61
-52,-39,-2,834,3063,-3743
33,-114,67,3220,3499,-4186
102,6,91,1195,5043,-3641
98,13,-108,1368,5269,-3624
33,79,-118,457,4485,-2583
-50,118,126,304,4659,-2525
75,104,-74,189,4636,-1640
-48,-96,-115,1953,6182,802
-108,-45,67,5222,7280,4544
-31,-128,64,-1131,10465,4854
-53,74,-110,-2940,-19867,-13978
6,-106,-83,-14307,3315,-13940
-38,-47,-30,9499,2339,8655
-113,44,-122,5,5828,11310
-77,99,-100,3755,5131,10210
-60,-50,-45,-4727,-13176,-13447
86,-107,-100,7,-7393,-12552
-56,88,87,-3517,-8159,-2770
52,-22,-8,7393,-2690,7003
-40,4,79,3682,-2909,3335
-39,-45,-5,-2394,-4885,2744
101,-83,-22,-1427,-941,2857
29,11,-21,826,-4805,3309
107,72,84,-338,-3358,2475
117,114,90,-1984,-1578,1820
50,-33,35,349,-2500,1726
106,21,-1,-124,-1549,1323
45,36,-75,-565,-379,327
-30,-51,108,-380,-66,-65
-56,-127,25,-96,-183,193
-50,126,18,124,-292,215
-16,-122,10,-469,298,-70
-11,90,-30,-39,365,-135
-25,20,-63,976,79,227
-9,67,-83,91,296,181
0,60,-95,-157,58,-71
17,41,-104,-107,0,75
26,51,-99,-253,160,28
30,52,-112,-397,-138,65
30,29,-91,332,-262,81
-120,-101,35,4397,2049,-3384
9,-69,105,5162,3041,-4006
-47,124,-40,6598,2593,-4206
24,114,80,5424,2243,-6588
64,-120,-100,3484,4934,-6797
88,99,37,3883,8807,-4195
117,79,-56,1758,12229,49
-67,104,86,87,-20873,-8555
-79,37,126,-13992,-4410,-12273
-111,64,72,5890,7563,4058
32,-123,-13,3062,2711,14369
125,-3,122,4464,2817,9680
122,-63,54,-7370,-11145,-12000
-41,-103,-82,-4648,-6473,-11944
52,44,-8,-365,-8422,1031
70,-50,39,6779,-1202,4789
121,87,110,3515,-4597,2193
-16,-97,88,-4547,-5832,4274
120,125,49,-1550,-1910,3442
-116,2,-29,841,-5240,4521
-75,55,52,54,-3218,2986
-38,44,13,-2164,-1107,2749
88,-50,98,176,-1833,1582
50,-121,58,1390,-1760,550
80,-92,51,413,-93,646
28,-74,10,-227,227,217
-14,-93,-33,-495,207,-307
-23,-125,-50,112,343,-576
-22,98,-87,139,705,-838
-10,78,-116,-209,690,-770
-7,43,121,199,201,-286
15,60,125,-322,214,-271
42,93,-123,-1481,798,-462
40,62,93,-744,358,-338
35,43,97,100,-221,-111
54,61,126,-254,32,19
58,59,119,-10,-109,92
65,59,115,132,-186,86
78,68,124,-177,75,28
89,65,114,-309,230,-78
