AccX,AccY,AccZ,GyroX,GyroY,GyroZ
20,115,25,614,3691,-4498
-70,26,10,392,4496,-5719
-63,103,-79,46,3506,-5409
24,-113,17,246,4615,-4433
99,83,-30,-1,5464,-2875
-107,72,14,-453,3939,574
123,107,39,-1254,1284,1023
-26,82,-19,-2081,-363,1976
72,68,22,-1585,-1387,2331
31,-102,30,-1439,-2413,2055
62,105,58,-31,-3608,1439
-62,28,-7,1493,-3409,-1487
119,-69,-34,2009,-1085,-3740
-88,100,-50,2418,1546,-3371
54,20,-48,1886,2363,-2030
-24,-126,-73,231,2901,-362
-59,64,-95,-592,2193,1413
-48,57,124,-2043,898,3020
127,-123,100,-2092,-277,3136
49,-94,-113,-1668,-1958,3146
14,11,41,-1899,-6275,-146
40,-9,22,89,-5724,836
-108,65,-70,-1543,-8673,3080
-115,-1,29,-1976,-3896,4032
-109,94,31,-99,-6660,5752
-24,-65,-84,-503,-1494,4099
22,-2,115,251,-2341,4345
-42,99,14,1333,-1774,2562
12,-61,-33,3650,-1411,-369
-78,-64,-109,-637,850,-1045
53,-33,31,451,595,-447
41,-66,-12,1580,-211,76
101,-37,-25,789,77,-303
-125,-93,-45,985,317,-929
120,69,-65,1160,114,-1169
88,-13,-75,764,-13,-1011
85,-23,-65,375,-176,-323
78,-2,-63,186,-266,-126
116,46,-41,-254,-115,-20
111,63,-49,-121,-275,82
85,70,85,-1941,3224,-5649
-68,-34,121,686,2629,-5173
27,-17,77,-384,5981,-5400
-5,25,-55,-860,3594,-5729
-17,73,74,-83,4342,-3660
-51,-75,125,-572,3934,-2098
-102,2,57,-578,2968,83
-50,-96,-62,313,1621,1668
-59,80,52,-1673,502,1595
0,40,-26,-2165,-1756,2102
71,82,-31,-756,-2891,1613
-65,52,101,244,-3554,366
-117,-91,84,1744,-3146,-2100
5,11,120,1306,-1091,-3456
-73,-71,-82,1857,1294,-2675
33,-17,-88,2406,2920,-602
-4,2,86,502,2584,-243
-34,21,65,-694,1961,888
105,-121,103,-1669,998,1811
1,-119,-7,-1945,-138,2371
17,71,-64,-1842,-2147,2413
-40,13,-43,-1225,-3815,1072
109,-113,-95,1189,-2764,201
100,62,-112,1278,-3681,-757
17,83,80,1747,-3182,-2210
-12,64,-33,2215,-1604,-780
-84,67,-32,1607,-1869,-147
5,-71,100,-273,-1371,1482
37,110,-104,146,-1777,2394
-13,-89,51,-1170,-3130,3549
84,46,110,-577,-3561,5833
0,-3,-109,339,-3225,4516
21,-12,26,1863,-476,2896
41,48,16,1276,-518,2788
25,43,-4,803,-8,1969
-26,46,-8,203,58,1502
-78,16,-25,12,19,1142
-125,-4,-31,-319,181,704
108,-53,-26,-331,-225,225
101,-94,-41,160,-381,365
117,-20,-116,1626,2940,-5190
-83,-97,49,2008,3401,-5702
11,52,5,-200,2599,-5725
-16,94,-2,251,1806,-5042
68,6,74,-1169,2987,-4254
103,-50,101,-1137,2922,-1614
27,4,-36,104,1978,999
94,-78,11,-1868,835,1680
-67,113,-73,-2053,-588,2642
34,30,71,-1729,-2074,2681
94,-55,-124,-413,-3004,1305
-28,-68,95,932,-2855,-440
-1,-96,-2,809,-1721,-3424
7,-71,-73,759,-480,-3816
26,101,-82,2448,2567,-877
-45,-27,98,-16,2583,150
-38,-47,-1,-846,1743,1433
-53,-26,28,-1767,810,2033
0,-50,-13,-2059,-685,1814
58,108,-51,-947,-1866,2532
-107,-19,-76,-1008,-3568,1543
98,52,-127,369,-3032,-95
19,-127,-80,1832,-2643,-2140
-40,-121,-42,1801,-224,-3404
-103,-126,-105,2077,1524,-2802
37,-101,-80,2518,2071,-551
-37,77,-64,1913,994,285
109,-92,-51,-789,677,1238
-83,9,33,-1161,-920,2657
18,-66,-113,-158,-2033,4149
78,-14,121,542,-3113,3593
-124,-40,114,-1067,-3110,5246
-113,-39,0,-343,-4125,5097
80,-122,-34,-1663,-1662,4525
-13,-84,36,1244,-1586,4546
11,106,-94,122,-862,3942
2,116,-84,-2335,-444,3674
-27,118,-93,-2758,-954,1238
-95,31,-95,754,-784,-385
108,-6,118,1918,56,-1410
3,-39,61,1141,2945,-3091
-38,-114,-61,207,1343,-2054
-15,18,-9,-47,1411,-3660
-51,10,17,-623,2848,-3826
85,-90,-78,326,2171,-4533
-58,93,-97,-531,3086,-4584
125,125,31,439,3174,-4437
-40,-55,66,341,3257,-2947
88,53,-10,112,3067,-1169
9,-53,44,368,1855,580
81,-100,-14,-899,1504,317
31,-43,-117,-1049,-249,1232
94,65,92,-1121,-1839,2188
17,53,-106,-1444,-2994,1522
-10,-29,5,164,-2330,473
82,-86,-47,1432,-1126,-2132
2,-87,43,1361,210,-3293
45,39,-67,1743,1474,-2172
119,-50,107,1226,2166,-661
-32,8,-128,129,1927,403
-61,78,-61,-1404,1285,871
108,-39,-119,-1868,704,1535
-79,-21,15,-2010,-896,2221
-94,97,-21,-1679,-2035,1670
51,-92,96,272,-2189,995
-82,55,87,686,-2237,-275
-114,-67,-67,1359,-2613,-939
-68,-41,18,1723,-1445,-1139
51,-66,92,1510,-109,-3205
-72,55,112,1052,547,-3446
63,-10,-118,-304,1634,-2260
10,80,-15,-959,521,-1081
45,8,10,-446,1106,1893
-85,-56,-26,-593,948,2688
83,-79,109,-1835,475,2721
-86,37,-11,-2436,-1692,2813
-73,-85,-73,-2760,-3715,1224
70,94,102,-1650,-3303,1392
-9,-8,-71,-44,-3536,1680
-31,-17,-27,-298,-3305,2090
-108,-61,-12,260,-3901,3345
-80,-44,-50,-736,-5210,4306
-28,-36,-19,-1079,-5463,3883
3,-30,62,-359,-4056,2644
11,-54,75,789,-484,1918
11,-112,-115,2357,911,570
-3,-121,75,2618,-149,1827
-125,-53,-7,3723,-1702,759
84,-10,55,1247,-906,-260
99,-51,81,-718,630,-666
40,102,8,-229,140,-195
52,94,-1,327,-387,130
98,-101,1,-373,78,-281
126,-97,-8,-567,187,-700
-120,121,-28,229,0,-1048
124,100,-51,305,-124,-1669
-121,66,-50,134,-137,-1721
-127,34,-42,-159,-389,-1110
94,30,-47,-228,-742,-930
64,41,-36,-526,-690,-452
49,62,-21,-678,-452,82
70,96,-4,-627,-270,410
83,-117,2,-401,-335,509
99,-96,1,-106,-234,584
112,-69,0,26,-244,574
123,-44,-10,318,-197,501
-122,-37,-20,473,31,269
-108,-43,-43,279,-27,367
118,-12,-66,-39,-145,362
-127,-9,-65,175,-2,126
-83,-38,-74,458,-174,111
-75,-28,-78,229,-318,-43
-104,-26,-62,57,-285,-282
-113,-53,-46,153,-245,-286
-117,-69,-46,281,-306,-214
-127,-67,-47,61,-291,-247
124,-68,-45,-109,-230,-186
124,-79,-43,-65,-236,-13
122,-66,-48,-166,-206,140
-125,-53,-43,-236,-160,232
-91,105,0,-927,2496,-5211
55,94,122,776,3112,-4640
-52,-107,83,-486,3828,-4906
53,42,40,-67,3670,-4702
-80,21,2,-221,3786,-3759
-39,68,-24,-442,4076,-1747
18,-100,53,-61,1935,-4
98,86,65,-1258,1789,450
43,-121,-108,-2124,-92,1595
-79,-128,91,-1363,-1716,2055
113,-110,-85,-866,-3054,1818
80,-19,-37,475,-2539,386
-44,-44,1,1486,-1493,-2429
126,-22,-38,1473,11,-3302
34,-47,-12,1160,2854,-2512
2,-33,59,1137,2674,76
-91,115,-33,-435,1269,1812
-121,-54,-8,-2146,-277,1831
-125,-13,-57,-1936,-1329,1512
48,-106,-8,-776,-2189,1835
84,-40,114,1075,-2293,60
-77,123,42,219,-1571,-2843
38,-15,80,662,-445,-4068
11,-76,-27,1566,1601,-1774
90,37,10,2134,1441,633
92,34,-9,972,1366,1433
-50,126,71,1102,-179,1900
42,18,-53,-381,-2265,2201
48,-13,87,712,-3450,2353
-115,6,87,794,-3095,3675
-87,-8,110,3323,-3132,2882
-71,-31,-72,306,-1652,4195
-109,-119,-19,-1003,-2454,5310
76,0,84,-1094,-3297,4693
80,5,-1,-724,-1753,2507
85,71,16,1506,1456,1041
-60,-28,-72,4163,-477,2903
-122,26,65,2553,-320,2543
86,68,68,-777,-707,2155
67,36,30,-1836,-581,1400
39,4,123,-246,3029,-3978
93,-92,18,417,3663,-4412
-16,98,-65,-809,3969,-5020
-8,-43,124,-1437,3508,-4118
-63,123,-94,-1596,4168,-3737
62,-96,-108,-923,4520,-2273
71,-126,-34,209,4335,-296
18,-125,121,-1044,1440,1424
-96,-10,114,-1791,384,2450
71,82,-123,-1684,-728,1992
-32,-54,-119,-1455,-3337,1399
19,-30,-88,1369,-3253,-701
26,-37,20,1290,-315,-3569
6,42,-4,1233,1175,-4241
73,-19,4,1530,3239,-2015
-117,-81,3,386,3285,-55
101,66,-47,-853,1834,1468
-83,99,21,-2039,-219,2797
55,-2,86,-2505,-807,1467
-18,102,15,-1740,-2676,2055
-19,-80,127,688,-3139,1430
3,-96,51,1772,-2852,-1349
101,-98,68,1952,-381,-3321
-11,-92,-95,2862,71,-1974
10,21,-4,2583,1902,-1099
-109,-21,0,1508,1951,137
83,43,76,203,1328,210
6,-125,-65,-306,775,843
97,-20,43,-916,-1070,1472
-28,49,-29,-1621,-2439,3944
69,-101,92,-1789,-4633,4533
95,-30,-110,-1943,-4606,5695
-13,-119,39,-1505,-5047,4504
106,-82,-57,-493,-3371,3696
98,-91,104,-1365,-2887,5154
-51,-59,110,-371,-1645,3975
-127,-114,68,876,-1940,3435
0,-100,-39,1846,-1350,1702
-124,-126,-96,2432,-1073,-317
89,32,-117,2002,92,-1033
-96,-110,94,439,2842,-5485
-70,44,64,692,2251,-5432
122,-29,96,-726,4537,-6018
24,-58,117,631,3547,-4354
22,-58,-64,513,3818,-2631
-96,34,-83,618,3559,-1088
59,-31,125,-316,1746,-232
120,-22,-2,-1064,1100,916
85,60,-86,-1429,-314,1156
-93,32,-57,-1147,-995,1248
-87,22,-59,-728,-2624,1594
55,-42,68,-487,-2370,-829
92,32,-77,1222,-1887,-1632
-105,82,-111,1441,-62,-2337
117,-89,-51,2021,1782,-1329
89,-97,103,1074,2472,-779
66,8,-54,-350,1169,408
25,93,0,-1451,482,1383
111,82,-40,-1905,-335,1308
93,-119,-30,-1503,-1486,1620
29,-99,16,-1180,-2168,836
76,-86,-114,30,-2527,-825
82,-30,22,1210,-1022,-2024
19,-65,-126,2042,-88,-2018
67,-59,-99,2252,1092,-1666
111,81,-2,1802,1501,115
-21,-66,50,1410,713,1408
11,48,107,1221,75,1443
104,-20,-17,-431,-869,1489
-108,60,-120,-312,-2430,2469
-90,-121,83,-652,-3120,3413
-118,93,105,1491,-3488,4394
97,-9,-9,1362,-3338,4263
-2,-101,-49,-2697,-1428,2537
-57,-78,-93,1214,-1518,3541
121,-112,-78,582,-1745,3570
-107,15,-120,-154,-702,3510
-80,-61,81,247,-220,3101
-7,-10,101,-971,284,2308
-28,57,89,-452,-307,981
111,-64,-59,-185,3325,-4843
-85,22,72,321,2761,-4308
64,-11,-45,391,5428,-5847
-8,-128,56,491,4585,-4091
-1,-3,-4,-640,3975,-3047
47,121,-70,-468,2931,475
97,-115,50,895,1299,1351
-86,116,109,-1933,336,1076
-30,-4,98,-1477,-1221,1192
-12,56,107,-431,-2731,910
-62,72,-75,96,-2501,-544
21,-72,11,1004,-1439,-2431
39,-5,-27,1624,358,-3443
-93,75,-56,2420,2345,-749
74,-13,74,1292,2532,477
117,-85,98,-701,1606,1234
123,119,14,-1617,458,2139
20,-104,-7,-1871,-448,1790
73,113,3,-2148,-1301,2614
-86,-122,-4,-383,-3015,3033
-28,-123,11,305,-3636,-1209
112,62,68,863,-1261,-4057
-128,53,-87,2171,-930,-3879
106,46,-75,2497,1981,-1885
-87,76,17,1591,1779,-218
124,21,-64,329,1105,334
-8,94,43,257,-682,1033
69,-50,-27,-1113,-1165,1012
-110,-47,95,-1199,-2091,2687
-42,-48,92,1140,-2711,2375
64,-60,123,-766,-1943,4953
-96,-73,-14,-437,-4091,5721
-28,18,120,2526,-2333,4645
116,99,-52,-836,-809,3340
54,-115,-105,1308,-839,3123
-17,77,123,1569,519,2165
-97,39,82,-366,-385,1175
85,-15,88,-1120,-749,1187
-126,-81,114,-557,477,743
-118,119,44,517,60,821
-72,77,112,-496,3139,-5267
41,-66,114,-1515,3993,-5695
44,67,9,-1602,3355,-5325
-62,-68,-37,-507,4615,-3285
-38,109,94,1199,3546,-947
-110,-32,-91,-1048,3772,23
77,12,38,-1718,-1045,2921
15,115,-101,-1007,-1149,2100
-74,77,-83,-1535,-2348,496
124,51,55,1945,-3257,100
-18,-17,-42,852,42,-2703
-16,80,-75,116,776,-5537
-96,-84,-64,1294,3902,-1131
31,46,104,780,2360,1417
61,21,-95,-1389,998,2071
-44,-95,-120,-1724,-700,1656
-85,-77,-127,-1543,-1936,1469
23,13,-2,-835,-2679,157
-84,121,-107,1205,-4117,-123
21,49,-4,1031,-176,-2227
-17,-36,-61,2565,962,-2678
116,25,-64,1426,2365,-2686
-19,-9,32,1501,2792,-245
78,-30,69,989,2161,1151
13,92,-48,890,1757,1821
120,12,41,193,277,1877
-55,71,-6,-711,-910,2808
-27,120,-65,-528,-3194,3717
-47,-102,-65,-1535,-3992,4313
-60,-71,-63,-638,-4251,5401
102,-100,97,-985,-3378,4087
40,-88,22,-513,-2467,4936
57,113,19,1465,-1393,4304
95,50,-44,2141,184,3800
113,81,-116,740,989,3322
-30,119,78,-1191,35,2014
112,71,84,-1481,-864,751
102,41,122,-1380,-242,-310
102,-67,106,40,380,-467
88,-94,52,526,74,-462
-32,-72,21,1094,2788,-4172
68,-9,-89,880,2950,-5945
-13,-121,-113,-485,4614,-6122
-55,-56,-38,170,3384,-4911
92,93,105,-449,2539,-4171
-38,118,-84,-19,3060,-1786
52,115,-106,381,1726,513
99,-73,-72,-608,1621,1296
108,32,37,-1597,21,1412
-35,29,59,-2422,-1897,2255
13,-106,99,-1552,-4233,1494
-67,78,52,868,-2903,-478
-55,-14,25,1469,-604,-2345
-35,34,-31,1613,1784,-3042
50,-123,-35,2035,2320,-1082
2,49,-89,303,2491,51
-73,49,-72,-795,1862,875
-106,-67,10,-1900,454,1303
-94,76,56,-2368,-248,1662
-121,-36,72,-1924,-2030,3572
-62,40,-44,-1250,-2575,900
0,113,70,168,-2365,-1089
-69,77,-41,1715,-1693,-3235
127,28,-121,1487,-18,-4265
93,-7,-20,1986,1762,-2446
-98,-40,-28,3332,1475,591
85,74,14,1527,1278,349
7,-108,-121,1163,391,983
52,-16,77,-970,-170,1611
110,25,-41,-876,-1969,2465
127,44,93,-1085,-3982,4094
-29,-98,-128,2471,-3741,4821
97,-66,-29,-1122,-2316,4923
-102,106,-8,-1872,-4555,4707
-72,-28,-86,-724,-2216,4035
60,15,24,-236,-1066,3755
71,-90,-31,1791,-1093,2913
-17,-78,-98,1353,-20,1247
108,103,114,-564,-285,1011
105,66,101,-1400,170,737
50,-79,-72,1297,3555,-6137
-64,77,55,-159,3453,-6074
-27,78,-87,1607,3524,-5667
86,4,27,-618,3322,-5794
-96,-73,24,659,3753,-2095
123,-121,112,-643,1986,22
-78,71,62,-1371,933,940
-6,51,-68,-2129,-315,1272
-41,108,-11,-2182,-2542,2576
-49,-113,-124,-1065,-3002,1326
-49,89,107,2119,-2815,-1149
-63,-70,-115,1700,-503,-3461
-115,-86,-64,2622,1395,-2918
37,91,-38,1572,3078,-988
-33,111,-20,323,2416,706
68,115,-60,-959,1570,1171
-38,70,21,-2475,329,1390
50,-42,-79,-2220,-929,1964
15,102,-8,-1354,-3354,1973
118,103,40,242,-3566,-214
65,-104,11,1585,-1563,-3231
14,99,76,1618,-564,-4430
87,0,-40,2466,1383,-3090
0,64,64,1427,2414,-626
83,69,82,697,1591,461
-62,-89,-72,-97,1003,1586
74,-36,36,332,-131,2047
119,-63,-79,823,-1518,3773
17,-3,52,305,-2308,4717
-56,104,33,-607,-3824,4998
-91,-73,127,-1297,-4318,5618
113,-54,103,-2686,-2325,3737
67,123,-80,-1,-2363,4710
66,124,-64,1386,-1011,4146
37,-110,-113,1267,-1028,3569
16,103,74,-211,470,2583
9,-24,58,-4970,1076,1849
-108,71,98,-2871,-324,866
78,122,-107,3144,-739,464
109,-80,79,2649,130,-347
-86,-35,-34,-1862,3850,-5220
-38,-16,95,728,3683,-5075
-58,-9,-102,-1618,4781,-4335
95,42,-124,-377,4071,-3351
-59,-43,-81,-631,2873,-2348
47,69,-109,-856,3236,-1119
-54,-72,-3,-112,1918,922
16,42,-104,-687,724,1563
78,-79,88,-1051,-606,2098
-110,-26,70,-925,-2049,2109
42,-119,-64,500,-3679,1082
51,-70,-64,1703,-2168,-1278
73,-9,-103,1156,-321,-2209
32,-37,-98,1963,-660,-2932
-42,20,-74,907,2935,-2863
37,61,33,575,2566,-608
-105,-29,-125,-1260,1455,793
28,-112,43,-1378,349,2211
-110,-81,-25,-1857,-342,1938
-84,6,105,-1531,-2263,2134
-25,103,-94,449,-3531,705
-84,92,30,1476,-3039,-1167
114,-49,-122,481,-334,-3045
75,69,-68,1050,-291,-3154
23,54,-111,959,2197,-2426
24,29,-102,1628,1495,139
-125,-106,-50,-266,1815,490
-49,-39,65,1067,211,1788
2,42,-86,1418,-1468,2708
16,107,103,-154,-1954,2537
28,-52,83,-930,-2519,2864
70,-11,-88,-377,-3061,3612
60,59,-6,-114,-3493,3408
15,40,81,1395,-2656,3647
-5,37,89,1446,-2510,3868
-6,101,-107,245,-2545,3982
-7,64,102,307,-1901,2996
-63,-14,-112,516,-1940,2583
-97,-101,-120,1110,-303,1782
72,31,30,3404,60,1842
-93,22,81,1551,3852,-4806
-6,2,71,766,3766,-4823
50,-109,64,753,4350,-4622
-48,35,74,759,3929,-3860
23,-68,33,71,4057,-3248
19,-101,117,-237,3238,-962
-26,121,31,-65,1644,816
110,-42,-53,-752,649,1784
-12,-33,-107,-1644,-759,1719
48,-3,109,-1650,-3351,2313
84,94,-101,749,-3726,-15
-67,30,-34,1307,-2445,-2644
-127,95,-48,1160,0,-4111
95,31,-52,2433,2428,-1934
56,-36,-51,1917,2953,-881
58,99,-68,-360,3031,-811
18,-25,23,-940,1167,1048
-115,-72,-62,-1719,-33,1956
-34,17,-60,-2326,-937,1636
123,-5,-32,-1428,-2907,1794
-54,52,-122,235,-3119,1452
28,-71,51,798,-2598,-1803
110,-43,-13,758,-1875,-3881
39,-53,-53,2222,547,-2753
33,-11,-78,3026,1396,-1532
-36,-91,-36,2404,2293,-438
117,-41,-3,1881,1301,-430
-33,21,-88,918,1028,2
15,-4,73,1041,475,957
82,-81,-106,2024,-836,2936
90,0,77,-781,-1784,3075
7,53,103,-2373,-4498,4715
51,11,-78,-1108,-3797,6017
101,94,-118,488,-2427,5269
102,-17,-54,-370,-1506,5689
29,68,-15,144,-1039,2869
3,-113,-35,946,453,3155
2,40,-99,508,147,3838
21,29,124,-352,119,3774
-54,84,74,-536,-810,2312
58,31,-22,705,3611,-4605
24,-40,-89,152,4793,-5386
-126,-41,107,-126,5538,-4879
-87,-51,-46,-244,4162,-3413
-43,-111,-36,-710,3380,-2383
-49,-113,-61,629,2891,499
40,-69,73,783,1196,2349
-76,104,10,-1116,970,1635
-5,33,-79,-1952,-475,1667
-14,28,105,-2171,-3587,1959
41,-59,-127,120,-4391,165
14,36,78,1844,-2218,-2576
-10,-122,-68,562,-1129,-5551
-22,-80,-91,1451,2877,-3587
-112,-78,-46,2443,3157,-51
70,75,19,-540,3238,-317
37,-123,-28,-481,2396,1412
-44,-3,121,-370,1373,2542
40,-50,-31,-1901,425,2050
-74,-122,54,-2301,-1620,2782
125,67,43,-771,-4403,1378
-6,-61,15,1831,-2903,-2627
-114,-27,-58,315,-1314,-4256
26,-101,-108,1787,-486,-3002
-93,-88,95,1420,1752,102
-24,45,-77,2132,810,1026
-70,125,-65,1325,1499,1997
22,-33,75,483,114,2470
65,44,-36,167,-1054,3423
36,58,93,803,-2869,3582
61,-86,118,-1166,-2074,4292
30,48,-65,-1567,-2880,3153
-50,-116,34,-2097,-2924,3264
-44,84,-78,-362,-2250,2934
-61,50,-49,358,-1610,3025
-96,-12,-89,502,-1448,3336
-62,-39,75,732,-670,2941
-54,-70,48,934,-543,2151
-61,-82,88,-286,226,2187
-92,-85,82,-801,504,1910
62,73,-127,-373,3894,-5275
68,-77,-61,852,4809,-5284
-100,-94,-33,-892,4464,-5055
65,20,-112,-1406,4538,-4233
73,62,-56,-568,4528,-2319
30,-24,-97,756,3422,1060
109,112,-37,-71,2340,2019
-43,112,83,-1665,526,1625
33,-127,113,-1930,-838,1132
0,115,-31,-1083,-3900,2507
-64,-12,-87,776,-2814,-1232
102,19,-41,1659,-1416,-3250
-33,4,-39,2421,1674,-3809
95,-124,-39,2164,2868,-1954
-47,81,69,1075,2776,-371
-96,12,-50,-698,1785,432
49,111,42,-1422,542,1812
-52,100,-30,-1724,-673,2099
-53,120,-83,-2383,-2564,2121
83,-44,77,-1510,-3067,251
64,-86,119,1249,-2766,17
107,-16,17,933,-2136,-2713
56,-62,-66,1731,290,-2432
32,-43,-76,2744,1218,-1328
-117,-31,33,2131,1932,-353
48,93,50,1622,1472,314
-76,-77,-51,288,1035,864
16,-33,75,147,-295,1351
65,18,-78,-1050,-1177,2322
65,33,127,-842,-3233,3289
82,85,-54,-1001,-3133,4082
-72,-58,-11,130,-3054,4617
-98,39,11,559,-3257,4381
-116,117,124,-1144,-2115,3979
53,66,-88,-83,-2546,3846
62,-27,-2,865,-718,4166
66,-44,-92,1019,-372,3774
87,-1,-105,-10,205,3361
25,101,-111,-697,-424,1907
-91,91,-85,240,-560,-260
-57,63,-118,1538,2615,-4108
62,124,109,1191,2904,-4380
-115,-45,82,1475,3678,-4999
36,-106,36,485,3850,-4801
-93,61,-6,-228,3941,-3693
-108,103,-123,762,2990,-884
21,62,-40,305,3779,101
-1,-80,68,-1030,231,1892
-121,-70,104,-1861,-886,1435
-63,-100,-80,-1280,-1973,1921
52,95,-125,-379,-3297,1245
-124,81,-90,1165,-2574,-1264
-80,81,116,584,-896,-2556
44,-45,-56,1698,692,-3274
-113,-42,-67,2032,3265,-1897
-64,-128,44,868,2392,-656
-113,42,-38,-853,2118,267
12,113,37,-1099,609,1538
-110,48,-61,-1938,-720,2274
-91,-29,-64,-1960,-2027,2729
90,68,6,-766,-4294,1618
-53,115,-86,147,-2897,212
3,-102,-26,1549,-2991,-3266
0,53,-127,1576,272,-3361
-59,56,-92,2586,669,-2814
-12,2,120,2406,1791,-1467
12,69,-75,1430,1921,-237
97,64,-5,204,1683,605
-50,116,-114,252,1011,1717
53,-58,56,504,398,2068
-105,-30,1,-300,-61,2737
-47,86,-78,-1969,-1902,3783
-60,-35,-37,-2200,-3740,3820
-16,36,65,-1476,-2663,3388
-118,52,-125,-1415,-3075,4328
64,65,-62,-1793,-3426,3886
77,-5,2,-1905,-2495,4574
122,-97,16,-474,-1966,4508
-81,-88,-19,1509,-1171,3855
91,36,-90,1342,-2102,2610
14,55,13,228,3410,-4802
95,31,43,-784,4034,-5037
-2,123,17,-368,3451,-4024
106,-19,59,-392,4148,-3191
103,17,63,296,3148,-1013
97,-119,40,480,3717,1205
-58,-19,-119,1,2050,1554
-52,-104,17,-2530,54,1046
-87,66,39,-1920,-2371,2502
96,-28,-31,394,-3949,1267
-4,-105,5,1098,-2540,-668
-45,-73,43,659,-1792,-3878
-123,-9,-66,1329,528,-4026
94,-75,-47,1317,3191,-2455
-91,71,43,1269,2735,334
-101,115,-45,-1040,2403,703
33,-85,38,-1755,588,1529
-84,54,24,-2470,-324,1770
-78,62,-47,-2717,-1707,2564
18,-114,-93,-780,-4705,2805
-128,115,97,1816,-3764,-581
12,123,57,974,-1543,-3600
-105,-7,-69,885,156,-4429
-107,38,-76,2801,1536,-1962
-39,-73,3,1892,1439,-906
62,-66,108,745,1618,-273
-76,-53,-55,172,1798,757
-29,-17,123,-349,874,1057
99,99,105,-2694,1833,1338
-86,67,30,-1271,-538,3211
-83,-47,-38,-1689,-3468,3564
-107,-17,-22,-2376,-4859,3633
126,-123,-47,-2126,-3941,3204
60,-54,57,-1271,-4697,4015
-11,-122,-115,-709,-2578,3209
-91,44,73,-611,-4081,3886
32,18,35,-827,-1812,3451
12,-74,-31,2163,-1624,3350
-3,30,-97,1379,-602,1921
-83,66,-122,-195,-505,138
-1,21,-36,782,2813,-3418
89,1,-50,451,2760,-3644
90,-40,92,754,3269,-3791
48,-81,-101,746,3357,-3396
-19,97,51,317,2595,-2616
-99,91,17,-1014,2409,-2716
106,-68,32,-414,3556,-1758
44,48,-98,520,2543,-42
30,29,-72,-390,1408,1169
51,-64,-101,-1470,-275,1155
91,16,-73,-1042,-1081,2017
1,4,58,-1294,-2593,1240
-72,-40,-15,26,-2138,1008
66,-89,-104,1116,-1804,-584
90,-97,15,782,-1135,-2297
-10,-70,-77,1567,74,-2697
63,-29,-31,1929,2481,-1667
-115,-114,64,1313,2255,-774
-29,78,34,-784,1750,-22
-51,-90,87,-1448,776,944
123,77,26,-1392,145,1878
-104,35,-38,-1643,-1095,1498
99,-2,16,-1223,-2181,1048
-75,-66,81,-238,-3372,1348
-80,66,-99,1076,-2212,-1584
-14,-103,-45,2045,-94,-1949
-41,6,-39,2606,1067,-1872
-124,-61,106,2245,1656,-757
-7,18,-106,818,1973,69
-111,-80,-56,727,1042,1298
104,34,19,85,-458,2181
-69,-37,-62,-2094,-2420,2381
14,0,84,-1375,-3434,3076
20,-104,100,-1725,-5519,3430
23,-19,-8,-792,-4475,3953
-79,-89,-38,-1488,-5757,5023
-38,-113,105,-661,-3004,3488
-113,52,19,1310,-2260,4155
107,-20,-21,2761,-975,3087
53,62,-97,841,-1034,2250
106,-49,-71,1538,1527,-4589
-20,-81,-104,13,1723,-4916
-17,109,-90,668,2172,-5142
-66,48,-96,-129,2767,-4668
88,-43,-77,-644,3102,-3902
-16,72,-87,-791,4018,-2818
0,41,-32,355,2633,347
-34,104,112,-1393,779,1121
54,46,-117,-1778,81,1668
-64,110,90,-974,-1708,2722
52,121,-34,-373,-3958,645
57,-19,39,2023,-1464,-1012
91,-99,-89,1349,-454,-3948
101,-73,-63,1037,1846,-3841
111,-28,-33,1323,2988,-1716
41,47,-36,140,3622,-224
-1,-56,66,-1169,1938,851
17,83,78,-1761,-819,3076
31,-23,103,-2450,-1837,2485
111,-48,-35,-559,-4158,1652
-112,12,-21,33,-3675,122
-14,-115,3,-24,-1437,-2985
-20,-17,-35,789,-517,-3750
63,-85,-68,2965,2282,-677
-60,-102,49,2834,1978,123
114,47,12,1145,1988,291
23,97,97,165,734,1094
91,-87,16,-541,-165,1515
-88,101,94,-1585,-1085,3066
-88,-31,98,-2104,-4065,4368
73,27,77,-1482,-3423,4875
8,-55,-64,-1269,-2808,3640
111,-59,-32,-274,-3296,3341
78,86,48,-340,-1881,3681
49,100,69,-312,-2375,3541
55,51,84,352,-19,2289
-67,8,-53,376,-548,2256
-38,8,-105,345,470,1373
-3,98,-67,74,3145,-923
-59,32,67,-22,441,799
-119,-92,-99,2048,2670,-4317
103,-20,-120,2773,2962,-6019
-93,-63,54,745,1143,-4443
38,-5,-35,-384,1189,-4269
37,-47,68,279,1905,-3727
29,-110,126,134,2658,-4348
-82,-49,100,454,2349,-3681
66,-123,-31,-146,3070,20
54,126,-45,-488,2195,428
-64,67,40,-2261,681,673
-62,-61,7,-2295,-862,1201
-90,71,24,-509,-3291,2969
-28,-81,107,1504,-3772,1681
60,-48,69,888,-1187,-748
96,118,-20,1516,-1492,-3439
118,-123,-92,1478,376,-3018
-90,-35,-107,1347,1559,-1892
-26,-76,-7,773,2004,-767
-79,24,-35,-973,1912,281
59,93,41,-1773,853,1618
-53,59,-125,-2432,-215,2538
-37,78,76,-2760,-2552,2312
40,-83,-16,-602,-3756,1891
37,110,-18,1009,-3369,-773
-118,101,-4,743,-1667,-2648
-112,-88,-98,1759,-59,-2764
-16,78,50,1545,-292,-2938
121,77,10,1233,1431,-1967
-90,103,9,1923,906,-395
13,-37,101,363,1556,-226
43,-82,-84,901,539,1471
21,-24,62,-143,-881,2923
-11,31,25,-580,-3190,4085
43,110,67,-94,-3647,5896
96,81,-60,-258,-3286,4226
55,-80,115,-427,-3304,4986
26,4,-42,-1860,-2212,3259
-8,61,-60,-471,-812,2964
-34,-81,-118,1073,-760,3382
32,-29,93,-140,-171,3503
-34,91,-21,1506,1897,-3636
124,21,-43,232,2861,-4736
-21,120,-13,995,2615,-4127
-17,95,39,1275,3251,-4116
108,48,11,1396,2948,-4160
47,91,-1,-1011,2654,-3777
26,-46,-63,-990,3417,-2387
103,-15,21,379,2582,11
78,5,-108,996,1427,169
65,97,94,-1592,289,760
13,-111,-16,-1543,-1701,2646
-8,-3,86,-389,-3524,1591
96,37,53,-671,-2062,-26
-83,58,16,1573,-815,-1117
75,-72,40,520,-324,-2940
81,-83,-66,1376,1882,-2200
-102,90,-64,1867,2665,-964
8,44,120,338,2072,-60
-110,1,76,-1322,703,1278
46,-42,1,-1984,388,2056
-116,20,4,-1565,-642,2590
115,-23,-30,-1290,-1693,1620
-49,40,93,-790,-2659,1088
12,-41,70,628,-2314,-1533
-39,-89,19,1065,-1274,-2530
-40,36,-69,1651,695,-3591
-109,37,110,2371,1706,-1103
-76,22,92,1657,1177,97
72,92,-25,221,1225,992
-21,-83,83,-261,456,1525
91,-29,-95,-31,-1687,2373
-16,-4,77,-1221,-2669,3356
43,57,2,-911,-3822,3573
19,-77,113,-1137,-4676,4735
-36,24,69,527,-4727,4541
-107,44,-54,-2480,-2927,3967
-114,108,-30,-9,-892,3975
-124,26,34,432,-1497,4122
86,83,-28,-94,-915,3811
9,66,-106,758,-1204,1856
59,-113,21,980,2638,-4144
-124,86,45,2,3187,-3984
67,-31,52,-69,3320,-3281
-4,106,-13,-168,3616,-2513
-111,-20,93,10,2981,-621
47,-11,-33,-511,1738,416
50,50,-96,-1244,510,1343
121,-73,-106,-1350,-576,2112
105,-121,117,-916,-2321,2190
-9,-8,50,72,-2486,1916
-97,-56,-76,707,-2122,34
-68,27,-126,375,-2138,-1856
-115,101,125,815,-631,-2996
-12,-83,-78,1366,1624,-3031
62,57,-104,961,2808,-1435
-118,60,-98,1176,2395,10
47,51,98,-918,1630,1213
124,-118,-39,-1294,-76,2397
-40,53,-79,-1244,-1412,3146
-4,-98,-62,-1258,-3400,3129
24,-8,-55,-1354,-3763,3647
-44,112,29,-694,-5315,3955
-103,-81,-82,-975,-3902,2931
118,-70,116,-1446,-2458,2825
2,8,26,340,-3436,3451
22,-24,14,391,-2644,3685
15,-49,-79,962,-1024,2712
-10,-2,-124,235,-45,1630
-59,20,88,222,-527,665
-105,1,78,409,-123,-55
-120,-8,34,-320,552,-670
110,-38,-23,-702,389,-642
100,-113,-16,976,96,-383
102,-107,-51,1212,-11,-623
-112,-105,-70,296,107,-927
-94,124,-81,54,53,-1077
-99,80,-72,199,-115,-1075
-108,62,-66,159,-106,-983
-127,49,-54,-137,-275,-579
-123,36,-29,-929,-174,391
126,-72,-93,1581,1318,-4386
-36,-8,-20,1208,2284,-4595
-6,-105,-8,1332,2769,-5523
-89,113,-12,747,2711,-4940
13,18,-45,635,3394,-4390
103,-70,77,498,3583,-2672
-40,122,-76,827,2696,-646
-113,116,38,-1158,3835,1725
28,23,15,-188,-139,2595
64,30,-57,-2304,-1155,1682
115,-65,101,-1789,-2661,2440
54,-124,69,-748,-3110,1199
14,123,88,-334,-1819,-646
91,-80,40,534,-869,-1672
39,71,88,1029,-207,-2799
73,31,107,439,1272,-3649
6,124,56,790,1923,-2181
-5,-118,98,1067,1963,-337
90,-91,108,-544,1868,726
-50,-38,11,-596,1106,1710
41,63,-76,-938,-16,2474
125,-110,-98,-1480,-1109,2875
-39,90,113,-2387,-2360,1662
11,98,-58,-2292,-3042,-1379
-110,-9,121,-1086,-4401,-1354
0,4,41,37,-4548,281
-48,-71,127,-366,-4324,2198
-68,-91,-115,147,-4656,2585
12,-94,78,317,-3490,3386
25,121,2,1922,-3550,3764
-125,-79,-64,1887,-1989,3509
73,43,113,828,-740,1879
9,67,107,174,-839,1346
-43,78,104,21,-569,723
-111,81,90,163,-380,427
-121,100,63,481,52,-95
-127,81,15,591,336,-950
-104,38,-10,392,448,-1480
-48,-67,-40,624,601,-1923
-36,117,-62,999,354,-2057
95,38,125,2304,3680,-4267
40,-64,-117,1181,4122,-4532
51,44,-105,2100,3901,-4168
20,-26,-117,1183,4614,-4095
-94,-118,40,730,4583,-3069
33,19,-105,935,3875,-1775
-109,-76,-42,187,2572,-80
125,-22,43,-351,1652,202
82,39,30,-1620,-521,1364
-108,-72,66,-1870,-1938,2519
93,22,-78,-1830,-4436,2228
19,83,7,-470,-2766,896
43,84,25,782,-2540,-1691
-86,-60,126,787,-691,-2894
-97,-86,104,1563,1136,-2829
12,69,124,1146,2223,-3142
76,47,50,915,2801,-1864
89,123,74,440,2541,-132
-9,118,-103,180,2379,1717
-123,-46,44,180,1229,2611
-14,69,-63,-836,239,2173
92,-52,27,-1531,-1693,2765
-40,-126,52,-2992,-4815,1062
117,36,21,-183,-5936,1590
71,47,-87,-1596,-6075,3153
27,7,15,-2450,-6209,3686
89,88,97,1134,-5553,3910
-4,16,93,2509,-3986,5644
-39,-65,12,1616,515,5029
-74,-39,81,849,-1023,2434
-36,-96,117,784,-2129,-301
-88,19,-102,598,273,-502
102,0,49,99,1315,9
46,14,-28,-238,340,50
87,12,-48,-18,53,-6
-117,12,-46,327,367,-882
-82,-65,-58,691,58,-1323
-101,-100,-73,626,-30,-1778
-112,89,-53,581,-203,-1663
-118,46,-37,207,-136,-1413
123,14,-69,1371,3424,-4851
14,-98,88,603,3633,-5882
103,-28,65,351,4098,-5394
8,35,11,-179,3570,-4850
113,-93,-34,-502,3918,-3732
-47,20,-79,257,3615,-1687
41,-86,-12,-180,2103,594
109,-11,-100,-729,1266,1496
75,-99,82,-2322,-1062,1719
81,-26,-115,-2356,-2050,2100
62,-70,25,-1839,-4131,2120
4,72,-88,-148,-2364,1043
96,35,7,1298,-2271,-866
-22,70,-128,845,-899,-3416
-116,104,-121,1311,663,-3291
-75,-9,-122,1450,2223,-2647
-19,110,27,1156,2568,-689
56,108,51,111,2352,342
-107,-85,-108,-708,1567,1110
33,47,37,-1320,670,1754
61,122,-23,-1806,-273,2102
87,-26,-41,-2212,-1676,2521
58,-52,71,-2181,-2866,1636
34,-126,-3,-538,-2743,1220
-83,80,104,499,-3050,-530
21,70,-29,500,-2799,-2491
-37,51,103,1552,-1172,-2092
9,78,97,2320,585,-2290
66,-70,104,2524,1200,-2040
125,-60,-47,2860,2218,-1365
127,93,-18,1642,1676,-91
-52,49,63,206,1004,677
19,36,-92,-1188,-433,2640
100,84,95,-1436,-1859,3693
-43,24,27,-2423,-4010,4423
-76,-62,-59,-3262,-5344,3982
-33,-18,-58,-1794,-3888,3954
-54,6,71,598,-2769,3902
-85,68,62,-1140,-2370,3772
-120,18,-25,-588,-2291,3088
19,-3,89,658,2713,-3665
98,-63,96,1019,2648,-4305
17,79,94,882,4098,-4309
-8,9,61,1061,4189,-4808
-71,-95,28,105,4633,-3798
-50,-79,-119,254,4581,-2226
0,93,-39,179,2797,174
0,-106,114,-144,1156,1522
21,-42,60,-2547,-523,830
52,48,-56,-2100,-1603,1617
71,-91,41,-1185,-2469,2116
25,-103,-16,-349,-2595,1378
-30,80,-128,715,-2705,134
-101,41,111,435,-1274,-3016
17,57,114,1294,20,-3676
-62,-105,104,2111,1867,-2990
-39,102,102,2192,2713,-1459
15,23,109,514,2370,-34
-120,61,-102,-749,2068,624
16,-112,-43,-895,461,2457
100,39,-47,-1847,-478,2417
-78,116,-31,-1895,-1477,3761
-33,-103,54,-2292,-3556,3129
-3,77,87,-482,-2482,1614
19,-88,-54,498,-3224,-2361
-53,-13,44,4,-2036,-5352
63,28,85,1837,-1240,-4393
-104,-9,83,1822,2918,-3164
44,-76,-22,3746,1656,-703
-125,-17,42,1524,2067,469
33,33,66,374,2201,1353
97,67,-61,162,160,2510
-66,117,91,-635,-1040,3874
3,-63,25,-1090,-3066,5406
3,-56,-123,-2908,-3825,5333
35,80,-114,-569,-2554,3892
-64,78,3,13,-1529,4001
123,7,-60,-99,-1429,3859
95,-37,-91,-437,-737,3704
83,-39,119,50,-1045,3284
20,-60,-108,-2187,71,-5027
-109,73,89,-704,1456,-5560
-57,82,-71,-307,2566,-5346
-120,-36,-83,-1353,3176,-5151
-27,5,-83,-1973,3513,-3807
123,-105,94,-655,3587,-1796
5,-123,-48,-542,2417,-108
13,18,57,-1229,1072,1069
40,-41,20,-2006,-852,2261
92,-69,14,-1448,-2299,2539
-14,61,-34,-457,-3151,1201
100,11,26,1121,-1539,-319
-122,-55,78,1214,-1245,-2805
-82,52,-118,1117,663,-3976
-43,-25,-125,1443,1792,-2540
-19,108,-118,665,2983,-1212
124,-34,42,98,2859,1019
110,-123,108,-1085,912,2253
-80,112,76,-1963,-225,2015
-120,16,120,-1948,-1019,2373
14,56,-112,-1381,-3660,2045
-6,70,121,732,-3157,483
2,-30,112,1130,-2787,-1783
-61,-66,97,1523,147,-1669
-120,-97,64,2315,-575,-1738
18,-50,38,654,1647,-1641
36,-74,-99,1554,1591,-212
-108,-2,-103,849,1135,1045
0,49,24,-700,498,2321
-124,106,-34,273,230,3382
5,36,-97,-1736,-1315,3585
-51,-32,-59,-1976,-2901,4297
-39,113,37,-1811,-2670,3654
-93,119,94,-40,-3100,3989
52,101,104,-1263,-2160,3326
-11,-1,-99,-42,-2068,3274
42,-49,-16,1759,-33,2734
23,0,-97,336,-98,2808
-50,46,-127,-966,-481,2408
-97,51,-118,-1457,-633,1204
94,-95,43,795,2553,-5239
-35,68,-32,-263,2841,-5669
-53,99,-37,195,2965,-5308
-127,-30,-54,-870,4020,-4145
-56,42,118,-896,3560,-2690
52,-29,28,-627,3015,-912
-18,-19,-91,-297,1740,1151
-26,-113,67,-1867,165,1256
-19,-6,60,-2075,-1687,2255
71,-47,-83,-1759,-3220,1754
-11,116,-50,-847,-3830,2062
-26,-118,16,917,-1498,-845
73,-27,113,322,-562,-2907
-38,-10,101,1167,463,-2842
-20,-45,97,1173,1426,-3261
74,95,97,1254,2837,-2748
30,101,-105,1326,2177,-640
96,84,-89,128,2172,651
-70,-88,12,-209,966,1772
1,49,-34,-1256,435,1795
19,-78,-38,-1742,-874,2688
38,112,-2,-2091,-2145,2398
-56,-51,-39,-736,-3358,2036
-124,-47,105,-1202,-3024,-1049
34,-91,84,39,-1435,-3351
39,-68,-118,1848,1343,-2758
12,114,73,2699,740,-2790
4,18,-127,2207,2293,-125
49,23,-33,1768,1675,1044
-45,99,89,1323,1650,1514
33,-77,-73,624,-425,2323
109,-31,123,-509,-1600,2841
112,18,95,-1672,-3545,3739
-75,94,-98,-2032,-4647,5500
-14,-26,-1,-129,-3882,3958
-59,60,-69,-892,-3504,4187
-102,35,-25,-705,-2697,3434
-123,-97,32,1334,-1464,3840
-109,-99,-111,2027,-241,3301
58,25,124,-61,-1180,2474
14,124,25,728,2250,-4707
-36,-25,-32,186,2956,-5031
-97,46,8,234,2972,-4530
24,-100,-77,-119,3057,-3415
-96,105,-116,-553,3154,-2427
49,33,51,-423,2790,-932
-45,41,-109,7,1689,1120
2,-35,-102,-1533,839,791
11,-36,121,-1685,-550,1624
-27,39,-109,-1722,-2734,2672
-93,11,-126,-1179,-4581,2319
58,-63,-49,1126,-515,53
-76,66,-54,1933,-965,-3539
12,-22,17,310,-193,-4046
26,96,125,637,1503,-3139
7,37,23,2079,1712,-1412
93,-91,84,2991,2014,-679
92,26,-29,-471,1541,-710
-114,-90,63,-921,1235,1257
-68,-6,12,-1313,821,2815
-18,-70,-9,-2819,14,2841
12,47,-35,-2360,-2091,2571
21,105,47,-1317,-3704,3044
45,-42,-91,-738,-3292,1153
39,68,-10,1006,-2041,880
-13,59,86,1426,-3767,2835
29,53,44,283,-4857,3424
42,-102,-98,-1658,-2023,2934
39,-55,-8,-1515,-2213,3024
45,-34,-16,-624,-2059,2929
16,-66,-20,384,-723,2396
-7,119,86,2634,242,2148
-9,-69,75,1580,229,1949
-45,-3,42,-106,-643,1424
-90,2,66,-423,-855,696
-107,-21,52,474,-372,147
-120,-31,12,483,179,-400
-121,-55,-17,210,191,-518
-85,-54,-22,-429,1084,-553
-80,-99,-16,288,956,-1347
-24,5,120,1082,2305,-3793
-117,127,62,1171,2745,-4985
16,-43,4,324,3579,-5733
8,-22,-4,-188,3516,-4677
109,-125,6,-79,3683,-3886
-95,31,-114,-645,3566,-2671
41,-56,119,-137,3069,190
32,-78,-26,-180,1519,1248
101,122,-122,-2073,251,1313
-108,-54,-74,-2014,-952,1826
-96,86,-58,-1391,-2393,2859
95,-29,-110,-952,-3597,2534
40,17,103,475,-2721,36
84,-93,52,2435,-2115,-2202
3,0,-105,634,-717,-4751
23,-96,125,1360,2156,-3844
7,80,-127,1389,2680,-1918
71,-127,-87,-1228,2429,-463
-36,117,-39,-1040,2142,1252
120,-11,-26,-820,954,1588
119,87,-38,-2065,46,2388
-103,-41,-27,-1533,-1392,3135
65,-122,88,-2276,-2845,2386
44,79,-50,-289,-2761,116
107,-13,-119,144,-3715,-2315
110,-8,127,863,-284,-3330
-62,40,-115,3311,-1341,-3004
74,-86,97,1325,1643,-2289
15,-118,-44,2090,1583,-1355
94,36,-25,1223,2286,703
-65,67,74,716,1242,1690
78,-94,-65,-234,-68,2900
-112,-90,-81,-730,-1577,4066
-50,-33,-112,-1656,-3384,5041
10,-101,-11,-1767,-3516,5427
82,40,-120,-1350,-1899,4110
-70,-82,-70,-2089,-3341,4121
-105,-121,31,-2391,-1980,2964
54,3,43,355,-1933,3029
36,-8,-58,1230,-1537,2761
32,-90,100,1160,1549,-5194
2,23,105,294,1622,-6459
-1,106,-46,405,2644,-6439
-110,-95,-58,-157,2772,-4671
-16,92,-45,-758,2846,-3543
-113,4,-49,-531,3326,-2462
17,46,4,302,2985,-123
-30,124,-125,-896,1179,1730
17,-89,-116,-2393,-305,2149
103,19,-91,-1547,-1326,2962
108,-77,-69,-1013,-1852,2571
11,-17,43,-397,-2915,2813
45,-86,-99,512,-1287,-340
63,-15,22,1317,-2867,-924
30,-61,99,1288,-1141,-3581
50,123,-126,872,382,-3965
56,-103,124,908,1619,-3177
-112,-62,36,999,2451,-1519
-40,-127,31,288,2268,-538
32,-116,-125,149,2251,806
58,-80,11,-93,1095,1942
-98,-16,-38,-1226,410,3395
8,1,-101,-1344,-890,4820
82,126,98,-3026,-3738,5791
70,-55,-91,-2295,-5380,5124
66,36,119,-3067,-4512,4446
0,24,-118,-2413,-4480,6555
118,-35,125,-70,-1381,4628
12,104,-11,1162,-530,2671
57,-57,-83,413,-1377,640
-83,114,-83,526,-399,-740
-123,-19,103,1378,627,-979
117,-69,34,1005,540,-1012
-115,-105,-33,-37,641,-1246
-108,105,-65,-143,332,-1273
-111,51,-76,276,-11,-1253
-114,28,-72,413,-90,-1164
-127,13,-61,313,-229,-884
112,3,-61,93,-322,-519
102,16,-45,-278,-325,-209
