AccX,AccY,AccZ,GyroX,GyroY,GyroZ
96,-40,22,-2695,6222,3127
13,111,-116,863,7985,2530
111,-114,123,1001,3607,-3276
-2,61,-80,-3740,4606,-6364
109,-76,46,-4249,3490,-2872
-38,5,-23,-25161,-17827,-4324
113,23,13,6392,-363,-5295
107,114,-116,23039,26752,21178
-79,-79,-9,-13047,-12857,-8840
-68,96,-49,2720,2453,-4264
85,-5,12,-7283,1879,-3734
-23,-66,-112,-23254,-23411,-7336
85,24,96,22752,2456,2351
-28,-12,98,12813,7493,5155
-7,49,-97,296,-6988,-5944
-15,-64,-9,4024,-5572,-3331
36,103,-27,8667,-12787,-1021
88,-45,-97,-3365,-5575,-3157
-78,22,-11,-1933,-1078,-1192
-67,-4,-54,4658,3734,5766
-94,-75,-49,1482,-1165,2069
9,-56,-75,-1495,-4287,-2579
-91,-30,-64,2469,1262,-1032
-11,-78,-24,863,2329,37
9,-60,-5,-2261,1790,-118
60,-45,-108,-4235,-99,-780
51,0,7,-563,-851,92
-15,-4,-11,2818,229,524
15,-45,-88,-705,-758,-433
47,-17,123,-667,81,155
31,0,115,-583,-60,175
13,6,104,-503,-235,-152
20,14,107,-845,-408,-258
39,23,93,-780,-420,-132
40,32,66,-178,13,57
32,24,104,-607,-394,-313
65,31,72,-14,84,43
60,26,100,-449,-223,-137
67,32,75,-141,-53,39
63,33,89,-210,-127,-81
64,-75,-93,602,10225,4929
59,55,-75,-3823,3314,-5750
35,-113,-51,-2502,6449,-1707
-31,127,72,-6661,4692,-2567
-23,-23,48,-12762,-738,-1464
-15,-97,86,-22551,-21115,-1622
27,-18,-110,-23830,1924,6436
-119,40,-127,15194,3690,-822
49,79,79,-2275,-1257,-7179
47,92,-1,-4496,3263,714
94,-96,-77,-20152,-12396,-2708
-56,87,126,-2521,8464,-1697
-59,77,126,19264,17762,-3250
-106,94,5,-12308,-8116,328
6,-52,-23,-3214,-4902,4954
-3,54,-13,-2512,-7505,1534
-73,108,58,3148,-2412,-4801
30,-42,-56,6245,-7576,-8419
17,-99,-88,7400,-3036,-4860
59,84,-43,8865,-2127,3282
-62,127,111,-2999,-4164,-2024
49,125,-52,-95,1300,-924
11,19,-99,7163,5279,8756
-124,41,58,842,-133,2570
58,-31,-87,-5167,-3470,-5005
53,83,51,637,2868,-2038
-27,93,-16,-3140,717,-626
-93,-65,-106,-6262,-3422,-1001
82,16,-117,-196,-975,202
65,-38,-64,2566,992,848
38,-33,119,18,-5,-244
80,-51,-108,-1208,-755,-400
98,-37,60,-151,141,151
85,-30,78,-334,-177,-108
89,-31,80,-644,-391,-236
103,-11,49,-220,-19,-9
101,-5,55,-88,-10,8
106,-7,58,52,57,56
103,-18,78,-67,-16,-25
110,-14,83,-193,-56,-20
85,-26,61,-1490,3718,5756
118,-62,35,-1974,6673,2950
121,101,-18,-572,9181,2245
-108,-2,77,381,6952,-668
-3,-44,-78,-2742,4233,-3844
120,-87,12,-5209,2773,-3093
21,9,-20,-9455,-2893,-2139
-65,96,94,-12758,-12932,-1092
-96,114,-85,2693,-4275,-3535
-20,-110,-95,19148,7854,12016
125,64,24,288,-2003,-6715
-120,-64,-67,11504,7544,3478
-24,-111,-63,-4273,-2573,-4688
-39,95,-58,-2711,3433,-4735
-126,43,-50,-6989,445,-1822
-56,-28,-62,-22884,-18505,-7586
30,79,-17,15679,-1414,-5111
72,66,17,15390,8555,16747
-82,22,3,13540,9809,-493
-35,-86,-80,-2665,-10138,-14491
-26,-76,105,3025,1365,-3641
101,28,86,1633,-2587,-3490
83,-57,-9,212,-6331,-241
80,-24,-4,6727,-9093,-950
-53,-96,97,11148,-3418,3218
-64,6,-1,4592,-2457,4415
-51,24,-31,654,-1431,-930
5,51,15,3177,3711,744
-86,-50,-69,-957,205,-262
-76,-104,40,-1735,699,-558
33,103,122,-644,2061,-787
84,89,102,87,1914,-523
90,83,-104,-865,-28,-461
87,100,-106,-1601,-1902,-599
110,-127,89,-277,-1069,-135
108,-122,105,212,-181,9
93,-95,-106,-640,-95,-143
94,-78,107,-575,88,-13
93,-63,70,-150,226,48
92,-61,79,30,35,13
-85,-93,35,-1411,3663,2829
40,-117,120,-3761,5804,186
107,98,117,-5520,3811,-4941
0,-98,-61,-1746,5688,-3191
70,66,73,-5108,5153,-3914
-75,-118,-60,-8750,-841,-1469
-4,33,65,-16855,-10199,-2822
-27,-65,87,-4963,-2928,-2727
-51,15,13,20647,2326,13670
-107,34,-2,-3562,-5313,-6909
-65,-11,-50,6035,2981,-1894
27,59,-121,20795,16101,11735
-72,126,-78,-2795,-3658,-8360
-29,-23,-83,-3776,3246,-3936
120,99,-50,-8433,-1423,-2473
60,-68,123,-17012,-16145,-6550
-111,115,28,11544,-1686,-983
-56,-122,-3,14118,5382,14253
-126,112,-24,2017,1354,-3840
-11,41,125,7783,1775,-1641
-92,-31,68,2584,1039,-2821
37,-51,73,-665,2066,-4982
-43,101,-43,-2382,-2620,-4301
-68,72,-5,-3819,-7374,-6397
-3,116,-80,2650,-1324,-3025
99,11,-10,12262,-4666,2531
108,101,-5,7710,-4546,2884
61,41,6,4337,-4764,844
84,51,-65,2813,-2233,-1391
-107,-77,47,4715,3190,1912
43,-49,58,4162,4019,3609
-109,83,-26,1624,206,2471
43,125,-58,-2249,-1702,-1667
-1,67,-81,-1412,1326,-2108
114,114,-125,-467,1588,86
70,119,-99,-1466,-133,209
30,-120,109,-1206,-507,-490
43,-121,92,-741,-573,-814
80,-108,121,-1076,-656,-1149
113,-85,114,-1282,-377,-690
-64,45,22,-5735,2330,-1820
65,-57,63,-2043,5980,-725
107,-108,-118,444,9825,-1059
21,-69,4,-2267,5807,-5254
-11,88,-91,-4189,5783,-4988
17,-3,66,-15415,-3450,-3348
-71,22,22,-26343,-26374,-3033
-115,112,67,-23778,-2077,-3092
-93,-53,-106,5189,9688,21162
-12,70,55,11735,-10080,-4823
-54,-53,-60,-780,4359,-4379
-36,107,-61,-2954,3054,-6244
31,-120,8,-7448,1424,-2733
5,8,-4,-25400,-20969,-9032
50,16,53,20989,-871,-14
-58,-96,26,15261,6455,13980
111,51,87,4923,-2531,-5560
77,-103,14,1141,-2963,-4836
70,27,-103,2314,-1968,882
-32,66,24,1768,-7308,-2171
19,49,-102,-1533,-11915,-2225
-110,53,-114,4294,-6290,-2598
36,-127,-66,8619,3251,6425
75,110,17,2412,1067,2483
102,93,4,3077,-1518,-464
51,9,-72,2369,-868,-492
107,-122,-91,-1663,645,-2283
61,124,-77,-1738,3659,52
78,-98,-116,-1011,2822,453
91,-107,-122,-1252,1010,-562
83,-120,125,-1732,-493,-1695
-122,-66,83,-1495,-763,-1103
121,-36,84,-2874,-1879,-1423
-127,5,-27,-169,-274,137
95,-11,23,377,-334,47
81,-5,79,829,-545,112
86,-15,125,674,-579,210
75,-9,-119,450,-163,312
62,-11,-97,-516,-87,-66
64,-2,-120,-949,-85,-309
97,-62,56,-2616,7052,418
112,-10,112,-1017,8485,-1871
48,123,-39,-2817,7477,-5078
76,15,122,-3134,4753,-6729
-74,-15,-67,-12915,-3068,-2684
-21,0,90,-25656,-24322,-2261
-39,72,-29,-22055,-7066,2664
-111,-84,-9,4226,21911,10230
-70,13,-85,-5255,-10870,-7014
-82,81,-34,3943,5160,-3456
115,49,3,-7389,2575,-1942
65,-44,-92,-18891,-11871,-4001
96,-37,-29,-6641,-1726,-7683
20,-36,49,23444,10400,15379
6,43,24,402,-7793,-13443
-124,-45,59,4132,-2334,-3897
1,72,-87,12609,-1831,1500
-109,-27,45,2453,-7772,2523
40,37,-9,-5257,-6549,-3416
-92,62,-43,2850,-1972,-570
6,-35,117,6134,4293,5498
79,-109,-46,2165,-349,3188
-111,30,-69,238,-2049,1151
94,-82,60,-1058,-1325,-1662
-38,-96,-53,-1164,967,-1493
51,-75,-102,-1012,1395,-222
39,-82,-127,-1168,845,-389
53,-79,126,-1384,45,-1062
115,-67,102,-2184,-426,-805
-120,-27,48,-2755,-1270,-757
109,0,-2,-1055,-907,-279
100,20,-14,949,337,425
64,16,104,11,-316,-19
65,19,104,52,-313,83
75,9,116,-39,-98,15
86,1,120,-267,66,-25
88,1,113,-543,-222,-62
85,13,91,-405,-234,-75
90,31,78,-184,-52,-33
89,31,86,-330,-136,-117
-1,-61,-106,-3489,2634,2466
96,58,-95,-3058,11295,6056
-8,-78,-28,1405,10519,-606
92,-74,-126,-4086,6224,-5078
6,91,70,-4258,3481,-4482
-99,-90,-44,-13288,-4336,-3109
-35,126,-124,-23211,-14405,-5934
80,-99,93,-28053,980,-88
29,-73,-98,6040,5765,22090
-83,-36,16,11077,1334,-1940
11,-107,-33,-3478,-365,-5472
-57,32,-32,-2679,3741,-3668
-24,11,-35,-12406,-1866,-2973
-116,114,-92,-30067,-13656,-10728
53,-52,-35,-28046,2105,6541
108,53,93,15418,6450,1511
-81,-90,124,-8982,-9173,-8736
-58,-8,94,14563,2182,2273
37,-32,-99,206,-7506,-1219
-6,-65,17,-6971,-5858,1887
-113,-65,-91,-1501,-8670,-886
74,-19,61,8197,-3739,1368
-106,28,26,4125,-486,2422
94,18,53,3358,992,1476
41,-62,-104,3045,-225,2145
82,61,-69,-72,-1165,-66
-118,-99,67,-2495,-840,-2093
40,-94,127,-143,2358,139
38,-117,108,18,2746,-39
104,-116,103,-443,2067,-202
85,-77,-28,-2716,-1452,35
31,-69,-69,-6432,-4098,-2821
-106,60,84,1815,1208,804
-113,-21,12,1037,559,391
96,-50,-110,-1259,-1172,-869
-117,-14,24,1062,592,619
98,-18,104,210,84,101
83,0,119,-114,-258,53
95,4,102,-187,-79,64
101,1,98,-111,-34,-63
75,-15,26,-1902,7854,5460
112,-17,120,-10823,4578,-4364
-12,-32,-30,7419,10172,2061
-52,60,-120,-4994,5597,-6768
11,105,5,-704,5358,-4644
-93,-71,-44,-10680,-3648,-3824
108,-2,5,-25122,-21698,-7008
-96,-1,-114,-26921,2257,1760
8,-76,-26,1555,14980,22778
15,115,85,19024,-3327,-2621
-51,-100,-90,-856,1459,-6482
6,69,-45,-7019,4760,-2642
43,-78,-12,-21596,-12147,-3755
-59,94,-93,-14571,1988,-10664
27,84,-50,22852,5358,8701
-21,-3,-26,-5970,-7102,-9876
61,-79,98,10041,-149,-420
0,-112,9,12067,1824,1640
-70,-49,51,5127,-4166,4633
-80,13,49,-11525,-11072,-5598
38,-53,-116,-1085,-4200,-3376
50,-16,8,10576,4273,6020
101,-42,-38,4190,201,3748
115,-25,-34,-39,-1902,-1225
-91,-78,58,467,509,-1129
56,126,-1,-2261,1178,-1307
120,-79,121,-913,2275,394
84,-100,122,-617,1103,-38
63,-97,-85,-1880,-1483,-882
94,-52,97,-1741,-1463,-300
95,-19,57,-1662,-789,-450
104,0,19,-160,474,51
89,-1,79,-221,122,-181
88,6,113,-712,-504,-387
97,-3,85,-429,-248,-185
102,-4,79,-23,89,-78
109,6,93,-36,161,38
115,15,112,-266,-79,-60
115,5,118,-256,-436,-181
121,5,105,183,-17,209
0,10,83,1097,10223,2666
52,-126,-82,-11281,3837,-8374
-21,50,65,-751,8130,-2282
54,120,23,-5857,4698,-3271
25,77,-47,-12743,-7994,-4814
-100,78,-57,-23326,-8671,-6589
111,105,94,23875,-3654,-544
35,-33,-58,16312,-98,12064
-90,101,-10,180,6592,-1251
-28,-50,7,17394,9223,2729
-23,-122,-14,-7277,-3719,-6562
-66,6,-46,-2576,3555,-1745
-51,11,-113,-11269,-2124,-2222
-80,-95,88,-30570,-15223,-6279
94,44,106,-22646,-2769,3449
-124,-98,-89,15765,13977,7515
-18,-77,-30,-12472,-8076,-9204
-33,8,-124,-2388,2530,-2438
-33,126,8,-4873,2743,-2743
107,-30,110,-11697,-5206,-3996
92,-24,-15,-3587,-1639,-3449
-40,-49,-80,8525,3484,4025
25,-9,-47,3496,3,-1803
97,-16,21,571,-1614,-951
-15,-80,70,5159,869,-1575
44,10,117,7831,-201,2419
-16,77,22,3313,-4113,793
-105,116,2,1303,-5934,319
-25,-99,-53,4633,-5100,1822
-30,-71,56,-508,-4699,-756
26,-30,-58,-1230,-3042,-1287
42,6,29,837,277,373
12,-73,35,258,526,-144
14,-63,29,-103,-436,-551
12,-65,24,-720,17,-209
43,-102,-44,-2357,193,-337
34,-68,123,-782,257,206
25,-39,96,-235,258,382
36,-33,122,-338,-135,86
62,-30,115,325,-79,279
27,-87,85,2389,5743,3191
-39,-12,117,4744,8414,452
-14,-48,-35,-8183,5088,-6432
104,44,109,-1642,4025,-5757
-42,105,-71,-6396,1332,-6296
-100,0,-81,-16502,-4615,-3006
-12,-106,-84,-30114,-4678,-8120
124,122,54,-26829,-1975,9636
-110,-39,44,6692,8738,116
-128,12,45,-8207,-5401,-5348
-74,-47,-87,-1316,3168,-2701
-22,-80,13,-6061,4689,-444
110,-81,66,-27226,-21077,-6574
67,-101,72,18697,-688,-3434
-114,-107,86,14695,12365,15657
112,19,48,8193,-8742,-6785
46,67,72,928,3119,192
-33,-37,89,-4523,3328,-1177
1,95,-77,-8212,-3009,-959
33,-36,99,-4225,-8347,-632
51,103,87,8004,-4915,-6423
-85,10,-102,10127,-6348,-1226
40,122,115,6049,-2146,5724
91,-112,90,67,-4359,-138
118,38,-7,-417,-3789,152
-122,5,88,2030,-652,930
100,-21,38,4092,1667,1499
-19,-59,51,3734,2516,1333
-86,-99,-109,-747,941,-706
24,112,40,-5063,-485,-1960
97,-76,102,-3652,-418,-830
90,-54,23,-1057,17,-124
76,-88,73,-920,-483,-1078
116,-62,46,-143,158,-582
116,-79,77,-349,-107,-433
113,-67,110,-1008,-819,-454
126,-59,53,319,-81,404
112,-53,80,430,48,403
98,-38,97,664,59,500
92,-38,123,181,-118,201
-18,-121,71,-8636,3768,-4444
-67,85,-75,-3884,8489,1673
-1,122,-25,1272,8713,-2260
67,64,-111,-6385,5890,-3598
-121,30,122,-10066,3,-1186
118,2,15,-15850,-11014,189
-71,88,76,-2410,-6994,-2477
-20,-92,-5,20798,3569,11476
-77,-93,-94,2954,1651,-12326
-122,76,46,8135,-1812,-2445
-121,-45,-66,-4439,3444,-4621
-39,36,6,-7255,4328,-1222
-39,-128,30,-31093,-24339,-6242
-8,-109,50,-27806,-2821,-1373
-59,-16,110,3848,21953,12647
22,38,115,1116,-9937,-9758
47,-128,-5,3,-1009,1007
-18,50,104,-1302,-2180,-2878
-24,-67,36,3135,-2204,-2628
-86,-24,101,5650,-2912,2991
62,-39,102,4063,-4722,-836
84,-102,-75,2299,-2932,3170
-14,-120,-56,638,-4446,-1416
120,100,80,2830,-1264,1488
59,16,103,561,-1229,-400
75,31,6,1050,210,497
-35,14,12,1247,685,1441
-72,-42,31,-2717,-705,-416
-39,-70,-108,-1550,-144,-939
50,-78,103,-909,197,-460
54,-56,89,430,690,197
43,-71,-106,-1371,-351,-328
38,-13,-123,-2332,-1006,-458
18,5,120,-2643,-1689,-801
29,38,69,-1348,-763,-453
30,55,84,-771,-156,-60
11,48,113,-1131,-688,-458
33,56,101,-723,-468,-264
53,55,101,-251,-75,50
40,48,124,-373,-235,-4
49,-83,16,863,5770,4144
86,-117,-112,-8560,3935,-2485
-85,35,-54,908,7962,1820
-66,45,-4,-3906,5980,-3430
83,96,-67,-3012,7086,-2345
-121,31,38,-9467,32,-4313
-18,-4,122,-19345,-12081,-4244
121,-22,-69,5357,-6332,-2978
-89,-105,88,22035,15807,20646
17,109,-75,-2080,-7894,-16155
112,104,-82,17319,2627,4206
104,127,-122,-7948,2281,-6260
-86,26,-24,-5818,5409,-1309
-69,-10,41,-21547,-15744,-4877
91,76,-5,1180,-3360,-4420
70,-27,93,20848,6271,21737
83,-109,-97,1977,-4080,-12540
35,-115,-127,6015,1178,-5583
19,-6,4,5653,-1638,-4001
17,-66,-116,-76,-4638,-952
122,29,-44,-2107,-4619,-1658
-5,111,-56,4106,-4223,520
86,-83,90,5810,-4272,5090
-81,117,-24,311,-4943,2574
88,-123,69,2513,-2281,-627
108,-105,25,5924,1228,1579
-3,94,4,406,-1400,660
-124,-11,114,-2939,-505,-827
-75,-65,-83,-2577,1781,-1479
53,-120,56,358,2467,-848
99,-120,-116,1503,1362,363
70,103,43,-3884,-3135,-1110
76,-52,76,-2044,-1223,-81
73,-12,6,319,691,571
55,-19,99,-268,-126,-346
75,-18,103,-161,-367,-156
71,-40,112,-521,-492,-140
73,-34,95,-46,-193,26
61,-27,112,-373,-331,-72
56,-1,99,-508,-217,-145
117,48,-1,-3882,2535,1126
-105,-25,21,-760,5628,1384
106,9,-109,3495,8718,1225
51,-117,-51,-8656,2132,-9282
22,122,-123,-10768,-712,-6426
-4,62,125,-12878,-4866,51
-54,59,-34,-18593,-13833,-1433
57,65,2,-32740,-1862,4867
-4,84,-55,7834,9850,16505
-51,-84,-13,-4857,-7085,-10709
-123,20,116,6479,383,-2764
-88,-102,-98,-7727,5284,-3189
37,33,17,-6726,1918,-28
97,29,-4,-30902,-15986,-8758
29,81,0,-24752,155,8693
45,-88,-20,8839,6836,6715
-48,85,12,-5161,-8275,-11301
-22,48,-42,2553,814,-6179
-56,105,-81,6604,-2079,-3814
4,-116,105,2523,-4713,3033
64,10,-107,983,-3900,1047
-1,80,26,6546,-2560,4163
-81,81,-8,971,-4280,2508
-107,106,-50,1014,-4563,172
-85,65,24,3480,-326,820
57,69,54,4759,1988,2434
-117,-62,-70,-493,-28,-460
-55,120,10,-1980,770,-1513
73,121,-118,-977,1978,-372
90,119,108,-179,1281,-75
53,90,-88,-1098,-787,-1097
87,109,-127,-1276,-1048,-1220
-126,104,-122,-2340,-1188,-1068
-100,-104,51,-1654,-796,-350
-122,-79,17,145,16,314
105,-61,47,471,126,305
83,-37,107,-187,-300,-19
81,-33,104,-322,-310,-154
89,-34,109,-549,-203,-203
107,-32,100,-679,-212,-203
46,-108,-2,-3048,9776,5281
-62,117,118,4093,11634,3187
-77,-94,105,-5971,2981,-8044
-107,88,-16,1162,5866,-3184
-83,-1,56,-736,4760,-4215
-79,-84,-22,-5872,955,-5000
66,-62,-58,-13171,-7085,-1789
33,120,-107,-24870,-13587,-11198
57,89,-102,-28731,3474,244
-114,88,78,9023,9283,20121
87,73,45,2169,-8228,-5923
-78,-75,-121,1289,1841,-3622
-58,106,-99,-5503,4291,-4032
44,-5,-78,-7421,2211,-1015
-27,65,-39,-28227,-18154,-6964
-69,76,39,28246,-4154,-5980
-12,-22,105,15608,11564,25122
112,-87,15,-11884,-6780,-15680
-7,33,-57,-1056,-3459,-11085
24,-38,82,7377,-1800,316
42,43,-53,8239,-6661,4124
-35,-75,-8,4811,-4193,-202
-74,-63,74,1152,-2115,3906
28,-39,46,-1612,-5711,-1394
61,34,71,3861,-2769,-270
119,64,42,5684,1166,2478
-63,47,-60,1790,936,1327
79,-95,117,-3003,566,-1803
0,-116,-94,-927,2351,-815
62,-121,-127,225,1542,152
28,108,-81,-109,-236,-564
58,115,-109,-435,202,-926
110,117,-113,-1072,60,-642
127,-116,91,-951,322,-309
121,-103,75,-959,-120,-289
120,-104,47,-279,-266,-85
113,-87,58,418,-351,283
107,-74,106,93,-629,202
101,-59,-127,-283,-577,158
95,-36,120,-591,-389,94
-68,125,114,-6787,985,-2591
-34,68,-102,-5999,7637,-597
67,-120,-29,-3676,5206,-1883
27,-114,89,-8805,-182,-3892
-89,119,99,-13985,-6389,-1025
82,40,56,-16647,-12449,-3370
-84,-107,-10,32696,-1989,6293
-33,0,-2,7625,13087,19178
-74,65,2,-7357,-7301,-12927
-48,62,-110,18274,-328,439
-29,106,80,-12417,5583,-5249
28,112,-3,-4875,2295,-585
111,-59,-91,-30246,-18219,-7074
-10,113,-67,-27405,-3659,-507
-115,33,-20,5968,6761,22822
110,-63,35,2537,-2246,-10483
-41,-85,-43,7908,2420,-3467
-25,-20,82,4027,-2992,-3643
-55,6,-65,2870,-3873,-2044
-70,25,108,-3540,-3830,253
-72,39,-88,1271,-6483,1082
-39,-5,-75,9171,-4191,4959
-22,93,-36,224,-6085,2112
74,-64,111,1778,-3573,249
-114,-95,78,10549,1582,7408
-42,125,98,-369,-1581,932
-50,46,-22,-8621,-2783,-8206
-98,1,61,-2256,3444,-909
-120,-44,35,2926,2923,3184
-18,120,-46,-908,159,101
17,-97,99,236,899,-862
56,-112,-98,-676,-292,-1565
105,-62,-29,-3910,-1914,-2724
-93,5,108,-5207,-1836,-1935
-90,43,-88,-158,-173,449
105,2,8,1363,137,577
71,25,105,958,-148,387
58,21,-99,378,-164,348
56,23,-86,-374,-154,36
69,23,-107,-430,153,-122
-49,-98,8,-4788,2146,946
5,-110,-48,-7918,6450,580
126,27,35,1064,9345,2954
-114,76,127,-7804,3773,-3487
-50,68,48,-8782,-272,-1478
16,-84,-73,-18795,-17025,-4129
-10,-35,-65,6229,-4790,-6140
91,14,25,25615,16275,23993
118,18,-7,3156,-2756,-6342
119,-109,35,11880,324,-1728
-52,-1,-58,-4211,2473,-4141
105,25,12,-5041,4217,-1369
-108,-45,-37,-17472,-11874,-4943
-101,-83,-16,-12041,-3753,-5147
44,125,2,26447,4487,13637
71,-31,-28,6434,2434,-3598
72,111,-14,-1768,-5043,-6368
-17,43,65,5932,531,-4418
-87,-102,-18,-2003,-2276,-2580
-72,-48,-26,-110,-4078,-3520
-73,-94,8,4267,-4423,-1381
-37,-56,-34,8080,-5179,2222
3,92,94,5630,-2196,4824
-113,49,-72,2144,-2617,1065
-78,-50,52,6213,1359,4035
-1,-127,6,3382,-608,2924
30,-62,-41,-2815,-2046,-1832
-87,-122,19,-2485,274,-2424
102,123,-54,-2942,463,-664
94,-102,46,275,1963,792
44,-104,-108,-1102,361,-292
32,-81,-108,-1810,-831,-970
85,-51,84,-1273,-509,-740
104,-35,88,-1042,-257,-497
92,-30,103,-1192,-498,-707
91,-17,82,-524,-170,-456
105,-18,85,-354,-150,-365
110,-23,74,372,-2,-22
98,-24,118,75,-272,-64
92,-12,-105,-773,-701,-193
-68,98,111,-8209,5238,-5497
-97,-21,-7,-4218,5999,-3269
43,-123,-111,-8856,3458,-4249
-71,23,113,-13674,-3087,-2390
-33,-79,-79,-19275,-17176,-14
-91,21,-73,26096,-2269,176
6,84,-3,8495,7433,21900
11,81,-69,2636,-3781,-12262
125,114,3,397,-2869,-1595
-73,-71,-59,-2824,3860,-6160
22,11,24,-6429,2575,-1446
31,76,2,-22287,-14370,-4388
30,14,-23,4049,-4620,-7411
-61,-46,124,22869,9172,20077
66,-94,47,14302,2494,-6111
126,62,-58,-6012,-4957,-11609
71,74,-38,8009,839,1215
65,-113,-38,-3676,-2592,-1338
69,-25,118,1119,-5775,-687
89,-45,36,6746,-5534,2625
87,-115,-69,5089,-8642,1463
-122,-74,-54,3549,-3227,2248
51,61,26,66,-2365,-527
43,18,94,1780,-349,296
19,-16,25,3496,1846,1628
-71,-102,29,1592,1711,-408
3,123,-31,962,2485,-519
65,87,-14,-961,1019,-704
82,102,-33,-2295,-553,-748
81,120,-116,-3185,-1963,-1181
93,-102,56,-1837,-921,-945
125,-72,17,491,535,264
100,-88,-127,-836,-449,-367
111,-59,74,129,32,94
101,-62,108,-285,-373,-45
103,-40,106,27,-101,86
104,-34,-118,-564,-353,-125
95,-22,109,-544,-66,-131
96,-16,88,-521,-75,-243
99,-24,83,-149,-196,-241
12,16,80,-2785,4277,-219
-64,-10,109,-3539,6047,-3655
23,112,-91,-4494,5555,-4456
-17,-17,38,-5694,3245,-4193
-15,-6,-74,-16075,-4118,-3142
1,81,-81,-23653,-12573,-2436
74,-24,-54,-31202,1632,17152
55,52,-118,-186,1976,-2784
-125,118,-58,8122,1668,-2542
-24,-69,-38,-4151,501,-3589
-85,1,10,-4287,5585,-2832
1,75,-77,-12196,-4809,-3121
-72,29,-33,-27661,-9735,-9838
17,-6,15,32203,2907,10432
71,-85,53,9052,2524,2647
-117,-118,16,430,-3091,-7150
17,106,122,5475,-1076,-6664
66,24,-39,3422,-3511,-1515
82,-3,25,-573,-3457,-2290
103,-95,115,3794,-2682,1005
81,-89,-64,2534,-3569,3553
-5,-1,-109,2133,-3746,2939
32,39,-63,508,-3895,1168
20,40,124,-131,-4454,-1316
95,66,13,2581,-1420,65
57,104,-25,5235,1267,2628
-119,-52,-50,-1656,-1332,-937
-53,-79,28,-2271,-54,-1525
47,-65,116,274,2265,317
37,-86,-102,51,1468,-32
37,-83,-72,-1496,-144,-663
73,-61,103,-894,102,-290
87,-56,68,-292,268,-172
76,-53,102,-659,-322,-438
101,-34,81,-189,-120,-147
97,-35,100,-393,-422,-293
102,-28,93,-44,-322,-102
102,-24,118,-421,-465,-133
95,-16,111,-318,-350,-12
94,-6,108,-270,-228,-58
79,14,0,2556,4998,2534
-11,-5,4,2133,12605,5404
102,117,-107,-6555,521,-7136
47,-40,-87,1357,4954,-4484
-44,-4,-17,-10440,1459,-7563
38,-75,64,-14187,-3346,-2492
-13,-9,71,-23324,-15228,-3841
14,60,-10,-31816,-2728,4686
18,-39,-88,5589,5886,22538
-31,-73,-125,4624,-7005,-16148
50,1,-102,28974,9235,7935
-110,-38,-54,-10215,62,-8947
36,-125,-30,-4303,3578,-3758
-5,57,54,-13765,-5551,-979
126,94,-87,-25825,-8284,-8769
96,25,81,-27709,-3012,8777
34,21,76,1752,11156,4551
22,-44,123,-288,-7034,-7893
11,83,-65,3176,-1388,-5182
64,-105,-39,2380,-7663,-553
-62,-35,86,898,-4684,-327
-15,8,-108,4894,-6414,1521
-35,-108,84,5257,-4563,3287
-80,65,-96,520,-4324,333
-57,90,109,1682,-2957,593
42,-75,83,4951,875,3933
51,-48,-21,-1340,-1154,-1668
-117,109,6,-608,2066,-2496
73,124,-63,-60,2849,-503
85,-122,-46,-1596,927,-189
71,-104,-119,-1235,615,-526
89,-109,103,-1512,-21,-1367
125,-81,99,-1565,-350,-1015
85,-7,-82,-4185,-1941,-1436
53,53,66,-4104,-2711,-2215
85,69,-21,1167,525,282
48,10,-108,-765,-1049,-810
71,30,115,569,30,107
57,24,-86,-162,-214,32
38,52,-95,-202,-234,89
109,-33,84,2378,8241,5178
63,52,-113,4701,10267,-1338
-86,25,-2,-8822,5225,-3205
15,105,-71,-3379,6057,-4575
-54,62,38,-7608,1219,-3330
-12,54,-52,-19561,-12467,-1531
96,-127,-28,7356,-7743,-10032
-64,-38,-38,22031,9808,27660
-57,-2,40,15508,-4316,-11844
111,55,-20,-8097,-1424,-5131
-35,-69,-62,-2808,3336,-3170
50,125,9,-10165,2651,-1355
-60,72,25,-27530,-20580,-6565
-15,-5,-20,31762,1600,8882
-41,56,-2,11975,5913,-2750
-95,33,-33,-2251,-3506,-7800
20,-31,-2,10355,-373,-105
-65,-79,-53,-3181,-5461,-1436
28,34,21,-1098,-6315,-74
28,-72,14,7665,-6230,2828
119,-104,-126,6884,-419,7595
119,-40,59,-6998,-7526,-3096
-28,46,-26,1306,-2570,-2249
-125,102,-44,7914,1276,2619
-6,-21,-13,318,450,-118
-14,-80,62,-2224,1116,-945
52,-109,-83,-1022,1358,515
53,-113,-108,-1357,-205,403
42,-86,125,-215,-697,212
44,-83,122,-218,-520,-266
60,-84,121,160,-277,-439
67,-86,-89,-906,-704,-533
82,-59,119,-808,-175,24
78,-52,89,-512,310,-33
85,-43,75,17,378,-26
81,-40,99,-124,-150,-168
94,-31,117,-590,-573,-276
97,-32,100,-460,-444,-106
97,-21,93,-215,-125,52
89,-9,103,-399,-124,-101
42,42,-108,1380,8496,1784
88,56,-114,-9769,5311,-7361
53,-44,-33,5646,6792,-2479
64,-113,96,-5813,6261,-6715
114,-23,-7,-9334,3186,-6808
-127,60,46,-14484,-3790,-5047
58,-1,-124,-20819,-17801,-5822
110,113,-38,-31008,3718,7679
-113,-17,-87,2458,8342,12999
-101,-43,-114,13455,-974,-7349
-33,36,30,-2766,-88,-5390
116,96,-76,-4554,2765,-5277
59,-95,-28,-15415,-8841,-2634
106,15,-70,-18214,-15120,-5723
-117,94,-92,29224,5490,11131
-22,96,105,5073,1474,-3772
75,-45,-99,7100,-2059,2876
-115,75,44,-666,-4617,-421
101,-125,-73,-254,-4525,-726
-95,-54,-46,4342,-4781,-964
9,-112,-68,2946,-6318,1072
9,-56,107,2850,-4572,2493
-29,-71,120,1059,-2397,1258
3,89,46,-3773,-2021,-2269
-54,3,-41,-825,-2060,-954
8,-57,-70,8817,1459,6531
89,56,42,-2104,-2338,1832
47,-104,73,-4721,-2184,-3736
-10,-26,74,595,2820,-192
51,-49,-58,-1847,1195,-466
31,-27,-110,-1838,-355,-499
47,-27,56,7,432,-118
58,-33,107,-524,-83,-354
73,-33,89,-135,0,-223
102,-39,62,945,656,171
95,-39,118,77,66,4
84,-25,124,-417,-399,11
77,-22,102,-486,-588,-224
106,-29,86,238,-63,25
110,-19,109,36,128,138
67,-64,107,-424,12648,1709
118,92,-59,-102,1686,-5315
-68,122,-1,-3328,3370,-7287
-6,-52,75,-1143,2112,-4897
5,-10,124,-10155,-1183,-1404
124,-43,98,-19825,-11693,-3582
-91,93,-53,3562,-6645,-2911
6,-11,-55,22952,7146,22740
-62,-56,67,14781,-4487,-9191
69,43,-85,-5400,76,-5010
-58,-50,-94,-2159,3684,-6170
-35,-12,9,-10504,3105,-3465
-19,-40,24,-30588,-24469,-7540
-121,-18,65,-23281,3622,11629
11,-49,-55,8650,6389,-2630
85,45,-66,-872,-10867,-10801
75,103,21,11345,-1277,-961
-86,-18,42,-12797,-5683,2265
16,12,83,2842,-5232,-2754
-79,-108,18,9552,1046,8615
-71,-113,40,-3639,-2855,1455
124,-122,90,-4136,-6156,-2631
29,89,100,3414,-698,-843
-89,116,-79,5660,667,2762
51,32,98,882,-1110,806
-30,6,6,1094,-31,391
-42,-87,16,-1004,-53,-1237
45,-100,-100,164,1221,-498
98,-110,-90,-589,1077,-371
34,-27,-1,-3822,-1424,-745
-2,5,-62,-5688,-3110,-2070
73,60,-40,543,936,548
78,33,56,307,1526,385
24,48,-95,-1261,72,-789
81,60,-114,-1707,-591,-831
100,77,88,-447,-356,28
63,69,97,101,-204,-104
63,70,123,-24,-395,-155
78,73,120,132,-109,42
64,82,-106,-441,-381,-219
109,-31,-68,-157,6742,3418
-6,-125,102,1750,7569,164
78,-100,-52,-9564,6131,-5773
-31,19,-74,-3125,7789,-2973
49,37,82,-6815,2224,-3361
116,-124,-15,-15560,-9665,-4405
-19,65,-89,-22630,-5970,-12731
126,-52,41,-25757,7456,11783
79,48,11,-981,3570,2562
111,-52,4,9265,-3610,-1727
-93,-87,-113,-2966,3990,-5312
-113,-119,-16,-5453,4669,-1723
-93,103,-11,-15870,-9717,-2043
-75,86,35,-26498,-3856,-12053
-47,71,35,32696,5447,17362
-19,-50,-114,7971,4529,-1544
-24,-48,0,-9491,-6795,-12053
35,4,123,5852,3013,-6454
8,33,92,7674,-3320,5365
-72,68,-65,-1479,-6591,-1708
-85,51,12,2611,-5138,-1989
-49,123,58,1909,-5378,3024
103,30,68,385,-4558,1042
99,-105,-34,2296,-345,967
124,-85,-9,2197,719,876
123,71,-128,1829,-2623,370
26,1,60,2917,-1449,1104
-99,121,15,1184,1284,-1125
18,106,-43,201,3176,-817
97,123,-38,-969,1953,1
107,-127,-105,-1123,654,198
92,127,93,-360,505,-229
119,-123,77,177,571,-434
-101,-109,126,-711,-67,-648
-89,-96,105,-1127,-231,-646
-88,-96,65,-930,-201,-510
-88,-79,51,-318,-328,-269
-86,-67,77,-454,-674,-116
-109,-60,98,-540,-849,-217
-103,-55,91,-155,-492,-66
-43,-18,47,-1328,4942,2319
98,56,82,-2979,10732,-1227
-56,62,-17,-6165,8027,-5683
89,-3,-55,270,7069,-4509
-14,-108,35,-3175,4594,-3266
-91,-115,-28,-5148,1868,-3481
32,-29,-17,-11920,-5920,-4157
-17,-30,-36,-16089,-23447,-7801
-74,-83,-12,28476,8664,11129
6,-48,-109,9622,4062,3149
-119,42,118,8487,-5054,878
-83,65,-46,2131,1098,-3904
-68,88,-93,-2385,1755,-4970
-119,88,-32,-7167,2472,-1266
62,-27,126,-19621,-13535,-5295
81,-23,27,3052,-3342,-2297
76,120,98,17528,7909,13619
-117,76,-93,12122,8989,-656
-103,-40,98,-5930,-10025,-7124
-84,124,91,5367,1537,1368
-108,71,-121,-1427,-3807,-2133
-36,-98,-88,1776,-3288,-1634
80,-58,-30,328,-3350,151
-91,121,113,2977,-5465,-166
-80,-50,117,2488,-7077,464
-15,-88,80,3023,-6313,-808
-127,49,43,4991,-122,2739
105,76,78,2860,868,1403
-65,104,-121,1728,-335,912
93,-55,83,-289,306,-1298
-71,-128,-4,-1100,1441,-1828
65,-122,-47,-1865,1117,-638
33,-99,-88,-1819,-771,-294
8,-89,97,-495,-551,-409
37,-61,70,947,888,27
47,-73,-91,-882,-146,-596
59,-60,122,-754,-121,-593
66,-68,107,-1067,-510,-769
83,-64,80,-215,-412,-317
76,-69,98,107,-505,-37
-107,-8,114,-1185,5305,598
-26,104,107,772,9519,-926
117,93,-45,-4561,3214,-6616
71,34,42,283,4691,-4226
26,4,113,62,1864,-6457
-61,-97,-121,-12481,-2021,-4468
22,-28,-10,-18656,-11947,-1729
63,69,17,-164,-3034,-1567
-67,98,87,22484,14450,16081
-63,33,-80,5457,-8432,-9352
2,-106,69,-4841,-802,-2546
-78,-8,113,-2055,3949,-5107
-106,-13,4,-7266,4082,-2444
0,6,44,-24411,-20514,-6015
125,-3,10,10112,-2960,-825
3,21,-55,14127,9407,14757
127,82,-25,5574,-5755,-10232
-100,-32,83,5284,-2854,286
-106,-38,123,3376,-4037,792
71,59,89,-1305,-6615,-3700
-13,39,-123,2214,-4268,-511
83,-105,-79,2957,-4265,2956
23,17,-74,843,-629,2578
-117,-6,-79,-5457,-4147,-2742
-62,-1,-43,-3901,-4277,-4656
124,44,40,4791,579,-300
-83,120,-18,7216,187,4196
-99,25,40,-3294,-3120,380
88,-18,106,-5536,-2251,-2556
-16,74,77,-563,2149,570
-43,45,-110,-76,1572,632
-90,-12,-62,-536,-369,-817
-25,-21,-121,471,-127,-179
11,-6,-95,-360,-248,13
13,20,-106,-419,-133,186
-14,30,-104,-609,-185,-263
13,21,-112,-814,-208,-374
42,25,89,238,328,275
13,18,-117,-435,-382,-266
34,24,112,312,26,64
98,105,45,-2377,4466,3389
113,121,-7,-461,6216,3604
39,63,-17,824,6806,-3474
-82,-15,81,-3565,5266,-4766
-98,-16,-41,-2707,4739,-3463
13,122,62,-5330,2525,-2494
-22,-117,-63,-7902,-2393,-631
17,34,-107,-16501,-14619,-2458
9,6,63,8874,-6063,-2893
55,95,1,16483,7130,16203
-55,105,-79,10151,-3513,-9509
102,119,-50,-12568,-591,-5941
-44,79,-51,-1719,5067,-5435
60,-14,52,-11577,14,-2069
-84,113,-25,-28137,-15552,-7710
125,115,49,-29014,2728,12093
-79,-128,12,15475,-2676,-4372
-75,-58,125,-6437,-3244,-10246
115,-96,0,7248,878,-2207
27,106,74,-478,-5088,-8249
0,-88,99,-970,-7221,674
-50,80,-90,3788,-5435,52
115,-91,-52,8584,-1076,5566
-64,116,40,-2935,-5077,196
-36,5,76,-483,-1905,-2467
96,114,-87,5617,1901,1530
46,-2,116,286,-397,24
64,-29,-5,1033,471,635
30,-71,-11,424,0,607
16,-103,-56,127,78,123
18,-107,-77,33,176,39
26,-108,-80,-735,-187,-158
44,-95,-125,-798,174,-140
61,-79,83,-273,760,111
52,-93,86,385,594,-96
73,-86,-111,-1029,-523,-586
109,-73,95,-595,-30,-258
123,-69,85,-713,-84,-218
119,-58,69,-327,112,-32
115,-43,79,-542,-60,-60
118,-14,82,-4917,3164,92
-127,16,17,-5662,2439,-1398
82,22,104,-2935,2288,-133
87,-19,87,-2143,2133,100
-83,-55,21,2715,6367,3027
6,63,-4,2247,5336,280
-101,84,116,-13060,2161,-4824
68,33,78,-11428,-2402,347
-62,-111,-116,-21006,-13202,-2517
-14,-92,-35,21757,-6912,-2710
-42,-123,-47,10142,2816,13657
-74,-83,-39,7702,3422,-4796
67,44,78,-172,-3368,-2476
-57,-106,-79,2136,1034,-3308
-17,78,-68,-2785,4276,-5749
-21,-22,37,-5179,1537,-1454
-4,-39,96,-17877,-10614,-3689
-38,127,25,-17060,-3230,-9137
-127,70,92,23931,2346,9306
-124,-40,15,7816,1090,3414
-20,-121,-87,11547,977,1198
-58,-74,124,-2071,-3226,-10254
-33,-28,44,1610,1066,-4013
-31,30,4,2643,-169,-8058
19,-93,108,-1045,-3708,-4951
-25,-77,-20,-1562,-6071,-5280
94,-53,18,8524,-1078,1428
-78,-70,41,9400,-2479,6784
18,43,21,475,-5264,3611
-18,78,-19,-161,-5667,-1044
58,-100,36,3420,-600,-374
80,-128,-124,2410,427,1070
-45,36,-110,637,-563,599
-109,-73,43,327,241,-248
-49,-92,-52,605,2259,-402
36,-96,-123,379,3235,-121
68,-118,99,948,2472,311
61,100,-70,-702,-228,-337
92,120,-111,-1131,-1255,-278
108,-120,101,-513,-749,-92
-21,35,-55,1252,8029,4848
39,49,-109,-9999,3300,-6591
-32,-117,-74,1228,7593,-2174
119,2,67,-4324,3631,-6204
-16,69,-114,-3160,3161,-4882
57,-40,-14,-10264,1217,-3631
-35,124,-40,-14841,-10283,-1926
108,56,-80,-19556,-8480,-7301
-79,41,76,30796,1867,10289
33,3,-6,6124,1575,1112
-121,125,3,-257,-8044,-8906
-116,-41,78,-3880,-1319,-1733
120,43,58,-1358,3695,-5176
72,9,-76,-1948,4651,-2249
62,-128,10,-8067,142,-1152
-70,-88,-62,-20176,-13956,-4738
-11,-35,80,4950,-3372,-606
-81,42,70,16368,1630,13972
84,-123,-2,121,-4800,-684
-32,-66,-70,-2561,-4831,-10895
-6,-65,56,12199,6852,-5683
35,-43,-50,15741,123,4185
-104,-58,62,-8198,-8333,-11435
54,8,-44,3296,-423,4197
-98,17,-72,2153,-3382,2504
6,17,101,2234,-5373,3519
-35,77,-64,-758,-7913,890
-72,72,95,191,-4305,-2856
72,19,32,3880,1504,-727
24,-14,63,2697,3142,1111
-36,127,63,-2532,2133,-702
64,-57,-97,-964,2019,1137
45,-34,-118,-402,714,1070
8,-76,-119,-828,-398,-497
49,-83,76,110,226,-937
111,-71,91,87,243,-373
-125,-67,-126,-857,-517,-416
-125,-62,92,-228,-465,-111
118,-64,105,-141,-558,-75
115,-38,123,-469,-494,91
-18,-85,22,974,5222,1882
10,-16,99,599,9695,1558
-18,-122,-42,-9436,4589,-7522
-32,120,86,1473,5237,-5676
-78,93,-46,-2869,3093,-5545
30,-8,43,-11913,-365,-3541
24,-122,120,-24000,-18207,-5027
-92,22,13,13434,-4779,-6494
-45,-48,-5,12261,10926,19273
39,-123,38,5392,-6144,-12193
-7,101,-30,13552,-3633,482
-86,1,119,-5549,3270,-5604
10,2,-28,-4312,4769,-2629
-31,-118,27,-10785,-2079,-963
90,12,38,-24765,-15512,-6712
50,31,36,25357,-1674,3290
43,35,-37,13128,4078,10314
-72,41,-53,-3438,-7363,-6945
-25,55,86,7883,4254,-2403
121,-64,33,4945,-4816,-3648
-18,56,-94,-1480,-3173,-3106
-107,-13,57,-2610,-5310,164
45,108,52,6152,-5552,1570
82,34,53,5609,-4634,2638
26,7,-77,-135,-6092,-1931
89,24,37,348,-1615,-1791
-90,10,-54,3924,1397,1216
26,7,98,3383,1117,2449
-113,-101,-101,-2353,-770,-1272
8,-115,-68,-1955,759,-1095
71,-96,96,443,1947,377
58,-128,-97,-509,468,-386
88,-109,-126,-374,95,-260
100,-103,-123,-876,-156,-231
115,-80,85,-531,260,-38
116,-78,83,-213,277,-125
123,-66,113,-1011,-300,-359
-120,-47,63,-378,-4,-81
124,-56,84,-381,-539,-228
-128,-48,86,-61,-452,-9
-112,76,102,-6972,4045,-1522
-23,67,-120,-2328,5414,675
-88,-97,-80,-842,7859,-715
-121,-74,78,-10270,2351,-4683
-39,40,113,-15394,-7964,-2760
-119,15,29,-15808,-11708,-3430
4,29,-83,26224,3629,13043
31,92,-42,7327,3790,10333
-50,-126,-128,-1306,-6229,-11796
117,-119,85,21899,2219,6380
-108,54,-115,-10171,2531,-5649
-35,59,-13,-4209,4565,-1241
87,-94,5,-13538,-6093,-2095
110,-25,-96,-28479,-10302,-8692
40,119,66,-29154,-1957,9227
22,71,-40,14193,3974,2199
-81,70,26,-12459,-7522,-10014
70,-42,35,10879,4409,-3175
81,69,16,2819,-3408,-2024
-17,-2,-95,-2497,-3916,-3275
-52,-58,81,-2432,-5744,-3392
-109,43,-128,1900,-4898,-533
-105,77,113,7520,-3347,3260
124,68,-126,2529,-4429,1526
-123,100,-128,2404,-3511,262
-48,11,-30,3347,-1646,2706
-23,68,-23,-503,-1258,-278
-83,-46,26,224,1793,-1030
8,-81,-103,-45,3469,-296
46,-56,-79,-1193,1697,215
43,-59,-94,-1721,-307,-135
49,-69,74,-512,-475,-444
91,-73,68,473,178,-225
115,-59,121,-369,-85,-61
96,-37,111,-763,-163,-134
93,-36,91,-547,-356,-249
106,-26,78,-168,-171,-117
108,-26,102,-441,-259,-190
114,-20,100,-508,-212,-102
113,-15,87,-251,-28,-23
31,-90,117,-2173,5098,1572
41,55,96,-3192,7168,2302
49,107,32,-5615,5614,-1553
124,-62,-48,-73,7845,-3624
56,28,75,-1578,4405,-1424
56,88,13,-3604,1524,-1532
-84,-126,-80,-13701,-8798,-2268
-115,-87,20,-20161,-11755,-8337
-94,-6,5,26022,4221,5581
-79,30,-125,7728,1580,6101
-119,39,16,9535,3449,293
-58,109,-83,-1489,-2956,-4589
-50,-87,115,290,3374,-5263
99,33,-59,-3692,3519,-2979
-50,-124,-23,-12306,-3990,-2104
-71,-2,57,-24257,-12220,-7233
-16,22,-109,27239,-3426,2324
93,66,114,7809,5612,13575
-85,60,-78,684,-739,-6251
81,98,49,1629,-3549,-7376
72,76,-25,8784,254,-886
99,89,-120,6739,-3636,3128
114,53,57,-2088,-6854,-2921
117,9,-70,4205,-5422,1761
-49,9,-33,2152,-4645,642
-95,93,-110,125,-4012,-464
-122,-88,96,3328,-1124,2671
-108,19,-71,551,-1737,445
98,-96,106,-2954,-776,-2038
-16,-56,-73,-1011,2483,-19
2,-52,-88,-266,2013,502
-29,-84,-65,-891,-77,-514
26,-77,98,677,1122,-145
63,-83,-98,-388,552,-362
80,-52,-111,-1091,306,-411
89,-41,125,-1513,-147,-692
113,-30,53,-458,105,-202
93,-22,79,-489,-533,-121
56,12,125,-1330,-1467,-265
26,14,126,-1425,-1990,-890
-27,-58,17,-5966,-300,3592
6,-69,35,-2637,9222,7373
109,-86,-28,5805,6416,-79
127,-46,12,-1723,6523,-1811
-96,-89,-127,-7441,4985,-2309
37,91,-76,-17799,-10884,-3696
81,91,111,-8385,-3491,-6220
-122,-106,-64,22114,5712,16132
49,-76,-2,2348,-3747,-907
-122,-7,39,5946,2679,-2555
120,-82,25,2350,-4983,-4098
-46,60,-121,-3890,3504,-4864
108,22,-47,-3758,4006,-2132
-119,104,-64,-15534,-6895,-2914
-99,-36,120,-21941,-6263,-7944
-100,15,41,30488,1823,12145
35,24,-12,3974,-1120,-6973
101,-94,-58,-721,-5338,-10544
70,-65,95,12254,1507,-3615
-52,-87,116,8892,-4490,5018
-91,115,0,-8091,-8967,-8378
-13,16,-4,6782,-2059,2154
-9,1,-112,4126,-1160,4096
79,-14,-57,-3291,-2926,-294
-109,76,-24,1601,-223,1427
9,70,80,1570,-830,2195
-124,-46,106,-2733,-1761,-1553
-2,-58,64,-197,2619,-787
69,-71,64,973,2991,262
58,-77,-123,64,944,-30
63,-85,-88,-1405,-881,-750
108,-69,84,-948,-201,-499
-118,-49,71,-666,86,-311
-124,-38,82,-922,-191,-492
-121,-34,82,-1356,-484,-642
-102,-34,36,-9,-107,33
-114,-30,66,534,-11,429
118,-22,98,183,-345,297
122,-6,91,298,-47,410
101,5,-124,-572,-461,-39
-4,64,108,-8435,-1088,-714
41,43,-78,-8989,5572,-121
48,-65,-26,2238,12472,4136
-21,120,-1,-12078,3689,-5069
-13,-45,-78,-20158,-10005,-3374
113,-102,-52,-11721,-10081,-3487
56,78,-104,26283,1851,9426
77,-111,71,9889,5792,14348
83,74,-31,-759,-6165,-13092
-61,-114,-98,736,-888,-520
-103,-52,-99,-2396,3801,-5449
9,24,35,-6357,4541,-2220
-115,-48,-39,-16279,-11539,-2876
46,-29,-41,-22810,-6346,-7710
88,-21,110,30874,6292,17638
-51,-115,-104,2717,-1886,-4863
-60,20,-113,5801,-2808,-8392
76,-101,18,13257,1095,2401
76,74,-81,-6719,-8488,-1592
79,-123,-56,3969,-5963,-1135
19,-50,-46,433,-4427,2538
-126,-43,111,-472,-4806,-278
68,76,-38,2964,-1453,927
56,30,80,291,-1639,216
51,-32,29,-505,-1230,-683
94,-32,-68,1595,554,979
55,-31,-55,1014,931,1437
-5,-33,2,-1279,-363,185
2,-53,-107,-1266,-113,-447
52,-58,105,-246,458,-269
73,-55,116,-317,269,-201
82,-55,113,-580,67,-237
86,-47,102,-696,79,-164
100,-31,86,-800,141,-180
110,-15,65,-283,256,-102
108,-18,85,-492,-149,-321
122,-14,76,-395,-87,-181
-127,-5,79,-385,-212,-64
122,-5,75,-136,-142,-60
124,2,87,-193,-148,-39
57,-74,88,-3307,5779,409
-46,-92,-92,-4326,2172,-287
68,-28,45,3704,4566,-449
-68,98,63,-3642,452,-4836
117,-71,70,2738,5678,-2495
15,74,-103,-8377,3286,-3829
4,81,85,-15641,-1678,-839
67,-46,-114,-25016,-16104,-6907
-125,25,104,-31737,6452,18625
58,90,78,671,-6936,-13162
78,123,68,15772,6442,408
-67,-10,43,-5568,-73,-5300
-23,122,-90,-6536,5583,-1383
62,-45,38,-21547,-10835,-864
75,-78,53,-10435,-6773,-4546
25,-109,114,27787,9794,16239
103,-71,52,598,-9134,-13033
-12,73,-10,7139,-383,-6174
-16,64,-93,2412,-3596,4190
-90,-25,89,-1067,-4736,-2694
-107,-60,-91,4592,-5142,346
-94,-92,-21,-506,-5658,897
81,-61,46,-101,-4745,569
-36,102,-43,1987,-1697,1681
-27,-1,100,-2179,-2181,-1131
50,-14,-19,-1108,-776,-983
102,36,-100,1880,926,1655
17,25,-26,621,707,1706
-66,10,46,-2761,-1143,-794
-9,7,-105,-1768,-564,-928
36,-22,85,1221,740,60
18,-33,-99,8,-25,-276
25,-21,-87,-1048,-468,-230
31,0,-107,-1531,-749,-291
47,8,76,-254,180,-74
64,12,105,-422,-13,-95
53,25,118,-1099,-432,-169
57,24,78,-533,-264,2
50,24,84,51,-27,79
54,36,107,-8,54,4
-87,-127,-113,-3202,-4109,-228
39,-66,40,-3924,-1569,1151
-125,4,62,-3288,821,4052
-43,120,-80,385,6326,4868
16,40,5,6129,18271,5797
77,-126,59,-630,13569,-4437
-49,-51,-111,-17405,-2753,-5504
-111,82,-77,-23115,-14475,-6257
-98,106,-13,27641,-2444,4623
76,-25,-50,8463,1006,18479
7,-41,112,5969,-8054,-15159
-37,126,92,22877,701,1818
-45,41,-44,-3854,888,-7283
93,35,-44,-6054,3674,-3441
6,-24,-70,-15223,-2204,-974
-35,107,43,-28202,-10258,-4511
52,116,-79,-30215,-4588,6446
112,12,22,2315,2946,-5302
-10,15,-100,6527,466,-3002
89,32,56,-853,-5316,-946
118,-5,124,2498,-3790,-1908
67,55,89,465,-4916,-401
-117,59,-9,2525,-7745,2210
73,-48,79,1601,-7715,-488
-4,41,-34,173,-2864,-580
-32,-15,-43,-2885,-963,-2443
113,17,-89,-650,1685,1130
114,21,-103,1106,1155,1711
5,-15,-25,1226,-1048,842
-15,-42,-68,1365,-526,123
24,-63,-106,817,1130,106
48,-59,-88,-633,1004,65
48,-50,-112,-1373,100,-34
64,-40,87,-920,-12,-98
79,-47,44,350,298,8
80,-50,87,54,-83,-162
87,-47,108,-428,-304,-265
109,-38,92,-375,-240,-135
105,-43,87,-113,-198,-212
113,-37,106,-349,-306,-177
113,-113,-120,-1567,6114,-516
-31,88,-100,-1949,5078,-2380
32,-92,44,-5753,4393,-3013
-96,91,-85,-6290,3780,-1114
70,-112,35,-11185,-1830,-946
-112,-118,14,-24693,-23016,-3778
-116,-20,-117,-20770,-2116,-747
-77,85,-123,-17,15837,27529
86,25,-94,15881,1977,-3652
-16,-33,30,1003,-922,-4240
-11,60,8,-4953,4307,-5143
-91,-61,-30,-9089,-2002,-1621
-7,-83,-70,-24516,-24162,-7439
-99,-88,-66,22735,360,-2135
-72,19,96,7281,4449,14722
124,-16,53,4258,1976,-2785
-10,53,-48,11471,5898,3301
-72,-45,-117,-9448,-10113,-7760
-71,60,118,3555,1434,-706
-43,50,43,1607,-2706,-2923
73,74,-29,1935,-2459,-49
-8,-31,-62,1457,-5611,-2082
54,-62,46,2753,-5026,-219
95,-123,65,2785,-2797,144
87,-84,94,1737,-1772,882
105,-47,124,474,-2357,1077
83,-9,95,1048,-2110,1923
-22,8,37,1244,-1158,1853
-118,-57,28,-911,-1143,-1169
-16,-79,-33,-2096,43,-1676
67,-42,123,-1111,1153,-12
29,-48,121,-80,530,486
14,-54,-120,-436,-388,18
19,-52,110,356,-151,-76
45,-55,-105,-137,-124,-24
61,-38,-108,-435,248,-170
82,-41,-122,-389,148,-317
99,-40,124,-166,56,-194
95,-43,-128,-548,-137,-332
106,-22,103,-552,-44,-49
124,-43,-104,-3142,9105,-1866
-69,87,-72,-7182,7423,-3114
79,123,127,1639,7554,-3434
47,96,-77,-6352,4723,-5218
-68,-18,72,-5401,4209,-1607
84,-107,113,-8596,-3603,-1462
64,-93,-80,-15738,-17912,-1054
19,-17,-96,-6090,-4409,-8997
-69,-65,62,19948,18049,16997
77,-22,-84,7958,-8287,-6022
-50,-96,-123,2108,3042,-3078
116,96,-35,-7119,6197,-2787
-62,-127,-58,-11123,-3765,-2462
-66,-77,-25,-26488,-15060,-9348
39,93,-37,-32225,5637,12649
21,108,-89,7893,3864,1352
32,56,-21,2704,-4848,-9296
49,-125,125,9549,-227,-2086
4,93,-125,-2504,-6950,470
10,-24,-25,250,-6422,-1723
-111,-123,17,6369,-4815,251
-14,-9,-104,4165,-3770,3310
53,11,-70,-1211,-4434,7
108,-43,-22,1365,-642,-1723
-102,7,-89,8918,3262,5615
123,57,96,-264,-2139,1048
91,-105,-89,-4222,-2298,-2768
4,-90,84,1637,2965,-115
43,127,-67,161,2277,-230
69,117,-86,-93,1468,-119
69,117,113,199,930,207
55,104,-90,-1193,-506,-981
111,-110,123,-1357,-410,-858
-103,-93,81,-1261,-360,-720
-117,-91,57,-444,-211,-451
119,-87,93,-994,-836,-543
116,-73,69,-411,-729,-181
126,-66,84,80,-555,411
119,-49,118,-1,-606,661
83,-54,117,-84,-425,524
12,-118,-16,-2717,8418,2380
115,43,125,-8774,6421,-3856
-75,116,12,2934,7491,-3134
-115,-72,112,-3735,5671,-4534
-8,96,35,-8174,3770,-4672
-26,55,70,-13615,-8823,-2818
-108,-77,102,-25088,-15703,-9711
123,-28,-73,-25068,8432,8786
-25,118,109,9719,2696,1266
104,-86,-75,-9407,-5560,-6159
122,83,-126,2508,4656,-3719
7,16,-37,-6113,4769,-1886
25,-92,71,-17345,-9659,-2311
53,-14,-111,-18578,-4068,-10732
58,-30,-112,26527,11582,19589
95,124,-2,5841,-4492,-13945
-26,-1,-66,4512,-965,-5126
-81,-78,-74,10408,-3304,3737
-58,59,59,-3954,-5930,-3145
-97,-82,-27,3597,-3211,748
-102,-93,-74,2153,-4764,778
116,32,88,1202,-3449,2199
66,25,29,-774,-2390,487
60,107,8,1006,-1667,694
42,75,2,2704,-551,1325
-32,-14,34,1638,-201,-66
-29,-54,-20,1617,1054,58
-18,-90,-21,128,1176,-161
13,-97,-48,-762,809,-349
58,-103,-96,-728,667,-393
119,-111,115,-302,1330,4
-124,-101,-128,-1053,1011,-106
-104,-77,115,-1314,497,-348
-91,-64,79,-877,-21,-441
-100,-60,65,-107,-261,-384
-102,-61,95,-219,-759,-395
-103,-47,97,-135,-653,-201
-113,-45,127,-628,-874,-203
-115,-27,104,-139,-351,24
-124,-26,117,-167,-331,-4
-103,57,92,-2437,3886,1738
72,73,99,-11766,2939,-3637
-18,-128,-74,3900,8980,2065
14,-3,-12,-5926,4933,-7689
111,-107,-127,-654,6037,-3069
-29,63,-1,-6656,1839,-1117
-110,-28,12,-16806,-8761,-2008
39,-106,-27,-18011,-8751,-5720
123,2,100,-31879,7730,22750
-18,17,-98,-3841,-11887,-18312
65,44,-103,30942,12053,6178
-21,-23,84,-4431,-221,-7539
-84,52,-111,-5742,6124,-4620
115,-54,81,-20221,-8408,-1711
17,-13,-24,-21208,-5723,-6793
38,104,22,-32759,5930,14169
-72,113,5,8904,-5967,-11132
-77,-121,71,4307,-1605,-3190
58,-126,-92,1524,-3387,1539
-35,71,78,-68,-5685,233
100,-101,-84,550,-5805,-998
-35,23,-75,1871,-6876,1135
-80,1,23,-837,-3770,205
120,-95,-95,1022,449,1775
-80,17,-93,3806,1636,3898
1,-92,-91,1936,-3351,2264
99,48,99,965,-2920,-423
-128,-51,-16,712,741,-1679
-14,-78,-49,6,2393,-865
49,-62,-115,506,2907,513
39,-59,-78,-1080,1333,-527
79,-58,126,-972,790,-1352
-113,-68,90,-451,629,-1200
-79,-75,104,-475,-9,-970
-68,-72,85,-753,78,-637
-63,-62,70,-657,-138,-271
-84,-43,69,-272,-509,-107
-105,-35,95,-571,-880,-195
-101,-21,85,-377,-599,97
-113,-5,99,-264,-663,338
-34,-26,36,-2576,4453,1086
-127,89,-9,-5029,7716,832
-12,-41,-45,-1431,7778,788
90,26,12,-1047,4234,-3437
-78,-101,32,4038,5203,-3106
-118,96,-2,-2089,2763,-8190
-127,-14,33,-3220,3035,-5863
21,-97,-84,-7271,-1653,-3143
-68,110,4,-17054,-17622,-824
-31,-44,-24,3167,-5125,-8200
53,71,-69,19758,18943,30296
-78,-90,-88,7114,-9609,-14466
-22,-58,54,-79,2099,-860
126,123,-115,-5440,4465,-5021
65,117,-9,-9407,763,-1289
65,-69,25,-19782,-20481,-4030
75,-62,3,15095,-3356,148
70,-118,-9,9735,9510,15132
-72,126,-60,8810,-8665,-14714
-35,-13,-51,13804,-4208,4980
-93,52,100,-4891,-3340,-3243
-7,32,-59,1684,-6163,348
68,-9,-94,-10,-7496,704
79,-71,95,1067,-8054,1367
29,43,19,2625,-3227,1269
21,88,41,1073,-87,1004
50,40,74,-532,-805,-817
81,121,39,1803,-186,1870
-111,51,20,2056,347,752
-127,-55,40,-971,365,-1863
41,-43,-107,-122,1970,-336
28,-70,-101,-260,891,-24
10,-92,-122,-259,127,-270
39,-106,100,372,174,-173
68,-94,-128,-24,13,111
70,-77,-123,-484,-36,75
75,-67,111,-586,-78,-78
86,-68,91,-188,-42,0
84,-66,96,-191,-166,-4
92,-50,108,-388,-315,36
-114,20,-119,-4259,2081,2021
120,101,99,-5503,7490,827
6,89,-83,1988,9300,-410
-7,-116,11,-2414,6681,-5269
-91,-104,-104,-61,7380,-1546
8,125,6,-6310,4338,-3344
53,-75,91,-14076,-2030,-909
-68,89,-65,-17965,-24517,-6770
-40,-87,-121,-30661,4581,12144
74,123,-29,2355,-4755,-11857
56,7,-108,27613,5997,8645
-117,53,100,-12410,-442,-10446
-16,57,-82,-5290,3850,-3299
-41,-76,-9,-15310,-4366,-2142
89,37,-83,-21996,-11688,-7581
-83,-63,11,25075,1019,10019
123,-74,-50,10566,3843,8246
-48,21,-10,9903,-4135,-3833
91,-44,46,-1638,-5517,-7232
70,93,-108,2951,-6390,-394
-4,41,-81,559,-8609,-2699
-102,-102,19,4830,-6061,600
-122,-59,47,6432,645,7353
-105,20,12,-6208,-3286,-1425
-20,77,21,-1677,-1266,-1172
74,66,74,4998,2248,1964
-7,-15,71,614,-1601,292
9,-42,-27,883,-525,472
36,-27,-88,2185,1488,978
20,-84,-34,168,1113,-418
67,-100,-97,-138,1381,-192
102,-97,125,-1378,797,-105
105,-87,74,-1082,305,22
93,-95,70,-591,-641,-179
110,-84,59,301,-544,160
107,-64,114,-299,-622,-19
96,-52,118,-584,-370,-287
115,-53,98,-498,-29,-393
-119,-59,79,16,288,-168
-118,-59,90,-98,103,-147
111,-56,26,-5082,3531,-614
117,-121,123,-6808,7982,-854
74,75,-55,4161,9343,-1258
43,-16,67,-5656,3262,-8278
-70,-44,-108,-1739,4915,-4253
-56,48,-16,-7414,1515,-2002
14,-45,84,-22010,-15462,-1482
69,88,126,9413,-5525,-1125
65,-63,84,12745,17223,18080
-85,68,39,7835,-9420,-13080
-105,-81,-50,-9027,506,-5072
56,-24,66,-248,5357,-6870
-120,92,-41,-9820,3054,-2386
-112,108,46,-23964,-20984,-4292
-71,-16,-86,20121,-4399,-494
-94,-44,6,6707,8481,16155
92,59,-23,1083,-9663,-14304
-41,-120,-91,15007,2692,3386
101,60,-120,-6788,-5199,705
-58,-79,97,3680,-3138,-17
-45,-88,26,-1107,-4021,-2120
28,-109,126,-1164,-6738,-2823
70,21,-46,-163,-5523,-408
117,-124,60,3771,-481,3260
92,73,-33,656,-392,1293
97,97,24,1575,-1626,1084
-29,66,56,818,-2395,626
-76,-7,11,68,-457,-700
-12,-71,-84,152,1583,-639
37,-59,-115,636,2128,374
27,-77,-56,-770,423,-194
88,-39,115,-585,717,183
94,-33,82,-509,944,60
103,-33,64,-226,849,-171
123,-44,71,-210,249,-468
-124,-48,76,-380,-398,-421
-127,-51,86,-588,-814,-367
-124,-35,87,-554,-838,-180
-127,-22,92,-450,-621,-95
122,-13,98,-288,-384,-121
-44,-14,71,-2709,3191,2266
115,45,41,-2954,7584,2504
-39,-76,-43,-1813,6408,-1623
-19,-78,33,1222,6286,-5402
-97,-12,-128,-1230,5867,-6411
-95,-43,-28,-6607,1302,-7714
-82,14,18,-19669,-11004,-3484
88,-93,96,-23425,-5067,-9265
124,-64,5,-27516,10160,19187
-102,-97,-119,4868,-2447,-6033
100,-29,-94,17285,-1980,2005
122,-71,49,-6931,2018,-5783
-91,-43,126,-3785,5524,-3911
43,-123,43,-12740,-2443,-1767
109,-124,60,-24167,-17087,-7489
107,21,-7,31672,726,9126
-70,60,4,2346,317,-2810
89,1,-57,6290,-4415,-8604
-60,126,70,18139,7628,8382
-22,123,122,-11327,-12234,-5627
95,1,119,1514,-5520,-2478
16,-5,43,937,-5952,-565
33,125,109,4871,-2060,1960
-18,-42,-42,4826,1777,5437
63,127,-125,-235,-975,1843
-11,103,10,2364,-780,2048
-107,0,52,622,-1372,-161
-78,-81,-64,967,1043,-967
-9,-98,-46,-110,1085,-587
21,-106,-102,281,1395,67
41,-116,-101,-761,972,-734
108,-101,124,-754,939,-1088
-99,-107,116,-745,500,-1216
-60,125,83,-618,435,-1160
-21,-115,51,-127,834,-124
-70,-102,108,-1330,-594,-387
-94,-59,86,-1799,-1635,-656
-85,-41,27,-39,-824,67
-110,-28,80,-414,-859,18
126,4,86,-294,-459,230
83,-66,-5,-704,12606,4524
-95,4,-51,-11273,7068,-3973
63,126,-108,10704,8508,1118
-60,-24,-1,-163,2579,-9549
20,98,-27,-1264,795,-7942
-101,-57,-5,-16882,-10128,-4288
89,101,78,31509,-7522,-10807
51,-98,-27,-17841,9913,16023
-73,96,-119,8927,-3558,-2667
-50,109,66,-1780,-133,-5080
-106,-32,45,-2658,3832,-5612
33,-64,-69,-6861,3329,-2201
-81,-111,58,-17720,-14293,-1801
-74,-28,119,-15105,-6368,-7831
66,73,-78,22856,11318,22127
5,67,-38,11354,-6875,-13577
-14,-21,44,10268,359,6582
76,63,-30,-1138,-5148,-2473
23,-89,127,-1492,-4088,-3500
40,5,-16,-2146,-4295,80
-61,-64,16,-862,-9937,-606
-64,112,-87,3893,-5323,792
9,88,53,943,-2275,1486
-68,18,100,-3315,-1690,-3083
45,25,-65,-87,1056,-1828
96,48,-124,3807,1706,718
57,27,37,3020,-590,1992
5,-12,78,-760,-256,1167
-5,-35,-41,-1205,1258,258
44,-31,-113,-1233,1500,-116
76,-25,-99,-1591,168,-581
85,-10,84,252,161,-228
114,0,91,974,154,24
113,-18,-119,239,-218,-244
109,-41,-67,-1278,-993,-427
98,-46,62,373,321,258
108,-43,123,-387,-180,210
84,-21,89,177,-116,405
82,-11,123,-254,-589,-46
111,3,-128,-318,-481,101
4,115,-36,-3421,3584,1881
53,-47,38,2412,6558,-595
-89,101,-126,-3144,4056,-6215
-108,-90,-61,225,6389,-5694
-47,118,59,-9841,3607,-3796
44,-83,1,-16998,-5544,-1916
57,96,-35,-11659,-6344,-7586
-61,42,56,28102,14497,30802
-38,-107,84,706,-16800,-22024
-89,40,-22,29323,11490,12827
-103,-31,35,1138,-1010,-6205
65,5,87,-7378,5111,-5004
42,-124,-48,-6845,1389,-611
-35,36,117,-20369,-12782,-3253
106,-99,-90,1679,-2058,-1781
-26,43,-40,15195,4055,9189
33,-66,-26,3526,-1766,-4168
-21,-100,104,7578,310,4594
100,32,38,-3755,-3466,-516
74,66,80,-668,-2971,-1971
-46,29,114,4195,-950,762
-76,-78,37,-1822,-4415,565
-47,-122,85,1345,-3452,1075
1,-32,64,-273,-3428,649
4,-46,63,-1775,-4153,-977
61,-43,2,77,-3723,-388
-116,12,-62,3137,-1430,1716
97,5,-18,1863,174,1699
57,-16,-15,-249,83,552
65,-13,-88,-68,243,610
35,-25,-77,-725,-333,-94
49,-64,-125,-1353,-382,-1005
96,-55,83,62,314,-125
100,-52,103,29,62,128
80,-44,-121,-670,-503,-189
92,-44,108,-380,-166,-140
99,-41,106,-321,59,-123
117,-31,99,-394,156,-115
123,-22,84,-144,109,-23
117,-30,89,-110,-120,-131
-57,-3,83,-6634,6620,-4403
52,104,-43,195,8484,-2702
-32,5,2,-3990,3477,-8660
119,-118,107,-4895,5618,-5294
6,-75,31,-6719,-574,-976
4,-107,38,-19140,-11877,-19
88,-20,-42,-5677,-6888,-5577
-111,-14,53,20576,20143,26365
30,27,-69,-2985,-11023,-13963
-24,47,11,308,-557,-1050
-112,-76,89,-4200,5026,-7090
6,62,-35,-9334,-107,-2617
-112,25,88,-28378,-18510,-8850
-9,44,39,28945,1341,7634
84,7,16,4174,5985,14734
80,74,38,5757,-3939,-6542
46,91,-118,7781,-5269,-3432
-78,110,-62,-2378,-4476,-1882
61,28,14,-142,-6391,-1491
-12,114,-4,9030,-6001,3505
73,-98,-7,965,-2082,3972
-107,-84,25,-4424,-6870,-4275
99,-7,-112,3127,-1656,3019
64,20,83,4050,-954,3800
-70,51,67,2568,-555,1290
-118,-17,34,-29,-596,-1921
-25,-48,-35,-1527,381,-2519
64,-22,-66,-2133,835,-1109
76,-45,-77,-3187,-440,-1222
82,-33,78,-1744,-322,-837
90,-29,36,1213,836,517
83,-30,107,284,278,244
88,4,-123,-416,-198,143
67,-17,106,146,-481,16
64,-31,-120,26,-709,-124
114,0,-113,-369,-216,305
107,11,115,91,294,583
82,17,124,-51,-24,241
66,11,-125,-198,-336,-170
91,13,-125,-380,-159,-148
-76,-5,66,-1420,4387,2473
31,118,-115,-5130,6821,-2536
-85,18,-25,-920,9323,-1388
-126,113,100,529,4458,-5693
-121,-74,-88,-239,4120,-6569
52,58,-33,-7031,911,-5591
-120,106,-29,-13116,-5450,-2560
-81,121,-83,-26794,-14453,-10515
-59,-126,62,-25076,11179,16778
112,10,66,794,-1933,2096
-91,65,11,10942,-3726,-3217
8,109,24,-8332,1618,-6001
-103,39,86,-4364,5272,-7231
-45,-15,19,-7262,3536,-974
66,-126,-49,-26547,-15607,-4981
117,-108,101,14039,-6141,-2264
47,-90,64,17357,6110,14983
61,46,-116,-527,-9781,-11266
111,-38,-37,16414,1572,-3694
-97,-112,94,-5510,-5602,-1179
25,126,-16,2043,-5822,-3934
-18,-88,-4,3349,-5493,568
-55,42,-20,4701,-2188,5053
-18,-3,-84,-3508,-3161,1776
-19,103,1,-830,-963,1717
65,-124,-105,4242,1970,2488
6,-86,-85,7550,2212,2603
-68,71,111,1813,303,665
-46,-99,47,-2694,-275,-1448
57,-93,-106,-1913,117,-191
72,-106,110,-927,-574,197
70,-107,101,-32,-638,92
73,-102,122,-5,-402,-102
85,-104,125,-30,60,-58
95,-102,118,-30,347,-22
101,-96,121,-265,110,-112
108,-88,114,-404,-133,-173
115,-80,109,-648,-187,-215
124,-69,89,-516,28,-159
-119,-51,74,-463,127,-102
-108,66,55,-4051,9289,-481
93,-64,-36,-6556,6345,-1699
23,53,90,4575,7322,-664
-121,13,-47,355,3692,-7551
-27,-71,-28,-3843,2264,-8788
125,106,-23,-11022,-1210,-3197
67,-3,84,-22384,-19510,-2894
-8,98,-32,26595,-2251,-4026
92,-12,75,8200,11474,22467
-18,44,74,3981,-10991,-18109
-116,33,-60,-5559,959,-717
52,-10,17,-2839,6057,-6025
-97,64,-80,-5680,3625,-402
-55,115,-73,-20850,-13331,-2607
-116,106,-26,-797,-5788,-5513
2,-112,-34,22149,3831,17013
91,16,-98,6338,-807,-5050
-60,27,39,3142,-8165,-5625
-49,63,119,10245,-4356,-3617
58,34,65,-658,-6425,2124
95,75,-3,-1831,-3556,901
116,-93,85,-1350,-2791,-492
-59,4,2,2381,-432,2450
17,54,54,-1646,-1270,2377
-17,30,-5,-1217,-2033,734
-39,30,83,759,137,-104
50,60,101,1613,750,1602
63,22,-54,-286,-726,683
27,-21,-89,656,-884,441
14,-34,-69,-46,-945,-228
29,-52,-85,-253,-185,-389
56,-61,-115,-517,443,-284
72,-62,121,-512,583,-226
79,-55,102,-476,467,-223
98,-43,92,-632,218,-289
100,-34,83,-721,20,-349
103,-34,91,-1075,-432,-486
127,-22,58,-565,-155,-121
-127,-22,52,58,31,154
120,-16,73,14,-161,102
78,114,-112,-8157,3408,656
46,12,-26,-7103,8986,4827
79,-124,111,2798,8792,1302
32,-3,-49,-3864,5625,-4081
-10,14,90,-4295,3160,-857
-27,79,26,-22689,-13990,-3564
-67,-78,-90,24148,-5292,-7236
83,-3,-24,8106,15985,-30991
38,57,-98,16608,-11241,-15610
123,-62,52,-4167,2734,-5845
-109,35,94,-2596,2723,-6328
-1,19,-7,-10931,3469,-2092
54,-90,44,-28453,-20717,-6124
51,27,-102,21690,-4171,-4305
-70,-45,52,9791,4501,16702
80,17,25,10247,-7769,-8955
-30,-21,-110,8956,-1977,-292
122,-71,101,-4115,-2044,-2144
62,-90,80,4588,-7992,-4241
-92,-8,-4,-3909,-5322,757
38,41,-35,-3799,-5854,-504
32,-111,55,3073,975,3283
4,2,-88,-79,-289,47
-107,48,123,2494,-387,178
-74,-98,-9,5857,-1208,3822
12,71,-70,-762,-2528,1229
-126,-23,29,-2547,-959,-1555
18,-28,-119,-926,1842,-358
78,-22,47,1007,2918,798
63,-31,104,599,1772,294
77,-40,127,9,718,-89
101,-54,-110,-920,-388,-655
-113,-30,98,-821,-104,-473
-100,-28,93,-863,-263,-526
-106,-30,72,-321,-327,-327
-114,-25,93,-431,-465,-280
-107,-5,100,-630,-329,-172
-126,-7,88,-330,-231,-248
-100,1,94,-240,-98,-60
-101,12,91,-302,-120,214
44,-2,16,-6098,-2959,-2303
107,44,-28,-2937,-269,411
20,-67,125,394,6051,2242
-20,-81,90,13611,10689,6340
-98,121,111,-15468,1939,-8686
-49,-65,10,-3789,6616,-3107
-94,111,-94,-8468,3791,-2556
52,97,6,-24629,-15480,-1446
74,-46,74,18847,-3035,3678
-34,116,-34,13702,8972,22535
5,-6,-57,-2970,-7112,-16107
-74,117,-63,9418,-316,-1350
-75,87,-123,-5521,5096,-7051
64,-22,18,-5303,4954,-1868
122,60,-59,-23686,-12932,-4146
-117,86,-42,-10986,-5498,-7331
-12,-70,-117,25977,4495,15016
-14,121,-113,-194,-10804,-14448
-73,-55,108,19272,14223,6195
-125,-93,-81,-3610,-7305,-3568
77,-6,109,-2398,-2505,-1949
106,77,-61,220,-4068,-3919
-114,71,-108,-2961,-6472,-758
-7,10,-89,-792,-5360,-2249
36,-83,19,6761,877,2766
32,105,31,2597,-1379,993
101,44,67,253,-2485,-879
-80,-50,-40,4466,372,3429
-39,69,55,2048,944,1221
-91,-60,-21,879,2135,-783
24,-83,-82,953,2015,-324
66,-101,-21,-1495,-132,-722
102,-89,115,-563,363,-62
127,-116,93,536,482,82
-125,-111,-110,340,269,197
-117,-97,-90,-411,183,-131
-95,-84,-113,-800,50,-310
-118,-57,-99,-1867,-896,-935
-92,-33,80,-984,-271,-630
-70,-31,85,-892,-55,-396
-1,18,-62,-6920,2315,2372
24,-5,65,-5959,3788,151
-12,-31,-56,1355,9818,1951
69,-14,87,923,5910,-6287
52,103,-56,-3370,5923,-4913
39,-119,86,-7113,4194,-4406
64,69,101,-10892,-3383,-2599
-59,82,-98,-20148,-21052,-3734
64,67,-53,28498,-1271,-3611
119,105,73,12923,11317,24173
-73,125,-8,7106,-6897,-7996
-72,23,-67,845,2621,-4231
113,-72,-24,-7259,4507,-7193
-16,-58,-14,-13294,-2079,-3047
29,-80,-58,-21560,-16837,-8931
48,-82,8,29122,4301,6368
85,61,69,9174,8622,22140
-100,21,-63,4509,-9577,-9511
16,-96,68,-156,-2434,-3341
-29,-121,-14,-573,-3728,-2034
-59,119,89,1252,-3852,-5600
6,-128,56,6367,-7094,-80
-110,-89,7,6257,-5585,2234
24,4,-28,1184,-5726,2462
-114,-30,-79,-1567,-4794,-1324
-48,-44,1,-208,145,-2437
-119,-10,-78,4127,3737,1994
65,76,-42,5662,3146,3973
118,25,-104,66,573,1679
111,-90,91,-3729,-1165,-1933
3,-95,120,-1821,-263,-1322
57,-124,89,414,183,81
56,-125,108,846,420,671
24,-93,-85,-526,47,238
24,-65,-102,-954,-278,-112
36,-67,107,-550,-236,-401
63,-78,97,-74,-20,-318
72,-85,112,-47,-116,-175
77,-73,-114,-634,-343,-209
85,-58,123,-610,-238,-159
-30,-61,-14,-2674,6593,3725
-53,106,-128,-11024,6011,-3167
-115,26,13,2763,3250,905
25,-125,120,4559,5930,1157
-63,-112,73,-4948,2302,-4184
-110,-81,-125,1247,5150,-2515
-124,-104,-59,-4802,4471,-4166
5,102,-120,-8802,1778,-3211
16,-105,-50,-27888,-19786,-3077
-113,41,81,-23363,-3700,-10499
3,-2,-35,4116,16550,-19394
-49,-75,-85,-11396,-15559,-30629
-68,111,49,9602,2579,225
107,97,65,-6555,4280,-5667
-12,-41,-22,-8512,5492,-1259
-49,-33,-57,-31551,-22254,-8261
106,-91,23,32505,-305,5809
-13,-101,22,9633,1796,4966
20,-96,48,11270,-6397,2680
127,-21,-33,-1406,-2508,-2566
-52,-106,-123,-3211,-5560,-4324
-48,-80,-114,801,-5326,-2585
125,74,60,1775,-7202,606
54,57,-2,3633,-4604,1788
-72,101,53,2327,-2704,360
-95,21,111,-2593,-2856,-1631
-2,54,-18,955,375,783
0,44,-41,1959,1350,1376
0,9,-6,1227,228,911
-20,50,-2,1343,-110,1460
-87,-1,12,-716,-583,57
-50,-64,-95,-657,600,-836
38,-66,-107,-986,614,-501
58,-53,112,-80,446,203
32,-60,120,-238,-50,14
34,-48,110,-344,-84,-185
60,-40,113,-552,-140,-268
78,-38,100,-392,-64,-131
82,-36,95,-395,-38,-73
82,-28,88,-311,-99,5
-10,37,78,-3341,7052,-379
83,-7,109,-616,3821,-4594
86,-9,120,-7068,3175,-7037
104,-30,-16,-11689,60,-5756
-86,103,67,-9114,-351,-511
29,-13,-2,-11970,-6172,23
-12,-124,-127,279,-9210,702
47,-33,17,24251,5093,20530
-20,73,-121,7912,-8432,-5274
36,-77,-8,3601,-2970,-10368
-58,15,57,-3442,5557,-2565
59,75,-76,-7114,5784,-3490
-21,-79,-56,-27847,-13874,-5002
61,50,-50,18010,-3952,892
-117,-113,127,10872,6227,10875
116,-36,24,-344,-7814,-12041
80,-30,26,22672,13320,15325
-118,-96,57,-15773,-8925,-10214
-114,91,2,6397,-259,-506
55,-59,-75,-3437,-2196,-38
-6,127,-58,188,-3705,563
35,17,67,2680,-1345,2069
-19,-58,-54,-1608,-1551,-1151
26,46,-89,-1466,-874,-1102
20,-18,-117,-812,-1077,-838
32,34,65,1261,-759,549
14,24,98,600,-1340,337
42,13,99,285,-1172,688
54,-10,80,1229,-1074,1430
-47,7,107,388,-3726,1114
9,-40,45,-375,-3284,-649
7,-44,-33,-762,-2336,-2044
86,11,-114,884,239,260
93,-37,-55,-458,339,695
58,-20,-83,-906,-373,-4
71,0,104,1128,81,518
79,-28,-96,816,117,396
77,-19,-61,-620,-90,100
75,-13,-120,-397,-44,-29
84,-14,126,-63,-72,-62
-8,-100,-82,-2958,4994,-206
95,-51,-78,-2764,5997,-4029
12,31,-33,-440,5486,-6251
79,-87,60,-7034,3421,-7519
-96,-48,-10,-7364,3474,-3802
-81,-12,65,-12576,-1669,124
-68,-56,22,-19832,-21979,136
-72,-89,1,25384,925,4939
9,-58,-78,13423,1687,-5051
-88,-22,-69,12168,2542,3909
-114,-17,-95,-3424,3910,-5627
110,72,-1,-4262,3682,-6904
-113,59,-32,-9911,1567,-1028
-43,31,-66,-21505,-17361,-2847
-73,55,-85,10863,-6358,-2352
-123,-3,-74,11722,5196,15660
-101,-50,8,12864,-3444,-7331
-90,-18,-53,-5262,-8446,-5578
-118,-73,-8,10613,-2501,-2246
73,-26,-80,-11648,-4564,-2964
-50,27,99,3660,-5952,-667
-54,-113,-53,11790,-575,5094
34,85,75,-240,-7023,3168
-89,-26,-14,-5735,-7231,-1053
-74,20,-17,932,-2361,-1279
-4,-32,-15,1466,1137,489
-41,-39,17,-1422,513,261
-12,-4,-87,-1807,926,728
-5,17,-109,-898,85,567
19,1,-117,-16,-587,325
29,-20,72,2587,684,620
49,-46,-104,1253,798,-33
77,-52,-70,-162,293,-293
76,-69,-79,-1228,-696,-409
74,-66,-125,-1151,-987,-115
85,-46,89,-289,-304,372
69,-33,98,104,-61,298
67,-20,119,130,-99,99
68,-17,-112,-415,-336,-165
80,-27,126,-347,-127,-169
-63,107,120,3871,5934,-2233
-121,-21,-71,-814,2009,-9879
22,-94,-38,-7461,3791,-8692
8,125,106,-14555,-2240,-5671
-95,-83,100,-29398,-26243,-4447
108,103,-106,-18968,7557,17306
0,97,12,744,53,-1801
13,114,54,20253,2641,3695
-48,-57,33,-165,571,-7510
88,-21,115,-7013,4973,-5412
-46,126,20,-13789,-3045,-1091
86,53,-126,-25115,-15822,-7836
-122,-88,-94,29845,4834,16273
112,-63,-41,1677,-2885,-7873
-77,92,80,10163,438,1266
-63,33,-26,2356,-2911,-1657
-28,-45,-108,-851,-4703,-3346
84,-105,23,-5093,-2883,-3515
-56,-9,58,-529,-6981,-2345
68,-90,-91,8502,-3539,4959
59,-72,-88,4247,-3051,4968
50,108,-75,-796,-3846,443
-12,120,12,1935,-479,1039
-91,26,41,715,-415,-121
-68,-36,20,-449,-158,-991
18,-52,-68,356,1418,-246
28,-67,-116,1074,1823,108
44,-101,-71,-188,834,-803
111,-103,-113,37,925,-516
-108,-109,-104,-898,252,-452
-125,-97,108,-922,-140,-189
123,-86,110,-1332,-716,-376
-114,-59,87,-787,-618,-47
-116,-44,76,39,-50,170
-127,-40,100,3,-2,-40
-126,-28,120,-436,-153,-77
-120,-27,107,-402,-133,-17
-124,-20,98,-225,-173,54
-126,-15,103,-329,-215,3
-122,-6,99,-231,-135,58
11,-27,-82,-1187,5736,-375
91,67,93,-5195,5366,-1720
49,-85,-125,1273,6801,-1215
-11,-34,24,-3918,2910,-8130
-59,-88,125,-3559,5192,-4993
-5,37,4,-7264,765,-1762
-37,-84,-18,-27919,-23980,-3780
-87,-90,-79,26756,-1808,-1910
-28,-98,124,10332,6708,19964
-25,10,125,9347,-2113,-3045
69,44,49,-2080,-1236,-8260
-115,-48,44,-3009,3715,-5926
-115,-16,-91,-8496,3377,-1775
1,-38,-55,-24552,-15806,-4368
-103,109,-43,19555,-3967,28
-121,-63,86,9086,4287,10021
-105,-123,-124,2582,-6800,-7063
-98,-64,-98,17412,159,2677
-12,92,91,-2593,-4933,-2168
-16,-89,38,1009,-6176,-1787
-117,-17,106,-2917,-5390,102
-99,20,-115,-985,-945,1143
-36,83,96,-855,1009,942
-8,48,-105,1333,-583,812
-51,41,123,3380,-1439,1834
-114,56,-97,3916,-455,2922
28,-3,12,1604,-1175,1292
-27,-37,63,-741,-1613,382
-32,-81,-47,-942,-401,-520
40,-95,-123,629,1949,-148
62,-92,-90,-399,1636,-792
-124,-73,-109,-1189,1337,-1206
-50,-42,-99,-2262,-161,-411
-50,-40,116,-3458,-1098,-319
-75,-36,-63,-1221,622,-212
-66,-43,-53,1046,1045,292
-79,-62,43,498,-332,-383
-54,-44,69,302,-445,20
-69,-43,89,-553,-712,-165
-79,-29,62,-296,-518,40
45,-2,-103,-1466,5552,3392
16,36,-91,596,6023,-4422
-127,22,-22,-3397,5180,-7029
95,-101,77,382,5670,-6514
-77,31,-103,-9556,2473,-5056
74,16,24,-21579,-11927,259
-60,78,-124,-41,-2517,-9691
-94,-71,125,20560,24901,24580
-59,9,121,1474,-11608,-8640
93,-101,84,1731,2653,-4067
-89,-63,-123,-5366,6150,-3963
25,-113,28,-16994,-3917,-3490
52,55,116,-25584,-8604,-11755
40,32,100,26790,15485,24924
-7,-90,87,7493,-13226,-18286
78,3,-56,12793,1744,6399
4,38,-73,-4218,-8647,-3943
93,123,59,1864,-4822,-658
26,-38,-54,-200,-7144,-2629
106,-3,-35,7870,-97,7119
-47,41,-21,19,-3232,2074
-51,24,69,-1531,-3486,-1772
17,76,-116,3358,328,460
75,24,18,2024,622,1727
-26,-12,27,-761,439,117
25,-31,-51,-1733,1949,-447
96,-39,116,-884,1517,-159
99,-61,119,1073,700,446
87,-83,-72,-219,-435,-446
-127,-53,-103,-231,-29,-41
122,-57,-106,-670,-170,-363
-121,-61,116,-75,-142,-197
-116,-56,-124,-284,-458,-133
-122,-42,-128,-424,-449,10
123,-32,117,-375,-328,-55
-113,-14,121,-339,-227,-15
-107,0,114,-227,9,-3
-128,-28,120,-38,-426,-335
125,-45,-110,-81,-717,-182
-118,-13,-108,-904,-357,40
74,46,-32,-5752,-923,1495
-92,5,-59,-9866,634,-544
-25,21,-67,1903,9492,4972
-15,-112,-60,9227,10013,-3777
-127,116,74,-11666,3835,-4566
-50,25,23,-4435,4443,567
-6,125,39,-23075,-13546,-1032
60,-106,71,10291,-7756,-7782
125,-15,5,13988,24254,-31042
-59,22,-99,-384,-16644,-19845
68,31,-42,-2804,1281,-1348
124,-17,117,-2940,5398,-5299
6,106,-13,-6855,3553,-1572
-70,109,26,-23954,-12630,-4579
-76,6,-3,7571,-6083,-3186
-20,-45,-104,19076,7696,13666
-56,59,-97,9382,-5808,-3672
98,-41,-12,-815,-4612,-6965
-94,-103,125,2343,-5362,-676
90,32,5,-2329,-5804,-2280
102,93,-105,-1315,-7724,-3922
-62,-94,-91,5135,-150,3394
100,71,63,2055,59,3036
-59,53,40,701,-951,-157
87,-114,93,5330,1795,2371
62,-25,78,4384,1022,4704
-123,107,-56,-3373,-2506,368
113,-5,-50,-3643,-2007,-2656
52,-27,53,579,1687,-705
116,-50,64,1650,2102,708
54,-97,-85,-254,122,-264
55,-101,-97,-450,-837,-367
88,-87,-99,-750,-704,-505
121,-32,-118,-969,-281,16
98,-23,100,-428,250,58
83,-23,102,-546,83,-325
96,-19,91,-362,-64,-204
109,-10,96,-551,10,-216
115,4,102,-809,-230,-289
125,9,85,-529,-104,-320
-13,-115,70,-4437,7054,-1555
30,-97,122,-11432,5074,-6217
-64,56,-109,-13710,221,-5209
125,-21,-95,-15132,-6464,-1711
-15,-91,-19,-9214,-11450,-3281
90,117,45,28633,3131,15783
46,95,95,1686,6054,11570
8,0,-109,-7831,-12689,-12756
118,-19,50,-31220,21161,4879
-25,86,116,-13070,-3492,-8376
-30,113,-76,-4354,5701,-2644
38,93,-23,-14946,-3672,-1468
-114,-76,-18,-25310,-12345,-4471
47,71,-69,-30654,-1871,12491
115,88,1,-5370,-6238,-9787
-67,69,-122,5294,-1363,-12976
35,41,77,22772,12986,15652
39,-96,-14,-24812,-13029,-10518
65,-20,-101,5518,-790,-1030
3,71,-108,5617,-2089,3258
112,-128,-52,417,-5694,1151
-107,4,18,939,-2697,248
-116,74,12,3085,-13,2522
104,-123,-63,-544,-1770,70
115,-46,31,1040,-148,1228
30,-74,-31,423,-92,-296
65,-67,-67,-1531,-16,-1263
108,-45,109,-1309,346,-659
112,-52,77,-6,-83,-73
92,-76,125,-453,-1263,-350
104,-69,111,69,-707,-54
110,-47,124,-288,-196,128
106,-26,121,-459,156,34
97,-27,107,-465,9,-358
121,-35,92,49,-74,-182
121,-41,122,-339,-505,-116
121,-30,127,-576,-436,-38
119,-8,119,-652,-146,-67
122,7,102,-730,136,-251
-126,10,76,-529,97,-318
-23,66,-38,-3016,5801,-416
-110,-125,-107,-1349,6093,-2835
-94,-73,-15,-221,1743,-7625
-104,26,19,-9327,1242,-4361
-118,3,-75,-7504,2681,1029
-71,60,66,-23298,-16514,136
-88,90,-87,1918,-2123,-7872
-75,-79,-10,19346,20580,22928
-126,1,107,-3721,-14738,-18297
18,-96,5,27700,18283,13387
52,29,106,-9943,-827,-9658
23,-80,-69,-4321,3416,-3932
118,-57,33,-10770,-1798,-857
68,-55,65,-21913,-22732,-6467
-91,53,-117,-31687,2247,7626
22,47,81,-1000,5711,11941
-57,-79,-115,2982,-14183,-19430
85,-128,55,15306,10055,7549
3,67,-100,-14911,-10769,-1801
-22,12,-62,5274,-4562,-657
22,-99,19,1429,-6509,1256
-123,40,85,-1698,-5647,-2597
-109,-4,50,2098,2420,1113
59,-104,-72,8442,6444,4484
-38,56,-93,-1268,1388,1707
-26,17,76,-8014,-3607,-2053
0,45,7,-1956,-768,-1294
85,-45,-19,1612,593,-369
72,-72,70,1633,228,-149
64,-68,126,1051,41,238
58,-62,-25,-1640,-1236,-540
92,-10,-113,-1523,-330,-62
78,-31,92,-947,224,-445
116,-31,57,327,757,-304
-123,-28,119,-291,141,-406
-120,-19,-127,-979,-80,-275
-123,-7,75,-1094,134,-87
-98,13,41,-382,453,117
-112,15,56,-145,-251,20
109,0,80,-117,-1020,-127
-119,-4,105,3893,6180,-1319
-122,-55,-115,-9973,5169,-8462
-26,57,15,-7238,4962,-3125
-76,-112,25,-23740,-12436,-2883
-116,60,91,-3403,-5044,-3680
-75,-14,-113,24597,8846,21186
31,101,-26,-1408,-9266,-13184
-1,-104,53,30816,12411,10593
75,37,29,-14769,-332,-9349
100,-41,-116,-4194,5954,-2507
-52,122,20,-11974,-2335,-1342
-46,-124,109,-23668,-15490,-3852
88,-53,-28,27277,234,6014
117,89,-83,-1542,-2708,-9223
-41,70,97,8473,-1297,-6890
46,-65,-117,21857,5870,13200
-51,34,121,-14281,-7749,-8038
35,-18,3,4311,-2586,1067
-121,92,7,349,-5902,-736
-115,-25,47,-1007,-4613,-1173
-75,51,111,2579,-1223,677
-56,-100,-12,8519,3955,2926
79,-123,88,5405,1052,3636
-89,-2,-31,-3442,-2377,-587
-46,-47,-32,-6269,-2477,-2544
78,-11,15,-33,863,343
100,-68,17,2502,2338,943
79,-106,-85,457,1685,-1389
-95,-63,-82,157,1330,-568
-68,-67,-58,-1746,136,-869
-41,-34,98,-1907,188,-488
-31,-25,45,-531,86,291
-47,-33,52,135,-279,397
-78,-36,95,-23,-710,-123
-74,-23,113,-104,-977,-62
-78,-22,121,-138,-827,-188
-91,-25,-127,-159,-578,-1
-94,-16,127,-101,-293,139
-101,-3,-115,-598,-133,-73
-102,0,121,-465,-54,-97
45,-19,-76,-7034,548,-1896
31,34,83,5172,9605,644
53,53,-93,-10305,2742,-7404
-84,-40,37,-6191,5967,-3147
47,102,29,-11746,3249,-2240
59,-120,121,-25767,-31438,-3835
59,42,-60,-21378,6513,9287
64,-80,-76,-484,-1292,-3407
-48,-120,-10,23572,11066,9105
-78,-63,108,-5060,-1364,-9275
84,-57,-62,-7298,3558,-5825
-76,52,56,-20435,-12078,-2250
55,-78,-94,-18968,-1736,-11319
-12,105,-114,28243,5872,18116
-56,-32,92,-1626,-9843,-14605
-78,-69,120,8903,2847,-2434
73,-19,73,12722,-5791,2571
65,123,25,-7006,-11371,-2709
-117,100,4,3744,-4666,1425
-10,-44,-4,9542,2091,5936
-48,-96,49,3240,3257,2630
105,-35,33,-3156,1583,-3115
72,38,-6,-5286,-689,-1688
50,3,114,-2552,-2725,-630
66,-52,-71,4874,1265,1310
60,-122,-93,2689,849,5
83,-114,-44,651,875,-206
-128,-124,-48,-737,866,-241
-109,-120,-104,-986,526,-379
-86,125,112,-673,291,-357
-80,-111,108,-761,-328,-364
-70,-93,89,-591,-212,-87
-73,-70,86,-575,-198,33
-95,-50,85,-597,-345,-25
-102,-38,81,-406,-317,-109
-97,-27,92,-474,-205,-224
-78,-24,83,-247,154,-146
-73,-24,81,-124,215,-125
-76,-25,93,-399,-172,-202
-72,-23,84,-369,-330,-70
-63,18,-123,-3589,3461,1561
-18,111,98,-3693,7730,-754
19,-53,-37,-4267,2750,-6398
2,55,23,2484,5685,-3432
47,-65,113,-5928,5288,-2947
7,39,8,-12908,-984,-2184
25,-18,-45,-22472,-23397,-4570
21,111,-10,26378,2984,1459
-20,-55,57,8561,4560,17453
98,-62,-52,2703,-6995,-10058
-78,74,124,5797,-773,69
-103,94,42,-3966,2700,-7056
-15,92,-126,-2969,4306,-3365
79,-36,25,-11100,-899,-1208
-120,112,114,-21994,-19791,-4895
-63,63,-90,22221,1378,3765
75,-126,21,9147,-1566,-819
-50,90,-126,7711,-4172,-9321
-112,-79,15,20420,5426,12272
47,68,67,-11949,-12649,-6713
-114,119,-98,6922,-5222,-2357
-97,-31,-16,2206,-328,3130
102,-21,23,-3693,-223,1614
111,-80,29,778,3686,4351
63,-75,60,2064,4393,4335
44,32,-7,-1607,-2248,838
14,-21,88,1114,-1825,-17
36,-91,-108,246,-2081,-1636
75,-59,-108,132,-1228,-890
80,-81,-84,-464,-750,-378
96,-108,127,-172,678,-77
-120,113,101,715,1753,29
-104,-126,85,1349,1895,312
-106,123,-70,-789,251,-569
-84,-98,-114,-1369,-492,-468
-76,-91,97,-1525,-665,-458
-58,-57,34,-375,-33,49
-69,-54,64,-128,-94,-118
-89,-68,82,76,-309,-233
-82,-78,124,-373,-582,-211
-96,91,76,-2293,2107,4238
-121,-34,-123,-13995,-230,-3813
-60,-112,-68,-7643,4085,-359
63,-76,33,8446,10313,5691
12,-116,26,-1158,4815,-4320
104,-36,115,-6225,8147,-2767
63,112,112,-17089,-5204,-750
19,121,41,-25849,-5096,-10490
9,-48,-105,-28042,1508,14666
-4,-42,-77,862,-4319,-8882
86,-128,89,25352,14584,10819
-82,-100,110,-4608,-2957,-10446
-114,-93,111,-3335,3789,-7829
-113,54,-25,-7869,3317,-1465
-65,-33,-21,-23228,-21231,-3978
-71,81,1,14987,-5429,-4440
34,-35,-39,8047,13291,26704
0,-48,60,12569,-4639,-15518
-109,94,82,-936,-10052,-2462
3,2,103,3704,-4416,2550
-57,124,5,-2950,-2212,-4510
9,23,5,6110,365,4775
-111,-42,62,-5134,-6383,3544
100,91,-24,1984,-8223,2447
-99,-11,64,6898,459,4862
-13,88,53,2117,-781,999
-97,6,-100,-4303,-2777,-1788
-50,14,-87,-1645,273,-568
45,-28,57,626,3115,228
84,-42,66,1153,3121,-143
93,-54,122,467,1109,-638
120,-65,-93,-797,-455,-1334
-96,-79,117,-1100,-739,-1648
-78,-90,96,-802,-803,-1280
-69,-88,92,-332,-679,-666
-68,-69,93,-230,-344,62
-104,-56,94,-154,-164,194
-124,-38,123,-615,-627,-173
-128,-23,113,-385,-792,-89
121,-14,119,-577,-655,-22
