AccX,AccY,AccZ,GyroX,GyroY,GyroZ
-35,-41,24,617,5345,1691
-2,-4,21,593,6791,914
76,82,-83,-2995,3619,-4393
35,68,-10,2316,4704,-6333
17,24,12,2818,2243,-10060
74,-99,-15,-2133,374,-12561
75,13,49,-15733,-2646,-13997
-67,-108,20,-9116,-141,-11282
-39,-117,-41,11566,2024,6700
26,49,-124,22061,3203,13879
-24,125,-121,-29887,-9249,8995
69,34,-3,-22276,3509,-12259
-69,-107,-128,7997,3491,-617
87,53,-9,-1790,-599,-1169
-22,-3,-36,-5221,-2900,1349
31,70,44,-1697,-3433,3166
-70,125,99,5593,-2495,6899
100,-56,-121,3774,-4790,5875
66,-36,-49,-3850,-6944,970
-101,96,68,1072,-5333,587
-43,-27,31,3036,-1656,-253
18,96,11,1248,30,-1767
117,-121,-49,1546,1145,384
102,-68,-34,4070,975,2703
-49,71,77,1633,-1121,699
-85,-29,17,1170,-462,-393
-28,-91,-9,-476,711,-721
33,-110,-88,-374,1677,-175
101,-96,123,-1029,1620,-100
120,-86,73,-361,1310,373
116,-89,49,269,1095,436
102,-93,111,-931,-414,-332
-128,-74,66,-550,-472,-227
-111,-78,65,-261,-380,-114
-108,-72,73,-45,-54,71
-120,-59,92,-489,-260,-28
-124,-53,79,-374,-296,-60
-122,-51,74,-195,-232,-52
-118,-45,87,-418,-238,-74
-117,-37,83,-394,-201,-81
3,-85,52,1796,5461,2528
84,121,34,-356,6498,-203
-63,72,-91,-1624,4759,-3191
-128,-68,-94,3175,5654,-4960
-94,50,51,-212,944,-11738
-55,4,-96,-4481,-528,-12400
3,12,-71,-12103,-917,-11979
38,114,59,-20504,-3609,-14376
-48,-75,-121,27799,4223,13146
-29,97,-119,24477,10639,22691
-124,90,46,-27425,-4898,-11493
-90,-64,-36,3605,3392,-5395
126,-90,14,4619,1653,-4368
-92,81,90,-10051,-3607,-4171
31,-118,-6,-9047,-4909,-2216
-66,-29,85,12799,-1136,11264
-115,72,-125,5939,-4340,4414
-96,64,3,711,-6266,3607
-87,37,-127,-191,-7743,-1293
39,56,27,6877,-2879,1203
87,-9,-103,2779,-2033,221
119,107,92,555,-343,-1055
-99,-96,33,2563,952,1671
61,71,22,3427,947,1375
-87,-6,22,2853,1099,527
-55,-114,22,-614,1535,-1116
60,108,-93,-728,2226,-359
-125,112,-110,-1067,1098,130
106,102,-116,-1521,-637,-218
111,107,65,-353,-229,-38
-124,125,76,264,4,-118
-122,-105,105,-183,-43,-186
-113,-100,114,-839,-122,-293
-98,-97,77,-736,15,-159
-98,-95,57,-403,-82,18
-101,-87,57,-141,-89,144
-108,-69,77,-463,-154,51
-101,-56,72,-373,-199,14
-104,-53,71,-289,-167,-130
-94,-49,75,-339,-161,-148
22,-49,32,-2064,7235,-563
7,-64,-51,-2508,3270,-5445
-90,67,-43,4587,5028,-6006
-15,27,62,-1124,1633,-10033
-2,-76,-87,-402,1553,-9183
-22,36,50,-7772,-2327,-11581
21,101,80,-20280,-5741,-14501
-84,-43,-110,24548,2719,-2082
47,0,-51,24600,8863,22056
-38,-96,65,-5467,-7749,-12346
77,-14,-81,-7691,2151,-7569
-111,116,-80,5830,2441,-1777
112,-95,11,-2830,-373,-410
18,30,125,-3104,-3054,3606
59,-32,103,90,-3879,4257
-80,29,-13,5799,-3678,6100
-30,-57,-128,2482,-3798,4376
-51,104,-64,654,-5736,2650
-26,20,74,2643,-2240,1067
33,-41,-98,1877,-2140,-219
103,112,84,2336,-1867,1022
68,104,62,1450,-989,1463
40,41,43,-2,-1191,154
39,15,-34,1305,-153,589
1,-61,-75,2153,1612,572
32,-110,-53,125,2047,-264
40,-82,25,-3309,-448,-1014
98,-82,102,-4041,-1125,-1150
97,-41,-19,657,331,321
101,-69,50,394,-113,-30
115,-41,101,363,250,225
107,-42,-127,-1030,-175,-377
127,-36,42,587,628,248
121,-51,97,-271,-171,-145
122,-45,86,-279,-236,-18
-125,-38,86,-299,-176,9
-123,-29,87,-189,-85,-8
-125,-15,93,-491,-154,-138
-124,-19,89,-724,-259,-282
-111,-16,60,-292,1,-98
-27,-30,93,-3687,6486,-4684
59,63,-58,-4548,5966,-9704
-2,-58,72,-7742,1531,-11256
-31,-6,94,-15728,-784,-11680
-69,-94,9,-8322,-2794,-9876
121,97,116,19730,166,7306
104,48,-49,22550,10959,24214
-125,47,-16,-32018,-4374,-14486
118,46,76,-2833,1003,-9190
-52,-128,-42,10234,2982,4741
37,37,-53,-2000,-2692,1263
88,36,-20,-1909,-5500,1774
126,-10,-90,6076,-2379,6588
119,76,116,6314,1308,7074
17,75,89,-2043,-5477,3370
-70,64,-59,2031,-6649,672
100,16,76,3523,-392,1284
-38,67,121,1804,1974,299
-120,-6,-26,3485,-312,5148
-53,15,52,-3774,-3337,72
-26,-19,-35,-777,-2022,-450
68,-18,-125,2400,1528,1516
41,-108,-50,-1057,594,-857
115,-92,116,-1029,610,-1058
-86,-94,101,-292,216,-371
-68,-103,93,-126,298,-274
-66,-105,112,-495,-50,-260
-70,-86,111,-962,-646,-169
-74,-76,76,-571,-453,-1
-81,-59,72,151,-102,384
-96,-47,114,-475,-491,132
-106,-33,108,-420,-481,53
-104,-26,103,-248,-282,2
-102,-27,119,-370,-249,-113
-102,-21,119,-471,-126,-112
-96,-19,99,-297,81,-83
-100,-18,104,-402,-26,-148
-96,-8,102,-521,-55,-197
-84,0,92,-451,-73,-203
-86,-4,91,-343,5,-222
73,85,-97,-1914,2316,-3790
73,81,-25,496,3945,-3399
-116,-26,28,1196,3472,-8030
-123,-79,81,-11714,-2153,-14464
58,75,-126,-17916,-891,-14728
-48,88,-34,-3194,-2459,-9701
-49,-31,-27,15187,-3123,6931
23,-81,31,22613,9670,23644
34,-45,-7,30843,-2009,-13720
-110,-27,48,-492,2199,-6478
51,-64,-23,8553,2731,1568
64,-92,-89,-3725,-2487,321
-76,106,96,-1430,-3955,3742
97,-78,-115,6974,-2798,7141
-56,74,-114,6279,-2890,6791
-46,26,-19,-3091,-5599,1918
21,74,121,-380,-3968,1328
112,34,24,5182,717,2158
96,-70,-45,1527,-2035,1367
55,37,-112,-988,-2912,-299
-114,-31,-93,1719,93,465
-125,22,-83,5028,1692,3065
-7,-27,91,-409,-91,-122
20,-82,-42,-2478,-198,-1561
116,-88,89,-566,753,-320
-125,-115,77,-545,535,-323
-115,-115,69,-59,143,-52
-117,-111,91,-265,-182,-46
-107,-92,93,-301,-119,74
-110,-77,103,-559,-219,-150
-104,-71,92,-466,-80,-332
-88,-71,88,-461,13,-278
-82,-70,80,-439,-103,-160
-88,-65,77,-488,-201,-112
-80,-44,66,-314,-61,6
-90,-36,77,-387,-235,-39
-92,-27,76,-462,-164,-93
-86,-20,67,-330,-136,-40
-91,-17,67,-228,-128,-102
-94,-20,82,-395,-249,-117
14,-64,-9,-4537,1936,-2436
7,118,118,-1280,4374,-1912
-17,-17,-35,804,6216,-2724
62,25,-54,-2734,3129,-9203
64,-86,-126,-3077,1848,-14342
-87,81,46,-22387,-6123,-17560
-13,-69,75,-19487,-1334,-14983
19,59,71,26723,1541,12717
-34,75,-111,14902,4500,7103
67,48,113,22642,-8475,-4051
-32,127,109,-25076,2118,-13456
-126,-16,-5,10674,2907,4699
41,-101,117,2567,608,4406
126,-18,4,-3505,-4648,-212
0,46,-82,4050,-2036,6264
-49,36,113,4482,-1592,6411
-81,-15,27,-3327,-4098,2224
-18,3,-98,1353,-2287,1029
103,-94,59,3659,102,1955
52,101,-99,957,-2216,1037
59,10,5,417,-1907,380
101,45,-85,553,-750,1264
97,19,-100,515,-378,613
101,0,-98,1357,-506,600
56,-50,-36,416,-580,124
44,-66,-56,-1767,-237,-955
112,-73,112,-1400,547,-472
124,-60,51,-415,705,-238
119,-70,65,460,459,-33
124,-67,108,-624,7,-315
-101,-43,85,-928,105,-250
-103,-35,53,-563,45,-168
-99,-36,52,-316,-89,-210
-101,-30,60,-342,-91,-101
-94,-16,68,-588,-184,-47
-102,-12,56,-453,-237,-130
-98,-4,48,-185,-215,32
-106,4,60,-243,-411,52
-117,13,71,-203,-432,-97
-119,4,96,-294,-271,-336
-36,24,-6,-2597,4605,-2679
-62,17,0,-126,5425,-2872
64,-85,-92,701,3974,-7105
-70,32,-61,-2118,1324,-11525
106,18,52,-6562,-820,-12767
119,89,-8,-20989,-2958,-15923
-93,-87,44,243,-2726,-7753
-112,63,68,22735,793,11720
-77,-123,84,25988,26798,-26870
-126,-80,-33,-28761,-17356,-26760
124,-67,12,-5143,3135,-2626
42,-84,-118,8972,2272,2687
-86,37,106,-1585,-1199,3129
53,-4,5,450,-3326,4565
-106,-21,40,11731,375,7757
-80,26,27,3911,-1143,7372
83,73,29,-8068,-6422,-442
-74,-50,26,1866,-5433,-224
116,-57,-49,6482,132,3354
110,-3,-124,-471,-1895,-40
110,57,-60,3242,370,1725
15,30,19,1811,260,1257
-51,-55,65,-3569,-1205,-1980
74,-51,117,-1637,690,-881
-123,-70,51,82,1784,-162
-115,-99,76,538,1290,-160
-104,-88,113,-321,224,-242
-97,-81,110,-1014,-391,-232
-85,-52,67,-719,-363,-61
-98,-50,65,-424,-418,-203
-87,-49,69,-146,-271,62
-98,-41,94,-426,-318,1
-113,-31,88,-351,-348,36
-116,-21,88,-452,-352,27
-116,-16,82,-295,-153,-6
-110,-5,82,-202,14,63
-114,-4,90,-338,-13,-135
-105,-7,80,-257,91,-160
-98,-13,82,-281,20,-117
-91,-11,84,-403,-37,-158
0,-59,-128,-154,5772,2228
-76,-14,101,-2720,4295,-3540
54,-89,-109,4032,6746,-2591
35,85,0,-3102,2025,-11076
61,124,30,-2792,3261,-10835
-34,-97,-21,-9220,-83,-13609
59,36,-1,-22090,-1978,-16129
118,49,126,4649,1218,-7464
-104,-82,-113,17142,56,9712
123,90,44,-31267,9916,30442
10,62,122,26983,-4970,-21460
-50,26,-55,4006,4929,-4675
-56,118,76,-5488,-753,-4553
-65,88,72,-5098,-5588,-2798
-10,-118,-91,17009,573,12951
-79,-15,95,9458,1711,9550
106,-26,81,-9537,-6326,556
-101,-70,91,2004,-5205,1493
58,121,44,10265,-514,5492
71,-40,61,535,-3921,1706
81,-79,-88,48,-3624,-218
-69,-46,64,3865,-484,2263
91,-88,44,3535,1198,1766
-32,81,83,2034,701,915
-51,-72,82,-1144,14,-722
71,-126,-94,-1145,681,-599
122,-107,97,370,1224,622
100,115,-123,30,312,120
108,116,-102,-848,-620,-552
-122,-124,125,-865,-447,-484
-110,-116,109,-999,-321,-499
-98,-104,77,-521,4,-230
-98,-96,73,-223,38,25
-111,-81,88,-612,-213,-120
-109,-56,75,-538,-218,-65
-111,-52,71,-432,-230,-140
-109,-46,74,-444,-196,-177
-104,-38,73,-391,-160,-110
-107,-39,72,-387,-137,-139
-103,-32,75,-392,-173,-109
39,125,48,906,7007,1878
-125,120,-89,3538,9278,-80
-36,-115,-92,-833,2240,-6535
53,84,-12,3379,530,-8846
83,-127,0,-3684,-2972,-14301
-35,13,96,-9132,-3320,-14275
82,-72,-60,-8228,3022,-8761
72,103,37,-12306,-2470,-6266
40,-100,-25,22139,566,7678
85,-76,39,25712,10797,21900
93,-72,93,-31394,-1432,-17270
-109,97,-89,3403,1054,-4393
-61,21,34,-3292,-690,-3015
-121,76,-62,-483,-3641,2516
-85,122,-56,1855,-3296,5082
-42,58,-74,6146,-401,8019
111,-123,-104,4204,-4305,5862
-103,39,-61,-2646,-8273,2100
-58,108,66,307,-7829,-1205
-45,106,77,4203,-1155,-135
-3,28,71,4185,518,544
-105,0,105,4475,74,1901
-48,-116,-91,1918,-971,982
-72,-106,38,-1749,6,-2356
47,-36,82,3613,2419,2025
-58,-53,-8,-146,605,106
-8,116,-120,-1309,1305,-1489
118,-111,17,1931,2336,698
101,93,124,-134,471,-400
-126,92,94,-193,278,-430
-114,108,-128,-1499,-896,-658
-113,-126,121,-2199,-1458,-928
-80,-85,22,-378,-230,256
-118,-84,48,-205,248,69
-123,-68,43,62,651,48
-121,-51,61,-178,332,-36
-122,-52,72,-675,-127,-344
-102,-48,42,-303,16,-162
-98,-40,60,-477,-214,-229
-97,-43,56,-357,-149,-200
65,-8,113,-3651,7454,-2920
-81,41,-118,878,6078,-4909
-37,-13,-51,-2733,3319,-9448
-48,55,-92,-10913,-182,-11989
103,66,85,-7694,2258,-8927
25,-89,70,-3733,521,-4001
100,8,-100,-603,-5011,-5240
34,-100,-91,18495,224,11526
-68,-35,-60,-22545,-10532,14056
-99,43,-93,-24869,1833,-21217
2,56,50,-1466,5097,-248
88,-84,39,3295,-2223,2169
-14,-72,-127,-3029,-4189,2059
114,-115,81,1735,-2068,5113
11,-84,-3,7027,-1990,6628
-51,-101,-98,4262,-4120,4719
-3,64,-15,-4180,-6893,1147
123,88,39,3217,-1723,1104
-58,-85,-83,4380,1759,4107
50,-74,61,-1314,-2931,-93
40,98,49,2810,-855,1797
10,15,62,1062,-730,586
34,-67,-43,-625,-292,-810
85,-45,111,1157,1523,71
121,-99,-120,693,962,35
121,-128,106,224,372,703
72,-116,-96,-615,-831,101
96,-80,-106,-1350,-769,-288
127,-60,100,-1192,-59,-590
-109,-72,74,-827,357,-706
-86,-65,61,-377,401,-261
-82,-56,63,-530,70,-127
-100,-48,72,-441,-281,-163
-94,-40,76,-504,-227,-56
-83,-25,75,-422,-81,-23
-91,-20,71,-198,-16,-8
-96,-15,84,-549,-146,-137
-89,-7,64,-307,-98,-37
-92,-3,63,-160,-189,-57
-103,-10,76,-211,-377,-150
-118,39,-68,5149,8092,431
-53,-86,-60,-4559,1758,-10248
30,63,-78,1547,2998,-11389
-5,-86,-80,-10827,-3430,-14468
-49,48,63,32331,-6355,-19890
-98,75,-63,31003,5862,9684
-5,34,-122,11855,-218,4721
-39,110,-25,-22760,15354,-29796
-24,16,95,-26136,-6641,-26682
71,86,-93,4721,5546,-1304
75,-48,-94,-2970,-730,-591
67,11,101,-6106,-5803,932
45,-86,2,9179,785,8086
42,-112,126,3786,-1856,5552
79,-84,-80,-7505,-3899,-860
-88,50,-96,1925,-2767,1661
-14,34,-48,8151,-951,5899
-54,-109,-76,-1957,-2540,1481
-20,26,94,1232,-1836,2132
95,110,78,82,1362,937
-91,-96,83,1940,1101,3584
60,114,-106,-240,-728,3146
-15,57,62,-412,-1920,1426
-4,1,-19,-20,-1945,481
63,-66,-81,-355,-902,-1357
115,-77,-124,-58,68,-992
-126,-101,118,343,176,-88
-128,-104,-99,-1088,-515,-229
-116,-65,104,-999,-15,-42
-111,-53,80,-565,140,-148
-104,-42,61,273,471,-8
-107,-46,111,-796,-294,-438
-92,-40,82,-521,-194,-209
-77,-53,63,-44,34,101
-79,-45,73,168,216,297
-92,-32,87,38,-35,195
-96,-25,111,-478,-360,-74
-86,-28,91,-229,-98,-31
-80,-28,93,-200,-24,-31
-84,-29,97,-320,-84,-62
-45,16,-31,1487,6412,-434
95,-109,-99,-1857,3815,-6465
40,69,-89,301,1846,-8325
-66,12,-119,-2403,1537,-10607
69,63,-32,-8595,-546,-11181
66,115,60,-16769,-2225,-13177
56,92,97,-6668,-2776,-10710
-120,26,117,23560,1861,12256
16,-24,-20,26836,14548,29908
-44,79,36,32255,-5570,-20778
31,-101,-110,13081,3924,-3524
88,84,-31,-4121,-1509,-3341
38,22,-16,-7613,-5193,-1644
109,-21,87,-2118,-5044,1638
102,51,52,9090,797,8434
-67,73,-103,3403,-2400,5065
-25,-11,-11,-4022,-5391,2051
13,-123,-83,3308,-2735,2707
59,-6,25,2390,-1645,2049
57,20,46,1773,-1837,2166
48,-105,2,-136,-1532,1191
52,69,102,1269,-1320,1880
32,12,8,2249,-1665,1962
33,-81,-57,2619,-1311,642
54,-79,-107,2762,1445,319
62,126,-35,319,1051,-702
127,104,-30,-1711,-171,-733
-109,114,-107,-1101,-262,-414
-106,121,121,-1109,-303,-503
-94,-114,98,-1362,-441,-357
-108,-89,67,-684,-134,-126
-107,-78,67,-408,-68,-93
-106,-62,79,-380,-74,-109
-109,-55,85,-646,-160,-212
-108,-49,70,-439,-138,-169
-100,-46,71,-419,-101,-92
-101,-33,75,-445,-226,-119
-99,-30,71,-193,-133,-71
-98,-34,91,-291,-127,-132
-95,-28,96,-411,-106,-99
-75,-60,-76,3179,7697,854
-56,-65,-87,1591,8667,-5642
119,4,-90,-2914,2396,-7295
121,11,-11,6311,1866,-8612
39,37,-23,-6623,-2450,-14021
-16,47,21,-10201,-642,-13523
-98,-11,121,-13142,750,-9065
14,111,-22,3832,-1688,-1769
40,45,65,18392,-606,8999
21,98,31,-32393,7905,32105
-112,-87,109,27481,-1899,-23456
-54,-122,23,16173,5932,347
96,116,-6,-1280,-1065,-4746
-85,44,-116,-9650,-3211,-1492
-98,96,52,-5370,-5159,1198
4,19,-28,8720,-171,8439
-110,-19,-7,5375,-1181,6275
-93,66,-47,-5646,-5752,723
-79,74,19,4516,-4122,3983
-20,15,117,5303,-3552,4960
-20,-13,53,-1343,-3324,1122
53,-69,111,1299,-1857,1491
49,-113,17,2607,-145,2010
94,81,45,-53,-1140,1673
47,92,12,1480,-1262,2065
-23,35,-12,745,-670,804
-44,-53,-56,-445,369,-1135
48,-70,-109,-152,1201,-462
83,-72,100,132,1382,91
79,-83,115,-358,446,-296
90,-86,105,-363,-175,-285
112,-83,107,-598,-261,-373
-128,-72,98,-692,-40,-450
-118,-70,92,-564,-42,-476
-106,-71,84,-407,8,-398
-100,-70,93,-693,-224,-328
-95,-55,81,-601,-304,-75
-112,-48,69,-200,-271,113
-114,-26,94,-623,-350,69
-122,-7,81,-464,-295,33
-28,-110,95,4285,6568,1750
46,60,120,3308,5817,-2466
45,11,-88,-3752,1344,-7867
59,-60,-63,1661,5246,-6167
-13,57,-43,-3412,908,-11095
95,101,14,-9523,514,-12437
-53,24,115,-12056,1387,-10431
-105,-38,7,-7618,-2397,-6820
8,-117,115,17859,-493,4151
-5,-72,19,21979,2479,13457
-91,15,9,-28571,-461,-6576
-125,-118,78,1671,3303,-8294
41,-56,2,6165,3103,356
-6,24,-7,116,-1261,2065
-112,49,-50,-4781,-4758,195
114,-21,14,1984,-2884,4616
113,71,93,8116,519,9477
109,60,-107,-1568,-3142,3587
-111,112,120,-2435,-5740,1654
25,17,-14,2875,-3203,2984
98,-64,111,1570,561,1838
94,67,57,-201,-949,-385
-89,-110,-30,2893,-588,2884
58,76,32,996,-1573,1400
15,44,-10,524,-1352,605
-39,-3,-8,-1475,-1151,-723
26,-65,-119,-2022,380,-1285
92,-70,55,507,1775,-175
108,-88,70,744,1486,-8
124,-91,94,211,707,23
-122,-87,103,-470,66,-42
-121,-70,94,-889,-304,-165
-107,-62,62,-832,-325,-306
-96,-62,50,-251,-94,-166
-93,-68,56,-90,-53,25
-106,-61,80,-328,-255,40
-107,-38,78,-564,-381,89
-117,-29,68,-454,-368,-26
-112,-22,63,-233,-119,-28
-113,-18,72,-317,-78,-97
-70,-23,108,4497,6839,635
23,-91,-124,-612,1301,-4843
-98,48,-97,-5877,-157,-8758
41,38,-121,-5776,2902,-10362
26,-40,-23,-10563,-111,-11919
-85,-61,24,-22723,497,-11457
2,-25,120,-2278,-1549,-6088
75,-70,127,17667,-262,7790
68,-96,124,18880,3982,8497
31,11,113,25196,-11778,2355
-70,4,-3,-17195,8215,-13763
-93,-65,-81,5602,3978,-1405
-3,-4,12,-747,-318,-946
-9,8,6,-5929,-2817,1213
10,-37,102,187,-3052,2288
30,20,80,5822,1708,6858
-19,81,117,324,-1299,4635
-27,50,116,-2830,-2948,2188
-9,-99,87,2601,-2585,4774
8,-52,-71,-48,-2514,1882
66,47,-72,1901,5,2652
74,-93,-85,-1557,-1952,2053
102,126,20,1379,-1161,3222
127,49,45,1294,-1670,2589
68,30,55,1424,-3071,2220
-6,-27,19,583,-2973,295
5,-105,-44,-1217,-936,-1972
94,-93,-125,-1137,1099,-873
-120,-79,66,196,1963,467
109,-96,98,-295,828,-278
-128,-103,78,181,479,-385
-92,-109,85,8,196,-294
-84,-99,103,-772,-189,-356
-80,-93,83,-845,-329,-359
-64,-81,60,-429,-265,-166
-75,-80,74,-395,-419,-108
-72,-71,69,-80,-37,139
-80,-55,99,-671,42,-37
-73,-38,81,-490,305,76
-80,-35,87,-507,81,-64
42,109,6,-3395,2070,-5440
-124,23,-19,418,3672,-7055
54,34,-112,-6759,468,-11984
-64,91,-61,-11219,720,-12190
-90,28,105,-14781,2244,-9764
-50,-95,-95,-2407,-792,-4666
-9,91,93,13498,-2645,6064
121,-37,-18,13344,-347,7656
2,-79,-89,-28082,6329,17518
18,-109,106,-20238,-296,-17329
-92,-41,7,11722,5954,-1057
83,35,-9,-9935,-3027,-6463
11,-27,-62,-10666,-4495,-2059
109,-63,-123,4894,-2185,5088
-74,-12,95,8153,1305,8358
-86,93,-87,-3167,-3221,2426
-40,31,28,-1418,-1848,2845
-63,20,23,2409,-1706,4280
-70,-16,-81,1092,-3425,3332
-47,-46,-88,1308,-3170,2140
9,-73,-89,709,-2204,2017
10,93,124,-426,-3255,1337
53,70,9,692,-1072,1168
58,5,-46,728,-959,652
117,-7,-92,2855,-207,1491
76,-3,9,1519,-478,1169
-15,-50,52,-2846,-1515,-1255
48,-54,-122,-1592,85,-808
89,-66,72,-175,1030,-281
103,-68,62,604,1235,179
93,-68,113,-284,209,-155
108,-60,105,-490,-145,-80
124,-56,84,-460,-74,-96
-122,-48,79,-275,52,-83
-122,-48,82,-229,-29,-138
-112,-45,89,-425,-170,-109
-115,-44,85,-372,-248,-47
-114,-34,90,-436,-257,-27
-113,-23,87,-358,-196,-32
-117,-21,87,-330,-87,-104
22,-99,109,-2414,1017,-5696
74,10,124,-5111,2780,-9983
-125,-104,-118,-7632,1237,-10981
-104,67,-71,-13631,-241,-10787
1,-81,32,-13034,410,-8389
38,3,30,8943,-531,-1704
49,-7,-112,11562,-4002,4805
55,-93,-127,-30859,11276,29913
-91,38,-6,27825,-4133,-25372
-7,-103,-43,20912,8905,4457
-39,-90,-8,-5656,-2322,-8244
12,-36,-67,-13585,-3856,-4769
109,7,-8,-4096,-3385,-449
12,-86,-83,12947,1912,9977
76,-114,37,4157,332,4136
125,89,-31,-8417,-3667,-1042
-18,45,-64,1292,-2099,3053
-14,-43,11,3911,-2062,5602
-34,-74,-66,-841,-4304,2306
-11,-62,73,2098,-3753,2078
30,-22,-55,2749,-884,1413
42,69,-94,-704,-2318,81
94,71,-1,3128,-64,2586
39,-2,71,-1281,-1289,271
46,40,-55,-259,-1141,410
13,22,-32,-687,-1510,-83
35,-40,-72,-1082,-568,-563
96,-52,97,583,1383,285
65,-49,-119,-507,464,-63
81,-50,113,-980,-59,-215
115,-47,67,24,181,113
-128,-54,77,397,266,116
-121,-63,92,302,255,2
-104,-62,111,-304,48,-12
-103,-61,93,-370,-6,14
-100,-57,70,-86,174,138
-98,-51,72,-76,83,105
-97,-45,79,-142,-129,95
-107,-44,84,-241,-297,3
-106,-31,95,-618,-396,-168
58,-37,31,-1960,4726,-324
-11,-20,-122,6003,6051,1126
32,-74,-108,2815,3786,-2069
39,-96,-68,-1793,2597,-6696
-119,-125,-42,-7350,-294,-11969
76,86,-30,-10567,573,-14088
-46,-15,-39,-17180,630,-12477
-2,-40,94,-7735,-1750,-8831
28,-71,98,21248,-134,13461
122,-127,-90,26695,6558,17401
75,-3,-46,-31524,-2165,-12504
57,18,-60,796,2784,-6969
31,-69,40,3094,1256,-130
-2,98,-102,-1134,-616,1755
5,-102,-46,-1002,-2387,2548
26,74,-75,3308,150,4902
-48,-10,42,3549,-311,5046
-94,-10,-88,-1710,-4076,2977
-92,-101,38,453,-2795,2125
5,112,26,1419,-4176,2360
45,111,-6,2106,-3329,2590
81,-122,68,122,-3701,1090
-111,109,-31,595,-1910,197
-77,126,-98,2547,322,1299
-97,90,-127,2717,1436,1754
78,24,-43,1114,557,1174
30,-31,-28,-1372,-531,-435
57,-70,-110,-1780,-381,-884
111,-106,46,-899,87,-417
114,-102,36,632,379,299
96,-109,93,20,-147,83
109,-83,102,-371,1,6
126,-75,82,-274,319,-184
-105,-79,77,-120,409,-412
-92,-78,97,-865,22,-574
-82,-78,81,-1303,-365,-522
-68,-71,26,-432,-118,-74
-75,-61,34,-124,-24,54
-87,-40,60,-397,-257,-22
-94,-24,47,-260,-268,-30
-94,-9,-105,4088,5748,-765
59,38,-123,-3150,3299,-5857
-80,-114,52,-4103,481,-9738
123,117,31,-1631,609,-10931
-19,79,-44,-11919,-2,-13259
80,-72,91,-16046,747,-9513
-92,-38,-91,11280,-1166,-609
-41,26,-94,14283,-1579,10802
68,121,-90,-26203,17297,30714
-10,41,25,-26220,-8769,-25428
110,-31,40,-2505,5020,-995
-40,-24,-59,8233,-1987,4313
-127,22,-38,-1879,-2619,2243
61,-47,-29,-3317,-4771,1652
70,-39,125,6422,-1672,7372
-2,116,-120,3698,-3333,6387
-43,33,-86,-3614,-5144,821
123,-83,-104,2898,-725,-302
59,-25,125,8804,2867,7617
-85,38,-6,-538,-955,3484
2,5,82,-4193,-4070,517
92,-121,-84,-522,-2809,-555
-38,-23,-66,-3796,-1829,-2720
114,18,62,-1733,1969,-580
109,3,0,1056,2833,789
56,-49,74,937,805,155
68,-38,119,800,-398,70
105,-39,-92,-1297,-648,-504
-109,-9,80,-654,393,-66
-111,-12,86,-929,164,-470
-98,-8,58,-521,126,-333
-88,-23,46,-250,-52,-98
-89,-16,56,-229,-213,112
-98,-9,50,218,-31,273
-103,3,80,-64,-86,183
-106,10,84,-312,-212,54
-104,12,81,-446,-215,-75
-102,6,63,-182,-24,-75
-95,4,72,-246,-48,-47
-96,0,74,-337,-117,-89
-114,-13,-48,6760,5125,1881
70,-97,-102,-6226,562,-6112
21,64,-97,-709,5093,-4737
-37,72,-26,1486,3058,-10530
-115,12,85,-11724,-922,-14862
-3,60,46,-19471,-243,-13645
121,81,-61,3612,-381,-7057
-34,-68,30,18192,-2208,9190
2,-53,-23,22262,6561,18664
118,19,2,27502,-2521,-19375
102,-85,-74,14518,8101,-1960
63,-10,-7,-1635,-312,-5451
127,-56,-5,-14333,-4998,-4034
-111,-120,117,-3513,-5516,-2369
-108,36,-72,19873,1330,14002
68,-73,-46,2435,697,6763
-85,-31,90,-9665,-6329,-1810
-5,-52,87,5269,-2310,4476
37,42,-51,4393,-1330,3817
-28,-55,55,-2132,-3843,-137
56,-107,63,2377,-2689,1529
114,37,52,1964,-1008,1328
115,37,41,119,-1935,1177
105,41,-46,1135,-1445,1304
60,32,-56,2740,72,1512
-13,-64,32,-529,-626,-866
78,-118,-93,-103,1053,-696
-126,-124,124,263,1640,180
121,-118,115,-89,1117,130
118,-114,109,-337,344,-143
-120,-104,109,-829,-159,-487
-96,-97,92,-785,-191,-547
-71,-91,72,-404,20,-330
-74,-93,82,-485,-78,-346
-70,-85,79,-540,-171,-245
-73,-77,77,-602,-422,-206
-69,-65,68,-212,-197,73
-81,-54,87,-432,-324,15
-90,-36,83,-404,-310,-13
-89,-32,80,-303,-170,-7
41,-57,-50,7138,5447,917
-32,-15,-91,-4806,3594,-8945
-47,35,-121,-2752,2660,-10872
-91,17,-125,-5073,525,-12545
23,-109,-18,-17457,-1263,-13985
0,56,98,-12865,-877,-10260
125,-70,115,16270,624,5990
-105,121,-13,21232,-1441,1854
37,79,-10,-30644,10815,31726
-101,95,55,-26057,-5949,-23585
5,50,120,15788,6035,-2369
78,33,72,-15246,-5441,-11470
-8,77,-25,-18294,-4798,-5675
-105,54,30,15436,-370,8400
67,-27,120,17469,4204,12749
45,52,39,-9728,-2279,319
60,82,118,-7513,-5748,-498
-104,10,-122,9613,-1334,6492
-81,-82,-53,2210,-3546,4608
-120,-86,-79,-3429,-6689,-577
24,-33,36,4222,-2448,1382
69,80,105,923,-2345,340
61,79,9,588,-601,214
81,33,-78,1420,1052,628
90,48,-106,2431,1726,1873
51,-1,-6,-98,-253,722
46,-24,-72,135,-9,383
34,-72,-70,-1463,-703,-762
83,-71,97,-684,129,-302
102,-69,80,-165,477,73
98,-58,91,-446,166,-116
102,-61,91,-250,-119,-211
124,-59,94,-277,-46,-125
122,-55,100,-608,-138,-195
127,-46,80,-471,-29,-168
-125,-42,68,-341,32,-186
-114,-33,77,-389,-71,-181
-111,-31,77,-452,-174,-163
-107,-28,74,-418,-159,-121
-106,-22,73,-365,-73,-90
-85,-110,50,3234,3671,300
38,92,46,25,2138,-1407
-46,-43,104,-2189,2312,-3170
121,83,-106,-2078,1918,-8651
-67,-69,85,-9553,-845,-13617
-14,120,-114,-10106,1542,-10444
42,61,-97,-18084,-1681,-11561
-12,66,-123,20552,-262,4726
50,-24,-103,14450,-1414,8884
93,-107,-15,-27390,15870,28239
-85,-24,-111,-22402,-4357,-21353
111,-18,-115,11468,5120,-3020
-61,54,46,-15800,-3761,-10143
97,23,-38,-18181,-4094,-7386
-52,6,-124,15965,-1386,9948
-70,127,-80,12071,738,10427
-70,-117,9,-4236,-4098,2908
-81,48,-109,-5017,-6550,372
-22,31,-64,7240,-3640,2948
83,94,-103,7126,-2618,5261
-7,-99,47,-3030,-6320,-211
88,-109,87,810,-2597,-233
-97,67,-60,1875,-123,465
-7,-28,-59,2664,329,2851
122,-46,127,4664,-2424,3432
107,-15,-71,417,-3165,-851
-94,93,19,-2139,516,-3903
-83,110,-92,-585,3984,729
92,-48,-51,-3855,332,-735
61,-30,17,-3531,-1405,-1293
115,-10,-108,2575,1248,1452
97,-47,66,321,519,646
86,-39,90,-98,204,-25
125,-44,66,213,430,-66
-116,-58,88,67,257,-200
-96,-69,69,187,388,35
-103,-80,89,-165,-89,-118
-90,-66,80,68,-9,97
-101,-61,89,-159,-81,-11
-100,-56,99,-564,-147,-207
121,-59,41,-709,2651,-3885
-11,28,115,-254,2513,-6098
-110,107,-93,-6079,838,-11192
-109,-56,16,-4023,1313,-10905
-29,-78,-75,-16443,-2239,-14730
83,90,-52,-15045,-656,-10361
-81,-61,-1,21414,1701,9367
-98,12,-71,13187,-1677,3727
-7,-79,-48,-29837,20037,-31397
122,-116,66,-26740,-7200,-28163
77,-99,-84,10310,6126,-358
-53,-24,54,-5051,-318,-3852
12,100,-29,-9688,-6500,-869
-41,87,-49,5986,-2371,6920
-49,-76,-103,10217,1681,10584
86,27,90,-6259,-2116,1019
-16,57,-103,-4692,-2698,469
-9,-114,-6,7818,-80,6802
-104,-79,75,-1498,-3248,1686
-6,-110,-96,-1945,-3850,693
121,-118,-51,5354,-679,4443
68,87,127,-329,-2153,1330
80,78,73,-554,-3094,752
-128,-5,-66,2355,-1120,1423
86,-38,-52,2019,225,1008
44,-91,14,-1072,-324,-398
63,-73,-69,-2101,-240,-590
86,-94,115,-2129,-302,-943
-127,-68,30,739,803,280
122,-81,94,-244,261,-85
-127,-61,80,-164,348,-61
-123,-63,97,-766,-119,-461
-98,-62,67,-271,95,-309
-89,-66,68,-203,-77,-317
-90,-62,79,-600,-327,-222
-90,-53,71,-488,-329,-97
-86,-41,70,-342,-148,6
-95,-32,73,-320,-150,-53
-98,-26,75,-397,-189,-87
-96,-17,70,-357,-157,-69
-44,45,55,2464,6181,-1123
-35,109,-99,-2010,2277,-5940
47,76,-105,-4259,261,-9712
-19,-126,65,-4128,2187,-10217
-1,-67,-74,-9729,1313,-10907
9,24,-79,-17952,-859,-10452
66,-70,-114,5444,-3107,-8132
39,12,-73,16226,-3548,8707
-128,-115,-87,26149,7064,23677
-69,109,-10,24862,-2477,-19807
28,100,-61,17101,8448,710
-9,-107,73,1433,1367,-5605
-54,-24,-111,-14820,-5889,-4634
-108,-94,-50,-3203,-6075,-1418
-82,-92,-83,16906,976,13285
-86,-73,-32,5661,1507,9269
71,-96,-114,-12879,-8198,-3245
-80,-97,61,4652,-2436,2484
20,51,-70,7223,-1473,4921
-57,127,39,-4692,-5144,-1433
7,-96,53,1706,-3235,509
79,76,4,3333,-1779,2132
55,41,80,-1073,-2161,32
88,10,-105,107,-220,-423
-116,55,66,4633,2427,2219
67,0,-55,3776,1272,1718
18,-105,36,-504,225,-669
100,-112,-85,-377,1181,-256
-119,127,-116,-1410,720,-269
-108,-109,74,-754,375,88
-120,-116,85,-709,-452,-252
-105,-98,76,-349,-405,-207
-96,-91,102,-687,-421,-339
-89,-82,86,-546,-128,-254
-91,-82,85,-489,-171,-330
-78,-76,85,-360,-177,-207
-84,-73,92,-514,-259,-175
-79,-60,87,-465,-151,-38
-85,-44,81,-401,-103,-73
-86,-38,77,-353,-98,-64
37,-65,18,18,3184,-4239
5,-70,66,-1575,2706,-7675
84,-29,48,-3492,530,-10974
108,96,34,-5672,847,-11788
98,15,-107,-15351,-1971,-12503
29,41,25,-17554,-1141,-12465
70,2,78,22188,799,10217
-19,71,55,11116,-1240,7251
-84,-128,-123,31419,-9509,4300
56,-93,-63,-14353,9271,-9167
-33,-86,-46,2301,1182,-7906
58,28,-18,-21134,-5847,-11259
-52,11,-26,-10742,-1714,-8166
-42,122,107,25074,1789,18717
65,-17,127,16567,4905,13135
-63,4,-73,-20134,-8575,-6732
40,109,43,1499,-4494,1782
-8,-34,-47,9336,1369,6594
-68,97,71,394,-3878,3887
-106,-98,-59,-1142,-4959,1023
-35,-31,-123,3078,-4038,2691
-42,82,-94,-1341,-4537,-160
22,82,36,-133,-1550,-386
6,56,-82,2151,762,440
47,-23,-107,550,1314,277
94,34,-50,-474,-456,881
65,43,-18,-923,-2223,824
-17,-9,-72,-661,-1969,-917
53,-66,116,886,920,-576
97,-61,85,2318,2632,922
50,-74,-53,-736,414,-280
84,-53,126,-657,-14,187
89,-63,97,-622,-127,-95
112,-54,58,305,430,143
118,-56,96,-201,162,-109
-125,-49,93,-315,62,-107
-121,-49,95,-604,-191,-268
-113,-47,76,-355,-76,-179
-103,-43,82,-375,-98,-140
-103,-39,85,-449,-120,-148
-102,62,-64,3138,4024,-60
-2,-101,-122,1797,5019,-4994
118,-104,-48,-6135,621,-11874
-12,75,-48,-4619,3768,-10012
97,2,54,-13221,-92,-12122
41,-64,-83,-22961,-3724,-16809
14,-7,-127,26342,2262,13464
14,26,-96,9839,2608,11586
111,-14,102,-17135,-356,-5438
-111,-44,47,1880,6673,-7852
-6,20,-124,5257,325,-4958
25,-72,-93,-15350,-4050,-7512
8,-113,-10,-6387,-5244,-3688
86,-98,-105,18377,826,13289
-90,107,-120,5560,1382,7950
34,33,-93,-13046,-7204,-3643
-108,76,37,1836,-4272,2467
27,-22,100,10544,1156,8321
99,-34,84,-4108,-3664,244
-123,-57,-102,-2234,-4366,-1061
66,97,35,3984,-1160,2802
43,44,-95,468,-2634,977
98,37,72,-386,-1566,-150
107,61,28,1794,-1410,1384
103,-9,-27,2711,-351,1595
25,-29,14,1978,-149,939
26,-84,21,-1716,-538,-960
78,-68,-113,-1351,264,-400
88,-57,120,-871,76,-121
93,-49,106,-426,-2,-96
99,-47,103,-231,-88,-117
103,-43,117,-511,-119,-233
110,-36,118,-628,-165,-351
123,-32,116,-609,-48,-330
-126,-25,-128,-834,-4,-431
-120,-18,121,-535,-151,-211
-121,-3,-126,-748,-148,-212
-117,9,-127,-1015,-60,-348
-102,23,99,-277,311,-90
-102,24,111,-459,103,-209
-43,-33,-123,3962,6696,993
59,-114,-77,-43,4108,-4835
78,45,-49,250,4148,-6587
99,92,13,-1969,1076,-10625
-102,-117,-27,-10374,-359,-13864
4,-28,82,-22959,-3166,-15025
-31,-109,30,1528,2161,-5059
52,-41,78,19386,-698,9373
-111,59,-119,12212,1179,8336
-112,107,117,24587,-6845,5102
-101,-123,30,-12951,7430,-7389
-28,-77,-107,4038,1012,-3060
-91,-36,-103,-12975,-3000,-7097
107,-74,20,-7565,-3194,-3929
-95,126,-113,15502,1684,10554
-68,106,33,6660,736,5754
-68,-65,119,-9739,-3772,-1896
-60,-32,121,-2086,-4969,-180
-2,-85,-41,6096,-1956,3873
19,125,-73,5270,-3080,3886
-24,103,14,288,-4156,1025
-14,-127,-73,1662,-3714,1696
18,-10,117,223,-3991,-3
76,47,36,2750,-1447,1090
52,70,11,3837,1137,1739
-20,1,85,-324,135,-45
-7,-53,-6,-220,58,-131
37,-119,-58,-460,33,-380
64,-126,-96,-96,399,-124
79,127,-119,337,706,157
81,123,-108,-302,377,-46
97,-118,-119,-578,151,-132
110,-107,123,-777,-19,-259
121,-102,100,-411,-7,-253
-121,-98,102,-487,-36,-204
-120,-93,96,-483,-93,-167
-112,-79,89,-467,-86,-108
-117,-70,88,-374,-122,-130
-114,-64,90,-441,-171,-158
-107,-59,86,-324,-128,-102
9,-32,-65,4789,8782,1140
20,34,-73,-3742,1256,-5835
-123,42,114,-1723,2905,-5557
-28,11,-55,-2598,1581,-8438
92,-10,101,-5766,1154,-9199
-93,-70,-126,-5150,2954,-6703
-61,-83,-117,-15405,-1797,-9717
94,-43,27,4930,-4410,-4184
-23,-47,88,14918,-3639,6384
86,66,-10,-25320,9723,-31051
98,-125,44,26477,-4449,-24356
44,-38,-93,18778,7933,850
50,111,31,-7791,-3084,-9345
53,54,65,-18805,-4208,-8365
61,-18,88,8095,-3694,3683
-51,-60,-33,17362,2405,14697
-108,102,118,-3573,-2680,3817
-112,-74,19,-10723,-7139,-2978
-61,96,28,5617,-4831,2351
112,-97,-113,6565,-3064,3724
76,-125,31,-450,-4692,-106
78,107,90,2532,-2756,183
97,92,67,1699,-1179,1387
59,-22,41,-1889,-1083,-709
98,25,-57,-857,-523,206
122,31,113,2371,622,1624
46,17,-80,3239,543,1741
-18,-72,26,-271,-747,-796
57,-105,-94,112,648,-304
85,127,-91,-764,580,-216
104,-114,117,-251,678,94
108,-100,111,-422,326,5
113,-84,97,-464,364,-193
-120,-73,90,-575,364,-393
-98,-74,76,-313,303,-500
-83,-81,83,-416,82,-513
-74,-82,90,-673,-176,-468
-67,-69,81,-661,-326,-284
-75,-59,82,-700,-455,-274
-70,-41,79,-582,-349,-117
82,124,-7,4395,5898,-156
92,-27,-116,-6013,2568,-8771
-65,98,-101,212,4408,-8173
-57,22,-65,-7701,295,-13663
25,115,-10,-12619,800,-10450
-74,-80,-15,-22042,-29,-11965
42,-35,27,22263,695,8437
-68,-11,44,7918,-5629,-292
63,48,74,-26131,9565,-31421
-73,27,5,-32192,-4635,-27598
-120,120,-107,16805,8599,2546
9,-63,-37,-9740,-2838,-8797
40,76,-90,-18874,-5672,-6955
-76,-35,3,11741,-2660,5977
82,-70,-123,16078,3412,14147
-107,82,103,-9499,-3333,497
-97,31,-43,-7691,-6489,-1622
35,110,-79,9975,-1998,5922
18,-73,-76,4774,-4573,4030
-31,-63,4,-3454,-6116,-636
28,-107,-9,1215,-3533,-319
94,118,-16,3098,10,1542
71,20,56,-277,22,-61
105,-5,-79,1131,1952,513
109,-29,-76,1615,1330,1321
65,-49,-23,585,-136,835
47,-89,-55,-1266,-572,-420
88,-93,114,-611,268,-213
113,-85,93,-475,395,-8
120,-80,80,-75,380,-47
-124,-87,95,-232,21,-140
-114,-80,97,-299,-94,-167
-109,-75,107,-657,-306,-307
-104,-77,94,-574,-205,-281
-90,-66,84,-435,-12,-104
-98,-54,81,-473,-65,-193
-94,-47,74,-423,-70,-170
-91,-42,71,-371,-62,-117
-86,-31,72,-392,-159,-125
-90,-31,68,-134,-90,-89
-12,-36,-45,1349,5887,1533
123,31,-126,-2680,3224,-3751
-3,63,-94,1963,4660,-4948
22,121,-48,-6497,122,-11515
125,-76,61,-5607,2496,-8952
7,-63,46,-9204,2012,-9277
-10,59,-95,-16652,-1629,-10786
77,-77,-121,19874,-2123,3132
-124,118,26,8436,-2910,7364
11,-97,-48,-21007,1797,16249
6,-19,-119,-26700,-4182,-22587
9,-34,-34,11073,7951,2040
-94,77,24,-14762,-3779,-7450
-20,92,-62,-6794,-5778,-3026
12,-16,-107,16681,767,14205
-64,86,-42,10685,5377,10140
15,-113,-89,-12763,-8131,-4899
127,124,7,3113,-2981,419
-8,40,95,8096,-547,6928
-67,15,57,-6044,-4982,-821
60,-99,-17,-235,-2876,709
-103,-93,-57,4834,-970,4435
76,-118,35,986,-1329,2440
33,27,-37,-1024,-1891,-452
85,-2,-111,3721,6,499
51,-43,0,1682,-68,529
30,-109,8,-2753,-242,-1171
99,-63,98,-1181,1407,80
109,-66,61,-512,1341,31
117,-75,60,460,460,-112
122,-85,117,-333,-538,-572
-101,-79,111,-623,-450,-417
-100,-76,107,-1081,-338,-401
-87,-57,65,-298,147,-99
-97,-54,86,-434,-193,-243
-96,-45,86,-535,-270,-199
-91,-40,77,-400,-165,-74
-93,-27,72,-101,28,1
-94,-23,87,-281,-34,-72
-92,-22,80,-248,-14,-52
-78,11,105,1279,5214,-1531
33,91,-43,3061,5222,-6192
-32,9,-13,-7782,-922,-15598
121,99,-57,-5847,4172,-10091
-14,-111,-57,-18945,-1866,-12445
-87,-80,-92,3435,135,-8843
34,-65,35,15384,236,10932
-64,-61,18,-26393,14981,-23807
93,-25,45,32207,-2271,-28845
104,-67,62,13199,7538,1114
-109,-42,-47,6944,1237,-1811
-28,10,-123,-9212,-4095,-1695
63,28,-59,-6892,-7388,1692
50,-86,68,10797,-1041,10255
-101,122,-80,2128,-1046,6134
-122,11,90,-9681,-5891,-2399
39,-92,113,7399,399,6658
-49,28,26,2045,-1780,3270
-82,-116,-54,-4820,-6261,-1691
68,-109,-4,3359,-2071,1548
-126,60,23,2913,-1642,2055
96,35,40,1003,-1855,1236
54,32,1,680,-1272,775
17,6,-24,-170,-739,63
4,-27,-56,-1564,-350,-832
35,-19,-102,-2011,-77,-1021
56,-23,87,-317,576,-490
80,-43,80,963,677,69
78,-61,-112,-149,-89,-318
114,-55,-120,-418,297,-142
-106,-42,94,-289,673,200
-124,-38,77,-92,452,139
-119,-24,79,-305,155,34
-113,-16,75,-366,-150,-98
-109,-14,77,-379,-149,-225
-99,-15,76,-369,-159,-267
-90,-20,73,-229,-44,-169
-87,-24,77,-137,-119,-97
-92,-25,92,-350,-264,-96
-93,-22,90,-334,-240,-79
-102,-64,76,-3631,1598,-2770
43,41,-108,1086,6689,-120
108,-125,114,3790,5516,-593
87,-103,-91,-2183,3763,-4799
89,73,-110,1882,458,-11354
118,-123,-112,-11588,-404,-15361
-41,-91,-40,-29552,-985,-19151
-126,-19,-25,19409,2237,4051
-15,-59,108,7704,-6972,4512
87,103,-126,-21158,11461,-26735
-21,10,-36,19945,-3263,-32109
-11,-118,108,20453,9328,5596
20,-88,77,-1866,-2240,-6056
-123,59,-127,-11103,-4390,-2361
-74,-75,-37,-735,-3013,2493
-118,83,-22,10123,-189,12254
-124,-57,-91,2393,-1419,9684
108,-93,-6,-9328,-9599,-156
-33,48,-56,4222,-4364,538
-79,40,111,5493,-2890,2613
94,-64,-99,-2404,-3729,-910
94,-88,-20,-1387,-1841,-1039
-89,77,-126,417,-30,-505
-49,94,104,4898,1081,2182
103,108,-28,4031,736,2851
-69,-30,37,-1817,-497,-621
-4,-41,121,-687,871,-723
55,-67,102,-368,564,-490
79,-83,94,-208,181,-479
110,-92,95,-56,381,-521
-112,-90,90,-80,773,-401
-82,-87,109,-646,634,-638
-59,-101,82,-808,816,-683
-39,-95,58,-1110,430,-282
-45,-83,18,-102,45,292
-63,-69,39,77,-401,542
-73,-43,56,5,-411,518
-93,-16,82,-622,-709,243
-108,-9,79,-606,-835,-102
-113,-14,71,-368,-524,-248
-91,118,-39,3092,4007,341
102,12,-59,-724,3064,-2790
94,-109,-67,-3513,2893,-4027
47,77,61,2635,3994,-2088
-16,-107,46,-5552,-2136,-9882
41,-111,-36,-1438,1118,-9849
37,122,-6,-8097,-458,-11349
-19,-59,24,-14979,-178,-13227
27,-18,116,-8058,-3036,-9374
106,-72,58,17000,36,11695
-113,97,-119,10356,-215,5826
19,-100,85,25969,-7558,-1510
58,63,118,-20234,4735,-14542
-79,-22,110,17187,6178,2010
-14,-120,22,-10210,-3054,-5233
-43,-69,59,-13262,-7884,-992
-72,-123,-101,5890,-6425,5855
91,-85,-81,16662,2060,16390
117,14,56,-4485,-4363,4781
83,-42,-53,-10809,-11843,-3684
68,-76,-12,8702,296,1978
-126,20,-127,6762,-112,2652
-7,94,-30,-3807,-4047,-1510
-21,-114,-16,-425,-1589,-576
5,89,-87,732,272,443
17,28,-23,-1363,-603,-560
22,14,-73,433,-66,-82
43,-29,-87,617,1182,39
53,-36,-96,-323,1517,-156
64,-16,-94,-2100,3,-439
56,6,106,-2326,-1145,-665
73,5,10,227,-44,-239
106,17,34,2341,1318,1060
87,1,-119,-217,434,30
-128,16,46,947,1342,510
-111,-35,68,850,866,46
-82,-61,60,1021,862,448
-108,-65,119,-690,-241,-126
-98,-45,105,-1235,-704,-259
-79,-25,64,-867,-573,-175
-106,-6,24,1818,4882,-994
-125,72,95,-4291,7390,-4540
-12,84,80,4349,6256,-2698
120,78,9,-3369,695,-7400
-115,-35,-66,-6582,-48,-8014
51,-46,86,14037,4356,-7153
-1,-56,-52,-12936,-3450,-14915
7,10,-107,-31520,-6279,-18152
86,-85,-92,-32230,2386,7175
-103,-23,73,16937,3748,14243
79,30,-114,-27068,2592,-10416
-46,38,-112,-3717,4365,-9277
67,85,-13,12762,3351,726
-89,-66,-98,1890,1212,3943
-104,-19,59,-12958,-4370,-1293
-54,-55,-80,-5473,-6427,3242
-86,101,63,12914,-1542,10476
-126,-86,-61,-2063,-7464,5103
-92,-58,42,-3919,-12911,592
2,77,111,5368,-4414,2046
-124,39,44,2866,494,191
98,-72,64,-2294,-61,-2088
84,-65,115,2243,2576,1164
28,91,-22,-1425,-45,-431
51,36,-83,-1694,-844,-916
119,13,36,4228,479,911
103,-10,-86,2949,258,1074
33,-41,-21,-545,286,-264
58,-62,-109,-1021,1133,-570
106,-71,102,-1491,985,-554
-100,-57,32,-975,1054,-208
-102,-63,23,-198,724,-1
-111,-41,72,-1025,-388,-301
-111,-17,62,-1234,-930,-530
-79,-16,30,-262,-290,-249
-81,-27,43,70,-128,-73
-93,-33,67,99,-177,55
-101,-25,78,-205,-248,124
-116,-15,84,-443,-420,33
-115,-3,71,-363,-255,1
87,-40,-120,-3159,2423,-7823
99,46,-101,-6217,-67,-11319
22,-56,95,-13091,-817,-12521
-119,76,-26,-20086,897,-11225
-115,31,-31,3832,395,-1796
116,-99,60,16079,-3499,6077
1,-48,30,26920,8942,19958
75,113,33,28436,441,-13497
57,1,-44,8332,5935,-5523
101,93,31,-1221,430,-5616
70,104,-9,-18800,-6682,-5176
-46,-31,-47,9189,-7519,1276
0,-72,-94,18188,1338,16417
-35,-55,55,4513,759,8719
82,-25,54,-14690,-11752,-5641
15,33,82,6780,-2574,613
-67,107,72,9325,1182,4628
81,-106,74,-4096,-4163,-1223
90,-116,62,-1363,-2692,-1882
-81,-84,-105,6352,1408,3114
66,-23,127,1534,-559,912
17,-47,70,-803,-886,-973
81,-77,-108,804,1512,-196
116,-101,-103,-792,1312,-418
124,-80,100,-1039,799,-242
-119,-66,85,-849,-212,-137
-116,-64,70,-636,-375,-271
-92,-46,53,119,246,114
-100,-42,92,-562,-39,-166
-100,-31,74,-441,-118,-163
-96,-34,71,-338,-194,-185
-94,-36,83,-409,-226,-186
-87,-25,78,-316,-120,-60
-91,-25,88,-475,-221,-175
-85,-17,81,-272,-24,-61
-94,-18,81,-355,-42,-167
-80,-10,84,-462,-103,-124
-90,-9,75,-304,-114,-150
-82,-2,85,-552,-195,-144
-82,5,74,-435,-143,-150
30,-109,31,1981,8090,594
110,106,88,-875,3089,-2744
-49,-33,67,2128,4240,-2314
115,102,-53,96,1905,-7746
114,68,35,-2380,-272,-11936
-43,124,123,-9724,-791,-13004
43,-48,-116,-11426,630,-9781
-112,67,90,-8596,-1949,-8626
121,-19,-102,14302,-2230,8431
18,65,-100,12981,3389,12657
50,12,45,1293,-5549,-3843
-96,-50,56,-2560,10400,-8375
-102,30,111,6835,1743,-5997
16,-65,-60,-18355,-6158,-7812
-115,-46,-53,-9418,-8378,-7553
56,21,51,24578,4259,19325
-109,-49,7,17403,108,9342
-85,17,-118,-23699,-11767,-7528
-5,-23,-87,13595,843,7290
19,119,-72,4005,-3565,3569
-42,-105,-2,-4562,-6849,-1208
19,-102,-38,3042,-2336,-230
114,120,-14,3832,-556,1676
96,59,76,669,-1315,296
91,68,-26,1428,467,915
66,26,-48,2041,960,1111
32,-44,-21,1322,265,560
11,-68,-16,-4,27,-236
51,-102,-78,-976,376,-512
84,-109,123,-856,781,-489
112,-104,91,-521,908,-386
-114,-96,83,-338,698,-368
-99,-96,98,-790,106,-588
-79,-88,81,-800,-79,-439
-74,-83,65,-815,-270,-252
-84,-75,55,-542,-350,-114
-76,-63,48,-41,-23,133
-96,-50,78,-3,-160,131
-101,-38,96,-547,-439,-52
-98,-35,82,-470,-372,-1
23,22,-108,445,7759,-894
-65,19,59,-131,4684,-3894
-27,110,63,2875,4222,-1314
8,5,110,-752,2608,-3270
-80,5,-45,4167,146,-8153
-73,89,-17,-4509,-2409,-15103
-29,-66,32,-10092,-1205,-12557
-51,68,-14,-23101,-1136,-19411
-50,-30,61,24405,3142,14913
-64,-80,-13,3524,-7087,-2272
-61,74,59,-19652,15907,-16468
4,-105,-80,29998,-3170,29459
-71,67,70,19955,8473,5590
29,62,77,-10562,-2604,-8884
-24,-16,82,-19857,-7934,-8658
-5,-21,35,15470,-5058,7419
-61,-102,60,16407,2099,16429
-1,-118,-116,-13585,-5857,333
62,-41,41,-1984,-7681,-1570
73,-83,117,10351,789,6600
-12,-80,59,-3306,-3184,-1615
-18,-20,-74,-542,-2449,-400
50,102,61,1712,-995,1614
9,60,97,22,-1556,391
32,24,48,150,-1375,83
76,-2,-7,2292,-430,1249
18,12,37,1453,-590,761
1,-46,60,-1689,-1306,-1321
96,-32,-73,-2696,189,-1274
108,2,99,-1180,843,-340
111,17,59,658,1061,602
81,5,-110,-1210,-468,-596
111,29,87,-224,-224,-86
119,17,121,-624,-468,-274
125,27,115,-260,-153,-101
126,16,116,-155,-19,-58
125,16,121,-206,-94,-33
119,21,118,-202,-204,-22
127,25,122,-247,-246,-12
124,29,115,-77,-145,7
-12,-79,-77,2861,5824,512
-60,-35,85,2021,6169,-1802
72,110,-109,-1606,3003,-4667
-71,-66,-126,-2641,1404,-5885
-115,-119,62,-2018,1228,-8598
-11,92,31,-5794,207,-10954
-82,109,-116,-13764,51,-11761
103,7,62,-18388,-1930,-13531
-61,30,-123,21080,114,10418
-17,2,10,15296,-887,7640
-33,4,-85,-23321,-8777,11425
-59,-29,-124,-19966,8884,-13463
38,9,-69,10214,2897,-4407
121,-126,99,-19095,-4472,-10190
-18,52,-2,-19974,-5318,-9380
-26,-4,-82,22148,-2375,11626
-107,39,44,13328,1208,13087
-68,-120,-117,-661,-980,5133
-122,-8,58,-8622,-7592,-2798
51,91,103,7333,-2191,4000
94,-50,18,5410,-1912,4517
-26,112,35,-4167,-4203,-1414
45,81,110,752,-1978,104
102,-25,18,2205,-1284,1134
103,-47,12,721,-1488,548
113,-4,-22,757,-962,1034
66,18,8,1347,-500,1563
-28,-23,67,-2684,-1731,-1195
23,-61,-77,-1480,-72,-1192
116,-87,73,438,1703,3
113,-64,90,1163,1995,696
96,-68,-104,-703,576,-76
120,-42,105,-634,232,-38
123,-50,102,-857,-289,-586
-105,-46,70,-157,9,-323
-92,-62,94,-284,-127,-319
-95,-59,96,-271,-246,-179
-97,-53,112,-511,-498,-206
-101,-42,111,-449,-494,-135
-105,-37,115,-408,-352,-101
-25,-57,119,717,6337,-292
-57,-113,79,3335,5808,-10
55,-107,-80,-619,2767,-2033
90,-84,-110,130,2120,-3796
-46,79,-3,-2835,946,-9753
-72,-107,-38,-5314,1200,-11301
17,65,43,-11451,-267,-10911
-40,-26,-47,-15154,-1228,-11855
58,20,-118,15441,7,2498
5,-102,-84,11832,-5400,3136
-42,35,-112,-26427,15699,-26240
72,-22,-3,-31555,-2073,-31251
112,68,-127,14178,7257,1750
-101,5,-28,-6332,-2908,-4955
-100,-116,35,-16743,-10264,-5343
-100,91,-128,15695,-4036,3850
-10,-3,124,17384,3041,15952
-69,78,112,-2671,55,7285
72,83,9,-12839,-11474,-3817
105,-91,4,5857,-1462,1593
-22,-5,-72,8590,1386,5353
-7,38,67,-5135,-5146,-2975
26,80,-7,-1506,-3415,-2327
116,10,-128,2659,-182,486
-101,-22,-118,2632,722,1388
115,-14,-46,2323,295,1605
23,-24,-7,689,-147,267
9,-116,-40,-543,340,-1549
-123,123,115,458,2135,-431
-98,121,118,106,1876,-217
-83,-123,116,-844,1013,-272
-77,-113,93,-628,184,-97
-80,-112,86,-563,-415,-282
-63,-96,81,-217,-276,-176
-61,-90,103,-506,-335,-187
-60,-85,88,-380,-109,-133
-64,-83,92,-275,-201,-107
-66,-71,106,-520,-460,-29
-79,-61,101,-555,-390,-72
-80,-44,90,-478,-233,-26
104,31,93,-5068,2413,-9891
113,5,79,3874,6873,-3791
82,41,93,-6551,2071,-7963
-73,86,29,-14107,-9562,-3120
-89,1,-16,31350,13780,5062
38,-65,-89,-26151,-9952,-24201
56,-58,19,-17491,271,-13396
-41,-41,28,-1441,-2869,-7419
38,42,32,24068,-290,13094
-107,-72,-116,30107,10459,29153
-24,-50,-43,26364,-5022,-25396
50,-21,47,11268,7512,1512
104,-90,86,600,1054,-1928
37,-14,21,-9346,-5473,-188
46,15,-70,-1398,-5789,2289
92,62,15,14133,-557,11152
-51,102,-95,4279,-1077,8684
102,-22,57,-9361,-7668,-2961
20,-128,43,5432,-677,2406
21,-106,-93,1555,-970,1159
-24,83,75,-2204,-2692,-903
13,119,-37,949,-2357,281
29,37,-75,1243,-1674,-27
64,55,-64,292,-511,149
42,7,-99,-581,-9,-338
92,-35,64,-364,935,-186
-111,12,32,2967,1861,1919
103,-6,-75,765,-13,1454
37,-14,-47,-2253,-1373,-269
69,-13,94,-1328,-396,-588
109,-39,55,-576,409,-508
-115,-56,25,603,1260,-42
-116,-57,66,-134,682,-138
-111,-48,67,-72,90,99
-126,-45,80,-636,-547,-92
-120,-28,58,-418,-276,-113
-115,-22,62,-232,-308,-96
-117,-24,72,-354,-272,-228
-112,-20,72,-234,-172,-132
-106,-13,80,-403,-203,-112
107,-12,-63,2293,3063,-1986
94,71,113,-2279,4382,-2032
73,-101,-80,-5126,4000,-4845
-77,71,-53,2459,2079,-9441
50,117,-82,-9941,-406,-12892
-116,55,115,-18489,-486,-11718
76,19,-66,-2807,-2756,-10601
-57,-23,71,19709,-1403,12595
-94,-54,-93,25585,7233,21294
103,-24,-112,26229,-2851,-19008
70,-27,-120,15012,7632,-1261
-12,-89,90,3278,575,-4334
-128,108,-122,-14806,-4345,-5447
-64,17,50,-9479,-6862,-4012
-32,-84,110,18160,201,12725
34,32,-120,11298,1988,11817
97,47,-96,-12530,-6830,-820
-57,-41,84,-1568,-4103,-254
60,48,22,8412,-1132,5192
30,-82,-58,-1180,-4258,1512
-14,-125,44,-953,-4134,-913
57,48,-75,1777,-1492,-425
-112,-32,90,4388,1678,398
-121,75,123,5040,3479,2713
111,-24,59,-728,831,565
-66,-24,-100,402,1355,2055
105,-58,-33,-377,481,1228
68,127,8,-3606,-1936,-1648
-101,-79,64,-1866,-1039,-886
-95,-92,59,-1094,-665,-329
-100,-82,59,-676,-175,-169
-98,-65,68,-308,75,-80
-100,-57,79,-142,27,-104
-105,-56,90,-343,-97,-190
-97,-48,90,-506,-142,-196
-99,-47,83,-401,-206,-174
-98,-44,82,-362,-148,-176
-90,-39,86,-324,-51,-157
-90,-34,85,-281,4,-163
-90,-29,88,-432,-72,-259
-76,-88,2,-982,-400,-6209
-62,117,-23,-10672,769,-13418
121,32,108,-3735,1741,-7939
-16,-84,-73,-17463,-894,-11950
76,0,-50,-4714,-3065,-9765
123,91,-32,23068,-1430,12881
-33,43,63,14381,5520,16941
-58,99,19,28938,-4871,-10111
-90,-13,106,13219,11184,-3207
85,46,19,3831,-2614,-7265
-103,-70,43,-23298,-4221,-12963
-116,-128,-87,-11325,-3377,-8744
-124,42,-83,19001,-966,15635
28,-48,125,12080,-1927,12330
-126,-78,-6,2273,-1879,6638
90,89,30,-10695,-8868,-1341
-66,-99,97,4693,-4395,1739
105,1,-110,5257,-2173,2577
52,102,-50,-1168,-3132,-1825
95,-105,44,1493,-1211,537
87,104,-5,1527,-289,1347
67,27,-19,260,-474,353
61,47,-47,2227,130,1275
-11,0,19,121,-497,-47
4,-56,-39,-1129,282,-913
78,-65,125,-219,1365,-138
98,-62,101,-100,1453,-60
109,-60,101,-130,783,10
113,-61,107,-315,108,-79
120,-48,104,-682,-227,-329
-123,-44,88,-468,-178,-271
-112,-40,87,-356,-33,-254
-113,-36,94,-412,-134,-330
-103,-29,102,-577,-303,-301
-105,-31,96,-476,-278,-266
-104,-18,97,-470,-146,-171
-105,-12,91,-453,-50,-173
-104,-5,79,-239,22,-130
-104,-7,92,-352,-193,-220
-93,-6,95,-386,-187,-55
