AccX,AccY,AccZ,GyroX,GyroY,GyroZ
109,-50,55,-2041,1296,-4246
-71,-56,25,-2708,1260,-4768
-94,-68,35,-1832,1279,-5203
36,-69,34,-1680,491,-5146
-61,-74,46,-1686,457,-5185
59,98,76,-929,39,-4650
-34,102,-124,-1506,-130,-4925
88,-96,-119,647,-645,-4443
101,119,33,1088,-1451,-3459
-19,-100,74,819,-817,-1459
82,72,56,1975,-41,1841
-48,116,-15,-1635,2575,4112
-88,103,-35,-231,1707,5263
10,54,0,1812,1174,6115
-10,126,-109,1408,595,6383
119,126,-72,658,-747,6326
-111,-128,127,9,-1956,2494
-37,94,-64,115,-3520,4256
-56,-30,-56,3095,-5228,6838
-78,-29,-120,448,-843,6215
-45,116,-69,-40,-1110,5805
64,5,-112,-1808,-137,2846
74,43,-95,-1148,-2016,814
-109,-125,-47,2478,-2110,-596
96,17,-82,2806,289,-1172
69,-9,67,856,1043,-1141
33,-71,-7,-466,115,-678
39,119,0,20,2,-792
52,71,-6,5,239,-647
86,39,-26,662,195,-712
92,25,-39,572,-97,-792
82,3,-36,268,-82,-707
65,-16,-40,106,-117,-570
62,-21,-37,0,-113,-209
53,-16,-41,213,-241,56
59,9,-40,-65,-150,371
78,53,-45,-42,-215,477
92,87,-37,-65,-196,541
97,116,-40,-3,-233,487
105,-113,-39,104,-248,434
-84,45,-10,-1297,2812,-5256
-32,22,-53,-1407,2298,-6069
-57,25,-113,-2740,2209,-6100
43,5,101,-2076,1431,-4617
-79,22,48,-1612,888,-4475
71,30,-11,-810,325,-4357
22,-44,68,571,-342,-4591
-128,-54,-94,1387,-803,-4292
-97,46,-46,1418,-569,-3132
-22,-96,-40,2621,236,-514
-86,88,56,-871,2843,3017
122,-104,-57,-1943,1164,6102
-55,-92,4,683,567,6660
89,-105,43,1766,355,6719
-52,22,-63,-206,-1675,6089
-3,-19,-29,205,-3454,5582
-103,100,-32,3519,-4361,6016
87,35,33,-1892,-2325,4803
91,-99,-122,129,-2226,5656
-101,32,-28,-103,-2050,5302
91,-53,-25,-794,-1117,3789
30,-53,-85,1826,-1805,242
-87,81,-83,3554,-1819,-501
110,76,-124,1776,227,-217
17,63,49,-223,438,-250
22,11,36,-366,-26,-660
75,-77,49,276,309,-1202
83,77,20,1218,220,-1568
74,21,-6,721,281,-1568
50,-34,-23,477,-176,-766
64,-8,-24,-11,-88,-838
69,-34,-25,122,-77,-588
50,-42,-38,46,-184,-264
49,-34,-32,72,-166,122
49,8,-44,-112,-253,222
68,17,-38,-197,-251,466
73,56,-36,-474,-275,711
78,120,-31,-364,-336,658
82,-104,-24,-258,-270,600
101,-67,-24,-283,-260,351
71,-61,-81,-1923,1506,-4723
-79,-69,126,-2481,2317,-5612
105,112,110,-1460,1130,-5008
-1,-82,59,-2090,1070,-4832
-105,-73,49,-1432,300,-5036
57,120,85,-173,168,-4768
-91,33,-121,-183,-439,-4447
91,-123,-34,300,-320,-4187
-121,65,-116,1067,-460,-3254
-40,16,35,1542,320,-881
73,65,94,747,774,2548
-10,13,-59,-2641,603,5329
17,-83,72,-201,-343,5737
113,87,-26,862,-480,6668
-125,-78,-92,1722,-1281,6998
-18,54,67,440,-879,4722
-59,-84,-92,2219,-3275,5853
34,62,-106,-2045,-4811,4518
8,-69,31,1128,-3480,4650
13,119,-72,636,-1145,2982
-107,-124,-59,-45,-1209,2940
-4,115,-75,1343,-1991,1691
-105,67,-42,2116,-1144,150
117,51,-69,1213,297,-168
89,17,108,108,1050,-730
64,-78,0,274,662,-692
59,-108,-31,470,82,-658
49,-127,-46,536,-69,-541
50,114,-55,406,-129,-509
59,98,-37,468,-273,-463
85,68,-16,803,-271,-548
90,49,6,907,-302,-631
89,24,3,911,-325,-652
83,16,10,77,-160,-622
72,8,1,-363,-152,-432
59,-7,-2,-278,-116,-57
55,-4,-14,194,-79,386
66,33,-25,-14,-100,553
83,63,-31,-172,-150,966
95,113,-31,-295,26,1013
121,-28,15,108,2248,-4689
-67,-24,-100,-1367,1900,-5142
-40,-72,56,-1672,1665,-5348
93,-72,-14,-2065,873,-5348
1,-63,6,-1717,773,-5475
53,116,68,-1364,-6,-4421
-23,53,-111,-3,141,-4651
44,12,-28,1669,-169,-4257
100,-28,-95,937,137,-2944
-119,94,51,2877,410,359
115,-43,-10,-1741,1520,3916
56,3,53,-1586,-576,6231
-35,-30,8,1009,35,5847
-7,45,-36,2299,145,6636
91,66,90,1075,-905,6548
18,-7,-6,-10,-2272,3230
-22,-26,33,685,-3925,3892
68,75,1,996,-4019,5527
-46,106,-90,724,-1270,5534
119,-123,-29,1655,-779,6548
-97,30,-108,-2014,-849,5500
125,53,-106,-3945,-344,-777
100,-98,-49,5613,-2271,-1596
53,-2,123,4091,-494,-279
52,56,83,379,665,-1587
70,124,6,-654,922,-1202
29,51,-17,572,-338,-610
56,38,-8,702,-149,-657
75,48,-8,-19,-1,-878
73,-9,-25,331,-192,-736
66,-13,-21,-119,-201,-737
56,-26,-19,-161,-104,-333
56,-24,-31,67,-119,-131
71,-4,-45,164,-128,44
83,41,-58,-78,-234,89
74,44,-56,17,-333,258
68,58,-43,28,-377,515
78,69,-17,567,-373,845
78,70,-14,1476,-342,1014
86,-123,-28,792,-387,929
-88,-34,-37,-1242,2658,-4785
-36,43,-108,-3769,2686,-5658
-76,-45,-126,-1816,2319,-5111
102,41,-99,-1345,1871,-5397
46,66,-100,-1100,1515,-5588
-83,-23,-90,-464,834,-5291
76,31,-91,379,1081,-5277
124,-75,-60,1357,560,-4044
-102,-79,48,1904,945,-2059
-21,104,77,2406,130,3254
127,-32,-123,-3517,-757,7930
49,9,-3,3472,-506,8043
-35,-81,6,3510,1314,6996
71,108,-63,-3352,-2510,5392
-4,-128,-26,1635,-4114,2941
56,108,114,1914,-3390,5812
-52,47,69,1873,-2904,7028
101,-37,-48,-4,-1655,7616
59,112,0,-1265,-1978,4997
-92,-64,-14,-452,-1575,-1060
-99,111,7,3957,-2134,-887
53,69,-84,2061,494,-748
38,47,86,-77,1063,-958
39,-40,1,-473,571,-927
41,-108,-14,37,-115,-485
64,-105,0,709,143,-822
108,108,-21,1010,175,-1148
104,64,-37,1075,-224,-1290
92,21,-30,884,-247,-1223
73,-4,-30,148,-305,-913
48,-18,-24,-178,-425,-418
34,-16,-27,-168,-426,0
37,18,-24,-618,-442,332
47,47,-27,-544,-389,480
48,85,-35,-411,-544,659
59,120,-35,-491,-464,799
65,-96,-37,-588,-488,773
88,-63,-18,-548,-264,840
101,-36,-22,-469,-224,790
-122,-4,-13,-255,-75,686
-107,115,46,-1730,802,-4981
-20,107,71,-2154,2319,-5718
126,83,91,-976,1117,-5550
-12,127,-123,-1965,1095,-5129
-125,-64,-108,-1290,92,-5061
3,83,-46,625,-249,-4384
114,-3,-31,1153,-1347,-3973
82,35,-81,-853,-1068,-3932
25,29,58,1024,511,-2878
-127,66,89,1382,395,-2263
-110,-84,120,2326,1073,572
-54,82,105,1637,2521,3162
-12,-107,108,-3328,1958,5012
-35,-44,-99,751,-51,7130
-19,52,90,3480,-1483,8137
-51,113,-122,-440,342,3875
81,40,-6,3514,-1671,5705
28,51,121,-86,-1602,6400
-83,48,-112,-5875,65,6468
86,-119,48,-745,-2442,5006
20,-118,-117,3939,-4141,-1838
-13,79,-44,4390,-1743,265
-18,-111,-63,320,1502,1465
111,100,36,592,-78,2203
83,-126,34,1871,-1289,2421
-108,86,96,-85,-18,678
103,-20,67,1252,-93,-771
55,91,60,2827,-624,-895
76,50,73,1567,48,-1074
80,13,55,321,164,-672
61,-21,47,253,-352,-690
53,-35,42,756,-557,-694
76,-39,55,349,130,-593
72,-55,35,-166,118,-363
42,-74,8,-198,-198,90
36,-49,-1,-194,-243,364
57,-26,-14,-144,-204,432
60,-12,-39,733,-1503,-976
112,-14,8,2003,-980,-491
-121,79,62,-236,84,813
-120,123,-58,-1110,2245,-5548
110,-122,-94,-1329,943,-5892
38,-120,-68,-2185,1010,-5637
119,-9,117,-426,553,-4055
-42,80,57,-300,-905,-3484
8,88,-29,-967,-800,-4739
-23,-98,55,256,-328,-4978
72,-86,101,-248,-607,-4626
-118,-114,-20,1081,247,-3505
-40,14,8,2662,630,-572
-100,49,41,-1937,1742,3475
81,83,91,-1280,211,6788
-100,-119,-7,867,523,6743
23,69,115,1322,-126,6901
73,-4,-5,-325,-774,6885
75,9,-23,-239,-4491,5845
-8,127,-99,-340,-4435,5351
-66,-30,-86,-767,-2432,5776
127,-76,29,4,-1843,3847
-55,94,79,-2226,-1323,2076
-46,-83,48,1069,-2008,383
-71,49,-15,2556,-443,-321
-115,39,-104,1347,184,-471
43,-100,44,2759,-352,327
25,-52,8,1911,-197,243
46,-55,9,906,-173,73
77,100,10,2614,-61,-31
101,-126,-7,1377,-331,-447
-127,124,22,-560,-77,-1113
117,49,25,-369,-69,-1143
108,-13,24,357,44,-1096
95,-27,9,680,-128,-904
107,-31,2,253,3,-662
95,-35,-17,-84,-180,-217
78,-26,-9,-144,-240,185
89,1,-12,-23,-48,459
107,14,-18,46,-269,791
118,54,-9,-105,-154,948
122,93,-26,119,-227,924
-120,116,-16,-17,-214,987
86,-114,-92,591,2344,-6826
127,-1,1,-2465,-188,-6272
28,-105,88,-2376,380,-5317
-74,112,95,-1393,-134,-4364
-76,32,81,-1647,-778,-4990
-83,19,-62,-860,-541,-5333
51,86,-46,-571,-534,-5287
97,-83,23,634,-160,-4849
-80,29,-83,1637,106,-2689
-8,-42,41,2883,653,1259
22,-55,101,-2516,1700,4911
-15,18,-116,-447,1438,6446
40,-77,-23,2638,1738,7120
-61,-120,64,126,940,6032
-126,113,-7,480,-1537,4641
-1,38,46,1838,-2558,6559
31,-125,-31,696,-1435,5397
51,15,70,-24,-661,5983
92,-100,124,-846,46,4333
-25,125,50,-826,-148,3007
-26,-47,102,-2221,-2273,1760
-64,-123,-70,-737,-1778,1385
-115,114,-49,1344,-601,759
101,120,-103,2339,-185,-857
126,41,107,1617,534,-1936
-118,112,42,1316,804,-2148
111,22,-12,954,464,-1694
84,-10,-32,185,98,-949
71,-16,-52,-63,-237,-557
87,-1,-42,-149,-248,-464
86,-13,-29,51,-216,-111
81,0,-32,129,-336,95
94,33,-24,-352,-255,205
110,65,-16,-458,-284,330
106,83,-8,-176,-315,445
108,107,-8,190,-278,509
112,-122,-8,27,-273,486
120,-115,-5,154,-172,522
-126,-94,-14,209,-199,395
-117,-86,-19,209,-147,242
100,110,-54,-882,1602,-5071
98,80,-119,-1597,957,-5662
28,104,-123,-3016,989,-4859
-100,77,113,-1409,644,-4681
-9,-101,126,-1471,-152,-3720
46,-111,-44,-1815,186,-4793
24,27,38,493,318,-5322
68,-37,-1,-451,145,-4348
-64,-112,53,580,173,-3278
-2,-52,-52,2292,497,-1137
-123,55,-44,875,650,2411
-3,-126,-71,-2465,-116,5793
52,115,56,883,-19,6515
-57,107,-76,2366,52,7107
-36,126,-119,863,-765,6203
-7,-16,82,116,-1792,4364
-47,19,63,1253,-3967,3280
118,-62,20,-335,-2486,4268
117,-46,-47,366,-1788,4127
-56,-19,-43,710,-860,4333
-93,103,-82,291,-1059,3278
10,-119,103,815,-1178,1340
-99,54,115,1520,-833,333
127,-42,94,2104,-440,532
102,-46,43,1269,-94,330
86,-31,21,77,35,-161
94,-75,5,-14,75,-385
98,-110,12,-115,-105,-607
96,126,26,65,121,-900
99,39,5,892,62,-950
91,15,-15,888,-186,-927
93,-17,-13,491,-182,-704
96,-32,-10,-116,-188,-358
101,-29,-7,-195,-236,-87
104,-4,-8,-69,-150,66
105,26,-21,-35,-208,261
107,60,-26,-100,-232,364
113,92,-22,-47,-238,503
118,122,-19,-139,-262,555
-104,-115,-14,-28,-184,466
98,-121,-77,-1497,1354,-4202
-114,117,86,-870,959,-4720
-83,-55,92,-1495,617,-6163
74,-78,107,-2499,259,-5732
43,-79,109,-2192,418,-6070
112,-3,-87,-162,217,-4785
-57,17,-61,2016,1071,-3624
-82,107,4,1878,601,-3481
-31,-96,-113,1158,693,-1131
16,14,35,873,-497,1626
101,-29,64,-2341,1088,3365
75,60,95,-431,114,4958
-66,-68,-44,1533,-598,7165
119,-59,-26,4104,-444,6292
-49,104,-53,-2377,1264,1780
50,-65,59,-624,-2844,3156
-14,66,-83,0,-2225,4279
41,-116,40,-3426,-1995,4742
-65,-83,110,-3734,-1658,5220
33,-62,126,-537,-2785,4623
12,122,-106,1737,-2875,2394
124,-106,104,3113,-2089,141
-84,111,18,2833,-1262,410
100,44,80,2518,-1331,689
96,-21,-52,1970,-643,-322
-122,-103,-9,189,470,-548
102,98,-121,277,449,-872
93,65,46,589,298,-1211
115,36,-32,349,401,-1474
-128,-6,-67,348,171,-1029
96,-11,-90,280,-430,-312
45,-12,-19,751,-979,49
67,-85,-25,2974,-97,669
65,-6,-49,1355,-760,776
-126,82,6,-1996,-337,678
-101,119,20,-2722,9,225
121,72,4,-134,-237,17
112,54,3,1508,-361,-282
127,84,-5,588,-136,-335
126,93,-21,-635,9,-279
103,20,0,-1787,2054,-5323
4,105,-33,-4042,3317,-7155
25,106,-85,-2047,1928,-6451
15,-17,-24,-188,1555,-4996
-99,-8,-125,-669,920,-5142
59,-83,79,-528,351,-5067
-93,96,97,1189,-20,-4622
-27,45,-53,1331,-846,-3394
37,95,-4,854,1695,-306
-81,61,-60,973,441,4054
36,-40,-85,-3321,5,5812
-80,105,21,1845,199,6664
21,90,-70,2427,309,7739
38,-125,90,-1727,-307,4604
63,-61,-38,824,-4117,3503
-47,-107,-125,1664,-3237,5771
18,-38,-102,880,-1824,5544
118,-119,-64,615,-1697,5463
24,-101,-35,-405,-1003,2643
33,1,-94,2390,-1326,1930
-87,-46,123,3022,-1338,819
67,-66,102,1599,-691,-369
58,22,-111,802,296,-1121
112,-105,127,124,777,-1286
94,37,56,44,70,-1010
92,21,36,94,-62,-850
101,13,5,-159,-28,-758
104,-7,-30,-113,25,-498
102,-8,-42,-28,-117,-261
98,0,-57,-45,-306,-16
96,14,-41,-110,-338,234
98,34,-39,-170,-393,387
102,64,-18,-325,-432,612
106,81,-15,-119,-456,729
113,112,4,-28,-430,760
121,-120,5,-8,-391,625
-120,-104,10,-34,-217,441
-116,-90,4,31,-162,237
-118,-90,-5,192,-67,62
-119,-96,-23,283,-60,-29
107,60,-55,-747,1287,-5122
-39,-41,-92,-1443,1771,-6070
-73,112,16,-1842,560,-5848
-112,87,-28,-3189,143,-4793
-25,-112,0,-3220,380,-4647
73,-109,81,-3863,1052,-4938
121,64,-124,-381,738,-5885
-35,-102,-95,-256,704,-5320
30,83,-75,342,-148,-3715
114,50,102,715,651,-1441
112,30,23,2568,-12,2888
14,64,51,-3354,1342,5567
7,46,58,1071,205,6623
-70,107,96,3189,321,6530
-118,-51,-43,1300,-578,4835
67,-120,112,870,-2711,4541
116,-31,63,-1272,-3730,4640
115,123,64,-10,-3786,5695
87,91,-49,914,-1882,6641
75,-9,0,1060,-1823,6497
-68,-87,-67,267,-1954,3484
36,-91,-60,746,-1988,-1276
60,-22,-78,4344,-1355,-397
83,39,111,2146,663,-199
81,6,20,670,236,-473
90,-70,11,-4,-346,-784
80,102,33,662,-93,-1195
44,19,20,1125,-114,-955
46,-6,10,333,-93,-596
73,-6,-1,-281,-6,-297
66,11,-12,-568,-392,-255
76,37,20,-893,-24,-53
78,58,11,-283,94,-211
87,23,-30,1026,-210,-131
82,36,-31,459,-340,6
77,66,-21,-310,-94,224
96,79,-30,-51,-196,133
102,95,-24,440,-366,147
109,127,-10,121,-189,75
98,124,-8,152,-116,154
76,-117,-60,262,2224,-5100
-126,121,-100,-2149,2576,-5046
100,-102,-116,-1912,1819,-5357
-2,-98,-103,-1396,1583,-4705
-97,7,-117,-1700,1315,-4682
-13,-57,-109,-2075,966,-5784
117,-84,-109,195,462,-5685
-95,82,-114,777,228,-5221
-53,-49,61,532,171,-3687
25,71,-61,3129,2057,-810
-96,53,7,8,904,3922
104,8,-50,-3929,653,6657
-97,125,-15,2299,310,6749
52,107,87,3091,297,6883
-12,-94,66,-656,-291,5910
108,105,-25,1481,-2611,4142
-78,-117,100,530,-3304,5918
-55,24,39,-1546,-2603,5222
63,-19,-96,499,-2030,5033
108,-11,-120,2610,-484,4072
-127,109,30,2218,-927,2178
-62,-20,95,2439,-1440,339
-86,-26,-96,858,-152,1899
75,41,82,-889,611,876
67,-57,22,1389,-313,595
73,-34,3,1290,-52,-130
70,-53,-15,579,-101,-731
73,-126,-18,732,-281,-982
106,74,0,300,-294,-1175
99,53,7,-113,-373,-1333
100,1,21,47,-328,-1407
90,-31,31,146,-449,-1191
71,-50,31,59,-439,-800
68,-44,22,-132,-315,-525
103,-54,18,-397,-330,-21
77,44,16,-1174,-262,-62
41,36,-1,43,76,-286
126,-21,-19,1275,-169,425
115,1,-49,3098,-314,-369
98,27,-11,5225,450,-1686
127,56,-113,-1199,2975,-3567
50,-45,-108,1096,4331,-4993
-115,87,57,-2948,4044,-5714
-96,66,-127,-2579,1749,-5374
-89,68,-52,-6172,1935,-6431
-86,84,69,-1929,1041,-6305
-84,-88,-24,-1311,1398,-6328
-54,18,65,-28,1025,-5291
91,-96,-51,1734,813,-3436
64,38,-33,1594,1368,269
4,-122,-60,-1284,560,6186
-6,-112,107,-1071,358,6924
124,-40,104,3733,438,7223
124,-60,83,2925,-115,7687
100,-86,-15,1536,-2941,7145
110,4,-57,-316,-3464,3923
45,-127,22,-333,-3685,3982
-26,-74,-88,285,-3362,4776
43,53,-13,-782,-2587,4884
73,-110,17,777,-1262,3957
47,43,16,1080,-1870,831
-83,-106,-8,2758,-741,-818
100,27,-79,2880,63,-624
59,28,87,-287,1093,-897
56,-20,28,-1985,1085,-585
28,112,-15,34,133,-178
33,87,-4,849,-149,297
80,-113,3,665,360,-142
84,104,-49,1154,175,-449
78,84,-52,710,535,-882
96,53,-47,968,808,-890
111,16,-59,902,-109,-540
92,23,-54,149,-287,-128
90,43,-24,-141,-490,491
123,86,0,90,-348,371
-126,122,1,217,-346,231
110,-123,8,-50,-396,152
101,-127,9,120,-56,149
122,-83,-7,-663,34,-44
-122,-112,-12,83,-250,126
-27,76,-105,-2380,2149,-3765
108,107,49,-339,1764,-4898
-52,67,-48,-2443,2671,-5401
-85,-93,76,-979,1930,-5000
-116,44,38,-96,1432,-4533
-74,-50,2,-316,583,-7303
55,91,81,-2184,-530,-6355
-128,64,-36,437,-783,-5482
-117,75,-63,1598,-1489,-4173
82,-115,121,1443,179,-1145
114,48,-123,98,811,3297
-4,-52,18,-340,1834,4359
-33,-107,66,613,1133,5277
-4,-24,-108,3088,619,6041
107,77,81,-1993,385,3456
-67,-125,74,-1515,-530,1435
115,-37,79,2891,-2393,5224
34,-43,-118,2700,-2786,7609
-52,2,21,-1736,-2226,6737
65,-85,74,578,-1948,5471
119,48,-112,-847,-874,5042
-85,-46,-37,-4722,-1004,2442
-33,-59,7,1239,-1121,-496
118,-21,-59,4732,-174,-621
122,27,41,2676,271,-1455
80,-18,5,100,-61,-1070
67,-128,-5,182,-39,-1464
107,12,-18,479,350,-1641
111,-39,-36,507,337,-899
68,-46,-18,683,-662,95
69,-11,14,567,10,322
87,-3,-19,759,59,210
62,27,-44,-319,-427,379
69,61,-20,-938,58,378
79,36,-46,73,-41,442
114,13,-54,837,-321,984
121,74,-52,339,-336,1177
-126,-114,-28,969,-1081,1741
-105,-34,12,893,-404,222
-112,-41,-1,190,309,-817
-128,-48,62,-1784,2246,-3941
75,-31,10,-6658,3503,-6658
-122,-61,-37,-3053,1931,-5933
104,-27,123,-1251,2736,-7006
92,-106,83,-291,2637,-6418
-108,-75,22,-293,1595,-5332
-61,-125,39,2102,-66,-5144
18,87,86,483,340,-2705
-4,36,-30,1371,1782,2083
65,-11,-97,-374,272,5970
36,75,6,3,-145,7255
-54,-70,-27,4413,710,7946
38,55,42,2253,-780,8187
-80,-67,-21,-4960,-4999,3916
14,70,102,-216,-4348,2310
6,-85,-79,788,-3723,4675
120,-45,-78,2625,-1491,3534
-41,21,108,2281,-1657,3780
-86,78,64,2203,-1134,2509
-20,-123,44,1567,-1235,1690
-127,79,91,923,-712,-289
76,-88,77,2091,-246,-249
54,-87,35,1259,10,-42
-10,-54,-4,-179,-94,402
-6,-22,3,-1104,142,300
32,-23,7,-567,452,-189
106,-94,-20,1191,283,-772
-104,123,-36,1380,-44,-1049
67,104,-43,979,-584,-1722
98,21,4,594,-191,-1671
106,-19,24,-182,96,-1240
63,-73,-21,423,-76,-669
50,-54,-24,315,-218,-364
69,-44,-34,-150,41,82
62,-42,-56,78,-198,572
67,-12,-59,96,-200,877
82,32,-62,-68,-203,1232
95,70,-60,-146,-260,1401
118,107,-49,15,-210,1383
-114,-101,-47,238,-219,1188
-86,-97,-28,-1491,1818,-5159
127,-82,-95,-1951,1335,-5167
117,57,49,-2746,770,-5490
-127,104,-66,-2155,-100,-5827
-93,-64,23,-751,-817,-4832
-93,100,-16,-40,-566,-4375
63,114,124,839,-282,-4924
-87,-8,9,657,-454,-3498
82,-43,82,2298,1193,-1020
-46,48,-39,551,1959,2813
22,-29,69,-3570,-545,6506
99,121,-6,1592,18,6951
-16,72,7,2597,468,6746
-64,64,81,3230,-1767,7979
-91,-32,-7,540,-2160,8175
-111,-53,107,-639,-1136,8339
-32,-16,126,-2925,-3530,6154
47,17,-22,-3640,357,-2705
-77,-122,21,7307,-4807,2132
105,5,0,3090,829,1862
-115,45,41,1404,-482,1551
63,10,69,1051,-806,1143
93,76,66,-958,575,230
67,-32,13,454,-495,-440
37,-69,42,1114,-368,-480
60,-97,37,985,38,-1500
80,64,16,1310,-482,-1419
114,-3,37,1054,-166,-1659
99,-45,39,485,-106,-1675
94,-98,38,326,-8,-1327
82,-126,19,102,-45,-855
58,119,4,208,-150,-345
42,99,-13,670,-404,545
64,-90,-11,16,-133,1056
82,-37,-18,-198,-79,1126
91,11,-27,-211,-142,1143
98,32,-33,104,-200,1003
91,41,-46,772,-807,833
110,90,-8,424,-245,829
106,119,-20,-71,79,401
11,122,-56,-1223,1493,-4758
103,-75,79,-1492,1457,-4908
-10,120,37,-1819,868,-5350
53,-82,-18,-3324,1626,-6266
-45,125,-126,-2939,874,-6287
123,-81,117,-3226,308,-6420
-45,39,-30,-2081,394,-5565
-24,90,106,652,472,-5247
43,68,-86,2256,-195,-4286
98,-1,-43,591,368,-1535
-72,48,66,2833,504,1658
-23,-27,33,-2312,1688,4501
-64,-31,47,200,-328,6740
31,-77,-117,3080,440,6625
-30,-65,40,1491,-2230,7067
47,-54,115,-3058,-2468,2268
-114,-121,5,945,-5280,4008
-10,75,63,957,-4297,5368
-45,77,-61,1234,-2714,5708
61,-87,14,1877,-1113,6107
119,127,-48,-1354,-2389,3942
9,-66,-17,-849,-1375,-2007
60,113,-41,5824,-1063,-887
96,-3,106,2990,1122,-76
59,-12,6,1076,404,-349
30,-89,-13,656,-598,36
57,-98,25,125,12,-344
43,112,-2,577,76,-400
40,96,-20,607,-255,-487
43,89,-8,235,-223,-502
42,56,-5,237,-164,-371
40,45,-14,315,-263,-181
40,56,-14,148,-310,-94
43,58,-11,125,-279,-155
61,42,-6,149,-290,-14
61,57,-6,-84,-195,57
56,49,-17,112,-249,275
70,75,-14,32,-214,439
72,102,-23,24,-154,388
75,119,-35,-128,-207,378
3,-85,127,-2234,2767,-5010
21,-95,42,-2232,2281,-5173
-54,-34,-24,-2375,1845,-5380
93,-20,-35,-1908,1276,-6000
-93,-97,35,-1183,213,-5438
-32,-27,-90,-738,339,-5564
76,-39,-13,1102,522,-4882
-66,-10,126,836,261,-3684
-8,-110,3,2149,1188,-846
-85,79,-35,1817,1231,2765
95,-40,114,-3052,782,5829
101,80,-56,1455,-546,7553
-38,-45,58,3905,822,7550
83,-24,30,2060,-1760,6575
-115,42,-95,-1173,-3980,4004
-109,95,106,-1190,-4404,3406
65,-91,73,192,-3909,4923
-71,-89,-68,1389,-1698,4293
-20,68,36,-290,-1797,4458
-67,-69,80,-1246,-1629,2746
68,-39,84,101,-932,763
-120,-115,-25,1960,657,-892
83,31,98,3171,803,-1502
90,-87,-17,3390,566,-1132
47,121,-81,2105,-163,-477
34,122,-66,259,-452,-242
35,89,-32,-229,-241,-92
51,86,-17,-93,-263,-117
79,76,-8,229,-354,-254
84,68,0,365,-411,-365
82,58,3,218,-329,-368
72,42,-4,162,-297,-244
66,41,-13,102,-267,-78
60,44,-22,92,-291,130
65,51,-20,213,-232,283
80,67,-24,134,-211,391
94,87,-31,133,-197,420
98,96,-37,275,-159,388
96,109,-43,269,-215,348
99,108,-45,477,-153,343
-10,-98,-79,-1029,2910,-3103
104,-34,-63,-563,2599,-3718
-11,-35,92,-1026,3003,-5878
-94,103,-48,-3645,1370,-6078
76,15,35,-2121,1571,-5873
-65,21,83,-2182,1277,-5989
46,-52,77,-860,1597,-6099
-111,63,-126,-305,840,-5447
-66,-22,-95,1806,-21,-4593
-104,119,121,267,-1258,-2242
-80,110,72,2760,120,1080
-88,-111,58,-907,1351,5538
10,21,82,-429,922,6739
64,-51,126,2763,426,6964
-110,-47,99,1852,-992,7116
9,56,98,-12,-3566,4342
73,62,9,166,-3277,4239
-45,-95,-72,996,-3157,4609
25,121,42,619,-2783,5631
-94,-33,-47,-125,-2481,5731
120,-39,-30,-401,-821,3422
107,11,-48,738,-2110,432
-86,-118,-38,2760,-1760,-237
65,61,-80,2886,-106,-564
73,21,94,1243,864,-977
77,-70,4,64,569,-1001
78,-104,-22,-473,180,-990
80,113,-30,-192,86,-1071
83,70,-40,305,82,-1096
83,45,-51,531,-78,-1002
89,20,-42,387,-254,-792
94,-15,-34,921,-223,-388
77,-14,-42,948,-399,-259
75,4,-15,102,-377,-94
77,0,9,-41,-178,44
57,-5,-8,447,7,212
81,-21,-37,622,-362,589
88,4,-19,-82,-301,1116
84,83,-15,-453,-66,1290
104,121,-15,-156,-55,1164
-121,83,7,-2445,2527,-4060
85,-113,-127,-5058,3777,-4073
-74,-6,21,-1452,5173,-3964
0,125,60,-697,2800,-5074
112,-101,-12,-1491,1920,-5295
-109,15,8,-208,891,-4975
-31,-123,-72,-68,364,-5002
-121,-90,45,446,841,-5145
5,50,-26,59,1556,-4050
45,-70,-52,3564,1140,-946
-90,-80,72,6,807,2529
79,-108,-61,-1803,-330,5664
80,-123,-100,677,-1347,6625
113,126,69,280,-316,6469
90,-43,78,-1718,-3260,6528
-103,-50,118,-1398,-5225,1578
40,-44,-3,4109,-5080,2365
-128,-59,-117,-1015,-4904,2606
120,-127,-66,1884,-4812,4355
60,116,49,3849,-3432,5902
89,-84,-41,2106,-1483,3209
75,-5,-54,1415,-3443,672
-111,120,55,1732,-1864,-161
78,45,5,2257,683,-185
17,-34,78,2670,698,-461
14,-32,17,1450,21,-656
59,-57,9,-157,286,-1201
80,94,-18,-273,196,-1335
58,22,-22,830,-194,-1077
51,0,-16,753,-367,-852
49,5,-3,50,-269,-593
45,-8,0,99,-286,-460
50,-10,1,-48,-336,-288
53,-3,1,-296,-318,-164
50,4,10,-395,-256,38
47,11,4,-34,-197,330
39,41,-9,227,-294,510
51,65,-13,157,-165,654
69,92,-36,246,-149,623
93,105,-31,70,-268,752
61,69,-56,-1971,1898,-4640
-127,-45,-39,-5075,1263,-4995
-41,11,-102,-2859,2158,-5952
-12,44,-88,-3015,2337,-6427
-119,42,-72,-1635,853,-6627
-38,96,17,-157,265,-6051
-114,-94,-83,1499,-473,-5074
-34,83,-103,760,306,-2315
-31,62,-17,3597,536,759
-101,-96,-50,-2526,446,5301
-54,-29,56,320,-714,7195
-127,-29,-101,3233,588,7828
25,91,59,189,-1627,5724
83,6,81,-621,-3592,3732
-50,-29,31,2320,-5163,5290
34,-38,102,-344,-2333,5630
-103,16,-82,265,-3046,5823
123,-50,-52,689,-1309,3346
95,-11,-76,1818,-2323,296
-98,34,-81,3527,-1462,-690
-106,-6,113,1852,877,-347
75,-47,10,843,431,-17
-10,-77,-42,272,-754,949
30,-26,4,227,-135,537
72,-9,0,440,6,-76
93,-53,-11,1175,-257,-800
110,-94,0,1071,-143,-1321
-117,38,-5,1509,-162,-1732
93,9,5,572,-538,-1431
88,10,15,-777,-59,-1191
88,-37,-19,-608,-27,-919
77,-37,-31,-240,-182,-641
84,-20,-51,-350,-113,-391
76,-22,-62,-252,-248,58
70,-4,-66,-106,-297,469
74,41,-63,-116,-354,801
98,51,-39,128,-267,1116
-124,81,-47,568,-362,1284
121,122,-43,124,-552,1444
112,-52,-8,-669,-161,1305
-102,-19,-36,-994,2948,-3627
-91,-4,-116,-1209,2865,-4651
32,-85,66,-2708,3234,-6613
126,51,-19,-1816,734,-5102
58,120,15,-2144,858,-5593
-53,-27,103,-433,497,-5823
1,-112,-51,891,512,-5038
38,87,64,1225,-41,-3698
26,-91,34,2117,589,-1082
-128,114,-84,1262,746,3235
-1,98,112,-3253,253,5351
71,116,-16,1345,-902,6312
-75,66,-119,3238,-400,7171
-71,-97,32,576,-1499,3923
-25,99,12,1797,-2976,4225
104,-6,62,673,-3842,4515
122,-47,-19,26,-3585,5351
-19,-6,102,64,-3169,5216
99,-5,98,2830,-2482,4392
22,-30,-123,961,-1910,2509
11,-18,-124,735,-668,71
-123,63,-119,1669,-627,-572
61,1,-119,792,79,-449
-11,-70,55,359,-71,-14
-4,-30,27,-672,209,-78
34,-27,12,-712,401,-186
43,-96,-1,1282,-238,-209
67,120,6,2059,-320,-1269
97,106,-2,76,132,-1216
85,27,-19,-210,204,-1188
67,-15,-33,-72,-46,-641
48,-1,-43,-123,91,-537
42,9,-49,-65,3,-260
61,15,-58,7,126,31
69,21,-80,183,-399,249
77,59,-85,-318,-534,252
69,95,-60,-888,-406,941
64,84,-51,406,-633,1106
91,-115,-17,603,-600,1246
98,-106,-19,1718,-649,968
36,-127,109,-2439,2533,-3114
-94,-121,98,-2871,3317,-3671
43,-15,-106,-2106,4416,-4072
92,20,-53,-1425,3115,-5301
-37,-54,-65,-664,1888,-4648
13,-60,-3,-1538,926,-4392
-53,-9,34,-1601,1324,-5027
-125,-43,89,-1990,1054,-4754
-4,-47,-83,107,1120,-5395
28,90,2,2057,-225,-3834
-61,-93,33,1520,-321,-1037
32,-114,-4,1901,699,3348
-9,-87,-53,-3354,1370,5610
93,-82,-28,1718,-376,6368
-37,57,-127,4060,-561,7121
-50,-101,-74,-2205,753,2791
-14,-115,102,3737,-2985,2045
26,112,-12,710,-4304,5317
71,53,-44,426,-4093,6318
48,72,101,2103,-3771,6856
68,30,6,742,-1,5128
118,-100,96,812,-177,3637
26,20,-123,939,-3104,888
89,87,-75,2799,-1932,-1608
91,-42,-107,2571,1117,-1100
42,-109,14,1042,1335,-1128
45,107,-33,-267,153,-800
58,75,-34,-673,-302,-789
62,36,-11,-201,6,-809
57,8,-24,498,-79,-641
53,3,-33,433,-497,-537
63,9,5,63,-285,-509
75,-7,9,59,-200,-380
67,-18,3,212,-294,-144
61,-3,5,-18,-278,-45
65,5,0,-63,-68,138
62,12,-20,96,-182,342
72,32,-28,88,-142,475
84,55,-44,151,-181,596
91,78,-47,51,-261,634
-116,-79,117,-3120,4422,-3710
-50,103,-1,-668,3364,-3722
-74,78,-82,278,2551,-3864
-99,-4,-125,-2531,2380,-4470
-91,28,115,-1840,2411,-4783
38,-49,114,-434,1844,-4945
-77,-77,95,-727,1661,-4282
-3,75,76,1511,-613,-4515
45,-112,-49,2590,-1848,-5892
125,75,-71,762,-282,-4036
-101,-48,-19,1064,-332,-331
-90,71,-27,-524,3063,1179
7,12,-108,-1256,1544,3768
-47,-114,12,-177,-193,6159
3,-45,-63,1691,142,6847
-95,102,0,2065,849,7578
42,-104,125,-2004,-1926,4475
119,-86,-10,-521,-7063,5361
95,33,-13,252,-4587,4985
-78,-1,-116,1328,-1169,5520
-1,-14,122,560,-1253,5106
47,-107,102,851,-3139,2980
74,113,-93,2208,-2391,721
-28,114,-90,1246,-159,378
92,-128,118,185,-76,377
28,56,100,1557,-777,180
100,77,82,798,628,-1139
117,-28,9,368,500,-1953
105,94,-1,1292,-77,-2255
100,-13,9,1587,-246,-2077
79,-104,22,1363,-357,-1522
67,-96,19,254,-186,-891
80,-62,10,-887,-112,-835
95,-71,-9,-840,-53,-577
87,-63,-16,-302,-81,-217
76,-47,-41,201,-192,101
81,-27,-49,162,-44,236
74,16,-32,155,-61,540
83,45,-42,94,-257,1074
100,83,-40,-67,-395,1167
122,-36,-23,1185,2821,-4110
15,10,-33,-66,3331,-5135
88,-88,21,-1645,1744,-5956
-60,13,-39,-2271,2162,-7893
86,-16,88,-2012,-112,-6502
123,-42,-42,-1855,-476,-6431
-27,-9,99,195,310,-5829
-126,59,-18,2510,-589,-5094
10,110,-18,778,299,-3356
19,-56,124,4186,1322,578
75,-114,100,-3237,2657,5104
-55,-62,62,-1410,-127,7099
98,-89,-94,1969,1130,7173
-107,-84,-28,898,120,7679
-63,12,-31,-950,-3251,5052
94,-77,74,1478,-2755,5508
76,-45,-54,638,-2188,6153
33,42,50,1588,-2268,5044
41,-98,-122,66,-287,3964
-79,90,-91,-2176,-568,1932
-47,2,-43,-116,-1309,179
-125,65,-24,2308,-671,157
90,87,-115,696,545,-339
92,-3,53,746,297,-671
106,-79,3,888,137,-1041
93,95,-19,533,35,-1168
62,5,-34,960,-13,-689
42,-27,-43,1253,-193,-216
66,-24,-49,1236,-186,-322
95,-40,-32,768,-389,-183
97,-69,-25,720,-354,191
80,-23,-10,-538,-643,619
75,21,27,-956,-279,984
98,48,19,-49,-142,1206
109,80,6,797,-253,1107
95,-117,-56,730,59,472
-123,115,-64,-143,-108,466
-111,122,-80,-343,-279,433
117,-125,-61,177,-411,112
105,-127,-45,380,-269,-136
-98,-66,-51,961,3092,-3858
-108,127,-49,-712,790,-4556
0,-26,7,-3862,1348,-5211
-116,-37,-4,-2061,1948,-6470
97,-72,-18,-2215,1001,-6859
-104,40,-7,-1164,939,-6677
40,-73,52,1479,365,-4754
61,-19,-52,1201,396,-2612
-122,98,-31,2521,1472,-1577
-69,26,-85,1032,-277,5127
-32,-61,-105,-4146,1012,5816
-56,78,-73,3006,-992,7216
-54,24,-58,7545,-1857,7052
63,70,-68,-3991,1162,700
-27,-63,-66,447,-5137,4116
-5,93,-50,1286,-3038,5326
-122,64,92,1361,-1399,4685
-7,81,-76,-977,302,3035
111,-37,86,1494,-1020,1641
-107,19,127,1240,-1625,1729
-116,-33,-118,373,229,1868
109,-87,41,903,-329,1983
-126,-38,25,527,-453,1395
-128,6,20,-226,-56,392
118,-27,-5,-316,115,-264
99,-75,-22,242,-186,-436
90,-98,-26,659,47,-1089
102,-125,-38,546,24,-1216
120,119,-39,-317,-252,-691
116,-125,-10,-791,-267,-847
-112,94,17,-233,174,-912
-83,17,0,1321,373,-894
125,-45,-50,2565,-111,-891
91,-64,-64,2087,-211,-558
43,-81,-68,529,-434,186
4,-32,-52,-1220,-317,1256
54,-4,-54,-1057,-45,1778
-89,53,-60,-713,-265,2270
-33,-119,-68,-1036,-719,1856
-79,-7,-34,-1476,-710,1095
42,-85,89,-844,1653,-5218
74,-88,31,-1123,1403,-6156
-55,120,-61,-1440,975,-6530
77,-118,114,-1303,-948,-5892
0,-103,-33,-1156,-1265,-6269
15,79,-56,-191,-1443,-5581
73,9,-87,-17,-598,-3980
55,91,68,2710,530,-1310
-124,6,120,1376,1394,3341
79,-77,-1,-3781,1675,5928
80,92,23,572,61,7479
56,-55,70,4184,1209,7173
101,-3,115,4123,480,7946
-29,-83,79,-4109,-2118,6574
-25,126,-23,666,-5050,5191
-64,-5,48,-1660,-1982,4927
1,127,91,-1335,-1922,2523
-58,61,-34,-567,-2449,2448
112,53,-19,2311,-1582,2612
9,-53,-75,1475,-624,845
-121,-118,-121,2110,-1106,-343
77,83,-114,2908,27,-1434
56,37,63,1712,402,-1054
56,-72,5,890,153,-1116
90,111,0,-219,454,-1014
78,46,-42,-121,6,-1270
102,-3,-47,-197,-9,-989
114,-15,-43,-50,-101,-1046
120,-33,-46,172,-157,-754
121,-45,-38,321,-104,-614
107,-61,-48,546,-334,-330
92,-57,-38,255,-290,49
77,-49,-40,60,-336,436
70,-29,-35,-133,-307,807
84,14,-29,-315,-265,1156
103,40,-23,-86,-215,1422
123,74,-28,233,-257,1514
-112,-121,-34,263,-229,1217
-112,-99,-36,258,-242,806
-124,-75,-40,227,-96,326
4,-27,15,-1505,3247,-2342
89,54,95,486,2585,-3657
-98,-60,-10,-179,2414,-3899
41,-51,114,-1685,3036,-5175
0,-47,36,-2051,1815,-5314
-82,-44,6,-998,1294,-5921
-25,-67,46,-1578,422,-5296
-106,-90,99,-940,290,-5538
-37,-100,-54,520,269,-5729
34,91,25,1269,338,-4339
110,-126,-57,320,251,-2645
114,12,-2,3953,683,1454
-18,60,13,-3550,1932,4801
-97,39,51,-1188,-698,6937
72,-79,-98,3292,112,7559
-51,-47,25,3824,788,6447
-9,-126,-91,-729,-1220,3122
-70,-119,-85,1180,-3827,4540
-76,-36,-100,-696,-2530,6466
-114,-50,14,1129,-2668,7480
-123,-44,98,376,-1264,5993
-109,30,24,-1188,-1921,2251
112,-98,-96,-230,-2879,847
-58,64,45,844,-1287,1042
107,-116,-15,50,416,627
10,-109,-103,827,-146,512
41,-81,101,588,564,-666
99,102,66,659,838,-1326
127,-34,2,1522,558,-2022
-109,-108,-14,1381,395,-2391
-79,80,-26,550,411,-2475
-65,1,-52,-185,235,-2393
-73,-41,-58,-325,-81,-2009
-94,-64,-42,-143,-66,-1642
113,-79,-56,306,17,-1260
81,-64,-49,-128,-285,-843
-104,122,-49,500,142,287
79,-65,-93,322,-612,1124
-3,21,-113,106,-755,1095
57,47,-73,-332,-392,1471
120,-122,76,-1306,2475,-4426
73,44,-53,-2335,-129,-4883
-31,77,-77,-4566,1140,-5708
-102,99,56,-2887,737,-7250
-29,88,-102,-1911,-1197,-6703
-35,-54,54,-1931,-369,-6946
14,-50,-101,-159,-567,-5504
81,-27,43,-42,273,-4597
55,46,-45,3130,1376,-1425
-88,17,-11,-209,537,4068
58,-51,-73,-3691,510,6197
102,61,17,1527,489,7088
-55,-101,-119,4288,843,7189
-122,74,-73,2071,775,7095
13,-107,-89,-1135,-1897,4546
31,-104,-20,-319,-3698,4788
-1,-1,-31,309,-2810,6471
-88,74,62,2104,-1399,6062
-17,107,84,99,-275,5619
23,90,101,-3093,-836,3117
45,-35,-91,747,-2620,44
-93,49,-50,4070,-1557,161
108,-113,114,1670,679,-612
59,88,44,185,646,-1288
54,-60,-10,156,215,-1407
70,-125,-11,459,-2,-1527
75,77,-12,600,24,-1475
88,35,-16,298,-28,-1404
96,13,-12,63,-38,-1316
122,-40,-4,284,16,-1089
112,-57,-19,531,-55,-819
102,-60,-31,280,-219,-563
78,-51,-31,-54,-205,-109
54,-47,-41,121,-272,276
45,-16,-40,299,-386,874
58,24,-42,737,-510,1167
82,79,-33,172,-193,1070
110,122,-42,-555,18,981
114,-121,-42,-612,-147,897
126,-94,-31,-462,-30,640
-115,-76,-12,1375,2310,-3770
-4,65,97,193,2189,-4906
-10,23,61,-667,1496,-5058
1,82,21,-1476,1360,-5542
-67,86,-14,-588,638,-6269
6,57,6,-1212,-710,-5531
115,41,88,-1419,-1080,-5792
-100,49,-2,595,-564,-4914
-60,51,125,1636,-675,-3837
-55,-75,-97,558,503,-821
69,38,-81,1483,1375,3231
49,-29,-26,-3689,1948,5212
36,95,26,386,-453,7045
-102,-70,-59,2251,234,6941
-61,116,-22,3005,58,8399
-99,-99,-52,-2459,-1968,4578
-111,-63,-5,279,-5005,4295
-7,-53,-43,-1610,-2410,3280
-66,97,40,611,-2451,4219
-3,-88,-97,820,-1572,4147
10,31,-110,242,-1187,4171
-106,-55,-75,-501,-2486,2527
-21,37,36,-470,-1934,153
111,118,2,2673,-278,-1268
97,12,-107,3145,1119,-1786
115,-79,0,1474,1295,-2218
101,122,-53,-437,253,-1652
74,22,-62,-99,-502,-1150
98,7,-35,386,83,-1040
99,11,-45,29,-52,-938
106,-18,-56,200,-278,-787
98,-18,-35,167,-259,-677
85,-38,-42,272,-342,-321
76,-27,-36,-57,-380,65
70,-12,-34,-115,-317,415
73,26,-35,-102,-355,734
82,54,-34,43,-356,924
93,91,-33,-201,-311,1066
117,-118,-31,-207,-161,1010
-127,-102,-40,170,-251,716
113,-121,-19,1659,1731,-3966
18,115,-101,-930,2543,-4984
-118,104,72,-1775,1875,-5342
-39,-31,24,-1476,1524,-6928
-107,108,-24,-92,858,-7183
-65,28,-60,-843,-401,-7555
-101,2,16,867,-1392,-6739
83,5,76,-932,-1110,-4070
82,-73,25,1488,1050,-1389
102,105,91,2667,500,2880
64,-86,-3,-3164,2075,5148
73,68,2,1045,178,6875
-42,-79,94,3964,526,7937
85,-85,106,-133,-491,5548
-62,-124,-86,-2008,-3978,4901
76,-81,38,162,-5012,5508
42,-61,55,-538,-3005,4793
85,-110,125,-63,-1333,4900
-88,1,-41,-858,-1877,5070
28,-29,-41,-301,-2173,2420
27,-125,-54,3327,-3048,-378
-86,95,-50,2639,-1032,-448
96,76,-101,225,1385,-816
48,-8,40,-243,994,-724
25,-59,-26,-11,-65,-339
60,-53,-13,92,62,-598
87,-78,-18,456,218,-875
110,-124,-42,762,74,-1149
126,101,-51,605,37,-1436
-119,60,-54,290,-3,-1429
126,14,-56,161,-147,-1154
103,0,-62,203,-241,-812
80,1,-71,-96,-351,-426
71,10,-56,-194,-379,-7
77,21,-46,-33,-269,280
86,47,-48,44,-381,624
91,72,-42,-46,-370,810
103,110,-34,-141,-304,958
115,-123,-29,-59,-303,1033
-123,-90,-29,51,-164,878
