AccX,AccY,AccZ,GyroX,GyroY,GyroZ
104,-10,109,-1193,-936,-5428
54,40,54,-1971,-986,-7892
-5,2,94,-963,-1535,-7655
-94,-97,34,-1437,-1678,-7458
-62,49,-19,828,-2666,-6566
75,61,124,609,-1670,-4994
-77,-15,-7,1991,-2270,-2761
-12,-111,110,-1337,900,710
-38,103,-77,24,28,2273
88,-99,10,-227,740,-33
127,63,-43,836,-440,-548
93,-107,-61,-76,1419,1047
110,-65,-51,2312,2566,3699
16,83,14,-690,3435,5604
119,-96,127,-2314,1906,8293
-95,27,-1,4586,-1425,11049
-27,-29,111,-4747,3329,6741
-103,92,-110,471,-1298,8594
-79,-15,-100,-2376,317,5981
-42,-56,-36,150,-1094,-2632
57,-23,66,4194,-2003,-1310
-7,-59,73,1683,-452,-772
10,37,33,261,335,532
71,96,-17,296,-403,225
87,96,2,224,-568,-547
65,38,30,-95,-82,-843
47,-39,10,476,-95,-222
65,-15,-15,361,-156,-145
82,4,-21,31,-87,-113
82,3,-37,200,-127,-72
84,19,-46,11,-194,143
84,40,-49,47,-234,186
93,78,-48,-295,-271,280
103,98,-41,-218,-345,199
102,98,-35,224,-229,151
105,118,-35,179,-230,49
101,111,-36,199,-275,89
105,114,-35,203,-173,50
115,117,-44,136,-222,27
121,109,-43,178,-193,28
44,16,-51,-1880,-1472,-5252
-74,91,-65,-2215,-2107,-6880
55,-22,18,-1626,-2116,-6357
45,125,-111,-373,-1457,-5331
-97,62,7,-224,-1310,-4220
-33,53,113,2171,-808,-2389
78,99,-101,551,-482,279
10,31,-106,-1289,233,1332
30,53,116,-514,914,2593
-62,27,69,327,1998,4003
32,100,-67,910,1161,5602
-26,104,82,963,1258,5958
102,16,-6,2274,150,6121
80,-53,117,-1426,51,5405
-127,43,-114,-66,-599,5185
38,-97,-5,979,343,5129
-126,-14,-115,1711,183,4739
-122,-97,51,2100,-3128,2707
-65,-70,0,-9,-998,-326
107,41,14,-589,644,-390
-1,-61,-39,-37,-231,-88
9,-67,17,472,-34,-79
51,-121,15,1255,-502,410
56,-106,-11,1475,-248,-1030
70,80,14,813,-239,-1314
69,10,25,277,64,-1248
53,-30,8,-417,234,-679
73,22,-7,-1501,501,-987
80,-43,-72,-629,-526,474
71,26,-38,309,-167,135
82,59,-56,-268,-124,94
94,79,-70,-815,28,209
98,110,-75,-868,-170,276
105,122,-64,-665,-5,292
108,-103,-60,30,-231,347
-126,-63,-24,65,523,-171
-106,-54,-12,275,528,-398
-116,-54,-42,-82,-293,80
-119,-57,-14,-312,-398,390
-123,-69,-7,330,-876,674
-71,-69,77,-1218,-1173,-5191
80,85,70,-835,-1759,-5116
-25,2,108,-499,-1305,-4729
95,126,102,668,-1850,-4566
-36,107,115,3334,-2474,-3828
-71,123,123,-858,-1813,-2189
-86,-5,28,304,184,-541
107,-17,-115,-799,-28,280
-3,-5,42,-192,246,920
54,61,117,857,722,2156
-36,-42,118,1377,1991,3454
-97,28,-61,1015,2581,5267
7,-57,79,1810,2510,5759
121,-46,9,-217,1932,5974
-101,-17,-20,696,327,5551
-48,52,-59,-2280,1065,5801
104,-71,27,-1393,89,5990
-74,-3,-38,1557,-377,4624
59,31,-43,2958,-2228,680
-87,-89,90,1641,-429,-1331
50,-71,29,565,385,-709
-16,40,-49,1060,-564,60
21,103,-19,-478,-94,370
58,112,-26,-16,-348,-277
71,69,-7,480,-529,-721
60,19,18,329,-504,-742
37,-35,30,212,-356,-429
47,-13,30,-284,-173,-301
54,-29,13,-55,-212,-113
67,-1,11,-273,-81,-56
78,22,-8,-125,-70,-187
74,5,-28,316,-156,-120
62,-10,-41,217,-191,233
70,40,-56,-156,-166,401
78,53,-56,76,-252,468
88,67,-55,334,-314,546
93,96,-50,-28,-266,549
88,97,-50,198,-319,553
100,126,-42,-10,-207,513
110,-112,-46,5,-249,332
98,-23,28,-798,-1704,-6166
28,-115,39,-2128,-1580,-6528
-111,-84,64,-934,-2248,-6715
-38,-55,-93,570,-2593,-5174
89,62,46,1065,-2001,-4115
-94,72,-60,1153,-1120,-1592
95,0,-75,-771,284,-8
-33,92,67,-2175,78,335
-61,64,120,-297,-518,765
103,-128,-48,1000,847,1761
-33,-17,91,2007,1712,3594
116,43,-30,-756,2796,5078
-36,57,-7,210,887,7426
-119,119,-19,108,-395,7796
93,18,-91,-1347,-1303,7601
93,-29,27,1081,-1889,4008
97,-104,-79,-1173,-832,5049
-72,-78,99,1256,-1326,3675
-4,-66,71,2994,-1572,779
-109,45,54,3321,-747,-580
52,-18,25,519,151,172
-12,-34,-24,-167,-454,203
17,-72,16,0,-238,93
60,-74,16,160,-111,-243
78,-95,2,450,-274,-755
90,94,13,342,-125,-1046
54,24,3,347,-307,-894
49,2,15,-38,-157,-629
51,-17,9,-129,-99,-324
51,-8,-6,79,-134,-76
69,36,-25,-128,-89,32
83,52,-40,68,-168,74
83,74,-48,1,-235,145
77,98,-50,-17,-249,266
76,105,-47,111,-292,346
86,127,-39,58,-279,428
94,-116,-39,91,-307,388
103,-101,-39,23,-282,279
109,-93,-32,24,-239,133
107,-92,-31,93,-199,27
102,109,106,-218,-1782,-5403
-128,33,-62,-3992,-2765,-7128
-45,81,51,-528,-1785,-5772
17,-7,-98,880,-1757,-4931
-83,110,-15,1141,-1556,-3878
-35,73,124,975,-1153,-1030
108,28,-100,-639,470,673
-2,75,46,-597,-293,748
-73,-8,8,341,-74,662
-6,-34,62,103,-77,511
-96,40,-114,-32,808,1246
0,41,105,1803,1319,2905
-115,-35,81,777,2640,4849
-110,-37,-123,1720,2905,6562
1,7,54,-41,1938,7126
123,-88,80,-25,1134,8456
-40,-16,-6,-1914,796,6310
-115,102,45,-1402,913,7944
64,-112,-84,2075,-2542,4757
88,-14,84,127,-1839,-1810
43,-55,124,2896,-592,-1179
13,-123,65,2137,-275,-758
25,82,8,518,-259,-526
7,77,6,-1100,-574,-33
44,99,35,-1221,-321,-619
71,49,56,-714,-390,-1128
37,-48,62,-151,-402,-803
35,-24,49,-814,-199,-457
73,37,13,-904,-46,-752
94,42,-10,-501,-33,-962
87,5,-37,26,-194,-670
29,-49,-58,283,-371,36
37,8,-59,-595,-80,681
99,85,-73,-617,-233,596
109,94,-69,297,-532,290
96,94,-53,286,-578,324
74,103,-37,-93,-411,438
59,105,-43,68,-401,605
78,-112,-36,-60,-423,600
111,-87,-20,-181,-229,510
-124,-122,25,-1532,-1516,-4006
102,31,-8,-500,-2465,-3656
81,81,41,-1677,-2652,-3803
116,-67,43,-2676,-2316,-4661
118,110,52,-730,-3328,-5504
11,35,-10,-477,-2992,-5912
115,55,-113,973,-2706,-3288
-69,-32,68,-446,-640,-653
-6,-62,9,-581,1353,1010
-72,49,64,-451,669,746
115,-47,-30,964,34,457
7,59,92,855,155,548
-80,29,-45,1233,1845,1851
49,68,-112,2134,3400,4375
-51,111,33,2539,4042,6195
-12,23,82,3558,3918,6885
-72,21,123,-457,2686,5628
108,-89,41,-4314,1922,4618
61,-9,115,-3578,177,4822
-46,89,-67,-1475,-879,3773
-20,87,-5,3117,-1893,978
-73,6,70,3902,-635,46
110,-23,46,2155,268,161
-3,-38,-58,439,-49,594
-30,1,-28,-400,-261,65
14,-37,-6,-246,157,-756
97,87,-20,493,-524,-852
94,70,36,-56,-761,-869
12,42,75,80,-198,-1036
38,25,39,80,53,-768
78,26,-2,106,-184,-851
109,47,38,-825,-359,-1079
-105,40,123,-1646,220,-1009
-111,-70,71,521,799,-873
98,-109,-22,1933,196,-287
66,-54,-92,1373,-52,729
67,26,-107,40,-11,1165
82,50,-116,-271,-247,1287
-91,48,-82,-1,-403,1613
-65,69,-53,734,-529,1376
-119,115,83,-2699,-1463,-5703
-6,75,49,-2195,-2337,-7496
-128,7,-92,-1880,-2566,-6989
-88,3,-126,-892,-2350,-6526
17,-7,60,-405,-2037,-5498
26,-118,-56,498,-1801,-2472
-125,-45,9,-792,-687,389
-56,90,-50,-1366,511,1401
121,34,112,429,-689,812
-64,31,-80,1620,-118,606
114,66,-53,1829,783,1590
-68,80,105,3376,1677,3591
44,68,9,3021,2691,5411
-4,94,35,5296,3053,6996
-32,74,-47,1977,4447,7397
-86,62,-50,-4037,2895,6233
91,-90,84,-1660,513,6489
90,13,2,-1389,-2924,6533
90,8,-74,-2234,-1806,696
-27,30,-15,3107,-874,-1399
51,-17,-116,5101,-711,-534
6,91,31,1336,336,-139
-40,119,-56,-2015,462,86
37,91,-47,-2241,447,-335
117,53,-21,-1076,408,-1175
-78,-60,-13,924,18,-2102
-91,97,-7,2023,-512,-2549
-125,51,34,1140,-635,-2582
114,-41,72,93,-66,-2167
61,-80,53,-485,-87,-1365
-5,-97,31,-543,-51,-499
-17,-90,12,-154,-16,342
-14,-68,1,130,-51,1074
27,-17,-24,563,13,1855
81,20,-49,735,-121,2233
-101,88,-53,967,-149,2428
-97,-111,-57,1243,-339,2088
-97,-43,-47,533,3,1559
-78,-23,-53,18,28,1074
-107,-44,-54,584,-378,791
-98,62,-95,-1563,-514,-5371
-119,99,41,-3696,481,-8077
18,45,1,1577,-1402,-7019
-37,-25,-28,1350,-1453,-4962
29,79,42,1230,-664,-3223
-125,21,109,568,-734,301
-82,-1,-91,-310,1636,1573
81,80,-88,102,502,1607
83,83,-68,-1215,-984,19
89,-55,-100,1108,281,-231
-90,-111,-55,1041,817,1812
68,-40,-118,-32,2602,4226
-23,-83,-62,1387,2423,6266
-24,-108,29,3285,1848,8212
-52,-76,9,2739,2418,8613
80,-40,78,-1488,1546,6523
-63,-37,-88,-728,-172,7305
-112,57,52,-4619,-1434,4123
5,-58,63,-421,-1730,-575
66,92,-122,4470,-1846,-544
40,-111,117,3067,-421,391
-2,-17,76,-175,223,689
-17,13,32,-1589,-251,295
44,0,68,-1184,24,-806
79,-95,68,-90,64,-1685
83,106,47,117,-29,-2099
-80,21,41,-312,171,-2046
107,20,23,-790,300,-1558
94,-16,-46,826,650,-1916
-59,-126,-92,1091,28,-1214
-95,-63,-90,-301,-604,-340
102,17,-71,-1016,-98,-602
94,-20,-82,-297,-109,-363
83,-64,-98,955,-623,358
3,4,-86,655,-1040,1004
-13,90,-33,-156,-1091,1918
-127,-52,10,-325,-130,1512
-20,4,-28,-374,-351,600
-108,2,-15,-400,-675,28
108,-34,31,-623,22,-129
40,-118,118,-2998,-2942,-5177
-45,-21,12,-1530,-2687,-6435
115,117,107,-675,-2271,-6382
-84,-54,100,2530,-4107,-5224
11,-13,23,409,-2588,-4392
6,-99,108,71,-2218,-1545
101,10,4,-499,-25,357
-36,13,-8,-144,1011,1116
-84,-27,91,-976,699,826
-48,-7,50,467,43,279
70,80,-100,197,730,554
-10,10,-77,17,2357,2108
49,-90,66,162,2794,4446
4,88,-92,2132,2514,7274
12,-78,-120,4436,4182,7087
124,28,-10,4271,5586,6560
26,-40,-61,-4836,3569,5604
120,-119,50,-1898,-1266,5089
65,-127,49,-3729,-936,3823
0,-8,126,-1798,-690,553
83,50,-115,3393,-1374,-762
22,-52,111,3877,-447,-1043
83,-91,80,1362,368,-1299
79,66,31,420,61,-1107
83,-32,2,510,-419,-676
42,9,7,-286,-342,-781
28,-6,-5,-1103,-480,-550
47,1,7,-1656,-739,-179
102,39,24,-1330,128,-346
103,8,-9,613,153,-957
95,-33,-26,1183,-263,-893
65,-29,-30,234,-531,-379
42,-13,-10,-511,-304,75
31,-14,-27,-200,-362,627
53,23,-29,-209,-689,1004
97,65,-13,-23,-220,900
-123,90,-14,171,-123,868
121,-124,-10,175,-225,837
106,-75,-11,-57,-92,562
100,-78,-27,141,-58,375
85,-50,-1,-2115,1294,-4346
115,36,-85,-956,505,-5241
48,-74,106,126,-470,-5348
-49,-39,86,-882,-2270,-6171
-84,99,104,-830,-1804,-6193
-26,73,126,827,-3199,-5245
-128,118,40,388,-1880,-4187
57,103,-105,-72,263,-1098
73,93,60,-1116,126,1443
-90,-116,47,-1015,890,1030
111,-101,46,537,-801,96
11,32,103,354,227,-226
90,30,105,762,198,813
-34,21,115,1440,1313,2657
10,-69,35,2326,1893,4268
-67,48,-85,1718,2863,5634
98,-25,78,2270,2720,5625
-110,51,84,-1467,1599,5979
-36,-62,-126,268,259,3077
72,-2,-6,-3612,1169,3733
63,-10,-30,-1031,-548,4876
-8,25,62,1142,-858,5037
-62,30,60,2167,-852,2509
-46,115,30,2589,-1418,-139
100,-50,93,1019,-944,-744
101,78,92,-293,35,188
-65,71,2,-96,-502,958
-21,-89,30,-520,-384,684
78,-51,37,-754,-50,-231
94,-97,22,93,-271,-1471
120,82,38,259,-130,-1752
-120,-3,24,278,-62,-1952
125,-64,4,473,-111,-1686
105,-112,-18,345,-130,-1169
91,-104,-26,-6,-140,-647
88,-98,-39,-40,-93,-266
94,-88,-54,43,-231,231
93,-50,-46,-176,-266,528
95,-19,-32,-59,-111,630
89,-18,-51,506,-313,948
84,28,119,-3631,-293,-4468
-53,-38,-116,-2586,-64,-5277
-35,-93,-101,-729,-170,-5865
-56,-79,-26,-222,-566,-6402
104,-88,-29,583,-1049,-5841
32,114,-44,1955,-1207,-5225
-44,32,-5,1831,-1022,-3846
38,-11,38,2038,-1228,-1065
-82,-31,96,-372,-584,247
-4,-61,-121,-484,-28,842
-63,114,-118,-250,333,671
-47,115,99,803,-13,796
-89,-25,-98,562,936,1395
54,-49,-127,1338,1912,3323
-83,-95,73,477,2868,4907
104,119,-107,2147,3164,7151
52,100,28,2087,2567,7681
-115,26,-61,-796,301,6660
-13,-101,32,168,-194,6030
-101,69,-26,-4510,1378,4751
-38,122,-70,-3929,-1433,1976
-105,58,114,2295,-914,-357
58,-66,88,5144,-398,-797
12,-29,28,3020,108,-849
19,-88,6,730,-107,-257
-5,93,6,504,-331,74
17,109,37,247,-251,-256
52,93,50,-39,241,-291
61,50,43,-66,20,-718
68,19,26,285,27,-843
76,-16,28,30,-160,-848
72,-37,12,122,-32,-611
61,-39,-4,-62,-264,-376
60,-42,1,1,-166,-115
63,-30,-9,-114,-163,86
59,-16,-23,-312,-211,372
55,11,-29,-252,-197,691
63,37,-39,-90,-257,942
86,83,-39,-37,-306,1053
117,107,-32,203,-232,942
38,-68,-24,-1805,1462,-5562
81,37,66,322,-839,-5498
-25,54,101,-1314,-1592,-5604
-90,-45,108,-2044,-1604,-5933
65,-20,-107,-195,-1375,-5525
-120,42,-40,1396,-1597,-4660
122,-103,-12,849,-864,-3507
7,-64,23,741,-882,-1613
-124,21,48,-287,-29,224
10,-14,6,-145,-456,696
-71,-15,59,-423,-165,365
-25,-8,105,342,-221,317
64,3,-113,57,87,215
-126,-125,119,368,445,645
-31,-41,104,445,957,1612
75,-1,69,544,1712,3444
-85,-87,-13,873,2009,5713
83,-40,119,1505,1608,6949
44,126,82,807,1548,6790
10,-78,-122,-1167,596,6847
-39,18,-67,514,-524,6023
-26,123,75,-2266,-21,4832
-14,-30,49,-2180,-694,3227
-113,-115,100,1876,-2029,-547
108,-62,-109,3378,-622,-870
-10,-120,72,1359,-273,-233
-58,-117,48,-67,-257,262
-32,-109,59,-291,-218,82
43,-112,76,-210,-81,-511
75,118,84,295,39,-1238
102,12,71,877,-5,-1627
107,-34,54,501,79,-1533
82,-89,21,181,-1,-1146
67,-99,8,-157,4,-580
53,-100,-18,-85,-79,-136
44,-74,-51,-166,-274,344
54,-32,-55,-487,-398,663
66,8,-42,-556,-487,963
73,39,-4,-193,-481,1111
97,34,23,1141,-152,1169
-103,35,-125,-4974,760,-3802
-17,-85,46,-1080,-930,-4994
-86,-98,100,-994,-911,-6372
-5,36,55,-1401,-1343,-7073
-88,43,116,-3660,-168,-6613
-22,35,79,832,-761,-6460
4,29,-119,2060,-1117,-5232
47,75,-24,1278,-2045,-2775
-55,74,-109,57,-345,-118
10,41,-85,116,204,1198
-78,-113,93,-853,127,886
114,-69,18,807,110,491
5,44,66,-157,-478,-98
-111,63,124,1082,-65,355
3,87,-99,1628,804,1554
125,-72,-83,1297,2539,3086
-49,-116,91,187,4049,5077
42,-110,-50,110,3311,8255
-125,5,86,371,1135,9796
21,-6,-36,-5216,2624,5647
-60,26,-12,-1535,-547,6846
-75,85,-112,1420,-2346,7132
-107,124,-76,-1199,-1631,1453
-113,-59,111,1944,-2141,-1908
59,-66,-108,3372,-1342,-393
36,-45,-125,1637,544,-158
-15,-85,16,687,178,-309
0,-128,2,915,-631,-298
71,96,50,918,-448,-981
73,58,82,295,-544,-1333
79,3,107,71,-299,-1393
59,-60,100,115,-206,-1243
41,-95,80,305,-189,-764
28,-90,56,59,-89,-289
41,-90,28,143,-8,204
48,-62,-2,-47,-259,509
52,-12,-8,-183,-189,647
68,10,-1,-322,-159,823
105,26,-8,249,-140,911
107,59,-20,343,-376,828
-89,-125,39,-710,-668,-5940
69,-90,-6,-83,-2388,-6325
-123,-16,-32,-1184,-3598,-5328
72,97,-44,769,-5816,-5492
63,61,-89,-1262,-2269,-4105
121,54,-23,855,-1586,-2189
-59,51,87,-238,-561,-6
-35,72,15,-489,1201,1292
15,118,30,148,-694,1129
120,52,42,-98,616,-48
-31,88,114,479,-500,415
109,-123,-18,350,1267,1389
-66,-81,-94,617,2448,3224
55,-101,45,870,3249,5439
-83,120,89,3622,2191,6573
112,37,4,34,3815,7939
79,10,-43,-3518,77,6162
97,-61,71,760,-2924,6392
79,66,-107,-4571,-55,3994
-114,70,45,-530,-1229,1100
121,31,107,4726,-2019,-837
81,29,103,2904,-497,-291
1,60,61,-107,69,149
-33,37,34,-745,18,308
21,26,46,487,19,-503
85,-29,36,1492,-119,-1422
-91,-127,56,1269,151,-2151
-91,26,29,1152,244,-2580
120,-77,0,265,-122,-2057
86,-98,8,-334,167,-1325
66,126,-15,-9,144,-687
47,114,-51,323,-177,261
40,-70,-43,309,-238,915
71,-9,-50,930,-323,1151
90,16,-58,1063,-244,1233
115,55,-59,-40,-133,1376
122,103,-48,-1095,-122,1443
-125,-120,-21,-1264,-127,1275
-122,-110,-15,133,-107,838
-123,123,-50,1533,-487,413
-70,84,92,-2151,-288,-5188
-46,100,73,-168,-1242,-5377
-3,29,58,-944,-1606,-5839
-43,64,76,-1225,-1725,-5438
39,54,110,206,-2112,-4848
61,-21,24,323,-1468,-3763
-64,90,75,728,-951,-1676
49,120,104,794,-328,147
-62,-59,97,-404,38,1160
-109,-106,54,-97,-391,947
-52,-10,72,-346,402,728
30,85,78,932,-332,878
120,113,-122,1643,439,2207
-43,42,120,1045,1653,3431
37,83,-27,1012,2392,4749
-107,-7,-126,780,1498,6345
84,56,-112,-2023,941,5021
114,122,-71,-530,-303,4915
-42,-46,20,-429,-32,5620
-75,-65,11,623,-1483,6772
-4,-80,-34,1647,-1794,4743
-125,-86,4,1987,-1262,665
28,107,44,484,890,1538
71,-22,-95,-122,-306,611
87,-122,-49,1864,-974,-1186
126,-36,-12,2880,-906,-1982
91,81,35,1958,-1104,-2265
93,22,86,260,-492,-1921
63,-54,98,-436,-588,-1250
56,-60,121,-782,-263,-1101
83,-96,103,-292,40,-878
81,-116,40,311,-71,-490
84,-96,12,334,-153,-149
86,-78,-8,254,-104,109
94,-71,-21,348,-161,469
75,-45,-37,444,-171,533
47,-43,-68,625,-358,857
69,-24,-45,-71,-443,1516
104,12,-19,-67,-214,1803
-122,82,-20,96,-461,1740
-59,77,75,-2105,-501,-4575
24,57,46,-918,-1230,-5929
-73,-108,51,-934,-1941,-5881
120,20,46,-1282,-2139,-6246
-50,12,-61,738,-1632,-4941
50,49,80,1343,-2062,-2585
-62,18,5,383,-369,-440
45,60,-56,-540,1282,921
-87,100,25,-526,152,1139
-1,125,37,144,342,1164
-73,-123,-126,865,1314,2298
32,-36,72,1621,2369,3931
-111,34,-72,1483,2340,5673
-31,6,112,1419,1663,6434
-102,48,91,89,2293,5614
-50,-95,86,-550,750,5044
123,91,118,-760,80,3897
22,61,-92,1580,-843,4109
-122,-93,39,-405,-305,4231
-101,42,14,-693,-314,2680
-69,85,-13,1323,-1850,465
102,-9,40,2149,-1076,-507
70,-79,92,1466,168,-797
3,77,4,1696,-154,-213
-29,118,14,424,-436,254
15,-112,31,-184,21,-394
67,79,24,136,-104,-806
110,32,33,267,-350,-816
89,21,45,133,-399,-1052
75,26,56,-589,-233,-1361
87,-20,43,-884,83,-1345
69,-62,1,-306,45,-891
59,-71,-35,116,18,-408
89,-70,-75,208,-137,233
56,3,-83,-352,-485,422
68,9,-51,12,-316,499
-124,-14,-24,501,-220,1002
119,20,-45,780,-441,1253
96,99,-47,16,-488,1180
112,-115,-15,-906,-207,1039
56,-73,126,-2942,-829,-5830
-31,6,103,-2598,-2000,-6242
38,86,-84,-1292,-2204,-6919
11,91,-66,-71,-5142,-5133
-124,-34,123,-1328,-5081,-4842
-40,-37,-4,-1670,-3385,-3840
31,-6,-55,107,-2614,-2491
119,-6,-39,-432,-879,-140
1,-35,-86,-485,1273,773
-115,-26,-53,626,180,616
83,-21,-113,360,708,185
-108,-55,105,293,-528,-50
13,-127,-72,148,-246,52
66,45,-32,254,518,215
-110,-54,-44,313,979,367
26,15,-16,-203,2289,729
97,90,-82,901,4278,3058
-16,26,69,1222,5595,5393
-67,104,35,4227,3444,7832
94,-68,75,-3388,4208,9946
-114,53,39,-3936,-670,7417
118,-28,87,-2254,55,6313
-81,-92,29,-918,-802,3533
-67,76,-115,2982,-2174,-2374
43,-63,123,5833,-1156,-1316
17,7,86,2051,297,-665
-13,-81,16,21,248,-657
-21,103,17,314,-657,-335
13,90,63,300,-370,-651
26,56,74,154,-384,-811
13,26,86,238,-520,-791
7,6,105,146,-324,-728
13,-26,100,142,-57,-446
15,-25,64,177,-59,-317
19,-21,35,-25,-66,-192
21,-25,23,6,-27,62
18,-32,0,421,-50,345
17,-5,-25,365,-309,683
36,22,0,357,-179,917
57,19,-7,1178,-211,1075
-96,114,32,75,-1412,-5717
-41,57,-6,-675,-1640,-6143
-59,66,-69,-1044,-3029,-6189
-123,-103,-115,546,-3591,-5145
85,-127,-69,327,-1792,-3626
76,-82,100,222,-642,-905
71,101,18,-113,571,805
114,-62,90,-473,-173,1029
-35,-83,106,129,486,1264
-90,79,-90,1132,1232,2171
51,81,-100,-495,2337,3642
84,-30,25,-3819,3109,5400
-114,58,60,-1183,999,6923
86,82,-97,-212,313,4340
-106,31,-113,935,-230,6333
100,-101,-17,77,-783,3924
89,116,60,666,-1020,4656
60,46,65,1974,-519,3872
28,-25,0,2593,-704,4271
-17,86,14,1466,-1123,2450
-99,-112,29,952,-701,498
88,34,54,1171,-510,-557
13,-112,53,1321,-590,-655
0,97,63,936,-365,-599
-4,63,76,593,-393,-565
23,18,82,541,-292,-631
39,17,93,-86,-190,-633
77,5,98,-330,206,-726
108,-42,50,564,230,-764
111,-73,-10,975,-121,-742
82,-76,-2,365,-298,-543
61,-79,10,-174,-49,-106
39,-88,-20,121,-182,451
54,-51,-24,-65,-251,702
83,-2,-18,-406,-303,922
96,30,-4,-201,-217,856
95,55,-9,399,-303,586
86,75,-10,424,-250,342
93,69,-18,129,-220,329
109,52,-31,138,-300,502
35,77,-34,-1180,-2297,-5798
104,13,19,-1631,-1438,-6896
50,74,24,-1033,-2465,-7004
-125,-53,126,657,-2492,-5428
-53,83,45,2351,-2874,-3763
27,95,28,442,-1085,-289
58,122,41,-1221,413,1222
-116,-97,32,456,-206,473
-114,-13,59,195,-197,279
16,3,-113,244,178,845
-112,-3,-87,619,1019,2788
-14,-84,113,261,1296,4776
3,1,-26,1748,3337,5078
-123,121,-5,3180,2881,6451
-16,-76,-37,-1783,1303,5149
-109,-87,124,-2301,529,5189
104,-18,-57,1123,-684,5175
-46,30,-24,1229,-501,4925
-20,-104,7,-92,-261,2648
56,-63,29,-1287,-904,1367
58,-110,60,1562,-684,-627
80,-27,60,2664,-105,-1248
20,125,25,1657,-277,-733
-11,83,11,460,-94,-460
21,47,-2,551,-127,-432
51,10,-3,666,-406,-272
72,11,26,884,-218,-562
87,-44,20,1242,-446,-506
110,-71,31,302,-428,-78
40,-32,12,-481,-525,197
-3,17,-10,-339,-408,314
46,40,-14,-237,-385,357
107,85,3,-782,-146,321
119,76,-8,-85,-15,22
98,49,-39,683,-368,-119
71,56,-30,268,-195,-125
62,30,-39,512,-128,3
52,13,-41,498,-177,350
66,33,-33,274,35,657
71,46,-60,584,-125,735
-124,37,-125,-789,-1907,-5987
-3,-8,-121,-149,-2328,-5273
-45,-48,113,-3799,-2393,-5153
44,-40,-72,-1419,-2728,-5897
111,80,3,1024,-2410,-5475
51,-44,-47,735,-1596,-2060
62,-24,46,-442,34,381
-83,-21,-113,-2509,1014,1284
-106,-61,-36,453,81,505
-2,-70,59,905,53,674
-107,28,111,482,762,1089
12,35,120,970,1793,2807
-91,-90,32,1005,2886,4829
46,-116,-100,1979,2796,7414
27,-98,111,-1426,2576,7645
87,-31,22,-537,-553,8922
-14,-80,-47,-2487,-170,6619
-107,-6,4,-2793,-1522,5552
-105,23,89,-780,-2083,789
-65,116,-108,4722,-823,-1452
32,-35,57,3728,-501,-714
45,-43,24,948,-48,-663
13,75,-9,887,-559,-379
25,37,29,1449,-528,-434
43,39,48,547,-416,-497
60,9,64,-309,-336,-485
52,-6,62,-447,-270,-466
56,-28,50,-291,23,-341
51,-27,10,-4,-92,-173
71,-19,-11,249,-39,-188
84,-10,-35,146,-122,-193
95,-16,-42,-52,-186,-10
88,-4,-44,-142,-216,130
76,2,-25,213,-144,186
83,1,-39,462,-206,399
61,37,-38,293,-200,442
86,39,-39,226,-108,637
116,46,-46,234,-267,807
90,110,-47,-30,-317,466
93,-124,-28,-521,-157,327
-48,3,-95,-1017,-2268,-6906
123,-51,-3,-1903,-2652,-7041
-121,-122,114,206,-2742,-5802
-118,-112,4,2078,-2741,-4028
-103,37,-92,1213,-2070,-1064
96,5,-13,-1105,396,220
-25,-35,116,-231,150,612
-127,-56,23,327,-120,370
-101,-68,36,467,-522,454
51,122,109,213,215,322
125,125,-100,1507,774,1537
20,-69,-94,1789,2506,3239
-91,31,66,-88,3892,4622
49,103,-101,161,2835,6171
-7,16,93,-2597,3153,6499
-26,79,50,-1036,1350,5006
-113,-119,120,1679,-1542,5673
-46,-117,16,-934,-291,5180
76,-105,64,-2178,-228,5448
15,-70,69,-1532,-1401,2804
-8,-66,71,2578,-1925,-920
124,24,111,3171,-702,-1352
27,-91,66,1225,71,-968
-49,118,13,246,-238,-167
-37,92,18,390,-172,112
45,116,27,350,-43,-210
90,104,16,721,-262,-834
-128,63,30,322,-550,-1540
-115,15,67,-427,-212,-1823
122,-64,54,-453,90,-1636
85,-111,7,290,-220,-945
70,-100,-7,183,-129,-413
54,-85,-39,130,-136,189
62,-70,-64,286,-340,707
75,-30,-59,-66,-465,1040
101,25,-45,-390,-367,1265
99,62,-43,-127,-434,1217
121,104,-36,94,-357,1069
119,124,-43,280,-449,895
115,-113,-33,416,-371,717
80,74,94,-2103,-320,-5385
-34,-31,63,-246,-974,-6005
-120,1,-4,-1541,-1971,-6280
111,-49,-25,-1714,-1814,-7353
55,112,89,881,-3520,-6069
-80,-97,-14,-448,-2019,-3800
3,-58,110,790,-1394,-1114
-105,-30,-58,-521,673,810
-22,22,90,42,247,1065
92,7,23,216,-214,412
-118,-35,19,1777,-154,27
30,-65,-106,294,461,30
-112,-85,-123,1243,889,901
8,27,122,948,1603,2278
-103,6,114,-591,3363,4193
-39,2,-89,-218,3406,5935
-100,28,-38,331,691,7286
-122,70,45,-7211,-533,5299
67,85,12,-1153,-2200,2641
-104,18,116,3650,-2626,4693
-41,8,-102,1834,218,3294
42,-54,-24,3189,-549,2857
110,-21,-38,3227,-1057,1855
118,-40,65,582,-273,94
-107,101,79,-98,323,329
73,14,0,915,-312,961
34,91,6,910,-445,988
28,-93,16,408,-207,279
35,110,9,1207,-443,-221
23,95,29,746,-560,-488
35,70,48,-200,-134,-206
52,106,45,-1050,-2,-433
126,-109,40,-2387,602,-1192
-105,79,-4,-1728,754,-1254
-106,1,6,539,630,-1912
-121,-43,-27,273,57,-1051
70,-83,-38,719,-689,92
74,-27,-8,152,-475,774
109,15,-12,692,-711,990
123,16,10,1777,-713,1031
108,-125,-125,-2644,826,-4042
-35,104,72,-869,1050,-5357
-67,48,68,-2168,-1222,-4053
-70,-128,-24,-1644,-451,-5215
101,13,-34,373,-1850,-5553
15,-83,-40,-73,-1529,-5450
-57,-65,-19,567,-282,-5653
126,-122,-38,1081,-912,-3796
14,-124,-17,837,-1040,-2027
72,-114,120,-864,-304,701
-3,51,66,-360,-237,746
-44,-53,85,459,87,410
-42,-100,43,933,-176,579
92,-1,82,307,134,1588
-81,6,28,1889,325,3280
61,-6,-7,1292,1402,4867
-96,-17,-112,-43,1338,5408
47,-71,98,-2953,191,6675
-10,-25,-98,-5743,811,3510
-88,-127,-46,1249,-5249,4833
-43,21,-84,2490,-1272,2433
-9,-17,-112,2045,73,2025
-14,25,-34,5115,-444,3120
79,97,-75,4696,-352,3458
55,-26,-33,1786,-565,2569
114,66,0,-311,-680,-248
60,-100,30,527,-391,-571
47,20,48,1225,-249,-107
34,32,45,1384,-469,69
45,53,67,960,-88,-329
45,8,35,1055,-167,-547
42,-25,42,788,-610,-614
61,-50,57,745,-283,-459
69,-62,67,379,-87,-276
72,-62,78,-179,150,-13
73,-79,52,427,472,-40
69,125,-7,1393,-118,97
23,-91,0,464,-754,537
36,-38,20,-788,-263,729
49,-11,21,-815,-860,1458
95,87,48,-1369,-1241,-5951
-13,-116,-34,1196,-2815,-5087
85,-44,41,953,-3816,-5272
-69,84,29,47,-2698,-4107
58,89,-90,821,-1961,-2136
-61,112,25,-287,-404,-261
-12,127,-65,-23,130,888
-69,-120,106,272,-275,751
-33,-94,112,1577,300,577
111,34,-62,282,1347,1016
-42,-36,84,2761,1472,2393
117,53,-91,-1488,4553,4101
-62,110,-115,1672,2724,5815
16,-71,71,1743,1837,8749
126,-43,5,-869,2957,6552
62,-113,-34,-1628,-444,7137
38,-90,-44,-1007,-1874,5193
58,99,123,-1164,-915,2437
-105,-8,85,2159,-1801,-115
91,86,-121,2342,-446,-855
25,-14,79,1236,-72,-691
-29,-103,23,554,-167,-337
-10,-113,20,260,-234,-450
59,113,26,202,-150,-795
83,88,35,20,-278,-1267
109,35,40,-275,4,-1515
110,-14,16,-425,45,-1467
100,-59,5,-222,-3,-1105
72,-96,-25,458,-140,-623
62,-87,-25,371,-170,-143
68,-68,-45,240,-188,322
78,-44,-55,21,-373,697
79,-12,-39,-55,-325,938
85,12,-33,259,-274,1190
109,33,-31,564,-215,1402
117,64,-35,903,-188,1295
119,94,-45,1077,-244,1136
121,106,-46,934,-255,951
107,125,-44,663,-271,740
93,-116,-38,329,-274,437
-109,-76,81,-1109,-1463,-4463
112,120,26,-2154,-799,-5766
22,-92,-70,-253,-2594,-5271
-28,-9,105,-1009,-1825,-6043
-116,-92,-109,1395,-2409,-5939
4,39,-8,1252,-2163,-4504
87,-75,123,318,-2475,-1389
-48,72,-54,-1463,318,720
-118,6,48,-954,831,1227
-99,-25,61,471,-214,173
-18,-38,100,786,-156,217
-118,40,-74,-90,643,796
21,49,-63,464,1896,2416
-112,-97,124,737,3258,4002
71,43,-113,2177,3480,5393
-40,100,64,1789,2059,9409
100,-76,98,-4508,2991,7487
-3,-94,-5,-7094,-1498,6799
-108,-35,-76,1823,-3951,6843
-108,118,-7,69,-1238,1412
-64,120,-83,2316,-1184,-2150
41,-22,-95,3497,-1007,-882
-7,-102,120,2038,-371,-692
27,121,-117,336,47,-114
48,32,58,1642,282,-33
57,11,53,1830,-330,-476
72,16,66,804,126,-884
57,-58,39,433,-86,-886
55,-123,45,964,-27,-363
61,-127,41,747,-3,14
72,-107,17,306,-1,332
62,-95,1,174,-274,578
82,-82,5,101,-104,938
85,-37,2,-269,-271,1148
77,11,1,-39,-268,929
64,54,15,-180,-276,597
80,62,36,-209,-79,574
90,80,44,-119,-34,397
83,85,12,303,170,23
80,81,-7,67,-58,-20
-87,33,-69,-1630,-899,-6042
-16,-40,-90,2264,-2012,-6531
123,125,99,-838,-2109,-7193
-34,58,-106,-2199,-3107,-6827
49,17,104,-166,-3561,-4765
45,89,-104,1737,-2445,-699
-72,94,84,-653,780,819
-30,-65,46,585,-71,1249
120,0,7,-895,-131,742
-100,-25,64,220,178,151
57,49,-68,-58,483,699
-71,77,-52,-565,1906,2269
75,-96,88,-972,2748,4820
-48,-60,-20,-1182,2482,6808
-121,-60,67,2685,27,9989
-52,23,116,-1490,229,8297
113,6,94,-1169,-1638,5406
50,22,-50,244,-1473,5459
47,-42,50,-431,-571,2556
52,124,-7,3215,-2264,1366
-50,110,66,2983,-1130,543
120,82,44,2604,-742,420
17,116,38,1720,-871,-579
50,-4,89,632,266,-1922
100,66,65,1038,46,-2394
50,82,102,1585,-607,-1504
52,67,125,708,-216,-99
95,-101,112,-368,17,-243
105,-122,81,248,169,94
53,-123,45,1384,-120,203
46,-114,45,1694,-106,376
80,-83,44,789,49,511
125,-54,31,1136,-315,197
102,-98,82,2722,-544,370
31,-8,103,933,124,78
57,-41,38,-51,360,581
71,-34,1,-365,-176,473
79,-48,9,30,-401,619
70,11,35,-99,-510,312
102,-12,59,139,-304,170
66,119,-75,-3214,246,-6160
-98,120,-84,-1727,273,-6766
90,-54,-121,782,-832,-7229
-6,-32,-124,2638,-1613,-6706
59,-95,-99,981,-4446,-5151
-59,-18,93,813,-3056,-3724
-52,-27,-90,142,-145,71
47,-81,45,-1106,919,1474
-55,-102,75,-559,-122,572
119,-82,113,1494,-781,84
-39,105,-25,139,37,423
41,-21,-45,275,-35,1340
-75,-3,-40,721,902,2565
45,-89,-89,1053,2725,3697
-61,-60,90,-2049,4574,5510
119,88,124,-4780,3092,7949
60,-34,-97,-432,-1811,9986
83,-99,58,-4604,-3442,5089
107,-102,-25,4184,-4183,5255
62,-42,93,2881,-1021,4035
-12,-58,-116,2137,-1284,3
92,123,-127,2699,-519,-135
1,-6,37,2192,-44,-10
7,-24,-4,959,-355,6
-6,-36,24,199,-443,-117
36,-83,70,538,-153,-596
55,121,66,1013,-469,-1056
83,68,98,618,-253,-1282
87,26,88,224,-85,-1400
73,-41,62,486,-188,-1180
46,-90,42,461,-344,-555
39,-59,47,-303,-206,-41
60,-45,37,-303,-133,107
74,-42,9,80,-317,303
68,-19,12,-184,-393,707
56,29,4,-267,-223,1034
60,62,-12,-107,-588,1252
104,116,2,-166,-98,1279
126,-87,-24,-19,-251,887
-123,-65,-21,77,-306,466
-97,-4,-60,-392,-308,-6429
59,-97,-85,-2374,1060,-7553
59,58,76,1242,381,-5329
59,-115,-110,14,-80,-5895
45,-69,-98,1657,-611,-3054
-123,-39,14,408,-689,51
44,-39,91,-451,339,1508
-81,-35,3,426,-505,1210
-56,-113,39,-110,5,129
3,-103,81,288,-329,624
-113,-21,-124,252,724,1708
-48,99,88,376,1163,3067
-122,-94,-30,-1473,2006,4468
111,-23,-86,-919,-804,5921
32,60,-84,487,-1131,6622
-90,104,-83,928,-29,6677
83,-62,-104,844,-160,5590
30,-86,61,-843,-491,6832
99,-60,-60,-2401,-3293,5241
-81,57,-26,-2343,-2312,-902
118,28,-21,2822,416,-2238
53,96,80,5193,908,-1627
58,-122,-20,2936,265,-1211
77,104,-47,18,-112,-355
70,56,-41,-288,-390,-338
74,45,17,-517,-99,-231
77,29,16,-51,-155,-527
85,-18,23,695,-510,-447
92,-28,44,491,-489,-51
97,-8,50,-19,-207,130
97,-14,28,279,-191,405
113,-9,8,643,-156,600
127,10,-5,507,-196,735
88,45,-35,551,-157,742
71,53,-58,475,-498,709
111,77,-21,-337,-309,742
-108,118,1,-664,-154,491
-126,106,-13,391,-78,80
-105,75,-37,1025,-177,-75
-98,74,-47,332,-342,-91
-77,70,-58,-2275,-2551,-7362
-2,-107,-63,-2083,-2382,-7300
54,10,-99,-2621,-2411,-8233
65,116,3,502,-3750,-6684
42,86,-13,770,-2687,-4144
-11,-59,-105,565,-2251,-1350
-116,61,-9,-14,-399,517
12,56,-46,-18,416,1197
-115,63,61,-938,401,216
90,-49,84,858,-1008,161
-16,-60,-17,-380,375,-100
12,75,-97,774,278,261
68,64,111,111,545,618
-74,-104,110,359,725,1419
33,-75,-116,1503,1499,3100
-127,-91,85,590,2605,4887
-32,-87,-87,824,2149,6365
47,-122,-70,-320,2466,5999
100,87,52,1643,1219,6469
-97,-125,-108,-543,678,5844
-110,-19,-26,100,302,6886
118,21,45,-1651,-956,6048
-71,-101,58,-1918,-1499,-568
31,-41,-100,6468,-1435,-2163
-51,120,123,4845,-1269,-482
-21,-49,-111,135,321,-910
24,39,97,-268,155,-858
29,-68,62,748,-370,-616
24,-73,78,366,-468,-330
8,-48,88,-594,-334,12
-13,-39,83,-647,-204,275
2,-8,75,-416,-184,400
27,18,71,-186,35,420
53,47,27,202,-101,150
65,50,14,273,-213,-129
28,42,-2,377,-776,-906
17,7,-11,829,-1614,-558
41,52,50,-278,-219,189
13,57,10,110,-352,157
45,97,18,-132,-151,-2
11,63,40,452,-1434,-5822
-36,-61,17,-779,-2014,-5656
-71,108,55,-2293,-1412,-6594
56,54,-87,773,-2000,-5599
114,-34,28,2942,-1357,-2630
-95,-37,-103,980,-1412,-23
82,79,-16,-1681,1397,990
-44,-114,-2,-764,345,791
96,3,-49,259,-924,674
6,-21,112,204,-263,42
-112,-5,-41,1340,874,779
21,7,-104,1408,1448,2308
109,-93,-112,1852,3017,3851
56,-101,110,917,4697,5291
37,-27,91,2347,3888,7995
-82,-25,1,-694,2921,6976
83,127,67,-1509,1041,5157
12,-72,-117,33,-1198,4416
42,3,37,-2477,729,4007
118,-110,3,-2796,83,2359
-106,88,-25,2073,-2095,897
107,61,94,2640,-807,-320
22,-8,63,1159,-211,-641
-19,-64,26,-10,-309,-648
-3,-114,46,-103,-249,-793
39,83,44,27,-93,-1022
66,74,47,-474,-123,-1482
93,18,38,-457,5,-1771
114,-100,14,251,-110,-1369
86,-107,-3,286,-249,-938
62,-104,-11,73,-135,-442
58,-97,-30,75,-176,124
47,-75,-53,249,-247,448
36,-43,-76,260,-410,938
47,-9,-64,-3,-469,1281
74,21,-49,553,-420,1407
100,92,-45,1005,-699,1143
100,-92,0,-31,-170,699
63,-98,-13,-124,-419,536
63,-97,12,-227,-209,401
-100,7,90,-105,-1547,-6422
94,-92,68,-1899,-1407,-6720
-82,-122,62,963,-2021,-6162
-41,46,-99,1473,-2063,-4661
18,67,38,1014,-1487,-2039
-116,99,116,-175,-631,-200
-11,-9,-121,-657,-407,869
-42,-69,110,789,307,274
-84,3,64,195,4,280
55,123,69,191,286,470
-65,123,119,759,1252,1876
56,-20,113,458,2408,3599
-14,-75,-54,553,2730,5479
-38,117,-66,-499,3036,6263
-34,-30,-115,-165,2498,6928
-89,-70,-128,-603,714,6227
96,-70,-98,-567,-1061,5671
94,84,53,-1094,-1091,5769
21,21,109,441,-1027,2816
-78,41,37,2203,-926,-183
67,70,53,1783,-793,-1086
38,-106,79,572,-255,-968
-39,-84,44,1254,-469,98
10,-16,54,753,-245,284
54,6,41,465,-383,-174
76,-3,57,-144,22,-374
60,-65,60,-12,-99,-393
55,-57,32,-167,-307,-457
84,-15,18,-329,-195,-454
86,-10,4,2,-273,-690
86,-40,-3,459,-228,-415
63,-63,1,660,-311,-175
59,-40,12,241,-65,180
69,-28,-4,121,-170,360
85,-1,-2,-116,-63,523
89,9,-13,135,13,497
96,24,-25,165,-223,765
92,52,-32,-27,-323,390
98,56,-34,-173,-317,471
94,44,-49,152,-599,469
-93,74,-94,-3937,-251,-5375
0,-1,-34,-999,-1210,-6784
-81,68,-125,-220,-1645,-7306
-23,124,-90,716,-2073,-6903
-21,57,-3,1424,-2389,-5475
80,71,-111,1953,-2073,-3670
-55,-10,41,672,-1383,-739
79,-55,92,-1255,94,620
-12,-92,-41,-964,437,1002
-107,82,89,-384,100,746
-63,-101,77,279,43,475
59,36,-111,983,565,723
-27,29,-77,2662,885,2082
39,15,-50,-31,3066,3248
-121,115,109,-927,3763,3913
-17,41,-4,861,2872,6445
94,12,-65,-673,2285,6527
14,-111,59,-79,1566,7378
9,35,-127,-640,1095,5715
29,-8,-64,-1146,-842,6224
127,-80,59,-4077,-1829,2149
-29,67,89,1192,-1478,-895
27,-24,-90,4630,-822,-1555
28,-124,-111,3001,-230,-1041
-6,61,89,1717,92,-439
-40,22,30,541,-284,56
6,59,37,-684,-120,148
55,61,37,-744,-54,-136
53,27,31,292,-301,-503
57,-1,37,664,-212,-549
47,-10,23,277,-241,-494
36,-22,11,-69,-200,-250
28,-26,-4,-218,-262,31
35,-9,-3,-250,-191,356
44,7,-7,47,-206,485
60,44,-12,22,-207,493
64,63,-15,-49,-339,367
68,77,-9,-25,-270,318
68,81,-8,297,-327,247
94,73,-13,585,-204,284
-28,46,-29,435,324,-7786
78,70,-3,-1012,-3989,-8138
9,123,94,-2276,-3219,-7386
52,-80,-66,-743,-1985,-7128
-95,-26,-21,3214,-1752,-3963
-56,-31,63,2140,-2679,-942
67,-77,33,-929,-481,380
-23,111,-53,-104,26,1374
-70,-90,-105,-209,455,505
-80,-39,63,729,-250,290
31,113,-117,416,480,305
-121,119,-67,1324,1082,1347
-26,-65,-93,1724,2123,3195
73,35,112,242,3431,3964
-42,31,-31,391,3215,5447
95,103,-91,46,2712,7761
-60,123,-111,-1142,2278,5948
-43,-79,-114,-4766,318,7622
79,34,-127,-104,-543,3888
98,-88,16,579,-3216,5283
-72,112,-99,-851,-1339,876
-76,-39,110,1850,-460,-1537
14,-66,93,3525,-807,-1111
22,-91,92,1783,47,-967
-6,97,24,369,-12,-710
9,53,21,366,-327,-472
36,53,35,177,-188,-754
59,23,47,-85,-140,-930
63,-21,39,296,-95,-901
43,-56,8,487,-221,-725
30,-55,7,49,-295,-317
57,-63,22,-79,-37,112
85,-59,-4,427,-48,509
77,-28,-26,320,-303,681
36,58,-23,-736,-390,618
50,69,13,-964,24,820
84,55,-9,461,145,974
105,86,-55,1439,-369,861
116,-120,-40,778,-201,251
106,121,-41,403,-253,-25
-111,-36,-103,3598,747,-3786
-109,1,5,-275,-219,-2602
-61,-107,58,-2090,-2731,-3605
-111,-119,29,-1147,-4509,-4807
-112,73,-124,-2175,-4321,-5521
119,-56,-24,-1388,-4185,-5677
-66,27,-73,1547,-5818,-5436
13,-11,-29,1919,-4460,-3914
31,70,-55,-442,-850,-1582
-125,112,95,392,-540,236
-50,-88,-20,-898,420,1081
90,73,109,136,527,692
-46,-45,36,-163,881,136
25,-108,86,152,761,140
44,-81,107,294,567,217
87,-105,47,-516,638,173
-59,67,89,-834,1156,60
65,14,-65,268,1719,1878
-104,-69,-34,-262,3560,4042
34,126,-128,353,4384,6244
-39,97,-35,2987,3618,6952
-48,-20,99,87,4020,7079
-105,78,-90,-750,2770,5689
-87,17,60,2368,-426,5022
65,77,-101,-3963,301,1844
-102,-128,-95,-1258,-1487,1058
36,11,106,260,-618,594
106,-5,27,-2284,1416,-841
-116,-125,54,-7,-234,-258
-10,125,98,1068,-119,-1164
98,114,63,-31,134,-943
-82,71,79,-445,-141,-1706
-74,4,82,-257,-30,-1906
-99,-53,68,43,215,-2113
123,116,25,587,107,-1919
101,85,17,276,-55,-662
76,92,3,263,153,8
51,99,-28,667,164,732
76,110,-51,862,-104,1697
60,-53,-55,895,-392,1949
-107,96,-71,-208,-2763,-5209
-83,-21,-56,-832,-3476,-6092
73,65,-31,-1672,-3732,-6037
-1,-70,81,-2714,-2797,-6423
116,50,-60,855,-1994,-5389
-85,64,108,1572,-1793,-2926
-18,79,-27,299,-574,-426
-117,63,-77,-907,150,783
-22,-108,87,-898,200,502
-81,-89,56,627,-243,574
-1,-42,107,-166,56,265
-68,-15,-79,452,663,1108
61,35,-93,1472,1652,2506
-87,-36,116,692,2755,4178
97,22,0,-1102,3331,6041
-86,-85,-54,-2613,2094,8295
80,-21,91,1734,685,8818
-107,-81,-115,-412,683,7960
-14,-102,-86,176,-449,3940
55,-5,18,-2628,-1947,3145
30,-16,94,-554,-2233,644
100,50,-125,2833,-1080,-675
15,-106,-107,3496,-237,-846
18,118,-119,1726,311,-495
-18,80,80,508,2,-260
16,51,79,55,-161,-254
61,31,98,5,-86,-510
54,14,81,200,15,-946
70,-44,62,612,-33,-1112
55,-79,48,482,-143,-864
31,-99,31,135,-129,-251
34,-86,16,-141,-157,226
40,-57,0,-245,-249,420
66,-25,3,-284,-276,616
73,-4,1,-50,-253,679
79,17,1,73,-298,754
85,56,0,99,-300,705
76,77,-1,188,-322,558
77,100,0,78,-283,378
79,102,-1,100,-246,232
86,-126,-117,-1264,130,-5848
103,-61,104,365,-1090,-6212
-111,-46,80,-3275,-608,-6708
87,20,26,-590,-921,-7290
-103,-101,127,3111,-2774,-5423
27,86,33,1472,-2196,-2599
-93,110,-106,-149,-934,-462
51,-111,121,-852,323,573
-51,99,47,-287,-575,608
-101,-41,86,516,-536,421
-30,49,-81,2,68,-202
16,-87,-107,310,-3,65
66,111,92,496,92,387
86,101,77,215,223,694
-57,-44,111,601,691,1443
91,-27,118,1453,1942,3472
-40,31,71,80,2880,4331
79,-13,-41,707,2657,5668
-17,8,-123,-1416,1383,7504
23,-128,111,-3015,-464,6403
72,-1,8,-415,-2500,5341
-24,-21,90,-1440,-1430,4260
110,23,-67,2642,-2460,3272
-3,-96,-73,2230,-472,978
93,111,-125,1499,-551,-221
26,-99,-125,1567,-269,-519
0,88,106,1124,-54,-427
-22,52,76,575,-93,-327
1,30,62,151,-19,-213
36,21,52,118,15,-424
58,-3,41,164,-222,-688
59,-23,45,142,-199,-755
56,-44,38,32,-182,-696
43,-69,22,-37,-243,-396
33,-67,14,-169,-244,-23
33,-49,11,-382,-227,315
48,-14,11,-318,-166,525
57,0,0,198,-208,694
69,44,-9,86,-216,769
70,73,-16,-40,-219,712
10,123,22,2415,-2604,-7477
46,109,19,-2478,-4215,-6541
-51,-108,-100,-1466,-2737,-5777
-46,96,34,2197,-2048,-3688
-61,118,-92,1407,-1140,-748
-115,81,-109,-478,154,238
22,77,1,-27,332,477
-44,-22,-32,-91,-264,249
-42,-21,21,95,-597,203
55,-10,105,-6,76,-96
118,106,108,80,71,497
7,-62,108,63,1027,1635
95,-28,77,490,1749,3472
-27,-72,43,418,3124,5832
-117,22,-47,-389,2823,6769
70,-102,-123,-956,846,7933
109,-5,-49,-2906,291,5848
34,104,9,616,-1986,5044
-1,-84,114,78,-298,2728
114,-33,98,1414,-828,687
-111,78,117,1953,-484,-708
70,-117,106,1974,-287,-606
20,-4,92,1813,-330,-377
25,-27,90,1178,-105,3
59,-46,96,254,-25,300
94,-53,91,311,144,239
89,-99,56,1152,-154,256
43,-79,51,443,-344,473
31,-41,48,-422,-165,560
39,-44,22,-319,-302,881
52,-6,27,-329,-310,1022
64,47,32,-699,-130,1054
86,88,42,-770,-59,762
98,73,25,510,46,-363
123,39,26,966,198,-650
-124,21,21,468,-279,-432
64,10,2,508,-513,-542
40,0,16,-60,-333,-731
100,9,36,-726,610,-1218
-114,28,30,-778,486,-471
-101,25,103,23,-2218,-5751
-123,-83,67,-1608,-2561,-6010
105,69,68,-1411,-2882,-7307
119,-34,-50,2078,-3485,-5866
-105,18,108,2041,-2252,-2087
31,-99,-40,-941,-108,-533
117,93,89,-91,541,345
1,80,33,-645,-42,929
-35,-50,10,189,52,589
-13,59,12,-56,-296,-45
58,-10,55,272,-169,-183
87,-87,94,253,-97,127
116,-116,98,158,222,339
-84,92,84,404,320,781
93,-73,-121,765,1127,1652
-52,-26,-104,565,2635,3413
44,-112,81,-392,3640,5641
-76,113,-46,140,2141,8411
-68,-126,-36,-1227,1921,7300
-20,124,-83,-1524,468,7047
-113,124,47,-2198,-1388,5377
126,-103,-49,-875,-1124,3436
91,28,-64,127,-599,317
45,74,-116,2883,-1046,-1106
43,-111,-112,2780,-317,-1107
16,47,103,1104,-37,-781
-52,-101,56,745,-257,546
-1,-4,61,2,-54,433
53,36,49,-363,-241,-62
48,-7,78,-83,-469,-555
34,-78,85,566,-340,-302
23,-82,86,15,-207,140
41,-34,65,-468,-65,34
49,-35,53,-25,-119,52
49,-46,41,778,-182,235
48,-28,39,1178,-311,291
55,-8,33,860,-121,314
63,20,32,110,-28,256
69,14,21,273,1,216
72,24,5,102,-4,151
26,59,92,-4491,691,-5584
-19,-102,83,-888,-1132,-6120
-39,40,-24,1017,-916,-5901
105,-70,3,471,-1365,-5856
-60,70,-1,1483,-1059,-4877
23,55,53,1098,-1012,-2094
71,-93,107,-2041,642,265
-43,92,32,557,273,1002
-32,-94,37,-876,586,984
10,-116,-7,1107,-210,1008
-55,-38,73,926,1067,1713
45,-63,44,1228,2092,3519
-81,110,-12,879,3402,5640
121,-111,-113,-341,3176,7962
-69,38,75,864,575,8840
-96,-6,-9,-3691,1692,6777
75,72,91,-2714,-1147,5839
91,62,43,-2927,-346,3615
-125,-3,-125,2451,-645,-1473
39,59,84,5054,-2570,-2139
98,-53,119,1890,302,-1642
89,11,13,272,752,-1236
5,-84,-58,1087,-708,-69
34,-42,-11,596,-497,179
90,15,25,-315,-282,-126
94,-8,24,-173,-366,-249
90,-24,38,40,-406,-181
79,-34,34,287,-229,44
67,-25,23,156,-240,306
76,2,2,-37,-269,540
88,25,-1,-10,-160,642
106,53,-14,77,-101,642
117,67,-28,284,-102,526
125,79,-40,392,-154,381
123,88,-50,349,-227,202
115,86,-49,196,-290,113
107,79,-48,215,-287,89
109,82,-40,85,-281,67
112,82,-35,127,-292,12
116,83,-28,171,-259,-58
-125,104,84,800,-2103,-4517
119,-12,-12,5202,-5266,-3612
-77,104,78,811,-4362,-4504
48,-119,-22,-2369,-2941,-3994
-60,-37,74,-486,-1845,-3112
29,-98,-20,-8,-1073,-988
96,55,32,-787,738,609
-19,-19,79,553,151,1056
-36,-93,-15,-113,785,861
87,39,6,824,-478,1479
-63,-113,-113,492,733,2843
17,-17,97,2345,1347,4029
-30,-28,71,1916,4033,5428
-100,12,-81,2377,5726,4849
-125,-68,5,-1447,3387,6085
22,-47,-62,-2109,553,5725
-81,-22,17,4568,-1182,2928
-121,-98,-24,-1887,685,1960
-34,48,-61,-2598,258,1058
86,126,-30,-1486,-500,1713
71,100,35,950,-1001,1623
103,-105,82,1738,-287,912
85,-86,69,1077,-237,-174
46,125,63,642,-524,-687
47,66,91,-83,-291,-849
77,24,87,-211,149,-929
90,-20,67,231,6,-936
95,-51,35,569,26,-961
89,-61,17,365,50,-773
85,-77,-5,186,11,-400
99,-83,-18,165,-41,6
96,-59,-36,-19,-172,233
84,-28,-48,-127,-308,380
116,-11,-23,-447,-215,676
101,13,-33,88,-265,710
116,28,-29,432,-329,851
124,65,-24,149,-292,795
117,85,-23,318,-353,634
124,93,-20,300,-232,449
117,96,-29,295,-330,346
-66,88,17,-2492,-1643,-4790
17,50,114,-2237,-858,-6245
-16,24,-102,-557,-973,-6741
68,22,-77,576,-1430,-6282
-110,3,-41,2012,-1441,-4743
-45,-121,72,867,-2480,-2643
98,-79,107,775,-1549,-194
-27,-76,-47,-1144,184,437
-51,-2,-100,219,-26,632
-39,-58,103,217,-58,307
-1,-92,92,321,100,355
-104,-70,-88,621,719,921
-4,-51,-76,2160,1621,2497
-112,-108,-92,1384,3663,4010
-98,24,28,-2982,6361,6022
2,-2,-59,-1459,1362,9036
-24,66,49,-2518,-1353,7334
35,-84,-96,-484,-2427,5771
0,34,109,-737,-2596,4885
116,105,-26,105,-2324,3934
49,-42,125,2822,-2080,878
115,-66,127,3039,-1216,-1135
17,-41,102,2716,216,-1510
-8,109,48,1865,122,-842
-50,56,21,727,-103,-159
-31,77,15,-231,-199,-4
28,104,37,-846,496,-186
77,64,39,-894,638,-799
66,-4,20,203,-229,-1253
43,-36,29,539,-495,-983
25,-37,34,219,-166,-809
29,-50,25,-152,-101,-482
34,-62,2,-113,-174,5
44,-40,2,-72,-199,259
51,-19,2,77,-113,396
70,-4,-7,249,-169,678
58,25,-22,346,-195,672
62,50,-20,172,-237,776
75,68,-14,208,-160,806
78,77,-15,584,-194,773
60,-60,90,-311,-1711,-5503
-89,-122,124,-770,-1613,-6258
-79,71,-92,-1772,-1565,-7421
-15,14,-85,211,-2616,-7004
-29,-117,19,2499,-3235,-5795
53,-19,-104,2507,-2688,-1931
-60,70,16,20,-868,8
91,60,-77,-584,1321,1162
-85,-90,22,-1132,-123,436
126,-69,15,898,-729,592
3,-15,-119,-96,-159,-119
101,103,-106,396,162,317
-62,-93,-84,731,877,1215
1,123,-119,-428,2146,2120
88,-25,73,-3419,3223,2977
70,54,-115,-257,621,4757
-92,40,-38,-1270,94,6461
-81,114,-20,82,-915,6199
-10,38,43,21,-1366,5186
-80,-115,108,1066,-2088,4652
65,-30,-125,965,-347,3477
42,98,102,1249,-163,4242
59,-61,52,1397,-558,3216
5,48,65,816,-902,1201
-95,-44,84,1414,-688,-316
-36,110,80,1295,-426,137
-52,-120,93,-563,-3,823
25,119,61,637,180,68
5,15,16,2447,-335,-212
7,63,68,230,-70,-541
-34,-83,74,2418,-63,-248
14,-102,52,2451,117,-358
33,-45,39,-119,-26,-416
56,-103,30,-42,-170,-127
59,-91,49,182,-106,-69
27,-66,28,587,-134,-125
41,-40,31,184,-339,94
64,20,51,-419,-268,52
42,41,53,-164,-286,-279
30,-4,60,386,-424,-100
