AccX,AccY,AccZ,GyroX,GyroY,GyroZ
-75,-88,-5,-991,2269,-5502
4,121,65,1431,1950,-7994
-25,-25,-117,2043,1198,-9917
-36,-32,111,411,1193,-10605
-104,100,85,-2088,1273,-9027
122,66,68,443,1037,-4001
-127,106,-68,1349,-587,1278
29,-99,94,1573,-1640,4294
-23,-89,-24,1120,-2504,4556
3,101,-67,928,-630,5731
106,-13,-14,2077,-1713,6493
-108,-3,8,-1997,-1720,2558
107,-13,-28,-1636,-1510,3420
94,-39,-33,1771,-1908,2572
-93,47,14,907,-622,3045
-59,63,117,-575,-2335,2358
-8,-15,42,1311,-967,1908
103,108,-7,535,-434,1582
52,-125,-52,2751,-537,2670
3,3,-30,1489,-872,715
41,-47,-87,1865,923,657
55,-94,-14,-831,197,-636
112,-108,-86,-1427,134,-424
-125,-106,100,-620,3,-170
120,-88,125,-1527,-647,-691
-121,-71,85,-1556,-584,-789
-86,-66,36,-479,53,-286
-81,-59,45,262,442,196
-106,-52,88,-435,-50,-182
-112,-38,90,-645,-305,-365
-95,-37,74,-342,-228,-248
-109,-26,100,-944,-477,-477
-98,-16,62,-393,-38,-264
-105,-15,83,-614,-254,-255
-105,-7,76,-400,-89,-161
-99,0,77,-328,-16,-54
-106,3,85,-436,-143,-169
-93,10,82,-296,-8,-50
-96,12,85,-468,-23,-154
-96,15,75,-375,-72,-195
-36,-97,35,455,5533,1162
-53,-66,-9,-4428,4248,-2390
-73,33,99,1701,3694,-2582
85,-46,24,3197,2334,-6790
-19,-37,-80,5608,1715,-8586
124,-56,-9,2978,182,-10566
-36,109,-117,239,86,-8694
-114,13,17,-2293,-287,-6799
112,-102,96,2965,-1585,2904
91,-102,26,2124,-3603,4311
-35,84,-85,716,-3958,5802
-114,86,-15,3355,358,10286
34,58,112,1383,-3790,2701
-3,109,100,-2505,-1601,1503
-81,-124,82,1549,-906,5668
125,-127,-66,-2147,-717,3076
-24,-30,66,-2575,-2364,1194
46,41,-65,2162,-1279,3279
32,-121,-48,944,-2281,837
127,83,-120,2687,-623,857
-122,69,-58,2565,84,1659
70,14,27,-165,-912,375
27,-2,-56,-602,-65,-78
58,-59,-70,-1893,-481,-1248
-114,-75,63,362,714,-195
-109,-64,106,66,629,91
-127,-50,-127,-1156,40,-462
-110,-39,78,-1107,-45,-767
-73,-44,52,-741,107,-563
-69,-31,51,140,170,-20
-87,-36,88,-590,-262,-308
-86,-27,85,-609,-339,-272
-82,-22,72,-35,-40,48
-94,-23,114,-653,-409,-195
-89,5,96,-486,-123,11
-106,11,97,-647,-201,-272
-90,13,77,-285,34,-128
-94,6,88,-441,-89,-232
-85,14,83,-327,-47,-64
-90,18,93,-482,-133,-196
-76,-117,17,2308,5605,943
-28,33,-63,-45,2038,-7774
10,58,-58,4924,501,-12318
-101,-73,-97,-360,-280,-12170
81,81,-93,-3538,449,-10602
-46,-111,90,-2650,808,-4882
62,101,-7,1909,-1976,2855
126,35,-103,5209,-3580,5062
62,58,-122,1991,-1387,7792
-121,106,67,1461,716,7901
105,4,-126,-3671,-4589,810
97,124,17,1520,-1376,3161
96,59,-114,-1283,-2086,3330
-118,31,-119,-2144,-1973,1372
-5,-32,-47,2086,-1061,2778
38,-19,-6,1425,-1935,2879
47,-105,-55,115,-1593,807
108,-106,-104,1482,-665,980
-109,115,-109,2535,-121,1682
77,49,-28,440,-771,424
41,10,-37,-670,-693,-234
49,-25,-90,-1200,-265,-764
93,-36,105,-588,344,-452
116,-37,75,504,892,54
110,-39,121,-546,406,-501
-127,-46,91,-729,232,-642
-101,-46,80,-675,47,-436
-94,-30,88,-1082,-341,-434
-94,-11,75,-1161,-403,-404
-94,-6,50,-603,-163,-253
-91,1,53,-20,103,12
-100,4,79,-343,-125,-84
-99,10,76,-260,-158,-35
-105,14,78,-176,-77,-4
-107,19,91,-520,-246,-122
-105,28,79,-422,-198,-103
-107,23,80,-294,-113,-209
-96,22,95,-548,-100,-246
-92,23,88,-542,-112,-208
-93,22,80,-539,-170,-217
-72,7,105,-3268,2222,-1990
-47,-3,37,-289,5188,-965
-76,-114,-75,2160,2722,-7099
57,39,86,4783,2925,-12106
-54,21,-116,-3591,-925,-14418
-116,92,90,-5034,1099,-10896
126,-17,-45,-1667,352,-4044
-83,-125,-26,8369,-849,6074
2,108,-121,4687,-3595,6064
-28,114,10,-2057,-309,8651
-74,106,15,1560,564,8367
31,124,42,391,-1101,3946
-116,111,60,-2154,-1369,3997
-127,-86,-82,-4160,-6040,1953
-44,-80,-11,606,-5034,-195
-33,-123,-41,8321,-167,5253
62,32,-127,370,115,2080
-17,123,38,-4765,-1402,-1589
87,102,47,422,-326,-236
113,47,105,3922,-545,1486
57,-1,-2,623,-1442,287
9,-17,-22,-1311,-522,-721
61,-38,-99,-1360,665,-869
119,-46,88,-278,1378,-391
-117,-52,81,62,1383,-351
-101,-44,91,-435,778,-466
-92,-44,89,-810,148,-463
-82,-25,72,-943,-265,-384
-71,-19,51,-570,-103,-225
-70,-10,56,-377,-97,-175
-80,-6,68,-398,-248,-174
-76,-5,69,-257,-231,-8
-85,-1,81,-445,-373,-34
-93,8,77,-213,-315,41
-100,11,91,-419,-342,-47
-94,17,91,-451,-262,-47
-103,17,83,-258,-106,-77
-98,21,87,-354,-32,-100
-99,22,89,-486,-168,-185
-96,24,79,-385,-108,-179
-111,-2,67,1539,4515,1765
127,41,109,-4802,3545,-3992
122,-81,-33,2138,6447,-3703
-17,10,99,8836,3260,-7212
84,-28,-19,-4859,-2394,-15797
90,-94,25,-1945,2020,-10049
-46,-33,-66,-3016,1491,-6865
-84,-62,-116,-2416,-327,-70
-10,47,32,3696,-1904,3970
-15,0,-109,4044,-1188,6542
16,36,104,2514,-1382,7941
-60,12,104,2427,-15,5357
-21,31,111,-3726,-3566,1116
109,114,3,1387,-474,4772
71,-61,-103,-5010,-4214,1675
-87,86,15,857,-2503,3529
-19,-28,81,-987,-1327,2001
58,-15,32,566,-926,2324
113,-85,75,422,-463,1942
108,67,43,-676,-1536,703
119,73,-40,1860,-685,1407
110,5,20,420,-1000,548
79,24,19,-500,-689,1
66,-10,-21,-925,-641,-637
109,-37,-107,577,248,-257
-122,-45,-96,839,790,-175
-97,-55,-70,-104,626,-453
-87,-52,-104,-507,218,-619
-87,-53,-120,-988,-452,-905
-71,-48,108,-788,-340,-589
-57,-33,92,-122,65,80
-71,-23,121,-537,-248,-80
-75,-12,111,-215,-185,-42
-79,-16,124,-312,-239,-107
-77,-9,125,-358,-209,8
-85,-3,127,-453,-272,-24
-83,7,122,-454,22,12
-88,13,-119,-611,-128,-102
-88,16,123,-215,-158,-124
-87,12,126,-188,-86,-161
-90,-12,33,443,3133,-6165
-8,51,93,871,2612,-11075
60,-18,107,-3600,4026,-13072
28,74,28,-6508,2026,-11109
97,117,-87,-10140,254,-7332
96,101,-97,2994,-416,2275
-87,97,116,6141,-3034,3221
-22,-44,123,6954,-1370,8926
-13,-22,-95,6583,438,13269
-99,84,5,-1685,674,3264
4,-101,-96,-8244,-6117,85
111,-88,33,2624,-3200,5463
-89,-18,-55,-2292,-5841,2487
75,32,99,-163,-4586,2097
-112,39,23,2385,-1139,1868
-106,18,-6,3871,-135,1701
95,-119,121,1789,-1876,607
65,87,92,-288,-710,1240
-10,-10,-115,1400,1409,758
-17,-37,-102,1937,1434,-111
46,-90,-9,-493,-80,-1139
-117,-103,-94,-301,733,-609
-107,-102,-120,-364,784,-303
127,-86,-74,-2026,-554,-1411
-80,-57,109,-2053,-402,-1368
-68,-48,76,-739,-3,-544
-95,-38,123,-1670,-878,-996
-86,-4,60,-247,-354,-240
-102,8,66,838,361,124
115,6,-112,-615,-681,-652
-128,22,114,-456,-512,-455
-120,24,116,-577,-277,-293
-120,24,100,-243,78,-40
-118,28,99,-246,149,-1
-121,31,95,-97,95,-76
-120,29,101,-249,-61,-170
-110,22,108,-485,-193,-191
-103,27,94,-266,-59,24
-113,29,103,-351,-195,-131
-109,33,108,-379,-205,-149
-88,92,113,-2896,4231,-2775
-92,-96,111,4832,5983,-3308
4,-11,-29,3203,1244,-12117
105,-87,-113,1146,478,-12908
105,9,-14,-2816,772,-10514
87,-80,92,-5358,1207,-7449
34,-4,8,4102,1450,5345
62,118,-78,11664,1958,11981
-128,89,33,-2085,2045,6916
61,-59,-22,-16839,-9614,-29
-105,-19,93,5527,-3386,4999
-53,50,12,2542,-465,6033
-96,-4,9,-6523,-5163,876
-98,48,-5,-124,-2012,2779
20,-2,71,6770,1504,9311
-112,56,2,-2116,-1540,2518
-103,-62,86,-2118,-3951,76
-118,-67,-73,5461,996,3924
-27,-13,71,-277,-958,-869
35,-49,-68,340,-610,-1780
123,-44,-97,591,221,-804
-126,-72,-67,-1681,-371,-1260
-98,-52,101,-1516,9,-837
-93,-52,77,-878,48,-886
-78,-57,66,273,210,-622
-69,-79,111,25,-2,-651
-67,-66,123,-473,-265,-542
-70,-49,-121,-1327,-709,-665
-64,-34,89,-1018,-525,-269
-67,-29,62,43,97,243
-80,-12,98,-389,-178,164
-95,12,103,-512,-318,149
-104,18,95,-518,-386,12
-109,17,93,-394,-356,-58
-101,24,98,-262,-90,-19
-108,25,105,-386,-128,-176
-105,22,102,-389,-101,-249
-94,20,105,-381,-49,-196
-92,22,103,-464,-15,-229
-91,23,96,-434,-53,-242
32,50,46,-988,6556,-3678
-75,93,-110,6289,4831,-11434
-40,-83,-83,1839,1532,-13540
-4,-111,-118,-6117,-479,-12600
108,-5,-9,-6915,1544,-7425
69,-44,78,315,-566,2823
1,-103,7,6019,-2194,7072
-40,52,-52,3727,-1920,9229
-95,86,-76,2700,-1474,9203
-44,-28,66,-6136,-3115,2474
79,-39,127,-2867,-4153,2965
-33,-83,115,2242,401,5450
-114,61,48,-4676,-3169,515
29,84,91,786,-27,2120
-1,-20,-36,-2262,-2057,112
70,-81,36,-147,-1616,701
127,-102,12,2782,76,2568
83,78,99,249,-1697,1113
92,46,34,1159,-1294,1235
45,12,64,432,-2336,323
46,2,-32,438,-2099,-428
70,-16,-80,288,-292,-1119
112,-12,-97,-363,893,-705
-118,-26,-103,-1825,297,-817
-118,-11,98,-988,136,-700
-97,-5,62,428,597,-180
-91,-24,-122,-749,-137,-484
-86,-8,105,-506,-103,-233
-88,-7,112,-626,-300,-310
-84,1,112,-462,-233,-141
-89,10,116,-534,-197,-97
-95,15,117,-518,-323,-50
-101,26,118,-365,-327,17
-110,30,124,-338,-360,-6
-109,33,-121,-516,-248,-55
-106,41,-125,-328,-100,-7
-110,43,-121,-429,-77,-171
-105,40,-127,-360,7,-146
-96,42,127,-440,42,-136
-97,43,125,-433,-57,-207
126,-116,-47,-494,3293,-4494
-47,37,67,4687,1499,-10557
-42,-62,-63,-474,21,-13879
35,37,-115,-3613,420,-11885
-118,-98,67,-17457,-2184,-12085
69,52,71,5318,278,1992
-37,-122,77,9361,-293,11252
-106,79,12,2901,-3647,5863
-57,-114,-85,2318,-2782,8459
-69,71,-20,5771,-449,6981
45,74,40,-7008,-2713,-493
-97,-105,84,876,-2274,4688
49,38,83,942,-42,4995
116,10,22,-1131,-798,3083
-116,60,-54,1309,976,4318
102,-105,59,-624,-1272,1207
100,59,22,-1250,-1936,-680
-107,24,-36,915,-764,357
107,-21,18,-227,-1051,-153
90,10,-68,1355,434,313
64,-41,10,-1516,-1323,-1252
98,-15,-112,36,-568,-810
115,-30,-113,-369,-629,-944
110,-29,-116,-957,-684,-1097
-114,-6,126,-1283,-353,-880
-98,-2,112,-1201,-283,-615
-128,-8,105,-805,-334,-339
-123,16,103,-726,-111,-100
127,39,104,-603,20,-226
-128,51,102,-415,-66,-225
118,44,115,-627,-306,-360
-123,48,108,-568,-218,-96
-126,57,101,-408,-200,41
-128,63,98,-356,-262,34
117,60,93,-13,-211,30
123,54,115,-299,-180,-145
-107,58,115,-202,-3,-39
-116,53,120,-307,-92,-233
-117,43,122,-477,-132,-305
-103,46,114,-486,30,-145
55,-122,95,1559,3694,-2415
-108,-50,122,-2386,2399,-6236
23,44,60,4696,1513,-7585
-61,-100,69,2066,-480,-11425
57,1,-99,-2936,-780,-12457
91,90,-67,-8829,-553,-11703
49,-102,1,-5732,-317,-3958
113,68,14,10790,735,9361
78,-81,98,3042,-3237,5582
0,-123,98,3870,499,11104
14,74,55,6527,1574,5969
92,86,-52,-8358,-3202,-129
-31,-67,-17,-811,-2221,4456
50,29,-119,-2515,-1449,3145
-40,51,85,-757,-1242,3524
23,32,61,804,649,3546
-31,47,-126,-1532,-1178,1728
2,96,37,130,-1134,239
92,100,13,1889,343,1741
72,2,115,-1715,-1284,-172
121,21,-20,697,-514,724
112,-15,-6,711,-582,236
102,-22,22,-923,-1059,-833
-121,-11,-40,-672,-560,-494
-102,-4,-57,-818,-285,-372
-105,-3,-69,-565,-155,-218
-100,0,-71,-258,60,-15
-101,1,-60,-489,-85,-189
-94,6,-66,-406,-17,-101
-94,5,-67,-545,-39,-211
-83,11,-74,-414,11,-120
-87,15,-65,-493,-163,-110
-88,22,-67,-456,-177,-167
-92,25,-65,-487,-203,-227
-89,30,-60,-548,-190,-231
-86,32,-56,-558,-157,-185
-90,28,-61,-224,-11,-87
-90,32,-44,-573,-163,-144
-88,38,-60,-307,-73,-113
-88,39,-50,-516,-98,-160
63,-127,-62,1625,3376,-3345
45,51,118,1501,1895,-10888
-72,-60,-110,2310,1826,-12304
78,-97,117,-5682,187,-12464
125,54,-38,-9399,-63,-10200
83,-52,-9,-4770,-2184,-4830
70,111,-123,10252,-622,8564
-13,-89,120,6142,-4884,5394
100,-115,-70,11257,1923,17699
123,-59,43,5590,2041,6717
41,-97,-57,-16614,-7486,-4318
-75,-128,48,7594,-397,8394
-50,113,-58,1819,1150,4814
-31,20,-55,-6128,-4211,-338
38,105,-53,3997,674,3385
31,-82,57,762,-323,1289
-3,88,54,-460,-1040,-556
88,16,-50,752,194,462
114,-22,-74,1706,711,1321
106,-47,6,-39,71,419
124,-49,-35,-105,96,11
-126,-67,-43,-334,-172,-451
-90,-74,-57,-642,-74,-509
-80,-74,-78,-555,-9,-439
-64,-72,-82,-591,24,-344
-64,-64,-89,-395,-81,-119
-69,-51,-72,-685,-207,-202
-75,-36,-83,-497,-214,-180
-71,-27,-84,-544,-163,-204
-69,-17,-92,-425,-88,-114
-76,-11,-93,-453,-175,-160
-77,-1,-94,-524,-169,-205
-73,8,-94,-580,-201,-226
-87,17,-97,-533,-288,-296
-101,22,-79,-887,-500,-626
-78,17,-81,-556,-162,-306
-76,14,-79,-253,-1,-71
-92,22,-64,-469,-110,-149
-91,31,-65,-491,-125,-156
-86,40,-76,-513,-58,-194
-35,-65,-78,-4408,2321,-4538
18,-3,41,7425,3294,-5634
99,-41,-103,2742,-906,-12141
-2,-87,-116,1576,2117,-11064
-113,104,85,-3784,-857,-10132
86,102,125,-6415,256,-7101
-78,5,-36,949,-1441,187
39,-56,112,5461,-918,6660
-23,-78,74,2720,-3163,6333
22,97,12,4997,-1628,10803
123,35,-62,6947,2805,9728
-83,31,-4,-15984,-5513,-4310
64,74,-33,5620,-1516,6541
-95,7,80,1781,1366,3643
-60,-3,-118,-5212,-3192,272
5,11,-85,2381,33,2345
42,-110,17,-140,-881,987
70,110,-15,148,-1088,678
92,69,-27,87,-1090,570
92,52,-58,442,-1033,414
62,38,-76,544,-1025,102
79,20,-60,-270,-172,-164
113,0,-82,-270,523,162
104,-14,-110,144,553,129
107,-18,-88,-465,5,-272
-121,-16,-112,-553,5,-228
-115,-17,-118,-718,-50,-368
-107,-13,120,-209,109,-182
-87,-9,-114,-429,185,-183
-84,-14,-127,-284,179,-200
-76,-14,-120,-416,91,-172
-72,-9,-116,-495,-56,-160
-73,-6,-123,-436,-74,-159
-73,0,-121,-448,-138,-125
-73,10,-116,-562,-208,-131
-72,14,-119,-431,-171,-74
-77,18,-121,-318,-94,-84
-78,25,-107,-590,-225,-180
-77,27,-119,-400,-117,-76
-85,31,-118,-429,-161,-179
-90,65,-102,-246,2620,-4629
38,72,104,4136,1926,-12070
-14,-66,119,-1430,1099,-13802
24,120,104,-7352,52,-12033
14,-81,126,-13737,-1877,-12874
-83,-98,-83,4415,119,1639
27,-9,36,8308,-925,6861
122,93,82,4003,-3253,5032
-19,-60,51,6872,1420,12367
26,63,-38,13183,2197,10772
-52,22,66,-15841,-5657,-3461
76,76,63,-331,-4695,2840
-51,-109,77,7545,2752,7118
-75,1,-18,-5725,-2535,-104
-63,80,10,330,-643,2037
0,101,-29,379,-658,950
62,87,-38,1263,-680,1117
87,58,-21,789,-389,939
90,32,-55,760,591,586
83,18,-23,-1003,-22,-306
100,-3,-102,-633,-480,-722
-128,-12,114,1258,292,67
125,-40,-73,-820,-311,-626
-107,-14,-125,-862,114,-212
-107,-16,-107,-1460,108,-377
-100,1,-119,-1058,15,-403
-94,1,-122,-117,82,-146
-87,2,-89,-557,100,-192
-87,7,-96,-585,122,-171
-83,14,-105,-323,13,-72
-86,19,-95,-479,-189,-144
-86,25,-95,-514,-216,-125
-84,33,-91,-616,-153,-150
-83,36,-98,-419,-147,-134
-85,36,-97,-399,-114,-206
-85,38,-86,-515,-170,-210
-82,39,-95,-384,-89,-165
-84,42,-88,-396,-145,-207
-83,38,-86,-412,-159,-190
-83,44,-83,-478,-202,-208
-79,62,-126,1542,4516,-3553
16,42,80,3186,3428,-9981
-52,-93,122,-1641,1246,-13743
-87,110,38,-7073,720,-11894
90,-50,120,-8890,230,-9464
117,86,-14,1920,-915,1131
-17,93,62,5889,-2885,5501
-43,70,37,3625,-4843,4275
92,-108,92,10279,903,15445
82,118,69,7665,2329,9727
-127,-58,29,-14430,-6860,-3374
-42,95,19,5084,-2136,3933
56,-4,78,3186,-964,3310
-127,-37,93,-3672,-3210,725
123,88,-101,3514,581,3779
28,-25,-4,1067,-424,1736
-69,118,-50,-578,-681,-688
-16,29,-128,781,415,-991
68,-23,-109,174,607,-982
-112,-41,105,550,1258,17
112,-69,-118,-84,128,-282
120,-86,-128,-60,115,-472
-98,-113,-103,-312,88,-757
-50,-118,-120,-85,610,-229
-46,-103,-128,-285,554,125
-68,-72,-113,-1233,-294,-307
-57,-39,87,-945,-257,-17
-68,-35,73,-592,-224,-88
-64,-13,67,-233,10,92
-78,-15,90,-454,-247,-184
-76,-17,85,-252,-184,-114
-76,-19,109,-360,-278,-139
-72,-12,114,-455,-192,-120
-78,-7,112,-375,-90,-220
-75,-11,110,-362,34,-217
-71,-6,115,-649,-56,-268
-68,3,99,-461,-86,-185
-72,7,103,-454,-168,-206
-71,15,116,-632,-238,-260
-66,27,104,-447,-39,-171
-65,-39,-72,-1341,250,-7808
-16,-33,78,3439,2947,-10112
62,108,106,-1455,1519,-11894
41,-124,-45,-4218,1290,-10029
-57,12,38,-10136,-1406,-6936
-111,-40,-11,2197,-3816,-153
6,88,67,9436,-1683,9419
-115,51,24,5925,-3192,8697
-52,-106,40,7118,2347,15673
-107,-1,38,-6728,-5537,-460
117,-111,91,-737,-1251,2226
-122,-117,120,1282,-2095,2913
-102,14,43,-25,-926,1180
18,22,-26,-1241,424,2353
-5,-58,-63,-2262,-684,748
61,87,114,1489,-346,665
-111,69,121,4597,2055,2964
57,25,78,237,-120,492
42,3,49,-4363,-2536,-2488
-128,52,113,-113,143,-292
-102,4,-101,-813,226,-353
-119,8,115,-92,267,-168
-113,4,-113,-524,-291,-458
-110,11,-126,-271,-307,-377
-100,16,-122,-574,-469,-421
-101,13,123,-522,-303,-324
-88,26,117,-570,298,29
-95,35,-123,-725,-59,-8
-96,34,125,-377,139,-66
-91,38,-115,-301,9,35
-95,40,-103,-636,-77,-164
-85,41,-113,-434,96,-41
-76,45,-115,-377,189,19
-80,42,-118,-172,124,7
-82,41,-99,-411,-183,-177
-79,37,-106,-320,-59,-137
-75,41,-93,-519,-151,-210
-72,43,-102,-298,-117,-164
-77,41,-91,-384,-173,-216
-77,44,-86,-598,-214,-308
-4,38,-35,577,3785,-2816
24,22,87,1637,1966,-8347
-50,-63,115,-547,2510,-12834
37,45,119,-3190,1978,-10746
60,103,80,-15139,-2661,-12908
123,-90,-18,-6509,-162,-5331
-11,67,14,12461,-123,7612
-44,-16,-78,8171,-3700,3031
-99,-32,-90,14226,819,18237
-128,19,42,9958,2537,8833
84,-125,1,-19450,-8574,-4538
-114,-63,22,4866,-1643,4234
20,3,105,3041,1286,3637
-17,-5,-111,-2538,-2326,100
13,26,-65,2232,424,1749
-3,104,-41,-659,-716,-173
33,89,-118,1554,19,383
47,9,-42,-278,-853,-436
102,4,127,586,592,588
98,1,-98,-263,143,304
85,7,-114,-540,-290,-57
81,-17,-121,-583,-591,-518
115,-24,115,-461,-113,-379
-124,-24,103,-419,244,-156
-127,-19,102,-563,116,-279
-119,-9,97,-651,-51,-336
-110,-9,84,-432,-123,-281
-109,-10,87,-298,-172,-60
-118,0,105,-658,-286,-197
-114,16,92,-567,-159,-189
-118,18,88,-420,-106,-295
-108,17,96,-537,-72,-305
-96,17,84,-329,7,-154
-101,16,90,-338,-157,-118
-105,19,96,-416,-177,-137
-105,32,98,-513,-171,-150
-104,35,95,-473,-121,-225
-97,35,90,-364,-10,-190
-96,34,91,-388,-95,-155
-95,39,93,-494,-151,-145
60,-27,108,2040,880,-12544
-119,16,127,-2548,241,-15083
-100,-128,42,-7166,-186,-13457
30,-115,13,-10232,782,-10924
100,6,-26,1537,1354,-450
-28,-107,-51,8059,2732,8273
61,110,107,4004,-1019,9167
69,-119,35,2368,-583,11945
25,-3,-110,3014,1881,8921
5,67,-105,-12733,-7770,-2810
-78,106,-96,4151,-2291,4040
-125,-121,41,5440,2734,6590
37,54,-57,-5208,-2637,323
55,69,-97,1646,-244,2017
51,-116,-64,1624,247,1390
21,71,-18,-1642,-1427,-820
64,55,-114,-411,-501,-260
102,9,-107,-972,-353,-613
-114,-1,106,732,696,192
-125,-16,-108,146,490,-140
-126,-13,-89,-834,-97,-745
-93,-20,-123,-615,-71,-582
-71,-16,116,-368,236,-331
-70,-16,115,-424,160,-362
-68,-12,115,-486,-17,-310
-65,-4,116,-544,-147,-284
-63,-2,115,-422,-127,-142
-63,6,120,-448,-82,-55
-65,17,119,-494,-119,-55
-74,14,116,-412,-130,-90
-69,23,121,-443,-130,8
-74,30,118,-372,-134,20
-77,37,120,-408,-126,-33
-81,36,118,-360,-75,-164
-70,41,127,-427,-74,-155
-72,38,119,-267,21,-183
-69,36,127,-449,-59,-204
-65,41,123,-463,-60,-229
-64,41,115,-305,-49,-175
-64,41,126,-510,-104,-237
63,5,108,1821,1189,-11508
13,-52,-110,-2271,-290,-15703
-72,30,45,-12150,-2723,-16225
102,89,-72,-10639,-1415,-12791
-26,24,-110,8069,2832,9268
-67,-106,-21,6537,-2435,6674
97,-37,-34,9035,1999,16135
-92,-25,-75,12006,6764,13648
82,44,65,-21751,-11010,-8284
-22,-30,-90,3836,-1781,2669
-83,80,-3,8148,2908,6211
-104,-3,-62,-6185,-2598,-1175
-53,91,-33,1070,-175,1512
42,-107,-5,566,-289,1033
57,-120,-32,1441,607,765
80,93,23,-1391,-429,314
98,69,-84,-497,-712,462
97,82,-96,552,-162,1100
82,63,-55,-1126,-612,-182
-123,46,111,642,251,594
121,10,-109,200,33,54
-100,27,-110,-57,358,304
-123,16,-89,-459,-398,-118
-121,8,-110,-271,-233,-402
-89,1,-104,-305,64,-276
-84,1,-104,-538,40,-276
-83,0,-122,-464,71,-301
-70,10,-124,-408,-81,-202
-67,12,-118,-570,-95,-260
-67,17,122,-339,81,-214
-66,21,-119,-588,-83,-215
-72,31,118,-403,-200,-277
-74,43,119,-725,-348,-420
-63,39,114,-393,-157,-254
-39,47,113,-111,333,72
-75,38,120,6,131,-185
-76,44,-99,-906,-441,-347
-67,49,125,-368,-153,-169
-73,39,127,-519,-25,-75
-78,51,108,25,138,-96
-86,91,-120,-3185,2650,-4952
-94,10,-115,5297,6050,-6852
36,-10,-48,-2393,-1743,-15004
-2,55,68,-4846,660,-13249
80,14,18,-10442,-92,-11896
88,-60,-100,-745,132,-2105
-75,-73,-96,7203,-1241,6950
-121,43,117,3980,-2750,6684
-10,-104,53,6698,361,11809
-49,85,113,5996,240,6696
-85,-102,-38,-6507,-4418,1729
47,-28,-60,-1383,-2391,1271
-76,-57,47,3513,1621,5296
-54,-108,83,-4179,-112,159
51,26,116,5035,2649,4454
-6,76,-125,-2641,-1174,-87
74,111,-71,-2297,-1520,-301
-116,66,89,1483,274,1511
110,40,-37,-1271,-845,49
-112,55,-107,-343,-423,219
-102,15,-102,59,-533,149
-109,5,-90,-1,-531,-66
-109,3,-63,-1364,-929,-461
-77,-5,120,-275,-24,30
-93,-19,-110,-419,-233,-86
-77,-8,-119,-234,-3,317
-94,-4,-107,-200,-121,241
-100,18,-96,-497,-213,1
-94,20,-122,-471,-61,-247
-77,19,106,-50,247,-91
-73,20,114,-260,58,-250
-64,0,111,6,102,-222
-50,7,-106,-278,-335,-134
-74,7,-87,-438,-660,-284
-106,-3,-85,-745,-515,-482
-84,9,-101,-781,168,-235
-62,29,116,-330,660,-16
-75,28,94,-202,338,-295
-69,22,103,-267,19,-272
-33,26,115,-202,371,47
-45,60,89,284,1746,-5430
-104,3,72,4150,1964,-11887
74,-80,-113,-1448,404,-14822
-119,-45,116,-8651,-919,-13403
-74,-65,91,-22839,-6142,-15550
38,32,48,11641,4414,11563
-88,-122,-101,8248,-5326,5978
52,83,8,5970,-4985,8874
-32,-25,109,17178,6691,19432
-49,113,69,-16844,-5713,-6051
24,56,-98,-4845,-4679,-287
-63,72,31,8068,1295,6065
-77,-44,5,-5366,-3648,-571
-49,23,47,-1556,-2413,29
102,-57,-57,3223,-52,2695
90,111,43,1329,-1205,1592
-114,97,-94,3676,850,2503
43,84,1,2811,1087,1848
47,-17,77,-3877,-1846,-1860
112,19,-110,-1419,-1018,-823
-103,-18,119,-632,-477,-397
-101,-16,123,-623,-233,-333
-105,-10,117,-123,79,-23
-116,-3,-123,-507,-145,-279
-108,3,-127,-663,-167,-304
-104,8,113,-502,-52,-299
-99,7,117,-426,-85,-338
-95,8,120,-491,-120,-243
-88,12,120,-577,-47,-172
-88,20,106,-353,23,-134
-91,23,112,-318,-95,-123
-89,29,121,-629,-172,-193
-84,33,103,-453,-161,-79
-84,38,98,-268,-174,1
-98,37,107,-415,-230,-306
-88,36,109,-194,-144,-72
-92,35,-121,-574,-221,-220
-91,41,124,-450,-120,-155
-88,46,127,-536,-162,-194
-81,54,122,-448,-68,-167
93,108,-58,5664,2651,1377
-83,7,6,-4143,-523,-7168
-1,31,-35,4278,4396,-6576
-2,-7,-107,1268,1595,-13503
-49,-48,-116,404,577,-13110
59,125,13,-17889,-4062,-19166
8,-84,42,-6569,-2274,-8552
94,120,59,14123,2530,14547
97,88,105,3035,-7046,968
-103,78,-6,15378,-390,18100
-42,72,126,8850,5861,8936
15,94,21,-17063,-8486,-4100
75,-29,22,2519,-246,3952
-4,0,119,1764,233,3693
-33,25,-128,-1196,-1216,1587
6,-15,33,-155,-368,1477
31,-87,-18,-171,-1028,874
76,119,-76,1672,-111,1218
88,48,5,146,-832,454
99,57,-48,-151,-273,410
94,23,-56,-452,-460,-75
93,17,-61,-835,-578,-444
101,27,-66,-1501,-851,-644
108,38,-112,-1088,-591,-571
124,48,103,222,150,-150
116,27,-123,11,18,-372
-128,27,-121,-288,115,-386
-112,23,-115,-743,35,-534
-105,21,119,-456,-2,-405
-94,18,123,-526,-108,-263
-95,29,125,-569,-117,-167
-96,38,117,-458,-192,-103
-104,41,116,-415,-249,-114
-99,47,116,-331,-160,-28
-100,48,126,-317,-187,8
-105,51,-124,-338,-129,-76
-100,51,125,-165,64,-38
-95,43,-128,-247,130,-119
-91,37,118,-117,116,-69
-88,40,-124,-462,-100,-157
-117,7,-51,1457,4358,-4461
-123,47,-74,3842,3697,-11795
60,-72,-80,229,380,-14243
-5,36,-111,-8467,-2034,-14776
-14,10,-29,-16057,-933,-12149
-51,-102,-34,10014,5236,9699
101,-14,-42,10094,-2082,5768
-37,-69,-78,-2562,-6654,4045
-108,38,124,12307,-807,14960
-74,26,-27,9417,5170,9696
-70,101,23,-18488,-11219,-5222
119,-92,30,7095,496,5740
-21,-7,-91,2070,761,4034
-80,34,113,-3870,-2454,-53
12,-12,-60,343,-1229,1701
-124,-111,-76,337,-850,1996
101,-75,-92,3587,1127,3202
8,114,90,560,137,835
-16,41,70,-4033,-1761,-1964
51,45,-116,1445,-98,-142
85,-14,-77,891,-497,-624
93,-12,-51,-905,-942,-1397
113,6,-77,-2188,-943,-1035
110,33,-120,-2320,-830,-880
95,59,74,-815,-264,-401
97,46,95,-87,-26,-240
93,49,-120,-703,-202,-463
101,50,-125,-802,-442,-397
116,54,108,21,42,-12
107,53,-119,-203,-190,-64
105,66,-107,-501,-318,-93
98,67,-120,-459,-215,-54
98,79,-120,-707,-264,-146
101,82,102,-228,34,8
90,69,118,-127,-130,-275
114,69,-104,-674,-263,-356
127,67,-121,-551,-61,-268
123,63,127,-489,-93,-251
-126,68,122,-512,-70,-143
-127,73,108,-354,14,-114
-38,49,37,-1542,4097,-2820
-64,66,111,-1228,4239,-9136
10,50,-88,7862,5076,-8738
-100,-6,-75,-7080,820,-16455
-90,-4,-37,-12462,295,-13086
10,102,-63,-8921,-718,-8022
-125,75,-16,11041,4554,11176
116,-36,26,3597,-6661,-566
124,69,2,5147,-5312,7042
48,-21,72,18111,1455,19453
-111,-120,75,116,1612,5043
124,115,56,-17908,-11836,-5151
43,-100,2,8023,2375,5131
66,-118,-55,2749,-1564,2906
73,-67,-36,-4638,-3522,-704
117,-21,14,1478,-1160,2190
88,-111,0,1874,-382,2332
12,86,-10,1497,86,573
4,25,9,727,-187,-381
56,-44,16,-402,-505,-1125
120,-33,-35,-296,-81,-283
125,-33,-74,-711,-5,-254
119,-13,-111,-546,302,-311
123,-1,-123,-787,216,-691
-106,3,113,-983,148,-1031
-83,0,92,-268,372,-705
-82,-16,102,-129,115,-754
-85,-34,-117,-665,-553,-1036
-60,-7,-121,-918,-707,-469
-75,8,125,-844,-698,-138
-104,17,117,-705,-615,-16
-106,40,109,-310,-257,290
-124,52,117,-338,-271,158
122,62,120,-263,-259,43
124,57,122,-233,-116,-72
-126,59,-120,-556,47,-135
125,55,-127,-248,-53,-120
127,49,-118,-332,-138,-326
-115,48,-121,-341,3,-272
-103,48,-124,-470,-3,-276
73,-94,71,-2818,3243,-3714
20,16,98,225,5940,-3611
43,-22,-107,3039,2757,-18580
-25,59,-102,-8720,-642,-18011
121,113,63,-8073,2405,-7698
-116,91,-71,1715,4340,956
-111,-97,-126,7870,-666,4531
-44,52,60,58,-4518,4297
9,-88,-96,2119,-2520,8385
75,-29,6,10683,1585,15329
-29,30,32,-6430,-2266,-1040
-103,-11,-89,-5332,-4320,60
-9,115,44,5182,1231,5679
-82,-105,-29,-3915,-2956,-123
17,-60,15,-1220,-2936,971
125,-23,-53,3650,-562,3623
85,121,45,760,-1285,1030
76,119,-40,1699,-494,1243
25,10,1,-501,-1491,-536
63,-18,-76,-122,-413,-537
95,-48,-109,147,303,-50
108,-59,-124,281,703,494
96,-48,-105,-696,170,153
107,-32,121,-647,80,-58
115,-37,105,-196,37,-277
-120,-38,110,-375,189,-428
-100,-41,106,-488,296,-397
-93,-41,93,-477,174,-429
-83,-46,90,-331,60,-390
-76,-49,91,-299,38,-237
-73,-36,104,-608,-148,-233
-75,-27,89,-452,-109,-226
-73,-23,91,-409,-89,-268
-68,-21,92,-365,-74,-206
-63,-19,94,-379,-75,-70
-70,-11,91,-351,-116,-38
-80,-2,95,-388,-249,-94
-78,0,96,-402,-174,-88
-78,5,94,-333,-100,-67
-86,4,96,-311,-136,-143
1,-39,-76,-3560,3971,-2174
27,73,100,-5652,8148,-7184
-29,2,-112,13084,7670,-7739
7,120,-46,-4737,-4416,-17660
86,-101,-81,-8687,2189,-12303
44,-6,120,-5550,1794,-5321
74,-70,99,-2420,-1621,-1749
98,79,2,8499,-1327,5413
-125,-91,108,3814,-4966,5637
-36,105,87,9429,-3511,10226
107,89,61,11475,3989,14501
-55,-113,60,-15543,-7167,-4309
104,-108,-69,3947,-3320,4077
-39,127,-124,4504,1627,3955
-108,1,-72,-3995,-2930,-91
-69,-23,-44,1201,-785,990
35,118,-82,1755,283,1370
58,103,-59,1487,384,1652
88,36,-37,166,-541,709
118,51,-90,1747,357,1718
30,-1,9,-787,-715,200
38,9,-54,-1236,-425,-323
101,1,108,-731,643,-542
-117,-5,97,220,798,-316
-117,-33,96,325,691,-503
-96,-55,-126,-483,-7,-611
-68,-43,-127,-619,-124,-295
-73,-34,-123,-622,-129,-451
-58,-26,-117,-359,-70,-443
-41,-23,-106,-413,29,-325
-47,-28,-103,-750,-9,-322
-55,-8,107,-529,199,-67
-91,-23,86,-269,-97,-260
-54,13,125,-318,-463,-14
-89,30,-102,-990,-708,-407
-94,20,110,-509,-111,-277
-78,23,118,-358,-76,-103
-68,45,-111,-691,-330,-67
-91,39,125,-140,-153,14
-103,36,-101,-789,-213,-306
-114,120,98,-3574,2948,-7520
73,64,122,7823,6028,-7260
-76,-117,-83,-3162,-80,-15529
-77,-117,-84,-9825,387,-14217
82,124,30,-22626,-4445,-15049
66,-42,86,10823,3535,7528
61,39,126,12344,-2822,5971
107,-105,-63,-1213,-7867,303
16,99,53,10738,-3237,10863
25,62,104,14434,3179,13777
-54,73,19,-8774,-5642,-410
-66,112,31,-4420,-5753,-1513
86,79,-104,5789,501,3866
30,-44,-1,-747,-1749,1024
-48,-52,62,40,-946,195
-1,120,-22,945,406,65
45,65,-53,1144,1145,596
32,15,-10,-808,-186,-344
80,6,-76,-399,138,-169
-123,6,-109,542,596,406
121,-10,-77,184,396,-55
-124,-17,-69,-340,106,-293
-98,-19,-96,-623,8,-421
-82,-18,-117,-674,-2,-441
-78,-18,123,-426,-10,-309
-70,-21,-128,-315,-67,-78
-72,-6,-125,-391,-108,-67
-78,-5,-120,-469,-264,-115
-84,6,-120,-405,-231,-115
-83,8,-115,-510,-224,-193
-78,11,-123,-342,-81,-85
-87,13,-119,-377,-124,-146
-82,19,-117,-411,-106,-108
-84,20,-118,-409,-111,-133
-83,25,-120,-408,-65,-195
-81,24,-120,-412,-77,-180
-80,29,-118,-526,-131,-209
-76,34,-121,-413,-93,-161
-81,32,-119,-433,-88,-217
-76,40,-116,-529,-84,-210
-9,-59,31,-6949,740,-5803
47,-69,-48,5332,8534,-980
92,19,-98,1976,1282,-13963
-31,74,-110,-8759,1183,-17486
37,-87,-43,-15556,-247,-12749
116,31,126,-10212,-2118,-8363
-39,78,-106,10313,4770,13184
-73,30,-57,1755,-6218,-2585
41,49,-40,6971,-4175,4874
20,38,41,11895,-2054,10951
18,62,106,11695,1984,13516
125,-76,42,-10961,-6593,-3580
-20,-98,33,403,-1394,2772
-20,1,-70,702,-1275,2746
14,-16,116,-598,-1014,1332
46,-87,13,-725,-1299,643
-117,-84,-69,1323,-708,1704
127,-102,-31,3380,766,3065
40,63,73,-437,-286,202
33,6,-15,810,51,-62
114,-46,-37,1164,1518,-582
-85,-74,-61,723,1238,-331
-95,-96,-30,-1052,-341,-886
-80,-66,-95,-1471,-626,-798
-68,-50,123,-881,-372,-476
-45,-12,-100,-840,-246,-431
-82,-20,-84,-546,-553,-593
-66,-23,-89,-240,40,-427
-43,-13,-77,-583,69,-169
-68,-12,-103,-258,-74,-116
-93,-7,-90,-597,-372,-334
-93,12,-81,-906,-515,-343
-92,24,-92,-877,-475,-364
-79,35,-114,-372,-82,-132
-92,40,-94,-341,-196,-246
-100,42,-79,-720,-277,-408
-88,39,-100,-526,-160,-231
-92,37,-105,-314,-202,-93
-99,50,-86,-618,-290,-174
-93,62,-84,-743,-251,-279
24,-96,-19,308,4935,-2713
-12,-56,-98,373,4103,-8555
73,-41,-79,820,1877,-12106
-102,40,-67,-1446,1664,-13320
61,15,-101,-14134,-755,-14359
74,68,-45,-8024,398,-7310
-122,-86,126,9608,939,8063
89,20,1,6758,-6080,3797
-94,6,-117,7199,-3918,9370
82,-28,111,15951,2912,17317
-90,-98,26,-11682,-5840,-1015
35,101,15,-5441,-6594,-2594
11,-33,-111,9297,2514,6957
-106,-71,54,-3435,-3163,-76
-96,4,-123,-916,-1429,258
0,-118,-2,2050,945,1813
2,94,4,1186,625,1262
10,48,-23,1397,585,1071
12,16,14,-278,-224,-41
55,2,-30,-500,-197,-419
94,-18,-86,-398,-105,-656
122,-10,-112,-33,265,-220
124,-20,-109,-593,130,-486
-113,-17,-119,-1042,-210,-485
-107,-8,117,-470,-106,-301
-98,-4,121,-348,78,-224
-99,0,-120,-557,-78,-316
-97,0,-123,-531,-240,-255
-99,1,-126,-381,-204,-120
-102,11,-115,-576,-300,-117
-108,16,-120,-443,-241,-106
-107,27,-116,-456,-154,-87
-106,29,-118,-390,-76,-69
-109,30,-117,-286,-13,-99
-102,36,-108,-491,-32,-127
-100,36,-118,-317,67,-162
-97,37,-116,-363,90,-207
-88,37,-114,-472,-9,-234
-87,37,-119,-425,-47,-202
-82,42,-120,-428,-41,-185
-60,31,101,-6079,4334,-5906
74,62,-77,10282,7523,-5205
113,-44,-7,1758,-1593,-15099
-29,-73,-61,-8323,649,-15420
-27,80,-5,-17951,-333,-14128
-104,111,-88,4211,616,-1223
-121,40,-119,10168,-2724,7711
-68,-58,124,1985,-5593,5136
24,-56,-118,20674,234,16138
-89,-8,1,-2167,-82,2812
-15,-44,-9,-14220,-8735,-4733
-46,70,-4,12889,4099,9028
-100,-99,39,-4996,-2293,-288
-87,29,70,-3477,-3347,-947
26,-19,-70,3857,929,2702
5,78,80,-1298,-1387,-265
58,104,-38,436,-421,666
69,53,-27,-110,-527,406
91,43,-57,74,-476,580
91,33,-72,727,-9,738
80,14,-45,203,-388,62
106,-12,-73,306,84,-123
-126,-15,-94,452,761,114
-105,-11,-75,-188,379,-123
-89,-10,-91,-467,140,-277
-101,-19,-97,-882,-212,-574
-74,-18,-114,-859,-4,-445
-65,-12,116,-413,446,-123
-55,0,115,-334,284,-229
-61,-4,119,-159,-158,-55
-58,-19,118,-81,-219,90
-59,-6,117,73,0,267
-72,-4,-97,-502,-343,45
-78,5,-121,-328,-141,56
-82,7,-103,-528,-260,-157
-71,11,-109,-389,8,-124
-75,9,-103,-470,-4,-304
-79,11,-116,-353,17,-370
-76,24,-110,-723,-182,-480
-59,29,124,-554,19,-282
11,15,34,-2433,2755,-4478
72,-49,67,4572,6674,-2305
-70,32,97,2634,3070,-10333
90,42,-123,-4330,2558,-14064
118,103,125,-14322,-1202,-14657
34,-49,-93,-12833,-3056,-13453
20,-58,30,16712,2706,13313
124,40,127,5906,-5837,952
92,60,-100,9434,-1933,14003
-28,25,87,15573,5126,13495
50,-101,35,-15426,-7320,-3204
55,126,-56,732,-5127,1374
2,43,-94,5087,290,4569
-2,-51,31,-2631,-3955,521
20,2,50,2181,-1124,1330
60,-127,23,1268,-1034,955
63,105,-30,1897,-446,1245
41,58,-47,2002,717,1090
14,-1,-18,364,247,22
46,-36,-50,-455,114,-386
76,-39,-75,-1484,-326,-704
90,-41,-126,-1130,-261,-569
101,-26,92,-181,230,-145
102,-37,120,-633,131,-554
127,-28,99,-335,427,-374
-107,-30,95,-479,353,-424
-107,-26,89,-368,61,-388
-105,-29,102,-575,-318,-408
-95,-17,105,-549,-281,-235
-99,-8,111,-706,-325,-222
-104,0,98,-390,-138,-132
-106,11,107,-379,1,-177
-104,15,112,-518,-114,-245
-101,12,102,-275,-32,-119
-103,11,117,-554,-145,-216
-92,24,102,-345,25,-39
-103,22,103,-279,-35,-190
-94,25,114,-482,-50,-214
-89,24,105,-373,-4,-126
-90,29,106,-388,-118,-138
120,93,-127,-3532,2663,-3019
-13,-58,85,3595,4350,-1680
-49,5,127,31,897,-9391
38,-5,-124,-2968,2227,-13140
-59,-28,-114,-3997,2394,-10888
-22,-128,-69,-17828,-1789,-13083
-111,120,-77,-5607,-2085,-3683
-29,87,-128,12209,978,9724
69,-76,-30,5020,-7125,830
53,-92,-33,13671,-2824,9056
-90,48,60,17961,10222,17121
-110,87,69,-24931,-12447,-9681
29,89,79,5293,-2126,2688
98,-49,-99,5720,2107,5348
10,-107,10,-5552,-4365,-572
75,15,11,1882,-1596,2227
-103,-89,2,2585,-517,2679
120,91,22,2467,-1400,1841
62,63,-24,3063,-563,1323
11,-48,-11,288,-593,-1549
98,-49,-70,-1186,309,-1261
127,-57,-127,-1726,88,-170
97,-60,50,-357,152,255
92,-65,79,519,-83,-14
114,-56,-127,127,-101,-283
-120,-59,-113,-411,264,-548
-101,-56,-122,-714,302,-693
-83,-64,119,-821,75,-758
-71,-69,94,-669,20,-531
-62,-58,85,-624,98,-171
-68,-36,80,-652,-73,-186
-61,-13,74,-177,-60,-47
-73,-15,107,-738,-412,-325
-70,-1,76,-185,68,-73
-76,-6,95,-402,-180,-241
-77,-5,83,-97,-68,4
-92,-1,120,-745,-451,-211
-82,12,100,-472,-172,-82
-88,15,96,-414,-37,-166
-87,19,88,-263,97,-125
-83,22,-14,853,4122,2776
-115,-80,18,-4178,4386,-2830
33,-128,-125,7174,6446,-6545
-66,-104,-42,9557,-58,-11081
22,-50,-41,-4066,-933,-16642
13,103,95,-4640,1018,-10150
121,-71,6,-7937,637,-8611
-112,-20,90,1050,-803,93
-35,-68,-101,9164,-3277,8491
-15,100,-68,366,-5650,5903
-83,48,-50,12243,-3074,12203
-102,85,46,2498,1869,7325
-79,31,46,-17133,-12830,-6534
-3,121,23,9965,2802,6697
12,43,-30,3504,203,3887
-30,-68,-46,-5275,-2751,-1591
38,-11,-80,3779,1475,2925
35,-102,2,1993,1002,2282
20,83,24,-2269,-1465,-802
55,99,-126,1543,539,693
66,47,5,-1742,-699,-584
93,70,-87,-519,375,-145
121,33,-74,-570,536,-458
-111,35,-69,-531,847,-324
-108,17,-67,-355,539,-341
-89,-2,-58,-416,221,-562
-68,0,-80,64,-68,-249
-77,-3,-64,-402,-519,-376
-90,8,-66,-729,-947,-384
-88,23,-94,-270,-892,-55
-108,29,-111,30,-993,-85
-112,30,-116,-136,-272,-216
-105,30,-100,-594,130,-195
-108,35,-106,-624,-5,2
-114,36,-115,-343,-2,-105
-101,43,-104,-501,-11,-127
-89,54,-108,-339,183,-156
-82,52,-109,-576,44,-297
-94,34,-128,-314,-179,-41
-101,36,-111,-501,-86,23
-5,-128,113,-1147,3501,-9156
120,-48,104,-818,4871,-11469
43,-67,-114,-5014,3622,-12478
7,-110,76,-14893,-895,-11928
18,77,-52,-8945,-3207,-6089
95,60,-89,12560,1406,8829
53,-36,119,4806,-6043,-355
49,-110,-70,9563,-2296,8772
-26,-27,-122,12576,2428,14364
87,-104,28,-7352,-5628,41
99,5,-3,-3891,-4811,-695
92,35,113,3094,-1653,3062
-72,5,-76,2308,-1838,3711
-85,45,-101,1461,-1088,3116
6,-21,31,2388,208,2420
-78,105,42,129,-313,-368
-5,41,-42,327,561,-1094
101,2,-92,405,1238,-563
112,-13,-102,-426,865,76
85,-44,-125,-516,118,-257
115,-56,102,230,36,-187
-123,-54,126,467,59,-45
127,-63,-92,-181,-204,-579
-108,-58,-87,-712,-108,-802
-87,-52,-94,-997,128,-808
-56,-44,122,-769,198,-507
-68,-39,104,-204,44,-310
-75,-29,-125,-677,-340,-401
-87,-21,120,-641,-388,-366
-76,-14,110,-451,-136,-63
-83,-4,113,-347,-160,39
-100,17,127,-602,-419,-100
-97,24,120,-378,-243,-83
-103,21,125,-388,-156,-52
-100,29,-125,-563,411,6
-101,35,-92,-1120,257,-258
-85,48,-90,-1265,77,-110
-76,47,123,-72,427,28
-84,41,-91,-335,-84,-272
-83,48,-91,-589,29,-486
-23,68,37,4198,3823,-710
101,-55,59,-1197,215,-12662
-73,20,-99,2597,3572,-11922
12,-79,-121,-3654,170,-14054
5,95,-8,-13398,-963,-13459
-13,81,55,4157,1361,-3260
-58,-33,-66,16906,2566,12685
-39,84,38,-1916,-3561,5965
-33,72,-30,-40,-3750,9015
-82,1,-47,10857,3595,15897
-116,76,59,-8767,-5844,-1908
10,105,72,-114,-4316,-959
-62,109,-84,6464,3588,5392
-122,-110,85,-3056,69,711
-54,-16,-105,-183,624,2205
-17,-95,-105,-236,261,1457
18,102,-111,-458,-1001,1053
-15,98,-99,-1156,-1921,-236
17,67,-94,-1054,-964,-589
-122,23,-77,-665,332,460
115,38,-114,356,1123,838
88,18,-95,163,420,249
97,34,-74,-644,-122,-449
120,20,-67,-1650,-350,-767
-99,15,103,-457,111,-480
-88,18,106,561,198,21
-111,11,-97,-692,-237,-537
-92,30,-113,-742,-100,-310
-91,28,-123,-692,-199,-333
-83,32,119,-71,77,-17
-101,30,-95,-685,-243,-194
-93,44,-108,-541,-75,-88
-91,53,-112,-373,35,-36
-102,47,-101,-519,-100,-195
-95,52,-110,-373,29,-147
-91,48,-111,-347,26,-136
-96,50,-108,-433,-38,-202
-85,59,-110,-431,-26,-128
-88,50,-105,-519,-162,-257
-86,58,-112,-196,-17,-151
16,91,1,-1706,4068,-2014
19,103,-58,4545,4734,-4547
77,-30,-70,-1719,-250,-12792
45,52,-93,-637,2843,-12454
-33,103,101,-12158,-1376,-13827
55,90,-98,-12693,-1490,-11659
63,-97,17,7011,2758,6638
-93,-7,-40,7992,-4833,2245
-101,59,24,3418,-5050,5696
-83,47,87,20315,1644,16968
34,107,6,3168,810,6646
18,35,37,-19354,-11412,-6929
41,-7,35,9281,763,4858
-115,35,-107,5031,1265,4519
23,-115,-50,-3954,-3259,-549
25,-58,-45,1152,-1723,808
74,-88,-125,4416,1097,2566
4,46,53,119,-349,-144
17,36,-11,-549,-126,-410
53,5,-73,-674,84,-519
84,-19,110,173,688,-373
97,-37,100,404,1061,-283
122,-42,125,-186,726,-555
-90,-41,115,-284,586,-455
-82,-49,-125,-498,56,-553
-73,-47,-119,-715,-98,-590
-54,-40,-127,-802,-76,-471
-61,-37,108,-535,-58,-209
-65,-27,115,-485,-150,-127
-69,-6,119,-555,-37,-151
-63,1,110,-357,49,-73
-70,2,116,-500,54,-149
-72,5,118,-387,-70,-34
-73,5,-127,-322,-197,1
-67,18,-121,-481,-45,58
-75,28,117,-334,5,-59
-85,21,-128,-354,-318,-241
-93,11,-115,-490,-346,-336
-65,16,-108,-531,-8,-66
-69,33,-123,-454,246,-131
77,52,51,-4137,630,-3213
-90,-9,-15,-2531,3401,-5068
120,14,58,5799,6286,-8939
-99,-63,-104,-6446,871,-16657
-2,43,-115,-9185,2153,-12197
104,-18,51,-22331,-4443,-15449
15,-30,88,15537,3941,12278
73,-3,107,8281,-7375,3673
-71,-87,-118,2742,-7519,5128
81,48,-93,22720,4217,24341
56,-5,38,-12906,-618,-2649
-93,-109,51,-10741,-9146,-3192
-115,79,-5,5902,1657,3425
122,-120,-2,531,-1447,1566
79,-116,-42,-2977,-2508,-721
123,-79,11,1016,-525,1535
95,93,49,7,-563,653
86,49,11,253,-371,113
120,16,-36,1626,543,607
121,-3,6,477,-6,52
-118,-15,-61,1152,577,150
-119,-53,-13,-253,184,-566
-107,-48,-33,-794,60,-954
-75,-43,-46,-1192,-219,-1024
-52,-36,-104,-308,303,-635
-51,-27,-93,112,336,-192
-65,-20,-64,-775,-319,-543
-70,-2,-91,-774,-351,-458
-69,4,-85,-820,-466,-340
-67,10,-86,-531,-321,-99
-85,17,-77,-338,-207,-73
-92,26,-61,-568,-218,-203
-89,28,-64,-600,-89,-166
-89,34,-84,-220,59,-84
-95,32,-73,-486,-67,-264
-84,35,-77,-455,-3,-193
-83,39,-84,-362,4,-150
-84,38,-79,-451,-84,-234
-78,39,-78,-389,-56,-227
-74,44,-74,-370,-111,-198
-53,117,80,1695,4798,-6779
-122,-6,-109,55,639,-14415
51,-28,125,-5215,734,-15103
108,-25,-69,-16291,-1645,-14109
79,-90,56,-7096,1455,-6636
23,56,-113,11960,5177,9983
-34,-50,10,3056,-6272,1542
-105,49,6,3335,-5019,6497
-66,-107,-69,21631,2988,15634
-127,64,71,-2952,240,2334
64,13,23,-14890,-9544,-6583
99,-53,100,10891,3546,7707
76,-23,-102,6265,4643,8261
-86,-116,25,-10666,-4748,-4045
34,30,-109,-1373,-2803,-129
93,-69,72,8410,2921,4703
-16,-31,-100,-3745,-2135,-1788
8,54,-69,-3852,-2794,-2967
101,84,22,3291,1186,1286
75,-15,-49,-570,211,-292
72,1,-49,-1783,-559,-810
102,19,-106,-343,-89,-99
90,3,-86,-461,-28,-391
101,8,-95,-634,156,-327
113,18,-114,-385,371,-396
123,10,-114,-394,195,-509
-111,6,-113,-472,79,-366
-102,14,-116,-553,-30,-223
-103,20,-126,-461,-55,-122
-104,38,-122,-646,-151,-166
-108,46,-127,-435,-244,-205
-107,40,-116,-446,-242,-143
-105,44,-114,-384,-138,-120
-118,42,-110,-298,-247,-137
-114,41,-93,-422,-136,-154
-104,45,-84,-603,-15,-151
-99,52,-113,-308,266,-99
-95,52,-112,-420,24,-114
-99,52,-115,-523,-232,-121
-99,62,-115,-435,-143,-45
-118,-80,88,788,5181,-4965
-33,38,-97,1983,3182,-12663
116,16,-87,-4176,1144,-15395
-108,63,-27,-17604,-390,-14901
-117,65,60,-12572,-4600,-10680
71,-76,1,16409,6731,16972
-95,51,9,1674,-8549,-4240
17,123,107,7568,-3887,5079
-23,32,-56,16604,393,13275
119,-4,3,6050,1054,5918
-53,63,57,-12902,-8810,-3642
-12,-39,-98,5559,2618,4788
-94,126,8,-1467,-2539,1121
-24,-128,86,-1613,-3083,798
120,-70,-35,2963,-692,3551
120,-98,59,1360,1536,2793
22,95,101,-727,516,595
29,12,-9,544,651,-236
87,-26,17,-181,49,-801
127,-28,-12,-415,22,-452
-110,-44,-31,-507,90,-511
-88,-37,-39,-186,271,-293
-76,-37,-42,-11,331,-300
-71,-32,-28,-361,234,-680
-59,-34,-34,-530,68,-733
-51,-37,-44,-647,-145,-593
-53,-29,-52,-551,-262,-313
-60,-19,-45,-551,-344,-126
-68,-7,-46,-374,-192,9
-80,9,-28,-551,-271,-44
-85,18,-40,-398,-157,-71
-92,22,-38,-470,-193,-141
-98,27,-36,-480,-184,-261
-94,30,-31,-426,-117,-238
-94,26,-27,-434,-63,-264
-91,33,-26,-569,-72,-316
-92,31,-37,-432,-1,-318
-77,33,-36,-503,14,-232
-80,38,-47,-278,47,-153
-81,40,-35,-542,-74,-266
-119,83,68,2968,5136,-4812
56,7,83,-1208,3971,-14240
-79,48,118,-7351,1188,-17648
30,-50,-16,-24954,-3421,-13435
63,-118,96,487,1633,-47
-24,-41,-67,12927,1311,9851
-8,81,-9,308,-8948,-3411
-10,112,36,11804,-2689,7592
-75,-21,-121,18799,5418,18559
-64,75,28,-18387,-7680,-6149
39,37,-38,1780,-3539,1337
-13,8,-45,4431,742,4680
-82,-95,24,-3638,-2761,-150
-61,-40,59,2258,-80,1888
-54,98,112,-541,-1268,268
-25,78,44,-577,-1324,-46
62,53,-25,333,-625,625
75,46,-49,2753,729,2133
60,5,22,843,552,1007
47,2,15,-67,298,283
86,-24,-44,293,547,-22
109,-48,-45,-177,472,-324
-127,-38,-24,-1285,-141,-862
-93,-46,-95,-856,209,-562
-79,-48,-124,281,503,113
-94,-46,-76,-215,124,-177
-89,-31,-62,-625,-133,-362
-79,-27,-76,-543,-152,-341
-66,-24,-82,-208,95,-138
-75,-18,-65,-484,-116,-236
-77,-16,-77,-439,-68,-173
-75,-11,-75,-310,28,-82
-72,-2,-64,-387,-94,-128
-75,0,-62,-476,-127,-224
-71,0,-65,-438,-67,-113
-76,3,-66,-476,-53,-47
-85,11,-76,-396,-63,-101
-87,19,-72,-484,-142,-218
-83,20,-68,-504,-119,-289
-75,27,-67,-416,-31,-134
121,102,19,3235,4572,-1484
-1,46,115,-4442,2269,-13597
0,0,124,1612,3727,-11589
-46,-97,-111,-9509,719,-13716
65,71,101,-26821,-4440,-16425
42,15,91,9765,1673,6677
124,37,5,17782,-2036,6168
-123,-95,117,2831,-7553,3873
-110,-102,-42,20109,813,17389
-81,87,-18,-7341,-1492,991
19,86,63,-8674,-8209,-2197
-4,-96,108,6596,117,4693
7,-87,8,380,-1997,1132
12,-26,-85,1532,-107,1743
-54,116,88,214,142,529
-42,65,19,410,244,-339
40,12,-17,246,750,-118
77,1,-56,41,766,96
70,-21,-51,-602,13,-401
98,-35,-72,-247,-15,-325
-121,-28,-57,-474,167,-186
127,-10,-70,-835,-37,-491
-109,-14,-94,-803,-103,-461
-95,2,-124,93,408,64
-112,-6,-77,-930,-308,-424
-92,4,-120,-106,142,41
-101,0,-87,-455,-97,-110
-98,10,-94,-438,-221,-62
-90,13,-97,-312,-139,13
-99,20,-92,-273,-61,-52
-104,21,-89,-355,-124,-157
-101,20,-86,-417,-111,-210
-91,19,-91,-304,52,-74
-97,19,-90,-281,16,-148
-91,26,-78,-571,-86,-303
-82,27,-93,-371,47,-225
-81,23,-88,-503,23,-282
-71,29,-93,-449,-7,-227
-72,32,-95,-484,-84,-229
-79,29,-88,-580,-188,-208
-60,-59,73,-2300,3738,-5015
-109,72,-120,2112,5356,-6584
-66,-91,-87,814,2445,-13049
44,25,-75,-4285,2450,-13725
-34,59,103,-14278,506,-12288
-10,47,16,-5515,-2322,-7264
-107,-108,103,11879,1716,9243
-93,-35,-50,3516,-6732,2856
-52,-97,-114,11666,-3707,8475
52,24,54,16384,10072,18258
-39,-47,73,-20896,-12175,-9404
118,-26,113,12545,3071,8112
124,53,44,-5240,-2370,-77
-107,-48,-125,-4154,-3795,-1149
14,-35,-94,3720,-193,3456
34,112,116,-206,-2198,992
40,-121,51,1902,-758,1295
62,42,25,2430,295,1340
44,2,14,1180,225,633
53,-2,-41,635,510,294
61,-45,-33,-2016,-710,-1149
100,-31,-108,-1633,-919,-1014
-128,-22,115,-304,-108,-333
-117,-27,-119,-663,-82,-514
-113,-15,112,-544,304,-272
-108,-15,96,-156,412,-259
-99,-18,106,-120,142,-192
-98,-25,126,-534,-376,-200
-96,-15,117,-274,-266,-47
-100,-14,-119,-572,-317,-37
-104,3,121,-324,-52,-10
-108,-3,126,-311,-53,-103
-106,0,-127,-419,64,-27
-107,14,-123,-686,-173,-179
-102,15,101,-145,58,-116
-98,16,120,-402,1,-149
-95,23,112,-256,23,-182
-97,19,121,-331,-98,-309
-87,15,123,-455,9,-294
-78,15,120,-345,48,-220
-5,120,122,2324,6319,-8465
110,67,127,2488,2236,-13722
-13,123,-111,-10150,569,-16412
79,18,33,-22408,-1727,-14728
-59,56,-37,3523,-1155,-4976
124,-33,98,17305,226,12934
-115,83,107,1268,-9217,2365
22,114,-60,12778,-2803,10911
-77,-123,59,15567,7132,17193
101,110,40,-18975,-10374,-7442
-91,-117,3,-2525,-7143,-2423
58,43,42,7916,889,5192
-74,108,9,3557,1530,5577
-110,-27,-57,-2344,-558,-676
-84,-126,-47,-396,190,-1963
66,77,-68,1426,1377,-744
104,16,-14,-425,361,-992
-118,-13,-95,446,893,-323
-93,-38,-67,-86,648,-468
-71,-44,-82,141,639,-313
-74,-61,-32,-1135,-448,-952
-44,-46,-90,-886,-272,-570
-43,-18,-114,171,182,11
-63,-6,-51,-1189,-586,-500
-63,14,-99,-472,-54,-115
-79,21,-90,-534,-346,-38
-87,33,-88,-535,-125,58
-87,48,-58,-1208,320,-27
-77,65,-68,-968,427,34
-75,61,-78,-80,777,123
-81,47,-41,-390,219,-298
-79,46,-44,-287,-238,-384
-61,45,-49,-267,48,-212
-62,48,-26,-798,-207,-354
-68,54,-56,-191,-246,-196
-85,46,-51,-101,-624,-305
-79,45,-70,151,5,-114
-72,55,-10,-1264,547,-416
-68,64,-39,-1248,272,-403
-64,56,-98,371,736,109
-30,105,51,3595,3613,-3357
-91,11,-100,-2256,945,-16939
125,23,-104,948,3506,-13383
-64,25,-93,-13812,-1154,-15084
-32,64,-54,-10204,2331,-7689
79,-35,57,10821,4840,9353
-120,120,7,-1347,-5611,-1721
105,78,-33,3902,-2538,4278
-107,-85,-40,10466,37,12794
29,109,-44,11693,3889,11678
43,-66,69,-13947,-5655,-3584
-36,-102,31,855,-4405,1801
-108,-41,48,5240,776,5860
107,-47,34,-4062,-3488,1556
-78,40,84,1547,-909,2438
-113,13,-109,3612,814,2771
123,-127,-63,-2711,-1711,-945
-47,109,-31,-7,-739,228
-10,46,-48,878,93,749
-7,30,-1,-582,-653,-192
21,3,-45,-563,-603,-571
67,1,-76,-100,211,-10
65,8,-81,76,423,174
69,6,-78,-844,-141,-460
89,10,-122,-129,144,-233
108,2,-108,-276,123,-149
120,7,-100,-572,46,-182
127,6,-117,-373,178,-119
-114,13,-121,-343,289,46
-125,8,126,1,60,37
-119,12,-109,-257,-267,33
127,13,-99,-407,-375,-123
-120,15,-103,-311,-148,-82
-110,20,-108,-233,178,-127
-108,4,-109,-171,49,-182
-109,0,-96,-575,-242,-175
-107,17,-103,-727,-317,-261
-94,25,115,-254,66,-50
-97,26,122,-157,87,13
-98,24,127,-266,5,-85
43,-103,55,-951,5241,-1253
21,7,96,-1315,5317,-5686
-101,70,-76,4678,5050,-11477
3,68,-63,-9736,456,-17464
-19,-56,-8,-16114,740,-12443
-85,31,-11,-5983,181,-3050
-115,-22,35,12734,2648,9397
12,-7,16,1652,-7514,-1961
41,-79,85,8957,-2472,8308
-39,69,-98,17837,1538,17660
-28,-78,26,-6996,-4350,2839
-65,-101,29,-4448,-7220,-123
103,-109,-85,3498,-400,2565
15,-22,-23,386,-2559,818
-18,-68,27,2127,122,1229
-6,75,-9,-407,601,-87
40,73,-55,-691,-17,219
69,5,124,1370,161,596
112,-13,-106,1498,265,889
96,-25,-47,185,175,529
88,-33,-80,-1162,93,-162
104,-29,121,-1002,158,-391
-124,-33,106,-1247,-332,-788
-105,-28,70,-104,139,-172
-108,-35,88,-171,200,-191
-106,-20,112,-634,-77,-387
-105,-23,107,-632,-293,-510
-78,-8,106,-568,-42,-323
-85,-7,98,-460,-68,-264
-89,-4,102,-531,-119,-344
-87,3,101,-550,-170,-231
-97,9,97,-644,-302,-265
-102,22,87,-482,-299,-182
-117,24,92,-496,-364,-292
-105,35,112,-605,-245,-292
-93,48,108,-553,28,-209
-113,36,91,-339,94,-339
-93,41,101,-567,40,-268
-89,47,86,-436,65,-209
-91,47,80,-243,16,-231
-85,-45,76,3100,4092,-3145
119,-49,113,-2430,2195,-14513
-27,-46,113,-6847,998,-14786
-117,3,48,-15361,218,-13947
61,-63,-54,-5116,2923,-2867
-98,-74,121,-1957,-2008,-1571
-112,-48,124,10233,-4297,1859
95,-107,-16,11289,-1023,15492
-41,104,-81,11862,2802,14966
39,-9,105,-13719,-7726,-4155
123,102,101,2172,-3731,1306
62,55,105,6671,1184,6094
-4,-101,60,-6640,-5650,-989
66,15,3,2207,-2090,1078
-96,52,76,5716,364,4196
-21,30,-96,-941,-1414,-1475
55,8,-52,1930,1510,-615
122,-36,29,511,354,247
-114,-53,-33,-1211,-33,342
-117,-10,-89,-935,55,451
107,5,-93,-2590,-1161,-788
118,27,100,-1594,-792,-883
-116,20,76,-594,-195,-560
-99,2,86,-5,219,-266
-90,12,109,-178,224,44
-96,24,111,-185,95,208
-115,16,114,-97,228,-80
-97,8,119,183,279,55
-96,11,-107,-405,-13,-81
-96,28,-117,-877,-140,-290
-88,33,109,-684,-102,-271
-114,29,102,-634,-255,-495
-99,19,114,-907,-283,-543
-70,34,91,13,70,84
-99,36,-126,-253,-390,-226
-110,39,-99,-724,-420,-335
-102,46,-118,-624,-24,-184
-99,55,125,-437,122,-261
-98,64,117,-287,83,-352
-100,55,-126,-674,-190,-466
80,-53,14,3005,6331,-79
-67,-12,107,-4741,4839,-9907
-54,91,-73,7728,5958,-9465
-74,-46,-59,-10172,-1014,-16892
9,25,8,-12084,1157,-11899
32,-31,3,-7863,-923,-5582
50,-47,60,11655,1639,9914
110,89,44,6538,-4067,7996
84,52,29,503,-4795,6153
-120,20,123,11761,928,14213
28,44,99,-6909,-4160,1694
-101,-14,-49,-4622,-6648,-854
104,-78,-111,7372,683,6958
-36,82,65,-4333,-3260,-1115
5,-83,43,-49,-1741,3
53,127,-33,2694,243,1998
39,3,49,-1478,-1251,-612
87,30,-69,873,383,522
88,-15,-55,460,322,141
107,-30,-61,248,520,-168
111,-40,-43,-819,-134,-745
-116,-38,-83,-969,-112,-738
-81,-29,-117,-666,59,-482
-82,-20,123,-102,429,-89
-97,-20,-100,-880,-180,-535
-83,-6,127,-442,-59,-294
-76,-5,-115,-515,-103,-269
-81,1,-119,-405,-40,-212
-81,5,-118,-304,-71,-198
-82,12,-111,-521,-273,-258
-85,16,-115,-328,-231,-160
-90,15,-92,-435,-284,-151
-91,29,-87,-467,-77,-62
-102,38,-92,-516,124,-213
-92,39,-100,-502,220,-249
-88,38,-107,-432,131,-265
-84,43,-107,-530,131,-258
-87,41,-111,-364,44,-286
-77,43,-100,-472,68,-285
-76,48,-97,-443,-67,-229
12,-114,-69,4270,4464,-156
112,-32,121,-3141,2174,-9183
80,91,-108,1624,4203,-9861
-45,56,-85,-12333,-200,-16487
26,8,61,-11928,2376,-11136
6,30,-7,-3148,3304,-1560
-19,46,-103,5543,-2622,1159
-71,-3,-33,5786,-4049,6289
-102,70,-107,3913,-4206,7394
-55,5,14,13518,3249,16165
-87,37,106,-5754,-2687,1392
42,55,-56,-6926,-8512,-808
-22,-88,68,9453,1960,5907
-54,109,66,-3434,-3735,933
-49,-66,101,-1008,-2770,382
34,105,8,1001,-966,1515
53,59,-24,618,-850,797
41,39,-51,2458,-11,751
-2,-30,52,761,-1058,-932
68,-30,6,-1284,-572,-980
102,-8,-83,-835,982,163
92,-18,-115,-2123,667,-513
98,20,85,-793,305,-550
118,4,94,-36,-88,-436
121,-10,119,-264,-262,-602
-116,-4,-111,-927,-324,-639
-107,9,113,-567,-20,-304
-111,3,109,-277,-183,-206
-115,8,-128,-396,-263,-199
-119,13,-128,-504,-307,-175
-114,18,127,-430,-245,-2
-128,30,120,-334,-78,15
124,43,125,-490,-82,-120
122,38,104,-169,89,-108
-123,34,116,-195,50,-195
-110,39,-122,-393,-138,-224
-111,39,-119,-555,-212,-264
-109,40,125,-446,-52,-237
-111,40,123,-527,-24,-297
-106,47,118,-494,37,-248
-5,37,123,-4978,4594,-8972
-85,83,-95,4015,7379,-7614
7,36,-3,-8460,311,-14444
71,-18,4,-15739,-1554,-12718
-41,-97,-90,-12559,-3809,-7234
-64,66,-63,18012,4474,14334
91,-101,91,706,-6892,-340
61,-3,-30,5049,-4766,3071
17,-46,-112,22602,3013,17508
7,118,79,-12598,-3161,-1509
127,36,-46,-1913,-6263,-1729
100,18,-121,6860,1594,5434
-9,84,42,-3398,-3010,-613
23,-90,107,881,-840,1036
61,47,69,-627,-929,-31
52,61,-16,340,-927,159
66,31,-34,889,-571,38
89,0,-24,132,-442,6
86,3,-26,-561,-443,-280
98,-13,-60,-1467,-664,-849
122,15,-117,-150,135,-163
125,4,-97,-216,154,-96
-124,9,-92,-739,-64,-223
-119,10,-119,-352,226,-225
-114,10,-118,-246,294,-201
-114,16,-106,-562,108,-254
-118,18,-114,-440,-25,-317
-102,24,-112,-182,61,-63
-116,33,-81,-851,-191,-439
-103,36,-112,-165,55,-173
-105,43,-79,-907,-300,-449
-100,53,-107,-596,-199,-268
-100,54,-115,-622,-123,-359
-90,44,-120,-206,-27,-214
-92,44,-100,-463,-147,-176
-102,51,-98,-552,-226,-276
-92,57,-110,-343,-72,-53
-100,59,-104,-521,-144,-66
-109,60,-116,-297,-76,-103
-99,58,-95,-320,-182,-91
47,-78,52,275,5392,-1876
33,-75,119,-4235,2824,-9397
34,77,-89,1988,3972,-9470
7,118,-83,-17412,-3497,-18117
-74,119,-117,-20193,-1181,-13065
7,-23,-79,6376,2898,7608
-70,-12,-53,10319,-3369,4770
120,24,-94,4629,-5081,3274
64,-50,-102,17984,1751,17794
-94,-15,74,2351,-41,3361
-31,-76,37,-11037,-7430,-3984
82,-55,107,6160,-778,4017
92,126,-15,529,-2379,1074
74,103,-125,-469,-2951,64
77,-105,34,2171,-975,1875
47,35,63,-628,-1012,-429
91,19,-97,1946,1235,787
52,25,40,724,571,357
83,-24,65,-3487,-322,-2305
-74,9,88,296,1698,130
-91,-1,-80,-436,1333,-254
-109,-12,-53,-1169,262,-598
-93,-13,-82,-691,460,-111
-93,3,-83,-32,419,-194
-78,-6,-57,-648,96,-189
-76,6,-89,-739,166,-428
-59,13,-102,155,33,181
-81,7,-49,-843,-519,-659
-67,0,-128,1325,224,37
-87,22,-17,-518,-90,-283
-74,58,-23,-833,-109,-43
-90,19,-56,-626,-19,-483
-77,39,-56,-200,96,-141
-69,17,-44,-1054,-318,-537
-61,21,-87,152,-29,228
-86,16,-46,-499,-439,86
-95,28,-65,-595,-330,-231
-72,58,-87,-383,263,-383
-55,71,-75,-206,122,-126
-115,58,-47,-1082,-731,-907
73,104,-44,3826,4616,472
91,-77,-107,-4039,708,-12665
-67,0,-95,-671,4242,-12530
115,126,-66,-14912,-49,-14577
127,125,118,-29169,-6261,-16630
-55,103,-27,15382,6552,17861
46,-31,-109,6882,-4941,-2310
45,3,1,5825,-5238,1463
15,42,-43,16786,-637,14544
48,76,84,7754,1514,7960
77,-107,67,-10691,-9876,-3146
15,-27,11,4500,-1490,2665
61,-59,44,1609,-1785,2109
-19,-64,-23,651,0,372
-26,78,122,-1098,-771,-626
37,33,-28,-495,-450,-69
71,57,-68,1284,747,1042
71,0,-2,-437,-546,-223
120,-4,-75,482,463,369
125,-17,-74,349,491,499
112,-23,-57,-639,-103,79
127,-34,-88,-254,110,-312
-99,-30,-70,-515,52,-216
-95,-14,-80,-596,238,-387
-92,13,-73,-1471,-191,-678
-110,38,-62,-2756,-1069,-1487
-90,31,104,-923,-371,-778
-75,19,116,1156,823,833
-114,36,-35,-223,101,177
116,46,-6,-1319,-921,-875
-95,52,-99,386,432,321
123,20,-28,-1303,-127,-640
-101,54,-109,114,665,85
-108,42,-69,-557,49,-399
-88,54,-93,-110,238,-113
-98,51,-59,-539,-179,-455
-86,45,-58,-499,-53,-238
-71,53,-61,-268,90,-135
-75,60,-43,-447,-179,-368
-71,46,-57,-221,-56,-145
60,85,11,5082,6229,-198
114,-76,-39,-2495,1348,-11123
114,-24,-66,-4374,2997,-13927
64,112,-15,-8768,155,-13793
-79,43,-107,-18759,-1961,-12358
22,62,7,9050,4853,8560
-54,112,35,6656,-2121,3923
120,59,76,1079,-7252,351
-103,62,-14,9545,-2140,6673
30,-92,7,11168,1917,13246
-124,-116,107,13920,-1990,9786
92,103,112,-20112,-9498,-4670
23,-51,-26,6653,222,3083
-104,37,-96,7082,4145,5806
73,-60,31,-8681,-3296,-4139
-5,111,60,2072,1684,438
111,7,123,4383,3222,1621
116,-84,77,-2412,-746,-1668
-113,-38,-126,-261,-28,-585
-107,-72,-72,-1660,-1132,-1185
-79,-25,-114,-1294,-951,-755
-70,-29,-123,-676,-371,-520
-71,-23,-110,-250,46,-192
-89,-20,-88,-575,-50,-362
-87,-5,-97,-644,-104,-364
-79,-2,-120,-371,5,-119
-90,8,-107,-670,-200,-133
-92,24,-118,-418,-221,-11
-92,24,-118,-269,5,36
-100,31,-104,-418,-93,-82
-102,36,-105,-405,-134,-160
-101,32,-101,-518,-158,-222
-94,34,-115,-326,-12,-133
-99,41,-103,-491,-232,-195
-98,46,-101,-552,-301,-230
-94,41,-104,-500,-114,-205
-99,43,-108,-457,15,-300
-97,49,-105,-493,-38,-346
-89,48,-112,-455,55,-321
-78,57,-113,-426,94,-238
-9,2,123,1877,4875,-4282
53,33,-76,-307,2864,-10277
121,4,-50,-2817,2216,-11833
-20,65,77,-11199,-404,-12243
59,-50,-103,-16689,-1265,-11784
111,-28,-26,13173,2741,12106
-31,4,-15,5298,-4822,4305
74,37,123,5517,-4649,4839
9,25,44,14522,4188,17452
9,56,115,-9858,-4694,-1438
104,39,-88,-2762,-4639,-751
-11,88,75,6302,441,4580
-8,79,1,-3129,-2661,76
-2,-65,60,1132,-840,1032
32,95,58,-69,-697,610
6,84,19,-146,-432,77
26,36,11,-631,-445,-812
87,37,-40,-888,69,-318
93,27,-70,-801,12,-216
102,14,-98,-1201,-351,-658
-117,29,115,-110,-68,-27
-94,23,-120,595,103,480
117,19,-44,-179,-539,-50
119,21,-58,82,-117,-38
114,1,-77,-158,174,-322
-124,10,-82,-936,-70,-362
-116,38,-110,-929,-387,-132
-125,52,126,-718,-471,-356
-113,50,121,-192,-270,-257
-120,38,-118,-208,-199,-120
-121,50,-118,-791,-47,-325
-104,36,93,316,494,-161
-84,26,-112,-132,323,-99
-105,38,-61,-977,-655,-434
-91,33,-117,-167,-112,-182
-90,29,-111,-252,160,-67
-111,44,-97,-960,-184,-383
-87,50,107,11,260,72
-98,52,-109,-613,-153,-278
-95,65,-116,-546,-215,-247
-93,37,-13,1303,5295,-2237
89,-30,-126,2526,4061,-7882
57,11,-83,-7225,1734,-15367
120,54,4,-10380,1111,-12701
33,73,23,-18515,-2608,-11509
83,-67,29,17694,3696,14385
-102,87,-57,6652,-3763,6717
-16,21,46,2593,-4548,6086
-75,-114,-6,12196,1182,11689
-87,-117,70,-4818,-2345,1597
-110,-58,-59,-3358,-4614,-707
-9,66,-117,3186,-374,2836
-70,68,-57,-2152,-2949,-791
11,-103,35,1025,-1526,1248
-28,99,54,-241,-1951,-295
-14,99,4,344,-625,27
5,48,-14,-721,-52,-279
23,44,-58,-1762,-519,-727
50,35,-122,-918,-320,-642
107,62,82,1513,710,890
91,21,-69,481,-351,286
83,30,-71,39,-128,96
71,15,-83,-538,-332,-405
88,14,123,-421,145,-362
101,18,112,-703,77,-409
124,36,81,-200,176,-116
118,31,108,-388,-192,-198
-125,22,117,-88,-88,-31
111,24,-123,-870,88,-371
-127,38,93,-314,399,-287
-108,5,88,207,366,62
-112,9,127,-752,-140,73
-103,40,96,-278,15,214
-114,37,104,-81,-19,-92
-115,17,117,-362,25,-293
-92,15,118,-554,-4,-180
-73,30,100,-92,194,25
-88,33,122,-330,-51,-227
-90,23,127,-635,-138,-345
-73,24,109,-491,66,-208
81,24,78,3257,2542,-1356
8,-92,73,658,2547,-4846
-63,-25,-123,-8031,1495,-11225
-123,86,98,-4218,5122,-10857
-108,17,27,-21621,-1972,-17092
-85,-105,-23,-10569,-2425,-8231
-22,16,89,14711,1020,12403
27,50,-84,3864,-5326,4073
-2,-118,-76,9955,-3824,7929
-75,-108,107,14485,5826,14604
-57,-32,-118,-13908,-7473,-4701
-48,121,-73,1823,-3600,1077
-116,-48,-66,4555,2010,4021
33,-95,77,-3347,-3068,95
3,-104,81,-944,-1513,-373
90,59,53,453,-548,434
110,30,52,197,-256,615
92,27,36,-1015,-810,-617
-119,25,-3,-1459,-595,-722
-113,48,-62,483,347,206
-107,-4,1,-823,-256,-546
-85,5,-66,-8,257,14
-86,8,-47,-175,69,88
-94,28,-41,-388,86,-206
-85,14,-36,-663,131,-473
-78,15,-60,-460,118,-220
-85,16,-67,-338,24,-193
-92,41,-47,-585,-274,-305
-89,37,-62,-98,-97,-192
-87,38,-32,-576,-107,-376
-85,43,-42,-419,-46,-305
-80,40,-46,-635,-210,-394
-71,57,-65,-254,28,-258
-81,45,-47,-725,-274,-393
-76,49,-71,-315,-78,-39
-99,51,-45,-336,-246,-176
-102,48,-35,-383,-106,-110
-115,48,-43,-463,-119,-276
-100,64,-66,-257,205,-361
-86,59,-45,-571,-151,-324
121,-49,-123,-6335,4779,-10110
122,18,-42,6646,8793,-7453
-45,-15,67,-5595,1712,-14000
-10,74,127,-14583,-960,-15061
-75,-61,60,-13624,-8068,-14390
90,-19,98,21012,5239,18993
63,80,13,3475,-8629,-55
35,110,112,13652,1245,17861
-16,9,59,5507,1627,2210
-73,65,-121,-10603,-5820,-1932
58,66,-56,4481,-1338,3934
96,94,96,-1841,-3259,-38
-61,35,-101,-48,-3504,741
17,48,77,1500,-2282,1855
8,9,79,800,-3216,1079
35,23,36,847,-644,46
50,-27,-2,522,737,94
97,-40,-43,741,1606,466
100,-41,-38,-162,703,86
110,-26,-57,-1063,-229,-776
-127,-27,-86,-1361,-624,-1230
-95,-18,-123,-923,-285,-684
-84,-20,114,-3,302,-91
-99,-26,-106,-385,-163,-296
-99,-13,-104,-356,-318,-280
-105,-16,-96,-512,-455,-426
-93,-11,-102,-421,-290,-156
-98,-4,-110,-239,-190,11
-108,5,-111,-350,-121,-20
-115,15,-116,-429,-130,-134
-108,14,-125,-237,-25,-78
-111,13,124,19,156,6
-111,13,-112,-342,-73,-175
-104,18,-118,-283,-57,-140
-96,11,-118,-233,-65,-197
-96,14,-112,-302,-62,-123
-104,10,-106,-515,-168,-362
-86,20,-120,-350,114,-146
-93,22,-115,-513,56,-324
-84,23,-128,-388,134,-231
-92,10,115,-2866,3640,-9687
-80,55,-123,3508,4127,-10004
18,-6,-93,-6909,1529,-15785
67,104,-40,-14690,291,-14677
-34,96,-111,-19471,-7110,-13118
-65,87,-128,20277,6302,18119
-17,-69,70,6753,-6053,2972
-69,82,-109,5060,-5511,3815
125,-75,-17,16678,2126,15529
15,-72,-20,-10499,-4681,-890
75,34,63,-5159,-7887,-2074
81,62,73,7003,825,4026
34,-59,2,1312,-1174,1850
-36,-116,-74,-394,-2273,-141
12,64,-8,1719,-272,849
18,20,8,1215,164,736
33,-5,-8,-28,232,44
66,-2,-109,160,1337,38
88,-28,122,637,1426,154
114,-46,-109,-243,575,-286
-109,-62,-115,-498,-15,-541
-79,-67,123,-354,17,-367
-77,-64,-123,-226,-4,-237
-80,-47,-100,-1061,-374,-500
-67,-38,117,-616,-76,-238
-77,-40,107,-271,45,-108
-78,-20,126,-523,-3,-94
-92,-11,121,-502,-206,-210
-92,-14,116,-505,-143,-168
-85,4,120,-528,-70,-97
-95,11,115,-309,-118,-180
-103,7,121,-448,-107,-303
-88,27,116,-700,2,-358
-95,21,100,-426,-303,-500
-84,18,106,-130,-257,-198
-97,16,-112,-708,-345,-372
-90,31,125,-497,-27,-346
-92,30,121,-336,-57,-370
-86,39,127,-753,-32,-401
-75,45,97,-334,199,-272
-47,-39,29,510,3529,-4251
102,42,-120,463,3485,-10371
44,-40,-101,-189,1381,-13611
-26,74,76,-16595,-3149,-15588
31,-102,-67,-17058,-5644,-14402
24,3,-91,19895,4054,15747
60,-65,82,8561,-6596,6814
45,32,-103,2847,-7155,3027
45,-59,-40,16579,697,13071
-103,-45,-4,-4186,-4071,2663
54,23,111,-5558,-9697,-5122
119,-45,-117,7548,1970,3015
1,-97,16,1471,-704,708
119,38,72,1564,1453,-321
-46,43,-21,1294,2814,-224
22,-24,-76,-378,2064,-729
72,-30,-122,22,1685,-333
111,-50,-81,-1344,158,-1017
-85,-30,91,-1044,215,-566
-86,-32,70,-5,363,-340
-86,-45,102,-318,-100,-495
-74,-43,122,-380,-328,-329
-84,-30,125,-721,-535,-143
-97,-15,125,-855,-601,-143
-104,6,104,-658,-252,5
-110,10,89,-173,54,1
-111,18,100,-77,64,13
-110,26,124,-496,-77,-276
-97,20,107,-300,24,-182
-103,15,111,-332,-28,-237
-93,19,106,-313,60,-67
-105,19,114,-540,-145,-301
-96,24,96,-248,31,-138
-97,23,109,-430,-51,-272
-92,25,102,-310,112,-264
-84,29,99,-255,222,-314
-83,28,105,-430,96,-478
-66,36,103,-506,-82,-332
-72,38,104,-555,-369,-329
-88,41,111,-570,-580,-258
111,-31,-1,2495,3515,2325
-59,93,68,1700,5128,-3272
-103,29,-114,-4000,4087,-12923
-63,-14,-84,-868,4090,-10974
-62,-91,-1,-15191,-1037,-15208
10,-121,94,-14466,-405,-8093
-101,-33,108,-720,-119,937
-53,-4,-97,10965,-2552,7115
-124,124,-81,4102,-6172,3643
114,-78,123,6923,-4156,6062
-121,10,-110,16782,2708,14874
-107,126,62,-14553,-9963,-4612
-67,37,0,2153,-3398,302
77,-64,-27,2469,962,1774
-16,116,-80,-2191,-2226,-451
31,92,-10,155,-1113,195
97,61,-28,476,-673,717
100,71,-64,2384,565,1334
60,13,50,-295,-729,-430
98,-3,-50,110,-67,-309
116,-31,-97,722,495,-30
-126,-48,-79,-41,125,-127
-120,-32,-96,-408,197,-44
-116,-16,-109,-759,158,-373
-101,-13,125,-770,157,-643
-76,-7,116,-747,69,-494
-82,-12,100,-439,12,-289
-89,-14,114,-705,-310,-279
-83,7,110,-636,-211,-159
-83,15,101,-364,-25,-130
-93,17,114,-391,-56,-239
-85,18,115,-430,-20,-164
-79,16,113,-365,-68,-93
-85,18,110,-174,21,-11
-92,20,126,-410,-98,-144
-84,35,123,-368,-51,-100
-92,33,126,-345,-207,-283
-84,29,-121,-464,-127,-210
-85,33,-113,-736,-164,-392
-76,34,117,-280,162,-242
