AccX,AccY,AccZ,GyroX,GyroY,GyroZ
-37,-127,118,8422,-1394,255
-67,-39,-21,5576,-3437,1377
-46,-16,30,-1740,248,-93
111,30,98,-6615,1913,-311
85,3,106,-4961,1438,-671
-59,87,-72,-6974,1540,-2183
-29,97,80,-8850,3079,-3081
105,14,-82,-3820,486,-1920
67,-12,-113,2901,321,1769
-26,-95,-31,73,243,-95
-7,-93,-5,408,201,144
50,-88,53,-509,1261,-410
52,38,42,-218,-121,970
-80,26,75,-768,-1086,1174
53,-128,82,802,-1235,1284
-36,120,-113,551,-1874,1550
-41,120,61,140,-849,533
-43,-57,94,-1131,-466,28
-87,49,103,-338,-451,778
70,77,39,26,-841,1621
77,24,17,-1496,-217,1723
-57,-116,66,-1535,57,1878
88,49,-124,-2043,-323,1892
-108,-13,126,-860,53,1591
-98,94,72,460,-477,2511
108,87,26,-602,-907,2499
91,109,48,-1302,-443,2280
105,84,83,-866,117,1647
-120,38,67,832,74,75
-61,-8,55,486,-92,420
111,42,22,-250,84,-492
-54,-73,-25,417,-519,72
-60,-12,18,-697,-428,37
-18,-38,67,-89,-129,326
71,-55,34,717,-195,356
119,-20,8,85,-294,413
66,-16,3,-235,-295,142
-13,-21,17,-576,-208,365
-15,3,45,-827,368,650
37,8,74,-816,766,790
-15,80,56,3313,1619,-3056
23,93,-127,7921,-988,-7001
-30,94,5,-1314,-297,-10044
-53,21,99,-1595,1084,-8956
-28,-40,-92,-685,-295,-5307
-93,79,108,404,-484,547
-110,-11,-112,37,-2467,5798
-55,109,40,-1515,-1390,8382
41,-49,-28,3459,1262,9132
14,-2,41,-5869,3385,2111
6,13,38,5406,-2299,-8422
-69,-17,-97,-2167,2345,-6046
19,31,-69,3278,-811,1591
-27,-93,46,-2544,-824,9387
-16,-61,-71,-1025,133,8246
37,54,-31,-7513,4700,-4910
116,42,39,-2689,1028,-10492
-18,-127,-63,-2162,-834,-10676
-9,100,-85,-4905,825,-3913
-46,-110,-90,-1823,-2865,-1321
-16,-119,-115,-2218,-4365,3089
-86,117,20,-948,81,2754
-128,120,-27,1246,5974,-5782
117,-109,79,822,-6,795
115,-93,-17,2491,-3586,3455
-52,-110,27,2479,-4265,8782
-63,44,75,3319,-2928,10273
77,-5,-52,-1337,2176,6098
-20,-48,106,-1023,-608,4429
-87,-21,-90,1022,-1689,6150
4,-32,-110,26,-1198,6129
-117,22,99,-2477,385,551
86,67,75,588,813,-4097
76,0,29,990,1375,-2658
-86,-85,14,1239,-789,-873
-106,-93,45,304,-143,457
11,-41,27,-101,411,-465
50,-88,-12,324,-89,-345
2,-52,15,-1152,-160,-144
-8,-21,13,-1434,-30,290
-52,-11,-95,4607,-1357,-1982
127,102,-7,1202,1454,-9309
121,-102,22,390,-1165,-9016
-36,63,9,-1426,933,-9295
67,-101,-47,-1465,1864,-6065
111,67,-125,886,-52,-1353
-127,-68,10,3353,-2896,6902
116,-57,-111,-149,505,9593
98,-64,-86,2882,1589,6452
-64,99,-41,-4682,259,-7873
127,93,-105,-463,1436,-6595
-110,52,-42,2870,-133,74
-58,-109,-43,-3137,321,6673
40,-54,-82,-3367,-435,10548
-128,25,-72,2334,-253,7849
-41,-80,-127,-5363,2616,-4700
95,-69,-83,-3468,679,-11253
53,118,-23,-1560,86,-11835
48,-84,-85,-5939,2377,-4646
71,-107,-81,795,-2108,-2516
-89,10,31,-1326,-3039,3063
-104,-31,63,-1627,-3168,4262
-52,-39,30,-2790,-1060,2729
-85,125,-36,3167,5231,-5706
34,32,75,2229,-2852,-2077
50,-64,124,254,-1544,3016
19,-111,96,2102,-3106,7546
-88,96,-112,2869,-2574,9757
107,-103,126,-215,1528,6798
83,40,97,-672,-2119,4323
80,54,-113,-55,1481,2362
120,-46,-70,-1008,-2012,4613
-90,-24,-117,3,-298,2226
-87,23,83,-267,51,-436
91,-125,55,182,760,-1870
-13,-16,26,-340,135,-1058
-57,-41,24,-636,-274,317
-13,7,36,-253,-49,143
33,58,33,-732,110,-205
29,32,26,-231,-61,-83
104,107,-31,9055,-485,-5781
-89,-89,70,-18,149,-9983
-14,70,-23,-1787,263,-8367
120,52,-16,-2307,-228,-6210
0,8,-111,248,-406,-3249
-95,-55,-26,1534,-858,2613
-18,90,-96,-1067,-97,7280
88,18,13,-123,-38,9040
-26,-86,114,5534,1239,6026
10,-27,-4,-839,-1595,-6528
61,83,-81,-1504,-1646,-9311
-70,-77,-13,-3075,-247,-6358
64,120,107,4210,-624,3969
79,1,77,-4157,-1124,10787
18,30,97,645,-351,10468
94,-122,44,-4772,3442,-609
-65,91,-64,-767,-4551,-6502
108,-57,69,-2983,1820,-12156
-109,-69,104,-2400,-829,-8045
55,-79,114,-2635,-731,-2937
-119,-51,-21,-2398,-2231,1953
-12,-41,93,-3507,-3789,4487
-5,-37,61,2184,-1723,4137
32,46,-43,-2783,2116,-3978
39,5,-25,3293,322,-3918
-93,-65,-100,796,-178,-1811
-41,75,22,-39,177,2753
-94,-50,-80,2778,-2060,6647
33,-121,-90,3439,-577,9060
-113,48,-6,-1597,1728,7786
-120,111,-11,3642,-282,3936
-79,-99,-7,-3088,662,4111
-60,-32,-17,427,-990,3954
104,119,91,-1504,-841,4990
121,20,85,-1118,91,2233
80,49,-6,1411,-114,-2449
19,89,7,1020,62,-2605
14,127,-49,602,-139,-1676
-84,-107,-37,-955,-733,-351
-93,-38,-18,-1740,-100,-151
-81,110,-90,5508,263,-5740
39,-19,-85,-2107,227,-9665
119,18,117,-1859,1350,-8722
62,-63,-21,-1762,1674,-7965
-77,-121,0,-158,1024,-5283
115,0,82,953,-1223,2053
35,115,-63,-1246,-3584,8820
-100,-17,-99,1440,-2099,9977
20,-47,47,10290,-227,8400
63,122,-94,-6464,2932,-4946
-64,-123,72,283,-979,-8827
-22,-16,21,-2399,671,-7544
18,-63,-111,-180,1686,-483
-82,-11,-113,589,-1863,6246
105,116,-78,-5229,-720,10024
-103,25,115,-4541,-1737,8113
8,-84,-33,-4223,-1719,2349
-118,105,84,6353,240,-6325
18,-109,-126,-3093,4545,-8347
-42,-83,79,-3189,1451,-9152
-101,43,-117,908,2064,-7076
-96,63,-18,-1826,-229,-2885
22,-83,74,-1434,-4455,1647
126,-46,-17,-2070,-4571,3678
1,123,-123,-650,-334,3585
92,120,-38,1011,-350,1094
-15,8,42,1836,2896,-5135
86,-38,-68,1721,759,-1558
38,-82,104,1314,-2307,1764
-97,-32,-37,-919,-2218,5397
-79,-110,82,1954,-1645,6916
-110,-27,-107,922,-830,9004
-32,107,106,416,237,5724
48,-59,91,-2241,-1119,4411
106,-45,21,3390,-1548,3666
-31,124,62,1281,77,3745
-97,54,40,1289,-52,2886
93,80,62,-69,331,1298
-17,35,27,305,-141,-982
-61,-67,70,-159,-34,-867
78,11,-50,854,1707,-5368
50,-38,10,8619,149,-7887
-113,-32,-89,-935,-662,-8749
3,103,-44,-3192,-731,-7849
117,-65,119,-2417,-694,-6136
58,-65,-69,-1439,211,-443
-44,-56,15,1043,-2410,5327
39,-46,20,-752,-713,8602
-67,-61,-22,2026,-273,9390
-70,-42,107,93,2930,3072
-53,-51,-35,178,-5979,-7716
-89,64,-6,-3515,2055,-9006
-76,-97,-84,62,-196,-4287
-122,-110,-95,1190,34,2959
106,50,-67,-3577,-1081,9313
-94,97,-43,-2259,-1034,10641
122,10,-17,3965,-7096,10762
95,-45,0,-8912,5019,-1818
114,-19,5,5580,-5049,-8166
-38,90,10,-3235,4082,-9851
-64,-78,-88,-7129,4926,-9609
-128,-7,72,-646,1160,-5551
80,-94,-108,-1045,-2212,-1227
17,122,64,-3391,-3149,3140
105,56,0,-1747,-1606,2370
-26,-35,85,931,-2899,3789
-122,87,-110,802,1189,-3521
93,53,26,4771,-142,-2663
100,66,-63,4272,-1461,1821
105,-91,-68,2234,-402,4823
102,-113,0,88,1421,7553
-102,97,63,2918,-262,7121
4,59,55,-1221,605,4075
44,32,-27,-3508,421,3477
-91,-21,60,-166,140,1249
1,-87,48,1774,1402,1044
-27,38,-82,3440,980,967
11,-87,-79,2476,1009,1784
96,-92,-50,296,506,2370
79,-58,-37,-908,-152,2215
-103,-109,-72,2707,1932,-4804
-65,101,37,6939,-836,-7762
1,107,52,2913,-1560,-6495
58,122,65,-3200,-300,-9175
-51,-38,47,-2710,-770,-5974
-113,-5,81,19,-356,-2621
45,32,-26,-1226,-717,3574
-70,56,-11,-711,-1345,8438
83,-97,3,-563,555,9903
-109,-96,120,2093,1904,4229
-73,76,-125,-133,-3891,-6792
-72,-95,50,-2714,2462,-8953
-103,-123,42,1798,256,-4165
-42,-82,-42,615,337,2632
62,49,-75,-3297,-1255,7975
13,10,35,-3849,-958,9388
-65,-26,122,1785,-832,7922
-33,-87,104,-3050,3072,-3742
-52,-98,117,-2033,-380,-7235
-115,104,-126,-2339,3286,-9443
-18,-120,67,-3538,3225,-7806
105,3,9,-755,-1632,-4271
11,-38,125,-3102,-1931,-515
45,2,54,-3725,-4925,3367
9,44,70,-939,-2614,2418
-113,58,117,-830,-2926,2740
115,72,27,2882,5423,-5061
-67,109,74,573,912,-3448
-86,51,-16,1858,1615,-1330
-11,14,0,1775,-935,1395
117,11,-46,484,-1381,4813
-106,4,63,1992,-918,7279
-102,30,76,2356,-1262,7466
18,97,103,8246,3914,2699
-25,-20,-41,-3156,5131,2512
116,47,115,-567,-545,3292
-29,94,6,-1240,-955,3746
76,77,60,-950,-1050,2627
67,31,96,-2862,-104,1751
44,-65,70,-1912,-497,2630
-114,126,121,5407,-1159,-5426
-58,-109,-41,-3222,255,-9774
-68,11,-55,-1444,1567,-9798
-106,-94,-15,-68,-490,-6835
-18,-42,74,-1023,-706,-3421
121,-33,69,1112,-1726,3634
-26,37,61,-887,-2236,8818
82,43,-124,1242,-482,9522
-87,-43,-68,5588,-416,5664
-77,-107,-89,1133,-1063,-5969
38,100,-64,-1830,-2755,-9279
-12,-12,-22,-3462,-35,-7010
-98,-92,-24,2059,-70,-164
-31,-31,-13,-1071,211,6776
-31,65,-56,-3246,-187,10765
-66,-54,55,-300,-1936,10302
-62,-102,-27,-4035,734,410
-13,-45,-9,84,-320,-9155
-5,-67,63,-609,1289,-9439
-49,100,26,-5188,4272,-8447
33,5,-79,241,-1007,-3248
38,-87,-4,-1833,-2373,576
52,83,17,-3506,-2410,2143
120,59,-80,-1303,-1195,1889
78,-111,13,76,-1296,594
-16,-33,108,2497,2534,-4204
-128,-55,-23,579,1668,-1646
-63,-69,49,658,-2105,1918
56,0,-106,-103,-2178,5556
109,-50,-71,2014,-4137,8145
77,-42,-55,-1023,-3087,9343
-30,0,45,1520,-1148,4307
74,38,-22,-3160,-381,4568
121,-54,0,4513,-2088,3450
-112,17,25,2071,-1256,4951
-53,55,-86,-2440,-341,3569
59,125,-40,-119,449,-2078
4,16,75,2003,690,-3273
-24,99,-7,2208,992,-2126
-114,-121,-33,477,-736,-538
-34,-94,-16,5822,-1140,-5622
-126,-50,-37,-1594,1138,-10426
52,-78,-26,-2476,1516,-9605
44,86,-96,156,1716,-6791
-116,66,-125,1446,218,-2378
106,-67,62,4408,-3928,6594
55,17,95,1800,-225,9264
-98,10,112,1056,3016,9495
-102,68,24,-3776,4166,377
92,-121,98,1866,-4682,-7372
88,27,-52,-1356,194,-8917
-50,-39,-91,-1645,-1381,-5540
53,-46,70,2420,499,2382
108,-81,-67,-1830,-193,11476
-40,119,96,-4153,930,11090
36,33,75,-4625,6994,3966
-55,-51,14,3027,-6789,-4921
-120,126,7,-4443,5729,-8143
30,71,22,-1549,-1003,-9005
117,-74,20,-4987,1387,-4887
-39,-7,-93,-1447,-612,-2337
74,-85,-55,-3216,-2583,1746
-98,104,78,-1306,-2926,2541
-69,-19,51,-762,-3712,3768
-92,75,-40,2328,5173,-5539
-41,116,-41,2515,1056,-3757
75,-20,32,2652,-1170,352
-123,-122,4,-320,202,1373
-3,-97,-10,3367,-1534,4857
109,-42,101,1475,1101,8245
53,10,17,834,1347,5881
26,-82,-89,-396,611,5438
89,112,-30,-1910,289,3477
29,-92,-48,-1725,-631,2966
34,46,-10,2104,-1565,4437
86,-114,-95,-788,-310,5253
-109,-39,42,-1850,1616,990
13,-116,-107,2476,-1642,-2252
47,-17,29,1181,-69,-2144
-59,108,-22,-421,-482,-744
78,-14,32,4132,-1828,-8531
97,-83,-73,-2883,1366,-9943
-13,-109,95,-2220,1476,-8948
64,44,-113,554,1390,-7855
78,-125,-56,1280,531,-3021
119,22,96,683,-1138,3239
-117,57,-9,-902,-2743,9490
10,35,-5,-90,-502,10454
-55,-93,20,2038,1167,7772
-64,75,68,-2042,2608,-4844
16,-112,28,1527,-214,-8456
126,8,-14,-1006,641,-7759
-108,-125,-62,753,181,-2606
-47,-115,-92,-631,962,6201
-22,-75,-1,-3899,-1656,9997
63,56,-25,-2132,1509,9192
108,36,116,-11286,4720,5720
-67,-57,-63,8531,-4470,-4163
21,108,-17,-5639,2350,-9601
112,-28,15,835,-499,-8277
76,53,-14,-1500,2740,-8885
-95,87,13,-1111,-1930,-2872
77,26,21,-2658,-3017,-111
-86,119,-94,-5648,-3189,3522
-94,-39,22,-1138,-3510,2579
16,-10,10,-1904,-2363,1702
124,-51,-59,3758,6000,-5933
109,126,-106,691,1370,-2510
-12,-38,-6,2965,-628,411
114,-66,16,319,-632,3176
-110,82,94,998,-3604,7689
-116,-24,76,785,-2791,10186
112,7,-124,4770,-3912,7892
54,49,-123,-6855,3274,2022
-47,82,6,1785,465,1003
109,-4,95,1952,-1620,3070
39,-6,107,450,345,3425
-20,5,74,-1308,1331,3528
21,107,102,-2078,-458,1422
-105,-90,-7,272,-1051,-1463
69,-116,-43,3988,943,-5236
-55,-27,-96,-2788,541,-9788
-119,-107,-124,-2783,1624,-10201
-12,-83,-21,-1101,2680,-8075
-61,-29,107,651,1130,-4460
-42,-68,-74,678,-1258,962
-122,77,-16,563,-2177,7234
11,-69,21,153,-2204,10448
65,-22,-54,6189,-1578,10004
39,-44,7,-6516,1275,-1096
-92,-53,104,2871,-1943,-7791
-25,44,-79,-3475,3212,-9374
6,-120,76,246,-40,-6115
111,49,-62,2499,843,1998
16,-24,-64,-1190,-655,8012
-20,-118,-25,-3135,-299,10914
19,-115,60,2042,-71,9224
45,60,-50,-10711,3592,1031
-109,-36,-20,11132,-3940,-3016
-30,31,40,-5913,3711,-8073
79,76,119,-2555,52,-9856
-36,-11,74,-988,1152,-4900
20,-11,-30,-2102,-439,-2048
-111,79,-88,-3140,-2601,1202
66,-126,114,-4310,-2235,3868
76,73,-27,1533,-3366,3525
8,113,-89,1391,3797,-3201
-79,-43,-79,3220,2816,-4635
-83,-58,38,2070,-1301,-143
97,-37,-103,708,-1529,1599
10,-84,104,-342,-317,5459
1,-87,-64,-113,-2479,9101
1,66,-116,-222,-2343,7859
95,41,-21,-163,1037,4329
-88,-113,-111,-68,-680,3303
76,-54,90,-1021,691,4242
100,58,14,446,219,3501
-91,126,37,1485,-1021,4673
52,50,-66,-1968,-12,3922
120,-38,76,-2036,-116,-481
-80,-16,-57,6970,-524,-3846
-117,44,-128,2026,-757,-8362
112,-76,94,-1853,979,-10075
100,-63,116,-579,43,-7658
-36,127,119,1123,-46,-3967
107,-18,93,-619,-1186,2585
-30,15,-32,-1400,-1110,8833
68,70,61,-996,-252,8806
-56,63,-44,8114,-1990,8888
-2,101,-4,-5659,3413,-4526
24,101,-24,894,-1260,-6437
119,-121,88,-1053,1078,-4966
-49,68,-103,-249,1469,-416
-120,-25,-46,-1290,9,5524
-64,46,69,-4594,-1648,9521
-53,-70,96,-3853,-1931,9167
-115,-7,85,-2571,1814,2567
-99,40,-18,5303,190,-6376
-25,-100,-14,-4269,1316,-8915
113,57,66,-1724,1089,-10656
32,-107,12,-1651,2513,-8927
108,99,83,-574,-92,-3247
-119,-28,54,-1519,-2833,846
-74,-64,-96,-3205,-4041,3247
13,42,-22,-1040,-1882,2150
-3,-32,-53,-401,-3779,4550
83,51,-107,669,3068,-3523
92,-32,37,2712,1492,-3829
59,15,-92,3403,651,-662
19,-10,97,-425,-561,1011
-105,-9,28,1087,-2255,6355
-55,109,-47,-772,-1643,8380
-128,84,-91,782,-1537,8228
-7,15,-30,-1838,566,4950
-103,9,-84,-405,-1092,3769
7,-82,-93,8129,-1353,3640
-97,115,17,2914,287,5881
-118,83,127,-2582,1635,3974
127,4,-35,-3999,1157,906
-67,80,3,-821,-837,-1388
5,117,-57,7597,-679,-6503
92,-26,-64,-955,-1176,-10249
-75,-41,-8,-2460,1016,-9603
53,89,37,-640,1355,-7282
113,-109,-66,1381,381,-520
-59,-65,4,-1123,-2172,7041
11,17,-71,-2823,-1066,9076
98,43,106,3919,-1300,11289
8,-42,50,-4953,3516,-1004
38,2,-21,3848,-3038,-6409
74,126,-7,-310,1394,-10298
-7,79,-69,-942,119,-5786
-128,26,-96,1429,-206,2098
-69,-11,-126,-2632,-1588,8214
109,-12,63,-5205,-1377,10265
-104,121,103,3376,-1183,7725
69,100,24,-6668,2377,-734
87,-53,62,3331,-2834,-4896
-68,118,41,-2756,1858,-6856
-49,-87,7,-3984,1082,-7817
51,119,-41,-1297,1069,-5562
10,30,-1,-2541,903,-3051
48,81,-95,-2830,-2226,700
63,69,-14,-1703,-1788,2062
-6,-97,-77,-270,-2573,3506
-82,-52,-82,679,-621,1397
64,-39,88,471,3480,-5187
-19,-93,104,1276,1335,-1300
47,47,109,1976,-1335,554
-13,60,113,-61,-829,3403
-46,5,72,262,-3559,6603
45,41,47,2078,-3051,7724
74,125,-79,1154,-947,6065
-98,-18,122,2722,138,2946
-39,90,-31,-1541,839,1921
63,63,2,-495,-468,3075
-69,-87,44,-216,-856,3971
11,112,87,-159,-247,4784
122,104,125,-2486,77,2962
108,-12,-40,123,246,-1372
-3,-33,108,5546,-1570,-6457
-47,-109,11,-2732,-1148,-9135
67,-21,67,-2790,637,-9835
-77,-58,-71,-383,1385,-7791
-29,-62,-116,2082,-1143,-1403
73,-74,84,448,-1607,4569
-14,-68,116,-1266,-494,7466
-63,21,-95,901,84,9426
83,59,124,4209,-107,7789
-5,-34,-17,-3014,190,-972
75,-118,-50,355,-1366,-6880
-31,52,13,-365,462,-7835
-60,24,-76,-2099,83,-7930
-59,-22,113,1866,1803,-349
8,-120,-92,-249,-1652,6743
51,-46,-75,-4326,-352,10030
39,-2,122,790,-1125,9623
127,-41,113,-7777,5497,1505
9,117,79,5151,-5214,-3111
-64,104,-119,-5717,3744,-7232
-26,80,-103,-2417,99,-8503
-92,-3,31,-3575,729,-6123
-90,108,71,-2229,-393,-3833
-99,-41,-52,-4200,-2698,-1160
-108,-103,10,-3167,-2899,921
64,77,75,-2364,142,1853
32,-113,8,176,-2214,2709
-126,-105,48,1441,469,490
62,-108,-117,5097,2091,-4579
48,-111,103,353,948,-2188
31,-2,-37,1153,-1250,963
34,97,-14,-508,-2242,3963
-8,-54,77,3050,-1051,4897
1,-16,-22,2138,-2178,7412
106,114,-111,1866,-164,6194
-70,-97,93,-2209,1029,3694
-55,-21,73,1843,-755,2889
32,32,59,243,367,2313
21,19,2,-51,33,3803
-93,-22,29,-780,-542,4159
69,26,-109,2925,-790,-7179
-125,-102,-81,-357,-1195,-8131
-97,11,-46,-1943,818,-9214
-20,57,9,-45,1117,-7363
-51,-26,-63,1334,484,-1918
77,-76,-39,-672,-2448,5458
-115,120,16,-2567,-1855,8641
18,-109,52,5376,-942,10554
-116,-87,46,-2999,4337,250
63,-4,-62,1615,-5448,-7512
79,-63,-15,-3252,3428,-9872
-47,-65,55,1145,-15,-4146
-56,80,54,1031,-79,4786
75,12,75,-1366,-581,9599
31,120,90,-2137,1840,10612
-70,37,-75,-4528,4240,2503
-3,-70,-104,-4051,598,-2145
-15,-25,-99,-5386,1723,-7607
33,76,-89,1402,4754,-8472
-79,43,-37,-2898,2013,-7055
-6,14,13,-1120,33,-2750
90,57,-3,-1574,-2636,-647
95,119,-103,-3402,-3385,2000
74,84,-120,-1464,-2061,1470
-102,-37,87,1540,-2064,2679
6,-58,-75,2512,4236,-4475
102,44,82,670,742,-1762
-35,-115,-126,1435,-995,340
-56,89,-29,1672,-1956,2521
-71,-51,6,2039,-2331,6190
-18,86,105,1162,-2870,7314
-36,-65,-3,597,-916,5445
73,79,110,1717,-1102,4506
-87,-16,120,-811,599,1687
-79,72,19,91,-951,3475
98,21,41,-996,-816,4361
26,99,62,-1277,-604,3434
-77,-13,64,-1196,-533,1511
56,-11,39,-873,262,-686
-41,-45,6,201,564,-695
95,-91,-96,4517,2810,-5160
-100,-12,52,5231,1785,-6629
-109,79,-118,-399,438,-8710
-54,-55,77,-1617,815,-8459
-20,63,-35,-60,110,-5454
-119,-126,74,-925,-344,-1677
78,108,-72,824,-1946,4703
28,-10,-26,-1418,-1862,8754
106,111,-125,2517,-1238,10504
-33,-95,123,897,4178,2036
-97,-11,-99,1922,-4231,-4280
-31,50,-26,-3673,2308,-9080
-97,118,17,-620,-640,-5605
-68,-11,48,398,790,-377
63,6,-126,-610,-2047,6256
117,65,-20,-2851,-853,9246
-33,83,-59,1777,-909,9487
-128,-76,-78,-9042,4916,1016
-40,89,-16,3306,-3387,-5403
-76,127,-61,-3663,2323,-6722
-94,16,55,-3679,-52,-6904
-28,104,7,-3608,-161,-3650
-90,-120,83,-3368,810,-3638
-40,19,68,-4307,-546,-1068
-22,100,98,-2060,-1808,984
77,114,18,-1084,-1946,2556
99,93,89,1684,349,979
-87,1,-22,3908,1362,-1872
-60,54,33,-142,2199,-3494
-25,70,19,2875,43,599
-15,17,-56,-344,-341,1159
-117,-10,90,3185,-3240,4687
78,-7,0,2609,-1063,6552
-13,82,64,4477,-2427,7433
19,-118,-68,-2001,2380,4678
27,-97,40,3489,-986,4149
118,-1,60,-273,1019,2049
-21,60,71,-1821,40,2915
63,-41,-113,-3194,103,3568
124,-4,108,-2546,-485,2947
-114,43,99,7650,359,-5437
107,-56,-43,-1752,900,-9622
64,3,-89,-2937,901,-10076
-26,-25,-37,-1511,1894,-8355
90,-78,36,-594,2164,-5303
37,-113,-12,2085,-579,1336
-17,107,-63,-1593,-5393,9687
-94,-19,100,606,-2438,8773
-60,-61,-92,5272,-2517,9994
111,-81,127,-4695,1915,-2697
-30,-1,4,3721,-1156,-4044
-73,-41,80,-498,2794,-6859
66,-57,-56,-991,424,-4351
-6,-120,-41,922,872,2140
89,63,122,-1825,-3257,7460
52,115,-73,-5398,-1897,8471
34,79,-128,596,-121,5146
116,-26,45,-4512,348,-2136
97,-60,-45,1572,-1038,-3207
18,47,-75,-1693,1372,-5725
-18,56,37,-4059,955,-6518
-65,-56,61,-2601,2015,-5053
-109,116,69,-1449,1857,-3575
23,-93,-24,-870,1212,-1987
-18,37,-20,-2002,-1373,1485
57,109,-34,-2398,-4327,2646
-67,-57,-35,1206,-1693,2596
-25,22,-117,1899,2255,-2025
-26,127,-88,1445,1717,-2808
15,84,116,1943,305,-355
-99,19,-126,1715,-2328,1704
39,-21,-88,-223,-2362,4683
14,-51,-128,2500,-1554,6247
21,-97,-92,4684,-2098,7600
-110,28,-53,-2226,3381,4494
-15,-46,13,1780,119,3755
73,13,53,-143,1264,2891
3,-61,-14,1394,104,3829
66,-76,57,-363,11,3871
110,-35,88,-772,-308,3509
76,-113,-16,4954,1005,-6097
-112,-121,30,4162,-2354,-6832
80,65,77,-1001,-1509,-7625
-87,-16,-58,-3048,-1076,-7555
-61,-50,-91,-904,-135,-4557
-112,3,70,1142,-945,1621
-17,6,93,-1323,-540,5563
-109,-66,-97,-1880,625,8275
18,87,-98,4175,-546,9557
62,123,15,-4193,1966,185
-125,-110,-122,3510,-3591,-6230
89,47,-63,-1602,258,-8328
-80,-75,-76,-2634,-434,-6039
-49,-111,-90,-1127,2558,-1529
-63,-80,-54,1243,-1989,6906
0,99,127,-4364,-165,9601
72,-70,-29,-2482,-751,10514
126,110,-80,-6771,4416,3012
70,-69,20,2174,-1432,-4189
-45,-108,-5,-1991,653,-6321
-42,96,64,-1761,570,-7060
13,74,30,-4721,1911,-7269
3,95,25,-1664,-279,-3649
-12,-103,120,-2917,-667,-1045
-30,52,109,-2250,-2433,1882
61,-100,3,-2374,-1814,1840
-17,31,4,-231,-2369,2796
-36,-44,-23,3202,3882,-3648
-19,105,-9,2212,1445,-3152
-99,-37,86,5029,-1012,171
-33,-84,-113,-635,-834,1253
-91,-78,-25,1513,-2452,5376
-104,-66,77,3141,-11,6426
-115,-118,79,955,1266,7033
20,115,23,-522,1364,4493
44,-61,-3,475,1293,4632
45,13,-40,-813,880,2874
-116,-33,-12,868,277,3992
33,121,116,913,-336,3856
53,-12,-115,-825,1057,2730
-94,73,26,3849,851,-5797
89,-86,120,4028,-857,-8612
125,-41,-29,-1684,-390,-9327
60,-18,88,1716,-1407,-8165
44,56,-101,-2231,1689,-5494
-91,127,77,1993,-2302,4994
34,101,49,-2288,-2849,9183
126,22,0,127,666,9699
68,23,-24,3138,3110,6627
-47,124,-17,-5025,-902,-3684
-80,-102,-103,1657,-1804,-5704
76,-117,116,-1155,908,-6602
123,-49,-47,-2042,1810,-4094
118,-79,16,1350,1750,2163
-6,-41,-119,-2878,-1549,6849
-45,-30,118,-5486,-1564,8735
18,74,-109,352,-5005,6846
68,96,85,-6413,913,-1210
-126,1,22,3123,-1334,-4679
94,-121,-29,-2329,2852,-7416
96,52,-48,-1621,979,-9386
-4,-77,69,491,-1283,-5635
-83,62,-115,-2547,-1503,-1261
73,-64,-58,-4717,-3165,2658
99,45,-107,-3094,-969,2076
-87,34,-16,1638,-2261,2058
-46,-57,121,1006,4600,-4164
-33,38,-56,900,566,-2228
95,-36,-35,1100,304,-238
-25,-110,70,958,-689,3150
-40,82,-35,1126,-2273,7088
121,-19,-81,3063,-3790,10088
-43,77,-103,506,-703,8479
56,-108,116,-1176,502,4417
71,-71,9,2093,212,2619
104,-89,-20,4687,-463,4329
4,-65,46,1270,474,5364
76,47,-59,-2865,313,1595
-113,-21,-46,-1714,-1334,-2124
-41,-37,63,456,873,-2713
-100,46,-112,4397,-276,-4768
68,-54,-40,-1887,2255,-9072
47,104,-66,-1232,1492,-7773
20,82,-22,-1763,1775,-5933
115,54,113,-12,1663,-1979
52,13,-114,1502,-1967,5403
-107,33,-38,-1989,-2945,9860
100,-68,-80,4471,-718,9880
20,2,107,-10296,4240,3271
59,87,-52,9495,-5655,-6052
-98,115,46,-4292,3299,-8415
85,-112,102,-1018,-837,-6393
-13,48,78,-678,1409,-1850
-61,51,107,192,62,2033
60,-80,-28,-2267,-1289,8312
-109,-65,-21,-3441,-1482,10028
116,105,105,1282,-368,6445
60,-53,-104,-1796,1371,-3235
8,-111,3,-1329,4,-5898
79,-107,33,-1835,2317,-6849
-66,86,-25,-5936,3525,-7302
41,-116,-114,-242,107,-4678
70,-59,-57,-2195,-908,-2574
73,-91,21,-2518,-3570,915
96,76,123,-1829,-3442,2603
-94,103,50,526,-1338,3214
-127,71,-38,3339,612,-202
97,26,8,2157,1934,-3519
-17,85,-31,2894,-692,-1022
-114,57,-17,1153,-913,1136
31,12,98,-1608,-469,2839
124,50,-49,991,-2750,6447
54,-102,38,8287,-3754,8021
-30,-2,-125,1379,3079,3887
-59,91,120,6575,-1811,5255
-126,-57,-33,2962,4364,505
-20,99,17,2715,1031,2396
126,73,62,-1211,1053,1986
-17,91,-96,-452,-248,430
-84,1,-2,820,-285,-76
100,95,-99,-5284,2654,813
105,115,29,-3506,561,830
124,-75,119,-2337,-545,964
-98,31,-82,-1960,-516,1258
-79,75,-25,-865,-753,650
-90,63,-17,221,-551,37
-115,20,-62,649,-290,-659
109,-42,-103,372,-402,-157
92,-20,127,-836,-331,-133
74,30,119,-1923,-76,-128
85,23,-122,-1442,177,-754
110,-1,-88,231,254,-603
49,97,12,3913,175,-3584
13,115,125,5262,531,-7038
18,11,-114,771,374,-8416
-23,54,119,423,-1101,-7638
127,56,76,-577,334,-6265
7,60,-89,611,239,-1519
103,-71,-69,779,-1052,3977
59,52,-8,-1960,-2958,8550
-125,42,39,131,165,9075
18,-39,85,-3575,3550,4347
68,58,80,4174,-2076,-3691
-24,114,107,1289,-888,-7542
93,5,-10,-1046,-1315,-8770
22,-19,42,-1833,1989,-3855
51,113,-15,1190,-1701,5671
5,-79,-75,-4560,-787,8758
-70,7,120,-3396,-280,9182
-37,13,-3,-391,3053,5462
106,-18,-7,92,-1571,-4369
-122,-74,-55,-1654,1,-6864
89,85,-93,-576,-915,-7217
-56,62,89,-3309,1955,-8271
32,-4,39,-869,857,-3905
-34,114,-41,-1805,-578,-1913
-9,-123,-61,-4005,-1804,821
-40,118,-85,-2332,-2897,2595
-75,-56,-31,-155,-2597,2380
-117,-61,-119,3072,3397,-3221
-83,23,-18,1272,-1438,5983
78,85,-45,1257,-4587,10969
27,-102,-1,-2674,1933,5461
-121,-33,2,1129,-562,4403
74,80,52,-97,-417,5418
-32,101,-24,880,-1767,5578
-89,-102,28,36,-976,5571
32,119,-25,939,718,1466
9,-17,-62,2106,-470,-1559
-41,-24,41,1005,102,-818
-115,-46,-8,179,173,-442
-106,-53,-34,-5,-434,-267
-38,-43,-57,-409,-672,-665
-13,-69,-46,-957,-1152,-452
-8,-45,-3,-1724,-656,-1078
-54,-69,-11,-1308,-647,-1123
-116,-107,-9,-785,-1371,-1130
78,111,-30,504,-1565,485
80,-82,-8,-649,-297,548
82,-15,-63,-1072,-201,416
100,-37,-91,-259,-442,705
113,-9,-105,-166,50,929
-124,11,-117,-170,-205,1284
-113,48,-117,-981,220,1538
-86,102,-125,-1374,-6,1713
-76,114,-128,-896,-201,1484
-60,-117,-104,-446,346,1038
-30,-103,-113,68,146,659
16,-88,-97,176,2939,844
96,-125,-37,-437,656,-1598
-25,127,-88,-770,-2316,-854
43,39,-82,1009,-2499,624
-84,-90,17,-1114,1255,-99
-14,125,-39,-931,135,-54
-22,98,-35,-124,-113,-133
-56,121,-30,-392,-104,-216
-64,-110,-20,-1130,211,-68
-54,-94,-6,-846,403,359
9,-56,-10,-1288,21,427
41,-14,19,-1164,507,221
-109,79,16,5652,554,-11428
-34,0,-56,-3375,-38,-10131
83,24,-17,-3082,2980,-8638
82,59,121,2842,639,-2792
-58,-123,110,-913,-4023,5763
48,-83,67,-2436,-2324,8810
45,35,117,4657,-1596,9882
56,20,-1,-4125,6872,-3443
27,-58,10,-207,-1098,-9121
101,-26,65,-1613,1680,-6333
-40,-83,-72,2851,552,2315
97,65,-44,-5036,-3549,11046
-97,-77,61,-2122,-3174,10384
-51,-103,-120,-4205,625,4422
-39,68,-89,2247,241,-6490
93,76,60,-4848,6031,-7655
71,-41,-23,-2087,3238,-8131
94,112,61,-5089,1357,-4131
123,-59,-59,-1411,-3843,497
-13,29,98,-1779,-1967,2509
63,-87,74,98,2151,-2280
86,77,83,2257,2391,-2302
77,62,-54,1542,-1290,-404
-23,49,59,723,-3066,3400
-66,27,-54,3255,-4076,5748
-33,64,-96,2297,-3580,8032
0,-27,102,-1146,529,4788
50,94,-91,857,-697,4424
36,65,104,1728,-945,3790
127,-33,-13,-2,-1766,5267
-38,119,-92,-1577,-2208,6305
2,57,62,-3060,-195,2236
103,88,93,1519,553,-3638
88,26,91,3026,165,-3042
43,-29,46,1209,-123,-1795
-81,-6,26,-915,-7,-534
-114,12,8,-1052,133,-456
-72,25,22,-946,24,-64
27,49,62,-890,214,287
-8,93,18,-227,-300,-134
-44,-58,-49,6065,-1946,-5858
-78,-16,44,-188,937,-11754
-76,83,28,-1390,-565,-10671
74,-84,55,-1569,2343,-7974
-35,-87,78,2460,-271,-1610
6,-94,80,1863,-5366,7547
-15,-104,10,-2571,1490,8897
47,32,11,8634,-1658,10107
-5,99,33,-9989,5627,-6155
70,-36,-89,591,-418,-8833
-65,46,-103,-1717,1126,-6919
-16,112,-4,4224,688,3213
-13,-6,-68,-4826,-864,10285
28,-14,40,-2539,306,9950
42,100,70,-5281,719,2381
-121,124,8,3738,-6590,-7578
-41,-50,35,-6619,3288,-9980
-100,-26,115,-5395,627,-6574
-58,54,24,-3800,-1595,-1936
-16,5,29,-3006,327,-140
20,2,-36,-1432,-3552,2031
53,-99,93,-2323,148,396
-56,-124,30,2925,3171,-3413
-20,-87,122,2944,-511,-1104
-105,81,-2,113,-1415,3107
-98,-48,95,3686,-4156,6081
-99,95,-27,2762,-4336,9098
111,-86,-64,349,713,6948
-51,30,-86,1165,-1853,6061
62,72,-89,-397,603,3041
47,-42,21,1514,-3183,5052
-36,-74,-21,-2973,-1324,3537
27,-51,-44,1078,562,-1131
9,50,81,305,348,-2510
42,98,41,-499,701,-1880
-108,-81,-39,351,-526,-246
-109,31,11,-1215,-286,501
-23,66,10,82,-123,-137
9,61,-10,225,-24,-291
-7,55,-17,-380,-183,43
13,-3,72,5389,1365,-4919
118,63,-90,-920,663,-9909
-126,22,-3,-761,1533,-9271
-64,-78,-20,-1840,2598,-6470
-77,-42,61,2916,506,1672
14,23,-48,-803,-1475,8750
66,-128,-50,192,-934,10370
55,110,-79,-5938,4281,-2052
29,4,12,217,-1275,-8136
26,41,-97,-1123,3025,-4221
-120,114,126,3720,-1036,6082
105,-21,45,-5009,-2037,9722
105,118,-94,-2839,-1903,2947
-14,-100,-107,-1692,-1470,-7849
109,15,-71,-5474,2886,-8824
79,-42,69,-4286,3877,-6678
-91,-84,102,-1005,-1429,-537
-110,43,-115,904,-4939,2383
-52,119,-11,-2990,4876,-2973
-24,60,-100,3118,326,281
-48,35,-116,1503,-1118,2105
27,-33,-90,-96,-4351,9078
59,-67,91,12,-5765,9326
-122,-75,106,-414,-1267,6452
-95,-54,-127,1303,-517,3927
-68,-65,-38,44,-933,1394
89,-27,-77,-2034,-1327,1690
-69,53,27,-2241,273,1936
-77,38,-26,-37,-36,170
-112,-35,-91,659,581,-1252
74,97,90,-159,334,-1081
-7,6,39,-246,-52,-173
-21,56,46,-586,-47,198
20,89,55,-427,-274,421
55,-91,86,-703,9,275
49,-68,92,-1137,149,395
52,-57,114,-1483,683,608
17,-80,97,-511,-347,-67
38,-54,-123,-699,-185,238
37,-55,-115,-347,-294,237
16,-55,-41,6491,2039,-3544
79,-95,-3,6620,602,-6587
-114,49,-68,-1919,3162,-8889
37,-89,-11,38,3388,-6558
-80,7,-35,4514,3938,-461
-77,-26,-119,-2250,-790,7291
97,15,28,-1382,-1150,9531
-74,-83,-18,-1317,1259,-1413
112,59,-121,-144,1638,-5944
-101,13,20,968,2811,2380
5,-115,23,-4833,-4629,9452
-51,-45,-4,-5897,894,-3176
-41,110,-2,-2713,-3180,-4546
27,10,-123,-1784,2895,-7448
56,82,-10,-2584,-545,-3961
-125,73,72,-2999,-112,-3107
112,-67,-64,-1757,-5609,1398
13,-18,67,1396,3236,-207
-112,-12,49,1736,2118,-504
-61,-70,-118,175,300,1296
-53,29,-104,613,-1215,3482
-65,-58,68,-617,-2857,5352
42,55,93,3445,-4024,6566
8,25,34,-1439,-914,4106
-94,58,98,-884,-2722,3492
-53,-43,-15,-232,-333,3137
61,-75,38,-47,-1120,3700
-99,66,122,669,30,3635
123,3,107,1318,-597,865
25,-74,-108,-1335,-189,-996
-20,72,82,-1653,241,-1420
-66,-8,18,-1257,-317,-661
-51,27,46,-1115,-360,-594
-9,65,73,-1308,-47,-506
3,108,105,-1189,463,-1177
44,122,-119,344,1687,-2659
9,86,80,496,366,-617
2,106,54,132,-129,-309
-20,103,34,-957,-598,596
-68,86,-4,-1203,-831,740
-122,45,-115,3080,669,-5941
-68,-47,4,45,1934,-7609
25,-113,-91,25,1379,-8173
-72,-74,-39,-1060,1966,-7812
125,-72,-18,448,1673,-3834
-71,82,95,577,-399,2279
-87,125,-112,-2574,-3232,9313
30,61,-45,-1694,-1086,8790
32,91,-52,3294,-1186,6257
49,56,-83,782,-2631,-5827
-53,-120,-117,-180,2730,-6998
78,-29,-99,-676,-430,-4213
-23,-74,-25,746,1811,1193
69,-1,-105,-2427,-1944,8134
-14,-58,-6,-4977,-1938,7729
-47,-10,-106,-3530,2987,2388
-116,-105,111,-243,-3573,-7785
109,-46,-112,-2878,3420,-8277
-56,-61,7,-442,951,-5948
78,88,2,-4657,838,-3587
-56,34,0,-3109,-1569,-353
-123,9,117,-2394,-3502,1816
91,-17,56,379,-674,673
-48,68,-65,3087,3259,-3838
77,14,-109,2807,-786,-111
-109,25,-28,671,-1484,2264
-23,-38,-80,929,-2887,6322
35,91,119,1154,-3120,8616
124,121,-83,535,-1019,7558
17,-21,-58,1859,-1562,3666
118,-122,6,-567,811,1499
-60,24,90,519,-139,2316
-72,-118,-20,-877,-1018,2991
-3,97,17,-1796,-1626,3130
123,-109,119,-1797,-324,1992
105,-104,81,106,343,-652
5,63,-8,1680,-711,-1469
-29,60,7,314,-79,-1624
-70,4,-5,-849,32,-1028
-98,-18,-2,-699,103,-445
-27,-55,-62,3310,3245,-5842
-32,-27,-14,9908,602,-4682
-100,-51,54,-3087,1107,-8794
31,79,118,-1721,406,-8900
-95,-72,-119,-502,1374,-5996
-48,-99,76,4890,1073,2144
-115,63,60,-1964,-539,6577
65,18,110,-790,817,7975
89,-100,-18,7087,1215,8694
-14,4,23,-8374,206,-1460
9,-110,20,5014,-3011,-5904
-87,85,24,-1901,-149,-6666
-32,-12,-82,-393,-14,-2582
-109,104,8,3387,-644,2075
68,-104,-40,-3924,1500,6515
56,32,33,-4084,182,7800
83,127,-31,-2359,-2434,3962
-99,127,-62,-1493,-2672,-6320
-57,-45,-28,-2691,3839,-7470
71,13,-102,118,-997,-6671
29,-26,-122,-3086,865,-6030
56,28,81,-2295,-489,-2502
18,25,-35,-3458,-2211,1529
-20,-20,55,1219,-3677,2320
-50,-100,-52,421,447,895
37,73,37,4009,1054,-3810
-22,97,2,1156,1462,-2649
56,-98,-117,944,-558,618
-102,-5,69,556,-391,5418
45,-14,-87,1241,-750,9438
22,103,88,-1794,-336,9046
-88,49,-109,24,739,4537
13,-80,45,-1704,-3057,3785
32,-31,77,2305,794,1318
-127,-99,52,-1010,-678,3623
-28,90,54,-2634,-156,4734
-81,-49,111,-4665,159,3974
9,8,99,-1569,1447,1206
-102,-79,24,3152,-530,-1901
74,66,28,2308,-635,-2598
4,57,-62,3141,2117,-4043
-78,-20,-21,3044,1606,-6904
-30,-126,123,1802,2492,-8113
60,-14,23,-320,1659,-8377
-115,-107,-123,686,1632,-6140
-99,52,106,1569,406,-1600
113,10,89,1317,-2124,6119
-53,48,116,-2907,-121,8299
-32,9,-34,5028,-1798,11186
114,-82,99,-6450,4122,-817
51,102,111,3814,-3653,-4929
47,53,86,-1877,1131,-5509
-19,-123,-28,125,439,-822
-111,-112,103,-1905,-75,5943
94,89,102,-6139,-2281,8252
-111,92,-2,-8625,-2500,1288
-52,-17,-123,-479,855,-5523
-54,54,93,-5657,4324,-5380
-97,102,111,-601,2085,-4988
71,-86,48,-2658,1629,-3764
106,-68,11,-2347,-250,-2244
6,-60,37,-2600,-254,-449
-76,-71,83,-3440,-2594,349
55,-82,-58,1272,-141,817
-41,19,13,4492,3310,-957
92,-62,-104,571,2502,-2042
61,79,108,1133,-142,1016
11,-125,-114,1197,-1461,2002
9,-2,88,533,-4490,6198
112,7,115,1909,-4131,7944
5,-1,72,-1275,-2366,5978
114,-109,101,592,-2006,4593
21,-58,4,2468,-1717,4936
-75,103,-102,-161,-2383,6074
-101,-99,5,2465,-1149,3056
123,23,-73,2295,47,529
64,-87,93,1086,-433,-784
79,58,119,-533,12,-783
91,-7,77,-875,-242,-1077
-120,6,104,-1213,44,-1867
38,12,112,7116,1298,-4113
64,-71,-34,-236,2124,-9694
-95,82,-24,326,998,-9209
110,107,5,-950,1722,-8334
-61,21,-27,296,800,-4995
104,-86,-48,952,-3118,3710
75,63,-1,-2596,330,8411
60,-100,82,1758,-788,9437
70,114,-99,3284,1569,6473
54,-57,40,-4074,5,-4851
54,121,39,-49,2684,-7322
121,-64,-80,-554,343,-5185
-24,-116,29,-1635,2499,-523
84,18,-3,-3040,-3294,6641
-98,117,74,-5498,-2531,7744
-50,-59,-82,-1142,-3431,5691
-5,124,122,-7698,3414,-2305
108,8,37,1774,-310,-4776
-106,-78,68,-2451,3521,-5796
90,-43,36,-2393,1406,-5513
-73,-18,109,-3766,29,-3234
30,123,-19,-407,1317,-2960
-57,18,30,-1102,149,739
100,127,-42,-4116,-3295,2117
85,24,30,51,-1791,1850
-106,-40,-18,1794,3679,-4161
115,-10,-112,1717,841,-3405
98,-13,106,1938,-839,235
-88,-20,-21,1961,-2436,2660
-99,-74,-42,1896,-3247,6080
109,-52,18,-366,-2085,7594
102,-25,118,-3697,-1892,3191
116,64,9,-4047,-4212,2907
99,-113,18,5354,-1341,2179
-41,-69,-56,3501,334,3379
52,-79,-100,6030,-729,5046
68,-38,-87,2851,323,5141
37,-106,-75,-246,-439,2364
54,63,105,-3549,-561,-1018
-27,89,121,-339,-183,-2203
83,64,-45,1390,2157,-5157
102,102,122,4524,733,-4256
-25,85,56,-1888,-68,-7345
-109,25,9,-1421,183,-6235
40,121,-108,532,-8,-2417
1,-54,-110,-355,-1629,4518
122,80,-37,-1997,-1424,7083
9,-53,-40,1218,-1064,9641
-13,23,-128,-945,1807,2439
103,-79,-19,1441,-2409,-5666
-123,38,-36,-1104,756,-6652
90,-120,-54,-523,68,-3662
-45,85,115,983,1402,1881
86,-64,-37,-2823,-1559,6988
-51,27,-3,-4972,-2020,9165
-16,-122,35,-6951,1346,932
-49,54,82,1636,157,-3464
-21,-69,30,-4369,5427,-5064
116,26,5,-2149,216,-5874
-69,103,41,-3144,757,-3721
101,71,52,-3026,-1038,-1929
45,-52,-12,-1024,-311,-2288
-83,28,-74,-3386,-182,151
-81,107,-97,-2279,-2665,2216
38,-13,-117,5006,1664,561
50,-34,122,1945,3321,-3601
-15,-111,-67,708,2180,-2993
21,-63,-11,1764,110,-609
-66,83,42,2415,-839,2146
-108,-35,37,3529,-845,4749
-14,27,32,1085,15,6522
64,91,-49,-956,826,4973
-124,-126,-20,-1187,303,4351
-99,122,0,-1382,-10,3643
-42,-105,-115,-1973,444,1974
-78,20,113,44,738,1399
94,-82,33,80,75,570
73,-85,-85,-230,-928,597
-109,-48,-24,-589,-294,-152
-64,-96,0,-32,113,-307
4,2,109,6988,1943,-4654
-116,-47,88,-373,98,-8443
0,87,-17,-861,-83,-6331
-17,70,85,376,603,-1978
62,12,-99,-796,-1415,6229
91,114,71,-3572,-892,8274
44,-128,15,41,1372,10343
-102,-16,-102,-9124,4343,1664
-116,-5,-9,5731,-1695,-2979
85,-54,62,-202,472,-5813
-109,62,-71,596,70,-4355
-100,16,102,-585,1448,-1485
-52,106,-13,126,-72,5947
54,-3,-94,-1194,-1542,8257
82,-13,-104,129,3938,-1935
-44,48,87,3337,-2551,-7734
-52,34,29,3205,-3916,-8677
-48,117,-59,1878,-2009,-7916
106,-55,-81,3036,-930,-4220
-37,105,91,3221,-1040,-901
-55,-74,87,772,472,2541
0,31,-60,1420,-2252,6902
52,31,101,-3544,1862,7057
68,74,18,-1269,-930,4919
84,-34,-36,-3701,-707,-2846
103,84,-84,1875,-880,-906
126,-8,-82,3,683,1527
-17,-46,27,849,528,4913
69,-89,-18,-3543,525,7131
95,49,-16,-1685,906,7671
11,37,-73,-3573,300,8249
-59,30,-70,-4457,1875,4160
-14,69,-40,-30,342,7587
-107,-126,105,-509,-550,6625
-107,112,96,4048,-1193,-1628
-110,-5,-124,-644,-1,-1135
-121,-122,102,-3018,769,-1336
-117,20,49,-2854,-58,-1074
-59,65,60,-2527,935,-1512
-39,-18,62,-1094,950,-1465
73,26,91,5773,225,-8231
-86,113,14,1210,2940,-9857
-6,-84,94,-1945,-1442,-8119
-20,-112,-41,-1907,2894,-8067
35,-122,-78,1327,1909,-2583
-73,-16,-32,-661,-3184,8550
-101,-26,68,-3158,-3858,10889
-33,67,-35,246,-426,6153
-91,118,106,-2706,1348,590
106,-21,59,5213,-366,-5680
105,-5,-16,-1755,2468,-7838
7,-84,-119,473,-820,-3364
76,-128,26,406,-370,6319
37,-13,-86,-5556,-3181,8711
47,-57,-42,-1534,-1262,8180
22,-57,32,-3474,1553,1974
-58,64,15,7961,500,-4013
-27,103,105,-2323,1950,-8333
-18,105,-64,2119,-1747,-9657
112,-67,-29,-873,-218,-10769
125,-35,-105,3108,1043,-7744
33,-22,4,1963,-245,1241
43,110,-76,715,-1774,4071
-54,-77,116,-782,-2686,6329
12,111,-115,-4390,1217,3607
67,57,68,-681,-1441,4974
85,-122,63,-1765,-126,-2145
-93,115,3,1331,-978,-3280
35,-63,-84,-166,250,-1348
45,-76,99,-676,953,1823
-78,73,-77,-1286,-749,4741
-87,-118,-30,-415,-219,7173
-87,-119,-19,-2441,-1140,8151
-80,110,72,-2747,-763,4260
123,-24,-36,-2547,-928,5315
94,8,49,-872,-2039,7891
2,-96,56,-662,-1474,8226
31,-38,-103,651,332,1121
-10,-38,95,2096,-959,-1567
-93,42,94,-34,-181,-967
111,-88,-54,6373,-253,-2660
-53,-120,7,7090,-1897,-7857
-120,55,45,-2970,-628,-9065
-62,125,-93,-1890,633,-8883
49,-125,-61,-1571,4148,-6660
118,48,-11,913,-2091,3551
14,15,8,-2918,-874,9093
-35,36,24,-1692,603,8689
-28,-97,25,-3778,726,7670
74,95,10,7326,522,1573
-22,80,124,978,-2253,-6818
80,1,-22,504,-2173,-9477
-4,-95,-99,-2942,1118,-5426
64,25,-68,3245,2407,2882
-113,27,91,-6578,-2188,10752
115,56,41,-5051,-1915,8254
21,-116,107,-734,3880,410
108,36,112,4180,-5727,-6891
21,-49,126,-2973,2612,-8188
-49,10,106,-1088,-49,-9259
120,69,51,-289,1768,-6734
64,-85,99,-701,-969,-1679
127,78,-5,-2401,-4035,3235
-24,11,81,-3021,-4839,4342
32,-127,-106,-375,-1238,3974
106,-25,-127,-2409,737,-2315
89,-13,53,3172,2739,-4461
72,-5,-89,357,1427,-611
-49,106,79,2007,-2417,1746
91,113,-88,-1913,-2185,5923
-101,113,70,716,-4089,8973
123,-66,-18,633,-3886,8104
-1,68,114,-2214,-213,4927
-15,47,11,359,-3606,5362
89,73,18,-2842,-1805,5549
117,-1,-101,-2177,81,4864
76,27,-123,4264,-509,-1597
-59,-106,93,3293,-843,-1922
-71,-19,72,908,795,-1429
-111,-48,3,-825,-88,92
21,69,-32,3509,2864,-4130
112,-22,36,8780,-4011,-6355
-99,59,72,-4390,2107,-9755
31,17,28,-1541,1665,-8749
127,87,48,967,853,-5338
-73,78,-33,-200,-969,2011
0,93,39,-1889,-2843,8781
-83,-32,-93,1608,-1018,9588
112,64,-75,4036,-72,6069
-37,44,41,-3691,1729,-6022
-67,127,61,452,1295,-6881
-56,91,125,-106,-146,-5352
-63,-43,13,-1024,3945,653
28,25,-12,-967,-3639,7853
107,61,97,-4777,-3327,10509
-9,127,2,1900,-2583,4342
-96,31,11,-7679,2973,-1796
113,-98,14,2671,-303,-4570
83,66,-45,-2218,3644,-6511
-89,70,-27,-969,34,-9232
100,-45,-117,-2027,1224,-5574
51,-15,95,-697,-135,-3462
76,35,116,-1954,-907,4
3,46,45,-2770,-2910,3197
-99,-78,-88,-1996,-2824,2089
-55,2,-30,2339,61,112
82,32,59,2347,824,-3572
6,-108,106,-11,-185,-2048
95,-51,-53,-203,-665,-430
-63,14,-113,1095,-1282,1949
53,-49,111,745,889,4164
-22,123,7,833,-636,5691
58,18,-80,2063,2677,3008
42,-97,-56,-361,1506,2681
112,78,80,-1234,-2,3371
-14,-20,-51,-646,912,1377
-29,13,-66,-315,104,1687
52,109,-38,-744,359,2219
-104,-3,-52,-277,-160,2741
-46,19,-82,-752,-562,3735
50,-71,-90,-3537,-703,3584
97,-54,112,-1565,-1456,3418
62,-21,33,1422,-1699,973
-44,26,30,1076,-1016,-1080
-112,-31,47,-849,-124,-1004
77,-56,22,-1891,-34,-634
75,-28,-16,-3098,-374,-96
117,58,59,-3642,80,-189
93,72,63,-1313,195,-214
78,100,37,-217,-143,-224
-103,-115,40,-1020,131,-246
-47,-110,-4,-885,413,-667
121,83,-47,82,-500,-991
86,55,-33,-496,-365,-441
97,97,-3,-1397,-694,125
-112,-118,23,-1020,-314,200
-103,-62,28,-741,-320,6
-124,-45,26,-634,-468,-45
106,-36,38,-596,-540,-26
91,-41,57,-480,-267,154
102,-54,49,-184,-149,373
-127,-47,32,-94,-36,576
-123,-29,19,-93,-43,631
-121,-11,20,-268,70,636
-93,-7,27,-309,262,682
-60,-16,19,13,302,703
-28,-18,-18,363,183,573
-7,-8,-40,171,97,331
-33,19,-37,-467,-209,34
70,-45,-74,453,917,-3418
21,-18,-102,7886,2152,-6355
103,34,-82,1074,-976,-8584
11,124,-75,-3527,1041,-8900
53,101,-125,-1306,789,-6864
22,-52,-62,882,-167,-2964
84,4,52,558,-1369,4218
39,-66,4,-1138,-1439,8435
-121,-30,6,4049,-192,8944
-11,109,38,-5435,4943,-493
9,-21,-6,3204,-4518,-6775
-96,72,-50,-3082,2805,-6900
-101,-57,73,1212,-96,-1532
45,-43,16,-1775,275,6123
120,8,48,-2605,-1703,9242
66,-72,55,-1059,-1053,9445
2,-22,-49,-8412,3562,2287
17,-113,-37,4951,-1786,-5761
64,95,-104,-2983,3977,-6688
-100,86,33,-61,563,-7444
-71,92,-83,-2316,2859,-7018
-32,-41,48,381,1039,-3434
63,53,-121,-1871,-1341,-1398
-53,78,78,-2747,-3023,1368
-91,91,-122,-3014,-3689,3159
-84,65,-125,1569,-2844,2626
-104,-90,-128,-2009,2483,-1328
-90,-107,84,3346,1503,-3657
26,3,-56,348,1103,-595
106,-89,14,1034,-188,2616
102,-54,-110,-544,-1303,4744
-107,-36,-75,-240,-3565,9062
11,-122,-72,164,-3616,6153
-21,-70,117,-1528,486,5639
37,-20,-12,240,-1243,4353
-32,-69,120,1233,-903,4802
-17,74,101,752,-217,5419
-84,-73,98,-398,-652,3113
37,-26,93,-264,-452,94
-87,110,119,52,-312,-1864
-80,-18,121,108,151,-1536
-74,-89,95,34,206,-1187
-31,-91,91,-75,65,-1127
-3,-86,93,-144,202,-1583
-30,-95,66,-360,209,-1832
-64,-113,52,-623,131,-1458
-87,-110,51,-860,86,-761
-87,-74,62,-843,296,-204
-94,-78,22,-95,222,336
-100,-40,-20,-406,-410,1008
-75,22,10,-1534,-288,1245
98,63,125,9212,-1167,-6585
-42,-25,-34,-883,142,-8968
-81,42,-102,-3399,-456,-12498
-108,-35,-66,-1567,2504,-9567
31,-29,-126,2576,-755,604
-114,8,-81,-3300,-2838,8800
30,41,107,370,-2332,10044
-2,-127,80,2826,-839,11427
-84,51,8,-6881,3721,2170
10,109,1,3897,-3440,-6546
105,-57,10,-3172,3835,-5600
11,-112,85,1175,-230,-2387
62,-82,-50,-1522,-584,5824
79,12,68,-4651,-3306,8618
64,21,1,1890,-1019,1611
-31,93,50,571,-737,-8007
-16,-94,27,-3860,3876,-8777
-52,109,70,-1082,605,-7246
78,-19,-63,-3933,2531,-3197
-93,112,-17,-3739,-2520,1543
-87,58,-80,-3309,-2924,3044
111,-115,85,-341,-3761,3663
-38,-2,17,-262,4482,-5543
86,-29,-34,3089,78,-3868
56,97,55,2190,-212,-39
-104,-49,-26,17,-2055,3343
-86,-58,22,1734,-3653,6593
1,41,6,558,-2496,8208
-88,-7,82,34,56,5740
-49,-115,126,1094,-633,4363
-70,96,-69,4760,-702,5424
36,-50,-26,1719,-802,7164
-103,96,75,-3239,457,4490
94,-28,48,-2789,-641,-2528
-26,14,115,2523,-269,-2924
-26,122,75,2346,645,-2135
-107,-68,29,-274,-478,-717
-54,-27,36,-1754,355,-746
1,-38,26,-1325,108,-832
34,-38,48,-584,201,-878
-42,-12,59,5369,2727,-6057
70,-27,51,3163,1413,-10232
109,-58,40,-3248,2039,-9611
-54,87,-96,-1812,2123,-7356
56,34,32,2619,1244,-1150
96,41,102,-2387,-2909,8705
76,-60,-94,-1431,-1179,9502
-80,-76,-12,7181,-2690,6190
-66,104,127,-2641,1099,-7812
-16,-42,-85,-478,1969,-7378
66,-56,-59,214,1013,-1087
5,9,31,-3605,-560,7751
18,-98,1,-3780,-1704,8337
-70,-128,126,-4428,666,446
4,102,36,1796,-1357,-6631
14,-70,-40,-1528,3812,-8067
-40,-74,-70,-544,1872,-6731
51,67,-92,-2664,389,-3261
24,12,74,-3618,-3778,1753
44,107,-91,-2244,-4605,1929
48,-34,62,-1829,3152,-1722
120,-17,82,3941,1691,-2532
-115,123,48,1998,-1159,1243
-91,-86,-117,1758,-2475,4336
67,-32,57,-1377,-4287,7212
39,44,-109,1236,-2271,7460
21,77,66,-2441,-519,4904
69,18,81,629,-1990,5788
62,-71,-101,1213,-2048,4430
-88,52,-53,-1327,-1897,4068
59,-72,34,-509,522,811
61,55,63,2552,-157,-1275
46,-95,9,1683,-434,-1705
33,31,-30,11,-472,-1551
-5,12,-30,-1250,-315,-1059
-50,8,-16,-1526,-452,-507
-33,59,31,-1552,-235,-1064
-10,52,45,-873,-94,-816
-22,52,44,-342,-248,-601
-37,68,47,-578,-118,-400
-12,-83,-45,-1132,1323,-5070
2,47,-40,308,154,-7087
33,26,-5,767,817,-2854
-3,-53,51,-230,1637,2381
-37,122,-78,-1717,-292,6463
25,-86,-63,2140,-2295,7809
109,104,25,-2224,3753,-5014
126,69,-18,223,154,-4555
91,-126,-99,1337,-961,2969
17,-104,-59,-5302,-814,4350
48,-82,56,-7666,2158,-2551
67,53,-30,-1407,406,-6401
33,-106,0,-2525,122,-5371
119,89,-68,-2935,-1483,-2764
-7,-51,34,-2187,-1326,-1206
96,-29,31,-961,-1172,-528
10,-4,-38,-2628,-2955,626
-115,-74,-22,1927,2257,-1135
88,-7,127,740,1513,-1080
-53,84,-41,615,782,-138
51,-11,-59,103,-2676,2493
64,-70,-4,559,-2862,4141
23,26,-72,-1043,-3591,5537
9,49,-25,-1692,-1698,4645
58,-44,-79,1062,-1998,3670
71,127,33,1717,-1305,3297
15,84,108,724,-2105,4585
-63,37,-85,-12,-1627,4717
53,-36,-34,-877,561,2495
-127,33,94,-89,179,-54
19,0,26,107,299,-1460
-28,120,-39,43,84,-2120
-37,49,-60,-280,-335,-1717
-53,40,-60,-1124,-407,-1201
39,96,15,-2556,-341,-1143
-24,-64,-57,-3177,1078,-1876
79,38,120,2023,641,-2291
-56,-52,27,2875,-296,-1395
62,-26,-22,-298,-391,396
11,25,-42,-2061,-26,1489
0,-59,123,5146,-512,-1635
89,-3,52,31,2530,-6785
-79,-95,45,-411,1595,-9177
1,79,-58,-1109,3174,-9001
119,-112,127,769,3026,-4309
96,-15,126,1333,-1442,4590
118,-99,-81,-3777,-1304,9199
39,73,-68,-33,-952,9502
0,57,-119,-2179,3443,3270
13,-50,-102,3542,-2867,-5158
-104,97,104,-2648,3417,-7752
57,0,-46,-286,131,-5007
18,-95,84,1498,2652,757
-36,101,7,-2561,-1596,7667
58,-76,41,-4376,-590,6982
60,-6,-118,-4914,1926,-695
107,116,55,938,-4906,-5086
-11,-67,-68,-1898,2388,-6720
108,-92,-128,-2339,955,-6281
-1,31,63,-2870,-865,-4708
3,-5,-109,-2532,-630,-2190
14,-74,34,-4063,-3615,231
35,-71,62,-3905,-2325,2692
98,-67,111,-67,-2214,1764
-28,58,-100,6549,4894,-5204
23,54,-6,293,1695,-2268
14,-128,-10,857,-1303,500
124,-19,7,2044,-2082,3658
31,-17,92,1835,-2118,6092
-51,8,-106,1491,-3378,7146
34,84,81,-3066,10,4739
64,-29,17,-1113,-1844,4462
-108,6,-69,1346,-2779,5460
74,67,-109,2020,-991,6633
-126,-100,-26,-1817,-697,4585
-48,-66,-113,-978,-133,915
31,-97,-121,91,-737,-42
-74,116,114,728,-152,-1011
-84,92,100,91,89,-1235
-19,6,77,94,415,-1498
54,-97,-23,1767,2667,-2959
-53,30,-27,8384,-3782,-6647
-23,90,-4,-3488,2277,-8777
-31,16,99,-1451,1847,-8191
-22,3,96,1089,1340,-4700
96,-37,80,761,291,3575
65,-62,87,-4027,-1810,8694
-18,63,-48,1294,-1437,9538
36,103,-74,-3965,3249,2989
-9,12,-124,6102,-2781,-5882
-32,62,-109,-2234,2445,-6744
-61,93,-15,1847,-352,-3763
-20,-80,-125,5639,197,2463
-48,-79,25,-2695,1291,5944
-21,-8,22,-5592,1159,8424
-18,-128,49,-253,-256,4790
-48,-28,81,-5327,1835,-4056
30,-96,61,-2449,-2857,-6088
83,-70,-34,-1946,-1691,-6167
-55,-124,1,-4404,112,-4844
61,25,80,-2957,-496,-3637
31,115,-18,-1364,-206,-2665
-60,-32,-102,-2388,-185,-32
-62,42,11,-2028,-3207,3348
-65,1,124,1432,-1895,1518
32,13,117,805,4809,-5107
69,77,112,461,2019,-2502
124,86,-8,2471,-919,952
-19,-78,79,-1082,-1333,4159
-106,-88,-50,602,-4385,8798
-1,125,-105,4455,63,6615
57,-21,-32,442,2857,2556
-51,-26,-34,-1434,424,1944
76,-75,9,-849,-724,1898
-30,-33,55,-1114,-1264,3064
-51,-124,88,-1068,-1176,4607
74,89,-78,-855,-435,5188
-58,-90,103,1744,120,3158
-113,-1,-48,3260,-1653,722
-11,96,86,-1122,-433,-591
9,-116,-96,3934,1175,-4584
-35,25,104,3170,1348,-5705
-103,-38,64,-3059,3888,-8133
84,34,-90,1069,1218,-7562
15,89,65,-2399,2043,-5372
85,0,-45,3820,718,-1038
-42,-93,-45,-1096,1095,3594
-65,47,-52,-1224,-1293,6538
-44,-38,-90,7512,-2596,9111
125,20,112,-12812,6871,-3971
61,29,126,3066,40,-6019
28,51,64,1610,548,-2815
-85,111,33,-1404,1501,531
-43,-106,101,-3510,-814,7131
-23,-116,63,-3317,-3103,9263
-48,92,-13,-3131,1280,3878
105,7,31,-3661,1391,-3874
-37,-111,11,-1492,354,-6134
81,118,82,-592,757,-6533
-25,-96,80,-3781,1315,-7450
12,111,111,-2950,-388,-3482
-128,36,-81,-3297,-1325,-1383
115,-100,118,-3478,-1484,996
94,115,76,-3491,-3195,2620
-121,17,95,1002,-2134,738
-50,-91,55,4899,4838,-4028
-44,124,-58,270,3437,-4318
64,-113,62,1137,384,-85
5,37,-53,1742,-1172,3576
-83,24,51,788,-3845,8489
116,103,-73,1293,-4818,10757
-127,3,-17,-4425,-5763,9925
-59,47,-38,-6294,-4786,6660
-126,16,-104,5527,-3114,-109
103,4,-92,7286,-3975,1223
124,47,-70,-310,3026,1360
116,-42,-8,136,-293,-34
101,80,64,71,-624,-801
126,58,75,-758,40,-875
117,-7,33,-475,-323,-1040
-21,-1,7,7812,-1095,-3601
-106,0,31,-2042,2960,-8710
64,74,-119,-161,1247,-9483
50,2,-7,-665,2642,-8581
41,-91,10,1406,723,-6113
56,-50,-5,3292,-1886,2191
37,36,-6,-3360,609,7586
-45,-1,-52,-651,659,7965
88,-19,9,3182,3022,4709
-97,-93,-18,-1316,-288,-6674
-111,59,-25,180,-9,-7436
59,60,41,-99,234,-3258
77,-17,-65,2512,320,3911
25,113,-22,-5717,-196,8210
102,-62,55,-1866,-2859,10541
-99,92,-17,-8214,7895,-2228
-89,13,0,3598,-4370,-4576
110,125,-62,-3311,876,-7389
-122,-123,-112,-1902,-299,-6708
-20,-82,-111,-1235,-285,-4195
-96,113,63,-1323,-762,-3069
-18,-68,-30,-3070,-2944,-149
-1,65,64,-2519,-4208,1931
-29,-93,32,-1389,-3402,2724
-54,97,-52,4256,6376,-4482
115,70,63,768,2689,-2952
-53,6,-125,1854,-146,304
-94,102,-5,-256,-642,1229
29,-38,-106,1517,-2389,3893
-15,-40,-2,1484,-3482,8445
-92,62,-11,-631,-1520,8123
95,-103,101,-2650,-600,4294
-39,-21,66,2232,-1010,3046
87,75,62,3302,-371,2841
108,-36,-42,1922,-1405,5193
95,-26,91,-1725,-808,5449
73,-16,-104,-5143,681,3391
-123,22,27,318,-55,-560
-43,-109,74,2555,-674,-2219
-18,23,37,529,-60,-2258
12,110,-70,3582,1575,-3700
-46,-113,83,938,828,-6045
-55,114,74,80,1460,-8610
12,-82,34,-1329,2534,-8546
13,-23,106,-232,2863,-6535
-70,50,-82,3435,1704,345
13,7,-17,409,-2984,8023
81,-56,-96,-2479,-1049,8512
29,49,54,5521,-803,9000
46,17,118,-6828,3705,-2650
-38,124,26,2310,-2101,-6948
103,-127,94,-295,783,-6071
-52,-30,-9,-86,2186,-2005
-16,-94,85,-2133,526,7049
-72,-107,-100,-6810,-1420,8012
6,82,87,-2712,297,2589
51,-99,17,-545,-4133,-7522
19,-15,-34,-3768,3256,-7052
-51,-16,-77,-974,-422,-4613
-3,-65,120,-3655,510,-3478
-33,11,-67,-1406,-1388,152
-90,-118,-52,-5180,-2108,332
48,13,-98,-3009,-2873,796
-61,77,59,3857,-1928,3574
-42,90,-121,2882,4785,-6112
-119,121,-105,-856,2769,-3199
118,-81,17,2693,-1428,624
-126,-96,-80,-1619,-2290,2438
-7,74,11,243,-3134,4426
7,99,85,699,-2544,6317
110,-41,122,-1167,-563,4014
84,32,-23,298,-2260,4071
-62,-50,-14,-1248,-1182,3587
16,-121,-18,-1044,-930,2752
59,-14,-88,1174,-1975,3058
65,48,73,3304,-2311,3529
-100,67,-107,-209,-955,3734
-90,-77,-95,-2777,999,2533
32,-118,26,-39,-772,760
-25,-112,87,962,-572,-1180
-128,-72,-22,4402,105,-3607
89,14,-12,1279,3290,-6558
29,-73,126,1230,1390,-9409
50,-116,23,-458,2635,-8759
31,43,43,-356,3865,-6806
36,76,93,1093,1249,-1407
45,60,-36,-918,-2180,6064
-53,-88,82,-3711,-1991,7867
-83,-29,78,5333,-3253,11329
-58,-87,-35,-7852,7020,-925
80,-24,58,5535,-3241,-6656
-116,62,-37,-1419,1832,-6391
51,-78,16,2263,869,-157
-19,2,25,-5021,2324,7083
24,101,-74,-6504,-2598,9606
54,2,-27,-7198,2505,483
-109,-122,67,1577,-5607,-5544
12,-37,41,-4392,3059,-5798
-48,32,88,-611,2285,-6849
33,61,-72,-1722,1425,-5457
44,95,-114,-863,-583,-2797
-110,-8,87,-3869,-1592,-53
2,95,51,-3765,-4019,1936
116,54,54,632,-2896,2460
-48,-83,-58,4301,5088,-4648
63,-9,-26,-1267,2761,-2919
-34,-59,-120,1903,213,-483
109,-29,-22,282,-1368,2036
116,-24,-69,-486,-2734,6105
-77,-120,32,744,-5489,7584
85,-126,18,-2258,-3090,5919
-38,10,4,-5917,-3290,2808
36,65,2,6031,-2410,2906
66,98,-112,924,-636,4266
67,103,96,3183,-1627,4576
-89,40,60,1371,-2393,4737
-98,38,-74,-1949,978,994
72,-10,75,-718,330,-1291
-37,12,101,854,-871,-1853
-58,30,113,-816,474,-1862
-27,52,53,3677,540,-3837
83,-22,-43,3011,2226,-6255
-37,-76,75,1884,793,-8592
36,-12,-11,-356,1303,-8919
-103,62,-9,-1,2913,-6969
-69,-29,-33,2542,689,301
-82,28,120,-1895,-1665,6523
-118,-76,-107,-2914,-1061,8214
-67,16,109,3631,-2149,9006
98,114,101,-4327,4473,-3817
-126,127,-39,174,-48,-7935
-89,55,70,-1074,493,-4921
-15,115,-113,1930,2163,1548
-82,16,-5,-3093,572,6419
-41,50,-77,-3501,-1467,10048
78,-98,-14,-5420,1081,2699
-101,-78,94,-702,-1053,-2542
-41,113,121,-2677,1004,-5138
-45,59,87,-635,531,-5168
98,-31,-18,-2765,1340,-5771
-94,31,-34,-1498,-1487,-2082
-109,-85,-109,-3271,148,-3341
33,-116,-45,-811,-278,-2428
-54,-76,24,-3217,-1552,1480
94,-123,111,-1749,-2894,2847
117,112,-6,196,704,-312
90,-54,-98,2484,2808,-2577
57,-97,0,876,374,-1100
-91,115,-127,439,-949,526
-20,115,100,-626,-2444,2504
67,-99,2,-57,-3369,4902
109,60,85,951,-1713,4851
-39,-79,70,-493,-2746,5419
-59,-19,40,-1685,-1505,5351
116,62,-60,562,-1395,2566
123,-27,106,1486,-1491,4471
111,-38,115,-172,-1222,6000
-79,57,124,842,-2668,4881
-51,-45,-125,1513,-1542,779
4,-77,-100,744,-375,-878
-101,40,31,2636,4179,-6427
-95,36,41,6527,-247,-6303
87,-62,-19,630,-1669,-7889
-82,41,-72,-1734,-759,-6666
83,28,-123,372,-1268,-2989
-37,-30,64,442,-229,4172
-26,-91,99,-2837,-1376,9699
31,25,115,1006,1051,9506
-15,-26,98,-2461,7284,-193
113,-21,22,2849,-7210,-5480
-117,-89,-73,-3058,4144,-5735
108,-113,127,861,-1055,-2207
117,101,51,-1496,1400,3318
-9,-126,36,-4516,-2753,8502
-115,12,81,-818,-2477,5668
73,86,-119,-4104,1022,-3604
-48,19,49,-54,-4167,-4450
-93,127,50,-2432,693,-5654
-124,-24,-85,-2255,-137,-6411
-64,30,-61,-2050,-91,-4961
11,-70,-49,-2057,24,-2793
-109,61,-24,-1283,-2919,2924
-122,99,8,-4152,-1418,1147
16,79,89,1060,-3578,2571
-56,62,119,52,4143,-4859
-112,117,-94,360,2001,-2749
-81,-83,123,1220,748,326
-92,-52,-89,-53,-1159,2444
116,-86,98,73,-2830,5662
-66,-6,13,1182,-4442,8474
-51,-114,-109,1805,-4489,8685
110,-85,-123,-2440,1373,2959
34,91,-108,3745,-1179,2190
73,76,1,-428,-431,2724
108,-36,11,-1513,-1109,3278
-51,90,55,117,-1457,2966
86,119,83,-219,-1176,1870
38,-36,60,-224,-617,331
-61,-9,-8,13,-487,-737
-123,-34,-42,-1016,-157,-1345
54,-29,37,6652,-119,-2789
56,76,117,10962,-5843,-7500
-107,-76,-63,-6054,-28,-9595
-105,-22,-33,-3268,-373,-8310
48,-117,-57,-1106,777,-4987
-40,-101,55,3256,133,1267
38,38,-2,-1556,-150,7131
33,118,-93,-1716,906,8617
110,12,102,4765,-2733,5067
54,63,1,-4623,695,-4915
-122,-60,36,1146,82,-5095
-15,33,-65,1814,0,-2470
81,61,-99,-3547,2596,-481
-26,61,1,-2364,-1506,6683
-92,121,-20,-1309,-2087,8211
-92,-50,88,-6204,3147,-2959
5,-23,117,-395,-952,-6270
-50,-83,18,-932,650,-5804
28,-2,2,-2945,605,-6085
113,24,108,-2825,-1926,-2117
56,-20,-119,-5261,-3783,3134
-128,-72,13,68,-2886,3180
-4,-73,-2,1302,1124,-2082
6,-35,-84,2733,573,-3284
25,92,-55,1636,-442,-858
14,8,79,-243,-1187,1621
4,-68,64,1066,-779,4758
-101,-32,39,3061,-1628,8239
84,121,-24,7546,292,6677
1,14,-43,7649,2667,2992
102,29,125,3467,4037,959
16,21,42,-2408,4115,1574
-20,-68,-59,-3594,2457,2290
-30,-60,-1,1396,1261,1801
30,-2,-85,2535,-1719,-273
19,-59,50,-387,-1849,-1177
84,-23,-107,-1733,-860,-580
-9,-24,104,-1060,-188,122
-26,9,24,-222,-232,-221
20,77,-31,-2177,-242,-470
102,-33,8,2467,-1890,-7807
62,119,69,-662,406,-9253
-11,-35,28,-2578,2013,-7315
-101,118,54,887,2619,-3213
-11,-28,-124,1506,-1906,5671
90,122,-33,-2927,-1289,8111
-80,107,32,2998,-1639,9338
-57,-108,-121,-5472,4105,-1557
-46,49,13,3488,-2340,-5603
-26,50,-89,-1358,1514,-3822
-2,61,68,511,88,403
49,-42,94,-4218,4,5928
81,-85,-54,-2743,-3605,8164
-28,103,91,-4989,3918,-670
-41,89,25,2275,-2028,-4393
29,-104,73,-2753,859,-4804
16,-82,124,-1956,-770,-4030
-86,-108,-97,-1741,-2019,-5538
-106,19,102,-1468,2868,-5237
86,-15,-14,-1490,952,-810
48,74,121,-5205,-4800,3807
40,-96,-124,1100,-2378,1436
-101,-20,-52,230,2733,-3233
-104,35,-37,997,1929,-2582
-97,-33,108,1994,351,629
74,-48,67,1014,-2710,3610
-45,57,-48,-1140,-2456,7422
-3,-23,-104,904,-4040,8847
-47,-91,26,-1949,-534,6883
33,-71,-11,587,-2465,4662
108,34,103,2313,-186,3545
55,-94,47,-638,-209,4906
92,-70,69,-2204,-787,4327
-14,22,83,-844,-610,1305
63,-39,85,2051,-1539,-1452
-12,94,111,1259,-97,-2045
-38,39,69,-487,566,-1713
-65,-1,19,-1075,-12,-1206
-7,11,31,-1285,119,-1325
40,35,36,-1432,385,-1603
41,8,-26,3314,979,-2740
20,4,-12,9307,1081,-5805
21,79,-120,-1092,-867,-9099
-107,117,106,-3386,716,-8358
-20,81,-123,2357,1980,-3283
51,-89,111,867,-938,4781
-78,82,-1,-3488,-1248,8466
-124,-49,-22,-643,-1503,10741
105,2,116,1077,3547,2315
93,120,-75,2847,-5173,-6407
-47,78,-46,-1482,2801,-5480
21,64,-81,1617,-426,-2756
-48,39,126,344,3708,1185
-91,8,19,-3701,-834,7838
119,-54,-51,-4493,-4106,8825
117,-99,-65,-5801,6064,-969
7,76,63,2124,-3948,-5825
76,-116,-31,-2032,-43,-6052
108,117,98,-2713,150,-5224
-42,-17,78,-2882,-433,-4637
103,-12,-13,-1554,60,-1317
17,0,-98,-4759,-1405,1081
24,-99,-15,-2996,-3033,2179
-102,-19,11,1063,-276,33
-5,-52,113,1967,3951,-4261
119,-24,126,1458,559,-26
29,2,-71,981,-1371,2119
99,-64,-71,-1775,-2923,5565
79,-115,120,79,-4164,5486
-59,-100,57,-140,-2240,5673
55,-52,11,-954,-2488,4527
80,43,4,51,-767,3010
24,-41,-81,263,-858,3935
-24,43,-122,521,-1206,5705
-43,110,-59,-843,-1084,5545
1,66,-104,-461,-1094,323
32,-67,-107,1549,-631,-2761
30,-23,-127,666,1177,-2138
-56,-92,49,279,56,-1300
88,53,20,1143,-606,105
-48,-121,-31,5595,174,-5527
-100,-106,-109,-340,1488,-10015
-68,-113,16,-1346,2758,-9389
-19,-18,-18,350,1963,-6458
-45,78,-30,1477,40,-2307
-68,27,-32,-976,-1858,4042
-128,-29,-64,-1636,-2280,7992
-15,-61,-1,-422,-973,9669
95,-23,87,655,1154,3858
17,23,14,722,-1441,-3565
10,115,15,-815,2697,-5940
85,-119,-79,-7,309,-4146
-14,106,-23,-545,1942,-45
62,55,106,-1739,-2379,5129
4,88,-101,-4784,-3399,6183
-54,72,-54,-2321,449,1812
-39,-110,88,-1322,404,-5339
-122,-45,89,-1790,1207,-4706
-75,56,56,-1695,-24,-6485
96,121,49,-2953,958,-4855
-49,105,71,-2566,1014,-2172
-19,-77,110,-3648,-1167,430
37,95,75,-1755,-3147,2148
118,-34,-3,392,629,-671
-56,99,-85,1359,3782,-1875
109,91,-54,1046,650,-276
-104,112,5,-20,-1528,1132
-41,14,-104,163,-3476,3751
-102,-9,-63,875,-4666,7550
-74,-30,-126,1168,-5278,8941
123,-127,78,3791,-181,4521
-44,44,56,-2361,1256,3439
87,60,-58,-374,-1420,2773
50,110,-63,-407,-1306,3538
82,120,-65,-1291,-714,2912
54,-118,122,-31,-484,1217
-14,-112,104,117,-538,48
-68,75,98,298,-190,-522
-89,34,102,207,-30,-667
-118,22,91,353,2,-797
-88,-76,52,3513,1411,-3047
43,-63,10,5158,1587,-6618
107,-77,-69,494,1793,-9263
21,72,89,-76,2958,-10898
35,-38,-23,528,2731,-6881
81,-35,-85,3002,25,723
36,-7,59,300,-3840,8926
-109,109,101,-4416,1080,8938
-14,124,-120,5133,-1633,10671
-84,-74,64,-6730,4272,-2083
-70,127,106,6308,-4135,-5807
-95,-116,45,-1092,587,-7192
-7,-67,-6,-629,591,-3831
19,116,121,1546,283,6064
-104,-33,120,-6917,-1055,8925
115,37,-125,-2772,-323,6027
-19,-93,-113,-6088,2490,-6321
51,4,98,-1176,-1896,-5957
-35,66,55,-1571,1038,-5320
-118,-59,-96,-3392,1128,-5505
-63,-100,-28,-1073,-135,-2486
25,89,-108,-3257,-1400,-515
-71,107,63,-2137,-2971,1746
31,-118,-13,1460,-298,1402
-111,-111,-116,2330,2162,-2592
64,126,-94,659,2431,-2076
7,-61,94,1244,94,699
-94,54,115,222,-2405,3807
-61,-34,-12,-697,-4181,5813
-82,114,-104,425,-3424,7077
12,22,127,-2381,-1615,5832
48,-88,100,944,-1398,3045
0,57,94,-1673,-1996,3472
92,-1,44,-262,-142,3320
-66,30,-101,2347,-1870,4628
14,-70,-88,315,-1485,2974
120,32,-127,-303,-367,-736
27,119,-126,229,120,-1924
-59,-72,82,588,-105,-1338
120,126,61,722,-354,-270
-96,-66,118,5968,1065,-4200
-50,-19,127,-1379,1881,-8056
-101,-26,98,2139,325,-9448
23,119,91,-344,2464,-8692
-52,-49,89,1727,449,-4302
117,61,107,2491,-3529,539
62,-5,12,-2128,-415,6951
-117,-33,127,-3000,23,7680
38,-65,75,5935,454,8738
29,-67,78,-4341,-172,-4677
32,125,-80,2259,-55,-6704
43,-115,-51,1471,-971,-5851
105,80,-81,-1155,1966,-1779
43,-96,-17,-929,-759,6683
-22,57,-117,-5357,-1234,9757
123,-90,-67,-2303,-151,8843
-40,48,121,-5961,2162,-3115
102,-63,-34,2541,-3341,-5992
-7,92,-74,-2585,4042,-6947
-47,83,105,-504,754,-8413
-57,16,14,125,795,-3987
-20,26,-80,-1324,-1228,-2253
17,-12,-120,-3791,-4095,3149
121,57,81,-3325,-5394,4278
1,5,-32,3912,-28,217
-11,-5,33,1483,4087,-3954
48,94,-109,596,-331,-1338
-4,-87,-63,524,-1180,1838
124,-25,-106,-353,-3183,4822
18,98,60,-400,-3799,7463
11,63,86,2985,-265,5371
44,74,9,-2600,138,4879
35,-63,-97,170,-478,3710
124,-41,80,-120,115,4222
-37,116,58,-1878,-859,4777
61,-127,126,-2386,-1918,4226
-20,0,-62,-1392,-1410,1351
97,-22,-78,1298,0,-1374
-31,86,98,1323,292,-1633
-63,75,62,-728,180,-1130
