AccX,AccY,AccZ,GyroX,GyroY,GyroZ
-79,-96,33,-4409,3302,-2021
-33,-118,-51,-1493,3459,-2690
-27,-112,-37,7643,3077,-2128
-72,78,-101,19105,-3278,-46
51,67,88,29279,-15745,-1165
-13,-102,56,6585,-9178,-6912
-108,112,83,-1259,-237,417
75,-16,-97,-4808,4479,2063
-46,90,110,1110,-1469,144
39,49,1,-2906,1299,847
7,101,-13,-1879,925,1294
115,6,35,-6493,4212,2600
-105,-64,92,-11245,6749,2448
77,-32,59,-10094,5097,2119
125,57,-37,-8224,3881,2155
126,-109,115,-7097,107,698
-90,30,21,-1933,-1576,2384
56,-41,43,-3000,20,1166
39,-57,-32,-2040,-1480,1037
5,82,16,-671,-2335,1426
22,79,-7,682,-554,1533
41,102,-94,374,-500,1275
16,101,91,-154,-623,825
-34,27,98,563,-1783,759
-26,49,-128,154,-689,616
-77,38,124,298,-403,4
-86,16,109,580,48,-474
-99,-21,83,454,-6,-548
-98,-42,72,540,-153,-382
-82,-37,72,-94,299,-385
-94,-43,53,-238,-144,-377
-94,-73,70,48,-384,-80
-86,-48,100,-458,19,-20
-82,-48,89,-346,35,41
-82,-60,73,121,-169,167
-74,-33,73,-140,-76,116
-72,-42,68,-59,-105,135
-62,-30,68,-158,-8,16
-65,-48,67,-37,-103,125
-71,-33,66,-179,-244,49
43,90,-36,4156,2678,-3227
13,-119,-12,15808,2435,-3118
115,20,74,25342,-17628,-532
124,-76,35,13899,-15090,-6574
-31,-86,38,-2514,-2142,-767
-120,-61,-41,-6174,6329,-32
79,-5,60,225,-48,1840
102,108,63,-983,411,458
115,94,-108,-2264,1125,959
-60,51,-4,-5103,4316,1613
6,-114,-93,-10052,7023,2477
-53,-71,-116,-8791,6333,2129
-68,-33,-116,-8423,4486,1588
-53,47,-73,-9490,2289,1147
-64,-53,-28,-5168,-772,2046
-45,127,67,-1037,-3960,2729
88,-15,-58,-330,-908,1988
110,89,-57,-1985,-782,905
24,-32,-97,13,-1599,1229
-28,-61,120,2031,-1122,1086
-50,-30,101,1615,-474,441
-81,-56,101,948,-734,217
-122,-95,94,849,-781,15
117,-124,99,1088,-718,-482
95,86,104,1147,-394,-706
113,86,-118,26,260,-562
115,66,-127,-343,188,-228
125,53,105,-74,108,48
-124,68,106,-171,42,140
-125,83,94,-193,-152,52
-110,82,95,-84,-80,36
-116,84,87,-35,-137,29
-105,87,101,-326,-90,250
-106,116,94,-339,220,66
-118,107,74,26,-214,24
-107,113,85,-38,-147,50
-93,-128,91,-417,166,-19
-95,115,78,-116,2,70
-89,118,68,94,-154,-33
-85,125,76,-158,-104,-17
22,64,-16,-3865,2774,-3293
-1,44,-68,-1540,3493,-5163
27,-79,-46,4854,-35,-5374
-114,-120,93,24422,-16766,-2983
86,83,-51,21997,-19576,-5956
106,-65,117,-985,2485,-2900
-113,3,120,1016,-716,-2055
93,-14,121,-4837,3204,3283
122,49,-78,-3358,1289,1054
24,-18,-14,-1131,76,612
-94,4,-110,-5953,3981,1109
-35,-93,-66,-11038,6899,1352
-71,-127,-122,-9023,5871,1767
-119,-95,85,-5038,3607,1023
-77,-24,0,-5117,858,1356
22,56,66,-4527,647,2798
37,-115,79,-5312,-372,2278
17,124,96,-2170,-1391,1264
60,-59,-29,85,-1036,2486
19,11,-106,1193,-266,1958
-16,-27,125,1138,-297,1182
-23,-98,-122,1104,-680,1465
-57,-87,-107,746,-223,921
-103,-87,-112,433,-408,190
-113,-115,-106,436,-172,-166
-123,103,-111,213,-259,-468
-125,76,-117,528,-160,-423
-124,44,-118,627,-117,-352
122,42,-123,386,-397,-166
-128,45,-107,57,-206,59
-117,56,-108,-265,-24,-6
-115,62,-116,-443,-86,123
-114,77,-112,-470,-89,87
-107,86,-117,-234,37,26
-103,90,-126,-158,-39,-8
-100,94,121,-92,-55,29
-97,108,125,-242,73,-54
-94,97,106,-41,-80,18
-91,106,107,-148,-72,87
-85,123,107,-281,30,-16
58,21,-91,-3664,1320,-5340
0,13,-67,6264,-1420,-7327
-112,56,37,19024,-12817,-5310
118,126,-120,22359,-15778,-6229
-48,-21,-57,6327,-9144,-4287
-75,0,-79,-5012,2401,-516
23,7,-101,-2314,4054,1955
-73,-90,-100,-1783,1162,1002
-17,-53,-11,-2953,1691,1277
84,-30,75,-6187,4787,1944
91,38,-121,-9741,6470,2779
79,-70,-126,-9547,6371,2132
82,39,-31,-7601,4577,1465
-94,47,42,-5433,1501,962
-83,80,1,-3392,-1395,1793
6,105,-127,-1584,-677,2586
31,-84,-70,-3470,-369,3024
0,-107,-103,-2215,-780,2559
-34,38,-98,-178,-1680,1594
-8,5,-122,1621,-1041,773
-16,13,98,1574,-774,162
-50,-17,79,1287,-887,106
-95,-72,62,1386,-1219,417
-109,-53,86,669,-804,234
122,-53,99,-52,-81,-339
111,-95,82,26,51,-513
107,-122,68,288,-144,-407
109,122,72,269,-255,-240
119,127,76,48,-67,-206
-122,116,70,-9,47,-248
-119,117,64,-264,-16,-68
-125,123,62,-278,-57,97
-119,-123,56,-172,3,110
-117,-116,46,-129,-63,116
-112,-108,46,-212,-144,85
-105,-100,55,-279,-103,55
-105,-99,57,-155,-103,-11
-100,-98,55,-119,-63,-60
-93,-101,49,-223,-102,-37
-101,-95,52,-280,-110,16
20,17,-95,3105,-528,-4850
48,18,64,14795,-4898,-4461
33,109,38,23399,-23842,-6271
76,-14,14,6854,-7870,-9808
55,-1,9,1174,-6951,-1806
46,73,66,-8121,12068,3386
18,63,41,1914,-2563,-370
74,12,80,454,1043,209
-89,-16,-98,-2762,3775,1354
-106,-73,91,-3717,4096,1733
-58,64,98,-6498,5712,2049
-64,-125,-43,-8919,7318,2353
103,115,1,-8660,6293,1950
125,-76,-127,-7821,4853,2262
-77,-43,108,-5903,3448,2380
-68,1,-61,-4075,228,1700
-38,3,94,-1653,-537,1458
-40,-2,102,-722,-701,1508
-34,5,119,297,-411,1007
-43,-33,111,1104,-583,802
-39,-70,-123,892,-453,961
-47,-73,-128,329,274,1104
-98,-95,89,636,-324,724
-127,-119,94,691,-745,368
-124,-124,120,419,-505,-155
118,107,-123,97,-350,-348
118,86,-124,34,-143,-432
118,66,127,-99,-164,-230
119,62,122,-237,-128,-35
117,65,112,-102,-117,8
127,77,109,-294,31,16
123,80,91,-181,-78,119
-128,88,87,-81,-104,54
-120,96,85,-63,-14,-70
-119,94,78,-128,-117,70
-115,97,75,-107,-133,32
-113,109,83,-244,-88,69
-109,110,76,-153,-62,46
-110,116,75,-159,-83,35
-107,117,67,-39,-44,-11
-22,-120,100,-4271,2174,-2337
89,94,-76,58,2032,-3776
44,-5,-39,5376,-852,-4621
-29,-96,-98,16337,-8019,-5492
42,-19,113,26862,-23841,-8739
-17,18,117,3506,1902,-9810
102,34,27,-957,-979,1936
-30,-32,-36,-4982,3360,2722
0,-89,-85,2009,-2272,-619
-29,-55,-46,-4080,2084,2301
-80,-83,111,-5621,3805,2153
-66,54,-1,-9386,4860,3278
-93,-43,39,-11109,5670,2820
103,-38,6,-8020,4491,1917
-78,77,60,-7697,2739,2027
-77,99,-94,-5226,-465,1569
-34,-125,33,-2380,-2437,2945
29,-61,-83,-1644,167,2110
22,-26,-79,-1989,-763,1874
59,-31,-85,-2104,-2,1798
39,-87,120,-1214,-459,1373
7,34,101,217,-1385,1132
14,58,122,236,-867,977
-29,70,97,662,-431,157
-81,38,56,1170,-314,-867
-72,-8,72,648,32,-1164
-70,-61,81,54,222,-550
-82,-64,53,45,163,210
-94,-65,29,398,-254,278
-90,-78,30,676,-571,608
-99,-57,41,454,-516,496
-90,-57,57,100,-232,285
-76,-74,57,-47,-166,244
-79,-93,49,217,-357,249
-99,-73,61,100,-396,-25
-91,-86,70,64,-76,-268
-91,-90,65,-305,-32,-273
-82,-106,59,-368,46,-263
-87,-105,56,-89,45,-141
-80,-89,88,-234,482,-75
-60,84,-128,2243,3126,-4886
101,28,-20,4144,2074,-5129
-33,-54,46,10490,-3490,-4189
-117,-25,-64,28807,-20032,-3965
-57,-64,97,16424,-9776,-7422
18,-86,-70,-6498,-1996,-456
-5,24,-57,-4371,6633,2044
44,77,-104,-1271,-105,562
39,-78,33,-594,705,491
-111,19,-94,-4499,4369,1026
-106,5,-15,-4767,4582,1022
-99,64,-86,-6453,4198,1303
-74,-111,122,-7501,5498,1304
-66,-101,-5,-7248,5963,1207
-65,-31,-40,-5713,2995,1544
-28,1,19,-6005,499,2288
-55,21,62,-3601,-794,1108
-28,-79,106,-294,-859,1632
-15,-43,-122,-300,-804,1282
27,-34,-57,-840,-1483,2511
-1,-59,-40,-30,-386,2957
-70,-90,120,1598,-382,2169
124,-106,94,2050,-783,1042
70,-112,111,1696,-884,69
38,110,-100,885,-629,-787
74,48,-71,95,-91,-821
82,-11,-87,-109,3,-604
56,-5,-94,-299,-209,-137
59,11,-98,-267,-120,-173
78,7,-100,-141,57,-158
90,8,-107,93,234,-3
98,29,-97,-320,293,37
105,29,-119,100,48,104
115,35,-116,-118,-14,173
117,68,-124,-227,177,11
122,59,109,-90,92,-130
119,54,103,-125,-184,37
118,76,118,-231,-99,-87
-126,70,116,-57,13,-167
-122,59,116,-206,-206,155
4,-53,-44,-2776,2276,-2896
62,-86,-44,-3450,5809,-5666
-25,18,-7,4626,3457,-4430
38,-125,-7,17671,-7875,-638
94,-59,9,29713,-23009,6433
-88,28,79,9328,-14785,-675
119,92,68,-1670,-3393,-2095
69,85,-86,-3308,7321,1056
6,87,-20,-1084,421,760
-41,-3,85,-2733,1780,116
-37,-93,116,-4316,3359,153
41,-49,-17,-6532,4788,1446
4,53,43,-7093,4960,826
-25,18,-34,-3760,3036,391
80,-92,86,-7083,3899,546
-61,42,-117,-9428,4656,2437
-103,100,126,-5442,369,2135
-53,122,4,-2921,112,3075
-27,105,103,-2903,-443,2267
-6,89,117,-955,-1016,1305
24,31,-105,45,-946,1187
-1,-12,-114,905,-1245,1414
-27,-19,-103,1154,-1128,1385
-63,-45,126,1972,-622,942
-99,-49,108,1728,-636,373
125,-51,-111,1252,-369,-762
-110,-98,-83,536,401,-904
-101,125,-101,12,438,-775
-120,62,120,432,-365,-297
-115,63,-116,259,-455,-85
-111,103,-90,-555,-9,-15
-112,90,-109,-501,135,97
-119,80,-127,-74,-162,273
-107,101,-123,189,-224,287
-106,108,-121,172,-161,255
-99,114,-119,-43,-20,191
-105,-126,124,-353,15,65
-110,111,113,119,-250,109
-109,110,125,210,-207,174
-94,-120,-123,-279,86,66
-62,111,-114,-6331,2125,-2057
-116,30,-16,-4604,3783,-4807
-41,127,33,9082,-5723,-5711
26,-44,54,22518,-13296,-5359
-126,-115,-69,15991,-22308,-10845
127,-114,-76,-7235,-1309,-3136
85,15,24,3605,-7173,-4129
90,46,-108,-4167,10063,4373
34,-3,94,-2108,3350,3547
-71,87,28,-2168,3500,2415
35,1,118,-5257,6487,3458
58,71,-52,-6560,8222,3259
-51,104,-43,-6434,7449,3400
-32,-88,81,-4720,6456,3347
53,-26,50,-2811,3742,1766
-69,6,-20,-2997,531,519
-83,-75,55,-1335,-939,1093
-21,-54,-124,-918,62,1378
-37,7,-120,-1377,155,718
-72,-72,108,255,-1033,1225
-71,-110,-117,1894,-1656,1524
-75,-29,-70,775,457,600
-113,-72,122,974,646,-267
-126,57,103,1319,176,-120
-121,76,-120,455,-42,329
-119,93,-94,-270,108,561
-127,99,-123,-71,-75,284
111,76,-127,394,-380,106
116,74,-108,522,-373,-48
119,67,-95,290,-154,-63
121,68,-99,-180,-49,-132
-127,58,-109,-66,-11,-60
118,66,-116,-153,-207,-103
125,68,-111,-107,-224,33
124,81,-103,-313,-27,42
-120,86,-118,-256,-36,4
-117,95,-125,-298,-98,-48
-118,89,122,-97,-144,-17
-111,100,-126,-156,-48,27
-109,106,123,-258,-47,32
-11,-109,68,11652,-4952,-3054
43,115,100,25599,-27574,743
-41,-85,-90,7988,-13586,-1296
37,45,-87,129,-6572,-2203
-34,-110,-116,-5611,11173,3527
-89,97,-109,1427,-1800,477
-91,-84,-24,-2157,5327,836
-32,92,36,-3046,3097,756
84,-5,-107,-3722,5114,1253
-124,100,101,-6154,7801,706
-89,123,38,-7162,8137,688
1,-128,-99,-4007,4612,226
109,-33,68,-4921,3476,803
-54,-17,-25,-2605,1128,972
-89,88,54,-2555,958,341
-52,43,88,-1978,518,916
2,-120,-105,-2331,-37,626
-37,34,-113,319,-586,1199
-55,50,-113,753,-663,1356
-73,6,-121,1167,-349,1156
-80,-5,-113,81,-122,1076
-94,-54,117,681,-83,1183
-97,-83,125,428,-145,1059
-99,-62,125,22,-111,582
-101,-74,-121,-163,189,362
-118,-78,110,-231,-74,-98
-113,-115,116,197,-33,-41
-123,-126,105,135,-307,-41
-108,122,117,264,4,189
-122,-115,114,-140,-117,22
-122,-108,109,-363,-214,-68
-111,-119,124,13,-135,-151
-107,117,119,244,-305,-64
122,-117,-121,-27,-361,179
-120,-104,-107,19,101,-25
-102,-113,123,66,22,-254
-95,123,114,-79,-175,-141
-101,-126,121,-253,-55,-149
-100,-128,126,-166,94,-53
-99,-128,114,-57,65,44
36,11,-97,-7273,1974,-3726
115,88,59,14174,-12578,-11640
-88,70,-13,19659,-24012,-6147
-1,31,50,5836,-9759,-5712
3,106,-7,56,-5212,-3279
-110,70,46,372,910,563
-93,-128,-116,-3796,7589,3442
115,53,-86,-3835,4726,2811
42,-13,23,-2251,2706,1382
-61,32,112,-6009,7020,2329
-80,-79,14,-7339,8427,2193
-36,-23,39,-5689,6861,1082
-108,-101,-3,-5507,4503,813
-74,-31,120,-5022,571,325
-31,-117,33,-704,-113,897
35,-25,-86,2133,-58,-1102
51,33,-11,-2134,1389,-319
-24,-94,-113,-415,13,833
-8,-117,-60,377,-511,1718
0,-50,-2,-279,82,1563
28,-125,-38,965,313,1978
-51,24,-111,2050,-1075,2858
-57,30,-37,1737,-608,591
-61,24,0,-320,46,-833
-62,-82,-39,-754,166,-255
-88,-91,-63,1,-377,-246
-69,-79,-32,-124,-84,-239
-60,-85,-44,-144,24,23
-81,-90,-64,258,-102,-23
-65,-64,-47,-258,194,-35
-67,-79,-75,-178,-345,136
-42,-50,-41,-390,164,-20
-44,-67,-65,-29,34,89
-25,-98,-79,451,-48,110
-53,-84,-77,266,-141,34
-57,-77,-69,-23,108,94
-59,-71,-63,-238,-159,324
-46,-51,-44,-75,-50,320
-42,-39,-42,105,-22,29
-41,-43,-46,-80,-102,72
-101,98,67,2436,-1894,-2832
-63,100,-31,17031,-7324,1286
45,-8,-65,27392,-31080,-885
73,-6,-106,-4429,570,-5530
14,122,-111,-6116,7954,1515
5,-95,12,5714,-7778,550
-37,53,29,-1386,1498,588
62,11,124,-3975,4849,1259
-76,126,8,-3300,2482,1361
-5,38,92,-5737,4578,1640
26,123,30,-8340,6441,1639
47,-78,6,-9643,7008,2240
35,-16,50,-8599,5471,2810
104,12,-43,-5047,2748,1802
-66,62,58,-5342,132,1998
-72,79,113,-2163,-184,1610
-29,43,-65,-1095,185,1788
8,62,-94,-824,-1780,1277
41,4,-39,-991,-831,1682
12,2,-95,560,-1896,1896
-47,70,-118,1400,-1226,698
-96,-124,-106,-30,-201,-994
-115,28,-127,-287,247,-1532
-110,-60,98,476,-78,-968
-116,-79,102,319,-71,-490
124,-63,106,326,130,-120
-128,-75,83,140,-74,61
-112,-62,89,-138,-63,188
-99,-61,87,58,25,197
-92,-64,88,284,94,186
-104,-61,85,194,-88,109
-93,-72,87,187,-214,152
-94,-78,95,53,-342,260
-92,-74,110,-28,-196,255
-88,-62,118,-231,9,109
-90,-66,101,-145,-101,-50
-89,-78,99,5,-168,-56
-88,-65,105,-189,35,-155
-87,-86,92,1,-54,-114
-88,-85,86,-127,-187,-12
60,82,59,3642,1651,-6156
-101,-120,-98,10620,-157,-3991
-101,38,1,22004,-14440,-2888
-111,-94,12,17965,-14505,-5941
-110,-48,37,826,-5958,-1466
37,69,-115,-7265,8519,1454
93,4,-92,567,-736,856
45,-5,29,-1207,1061,760
-118,-26,118,-5157,4060,1885
115,-65,10,-5962,4056,2337
-59,-114,-96,-10576,6750,3082
124,-22,-93,-11338,5736,2242
102,27,5,-9334,4511,1400
-86,88,55,-7951,1404,1388
-16,74,-23,-3257,-506,1735
34,61,-33,298,-841,1567
75,-92,-11,220,528,403
71,-67,-19,-1834,205,591
49,94,-27,-1174,-790,1332
39,90,-36,-291,-1237,1227
21,88,-35,-269,-965,1071
-2,70,-68,182,-831,915
-25,66,-88,526,-677,390
-49,43,-105,589,-652,31
-37,55,-74,-151,456,-734
-46,-5,-102,-473,317,-520
-60,-59,111,-69,-213,-24
-61,-35,125,-244,-29,67
-61,-38,110,-158,-120,101
-52,-26,111,-151,-80,-18
-53,-36,113,173,-199,76
-37,-23,-125,91,87,103
-42,-11,122,-190,44,-44
-40,-25,112,-49,-40,4
-40,-28,120,-132,21,-10
-40,-23,112,-287,-6,-36
-39,-34,111,-49,-112,48
-38,-23,120,-168,-107,28
-36,-28,119,-40,-62,-50
-36,-24,122,-186,-63,7
-57,2,-40,9140,-2838,-4860
24,-102,-66,24620,-15677,-5361
-97,-8,-100,17315,-17772,-10058
-50,108,-89,-2863,-4191,-3272
100,4,9,-2630,4760,-34
-110,-18,51,-687,1337,1165
-79,-29,103,224,-390,530
121,4,-66,-3639,5381,2952
-95,-9,51,-6195,6124,2698
-63,87,-24,-9286,6686,3788
-78,-58,113,-10886,7140,3451
64,-15,99,-10241,5755,2819
86,19,-20,-7975,2952,2839
84,-15,-116,-4573,-956,2459
-53,-11,-48,-911,-370,2622
-9,78,-79,305,-34,1626
-18,91,-121,-814,-332,819
-55,-28,108,435,-787,1121
-52,-124,117,1649,-1097,1757
15,-91,-79,666,-303,2215
-37,-5,-96,-143,-160,1363
119,13,-116,-358,-538,-216
105,-64,-113,551,-478,-1403
127,-126,-98,486,104,-1274
127,96,-119,20,320,-912
119,82,113,-85,83,-247
125,88,117,-290,-111,238
-116,-128,105,-390,-61,181
-114,-116,103,-333,-167,76
-110,125,96,247,-267,129
-110,-107,98,56,-148,85
-110,-102,91,-147,-114,94
-101,-103,89,-114,-96,63
-101,-106,92,-118,-141,39
-92,-98,98,-217,-26,-4
-96,-100,94,-68,-27,-40
-96,-99,88,-86,-69,-103
-92,-96,90,-237,-27,-58
-88,-99,89,-176,29,-67
-89,-96,83,-223,-74,17
-50,67,-42,5497,-104,-3409
-57,-39,28,16100,-6567,-4409
-95,-93,-119,29391,-27482,-10927
-43,-79,33,5776,-6826,-9419
-102,-13,-116,-1612,647,3156
-4,-58,113,-2379,1188,1836
-38,-91,-24,1599,-1575,-222
-39,90,26,-5426,5762,3314
-104,75,11,-6373,6004,1904
-80,119,-97,-8087,6318,1882
-1,-24,65,-11095,7846,2867
-69,23,91,-11066,6453,3032
-112,123,-105,-10279,3476,2256
-115,-29,-21,-4071,-1412,1308
-58,111,-3,1836,-4197,1566
-115,-25,31,-2123,1027,837
71,49,-29,-3434,-1237,1803
-10,5,-58,-542,-1864,1640
-31,5,-126,2634,-1639,814
-81,20,90,2345,-1397,530
-106,54,104,-58,-140,-449
-117,8,110,-1423,555,-1080
122,-107,62,-417,319,-849
-123,-91,63,-497,387,-478
-125,-90,39,-248,295,-9
-107,-55,17,-314,160,102
-96,-58,16,-118,-149,125
-84,-36,33,-325,-64,108
-85,-38,36,-156,-107,14
-85,-42,35,45,-77,0
-85,-39,34,-103,-150,62
-82,-34,40,-244,-129,73
-77,-41,47,-71,-4,32
-69,-39,41,-80,36,-111
-74,-41,33,-183,-60,-104
-75,-46,39,-172,18,-97
-71,-48,36,-235,25,-4
-72,-45,31,-188,-120,76
-64,-28,40,-330,11,1
-59,-33,41,-275,-16,11
-59,64,96,4532,690,-3802
50,91,-45,11772,-3983,-4943
-48,-105,-33,18685,-16335,-6225
55,-58,-24,16108,-20405,-8984
36,-82,117,-129,-6318,-5713
-54,-122,96,-3311,4110,578
62,126,48,-1766,3421,1694
-33,-39,41,-674,1039,2076
80,-108,37,-4346,5073,2013
-20,111,-104,-7550,6936,3796
45,30,112,-11148,7452,4385
-63,61,-44,-11589,7090,3938
100,75,3,-9987,5194,2835
-103,24,41,-6362,859,1024
-13,-81,107,-5187,-1237,2327
46,19,23,-1153,1121,1241
44,55,-26,-940,-599,69
54,28,-6,-1089,-290,776
0,0,-48,-664,-1013,773
-2,0,-68,-881,-1532,1023
-4,-7,-107,-94,-2126,908
-21,8,-119,430,-1679,785
-73,21,125,633,-847,-34
-84,35,-115,-323,388,-969
-85,-40,94,-338,664,-1037
-98,-73,55,155,162,-510
-104,-69,47,193,-192,-214
-102,-44,58,-233,-48,13
-89,-46,55,-257,14,95
-82,-47,52,-121,-121,119
-77,-40,56,-99,-130,101
-72,-35,59,-188,-29,47
-78,-37,54,-115,-104,104
-76,-33,50,-91,-71,77
-75,-30,44,-222,-128,104
-75,-28,46,-164,-156,71
-67,-21,57,-313,30,-33
-71,-34,49,-52,-153,-53
-67,-34,56,-112,-53,-76
-64,-27,60,-336,58,-79
-37,50,60,4448,-1343,-2723
-40,-108,-79,12357,-5785,-6793
119,57,-95,18527,-17454,-9777
-31,-108,-102,12232,-21010,-3258
62,36,-20,-3171,-647,-5212
-29,-76,-90,-2731,3597,97
23,1,32,-1428,2719,2098
-29,-8,-34,-1391,812,1218
90,118,-39,-2900,3454,1095
-109,66,-66,-4516,4547,1564
-4,-109,-89,-7752,5795,2781
-19,-79,-114,-9505,6042,3329
-61,-65,17,-8052,5577,2982
-112,-34,-36,-7837,3106,2383
-83,-80,0,-6302,581,2210
-29,-86,68,-4642,-727,2519
12,-73,-106,-2773,-1693,2812
0,-34,-89,-1094,-437,1678
-16,-75,123,-53,-1254,1115
-14,-101,-123,391,-1177,1271
-68,-95,76,1664,-1495,890
-106,-38,86,989,-918,152
-116,-18,111,-170,4,-710
107,-105,75,255,162,-1158
111,110,67,544,25,-1100
109,83,73,447,-65,-755
125,95,93,-473,375,-274
126,89,65,-275,213,152
123,89,36,376,-300,169
-121,116,54,110,-197,160
-114,118,56,-33,-114,152
-116,121,55,-99,-146,126
-114,126,56,-209,-79,127
-108,-121,58,-308,-29,100
-110,-125,50,-75,-97,27
-104,-119,51,-128,-112,-55
-100,-112,60,-339,23,-97
-103,-116,57,-258,33,-103
-100,-120,47,-134,-9,-53
-94,-109,47,-296,14,0
-4,74,-15,2721,998,-3332
-4,68,22,7101,-541,-4302
16,-8,66,16323,-7960,-4296
-108,20,36,-31222,-28431,-12177
37,-114,-87,-747,-846,-4208
28,-38,101,-5986,4675,3560
-84,103,84,-2315,2649,2754
100,103,-123,-1069,718,1673
120,-112,1,-2900,2089,526
-45,87,-12,-5537,4608,1327
-18,110,-83,-7526,5620,2227
6,-35,48,-9417,6750,2678
-75,-99,-106,-5895,4125,2015
-51,-70,14,-6079,2250,1998
-61,-57,51,-5236,72,2145
0,-44,106,-3843,321,1887
-7,-52,103,-2130,-336,1720
11,-70,125,-1398,-498,2069
29,-21,-91,-2030,470,1556
-21,-39,111,-1364,-902,860
-50,-119,113,690,-1285,900
-58,-122,122,1324,-1205,1126
-74,-71,115,575,-335,657
-119,-98,75,538,-580,150
118,126,70,1082,-632,-155
123,-121,109,189,299,-678
127,85,99,-150,397,-595
116,45,66,502,-224,-368
126,55,84,306,-124,-257
124,51,91,-2,-222,8
-126,69,91,-384,-114,50
127,64,89,-52,-218,203
-124,78,88,-98,-175,167
-123,89,70,73,-173,122
-126,82,68,258,-287,72
-113,94,79,-176,-4,52
-110,113,74,-714,195,-41
-102,120,61,-983,345,-102
-100,108,41,-363,19,38
-97,-127,50,-233,-90,-8
71,-31,-121,14024,-5927,-4883
-17,49,-121,28087,-28192,-10310
-65,70,90,1054,-4481,-6032
100,97,61,726,-1444,-3105
81,-43,-62,-6055,8587,4427
20,68,-110,-325,-1441,1677
33,-103,24,-2457,2250,1309
99,80,65,-4410,3660,1705
-97,60,-37,-6681,6745,1963
-94,-118,79,-9120,6746,3100
-118,-30,89,-8057,5404,2205
116,-15,-108,-5409,2802,1591
-64,-5,12,-5344,968,2342
-86,-19,74,-4206,-2599,2907
-12,-10,-67,-1430,295,2939
-3,-35,-88,-578,-897,2605
-4,-28,-97,-427,-392,1831
-12,-53,112,251,-834,1084
-8,-41,96,703,-1205,349
-110,-18,86,788,-807,-729
96,-91,85,873,-666,-1150
102,77,114,647,-346,-591
111,53,122,294,-169,572
101,68,106,219,-112,753
87,69,87,621,-309,470
88,76,95,581,-321,222
87,77,98,290,-83,-69
83,72,99,-128,158,-189
89,44,78,-130,139,-24
77,46,66,92,-317,126
88,59,80,4,-232,105
94,69,86,-87,-118,-52
92,66,84,-115,-169,-63
92,65,91,-119,-95,-47
96,65,86,-27,13,-43
101,69,73,-134,-8,-11
103,77,60,-219,-17,-1
109,79,58,-202,-38,-34
112,80,54,-155,-70,-5
115,90,58,-189,-59,-15
-67,29,92,-4054,4288,-2685
52,-40,-33,1606,3823,-4434
88,122,119,8694,-1167,-4422
-48,-127,8,17126,-6421,-2012
-123,-71,-52,26356,-19523,-6131
-83,-124,-97,5944,-7437,-3835
-28,104,48,-1948,1909,-728
89,-77,113,-4943,3679,4439
-30,41,-85,-715,260,2288
74,116,-63,-3598,2942,1074
77,44,72,-4637,4658,943
124,28,-48,-7025,5869,1965
116,72,-62,-7683,5967,2552
100,-90,112,-6323,4179,1893
-54,11,-124,-7496,3063,2968
-76,88,-110,-6802,974,2149
-47,40,-42,-3972,-443,1949
-26,-4,66,558,-1584,732
-8,6,98,75,-1171,1097
41,-16,121,-677,-512,2213
47,37,102,-772,229,2162
-1,25,32,1201,-185,1134
-71,14,-12,2212,-831,-48
-107,-28,16,1540,-1391,-926
-106,-86,72,564,-840,-1004
-110,125,106,-504,127,-793
-127,94,72,-529,268,-294
122,97,55,-453,121,24
-117,112,54,-338,19,292
-110,115,44,295,-171,306
-111,126,35,675,-273,120
-108,123,39,427,-329,154
-108,-124,59,-34,-118,197
-101,-126,48,-91,180,28
-101,125,30,-151,54,5
-103,122,19,-86,-166,-41
-109,-126,32,-164,-268,-169
-97,126,49,-241,-28,-221
-101,120,45,-277,-73,-145
-104,122,47,-203,-93,-64
-95,117,106,5033,-994,-5081
-76,80,99,17950,-20539,-8067
-70,43,13,17091,-21760,-14162
101,121,-48,-4556,2040,-5662
-74,13,-90,-320,2946,1556
84,-107,28,-3480,7730,3837
92,-38,17,-756,-858,1374
50,57,82,-1537,1442,1194
-126,-8,-68,-4179,3685,2124
-123,-17,84,-5951,6741,1864
105,14,-80,-7103,6776,1715
100,72,-80,-7622,5203,2261
115,-96,101,-5115,3565,1902
-37,-65,-73,-4603,2228,1590
-13,19,-5,-3984,1025,1000
20,-19,28,-2517,437,1313
30,21,106,-1817,-1037,392
24,-4,-116,-434,36,686
7,-8,-123,-501,-215,943
-11,-31,117,-14,-292,1041
-12,-33,110,-224,-258,1037
-21,-33,98,-184,-295,917
-41,-37,79,-68,-392,664
-60,-32,78,-284,-329,224
-86,-68,69,117,-442,-88
-88,-84,72,291,-202,-52
-90,-97,53,282,-77,82
-94,-106,44,258,-243,119
-99,-109,42,228,-319,164
-98,-109,56,45,-194,157
-98,-100,55,-70,-30,32
-93,-104,45,-173,-30,-125
-94,-109,42,-263,-121,-138
-95,-111,48,-164,-62,-183
-93,-116,47,-128,-72,-179
-84,-112,49,-260,9,-117
-90,-115,44,-129,-132,-71
-81,-101,48,-270,40,-92
-82,-107,38,-186,-36,40
-78,-104,35,-94,-107,40
106,105,126,7110,-1960,-2183
86,3,53,24925,-12392,-3611
-65,81,102,20122,-30277,-9493
51,-6,72,-5853,705,-2200
9,-67,64,-6625,12158,5177
16,-92,-18,926,-1231,899
11,-30,68,-1551,1812,873
-111,17,-38,-4544,5511,1034
85,8,-21,-6313,5257,1136
-115,72,119,-7669,6033,1017
-117,-104,-69,-7048,5433,179
-63,-49,120,-6503,3974,1073
-69,-78,-100,-3909,1161,1689
7,25,86,-4293,818,1523
-11,-15,95,-2379,-1649,1648
65,43,-21,186,2070,856
6,30,-86,-265,1023,785
26,12,-39,-1494,-207,1004
25,-16,-39,-870,-580,1092
11,-25,-31,-480,-422,826
-21,-102,-58,313,-1045,1348
-47,-97,-62,-255,-1121,1618
-74,-106,-106,679,-1386,881
-106,87,-112,2739,-931,379
-104,-126,-72,952,-46,99
-120,-126,-81,-618,-33,-72
101,36,-122,221,-613,273
107,46,-99,254,-298,312
110,79,-106,-444,154,45
99,58,119,-223,-160,-44
99,53,116,-28,-329,-22
105,63,-125,-129,-194,-70
112,67,-128,-261,10,-129
110,69,120,-251,48,-57
116,65,110,-12,33,-83
-124,73,108,-6,24,-104
-125,86,108,-248,-91,-25
-121,86,104,-207,-89,3
-118,89,99,-153,-62,-9
-113,97,88,-226,-16,-1
-110,32,84,-2652,1639,-4102
-86,-70,113,-1267,2147,-6535
-111,-69,-115,8950,-3835,-5339
-21,-106,-97,26958,-10590,-5836
-37,54,-101,17128,-11088,-6626
111,-58,-92,4083,-7585,-3186
65,39,79,-6558,7764,5290
-95,24,-17,-3095,3597,3359
-76,102,-106,-2169,750,1423
39,118,-77,-4599,3581,1263
-122,127,79,-8774,7787,1434
-102,-115,-27,-11541,8051,1751
125,-23,-105,-8079,4290,2161
-43,51,46,-6519,1774,2743
-45,97,-82,-4302,-599,2595
-21,61,51,-1130,-1055,1983
34,78,-117,-753,-1034,1895
20,85,-121,-1081,-466,1720
-13,27,84,400,-558,1308
-36,23,63,1025,-520,606
-58,-39,49,1498,-741,345
-79,-56,69,883,-281,303
-90,-73,68,243,-39,81
-110,-103,61,143,-293,76
-116,-117,72,30,-176,37
-121,-116,69,3,-92,-90
-118,118,65,237,-141,-28
-114,-127,65,105,-3,-149
-109,118,50,89,49,-389
-119,98,48,157,-256,-167
-120,90,58,236,-339,84
-111,109,72,-89,-140,87
-112,122,73,-322,-41,49
-102,112,68,-157,-62,40
-104,113,60,80,-134,43
-105,114,53,144,-175,23
-105,112,47,159,-213,17
-110,119,53,-29,-215,18
-103,-122,73,-346,-50,-65
-96,-128,68,-207,79,-244
-108,-113,55,-5320,1871,-3394
-61,8,-123,-2101,5286,-8429
-101,111,-85,12382,-6702,-5355
65,-62,93,22407,-14856,-7634
-58,-101,56,12235,-10126,-7148
82,8,-91,2235,-8060,-4913
-60,-72,117,-2770,4871,3496
55,-77,13,-4380,4598,3421
86,-96,119,-2533,2683,2488
-68,115,45,-6626,6021,1990
15,127,103,-9952,8274,2741
58,20,-98,-11110,7421,2384
74,105,43,-7834,2479,883
121,60,2,-3819,-2968,2214
-32,31,120,-1911,-2026,3656
45,-86,-125,-661,341,3231
23,-59,103,-915,-46,1763
-37,64,39,-53,-1289,731
-2,-20,25,1412,-1994,1601
6,-62,32,2417,-1297,2011
-69,37,9,2055,-718,828
111,9,46,1434,-331,95
81,-82,82,757,-154,-1073
77,93,89,836,-100,-1092
84,30,108,475,-133,-519
94,28,102,119,25,-44
99,46,95,-316,144,27
96,70,78,-587,97,-79
105,60,78,-268,152,-145
105,52,74,-31,-187,-21
115,64,78,-74,-145,106
117,82,78,-244,-2,98
124,87,70,-213,10,24
124,89,57,-161,-185,9
-128,93,64,-111,-140,-62
-125,99,69,-195,-26,-71
-128,96,61,-81,-71,-50
-121,97,57,-56,-48,-38
-121,100,53,-52,-91,-5
-113,100,49,-35,-67,-20
-47,-107,-99,8512,-1994,-5792
-103,22,117,20672,-16579,-1071
-107,37,62,16918,-17052,-796
126,50,95,-3279,-1133,-2397
-53,-28,-92,-5955,12033,-2876
66,-112,82,50,1531,1607
-114,119,-58,-3417,-723,763
-56,40,-96,-4958,2616,616
-1,25,53,-5624,4346,-71
127,27,111,-8154,6147,626
-73,-92,94,-8862,5527,1304
-87,-76,25,-4794,3441,1680
-41,32,-61,-4093,1468,1347
5,79,52,-3518,-1002,1800
47,114,-128,-2604,-321,1515
47,73,-90,-2258,-20,1825
43,86,-98,-2130,-145,1432
23,35,119,-701,-731,1238
30,-34,118,128,-946,1643
34,11,-120,-546,-465,1651
-34,1,62,674,-442,959
-75,-13,42,1298,-975,223
-101,-40,68,1016,-982,-139
-92,-67,119,16,23,-298
-105,-92,87,-89,121,-284
-123,-118,54,181,-164,-258
-112,-121,74,87,-127,-149
-103,-117,75,-97,39,-155
-106,-119,66,-90,-18,-170
-100,-123,67,-183,-70,-45
-101,-112,65,-303,-87,-8
-93,-119,64,-6,-106,49
-90,-101,65,-164,-39,14
-83,-103,64,-133,53,-2
-83,-103,57,-106,-72,1
-84,-103,58,-49,-145,2
-80,-103,66,-45,-87,-7
-78,-100,62,-81,-99,-27
-82,-104,59,-10,-123,-21
-79,-104,61,-30,-115,5
-102,-52,-97,7803,-2112,-4395
46,-55,-61,28605,-17577,-5506
118,-23,33,16726,-15573,-10058
19,-38,115,-274,-6001,-3372
19,-99,64,-5880,14529,2935
-83,-9,-108,-3746,776,3987
-116,85,-58,-89,219,1045
53,-118,46,-3848,4071,844
44,12,23,-6381,6798,806
79,10,62,-6961,5688,1636
123,-112,115,-7344,4981,1365
-124,-74,98,-4540,3006,1176
-18,-29,-25,-4175,2107,1246
-18,29,67,-2739,753,779
37,15,-116,-1887,1630,602
66,34,-62,-1939,1315,105
6,-3,-124,36,-1024,555
40,-47,-14,-441,-291,1640
22,-52,-33,-280,-1098,2091
14,-47,-56,-144,-979,2171
-24,-81,-123,758,-1110,1964
-97,-77,106,878,-1186,1057
-119,-76,-124,342,-527,-187
-124,-113,-116,-219,89,-516
-124,103,112,-99,50,-342
125,84,95,199,-318,-190
121,83,100,321,-402,-68
118,95,110,141,-263,-184
-127,86,114,-25,-106,-216
125,89,111,-301,-126,-77
127,86,109,-182,-100,19
-124,98,105,-120,-69,46
-115,108,99,-189,20,30
-112,113,88,-248,-2,14
-113,118,75,-142,-84,-18
-105,119,75,-94,-46,-84
-107,118,69,-62,-172,-67
-107,116,72,-51,-192,-49
-106,121,79,-135,-77,-40
-104,116,77,-135,-101,68
93,-128,57,-553,1154,-6282
-54,-124,-101,4861,-3060,-4190
-82,-18,-43,14322,-10699,-4571
46,-6,31,21117,-16212,-8036
21,-14,23,1589,-5993,-7559
-53,-36,39,-1940,16,699
34,112,85,-5329,8371,5049
-84,75,54,-1535,1804,3136
-82,113,114,-2956,2341,1199
-2,30,-87,-5317,5172,1576
16,25,-78,-6590,5767,1268
80,104,-1,-8386,6207,1743
-115,-26,-31,-6828,4268,2146
-70,41,68,-5154,2224,1774
-43,101,-77,-4781,1040,1221
-23,101,17,-2895,562,1049
24,-126,82,-2469,101,1148
18,117,-97,-1343,-88,848
22,84,-92,-721,-518,1224
23,81,-101,-334,-681,1133
21,47,-119,383,-703,1174
-8,7,102,1581,-1048,1141
-44,-22,76,2441,-1503,670
-66,-27,117,1852,-933,19
-73,-43,-109,377,-44,-358
-85,-99,126,-438,173,-297
-94,-123,97,-275,-15,-120
-97,125,88,71,-157,26
-95,-121,85,15,-192,28
-92,-119,89,-148,-145,-31
-95,-116,90,-348,-132,1
-94,-113,90,-304,-83,41
-84,-110,90,-196,-22,30
-88,-103,78,-169,-146,13
-84,-102,82,-182,-81,21
-83,-102,76,-143,-50,44
-83,-105,63,-117,-109,78
-87,-96,59,-118,-154,-43
-86,-100,63,-93,-155,1
-95,-92,75,-202,-204,46
-15,-121,105,-1260,1628,-6575
-102,-75,101,1813,-424,-5547
57,-41,24,7529,-2737,-4760
50,98,-16,23475,-9445,-4396
6,-50,-106,19340,-8517,-6730
13,-110,126,3778,-8176,-3664
23,90,-121,-19284,22565,7116
64,-8,-72,2135,-5712,448
-14,10,-62,-1153,460,1441
123,46,6,-7780,4973,1732
88,34,-44,-9631,5880,1991
79,127,-123,-9937,5152,1560
-117,44,25,-9660,4430,1708
-52,-109,-36,-6983,1775,2007
-42,-43,-77,-4611,89,1826
-21,-71,57,-2206,-250,1110
102,-87,23,923,2806,394
-124,-66,12,-226,1508,1126
46,-95,-8,-585,-1109,1582
93,118,55,-297,-881,1653
81,116,67,-471,-921,1508
41,72,9,398,-1154,1379
-10,94,-37,-49,-1585,664
-36,67,-54,-509,-996,290
-67,2,-102,-576,-876,138
-77,-21,-116,-357,-555,-22
-87,-42,122,-301,-158,-130
-93,-40,103,-341,109,-111
-94,-54,83,-81,-81,-36
-94,-56,82,-165,-210,233
-86,-46,82,-158,-221,271
-94,-54,73,102,-358,234
-88,-49,78,118,-204,138
-89,-51,76,9,-203,128
-90,-54,76,-86,-180,123
-89,-45,80,-270,-53,94
-88,-46,69,-206,-97,27
-89,-37,72,-314,42,-235
-81,-56,72,-208,32,-234
-84,-61,65,-253,-33,-159
-47,39,11,1471,1637,-5085
122,0,-19,5380,-1127,-5103
-120,21,-93,17980,-7895,-3869
93,1,101,21606,-16626,-5121
20,-63,-62,5087,-7248,-5401
73,20,34,-2747,1042,919
43,-40,-57,-5225,6174,5098
113,86,93,-5153,3772,3165
7,80,-111,-4006,2948,1111
124,46,-47,-7350,4928,1868
119,-121,6,-9110,5154,2100
107,-23,66,-8372,4104,2118
-83,115,65,-7906,2720,2269
-36,-36,-94,-7012,1538,1935
-8,-43,14,-3503,-178,1574
-6,96,-101,-58,-1457,1595
112,-68,94,-831,1470,727
72,-125,2,-1160,-1263,1117
94,40,8,493,-749,1826
74,63,-19,680,-1320,1571
12,81,-64,240,-1535,1110
-35,59,-77,334,-1290,87
-55,7,-88,322,-465,-695
-69,-28,127,-310,-123,-403
-103,-56,81,-389,-280,-131
-108,-67,77,-207,-565,142
-110,-69,86,-166,-472,239
-107,-51,97,-294,-196,162
-95,-65,86,97,-2,6
-106,-81,50,568,-273,42
-114,-81,51,415,-461,246
-103,-75,64,141,-208,258
-98,-75,55,74,-119,183
-100,-76,51,26,-164,10
-106,-74,48,-126,-126,-148
-105,-82,59,-320,-115,-193
-101,-90,72,-273,-13,-142
-100,-86,67,-331,90,-156
-97,-91,55,-242,-18,-56
-98,-88,49,-54,-64,31
-20,78,5,-5138,3337,-2892
119,-20,-69,95,2161,-3707
-44,-74,-21,2872,604,-2746
63,-32,3,5216,75,-2820
-52,104,0,25942,-13694,-5110
123,116,-81,27595,-22274,-14110
62,-63,-66,-3414,-3589,-1693
-85,-84,65,-4310,6344,4718
118,-113,119,-2568,3084,3370
39,-118,-88,-1676,2421,1755
98,-110,44,-2481,2851,292
-109,62,52,-4707,4076,1159
-68,66,-47,-6987,6361,1603
-99,119,50,-7024,5692,2081
-126,105,-81,-4224,3895,1362
-13,-83,31,-4167,1686,2483
-11,-38,42,-2369,805,2057
-28,-33,-124,-1949,-78,1595
-26,-19,-101,-2366,508,1078
-61,-105,113,-1242,327,1518
-88,95,75,396,-639,1797
-106,50,81,1332,-1159,1895
-100,54,-107,1058,-983,1881
-110,116,-77,-130,527,1245
88,-123,117,-524,729,309
66,102,89,-295,-108,-356
64,55,92,393,-488,-428
73,38,115,630,-336,-500
74,33,111,539,-235,-646
62,14,109,488,-384,-648
79,-12,-123,181,-298,-320
81,-5,-121,-144,-109,14
83,14,123,-391,0,40
83,10,105,-95,-89,115
89,19,99,57,-181,64
92,28,101,45,-209,98
94,33,101,110,-147,15
97,34,99,67,-120,19
99,35,92,37,-85,-6
96,40,86,-51,-128,-17
-84,-8,61,-2819,2176,-3610
6,-90,21,5516,425,-5253
-28,-120,-1,22376,-9962,447
-34,94,-48,27624,-20599,-4695
53,52,-24,-6762,1541,994
-87,46,-30,-3286,270,1251
-55,-19,-89,-2183,2897,4235
89,12,-29,-3021,3767,1177
-43,40,79,-4219,3055,-43
-67,-100,-34,-3886,2381,-116
-3,-59,-128,-4788,2840,348
43,24,26,-5842,3437,1086
86,-113,-115,-5206,3663,1165
103,-46,126,-4452,2104,765
-45,47,-53,-5284,2086,1859
-56,92,-30,-4431,1204,1610
31,-79,37,-5627,2111,2563
-10,-75,46,-3877,387,1579
10,119,103,-998,-629,820
78,111,-79,-802,-721,1150
56,122,-94,-830,-891,884
24,78,-107,-185,-774,793
9,68,-128,-126,-593,744
-20,28,95,263,-772,756
-44,-19,73,718,-965,836
-56,-75,64,1704,-1398,1064
-75,-77,93,1824,-969,671
-97,-77,96,1084,-406,304
-119,-96,92,488,-286,6
117,125,90,70,-234,-188
117,103,89,64,-41,-162
115,92,77,108,-27,-172
117,92,70,-78,-83,-123
121,88,66,-25,-168,-114
122,91,70,-14,-226,-178
-126,101,86,-365,23,-225
-126,91,80,-282,-2,-119
-127,88,68,-94,-111,20
-120,101,67,-60,-56,46
-119,107,55,-28,-135,45
-120,21,104,-3862,1798,-1587
47,-48,-92,-2792,3491,-4441
8,-92,39,1073,3076,-5925
116,45,84,9976,-1116,-5902
-48,-34,23,19644,-9176,-4095
-108,100,-74,22749,-15961,-7998
58,-12,34,2334,-4234,-2503
-123,70,89,-7129,8160,2998
-33,114,16,-2771,1517,2418
-121,-86,-101,-1022,673,970
6,-120,78,-5230,3585,1103
32,44,-86,-6037,4937,1631
60,83,-52,-7126,4899,2170
71,-92,122,-5761,3400,1927
-116,4,-119,-5170,3355,2337
-32,100,-53,-4473,2026,2779
-9,-128,10,-3715,988,2422
38,84,85,-1585,-267,2301
21,56,-123,-80,-1045,1519
19,47,-97,-675,-603,1371
12,30,-122,-857,-297,1468
16,39,121,-715,-459,1300
-76,3,80,672,-1042,2
-113,-38,66,1291,-739,-360
-117,-92,77,777,-210,-128
-116,-126,64,705,-132,322
-127,104,56,756,-528,529
122,100,76,565,-724,550
125,126,107,-174,-104,285
-125,-102,103,-1113,570,-167
119,119,59,-654,405,-301
113,84,37,233,-281,-69
-122,121,65,-154,-70,-94
-122,126,54,-291,70,-133
127,110,39,45,-191,-125
-119,121,52,-132,-33,-129
-118,120,47,-212,-54,-82
-116,125,42,-254,-88,-17
-118,126,41,-52,-184,0
-107,-125,50,-118,-93,-2
63,-111,67,2084,-583,-6750
26,27,29,2254,-2565,-6316
-17,-14,-84,10778,-5764,-4360
70,14,7,14913,-11579,-3473
2,-83,122,8529,-4621,-2958
-76,-29,-23,5763,-6305,-7410
-46,-67,84,-1938,-1281,383
59,-97,15,-2704,2576,3660
-46,-40,1,-5598,5604,3622
48,47,-73,-4991,4663,2099
20,27,59,-5174,3575,2047
0,54,0,-4962,2981,1998
45,-70,-31,-5653,3634,1534
96,10,-121,-4665,2857,1106
-100,32,-96,-3414,1445,1681
-49,95,22,-3439,1561,1778
-18,-63,56,-4224,1367,1408
-18,-109,48,-3318,261,1805
-7,126,96,-1254,-473,1565
23,99,-91,651,-696,1051
40,-120,-90,-642,79,1052
0,78,-123,-490,-322,916
-15,35,127,652,-503,479
-46,-44,112,2260,-1198,303
-7,-35,-91,1642,157,267
-30,-73,-102,679,506,464
-55,-114,-125,308,210,637
-54,124,-111,49,-53,923
-73,120,-108,208,-343,802
-98,82,-109,946,-502,1047
-120,53,-97,1128,-720,1369
107,70,-82,705,-710,781
93,67,-58,-72,-23,90
96,40,-75,-528,363,-35
84,19,-121,-395,-27,-52
83,13,-126,-77,-326,1
88,21,-116,-59,-191,-45
94,26,-119,-246,-131,-189
83,28,-119,-367,-270,-30
86,35,-114,-204,-12,43
-68,38,15,3493,-2435,-4447
-112,0,72,10540,-8563,-3258
-117,33,-81,16198,-17408,-2114
-1,100,94,4313,-3496,-6753
120,96,41,7503,-2887,-8547
-119,118,-91,-3857,209,303
-102,-32,70,-4038,1870,3995
70,-116,40,-3830,3970,2464
28,-123,90,-4647,5103,1101
13,12,90,-5411,3133,768
35,-8,77,-5167,2595,858
89,78,67,-5912,3044,1606
111,-84,-38,-3840,2712,1416
-55,16,-4,-3347,2430,1596
-38,98,6,-3767,2095,991
-33,67,25,-3040,1077,911
11,96,102,-3124,582,1493
18,127,100,-2571,406,1156
-18,61,92,-414,-1006,801
-10,31,-117,-291,-891,1219
-6,73,-112,-1306,-428,898
14,72,-117,-1598,105,1047
-14,37,99,-245,-479,770
-29,0,111,637,-600,783
-49,-29,107,919,-370,886
-63,-56,109,648,62,1068
-84,-65,85,238,82,880
-93,-74,87,-187,-113,480
-107,-84,88,-348,-155,116
-113,-104,89,-95,-231,-104
-116,-122,91,173,-207,-189
-106,-117,96,-239,125,-169
-109,-128,74,-27,-73,-166
-115,121,69,82,-284,-91
-104,125,81,-94,-117,-56
-106,124,74,-35,-123,-36
-105,-121,73,-219,-97,-52
-101,-123,70,-193,-61,-22
-103,-121,65,-107,-158,-36
-97,-113,65,-82,-98,-56
109,20,92,-3139,1254,-3348
4,82,115,-1640,2247,-10433
-65,-8,-124,1355,-1058,-7453
62,-118,-92,16243,647,-2607
84,-46,-68,30250,-7921,-8069
91,31,53,13820,-14592,-6897
110,56,-17,-13464,10594,5745
20,91,-68,-3467,2996,5361
-14,-25,-86,-4541,2735,2341
-63,86,-17,-3305,2614,738
7,45,-38,-4465,3600,530
-111,-116,50,-8177,5831,1943
114,-114,83,-5559,3682,2065
-107,-46,127,-5043,1385,1581
14,87,-2,-4850,2417,1698
20,119,6,-4306,2109,1091
31,93,22,-2203,744,825
49,-6,69,118,-669,1006
45,12,-51,-158,-1283,1008
57,30,31,-287,-359,1494
27,-7,-69,104,-122,1774
-10,-92,109,1291,-1191,2404
-24,-128,114,1709,-1114,2571
-50,-97,-100,319,-563,1764
-110,-63,-118,-652,-144,442
114,-95,115,-523,-283,-500
104,101,109,411,-472,-591
105,73,126,663,-280,-630
111,71,-125,193,-61,-465
113,64,109,-129,-92,-445
115,60,101,-214,-151,-335
121,56,99,-133,-97,-308
125,66,98,-353,-37,-206
-127,71,94,-405,-81,-124
-119,79,92,-322,-46,-18
-117,85,86,-94,-128,46
-112,101,89,-24,-30,94
-110,110,84,-77,-78,55
-103,113,82,-87,-8,46
-102,122,73,-162,21,-51
-108,95,-15,3439,-541,-5142
-50,103,0,16082,-7767,-3337
-120,35,60,23693,-21574,-8620
-29,44,-13,-1332,-3053,-2886
-72,24,98,59,-5249,577
-18,-17,-88,-6603,10300,3859
21,83,-69,-3962,3759,2924
-69,-127,8,-4295,4436,1028
-90,40,-59,-4789,3556,945
-4,63,70,-6002,5092,1358
24,-96,80,-4771,3854,1486
54,-84,121,-1870,2341,1435
-103,-61,-32,-1397,2302,1717
-25,67,57,-3486,2015,1388
-47,41,60,-3358,1216,963
15,14,44,-1315,499,1223
32,-13,109,-1122,-655,1827
33,61,-128,-1305,-415,1374
-14,78,105,-448,-222,313
-69,0,67,1304,-571,132
-83,-84,95,2099,-419,514
-75,-105,120,1346,114,1127
-81,-109,120,599,405,894
-105,-126,110,-385,-26,248
-113,123,103,-364,-247,0
-105,111,114,-285,-32,-120
-112,100,106,-93,-157,-248
-115,89,104,49,-138,-114
-112,97,107,-211,-135,-86
-109,100,101,-169,-52,-103
-102,102,91,-262,-94,-127
-108,110,91,-484,-38,-81
-105,106,88,-329,-106,-89
-98,112,88,-159,-12,-20
-98,125,82,-238,-66,-19
-93,-128,77,-146,-60,-31
-88,-120,73,-124,15,-69
-88,-120,63,-177,-69,-77
-85,-117,61,-174,-51,-43
-84,-111,60,-197,5,-94
82,26,52,-675,1958,-6742
47,74,-77,4586,-1252,-6388
-96,14,-32,15494,-9410,-4145
-75,29,93,23622,-17722,-6515
75,-88,-13,3340,-7218,-4379
8,-126,-115,-7387,6942,5408
97,-9,-89,-2520,5003,3979
125,95,-22,-4186,2962,1342
125,47,-107,-3385,2220,107
-66,15,117,-4974,3142,791
10,-125,-54,-7016,4319,1420
34,-58,53,-6010,3065,1661
118,58,91,-6274,2933,2351
-100,103,123,-3263,568,2224
-53,-100,36,-2405,469,1612
7,-89,92,-2311,1204,1883
62,-11,118,-4054,1514,1816
33,-58,83,-2095,460,879
108,-117,-48,229,1235,142
80,113,-58,-157,-192,556
39,90,-29,-439,-1128,1407
38,58,-40,469,-1008,1225
15,11,-93,1301,-1571,1314
10,2,-87,1212,-966,1134
-29,18,-85,314,-719,568
-71,-28,-99,-316,-605,209
-73,-54,-101,-361,186,-21
-101,-104,104,364,-323,-86
-102,-107,96,324,-337,-110
-98,-110,97,26,-198,-71
-105,-117,77,102,-272,-85
-105,-117,87,-53,-144,-98
-109,-121,91,-127,-262,4
-93,-113,103,-262,-24,67
-104,-105,98,-134,-109,-27
-90,-103,100,-148,-21,-84
-90,-105,98,-98,-29,-99
-90,-106,89,-31,11,-122
-84,-102,90,-140,95,-127
-83,-107,77,-77,-52,-55
66,-112,-25,4151,-487,-4914
117,103,91,14357,-5912,-3524
77,108,-54,28354,-23605,-5792
113,81,-66,2086,-6584,-5004
-111,-101,-44,-4842,2169,1571
-92,26,-51,-4419,6422,2901
-36,-108,-91,-2057,2200,1710
-12,34,-29,-3586,3103,983
-42,-13,124,-4153,3182,1096
-10,34,52,-5365,3604,1518
-6,122,-23,-4669,2885,648
93,0,-15,-4775,3722,1065
-112,-4,-45,-3656,1994,1696
-68,-124,53,-5380,1605,2475
-92,-83,17,-5728,1115,1892
-87,76,5,-2797,-478,2704
3,-23,101,-427,-1111,3514
31,91,95,-272,-934,2625
37,116,123,-1077,-81,1669
-74,23,63,245,-404,729
-121,-53,43,1641,-780,436
124,109,31,2680,-928,647
114,65,52,3140,-1495,1236
116,110,-128,1429,-620,952
67,127,-84,-183,-510,93
49,93,-80,-246,-393,-379
47,40,-79,84,45,-597
47,16,-102,340,75,-573
43,10,-123,273,4,-461
53,17,-126,-158,-28,-324
64,8,-127,-253,-127,-74
72,23,127,-340,-38,-110
74,36,120,-383,20,-125
84,31,110,-218,22,-100
87,39,104,-241,-49,-29
95,54,99,-243,-2,-39
96,61,92,-190,-8,-84
101,61,85,-131,-24,-83
104,66,79,-173,-54,-56
111,67,79,-122,-10,-24
68,117,4,-2643,2056,-3473
-47,-74,-21,-1276,322,-4411
-32,-47,71,4870,-3429,-4591
-85,-41,47,25276,-21148,-5246
-4,24,-106,13236,-14241,-9864
78,35,19,-4621,773,769
-29,-16,-91,-4938,8341,4162
83,25,10,-1541,1716,1864
63,100,-24,-1822,1597,234
112,-10,13,-2590,2818,112
-73,-25,-82,-3845,4488,416
39,122,81,-6780,6847,430
58,99,10,-3610,3962,349
-68,-59,-70,-3032,2599,1276
-70,-27,-75,-1831,421,1413
-16,58,47,-2190,1227,1591
-35,42,32,-2184,921,1792
-41,-5,32,-619,629,2084
-44,-23,87,1966,179,295
-4,29,-81,-249,969,312
-52,-122,123,-74,474,771
-75,95,-104,-111,-338,1011
-42,126,-53,-1081,481,851
-31,-117,-84,-1775,804,800
-71,114,107,-817,15,898
-101,100,86,84,-482,947
-117,102,108,209,-453,384
-124,104,116,-14,-161,173
-127,97,107,-242,-39,69
121,91,99,-226,-155,46
-121,82,101,-46,-66,67
-125,88,93,13,-67,-4
-123,95,89,-109,-4,-92
-120,89,78,-159,1,-106
-126,92,71,-252,-151,-61
-124,100,74,-274,-90,-75
-118,104,78,-320,-43,-69
-114,104,72,-261,-94,-37
-110,123,73,-458,-16,-99
-110,124,67,-370,-30,-100
-110,44,114,-3159,1764,-2814
63,0,-63,-5528,1400,-4926
9,81,-41,1650,-989,-6448
-110,51,-126,16616,-3127,-3444
-92,-90,70,25963,-15922,-4819
58,82,97,6043,-7315,-5096
118,-7,-120,-779,-5457,-1925
98,89,-37,-2856,4483,2387
93,60,-109,-6638,6528,4231
56,16,-83,-6104,4222,2539
63,-61,93,-7747,4830,2172
16,-14,87,-6974,4413,1318
12,-40,50,-3088,896,1108
113,8,-9,-3114,1482,2577
-53,-50,6,-3058,2581,1330
-22,-33,-7,-3322,1842,1016
-24,-60,48,-3603,940,1301
-36,-103,69,-2209,-314,1366
1,118,124,-1077,-1896,1881
31,-111,-95,-726,32,1161
15,-118,122,-1358,-408,1070
-7,92,93,-875,-804,1187
-22,35,108,-51,-739,1397
-30,34,111,378,-411,1097
-43,-2,111,589,-289,799
-54,-20,108,574,-224,799
-68,-44,93,672,-353,726
-92,-46,88,421,-404,356
-110,-54,92,61,-338,-170
-126,-81,92,131,-312,-431
-125,-119,102,221,-13,-347
-125,-124,87,256,140,-353
-115,125,81,233,122,-352
-103,120,76,-169,-16,-70
-100,-126,77,-483,-126,-2
-103,-119,83,-317,-140,78
-104,-108,82,-46,15,-133
-102,-108,72,-136,100,-156
-90,-110,77,-254,17,85
-78,-94,82,-296,47,194
31,-87,-68,3265,-2727,-2971
66,-99,120,14514,-10219,-4145
104,-85,113,17768,-18272,-8485
-128,104,65,3901,-3784,-8662
-32,-103,-23,-12165,16114,6402
-55,-74,-3,1559,-4100,1290
-45,111,113,-987,1135,2034
-2,97,-2,-5711,3837,1284
24,79,48,-6121,6317,527
119,-101,20,-8641,6930,195
-106,-120,57,-6614,4720,1143
-50,-53,115,-6689,3177,1293
-13,-4,-78,-4627,461,1459
0,-15,37,-2377,147,1507
11,-5,72,-1184,15,1893
14,7,110,-1615,637,1047
53,71,119,-4195,428,1894
-14,-2,116,-1843,-771,1345
-1,-95,-43,737,-1184,1849
25,-54,-68,1029,-102,1352
-30,-11,72,812,-949,498
-76,-2,88,-14,-1354,-360
-89,-36,102,-475,-761,-849
-95,-67,88,-202,35,-732
-91,-94,66,49,547,-325
-96,-78,34,-76,214,-121
-102,-89,20,183,-414,47
-76,-65,55,-298,-32,28
-85,-67,51,-185,-87,-50
-86,-78,51,2,-195,-56
-82,-59,60,-402,12,-53
-81,-68,53,-192,18,-68
-78,-64,45,-188,-77,-70
-76,-60,46,-201,-9,-116
-70,-62,45,-178,40,-151
-73,-63,38,-163,-89,-139
-68,-61,46,-182,55,-147
-67,-67,40,-178,-62,-58
-67,-64,40,-106,-115,-53
-63,-55,44,-232,57,-92
41,92,-7,-332,2727,-4073
-91,43,83,3199,1884,-5823
-87,-101,-125,5295,1246,-4662
9,-63,34,16819,-9354,-4791
107,-16,-8,20701,-14327,-4285
104,91,113,9222,-9064,-5705
-124,-105,96,-4741,2487,636
25,-75,109,-3820,4778,3111
4,23,-105,-5164,3962,2249
-77,-2,117,-4256,2889,1265
18,60,69,-6322,3900,1833
51,-91,-101,-6926,4283,1714
71,-15,-116,-6258,2866,1307
-95,82,-96,-5492,1839,2483
-59,-89,2,-4813,2164,1617
-23,-52,28,-2560,292,1591
-12,108,110,-785,-1328,1644
47,-111,-69,-290,-99,1641
15,-93,-66,-1815,-176,1450
-6,74,-107,-843,-490,1900
10,48,-113,-300,-719,1971
-3,42,-106,-588,-428,1561
-32,-9,105,516,-1088,1446
-34,-40,121,642,-1325,1219
-103,-30,111,608,-913,34
114,-72,116,380,-348,-156
98,127,108,206,39,128
105,111,88,194,165,399
110,118,67,-27,71,359
100,114,62,187,-284,261
118,110,56,366,44,-192
98,96,56,50,-283,-199
84,89,72,-71,-304,142
92,103,73,-60,-99,8
87,106,70,-69,-239,-84
102,108,83,-260,-148,-142
116,108,97,-291,23,-288
120,98,84,37,343,-514
-128,75,50,-19,124,-458
102,80,50,-332,-222,146
-128,-6,55,3575,-1841,-3394
-53,11,-125,17624,-16527,-8060
8,-25,-128,14244,-21952,-12292
-33,127,96,-1517,-2231,-4508
72,67,-14,-1816,3499,2233
41,-112,-17,-4194,5688,2818
-73,-124,106,-799,1099,308
-13,21,-16,-3290,1794,-157
0,3,-52,-2471,2065,11
90,55,-81,-3232,3741,631
-91,-122,81,-3715,5069,791
-72,-95,56,-4046,3794,1627
-27,-57,-119,-4959,4511,2561
-17,-56,51,-3268,3573,2171
1,-85,119,-2825,2068,2285
28,-21,-81,-4330,1684,1624
25,-74,122,-4993,1154,2033
-25,117,105,-1901,478,1676
-37,20,-87,1165,-1151,1700
5,73,7,718,-926,2368
-39,-112,-40,1552,-189,1217
103,-108,-99,1009,-1009,294
87,97,-64,453,-1077,-261
82,56,-21,-140,-280,-535
74,30,-50,-347,-300,-455
77,4,-68,291,-155,-492
83,4,-75,167,-180,-533
84,-16,-83,274,-236,-305
77,-9,-82,155,-269,-135
93,-1,-75,-63,-75,-100
96,10,-80,-220,31,-33
97,13,-95,-228,32,121
93,21,-107,-172,-25,280
106,33,-113,56,86,343
111,50,-125,-20,-89,275
101,70,125,-83,-214,65
85,86,126,34,-152,-295
84,69,121,145,-176,-432
-98,15,-112,-165,-172,-32
109,62,-127,-376,-154,115
106,120,-12,2538,-2092,-5030
61,24,124,13678,-14803,-4600
-92,85,-32,22289,-18226,-8758
32,4,89,2198,-2302,-2789
31,126,-99,-2500,2245,1225
-13,63,26,-4917,5415,4511
-80,93,-112,-2779,1238,2314
-122,91,-4,-4338,2547,1745
-126,39,-71,-5253,4045,1340
-82,108,-21,-6649,4720,1881
-14,-55,52,-5988,4472,1816
41,49,90,-3740,1850,1434
-126,110,-68,-4730,2416,2128
-89,-61,-53,-4539,1329,1761
-36,109,-30,-1929,-735,2984
44,-128,74,-1152,-1701,3718
-1,-63,-119,-1148,-11,2123
-112,59,63,-595,-212,1543
-49,-38,55,460,-145,2044
-18,-123,10,2470,-696,2047
6,29,38,3636,-2298,2644
-47,-111,88,2597,-1318,1963
53,-25,-96,359,-657,63
12,-113,-79,-92,-557,-898
27,61,-69,-30,-37,-891
35,30,-96,-320,315,-657
30,37,127,-528,61,-595
33,10,107,-47,-133,-527
47,19,109,-107,-81,-471
63,27,100,-393,-50,-474
69,19,94,-309,-148,-355
69,24,106,-184,-367,-229
70,21,114,113,-160,-75
75,45,112,-242,202,47
87,56,79,-406,312,57
93,52,58,-227,73,112
94,55,53,108,-179,101
89,64,58,259,-183,117
97,80,67,-309,-7,178
102,88,59,-516,143,171
-70,-46,-78,21087,-13879,-1636
-56,-26,-59,16145,-16711,-3644
81,-87,-61,1370,-1266,-888
-90,80,51,-5351,3330,1052
73,61,-91,-1926,5507,2640
-102,-36,56,-4554,4401,1492
-2,49,103,-4788,2757,342
46,5,116,-4313,3070,538
-103,60,4,-5272,3489,796
-5,-58,120,-6101,4228,1662
-23,-38,36,-4235,2471,1553
113,85,-108,-4813,2574,3221
-123,-101,-94,-3483,2005,2771
-80,126,-32,-2691,766,3230
-4,-120,62,-2648,-313,2832
-32,75,51,-190,-1203,1782
-2,-12,70,1636,-941,1770
-2,-3,65,1413,-520,1426
-44,-53,45,1800,-586,1001
-97,-108,56,2102,-556,584
-99,-106,118,768,-99,396
-116,-74,126,-777,456,99
87,121,86,-139,-420,-239
84,72,114,1039,-674,-310
95,90,-109,406,-177,-328
91,64,121,347,-202,-372
93,56,121,228,-197,-467
95,39,117,67,-184,-436
103,48,126,-58,126,-646
118,40,116,-317,193,-457
122,43,103,-491,17,-163
123,44,100,-316,-172,133
122,67,103,-47,-212,193
-127,70,106,338,-165,176
-127,77,106,458,-99,47
-126,81,106,252,-111,-24
-116,87,121,19,253,-108
-112,81,104,-190,92,2
-115,86,87,-340,-155,102
-104,103,98,-571,227,-88
10,87,81,8352,-22,-5079
119,-104,-75,27433,-24682,-3192
-38,-106,104,4784,-6843,-3189
110,63,-6,712,-4500,-2357
-34,-26,105,-3813,5944,3986
70,-29,-92,-3912,5157,3884
-126,77,2,-3217,3459,2145
-11,46,-32,-1865,2444,294
76,16,-48,-2690,3829,-86
-62,32,44,-5394,5059,995
-46,29,-80,-3650,3352,904
52,123,-127,-3837,4552,2137
90,-102,-118,-1852,3914,1958
-114,-96,-22,-2368,2363,2038
-84,-13,24,-3884,1299,2044
-39,-11,30,-3660,1301,1887
-36,-94,6,-1364,384,2122
10,-115,36,-147,-419,2395
52,-42,49,-117,564,1973
-60,-8,-66,1221,-431,612
119,-34,-29,1157,-2447,-591
98,-96,90,766,-2158,-722
97,-122,-104,188,-967,-356
93,127,-99,-34,585,-513
83,111,90,-499,726,-650
84,87,52,-165,203,-371
99,67,34,488,-88,-75
111,102,41,22,77,-145
125,114,36,-436,235,-251
126,108,16,-450,63,-135
-128,108,17,-192,-188,-140
-123,116,30,-73,-149,-161
-117,-126,41,-210,-71,-178
-107,-119,39,-411,51,-312
-103,-127,29,-307,15,-333
-115,-128,19,-243,-124,-238
-116,-126,22,-111,-129,-193
-112,123,20,22,-66,-25
-111,-117,19,-232,-151,77
-94,-116,54,269,460,103
92,76,-85,3461,-2840,-3344
85,8,-105,18563,-16687,-5314
-9,-19,3,15765,-22229,-8350
80,101,117,-2018,111,-5064
-11,-75,-49,-4709,6879,5389
16,0,-87,-5181,5135,5384
-32,-57,-36,-2762,2149,1692
41,-27,-75,-2764,2226,1217
40,54,-34,-3709,2999,1044
-116,77,66,-3745,3191,860
-20,-78,-127,-3777,4821,1425
99,54,70,-4669,4074,1890
-103,116,106,-4477,2937,1895
-55,-75,-92,-4239,2048,1887
-82,21,-31,-558,-303,2431
-26,17,68,335,-340,2441
0,74,64,221,-910,1464
37,5,-99,-558,596,1433
-21,-90,122,906,-533,1618
13,-98,-85,805,114,1685
-29,-65,113,507,357,915
-107,-76,64,14,-659,354
-116,-89,91,-603,-774,-177
125,-120,93,-486,-528,-379
114,104,87,97,-53,-439
109,96,74,187,-33,-190
109,93,61,85,-254,39
120,115,73,-206,-187,71
-127,-128,76,-336,-88,-167
-125,123,71,-214,-98,-347
-123,119,78,-169,32,-395
-121,116,68,-392,-9,-399
-122,108,51,-286,-120,-218
-122,126,53,-388,-7,-201
-114,119,47,-193,46,-129
-111,119,43,-57,-123,82
-111,125,41,196,-209,123
-106,-118,51,152,-94,32
-101,-115,54,-146,33,82
-102,-114,41,-231,55,133
-113,106,56,-274,1254,-6167
126,-112,-15,8999,-3822,-6654
-2,-35,-31,22981,-21904,-8221
-59,118,107,424,1462,-5063
-116,-1,-67,6811,-8443,-8589
-112,78,17,-3702,2621,4373
16,123,-118,-1896,3118,5375
121,120,-54,-5642,6258,5322
-65,-97,30,-4728,4827,3061
111,92,-49,-3457,5348,1741
-89,92,64,-4246,6003,1527
46,92,-96,-3676,5899,1691
-95,-111,118,-2896,4875,1907
-61,44,-14,-1567,1604,1851
-27,108,92,-2657,-604,2309
-120,-76,-54,-5536,1383,4268
38,0,43,-3579,2002,3305
-71,-55,-49,1015,144,1639
117,-68,-61,3748,-2174,-143
120,-77,-1,2798,-2276,-223
97,-122,103,1581,-1641,-528
79,95,-106,607,-589,-999
76,43,-102,43,40,-976
74,-1,-128,-335,168,-540
67,1,114,-383,-287,-133
74,5,120,-156,-202,76
87,46,122,-452,94,-78
110,50,104,-659,242,-250
100,50,73,-610,95,-321
93,53,54,-534,64,-210
102,57,51,-455,66,-19
101,79,46,-470,100,74
103,96,30,-117,133,-66
118,84,19,142,-33,-123
-124,88,21,-237,-127,-39
-126,112,35,-714,-105,51
-121,126,42,-634,57,-52
-128,-114,36,-360,75,-159
125,-112,26,-55,46,-311
-116,116,17,293,39,-287
45,64,87,-1295,2356,-3412
20,15,-11,-2996,3619,-4628
7,-125,-23,6049,414,-5579
-103,115,80,21768,-11371,-5645
25,83,112,24709,-24606,-6331
97,-2,-113,-7989,1809,241
38,33,46,-6947,13084,430
-28,-118,-100,-371,442,3243
62,78,52,-2813,2564,423
54,117,71,-3433,3479,49
-6,-65,120,-1517,2212,-465
-112,-19,-105,-3142,3284,650
-34,56,8,-4295,5232,979
-7,117,-98,-3634,3451,1711
69,-38,-125,-3501,2800,2225
81,-17,-83,-2251,2355,1746
-103,37,-3,-3477,2226,2519
-12,-69,41,-5472,2875,2206
-34,-116,-34,-4898,1119,2496
-44,-28,6,-1249,-703,2527
22,-77,75,1174,-1381,2452
62,-33,117,700,-813,2282
-28,63,57,504,-87,1174
116,40,13,914,-1062,-448
99,-79,55,1636,-1166,-858
105,-113,103,973,-482,-542
90,111,103,613,-247,-272
93,124,106,-394,11,-316
95,125,91,-846,159,-433
96,-128,77,-791,97,-529
91,93,61,48,-187,-352
101,101,84,14,-104,-189
110,110,72,47,52,77
113,116,53,207,-137,47
120,112,48,376,-204,14
124,113,52,274,-189,-103
123,106,55,91,-132,-157
123,102,57,-101,-112,-113
118,103,57,-184,-101,-87
121,103,62,-145,-72,-16
39,121,-124,2587,408,-5441
-93,2,-17,14874,-5273,-4632
-100,-105,-55,25346,-20383,-1043
91,-27,0,3196,-2767,-648
-67,92,-93,1669,-4897,-937
-76,-18,-49,-4360,4893,4997
-107,-17,22,-3325,5470,3849
71,-122,-126,-6912,6852,2920
96,-67,-20,-6546,4930,1093
122,83,-87,-4004,3446,933
114,-16,-112,-6141,4656,2493
122,58,10,-3658,2950,2721
-21,96,-123,-2969,2737,2163
-15,-66,-32,-3635,594,1253
-36,83,2,-1536,-570,1138
-39,29,75,-308,-206,1293
-34,28,77,-798,68,1381
-18,-40,57,-168,-367,1637
49,-89,93,194,-464,2279
30,-42,80,492,-76,1954
-30,5,44,533,-143,899
-87,-18,41,550,-552,-100
-125,-87,53,874,-347,-607
120,-117,77,36,184,-434
-126,95,54,-144,596,-100
-116,93,33,-87,180,420
121,105,16,277,-525,358
122,102,52,593,-554,85
117,87,74,584,-373,-50
112,66,89,341,-320,27
115,71,104,-184,-159,119
112,77,100,-113,-19,5
-110,54,89,294,-136,-239
-121,40,89,272,-388,-315
121,29,105,202,-305,-117
127,30,117,94,48,172
124,68,95,-273,165,228
123,70,82,-156,-18,180
126,83,81,-73,113,131
-127,87,68,-26,27,-2
