AccX,AccY,AccZ,GyroX,GyroY,GyroZ
15,39,-124,5197,-75,-4414
92,115,-127,3517,-2394,-4947
69,-84,-66,196,730,-4876
-122,-33,-106,3576,-1839,-2176
58,41,80,2180,983,-1377
-56,-40,6,7691,1023,-1134
47,-85,-2,6351,1557,-1650
2,-91,-11,981,1734,-633
11,-38,23,-1712,2108,-491
-68,100,-91,-528,-341,-303
-97,63,-108,-1011,-1851,214
40,100,88,-6848,-2846,585
-60,56,18,-15875,-698,-815
72,52,-43,-9958,-1995,-658
109,-2,127,-8460,-4699,-472
-40,18,-23,-296,-5884,4475
-114,-108,99,1783,-8085,5729
-106,-51,115,-6007,-910,5598
27,43,-13,4093,-5096,3506
-95,44,47,3901,-1547,4840
126,38,49,-422,-1657,1362
-14,-117,43,749,-1816,-1696
-95,-112,1,1381,1999,-1303
35,72,88,-164,629,-13
35,52,101,366,-1381,657
99,31,-120,818,291,269
95,39,104,399,119,-241
83,-11,110,91,236,4
67,-2,93,-106,267,-114
78,8,103,-573,222,51
76,2,101,-345,-32,250
95,32,104,-195,-52,139
91,47,107,-549,101,36
67,34,100,-541,-220,270
73,53,122,-589,-132,272
79,64,-125,-483,-163,209
78,79,-125,-681,-163,177
58,88,-126,-998,-74,138
56,82,-111,-892,-173,248
82,89,-89,-631,-97,285
88,39,72,10406,-5486,-4149
84,-121,76,935,-1825,-5155
65,-84,-115,-359,-6893,-5932
73,0,46,-5109,-2953,-4581
-79,68,-87,880,-2366,-3777
5,120,-5,3485,-1835,-1450
127,-27,-31,3801,2355,-1564
-35,-54,-3,3903,4573,-1824
32,-109,-33,-697,3660,-21
0,-25,-89,-4664,933,-766
80,29,-104,-5912,-4397,235
37,-44,-60,-11949,-1080,-1464
48,-78,59,-7763,-3118,390
29,-70,47,-7072,-2128,2897
30,-26,-53,-2046,-4374,4103
81,52,105,-2829,-5704,6808
42,-108,-4,-1095,-1500,4260
-54,117,21,-3073,-3411,4175
124,48,-9,726,-4299,5226
-26,-53,-27,938,-2186,972
120,83,79,3133,-597,-3344
98,115,-13,-6,3505,-579
-69,-5,13,1266,-2069,995
60,66,101,649,-395,77
102,73,125,-825,1291,-599
11,-102,42,1011,-228,68
46,-14,63,-256,289,100
56,0,64,-122,120,50
55,-4,68,355,-29,69
52,9,69,-499,132,260
82,97,93,-1267,399,-154
70,42,87,-574,107,58
67,60,99,-462,-231,83
76,78,-116,-569,68,-43
60,84,-122,-711,54,-138
41,67,-119,-622,-6,84
52,93,-114,-621,-45,175
68,117,-108,-669,1,22
62,121,-104,-638,-73,71
51,116,-92,-220,-59,74
109,104,111,5632,-1359,-4328
-60,45,-15,4233,-1986,-3453
87,97,-53,3551,-5417,-5917
-18,-92,-20,1350,-2788,-3747
47,-13,-84,3381,-4333,-1714
-3,-44,-106,391,-1188,-1043
57,-2,38,3189,718,-646
-94,-33,42,3464,2867,-679
55,2,120,415,4166,-152
24,-23,71,-2840,3172,-336
120,106,28,-1695,-4041,-996
-35,126,-2,-7450,-3429,36
-18,91,118,-10617,-1961,-1208
-51,-97,60,-8759,-999,-1145
-16,-41,-64,-7076,-1079,1332
59,-21,108,-3020,-2669,3324
-9,-70,75,-2182,-4898,5642
-125,-30,-22,-1798,-4591,5665
70,-27,28,-447,-2291,4563
-84,-32,32,3153,165,3738
-35,67,5,638,-1757,6097
49,109,48,-3500,-3915,4188
64,-56,-102,-774,-1716,-3291
100,-30,56,4010,4459,-3702
-32,-111,15,-261,1334,1404
-47,91,80,-2036,-2617,1179
-117,83,-55,-241,-168,314
-109,51,-83,582,1274,-658
66,1,95,656,246,-525
71,-5,96,-258,384,-121
79,-13,79,-289,116,-33
79,14,92,-674,-30,-5
75,37,125,-937,-169,236
74,39,-114,-212,-133,101
60,38,-110,-259,-198,233
56,43,-109,-691,-260,478
67,74,-98,-537,-305,300
68,90,-82,-807,-150,317
57,96,-83,-498,-277,268
57,88,-75,-126,-305,398
-92,-56,12,2741,1466,-4321
-77,14,-67,4052,-1247,-3285
107,40,63,5755,-4225,-4885
-30,-80,-97,1729,-3883,-5139
105,-31,19,-1892,-1485,-4392
-87,68,-40,2450,-1705,-2183
-109,49,65,2238,-909,-444
-128,68,-92,2313,2129,-541
15,126,110,3862,2992,-399
126,77,66,1367,4093,-55
91,-43,-71,-1780,2702,303
-16,-18,-96,-679,-1695,-901
57,32,8,-7538,-4196,-955
88,60,-57,-7656,-2973,-1997
16,-123,9,-6472,-2720,-979
-27,19,-30,-6767,-676,309
-118,67,61,-4538,-2561,2077
-76,78,60,-2607,-3707,4269
-29,-96,126,864,-5054,5918
-63,-5,-23,-1816,-2446,5491
-63,-24,-14,-450,-1529,3821
-59,-46,-96,1520,-1293,3742
-88,54,17,1713,-366,4981
20,68,-39,-847,-2213,2762
-68,70,-61,440,-3067,-1728
-104,40,-4,1103,2979,-2538
42,-99,89,1086,2097,-367
-115,-72,8,-370,-1663,1913
39,9,93,-168,-770,887
120,16,-120,-238,472,-202
56,-45,104,-82,151,-350
27,-89,100,86,184,-128
38,-86,86,-32,192,-166
43,-98,80,-188,0,88
33,-67,88,-626,-130,315
30,-48,93,-572,-217,340
41,2,106,-699,-112,281
37,8,102,-634,-132,264
47,19,102,-645,-337,377
55,58,126,-902,-389,306
73,18,14,3957,-2149,-4799
-103,30,87,4039,-3516,-6258
-107,61,43,686,-2303,-4415
37,8,-127,3548,-2073,-1931
-2,116,60,3300,526,-833
23,-97,32,2673,3627,-535
-123,78,82,2740,3710,-262
-4,90,-62,874,3895,549
2,36,94,-1277,207,-831
76,-117,18,-2953,-4619,-449
-9,35,99,-7388,-3299,-1257
109,10,-90,-10181,-3412,-425
86,-12,58,-10866,-1186,-1435
104,36,124,-4837,-2688,1155
-69,22,33,-40,-3633,3635
-104,24,84,1490,-3792,5502
-27,-6,-61,-358,-3228,5477
-97,-19,-91,1045,-283,2807
55,20,-89,1353,-637,2303
-18,-9,-14,601,-2240,4373
125,-123,-41,1669,44,3732
52,-57,-10,2220,-1455,2053
-87,44,77,-1210,-945,-121
98,-110,87,-43,396,-851
19,22,11,936,293,-753
-22,37,-22,64,-302,-170
-2,76,-10,-1085,248,-121
32,88,-3,-1350,327,-544
50,88,7,-872,67,-719
71,75,40,-650,241,-864
27,60,30,-455,33,-813
1,64,49,-857,172,-516
18,23,21,59,436,-452
1,-11,-18,-34,-464,320
18,-107,37,-2167,-162,690
50,-114,58,-857,-200,391
17,-76,80,-223,-403,279
14,-63,82,75,98,-17
9,-92,50,106,-168,238
16,-90,56,-237,13,500
55,100,-81,2461,2703,-4213
14,110,-52,2669,-1882,-3586
22,87,-45,2634,-2452,-5497
28,92,-72,2425,-3618,-4142
125,23,-17,2829,-2474,-2862
111,54,80,4054,-871,-1675
119,-49,6,4817,1073,-1404
-24,59,54,3257,2496,-1200
84,-67,-58,5,4167,-514
112,119,90,-2308,2727,-994
-64,100,-51,-881,-2971,-55
51,106,103,-9992,-3094,-344
41,39,-4,-10097,-2832,-1686
-15,20,5,-8896,-1148,-1578
-10,-127,-99,-8236,-1064,496
117,94,-112,-4932,-2613,2088
-65,16,-84,-1038,-7200,5483
-27,-50,60,-1912,-7861,6436
-109,75,-21,-2153,-3490,4202
78,55,108,2937,-2228,4236
-13,-25,-80,1329,-1709,4431
-105,56,-3,368,-3023,-1572
-57,-7,77,492,1359,-1850
28,44,-94,836,1764,-458
2,-102,-110,-473,-1232,729
115,-88,-61,-1013,527,-289
-105,83,-83,-302,985,-924
121,43,-105,76,465,-285
113,63,123,-424,574,-519
104,91,-117,-1211,442,-82
109,86,-112,-587,306,-35
109,90,-120,125,267,-135
116,78,118,-111,155,-64
88,48,94,-212,-400,258
65,103,-122,-1077,-700,503
71,109,-92,-397,-467,594
98,-119,-83,-365,-201,397
89,-125,-97,-238,-499,390
75,-118,-86,-298,-475,408
83,-98,-76,-631,-28,236
-57,-126,37,2659,-1624,-2812
-72,-122,66,2522,-3820,-2894
-21,70,93,814,-4404,-5180
8,-57,-51,-921,-3271,-4521
-21,11,107,-1546,-2659,-3396
1,-83,-22,-1349,-1081,-2816
26,92,-98,-285,99,-1003
72,-8,-41,3315,811,-995
49,-109,8,5016,1559,-1005
-86,-104,-34,1990,4460,-1238
122,-14,29,513,2964,903
-104,-1,-14,-3590,-939,-450
75,-10,-9,-7976,-3964,-1197
-128,-56,77,-11224,-3193,-1625
-67,113,-18,-8343,-3064,-2178
-75,-102,-5,-6923,-2072,-1525
-38,125,28,-4564,-2909,453
61,-22,-83,1229,-4324,1950
44,-83,-46,2000,-4251,3190
-82,27,51,-1605,-4321,4600
-6,24,95,-434,-4151,4498
-126,32,84,1530,-1985,2369
-24,-23,107,975,-56,82
-46,63,76,735,-2035,2257
-100,21,-105,2212,-600,1363
104,-27,5,3354,-556,575
105,-72,15,1636,374,792
77,-86,13,79,15,962
54,-88,54,-503,-119,1161
14,-102,42,-525,-389,760
40,-89,63,-1127,-241,550
43,-116,54,-40,-649,357
37,-109,44,165,-371,-234
32,-103,18,-1045,227,-864
-7,-34,32,-123,55,-539
3,6,5,-863,612,-276
43,-40,-54,631,54,-350
10,8,-72,-463,136,-512
-53,32,-92,1762,-458,434
-20,-76,-38,-396,-728,442
112,61,17,1995,-1485,-5542
66,-118,79,1671,-1016,-4335
-122,120,-119,6471,-2822,-1027
-77,55,-113,4755,871,-1308
-22,113,7,5516,3888,-1295
-91,-17,-53,1193,3721,632
9,83,-56,-4169,2300,286
70,4,-35,-241,-1391,-1206
106,-1,-127,-5521,-3033,-1191
-1,110,-77,-10609,-3311,-1496
79,43,-38,-10962,-3394,-987
72,110,96,-9887,-1621,-187
121,-32,-89,-3865,-4277,1083
0,-123,70,1236,-5207,2868
103,-12,121,843,-6547,5523
-5,46,-3,-376,-2804,4008
85,98,-78,3583,-824,2107
-47,-40,98,4472,-3993,4120
111,-118,19,-2455,-2029,4547
100,87,-125,980,-1876,1113
-89,-21,-119,2910,-160,-1615
44,124,54,2084,890,-1404
-36,60,-16,600,-102,-509
-43,40,-30,-59,-86,275
-31,18,-42,155,-692,703
4,51,-28,-256,-448,-76
44,51,0,-1404,84,-477
6,15,14,-1565,304,-298
-14,20,25,-760,391,-453
-2,11,3,502,804,-403
50,51,-37,758,1391,-435
77,27,-96,687,-362,38
22,-123,-36,-2228,-559,-503
-13,123,6,-2043,-366,-208
-46,-128,88,-1242,-290,230
-4,-113,101,-456,186,307
44,-96,92,-195,199,309
48,-80,49,-145,-213,261
32,-52,63,-821,-166,43
37,-64,73,-796,159,139
-97,95,-83,1804,-1774,-5032
34,63,-24,1762,-1552,-5454
-54,-28,45,-32,-1516,-3871
44,2,81,4281,-1841,-2492
-21,86,6,3745,237,-2003
19,-88,77,3946,423,-854
68,-24,-2,1154,2867,-429
60,-124,59,-57,2541,-810
108,-125,-89,-3024,-1069,-619
8,-74,-93,-8935,-3772,-85
48,-95,115,-12409,-1377,431
41,-40,-19,-8809,-3154,-118
2,112,116,-8871,-716,1147
-75,-56,92,-3098,-2904,264
115,70,53,1851,-3936,2071
-48,-72,4,1917,-3052,2157
-109,62,113,-1105,-4214,4580
20,-81,-82,349,-2602,4061
-52,-66,-25,3811,-1059,4831
114,-80,125,3426,-1496,4704
-8,50,29,1012,-2985,3714
50,103,112,-1582,-1808,674
127,-70,-116,-649,230,-1397
37,95,64,760,-109,-1224
0,95,45,188,229,-724
84,55,47,-282,1233,-1247
105,-39,35,-43,654,-1091
41,0,43,-1178,259,-750
57,24,54,-1093,556,-946
76,-13,54,-171,645,-824
39,-11,12,277,275,-512
33,38,18,-840,39,94
40,78,43,-713,182,27
24,60,30,112,-26,196
32,86,46,-197,-373,557
-102,-116,-97,-444,530,668
35,-66,77,541,-337,355
-16,-33,105,-994,-627,177
48,-31,-123,-2214,601,350
58,-71,126,-968,-119,459
-92,-1,-116,3500,-1984,-3105
110,-38,9,2528,-4102,-4531
124,118,-120,1414,-3990,-5057
112,-77,101,-1439,-1929,-3917
-115,-66,-85,1242,-2383,-2933
74,32,-114,2605,-1005,-1244
57,-69,80,3755,963,-378
-21,-45,50,2121,4520,-1225
-11,101,118,-210,3563,-336
-36,9,-53,-3291,1077,-765
73,97,87,-1305,-3318,-203
-85,125,10,-7547,-3228,-688
-101,-72,-97,-9244,-2570,-1664
-122,89,100,-9276,-1864,-1178
-48,23,60,-6077,-3848,828
-20,28,76,-3321,-3735,2264
-79,6,-25,3419,-6019,4722
-68,-22,12,-73,-6085,6905
43,-29,-9,-321,-2444,4470
39,77,69,2723,1077,2706
125,-10,-65,2463,135,2970
-100,75,91,1855,-2433,2589
-93,-9,18,2821,-2285,-556
124,112,72,1695,819,-899
103,5,-19,262,1732,-414
43,-54,-73,622,-636,954
64,9,-15,-479,-306,1182
58,65,-8,-326,894,-414
94,16,40,482,434,-680
93,13,24,173,-3,-1011
100,-1,39,-305,-143,-861
74,5,48,-1019,-570,-537
66,17,58,-1362,-484,-553
64,14,64,-1002,224,-504
37,17,47,-207,144,-374
27,25,32,2,78,-183
40,31,24,-245,6,204
43,42,19,-523,-121,597
37,69,26,-796,-237,743
24,113,45,-1174,-264,821
-81,-7,42,1774,-872,-4422
18,29,-101,1408,-1444,-5660
-92,-90,96,886,-2061,-5012
0,92,-4,3579,-2046,-3137
35,47,-73,5679,-1894,-2544
-69,118,-12,3942,-349,-1659
119,23,57,231,2206,-392
-60,125,19,-1983,3112,337
-9,21,57,-2095,1620,-574
-88,126,-10,-213,-2072,146
-27,29,76,-2817,-2433,-165
94,-31,-87,-10269,-2192,-490
40,43,-103,-10653,-1747,-698
89,-108,-51,-8996,-719,537
-82,71,-112,-4757,-2574,2129
42,-23,89,1794,-6658,4909
-64,-54,-93,-2452,-5702,6301
-25,16,-76,-165,-2419,3185
-69,-31,4,1817,-2061,4647
4,102,126,-1576,-2749,4457
-34,-62,38,-390,-2677,1350
-18,59,9,2140,117,-2495
71,66,-82,2033,2240,-2003
26,69,59,-142,495,263
16,49,28,207,-998,823
122,93,55,-114,326,-202
90,58,51,-104,288,-296
76,9,55,-150,70,-99
65,22,44,-361,152,-152
52,48,49,-962,-107,122
62,52,58,-609,-11,197
82,83,64,-393,55,107
82,69,71,-207,-263,191
73,102,68,-671,-71,131
68,105,70,-667,-183,301
81,110,82,-472,-129,136
65,121,87,-655,-75,248
64,122,99,-772,-165,235
50,-128,99,-675,-78,317
56,-88,91,-1650,-251,539
18,-78,12,3881,-2904,253
90,0,-33,-1714,474,548
91,-61,-110,39,-911,639
79,-61,120,-726,-1272,604
56,-57,-128,-1177,-1329,882
61,-78,81,-126,-268,825
76,-64,92,-592,-291,545
68,-85,78,-464,-120,453
65,-97,82,-383,-167,253
75,-80,86,-370,269,53
78,-98,93,-240,424,-30
86,-67,116,-12,1406,-287
118,-116,125,-541,198,-134
65,-101,91,-390,-600,366
90,-70,-103,-946,351,73
68,-99,122,-435,-285,243
80,-60,-118,-874,22,169
74,-56,-94,-538,-135,89
94,-39,-56,1197,-735,289
16,62,31,2439,-1311,-2799
111,99,28,1815,-256,-5039
124,12,55,2912,-319,-6179
8,6,92,2773,-1954,-6275
-58,-58,94,580,-2747,-5054
85,-102,-103,1479,-2424,-2872
56,-32,-93,2391,-2114,-1124
80,99,-126,4670,2089,-1294
5,-16,-89,3786,3432,-51
127,80,-48,-1807,2605,717
-102,-5,67,-2940,2473,91
-91,-41,-48,-1393,-2855,40
75,20,90,-5000,-4302,-454
-79,-79,-32,-8573,-3338,96
-105,-21,35,-11457,-1032,767
-56,14,-23,-10484,-1239,1116
122,-99,-35,-5176,-2474,2385
16,126,40,6156,-7404,3966
124,-116,-26,920,-4000,5824
42,118,-90,-1645,-1315,3602
29,-112,113,3407,-1578,4443
5,74,-95,4027,512,4489
89,69,-91,2080,-2471,3160
-4,126,20,-1005,-2747,-636
111,-128,120,-286,361,-1751
18,-44,58,1566,-60,-200
-64,-7,-24,930,-1093,-8
13,53,10,-777,1129,-92
87,53,0,-1465,1676,-1162
92,-2,-10,-192,129,-1117
99,-23,5,609,-286,-1199
79,-3,1,17,-148,-1156
19,-2,-22,-622,-191,-1000
8,-8,-22,-348,244,-504
-29,9,-27,-723,-146,210
-25,30,-41,-976,-399,785
-11,69,-42,-1528,-80,1010
-22,117,-7,-2098,-836,939
3,107,48,-1308,-768,1440
51,-98,71,-986,-516,1255
89,-79,63,-800,-448,1185
106,-62,55,-491,118,618
103,-49,39,-603,-334,518
78,-10,63,-1446,-487,458
48,-75,31,-791,-236,422
46,-105,51,-474,-8,605
57,-95,75,-1675,-53,601
51,-114,53,-838,42,470
58,-110,77,-1456,-55,417
77,-123,79,-982,372,450
58,120,61,-495,-577,147
49,-121,67,-954,-171,222
52,-115,72,-262,-313,283
65,-86,92,-562,390,362
79,-73,116,-254,1977,291
104,-88,-62,-722,1840,-97
108,100,85,935,-2541,296
113,-76,-54,-564,360,162
87,-97,-97,-532,-10,160
93,-96,-92,-604,-396,298
92,-87,-91,-272,-151,42
26,13,-73,2504,-1035,-4986
22,-41,39,4757,-2440,-5336
69,76,108,-1010,-3295,-5858
61,-74,-74,-1783,-1375,-5298
47,-22,-109,2848,-1253,-2561
-51,-2,37,4028,-908,-1011
104,-54,2,4687,1623,-1617
-18,10,-91,3536,3344,-606
-93,-90,1,974,3885,-623
-68,45,-97,-2820,2609,-235
53,0,121,-1413,-3206,418
-66,-96,101,-6557,-3201,608
24,35,76,-9647,-3081,220
-106,-36,69,-10411,-2583,-161
-1,116,82,-9070,-1777,-58
-82,-77,-120,-5784,-2430,838
-21,6,97,-274,-3863,2186
-94,121,2,2426,-5462,4072
17,-66,-91,2056,-4943,5709
17,105,58,1183,-372,4101
-115,97,3,760,-1137,4209
-124,60,-104,6095,-2301,3521
108,-93,8,2801,-792,4445
116,-49,-25,-1885,-104,632
-120,-4,36,-409,375,-2700
51,-81,23,2594,489,-1560
-11,-82,-9,485,-352,302
14,-28,-4,-516,-300,153
54,-44,16,-886,204,46
33,-67,22,-377,-206,66
18,-47,26,-153,-173,87
29,-33,24,-258,-227,-53
24,-19,17,-572,-98,127
27,51,16,-1198,19,325
32,83,13,-853,-121,-2
36,97,25,-554,-87,-72
48,108,31,-564,-156,-242
32,93,43,-243,-128,-179
37,110,50,-449,-26,-239
49,-104,43,-553,72,-560
-77,40,5,1491,-352,-5596
0,45,-117,6537,-3737,-5918
85,103,-124,951,-4884,-6934
-82,-80,-74,-1045,-2449,-2967
94,-124,-113,8678,-5713,-2778
46,110,67,3009,4167,-2743
-14,-110,-104,595,2517,-508
-72,-54,-125,-2624,4849,-121
-1,52,74,-1529,-701,-1377
-20,-20,96,-3852,-2522,413
-118,79,102,-7215,-3049,-362
-74,-22,-113,-10797,-2337,-470
99,-28,36,-11949,-452,-879
-115,40,25,-8322,-2943,1632
-77,-65,124,-2361,-5913,3944
48,91,-65,-418,-10295,5663
-54,-71,-30,-2024,-1951,3446
-33,29,92,2231,-2056,4935
100,-101,-108,-242,-2344,6086
41,-107,-51,-1275,-5391,-363
33,-7,-2,2357,621,-3455
117,-4,-9,1178,4445,-1188
-60,94,126,-655,-2540,1598
85,-114,-55,103,-1632,1279
-97,-31,-22,-549,1336,-885
116,88,-70,326,992,-390
111,58,-126,638,389,-68
-90,75,108,215,344,-323
-110,78,109,-659,354,-474
86,86,-120,-1193,159,-239
87,85,-77,-948,-21,247
119,104,-50,-266,215,2
90,112,-80,-40,68,-4
83,121,-83,-446,70,-22
90,110,-71,-385,-13,278
89,115,-91,-3,-176,126
85,-121,-76,-905,-236,454
85,-99,-63,-451,-357,351
90,-90,-53,-453,-225,310
88,-84,-55,-603,-296,344
29,-6,61,1429,1951,-6328
39,-113,34,2083,261,-4533
30,-2,7,1082,122,-6004
14,-36,-126,1576,-1144,-6370
53,-25,106,2990,282,-3783
-16,-97,83,6050,-2045,-756
-98,-6,-39,4804,1270,-975
110,112,105,4532,2669,-1383
87,63,-117,547,2935,365
0,-59,74,-1901,4540,325
94,-78,-78,-3491,2384,-179
-109,-56,45,-2715,-4989,-1331
-4,-61,93,-10665,-2180,-3539
125,-6,-25,-6049,-4594,-2749
6,-86,-99,-9391,-2066,-1426
-20,28,98,-5267,-2076,208
-36,-5,-35,-2064,-3477,1954
88,-34,68,1562,-6917,5004
97,-94,38,-3023,-7508,5625
1,-69,-67,-1582,-1883,2566
53,122,46,1724,-3709,3100
-84,-62,98,-1056,-3500,4633
-75,44,58,3403,-2350,444
86,47,1,1861,-1106,-1884
44,-91,1,-1702,3230,-1103
107,9,110,-26,-1059,1176
-62,52,-83,1467,-1221,1152
62,-108,-116,170,1175,-358
29,25,69,158,499,-244
37,34,54,-325,294,-214
32,16,47,-53,207,-520
23,29,60,-322,363,-479
14,59,83,-818,-47,41
30,87,100,-692,102,-160
31,91,117,-619,76,-44
20,93,119,-484,4,63
20,86,119,-570,-5,237
21,94,120,-710,-172,344
38,124,-107,-934,-140,326
40,122,-98,-576,-102,264
23,7,-123,-181,3077,-4608
-83,100,-15,3301,-711,-4098
127,-51,10,3631,-323,-6178
-27,-17,-74,1326,-146,-5299
70,-20,72,2529,-765,-2903
-35,82,89,4369,-855,-1546
115,-35,-126,6336,1670,-988
-61,79,100,5508,3698,-1118
-121,65,97,2083,2969,313
87,-63,-52,-1415,4427,-231
-48,25,-62,-3004,-996,-620
20,-72,-62,-5536,-4933,-896
-53,86,-59,-12518,-918,-2374
-59,-115,18,-11846,-1572,-2256
113,-82,117,-8897,-1802,64
54,-121,69,-4184,-4368,2198
-39,-112,-10,-549,-6137,3658
63,-59,-31,-1886,-6021,5194
80,-104,25,-84,-2387,1987
-70,45,-125,4047,-3141,3214
120,-106,-14,2092,719,3607
-88,-72,-72,-3785,-2466,1007
123,5,123,-1620,-3508,49
55,-64,69,2997,905,-1268
11,58,-10,-192,589,-159
-49,53,-61,-815,-333,-213
-20,-17,-82,-77,256,-55
12,42,-123,-843,531,-5
11,26,82,-316,245,-53
18,35,84,-38,21,72
23,47,93,-318,-69,263
24,53,103,-299,-34,155
35,63,125,-371,-51,159
41,62,-123,8,-61,176
39,87,-109,-582,122,305
21,53,-114,-432,14,223
40,60,-116,-177,-48,-2
47,65,-114,-477,170,69
39,69,-126,-371,-56,14
30,65,-119,-444,-67,212
-60,3,84,3760,997,-3151
-58,5,49,1127,4126,-3331
115,37,13,6528,-5504,-6422
24,-122,19,-361,-107,-7535
-30,-27,-42,3311,-3713,-4767
122,-75,112,3691,-2247,-2072
-5,88,30,6433,-2347,-859
-31,-88,-11,3306,4036,-810
-43,78,90,1744,2964,-221
15,64,-31,-1134,6538,73
-31,-127,75,-5127,2719,-1174
-3,4,-11,-4068,-3699,-517
-70,-51,-127,-7698,-2597,-2170
34,-14,-27,-7106,-3006,-3680
6,-67,-107,-9896,-1864,-2723
83,83,100,-7158,-769,-253
-60,-85,18,-136,-4128,2770
32,22,119,666,-5577,4830
-14,-86,-111,-1113,-3937,5514
21,-48,-66,-975,-2315,4423
-64,-33,125,315,-2806,4823
-23,-69,-15,-1203,-1613,4480
-27,-108,-55,-1668,-2374,1298
-128,19,-104,1641,97,-2526
36,-18,48,2386,1922,-1689
-38,-2,-101,-239,298,467
-11,39,-126,-507,-1099,1176
73,83,-89,-515,134,-59
55,50,-87,-317,173,-150
26,-3,-109,241,-81,43
36,23,-113,-651,122,78
30,25,-110,-499,-183,46
29,22,-91,-543,-71,226
33,53,-93,-595,-57,63
30,49,-83,-534,-170,287
31,70,-80,-587,-141,154
28,78,-71,-749,-154,269
27,78,-66,-405,-126,263
33,99,-67,-566,-177,228
26,89,-66,-470,-128,281
-101,82,-81,1009,1379,-5054
-52,114,-105,1222,2541,-3927
-100,127,93,5689,-2993,-6715
-86,32,19,472,-896,-6689
45,-36,-37,1906,2447,-4869
-8,6,86,3249,514,-2045
-127,-55,112,3272,1733,485
51,100,97,6859,2530,235
-55,-128,101,4482,3307,-198
-125,-86,-9,-93,4574,92
85,-106,-99,-3747,1313,-603
-69,1,-51,-3923,-4897,-649
-103,-125,78,-11380,-2790,-901
-46,-50,57,-9369,-2172,-1834
-2,93,-100,-9657,-1042,-1180
-122,63,56,-6547,-1911,-229
32,-127,89,511,-4743,2453
-95,-85,-11,607,-7099,5623
102,30,-112,-2476,-4581,6889
-37,110,-12,-3630,-2000,3357
29,16,-34,6529,-2306,1624
-62,23,40,291,-1993,1892
-4,63,96,-2897,-278,1371
76,-121,10,1597,-855,-46
36,91,-96,2011,292,-625
12,51,89,1080,174,-419
18,12,88,684,384,-209
41,-16,119,327,688,-536
2,-58,123,335,-359,-201
19,-13,-108,-907,95,-312
5,-44,-114,-371,-116,-155
8,-16,-123,-673,57,-60
0,-5,121,-721,-180,221
25,44,-120,-766,8,88
23,43,-118,-349,-69,146
22,68,-125,-733,-245,176
19,56,-111,-707,-196,236
20,78,-113,-501,-286,250
16,76,-109,-269,-393,215
18,91,-110,-313,-277,322
4,42,119,4303,-1954,-4761
15,-10,-37,1314,-454,-6011
-120,67,73,3043,-6684,-6000
2,38,-15,-1714,-6495,-6175
-18,32,-34,-1912,-5332,-2518
76,-32,39,264,-2096,-1651
88,-61,-125,3260,948,-1720
10,-96,-96,3567,3336,-1789
121,38,-68,2559,5802,-2236
52,-16,-43,-1217,5358,-425
-106,-107,-31,-2528,-515,-751
-25,-117,105,-3645,-6155,1267
-83,13,48,-8570,-3667,708
-111,-106,9,-9916,-2043,1725
-70,-12,103,-10596,-1634,1371
82,-68,-105,-8866,-2845,2699
-123,-89,-83,146,-4626,3269
-69,-25,88,5520,-5912,5351
-51,37,11,-1675,-290,4987
-15,-69,58,2261,-1722,2726
-45,81,-97,7210,-2488,3834
-64,95,-81,3065,906,3658
-25,71,-88,-1729,-1105,585
77,-53,41,-80,-69,-1565
61,48,8,2004,1029,-1379
23,30,-40,1087,-34,-493
-35,28,-70,321,-565,-4
-27,17,-41,-243,-5,-47
38,68,-27,-1929,751,202
83,99,8,-3262,641,-149
75,96,12,-1515,-164,-436
8,94,85,-175,-618,-820
8,102,101,-178,-8,-1188
21,90,79,-432,224,-822
-6,102,38,-601,-33,-488
-52,-117,41,-1147,-202,-42
-34,-89,74,-1226,37,163
-26,-85,63,-586,-267,361
-34,-45,76,-895,-314,494
-20,-12,111,-1183,86,409
62,-22,-63,2956,-100,-4665
-91,106,90,-349,2161,-5607
87,-18,-118,3705,579,-5442
114,-62,114,3628,-1397,-5182
-111,101,91,274,773,-3917
13,3,53,4228,-590,-738
33,34,-98,3903,-5,1072
-83,-2,-77,1181,3922,263
21,19,64,3582,2686,1694
-74,80,105,556,2696,182
-64,-47,-35,-1581,-2337,-1498
55,24,104,-5392,-3551,-1090
101,96,-60,-9819,-3314,-1077
96,14,-63,-9027,-2392,-332
89,-92,1,-8295,-1356,115
-80,87,22,-3037,-3973,2387
3,-8,-36,1543,-6024,4338
60,-91,-126,-1118,-4011,4990
75,36,53,-2502,-1770,3235
122,-37,31,1565,-3498,3704
80,125,55,1715,-1742,3933
52,-26,-46,1930,-3035,3319
-7,-95,69,1175,-2022,-383
106,-57,-108,1382,1,-1946
59,48,-111,499,1370,-1120
-64,-60,26,1033,-1,-131
-57,-30,37,59,-298,590
22,40,29,-1012,527,-49
38,8,31,-1048,148,-214
39,-8,46,-812,274,-188
48,23,33,-618,282,-277
61,58,27,-768,204,-514
49,68,31,-512,25,-642
45,105,58,-1070,225,-739
13,74,64,-718,47,-279
0,87,74,-411,-219,49
10,102,84,-263,-206,257
19,-123,88,-673,-26,344
17,-117,86,-541,-286,488
31,-96,100,-626,-128,447
-4,60,107,4007,-477,-4913
73,50,-120,4406,-2918,-6867
87,-90,-96,-146,-2759,-4441
72,-45,72,2287,-1274,-2029
-77,-90,-18,3913,-544,287
108,-10,87,4533,2430,-530
100,-107,-75,2052,4810,-595
14,76,-52,138,3767,-54
-111,-36,119,-1860,1261,-1337
-63,62,32,-2686,-4833,-35
95,26,-119,-9162,-3188,-866
-121,51,15,-8252,-2826,-965
-80,54,35,-9140,-1639,-27
-3,8,34,-8442,-1878,490
-37,-100,59,-4192,-3491,1952
43,-7,-7,2508,-5968,3734
57,-93,39,1363,-4701,4642
42,78,-1,-1466,-2525,4015
-84,-99,-114,279,-1634,3380
-90,-14,-41,1518,-1105,2415
-51,-81,-49,589,-1860,3292
82,0,-124,816,-1287,1377
-79,-51,83,1569,-882,-401
111,116,90,615,388,-769
16,-10,16,480,-108,-29
-20,-18,-8,-621,-442,742
17,35,-10,-286,-294,620
58,66,-21,-888,-126,-160
49,26,-20,-639,-54,-64
11,-6,-22,-76,-140,-156
23,-20,-28,-259,-143,1
9,-15,-28,-265,-192,12
13,-1,-12,-555,152,58
0,-2,-15,-289,-189,87
15,20,-9,-77,44,-21
21,51,-22,-545,51,239
19,56,1,-416,341,436
43,49,22,72,351,234
63,69,22,247,678,-31
65,92,64,-502,67,-196
6,25,-1,4732,-1731,-2675
-108,-26,-83,-538,-50,-5563
65,-122,-120,4047,-2750,-6129
37,101,-109,713,-3198,-6514
23,-34,76,-1845,633,-4520
38,-95,5,2806,-1840,-1272
-8,60,-100,1766,77,-367
42,125,-112,6691,192,8
-49,-55,-40,3328,3985,-759
-112,55,-37,1123,3522,-36
-114,-97,57,-1572,178,-870
34,-59,-73,-2821,-4813,265
-104,47,85,-8135,-3143,487
-60,34,-52,-10737,-735,98
8,-13,4,-9793,-1353,630
-110,-14,66,-9350,-1777,2536
-69,33,106,-2617,-4469,3465
-102,32,-90,3668,-6941,5184
-109,0,80,729,-588,3920
-19,-120,63,1543,-117,4273
-57,27,45,-916,-2353,5451
-86,-72,75,-3656,-1732,3706
21,-70,53,-1536,-2730,-1144
-58,125,84,3026,1359,-1774
91,79,-84,2297,2410,-1968
4,122,45,-1348,-82,563
15,89,60,-179,-1401,946
116,121,113,112,467,-281
103,94,94,-335,436,-583
75,43,83,-156,-74,-254
56,51,90,-472,26,-129
50,75,91,-776,32,-91
61,87,93,-675,31,-23
62,114,92,-688,-21,57
60,-126,97,-641,-71,90
60,-116,96,-469,-139,89
56,-112,103,-632,-234,242
57,-92,116,-765,-92,135
55,-98,127,-650,-157,308
57,-90,-128,-571,-175,315
-87,-35,-25,2178,1159,-4794
-3,-20,104,2322,58,-5146
44,-60,-79,2157,221,-6600
8,105,-10,1346,-1125,-5945
37,-43,-4,2648,-1418,-3458
-101,122,58,5201,-2290,-163
-47,-59,-3,3464,869,1458
-96,-109,12,4818,2689,242
103,-122,96,2916,6755,-1085
-26,24,84,-180,5108,-647
46,107,-78,-716,-817,-531
-125,-81,-9,-3455,-4419,272
60,-23,15,-6098,-2439,117
-12,-102,25,-10412,-2451,-1440
109,-10,-94,-9960,-935,-1552
-85,85,121,-8264,-2169,-1051
-9,102,-52,-4610,-2968,1635
6,-96,-122,1188,-5290,3716
-8,-37,62,1048,-5821,6358
106,-5,-3,-325,-1354,4044
-83,79,-99,1865,-3088,4329
86,37,-38,3392,-1219,5046
-115,41,-53,4421,212,3641
-41,28,-72,835,-3720,1098
97,110,122,-540,-632,-1223
20,-52,115,-692,1982,-1310
-60,81,-12,1766,-94,-7
-67,-113,-27,729,-809,625
40,45,-2,-1862,111,-645
49,-48,7,-748,-66,-831
41,-101,43,499,-183,-900
-8,-62,53,-609,171,-1204
-56,-82,40,-1616,696,-742
-4,-70,14,-1646,369,183
44,-6,8,-1123,102,201
50,14,15,-365,-93,131
11,35,12,-280,-486,7
-10,44,35,-655,63,178
-4,59,31,-746,-235,477
13,84,56,-454,-183,496
66,-9,-53,1528,2954,-5588
110,-71,-108,2600,1938,-4807
-115,-68,-3,462,16,-3973
-59,-80,-111,5804,-2311,-3819
-122,-119,107,1828,-1343,-4840
64,-77,19,2705,-751,-3089
-48,80,2,5083,-2178,-104
29,57,-106,1960,646,698
-49,81,28,4772,2171,812
-126,7,49,785,2836,276
-124,-116,-39,1160,3464,-1245
43,-45,-66,-3201,15,-602
82,-114,31,-2562,-2494,-538
6,75,57,-6065,-4359,-635
45,-26,46,-10566,-2754,-2625
-17,-16,15,-8713,-551,-1515
65,-13,22,-7560,-1273,484
-6,-97,5,-1060,-4605,4290
102,7,-40,1933,-5267,6322
-2,18,-114,-2920,-2214,5144
-127,124,-50,-4386,34,2299
-79,-10,36,4281,-4301,4150
-74,120,53,-82,-1439,3689
-111,-16,81,-788,-2185,3759
109,27,6,-931,-1636,1800
-35,35,-11,-398,-173,-1265
107,61,-50,1593,1226,-1645
31,4,-128,151,765,-141
33,68,112,-825,-470,112
86,63,-125,-565,306,-321
77,28,107,-153,326,-386
62,32,95,-476,32,111
72,78,95,-859,79,14
84,79,105,-877,176,-58
78,70,118,-548,-46,77
69,64,126,-264,-177,235
79,111,-116,-645,36,-7
59,85,-116,-471,-189,283
65,114,-114,-581,-192,200
63,124,-105,-671,-166,294
-101,-89,11,2565,2530,-3830
16,14,108,2352,97,-4063
111,113,-71,4933,-2084,-5599
125,55,-53,3224,-2045,-5457
-52,23,-48,2643,-2992,-2606
14,-3,-28,6075,-4351,586
-31,1,-15,7632,-4229,737
-103,65,-65,3487,2991,-3002
-57,-57,114,1286,4276,-1704
-111,92,88,-1070,4445,-928
59,24,30,-5430,2204,-1091
-106,111,67,-6791,-4784,935
-72,-99,88,-7891,-2146,-1462
-6,97,41,-8626,-948,-1724
77,-112,-119,-9564,322,-293
-66,-120,29,-6601,-1491,2230
-46,-13,103,-157,-5551,5535
-5,1,-24,2957,-3570,5447
-94,96,-42,1728,812,3485
-94,117,-73,522,334,3041
-82,-101,78,-399,-1252,2195
-100,-117,-108,-1384,-450,3367
50,26,-115,-1358,-300,3550
-117,-7,120,919,-531,3237
5,-116,35,1577,-1528,560
-85,-101,109,-963,-90,-1386
120,58,-120,-1719,1659,-1358
37,-52,75,-1335,927,-386
-116,121,94,-3573,962,-699
-91,-114,-126,-3289,1000,-970
-122,-119,-37,-1799,627,-813
-120,-114,6,60,533,-1051
75,32,-38,2488,781,-902
57,9,-110,49,270,-102
21,110,-84,-2457,104,513
17,-103,-25,-1178,-608,862
68,-108,-4,263,-36,377
77,-56,-15,-416,-19,51
19,-127,-26,105,-370,209
52,-125,-23,-524,112,252
-30,88,-54,3548,2272,-3903
70,-108,41,4195,1736,-5022
97,46,4,1516,-868,-4003
-107,97,-108,4273,-1225,-4473
-21,-38,54,3990,-2490,-3629
-33,-15,29,4485,-2490,-1971
41,115,-99,2387,-3197,-520
-49,37,108,2303,-1362,964
-2,-18,12,4209,869,-387
68,-15,-33,2732,4921,-1688
-4,73,53,1141,3573,-381
-128,-88,85,-1734,2345,-940
121,-92,26,-556,-3271,653
-67,53,-38,-4156,-3665,294
-46,-23,-118,-9628,-2204,-6
76,82,-74,-11717,-1153,-255
-96,110,-18,-11859,-1407,12
3,30,100,-7032,-1858,1795
32,-120,-90,733,-3809,3960
-15,100,-127,4558,-1519,2666
51,-101,-105,-2971,4084,1758
100,24,-57,6458,-700,3420
-6,71,-69,-411,-23,2981
92,-112,-96,-3883,-3549,4618
42,102,-65,-2276,-3398,6275
18,-14,33,-432,-2090,4676
96,36,-101,1901,717,1954
-55,125,66,1580,-880,-724
38,43,121,350,-256,-2142
42,-77,114,473,1114,-1673
21,63,55,1381,172,-971
6,118,61,176,-820,-212
23,-41,121,-2114,-47,-515
4,-49,-121,-1737,285,-585
5,-100,115,277,351,-257
18,-78,84,503,46,4
15,-25,43,-159,33,72
28,-29,35,-560,-200,371
10,-2,55,-1104,-273,708
7,14,71,-704,-250,911
122,-125,-116,2323,-2102,-4981
56,-6,16,2539,-618,-6372
-10,-71,4,2306,-1214,-6463
101,-114,7,-19,-1082,-4182
118,-102,14,6411,-3766,-1957
-80,-81,-67,4889,1409,-1632
100,98,73,4780,3343,-1503
91,89,108,1220,4348,-782
32,64,5,-1125,3590,-661
94,-1,-114,-2058,-3783,-193
-108,25,4,-10397,-4022,1505
104,96,-36,-14685,-485,-675
126,93,121,-12499,-1548,-1691
7,-46,46,-10442,-976,-125
109,69,90,-234,-4011,1388
59,-25,-49,5897,-8014,5003
-94,52,-52,-613,-5130,7367
-61,98,-18,-1814,-3338,4357
123,89,15,6675,-2054,2730
73,118,110,3900,-415,4389
-39,-37,-118,-2388,-2283,1692
-126,-15,-65,697,-2930,-2165
49,-82,-25,1965,2443,-1568
-61,106,50,2376,688,-9
-35,-44,51,-81,-992,1132
52,19,87,-1401,-190,-115
28,-71,103,-89,85,-474
1,-113,97,187,170,-187
18,-82,76,-394,283,-160
21,-86,75,-225,49,-51
23,-79,74,-348,84,55
15,-39,79,-969,-137,276
17,4,99,-1041,-37,219
12,14,104,-407,-63,173
22,51,103,-941,-149,135
-7,93,105,-1208,-63,-35
78,83,-110,-1330,-194,120
35,114,-105,-810,-94,-70
1,120,-109,-550,347,-109
39,120,116,-686,90,123
-100,-123,22,2196,-33,-5538
25,83,89,3680,-1639,-5991
64,-114,38,1447,-1688,-5095
57,10,-117,4865,-3596,-1902
116,-100,-10,5686,-611,-2043
-117,42,-62,3725,4087,-1149
96,-32,-127,1271,4901,214
54,48,46,-770,3286,692
-40,3,-72,-742,-541,-1142
95,94,-94,-2997,-4842,480
-104,125,50,-11580,-1125,-345
4,-68,28,-11200,-1161,-1153
98,-68,-23,-11359,-2707,-770
13,58,79,-10957,-3027,541
-16,120,-98,74,-4773,423
-91,35,33,5894,-6606,1836
-72,112,123,371,-3787,5109
-49,-103,72,-734,-1690,4250
-4,-86,88,3831,-479,2736
95,-124,76,6582,-1654,3794
82,86,-45,3269,-1948,2996
104,81,69,-1421,-336,-861
-128,77,61,-188,861,-931
23,-6,20,970,-633,-121
-21,6,14,684,-759,178
11,43,37,-435,62,175
23,66,3,-754,41,-528
41,25,4,-404,-350,-784
58,21,17,-778,-223,-882
52,26,15,-1099,-112,-513
4,58,10,-1032,-137,-460
-18,88,10,-781,-143,-540
-9,82,15,-452,-1,-457
-9,77,-2,-352,-139,-305
-27,103,0,-808,-338,19
-40,-111,28,-1419,-112,135
-22,-106,46,-1169,24,246
-25,-98,59,-407,-53,346
-32,-97,37,206,-113,424
-4,-96,28,-185,-135,703
-37,-94,-55,2462,270,-4771
-26,-66,63,-1383,1746,-6403
21,-69,105,6129,-1195,-5993
-113,79,52,1984,-1520,-4741
-56,-119,103,6491,-2051,-381
78,-28,105,8436,-288,214
-41,20,98,1779,4663,-1649
-19,-11,62,1766,6667,-784
44,-65,82,953,-1517,2348
-54,-27,23,-9031,-1738,-2836
-101,23,5,-12072,-1057,-1789
-10,-46,-65,-10610,-2571,-1540
112,-117,98,-8563,-2991,163
47,57,27,-3589,-4008,2502
115,80,-28,1307,-3530,3387
118,44,-6,1141,-2760,4403
-70,-72,-87,230,-902,4215
58,-66,-35,3763,-933,4341
-59,32,-82,5215,-199,5781
-5,-68,-61,1400,-2706,6243
-15,41,59,-2354,-3143,2944
-118,22,87,-2568,117,-1545
56,0,72,997,1647,-804
-60,1,-32,1433,194,-568
-16,41,-31,-261,-116,-152
37,67,-19,-1130,317,-1174
45,-69,-25,445,-162,-1352
48,-76,15,-178,78,-1196
18,-84,9,-430,-124,-848
16,-42,15,-1068,-129,-704
17,-9,8,-960,-136,-619
-2,11,19,-610,-123,-391
-12,28,20,-463,-21,-135
-25,65,4,-562,-130,99
-18,85,16,-732,-38,354
-10,99,12,-478,-23,484
12,110,3,-292,-225,679
17,-124,8,-458,-126,673
8,-109,0,-503,-209,670
13,-99,9,-638,-190,657
-6,-102,-64,2597,493,-4457
-84,-50,26,3373,-1582,-5843
-43,2,65,4436,-5635,-4511
115,-64,95,-2576,-795,-4010
-31,-90,99,7838,-6173,81
-55,77,-113,3008,3285,-1468
-126,-88,-126,3391,4219,-1777
124,-56,4,1639,4634,-342
86,-22,38,-540,3381,-149
73,70,-6,-542,-5678,149
113,-14,-83,-10111,-2609,1034
-32,-21,-6,-12764,-1229,230
-10,82,-88,-10619,-2233,-236
-57,-38,-13,-9893,-1450,1479
-71,-69,101,-6055,-2519,2275
41,-44,-105,3852,-5357,2961
-57,83,-3,2127,-1696,3949
-80,-52,86,2680,-400,3368
71,-42,35,305,-2275,5041
-46,68,-85,487,-1965,4133
98,-71,-17,-617,-3033,4877
16,53,-88,-588,-651,2329
12,86,100,542,-623,-1367
-104,84,93,2318,362,-2098
93,37,59,318,508,-501
-32,10,-8,-715,-1211,780
89,113,61,-1367,100,-178
114,75,31,-267,471,-807
82,30,-14,-36,-349,-945
70,38,5,-656,56,-731
22,40,-2,-92,-191,-679
30,75,3,-362,-365,-693
15,88,-8,-231,-650,-834
2,86,9,-237,35,-34
-28,113,3,-725,6,319
-27,127,6,-748,-78,439
-8,-106,19,-630,-13,665
17,-103,11,-344,-50,734
51,-84,2,-369,-107,812
53,-66,6,-527,-157,587
98,-56,102,3279,-2343,-4992
50,-8,88,1872,-2694,-5749
0,7,42,1025,-4886,-7355
23,48,-107,-938,-2617,-4886
-63,38,100,7788,-5383,-943
-63,-88,-85,4629,1095,-515
-119,115,-79,6207,3624,-2547
33,-38,-63,823,4842,-889
69,-25,25,-6106,4455,-671
61,-90,122,-3032,-6756,352
121,-126,-64,-11805,-1815,273
-47,-35,-32,-12801,-1137,-1846
-11,-46,-11,-12700,-120,-1397
68,-44,69,-9854,-237,-396
-85,114,-55,-2067,-3725,992
-116,64,-15,2270,-8241,3854
-13,-44,-11,-3812,-3060,2781
74,-7,-10,2280,-2732,2662
91,-87,57,-310,-3613,3330
-79,-109,-69,-1661,-2783,1945
-41,-13,-71,-1739,-4308,2186
-64,25,-78,-27,-1543,677
-11,-21,-20,2491,393,-1643
81,113,74,264,1113,-524
27,43,15,188,-318,154
53,52,47,277,-238,598
97,122,36,-530,587,-204
89,49,7,15,402,359
104,99,-27,-247,29,333
117,93,-40,34,99,146
122,108,-54,-348,193,59
126,-96,-48,-1513,313,-179
-128,-52,-6,-2597,761,-674
83,96,-6,-572,-228,92
94,-111,30,-698,-458,294
105,-100,37,-447,-229,255
103,-99,21,-105,-361,175
88,-115,-6,-118,-555,289
72,-77,1,-839,-648,260
71,-89,19,-183,-914,-4
-82,-90,-107,-1185,5001,-3642
35,-106,113,468,3924,-3885
107,-85,-79,4379,3309,-4088
-107,23,114,6512,1641,-3659
-26,-7,-38,9776,-1738,-1457
-41,-39,-46,7957,-1707,-1053
61,-99,39,7324,-314,-1330
23,-122,79,4669,2609,-1240
-106,3,-60,2963,3517,-1415
32,-94,112,-5194,3925,-453
-112,110,-74,-365,-1112,-75
-68,37,87,-4813,-3073,533
-112,-58,-102,-10212,-2615,-356
-128,78,81,-12562,-881,-1563
-71,83,-69,-12538,643,-2508
-14,94,-48,-8905,-538,-1261
-37,-92,39,1585,-4845,2970
-37,-128,84,1561,-6643,5467
26,51,61,-2499,-4570,6535
-3,77,9,236,-2090,4240
102,-23,-45,812,-4148,4176
-7,-51,73,-1381,-1681,2247
20,-77,76,-528,-1417,980
78,98,-28,1747,-47,-1237
-34,-54,-98,122,966,-180
-57,-9,99,-956,-564,420
-32,-62,-115,489,-256,428
-11,-54,113,437,175,-85
4,-23,117,-480,269,228
31,-31,100,247,248,-221
39,-71,31,1616,-475,383
-33,-43,60,-1367,59,-80
-27,-46,33,-1008,-641,169
-5,-54,42,-709,-270,149
-11,-52,36,-416,-294,168
-23,-39,37,-387,-309,298
-23,-14,43,-744,-265,337
-28,-7,57,-439,-468,477
-14,11,70,-611,-136,415
-7,31,70,-388,-170,361
-4,-101,98,-1569,2819,-4434
-98,-95,-25,816,81,-4706
109,-65,51,4122,106,-4909
-79,33,49,3981,-1927,-4884
53,23,-8,4066,-1781,-2995
-118,-24,118,8806,-5361,-1340
69,-114,84,3882,-1088,-1461
-81,3,-50,2943,934,-2199
-115,49,78,3524,2201,-1877
70,-66,37,2259,4492,-2007
-9,-77,-19,-1008,5631,-1678
-101,88,-41,547,-629,-860
121,-70,74,-2087,-4661,1792
26,91,17,-7817,-4185,1645
91,-76,-35,-12696,-2237,679
-29,23,123,-14796,205,-930
-113,-94,-61,-12577,278,-867
-6,32,-111,-5491,-803,492
-72,-70,83,6760,-6696,3642
-66,-107,73,3890,-5771,5063
98,68,-49,-2294,-50,4550
73,52,86,1937,-2219,5263
-21,-125,-82,-75,-1919,4751
16,-89,-29,-1022,-1886,5208
65,-124,-8,-44,-1385,6146
-63,-125,-114,-921,-980,-1214
56,21,-54,2442,37,-2337
5,81,-89,2059,952,-1591
-97,19,122,142,75,1
-73,59,124,-628,98,372
-24,90,108,-716,41,-48
11,-113,127,-1604,401,-24
23,-92,100,-496,264,-88
32,-76,87,-249,248,-92
20,-73,76,-427,117,73
-5,-86,76,-292,-129,258
-2,-59,95,-1015,37,370
27,-49,95,-490,-32,319
37,-44,108,-235,-483,354
17,-23,105,-350,-68,224
-96,-23,-42,2652,-4172,-6181
-65,-61,116,-3707,230,-7263
-13,-101,83,1302,-2365,-6012
-127,-38,119,3065,-3562,-3727
96,10,-61,6985,-5425,-1341
-93,-113,26,2930,3207,-1644
-99,26,-47,6025,4877,-2426
58,84,41,3213,4049,-1640
98,63,9,-883,3729,89
79,53,-28,-4216,-255,219
31,-52,65,-3764,-5323,674
-69,-81,-73,-8972,-1457,353
101,-49,28,-10755,97,1122
-28,122,-48,-14509,1091,1124
-117,-90,-121,-9420,-1238,1695
119,-93,86,-113,-3083,2272
-21,-103,9,9695,-4175,2235
30,-58,-79,-300,-5335,7364
65,-9,61,-1358,27,5964
46,97,21,4293,-1582,5758
-58,-42,-35,-1365,-4235,2953
-18,104,-58,-70,-1622,-2522
-85,3,-110,3662,2364,-910
53,100,-50,182,1949,-138
-92,-83,-30,-2831,-1750,912
-72,-121,71,-696,-1339,1051
27,-88,124,47,456,-40
88,-104,92,590,714,-841
73,109,41,914,131,-1677
69,49,4,1006,389,-2242
76,-8,-4,275,239,-1707
43,18,14,-1186,-131,-771
19,40,23,-1105,-25,-635
-18,67,36,-695,193,-447
-39,69,9,-155,2,-223
-45,78,-5,-388,-136,122
-40,100,-3,-827,-105,577
-39,116,-3,-815,-292,946
-18,-121,23,-963,-438,1381
35,-103,91,-1176,-200,1834
56,-26,66,4309,1137,-3947
-123,49,-110,1664,721,-5756
121,105,35,3705,-1198,-6640
25,19,-10,2446,-388,-5508
-65,10,41,3215,-1387,-2942
103,-56,70,3480,-603,277
63,79,43,6937,-1872,1593
54,-61,48,4988,1233,680
-25,-92,30,3266,3578,-596
-18,-26,-57,1628,3720,-696
-85,-49,-40,-969,-900,-372
85,23,-19,-1281,-5006,1248
118,-94,72,-6001,-3378,1269
-78,-53,17,-11385,-853,705
-125,-51,-91,-12820,817,-595
48,79,-37,-9996,-32,-7
-2,115,-14,-6776,-2649,1379
80,-50,68,-631,-4589,4224
49,102,37,2885,-4917,5380
-94,20,65,4054,-1280,4794
-56,-6,-82,797,-959,6561
-5,-84,116,151,-1328,6960
90,-96,52,-934,-3995,3273
-7,67,-113,-1453,-2356,-1363
65,-45,-43,2084,679,-508
-11,-12,94,2108,1209,245
-34,58,-17,437,102,-56
29,69,-12,-861,14,-593
86,55,0,-1290,403,-1531
114,6,5,-860,192,-1879
107,-6,21,-371,124,-1960
108,-12,24,-361,217,-2022
69,-3,29,-632,-44,-1640
34,-2,34,-486,-27,-1216
-7,16,55,-457,28,-841
-46,21,40,-170,-59,-398
-77,28,35,-243,-205,85
-90,46,36,-574,-96,830
-72,74,39,-904,-155,1434
-22,84,48,-766,-111,1878
70,-98,-74,-5480,1607,-567
62,111,105,-8287,1130,-3583
-100,13,126,3623,-89,-1319
44,105,44,1651,3746,-4097
-103,-66,-93,1946,1327,-4053
81,23,-74,3035,296,-3084
17,77,-111,3731,-879,-3762
-59,81,92,2777,81,-3726
77,69,13,6961,-703,-2027
55,-100,-24,7172,1373,-2375
-13,28,-98,5862,1673,351
118,8,-85,4156,3282,308
112,44,-104,-890,4802,159
-15,-116,-34,-2061,4036,-1830
125,16,13,-44,-1341,487
-125,-101,24,-2945,-4143,473
-31,126,-115,-8723,-3288,-1127
-93,-67,-70,-14372,-2648,-2433
27,51,24,-11413,-2846,-3354
68,-97,-19,-9460,-846,-1713
-116,110,-5,40,-2985,1619
-73,87,-123,4510,-4586,3549
123,14,25,2749,-483,5486
-117,30,-79,1545,-565,5287
121,-26,55,-2105,-1372,5309
93,-4,93,931,-3713,4350
48,38,-47,-1237,-2812,4234
67,60,53,-114,-1649,4347
56,112,-79,1921,-270,2585
-74,-35,104,888,-350,-133
58,107,80,483,413,-1276
33,0,62,504,590,-1435
5,-50,25,423,105,-863
7,-3,19,-955,-98,-738
38,6,31,-1319,-112,-1051
48,-1,62,-863,-112,-1001
29,-6,65,-173,-137,-937
11,-3,66,-89,-85,-802
0,21,55,-465,-68,-568
-15,30,60,-618,-46,-340
110,45,-78,-367,2785,-3999
-7,24,-17,2166,1024,-4102
-67,92,-8,2156,519,-5768
54,57,30,2561,-452,-6126
-84,51,61,2891,-242,-4344
-76,-74,77,7834,-2409,-1866
-26,-114,88,6297,61,-430
-54,96,53,6921,2987,-1464
-17,-44,-62,5134,2299,-755
-113,35,92,-1696,4990,-705
-125,-62,-83,-2326,1207,-919
-10,-64,-45,-1250,-3712,1261
33,27,-69,-5714,-2644,417
24,-76,2,-10539,-1414,35
-35,46,34,-13969,-522,-1388
-73,-103,-82,-11183,-1220,-739
75,-63,71,-8308,-883,521
-46,8,-64,3369,-4747,2843
63,-36,-53,6623,-3169,4742
5,-128,64,2280,-423,6002
-123,-39,50,2269,-598,5700
-82,63,-30,-304,-525,5542
-122,-42,54,-2188,-1393,5550
126,-40,123,-1820,-1562,3348
-52,66,124,971,-995,-695
44,-86,96,3070,-708,157
13,-17,64,1062,48,502
-9,22,20,-974,506,-353
0,-27,3,-568,-99,-627
29,-38,26,-354,-48,-1127
64,-54,22,-231,26,-1521
78,-65,0,-478,-245,-1736
91,-57,7,-795,-231,-1756
50,-53,-22,-243,-482,-1775
37,-45,-11,-324,-71,-1260
9,-42,-1,-496,4,-826
-48,-17,0,-797,-98,-314
-60,3,10,-866,-108,19
-75,10,15,-561,-189,395
-58,28,21,-463,-160,997
-94,115,-68,5922,-2380,134
-83,59,-70,4423,-883,-343
-57,58,-32,597,894,-481
-26,51,-64,-4164,2600,28
34,-53,59,-8813,3407,325
54,89,-4,-8183,1546,-103
74,-124,-30,-3354,-724,798
65,86,-116,1166,-1589,1558
125,-114,122,2983,-848,1115
-124,-36,74,275,-349,562
109,-18,59,-1645,-5,169
79,-62,75,-1565,-123,48
89,-83,92,-794,-304,297
89,-11,92,-1422,-106,-219
77,14,97,-1834,94,-702
55,-21,109,-1075,67,-617
35,-42,109,-577,32,-624
42,-3,-115,-2727,858,-768
5,-28,-112,-2426,309,103
13,-20,-61,-1441,-321,330
62,48,0,-1878,-142,437
77,70,50,-1008,-176,244
59,51,47,-375,48,18
39,47,41,-921,-115,400
61,67,51,-1210,170,276
67,62,47,-659,98,92
78,108,73,-1616,-79,273
49,97,96,-1358,-601,407
50,73,-125,-1005,-519,633
64,69,119,-776,-150,527
95,55,94,-754,107,525
111,78,50,-777,-302,206
47,81,68,-1097,-420,77
106,76,-127,-1328,133,103
-115,83,-83,-321,-251,-343
-91,-30,15,519,650,-1777
-97,80,36,-577,1357,-2664
65,36,-12,-490,1417,-2251
75,126,5,2075,1140,-2685
18,56,-18,5512,-1311,-3821
6,46,23,2619,1786,-6187
-47,26,-106,6053,-1065,-3786
-50,-112,-94,8102,-3986,166
56,-77,-74,4506,7,-477
14,62,-114,3419,2630,-489
26,48,-71,1811,1341,97
-55,-58,46,-1356,-864,-728
-49,-47,-51,-3644,-4534,722
65,46,10,-11649,-614,951
64,-81,-82,-12387,615,1743
-53,-88,-14,-13646,1084,1835
-73,-79,16,-8843,-1742,2950
-91,-87,12,403,-7368,4532
-122,-37,34,-1382,-8795,5499
-123,44,64,-1955,-1178,3172
-106,-91,12,-473,-2367,3367
100,-78,124,-600,-2552,23
-24,-20,-4,1861,1159,-2418
-119,-81,88,-369,2860,-1119
16,-83,-39,-147,-1253,872
86,117,-49,1929,-1058,829
-87,-8,-49,-776,1014,-438
122,125,-91,-97,7,-68
122,115,-94,-262,99,4
122,-126,-102,-627,183,-38
108,120,-100,-477,-83,74
102,-122,-92,-422,-170,151
101,-109,-82,-524,-99,123
101,-99,-69,-612,-161,182
105,-99,-60,-481,-52,162
102,-88,-59,-575,-73,153
98,-104,-62,-282,-80,203
104,-83,-67,-533,-86,156
94,-99,-71,-272,-59,169
91,-91,-79,-560,-111,260
96,-86,-79,-334,-116,149
99,-77,-80,-544,-134,170
91,-84,-74,-523,-182,225
92,-78,-71,-446,-168,172
87,-80,-65,-546,-170,193
-73,99,95,5758,1372,-7367
-31,-98,-36,1970,4355,-4599
-103,-127,-78,5728,-6757,-4759
-35,-38,-117,3860,-4976,-5652
-38,5,-14,1122,-1365,-3222
21,97,3,5920,-3387,-1122
-61,-6,66,3571,1406,-1306
77,23,76,5136,3223,-2051
-20,-100,-61,1154,4475,-1037
110,60,87,-3800,2768,-1237
107,-58,127,-4244,-7405,983
-118,-42,-58,-15121,-1726,360
-117,-5,-18,-13692,310,-1359
31,19,94,-10535,-572,-938
-44,99,15,-5144,-2987,2602
1,-78,-124,1532,-6651,5587
75,110,-43,-772,-3680,6750
-27,34,36,907,-2173,2487
-58,-30,35,2785,-4136,3461
-107,-61,-122,-3324,-2027,3616
43,-83,-52,-2916,-3250,2906
55,-40,115,1131,-1839,-287
108,39,-14,3843,1092,-2575
33,-53,71,1100,1455,-920
3,122,62,-3198,-115,597
19,-19,107,815,-438,350
51,40,111,227,535,-157
43,-8,71,-88,147,41
68,-1,79,-164,243,0
73,0,50,-270,221,-219
65,18,57,-956,95,-68
48,27,79,-829,-65,169
63,42,100,-692,-116,79
65,58,126,-750,-51,71
32,51,-122,-315,38,-1
35,72,122,-814,100,88
36,73,117,-514,-80,164
52,89,-128,-337,-223,351
39,94,127,-207,-384,347
62,-122,-111,-809,-75,275
123,-23,111,1934,1916,-4590
-87,2,-92,4592,-1138,-4434
55,85,-115,1378,1569,-6371
63,-6,-112,6716,-3649,-5303
19,-15,-124,8032,-6244,-2915
-118,-96,-64,3514,-4159,-446
17,27,-15,3017,1726,-834
-115,-23,12,3955,3512,-1340
27,-66,2,561,4644,-454
-69,0,35,-2121,2819,-632
-54,73,0,-2918,-4945,259
-63,-89,-122,-12020,-1291,-683
40,3,73,-11602,-701,-1416
-96,14,-56,-11155,155,-885
2,112,-111,-8792,-651,165
-17,-108,-84,-1949,-3786,3751
-41,-91,98,2591,-5987,4936
-69,60,-67,-6191,-3361,5310
83,-112,-39,-237,-4346,3639
-52,-113,52,2807,-3622,2947
77,-106,-128,1312,-1295,3218
126,-2,-22,-58,-1764,1684
-46,13,-14,-111,-771,9
67,87,-99,1104,723,-886
-10,-1,41,41,-358,390
8,53,64,-1228,-40,504
43,18,57,458,-391,29
53,36,54,-70,-132,-331
34,0,63,-707,155,-242
17,-7,47,-933,234,-140
22,6,59,-1145,395,-40
29,26,60,-808,59,-55
25,42,76,-853,162,145
27,67,82,-1020,-7,149
33,75,94,-744,-181,255
45,103,115,-955,-54,255
46,115,-128,-755,-101,138
43,123,-116,-872,16,232
49,-119,-95,-810,227,146
38,-126,-95,-480,-299,273
-75,36,63,3242,-1870,-3768
45,74,-97,4318,-3114,-6450
-99,-69,-33,811,-3521,-6060
-113,54,-109,343,-2572,-3869
121,-4,47,6411,-5004,-1657
101,122,125,6071,-2063,-2121
99,86,13,4610,2308,-2187
-86,-93,49,3282,4756,-1720
118,-75,-94,-2932,4696,-1225
115,-109,63,-1353,-3277,568
-10,-119,-62,-9113,-2252,1171
87,65,74,-13233,-494,135
-84,-49,63,-13707,312,-740
32,97,46,-10850,-421,706
-94,26,-93,-5671,-2397,2617
47,53,71,3233,-6599,5107
-23,3,-103,-2101,-2861,5186
68,-32,118,511,-4370,4081
13,-16,27,975,-1329,2654
97,-92,109,588,-40,2734
-87,-105,68,-3240,-1656,1578
-44,0,48,616,-371,-1793
102,17,-25,2254,1297,-1539
27,44,-125,-98,124,577
0,19,120,206,-1686,1194
90,-118,-94,-1050,-155,319
76,96,-84,-480,-145,79
63,66,-85,-166,-68,150
66,84,-101,-312,73,-31
64,79,-117,-512,152,-44
56,79,121,-450,77,-28
55,88,120,-541,-60,67
61,99,-123,-453,77,5
58,85,127,-313,-100,173
55,107,-117,-1065,25,148
50,90,113,-174,-439,405
51,114,-126,-462,-215,228
51,101,122,-131,-37,286
53,103,126,-473,-362,307
57,122,-113,-788,-97,214
44,36,23,2114,1145,-3893
82,-76,88,1329,4143,-5872
87,-125,-42,5674,272,-4226
-64,93,-39,3755,-680,-6028
-6,-77,-23,5370,-2722,-4123
-8,-119,-3,5003,-3070,-1962
-111,-74,122,5252,-3231,13
16,-54,-64,1116,1297,464
-15,70,47,2377,4565,-451
-38,51,13,1394,4118,103
17,-99,52,-1157,2134,-806
76,-31,-62,-1189,-2113,441
51,69,-42,-6111,-4783,805
-109,104,-107,-14224,-525,-194
-62,-34,43,-11719,-1080,-327
76,-27,-117,-11505,-845,-31
-110,13,103,-4661,-2279,1264
-81,-20,34,5245,-6070,3070
-121,-119,62,1921,-4989,5495
-112,-92,49,-1721,-325,2555
63,-128,91,2393,-2662,2769
59,107,-59,1888,-2002,1589
-18,-69,112,1308,-646,1965
-9,119,122,256,-1301,3026
-23,120,38,597,-1061,2072
-93,123,78,935,-1217,563
93,65,105,985,-650,-71
44,50,109,-786,490,-256
-11,-9,41,-326,-329,-173
-17,-26,33,-386,182,-70
-24,-11,-5,-510,-226,-170
16,6,-2,-1114,171,-209
20,6,2,-645,459,-578
28,-12,-7,-118,175,-525
24,11,0,-540,226,-515
-20,-15,-5,-509,-388,159
-14,34,24,-929,-11,284
-8,44,30,-452,-376,567
22,95,53,-968,10,484
25,78,44,-218,-167,789
116,49,-60,884,-1286,-5386
70,103,-7,-1703,826,-7642
-111,79,15,2532,-2355,-8603
18,114,8,-64,-2382,-8361
-77,56,-50,-1364,-1878,-5175
83,99,82,5399,-2582,-1592
-63,18,-39,5851,415,-155
-17,-105,113,4941,3847,-1107
-55,31,123,4599,3685,-1202
-41,-126,19,4227,3390,-1002
104,12,64,-3428,4320,-963
14,-4,-70,-2692,-5712,1233
57,-114,-12,-9720,-3663,1167
-18,123,94,-12376,-2479,-1547
-44,58,56,-12225,-16,-295
4,104,-87,-8863,-2574,2255
4,35,45,-2730,-5282,5023
-39,-12,31,3845,-7885,6085
-90,28,118,1709,-1689,4652
-34,108,-110,494,1052,4201
121,-25,-126,2211,-2989,3310
21,89,75,2020,-2173,3812
-55,-84,121,-134,-1988,4522
-112,8,94,-3187,-2378,770
32,-12,-108,1611,-722,-3360
-32,-81,68,5889,1655,-2300
-47,-42,-54,-442,897,-215
-96,-52,-83,-2110,-1144,1356
-8,47,-19,-1770,-23,239
4,19,-16,-211,322,-434
-34,-36,-38,974,-342,-375
-33,-20,-39,221,-8,-411
-33,-36,-41,-439,16,92
-35,-31,-46,-544,-183,292
-30,0,-34,-553,-21,339
-11,34,-37,-651,57,271
23,88,-41,-965,9,100
8,110,-32,-689,-76,-173
-48,31,-15,506,-354,353
-20,107,-19,-586,95,293
11,64,5,375,1370,-5642
38,125,-47,-227,-1625,-6281
-4,-23,-99,3776,-2776,-7526
125,-13,-45,232,-1104,-5280
55,112,115,6010,-2487,-1596
79,-118,121,8283,-2155,1153
11,-104,-117,3238,680,-1263
106,-96,43,2287,66,-177
-123,-124,-126,1591,3546,-1155
113,88,4,55,4277,-694
80,57,122,-2054,3162,-1142
-86,90,-113,-3840,-4967,656
86,12,86,-13250,-752,-1951
-120,93,-49,-10246,-2129,-2792
-61,55,-123,-9461,-1343,-1231
-22,89,-105,-8243,-1929,1657
-101,99,-39,1272,-4698,3404
-98,65,-94,5653,-1766,4853
50,120,126,651,72,5120
13,117,-61,-1717,-1891,6311
72,-81,-99,172,-2877,5931
-65,60,-1,-1027,-2237,4686
74,-127,-40,-1138,-1132,2432
34,-103,-67,-110,-1237,-1205
-79,-91,-80,2312,403,-1969
98,38,65,2669,1108,-1511
48,76,9,307,123,80
48,118,0,-1130,-440,-117
88,73,17,-649,72,-723
79,28,14,-111,-132,-583
68,32,5,-88,-366,-462
36,31,20,-260,-461,-245
7,54,52,-1049,-278,410
22,110,66,-1347,-9,371
43,-96,73,-1318,55,229
45,-117,70,-359,-51,184
47,-102,59,-234,-160,278
56,-61,62,-852,16,268
55,-70,61,-583,-15,262
49,-58,55,-459,-87,285
22,-23,42,-7157,852,681
4,-88,-2,-4896,-1860,597
-72,113,-60,418,-325,-542
-47,66,105,4251,3640,-5614
69,110,55,3361,1086,-5779
-17,-50,37,515,691,-5982
87,-114,-124,-4825,2913,-5160
0,-96,125,2353,1006,-3433
29,-92,-63,8928,-1537,-642
96,-69,-64,8115,527,-2195
71,11,-66,4091,1260,-34
87,10,83,1139,3256,1551
21,53,-75,-715,3374,2430
50,36,-21,-6175,1269,-40
-89,-36,-51,-8453,-3083,-1135
101,69,68,-12325,-1146,-1893
-16,-82,52,-7802,-1270,-1440
71,-105,-112,-4618,-1049,-986
-88,-18,60,1881,-2243,-247
5,116,42,1100,-5538,2612
94,50,19,245,-208,1848
42,-82,-59,648,-323,4245
107,-14,8,1670,-1527,6741
100,95,-35,2467,-2975,8115
-59,-32,-7,2076,-3881,5347
9,-114,59,-275,-1677,1183
105,-47,125,15,-416,-889
13,25,31,1407,36,-1326
-6,60,37,8,-898,-675
-42,15,75,-234,-517,-256
-64,22,112,-1223,681,-216
-11,0,67,-1193,1029,-207
11,21,18,-1825,442,-530
23,-10,42,1033,-349,-438
48,57,76,-50,616,-638
16,57,10,-228,627,-457
28,61,-8,-480,445,-45
28,68,-27,-108,181,-246
16,67,-39,-57,-71,-25
6,84,-23,-483,-134,6
-108,-54,127,2440,-488,-4921
-126,-61,-8,-68,-243,-5566
-8,-70,0,4608,-2533,-7277
125,-118,-25,1974,-3461,-5607
-78,-19,98,5059,-3291,-2283
16,113,55,5531,-1783,-959
77,97,-24,5279,891,-1341
-37,-2,-79,3100,3657,-1779
49,-59,-86,69,4030,-272
-30,-20,99,-2103,1950,-934
-41,109,-52,-4464,-6748,2474
117,40,73,-12218,-1051,676
120,-111,-89,-14972,259,-1207
65,111,-49,-12646,-496,-909
-67,-43,61,-7143,-924,1916
95,98,122,5239,-5057,4735
-89,20,117,6577,-5538,8535
-124,85,60,-4766,2659,3353
58,114,56,3636,-608,3647
93,-13,-60,490,-1276,4320
124,-48,-9,-3502,-1197,4560
-96,72,24,-3328,-2242,4177
66,-58,-29,-1124,-1245,1030
-124,127,-87,1035,514,-1896
49,-65,120,2702,747,-1354
21,-14,68,-53,177,-229
24,-20,58,-1139,-732,422
62,-13,103,-858,-390,-58
50,16,-128,-839,12,-379
25,-3,117,-138,-37,-387
17,8,117,-616,190,-457
28,3,107,-833,195,-165
31,12,99,-671,93,-111
36,54,97,-848,133,-38
31,65,89,-541,-2,20
31,82,86,-401,-142,22
34,105,91,-603,-197,158
28,103,112,118,-463,279
13,59,106,1898,-851,329
13,122,103,-438,-289,97
-20,-108,-58,652,2015,-5175
-97,-52,83,1110,-1473,-6981
-111,-89,26,1302,-2715,-6467
23,87,56,585,-2445,-3063
-119,-18,81,6108,-3618,-1198
-81,-75,-42,5049,2955,-1395
-87,3,-96,6463,4305,-1063
-55,-69,118,2202,5070,88
-56,119,69,-4518,3121,336
82,-73,119,-1479,-6625,186
-76,-6,18,-6875,-4261,-397
-8,-86,-78,-10157,-1837,561
-107,119,-94,-15797,911,1615
62,-68,-42,-6443,-75,2341
-85,-40,-13,-2802,-2236,2378
-111,-32,-95,3561,-5744,5373
43,-58,-49,-524,-4924,7371
-111,109,-57,-1414,-522,3370
34,-119,15,4567,-1636,2340
-36,110,1,2080,-790,4465
-101,-55,-123,-2033,-1773,698
-105,-97,-62,1747,-2444,-1544
52,-81,-85,2931,869,-978
52,-3,71,-874,1294,278
31,14,25,-892,-603,760
82,34,77,-437,-83,-172
70,-5,73,223,446,-105
36,-50,25,432,-283,-192
63,-19,43,-646,36,-276
47,-71,41,38,-295,-232
28,-69,50,-308,-202,-12
14,-21,80,-1341,-117,42
55,58,93,-1190,371,24
41,65,76,-358,289,-389
13,79,62,-291,-670,501
24,119,66,-888,-62,166
33,63,58,-449,-532,655
55,-122,81,-1231,-571,767
64,-91,-124,-772,542,186
18,102,108,-67,-346,293
-69,48,-89,-5768,616,-2792
101,-109,-4,-1409,-68,-2574
-66,-96,-121,442,-490,-5455
-103,75,15,1598,532,-7012
52,39,7,54,-735,-6448
70,12,60,1148,535,-4855
108,-47,44,7919,-2412,-5759
18,87,-116,8835,-824,-4219
47,67,-38,5434,2928,-4202
-44,3,103,-889,6387,-1407
-86,99,-74,-3331,6521,-1207
-125,117,-30,1700,-4784,945
45,123,52,-5199,-5017,2849
-53,-41,18,-8813,-4553,2839
-57,24,-9,-13670,1995,2697
54,110,6,-14813,991,3113
-34,66,-128,-8458,-1025,4613
36,-77,93,-710,-4905,4172
10,100,-39,6390,-8182,3808
112,14,-78,-83,1524,6364
-49,-103,75,1572,1615,3983
-27,-29,87,7958,-1342,1685
96,121,120,-28,-915,5891
-36,-78,-96,-5842,-2589,2002
17,-68,-43,105,-2026,-2961
21,-70,-65,4503,565,-1600
72,-35,55,2141,2325,-1964
41,-70,2,-738,268,-146
-12,94,-20,-664,-1189,961
44,-12,39,-1619,127,-33
38,-36,37,-761,-2,-181
17,-33,51,-532,-506,239
24,11,77,-878,-146,254
32,43,90,-857,68,2
23,11,87,-73,-206,86
9,7,89,44,-212,236
15,35,97,-667,110,330
36,79,93,-1118,231,119
27,64,81,-574,108,182
7,61,66,-206,-35,338
111,60,-83,2098,-2300,-4856
-45,-29,-38,2460,-3673,-6418
-99,-92,-108,1199,-4339,-5686
88,-34,114,270,-3288,-3814
-54,-115,111,4289,-2329,-2043
-29,45,-103,6724,987,-1324
33,-104,-49,4305,5911,-1059
-75,-88,-36,3760,4358,-332
97,-16,90,-971,3764,-696
-103,-79,71,-1895,-1594,168
-18,-114,56,-4039,-4588,1483
-1,66,109,-10817,-281,218
-45,14,49,-12713,209,-173
-94,86,-85,-10804,-324,479
120,-95,-23,-7844,-907,2176
-107,100,-89,-2429,-2532,2930
97,117,34,3092,-3728,4109
-18,16,37,-43,-1943,4634
-28,58,74,198,-1418,2764
-100,15,39,2678,236,1294
-61,-100,56,1219,681,1854
-77,57,-122,-63,-1197,2316
-42,-47,106,722,-1062,2124
-36,-93,84,1426,-1079,1690
-93,-94,77,773,-114,-22
-106,-119,87,339,-19,-42
50,117,48,-134,-118,408
52,72,31,-273,-421,857
80,94,24,-971,-518,1224
80,100,13,-801,-84,33
97,76,41,375,1655,-804
114,65,54,718,381,-664
98,117,20,-1247,-312,-425
78,-16,65,-5021,270,-645
18,-38,53,-4173,-1143,260
7,-71,-86,-1284,-1186,238
47,7,-18,-572,669,-779
52,67,-26,-160,1326,-1411
49,68,-84,-816,393,-784
59,34,-92,-550,-207,-333
82,93,106,-5925,-1168,1448
119,-12,83,-1547,-608,448
-120,68,-79,-690,117,-142
94,60,-102,-679,-237,5
101,112,-58,-1171,-49,-49
-49,83,109,1290,-1666,-1350
26,109,-72,2329,-1230,-4455
51,115,-118,-406,3349,-6278
-25,-112,78,5164,-1833,-6565
9,-3,-66,3358,-1807,-6164
-102,-108,-128,1942,-1286,-3544
-47,-118,64,4374,-3675,-1742
85,90,88,3519,877,-549
11,92,-57,5005,4515,-846
65,-66,-103,4548,4090,-347
26,96,-77,-2354,3624,-730
-72,60,95,-1465,-5470,673
-127,-45,53,-9103,-3639,1065
-91,-12,-84,-12387,-865,554
-81,8,62,-12514,1396,1666
53,-34,-50,-8065,-53,3495
0,-58,57,-2751,-2525,4658
97,15,-93,1067,-5867,6044
-105,4,70,-3151,-5639,5571
-33,-57,81,-1787,-1975,2919
98,-16,36,5725,-2578,2357
-2,85,56,2030,-2047,4401
102,121,44,1039,-1694,-459
-83,-119,-99,1719,-637,-1760
103,-1,98,648,1657,-2063
36,-53,19,-10,307,-777
13,-20,33,-859,-224,-143
78,15,55,-849,350,-335
98,25,63,-341,143,-607
87,-3,56,449,154,-746
70,2,42,94,72,-607
46,25,16,-491,-256,-254
33,53,31,-763,-328,-68
32,57,41,-648,18,54
20,66,53,-619,-262,498
-45,-29,97,1636,-610,-5768
-3,67,-110,931,244,-7422
117,119,-121,2302,-547,-5257
-103,55,120,4578,-1127,-2708
-32,10,-92,6993,-1845,-119
-59,99,13,5367,1691,229
-53,-114,-46,2682,4873,-668
-121,-116,-44,-2150,5025,768
115,46,-83,-7929,5567,2747
-29,1,43,-791,-682,-2473
-98,118,-117,-3545,-5598,-1707
-1,-68,17,-9498,-1190,-2206
-110,-13,51,-5328,-2738,-703
18,-52,56,-7745,-1677,1108
-56,-82,-8,-4831,-2037,2523
2,56,-41,1463,-3081,3364
86,19,-25,3759,-2410,4548
107,-30,77,2666,-396,3773
72,-61,103,2091,-1294,4484
-46,58,-118,-950,899,4380
4,-52,52,-856,358,3872
67,-1,-56,1035,-1506,1486
-107,-49,-63,2042,-1591,-560
84,62,-36,1891,-232,-1238
48,1,-38,651,-110,-556
0,17,-31,-1032,-541,427
16,30,-12,-1370,-591,373
54,86,28,-1670,-371,75
71,104,34,-1503,-24,-801
73,71,30,-676,207,-1171
52,53,23,-286,360,-1177
37,47,7,-237,387,-957
13,63,2,-473,259,-563
-1,78,-9,-382,424,-479
-2,70,-15,-165,355,-296
-4,56,-11,70,273,165
-1,62,0,-61,395,493
-9,33,-32,511,147,728
12,-7,-57,915,-232,1370
19,9,-45,115,-716,2191
-94,-27,75,-1400,125,-5846
-106,12,74,2434,-2922,-6661
-12,83,63,2241,-1668,-7457
81,-58,71,2669,-3700,-4810
-58,-85,-82,5763,-4925,-714
-65,-67,-48,7198,-1154,-1895
82,26,66,3667,5423,-1856
79,21,-113,3192,4977,-2687
10,-122,-43,889,2019,-796
-111,1,-33,-5306,-3554,841
-19,-13,92,-8293,-4336,1743
-35,73,-108,-17388,712,-75
-64,7,52,-13943,702,-123
45,44,-54,-8829,-860,950
-54,-97,-68,1586,-5020,4301
-125,48,66,5593,-5258,6941
120,5,-21,-5655,-1206,6507
85,111,45,739,-3154,1160
-54,-52,-44,2531,-4549,3494
-63,77,18,-3512,-594,4303
-110,122,-126,-348,-1942,537
-100,-75,67,2955,797,-2160
109,84,-48,326,1765,-1005
32,93,-117,-1555,-773,792
62,78,-65,32,-528,324
94,124,-74,-368,346,-291
87,95,-104,-448,-213,420
86,72,122,-62,77,-68
96,102,-125,-385,117,-158
78,82,120,-529,97,-99
70,88,126,-761,31,17
74,96,-109,-747,-67,153
82,-122,-98,-753,-83,11
74,-123,-90,-718,-77,81
65,-117,-84,-598,-81,117
62,-111,-79,-496,-160,239
68,-106,-80,-460,-63,240
69,-98,-85,-592,-143,279
62,-94,-83,-456,-180,233
75,-91,-83,-500,-177,262
