AccX,AccY,AccZ,GyroX,GyroY,GyroZ
-23,27,4,7459,-6824,233
-124,-43,-106,15093,1849,-8550
-47,-20,64,-5530,5134,-11250
-48,-118,45,6293,-3958,-9958
-121,33,9,3699,-7800,-9502
22,-123,51,-9942,71,-8337
108,118,100,-24411,795,-4777
35,47,89,-9922,11777,-1577
102,34,125,-22941,16660,4998
-32,86,-90,30131,-1859,3123
-77,-126,112,-26754,31429,-13965
-44,7,-70,-31222,-16100,-4342
33,-105,93,-6596,-8596,19790
-86,-72,88,-27019,9482,-28995
96,65,121,-30105,15460,-9951
102,73,-14,-4463,30773,-5624
-59,41,96,10012,9655,20143
88,124,77,-17200,-28228,15904
106,-76,116,-16401,5503,9473
52,35,-112,13602,-24241,11960
69,-72,-107,-4806,-11725,10893
94,-56,21,20496,-13953,10739
41,-20,-43,778,-4981,6759
-37,-62,-76,5745,-1135,-256
-72,55,-12,11182,-612,-503
12,35,37,-1004,2166,3022
53,29,65,3109,1973,2983
-122,-20,-74,6170,169,1970
-113,-22,-115,2958,-2824,-81
-117,-14,-95,2901,-946,22
-118,-44,-102,4153,-2078,1007
-100,-37,-112,1705,-559,-823
108,-86,107,4983,-3473,542
122,-39,-96,-2764,-389,1192
-127,-37,-78,4803,330,411
-98,-58,114,1936,-1257,1087
-106,-40,116,2009,-2016,-276
-119,-80,100,3490,-716,1399
-110,-64,102,1535,-2585,97
118,-98,91,4217,-437,885
-80,-34,-19,-3668,3563,-10015
19,0,25,3446,1839,-1727
-53,109,-1,20998,-4791,2197
79,13,104,8520,24475,-8360
-59,123,35,-17763,12251,-3541
63,98,16,2336,16869,-14428
-114,118,-74,-21602,6546,-24863
-100,-83,-28,237,13642,-12877
102,39,45,-11867,14055,-9830
-7,56,101,25124,20589,17170
46,88,-24,-12515,-25771,-3748
-91,-100,9,-32370,27197,21599
-16,6,-28,8630,-4502,-27594
-93,30,-80,11208,-13924,-27413
108,110,99,-15552,6981,-15128
0,125,-32,-30109,-16222,-17131
-68,84,-92,2958,9617,-6791
-99,-35,-72,-8157,14253,-2038
-12,-115,15,9178,12690,3886
-80,-87,113,18010,-3962,8095
-31,9,-25,6159,-5234,17618
28,127,-9,22728,-11787,20886
77,7,-9,-2610,-17922,11986
49,118,32,4160,-14752,4875
-90,114,-71,2641,5277,3109
101,-8,110,6971,-12652,6114
74,-65,89,-487,7522,2586
-19,42,12,-2698,-921,2099
-4,3,-63,7533,-1641,-181
-2,-28,-58,2813,-3475,1565
-25,-55,-47,6957,542,-673
-10,92,-38,5737,-2465,1047
-30,111,9,1113,-1756,452
-18,108,-2,5963,-874,380
-50,75,9,129,-4019,806
-61,118,-7,838,-149,317
-52,121,2,3316,-1022,1258
-47,103,-12,3895,-1948,2010
-54,-124,-13,846,-881,1841
-62,-113,-33,3371,-1775,1440
-121,82,-90,-29057,3240,-14421
-123,-82,-40,10713,19546,-10708
5,-58,79,-14553,14420,-22921
117,6,92,-17326,8902,-22993
97,1,-99,-5885,11467,-23103
16,66,-24,-22835,15070,-8359
6,-94,-59,29365,22310,-8265
-7,-34,28,-9109,26473,-5139
110,-114,76,-31992,31419,-32524
-18,28,120,-31814,-646,5303
114,4,-77,32533,13342,-3768
-88,-65,69,-18222,12909,-13021
-79,116,-85,-30109,9717,-7864
91,-110,45,27690,-1823,-10100
20,-98,15,-2775,30220,2288
-124,9,85,28161,-6902,6390
-21,15,-66,22745,6694,17038
-28,-68,-3,4790,2708,3484
99,57,31,22808,-9336,18038
30,102,21,4078,-5121,24634
75,-27,64,8906,-25683,21726
32,-84,-8,-10278,-13470,22729
5,-68,-54,-4064,-6259,5404
-26,-125,-116,7804,-7472,4058
6,-94,118,-5386,-2169,848
-9,50,55,11849,1049,-2583
50,-94,32,-2199,-2299,308
30,-71,3,4258,989,-1489
39,62,-59,4178,-2358,2796
37,80,-57,3829,-166,1149
62,75,-49,2824,-3012,2296
25,44,-65,6244,-2874,1966
13,49,-50,1647,-2571,-87
-37,0,-71,4395,-2697,1757
-53,85,-34,-1487,-2738,1904
-58,106,-28,4119,-1114,671
-23,87,-19,3700,-706,617
-18,54,-44,3663,-778,897
-8,31,-41,3094,-750,398
-12,18,-65,2335,-2463,1793
-91,-127,44,9761,1281,-6945
-52,-70,-105,4533,4760,-12331
32,0,-79,1290,3308,2203
-87,91,11,-1629,9847,-9200
69,95,-119,-2018,21283,-21876
60,85,-118,-11427,25254,-24873
-61,-17,-89,539,15635,-22840
80,-116,74,-20315,16741,-3469
103,56,31,30597,-11057,13596
9,17,-53,-31127,-14367,-3774
116,72,4,-30107,20272,-3866
-52,40,59,23301,-21237,-17841
13,48,-122,19822,-20914,-1640
-123,-15,-116,-19917,-4702,-14123
7,-19,101,-30566,-7345,-23889
50,-107,126,-7350,7451,-5203
82,-115,-118,4508,2871,-10657
60,5,74,-23843,-9324,8501
-54,-4,30,3473,-9120,2703
-102,-7,9,19708,-17352,6482
-123,-68,28,11743,-4882,32664
-16,62,-91,-1782,-15120,19365
-101,113,-65,10562,-11188,24433
-46,104,-69,5358,-5837,12368
-10,-93,47,-3866,-11145,2797
26,101,121,11027,3027,-654
109,77,34,258,4311,-627
-79,-82,8,7606,621,-434
-49,125,13,4429,769,1907
-41,92,-75,4315,661,318
-18,81,-91,3067,678,1398
-21,113,-124,1196,-2692,1295
-24,120,-101,3326,-1150,1173
-21,-109,-107,2390,-1249,1194
-36,-123,-123,3388,-760,1585
-28,-94,103,2447,-1260,2042
-28,-81,106,3432,-762,1035
-30,-103,87,4823,-2264,1535
-27,-61,119,104,-2207,990
-24,-60,122,5592,-1467,12
-71,-2,73,3155,3793,-6260
71,23,-104,10338,6806,-7994
50,-22,98,13719,7145,-20129
-68,22,-123,7551,1908,-27271
28,59,33,-24352,-32698,29060
82,11,-42,27001,-29926,-26403
113,28,-119,-13530,-4416,-5989
-90,-67,51,-27346,-3907,6710
4,3,43,32667,31035,15932
-107,-34,-52,-21923,25879,13759
-126,-107,-24,32701,2398,20336
116,91,88,-2412,-13519,1319
12,-104,-61,-28417,-7492,-27322
-109,-110,-43,-30107,6947,-6279
-16,118,62,2361,-21249,1169
68,4,-85,-23644,-8819,-6905
14,-26,-87,-31354,-12156,-1807
13,-43,73,26782,-2439,5555
2,-95,3,17336,-11797,10489
0,52,55,13927,15772,11536
14,83,-60,5564,4894,27107
-110,22,33,9199,-16320,21926
-56,11,121,19962,-17470,25054
-111,-127,10,7675,-7608,16278
-77,-15,-49,-11840,8595,4650
-61,91,-38,5613,-12817,7893
108,-47,41,4172,-3778,-978
-75,-80,60,-1010,13,-1449
-50,-10,-8,6211,-6647,-1228
5,-6,46,658,-25,-2673
-25,-124,-13,2352,-384,532
-29,-104,-51,162,-161,930
-56,111,123,5884,1329,-493
-81,122,80,3607,-1075,536
-67,123,68,-476,-2106,-454
-62,72,68,4741,-1682,158
-70,81,84,1217,-2604,1139
-63,94,96,-286,-2354,1198
-62,74,78,3784,-2042,675
-67,65,74,3566,-2226,641
-73,1,-5,386,-2436,-8253
120,-63,101,8847,1283,-8098
76,127,24,11943,1383,-19648
61,21,-126,1067,27309,-22891
-40,-100,-53,29256,14759,-21345
127,54,37,11378,-31197,-16575
-125,-109,118,32090,10902,-17277
-70,27,-22,-13208,-9195,959
10,-18,46,-26275,-32474,22357
90,84,-104,-27705,-26029,26341
-19,78,-82,-32090,12501,20908
101,-95,-22,-28270,-1372,-810
-77,65,24,-23444,16411,32278
-78,-97,-84,7191,-27264,-6977
5,-40,-79,-31942,-8322,3874
30,-57,-110,1679,-28221,-14296
19,-94,-109,13789,7544,-5573
108,-120,-45,-29965,-14557,12159
-101,-17,111,-5445,2039,2414
19,93,-99,9639,-14418,17514
-33,108,-59,14745,-21790,-32527
-65,0,-12,886,-21803,31923
17,64,95,14973,-22112,19914
111,23,33,-9205,-5871,8151
-49,-6,-59,844,-7222,1080
-118,86,123,2603,-2075,-316
108,5,68,1598,1732,-1925
77,94,72,3062,1644,595
28,91,18,9299,1755,-2526
-19,101,-87,2539,1097,-505
-49,74,-127,2186,-2194,-992
-69,36,109,3569,-515,626
-81,51,106,3798,-2230,998
-81,81,104,1822,-1142,1123
-83,90,96,3871,-989,-393
-102,66,57,2829,-1610,57
-102,61,61,1895,-1740,682
-97,57,54,3824,-1773,460
-98,71,49,1339,-2190,216
-98,40,54,3388,-1405,366
-43,12,80,8674,5993,-6133
-21,-8,125,6963,-629,-9829
126,16,37,9022,11046,-19603
-42,-55,-50,3293,955,-21003
-92,79,54,15246,-25617,28020
-71,-92,-12,-24814,-32239,-32141
-77,-45,-65,-29645,31424,-8037
-24,14,112,-27337,-7219,-2846
126,85,-73,-19383,11538,-17657
-113,-58,-78,31219,31424,-31314
50,-112,103,-25115,-13095,16110
-99,-92,-17,26126,14257,24007
-6,65,-82,-32055,-1308,-27762
124,125,-48,-24955,-12246,-17271
-9,-124,-122,19145,-18384,-24323
75,48,-30,18012,-3463,-4348
75,-92,-71,8324,-3406,644
52,51,38,13010,-6392,7455
21,120,33,16975,-11420,4008
16,-112,30,6428,-10067,16819
-13,4,-21,1290,-12558,21235
17,3,-12,-1826,-11397,19448
-18,89,42,11023,-22371,23516
35,-117,16,12169,-636,13374
-52,27,118,-1402,4290,6847
62,92,109,18351,-12745,2534
82,11,48,-4442,11756,-4014
78,-103,-44,-21790,-8952,7962
-21,-68,120,14628,-6060,1908
-20,-62,-110,2990,-1181,-1975
-35,123,59,-1433,1236,821
-26,85,-69,7934,942,3256
-31,102,-75,4245,-1675,432
-46,80,-85,2817,-1571,631
-32,90,-69,783,-1335,1653
-44,96,-88,6057,-2146,1380
-50,113,-69,2038,-1347,704
-37,119,-69,1664,-1341,1832
-40,-115,-79,2971,-1561,489
-30,-118,-94,2936,-701,912
-77,65,113,10116,-143,-7834
-58,75,-13,5977,5831,-14858
45,-100,73,3626,-6309,-23936
42,109,-90,-9503,-10361,-27585
-120,-83,3,-23633,-3120,-21063
103,74,59,-12226,-9936,-10108
-69,-33,-110,27356,-24199,-60
-126,-27,124,-6938,29457,15029
14,-91,17,27716,-7548,3945
-20,89,77,-9307,19510,30398
-74,67,-65,-31280,3699,-29081
58,-25,-12,-13520,-1153,-5434
-100,-59,-94,-25344,-7076,-26402
-58,113,-102,-30291,-257,-8831
14,55,-2,-11340,11064,-10318
34,3,-105,-324,16818,-3202
-76,112,6,-31995,4668,7369
54,-126,40,14874,9489,6768
68,4,-103,11941,-22261,13975
125,-93,7,11757,-3426,18770
60,56,115,19849,-16203,22336
-39,87,-111,10342,-10669,15797
109,80,-97,8852,-14706,7449
-53,-91,-64,-7130,5960,-1448
43,46,-114,7739,-3445,-1977
61,89,54,7189,-2187,6892
-73,-7,6,922,1916,1086
-8,4,-16,2650,946,1951
19,-29,-57,3484,-3974,1373
6,2,-40,775,-131,-367
1,-6,-43,1765,-2704,783
-21,13,-33,1403,-2196,-85
-40,-25,-64,4260,-624,534
-21,-21,-72,2182,-916,-253
-31,-16,-89,4424,-473,-1609
-33,-76,-99,3621,-4338,1378
-51,-35,-46,1210,-1741,-944
-62,-113,-49,6101,-41,723
-53,120,-68,2332,-4039,1849
-78,-107,-49,2002,-1248,-470
45,41,34,-768,-4861,-15182
-61,-54,-117,6958,-4699,-21608
-73,-36,102,22285,-5492,-11950
-56,114,112,-6649,-29955,-25342
-63,24,-78,30339,12686,-15546
-21,-88,-30,-4283,5385,-19375
-72,125,27,-23691,9747,-15209
-56,25,96,-27925,28908,-15743
-112,38,71,-32624,30489,18452
10,-22,108,-30101,29590,11078
123,71,127,-30101,31420,31862
-100,-119,-47,-5328,-5384,-1695
55,-126,5,-27437,30441,31224
-37,82,39,-30101,11464,-718
-59,-55,3,22502,-9,-3136
-79,-128,7,10832,-14144,498
-12,86,51,25595,1636,71
-99,-36,113,4539,-4385,-389
8,-2,61,16741,-17428,4912
-117,44,-26,5441,2835,20004
77,35,-89,7987,4983,21255
-128,102,-90,4198,-11026,25665
17,22,-21,13863,-10218,20503
59,-102,121,14447,-10004,16501
-79,127,2,5597,-6316,7381
-6,-33,-47,6247,8049,-3255
-67,-77,76,-718,1035,-3212
-33,-50,97,5845,-4280,60
42,-31,-99,-2746,793,-1077
52,102,78,2479,159,-843
45,97,74,1088,-482,1466
32,74,62,2324,-899,1464
10,74,57,4948,540,679
-37,106,46,2159,-3043,2439
-24,100,49,3105,-1638,591
-29,101,67,4369,-2817,2097
-17,120,73,1914,-1565,1086
-20,98,62,2144,-3137,2382
0,107,73,1821,-2545,1158
-3,127,70,13931,-3251,1830
-33,93,-107,9381,-3964,-10207
30,-9,-116,13736,-1301,-16034
36,9,48,11848,8243,-30648
82,100,-126,-7057,-18051,-19326
12,70,20,22252,11110,-23491
-52,-55,44,-14017,8033,-12496
57,46,-92,-17705,2286,-6602
-120,30,-76,29804,-14973,17613
-127,88,34,-30221,-11064,1244
15,-10,94,-29823,19498,16707
10,127,90,-24772,-25034,26951
71,39,-84,23874,21934,9902
35,71,-43,-21189,-886,-28381
-18,31,81,-28354,133,30109
106,34,6,8340,-23455,-2545
44,-32,99,-9945,-7046,-9341
-82,73,-69,24120,-8820,2023
118,82,22,29045,3294,-486
4,-13,-87,11332,-3592,4347
-95,-41,87,16052,-6346,16207
-59,76,-84,5256,-1801,20416
-40,119,-43,16588,-14843,19597
86,-41,-22,9689,1218,18635
-31,70,-38,13533,769,20436
42,56,1,-468,-6755,12261
-25,-84,-1,-450,-4362,-1169
-65,-121,43,-1954,-4562,-1278
-27,62,104,-2249,124,-614
39,62,113,1741,119,-1653
25,-6,49,4241,1455,-983
8,-2,20,116,-933,1577
6,25,61,1833,-74,251
-5,8,47,4665,-7,1033
16,17,36,2346,-1552,1286
14,9,27,2902,-369,279
8,3,24,4666,-1366,36
-6,-14,-17,3197,-1262,1179
7,0,-11,1543,-1251,641
4,-17,-20,4621,-725,432
0,-16,-63,1124,-1441,839
13,-67,-109,6583,-2088,1456
8,-80,104,-432,-1983,832
2,-54,-118,2787,-1171,121
-6,-98,101,3291,-548,1138
6,-91,101,1963,-774,634
11,-101,88,3061,-910,873
17,-110,76,3575,-552,620
4,88,30,3301,-2312,2381
23,103,46,556,-1227,1476
37,124,60,4434,-1768,1114
33,110,36,675,-2190,1145
25,125,63,3589,-1049,67
10,83,31,4972,-1585,605
-12,33,-12,-6,-1653,1389
8,100,29,932,-667,-74
4,80,17,3860,-2131,989
5,87,14,2011,-948,243
-4,72,9,3924,-1510,597
-16,33,-15,3900,-1668,1437
-23,6,-39,1730,-1521,1379
-14,20,-21,1099,-1732,1387
-8,50,-12,2752,-1832,1289
-12,47,-8,3508,-1083,388
-27,20,-26,3391,-1388,651
-30,-2,-35,3903,-558,223
-40,-54,-63,3356,-2249,1890
-34,-33,-55,1181,-910,383
-24,-9,-43,2726,-1570,580
-32,-21,-48,3315,-1253,-45
-45,-38,-57,1704,-1631,826
-55,-38,-62,3480,-1120,213
-68,-60,-76,2290,-1701,605
-73,-47,-71,1460,-1548,822
-66,-50,-66,3387,-1554,1078
-75,-45,-70,1809,-2025,588
-95,-35,-76,3277,-2096,-304
-110,-28,-64,3028,-1253,-1322
-95,34,-36,-465,3580,-891
-64,106,1,-1356,2646,-381
90,-34,70,19797,3313,-9652
100,111,-68,21382,5786,-24969
59,-50,-48,-12900,21057,-24687
-27,29,71,21583,-26245,-26029
32,74,5,971,4634,-28754
94,-68,47,-28740,-17566,-21338
-23,-93,-105,-28886,-15000,-13835
26,-96,89,-31526,27837,7387
2,109,-124,-30200,32651,16211
-96,77,83,-30105,30191,32181
-70,46,3,-24349,-2954,14607
-114,-2,56,-21102,23609,-29209
20,-63,-111,-30105,9649,537
46,-40,19,29296,2977,-1736
10,-69,-57,-29728,-6598,-608
-39,-28,-12,4620,-5925,-3263
57,86,-6,7375,5844,-1653
24,59,-86,11282,-25478,6050
45,109,13,19952,-7258,21368
119,-70,-62,10603,-1569,19536
-128,-15,118,-7404,-9559,24897
49,75,1,11604,-14258,22901
-109,-63,-56,5094,-12595,20764
5,30,55,2485,-6099,16258
58,-9,-127,3517,1961,4098
-92,68,76,1702,-3713,248
-63,82,9,6378,-2316,-2428
2,80,47,-7890,-3508,457
11,63,-70,5146,-804,203
26,56,-60,3299,-1076,518
25,64,-102,2090,-1818,1642
15,73,-106,4918,-904,773
11,51,-103,3081,-2013,697
15,77,-89,523,-2983,1024
20,90,-75,3438,-798,-849
45,51,-74,4095,-966,110
42,26,-99,2079,-1778,-198
57,37,-116,1792,-1631,-503
67,21,-119,2945,-770,1276
55,42,124,3223,-2846,528
48,67,125,1219,-1293,-103
-4,-4,-20,4608,1544,-7320
-125,112,104,2271,4671,-12387
-96,103,-47,19701,5287,-13706
100,-87,-62,-10132,27191,-18753
47,-9,82,21414,-28261,-25343
-4,48,96,-2826,5026,-12834
-32,-111,-39,-16409,557,-5714
-97,92,-88,28692,25580,-8271
18,47,121,-30395,-9957,4705
125,-76,-105,-30108,25799,8452
13,-29,38,-30108,-5808,5699
-17,29,114,-20044,29191,7710
-81,49,122,-22541,28795,578
28,121,-121,-30108,-12795,3508
8,-71,28,-7621,21258,-14073
30,-47,90,-5621,18097,5778
8,89,-92,31781,-9883,4653
-102,-16,98,26458,-7440,11492
1,85,-32,117,2047,3824
-27,49,121,8770,-15029,19863
63,-84,-35,22411,-10588,28153
103,71,3,10421,-19362,18915
13,118,-91,9559,-6207,16212
-31,-64,-33,5924,-7523,10477
-77,-57,-2,-3696,4230,383
-11,72,101,4204,1709,-2834
52,39,54,1480,-748,-1537
109,-6,-67,-2998,599,-340
115,-26,-111,632,2170,68
104,-27,95,1831,-1086,394
93,-52,86,3203,779,1055
80,-41,107,133,19,1399
56,-69,80,3416,807,792
47,-61,82,-977,-1440,2158
30,-65,22,190,-1886,1776
2,-85,-5,3806,-1332,1600
-17,-65,-17,-1131,-3419,1747
-41,-65,-89,3861,-216,959
-42,-68,-57,2501,-2287,1660
-58,-59,-75,2365,-1324,627
83,119,3,3955,689,-14355
120,-63,-82,10502,-1378,-18232
-50,50,7,23636,22220,-18001
12,-23,-47,24963,-10229,-7506
-18,86,80,-989,1168,-28367
-119,-127,76,-9573,18957,-22745
-114,29,24,-30658,-16182,-9685
118,74,76,-32183,-15472,866
-9,-69,10,-30531,32545,10685
-87,-120,0,-30108,-25656,25460
-87,-11,17,-32008,21603,-24881
101,95,41,-22549,29445,30897
-17,-83,36,-28776,-12927,30556
-123,74,67,23755,-29116,-14273
-127,-93,54,24280,13878,8644
-53,68,-16,19993,-16186,-8088
-110,-7,72,17036,-4174,2955
118,78,51,-6015,-1486,10015
60,75,-1,5427,-14400,16093
57,38,-32,7787,-7429,21613
31,-53,55,-1321,-5289,22470
101,-40,111,7591,-12921,28763
44,-48,-108,1923,-11467,26757
95,126,-47,1318,-9259,22667
-11,66,-93,1347,-2735,11105
-77,-96,126,3300,-8306,375
-73,41,24,3685,-3097,-724
8,11,1,-2630,-1985,-3497
-32,-44,-45,8687,-751,-2562
-67,-85,38,4090,-3082,200
-72,-57,47,-77,-884,-981
-114,-74,21,4800,-436,1034
-103,-59,1,4014,-1373,1124
-123,-55,-21,2966,-174,758
-125,-81,-29,4879,-268,1377
-106,-81,-66,1094,-361,738
-116,-85,-71,3612,-2218,711
-106,-74,-69,1143,-1083,-36
-110,-67,-58,3033,-923,183
-123,-87,-94,4664,-672,878
-104,-44,29,6240,-2328,-7336
13,-56,74,8601,-4746,-12305
-10,-31,-110,12594,3784,-25160
-21,-94,107,-2238,16516,-18570
39,-42,107,3244,24403,-18055
-36,84,22,-20974,28023,-26787
76,28,-11,-9544,-4645,-13310
45,-94,4,-21202,3153,-1891
98,36,37,-29658,29621,-5999
-121,91,119,-32323,-12418,14462
-58,-95,-42,-30107,27970,12218
-31,-106,86,-16026,9769,15835
-121,-106,-120,-12839,21711,-11441
-98,-82,122,-26505,5203,-6086
82,-51,-41,29737,-6960,-5016
94,-92,-15,-31775,-7621,-7899
-63,10,-79,17353,13099,-547
117,-68,48,5304,4886,2026
-123,87,-51,11127,-3246,9502
-76,-51,-55,3694,3547,9777
-78,69,-29,19386,-2963,19142
69,127,-116,7698,2566,23272
-113,67,55,9381,-2543,22167
-61,-70,113,20924,-16192,24788
41,125,77,-8172,-2695,13612
94,-112,18,-5568,-10725,10652
-18,-74,-93,10747,-1021,-486
34,-115,-115,-5690,377,-3704
68,86,43,6597,-4278,2091
-103,-92,82,-736,-1196,748
-100,70,41,4236,-970,62
-113,88,24,3775,-1375,3264
-123,-89,23,914,-1199,948
125,-113,-9,5550,-51,1261
115,-73,-49,2967,-2824,2889
-118,-25,-20,-872,-597,526
118,-75,-70,6863,-1368,893
125,-44,-80,1248,-1989,1789
-118,-20,-65,1826,126,-1292
115,-102,-116,6002,-1381,1365
-78,93,-47,10892,382,-5503
-79,-124,45,-2743,-1528,-15987
60,59,38,-519,848,-24040
49,17,12,-12934,18042,32314
-14,-90,-5,-14550,25222,31741
121,-10,65,26663,-28845,-9252
31,113,-54,-23354,5985,-8549
-34,-104,-57,-32362,-7387,3769
75,103,51,-30110,14396,-2375
93,19,69,-30110,31407,5861
-57,66,96,23313,-14449,-26662
125,-39,110,-15150,-7922,-25054
24,63,-3,-30110,18151,-11157
68,-121,21,-30110,29983,-7824
56,37,25,30249,511,1005
-116,25,-105,518,4665,-3758
-94,125,77,-19525,-1818,6817
61,94,-112,-1141,-642,856
-125,-4,-85,-11054,3188,7448
0,-114,-69,23833,-13453,-27922
-91,-93,-46,32670,-28878,-28896
82,-101,127,3637,1640,24455
93,-128,-36,5148,-12035,9356
-86,-13,-106,5257,-1060,1451
-21,-112,17,6600,11034,-3015
22,22,2,-6558,-1951,887
127,-98,127,2963,-1393,-471
-76,119,-110,6297,1,1302
-96,-121,90,1097,-4612,1756
-103,-85,-112,2316,-1781,539
-122,-106,-125,4200,-1914,1799
-122,-72,-110,3268,-1060,1044
-125,-88,111,5696,-330,1206
122,-86,97,4169,-2860,1826
120,-47,-109,2012,-3701,1220
124,-49,-89,4658,-2030,448
127,-47,-73,2721,-2596,1187
125,-39,-85,-339,-3069,1034
-115,-41,-86,1323,-302,327
-117,-67,-116,4716,-2789,1834
-38,-75,-97,-192,-5425,-5187
-128,98,110,8220,-2882,-13344
-4,27,-60,-4051,2025,-24811
38,-36,-59,-12345,7297,27292
58,-57,-78,-4148,2375,-32140
121,56,-110,-11402,-5556,-17470
-84,127,-4,-20443,-19698,-4874
-4,-69,-108,-9913,8956,4394
49,-55,119,26473,-6084,183
-102,-87,94,-30110,21010,11571
-122,-30,-67,-11498,-25847,-22428
39,47,-35,-3547,-4122,-6490
-81,72,75,-30110,8973,-17223
-98,-61,33,-30110,-9870,-7792
-51,-103,65,29233,22507,-10885
22,103,83,26255,-12310,1397
-109,110,56,21714,-9336,9368
-50,125,-60,-1590,-9879,8174
-38,90,99,11146,-13751,20109
-104,-83,-87,-248,-4242,26573
-79,30,88,9246,-21526,26816
25,59,-2,1560,14239,20370
-63,-95,-110,-5596,-11732,16318
43,6,-71,15357,-10138,2614
47,-4,126,-6685,1069,-2771
72,113,26,1485,-3151,-1202
-125,-29,23,4355,-2381,1327
-78,-4,6,831,-1066,-2285
-31,-92,-37,5034,-2094,1963
-59,-109,-65,6759,-3963,134
-39,-59,22,-3459,-1593,1544
-57,-65,-2,8089,-157,-472
-56,117,-41,3538,221,1161
-39,-83,-55,-1780,-1909,346
-27,-91,-80,5532,844,351
-8,-105,-103,3094,-2354,1637
-20,-83,-113,3314,-147,-73
2,-103,119,1459,-1338,814
18,-76,104,1750,-1138,-140
26,-81,98,1902,-2468,547
114,76,-85,11321,-4330,-17528
96,-121,-76,16172,20175,-25128
31,64,94,-11850,23784,-28508
53,-29,46,22081,-28427,-25526
-127,121,112,2265,-1980,-22118
46,32,46,-18255,-8267,-7898
-87,125,-95,27873,-6088,14292
6,16,14,-22633,-31460,11601
93,109,54,-14542,-27478,27430
115,64,-69,-23416,10726,12502
61,-70,-75,-17148,21785,-29283
115,112,89,-24926,7094,-19112
-25,-25,69,-30113,-21098,-659
76,75,56,1697,-13379,1667
-122,28,83,-5790,5178,-2919
73,25,12,25088,-14531,17414
106,-17,72,8061,-17554,10484
-60,-15,-124,1939,1457,28329
2,77,89,6471,-30238,23842
-7,-104,50,18944,-4153,20442
83,110,-8,445,-7001,13484
81,19,-71,4856,-12528,4131
-113,-99,121,5194,3837,-1218
-60,71,17,-1750,-229,869
-53,-34,42,9249,1620,-2676
-47,-9,102,1700,1108,297
-54,-33,56,3133,20,-128
-70,-41,13,3054,-206,879
-82,-36,17,5111,-1624,340
-93,5,25,4130,-942,-70
-109,-14,10,3948,-2191,865
-104,9,22,3150,-2952,3
-94,8,43,1991,-402,49
-114,-9,17,3624,-2356,1479
-104,19,31,1371,466,-737
123,-22,-6,5209,-1825,1350
-127,17,7,869,-1004,242
117,-22,-26,3905,-1960,933
127,-1,-3,1851,-1225,572
119,-15,-16,3372,-2086,1214
27,68,-120,10585,66,-9887
81,120,-35,13312,-1715,-13296
-45,76,-35,10208,-10203,25732
-11,-16,-94,20676,-14792,32468
-62,-65,-124,7912,-12818,-32140
-91,-19,55,-23086,28243,-8321
-100,124,-78,-27447,-20394,4777
-78,15,-37,32620,-12504,6960
-48,124,92,-28357,20301,26878
-17,127,1,-6816,31194,24428
-26,107,3,12173,-21735,15644
4,33,-53,32762,22631,21723
61,-63,-114,-23885,-14068,-12920
18,-70,44,-3097,-32259,-22302
26,65,50,1796,-7765,-126
-103,102,-26,12350,-12282,-583
-128,28,-11,19590,-5993,10555
95,-87,109,13441,-8792,5801
-42,73,1,-739,-7531,22065
-101,-39,51,23219,-11314,31838
65,20,11,-28946,-18164,24038
28,-79,-70,-1242,-4041,26680
-93,-62,75,-19070,4448,135
-45,-69,73,-4101,264,-600
-40,108,11,18344,-4612,3240
56,-72,98,-6562,6845,-4011
-118,-15,45,4032,-141,-802
-75,100,55,4374,342,2961
-61,-84,75,-1108,-1952,815
-91,-65,37,5194,-3511,888
-124,-80,44,819,-1939,145
117,-27,38,1578,-1655,880
108,-60,31,3140,-303,1676
114,-53,29,2008,-281,828
115,-69,21,3092,-296,1147
122,-42,22,1967,-1159,436
112,-50,10,2030,-1647,403
100,-23,0,-1535,-1435,465
96,39,-3,-1922,-2595,1560
58,35,-20,4379,-2662,1181
-16,-97,-9,-179,-2770,-9825
58,-13,73,7646,-13216,-13281
-53,-36,74,26205,1024,-18495
-14,-35,13,-359,17972,-29876
-47,-38,-42,-11747,-29710,30539
-88,5,-120,23256,-32229,-18354
-86,-98,89,-17124,22805,-2002
-18,-108,102,32765,-15530,16745
-51,-11,-121,-22747,21885,13223
-97,92,37,-32754,-32052,16891
-32,-127,-125,-30113,29969,-7815
71,-85,-107,-27798,-22921,1212
17,-74,-94,-28849,-29374,-20226
-41,5,-38,-27151,-6938,-7735
-10,-11,-72,-30113,-12777,-9052
122,-27,12,-7264,2858,-5576
118,-39,-31,7049,12999,-5934
-62,53,0,9469,-434,6877
-84,-87,70,6982,-7089,10808
60,24,126,-2403,3929,10756
-122,-72,13,17252,-5259,19467
58,79,-102,14160,-8859,17662
50,85,71,8155,-6719,20593
-71,-41,29,12242,-14139,11810
85,94,42,-1382,-5640,7623
-69,-99,-70,2838,-2325,6738
7,42,-126,7060,-2017,5419
89,-8,67,-638,3840,-1297
-119,-88,20,1405,-2950,3631
-98,-40,41,588,67,2708
-52,-40,16,3931,250,796
-30,-49,2,786,-1003,2445
-31,-57,-19,5265,-907,700
-14,-70,-19,569,-1059,860
-13,-19,-2,2690,320,177
-1,-77,-5,3909,-1354,1564
1,-94,-7,2016,-887,-133
11,-106,-6,4729,-173,757
2,109,-30,540,-3123,3574
-12,-125,-34,4051,-1297,917
82,-112,60,6031,611,-9574
97,-118,101,11643,2264,-13991
-95,91,11,25725,-1852,-22833
66,96,-16,2727,20445,-31726
-12,122,-44,16069,-25130,-23186
-110,-67,-55,-5732,5808,-21658
-108,-34,-79,-21768,1354,-8905
-51,28,-33,-26452,-12970,4390
-100,14,-113,-20013,-16870,1805
-103,41,-120,-26812,-29798,10069
42,-30,86,-30680,-30851,-7584
-99,-77,108,-5101,27713,27970
-32,11,-14,-5905,25453,-14141
-98,57,-125,-30113,322,-9905
117,102,-79,-30113,-21872,-3424
51,-76,30,32542,28741,-12733
-30,-81,42,2099,8727,4629
-99,-73,58,16053,-7445,6450
97,51,85,4538,-2774,4970
-128,98,52,16616,-652,17866
-63,82,-70,16065,-20514,21692
101,48,-27,7016,-7520,27324
-52,-36,-122,22649,-14238,19532
108,-50,16,-6909,-8961,17776
2,20,-41,9011,-7120,13328
61,58,-117,-8398,-2312,4955
-123,-17,50,10644,851,2031
-30,-20,-12,-6788,-1693,1993
29,-41,-64,8338,1945,-3396
28,16,104,7946,-1976,2677
29,105,97,-3337,-325,-1307
47,74,63,4297,-1009,964
29,47,55,5841,-2275,178
19,15,48,66,-1222,1057
52,97,84,1905,-414,-666
60,21,53,5621,509,338
78,17,18,-337,-1890,993
89,63,21,2184,495,-660
117,13,-8,5296,-1843,553
114,20,-2,407,-1340,-12
