AccX,AccY,AccZ,GyroX,GyroY,GyroZ
-12,52,85,3672,3102,-4910
-5,-6,-53,5831,2120,-5454
31,112,-85,4123,-342,-6867
-17,8,94,2137,1727,-7573
-99,39,70,2426,-896,-8902
-31,84,-90,1946,1741,-8948
-90,-54,66,-1659,479,-3265
105,59,-72,2097,-1218,-2404
-66,-57,3,549,-3143,-629
58,56,-23,-5370,-886,4022
-9,-2,-77,-2159,-6348,2214
102,-83,51,-7762,-5521,1799
122,-99,7,-2761,-8862,1505
-72,47,100,3194,-8851,2491
-37,-112,-101,868,1271,-1204
88,34,-23,3143,894,-1995
-38,-91,-127,-1011,1645,-473
27,20,-124,2968,-606,478
-119,2,-16,2380,4602,1739
35,57,-49,4517,-3112,731
32,119,0,5223,3228,3428
54,125,-95,1432,2214,2887
111,-16,56,-1590,1739,2629
10,103,81,-115,-646,7163
-79,94,-97,-2565,-1947,5662
70,-128,23,-7721,-1667,8254
-79,-73,120,986,-4560,1956
20,-19,81,10295,-3755,-338
1,45,-28,-5582,5637,-2625
52,36,-35,-3069,1895,-2853
-1,-104,60,-1479,1710,-2089
1,-82,96,-944,-1118,130
-26,-39,91,12,546,613
1,75,103,168,-37,438
64,93,107,-606,133,162
93,107,-113,5,-379,137
82,106,-8,-411,782,-520
64,61,-54,-413,176,-230
67,40,103,205,-348,146
83,74,-124,143,-137,142
-7,48,-27,4777,4134,-3052
124,-98,-112,9999,919,-4941
14,93,-1,6301,2574,-9106
65,75,74,2998,3777,-9764
-100,47,-95,1088,4436,-11836
19,-31,-120,6046,2064,-6788
-23,71,-3,3100,85,-4724
30,9,-54,-340,-1103,-399
2,-84,2,-1652,-5860,2303
114,115,-112,-2047,-11234,4691
-125,82,15,-6997,-2194,5703
125,17,82,588,-5982,506
73,99,-51,-2775,-2708,1542
81,102,99,2158,129,-3742
-113,-35,97,5811,836,-4029
16,44,53,2086,-2254,-262
32,11,4,2241,-3336,1614
80,-12,-1,4284,-869,3068
-9,16,81,6398,-39,4896
-111,-40,-117,4062,475,7203
-1,22,25,1895,2478,5426
5,-55,23,236,-801,7864
68,104,103,4164,-202,4988
-91,60,-95,4606,-1558,4322
-106,-113,85,-816,-1019,2199
14,-48,-55,-3506,1953,-5516
-75,-48,-31,-2474,323,-1153
117,105,-122,-490,259,-234
-117,-100,110,-73,623,-127
-56,-22,-127,-1018,373,-19
-13,23,-112,-2010,184,-513
0,57,-81,-2898,386,-1047
12,28,-86,-2698,916,-1024
4,-10,-110,-816,513,-133
-6,-1,-125,354,120,180
10,45,122,1133,-462,418
32,83,-121,539,-452,394
59,106,-112,-77,-102,294
67,116,-124,-326,220,3
73,111,116,-282,98,-155
-34,58,-76,8630,1013,-2872
-113,100,-88,6220,1469,-5177
-111,115,-66,5665,-1384,-8667
-93,74,-27,1918,292,-10866
111,-14,4,1680,2811,-11577
78,-84,-45,2463,2037,-7099
84,-53,-120,2104,2083,-4786
51,31,107,659,-1139,1063
-73,-104,62,-2910,-4823,3362
-18,106,23,-4804,-6475,4816
-99,-84,-82,-1833,-9258,5335
-2,-107,-64,-7829,-5553,1398
52,80,-69,896,-5346,2039
-119,-20,66,656,4196,-2400
102,-18,44,3261,1656,-1582
108,66,44,4864,-3206,1432
28,-83,81,3155,-4575,3386
78,-19,-88,1170,-2623,3364
77,12,108,3688,-3045,6271
30,-121,-40,1599,-870,4883
-117,-54,32,1445,-902,5348
-84,-127,-56,496,-1287,4133
-18,24,-103,1509,-2718,2534
47,3,7,-898,1489,2591
1,-1,4,4914,1317,-1035
32,-62,-99,1538,-786,-2063
-85,-53,-47,-2481,807,-1116
-94,-106,106,-844,712,-261
-56,-102,98,292,450,19
-35,-78,64,-805,671,124
-4,22,112,-2643,-55,-404
49,60,-69,-2527,793,-581
34,30,-46,-981,821,-520
24,-11,74,345,240,-152
35,7,90,648,-248,65
55,37,99,-21,-1,53
68,48,95,-232,42,-20
71,46,100,-151,-153,20
77,50,113,-87,-112,97
84,61,116,2,-38,30
82,-98,104,6001,1393,-3226
105,1,41,5829,1575,-5984
-61,103,1,2194,973,-8909
106,-48,-93,2411,-32,-8921
30,91,-76,2233,346,-9981
-107,5,-82,1611,1716,-8338
14,125,-87,544,451,-4365
60,116,107,1256,-1139,-1005
41,-127,-104,-2284,-1890,1562
-15,-127,2,-2568,-5183,5010
-14,-78,-69,-2611,-6626,4437
-71,41,-98,-8055,-7002,3599
71,20,90,-2626,-4486,-1036
-3,-22,1,-852,-5505,74
33,-82,122,1865,1320,-2307
-22,11,-115,4328,1760,-3109
21,-5,3,6970,-2223,590
-109,-120,-44,2500,-1814,2251
-127,92,-33,3000,-854,3413
86,57,-70,5137,-853,5045
64,-96,-24,1196,1195,5365
100,115,-98,710,1820,5170
78,92,-115,1257,168,4342
-112,-116,-17,1021,-531,4525
95,83,-49,-3706,800,1033
127,-29,-39,137,56,2761
-81,59,14,2811,-3876,3293
-126,15,93,2607,-2442,1584
54,33,-59,-4358,4128,-4280
-22,-125,72,-269,371,-2065
-51,65,84,660,304,-467
-100,91,81,686,-297,-68
-51,-126,98,-58,-282,382
-5,-36,-88,-1408,-296,72
0,-34,-98,-711,-373,274
4,-5,-33,116,648,-380
16,-38,-109,309,64,-15
15,-31,99,-275,119,-17
37,-14,97,-414,170,-12
40,-5,88,-293,200,-206
-85,115,96,5639,1321,-4914
-46,113,99,5130,-1048,-8662
-100,101,49,1086,829,-11592
119,60,7,2273,-1198,-11365
-111,-32,72,949,2986,-8843
-122,-3,18,2312,1935,-5039
-86,-100,-124,291,1500,-1291
5,24,-13,-1515,-1949,2116
-109,-18,-55,-2803,-4402,3894
-122,-103,113,-3667,-4753,4059
-24,4,38,-7501,-5289,1767
3,-77,44,-5221,-10793,2308
21,-34,16,-900,-2616,1250
102,99,-78,2312,2194,-2706
13,-78,-42,4424,5058,-2908
34,-94,71,1096,-918,365
76,61,95,3125,-2826,1911
64,82,121,2782,-3436,3772
72,35,39,3712,-2638,3530
-101,16,54,4582,-2611,6028
31,46,-82,-407,717,6182
4,94,111,-611,612,5847
90,82,-39,-468,-1813,3949
5,122,-58,4209,-1920,5299
-58,40,-38,953,-1668,3265
20,-19,53,6668,-2376,-763
68,-113,23,706,59,-2917
-66,-33,-60,-1615,-66,-1172
-71,-121,-83,-2571,1218,-1256
-79,105,76,92,987,-238
-77,-125,69,-29,1060,-216
-56,-70,85,-1139,-483,12
-19,9,-99,-2675,-482,-160
15,30,-74,-1542,-235,-9
27,52,30,-394,1248,-568
26,-12,102,363,284,-143
47,-15,101,707,23,59
34,16,88,145,-27,21
32,14,80,-76,38,121
45,21,81,-158,-5,173
39,52,-3,-1492,-934,-9633
-79,68,-57,11,2320,-10796
-45,67,67,1664,1810,-9006
102,74,102,951,1372,-4231
32,102,-73,422,-350,-1077
3,111,62,-2621,-3217,2747
-16,121,-9,-3354,-5131,4370
7,-111,-119,-3243,-5780,3399
-91,87,-55,-9250,-5992,2201
-68,66,83,-711,-9567,-2213
-88,5,1,1996,-3656,2040
87,-48,13,1280,6257,-5823
42,-107,-50,5369,-2467,-775
-53,107,-80,3724,-5464,2242
122,-46,0,970,-3587,2091
99,-63,-57,3211,-1886,1643
-1,78,-60,4227,-2214,4685
-127,-5,-88,4882,-1404,5711
115,50,-122,2594,1618,5266
18,53,-118,2094,1037,4902
23,-40,21,4756,-612,4157
57,-72,-37,-3927,-5100,1206
-49,87,91,3156,3827,-2240
5,68,-48,792,397,-2687
-80,107,41,-3066,2098,-1722
-42,105,64,-1895,712,-596
-32,-118,82,264,-1066,589
-24,-34,126,-1324,341,10
7,-3,-113,-1235,-398,-43
9,31,-84,-1544,-442,-199
15,34,-46,-446,-38,-218
36,21,29,78,654,-102
29,0,121,709,130,84
44,31,107,312,56,6
61,39,104,-580,318,-90
74,38,93,-697,364,-52
77,35,79,0,-107,53
82,50,94,-59,-193,-23
90,61,120,-437,-18,-209
90,45,-126,-307,-52,-90
-8,121,91,3903,1948,-4901
-86,-24,118,3891,832,-6679
-47,104,92,1706,1357,-10130
-83,-105,-10,1249,877,-11589
-28,17,-38,953,2161,-10181
97,75,-77,2032,2401,-7010
-73,-62,92,1400,2304,-3044
-53,-59,110,215,1073,189
32,-105,105,-3969,-2027,3689
0,-109,-2,-4659,-11144,4337
67,69,-33,-4683,-8569,5118
76,-29,-114,-8565,-5733,685
-22,-116,-55,-905,-4068,-2327
-69,-69,-62,1850,2130,-566
122,68,-66,1145,5567,-3294
-50,10,-123,5946,-1918,-460
11,79,-18,3330,-5115,784
48,78,118,1416,-2813,2577
-55,-5,111,4440,-3857,4686
-19,121,7,1561,-1157,5683
104,-128,-16,2450,-1332,4821
-121,-10,-85,5485,-2461,6115
-47,-108,-65,5373,-149,6848
-102,-59,27,3887,258,5291
-104,-110,114,-3171,687,3467
-92,-124,12,-2717,-1380,1162
24,72,-38,49,-555,-2303
-19,-66,-22,-752,1861,-3191
-66,-112,-120,2460,631,-1781
-125,-49,-78,-1099,-302,-234
-90,47,25,-6378,1356,-551
-43,-96,-44,-864,903,824
-61,-46,-103,2306,1199,-603
3,-9,109,1823,568,-1561
40,-44,105,1262,-586,-509
13,-59,77,700,-624,-34
-12,-47,81,74,-788,10
8,-15,122,-1197,-132,-79
11,4,124,-1405,65,-15
7,30,-119,-1281,-252,-163
9,100,-84,8074,3962,-2219
-97,-1,-38,2117,3300,-3446
-28,58,103,7317,-50,-7456
-57,-92,-25,5321,243,-6861
70,-127,115,2739,1354,-9110
15,-51,-41,4269,839,-8482
13,87,95,4214,2378,-3965
-71,50,40,5132,-1176,-23
-7,21,72,1092,-3710,-756
-10,-128,-27,-2463,-5711,2663
-19,119,-33,-12223,-5905,8667
-30,-12,-21,1704,-4405,-298
-9,33,110,-1724,-7310,3275
-78,8,121,-6580,1907,-860
-19,-82,66,-543,-867,-2538
79,-54,-78,2551,-818,-2450
60,-66,52,4214,-2855,-1359
-123,61,-78,-53,-3444,1773
-2,-128,39,2305,-4465,2046
112,-40,83,2358,-2729,2271
17,-7,31,3970,-2243,3246
3,-101,25,3921,-1997,3530
17,-83,-36,3820,-1635,4667
-50,-109,-8,4635,-2070,4478
-57,-61,-7,3530,-554,3660
120,-100,64,-1480,847,1938
-65,72,15,14385,-6237,3328
-74,126,-48,-895,2080,-2035
18,32,-128,-3520,867,-1178
-85,-112,-120,-2754,1743,-2293
-112,83,-116,739,-384,-875
-99,86,-111,-198,783,-123
-66,-101,-110,-289,-269,502
-44,-52,-100,-1158,276,117
-2,-8,-95,-1465,-20,-32
-6,14,-92,-1794,-91,-375
-23,19,-32,-899,-1028,-445
-12,-41,-128,1146,920,46
-27,-52,-87,1537,-478,562
21,15,-117,312,85,232
47,48,-72,3737,-72,-7583
-49,-112,-90,227,-80,-11299
-60,40,38,1207,2105,-9859
-15,57,-84,2011,2266,-8035
55,63,16,1237,2704,-4291
-72,-117,49,-383,901,-1502
-40,6,74,-2721,-4176,1995
77,70,26,-3136,-5891,3832
-25,118,-115,-1416,-8523,3275
19,-51,11,-3186,-8657,2403
-71,116,72,-3336,-5142,329
-112,-23,-75,965,790,751
-73,67,37,974,3330,-1979
-62,-35,-19,1533,-1084,-668
-42,-17,54,-419,-1804,-94
-13,112,36,1624,-1788,882
-26,90,13,4083,-4648,2268
-50,-127,117,4853,-4188,2341
10,-125,-126,3483,-3853,3377
108,41,-1,3360,-1625,5278
-116,-78,9,549,1060,3498
126,89,-122,3954,-1343,3728
71,-111,-120,2801,408,3265
93,-2,-9,-1314,1187,1799
79,36,10,552,-569,1723
-117,64,81,3052,-6700,4213
-103,40,-74,-540,5064,-3187
-59,-17,-70,-3670,2846,-3134
-78,38,67,2018,254,-1360
-79,73,-86,1433,-94,78
-84,-83,-85,-1927,313,-296
-36,-86,-91,-1664,228,-157
0,-57,-103,-1325,504,99
-6,-11,-121,-920,159,103
-6,12,-123,-454,37,-224
9,-38,120,663,-153,-236
1,-28,-95,169,-487,46
21,-13,-82,-134,-88,368
28,27,-74,-611,102,213
28,18,-108,263,15,-8
-18,-41,-125,4954,895,-4269
-6,-117,-125,1696,2320,-6775
41,127,127,2265,2566,-8392
-126,-98,94,1761,3401,-10019
72,39,44,2352,4800,-9274
40,-99,56,2536,1198,-6025
66,34,114,1101,423,-2747
-42,-67,54,357,562,-878
48,-115,36,-1964,-2749,2382
98,79,91,-3877,-5708,2838
117,-4,80,-4781,-9892,3986
-64,24,-51,-4867,-5515,2976
67,54,-45,-426,-5508,-178
-113,-61,27,1848,257,907
80,-61,-105,2490,1562,-2913
77,-27,-98,2234,-3142,-146
117,53,20,-438,-3707,-349
-96,12,-37,1148,-377,-342
-54,53,31,5263,-1304,1168
-67,-20,-43,4230,-3206,3784
-37,108,-42,3308,-1941,5081
97,72,-23,1702,954,4810
-29,-52,-11,1706,-1216,5292
-69,115,-46,227,871,2876
1,-39,-36,2276,-252,4480
-122,-66,-112,3024,-1850,2440
-19,-2,-122,-6773,-2191,-624
-95,-97,88,4204,-1128,-2283
-59,82,28,2257,-2378,-844
71,-14,-17,-110,2089,766
51,-37,-50,616,65,-478
-99,-112,10,860,-35,202
-27,-86,-26,661,287,438
-64,-8,-63,-473,78,-10
-56,-19,-93,-1285,569,-434
-53,-57,120,-763,644,-588
-32,-124,89,896,-187,62
-47,-81,-108,502,-331,148
-20,-45,-62,231,144,85
0,-51,-110,93,-35,16
32,32,-31,447,4024,-8060
109,-23,-34,1475,4037,-9815
127,-118,36,1312,5951,-10226
-2,122,-26,2187,989,-5293
117,-64,-47,447,2806,-3375
107,85,57,-340,-334,-234
-94,125,126,-480,-2185,48
-96,-111,-28,-306,-4760,1901
-114,-90,106,-2853,-6813,2760
23,-95,-9,-4083,-9957,4194
114,-92,6,-5296,-1155,-1151
115,-29,-46,2619,-812,-408
14,108,-62,2677,4374,-1966
-98,18,64,6673,-3726,1797
19,43,-71,-373,-3469,2038
52,110,-37,-44,-2988,-113
36,-22,-92,4715,-2190,592
76,-111,36,7987,-2705,2677
74,-49,85,6526,711,4804
61,47,-76,-1030,5176,4337
-117,53,28,-1211,1866,5103
-116,84,-86,3173,-1538,5360
-27,-37,94,473,-2579,5340
92,89,105,-3600,-4523,5713
125,5,-124,-2354,7645,-5674
-16,24,88,-1027,-287,-2336
-99,-33,-15,413,1910,-1418
-122,97,-107,1988,-1708,450
121,-117,-43,-1504,521,68
-80,-100,-73,-1409,300,579
-58,-55,-45,437,-1267,1340
-10,55,43,359,920,-513
-1,5,-78,-846,241,-93
-12,-24,120,-1304,1146,-597
-29,-89,59,639,-187,-2
-27,-61,99,385,-343,101
-15,-52,122,197,-666,279
18,-18,-43,424,203,127
30,-14,-87,448,-14,56
32,-19,107,-578,117,-101
115,-115,84,894,1473,-9639
124,57,-80,-309,2235,-9364
-89,-115,-112,374,897,-6506
65,-116,59,297,2049,-3824
83,-108,28,478,-1167,-2237
-111,-96,123,-1397,-2051,-331
57,2,-97,-501,-4563,2567
3,-94,-127,285,-9699,7543
35,-18,116,-3646,-5686,5401
-124,110,-27,-8848,-1019,-718
-24,85,-9,-1354,-4869,1602
49,73,-89,2943,1506,-2360
61,17,-59,1762,1019,-2750
-61,116,-119,2461,-2186,-384
-10,-86,-110,2056,-277,255
-112,-126,32,2841,-336,722
-17,-18,-73,6727,-2661,3183
107,98,100,4128,589,3533
9,41,13,5169,-178,5833
70,119,-52,-719,388,5466
-47,-45,-117,-1803,1086,5780
-28,-105,52,-511,-1491,4934
13,30,116,-774,-922,677
-47,-55,-16,2489,-3518,2189
-107,46,-79,12299,-7642,1973
-115,12,52,-6379,6169,-4083
-27,32,-54,-1083,1090,-1143
-82,-118,-115,-276,-632,-589
-91,-124,-122,-342,-22,-195
-60,-83,-118,-288,172,473
-29,-18,-107,-1223,439,294
11,30,-127,-1738,504,112
33,40,125,-1376,266,-79
32,49,-112,-478,-355,-217
10,36,-93,146,-241,-503
14,3,-82,659,-154,-42
17,6,-80,598,17,417
39,38,-124,392,58,213
65,57,108,-307,298,-144
71,25,85,-272,211,-126
-102,80,35,1102,2607,-7794
23,85,-120,-67,7957,-11388
-107,-21,-64,2353,9363,-11853
77,-121,86,2504,4994,-6799
-70,-63,-93,1561,4808,-5868
-56,-102,-24,1872,1143,-2592
-24,89,75,-5426,-2545,689
29,2,-111,-916,-21079,3686
-64,97,-29,-7165,-7326,6437
-30,97,109,-633,-764,-3761
-9,-103,92,1662,-4068,3925
-13,36,-116,3502,1619,-4184
-64,89,34,1051,69,-3630
-107,-86,-92,1627,-3158,-99
-64,96,96,4653,-3665,1892
48,-116,-56,4413,-3163,1375
-104,110,29,5133,-1552,3457
57,123,66,4670,-961,3919
-79,24,21,1445,-126,5438
106,-107,-120,-858,-462,3562
47,96,-89,7200,-912,6290
69,-94,-123,-762,-46,2251
61,12,-95,3411,-5494,5284
11,111,20,2842,654,-3790
-65,-113,-50,-5048,4010,-3887
-22,-63,30,70,1803,-615
-114,59,110,3054,-1956,1122
-107,97,-75,-1218,1636,-833
-37,111,-74,-1290,171,-17
-40,-99,-62,-1119,-673,257
-35,-68,-67,-2130,545,-236
-22,-64,-52,-376,-623,-6
-25,-62,-63,225,494,-69
-4,-53,-86,380,262,-56
8,-58,-118,102,253,-18
12,-43,119,-182,-29,-61
20,-51,114,-224,207,-12
31,-48,108,-115,22,88
42,-40,103,56,-105,126
47,-26,115,-79,-160,-12
-20,106,-112,4710,657,-5996
24,52,-112,1560,1605,-8769
109,9,82,1212,776,-9713
106,-106,15,900,1636,-9884
46,-13,-90,-3095,4550,-5912
120,4,96,4310,2173,-2982
-50,111,34,44,-118,-1131
23,-78,7,-3216,-3486,756
-82,27,37,-1753,-7820,4494
4,-100,-50,-2923,-11201,7092
-67,-68,72,-4029,-6692,5992
-27,-109,-44,-6645,-2375,399
114,-38,-87,800,2840,-295
-104,85,55,2839,131,-3946
-11,-67,-128,3627,-1610,-2054
-78,125,109,-623,3833,-2924
25,114,78,3223,1465,-378
-95,97,94,4113,-579,1500
-24,-8,-43,3749,926,3302
41,-12,48,2459,-1866,4497
80,-99,-128,3048,-1327,6046
-42,-102,-103,106,1427,7740
-99,14,-95,334,-3375,6937
-82,-96,-5,-430,371,1976
-103,5,-53,2809,-2253,6624
-121,-83,-69,-1597,-2098,3416
-21,-56,125,-2685,1361,-484
100,56,78,5189,692,-1352
-114,-128,51,4130,-1419,1311
-27,-100,57,-3271,991,-1808
-101,-115,-96,-1713,664,-1227
123,108,-103,259,236,-138
-123,121,119,539,488,190
-59,-80,124,-360,55,322
-32,-47,-120,-1043,-115,176
-26,-31,-91,-188,-532,125
-39,-31,-53,923,159,-286
-15,-63,-71,620,93,147
-12,-56,105,295,-37,195
-14,-35,96,-147,-69,-12
127,127,-76,-2822,2295,-7098
70,-128,-11,220,1658,-8623
-18,96,-47,-566,2692,-8353
-100,32,-37,373,3024,-8866
56,103,127,2961,2314,-3522
22,95,-97,631,324,-846
-113,-44,-18,-314,-3258,3735
46,-47,51,-193,-4640,1977
75,13,106,-5788,-6503,4019
-7,30,40,-9177,-7724,3825
-31,-101,-7,263,-7818,1712
117,25,38,-896,4112,644
-23,93,10,5787,847,-2148
-32,14,-116,4282,-2186,-1572
-109,-70,76,1409,-1789,-1019
-38,81,-13,3694,-2886,1301
10,-33,-118,5687,-3234,1873
-89,44,-88,3036,-3011,1726
29,78,-109,4251,-2269,4195
95,67,85,3390,-297,3493
-8,116,66,1707,979,3770
61,52,-49,1616,-676,4649
90,-108,-52,1631,1866,3672
-112,-72,33,4612,3198,5679
-68,-33,121,-27,-6617,4643
82,-41,43,-4285,8213,-6090
113,97,121,-1297,-131,-506
-22,51,65,508,-691,103
-9,83,127,1588,-314,440
-126,-88,26,-1879,815,-298
-31,-104,44,-214,201,-147
-47,-81,-10,-313,1004,-153
0,-119,-124,-9,689,-648
101,81,95,1238,-772,312
-121,120,123,1949,-821,669
-118,-42,-81,1660,-203,39
-29,-14,-6,37,433,64
-10,-39,-66,-872,446,-187
-25,-82,-121,-1198,132,-359
-18,-93,-127,-1038,418,-421
-116,86,16,3150,1788,-6850
-62,-110,33,3360,1036,-8373
-33,105,29,634,2109,-9803
15,10,-34,1392,3628,-11293
14,-24,94,1858,-1410,-9243
34,58,-40,-528,586,-3215
32,48,-124,-13,1434,-944
-122,96,-69,1506,-1404,599
-7,-81,-21,-353,-1799,1543
77,40,49,-8606,-4368,2620
10,-51,-14,-5990,-16258,5790
-43,-86,51,-7586,-7428,3346
-59,74,-16,88,2781,-1
-76,31,48,5506,973,-2858
-30,33,30,-1057,1471,-4283
41,35,-84,9675,-4529,-1786
25,-95,1,-751,-2070,3902
-98,-43,-76,216,-1862,298
-57,-125,-68,8151,-5038,811
-93,29,-17,11420,-4565,4664
-51,67,-17,4163,-47,5372
67,-14,-106,-4070,2866,4396
40,-53,63,-571,-85,3817
-49,-78,89,4280,-1267,4230
43,113,-121,3335,2127,2303
-41,-82,-69,-1770,-784,-614
-78,50,-77,11201,-7147,4071
97,8,-73,-3559,4373,-3687
-29,-106,57,-3746,3275,-1123
-56,-113,114,-1464,1591,-1487
-81,102,107,1221,-1100,-14
-84,112,117,400,244,-211
-57,-106,-102,534,-782,252
-43,-59,-84,-1145,330,73
-30,-32,-94,-1354,72,-8
1,-22,-104,-1309,274,-183
-5,-11,-84,-740,-416,-343
-45,-37,-72,649,-911,-106
-30,-36,-55,894,-214,305
-4,-4,-74,410,365,302
103,-33,2,2117,3530,-7143
47,-98,-23,3199,3134,-8797
-15,-122,32,-4011,7939,-13052
-17,89,46,2796,6155,-6686
108,96,-97,4167,759,-3688
44,-48,38,-315,1164,-1045
-38,44,71,2509,286,-940
81,-28,-53,-285,-4541,141
-105,-93,44,433,-6720,3236
27,6,-83,-4866,-8298,5056
70,-20,-16,-7981,-7785,5114
-91,-66,99,-3089,-7568,-2065
-38,35,95,-857,1189,2479
56,104,-38,3554,2776,-3511
80,55,125,7204,130,-4251
-3,90,88,2300,-4179,2186
100,-29,-48,1514,-4379,2538
23,-100,125,4138,-2530,1745
-48,-16,22,4233,-2583,2250
-97,-13,2,3922,-4624,5268
110,-90,-91,-357,-831,4511
-45,15,-46,1492,-2240,4115
-116,-121,56,3957,880,4725
49,17,-122,-6262,-358,-2352
44,-71,-8,3924,1418,-205
-55,-49,94,-3529,1519,-3053
42,-93,-122,-1341,4267,-333
-25,-103,-96,5449,-4037,1811
78,-104,-30,1552,441,42
-51,11,54,182,1630,-210
-65,-31,-32,1459,-885,503
-45,-44,-64,-1962,1301,451
-22,16,-97,-2374,876,194
-48,11,125,-1008,609,-231
-40,-5,106,-735,897,-589
-34,-17,111,-342,204,-211
-30,-19,104,138,-112,-67
-8,-2,-125,-301,4,-140
13,2,-115,-521,148,-68
21,7,-113,-183,0,-42
-7,-88,108,2188,2903,-6624
-85,89,28,-1334,5466,-9012
-53,-27,105,2883,5344,-10681
10,35,-53,2440,4762,-8639
106,-126,-78,2147,2850,-5138
104,-107,81,-3893,10163,-687
-10,-101,74,4671,-2789,258
35,-58,-54,-1330,-4128,1027
72,-68,2,-4054,-15161,7034
-21,34,90,-4714,-10495,9164
-120,-115,117,-7290,-1159,-853
113,6,-18,-1951,-2235,4359
75,101,-86,-2325,2767,-2685
-87,-40,-86,7809,-3864,-3744
0,87,75,-35,-1087,-2949
47,117,87,1935,-3011,-1244
-90,40,30,2335,-2133,325
2,-30,-67,4927,-3241,1743
16,32,70,4742,-2237,2778
-126,-88,63,4571,-3384,5072
14,-35,73,2966,-4297,5172
10,-6,-32,1935,49,2728
-94,39,84,1984,1342,1365
15,46,104,6396,364,2134
124,-64,-117,979,19,506
79,5,114,6872,-3933,-710
1,0,11,-3981,3262,-2701
-82,-11,77,-1016,747,342
-117,-76,-48,-1703,458,-773
-96,117,-119,-932,1043,-635
-80,-108,-112,-1193,431,-552
-58,-99,-104,-918,-107,-268
-52,-71,-77,-1240,-209,-312
-47,-59,-48,-708,-541,-35
-50,-55,-14,561,-265,283
-27,-46,-10,1203,108,348
21,-27,-120,707,703,159
8,-20,106,-264,334,-215
16,-42,97,-413,-99,-31
9,-35,114,-115,-369,95
67,-35,54,5043,520,-5265
-116,-43,105,2036,2473,-7948
64,-45,47,-1770,3011,-11399
40,30,-42,-1394,5978,-11693
-119,-92,127,1172,6048,-9819
64,-46,-32,3282,5077,-3694
-47,-94,-32,4071,740,-1548
92,-16,19,-466,-2642,1950
-5,-1,117,-1850,-8968,3744
125,-61,57,-1870,-15334,7571
22,-104,13,-8229,-7707,7727
87,73,42,-6577,4506,-1135
-115,32,115,3692,-257,227
-35,13,-88,5685,2158,-3459
-6,73,-36,6348,-3717,-1458
68,-6,-125,2340,-4097,48
-12,-40,-5,695,-2481,333
-17,-81,28,2139,-1863,1229
-19,50,-127,6220,-2141,2669
3,11,-125,4551,-2730,3998
-76,110,-86,2612,-314,4556
-103,-76,-128,2375,1030,3604
-100,10,-91,4899,364,4491
-123,62,107,3306,4547,5404
-111,-119,105,-5042,-384,1160
-112,-84,-88,-1578,-4440,3065
-39,98,64,-2521,6246,-4160
-23,-42,82,-3384,1053,-2535
-5,40,-15,-397,2339,-1182
-64,72,39,3062,-1336,523
-74,115,67,669,383,-242
-33,-89,80,-1493,86,71
-67,-27,-113,-2574,-1345,-152
-14,-40,38,1873,-964,828
26,14,-110,631,1310,-155
57,-8,112,-1113,1107,4
46,9,55,-1459,640,-317
18,-12,41,-277,-115,-278
34,-8,72,-139,-253,124
56,34,116,-459,-62,-123
39,-80,7,4421,783,-5749
88,-107,47,1239,3504,-8024
-28,112,15,4894,1967,-7904
106,-42,-102,2727,1867,-9038
-70,17,-119,-406,1848,-10350
117,34,33,1263,2537,-8929
-106,124,-99,1175,2955,-4083
3,123,113,4021,1288,337
86,-102,29,393,1816,-1105
80,-63,96,1888,-2556,2481
-89,-36,-39,-1879,-3129,768
-102,-120,-108,-4121,-2907,2966
118,-59,-12,-3801,-8203,7765
-27,-127,-75,-10838,-14336,10174
124,-23,-18,-1939,-4064,1223
95,66,-98,2924,1123,-863
-121,-14,56,-24,-1289,-3914
-86,-114,95,-1561,-1839,-3600
117,-13,-83,4196,-205,-912
-44,-25,84,4133,4401,-903
-2,-83,-128,7076,1324,3288
-34,71,-72,3364,-1499,5145
-44,80,-45,1184,-1382,5706
67,35,60,-6,-2143,7229
-109,-10,-40,-760,-1667,3508
98,68,60,452,-137,6131
-102,13,-64,1475,-998,4422
92,-5,-86,1820,-7607,6035
-104,-31,91,-2826,8416,-6145
-26,-71,60,-3010,1001,-3099
-58,-64,-46,293,1940,-126
-115,101,45,2872,-2183,892
-105,-117,-97,-903,36,-1
-44,-65,-54,-1455,-115,497
-17,-14,14,1280,-143,4
28,-28,-32,-577,908,73
38,-11,95,-1739,886,-316
-8,0,89,-2168,168,-988
23,-97,-83,-44,249,-143
14,-85,118,1058,-113,243
