AccX,AccY,AccZ,GyroX,GyroY,GyroZ
126,17,-110,2067,-1017,-7736
72,28,25,-1932,-1433,-5548
-102,-66,-93,-9725,499,-4285
91,-10,58,-40,-5012,-8704
3,-75,57,1727,-654,-8275
25,85,7,-164,-2772,-4846
21,71,127,-4154,5101,3932
104,25,62,-3796,3434,7117
-21,-93,-19,1023,1706,8151
33,11,74,-1355,1398,1849
31,-71,5,1719,4185,1098
92,-94,10,4438,-1503,5099
107,23,-25,-472,1863,6950
-102,-77,-38,-525,1643,8479
100,52,60,-6514,4392,9900
65,10,-120,1737,-6144,5268
-14,16,83,-8611,-457,6852
93,74,64,1702,-2796,3378
47,-42,120,-2878,1902,-8481
102,42,-48,-657,3117,-4438
63,17,1,898,-679,715
-16,-56,91,-851,-1092,502
-38,-72,39,-319,859,83
73,-1,-101,-60,-942,404
117,18,-46,407,-689,499
-126,42,-28,-259,857,-51
91,8,115,360,-142,-344
98,-16,101,-512,716,-438
111,-33,92,-189,29,284
110,10,84,-333,-36,98
127,10,106,-320,-60,-165
-118,-6,-118,-245,-79,75
-122,8,-106,-75,1,67
-107,-3,-120,371,91,-27
-113,-6,106,239,57,-16
-121,-1,93,-224,-81,18
-103,-12,100,-46,-67,84
-90,-2,102,-209,-20,22
-87,4,106,-275,-21,-44
-89,0,117,-242,-14,-60
-124,-56,-62,4942,-1057,-4419
-35,101,-48,64,156,-7033
-18,-25,-83,2026,-2133,-6397
-105,-117,84,-9164,461,-10636
-98,-28,-118,1286,-5795,-10743
-82,-84,58,-1130,-4137,-9158
84,119,-14,-2335,1465,-5385
-50,-46,86,-1489,2504,8825
-92,-35,78,-5835,2358,10656
108,7,26,4811,-3614,7057
94,-11,115,-535,6233,-3195
110,-110,-67,9286,-2449,2562
12,126,-75,1274,834,4611
65,127,91,-543,2654,6829
31,59,116,-2850,1512,9103
-50,48,-125,-7428,-2075,9878
23,-25,-23,-8370,-3105,6435
96,-117,-34,16710,-11667,265
-115,0,90,-3135,8143,-6756
66,73,-20,-1766,3570,-1790
2,7,-40,-763,2312,-515
-70,-75,103,2723,-4998,-136
-15,104,90,-1211,1941,322
71,-75,91,-1218,785,1214
61,15,-112,-310,-2287,1331
-111,91,-29,440,421,196
-125,48,-61,49,364,-814
93,-18,69,-1353,773,-691
93,-25,85,-1139,505,-347
92,-35,75,-245,17,101
101,0,95,-398,-226,208
123,29,122,-363,-144,255
-117,38,-125,-264,-34,114
-108,46,-128,-290,111,-63
-105,32,118,-86,146,-105
-105,28,107,-194,144,-26
-103,35,96,-349,124,7
-93,40,90,-391,100,-29
-86,43,96,-399,47,-40
-83,41,104,-292,1,-25
-36,57,117,5088,-559,-6028
102,23,71,1745,-1104,-6793
118,121,26,-4417,-236,-9404
27,-8,65,-6845,-2716,-14256
-64,80,28,380,-4748,-8597
88,6,-37,3479,-1995,-3460
33,-50,116,1940,-700,2085
98,-41,75,-8669,7289,8581
-85,69,-118,3231,1754,13312
-66,-68,6,4565,-122,-3006
-93,-25,-72,-3661,8581,-351
102,102,-78,2968,-1094,3095
-70,63,50,-612,540,4848
40,-103,122,-3817,1133,6339
-17,-124,100,-4581,348,7743
-107,-104,-115,-4292,-3883,8305
29,47,-72,-3422,-3632,4621
123,-57,114,4034,-5680,1455
8,14,14,-592,8259,-2353
79,42,46,-1529,-767,-3204
61,67,-13,-3432,2996,-500
60,-45,118,-1190,-583,-1359
43,-121,90,-14,86,-597
56,127,61,-275,1233,317
73,-24,100,169,-1007,518
94,-12,125,-706,-289,301
-118,10,-117,-1109,372,213
-117,27,-107,-838,-195,71
-120,32,-115,-639,78,18
-126,30,-98,235,-517,70
-120,30,-105,160,28,151
-110,47,-121,-94,64,23
-103,45,119,-213,157,-46
-97,29,104,-183,170,-110
-93,19,104,-140,29,-10
-87,18,102,-261,33,-79
-83,13,99,-412,-8,7
-80,33,-123,-570,-28,234
-66,46,-119,-168,232,58
-69,41,124,195,96,-99
-89,-126,-43,-9882,-3418,-6338
-100,109,-123,1137,-7247,-9447
-11,-122,-93,-1078,1523,-4719
6,-45,-123,3499,-3105,-1284
-12,61,75,-4849,4463,8184
-19,71,78,3098,3797,8092
104,-34,46,2239,3466,2520
-20,-81,-87,1917,6073,-1534
72,-112,31,3480,-2682,2803
117,10,-58,-3884,4899,3434
120,125,-111,-1697,-213,6489
-89,-76,-60,-5089,1582,7966
48,100,88,1838,-2627,5690
-39,-53,-37,-8920,468,6006
-114,23,-10,-390,-4161,3509
102,24,3,7646,-6350,3378
68,30,-26,-5172,6584,-6143
-63,-51,8,1131,-1464,738
-81,106,105,-1087,1106,-1102
-48,101,110,-129,-1112,-183
-38,91,86,-1473,1090,140
1,-79,99,-749,-133,-38
70,-50,-76,839,-146,171
73,-52,122,1003,-49,165
61,-41,86,-123,99,-23
47,-70,65,-759,276,-241
56,-92,67,-142,-93,85
78,-60,99,-180,108,49
95,-45,92,-135,-83,137
94,-26,73,-408,6,-74
96,-22,69,-863,-148,31
97,-22,64,-814,-49,-88
106,-13,62,-530,151,83
98,-9,53,-316,-119,-7
113,0,52,-187,43,89
120,7,47,-57,-73,34
-122,20,45,-358,54,-57
126,8,39,-183,8,-12
123,8,53,-31,-27,-13
-117,16,32,-101,-65,-2
16,124,1,-2231,-2160,-7078
-89,-23,65,-6150,-4977,-9424
125,116,-127,-36,-8089,-11534
89,-126,24,-6600,5440,-6272
-27,-15,-50,10638,-2147,487
111,-14,63,-5926,408,3370
5,35,99,-5647,6526,8255
54,-94,72,4121,1136,10370
-9,109,86,3177,3623,-3093
-38,-96,-102,-552,3168,2279
-42,-106,-114,219,46,5274
-2,62,123,-2104,784,5657
83,87,-105,-6964,-61,6979
40,-126,63,-4939,-1512,9820
-109,-47,-126,-3768,-2593,6768
-77,-109,43,-2534,-5355,940
-51,64,61,6443,4837,-1858
-79,-58,40,-5665,2302,-4528
-19,120,56,-2555,3291,-1216
89,-103,37,1787,-1085,-607
24,-123,62,1407,-1183,-314
23,-99,51,-1361,1360,311
71,-25,89,-1042,-334,700
86,-21,98,-635,-847,954
98,47,-125,-913,-842,814
-117,68,-40,2745,-1053,111
-117,48,-55,340,944,-437
108,-3,40,-821,543,-398
112,0,52,-1131,415,-182
121,-19,44,-269,-102,311
-126,14,71,-138,-281,151
-108,37,104,-284,-180,93
-107,38,123,-266,-28,11
-104,31,-125,32,116,-57
-93,18,98,-120,243,-25
-88,22,82,-304,157,34
-92,27,72,-311,62,-32
-80,30,85,-350,112,-21
-79,31,85,-200,46,9
-61,28,92,-157,82,-5
-56,107,-118,2644,-1856,-7196
30,91,-89,-4552,-1269,-9488
47,-80,63,-7408,-5424,-11002
-3,-22,-60,1229,-5044,-8290
94,-107,-73,-1219,-1929,-6312
15,-115,-79,1746,5179,814
50,114,63,-2246,3742,10568
-106,-95,-93,239,3469,9373
14,63,112,1215,1799,1322
-127,-57,23,-1462,3768,-3118
101,4,-35,3844,-364,3128
117,38,97,775,569,5869
-105,-3,-73,-1453,1095,6552
-111,26,-38,-5077,1031,9159
-79,29,120,-856,-3211,8391
87,-38,-92,-4704,1144,5190
26,34,88,-2853,462,1855
-10,-60,-92,-2393,-4902,1525
24,-60,47,11699,-6653,-891
-110,-41,-78,-5035,3757,-4590
27,3,-61,-655,1460,-716
14,-124,114,-337,-642,-312
22,-108,79,-602,-6,214
67,-58,58,-1077,993,252
82,38,118,-1898,-582,-167
102,29,-97,-1529,-408,101
116,31,-40,24,317,-238
118,22,-86,182,494,-133
123,21,108,467,119,12
-128,27,99,9,106,-27
-112,24,89,-273,331,-73
-106,26,85,-227,-41,12
-105,28,90,-276,-21,-29
-97,34,108,-290,-66,-16
-95,40,120,-457,3,-41
-89,45,-120,-372,-21,24
-82,44,-115,-172,107,-5
-75,44,-121,-43,73,54
-64,44,115,-98,152,-29
-61,39,103,-31,12,10
15,56,7,-4478,-1318,-7078
-101,-124,-17,-4387,-4412,-8627
-109,121,-59,-325,-3060,-9185
-40,-92,55,1241,-7291,-5914
65,-123,-108,2698,394,-470
-74,-77,77,-5208,6976,5171
-30,56,107,-1029,3670,9617
67,19,-8,3444,4831,7331
-20,97,-30,4145,1407,-390
-45,89,-40,-2896,964,1071
52,-48,47,-3229,1515,3271
82,-85,104,-1621,-1017,5242
9,-57,115,-2568,-3099,6740
-2,68,101,-4341,-2576,6010
-84,109,-83,-4482,-2317,6841
-95,-99,-87,503,-2454,3513
45,-75,34,-2632,-424,1649
125,-35,106,15604,-3502,399
-75,-109,-105,-3774,2072,-3320
14,68,-10,-204,694,-1418
20,-67,-75,-3437,1615,-1501
49,94,58,-144,671,735
55,-107,22,184,809,1095
105,-12,66,-1117,-257,794
-102,31,91,-1758,-66,555
-75,57,108,-1168,-180,63
-88,73,120,-1120,-74,-576
118,85,-66,-1640,-412,-1003
127,-66,82,1790,228,523
113,46,-30,311,-3,180
-93,39,86,509,-45,307
-83,57,112,-200,182,-183
-80,35,94,-771,484,-100
-89,23,76,-145,-232,55
-87,28,95,-83,-200,-12
-75,49,-128,-690,-33,-117
-77,45,-112,-772,87,-81
-79,34,-97,-100,-227,74
-74,33,-92,303,43,155
-60,41,-113,325,35,122
-66,105,-23,4283,1655,-5001
110,-66,75,6299,-233,-7231
75,74,-98,-1399,-1919,-8262
86,-26,46,-8614,-3429,-9222
-75,92,29,1250,-8354,-7280
14,-17,47,454,-4327,-6973
51,-44,-114,1531,2066,-2023
-6,30,84,-3018,3201,3813
19,-97,104,-4741,6511,9619
-89,-83,-110,2946,4024,8418
76,52,-12,2415,770,-2525
57,-60,-47,-864,2853,799
-43,-76,-9,2118,-1771,5245
-3,-97,-99,-795,-275,7005
49,57,-84,-150,118,8443
8,74,27,-4185,3614,10093
-52,44,-39,-1637,-1332,7353
67,43,-34,-6386,-1212,4456
-96,68,62,19938,-15083,5505
99,95,-52,-8372,10607,-8824
42,-23,54,-4065,3346,-1346
44,-95,55,-1775,171,-1571
43,63,30,2607,-2254,1108
21,103,70,1970,237,1033
64,-59,117,21,-288,247
-119,-61,-118,-1904,176,99
-93,-52,104,-2422,664,-15
84,-9,-127,-2183,-797,-637
-4,-62,-11,454,-2598,340
76,-12,-26,1958,1789,9
88,-59,114,1580,47,490
-117,35,109,-2873,1258,-224
-80,10,64,-2703,1582,16
-95,2,40,-634,333,74
-117,3,70,654,-731,123
-101,25,95,407,-606,124
-84,49,125,-519,-133,-66
-81,54,-120,-1238,118,-204
-86,54,-102,-1185,95,-222
-93,46,-74,-401,-75,12
71,12,16,978,1887,-7252
14,-71,24,2462,-1670,-8125
114,86,10,-1069,259,-9136
-95,71,-20,-3628,-7138,-5379
70,-6,-44,-4697,-4833,-6999
-125,7,-78,1314,-4532,-8069
91,-84,-86,1050,3227,-1137
25,-18,72,1880,1269,2579
87,-13,66,-5444,5493,6380
-41,54,51,1536,2986,7953
59,30,24,1072,3098,-3116
-112,-100,-101,990,4744,1546
-102,24,-31,1896,-611,2842
-84,7,-113,-2755,2660,4416
-10,122,-70,-2626,306,7392
-48,88,-69,-3445,888,9386
-113,-29,-97,-4309,-2136,10047
65,118,66,-4636,-1110,5336
-30,-123,-81,-2746,-2407,3587
113,8,-31,8687,-8209,6771
-66,-39,98,-6584,3281,-6008
117,72,27,-6921,5634,-5321
-88,92,-65,-2199,5580,-2669
64,77,3,4748,-3715,1877
-11,-84,18,3357,-1828,1016
43,0,83,185,-529,113
96,2,-118,-1428,-5,-323
109,0,112,-2668,899,-626
101,34,-94,-3180,24,-983
73,-22,-50,-681,-1192,31
55,-17,-3,815,-11,378
93,28,-82,1180,668,365
-127,49,96,384,479,213
-113,67,88,-1142,482,-73
-103,54,74,-911,268,233
-102,63,86,-256,-152,112
-91,77,96,-487,-2,-22
-89,87,121,-624,-228,-143
-86,98,-89,-1116,-129,-122
-91,75,-54,-146,114,157
99,-22,6,4493,-215,-7466
-24,-74,33,-1132,-2186,-10539
48,27,-28,-5456,-7647,-10511
119,70,48,-4361,-2596,-7639
-18,-98,-8,854,474,-6469
-30,25,-75,-3394,2587,599
70,19,124,-4696,5308,9423
80,-54,66,3747,3602,10638
66,-74,111,4051,-1245,-1886
126,-102,126,-3748,6031,1662
-91,28,-91,1517,-1326,4466
28,7,-65,-1066,-1151,7051
86,-75,-95,-300,-1293,8939
73,86,-118,-1317,725,10167
-120,87,55,-4662,86,6703
18,-29,-43,-8555,-947,4278
50,18,32,29464,-14497,4480
1,-46,-18,-9279,4566,-8544
99,-25,114,-5444,4652,20
0,14,-103,-2201,3167,554
-68,51,-50,7807,-5956,-455
-50,60,-127,-2101,2284,285
64,-112,124,-2679,1005,139
71,-65,-102,-2293,-909,244
79,-46,-91,-800,248,6
96,-22,18,-295,742,-535
79,-85,-117,805,48,-125
108,-60,108,154,-2,86
113,-42,101,-295,275,-151
107,-52,84,-414,311,-174
124,-61,84,-155,-137,148
-128,-42,89,-185,-205,199
-94,-12,98,-176,-393,302
-115,14,110,-317,-443,-213
-114,7,-107,-871,316,-324
-111,-23,-111,-214,209,123
-108,-21,116,114,226,146
-91,-5,90,64,-57,117
-78,-1,84,-111,-81,43
-79,6,88,-316,10,-43
57,-89,74,1546,-447,-8199
-2,-61,100,-192,-1685,-7515
-77,48,126,-6489,131,-6826
-70,109,-3,-2765,-6986,-7808
92,-85,-73,122,-2519,-5906
-109,-64,-98,3042,-2853,-3543
115,-127,-127,-2101,1105,-267
-35,61,59,-4080,6796,6680
6,40,51,2921,4288,9371
-90,63,51,3468,3836,-717
-83,68,-20,518,2739,2622
30,-128,0,-163,225,3054
-85,6,-5,-3926,1467,3256
-5,66,-46,-5772,159,6287
-121,87,-100,-3531,-1935,10354
-101,20,-88,-781,-3109,10603
3,-72,125,1347,-810,4162
59,-105,-71,392,-429,3787
-21,-33,40,-3130,598,376
21,-46,-17,2894,-1610,-2778
18,-98,-86,-805,2111,-1443
-60,-84,-106,-595,-106,-1595
65,116,70,-2390,1475,-95
58,-77,82,-870,330,-328
80,-42,99,-1581,870,-499
93,-27,96,-1484,571,-338
89,-19,117,-685,400,-589
106,-29,-127,545,-290,-421
-116,4,-101,-349,-158,-205
-119,9,-106,-899,371,-136
-125,10,-114,-85,-111,189
-108,21,-114,92,-68,199
-95,32,-119,154,-148,195
-90,47,-126,-86,27,127
-86,44,127,-39,1,-20
-81,30,115,-6,27,-46
-83,32,122,-409,-26,-19
-80,31,-126,-304,13,19
-69,34,-114,-210,6,-20
-65,34,-115,-106,28,-59
32,74,29,6350,-1329,-3899
39,-110,107,724,259,-6520
-32,-25,126,31,-297,-7652
-12,3,72,-2764,-2211,-8032
90,102,-66,-6043,-7958,-9839
-110,-90,36,-2727,-6924,-9701
63,126,120,-44,-207,-7437
-17,93,-82,1652,2836,1674
-52,-37,68,-5433,5651,6358
-126,-8,-33,1721,4389,10224
-57,125,99,3134,1595,3258
-14,-68,-111,-880,3098,-1075
124,108,-20,194,-1556,4580
-48,-19,96,31,47,6395
-39,-106,-83,-4100,1044,7788
106,103,-128,-1849,-790,7906
14,-50,-63,-1724,-1863,6943
-117,35,-73,-4681,2349,4918
60,-62,-126,-3714,-374,2532
61,-35,-13,966,-5059,653
-95,88,-1,11604,-5685,-636
-118,32,31,-8177,4905,-3858
43,63,-26,-538,2123,-1138
38,67,38,1938,-1110,629
7,-93,92,-961,-228,62
57,-72,88,-981,589,95
80,-46,-116,-642,-177,-30
107,-9,-104,-1441,641,-338
107,-30,-121,-693,319,-386
101,-58,125,147,-13,-37
93,-31,96,399,-530,75
115,-23,101,301,-203,154
126,-11,98,118,-281,109
-125,-2,97,45,-302,133
-106,19,-125,-438,268,-200
123,5,-120,-528,-204,-181
-122,-50,122,1066,-172,234
-83,-20,92,-24,715,23
-84,-7,66,-1388,665,-322
-96,-42,47,-190,-363,16
-128,79,24,5319,-2386,-8803
63,-82,-121,460,-2491,-9485
95,42,-37,393,-3468,-9013
-32,65,40,-2590,-8436,-8279
15,102,-77,-731,-2681,-5721
9,-90,-128,6547,-1242,-698
77,48,111,-7045,1826,219
-60,121,54,-1664,4680,7360
86,-87,-101,2045,5065,9482
21,65,59,1814,4966,3721
12,89,-101,77,651,476
70,65,64,-2061,569,3492
-6,-123,-118,-2784,1534,4330
-12,50,-118,-5253,-1340,7115
5,42,111,-3102,-3023,7421
81,-51,-94,-2370,-2815,6119
-49,-70,-54,-76,34,2439
-91,-4,-28,-2968,-117,1206
6,80,-96,2473,-4763,2145
77,69,-99,-511,3530,-2595
103,52,32,-714,66,-2144
27,75,-17,-1515,1712,-421
22,-90,53,-900,412,-838
51,-93,64,-354,-159,-157
87,-18,122,-1585,-82,208
93,0,-106,-572,-730,355
96,5,-91,435,-428,443
111,31,-77,682,63,5
123,16,125,201,187,47
122,20,88,-606,239,-30
-125,14,81,-511,96,-14
-124,5,84,14,-157,84
-120,23,101,-407,-18,-38
-111,18,108,-300,5,21
-109,21,114,-211,24,-14
-100,19,112,-163,57,17
-96,19,103,-155,62,22
-91,18,91,-73,-11,27
-86,18,90,-131,-22,45
-83,27,94,-205,-14,14
-59,113,-123,3175,-1534,-6145
-124,-42,66,-2522,-897,-10540
73,-50,32,-5367,-9344,-11396
-79,117,-120,-4306,-3870,-9159
22,-73,-48,6537,-5373,-4824
-79,-112,-119,-2281,5923,4652
-7,3,66,-5619,4199,9375
109,-51,96,4254,2487,8703
-29,-20,95,4199,4621,-1193
-51,-69,-35,3479,-1091,2528
105,77,65,-1322,-9,4302
91,-5,-112,-3113,1227,5525
-37,103,121,-2739,-167,8273
97,-59,122,-2905,-1854,6920
-83,-26,83,-2578,-509,5332
23,-112,-105,-994,760,4020
-53,-127,-106,-1193,-724,2263
31,-92,-123,-762,-4075,1343
120,-62,-35,14551,-5724,1059
-110,74,-124,-7288,3768,-4646
64,19,-40,-2005,2329,-1109
61,112,52,587,191,62
40,-109,53,976,-885,-99
69,-88,94,-228,-307,444
99,-29,-98,-1071,-473,87
104,-22,-92,-1173,87,-13
117,-25,-105,-586,332,-100
113,-22,-109,-197,77,36
117,-20,126,334,24,57
126,-11,116,-29,62,16
-114,-5,107,-360,79,37
-113,-6,104,-248,59,-7
-110,-5,104,-161,-48,24
-104,2,110,-176,-16,-17
-90,-8,110,-94,-45,0
-86,8,126,-358,-47,94
-92,16,125,-143,130,-133
-87,-7,115,149,-17,-20
-76,0,113,-304,86,81
-72,4,105,-150,89,11
-21,78,-11,-6096,287,-8287
30,-11,-40,957,-15210,-7058
-91,-126,59,-5303,-348,-7635
40,94,-89,8674,3106,5907
-126,-99,103,-7183,2265,830
98,-125,62,-2560,4640,6367
25,37,-6,3802,5444,5394
-103,117,-55,2616,3261,-736
29,-123,-31,-38,5,1695
-65,-8,55,-604,2030,3848
-82,-43,-63,-1790,1322,6331
54,-6,-69,-3900,732,8206
-128,115,103,-2596,-2105,9930
8,-65,-42,-3477,-992,7378
-93,-96,94,-4567,2121,1921
124,-93,-104,-2791,-1791,-36
-88,3,72,8995,-2611,-988
102,-13,52,-1821,1206,-2900
-11,23,-21,385,476,-503
27,126,-115,361,288,-434
3,100,117,860,-276,-263
45,121,108,-1063,1045,155
78,-104,110,-1256,252,277
91,-90,97,-723,156,372
113,-67,103,-466,-103,285
-124,-47,117,-462,-79,220
-127,15,93,-2032,-425,-383
94,-11,127,-790,-941,-89
109,-23,3,2221,-425,324
123,20,-50,391,644,15
127,-17,83,3,151,18
-111,-37,84,-279,363,-273
-108,-47,81,-400,219,-39
-106,-47,84,-232,-5,10
-113,-41,88,63,-161,57
-100,-34,98,-57,-62,70
-93,-26,102,-243,-138,98
-85,-17,112,-414,-49,110
-75,-6,-128,-312,25,38
-80,-9,123,0,73,-3
117,69,105,2207,4575,-7193
80,-17,94,7522,-3899,-7488
85,-84,-36,-5259,-4577,-9493
8,83,68,-7450,-4715,-10630
109,-62,51,-3692,-1786,-10471
109,-46,102,2911,-3565,-6623
99,-9,127,2125,1658,-721
-15,74,78,-6376,3016,7489
-71,107,85,3079,3375,10823
21,95,2,5998,4375,3890
17,108,89,2233,4596,-533
-80,-126,-18,377,932,3419
-89,-62,-102,-2294,1316,4265
113,-3,-78,-5270,388,6483
124,-69,-108,-4863,394,8739
8,21,69,-407,-4262,10357
10,-29,118,-7262,1287,4371
85,75,-115,-4458,4,-172
-3,-106,37,28150,-14051,4121
30,-13,32,-10444,7039,-5213
10,66,102,-1297,2552,-1926
60,-102,96,929,-1239,-974
45,99,70,1407,-989,275
29,-115,61,-86,910,599
66,-26,104,-1426,-12,269
119,-15,120,-1615,25,560
-112,14,112,-1681,179,453
120,26,126,-532,-1296,393
100,30,-93,805,-1091,-168
-125,42,8,515,1160,-315
108,-14,97,623,-34,34
-128,12,88,-570,370,-37
-115,8,83,-832,350,-8
-106,1,75,-339,212,109
-102,13,77,-65,-204,106
-96,26,96,-210,-131,-92
-86,22,118,-399,12,2
-83,27,127,-379,77,-22
-82,22,123,-131,61,-30
-78,18,116,-36,37,51
72,-8,119,1098,2458,-8754
52,107,-36,1844,-74,-11469
-11,103,-84,-1690,-5161,-9761
-35,-80,-72,-2519,-9285,-5367
-37,-120,-36,-2796,3530,-8722
-59,-94,-82,1642,1533,752
113,99,75,-1510,-1873,2490
-67,27,69,-6268,5213,5934
124,-82,74,4120,947,11195
20,-18,-103,6127,4750,-636
-51,92,-87,-1908,3418,2018
79,10,31,1368,1980,4162
87,-32,-36,-1897,2441,5935
-44,-30,-119,-7102,2121,9672
31,104,80,-6665,-4203,12846
9,5,-23,1514,-7665,6472
-115,0,-58,-4134,1712,-2900
-90,38,77,-9369,14348,-1720
91,78,-107,10793,-9574,-276
-116,107,46,251,1197,-3191
55,112,-58,-846,1758,-1748
58,14,-128,611,247,1098
22,109,61,-1414,1040,1189
56,-52,64,-3088,844,817
-125,-14,85,-1322,-630,1077
-105,10,100,-601,-522,1116
124,73,127,-152,-674,-39
113,33,-49,1459,8,-856
110,-26,-92,512,126,-259
93,-45,82,263,-173,-173
122,-30,96,-558,287,-14
-123,-15,90,-986,379,-148
-124,-27,75,-484,137,-163
-114,-18,98,-408,-29,-62
-109,-5,100,-346,69,-79
-108,-8,98,-267,-19,45
-97,1,105,-159,-69,100
-87,11,103,88,-20,9
-82,12,98,-72,-57,0
-79,14,98,-140,49,-117
-122,-13,118,2212,2413,-6068
114,61,-64,7897,-2290,-7430
-128,111,15,-923,-4976,-12803
-70,-115,26,-12383,-18675,1514
-77,57,83,-8418,213,-7007
30,103,35,4308,-1096,-5585
76,80,-107,-3650,2679,-1904
51,-22,67,-3503,5098,5333
68,38,-76,-694,4168,10958
-34,-6,-69,3681,2533,944
32,27,74,-932,2154,-421
100,-86,-21,1247,-435,4092
120,21,-116,-1312,1122,5714
-30,12,-50,-2320,216,7582
-112,93,-61,-3308,22,8651
14,117,7,-3111,-3825,8761
-62,91,-120,-478,-977,1732
14,-20,108,-2387,1136,4695
-114,-33,37,-6917,-1753,565
-126,59,67,24848,-11649,3529
127,79,-100,-7867,6836,-5109
38,0,109,2115,404,324
40,-79,106,-1587,-94,-356
44,115,73,-381,-426,191
55,-94,81,-723,231,471
48,-32,-107,-759,-1268,382
100,-30,-47,908,-312,361
112,-14,-61,453,600,-141
104,-35,91,-794,495,-375
101,-66,65,-642,188,-258
95,-85,74,221,-308,210
109,-40,105,-217,-238,223
124,-16,120,-434,-21,102
-124,-20,120,-246,135,-62
-124,-25,112,-147,68,-38
-113,-25,103,-258,152,-9
-113,-21,89,-270,94,-33
-102,-24,82,-156,20,-24
-99,-20,84,-266,-26,-48
-100,-24,96,-98,-81,47
113,7,-90,3733,3090,-5449
-42,-85,-47,7053,-4795,-8440
115,-43,32,-7546,-550,-10621
2,108,-90,-4848,-5107,-10382
97,-68,-55,682,-2311,-8543
43,-106,122,17455,-11178,2054
45,-112,33,-13602,5445,-6521
-112,12,55,10548,1066,6093
123,52,55,-9741,3125,-1707
22,31,82,1221,4156,9187
-35,-71,60,2604,8000,5846
-52,53,106,1357,5807,7109
13,14,106,344,2833,2189
-76,24,73,-4022,283,3228
54,87,30,-8336,2271,4510
-64,14,-2,-2792,-3357,6550
64,93,-63,-5877,-1222,5025
-107,126,43,-1318,-472,2005
98,-65,52,-4120,-1518,4
89,-22,116,11313,-6157,5889
77,94,53,-6657,5417,-5571
117,127,84,-3338,2271,-444
73,-114,-55,-1685,2782,-749
36,-81,-15,1855,-1645,-65
15,126,25,1873,-1842,19
55,-32,122,-2019,266,-66
94,33,-25,-1923,182,-162
89,-50,-3,988,174,152
51,-84,-128,2043,-811,942
-88,-56,66,1887,307,416
-116,1,44,-1069,1359,-1045
-104,-67,56,-2252,348,-1218
120,-93,61,-352,-1031,85
97,-53,110,-498,-468,81
108,-12,-117,-535,-124,349
-114,-6,125,78,-108,498
-87,19,111,314,173,87
-96,13,90,149,-207,25
-98,4,82,-336,57,-84
-94,-1,85,-389,128,-7
-17,39,-100,-2997,-968,-6648
9,44,76,-2730,-10730,-6719
10,-68,-45,-3357,-6574,-10499
46,-120,-31,1257,7852,768
5,52,87,2588,1932,4279
99,-87,59,-6955,5399,5932
-43,62,49,2812,3500,6817
2,-95,46,1717,4061,-2180
-5,126,69,1093,832,2432
98,16,-4,879,-427,3535
99,91,-99,-4083,1986,4059
23,-74,-94,-3225,1262,5993
54,111,-93,-4566,-1345,9578
58,-82,-56,-2982,-4936,10798
37,-93,119,-3038,-946,4736
-125,-105,-83,-161,-2713,-148
5,-102,-80,8448,39,-853
28,-125,112,-2370,457,-4738
34,37,-56,-2177,2733,-1896
68,58,54,99,-457,-553
-17,64,60,1014,-1761,88
10,119,-128,-1178,199,403
61,-39,-34,-1179,-871,1373
124,13,53,1435,657,86
-93,3,-73,-268,986,-124
101,-46,38,-1509,821,-643
67,-92,29,-140,-406,-59
93,-65,114,-239,-691,684
-115,-3,-93,-88,-100,543
-98,42,-94,-354,633,-289
-104,8,82,-1069,451,-448
-110,-11,88,-785,118,-266
-99,4,110,-715,183,-154
-88,11,115,-531,235,-176
-84,11,120,-311,1,-41
-87,10,118,182,-244,146
-70,26,125,203,-153,145
-60,43,120,-96,-13,45
-64,42,117,-166,1,-92
-63,20,111,-7,3,-139
