AccX,AccY,AccZ,GyroX,GyroY,GyroZ
80,-47,87,-7414,7179,-748
2,-27,40,3050,-4240,-3384
93,-122,126,3063,-8842,-5313
-79,-66,45,-4357,-6812,-5887
63,77,-100,-5748,-10202,-5216
72,-55,84,-4330,-9201,-4447
-1,-116,-59,-2922,-6337,-2355
-16,126,-12,-3140,45,-1326
-31,58,90,-1906,931,47
-93,30,70,-5167,1512,-1302
-27,99,-80,2068,-531,1184
85,-14,-38,-1200,435,-181
-9,-12,-105,21,47,290
121,18,-41,-1270,31,272
-118,-92,-70,328,-216,267
9,-68,-66,604,370,441
53,-121,55,1526,-286,783
74,117,-76,1218,274,3697
30,-79,78,1003,5755,7768
51,104,-12,485,4643,9044
24,-96,89,2924,1940,11288
-19,-61,40,-1318,3427,12244
104,-114,57,5755,-6766,2300
76,-8,7,-11494,1345,6396
78,11,-112,18303,-5312,-5118
34,-62,74,-2162,1522,-3555
-69,-1,-6,-1792,2276,1492
-81,6,78,2965,-1777,-889
-125,50,-19,-813,-207,812
5,108,-40,-1957,1066,1218
17,-45,118,2728,-1051,359
39,40,103,-744,-423,-1014
21,-110,-57,-2374,1242,-825
-11,117,-71,-841,369,-665
-14,112,-41,158,-41,-41
1,-106,-31,207,-76,308
38,-66,1,585,-90,335
44,-51,-49,319,-322,129
61,-53,-48,-57,-12,-36
70,-56,-52,-204,188,-112
115,-5,89,3836,-6676,-7463
33,-57,25,-5138,-4754,-10868
-108,-94,-65,-3253,-12619,-5458
-36,-8,-123,-6142,-4670,-3256
29,-123,-96,-485,-3924,-2837
-23,-121,-51,-2144,-351,-1184
-49,-48,54,1689,-1395,3098
5,21,-64,1485,4168,1816
-13,-44,-32,2696,3360,4303
105,60,-78,4554,4722,6827
114,54,-58,-1831,6589,6603
74,30,-72,873,1755,11822
-115,-34,-57,-6010,2129,5689
111,1,-95,6340,-1604,6787
-96,-78,-77,-326,481,5648
23,-122,106,432,-511,1750
120,73,44,3048,-2929,-2704
47,17,80,2346,1481,-2873
-100,77,115,-821,194,-487
-63,105,-122,-350,-841,-63
74,-66,-48,-1944,667,169
92,10,-80,-2725,1329,-706
123,55,-82,-3207,1522,-1453
-98,29,-61,-2675,1520,-1356
-118,20,-57,-1546,583,-948
112,4,-73,-193,-289,-214
113,67,-34,-1302,316,-171
119,53,-46,21,-76,173
-122,67,-37,677,-334,273
-99,95,-17,754,-387,259
-86,90,-3,643,-215,158
-94,92,-41,429,-200,79
-97,71,-45,389,-115,33
-86,59,-41,161,25,69
-89,57,-46,120,-42,86
-86,54,-41,46,57,-30
-79,38,-40,-59,67,-6
-80,33,-44,-56,37,-20
-76,27,-43,-61,23,-19
-73,22,-50,1,-25,13
112,-61,-62,2837,-9810,-12032
34,14,124,-3690,-7136,-9429
119,55,-50,222,-9699,-8533
-46,-23,-35,-3173,-6727,-4747
21,103,-82,-3311,-3249,-1491
-68,107,52,-393,-2062,-2297
-96,-106,-74,-2294,8403,-156
-21,88,-126,1555,-909,3785
-110,26,-58,1570,4016,3473
53,-120,119,1010,2783,5318
119,120,68,258,5665,6472
-9,19,109,-658,1735,7688
69,40,-15,-3049,3311,9426
92,-49,-88,1343,-3115,7840
-101,-53,-92,5362,-1648,5168
108,-106,38,-3470,342,1919
60,-45,7,-4092,1920,160
49,-104,117,8599,-2741,-773
14,49,-46,251,-816,-2666
19,57,-8,-2203,1473,-518
-21,46,-40,215,-1138,-243
16,79,-18,-264,22,435
48,-107,-33,-1090,732,155
70,-73,-37,-1083,107,-206
99,-85,-40,-554,181,-242
88,-100,-52,480,-27,-202
86,-102,-63,611,-83,-200
93,-98,-59,44,-31,-156
106,-99,-59,-233,56,-65
114,-91,-63,-294,28,40
116,-70,-59,-211,-66,31
120,-62,-58,-5,13,-78
124,-68,-57,72,-31,-7
-126,-72,-58,181,4,108
-118,-63,-64,48,45,111
-108,-57,-71,40,53,113
-106,-57,-78,65,7,114
-102,-51,-77,0,-17,108
-95,-46,-75,69,13,84
-92,-47,-77,132,-22,47
-7,71,-17,6971,-8803,-12404
-108,-95,-25,-7212,-5192,-11265
52,-62,22,-1241,-9733,-6583
-124,-107,-90,-3332,-3783,-3860
57,93,-82,93,-2739,-173
121,104,-24,-6675,1769,1154
-115,12,-54,6951,2304,2977
-123,-115,-37,2029,5884,4240
-128,-35,110,1869,4373,5385
0,-86,-93,558,6318,5711
42,0,93,4909,-189,10282
-42,-123,-6,-16846,11303,4718
66,123,-83,9594,-3573,6637
-50,-117,-5,7497,-4257,6523
-4,11,116,-8328,7922,3313
119,126,-66,-1924,824,-711
46,-82,-86,8026,-5239,-2528
39,-47,-87,-3062,2142,-1497
25,55,112,-1598,1427,-1305
56,49,-78,-319,-792,-90
91,121,-46,-1204,462,308
105,-70,-42,-1219,845,-461
121,-53,-12,-987,145,-542
126,-79,-34,-644,223,-342
-126,-97,-70,289,-313,-30
-122,-63,-69,27,-86,72
-126,-45,-64,-195,132,-46
-121,-57,-66,395,-185,115
-99,-41,-56,268,-102,190
-94,-24,-52,159,-35,43
-97,-21,-59,-65,67,-108
-96,-43,-70,0,12,-34
-91,-49,-73,152,-33,76
-86,-35,-66,47,7,-11
-80,-43,-64,66,11,19
-81,-40,-62,-5,-17,25
-74,-37,-62,-10,1,23
-69,-34,-67,-70,28,-17
-69,-34,-70,-143,36,-6
-68,-36,-69,-13,-11,8
-3,74,26,4204,5349,-1289
47,0,41,5634,-2259,-1098
-75,38,39,1932,-4980,-6642
-5,78,64,-1228,-5253,-6712
0,25,108,-4064,-11834,-6050
-88,-18,6,-3516,-10299,-5940
46,71,41,-3913,-5067,-3492
100,43,11,594,-1342,-2635
-15,-61,-120,-6393,1013,703
-49,-91,102,2682,2102,1271
36,-25,-39,-662,2419,2405
68,-14,-86,-557,2582,5552
35,-1,-109,4906,2385,7415
100,110,98,4167,4707,7608
35,121,68,-1850,3944,8484
-63,52,-13,-1390,1131,11693
-67,52,-4,6538,-1579,2392
45,-101,-97,-6323,1069,4480
-112,-25,-67,-6143,2002,-158
101,-55,17,6758,1559,-2496
-10,1,-51,3322,-3406,-1385
3,-96,31,-1682,917,145
-4,93,-96,-1330,1566,-501
12,94,-90,-315,-418,140
36,-112,-60,-1159,-43,147
116,-63,59,-526,783,-302
105,-59,22,-619,29,-265
103,-79,-28,-348,76,-309
106,-90,-39,79,-140,-125
101,-86,-61,432,-129,44
99,-71,-57,-12,-156,47
120,-70,-51,188,-8,182
125,-56,-45,399,-211,130
-119,-41,-31,80,22,20
-120,-48,-45,52,-56,-44
-117,-59,-64,-28,9,18
-112,-55,-64,-26,15,-31
-106,-51,-53,-92,37,-21
-97,-52,-49,9,9,-17
-102,-48,-54,-44,-11,-19
7,89,125,3788,-1458,-5579
82,-18,-13,1551,-6060,-10031
-71,-103,-32,-3290,-7700,-9419
1,-74,83,-1915,-5863,-7182
90,-91,47,-4252,-2608,-3961
119,-110,51,-58,-3656,-1717
58,-127,107,-2158,28,463
22,-72,-126,3759,-3014,1108
-37,-40,-53,3850,2357,2120
-121,124,33,-765,4808,4025
41,80,-60,-74,5836,4807
115,13,-30,3234,3749,7204
113,31,-116,-317,4680,7155
-61,-127,54,-6390,5135,6839
48,-10,100,363,1929,7410
-39,-26,-69,3904,-5182,6885
-64,108,-57,-3253,193,2690
-20,-76,-45,341,311,-1113
113,-1,58,7066,-1860,-39
-60,97,-25,533,-2426,-1594
-14,-75,86,-4474,2603,-1120
45,96,-64,-2533,1619,-1289
69,90,-95,-505,13,-171
64,-92,-81,-1483,585,-673
93,-87,-57,-799,-209,-967
102,-95,-38,-1310,371,-744
103,-69,-38,-2104,966,-472
89,-73,-60,55,-259,125
96,-43,-20,484,-169,206
118,-30,-15,795,-460,420
-113,-18,-41,682,-260,424
-112,-9,-55,468,-86,242
-111,-7,-68,82,68,17
-109,-22,-74,-2,-7,34
-112,-26,-73,23,-131,37
-110,-27,-58,144,-139,6
-99,-23,-18,-62,269,-60
-101,-33,-38,-2,-31,36
-92,-35,-55,-4,6,5
-94,-36,-64,19,0,10
-32,2,118,1457,-2964,-9124
-37,-97,-84,-655,-5982,-10313
-23,-95,-1,-1152,-8118,-7253
72,52,96,-5398,-1372,-4003
119,-20,-122,-1815,-3847,-2819
66,78,79,1798,-1363,-1055
126,19,73,-1335,2718,456
57,21,-8,1912,-409,1521
-65,55,-60,3880,1579,2719
-35,112,85,-294,4694,4214
-33,-50,75,2786,4676,6088
-97,-60,21,-586,4647,6507
12,-118,-93,-5361,6472,9506
-52,-55,75,719,-1202,7000
91,-35,-121,396,-590,5595
-43,32,-16,936,-2496,2540
4,-51,103,-1421,-811,3453
-121,82,-92,6564,-2092,1314
47,79,73,-1348,-362,-4516
66,-64,45,-5612,3747,-3419
39,14,-103,-1131,109,-1231
-3,61,-93,-32,-615,586
28,-94,-63,-651,227,446
72,-9,-42,-904,-199,-45
110,16,-56,-1476,839,-881
-113,-6,-40,-1746,529,-1036
-121,-10,-46,-1711,715,-579
109,10,-52,-1122,389,-410
96,6,-42,-96,-191,6
117,20,-16,859,-482,279
-114,21,-28,1238,-311,446
-109,27,-49,1096,-439,505
-107,34,-64,781,-370,319
-104,20,-62,530,-187,121
-102,10,-46,288,-11,101
-104,3,-40,153,46,35
-107,-9,-57,191,-47,17
-99,-12,-56,-149,77,-7
-95,-10,-60,-299,98,-49
-90,-10,-58,-262,70,-58
90,-104,12,2397,3128,-4949
32,-90,-121,6371,-1932,-10670
9,-14,-52,-2529,-3100,-13286
76,-87,-53,2366,-7891,-9414
-125,-7,-14,-2164,-4228,-4227
19,78,79,-2486,499,-2985
-119,63,68,262,-3479,-106
6,-26,-102,-814,3934,1572
59,127,-46,4555,213,4213
-7,-17,79,623,4516,4800
122,-118,29,4447,4345,6930
-60,71,-64,2641,3318,7073
-93,-29,-38,-2660,7923,7192
-54,-27,-63,-98,-317,8155
30,31,-67,-4376,1653,2947
60,-11,-37,-2731,1322,2845
82,-47,73,6479,-2976,4664
33,69,98,10878,-3488,324
69,0,109,-2523,-1671,-2603
29,112,44,-7155,4290,-1900
26,-57,-109,-3433,3053,-1793
-34,-69,-120,562,-1573,434
-28,41,-50,-311,-642,539
84,-102,4,-1070,942,149
115,-86,-3,-469,-66,-400
124,-96,-40,-1059,351,-659
112,-119,-49,-547,291,-511
96,-127,-48,168,-140,-112
95,-124,-67,440,-18,206
108,-103,-73,609,-283,377
120,-88,-81,489,-199,384
-113,-73,-78,319,-218,143
-111,-66,-78,473,-199,-118
-107,-53,-37,-238,280,-195
-122,-76,-51,1,-31,42
-122,-82,-62,39,17,114
-107,-75,-82,-32,-10,114
-101,-70,-94,-112,58,-31
-92,-70,-90,-177,37,-49
-94,-64,-73,-208,72,-30
-51,7,120,1615,-3383,-6996
-24,-34,81,-3039,-3795,-7938
77,-1,-55,-2809,-6747,-8555
-111,-82,-25,-1169,-4963,-6833
-13,-32,72,-1018,-2552,-2587
-83,26,-36,-2199,-1101,-754
-76,65,77,530,4171,431
53,-4,-120,1144,516,1967
-38,-54,-45,1086,5983,3916
-80,18,-53,2683,1735,5673
-99,-94,53,-2188,5768,6082
-73,-38,-7,-588,2960,7929
91,-104,-79,-1603,1201,7812
-121,115,-54,3380,-2565,6429
23,17,-27,-3230,1550,1436
117,41,-72,1162,-2038,3177
-6,-19,-25,7556,-2496,3394
-56,-110,-73,-333,973,-2289
66,-66,-14,-3092,251,-1683
44,80,-80,-4044,1651,-1660
61,12,-126,-1379,816,-697
56,34,-113,1508,-135,563
58,118,-98,910,-367,177
92,-119,-56,-85,-497,33
119,-115,-35,-553,18,-2
116,-108,-43,-432,-26,-15
107,-100,-32,93,94,-62
111,-93,3,612,2,115
115,-89,-39,332,-242,285
-123,-74,-54,-241,76,19
-114,-81,-71,-433,326,-34
-116,-90,-94,-83,85,18
-114,-93,-90,322,-188,95
-109,-78,-79,65,-36,61
-106,-66,-70,-38,12,32
-100,-71,-63,217,41,24
-93,-64,-61,20,-28,50
-90,-58,-69,-89,34,-38
-91,-63,-79,-154,55,-68
-84,-72,-86,-90,27,10
15,-79,50,1965,612,-7686
116,-30,55,616,-6003,-10131
108,99,39,-3341,-9991,-9804
-30,-101,104,-2556,-4886,-5863
81,75,53,-4853,-2161,-3403
80,102,-4,-486,-3402,-1402
6,-54,109,1392,-416,575
-37,-109,-60,515,1841,2267
38,-57,-43,1046,5693,3025
73,-37,-99,3569,4060,5037
1,64,5,2724,4079,5420
34,-22,-113,-2243,5711,7426
-59,57,-79,-4764,4404,5405
-23,121,-109,385,622,4976
-19,-16,-9,-1441,105,7132
-3,-88,44,-641,-1696,2202
29,110,-50,791,-1419,1809
-8,99,-54,10133,-2311,762
-125,-7,-124,-2272,-702,-1847
46,127,-11,-4169,1807,-1784
65,65,-67,-1550,929,-1718
64,28,-97,590,-121,-293
66,65,-100,190,165,183
98,-128,-67,-258,-487,-58
117,-98,-26,-973,-137,-211
-121,-94,-15,-819,67,-184
117,-105,-18,335,-324,191
121,-97,-18,883,-98,349
126,-65,-28,466,65,277
-116,-61,-48,8,368,12
-85,-96,-73,176,389,170
-108,-88,-95,414,-406,407
-117,-48,-70,-428,51,-103
-86,-75,-48,-201,285,60
-72,-103,-60,564,-128,243
-76,-95,-66,540,-149,268
-128,-69,-82,419,-177,1
-116,-95,-65,5,4,8
-89,-126,-60,382,-96,376
-97,-98,-73,388,-388,268
-15,-93,76,8959,-6594,-4274
119,-118,6,-5916,-1031,-7728
-123,55,52,-4411,-14507,-8239
54,107,-9,-4514,-3188,-5304
-29,88,-14,-2219,-4456,-3522
-111,-60,-26,-338,-1392,-2680
103,-27,22,-1684,-3480,1968
106,-101,-8,335,6200,518
-95,-82,91,1749,2649,2928
-65,79,-40,1804,4837,3787
88,66,89,2018,4636,5611
-95,11,-39,-194,4668,5942
-29,14,-30,-3145,3920,5309
-43,-1,-50,1598,-49,7605
117,41,24,-1827,-357,4377
19,70,-101,-6665,1691,2875
3,58,13,-883,253,2157
-16,81,50,1520,-2363,2270
-86,120,57,1692,-1566,664
-111,78,104,3686,294,-1266
88,-7,-7,717,-705,-1243
43,-127,-36,-528,489,-359
27,123,-49,-113,-8,215
47,-106,-54,-19,142,139
90,-94,-63,-231,312,-30
101,-95,-61,3,-62,-135
104,-106,-63,-58,110,-130
104,-108,-57,75,-98,-8
109,-101,-60,-73,118,27
111,-94,-72,70,-56,61
122,-89,-73,-33,-14,114
-127,-76,-72,-119,-7,84
-121,-70,-75,-46,-49,63
-115,-69,-74,56,-60,39
-111,-58,-61,81,55,-38
-106,-65,-51,168,75,-39
-107,-69,-64,114,-82,18
-99,-66,-70,-42,63,-11
-92,-68,-79,21,27,-10
-93,-70,-91,-35,60,9
-128,90,66,5527,-2186,-3114
112,-91,-105,2111,-4037,-6795
-16,-94,100,-238,-4658,-7828
-4,25,-101,-1960,-12863,-9561
86,53,36,-1914,-7663,-4650
124,-117,19,-4918,-2475,-2139
21,20,-103,-696,-2933,-697
-69,-80,-30,-3551,6218,1057
116,-121,25,4018,1593,2551
-91,-33,62,1703,5449,3751
65,-18,92,3929,3332,5224
-76,34,-4,2296,6390,5713
-27,-34,0,-2167,5937,6582
-87,-56,-94,2268,1055,7937
-51,96,-124,-139,-1320,6190
-34,12,15,-4092,3234,329
-24,24,-78,-1201,364,1892
-17,38,60,-407,-2020,3246
-96,25,101,8184,-2131,814
-100,4,12,-1381,859,-2467
70,-103,-29,-3070,657,-1308
34,69,-78,-1924,859,-1180
27,50,-91,-365,317,-231
33,88,-107,440,123,597
53,-105,-95,51,-235,287
113,-84,-73,-221,-78,276
119,-67,-70,-212,-197,90
120,-49,-52,-437,-128,-219
123,-41,9,-219,656,-311
105,-74,-33,447,-431,149
121,-58,-59,-6,-36,150
-121,-52,-75,-21,174,-19
-118,-51,-89,-169,152,-49
-115,-61,-95,14,-136,62
-112,-48,-78,-57,11,12
-109,-51,-78,112,-20,63
-98,-36,-66,-32,44,29
-96,-28,-54,0,32,4
-92,-32,-68,-44,-20,-13
-84,-37,-81,-85,91,-31
84,-14,60,2546,-4981,-7818
-51,122,-37,-5518,-7579,-9471
115,5,-3,-2747,-8790,-8189
-87,127,-38,-3728,-3250,-5028
100,55,-51,-1688,-3824,-2893
-25,111,-43,-651,-2976,-517
66,22,49,-774,-2901,2861
124,29,-98,5021,2735,1489
-120,124,27,-790,5945,2888
79,-53,89,2934,4850,4955
53,42,-11,2755,3744,5165
32,74,-34,596,3808,6293
-95,-80,-102,-2856,6177,7489
46,74,-98,5726,-3371,5015
74,-46,103,-5012,2552,4875
114,97,51,-1849,1941,3682
-116,73,-85,-2321,409,4247
-32,30,94,9312,-2712,1398
-115,105,69,391,-933,-3677
91,124,38,-4407,1958,-1674
54,62,-63,-2776,1344,-1538
28,40,-99,-140,-495,-267
33,63,-115,796,120,450
76,-113,-64,-21,-382,113
104,-73,-25,-956,-204,-230
120,-90,-26,-881,278,-418
119,-103,-37,-118,51,11
101,-74,-56,46,-67,143
110,-54,-57,32,-70,115
-125,-48,-56,-45,53,126
-114,-40,-69,63,-72,80
-109,-33,-56,-1,-102,-100
-110,-41,-47,-1,8,-81
-107,-57,-51,267,11,53
-111,-53,-64,160,-21,125
-101,-44,-67,34,42,124
-93,-38,-77,60,9,79
-87,-38,-78,-6,27,52
-82,-37,-79,33,-29,48
-81,-32,-80,2,-51,8
63,-103,-88,2177,-4692,-7932
-70,-101,-122,-1752,-7227,-8809
109,14,-90,-3551,-7656,-8421
-72,-48,-62,-3107,-3220,-4271
41,-117,29,-1624,-3471,-2850
-54,-75,46,-1521,-2239,486
85,-5,-121,-466,-104,780
68,-96,61,1362,1486,1727
-12,48,-39,2361,2963,3033
34,36,1,2948,5338,3895
9,110,106,644,5705,5186
-53,19,-41,641,5220,6434
-111,-76,64,-767,2233,8537
-77,60,14,-3773,2667,6162
-67,119,65,-3703,-753,4939
-19,62,-26,-3336,1408,2661
-66,-35,16,3984,-4706,2530
-56,-74,-52,10210,-2620,1892
-84,-60,95,4059,-555,1123
37,76,102,-2976,-765,-711
-11,-90,27,-5088,2093,-2004
40,35,-69,-3015,1857,-1498
34,43,-97,-449,-19,-190
23,87,-81,-246,72,-313
62,98,-61,470,-451,-129
85,117,-29,24,-320,-238
91,-84,6,-1940,440,-761
87,-92,30,-1348,334,-435
80,112,4,923,-184,460
92,-87,-43,1067,-438,508
107,-68,-52,566,24,357
125,-51,-62,-260,198,185
-111,-50,-80,-430,230,193
-120,-50,-89,23,-211,57
-119,-45,-61,167,-248,-27
-112,-42,-13,194,206,-165
-117,-61,-19,184,27,85
-112,-61,-53,165,-99,84
-100,-54,-58,-3,8,-43
-98,-64,-71,12,32,-17
40,-39,37,622,-4179,-7864
-89,-118,102,-726,-8744,-8698
104,-120,29,-2292,-7156,-7033
-32,51,-6,-4114,-2535,-4305
62,64,-105,-2397,-3079,-3284
-67,70,118,2038,-3635,-1187
-54,41,-86,-13,-4354,1422
-1,-27,-84,-2093,6996,439
15,19,13,3187,2075,4159
115,-4,-13,1921,5225,4845
76,-4,30,2905,3898,6791
45,103,-78,-1877,5143,5913
-115,6,27,-1642,4528,8352
12,-50,-6,3908,1092,7184
33,-103,57,3462,749,7009
-111,56,-66,-2044,2632,2698
-31,-116,103,-2232,183,582
53,60,-105,-1243,-1784,-704
9,-49,25,5532,-1590,-1323
-19,29,79,-1989,1153,-898
-43,115,-42,-1778,174,-172
48,-122,-49,-1085,158,-388
68,-92,-67,-1288,556,-750
87,-108,-94,-1521,738,-864
76,-80,-77,-2529,251,-1036
88,-82,-20,-1484,1030,-260
77,-75,-17,618,-626,378
104,-18,-58,222,-237,413
-119,7,-45,228,-261,319
-121,37,-49,-151,-63,13
-123,35,-58,-487,198,-184
-123,16,-52,-149,27,-49
-123,7,-60,-32,42,-19
-117,15,-55,36,-52,-40
-99,5,-51,40,67,-47
-102,-1,-68,166,-64,-17
-101,-5,-58,220,-66,48
-87,-12,-54,500,-159,163
-83,-7,-65,132,-16,144
-89,14,-45,-254,16,58
21,25,70,5287,-1020,-3865
49,-8,-93,4570,-5640,-8125
-51,-54,-106,-3326,-2899,-11533
-16,-52,-107,992,-10833,-10306
124,-23,-119,-3074,-7033,-7566
92,-81,63,-4132,-2842,-3960
117,71,-45,-418,-3768,-1943
-67,-7,-106,-3112,-3949,1286
-116,-6,-76,1303,1621,466
34,13,-9,1047,3403,3164
-121,43,72,666,3489,4361
-111,29,127,4404,2705,6009
-62,97,41,-1309,6665,5936
-108,-127,57,-2208,5050,5789
29,24,-38,-474,642,9963
-120,111,1,-353,1857,5704
-112,-56,102,704,-3482,5573
110,-6,24,-1578,-3650,7520
-58,111,-24,8679,730,-1341
-23,121,-71,5667,-1747,-3515
-40,-53,-123,-3908,-609,-1140
-86,44,20,-5377,4258,66
-65,41,-68,-1128,316,-1214
-14,25,-114,1192,-946,242
16,95,-88,-648,1376,-342
71,-111,-47,-1546,288,-721
75,122,-24,-487,-760,-382
80,127,6,-755,1094,-402
65,-127,-58,140,50,38
70,-116,-58,937,-594,406
100,-84,-39,857,-190,457
107,-65,-45,458,-247,263
119,-57,-53,-138,265,39
127,-79,-68,216,8,-8
119,-87,-61,504,-41,-23
122,-80,-39,104,84,-59
125,-98,-45,207,-6,78
-125,-97,-49,306,-91,114
-113,-92,-55,201,-28,77
-106,-86,-51,75,23,42
106,-27,120,3964,-3487,-6075
111,-29,-42,-456,-6785,-10225
-120,73,-99,-1251,-11212,-9651
56,21,-101,-2850,-5359,-5343
81,-92,25,-4556,-898,-3946
-109,49,60,1081,-3208,-1523
-86,-93,-64,-2291,-3259,1902
127,-30,-21,307,6303,-837
124,-119,-105,3097,-362,3830
-68,-44,-83,2286,6008,3668
-39,1,-109,42,5982,5628
-89,114,-68,2457,5246,5956
-16,-72,-11,-5312,6286,7201
42,109,87,3295,52,8132
-9,55,38,-3583,1956,6531
53,-78,-80,1951,-1852,2452
10,-70,18,-2206,326,3114
23,-47,-66,-1656,-932,1247
43,22,-111,7642,-1359,-1659
39,113,12,-1386,85,-2268
13,83,-34,-2794,1197,-658
30,72,-64,-238,-52,-262
33,106,-60,128,-416,408
69,-71,-59,-1259,738,-145
83,-54,-62,-1193,245,-539
104,-71,-27,-714,419,-478
107,-78,-25,-376,325,-189
96,-80,-56,73,-47,44
100,-63,-45,213,-238,229
126,-42,-40,491,-151,266
-115,-31,-56,289,-80,174
-114,-19,-62,-65,47,-40
-113,-32,-54,-43,20,-115
-111,-43,-40,17,91,-14
-113,-45,-49,105,-28,43
-101,-42,-49,78,7,47
-94,-40,-55,54,15,14
-88,-41,-58,42,-20,66
-88,-28,-48,-87,5,50
-86,-22,-47,-87,48,28
19,-10,-58,9479,-6649,-8641
-50,27,56,-3238,-1405,-10774
-63,2,104,1134,-5321,-9658
99,-12,-24,396,-6283,-7537
122,104,124,-2500,-4314,-4719
-68,97,-21,-1282,-1590,-2557
-125,-7,122,1424,-3373,33
79,42,-34,-3302,7929,301
-3,127,-94,5174,-998,3466
109,62,-90,-443,5112,3296
70,8,103,1782,3934,5227
61,46,98,2314,4109,6088
-124,55,-50,-797,5267,7525
118,-12,73,-341,446,6235
-24,119,-96,-3651,311,6972
31,-45,120,-939,1322,4390
-49,126,4,434,-1549,3330
-126,2,68,9647,-3572,3019
-70,15,-87,374,-2042,-3715
127,66,91,-6651,3902,-3572
83,40,-115,-4146,3695,-1880
15,15,-121,1149,-1603,-349
7,-7,124,2218,-1117,922
50,-114,-54,-658,216,452
94,-47,-15,-1874,-292,-39
127,-34,25,-1092,870,-513
108,-80,30,742,-422,-157
101,-76,-31,-13,47,32
102,-62,-61,110,12,85
117,-58,-82,-114,243,101
-128,-55,-106,107,-71,179
-118,-41,-86,115,-384,223
-112,-24,-39,520,-137,-5
-102,-15,19,166,264,-37
-110,-39,-41,-11,-103,38
-102,-47,-53,85,-19,-27
-100,-57,-71,85,47,65
-101,-53,-83,47,-48,79
-91,-44,-70,-57,-63,114
-86,-9,-32,-190,96,27
-72,-7,-3,3541,-3885,-9532
5,-92,94,-471,-6244,-10889
-125,-2,26,-2977,-7713,-7896
90,11,43,-4581,-2869,-5703
107,-78,-43,568,-3528,-3443
-10,106,65,1970,-6486,1190
77,3,-41,-1987,5694,807
27,98,9,3918,958,4431
-23,58,78,88,5316,3659
45,-88,97,2487,5564,6599
-102,-80,-4,876,5061,6446
85,-111,-107,1378,2082,9235
70,21,-122,-12045,5647,6555
113,-60,-90,1604,-1836,5919
27,12,67,3138,-3186,1714
60,43,88,1718,-515,829
-114,7,23,2245,-954,1182
72,29,-62,7565,-2603,364
27,66,-80,-2293,-135,-1446
10,80,24,-3335,2078,-666
8,24,-64,-1929,903,-660
36,68,-63,-1403,173,-159
65,99,-74,-1388,672,-330
84,-126,-54,-383,-175,-505
95,120,-29,-343,224,-609
98,123,-31,-429,94,-422
90,124,-44,-401,-116,-28
96,-128,-47,122,-64,237
110,-103,-52,795,-400,490
127,-81,-56,483,-150,390
-116,-63,-57,192,-109,174
-111,-57,-54,-16,82,-80
-118,-76,-70,19,95,-42
-124,-85,-76,150,-63,61
-117,-74,-73,18,-13,107
-112,-63,-73,48,-14,-3
-98,-65,-71,-69,37,-14
-97,-67,-72,-102,37,-21
-93,-68,-71,21,-6,11
-88,-67,-76,-28,20,21
-25,10,113,3382,-5161,-6496
-40,-53,-29,-1913,-5278,-10505
75,76,-112,-2786,-10061,-7923
-49,43,-18,-4438,-3367,-4138
57,37,83,-2417,-2432,-3964
-59,111,46,-1440,-3649,223
69,-69,-80,1035,-3550,1840
-96,13,-117,1962,4664,694
-67,-31,49,4099,885,2830
51,18,-31,1167,7370,2881
-99,37,61,4712,7110,5909
80,-128,-26,-588,8242,4972
30,38,-82,3013,46,8237
-67,-107,9,-8829,5680,6212
-39,-36,107,2209,171,5410
53,105,56,2122,-3150,7725
-25,47,2,-370,-3008,-391
10,118,-110,-1331,3723,-4810
76,-70,59,-2354,-809,-1893
4,41,-119,-1119,-1035,-1057
12,12,-110,-1869,1978,-249
31,45,-124,1623,-206,707
44,114,-84,570,-886,656
72,-91,-69,-1557,389,253
102,-66,-47,-1156,-245,-59
106,-68,23,1063,-749,-132
105,-53,77,362,529,-41
91,-80,-60,56,-284,120
107,-70,-68,-434,217,-184
124,-79,-92,-377,437,-141
-128,-91,-108,-9,-14,69
119,-74,-97,121,-411,74
-119,-47,-45,-224,-25,27
-119,-51,-25,402,46,71
-114,-57,-51,406,-58,181
-104,-43,-69,0,53,76
-100,-45,-85,-82,87,-35
-103,-57,-95,-21,-26,6
-94,-50,-78,-143,43,18
-87,-44,-68,-143,105,-2
