AccX,AccY,AccZ,GyroX,GyroY,GyroZ
99,112,-93,3266,-1728,-5111
20,30,77,2829,-5435,-12704
-96,-116,-39,1024,-2292,-13448
92,-76,18,3429,724,-5541
70,104,-104,-295,2390,10989
-11,121,123,-10257,5441,10584
-121,0,-87,2429,1223,2383
-91,92,-77,-2597,-6898,-14204
-90,-88,-55,4247,-979,-9247
-94,-44,-106,-2167,3285,10081
40,-3,24,-3992,1813,11024
67,114,46,-1794,-223,-8460
97,115,11,1897,-5549,-15762
65,25,-79,-2843,-2703,-13181
94,4,-110,432,905,-7802
-21,98,-20,723,2135,908
-58,-89,86,-2958,819,8805
51,68,125,-46,-6852,15153
-56,100,43,314,5001,2708
67,86,3,-4744,4646,1773
106,-25,-2,335,-2377,-392
-78,-33,-16,1293,-5949,3349
-69,-126,-13,-39,-1055,5605
70,23,21,2223,2851,11071
-119,-67,-14,2427,4927,7718
87,-44,96,-2419,-1405,5395
-48,75,34,555,-6274,3379
-65,55,-46,-1017,7398,-4130
-44,26,17,-2166,-296,149
30,33,-102,-1660,72,-1605
41,72,65,-1388,-1487,-2481
-111,47,-55,-3195,1798,-308
-103,67,118,-1107,902,648
-107,-89,107,-1050,450,-162
-98,-75,109,-775,361,-640
-85,-98,-125,-83,-69,-362
-72,-91,-116,-402,278,-246
-100,-94,110,11,221,-165
-107,-106,95,163,-24,-154
-83,-109,109,-318,-69,29
-22,-18,-40,10725,-2888,-9290
-55,-111,35,-5298,1447,-13572
61,90,120,1022,-1314,-13456
-110,-37,-101,13319,-3899,-7959
114,115,-57,-4920,7826,15734
73,69,-121,-9820,11085,10400
40,31,26,455,-5793,-14689
9,-7,112,-6962,10617,-7427
-103,117,-35,17428,-10665,-3589
-1,-47,-13,-9648,12799,10990
-18,6,-48,-8433,1256,12652
17,-90,-93,5150,-4301,-7446
115,-45,-31,1327,-3410,-13285
-75,1,16,-5420,723,-10112
113,113,-121,-2455,2372,-11650
-21,-15,70,4756,-1485,-2847
112,52,-124,-2234,1857,3122
-86,-122,-86,3373,2002,12125
10,23,79,-4855,2676,12515
106,-76,15,-5165,4347,5386
-33,55,15,-8303,3771,2716
-33,64,-51,5770,-3158,-877
44,-31,-9,1896,-4751,193
86,-128,-90,69,-2467,5343
81,80,-121,-1801,-34,7764
64,-115,-69,906,-869,7471
83,-54,-114,1359,-1580,3677
-65,-14,-61,956,3193,1066
-90,-97,95,-763,-2891,605
-84,68,-19,2189,-9467,-1343
-39,85,-27,-1004,5956,-1632
-40,56,-31,2674,34,-439
45,-118,-119,-374,752,-1224
83,44,49,672,1064,671
82,-112,35,-1617,995,94
92,-88,29,-2044,341,71
-128,-92,36,-777,-22,349
-95,-29,71,-1074,139,274
-97,12,70,-1324,27,74
-108,24,65,-889,-155,-145
105,-54,69,8332,-2459,-5895
-7,-89,29,-1614,1933,-12651
-66,-83,-89,-4335,2498,-11786
-20,72,76,10583,-3744,-11755
51,75,-35,-3665,2700,17675
-73,55,-15,-7294,8818,9734
-67,-89,87,11518,-12401,-10628
100,-6,-13,-6639,9063,-12612
96,-4,68,7268,-7765,3606
49,-128,-59,-4982,8609,10209
-109,113,-37,-2487,3539,12782
89,98,5,8380,-5187,-7732
47,-44,-40,-3693,-2232,-11887
59,-13,111,-3742,-1717,-10874
90,47,28,-1995,-288,-9915
67,-7,109,5729,-2570,-4273
-124,78,80,-773,525,6767
-50,-86,-70,2626,3902,11474
121,111,55,-4330,1469,9236
83,-14,-50,-12774,6894,3973
69,-19,57,-2490,1872,-2743
-111,-102,111,8011,-6800,-376
-52,-65,-23,271,-4972,4087
-116,-122,-45,242,-2295,7980
67,69,-124,1461,457,9468
-124,80,75,-553,2383,8746
-87,96,-45,5183,-6044,3656
-98,76,-115,-8780,-1363,-511
55,122,66,9789,-102,-1924
76,-68,-121,-4632,370,-3527
30,53,19,-3511,3249,-1377
41,90,45,1092,-715,-552
45,-121,77,-462,-186,-678
85,-119,34,-1600,1599,-406
96,-60,48,-862,-425,-356
117,-18,80,-1879,-15,-530
-114,27,79,-2426,836,-839
-115,30,87,-1720,334,-834
-128,49,99,-1700,533,-537
-122,62,117,-913,249,-218
-117,124,-69,5043,-818,-5497
-12,101,70,2486,1404,-8762
-26,66,65,2562,493,-11029
-78,-25,37,-3375,-6742,-8926
-106,39,-128,7262,-1056,-776
27,-57,-66,-4270,2539,9751
56,-70,32,-3269,3920,10846
-79,-17,-120,1425,14,-6637
-115,-107,57,-6388,2120,-9734
-127,-29,-118,3278,-5684,765
82,-117,-99,-557,5427,4645
-41,-76,-127,-5931,9185,10130
51,-95,-65,6283,-2356,-2196
28,-23,-110,-1859,-5898,-7561
118,-54,-35,205,-6666,-12071
-67,23,43,-4962,-3181,-10274
89,32,101,1761,-573,-6496
-27,84,107,388,-832,-607
-54,116,-5,-247,1520,3161
-6,24,-108,1837,1673,11724
-119,-120,71,4155,1921,9079
20,75,-52,-17356,11360,676
-97,101,-42,6901,-8355,-4515
27,-84,-108,-1559,-5247,1780
-62,-46,-49,-374,-4169,3322
11,37,-48,-4320,4159,5391
-76,-78,117,2868,-1082,8367
-22,20,3,-243,6180,5983
-98,34,-30,-138,-4442,6302
-112,117,9,120,264,3843
73,-88,-19,1605,-6491,936
108,-43,49,8386,1538,-2091
-68,83,-117,-3754,1280,-1853
-33,-37,-66,-2384,2014,-294
-6,81,69,-829,275,-1435
24,38,85,242,-481,-1174
52,15,74,-1075,1099,-187
84,94,85,-1121,-92,-247
85,-116,99,-1147,-469,-464
89,-74,-118,-2737,369,-1083
-60,-80,-81,-1168,4800,-12503
-20,-29,-24,13,6000,-11825
39,-60,24,2186,3498,-11333
63,-109,63,-9917,3887,7473
-30,-110,38,-1002,-4367,17514
27,-99,50,3749,8349,-2245
-39,-9,-27,-1247,-6901,-11703
-85,-24,-124,13376,-12753,-6945
-6,-56,24,-2216,11320,17658
-17,37,76,-9365,7316,5850
121,18,0,20131,-21671,-7269
-74,94,-55,-12244,-4647,-16659
3,-108,-95,-1189,-12083,-7956
98,-66,-51,-12517,22702,-4180
13,-115,-62,3414,-8574,6451
21,52,-71,1087,9292,11819
-108,-44,-4,2637,-806,11637
-119,94,-120,-14815,15150,3735
108,-61,94,1455,-1466,-8527
25,123,-73,-389,-4683,-2790
-63,-94,-52,3530,-7683,7260
117,47,18,-3563,2462,13408
-36,50,-104,-4821,5155,9077
-124,62,89,2889,-7167,4644
-117,123,-57,4688,-5320,1146
-113,-2,52,7776,1735,-2458
94,46,-27,-4443,1537,-2810
-14,35,-74,-108,207,-212
26,121,67,-1954,1908,-611
78,-103,72,-847,92,-157
105,-122,53,-128,481,98
125,-24,81,-1401,203,-738
-121,2,120,-3097,501,-1276
-112,-21,119,-2252,682,-696
127,-11,-127,-623,55,-130
-126,8,123,-45,163,199
-107,39,113,544,-336,357
-96,50,98,571,-190,206
-89,46,90,533,-260,29
-91,38,92,102,-262,6
-112,7,69,1573,2751,-9103
72,73,49,4727,-1009,-12727
-99,-80,-23,3054,-56,-11933
42,78,-19,10568,592,-8656
104,-9,-14,-12523,5222,15187
-55,-56,-74,-6954,780,12087
-108,-49,55,6738,-9412,-7590
84,32,3,-2651,7885,-9018
73,-12,-113,7969,-11281,-5269
-63,116,10,5169,936,9475
-95,-5,40,-11191,11884,6610
11,-91,124,1563,-2470,-9563
-49,46,52,-784,-6143,-12003
-89,-57,-97,1399,-4108,-10748
-116,124,99,-5002,4493,-9008
50,34,-124,4896,182,1349
-75,116,-40,-829,-306,5074
-54,23,12,4817,1495,18166
-70,-9,-91,-7325,15693,21
5,76,-38,-6416,4131,6508
-1,45,84,6744,-14548,-1835
10,123,-96,-8851,4174,6257
-15,-22,-92,-5216,-2284,2779
-23,124,46,666,-916,6524
87,55,25,1099,-1102,6507
-24,-6,52,4819,-3479,2767
-18,-61,-108,-4321,2397,4246
123,-53,86,-5814,-4184,-1016
-85,-7,46,1813,4677,-2691
49,-108,-63,3155,-60,119
-21,116,-68,-952,1917,-984
68,96,54,-317,-611,-320
94,64,48,25,621,400
122,-123,24,-908,807,192
125,-69,36,-1795,-390,138
-99,-32,62,-2249,6,11
-78,30,89,-2245,99,-300
-112,59,97,-2087,144,-869
124,54,-97,-777,-768,-489
127,12,5,903,865,71
-59,51,-72,4803,-924,-6577
100,15,-75,1975,1824,-10718
-2,68,-76,1112,1575,-12102
11,71,-49,-688,18,-11220
-24,105,80,3047,-1319,3435
117,126,-73,-10186,1638,16708
8,-1,104,5883,-864,13254
87,-70,-73,-1692,-3920,-11606
-96,-69,-62,-1758,1077,-10278
-18,-5,107,3255,-10197,-7452
13,64,-106,6074,5698,7200
16,-38,91,-10625,13749,11525
14,50,-125,5997,-7760,4745
113,-49,-29,-2763,-287,-11153
-103,-55,76,-1208,-9102,-14536
87,-11,68,-7985,-2638,-11036
-125,-110,6,6811,-1754,-7592
-102,-47,4,1845,-1781,2815
-24,41,118,2446,3265,10373
-24,-56,-30,7102,6446,10764
13,-48,-82,-16256,8925,6343
114,77,35,-6482,6257,4213
-122,-20,-88,-1174,76,-4849
18,102,-29,6842,-7626,1785
-93,-110,67,-2873,-1987,4688
-108,-97,125,469,174,6256
112,100,-56,3845,-1592,7687
-61,119,-109,-381,35,5586
41,82,21,652,-202,1593
79,66,32,-2369,-2466,1207
-30,114,2,7752,87,-1578
96,57,44,2103,1014,-1652
-21,72,46,-2765,1682,-906
14,17,-11,-3796,2521,-722
45,19,4,-579,19,-392
13,59,29,-33,-730,-142
57,115,85,-895,-251,15
71,-102,97,-951,-564,194
93,-51,111,-2086,295,-226
86,-15,101,-1870,-157,-364
-54,-123,45,4142,-2375,-10538
13,-47,36,45,-2356,-11458
-60,127,86,1462,-2560,-12014
-2,-117,-109,8368,-1541,-5013
86,-104,-82,-7753,6830,15185
-89,16,102,-8169,5183,11534
34,106,-17,13765,-4099,17573
-94,-60,-100,-14036,4313,-12095
-51,-22,-78,-2008,-5531,-11308
37,-3,-99,-622,1245,-9808
114,-60,-86,7220,-2307,3563
51,-55,-110,-4621,10575,10525
15,115,-61,-4836,4067,12020
-97,7,54,21392,-13840,12663
79,39,-105,-8585,-4130,-7350
-127,124,55,-3717,-2287,-14757
-63,103,65,-2628,-8411,-13683
-2,-23,-87,-3525,1633,-10983
2,10,-98,2099,-3017,-8884
83,60,-36,-332,-59,3171
-41,83,-112,1608,1031,12222
-7,9,-96,3226,-3018,12134
61,-7,56,-14022,14432,5336
-120,61,42,-217,8896,-163
-114,102,28,2931,-3170,-5063
-117,89,10,-2187,-9711,4157
-78,41,-3,486,-7109,4590
38,27,-18,1325,3577,4894
-2,-69,-89,2974,296,9216
-106,-75,19,-231,6621,6913
8,49,-6,-5028,-3963,3620
92,64,71,-2343,-5883,1648
78,47,-62,8992,668,-2597
66,-118,-84,-4203,1309,-5007
72,2,15,-3103,4164,-1532
15,-29,-30,3276,-1129,643
-30,64,63,2237,-1707,-27
0,88,61,-1233,873,-175
76,-113,73,-2691,820,-146
90,-81,67,-2356,-82,-201
-22,-80,-8,4524,-2936,-6698
34,-101,-103,-922,4085,-9646
-4,-30,21,-1656,2506,-13462
103,117,-52,1445,-2646,-11616
125,61,96,9672,-7886,11934
102,-119,94,-11505,11760,10922
12,-83,-13,11496,-3712,14993
-24,-21,123,-2920,-8578,-16220
71,112,46,-3464,6233,-11592
-123,-113,14,1664,118,948
20,-24,-117,-366,4882,11655
124,30,-33,-4968,1856,12806
-128,-121,93,9905,-244,-7447
10,124,-68,-6734,835,-13607
-54,-45,4,-476,-12190,-10546
-118,-117,-64,455,1119,-10039
-95,-98,35,1897,-2218,-1753
45,-1,101,-3237,-357,6924
-51,16,-66,11831,-518,8987
124,-91,123,1839,6269,5651
109,-61,-47,-10337,8472,5895
123,96,-90,1676,39,-2228
-47,-9,-41,-497,-1520,-691
54,54,-66,-452,-1701,4561
117,114,-104,413,-3145,4121
0,52,-93,-1485,1466,4792
57,-124,-103,-1899,-994,5974
-16,-96,-24,-1859,2327,3398
44,21,-81,2169,-1296,3192
28,-26,101,976,-250,2873
34,-43,38,254,-1298,1409
-76,-63,96,-1551,-1443,237
2,-2,-75,2772,1246,-1563
85,3,4,2151,-931,-813
22,96,51,-939,536,-949
34,86,85,-1063,521,-1120
63,58,82,-1010,842,-874
90,85,59,-1599,854,-183
94,-120,52,-1414,274,-182
100,-86,72,-635,-282,-61
-11,87,102,4401,780,-8490
-4,-99,-68,3721,-545,-11659
-62,108,111,-2978,2482,-12195
98,-42,-41,3176,73,-11808
-16,98,-75,920,-1352,14983
3,118,-61,-10846,6246,15375
-83,12,3,2127,3349,1424
-7,112,-53,2805,-2562,-14457
-128,88,-49,3751,-6342,-9531
-24,106,-25,8902,-1865,8298
-47,-47,119,-3784,12818,6337
47,2,-96,4215,-6599,14002
-81,-51,-27,-6195,-4228,-12427
-107,-92,-13,2303,-5919,-12841
-25,110,51,-7735,-326,-11821
-101,-16,63,6831,-1242,-9316
-28,-20,42,-3889,76,-3418
116,49,-61,669,-1387,2125
31,38,37,7233,1387,10492
-31,78,-123,6899,3985,11257
98,-7,57,-9737,12971,503
-14,117,115,2321,935,2519
37,-48,-20,3938,-10128,709
92,36,68,-8790,4723,937
39,82,-70,-560,-2052,3687
75,-31,66,-1192,2780,5833
-67,127,82,-3746,1983,4009
41,68,-124,237,-1618,4947
27,-6,118,2851,63,4718
116,64,31,-40,-1333,3136
-26,-28,-10,-2959,150,1657
9,77,53,6689,-10004,2054
5,19,-110,-1910,9880,-2252
92,103,126,421,-941,80
-21,107,0,-2163,1224,-1543
27,59,47,574,-851,-1076
47,31,75,744,64,-465
18,61,57,-396,327,-285
53,103,82,-1473,-289,230
86,-72,98,-2588,208,335
-24,-29,-6,4818,-151,-6185
34,2,-19,277,2724,-12895
-17,79,-41,92,-1436,-14858
-113,-22,66,3739,825,-4799
-95,-102,-87,-5988,5270,15687
-125,-12,102,-1669,-5391,17157
116,-52,68,5716,-6530,-15836
-43,88,48,-4423,1809,-14061
-98,83,21,1618,1492,-3128
56,-21,-86,-7490,6752,16183
60,-113,94,3627,-7450,10941
90,-60,32,2546,-231,-11355
63,-23,-96,-788,-6885,-11995
29,95,68,-4230,-5317,-10124
102,-43,98,1081,3000,-8566
101,9,-31,4574,-4860,572
19,-9,42,4205,693,6205
-22,-2,-6,6385,6824,9655
-53,73,77,-3424,10896,3761
-104,-42,18,-13737,3774,2978
74,-7,57,4966,-5345,-734
-6,33,-59,842,-1233,3056
-27,66,-1,-2453,-5792,4025
84,2,-46,-5090,3857,4683
-41,-55,-42,-1386,-703,6525
31,66,-81,3488,-2236,6372
1,-30,-88,-1543,1356,3406
-128,-94,79,-1764,-608,1635
92,-67,-72,500,-3207,1568
72,-126,-119,14436,-4850,-389
-79,39,-89,-1820,1811,-1553
18,102,40,-1542,-107,34
6,108,11,-1433,1864,-764
9,70,-25,365,477,-983
85,74,23,-585,114,-420
97,108,57,-583,-454,-345
106,-111,92,-1304,-177,-577
113,-92,99,-1434,-107,-652
90,-25,-114,-2900,324,-1061
105,-58,-121,-1196,84,-93
90,109,35,3387,-102,-7295
33,119,-76,974,-4733,-12823
-29,77,8,1146,-2187,-11200
-69,120,-128,2540,2768,-7669
36,49,-78,-408,5254,12217
-55,-22,-79,-11681,11502,12205
36,-53,122,10249,695,536
-115,-95,42,-6565,-3608,-9802
17,82,-95,3725,-2940,-10549
52,-79,-98,4427,-4376,-32
-12,89,-95,91,5746,10932
-123,2,-127,-4510,3445,12540
-10,-9,113,4500,-3613,-8961
76,113,-114,-6809,-1858,-9717
-125,-63,-3,106,-8933,-12737
-8,20,55,-4726,5153,-11041
-113,10,-59,3916,-3918,-5640
-75,121,-120,-1311,-337,3428
66,70,75,2729,3977,11171
-110,-4,12,1435,634,14970
4,125,85,-10300,9743,2649
-108,10,-26,-8833,11930,-2478
-105,-83,-94,7921,-12418,1502
106,61,-30,-3381,691,3214
33,-36,-49,-1609,-572,2377
-26,86,76,-104,-1946,4936
64,101,9,-1399,83,4385
13,85,-91,472,-1367,4446
107,68,-123,-657,1128,3651
-41,-16,89,-1373,-714,3135
-123,23,79,-3884,-1302,2080
-125,37,-35,13783,-6546,1991
1,34,78,-1951,3116,-4047
-1,127,-100,-1357,41,-1415
84,-107,52,-3689,2287,-1737
65,70,-3,862,-455,9
55,111,13,528,74,128
64,-77,48,-120,-349,71
92,-69,77,-450,-469,64
125,-37,103,-1539,35,-277
5,21,-60,12569,-5072,-6427
-66,78,90,-2455,-2969,-9766
-6,44,34,-4850,-8213,-10556
12,-56,-74,-4004,-827,-9916
2,33,116,10275,-6479,4803
100,-81,-92,-5103,10917,7479
-114,-96,-1,-6098,9339,12609
-118,-53,55,6994,-10878,-10289
78,-29,35,-4979,1821,-8742
-63,0,98,517,-5417,-9058
-18,-36,-32,9733,-957,3568
-76,24,123,-7778,7612,14460
-110,-2,49,-1546,-175,9935
47,-112,-90,692,-3779,-11055
78,-76,78,-3091,-5030,-10929
68,75,-4,-4652,958,-10299
-125,-69,-29,794,-369,-10303
39,41,-73,-764,66,-5874
53,-15,49,8905,-4519,2440
-86,-41,106,448,9729,11197
65,-45,-98,1718,2021,10026
125,-33,25,-7785,8403,4842
15,41,-3,-7793,3245,-454
24,-113,-60,5651,-6357,-1009
71,86,58,684,-3373,4111
-51,-33,83,-2935,-1856,6078
35,66,126,-468,1344,6004
122,-99,-28,708,497,6132
-64,-50,83,1726,-2988,6257
-10,118,96,-4423,399,2391
75,57,-24,11719,-7594,2922
113,-57,111,-1242,3766,-4987
-77,89,-116,1057,-821,91
-54,112,32,-2999,2257,-1392
-10,92,28,-679,268,-751
24,54,9,-21,623,205
37,-124,32,195,-570,455
38,-58,69,-1469,-638,-30
70,11,-114,-3239,-133,-309
118,77,-14,173,-697,-530
-54,21,-101,452,-2134,-10708
-44,-103,-66,-2498,-511,-13757
-116,-41,105,1178,-4486,-12249
44,78,45,3359,2413,-6218
-31,-18,122,-4576,6467,14367
-74,-30,67,-8030,3416,13747
-25,-16,111,9544,-13117,-5036
-74,-121,34,-2263,-2203,-9838
45,-68,-47,-2999,8879,-8116
55,75,74,12620,-8604,1052
-81,-58,-97,-7022,8651,14125
-123,80,-40,-3795,318,12762
-110,68,-40,-2718,-4474,-3924
-31,1,120,998,-2403,-10476
-66,-72,96,-6512,-1790,-10918
-73,18,61,-5299,5209,-13204
-54,99,74,2952,-3484,-10995
-108,48,117,-1819,1083,314
-10,-95,117,2664,-1189,5055
-56,-82,-38,345,4834,12521
-15,-114,-65,3436,1840,13335
-4,-121,-61,-7114,6801,3738
63,91,100,-1290,2262,-3018
-14,-7,-30,-347,-3031,-119
12,-9,-12,-473,-3250,2008
-7,-93,31,-1330,1351,3445
-88,-76,-84,-3340,-357,5713
-120,-12,-62,426,-1323,5052
-74,3,-121,610,-88,4921
-124,-15,82,1595,-904,4736
-75,-20,72,-375,60,3834
-102,58,56,-3120,-2057,1948
-92,-14,50,17976,-8053,3953
-112,-103,-6,-8442,3477,-5587
16,92,7,-2368,2266,-546
-16,53,36,-505,1710,-691
-19,116,93,1422,-1466,-793
4,98,86,-566,961,-700
69,-125,97,-986,723,-918
54,110,103,-242,-453,-1019
120,-1,123,4180,-4484,-7074
32,-46,80,-4930,-336,-7743
-114,-65,-98,-1458,-5768,-9416
13,-117,32,-3193,-2184,-11708
-47,32,24,9943,-6978,4016
65,126,-92,-8598,12349,12229
24,-103,49,11715,-16575,10188
104,105,119,-4789,1686,-13096
107,82,-109,1433,-436,-9335
3,39,34,8166,-4102,5192
75,25,-9,-9098,6029,11206
-40,66,115,4816,-7556,4950
16,-101,-80,3845,-2564,-9813
94,-80,-32,-7190,-1329,-12190
-12,-28,-70,-4595,-3956,-11794
-75,105,35,7105,-6500,-6299
59,-36,43,-6905,3098,-1335
92,121,20,4339,-264,2752
19,0,90,747,6630,9435
-88,50,-20,1172,120,14551
-43,60,6,-2200,501,3006
31,40,-9,-10686,8919,1395
70,127,78,2474,-1599,-55
-9,-113,-115,2204,-4055,3481
105,49,-98,-660,-499,3159
-28,31,77,-1175,-184,3611
-2,127,-106,-3074,1356,2936
8,-110,44,4403,-2146,5018
-102,-107,47,1246,551,2548
109,15,26,523,-1760,3148
-71,-48,31,-1044,-677,1756
-13,20,-25,9506,-6612,-2540
-52,112,8,-2641,5812,-682
26,107,18,-2125,1176,930
48,-122,41,-1411,456,-855
113,-93,53,-1568,1701,-856
73,-120,22,-924,819,-1199
77,113,33,383,-240,-773
94,106,86,782,-849,-227
107,-114,103,-6,-51,-36
-54,69,-67,4941,724,-4500
91,10,-93,4583,-2193,-8329
54,102,-98,-7582,1377,-11084
-85,73,52,4962,-4692,-11649
60,94,36,3224,-1693,1846
41,10,-95,-10550,6831,11708
-41,-19,-84,-4611,-1133,11863
-117,96,-109,6401,-1532,2887
57,-110,44,4208,-5500,-10040
67,74,115,-991,10,-9849
-105,-35,37,-3105,1445,-6244
91,18,-64,1332,2251,12094
-22,74,68,-8914,4227,11735
19,49,-11,5823,-7941,4693
25,13,-27,978,-456,-9369
-3,-76,108,121,-2503,-11447
-24,-93,-66,-4328,-5677,-12500
101,-67,61,2057,-626,-13759
102,95,67,-2250,-1574,-5232
-36,34,-52,4294,-3108,5518
14,95,70,478,6486,7310
20,74,-22,3669,153,13696
-84,112,49,-3178,10615,4809
118,17,-17,-10189,3292,1516
-90,34,-42,10564,-6336,1034
122,-106,-2,-1439,-2998,5390
-30,-26,16,-1506,1370,2623
6,-15,-7,-3343,4854,4106
-83,-102,126,1002,2481,5031
-28,-86,71,1780,977,5879
43,-86,-127,-3235,-391,5331
86,-92,-21,-4049,-4224,2808
8,10,38,11946,387,-3380
56,-102,-100,-5903,1888,-4736
112,92,-81,-5752,6109,-1633
35,42,24,-143,982,-666
20,55,-36,5033,-2765,205
21,54,30,1386,84,31
73,109,92,-36,-88,225
77,-126,85,-1884,466,34
-123,-83,-18,185,1077,-10031
-64,-43,-122,2196,1276,-12131
-87,-115,62,1760,6630,-11327
111,97,116,9419,-8884,-1193
15,-97,-63,-7532,6233,12850
-2,23,-57,-6626,4464,12497
-120,-53,-49,-941,-969,-4726
-1,50,-54,2095,2880,-12972
45,64,67,265,1461,-6787
-97,-48,57,4815,-1746,8368
50,91,46,-7567,5844,11572
-114,-62,-125,6343,-9121,5608
81,-111,59,-2889,870,-11596
-18,-53,49,-6198,-1086,-13868
-18,57,-81,-595,-4242,-11330
48,-76,-107,-1676,75,-6635
-65,-14,-36,793,1647,-1346
-29,-23,-51,4539,-4552,4918
-72,87,56,985,7271,10496
94,-55,13,-2494,5310,11926
-30,-70,-119,-4980,3908,6396
65,50,110,-4718,1213,-4067
-67,73,67,3155,-4404,-1163
71,-107,81,2811,-5348,2660
46,-65,56,324,-2032,4044
116,-70,-56,-3562,4237,5183
8,7,-29,1342,223,6096
-53,16,-123,-2317,3,5330
-71,118,69,-1798,-3205,4662
111,-23,46,7710,-8468,4016
62,101,-43,-2946,5415,-6568
83,-23,99,-3344,1991,-1724
61,13,-101,-3828,5048,184
17,-61,-20,2902,-3449,246
28,-110,30,760,359,-888
66,119,31,-212,1161,-556
101,-104,70,477,-1301,-156
114,-99,105,-1440,242,-521
103,-82,90,-1144,110,-575
90,-77,84,-731,-258,-395
-67,-58,-19,-1815,1793,-9311
-61,-125,-39,3019,-5184,-11986
-79,103,52,-3704,2305,-9225
-66,-40,-42,7466,2478,-4341
-28,0,-56,-8417,4018,15372
42,-66,114,-5695,-941,12821
-68,-79,-125,8198,-5080,-8978
28,124,-76,-6447,4182,-10043
-24,82,-89,10607,-6074,-3228
-44,96,-105,-6402,4489,8698
31,-51,60,-1032,3270,11739
-25,89,-43,4106,-5233,-3153
9,75,43,-395,-6271,-9888
93,-42,15,-4929,-479,-11910
-95,-37,39,-6441,382,-12156
103,-82,88,5036,-4418,-5481
73,-12,-109,-923,1128,-1363
-85,-31,99,5719,-1517,6466
63,109,78,2084,5719,10921
40,-13,-59,-1170,7321,10188
-27,34,-110,-13932,9143,7134
-112,-16,-73,5267,-3304,-8075
82,14,-52,7599,-11329,-1038
24,-26,-63,-4585,-472,2630
-37,15,-84,-1402,751,1926
64,-123,-121,2167,-2531,4983
107,12,-60,102,667,5128
-83,83,105,80,1391,4015
2,-3,94,613,-707,3331
-104,38,57,1965,-422,2885
-20,-46,54,1494,-1720,2241
92,-86,-90,138,-3803,2023
31,-16,-96,3860,2646,-3102
99,-88,79,-1929,1208,-21
0,83,44,-2112,926,-348
6,99,88,-2150,1046,-1278
39,60,68,-855,801,-658
75,70,78,-530,610,-197
46,100,68,525,-426,-67
58,107,81,396,-224,-115
-127,-102,-17,4567,-4152,-12122
35,-93,-86,-464,-442,-11791
-44,117,120,1264,-1806,-2625
-3,-88,-107,-526,4721,9070
-12,-88,-106,-8093,9137,10683
107,-97,107,6415,1518,6057
-112,49,-44,-3745,-8897,-12418
-46,89,14,2363,-940,-6559
36,53,109,6470,-3474,-134
-72,-119,-75,-6918,8148,12293
126,-39,50,983,-3059,12683
123,-76,57,1122,-4131,-9837
104,-62,-31,-1852,-2540,-12973
106,-43,42,-3203,-5633,-12247
-84,78,14,-2317,4475,-11110
125,-44,-29,2697,-1693,-4618
109,-41,101,-3744,702,3647
1,74,105,8879,277,11656
10,-11,35,5137,2133,9835
91,-61,13,-9994,12996,9390
-120,41,-125,-7609,2556,2730
10,38,25,1359,-1204,-6013
13,66,63,1873,-7394,-1643
-65,121,27,1601,-3638,4401
-19,-83,-42,536,-510,4451
-48,88,-68,-1767,1486,4075
-31,-21,65,2961,-1767,5080
-72,-14,-109,-2491,822,3637
2,61,46,-131,-723,2933
-89,-125,64,5176,-7277,1305
13,-108,-13,1055,4629,-4134
84,-112,35,-140,285,-195
-15,90,47,-3406,1814,59
49,-120,37,-2264,1389,-504
61,111,6,-230,903,-345
89,-117,2,-303,567,-374
91,-102,30,39,-865,-372
104,-106,76,109,-613,-247
127,-57,110,-1131,-350,-487
113,25,-94,-4032,662,-1290
86,-24,-62,3280,-757,-7002
-54,99,34,2407,-963,-10068
-70,101,88,-2197,-1530,-11366
-117,113,-83,-2471,-1034,-9722
109,109,-97,16054,-13291,10748
-35,60,96,-16682,22543,9149
122,-61,-72,7081,-13109,18451
23,-9,13,-4035,2655,-12971
-25,-59,110,-2396,-1162,-9643
-23,-119,116,-1160,970,-9072
7,5,-102,9024,-3800,5236
54,67,61,-7672,9743,12315
63,-46,-74,-870,-3723,16488
79,-67,102,17167,-4092,-7255
-108,17,113,-11040,-1271,-10724
68,99,68,-160,-7354,-11648
91,47,-18,-2817,-433,-12842
-69,-54,-90,1115,-4119,-10324
-99,-1,-116,-2216,3231,-2912
8,33,-10,3765,-2137,8547
34,22,-118,9010,1807,12691
54,-72,-97,-4259,11152,9259
4,111,90,-12665,3304,-4220
29,-46,25,2204,-4097,-5707
4,25,66,-4874,-3416,3045
29,126,-54,6277,-9114,3569
-71,-90,14,-3621,-3305,7800
-71,-78,93,2760,-2752,7932
52,75,-10,254,1443,4863
-45,26,-108,1688,-2370,4330
-121,-30,-77,772,-1862,3646
-92,102,-77,-1612,-3825,1910
87,-80,-92,16524,-6604,1165
-63,5,77,-8595,4481,-6160
57,6,-42,-2523,4015,-537
-96,66,19,742,-1301,-530
-64,-94,-114,-937,-2172,-1021
26,-111,114,-3614,2568,-571
47,-22,99,-3738,1662,-926
82,-48,86,-1214,440,-220
