AccX,AccY,AccZ,GyroX,GyroY,GyroZ
33,-18,-126,4812,4334,-5614
34,-15,-119,4925,-121,-5163
35,-37,-57,1795,3303,-7649
-50,3,-120,4693,2376,-5670
-121,3,97,-518,2751,-8498
75,-46,-67,304,3017,-7310
31,88,61,1766,1523,-4432
66,54,81,4371,-2760,-494
116,-33,-10,1508,-2061,61
-61,78,-35,1605,-671,1303
-27,-97,100,-707,-2816,3702
84,52,16,-2570,-2109,2833
16,-112,-19,-3149,-5971,4382
-43,-84,-31,274,-5511,5297
-4,-80,94,4057,60,-1079
-46,-59,-121,672,-1330,-1819
-81,-101,-99,653,-2026,-84
-19,25,-3,1063,-1718,259
124,25,-87,-976,-2040,184
101,36,-78,-510,-788,1235
40,115,-75,-859,-697,1790
69,-94,-118,1010,-1060,3099
-20,-40,-79,1528,-729,3866
68,-58,119,2815,-1117,4210
-67,111,-104,1287,-216,4401
-1,-12,7,-1573,-484,2968
-82,-125,47,-214,-273,3262
-119,-38,23,916,-766,3143
-104,-99,85,540,-420,3245
-38,47,35,1945,634,3327
-94,-63,-57,707,-485,2478
93,8,-44,-470,-496,12
41,50,-57,63,159,-1077
-14,-34,-99,36,-405,-454
-21,-37,-105,-923,-139,-447
6,-94,-105,598,62,-475
32,-83,-122,320,200,-412
40,-95,125,-133,-187,-437
44,-117,115,-60,-186,-583
36,123,121,-108,-68,-432
104,-66,-124,5793,3318,-4185
51,-28,-13,6331,3676,-5994
-61,47,86,3822,2383,-6695
115,101,-20,2676,2452,-8334
-71,22,59,468,4498,-8994
-3,-17,-9,1552,4609,-7186
10,89,-3,5122,-8288,3544
-67,89,-47,5462,-2495,-370
97,-114,-81,2272,-1043,615
94,-104,-112,2331,-1095,3494
50,67,-79,-494,-3195,3344
-37,59,100,300,-10603,8104
-67,-101,-59,-11416,756,3430
88,114,-51,5382,-1054,-2889
-77,-43,42,2201,-3901,-1935
-62,-78,44,143,-138,-1169
126,34,-28,1840,-4042,-116
-102,-46,85,-176,-2494,766
43,74,66,1237,-795,854
-10,77,-24,-1317,-970,2035
91,88,-62,308,-514,2961
115,-68,-77,3392,-1653,3520
27,-2,-100,451,77,3507
125,8,-118,435,-707,4614
-36,6,-63,2271,-678,3818
-18,125,-39,-734,-5,3210
-90,-59,3,1726,-935,3210
-66,12,95,-516,392,2321
-118,86,-12,1465,-133,2524
90,47,-42,1172,-768,2411
80,77,-4,754,-159,1920
46,122,-47,356,-269,906
1,91,-91,-333,-606,-304
-13,25,-71,-798,-95,-865
-12,-43,-91,-377,-99,-780
-11,-80,-111,-245,-13,-900
6,-106,-109,85,-57,-877
22,119,126,104,91,-736
26,104,115,-63,78,-726
25,86,109,-107,-41,-266
72,100,-79,17518,4956,-6036
94,-110,-83,7046,-2154,-9181
-25,3,-64,-1418,3946,-10548
-55,-125,-24,972,806,-8109
-11,117,-18,2536,-4415,-5267
-110,-19,-48,-1971,999,-2726
-12,10,114,2629,-6418,-795
-67,1,61,1299,-2441,833
102,-45,-14,-1326,-1544,2890
-22,68,-116,1,-1229,4912
-82,35,-106,-1842,-339,5126
-77,77,67,3677,-4053,-1710
109,81,92,-2754,-1140,-1548
116,69,-111,-574,-1068,255
-125,-72,-6,1007,-1961,656
13,-26,113,1501,-440,-1073
-67,117,54,1181,173,22
-99,21,-37,1494,-1164,1019
-92,-128,-91,-219,-343,908
-116,27,-107,140,312,2000
-38,94,83,-108,-1793,3001
-8,-96,103,-573,-451,3029
52,119,-123,1977,-389,3621
-107,-32,-112,1250,-1106,3083
-64,-39,-95,91,928,2781
-27,-27,-31,487,-764,3014
-8,-100,-20,1002,591,2631
-56,52,-102,1951,-447,2369
-119,30,-28,-432,63,2226
112,-64,-73,600,299,2135
89,-2,-36,23,-155,1991
78,0,-40,128,-34,1661
61,110,-18,115,-231,344
40,89,-52,-62,44,-903
7,-45,-63,135,-129,-894
20,-118,-111,-300,53,-836
22,87,118,92,-140,-760
51,85,106,-468,5,-694
46,55,114,-369,-140,-401
36,84,112,-381,-242,-301
-12,-35,-85,15321,2494,-7685
-60,-80,50,7183,-4634,-10645
127,-46,-61,-742,5258,-10592
-123,-31,-91,-218,1098,-10441
63,67,-26,5971,-14601,1007
-18,-70,121,-1756,-9,-2817
-53,119,26,436,-3868,645
-44,-114,105,-234,-1281,2550
-19,0,-100,-1358,-1375,3832
-45,-82,105,-1961,-1673,7822
-70,-68,102,1746,90,-2198
13,26,1,-1989,100,-1965
37,-93,-101,-75,-2302,781
-1,100,80,2561,216,-2041
-96,-21,0,2816,-851,-640
-91,-12,-25,-103,-1357,-371
-121,91,34,66,58,233
77,24,-39,-953,-776,858
91,32,-39,-769,192,1156
-65,71,112,743,-924,2231
-63,-126,-119,-1413,99,2251
74,-84,37,755,-1176,3239
-113,-11,61,1476,-1234,2762
123,-42,88,-896,-662,2993
-46,-123,-68,466,-727,3242
-74,-60,-40,501,-1152,3874
51,51,55,-655,-568,2578
-35,-77,44,658,-268,2331
-103,123,49,10,-521,2636
-108,84,62,1132,-51,2314
121,51,-13,1611,-182,1734
78,97,-36,251,-352,1332
35,56,-22,714,-327,803
25,35,-48,374,18,-150
20,0,-75,-168,22,-541
12,-74,-113,-432,26,-708
34,126,-122,132,-162,-679
33,113,115,-286,-110,-818
38,92,124,-261,-45,-584
43,80,114,191,-57,-432
33,-13,61,12719,7719,-6773
69,-80,-54,-2066,-3084,-10555
71,-45,-104,3393,3584,-7645
-50,-42,-36,1323,73,-7492
-58,54,-92,-1303,-289,-7032
-125,-68,-35,1690,2197,-7140
55,-111,84,1377,-4466,-2163
-124,-65,-74,2264,-4686,1195
53,100,64,-577,-701,835
67,15,85,1463,-2593,3574
-119,1,-8,-1858,-2027,7806
84,67,67,-908,5653,200
-25,94,-2,-2840,-2131,-2444
-114,-116,-49,-476,-353,-164
83,-47,83,1025,-791,-705
119,-28,-75,1407,-1656,246
-43,2,-76,819,-85,-763
-118,-125,11,-180,-1224,-286
125,-77,-28,21,199,1611
40,22,-74,1718,-1917,1425
117,107,-26,-3014,257,1841
-105,80,-58,93,379,2289
26,90,-112,1015,-61,3054
99,-95,125,-135,-817,3537
-87,110,-105,511,807,3275
31,-110,-103,-715,-555,4291
33,-24,-34,875,-294,3830
85,70,34,860,-1031,3159
13,-101,-29,2194,441,2791
-81,103,-53,1416,-890,2718
102,56,19,390,102,2293
115,90,-12,629,-262,1461
18,-3,44,1268,-874,1090
36,-51,12,838,542,662
-9,-117,-65,1478,-355,497
2,-83,-43,278,124,-236
-26,83,-80,-142,122,-293
-30,40,-94,-230,-311,-153
-23,43,-73,-153,23,-58
11,69,-101,-173,-47,-246
64,65,-49,4664,668,-6215
95,52,-105,13335,2292,-5147
49,-25,111,3059,201,-8246
42,104,119,516,3800,-8454
-123,81,33,2859,1372,-5138
-97,61,91,4394,-5793,-1609
-74,-9,-111,781,-2869,-1983
46,102,-76,-449,-2034,-1400
-24,38,90,3129,-5002,998
-49,8,-122,-33,-780,2395
10,54,104,291,-4351,1775
14,-38,107,-6184,939,5994
-126,53,95,3810,5110,-1880
-86,-56,-95,-2049,-2648,-1659
29,12,41,-207,-1861,-52
15,76,-126,670,-3144,42
99,-91,99,38,-1202,-485
115,55,90,2642,-735,80
36,103,41,-339,-956,438
51,21,-38,111,-709,266
47,-6,-29,44,-100,1130
21,-121,-67,-1295,-683,2113
68,-100,-48,-469,-146,2629
-55,-45,-74,1258,-5,3342
30,-4,-96,752,-528,3107
99,-6,-114,647,1358,2600
-72,15,-74,406,-465,3518
-72,26,-109,38,319,2696
-63,30,-51,23,-540,2926
-116,-24,-61,-450,-72,2569
115,-79,19,398,-871,2283
104,78,11,657,382,2193
91,11,-43,1551,-472,2432
82,51,-26,513,-274,1910
78,41,-23,946,-308,1837
40,77,-37,641,-438,683
19,43,-50,310,-542,10
16,-10,-39,-652,59,-793
10,-86,-73,-358,-142,-735
27,-108,-124,-402,-130,-939
13,-123,112,12613,4838,-5531
56,-13,86,9405,-5384,-7384
116,-42,14,2653,4475,-9462
-92,84,-38,433,-515,-10251
98,-66,-67,2230,-4429,-5768
66,-12,127,-1351,-240,-3798
-99,107,-51,1148,-5304,-2343
-51,124,125,463,-4189,-762
-77,91,14,767,-2550,549
-46,120,89,293,-2059,2061
100,-65,96,-2355,-1348,2171
-14,-42,-74,-621,-1450,5478
25,-7,15,6453,-4688,1556
-93,-112,-93,-3139,137,-2859
65,21,122,1348,-1473,802
-121,57,14,-729,-179,-404
-65,-55,-41,2890,593,-1425
-79,-115,5,931,-965,-523
-126,81,-32,-156,-466,-581
-96,-73,-102,967,-821,795
-102,-49,116,-851,-1135,2093
-128,60,101,-2044,-1223,1946
-106,76,-86,-44,-583,2424
-52,-126,-72,939,-183,3170
-126,-62,-64,794,-854,3961
-98,10,-95,732,-273,3572
-5,0,-67,317,-319,3627
29,-89,-84,1813,-585,3299
-2,-54,-38,-91,345,3037
-46,106,-33,272,-42,2991
-51,82,-12,423,-44,3092
-74,67,16,1669,-373,2963
-78,-94,4,772,-81,1814
62,-97,-51,1021,-703,406
-10,45,-26,477,-261,-507
-22,-42,-24,285,88,-456
-19,-88,-66,133,-161,-379
14,-92,-85,-801,-129,-584
24,-119,-98,-604,-72,-938
41,107,-101,-265,-36,-802
88,57,100,12574,-4715,-463
-79,59,-73,7870,-1122,-7200
-101,-94,125,2958,4113,-10525
-114,-71,-1,4905,3115,-10864
58,-22,32,680,4258,-8941
-88,57,-4,4671,-10996,1643
-52,-37,-33,-4579,-181,-2021
-93,-79,94,-536,-567,-1078
4,-58,-113,5010,-7572,-534
-45,84,9,2931,-4790,181
53,-24,-93,1065,-652,-1473
-16,-39,-8,-2251,177,1309
111,97,-87,-3436,-1192,3796
0,126,-52,2177,-43,2952
-70,113,46,2861,-2331,-653
88,-58,-119,-2406,-2802,-227
-106,125,-17,-1597,604,-1457
101,71,29,1636,-1120,-96
-66,-1,-116,300,-2523,977
101,66,-106,-934,-1867,1026
100,72,-83,-1099,-1605,1655
81,-99,17,-1090,-975,2054
117,-84,11,1116,-1327,2799
-9,0,20,1255,-668,3566
40,106,11,1604,-904,3031
-88,104,-7,575,9,3109
-94,53,-41,1159,-914,3282
-118,57,-10,263,3,2445
-85,-34,-16,530,-496,2756
-67,21,29,-626,-623,2549
-111,127,-49,1915,-754,2037
-5,77,-6,202,-346,2068
9,2,-26,1301,-366,2321
53,-36,-47,2757,-1123,2877
104,-111,-1,1593,-184,1148
32,-86,-82,-588,181,-637
-8,34,-99,-440,-208,-863
-22,-69,-75,-362,-416,-742
-24,-69,-99,-1248,-342,-887
23,-80,-67,-1551,277,-1143
-65,89,-76,7208,1148,-3723
-98,-46,-51,7137,-957,-6258
-77,-55,85,2099,5519,-10676
53,-6,-58,2671,5967,-8534
-76,82,70,1983,5444,-8103
-16,-124,51,476,3161,-4789
59,-96,27,1516,-6108,-2886
-87,-38,6,-331,-1069,214
-69,-79,-116,2418,-4020,-1202
-12,-73,-10,3508,-6112,861
27,41,125,699,88,1140
85,6,-46,314,-3336,2459
82,79,53,-1488,-2780,6743
34,108,85,1037,6071,1145
-111,-20,-72,700,-5712,-1901
99,54,73,-2386,1815,463
52,0,-103,1571,-1661,764
126,-97,-45,1002,-2257,-70
-43,58,-37,-925,-558,631
111,18,-72,152,-1353,1596
-117,36,-109,-874,-464,1241
-74,-109,-95,-1844,-506,1816
-103,-64,-117,-259,-734,2383
3,-23,-64,491,-746,3291
84,-3,-64,1279,-1397,2970
-59,60,-85,-23,143,3538
-13,52,-28,623,-1204,3027
-11,-10,-23,-337,-330,3010
-46,9,26,246,-811,2473
-57,-87,0,366,-204,2466
-108,104,-1,516,-946,2783
-111,81,24,1273,77,2119
-109,118,-56,546,-293,1814
31,-69,-6,-279,-1014,922
43,-123,-12,14,-434,-167
19,18,-65,556,-311,-443
23,36,-85,-1705,264,-1208
31,-30,-128,-1309,453,-1018
30,-94,109,246,-557,-581
48,-49,119,-879,324,-959
77,-27,22,4835,-2472,-2975
22,11,21,9622,5327,-6912
79,-46,-108,5021,3911,-10679
10,-10,7,3122,5353,-9459
-22,57,15,-2005,7037,-7073
24,108,68,4763,-16569,5847
-86,19,-107,-2040,3064,-2722
-85,-67,45,1610,-3152,-1146
-16,73,-21,4614,-7866,-961
20,-128,-124,953,-2250,711
-14,5,-22,-1783,-872,389
46,-46,-14,-359,-4095,2818
58,52,42,-1242,-706,4415
-14,-33,95,4033,1110,-1358
98,-101,-9,-804,-1444,-1722
111,-2,-108,-699,1791,-321
9,12,126,422,-2129,756
-87,119,-20,-597,-2153,516
-91,46,-23,921,-977,483
-85,97,-67,-634,-1215,1504
-125,127,-39,-594,-1175,1036
103,-98,-41,-142,-511,2086
-116,-7,-6,-334,210,1876
-34,-37,-57,-175,23,2877
63,-37,-107,2442,-1460,2701
-119,87,-80,-257,37,3210
-84,18,-77,231,67,2767
-77,-16,-87,1467,-1229,2886
-84,-14,-3,282,207,2609
-85,-121,-63,1467,-756,2364
-128,-84,8,-1290,192,2022
57,98,7,-754,78,1898
89,23,47,792,-417,2530
127,8,11,1139,395,1876
91,72,-61,-52,-489,1861
62,95,-28,-114,-600,694
50,82,-39,-40,90,-295
3,1,-96,98,-589,-298
9,-18,-92,-676,-207,-720
33,-62,-113,-360,72,-843
5,-124,6,8155,1145,-3893
17,-20,-126,6532,501,-6458
3,114,-29,2152,3191,-8009
-61,-100,96,5338,2384,-9029
79,19,-68,1924,3966,-9763
92,113,4,545,2965,-7354
-119,31,-51,4121,-12630,2596
86,97,126,-1437,2463,133
-63,-93,53,3296,-6671,1127
-53,96,-68,3453,-6358,-1057
81,-51,-34,-805,-1325,-1018
51,-100,13,793,480,-881
-117,-18,-44,-3125,3574,1818
109,114,80,-1688,-3143,6413
4,34,-51,369,-109,3364
20,-105,2,4993,-5840,-89
98,54,-7,-3835,47,-1317
48,76,-44,-1303,481,-352
44,116,-74,431,-3214,789
-105,120,-35,-147,-611,126
108,100,-80,-790,-773,655
85,99,-94,-625,-1737,1685
91,-113,-54,-1183,-452,1989
-123,-72,-90,-784,-1517,2624
-29,-24,-63,734,-1559,3676
49,20,-74,1458,-1391,3594
-127,97,-40,-1003,-487,3441
-48,-53,-6,2378,-2796,4217
33,33,63,719,-130,3641
8,-12,72,423,-909,3952
28,-94,50,2655,-754,3742
-20,109,-39,3187,-469,3069
92,-107,-82,842,-649,2197
53,-87,-35,-789,-178,1210
16,-120,-24,363,-621,540
-30,113,-38,324,-184,-415
-38,61,-67,-626,-106,-851
-28,-12,-83,-467,-118,-957
-2,-71,-104,-199,-177,-1135
17,-109,-115,-14,-64,-1336
-12,-2,-9,5398,1290,-3917
-10,-61,-32,2603,1156,-8602
56,62,-116,11462,2750,-6875
-31,-125,71,-5752,2292,-11993
9,48,-50,3018,3170,-6052
-86,34,115,-742,538,-2536
-6,-109,-68,155,-2091,-2037
104,87,28,955,-2734,-1154
-41,-15,64,3509,-5584,-600
-59,79,-120,1911,-2671,16
-84,42,90,809,-709,1768
62,14,-55,-1978,402,3558
41,54,-120,-99,-3063,6902
-47,-66,101,-3195,4914,114
47,40,-52,1603,-4618,-3640
17,-77,124,-1521,1365,1137
-27,40,-63,2701,-2348,382
-123,-68,-17,-158,-981,83
-90,119,-17,-380,-480,496
-128,64,-78,-346,-1268,528
-96,108,-70,-1425,-197,1374
-113,-124,-83,311,-1150,1399
-83,-108,-52,-834,244,1847
-11,-51,-79,-825,-804,2651
70,-83,-101,2392,-777,2898
121,11,-75,-322,33,2997
-62,37,-91,-266,-488,3230
-40,-68,-112,1842,-1002,3806
-37,-10,22,385,-1069,3195
-6,96,-31,1612,593,2907
-42,86,-104,905,-763,3188
-102,31,-47,860,-456,3075
-119,19,-1,1032,-389,3127
-113,85,25,683,231,2479
65,-71,-35,-174,-210,1448
18,-86,-58,-406,-541,-155
-23,92,-52,-554,-32,-968
-22,-41,-71,106,90,-1073
4,-68,-106,-431,110,-1437
34,123,119,-232,-31,-1504
34,99,-40,6156,-646,-4274
-46,73,-18,12874,2571,-9257
50,49,-119,8401,-600,-8091
-14,120,116,1431,5612,-10190
82,-20,5,-2533,1176,-5601
-92,62,65,1599,-4848,-2208
-60,42,-11,56,-4687,-1581
23,-85,-66,2788,-6392,-323
-69,86,46,578,-4058,-1529
-75,112,42,651,-1815,154
42,-36,2,-420,-521,813
111,25,17,-888,703,3442
-104,92,-64,1557,-123,4873
26,-103,-72,2145,-3651,-2622
-30,-64,-75,-1547,-1739,66
55,10,75,81,-158,-231
106,108,13,-125,-3082,666
-92,-76,-30,-822,-2014,-40
105,68,-33,-281,-1826,474
-108,-84,10,-1982,-1329,161
125,-8,15,-4791,346,793
71,81,-50,2511,-2846,2309
-58,-74,19,1422,-1984,3008
44,27,22,1804,-238,2809
-107,13,-47,676,-555,2892
-45,-3,-65,193,-1458,3531
-65,-59,-53,1995,-1142,3535
20,39,-15,-516,-710,3175
-20,-81,-14,1193,-1138,3387
-48,-110,90,752,-808,3154
-43,80,33,1949,-249,2744
112,-126,-21,967,-830,2207
24,-123,-14,709,-719,1231
3,120,-4,546,-127,346
-23,86,-51,-117,-23,-143
-27,64,-70,-782,15,-601
-18,-21,-97,110,-115,-741
10,-64,-123,-41,69,-1234
42,-123,121,117,29,-1367
58,65,101,651,-131,-1344
-78,-53,126,5043,5501,-5801
18,-8,-16,7802,2463,-6237
102,-114,110,2074,3476,-8557
-95,84,78,2498,6372,-7654
29,55,66,2773,2255,-7260
-1,109,-65,5557,-7186,-2213
-111,5,-51,-4511,795,-1160
-44,-54,67,2513,-5010,-1712
-44,-101,-57,2730,-3670,-1598
-52,-113,-58,1960,-2916,-624
110,-5,-26,865,-1346,-505
59,-94,-77,1891,-2060,3824
83,19,-64,-2841,982,3709
-72,7,85,670,3335,2250
42,-54,-103,535,-4946,-3197
-110,23,121,-2601,162,111
98,21,-80,2404,-3026,152
-117,85,88,-173,-2086,723
62,125,81,-1198,-818,-279
90,67,-31,-539,-722,703
98,65,-34,162,-1258,1789
-126,127,-26,-538,-731,1870
-104,-112,-42,-532,-307,2363
-7,-51,-66,122,-1259,3215
57,-19,-88,766,-1106,3340
118,2,-57,408,-415,3349
-25,2,-57,1010,-1804,3920
-43,10,-27,1754,-745,3386
14,-15,-6,-39,-830,3302
-21,127,-19,1758,-678,2872
-75,80,9,1708,-852,3281
-100,99,25,1324,-273,2763
119,-109,-4,928,-461,2005
50,-50,4,311,-471,947
-23,-118,-7,298,-345,-513
-42,18,-16,490,-135,-620
-32,-32,-46,-354,28,-846
-27,-68,-89,-687,21,-991
-4,-122,-113,-309,65,-1166
16,101,-122,54,45,-1014
10,-7,-52,14382,5318,-6352
102,107,-8,4784,797,-11476
55,10,70,7076,5278,-7508
14,-104,-114,-2512,436,-4725
24,30,-35,-3115,562,-3190
-59,28,31,-141,817,-3223
-44,91,12,2099,-5667,-2359
12,124,54,2841,-3955,-1138
-38,0,-74,1816,-5042,-853
-19,-5,-15,2107,-5328,331
48,-55,121,-151,-2561,744
107,0,39,-2892,633,1550
33,-40,-80,-2046,927,4461
-62,-54,-94,3168,796,506
-116,100,-115,940,-3841,-2133
-90,123,-123,-3223,1818,-727
26,56,-86,1191,-2055,224
97,66,-111,1049,-2048,196
-54,58,59,420,329,422
66,25,-47,54,-1587,1500
-97,57,-90,-845,-1349,1754
-120,103,-63,147,-1613,1608
-55,-114,-27,-842,-230,2248
-36,-100,-46,150,-445,2795
125,-92,-122,1389,-1231,3382
-117,4,-124,469,-1434,3565
41,48,-60,-907,-1029,4033
54,-27,-82,1431,-1936,3583
37,25,63,-18,-1198,3239
47,112,-15,2668,-301,3080
-45,-90,25,473,-1628,3259
-82,105,52,2250,-562,2509
70,-117,-3,2020,-822,2141
18,-49,44,283,-436,1108
-26,-101,17,-100,-44,38
-67,65,-27,207,-103,-403
-32,23,-33,-351,365,-1233
-21,-81,-86,131,284,-1252
-7,-116,-119,273,-89,-1254
19,118,-123,-329,-86,-1439
-40,65,-114,6067,5234,-4269
122,-76,27,10925,605,-7932
120,-44,-107,-2254,7352,-10023
65,-67,-81,5379,4006,-6998
-30,-4,39,-2644,1706,-3970
-57,64,52,-1293,-3222,-2266
16,-68,42,-1130,-356,-1161
-15,-70,50,1643,-2667,-1993
-4,-59,13,3063,-3941,-1619
5,-98,-76,2713,-2713,-1369
83,-73,46,987,-2198,-1214
117,120,41,384,220,772
-11,27,-43,561,-835,3155
-126,-50,3,-1462,-2925,5439
-30,-128,108,-1106,155,-1025
-31,-69,97,1001,-1168,-1577
25,-54,35,818,592,287
83,41,112,2330,-1866,967
-84,-46,4,88,-1215,542
-35,90,-11,-1035,482,-449
-74,1,-83,75,-782,1359
-125,27,-80,-31,-2252,1795
-61,127,-21,-3090,33,1517
-13,52,-57,-818,-833,2941
54,86,-49,2596,-2381,3788
-122,-25,-7,-620,293,3693
-25,-37,-64,-834,48,3548
81,-110,-46,1449,-1076,5123
117,-84,28,626,-341,4585
-18,-83,-17,1849,75,4901
-102,-22,-1,1744,-549,4146
30,98,17,350,306,2773
64,-92,-48,99,-715,340
-22,-50,-4,598,-361,-525
-19,82,-32,-34,-164,-262
-4,54,-101,-1166,80,-879
12,-30,123,-643,-176,-1410
31,-60,114,-532,-354,-1687
79,89,117,194,-263,-1638
-127,50,110,100,-140,-1403
56,16,26,7643,1764,-7895
103,74,82,3813,783,-9542
-91,127,94,1607,3722,-8888
9,48,-15,-2121,2856,-6240
-85,-8,100,3452,-5719,-834
-71,68,-17,-2738,2006,-2711
-38,-51,21,3898,-4859,-1975
-38,-82,4,3597,-5616,-1206
-64,51,-10,539,-1805,-1316
-77,-85,51,1736,-1504,-116
-103,73,-27,606,-1476,3190
94,-124,-11,-658,-597,6436
115,-41,18,152,2041,2135
-112,-67,11,387,-2157,-3646
68,-47,127,-1819,1390,419
27,43,66,146,-3391,973
85,-118,48,1070,-1928,758
-47,85,-12,-559,269,253
103,56,82,-1064,-2534,1251
127,-28,-127,-627,-1893,1787
-104,120,-57,-1650,-327,1571
-105,-125,-93,-884,-1147,3151
45,-23,-53,273,-1340,3706
-87,-2,-71,3041,-2733,4253
11,-119,-22,-651,-631,3971
98,-29,-53,2046,-1952,4584
103,97,33,857,-975,3512
48,-80,3,1947,-577,3680
-6,-24,30,682,-789,3219
-72,-87,54,1988,-249,2957
116,-18,3,1197,-238,2045
26,16,-39,664,-456,542
-17,-103,-52,680,-124,-838
-50,32,-74,712,-112,-952
-32,-51,-87,311,-96,-980
-5,-101,-113,246,-72,-1240
18,-128,-119,-212,-177,-1449
40,70,-117,-229,-186,-1423
21,41,-118,216,-307,-1148
17,37,-113,-321,-103,-866
-110,121,-113,7701,2595,-6123
3,77,72,5370,3945,-7601
-47,-44,-89,3973,891,-8335
106,24,-79,455,4913,-9005
34,16,72,3816,3550,-8507
-26,94,74,1167,1906,-4345
37,-52,-19,-1504,-1115,-1114
43,-58,114,2585,-4517,2582
-40,-94,-15,3985,-3813,301
-24,96,-69,3716,-3922,-805
74,125,76,-87,-462,871
110,-53,-112,1686,-3860,3257
49,-32,-79,-3620,-3794,6795
-94,87,125,-6659,380,6074
-72,12,-111,1410,859,719
27,-95,-64,2317,-5083,-5101
-29,-54,85,-1535,2420,102
48,-9,8,888,-2424,-450
127,124,19,-474,-1691,227
-106,118,-7,597,-733,-223
-80,107,-49,-380,207,337
123,109,-55,-81,-1677,1355
-108,92,-100,255,-1255,2141
-20,-88,-54,692,-1489,3113
1,-79,-111,1677,-2008,2999
-92,42,0,491,-711,3780
-41,-10,-24,1350,-1949,3988
82,78,73,90,-1385,3527
-81,3,64,1390,-1686,3132
-107,-81,76,2081,18,3026
78,80,-68,3354,-762,3204
-100,-68,9,653,-772,2678
102,-47,8,710,-150,1433
11,8,9,-153,-4,-52
-35,97,-30,1257,-39,-1430
-41,-34,-47,1011,82,-1259
-24,-103,-90,15,243,-1304
-15,118,-112,-551,-2,-1260
9,93,-117,-506,-233,-1161
34,65,-123,-345,-134,-1179
21,41,101,6187,1410,-4835
-74,107,98,8451,7558,-9297
119,-97,123,8060,14,-7203
-35,59,35,1837,1174,-9012
58,100,71,1288,823,-6626
55,108,-58,1403,-4179,-1765
-74,99,-67,-783,2062,2294
-38,-54,43,3557,-7682,-1319
-42,38,105,2265,-2965,-1640
-17,-97,120,1877,-3179,674
-27,-65,-52,3693,-3499,913
-64,15,-122,-2501,-1244,1623
116,-83,-74,-2901,601,3949
-17,117,13,-1161,-3660,6060
-71,-118,-23,5717,2486,-1184
-114,103,91,-2426,-3537,-1888
118,-34,60,-2041,1844,480
37,95,121,674,-2464,338
-116,-112,56,-545,-203,277
119,125,-70,-1386,-1906,1183
112,66,-97,-302,-1608,1252
-74,-98,-17,-861,-401,1170
123,-84,-34,-923,-1326,2035
-70,-25,-27,-888,-190,1972
29,-44,-55,1703,-2104,3282
37,11,-62,1424,-919,2445
-107,81,-45,-333,-1015,3370
-76,-34,-68,1948,-1935,3413
-46,13,49,573,-706,3157
-63,-74,-26,1371,-799,3352
-51,-11,22,-351,-1427,2890
-90,-124,86,1230,-815,2611
108,91,6,2493,-569,2255
51,-113,21,1819,-769,1326
9,-69,14,-481,26,45
-25,70,-19,176,-183,-385
-20,11,-27,99,140,-670
-16,-52,-78,-10,122,-839
-6,-77,-109,-129,17,-1000
21,-116,118,-387,73,-1067
82,-87,63,7197,-515,-5350
-68,-95,-13,12262,3749,-9499
111,80,-31,2007,3748,-11028
-30,-11,-63,-1027,7154,-9054
76,-2,16,822,-1567,-3925
28,38,-7,-2348,2139,-2019
-123,68,57,-1479,-1473,-240
-57,-41,69,3484,-5158,-2013
-23,29,88,1898,-1341,-2371
-30,21,-28,4445,-4050,-743
108,-77,-107,3288,-4310,748
-100,99,-107,1103,-1621,3360
-110,-19,-64,-4236,-693,2774
126,-118,-69,-2351,-3901,4794
45,-127,-77,2925,4128,-128
-128,-97,119,3111,-6335,-2478
-122,109,-127,-2420,2142,449
90,-72,-37,-653,-2307,-727
105,-82,-94,923,839,-1012
-95,32,-104,500,-1792,506
97,104,-97,-1018,-1498,760
92,24,-71,-728,-490,977
124,88,-60,-414,-1584,1830
-119,-58,-38,-1467,-826,2055
-43,-46,-3,1539,-863,2812
71,-52,-104,2420,-770,2840
113,-10,-114,1283,-608,3421
-107,51,-59,233,-1498,3289
-52,-53,2,789,-1105,3715
-83,-20,78,559,-876,3516
-69,-31,56,523,-577,3210
-95,-112,35,1550,-930,3153
124,94,56,1355,-549,2864
86,102,26,1173,-420,2377
26,-100,8,864,-748,1383
-3,-91,1,-106,-52,-94
-47,63,-32,250,53,-767
-57,-40,-52,195,63,-866
-40,-77,-82,143,161,-934
-15,-115,-110,-131,91,-1030
-122,-100,86,6126,-2482,-4015
-15,-25,-104,4308,3681,-6460
39,-85,-10,6180,5676,-8880
-36,-108,-2,399,955,-8816
-96,-43,71,1012,5608,-9335
104,-49,55,-20,2598,-7578
-91,41,14,1587,-2424,-2767
-58,112,-25,-1318,-3148,5777
-84,40,52,1544,-2708,-1003
-40,116,59,3328,-2942,-1320
-42,-111,54,2802,-3739,-573
-3,-15,-1,1285,-2611,803
68,103,-92,1954,-1815,1794
-47,90,-17,-2220,-1246,2942
39,-82,-50,-4907,1999,6840
31,-41,127,5327,2984,9
-34,42,25,-1827,-2619,-3653
-123,-14,98,-2052,3257,604
16,51,69,1366,-3996,1029
-55,-90,69,349,-909,181
-72,-121,51,-16,296,-7
121,61,-83,555,-2276,871
118,103,-47,-2302,-487,758
111,75,-27,-985,141,766
124,100,-54,-1250,-614,2371
-69,111,-124,-621,-1796,3926
-10,-94,-118,2322,-2374,3721
-52,65,-9,-1737,-230,4136
-115,-23,-95,940,-957,3585
51,-19,-9,1013,-1986,4759
52,-52,55,1151,-762,3721
83,-45,41,-5,-601,3927
48,96,10,2137,-1462,4175
-30,-6,24,549,-1297,2860
66,100,14,-168,-1588,544
-31,-31,33,-235,-641,-980
-72,56,26,991,-152,-780
-55,39,-23,-90,619,-1094
-11,11,-97,-1012,829,-1436
8,-51,104,-1131,357,-1538
