AccX,AccY,AccZ,GyroX,GyroY,GyroZ
74,-8,95,14289,6976,-12677
102,100,-19,-562,13484,-2202
105,13,-68,1091,-9954,2031
97,-12,28,-802,15749,-1852
62,-91,2,7765,1846,3703
20,-107,-65,1825,6508,3875
5,-51,-116,3283,-5473,3321
-91,12,-11,-7710,-4451,4549
69,-128,-98,-6328,-6312,-277
36,-50,-82,-7059,-9077,-421
108,55,-55,-5627,-4495,-3570
108,53,-107,-2364,-199,-4675
-108,36,12,-2540,-1042,866
114,15,99,-2502,4383,3665
-23,68,-19,410,2560,4792
-122,-14,51,-275,1599,5405
-103,13,-66,305,1544,5167
103,-34,-84,8,900,4487
-106,104,-121,1600,-264,3103
29,-75,-33,-2084,1098,2885
-78,-15,63,1375,1723,1458
-86,-1,-122,911,130,566
-73,105,122,1643,-1425,-485
-63,-2,-14,759,557,-691
-60,-112,-49,-122,12,-820
-67,78,-90,-329,-237,-597
-71,101,-110,-428,171,-1270
-55,29,126,-244,533,-898
-49,-5,85,612,-556,-190
-51,30,107,-190,190,-26
-55,65,81,132,-6,-106
-47,94,88,-207,-42,247
-37,-116,83,-365,247,101
-34,-85,85,146,-139,77
-34,-71,92,-147,282,-1
-32,-65,81,193,-172,-9
-32,-71,90,26,63,-15
-30,-72,94,102,148,-191
-31,-88,88,334,20,-18
-31,-82,95,55,277,15
-46,-104,-97,-9400,-2537,994
27,108,97,-2277,1127,-9764
-35,-111,-119,32529,-5954,-14009
63,-113,-22,-2555,-3989,11201
107,-62,-87,-8970,4497,426
-94,121,95,10754,4414,252
64,31,37,9691,4125,772
22,127,43,-2639,8776,2445
-69,42,63,4099,57,3292
-47,29,-86,-507,-5035,5130
92,20,104,-6265,-467,574
124,-85,-42,-4683,-7952,1057
83,48,-37,-8205,-5461,-1669
40,58,-119,-4898,-6679,-3646
1,-20,32,-1874,-3268,-3635
-39,-45,38,-5691,329,-2739
99,-11,-127,-1749,862,287
-9,7,-109,-1282,3675,2949
-10,31,-61,-599,3484,3368
-74,100,53,-3577,6354,4230
-66,-95,-116,-713,-561,5153
22,102,87,-129,2001,4898
64,-39,49,-3,34,3884
0,47,81,829,110,3559
-93,-101,52,-3439,885,3605
42,-82,105,1798,1771,2228
-116,-84,-127,3248,-1992,2417
55,15,-92,173,-691,756
-19,-50,-85,-178,2,-493
-107,26,-66,1304,-613,-1028
-102,-60,-72,-14,-277,-1173
-87,98,-104,170,-468,-1044
-56,104,-101,-634,-281,-1210
-59,56,114,-419,-124,-1189
-69,34,112,33,-506,-895
-66,21,113,60,-193,-747
-79,37,91,-289,-151,-350
-89,62,89,-324,-50,18
-85,101,80,-271,14,140
-79,-94,81,-402,116,254
88,-2,101,7630,3253,-6374
26,-104,83,8081,3724,-5127
39,29,16,48,7982,-1339
-113,89,27,398,-2410,9642
28,-80,-8,-10949,-6458,-958
-37,2,78,7136,5450,-4606
-121,-110,-4,9399,-8290,316
-56,108,-52,-4413,13485,3571
-56,-2,-69,4532,-4934,6813
-82,27,-91,1500,-4663,3746
48,52,43,-8267,981,-1182
-119,95,57,-4174,-9738,-1473
45,47,93,-7316,-3626,-4638
-4,-81,19,-5045,-2877,-5075
6,-122,-85,-2957,1081,-5357
-52,27,92,-320,-1834,-2299
70,-1,-90,-1467,1608,3056
-5,8,34,448,1556,3788
-28,-53,88,-598,2745,3952
-18,-45,101,-895,2738,4325
87,-24,-53,-83,-985,4537
106,67,-107,-95,2539,3773
20,-103,113,1506,407,2854
8,-66,14,-590,988,3579
-80,9,5,139,1330,2377
-88,-50,78,889,516,2257
81,-128,60,1841,-943,2201
-6,-5,-119,-219,-333,743
-44,-79,-79,558,-400,-631
-91,-44,-65,2113,-524,-744
-108,-58,-101,232,48,-733
-111,125,120,538,-1324,-751
-40,-120,-55,-1394,164,-1345
-69,-6,-111,-171,484,-811
-106,-5,-112,454,-726,-177
-98,12,-103,-420,240,-1
-90,43,-123,-521,164,232
-84,86,97,-514,227,501
-76,-123,100,-396,103,648
-56,-77,89,519,186,276
5,16,-58,5807,-999,-7862
-101,-103,-37,12008,2623,-8540
16,80,-31,505,6478,-2658
-82,37,-59,-5325,8374,2177
-68,25,-78,2624,2312,9715
43,26,59,-852,1516,5128
-26,105,61,-1084,431,3979
-4,-7,-35,-1337,-3518,-780
115,68,100,-7901,-10453,-2243
60,-82,51,-9250,-4961,-4100
-60,-8,113,-6063,-1482,-4887
-71,124,94,-3297,-2964,-4484
-128,-79,-92,-1528,694,-3956
5,30,-81,-1676,-194,354
-15,123,112,201,3205,2748
8,-29,-88,-354,1073,4333
-86,-40,-101,-794,4768,4347
38,-96,-124,-544,-237,5791
-29,77,95,760,1338,4620
119,3,98,1134,-241,4002
-64,108,-114,1723,132,2966
53,-80,42,-1047,2517,1219
94,-60,83,1877,-343,421
-48,-50,-121,962,-717,-35
-64,77,-104,-114,192,-353
-58,18,-92,-623,515,-586
-93,-70,-111,918,-823,-310
-64,-70,-107,-183,58,-512
-71,110,107,-157,11,-404
-59,123,103,-316,-70,-188
-54,93,86,195,-157,187
-64,-111,96,-155,76,-148
-57,-98,82,-163,188,109
-48,-88,83,245,-38,203
-56,-72,88,250,121,93
-51,-59,89,-12,178,180
-50,-65,72,218,-97,182
-24,-31,84,-271,412,-12
-49,-77,73,581,-111,176
-43,-52,88,-37,89,71
-22,116,37,5363,2626,-4329
7,-124,126,9187,4320,-2562
-33,-99,-98,-1583,5217,1136
-53,93,71,267,-7263,7325
-29,72,-10,-8412,-4473,-5416
99,-68,-100,-3075,19382,-1340
26,56,-125,3308,-1200,3615
-8,97,56,294,6319,4941
27,-81,53,2671,-2753,6158
73,-126,-86,-5039,-1702,-744
13,117,-3,-4873,-3714,-4650
-92,-40,-2,-4808,-6015,-5273
44,-112,16,-5290,-5912,-7161
54,-122,-47,-1728,-4264,-6571
104,6,-19,-4087,2905,-3476
68,-35,-37,-568,-1047,1219
-29,112,94,-303,725,4510
123,64,-28,940,2123,4172
-11,3,55,-340,2071,4672
82,122,117,410,106,5298
16,120,-55,987,1281,3607
-128,102,51,-152,1969,3336
-65,12,80,999,503,1852
108,28,-75,552,305,1491
-40,93,-103,971,-551,1734
-40,126,12,212,116,1350
-52,-30,-87,-1733,758,1181
-10,51,47,1644,-73,162
-26,33,-71,2242,1,103
-90,-34,72,987,8,-701
-91,-86,79,-392,37,-538
-111,94,107,-130,-334,-418
-82,78,-107,21,-373,-334
-74,53,-90,-100,-111,-354
-78,41,-82,-171,-20,-176
-81,51,-96,-17,30,-115
-84,70,-107,40,326,218
-69,82,115,538,126,332
-56,115,97,365,123,305
-68,-116,87,122,182,330
-16,68,68,8906,-1956,-6709
-112,-14,-38,5079,3996,-6481
-30,-22,126,524,9130,5843
-31,77,-26,-12042,-8739,718
-36,82,-53,428,10220,-866
77,6,-44,12161,-11704,-280
107,45,-77,-1873,13402,4968
-48,57,20,5144,-704,2868
-29,55,-1,3546,-8453,2995
10,22,57,-9188,3555,-671
72,86,48,-4409,-9614,-2227
-116,-39,91,-7515,-4422,-5169
-22,116,-71,-6026,-4831,-3702
-43,-60,103,-1810,-2866,-4753
72,40,17,-2741,1656,-2010
-117,-41,-39,-2025,491,2177
121,-81,90,-413,3583,3562
-72,-120,122,433,1063,4082
-43,-113,56,-1246,2684,4778
124,115,-94,-553,893,4277
-94,-53,29,1371,512,3636
-67,42,-126,-785,1287,3475
49,-76,-114,423,599,2490
-33,80,12,275,1545,2084
-61,-128,66,1937,299,1656
37,37,-102,1994,232,452
-19,-127,107,1292,409,160
-63,52,111,659,229,-113
10,-18,-106,368,-115,-24
-38,-73,-90,-30,-866,-318
-36,-104,-42,-709,226,-806
-71,74,-40,523,-11,-515
-62,49,-72,586,-261,30
-44,98,-91,-942,211,-81
-30,89,-112,-11,-111,213
-44,-97,127,-323,41,102
-41,-84,108,-47,-160,-168
-25,-108,122,-150,44,-7
-42,-99,113,-390,-119,-104
-48,-107,112,35,-78,-1
-58,53,-115,7249,-1073,-8753
108,-32,113,4399,6342,-5362
-10,112,-106,-152,7202,5291
-7,-9,37,7241,-18496,9047
80,-4,91,-8516,3136,-5341
-28,84,77,1814,157,-2771
-47,-59,-13,7991,-2837,-135
-37,-62,114,-954,6866,4712
82,28,-109,2523,801,5732
-68,-30,83,6814,-2819,5904
-13,78,14,-5045,-1966,3070
-74,119,82,-6176,-5908,-3679
92,75,93,-7520,-6242,-5351
41,-86,-103,-3467,-5538,-6734
40,23,-21,-5589,1724,-5140
21,73,35,593,-2974,-1258
53,30,119,-551,2197,2875
79,-39,57,-895,302,3907
-12,-51,24,-379,1069,4260
8,34,113,-1258,1473,4238
81,-23,116,-1234,583,3959
-61,89,38,-597,1258,3247
34,-13,-26,1303,-1021,3020
-9,-53,97,-99,458,2419
103,77,62,498,626,1403
73,-21,98,1099,-156,1293
-2,83,117,961,522,1281
-47,58,114,558,-158,1075
-37,81,-93,177,-435,590
-61,67,-57,-191,144,-539
-67,-15,-79,382,-342,-555
-63,-83,-86,5,39,-898
-63,123,-108,-24,193,-691
-47,100,118,-38,178,-567
-44,57,116,329,-3,-326
-50,67,118,-123,239,5
-60,69,111,182,-79,247
-46,120,116,8,193,271
-39,-91,113,67,-12,384
-25,-48,118,70,334,82
87,-89,-68,4920,-823,-5713
90,-60,-99,6127,4868,-6049
83,44,-103,1962,5096,3523
-64,-64,4,-2182,791,10024
15,-99,-99,-256,-9972,-4944
-16,100,-91,-785,-265,-4381
89,-59,96,-3433,12432,1806
0,25,-29,2755,5050,3653
49,-62,-41,407,4492,5476
86,28,-50,2433,-609,4996
-52,-116,62,-1250,-867,3211
-20,97,-112,-4798,-4171,-271
67,-7,-69,-5157,-8616,-1887
44,-45,-47,-5496,-7210,-5893
55,55,16,-4270,-7148,-3132
53,122,50,-6604,401,-3057
-70,-25,-112,-1162,-870,-1524
-21,-64,-90,-486,2799,1806
8,13,-32,-264,1585,3298
-63,15,73,-2573,3643,3597
110,100,105,-1984,2295,4425
117,91,56,-1406,703,4746
-35,16,-73,-497,1074,3567
-124,-112,32,853,1469,3871
-114,-17,107,-288,1119,2762
-19,52,102,1468,-489,1910
113,-68,-95,718,384,1521
20,43,115,737,959,1330
-33,104,122,-75,-302,1092
-7,57,-58,673,-95,268
-39,-16,-69,1172,-529,-313
-78,-81,-31,-716,34,-306
-84,57,-35,442,182,-311
-70,65,-47,-49,39,-164
-86,76,-65,-185,-71,-290
-60,86,-64,-21,453,-477
-42,102,-92,-493,20,-28
-33,120,-100,438,-5,-194
-61,82,-89,-115,137,-12
-39,120,-98,-154,61,-170
-103,-24,118,5126,1498,-4734
-44,-109,74,10581,44,-7226
100,59,126,3130,8939,1006
121,-48,82,-540,-3288,6720
29,-84,61,-5039,-3059,-605
66,-65,-85,-981,-2775,-4740
79,-70,-26,-2147,11250,-2323
-100,-19,-33,1346,3907,2319
18,-2,89,1755,4581,4683
80,-52,60,4209,-1117,6368
46,-25,-99,754,-943,3263
4,0,48,-6819,-2566,-473
121,105,67,-3953,-10198,-4057
47,-41,120,-6413,-7117,-6609
33,-108,20,-4281,-5816,-5261
32,-100,-48,-9295,10314,-2349
-69,-86,-43,438,-3007,396
-92,33,112,-480,3464,3249
6,4,33,198,527,4408
-119,121,-119,-1028,2104,4169
-100,-91,37,-2024,1892,4969
-66,58,54,66,615,3284
86,-128,-126,1500,1012,3859
49,-76,109,766,406,3021
-98,112,99,506,408,1806
112,-118,-13,242,1065,2377
83,-123,35,1395,647,2000
-22,-86,77,1418,-809,1119
-51,-109,-120,818,-218,-70
-91,50,-121,1202,-634,-649
-78,-40,-52,300,-301,-1387
-91,89,-50,-41,183,-1094
-66,51,-83,-307,-13,-837
-29,8,-121,-110,183,-998
-25,-11,121,-152,500,-695
-56,-39,82,134,111,-225
-30,-27,79,324,6,127
-49,39,86,-372,221,188
-15,85,-116,220,469,248
-40,110,-110,405,332,407
-26,-91,83,7267,1082,-6452
-94,-49,-53,11172,4955,-3497
-17,7,-82,-768,-2470,6814
-6,-81,37,-3033,-11045,-1486
-80,-21,-19,14,1318,-5341
32,-114,53,13077,-7465,-1097
-89,-57,63,-4899,14268,2913
64,67,-95,814,7001,3328
-63,-114,60,9074,-10941,6784
63,77,84,-7445,2270,1209
108,115,70,-1906,-13083,-1629
-89,122,-95,-8805,-7087,-3218
54,110,113,-3366,-8809,-4156
-8,-116,-91,-4440,-2808,-3884
-15,16,112,-6065,6526,-1248
50,-72,21,102,-2171,1995
99,111,111,-306,4391,3230
100,-82,-77,1056,295,4237
-24,11,-120,-1070,2225,5356
80,-30,124,-501,1644,4433
-114,1,20,1510,2298,3389
-123,90,26,1325,654,3110
-38,-103,106,312,252,2770
125,74,-65,-455,1510,2186
82,-17,-64,1197,-289,1702
15,61,75,-18,14,711
-27,-86,124,541,1030,-8
-60,90,122,1547,170,-549
-48,50,-119,56,-174,-773
-39,-78,-123,-145,139,-1368
-37,-119,-69,-584,-51,-886
-70,6,-77,715,-363,-346
-66,28,-69,319,-234,106
-38,107,-87,-623,315,-279
-33,110,-102,-454,244,60
-52,102,-111,733,-5,383
-23,-60,-126,23,315,208
-26,-54,99,-189,67,197
-24,-36,105,-19,66,122
-19,-15,83,-219,15,-206
-34,97,117,9416,3409,-4754
-119,-85,-70,4841,7646,-2143
-32,19,-24,-1911,-5291,11198
65,-103,-86,-9496,-5252,471
-124,4,27,1990,22,-5475
-125,-104,-90,4210,2626,-6288
-122,-40,70,2011,7176,-230
-43,-47,61,-3500,6103,5174
-121,-74,-63,1053,-696,7036
107,21,-63,3704,-435,6235
-79,-43,108,-4300,-4934,300
-97,-108,-100,-6906,-6733,-5397
11,95,-58,-4754,-10360,-3520
-5,24,-11,-3999,-7639,-4544
15,-115,105,-4130,33,-2194
-122,79,83,-556,-2358,-631
-101,-73,-67,-2223,3947,1932
-39,-30,-73,-1055,1728,3294
49,-90,121,-1873,2868,3414
77,7,49,-444,1098,3764
-65,119,124,-358,343,4683
103,23,-106,-505,1812,2984
22,-44,-68,958,348,3707
-61,-65,-67,1947,262,1812
-114,82,-14,-954,777,2716
42,-76,-2,1608,980,1735
77,113,18,2229,-444,1380
-59,4,60,736,51,1267
-51,20,112,-518,1075,1312
-42,67,119,472,204,595
-33,-106,123,629,-892,-262
-54,-7,-127,819,346,-1008
-111,68,-110,264,-242,-688
-92,27,-65,347,-486,-419
-79,17,-77,-404,166,-527
-73,5,-98,164,-149,-166
-69,15,-109,-68,315,-103
-69,49,123,226,-22,206
-58,126,101,-377,108,89
-51,-108,90,-54,36,150
119,10,60,3870,-4182,-6487
-46,-57,9,8670,-3118,-8244
-81,-124,-89,-793,7746,-1547
48,-49,-56,-6444,4775,8880
-60,-10,93,312,-13739,1815
-14,103,-108,1246,112,-7133
-21,-87,-89,12731,-3542,-1840
-27,-34,-110,-4421,10366,1311
69,-114,56,5038,2794,3366
-65,96,-105,3202,3079,3750
10,33,-63,-1598,2615,2741
69,21,87,-2308,-1435,976
-28,-21,103,-4884,-6449,1399
65,-46,-57,-5185,-5068,-3603
-110,-70,-25,-2119,-13657,-3344
103,98,-36,-5440,-5222,-1485
70,95,-11,-3501,-3058,-1557
96,11,-57,-382,-906,295
-30,-69,-39,-301,2456,2326
-15,28,18,81,3943,2613
-13,-30,-80,-486,3737,3695
-17,-60,121,-953,1881,3920
-16,36,67,975,1463,4073
23,113,107,-11,3447,2906
-64,-99,-85,905,1922,2555
-25,-8,73,95,1166,2595
102,63,125,1812,1023,1670
63,70,-21,161,1061,1744
-2,23,29,310,951,1134
-13,74,71,-155,1380,644
-55,7,102,1019,249,170
-53,-3,-103,1024,-1041,-302
-71,-101,-103,-59,-303,-1101
-69,101,-69,-33,-142,-1019
-74,37,-68,258,-603,-891
-42,33,-70,-342,-50,-687
-31,-11,-78,-86,-91,-485
-55,-1,-75,-122,-198,-158
-55,-7,-82,68,122,19
-51,56,-109,-124,73,259
-76,-50,52,3836,-3564,-5423
68,65,-76,5400,1350,-5355
6,-86,-44,5281,1611,-2007
50,-65,47,-572,5685,3041
17,-92,101,-1427,-6224,7642
64,-17,80,-5930,-6296,-964
40,-26,77,662,-3083,-6690
4,-13,-99,3827,2857,-3253
55,115,-12,-2439,8220,2134
-9,85,-89,2846,2259,3906
-20,8,-111,5035,2608,4535
93,37,-51,-828,-2216,3324
-80,88,88,-4907,-1619,620
-85,22,70,-4868,-12014,-891
-50,-34,-106,-7048,-6533,-2209
120,-59,-65,-4983,-8816,-4628
120,-53,-98,-6773,2307,-2961
8,-115,120,-1796,-1530,-1383
-48,-17,30,367,2221,1517
69,37,16,-295,1582,3720
-76,76,-97,-952,3288,3466
45,-18,61,-822,1856,4272
-33,-5,-41,354,66,4288
106,-2,-126,421,2293,3442
108,-63,85,1969,219,4082
-105,85,108,183,1358,2691
-65,84,103,1842,355,1620
116,3,-15,876,457,1540
32,-88,-2,174,1062,1625
10,-104,14,1060,528,1177
34,-58,69,667,100,-116
-13,49,90,1108,-77,-688
-44,-39,121,434,-289,-800
-51,-95,-89,-588,-147,-691
-39,71,-81,-229,231,-434
-42,64,-79,591,-152,-250
-40,76,-95,99,-62,-341
-37,44,-127,-64,220,190
-36,101,106,-35,-18,239
-27,-45,59,-604,-84,163
-57,113,-118,6275,1874,-4026
121,-18,-61,5788,4546,-1992
-46,-24,103,-2020,7391,5161
-42,19,79,2395,-12068,8486
-127,83,56,-7979,-2064,3007
-122,-1,-87,-2804,-4453,-4100
-75,114,-3,2982,2142,-7036
-72,-1,0,1108,3398,-1426
112,-28,-76,1068,6314,3196
-98,123,-83,2175,3470,5349
-73,109,38,5096,-1850,5491
-68,-60,4,-4617,-392,2473
-26,-112,81,-5382,-9107,-1579
71,26,-110,-4551,-8480,-3237
-42,-35,-32,-5371,-9911,-2503
-87,59,90,-6553,-2765,-2389
103,27,126,-2977,1763,-2407
66,-114,-125,-293,455,703
-32,-127,-79,842,1714,2996
126,44,-79,-404,3604,3687
-118,-38,-102,-425,2195,3983
21,106,-100,-800,2208,4381
83,-30,-124,366,1794,3581
115,-66,18,-456,2912,4425
87,123,74,133,1488,2936
43,10,73,2176,731,2381
-93,-26,-106,968,-252,2393
83,-15,13,-545,541,1260
12,-69,59,627,876,403
-14,108,-112,1310,569,-350
-30,58,-100,1631,-1483,-438
-49,-22,-105,560,-572,-1021
-49,-79,-112,-529,345,-1342
-25,122,-107,159,-713,-1166
-13,78,-95,-127,-367,-1276
-9,22,-74,15,65,-897
-35,-12,-80,399,-176,-473
-40,-14,-88,-125,240,112
-41,19,119,486,-103,654
-28,119,-128,-31,157,383
-7,77,-7,837,-4899,-4772
-71,78,89,2058,-1544,-3703
-67,-20,5,5926,-1133,-5109
16,27,8,1585,5637,-677
-112,5,-102,-5731,4667,6012
123,-42,-46,-732,-10031,7514
65,55,43,-3778,-3174,-2189
-10,-53,-8,1549,-715,-6227
-78,107,-116,6590,-2209,-3025
-22,16,12,1687,7065,-1248
23,27,-85,-487,8898,2951
-21,14,36,4969,-2635,6339
-3,-100,38,-3238,438,3994
112,113,45,-8564,-5825,-560
68,-110,116,-5900,-7561,-2146
-76,-27,-109,-4112,-8437,-3749
-118,38,89,-2778,-3825,-3430
37,59,-102,-2573,-3460,-413
-25,-75,-74,-1084,1623,97
46,48,-5,800,2126,1799
36,-69,-126,-343,2321,2640
-102,44,44,-2679,5413,3799
-48,33,-85,-149,792,4466
40,-121,38,-226,2742,4026
-73,-25,3,-1033,2549,2896
-103,122,-124,-84,1613,3454
100,-68,-46,-360,894,2653
5,-55,-18,2184,887,2678
-49,-94,-23,1805,-914,2204
117,-66,41,-299,410,1449
71,-105,48,1288,264,150
31,100,105,1718,-752,-329
-5,-59,-50,-46,694,-388
-76,-88,-117,-387,67,-467
-41,94,-102,1157,-937,-604
-12,83,-77,914,-546,-931
3,60,-24,-624,247,-565
-70,-36,-64,-77,344,-185
-54,-9,-74,112,-53,168
-44,44,-87,-143,404,235
-49,-110,-66,5184,-8153,-4947
7,-109,-56,2254,2493,-7195
125,76,-123,4052,3980,-3254
10,89,115,-162,6655,3189
-125,35,124,-3139,-1220,7398
27,-116,-84,-4512,-7560,2808
96,13,-93,-1409,-3125,-5271
-92,81,117,1377,5186,-5025
33,117,-26,1175,5738,-1187
101,37,71,2901,4054,3651
-16,119,78,1954,1925,5706
118,54,22,672,-2804,3139
-41,-20,-70,-7419,-1793,128
-96,-14,-31,-4807,-8337,-3450
-65,-22,64,-7787,-2924,-7574
-103,93,-9,-4411,-5015,-6499
-99,2,-22,-5463,2266,-3584
-60,-103,-98,1256,-2389,-1165
-21,27,-86,-1614,1595,1655
44,-8,75,-1102,2986,4238
93,-57,23,1639,166,4112
-1,-34,-93,-762,3373,4300
112,-81,-128,1256,-420,3898
99,-69,37,-113,1715,3510
100,-106,-125,512,1338,3334
29,-56,100,1581,44,2156
-83,27,-41,638,203,1641
69,-24,12,581,355,1451
1,120,61,1039,524,1001
-39,66,72,703,769,581
-35,60,59,-81,596,357
-50,37,81,53,279,-59
-52,-70,127,855,-421,82
-33,-34,111,-308,-80,-910
-55,94,109,949,-31,-810
-69,73,-127,446,-522,-595
-62,52,111,-713,355,-495
-78,34,124,-56,-5,52
-67,59,-113,216,-171,68
-61,83,-122,-51,265,271
-105,-85,-3,9019,-82,-4360
99,-26,-38,5434,316,-1648
122,27,79,-2667,8710,1603
68,14,24,-2530,-11656,3799
-73,79,113,-8053,-3242,-2911
-42,107,83,2349,3884,-6306
126,52,-9,7348,-2339,-3098
123,57,-17,2731,7636,-30
-55,43,-61,2262,4485,3927
101,99,-33,3112,-84,5570
109,14,-24,-2686,-1066,3067
123,79,33,-7755,-3675,-126
-24,-115,87,-5695,-8904,-2661
-100,42,-104,-7696,-4850,-4542
107,29,28,-5631,-4352,-3777
72,-127,-36,-5019,1159,-2100
91,-42,-91,816,-2352,-321
13,38,-16,101,4491,1450
-93,61,-43,-129,1922,3317
-83,-86,-19,1147,3454,3710
-86,3,-114,-103,1199,4599
-22,-59,57,-46,954,3824
-23,-104,-76,335,3247,3269
78,-104,22,328,2740,2759
-18,112,63,2332,-859,2145
122,-61,101,1073,690,1624
68,110,-118,495,1259,1522
6,55,-66,258,86,1819
-8,62,-20,170,-554,1476
-16,69,38,405,247,305
-21,100,63,319,-328,-418
-19,60,78,-421,-118,-1451
-48,-124,96,461,299,-1760
-83,91,112,51,-142,-1265
-71,-4,124,481,-100,-760
-58,9,119,-135,279,-126
-54,38,74,-134,210,-112
-58,67,58,12,139,252
-42,121,41,-164,292,309
-32,-49,11,-219,-61,401
-12,63,-108,7761,1024,-5109
-102,28,-66,10673,3386,-2052
-47,-61,92,-1453,5541,1817
-81,68,39,-10594,-5418,9590
4,110,-69,-4751,-6638,-3895
101,-80,84,1226,158,-5897
-49,-63,-37,5662,-840,-5380
-64,-98,73,669,7852,-985
-80,-46,-83,714,6016,2336
-16,55,25,1615,5639,5366
4,-68,29,5874,-5463,4060
-102,-19,54,-9020,253,1731
87,-63,51,-2681,-11027,-1714
88,-102,-98,-6938,-7757,-2171
-120,-91,-73,-5040,-8791,-2199
90,82,-122,-6864,-1073,-1043
-86,-92,-34,-661,-2631,-1125
38,65,-65,-1092,2273,297
9,-20,13,1038,3025,2447
-91,69,9,165,2414,2500
79,32,-86,-679,3911,3058
-111,-83,5,-1203,1873,3952
75,-18,99,-692,2043,3834
-44,79,-29,-848,3362,2689
-54,26,69,1316,186,2591
-122,1,122,2081,447,1216
59,-6,-91,1871,666,1083
98,-88,2,-304,3410,351
82,119,23,11,2316,1230
83,103,91,57,-1106,2575
50,120,-75,1542,-2032,1304
18,100,-80,-519,870,98
11,47,-91,537,-558,-253
-10,-23,-74,803,-270,-505
-33,-62,-85,-23,-127,-745
-33,-127,-73,-501,226,-638
-20,48,-78,1403,-212,-65
-12,61,-88,671,249,-113
-5,-121,112,-1410,417,-138
-12,-98,71,-429,-501,242
67,48,-29,3720,-6083,-6558
-97,-11,-21,13739,280,-6030
-101,21,103,2301,5040,-2118
-13,-72,-32,-4744,5325,4234
-37,-34,-99,-5225,-6240,8210
33,119,109,-5805,-4939,-1764
75,85,71,3561,-2123,-7219
30,-128,-104,7379,-1864,-3658
97,-122,84,-1439,8169,281
105,68,-22,1185,6742,2168
-101,20,58,1720,4610,3417
94,-117,3,-490,-496,3965
77,-67,24,-6260,-1944,1762
-116,111,34,-4646,-10464,-2179
112,113,-114,-8070,-8704,-2818
-122,37,-59,-4013,-7892,-3761
124,-79,76,-4466,-619,-1546
43,-89,-38,-285,-1262,456
-12,44,68,-835,3537,939
26,14,126,1078,3696,2521
100,-64,43,567,1726,3205
3,-54,-31,-2198,5188,3837
-91,23,11,-1417,2340,3468
-58,-32,-119,690,2344,2986
-6,-66,27,454,1746,2856
-74,112,39,1958,-104,2105
-78,-2,110,930,574,2159
100,-104,-81,837,1132,2028
101,-110,-22,148,745,1663
41,-87,30,105,501,796
33,90,96,970,456,204
1,98,120,1914,-237,-921
13,-39,-85,457,181,-1036
-47,-114,-104,-419,-833,-468
-30,76,-71,13,-651,-642
-6,74,-59,-608,395,-876
-31,32,-114,189,-160,-255
-34,68,-98,-254,-67,111
-27,111,-105,-301,431,33
-7,-95,96,-117,4,212
68,35,81,4796,-3328,-4463
-42,61,-107,6176,-3454,-5017
116,-43,18,3140,3501,-3318
57,-80,60,-2605,10571,2477
-94,53,-99,457,-7838,10492
-123,-32,5,-8135,-4412,-3629
119,72,-127,955,2417,-5621
-26,-73,10,10311,-8224,-2745
17,-36,-11,-534,8818,-78
101,-98,-20,-50,7326,2978
-24,61,-26,1437,4457,3429
37,65,52,1458,-1964,4621
116,-95,-8,-5660,-138,1011
-45,95,-20,-3303,-8379,-1204
-26,-61,69,-6010,-4920,-2573
-36,89,57,-6084,-4430,-5925
-81,55,117,-2440,-7990,-4778
-73,-7,-71,-4868,3560,-3412
-74,-78,91,25,-1003,121
-111,48,-98,-2774,5961,3769
102,-105,-73,1160,1137,5071
95,-128,-79,-24,1743,5186
44,-110,-26,-594,754,4794
-9,74,16,139,2127,4325
9,-43,-19,1312,1806,2372
-60,19,-74,1166,-813,2089
51,78,-15,1155,1388,1554
32,-87,-7,657,1077,1156
6,-99,6,460,106,811
-21,119,28,-54,-206,231
-33,20,101,534,-16,-714
-49,-28,-119,122,-27,-1034
-72,78,-91,360,-85,-608
-70,68,-102,-51,-411,-199
-39,53,-112,-5,158,-246
-59,45,111,98,-99,-243
-70,57,-127,56,17,337
-52,-103,99,-399,49,279
-28,-55,80,-378,-40,159
-20,-20,56,-232,186,-87
43,91,-36,5595,483,-4099
84,0,-118,12967,-4677,-3762
37,-79,63,1430,7823,-2378
36,31,-122,-2936,1943,10040
-97,125,-90,-7405,-6390,-2035
-64,101,-34,647,-3065,-5292
68,43,-6,5223,-1099,-2422
-66,-34,46,-894,6761,-589
103,-121,122,3270,4305,2378
-91,112,-49,1204,5571,4291
-11,100,25,1102,-3650,4770
-5,-21,16,-6411,-796,1024
19,-53,-1,-4699,-7999,-4220
52,-33,107,-7901,-6737,-2725
-51,37,71,-5732,-3745,-5916
-84,-127,78,-3989,-2642,-3597
74,-101,-85,-1770,-863,-1375
-26,39,-61,0,3406,2806
-58,5,-35,807,1617,4201
7,21,-56,2122,1730,3206
-21,72,32,510,1113,4208
42,-74,-71,-399,3354,3376
82,-3,-96,-784,1728,3304
23,-120,49,869,886,2598
-43,-87,106,441,956,2058
-123,15,-64,-18,575,1632
91,-102,21,-25,1625,1251
43,-94,84,-660,645,1248
-1,126,110,184,-240,793
0,83,124,1137,-363,541
-4,16,87,1456,-128,-183
-56,-22,107,279,-102,-480
-70,-94,-119,-196,-300,-662
-60,112,-107,94,109,-522
-45,93,-101,56,37,-315
-48,74,126,-413,147,-241
-49,57,126,464,-150,-70
-46,95,-126,-156,208,39
-32,116,112,119,74,168
-33,-105,94,38,42,96
-36,-3,-127,3673,-2087,-6564
-99,-108,-84,7939,-1935,-6408
21,113,-31,464,5771,-1557
-52,70,62,-3614,6235,8969
-67,88,-27,-4050,-14157,4314
-78,-84,49,1750,-2047,-8918
14,-24,-66,9518,1552,-4648
-34,-76,-18,-829,11300,273
121,-119,68,6187,4301,2230
92,58,-51,3134,-1231,9981
112,117,-24,-12156,1733,3641
-56,-93,-109,-983,-17357,-5658
-31,43,104,-10451,-7046,-3309
113,126,-121,-4728,-5776,-5590
120,-78,59,-2514,-580,-1000
29,-58,-106,112,-1668,117
-41,81,2,751,2522,4627
14,119,-35,140,4725,3686
17,117,27,1085,2564,4234
73,-87,-105,862,2042,4716
74,-104,-63,73,1734,4619
-109,54,57,-437,2424,4012
-100,-22,54,234,1479,3121
51,6,127,896,-417,2519
-48,57,-20,1484,-396,1616
95,-15,70,493,1002,1023
37,-36,49,1587,-560,237
-33,-127,84,1195,-543,-253
-57,-15,73,1131,47,-737
-75,-86,86,466,-196,-786
-91,97,99,374,-312,-372
-88,111,125,-352,-211,-254
-55,99,113,-164,-8,-308
-48,92,80,282,-131,-336
-67,104,50,-165,-119,-385
-95,95,25,-592,19,-206
-69,100,30,-170,-32,36
-64,124,11,-204,-69,10
-66,-108,22,-424,31,114
-64,-103,15,-105,-40,180
