AccX,AccY,AccZ,GyroX,GyroY,GyroZ
-105,88,106,90,4800,-5356
25,-87,93,217,6445,-4436
72,-105,-115,1016,6613,-1243
-82,82,-110,4416,5963,930
-97,-18,59,2671,-1797,3823
117,-58,31,-3716,-2947,2235
-26,-52,9,-3401,-3463,-6483
19,16,41,-2399,751,-6598
-98,59,106,733,6388,3837
14,110,80,3535,2430,1937
94,69,91,-6443,3584,4143
110,62,-77,1728,-9680,2867
33,-122,92,-1111,-2460,-3777
-84,-28,58,-2886,2549,-5601
-125,-98,-55,7333,546,-2049
-92,113,-95,1262,4045,1227
-15,-61,-101,-64,880,2967
83,-82,43,261,-1366,2529
-116,-23,89,-1250,-2630,3391
-76,-57,-85,-2442,-2085,2749
-89,-74,-99,198,-3157,3359
54,-36,51,-497,-3315,3589
33,-39,118,-182,-2594,3567
62,-14,-118,1105,-1708,3183
-65,27,-5,601,-980,3036
111,53,-47,-155,-205,1968
25,15,117,853,65,844
109,127,-28,1876,-553,75
84,33,-53,822,571,-215
34,-76,-126,9,172,-28
57,-111,123,0,-33,139
83,-121,103,-614,327,-270
74,108,83,151,233,-22
98,106,90,369,228,-3
99,121,88,-177,49,-28
103,-123,90,-352,169,-28
111,117,103,252,-52,195
115,-111,95,-39,85,132
118,-93,88,-266,-56,53
-127,-88,93,-180,241,-44
-95,115,75,-5748,3627,-5633
-64,87,-98,2740,4265,-8779
-29,-32,52,-1734,9996,-7119
-59,-10,8,2224,7276,-1750
-72,36,45,2621,1346,2853
67,47,33,1934,-5961,2570
60,-55,23,-3695,-4281,1660
-20,-70,-107,-3808,-1089,-6387
-14,-125,-9,-2730,785,-4955
10,3,43,9752,-2679,4161
-70,-128,-10,-1301,6879,2665
37,27,34,1434,-2863,4512
17,48,-89,1594,-9225,3590
-41,52,81,-3178,-948,-3737
-65,49,24,-116,147,-4790
-79,-19,-99,-3203,14075,-2342
-102,14,-127,3723,-777,1177
-122,-122,-26,-2288,3252,1674
21,42,44,402,-1853,2294
-36,26,-77,-963,-1415,2008
45,-19,30,-3322,506,1795
107,85,-10,-2367,-403,1291
89,112,61,357,-2790,2162
68,90,105,-246,-1932,1715
19,57,-29,-1903,-1045,1894
38,41,-81,256,-1767,1587
-76,28,4,-907,-1741,1440
-74,-55,-78,-322,-1105,1507
-116,-6,-72,-1164,-1293,1110
87,-114,-50,-12,-644,1257
123,80,114,819,-83,1289
118,-121,24,46,-663,615
78,67,30,50,-184,667
108,66,2,330,-9,163
91,51,-22,-55,-48,34
102,-20,-34,526,105,256
116,-3,-55,272,334,-137
119,-28,-83,-271,78,-121
-112,-49,-75,-2,188,-41
-119,-46,-84,136,110,-147
-2,45,84,-503,7166,-3540
-76,26,-86,3224,6552,-822
-68,-7,18,2756,4809,1387
96,54,-88,842,-375,2571
61,-53,63,-946,-4519,3626
-8,-2,-8,-3594,-1955,-3618
92,-42,71,-1987,4244,-2626
4,-106,2,4875,-3715,-3020
57,-115,-35,913,4778,642
-32,97,13,2097,2699,2173
-92,-41,115,-302,-1383,3111
82,36,-61,-167,-5586,3944
-54,-12,110,-2482,-2687,-2430
74,-126,-35,-1717,465,-3745
124,55,-30,4033,861,-3449
-124,-57,-54,1519,6237,-218
-31,104,-116,3517,2455,1647
120,5,126,-1051,213,2085
3,105,67,21,-1421,2198
97,71,38,-1763,-2528,1730
47,-94,26,-3259,-1277,1732
12,11,-30,-1046,-1171,2730
84,45,62,1513,-3130,3725
116,-89,107,163,-960,3172
111,124,-88,16,-2002,3399
114,-100,-104,-365,-282,3055
-5,-104,92,-516,-1427,2958
-15,89,90,608,415,2492
-82,107,11,-394,-12,1951
119,62,-22,411,-183,1564
60,108,3,647,-282,562
47,88,-8,306,-109,-290
39,-24,-47,130,242,-724
34,-83,-78,167,215,-680
57,113,-110,350,284,-563
88,63,124,384,328,-628
91,44,111,145,299,-501
100,17,108,-87,130,-80
102,44,110,-51,-27,17
100,85,126,-181,-108,191
-43,-33,83,-200,4053,-6561
-31,54,68,-87,3216,-7028
34,9,63,489,5075,-5063
119,56,78,1109,6308,-3512
23,121,-89,2350,3442,-183
84,50,84,-533,613,3221
-42,-104,-24,-848,-4277,4063
-80,-114,-22,-3354,-4541,870
-122,49,-103,-895,-2287,-4944
73,-86,-69,-4925,6858,-5155
19,-16,-91,5265,4213,96
12,-17,112,2151,1929,3323
-23,-28,-104,-246,-2248,4412
86,2,70,-2986,-4810,2329
-125,-52,-21,-1839,-2002,-4697
-103,-98,-17,1265,5494,-4576
118,20,-17,8878,-2069,-2019
-89,63,55,-1420,4790,741
75,-5,-71,-1157,96,1870
115,-93,-80,-259,-2191,2494
-90,68,-97,-359,-2569,3178
84,28,97,-3407,-2447,4020
-48,82,-107,-313,-841,3619
6,34,82,366,-2157,3932
-29,103,-95,-224,-660,3676
-100,57,77,-832,-866,2852
95,-77,91,1426,-229,3128
-9,-74,-10,-923,-696,2416
-51,-12,55,-2038,-520,1485
-116,104,50,2254,-152,835
-116,105,-18,994,174,-460
37,39,-87,-599,318,-908
19,-113,-118,-325,149,-310
45,-95,125,693,220,180
96,-79,96,-15,495,-185
-128,-110,64,215,68,-537
-125,-128,87,-307,44,-612
114,55,102,-3,205,-512
123,73,102,79,316,147
113,81,91,71,-22,187
-54,-41,2,-3184,3093,-5112
51,71,90,2056,1891,-5614
-81,50,58,-2329,6628,-5848
95,32,100,762,5594,-2528
118,-98,-24,1251,6993,-1236
-78,115,-15,4636,1448,1926
-71,-107,40,-883,1786,3022
66,-102,-114,-2958,-4219,4308
-67,26,104,-2515,-2975,-587
-109,34,-50,-1901,-1351,-4963
-61,-14,-60,901,64,-4844
-52,-113,-92,2561,5723,-2409
88,-125,-106,3049,3331,3192
78,34,-127,-1329,2493,4827
-77,-78,96,-2233,-6054,4518
116,44,80,-6719,-4580,-2863
66,1,118,-375,-1598,-5147
50,-61,-17,962,6147,2856
-51,-30,-88,3089,4581,-1519
30,4,-88,3270,2703,242
81,80,74,-874,-2095,1606
74,-126,43,-337,-967,2691
-11,-47,85,-2879,-1400,2982
101,85,31,-828,-2911,3359
-16,-52,28,105,-1466,3557
-45,69,-29,-269,-1793,3330
-113,19,39,143,-1596,3113
-118,46,5,-169,-1744,2727
0,-11,-108,-166,-1259,2514
21,124,48,1287,146,2103
97,-110,-13,-420,-1309,1834
-106,99,59,-425,209,1762
118,113,16,853,-62,1081
75,111,-45,863,109,-102
46,46,-75,-625,203,-670
47,-96,-111,16,15,-331
60,-123,119,319,223,-397
78,105,103,-23,547,-407
77,71,65,158,195,-168
87,72,70,100,192,-85
-16,11,106,461,4224,-5432
31,-125,66,-2604,3030,-6916
100,51,86,609,7649,-5299
-7,-70,100,1254,5221,-2135
125,-49,23,2955,5061,378
-77,84,-17,399,-995,4805
23,-45,-53,-1727,-4119,4934
-16,-83,51,-3802,-5812,1107
64,88,-20,-1125,-1686,-5475
13,1,-75,-4417,7758,-5227
8,71,-72,5132,1849,-824
101,-106,-13,3883,4196,4901
75,-1,-41,254,-1069,5302
65,48,16,-879,-12930,3772
56,21,-74,-2952,40,-6931
60,-71,-20,4363,2932,-5696
49,60,-36,6542,-692,2198
-9,52,-98,-393,2905,2481
-52,-93,124,-3189,2098,2767
48,-128,105,-988,-3929,3845
19,54,36,-504,-764,2810
-15,-42,-81,-2264,-1094,3451
43,32,23,-1301,-1708,3088
5,7,92,2356,-2760,2037
-67,32,29,-1042,-1243,3632
67,3,-40,-100,-807,2837
-11,-24,-125,741,579,1972
-72,-54,-43,680,-515,1415
108,-77,-40,270,-214,181
78,46,-65,618,418,-358
60,-17,-106,229,79,-517
50,-111,-125,198,2,-388
80,102,114,94,221,-535
90,67,103,-187,256,-100
89,63,88,-328,52,-183
96,73,94,54,-27,100
102,100,106,175,319,39
-128,-123,102,171,35,226
118,-84,91,-551,114,-49
-126,-102,105,106,231,106
91,-64,87,-2449,3778,-3779
-20,-104,-32,1534,1012,-2953
-35,-63,72,-2307,2645,-8145
-36,-65,79,-2124,4363,-7245
66,79,122,-181,7097,-3672
-27,-74,7,1239,4074,-8
-22,-80,6,1955,3299,3535
-128,-96,122,284,-696,5143
-56,59,81,-3191,-8353,4592
-121,-115,-21,-5579,-3580,-5000
-34,-57,126,1431,-277,-1485
-118,-26,-104,714,3702,-5398
-125,-71,-90,3881,4335,261
-97,-64,-89,1992,2865,4824
-49,70,41,479,-3373,4204
-103,21,127,-7015,-7417,-563
81,33,55,217,-602,-5090
79,-21,49,2443,3811,-1147
46,-35,-18,10566,-5958,498
12,-29,62,-1894,6544,1446
-23,-30,-14,29,-2301,3058
125,-31,-38,-1216,-1999,2923
-118,-4,-41,-693,-874,2589
8,-92,-115,-1266,-840,2822
30,-21,-28,-941,-2388,3127
-8,11,109,245,-1789,3023
-54,-63,45,1950,-1503,2660
53,-90,75,342,-1358,2405
35,101,43,-55,-150,2637
-70,100,23,-1065,-325,2188
-100,102,26,-690,-291,1631
96,92,-1,594,-162,1225
89,-126,-35,-582,393,284
27,37,-75,1226,-480,-134
51,-13,-56,1348,259,-495
65,-90,-109,50,453,-1021
79,67,-119,230,201,-677
84,20,-124,38,96,-461
99,2,121,-214,426,-199
98,-3,100,245,-68,228
35,-23,19,-3968,4895,-6442
13,49,45,677,964,-5962
-67,-43,76,-1762,6347,-5599
-11,-110,104,-588,3453,-2656
86,71,55,-1086,5753,-1766
116,-10,-64,1036,4923,3219
96,-90,-111,3155,-1274,5036
57,120,-31,-1170,-5615,3928
18,100,93,-2162,-4178,-449
43,-25,-122,817,-1803,-3562
118,-43,18,-1107,1978,-5424
-88,-118,-98,1072,9639,-241
98,-66,101,2483,766,2778
-33,-14,-128,-5460,1365,2298
61,-52,76,437,-8661,3935
-63,66,39,-3630,-456,-1951
36,38,32,271,-2282,-5049
-73,49,-79,5365,2254,-1668
-22,-118,-68,-278,5439,193
64,88,-114,573,988,1961
-90,108,-7,-888,252,1806
-90,-57,51,1119,-2657,1962
8,6,28,-1748,-1730,-324
-90,41,94,-3929,-448,2685
-48,-48,127,-468,-3797,3774
-111,-24,22,2927,-3877,1870
-100,-82,-118,-36,-2279,3859
-79,-37,104,-398,-407,2943
-126,-53,27,99,-2229,3162
32,-54,36,349,-669,1952
-62,113,72,1344,-301,2159
-83,50,-11,1657,190,2006
83,72,-71,-65,-404,1716
50,72,-47,595,-732,1089
57,111,-23,107,176,6
19,-2,-68,1116,116,-476
20,-64,-87,297,418,-699
24,-108,120,-878,496,-825
65,100,95,-333,460,-433
80,61,71,396,183,-596
81,110,83,-1505,2503,-6881
78,-118,91,1552,4972,-3262
59,126,108,-657,4527,-1892
-72,-11,87,1500,4437,1922
-5,41,13,-311,2008,3239
-113,34,11,-3811,-3002,4204
50,-120,-25,-1538,-4483,1844
-30,-29,37,754,-1851,-3683
-95,-95,-8,-377,290,-3936
5,103,-93,-58,3042,-4715
14,-71,-57,1699,6353,-375
-119,-68,-52,1248,1296,2556
-85,-39,-125,-2722,2290,3943
-73,-37,-85,-4,-7612,4032
-51,45,118,-3829,-3481,-4801
-69,-70,-89,-1930,-1405,-2579
-30,95,-45,6567,-1788,-1958
81,-51,-41,791,7780,-555
88,56,-102,2096,2199,638
7,-18,0,-1944,-410,-1141
-107,-103,71,-1774,-439,2051
60,9,61,-2178,-1767,2100
48,-78,0,-540,-1895,2839
63,-31,-92,497,-2945,3090
99,-57,37,653,-2617,3410
99,-34,122,348,-1984,3175
84,29,-92,-724,-933,3626
23,-22,126,526,-2056,3286
20,20,-122,-262,25,2216
-109,118,94,1178,-566,2366
-120,37,2,594,194,2265
102,57,-45,-757,-332,1709
65,42,-46,-490,-196,1428
70,90,-69,-387,135,682
51,51,-95,396,-43,-309
31,13,-94,515,193,-601
45,-56,-114,35,459,-825
57,-94,113,11,231,-861
98,89,112,249,244,-906
96,33,102,379,427,-610
-125,-25,81,-1287,5166,-4658
-38,19,96,76,5849,-2798
28,-5,93,4096,3209,676
-16,31,86,1608,833,1696
-45,-76,-38,-1668,1870,3433
-80,-21,32,-3227,-3619,5043
-9,-125,-79,-4365,-3737,-1634
28,-45,68,-2336,-1283,-6021
-58,107,-74,4813,-2263,-4981
-16,121,-109,1956,5630,-2261
126,7,116,1271,2833,2218
14,13,-6,-1084,66,2465
-118,122,-57,-2316,-4185,3049
-89,-43,-61,-2537,-3512,694
-3,38,15,-2089,-633,-4848
95,71,-79,2756,1381,-3276
-97,42,-122,3937,2640,-997
-34,-28,-70,267,4293,-584
106,-72,-120,-159,2199,-325
113,-39,-57,-2496,-922,-208
-114,64,-69,-6204,-1641,828
65,-24,116,-932,-249,1120
17,115,93,1045,-3490,2991
32,89,-64,4955,-5473,3731
-48,86,47,-1697,-1015,3409
87,48,-46,869,-2029,3507
60,88,-122,-131,-1788,3167
74,18,43,1460,-498,2693
-44,-32,79,-149,-864,2385
-56,-118,23,-1238,235,2213
-126,-7,3,521,-1241,2900
-84,-123,50,-477,-695,2352
110,-51,36,422,-804,1031
56,-24,51,883,-40,-633
16,84,-10,492,511,-1186
-9,-84,-56,911,177,-702
27,116,-99,-329,834,-338
53,77,106,405,387,-109
87,108,80,9,380,-345
80,43,66,87,114,-147
70,-35,60,-1018,5206,-4845
57,43,94,1442,7003,-3447
81,-89,-128,1928,7179,-2861
18,35,-51,2335,4553,2393
-86,-113,-94,-1356,890,3293
94,-98,77,-3407,-2428,4153
-43,-57,-68,-4077,-4917,-938
-26,0,-52,-490,-1652,-4941
37,-29,-30,1290,-2618,-3811
-48,-64,-112,2269,4192,-5480
125,101,-77,2243,3276,-948
48,71,-77,1574,4258,2345
-27,12,41,-275,1324,4874
-68,123,-32,-4203,-3829,3925
-12,-9,-74,-5785,-6719,-779
66,19,44,806,-2280,-4508
-99,113,-73,-937,6587,-3208
122,82,-77,4078,2710,-427
-44,46,-47,2572,2947,-56
77,-43,-82,1205,486,1952
-69,117,94,1156,-3823,721
67,-55,-109,-1132,476,1147
46,66,-43,-1340,-2582,2693
16,78,79,755,-2122,3523
19,56,105,1623,-3187,3441
92,-16,-19,-1038,-1570,3482
-128,-48,25,-121,-252,3262
122,-22,59,-523,-526,3344
70,-109,42,1493,-118,3110
71,59,0,1687,509,3116
0,82,-98,52,287,2755
-63,95,-92,547,-424,1987
124,105,-76,514,343,817
68,55,-108,1200,-86,103
32,-22,-89,1430,-276,-350
25,-103,-58,309,432,-586
6,102,-67,-355,465,-215
20,50,-83,568,149,-207
66,70,-78,-141,283,-425
65,58,-73,-256,171,-367
-31,106,88,-1407,5261,-6209
41,65,78,-1144,8244,-4911
38,-88,46,-3503,8309,-4116
-118,-99,56,-1842,-5929,5923
-33,-78,-77,-788,2004,3738
126,-57,85,-2159,-2184,3511
94,66,-58,2000,-4990,583
-11,7,-72,512,-3192,-4306
-85,126,-62,-827,1851,-6080
-115,-113,-101,3749,3870,-2738
-58,19,-41,3952,3315,1356
93,-40,-21,-849,759,4506
-75,2,116,-2646,-6406,4682
113,-93,68,-4902,-2087,-2813
14,104,-47,-2534,918,-8183
-22,-113,-90,3020,5632,-1832
98,68,-60,5112,3265,2859
85,16,-81,1161,3133,1621
-81,65,-96,-815,-728,1785
112,-9,-109,-1243,-2586,2357
112,-105,-76,-931,-2776,3088
101,-55,-19,-1595,-2632,2205
118,-116,-85,-762,-1809,3066
-97,-65,36,-26,-2593,3455
-45,-35,49,974,-2758,3552
-118,-14,109,-144,-949,3156
84,-66,-126,997,-334,3280
67,23,85,1051,-101,2478
-27,-35,8,2453,-323,1574
119,-32,-37,649,105,144
30,37,-77,651,-18,24
46,-48,-82,1043,233,-31
41,-112,-93,586,602,35
32,101,-121,455,305,-278
20,90,-102,-47,519,-197
49,50,-119,534,254,-24
64,76,-119,-186,243,-59
67,76,-112,209,40,-123
83,77,-86,140,366,-181
79,72,-102,-129,121,-41
116,119,73,-6503,6959,-4599
-27,-107,14,196,-1464,-2993
2,-53,88,-3725,3382,-5822
107,-22,87,1120,3185,-5325
-33,-51,90,-1640,6886,-6341
-5,24,-89,-704,8255,-1225
81,-54,119,544,3268,418
-111,-11,62,2130,2282,3848
-38,78,-49,217,-355,4632
-45,83,-22,-2041,-2767,4424
-10,125,-110,-2756,-5554,588
73,-8,22,-2582,180,-3558
-84,-56,-31,1477,-598,-5678
-51,30,-69,3278,6298,-3633
-7,50,-119,2593,102,3378
-32,-16,66,-4524,5253,4082
-88,76,-104,-2239,-7794,4609
-42,17,18,-757,-1418,-879
46,-48,-116,-980,-1385,-5154
-97,20,-57,420,4754,-5455
24,8,-80,4871,3522,181
115,3,-90,-144,4188,740
111,-43,37,1344,-575,1430
48,-28,-106,104,-681,1687
-42,-40,31,886,-2127,2563
-4,102,-59,-716,-454,3045
14,-95,113,-1222,-404,3471
-100,71,-37,-1122,-1390,3261
-31,-102,-30,-118,-1303,3386
-41,-65,40,-695,-703,3384
-114,37,33,-670,-1298,2950
83,-43,4,375,-290,2380
-3,-83,2,-203,-1158,2021
-73,82,9,1304,-764,1913
-95,33,-43,1245,8,1899
84,54,-57,-559,500,1546
63,57,-39,-724,228,799
44,41,-72,111,-28,536
28,-33,-71,813,-93,236
35,-35,-98,647,331,-341
13,112,-79,-5480,2150,-2966
-54,-128,-49,-1833,372,-4521
40,107,89,-271,2677,-6164
-112,114,7,-1627,3573,-7159
-78,-109,-73,-1672,4575,-5554
62,65,31,-2105,4846,-2197
52,61,-38,3434,5504,1497
90,106,-27,4833,3049,3671
-21,31,-121,-349,-3457,3465
68,-41,44,-4357,-6220,1853
-101,-85,-103,-972,-2062,-4630
-125,0,-53,-3832,4768,-4748
-100,25,-109,2640,3195,-1384
124,4,-103,1648,3708,1322
72,57,-94,327,610,4710
-60,125,17,-648,-2439,5521
-50,-10,40,-3221,-10632,3607
27,6,-96,-2093,-296,-7623
-7,-11,-79,-1231,1821,-5648
-125,-93,-121,4260,3084,-1980
-47,-78,-125,1934,2494,2240
63,89,-27,282,2184,1177
28,-112,-55,933,-558,2563
90,76,9,-105,-1290,1481
-110,23,124,-739,-772,2212
-20,97,45,-476,-932,2719
95,-115,120,1091,-1686,2819
51,-77,-62,9,-1308,3045
118,-81,-27,-950,6,2571
104,-118,-91,850,-1152,3163
41,-71,-9,-629,-1158,2774
52,108,-26,597,-171,2334
-45,63,-41,-543,-116,2137
-84,36,-42,-166,-397,1994
-115,26,-37,963,49,1797
99,69,-61,618,-39,692
105,92,-57,301,496,70
43,22,-102,1167,61,-428
39,-49,-93,933,-191,-392
62,-80,-93,-219,289,-812
-73,29,33,-2753,2910,-4365
109,-112,-16,-215,363,-5591
109,27,85,-2746,3871,-6361
25,34,-32,-1002,5731,-5660
-2,111,54,372,4830,-2833
90,64,-89,2011,5296,-1312
54,82,-61,-274,1863,3636
-87,-115,10,-189,1072,4001
22,-108,27,-1311,-9050,3865
-111,81,103,-4283,-1494,-4386
-100,51,20,37,155,-3257
-2,-43,-117,2129,4108,-4650
-53,-96,-96,1666,5978,-508
-49,-62,84,2504,328,5279
-104,95,13,-2041,1559,3672
114,-43,65,-3703,-9258,3140
47,42,26,-5959,-2405,-2799
89,87,2,-4576,3289,-5302
-43,102,120,6246,1121,-2252
44,-85,100,1354,4010,-1238
64,42,11,-878,6497,1988
-72,-118,-32,2857,-3022,1760
105,96,88,1131,-4645,1478
-54,-87,-109,-1852,1767,1004
-105,85,-106,-1757,834,1834
-90,40,-38,4992,-4654,3165
29,-126,-23,-2135,1302,2889
34,69,-68,-768,299,3003
124,-109,-23,1224,-1438,3109
127,-58,-71,-154,-248,2710
32,121,-89,2,-411,2639
33,-87,-28,-116,-1073,2316
-46,125,-13,-115,312,1545
-69,36,-69,1526,-169,1498
99,28,-68,-629,-400,1378
99,-3,-46,-352,700,991
49,18,-58,671,-521,630
63,17,-48,541,-132,83
58,-37,-60,328,-121,-405
41,-117,-72,-512,171,-556
-74,-28,82,-1406,3485,-5870
111,-38,64,-209,4104,-5657
-107,29,77,212,5397,-4774
-28,92,32,1913,5582,-1216
-76,-120,35,1140,4992,1554
74,-3,-82,-193,-616,4026
94,-54,99,-2251,-2038,3126
-45,55,48,-4556,-3873,41
75,63,-107,-348,-4102,-2623
89,-13,-52,-905,-1633,-4709
-11,123,116,2728,5909,-3175
75,-79,-99,1360,8474,1286
94,-31,-4,1034,850,2927
62,109,59,-3834,508,4113
-49,7,2,-2653,-9195,2441
126,42,-112,-3319,-453,-5174
33,62,9,-1503,1626,-4191
-81,-78,122,4534,3137,-1865
-120,-103,-111,1247,7962,1276
-86,53,-27,1697,1201,962
-35,-125,56,-1088,-890,1831
88,-44,3,-2836,508,892
-48,-113,30,-804,-1687,1841
-33,-32,-65,9,-1460,2646
-31,-113,-48,1065,-2188,2996
61,10,16,-945,-1427,3032
31,-29,4,-5,-670,2511
62,-68,41,87,-1754,2549
54,-111,31,1066,-445,2392
-21,113,-15,373,-913,2396
-43,79,12,-376,-455,2063
-95,73,38,171,-375,2002
-115,67,-4,395,-298,1710
90,72,-25,-247,-478,904
55,38,-10,447,-113,509
38,-1,-33,700,64,81
16,-24,-64,39,-119,-206
39,-61,-76,-376,293,-393
56,-116,-121,40,301,-701
77,99,-122,148,457,-645
37,90,54,-1478,5500,-5568
-94,7,60,734,5709,-4488
105,-90,0,3319,8132,-276
-90,-41,-61,2493,-1463,7437
-95,-3,122,-255,-4609,3373
42,62,73,-7424,-3699,2442
53,-24,-57,-1804,-2061,-3421
-87,-41,18,-2379,3080,-5437
122,55,103,5875,5148,-3971
7,105,-77,3588,4057,3256
-94,-15,55,-5742,2648,6247
62,108,90,502,-11755,3683
30,-16,6,-4784,3388,-5073
-126,-46,-63,1679,-1537,-4386
-126,51,-96,-430,15571,739
-75,-124,112,8985,-6753,-41
65,-35,47,-3789,3042,3037
-111,-64,-41,-4999,476,1847
81,-7,62,-597,-1228,2302
78,50,78,1318,-4417,3509
-50,31,-94,-1262,-882,2637
-28,-10,-30,-935,-1055,2853
-95,-25,-58,609,-1582,2673
99,-81,79,-896,-709,2645
73,-122,32,1668,-238,2169
2,111,63,74,-605,2557
-17,110,7,1075,-445,1858
-104,95,-22,424,-121,967
115,20,-33,344,159,757
62,7,-54,301,-45,398
49,-38,-74,441,160,-89
71,-78,-74,231,466,-367
78,-128,-100,300,610,-422
-126,100,-100,321,900,-852
116,41,-128,182,753,-572
114,29,111,101,-80,36
-119,53,119,-401,258,-116
-105,60,116,-24,-57,88
-111,83,114,-206,143,24
-118,119,124,-329,-11,76
-91,-11,23,-2796,3162,-5449
-83,85,79,362,3666,-6331
86,11,93,-776,7695,-4139
99,62,-112,812,6698,-3414
63,-50,-24,1153,7210,-721
-91,-84,8,3598,6271,1049
-47,-77,-38,-484,1462,4094
19,-125,5,-3900,-5724,5159
-44,100,127,-3078,-4141,-3669
-83,57,46,765,-2736,-5393
31,-87,13,1512,2243,-3601
117,67,5,3731,4978,987
121,24,-109,28,2767,3890
-50,124,-57,-2438,-1535,5773
-63,-61,127,-4853,-4957,203
65,117,88,1144,-1520,-3627
-34,-60,-31,1349,1969,-5643
112,122,-42,2316,2811,-1305
-80,44,-66,1656,1658,1654
73,-105,54,-1678,2455,940
-63,-39,51,-292,76,2243
110,-58,9,-401,-2029,1600
-26,59,-25,-1790,-4422,2363
66,81,86,-606,-3050,2795
100,-12,33,-1972,-866,2375
65,-2,49,-797,-2070,2166
61,47,94,-1680,-2322,2957
99,-14,-106,1020,-1967,2916
90,18,96,-120,-1598,2417
-16,-23,106,2,-1633,2433
-61,-64,55,474,-1166,1706
90,-73,-119,174,-822,1949
73,-105,44,941,-242,1362
79,-57,42,-439,15,603
33,121,-3,310,26,-1
36,74,-59,828,-53,-447
67,47,-66,-419,474,-964
91,-108,-122,276,923,-887
79,87,103,491,563,-293
64,70,74,325,446,-111
-52,-27,83,-2086,5078,-6326
-50,-100,53,-765,3195,-5209
22,102,60,-1708,6862,-4351
-4,34,-9,-2090,4620,-3525
68,35,-65,202,5981,-1731
74,51,105,833,4425,2934
-9,53,81,2113,-1310,4960
5,-45,-61,-3889,-2286,3720
-84,-101,-16,-4479,-5386,-121
111,70,4,483,476,-5478
41,-114,-57,110,1241,-4979
-104,-61,-62,3171,4269,-2650
30,99,-56,2163,4185,1582
-47,83,-110,-646,937,3336
27,125,-89,-2373,-1371,3868
115,-17,-105,-2974,-8596,3225
-83,-57,-124,-2910,1724,-5543
72,-85,-45,2332,-1085,-4158
71,36,-114,3315,3658,-2192
-11,-38,-64,1785,5204,2284
-17,3,-16,512,-526,2166
67,-65,-117,-888,285,1023
32,-7,-87,-537,-527,414
36,-112,108,-1443,-2063,1170
8,-43,-41,-848,-1073,993
16,122,-31,1277,-2956,2164
40,-88,-2,691,-2270,2635
1,-118,110,804,-2243,3363
64,-66,42,188,-1495,3363
64,-53,106,1079,-1908,3330
35,-70,92,161,-321,3084
-38,-105,106,-51,-1326,2924
-41,-119,-109,577,-144,2356
-123,-66,78,-266,-228,1401
59,-125,59,-160,-466,705
30,59,29,425,-288,14
14,24,6,-280,66,-663
3,-76,-39,-359,485,-483
1,124,-96,-270,431,-223
42,118,125,-545,550,-185
12,111,51,-3084,5186,-4508
-68,-12,67,973,6304,-4337
-9,75,96,1474,5965,-2287
-71,62,-70,3664,5107,-580
-106,-30,27,3783,1979,5009
99,-79,42,-1536,-1335,3043
-36,127,100,-2844,-2741,4153
113,45,-66,-1974,-3616,-890
-49,-115,-2,-1634,-1752,-4151
73,-99,-42,1592,-234,-4061
-2,58,-72,1579,4490,-3369
-100,38,-92,2254,2567,2308
21,-47,-12,-298,42,3934
2,56,99,-3370,-4083,3497
46,110,26,-3012,-2882,-774
-93,-25,-81,-652,-1556,-3354
115,40,-60,2741,-409,-3795
-104,102,-101,3071,3094,-388
-78,40,-112,172,3088,184
6,85,-105,-328,1042,1523
98,-8,72,1035,-1609,1887
58,-91,33,-1226,-867,1506
-123,-117,121,-302,-2165,2860
83,112,83,-1445,-1600,2846
-121,-104,7,-970,-1683,3411
-109,-50,55,91,-1201,2544
119,-124,-55,631,-240,3198
123,-126,0,1631,-550,3230
62,-38,-26,-1223,-1315,2810
-30,94,67,-1092,-153,2172
-86,82,64,71,-556,2135
-93,-128,63,269,122,1445
111,-92,18,264,-39,387
64,87,-9,173,114,-226
44,-47,-44,769,176,-312
56,-97,-75,570,344,-449
80,76,-116,318,505,-468
101,72,123,-433,238,-425
92,62,111,-461,141,-158
90,65,109,-217,124,75
-36,-61,56,-591,3027,-6512
116,35,70,-1923,5079,-6177
-8,115,55,-631,3505,-5044
-2,-120,96,-2322,3133,-3678
-62,82,-108,-1565,3848,-1307
-40,-27,124,1661,5994,1111
-54,14,23,1879,1674,3802
-67,119,45,-519,543,4108
111,125,-63,-3829,-5070,2022
-74,21,-50,-994,-2885,-826
-123,24,76,1606,-4767,-6379
50,42,-103,831,2684,-4354
116,-10,-67,2675,4398,294
-18,29,-54,1931,3527,3971
36,-20,32,-1390,-60,2445
-119,62,28,-2818,-4982,4225
10,-5,15,-2264,-4138,-526
2,8,-109,-1294,-2239,-4988
24,-19,-119,1756,3429,-2962
-75,-88,-99,3968,4655,442
-106,-72,-97,3224,2414,1328
-103,-46,-117,923,1467,2540
-75,71,-105,-2600,-3315,-1657
-52,-87,-89,-2526,189,1119
-89,103,-120,91,-953,2644
-38,66,100,525,-3741,3118
43,41,-94,-994,-1607,2900
-112,-123,-7,-778,-2510,3528
115,-99,-24,712,-1401,3162
97,-110,-1,154,2,3110
36,52,-18,829,-1013,3743
34,0,-9,1848,89,3758
127,-55,-34,134,-337,3031
-42,-4,4,-353,-385,1407
109,-31,-2,-31,-97,-312
-1,38,-30,1616,-676,-543
4,-43,-36,674,420,-758
11,-126,-96,68,488,-630
23,64,-127,468,196,-419
36,43,120,149,118,-505
