AccX,AccY,AccZ,GyroX,GyroY,GyroZ
93,-20,33,-1606,-2937,-6830
126,-101,-101,-2254,-3436,-6759
124,-72,81,-2466,-5669,-5461
-114,-113,61,-1209,-664,-2611
102,19,48,1680,-1366,1711
89,14,91,-524,8692,4786
-81,-109,-87,-1155,1956,3126
4,24,-45,217,634,1913
-73,-86,94,-751,575,1982
-94,125,92,916,-828,3172
118,105,-16,1388,-989,3341
-88,97,101,-163,-410,3905
69,-70,83,340,76,4137
-17,83,-124,1476,-1034,3664
-64,-13,13,802,-165,3707
-68,-56,-26,1205,695,3136
81,-101,-92,846,-347,2829
-3,-116,-66,168,-32,1705
-94,87,-74,790,-167,941
82,10,-80,1493,-402,118
54,-48,-58,467,24,-497
49,124,-72,239,161,-529
45,13,-84,467,-88,-335
69,12,-85,268,176,-337
74,-12,-110,124,185,-339
84,-23,-116,211,36,-87
81,-4,-125,-258,120,-174
90,29,-126,-334,107,160
109,56,-125,-10,296,88
114,78,106,-8,193,-107
111,81,108,-105,145,31
120,86,102,85,195,-73
-124,90,91,121,170,-91
-118,90,87,97,170,-78
-120,90,87,304,126,-99
-113,94,76,11,123,-44
-108,105,83,-66,54,32
-110,124,88,-37,91,-96
-103,-124,92,129,101,4
-92,-95,88,-115,151,-94
37,-21,92,2410,1387,-7999
56,3,-68,-42,-3432,-7812
-81,-58,17,-135,-6806,-6478
93,112,-126,-5777,-9343,-4251
-2,41,11,-6239,9111,-377
-24,9,-82,2478,-2790,3004
-98,-128,79,-97,8391,4187
-88,99,-113,2106,1192,3616
87,-15,-127,2099,1375,1586
63,45,-66,-792,531,749
-118,-103,-27,2184,1172,2513
107,-48,68,6,619,4459
-64,-97,-108,346,-991,2658
-82,119,-40,-896,401,4870
92,-90,15,2435,605,3281
-97,-125,18,275,1098,4291
-69,95,-117,1640,1116,3313
110,-11,-64,1795,72,3672
28,-31,109,-1639,628,1208
81,125,85,-1022,304,-164
57,20,-92,1020,-304,-514
4,-99,-77,1373,-712,-617
21,90,-40,107,79,-729
41,27,-51,72,26,-761
44,-19,-68,-100,40,-575
54,-46,-82,284,-32,-65
50,-27,-96,-31,118,19
54,15,-116,-15,-66,-99
81,41,-103,-181,461,220
81,74,124,-42,163,-33
96,110,117,-138,116,84
101,126,109,-278,139,-62
107,-104,85,-258,41,-437
123,101,127,135,148,-186
102,85,100,373,115,-162
117,111,109,-244,127,-83
-128,103,93,419,334,88
-96,-7,38,-674,-401,229
-102,-28,20,-3713,194,-2125
76,-125,16,-341,508,-2939
88,47,111,4651,2987,-5789
-32,-120,20,286,-8676,-9955
-47,-94,88,-5715,-3507,-10037
-90,-55,71,-5097,-5236,-5247
-87,-73,-98,-2882,-276,-4733
-32,-89,-106,710,-3129,-1367
-3,100,-115,851,388,5074
23,-94,63,872,5781,5921
-63,-34,-85,996,1007,2789
9,-22,87,749,2581,-1033
13,112,-1,312,862,2233
-49,114,31,-1232,2023,4811
34,-6,-17,1396,175,3715
8,32,86,75,1938,4108
88,86,38,1160,197,4088
-75,-83,27,838,-397,4143
-106,-78,-81,-821,-153,3645
126,85,-73,1422,475,3255
53,95,-77,460,-173,2928
-10,93,-55,359,256,1872
-96,-4,-42,1081,-181,1881
63,14,-44,-158,218,1202
50,29,-63,177,-99,83
38,-26,-55,919,-174,-347
19,-118,-36,551,-20,-515
7,87,-46,204,-109,-578
12,22,-61,-161,-7,-524
24,-3,-70,-78,-86,-314
28,-18,-93,-81,-270,-94
41,3,-94,-56,130,-79
32,6,-110,244,417,-152
62,55,121,113,232,244
68,99,98,-459,128,-179
79,95,110,325,3,0
86,112,116,-44,343,-237
89,115,110,150,-180,2
86,126,108,-695,345,-296
104,108,120,-97,-6,38
102,-94,-128,210,451,-246
-123,16,116,-140,57,-321
-75,86,-112,-361,-3552,-7824
-63,-71,-36,629,-8706,-7917
-94,54,73,-4696,-5817,-4926
-98,69,-47,-5958,4275,-1008
-47,-24,15,4017,-205,4107
-105,63,81,-2231,9209,4495
42,-8,-113,2349,-2931,1385
86,-47,-7,1547,2353,496
84,9,-27,493,3700,3982
76,-100,-43,463,1847,4524
-20,45,74,2024,-258,3570
-23,94,-79,-1006,2151,3780
102,122,47,-97,498,3901
94,-117,42,1865,-289,3763
79,-55,-112,-378,296,3759
46,86,-74,1807,649,2464
-56,93,-107,-283,225,2503
-69,14,-86,577,99,1994
101,23,-20,323,36,1949
86,-15,-55,599,195,1639
54,73,-90,-6,-277,437
34,24,-90,-102,-616,-946
38,-111,-40,413,-278,-732
-18,73,-49,215,-154,-682
-6,44,-45,-51,-227,-467
24,15,-42,35,473,-259
33,7,-89,292,69,-263
36,16,-97,-135,231,-90
39,36,-128,-107,231,-82
61,75,114,-25,75,100
71,88,112,-139,297,16
73,103,109,208,-34,-51
80,111,115,-128,177,-26
76,117,108,51,0,43
102,-124,98,-138,196,-201
92,-127,96,161,-112,13
93,-72,106,-510,172,-170
46,117,-80,-458,-748,270
-38,74,-78,-836,228,-2754
-77,119,60,1513,2399,-5930
-29,117,-51,2669,-5386,-7723
-61,60,-119,-2306,-5382,-7144
-99,-27,91,-5862,-4368,-5894
-120,94,-101,-4110,-3630,-6029
-8,-106,36,-958,-4477,-5614
99,115,95,-2226,255,-835
-102,92,-77,884,-2644,1944
34,-126,106,241,5654,5005
-89,116,53,271,6491,3772
4,85,-87,1437,-1076,1712
88,-60,-6,438,550,525
-108,9,-108,-2042,3445,1910
-87,-95,122,481,1297,3536
-118,-51,44,2626,-814,4922
-120,-6,58,-560,1037,2712
74,21,21,143,1428,3778
22,47,87,109,-417,3919
101,57,-124,1089,1057,4004
-117,75,111,835,277,4297
104,-86,-123,-384,-339,3300
33,-48,-43,-656,246,2257
-86,-122,-77,1806,-411,1521
93,110,-74,733,-269,792
-18,37,-72,-64,-114,-73
1,-34,-31,257,-66,-62
-3,-95,-57,217,105,-431
-8,71,-53,522,-273,-508
-6,44,-52,406,136,-470
7,13,-76,112,124,-287
13,-3,-90,245,72,-92
30,19,-101,347,27,54
49,57,-114,-129,357,104
40,59,122,6,-85,-108
60,86,-127,-15,168,-14
57,83,-125,-34,157,52
59,96,117,100,68,-22
77,119,121,-161,265,-56
78,120,104,99,39,-97
83,-118,103,-43,136,-111
105,-106,90,-116,120,-252
7,-78,-21,-3790,2114,-4426
73,-5,30,3503,537,-6085
-112,43,58,4106,-2899,-8424
-92,-52,-103,-2498,-7334,-10633
-85,-53,34,-3280,-8106,-9696
72,60,-4,-3249,-4066,-4851
120,-82,20,-2600,788,-2604
39,121,-123,341,4777,7423
-4,-103,47,527,2597,5469
101,120,-47,482,3087,1178
-62,72,-33,-23,1565,2084
36,-119,69,509,844,5091
-101,-49,-41,130,1330,3615
-70,44,60,582,-371,4067
31,-36,39,-239,889,3166
85,-62,15,214,-144,3876
40,-48,27,1000,-612,2950
66,-128,123,1027,142,3542
21,-109,121,893,-576,2592
-30,87,-62,166,856,2109
-127,5,-19,351,-90,2390
-100,63,-3,375,268,1671
123,17,-100,-1346,236,323
23,-11,-77,2517,-887,-861
-5,-120,-36,-235,-54,-525
-21,77,-80,-511,190,-620
11,35,-63,203,202,35
25,29,-112,203,363,-531
49,48,-110,270,2,-110
46,29,126,235,91,19
47,69,-126,117,106,-202
72,68,114,-203,311,132
57,76,109,-133,-45,36
81,-128,112,-61,247,-129
84,107,115,-73,185,108
86,-117,93,-93,59,-57
107,-85,95,-275,91,-142
109,-97,69,290,-85,-368
91,-101,103,46,-57,-304
114,-120,114,137,375,34
-111,-48,-43,2933,-4354,-8062
-53,49,79,-5369,-5526,-8792
-124,-89,-87,-4295,-9011,-7819
-4,19,51,-3202,-4165,-4800
80,-45,24,-2921,3213,-5751
-117,-55,-41,1857,-924,5753
-123,108,91,-570,5682,4101
122,54,-34,1217,4362,3007
60,-30,68,236,2507,1874
-46,27,109,1328,907,2685
-115,-41,96,1570,1280,1825
-128,-92,-91,331,-433,3291
-87,-69,64,-132,1197,3451
123,10,48,1616,252,3610
26,86,104,616,1493,3443
15,-8,23,952,662,3547
91,95,-16,-701,411,3345
38,58,65,-1052,575,3305
-4,89,112,944,-397,2947
-43,-118,-42,569,608,1827
122,65,-121,822,-139,1235
68,80,-95,-160,-449,419
14,19,-56,64,-242,-607
2,-70,-22,547,-187,-278
-14,126,-36,61,112,-545
9,99,-54,-394,227,-352
19,31,-86,458,282,-311
22,32,-116,368,-64,-234
36,36,127,-279,531,-246
39,18,101,331,-19,-61
55,53,89,114,84,106
73,95,98,-240,249,64
59,91,97,62,-55,93
74,122,105,-76,75,-44
80,122,113,-90,144,84
79,-106,92,-213,142,-166
100,-128,96,167,-30,-87
100,-115,101,96,245,60
94,-101,85,-209,181,-81
120,-35,64,295,124,635
81,14,-87,4391,1437,-7301
61,-77,-21,2518,-4801,-9202
-44,-58,-47,-3879,-3788,-8117
-37,-20,-76,-2619,-4721,-6805
-2,114,-66,-769,-6066,-5443
-85,-111,-98,-2604,-3095,-2929
-118,-65,-64,5219,-4744,1165
79,41,-100,1373,3825,5341
-32,-43,64,-177,8038,3943
-127,-109,96,757,3113,1299
-69,-39,63,1575,305,2690
-49,-37,71,1123,-773,1943
-54,106,-71,-1227,3272,3101
53,-103,35,-231,761,3926
-22,96,-28,1040,296,3771
24,-121,-26,1021,-127,3547
76,126,121,340,1201,3265
47,57,18,1672,158,3300
81,79,115,80,696,2972
-12,61,119,578,584,2194
-68,35,-110,-38,258,1960
-117,31,-90,-247,58,1873
91,0,-60,638,-114,1401
38,3,-62,664,12,981
55,76,-67,-70,37,-22
41,-27,-92,778,-287,-651
19,-111,-47,871,-362,-722
13,86,-33,-324,139,-632
23,15,-71,-174,9,-705
35,-18,-82,62,-40,-401
39,-25,-96,-123,258,-9
39,7,-120,-51,128,-107
57,43,117,-84,38,100
62,70,-127,-43,144,153
75,117,111,104,206,-30
84,-121,104,-310,95,13
83,124,104,94,44,52
92,-109,108,94,184,-175
98,-114,102,-104,68,-68
107,-112,94,-13,189,-71
39,-2,-4,1643,-2109,-8806
2,25,-27,-2045,-5859,-9900
-59,0,-40,-2344,-9115,-9419
117,3,-113,-2483,-4863,-4320
-105,76,93,-6103,4928,-3204
63,-17,-73,2081,-2708,3275
-28,-60,101,563,5852,5729
-38,36,86,2043,1567,3651
-23,-124,87,1482,964,405
17,14,91,-247,2187,1060
-48,88,105,-470,2527,3898
36,41,-72,2199,-33,3944
-21,-12,-71,113,479,4275
30,-122,-37,-27,595,3174
103,106,34,534,357,3828
96,102,57,1069,145,3281
61,104,53,247,130,3245
51,44,115,1255,-172,3082
-10,84,-122,-489,70,2403
-61,50,-99,-539,80,1874
121,22,-79,1206,-263,1814
52,37,-63,457,-350,1092
37,55,-10,-727,338,612
45,73,-77,-336,273,-570
13,-47,-83,1066,-538,-716
8,-127,-52,947,187,-1293
-2,11,-71,739,48,-895
10,-37,-77,396,-27,23
26,-29,-102,-53,185,-101
42,14,-111,-326,443,-103
38,7,121,-46,83,172
65,104,111,-202,380,-79
60,88,104,24,120,84
69,105,100,-115,94,-1
77,117,104,-30,93,-80
78,113,101,136,112,-85
85,112,99,58,174,-19
95,127,96,59,105,-120
106,124,92,-75,125,-45
102,-115,77,-17,90,-151
46,-66,-61,-6281,1704,-2044
9,40,111,-179,2931,-3720
95,-81,85,6806,4404,-4516
-37,27,35,1852,-704,-7744
47,46,40,-5227,-300,-10590
-81,92,20,2542,-5067,-10631
91,-49,-7,-2138,-1220,-8325
-82,39,-115,928,-2275,-1910
-115,72,-110,2235,-2314,2666
40,-121,79,-71,4655,7994
-83,119,-70,-1610,5369,2178
-57,122,-107,1577,-763,2596
55,-92,16,949,1215,615
-80,-45,-110,5101,1146,4500
46,-29,-31,914,248,3731
51,-124,84,236,2486,3160
-79,4,84,-845,1569,4396
85,-115,-12,-545,778,3038
93,113,95,708,264,3329
62,44,-117,358,786,3362
26,56,85,954,-647,3168
-10,64,-43,411,443,2323
-76,-47,-107,1126,170,2234
125,-18,-94,356,-71,1929
58,-49,-76,222,-226,1624
39,-33,-20,232,-231,1840
25,73,-36,-927,275,244
16,66,-76,362,-685,-490
-31,-23,-42,639,-1450,-1106
-8,-114,19,79,504,-781
-15,61,-87,28,410,-977
-12,-11,-118,335,-42,-678
-9,-18,-121,75,47,-689
2,-41,-128,-148,177,-256
1,-39,118,-125,152,106
3,25,105,-195,64,97
36,92,115,-346,254,51
36,104,95,-106,115,163
54,-115,101,-176,97,64
61,-88,93,-182,284,-49
9,-95,-21,-3910,3614,-4188
100,15,-68,3335,-2395,-7855
-84,56,-3,-615,-6036,-9032
-82,-83,9,-5870,-2609,-8305
-93,-119,-16,-4811,-4468,-7371
19,43,-116,-1984,-3414,-6078
-7,45,-37,-804,-3813,-4927
-110,-36,123,2733,-1323,-17
94,-42,-82,1319,323,3818
-102,-114,56,2929,5952,6870
104,85,-63,-794,1442,2106
15,71,22,865,66,501
29,-123,-37,-1053,1495,716
42,-18,-90,-677,1318,1970
-89,-83,-77,3407,-1466,3704
-25,43,-35,22,1840,3171
73,86,-123,276,567,2533
-80,88,124,460,864,3337
-92,45,93,1438,639,2975
-35,89,106,96,885,3140
-40,37,59,1614,-176,3361
-28,81,-93,61,922,2990
-66,33,110,575,100,2570
-70,-23,-74,474,479,2632
-127,-67,-107,758,249,2356
112,-24,-76,441,-242,2085
75,5,-55,57,123,1311
28,-2,-41,911,-157,692
6,-6,-44,220,73,-58
-9,-42,-55,-105,-134,-507
-22,102,-37,-3,-86,-713
-32,57,-55,132,-133,-613
-17,12,-63,19,255,-453
-15,-14,-89,284,-47,-300
-4,-14,-103,153,18,-32
2,14,-108,-294,267,-83
14,25,-121,177,-14,149
26,79,120,-458,331,-1
37,99,113,-54,147,22
51,113,101,86,33,-10
-44,-91,-77,2238,494,-7890
-34,-32,92,1732,-3012,-8840
-22,84,-47,-5936,-7078,-11807
-88,30,88,-2836,-7508,-4704
-85,87,-69,-5762,3333,-4256
-70,-3,-114,11070,-10483,3721
118,-67,126,-4255,10556,4284
-104,84,-14,1115,759,2833
-26,-18,39,1050,349,1235
-11,-128,114,-393,2122,541
-109,-95,-7,743,1402,2759
-28,116,105,954,1312,2964
97,-8,44,272,854,3613
-63,63,12,321,502,3089
4,92,45,842,478,3392
27,21,103,809,630,3365
1,-12,40,-561,417,3985
62,59,109,538,291,3683
85,94,-85,202,101,3569
3,108,-89,-286,287,2712
-26,112,-30,159,166,2290
-128,88,-86,918,-302,1556
47,94,-65,727,-425,634
14,49,-37,288,6,-125
-28,-49,-44,788,-458,-293
-15,-105,-14,560,-239,-414
-2,122,-31,-419,353,-967
-10,23,-61,244,-157,-534
3,1,-68,106,117,-410
10,-6,-82,146,97,-190
21,14,-90,-101,200,-63
25,38,-101,129,63,-75
46,69,-124,-126,353,-37
47,62,121,129,206,86
59,90,102,-68,145,4
64,102,102,-41,49,-1
72,117,105,-97,142,50
79,-123,108,-17,111,37
87,-87,107,-252,58,-78
100,-86,109,196,101,-201
-57,-119,57,1063,-2352,-6726
122,-115,76,-2641,-3561,-6302
126,59,54,-2467,-2290,-8092
111,-9,100,-3543,-4823,-7107
69,4,102,-2113,-3841,-7369
-126,-8,-14,-4533,-435,-4438
-55,63,-90,4569,-5681,2909
-26,26,-127,-287,4716,3413
-99,-127,28,-1029,2795,3971
32,65,-56,2963,-302,2219
65,-57,-62,-426,1383,-148
90,102,-5,598,1931,1502
118,25,-10,2773,822,3105
-30,-98,-76,-610,1957,3095
-83,-35,16,763,670,2853
-76,-36,87,555,984,3924
0,33,-4,748,84,2963
73,21,57,0,1007,3919
62,49,74,974,647,3389
49,64,101,993,-10,3171
65,57,-126,400,988,3225
-12,107,-85,409,-2,2191
-94,86,-76,118,344,1726
107,70,-79,355,-143,1363
39,47,-78,734,-301,740
14,12,-53,206,-239,-74
-22,-65,-36,470,-415,-315
-17,-120,-20,-3,-1,-466
-22,78,-37,208,-158,-674
-6,38,-44,-9,1,-530
-4,10,-56,109,220,-402
3,-13,-83,279,-64,-172
13,17,-95,-42,175,-118
26,31,-96,-318,351,170
33,54,121,376,84,19
56,105,125,-277,241,74
58,107,113,-153,120,93
60,119,116,3,142,19
73,-101,89,-202,95,-254
101,-60,97,-275,224,-516
-26,-21,57,4063,935,-7530
-10,-19,38,155,-3634,-7969
-16,-50,-7,-2994,-3717,-8753
25,69,80,-1931,-9018,-3276
39,81,73,-2908,-3773,-5034
95,79,23,-3479,905,-1145
-51,-63,-97,3323,344,2911
-56,71,79,2919,3982,4489
-47,15,-25,1186,4201,2422
-4,-11,118,989,2253,626
-82,27,-34,943,-716,1870
-58,12,-8,115,1502,2073
-34,-68,-76,552,1738,3320
48,-70,-70,1611,1445,3086
-37,13,73,523,824,3537
-29,-36,103,-256,1181,3563
81,33,19,1170,-130,3405
63,56,109,-240,921,4054
13,28,102,1620,234,3006
1,86,-116,410,-206,2817
-46,64,-71,-600,547,1772
125,7,-52,-64,217,1646
77,-39,-54,706,153,1439
35,-49,-55,877,-234,1014
12,-35,-38,-80,-30,727
19,-10,-61,-589,21,-331
-3,-88,-58,356,-233,-628
-29,74,-34,591,-187,-306
-15,74,-49,-54,233,-439
-11,25,-71,45,172,-391
8,16,-97,65,146,-191
14,4,-100,132,180,-71
21,28,-125,-25,-35,-34
36,54,-122,-60,269,118
44,69,-126,-83,230,87
48,93,111,103,-32,-16
62,117,120,-266,231,0
61,105,110,183,-17,-4
85,-91,94,-475,253,-207
91,-46,78,-746,256,-890
-51,-81,-95,-1336,-2377,-7685
104,-5,86,-405,-1935,-8171
-109,-10,-106,-764,-9740,-8502
-47,-106,-102,3067,-6810,-1882
119,106,-12,-317,-1147,-1243
-1,-48,-69,2767,1322,5392
108,-27,97,1301,8283,4299
41,-106,-51,-950,2684,1341
111,-63,-49,1815,-1238,748
98,-81,28,-750,3847,2010
-84,-71,-70,-892,3014,2251
-87,-115,46,2583,790,4426
125,-28,9,69,762,3065
23,11,-66,-424,1887,3233
46,49,85,455,1079,3701
45,64,72,1104,40,3172
60,36,83,-25,1552,3048
27,18,115,411,155,3276
-47,83,-86,-59,-236,2692
-71,99,-69,-274,629,1673
103,84,-88,545,-181,1058
48,50,-78,988,-372,281
21,-25,-54,743,-197,-264
-12,-88,-47,299,-344,-584
1,77,-26,101,-27,-496
-1,48,-37,-85,140,-576
10,13,-69,-16,-147,-303
29,6,-63,-52,204,-199
20,10,-85,36,50,-136
33,32,-102,-114,118,-66
51,59,-103,-186,399,-44
55,73,112,113,-77,76
73,121,126,-363,248,-78
75,118,112,116,-48,-74
75,106,123,75,202,-58
86,116,117,-52,135,-77
95,114,107,-168,61,-52
79,116,114,121,70,18
103,-58,125,-853,439,32
-103,119,58,-1319,494,-550
107,91,-94,1152,-777,-8192
-84,65,113,-2604,-4005,-8653
-122,-121,90,-1454,-3842,-10483
69,-54,-77,-673,-6918,-5798
-34,-88,31,-3084,4784,-3023
24,-68,-85,-793,900,7505
-108,-113,67,1739,4964,6218
40,50,96,228,2919,1964
27,19,-86,1577,-72,3642
-112,-89,-81,770,1418,1839
61,-91,32,-5,1494,3422
72,-54,-111,1172,-217,4025
-9,-123,-19,94,1342,2846
-56,118,-37,-643,853,2904
23,27,-43,2906,-6,4076
33,-112,74,306,517,3198
-36,100,64,-170,918,2476
-14,11,-105,511,-44,2680
-51,54,-48,-517,518,2378
-125,28,-76,688,1,1677
120,-97,-65,-1123,17,776
76,81,-93,553,-223,-175
18,-21,-67,1146,-269,-706
3,-113,-63,533,202,-592
5,84,-94,-1,-119,-333
24,51,-88,-150,448,-710
28,12,-122,283,-63,-160
39,19,-120,-312,310,-155
42,25,119,157,32,-8
60,75,112,42,183,-41
62,74,116,-93,97,184
80,112,102,-188,161,-58
76,119,110,149,-30,-4
88,126,118,45,222,20
100,-113,109,-13,278,-314
100,-119,96,-178,-1,103
112,-105,101,-153,170,21
117,-93,90,128,57,-163
119,-84,85,-189,161,-208
127,-87,87,-74,74,-177
-119,-65,89,1277,-615,-8997
-74,66,58,-2474,-2535,-8548
-118,29,-62,-3003,-3731,-9978
39,-65,103,-2424,-5448,-6540
-72,20,91,-2925,-17,-6042
-71,63,-125,2152,-3520,1743
-95,-113,-94,2172,3732,7859
-103,3,-52,-78,4723,3684
104,-96,-40,2189,808,1952
39,29,-73,1112,743,2411
45,14,-38,3484,1263,3127
45,-24,11,644,1375,3832
-14,-25,-78,110,888,2267
-102,-34,13,363,792,3542
-86,62,11,965,480,3296
-31,59,37,263,1341,3250
6,50,32,1128,47,3142
-2,92,57,36,856,2682
-30,18,-115,494,522,2640
-77,67,-123,135,389,2151
-118,19,-73,627,-31,1620
102,7,-76,476,471,1355
75,45,-123,-198,196,474
39,1,-114,476,-431,-288
13,-106,-69,980,-296,-353
-14,80,-44,317,21,-421
-9,57,-57,-427,110,-428
7,15,-79,-265,137,-232
8,-8,-89,254,201,-47
25,34,-112,-97,115,-66
26,59,95,-807,-285,31
52,89,-123,-104,615,-221
57,102,101,244,207,-41
64,-122,88,-529,-90,26
70,-125,104,-57,114,-101
71,123,110,113,119,-103
82,-117,81,-289,32,-151
93,-98,84,-186,156,-241
111,-49,70,-158,183,-221
-93,74,20,-221,196,-1126
124,-68,119,2647,-4840,-10467
-64,93,-14,-3614,-2195,-7784
113,66,98,-3286,-2232,-5777
8,-5,13,-2571,-4511,-5690
6,-21,-41,-2476,-4871,-7264
64,113,-63,-59,-3362,-92
-110,32,-88,4320,-2052,3411
-87,-52,99,1333,6675,6794
-39,21,119,165,4618,2748
67,-54,91,1772,977,1244
-42,62,-72,1297,1290,2555
-7,-43,105,948,2204,2923
-110,-44,7,531,912,3514
-110,-14,-28,1118,965,3482
-10,-111,28,-304,972,3302
-41,37,0,528,697,3358
27,-126,40,431,586,2745
9,68,63,719,531,3146
-41,110,121,736,261,2206
-71,-19,117,622,803,2351
120,-8,121,-181,-98,2471
-107,69,-69,-271,263,1728
109,119,-99,1102,-189,608
50,61,-79,597,-196,-366
-3,-95,-39,607,-319,-489
-25,95,-20,249,-180,-272
-1,77,-23,-314,316,-275
10,28,-78,139,-29,-333
22,27,-82,-39,193,-245
32,21,-108,-2,74,-59
27,37,-115,-282,205,-4
45,61,-127,161,77,-9
59,97,117,-278,128,-80
56,78,120,6,53,141
65,110,119,-69,148,-74
76,119,108,-167,-2,-14
78,122,117,-79,189,-37
83,125,107,-4,132,-38
100,-108,100,-215,151,-40
109,-118,106,382,-45,-210
114,-75,15,4688,-456,-7095
-1,97,-119,600,-4438,-7003
-128,-124,74,-2057,-4016,-7024
109,-8,-34,-6134,-2294,-8098
72,62,93,-3117,-7384,-5933
-38,119,45,-883,-3972,-3461
17,-36,72,454,113,-1697
56,-28,-111,1472,6017,6327
-3,-48,-6,265,4185,3510
14,105,-109,739,-172,2682
109,116,106,-288,1340,1352
9,-19,31,-49,1629,1354
-70,110,-12,2823,277,3859
60,-118,-40,-278,615,2748
82,37,25,717,608,2687
-86,87,102,589,575,3177
-51,100,98,928,716,3390
-37,84,12,205,1111,2896
16,23,7,889,143,3021
-5,62,109,485,532,2655
-41,-23,119,1099,416,2498
-61,27,-103,-664,540,2345
-107,-9,-73,787,209,1855
118,60,-85,643,32,740
78,58,-79,27,197,-57
32,-53,-75,427,-500,-428
6,105,-52,805,-198,-432
17,81,-51,-41,82,-593
29,50,-88,-1363,481,-852
33,-24,-115,394,-249,-133
43,6,-91,241,70,39
47,46,-114,-252,2,-177
59,50,-106,-94,222,80
62,78,-128,-23,66,-18
82,103,127,-238,218,36
79,104,122,167,86,9
89,121,118,-76,182,-35
98,119,112,99,100,-1
104,123,105,-75,236,-36
111,-116,93,-257,129,-133
1,-2,-22,-525,1978,-8234
-28,-3,24,-876,-1410,-8364
-68,-2,-45,-652,-2377,-9389
75,39,-128,-1892,-7921,-5028
-47,-87,-8,-5048,9015,-4856
-15,-99,106,2983,-5374,2515
-5,-103,106,1406,3566,5582
26,83,-21,3865,2204,4166
-43,-13,-91,-1421,6091,1139
-110,-59,93,874,2098,158
98,-91,-92,504,2265,4129
9,-3,7,400,943,3367
59,20,-28,215,240,4911
21,82,75,-366,298,3232
56,33,47,935,548,4195
98,116,62,467,561,3397
25,97,18,17,-88,3150
25,-118,-84,-390,542,2552
-18,-42,-116,1957,287,2822
-87,41,-116,86,6,2102
109,14,96,1804,-1587,2057
49,62,-74,2218,-1604,709
12,96,-39,-1449,1072,-743
-25,-81,-85,-214,-142,-356
-30,125,-19,-224,-249,-452
-26,74,-55,-413,557,-812
-19,-8,-80,541,-77,-612
-4,-16,-88,416,142,-380
-5,-38,-74,489,-56,-144
0,-1,-83,-377,521,-3
18,21,124,-160,-68,-130
45,77,114,-467,297,79
32,77,106,-24,252,171
42,111,83,172,-39,-163
55,115,92,-184,188,-8
56,106,79,41,171,-221
64,-119,74,665,-180,-109
84,-79,90,-471,172,-553
75,111,77,-62,-107,-274
85,103,106,-38,144,-163
-91,-124,-105,-2668,-2474,-6485
-34,25,-47,-4487,-2864,-6540
59,-123,-77,-4980,-5446,-6195
56,-29,112,-5616,-6160,-5645
2,-111,-113,-2189,3966,-4662
-16,-66,10,3772,-3708,1422
-19,64,119,774,6549,6052
-9,68,-120,1944,2110,4292
109,-63,-17,2155,-125,1456
-12,-108,124,-791,2488,721
100,108,26,2918,114,2973
-8,98,33,-304,955,2546
76,-66,48,1158,1243,2953
-122,74,-15,1200,520,2959
-51,38,-25,1916,592,3495
-54,-71,34,-1287,52,2675
-51,76,79,1077,417,3069
-17,61,-101,1674,-2,3099
-53,29,82,1410,569,2675
-83,-5,-122,431,406,2252
122,-78,-98,422,967,1956
118,-35,-111,13,335,2105
83,107,-96,-734,358,298
53,33,117,1188,-226,-588
-2,-102,-85,1569,-1048,-242
-2,110,-31,-65,323,-431
2,44,-73,-595,173,-562
-5,-10,-98,333,-175,-420
5,-34,-82,487,35,-114
13,-16,-94,-92,106,-236
16,13,-105,-419,161,-95
29,40,125,-37,140,-53
50,52,126,-54,137,94
51,94,102,-190,190,-89
62,98,111,61,-80,44
66,106,99,-232,199,-185
68,103,91,70,-43,-131
79,95,78,-19,-32,-101
79,115,84,-73,17,-45
87,-93,76,-228,-80,-68
-94,-30,39,-1361,-4560,-8761
-88,-69,4,-2982,-4841,-7917
67,-51,95,-3095,-8069,-8634
-63,58,44,-4107,2010,-422
-30,76,65,901,-1347,2784
-97,96,113,2659,5830,3380
-43,-34,55,3458,4524,5642
34,7,4,1519,1798,2415
-68,-59,102,1059,308,917
-88,24,82,-288,2887,1530
-92,-89,59,-1924,1734,2631
71,-75,-5,2803,-610,3912
-113,33,65,-10,899,3297
-23,15,10,452,1050,3777
18,53,26,913,21,3961
40,70,63,-61,580,3522
36,80,100,-333,461,3673
7,80,-88,557,46,3485
-9,-96,-84,818,462,2136
-104,-99,121,12,383,1046
55,76,117,-4,-280,727
-1,50,-114,71,-634,-12
2,-10,-63,90,-262,-363
-34,-107,-47,557,-262,-835
-28,85,-46,530,-1,-729
-12,42,-59,-163,522,-604
-6,11,-110,199,327,-495
24,10,-118,232,433,-284
27,11,108,345,141,-186
41,39,113,-50,142,86
40,59,116,-107,96,65
59,78,125,168,119,92
60,101,116,-283,234,166
67,-125,98,83,-4,6
88,-110,117,-258,367,106
80,-110,81,303,-9,-102
101,-79,83,-284,55,-287
106,-72,72,-194,-7,-313
121,-43,69,-528,182,-601
102,-104,89,177,-118,-210
10,65,-4,3841,-157,-9871
118,-24,102,-203,-4588,-6598
47,-1,-107,-3883,-3167,-6436
102,-87,-122,-5589,-3887,-6921
35,111,-30,-634,-7068,-7830
-118,-109,38,-5457,3679,12
0,101,-90,1947,43,1286
93,-55,83,1611,5126,6775
88,60,-62,752,4200,3904
-35,-96,-68,1378,1456,2028
68,-93,95,-396,2004,2494
12,-52,-77,844,344,2983
-108,94,-53,-969,1074,3471
-114,23,-39,1214,70,3032
9,115,48,761,471,3796
-8,74,-28,2030,-170,3189
17,-100,68,-974,483,3282
-29,53,69,1471,395,2738
-40,37,123,577,29,2818
-40,46,-97,-728,864,2655
-78,63,-99,692,-243,2023
-127,-96,-95,-280,184,595
59,95,-99,815,-312,-163
1,-66,-64,1033,-312,-305
2,-117,-64,587,64,-399
7,96,-70,-62,241,-455
9,14,-96,453,-55,-342
18,14,-96,239,40,-207
24,3,-101,-66,298,-229
34,9,-118,120,227,30
38,38,121,-88,117,20
55,56,122,-193,133,138
59,69,111,250,98,12
69,102,104,-261,190,-82
70,84,107,-15,-22,80
81,100,114,169,197,-26
79,111,98,-97,-16,-127
89,98,108,-96,168,29
96,122,98,-102,167,3
101,-121,87,-48,40,-133
10,127,99,3381,-457,-10269
-122,58,-45,-2157,-8336,-7971
-115,-29,-127,-3856,-1658,-7857
91,72,-101,-5821,-5225,-6530
-34,53,106,-1919,-6015,-5109
126,4,23,-4395,8591,-5085
-99,-70,-53,3598,-3253,4810
-80,-22,-121,646,7997,4753
-31,45,-7,-303,3380,2259
75,40,-95,3013,-155,2622
27,81,61,-830,2127,855
-56,-66,-41,66,1194,3255
1,23,11,892,410,2984
119,112,39,-189,732,2713
-72,26,21,1790,897,3759
-38,122,-11,-278,145,3099
-17,94,-4,-239,830,2703
33,29,38,316,-163,3547
1,27,54,331,-358,3439
13,55,-103,316,156,2798
-3,116,-96,-348,77,2319
-73,-77,-60,-107,-352,1108
90,98,-57,1367,-394,199
33,28,-61,1143,-241,-365
19,-78,-67,475,87,-406
7,90,-80,874,-173,-319
12,81,-79,-223,140,-678
27,7,-107,97,146,-458
30,-8,-104,331,44,-124
34,9,-125,107,186,-139
48,32,116,-228,10,13
55,51,114,-75,213,95
71,86,108,-14,270,-26
72,98,102,-235,-16,51
77,113,108,98,68,-60
87,102,108,207,134,-71
95,113,97,-176,150,-1
99,120,92,-20,94,-99
105,110,97,16,167,5
106,-127,84,-75,48,-66
-44,75,46,593,-6826,-9177
105,9,123,-6597,-2274,-8070
64,73,-35,-2765,-6007,-8699
70,13,-120,-1247,-5277,-1729
28,-37,-52,-3536,516,-3918
-91,-62,-49,2220,5359,9220
43,-32,-10,-109,5049,2755
66,53,15,810,-643,3743
10,74,-76,72,3473,-1306
48,97,-120,1423,1103,2982
-57,58,-13,1823,1343,4228
-46,94,-128,-410,308,3757
-35,33,-37,304,1149,4160
79,-121,-41,-304,121,3679
107,120,-67,1188,-95,3939
90,-67,53,278,-18,2928
21,104,36,1374,-78,2654
-28,41,-127,1239,-78,2667
-35,55,120,-463,1228,2254
-59,-41,78,-807,-788,1518
95,-27,103,866,-743,-1381
16,-108,-40,1309,-93,-608
-11,-123,-61,24,29,-358
13,68,-106,-307,284,-585
30,46,-106,118,7,-417
29,0,-116,174,353,-438
35,9,119,-99,95,-216
43,14,118,-211,223,75
50,40,101,109,140,7
70,77,92,10,86,189
78,124,74,-371,182,-15
81,114,85,116,8,82
81,109,94,85,193,58
94,-123,90,-291,193,44
101,-117,76,-2,28,-92
105,-116,90,20,154,-92
107,-121,73,-63,90,-86
120,-97,62,-158,119,-169
124,-118,66,36,100,-22
-128,-92,51,28,-38,-248
-17,65,-92,5796,-1384,-8635
46,59,-97,-1234,-5915,-6603
-92,90,-38,-4751,-2589,-8645
-98,31,-70,-4714,-3866,-7138
70,-44,-2,-1763,-8225,-7935
114,4,-43,1065,-2256,-2540
-5,25,118,2386,-3274,1416
-14,25,-93,-778,7147,5610
28,95,-28,1141,4638,4208
-4,-115,-59,2612,-225,1655
71,-25,111,1018,-322,570
-8,-55,-25,-955,4484,1660
-51,16,81,2637,20,2875
64,29,36,876,1201,2715
58,34,6,-188,1468,2465
78,46,31,-91,474,2900
-102,-15,40,1959,1293,3935
-37,90,-19,1928,142,3525
-87,54,11,397,994,2869
-80,-87,69,-85,1276,3382
-49,-93,116,649,867,3490
68,-60,-119,13,1569,3621
46,-35,72,-462,78,1820
106,-2,42,-281,-257,-1243
-15,123,-67,2223,-616,-48
-15,-86,-78,1010,-190,-149
-13,125,-111,-186,131,-811
1,31,-83,64,-611,-568
0,19,-76,-407,95,-490
2,17,-88,-129,-203,-589
4,14,-100,-249,9,-507
27,20,-100,-247,193,-66
33,74,118,-331,43,-560
41,49,127,-121,47,-92
50,106,105,-354,231,-238
66,118,79,-340,73,-183
66,-122,63,-220,267,-240
78,124,65,-12,-67,-59
88,-96,48,-465,41,-189
88,-79,55,-407,-8,-217
