AccX,AccY,AccZ,GyroX,GyroY,GyroZ
72,9,-47,-339,-3208,-7372
29,107,-78,-1594,2977,-3712
56,-115,-28,-2619,763,4792
-70,41,54,7919,-12958,-828
-36,21,-120,-4505,7028,-4877
94,-128,-107,-541,-2672,-1330
108,90,-112,-1378,27,-6110
-20,47,99,-3735,-482,-7579
-112,31,92,-2906,719,-6607
-43,77,13,236,289,-3658
-68,-113,44,1952,-883,-754
105,108,72,1651,2262,3018
-46,-47,86,-197,-763,7087
2,-44,94,-3792,873,6419
18,6,0,-2839,1861,-2881
39,78,119,1508,-399,-3706
-109,28,-48,1736,-3539,730
111,-81,5,-391,-1738,868
53,-114,-49,-444,-1340,2019
33,-39,-123,-1077,850,2571
-96,-96,54,-283,747,4705
92,49,4,32,-1371,3878
-110,78,39,381,-180,4626
40,90,-80,-242,128,3666
15,102,-86,2084,-1500,4670
-112,-39,59,-3165,-435,2917
41,76,83,-717,-1478,2271
-53,50,103,2858,-824,2960
-84,101,52,1346,247,2242
-99,71,-31,1720,380,1350
97,41,-108,871,259,73
58,-66,121,288,-496,-683
56,72,-100,210,-189,-484
55,55,-117,-654,97,-382
48,9,124,348,-389,9
76,34,-104,27,81,-229
86,35,123,123,-96,-137
91,42,124,-245,-152,-7
91,47,120,-146,-27,-131
96,60,120,-199,-22,62
20,-22,-126,5089,-5433,-5574
-21,118,96,3046,-5086,-11052
9,-11,-48,-5953,617,-9303
58,81,-111,2854,-1879,-2028
-86,-119,58,-1830,-2727,9317
-35,121,120,10373,-14294,-249
-15,-77,-118,-21743,-29856,-829
86,21,65,7874,-16876,4108
46,118,-38,-2055,1698,-870
127,-27,-76,-4777,4806,-8076
-86,11,109,-3439,-1458,-5879
-88,-42,62,-1037,719,-5491
47,50,15,-722,-1457,-1925
57,-80,85,254,1508,134
119,-11,-124,1934,1406,4514
68,-101,52,-52,-677,5243
103,34,49,-3251,2777,228
-103,121,-51,730,478,-1435
24,107,92,2681,-3346,180
-11,-75,-83,146,2570,149
103,34,23,578,-1936,1671
-63,26,25,1121,1897,931
-13,67,91,559,618,2480
-1,-102,110,995,712,1761
96,15,74,1154,1710,2222
121,5,84,-271,1809,2413
-81,-18,67,-944,2112,2862
27,-7,0,359,894,2412
79,13,28,-1600,977,2769
6,-22,126,-1210,1015,2539
4,-36,119,1588,386,3105
-8,42,-91,2017,-366,2363
8,78,-80,752,699,1363
-87,-26,-71,942,128,525
123,63,3,1129,84,680
61,35,17,-166,254,564
62,44,20,-795,646,505
67,46,-4,-1891,843,389
96,42,-56,-672,605,-142
105,-4,-78,431,112,466
-20,74,-47,1820,-2399,-7021
94,-124,-21,2217,-3378,-7284
-36,59,110,-2553,-2517,-8455
-127,30,-4,-1203,210,-4223
14,70,-40,750,-2886,5612
40,26,106,3246,-5854,661
-22,78,58,-848,1293,-3202
78,-97,-5,4008,-4139,1614
99,7,-32,-600,1279,-3096
-112,16,-114,-1441,1185,-7612
125,27,-77,-4534,-1233,-6443
-123,114,117,-680,1538,-5444
27,-62,10,1849,-3032,-1200
35,-104,-118,460,946,920
44,120,69,-496,1239,3563
-109,-102,62,-368,-820,7416
58,33,-46,-6198,6514,2139
2,-37,-78,1285,-1861,-3619
18,30,95,1232,-3058,-12
-40,-88,-38,171,708,-607
73,-3,9,470,-2474,1589
36,-51,35,-480,865,613
46,16,-15,-2337,975,2216
82,38,-118,-73,28,3061
118,-119,121,-1249,1598,3619
-56,-68,-14,908,-545,4201
-24,60,-116,-667,472,3805
76,-27,108,432,-241,3442
29,-40,-95,1261,-518,4086
27,-20,-5,-1442,313,2731
6,35,-79,971,-181,2699
-23,12,-6,202,-258,2914
-62,-106,-35,1243,-48,2642
-79,17,-31,-59,-65,1721
118,-18,-53,473,170,834
34,-88,-33,1012,-653,186
27,114,-35,729,6,-111
30,79,-42,268,-58,-294
22,30,-61,181,-117,-229
39,-17,-59,-362,229,-412
75,-103,-58,1445,-6960,-7790
-113,114,-109,-3585,-3948,-7743
116,121,-13,-2955,674,-6488
30,106,-117,-3418,746,-165
83,-25,100,2772,-2361,5686
98,-59,-126,590,-1988,-3886
88,60,54,4264,-1230,897
91,-119,12,354,-4047,3175
-8,72,-104,-249,421,-4504
3,-96,32,-259,-4142,-6608
-121,-35,6,-4691,1708,-7656
33,-83,84,158,-327,-6559
89,42,-123,1743,-3771,-303
77,50,-90,224,1663,3042
-48,120,-103,-2768,685,7674
-81,123,10,-223,-2977,7121
-85,46,72,1645,-687,-6216
-64,-18,96,-793,-815,-1260
57,60,48,2383,304,543
-45,4,41,905,-1908,919
-41,98,32,966,-1351,414
-57,66,49,-56,571,1498
-34,78,-93,241,411,2317
-24,92,114,-1385,1334,2798
-111,-47,20,-1282,149,2990
118,-56,39,-427,365,3953
-5,-17,80,-119,0,3268
36,80,49,1968,-363,3810
20,-41,-41,-631,306,3160
32,104,-107,727,396,2504
59,25,-56,-229,-37,3225
-18,-7,7,434,-210,2794
-16,-32,-39,619,177,2348
126,-37,-53,857,-624,1536
73,-9,-36,-301,-37,500
51,-86,-70,192,-172,-141
27,120,-70,174,-399,-295
37,89,-75,-573,-158,-688
43,12,-70,-310,-265,-606
30,-28,-89,16,-103,-353
-79,-22,-105,104,-4334,-7198
74,74,-38,-226,-817,-6434
100,-66,87,-932,448,-4334
-42,55,-87,125,-1558,4712
-39,-57,117,2710,-2212,4537
-118,64,-76,-1119,1514,-4486
99,28,-26,-621,3725,-749
-78,-56,47,3086,-5562,5706
-43,44,30,693,508,-2374
-126,-90,-110,-3725,5623,-5781
82,-103,-35,-1698,-1159,-4951
4,-14,3,-1103,-2604,-7747
-8,-77,102,-1753,-2687,-6872
-116,31,34,2,-848,-2418
74,45,-17,-296,-953,1144
-105,83,113,983,1690,5324
68,-81,-67,-686,-2494,6740
-63,-15,-88,-6845,7023,-596
93,95,67,1854,310,-4281
10,46,94,1350,-3671,487
-59,-106,127,1708,-2068,56
98,23,107,-56,-1,-100
95,-71,82,-1565,1992,1446
75,4,-121,684,-1519,2858
-98,36,-83,-1580,1226,2940
-109,108,66,-1066,1336,3407
-28,-17,34,-225,-682,4074
-32,-40,72,-486,579,3845
-118,-117,96,596,138,4136
77,-106,-100,1179,-171,3938
60,-97,-64,-1520,-455,3711
98,-11,6,1197,-423,3974
69,73,73,105,-145,3349
12,37,1,665,410,2720
-113,111,-59,1036,-716,1338
21,26,-74,671,-709,44
-10,-77,-51,-27,-193,-580
-25,119,-49,-499,-213,-391
-29,57,-62,158,-66,-551
4,32,-71,111,-59,-769
-127,-3,-91,2283,-1131,-6767
-37,-64,-22,-2314,-1490,-6424
-80,-50,90,-1264,87,-5499
-121,17,-26,-15,53,-3345
-84,-91,-116,1800,-4967,6979
56,57,-64,3273,-3841,3365
-83,-36,-118,-2831,5485,-6071
9,29,-30,4117,-2973,580
0,119,49,406,126,5684
5,15,46,896,1606,-2558
31,122,-51,-3854,6613,-6736
-66,-72,73,-2819,-1551,-6069
-8,-32,2,-1992,-617,-7271
124,65,-41,-1085,-2163,-6282
84,-95,-29,1338,-2586,-2845
91,-74,-39,312,-345,505
125,-127,-110,849,137,5538
17,-62,27,-1727,1378,9132
40,-59,3,-7678,3709,2954
85,-29,-14,3836,-4438,-3490
68,120,-74,1034,-1395,-732
-78,-2,35,255,2197,-34
-103,62,16,2396,-2742,149
-50,114,22,-561,185,-11
-113,-33,-42,-646,661,1432
-105,21,112,-111,-476,1889
41,49,-111,-1703,1130,2683
10,-128,57,-950,-61,3471
-119,-108,-126,-663,439,3644
1,-44,111,-170,-155,3496
23,-61,-94,967,-608,4177
81,-90,21,59,-644,3546
55,-68,0,-64,318,3312
-17,-48,0,859,-1114,3194
-52,109,75,1229,-60,2138
123,6,46,-334,692,1432
99,118,5,1522,439,1369
93,-55,14,764,-170,1132
94,-73,5,562,-125,301
50,-122,-4,286,-116,-373
-56,117,71,2937,-2266,-7718
-75,124,-25,1256,-4616,-6267
34,14,50,-2697,-1641,-3513
96,45,-83,-2170,888,1784
-9,115,-72,2722,-947,5374
53,-35,56,-2087,649,-3800
118,-61,-104,-1629,5482,-3207
-1,73,100,6152,-4313,6294
37,-31,-37,2666,-10940,772
56,127,74,-3382,4273,-7152
54,-96,56,-4040,-3929,-4732
93,88,-43,-2116,-630,-6067
-45,74,-95,-1673,-2600,-5083
83,38,126,1459,-2081,-1144
83,-54,-94,494,1185,2932
-98,-107,121,1297,1272,6479
123,-59,46,-4677,-1016,8477
-6,-82,-20,-2255,4826,-1854
104,68,119,2544,-2476,-4027
72,-100,-76,1506,-1203,571
-42,-67,84,1732,-1101,-513
108,-38,96,815,275,874
-81,-73,5,-509,793,1842
-71,-38,-127,-126,-605,2783
47,106,100,-1623,862,2449
-64,88,26,315,-40,4093
113,-65,23,753,185,2893
-3,-86,122,-1803,783,4088
-17,94,111,1456,1045,3269
31,-83,57,913,-815,3556
18,106,-64,307,-336,2621
-47,91,21,-1670,1081,2524
-52,123,-73,1051,511,2486
-75,-88,-52,1436,-449,2804
-93,-45,-8,-90,309,2078
100,16,-40,-522,16,992
55,-16,-52,747,-430,-78
19,121,-58,734,-241,-666
20,49,-71,73,-243,-794
29,3,-89,-714,52,-773
-69,89,13,2400,-5953,-5244
114,-10,48,-2218,-1252,-6903
-120,-111,100,-903,203,-6082
37,108,92,-1353,-56,-1379
54,-78,-69,1648,-2602,6902
64,-103,119,4988,-3482,2003
-16,96,22,-3824,8693,-4961
-100,-104,-85,828,39,4146
82,127,-92,1751,-3542,-1149
-75,-63,-75,-2457,614,-7170
-48,72,-34,-32,-4008,-5378
123,56,-92,-2663,-953,-6259
-55,30,-25,1413,-2047,-4663
76,-125,-27,2021,-2812,-1854
96,-92,64,17,922,1374
-53,97,85,251,1271,6455
12,-66,73,-534,-3387,9001
-29,11,-17,-4089,2994,-316
77,-53,6,810,2311,-4197
-67,-21,-119,714,-2417,1447
-84,-64,-117,1265,107,716
-45,107,21,-854,-814,470
-21,15,-53,-382,241,1836
-62,97,-93,-1624,-883,2594
10,97,-122,-194,573,2570
-70,126,94,225,685,3889
-89,-57,38,627,-937,3792
53,33,-109,-879,1001,3976
70,99,92,3092,-296,3730
99,-16,-104,-64,-333,3716
3,-105,-73,-1005,389,3027
4,26,-4,608,34,3251
-27,6,53,514,-412,2806
-60,91,-15,-511,230,2168
79,46,-48,745,-526,966
33,-8,-43,506,-290,-268
6,-68,-73,-448,-86,-741
-3,59,-75,-289,-264,-623
10,21,-77,220,-20,-572
41,10,-103,-416,14,-613
-85,-116,-6,2805,-2731,-5571
86,99,-35,350,-2917,-7101
-46,30,-15,-1730,-1112,-4125
-94,81,-90,-4237,2909,2872
-124,-105,-105,263,-2472,7167
71,-33,-8,2086,2,-2583
-120,103,123,3445,1276,-1733
37,-100,24,1417,-1045,5647
-55,-62,53,531,-523,-1790
5,-98,-69,-2617,1076,-6965
77,-6,60,-1546,-5186,-5438
-79,72,-23,-2693,-265,-6813
-45,-16,112,729,-2030,-5134
99,-18,-21,2448,-4121,408
-61,-68,-93,1350,531,3265
-91,66,116,570,1728,7028
10,53,3,-2467,-56,5854
-16,-74,127,178,1017,-1849
-97,-98,74,-992,-4,-3280
11,42,-53,130,-1065,274
-33,-84,107,326,437,-244
-106,57,-22,-917,-2040,764
-59,-74,-24,-1509,1347,1817
-25,7,-105,-447,-432,2871
52,81,57,212,-335,3065
100,-111,63,88,930,3614
5,20,60,-300,259,3998
59,-58,15,1827,-458,3846
120,21,-75,748,-282,3816
52,-49,42,-1035,913,3213
42,57,-78,2140,-30,3185
-56,-127,-36,-793,-718,2667
-106,-5,35,-663,108,2374
125,-63,27,1507,-154,2149
108,26,-9,-452,-165,1137
66,-4,-52,-465,220,245
24,-80,-75,474,-187,-530
33,113,-91,-296,398,-783
32,10,-123,398,-394,-558
49,8,-108,79,-171,-449
115,-5,-35,3484,-944,-6167
-85,-34,-21,1965,-5086,-7131
91,3,-16,-4190,-1842,-6607
114,-46,-94,-1766,1802,3182
-39,-17,115,2864,-2119,5691
63,127,-34,2602,-3065,-3429
69,92,52,-5038,11505,-1597
21,125,101,4172,-5217,5349
42,44,-72,780,1433,-110
60,72,-68,-903,1173,-5571
-16,68,-98,-1428,-3677,-5892
108,60,71,-4475,-518,-7973
98,76,-117,-2053,-681,-6893
20,78,127,834,-2487,-5098
68,48,18,2647,-2707,-737
67,-107,-45,1269,-503,1863
-55,-71,62,-805,1963,5186
122,121,-98,1238,-1365,7275
39,-124,69,-9921,5009,5025
-59,-52,-87,4317,-1919,-4083
75,-7,-45,2029,-2786,46
-51,11,-97,1535,322,186
-1,35,-31,111,-811,-29
19,18,-43,-1238,-208,1514
-75,0,-73,-2342,436,1460
-83,40,-88,-1063,433,2874
123,104,104,-585,393,3388
-114,-78,66,827,-402,3795
-27,-97,-80,27,352,3990
64,-70,83,838,-533,3975
71,-45,-102,962,-65,3764
101,125,-59,91,140,3596
18,93,-94,885,-6,2632
-13,-21,-18,296,-215,2832
-59,-80,-10,838,107,2985
-106,-11,9,916,-201,1993
81,65,-49,219,-126,660
17,-20,-68,268,-458,-615
6,109,-40,560,-394,-475
-26,33,-50,50,-392,-640
36,-69,-67,5234,-452,-7463
-105,45,47,1581,-5509,-7052
-20,112,89,1,-3263,-6946
37,34,-28,-2260,-4134,-6024
54,83,-97,-1857,1799,-3317
90,102,-122,-2202,522,5359
32,-13,108,4369,-3921,3431
-68,39,11,-4181,5367,-4549
96,37,54,-3975,8406,483
106,0,33,6016,-6807,6276
-128,-17,-11,2002,1749,436
-91,127,-73,-537,3082,-5233
62,99,107,-3037,-2621,-6563
-35,61,-61,-3324,205,-8191
29,-86,-84,-534,-3085,-7962
48,-114,-42,997,-4138,-3765
34,-99,110,3061,-2617,-935
58,122,13,12,1085,3694
112,-37,35,273,1507,6460
56,-87,38,1832,-24,8443
77,-14,113,-10114,8520,2497
35,127,-48,4620,-4894,-3877
114,-81,9,4774,-1958,-771
-6,70,-27,914,549,-71
10,-79,-39,657,-2034,1792
-60,-57,-27,-5142,386,1779
-80,-61,113,-4084,-34,2880
-6,-63,125,1636,-1032,4034
-36,-36,115,1017,-356,4514
51,4,60,681,1159,4234
-112,37,48,1005,-315,4184
-124,-75,-115,1472,137,4002
104,22,-72,194,429,3358
23,98,-83,312,40,3190
-42,-32,-69,2241,-86,3368
-64,-17,-8,1672,133,3022
-115,91,-36,417,248,1529
31,123,-102,890,-975,-658
-10,-64,-25,513,-382,-1166
-27,64,9,92,-48,-708
-77,44,-22,2455,-1299,-8002
61,41,112,3597,-8368,-7653
-128,83,26,-4041,-2652,-6149
-117,25,38,-2855,1664,-1163
15,99,-87,-455,-1853,6267
117,122,58,103,-2890,-702
17,-108,83,436,2185,-2930
-16,-52,52,2045,-417,4825
69,91,123,3429,-587,2866
59,76,-32,2154,-1232,-4223
-11,-107,-60,-1191,802,-4613
11,78,-42,-1348,27,-6020
-95,-21,37,-1776,-650,-5565
7,-24,-116,-1303,-1004,-5134
-126,-126,-71,1239,-1932,-3267
117,57,-29,1629,-2783,-741
91,50,37,2214,304,1403
108,8,-116,-129,-704,6887
39,92,88,2010,500,7853
-48,-95,-29,-9204,5042,2966
-37,-122,1,5148,-2588,-3248
69,-74,-77,663,-3389,415
-32,16,-36,-636,1245,250
-18,46,14,934,-1516,66
30,96,7,-1551,-245,476
-67,40,-50,-2521,-100,1192
-74,73,-105,689,-1663,1908
-19,90,-105,-884,-201,2151
-39,-83,-107,48,153,3283
105,-85,-76,1604,845,3069
-37,126,99,240,897,3666
-24,123,104,934,186,4048
72,92,92,959,735,3357
23,71,-95,-577,248,4153
14,30,-25,799,-396,3584
40,-25,62,589,333,3321
-7,-43,-56,1152,294,3088
-120,-80,-55,-701,-824,1003
24,66,-66,82,-562,-1063
-9,69,19,911,-97,-574
37,126,-43,5139,-5103,-5721
-113,29,81,-1416,2456,-6949
-52,36,-121,-192,-5794,-5700
-31,39,116,-3485,-1277,-5982
-20,23,87,-1057,-315,-3532
21,46,-48,-2579,819,3866
24,83,-29,2819,-575,5767
-98,-42,-6,713,1728,-4696
80,-34,78,1599,1259,869
34,-128,127,4466,-3402,3254
15,95,-101,1298,-609,-3591
-127,49,-105,-997,2407,-3960
100,111,25,-1307,1359,-4754
-41,-31,89,-908,186,-6232
123,-54,15,-1463,-1513,-5657
-79,58,-92,238,-1270,-5457
-102,72,-93,2178,-4197,-2960
88,-25,84,2159,-2473,-910
79,-53,-90,718,756,3933
-56,125,-55,3978,-159,9251
100,49,113,-4990,-25,8224
52,107,-45,1913,2090,-4093
-92,38,-116,-2100,2082,-2334
-83,21,-44,1804,-2846,282
11,34,41,-244,-168,150
-2,-14,-24,1611,-2132,724
-35,-84,-36,-1379,175,2011
-55,31,-91,-1870,-514,2301
-15,74,-86,-944,843,3384
76,89,74,2262,39,4359
43,74,104,-167,367,4265
-1,-9,69,115,493,4161
85,-5,-73,1806,-270,4017
25,127,-74,1947,597,3771
-7,56,-13,444,57,3715
52,28,-4,-984,530,3500
29,2,-23,131,313,2946
-109,-35,-64,-258,-1032,715
35,115,-94,421,-473,-1035
-6,106,-36,1135,-599,-704
122,-82,-73,2246,-2815,-5087
-55,115,-62,1517,-2077,-5796
-93,-65,39,-472,-2399,-5948
86,-27,51,-1564,299,-4915
123,-18,-113,-1675,1245,1592
98,-119,-37,161,-307,5419
-73,-22,-69,1350,-2087,-2803
98,108,30,-1267,5155,-2451
92,-84,89,3223,-4297,5222
-41,-126,0,-2227,2925,-1296
4,-64,54,-1803,4038,-5800
-116,-29,100,-194,-2239,-5206
90,-85,40,-4295,35,-6544
41,27,-19,657,-2744,-5847
114,90,38,1017,-4512,-3274
18,-99,-55,419,-1496,-940
73,-100,37,1783,32,3219
36,90,106,821,-632,7080
103,31,16,-2270,-367,6642
-54,72,-95,-5969,6445,537
84,-85,34,8696,-2551,-3151
28,81,61,2765,-2287,-629
12,3,97,-115,1738,890
-81,-68,-52,-2184,-2058,1211
-105,86,-66,-996,-525,2607
-38,-59,-86,-1299,-98,2898
63,56,121,-1060,913,4407
-47,-127,97,1611,787,4069
-102,-44,22,388,343,4416
107,6,-56,4506,129,5094
-11,-75,77,1919,-307,4247
51,-111,86,148,775,3212
50,94,-127,-1111,1897,3167
-70,-128,7,216,69,2055
98,33,23,803,-269,1823
40,-19,-29,294,-222,1227
-7,-37,-45,168,162,-622
-6,87,-40,595,228,-727
-28,-13,-64,936,-337,-331
-30,-37,-52,549,-462,-239
-24,24,-16,3830,-5466,-5922
13,39,126,-3107,391,-7186
23,98,-105,-624,-1665,-4670
28,-29,13,-2078,1526,1896
-27,-36,20,915,-475,5556
17,-52,78,124,1633,-1876
-73,50,-65,2896,53,-3151
77,-82,117,1834,-1426,4902
66,107,8,1411,948,-1021
-100,-104,-62,-7,2711,-3471
11,93,-13,555,-817,-2978
-38,-27,-105,-436,642,-4839
-59,-86,20,739,-1851,-6753
-118,109,82,-713,-4024,-6108
-33,1,26,1507,-3139,-3596
99,-36,-9,2985,-3565,-1846
48,71,100,2234,635,1433
54,0,-20,601,2235,4784
-15,62,-61,3498,-111,9244
3,84,4,-14110,6155,6275
126,57,-25,8326,-4811,-5265
54,39,33,1763,-1938,-1002
-40,87,-3,3,728,-373
-65,-4,27,-197,-1822,1003
-73,-38,-28,1163,-2393,1381
-59,51,42,-1758,1671,862
-82,9,-104,-274,-308,2253
18,71,-112,-777,938,3519
90,112,78,862,360,3893
-55,-72,-117,272,1461,3203
16,-84,-8,89,-157,4301
7,-119,100,2097,509,3802
-10,102,-91,1504,756,2900
-10,84,-97,1255,607,3157
-20,-40,-45,1311,1018,2812
-62,-64,-98,772,874,1828
105,102,-52,906,309,1671
94,93,-29,763,410,1343
64,-128,-27,-89,160,849
18,92,-25,173,-242,127
-90,-13,-66,-1052,3750,-5883
27,-28,-85,-856,2576,-2953
101,92,76,-263,1739,7687
-6,114,-101,782,-2001,2310
-109,10,-6,2030,1979,-4935
-84,-112,69,2256,-2995,-3787
3,7,9,-204,-1708,-6159
98,-32,-105,-98,-3174,-5995
85,21,25,612,-3004,-5381
103,97,29,1999,-3755,-2927
77,110,54,1700,-2788,-518
47,-28,10,617,-181,1367
11,-62,118,-554,2490,5682
-68,45,-70,1268,-1451,7731
21,-6,-44,-9890,5428,2881
39,-8,-38,3455,-393,-3290
26,61,-86,1924,-1318,-116
-62,-71,93,-1902,1472,958
-58,-59,-40,524,-2037,1771
-34,-1,-9,-1596,114,1758
13,-9,-30,-2056,612,3134
19,56,-54,-500,-863,4431
8,-99,-96,1172,88,4766
-83,23,-113,853,572,3813
-116,-95,98,1000,815,3760
-113,102,85,1483,-554,4313
118,46,-117,1063,287,3775
24,57,-86,1340,-112,3624
19,63,-56,2023,-277,3046
-49,-85,-79,1097,-281,1118
62,32,-55,1177,-159,-87
30,70,0,1745,-364,-90
-19,-10,48,121,-402,-287
-27,-48,69,-231,38,-41
-23,-72,43,415,-131,112
5,-23,-3,36,77,-194
0,-45,-1,153,-153,-211
-1,-63,10,94,11,-141
8,-65,-19,-52,117,-173
0,-62,-50,39,41,-15
-55,-32,32,1134,-4222,-6629
-44,48,-95,-4076,-2019,-6337
124,-32,107,593,-1014,-3066
41,19,118,-1673,-342,4739
-127,-16,-88,319,1303,5474
96,-23,-74,1242,1153,-5376
101,4,-117,3148,940,362
21,86,-80,-1597,253,5703
0,22,-20,955,279,-1217
97,113,104,-645,2651,-3448
76,74,40,642,618,-4649
-118,96,-86,261,-2322,-6926
-106,-80,34,-3301,-2360,-6797
-5,-8,-47,-4466,1275,-6324
-123,-4,-101,3448,-4970,-3823
8,13,-57,2924,-4879,-1588
-16,-54,72,235,1609,478
-65,-64,-32,2887,-234,5634
-15,97,-4,1608,23,7359
-110,9,-3,-8670,2744,5003
-123,28,19,2822,2494,-3313
-43,-104,65,3643,-3361,-1773
-52,108,87,2141,-1963,415
-109,-71,-8,-4517,1048,871
-121,-25,-91,533,-2251,2235
-87,6,-28,-1634,1330,2672
4,-102,116,104,255,3331
81,4,54,123,43,3630
-60,-25,55,850,563,3107
-100,-27,27,554,-242,3842
-35,-36,-128,-93,257,3622
-4,123,-108,1025,397,3063
-25,-86,-87,-746,497,2955
-36,12,-100,170,-84,3131
-44,75,-35,111,-594,2502
-71,57,45,75,323,1858
97,-14,-51,732,470,1242
52,0,-63,555,-559,773
40,-33,-52,207,-54,37
19,-114,-93,180,-111,-419
1,-43,-17,2046,-1032,-7054
-117,6,15,-253,193,-6682
-29,104,-1,-1341,335,-2004
95,-118,22,-1142,-2926,8436
117,55,-115,1072,-5107,526
-58,-120,117,-352,13430,-5093
-15,96,-112,4841,-6384,6634
100,113,-62,680,-2536,-300
52,-95,-23,-2508,4851,-3856
-27,41,38,722,2667,-2467
-107,73,-41,3918,-87,-3457
-55,-59,-98,1214,-2193,-5670
-126,-53,-77,-3810,-354,-6030
106,89,25,-1617,468,-5628
-67,-92,-48,4623,-6519,-3591
120,-70,-26,3180,-5124,-1904
55,17,-79,359,160,806
46,56,81,1954,628,3824
-21,-29,-73,590,2230,8158
125,-29,5,-4191,1318,6144
101,81,-31,3215,-5348,-4576
15,-99,-127,-1780,2037,-406
-52,43,100,1261,-403,317
80,87,4,-617,1240,-40
14,24,-27,332,-1194,826
-3,-48,-54,-1139,207,2082
-18,53,-105,-2132,367,2853
102,53,118,-1951,569,3732
-76,-61,36,1123,-1381,4428
6,28,-115,-92,-169,4533
5,10,-43,-636,-858,3995
-116,-40,-37,520,1599,2885
112,89,79,2688,-749,4315
36,-92,-108,249,-1592,2859
-75,68,18,-1485,533,2196
-94,-70,-17,2172,37,2565
-127,35,-33,1542,-385,1735
74,85,-53,-306,-53,143
25,-44,-50,554,-469,-714
15,105,-28,369,-312,-928
-82,-20,46,3630,-1612,-6247
25,-110,-31,3238,-3837,-4918
65,-92,89,-3953,-1097,-4055
13,94,61,2,982,4084
127,-56,113,-436,99,7659
-102,-128,-81,-1352,-832,-1336
-10,-84,-34,-410,490,-6921
-25,15,-20,-1425,1799,1637
101,40,41,3817,-1884,5314
-95,-92,12,-402,2741,-372
22,-43,40,-63,4122,-5440
78,-88,39,377,-275,-4583
-108,-25,61,-937,444,-6234
-5,112,11,-1513,-1308,-5591
-34,-14,-53,1160,-3271,-4234
-104,110,7,1345,-4066,-2111
119,124,-109,2751,-2776,-162
-31,-83,62,273,-1581,2692
-77,71,-98,176,389,7219
110,-95,50,-2750,-1446,7436
-89,67,-81,-6863,6080,-531
82,-59,33,6248,-4119,-4254
58,-51,-51,2937,-1958,1005
55,17,124,-130,-448,-96
-90,31,-11,435,-3247,-235
-57,-22,62,-1079,866,194
110,-5,15,51,-949,1763
62,-17,17,1469,-245,2487
-16,-120,-15,-2275,2797,3078
120,61,17,2258,-525,4747
-22,56,45,-1176,594,4000
19,-124,40,-1006,934,3693
63,107,56,1750,-995,4293
67,-68,-37,378,-351,4034
47,93,-44,590,250,2779
-48,10,-39,712,265,2501
-51,-96,24,1462,252,2891
-57,0,-4,558,32,2805
109,59,-50,-33,-254,1675
15,43,-37,461,-552,-258
104,-49,104,-666,-2859,-9383
75,-19,62,2270,261,-6502
-113,51,-23,2948,-3202,-7178
58,56,43,-2164,-1112,-5142
107,-58,-31,-3003,3304,-691
-58,-80,-102,-1026,-1429,7618
29,-79,64,3642,-4607,1701
-36,110,44,-2492,6483,-5168
73,-27,84,-1213,2971,701
120,38,-7,2587,-3174,3780
-118,11,52,380,2998,-1456
34,114,98,900,3746,-3361
81,102,118,1975,712,-4018
62,-24,-93,579,-1111,-5148
42,13,63,-2606,-630,-4980
7,-8,-60,496,-2098,-5083
-31,-72,102,1781,-5618,-3129
-113,0,-59,3200,-3398,-1598
104,-119,-101,1054,-2416,1833
-50,-21,-36,-473,871,4293
-64,-128,-53,1420,1322,6728
103,32,-2,-5853,2584,4455
83,82,-60,5145,-3315,-3672
-127,-31,88,166,-2096,-1718
23,0,-56,-92,1200,-282
-51,-26,27,544,-2068,610
-74,30,8,-154,-935,1288
-101,-18,10,-3584,864,1311
-73,54,-64,230,-1111,2516
-42,101,-72,-1684,688,2697
-126,-39,94,142,-461,3729
-106,-21,87,535,-361,3316
-44,-18,115,711,625,3546
-26,-68,111,988,-184,3046
-32,97,111,1456,185,3427
-14,106,-70,822,155,3523
-39,126,-33,418,55,2477
-68,-11,-16,420,450,2186
-114,-121,-29,1284,352,2386
-106,-120,0,881,210,2415
38,126,-60,1039,-2894,-7880
99,-43,83,2199,-1203,-6900
-64,-52,-42,831,-4250,-6423
-48,-38,-102,-2065,-1796,-5198
73,-46,108,-1038,-369,-2388
-77,-102,47,-1221,-460,5583
62,-61,-87,2224,-2104,5883
68,100,4,1422,-431,-4696
-113,41,69,1338,2009,-2281
-98,14,53,3103,-3210,4880
48,33,78,-2146,3513,-303
-60,-103,0,-604,4783,-4432
43,-114,38,-907,454,-4211
82,0,-122,785,194,-6040
72,50,-12,-1821,-2132,-6255
67,-83,-102,-772,-1210,-5018
-86,-5,-57,2228,-3612,-3339
90,-88,-5,3025,-4655,-522
69,-93,7,92,584,1957
-99,-73,-92,1192,235,5189
-12,53,13,4296,-2240,6814
45,-56,118,-9950,7280,1623
87,101,53,3846,-3027,-4131
70,69,-77,1196,-1427,-360
-40,33,-97,-1817,657,-123
-109,77,42,573,-1391,-212
101,-29,61,887,364,1237
112,14,18,-257,-694,2001
-126,84,-92,-429,-63,1712
-40,-101,115,-2301,1348,2591
20,-100,86,823,-528,3475
88,-59,112,670,616,3059
-75,-57,94,-895,894,3589
-79,114,-125,1262,-8,3428
-19,-72,-88,-84,-36,3779
-36,126,-27,-295,515,3051
-42,91,-26,38,-453,3237
-67,17,55,-73,246,2881
-44,-59,-34,588,-112,2854
-70,-31,-10,825,-559,2955
-93,60,-89,-1047,5082,-5373
90,-106,-76,1550,-988,-3288
14,5,-36,858,1026,4336
108,-38,-107,3563,-2345,1295
36,33,75,-182,4679,-3901
36,-31,74,2027,-1390,-5563
-30,-30,7,-761,-1901,-7774
38,78,-55,-102,-1879,-6842
-12,55,-16,1067,-4910,-4590
55,3,124,1955,-2816,-1394
109,119,107,1069,54,2077
-49,49,-123,1632,1328,4315
-57,-17,-59,-511,1888,5465
36,-61,-122,-1573,2322,6252
-123,53,-86,-9216,4247,2151
32,-60,-29,4113,-4281,-2904
-112,-6,103,620,-1484,-1049
52,61,106,185,1272,-789
-9,-46,-21,2236,-2181,1089
-78,-45,-54,23,-513,1269
-31,-85,-41,-1346,1421,2588
14,-121,107,-1010,1203,4536
-75,27,49,491,1522,5210
-88,-57,33,-938,1927,5094
-75,93,14,1861,1177,4729
28,-114,-110,776,1145,4793
-44,-26,-117,2523,1431,4369
-57,-82,-106,2070,910,4356
-116,-105,-39,1121,1012,4330
12,63,-36,823,-51,2712
69,-23,-88,22,-604,-498
-63,-97,35,783,-692,-1230
-62,48,94,546,16,-651
-93,-16,29,207,-194,-394
-51,-13,48,-243,-344,-409
-35,-51,55,-237,-46,-716
-26,-102,44,186,-324,-271
-29,-100,50,-287,-149,-351
-33,-95,41,-372,23,33
-29,-70,11,-192,-195,228
