AccX,AccY,AccZ,GyroX,GyroY,GyroZ
30,-10,67,8662,-3762,-4375
18,-27,117,3350,-9899,-3441
49,-59,-125,1740,-9214,-4321
100,85,113,1997,-7129,-2254
-34,58,112,-4212,1220,-1951
-82,1,-51,6173,3555,-1997
96,25,-97,4313,857,-3475
69,-28,96,2784,5571,-2483
-120,-95,8,-4945,-2228,2146
103,-31,46,-5033,-2647,1667
47,-96,-36,-4283,-576,942
-128,-118,-112,-4654,-730,951
-3,28,70,-6447,1272,1112
37,106,-74,-8692,3244,1242
-105,122,-112,-3072,105,3315
7,43,-120,-1075,-1107,3360
-23,88,-56,-26,-257,3794
-120,117,-25,3,-1362,4131
-13,-52,8,-866,-314,2580
-84,-104,-42,1797,-753,3137
-104,54,-93,1405,-964,3005
126,28,122,823,-142,2190
41,42,115,-475,-7,1359
-53,2,88,15,-487,-313
-57,-77,106,492,291,-492
-94,64,76,1268,-116,-320
-86,89,81,-117,-34,-354
-86,55,70,-247,120,-353
-74,17,76,163,-145,-95
-71,40,63,-191,176,-268
-63,35,63,-42,-170,95
-61,59,62,-251,16,-17
-54,90,64,-455,-89,104
-51,113,59,-149,-59,13
-50,-127,66,28,-65,-71
-46,-127,64,-227,109,-15
-40,-124,61,-107,-73,17
-14,-95,83,-625,414,313
56,13,120,-1315,666,-2256
-11,45,-17,4471,-2261,-7188
99,101,1,3830,-14797,-6955
-29,13,-37,-466,-8967,-4370
55,36,-112,-1543,1548,-2865
41,31,-29,6116,1742,-2816
-83,98,-118,707,4855,-3530
30,-90,8,1981,6893,-1258
-49,-87,-42,-3938,-5612,1301
48,25,-96,-5069,3454,1482
-89,66,56,-1537,-2807,720
45,109,100,-923,-1566,1508
-94,81,127,-5270,1655,339
-81,-119,-9,-7014,3408,470
119,-44,57,-4088,1751,562
112,104,-35,-2500,1211,2880
-67,116,88,-791,-473,3382
78,98,-105,-2130,767,3447
-121,-4,-5,-1782,-146,3288
-86,66,-43,-1337,-655,2334
120,-99,-36,-168,-1005,2399
89,53,-54,11,-945,2282
51,-35,-50,90,-481,2080
30,-111,-112,976,-723,1976
-1,-84,-111,1,-618,1397
-60,-84,-101,-977,10,467
-94,98,-115,466,-450,394
-96,-117,-119,275,-36,-364
-106,45,119,610,-36,-316
-104,49,117,-29,70,-66
-110,48,93,-204,30,-227
-98,21,93,200,82,-106
-83,52,77,-267,52,20
-82,63,65,-97,-103,-100
-72,58,78,105,11,-50
-71,81,67,-168,-42,-97
-64,99,78,-334,-60,-71
-50,123,79,-152,-24,-253
-26,-58,87,-826,-140,-485
17,23,104,-1120,40,-903
29,98,8,264,-307,-3880
106,-83,9,5001,1360,-5244
91,-77,-82,12985,-18898,-5140
40,24,-38,505,-12542,-1401
40,-25,15,-6052,3677,-2749
111,23,111,212,6049,-3582
-102,86,-1,8164,-930,-3144
91,69,-12,1177,634,-2232
-60,-31,-81,-4268,2337,1007
-85,126,122,-2680,-5691,1455
-90,65,-46,-8299,2885,-1166
35,42,-33,-8704,559,-816
110,-1,90,-9975,1118,-307
-107,29,91,-8884,1127,-510
41,-21,-91,-3562,-1504,297
69,-75,96,1228,-4139,2529
-84,31,-97,893,-2103,2441
-14,74,-76,305,-2645,3016
45,30,-75,373,-957,2784
88,32,-96,175,-2660,2851
73,-111,111,1195,-983,2300
41,62,9,1342,-1190,2117
-10,12,-48,907,-1051,1717
-56,-74,-30,892,-819,1786
-89,-46,-34,481,-726,1124
-122,-61,-61,-353,-55,111
111,-128,-90,13,-22,37
105,102,126,-171,283,-94
104,63,105,1010,-10,-82
123,49,111,618,255,-40
-124,56,77,-290,308,-270
-112,41,74,-209,24,-120
-106,51,74,-208,103,-101
-100,67,76,-229,-95,6
-98,99,75,-364,25,-195
-84,113,92,-439,-18,-73
-67,-100,97,-522,16,-311
0,59,-122,-1138,-36,-534
-53,120,44,-649,1270,-4053
-122,-105,-44,9070,-737,-4163
95,73,-22,10118,-9738,-6404
116,100,34,-648,-3927,-4619
-80,91,59,7248,476,-3255
77,-105,-62,2306,-1230,-77
72,124,-64,-10883,1606,2167
6,63,-82,-6648,-1754,-43
-33,14,-94,-4580,313,1115
33,-125,124,-5193,-792,194
89,81,-65,-6972,2010,954
41,-24,39,-7542,3290,848
56,-44,-91,-277,-2432,2649
-49,-27,22,-1126,-858,3149
5,45,-46,-1263,-430,2579
112,-10,111,-333,-2062,3356
110,-74,41,57,-254,2479
94,-119,-2,330,-1084,2325
73,-4,-28,919,-912,2254
39,-44,-77,782,-906,1988
-26,-92,-89,721,-341,1528
-37,114,-81,-284,-149,1400
-87,-62,-116,-1093,-344,493
-99,-46,-98,-317,-206,-238
-121,79,-121,971,240,-548
-122,63,111,449,-37,-406
-119,51,105,-153,168,-434
-99,15,83,2,9,-144
-94,26,73,108,13,-338
-78,44,76,-330,101,-128
-89,24,70,62,-128,204
-76,89,88,-100,35,-176
-73,80,82,-213,-105,232
-67,101,75,-107,-48,-5
-63,120,81,-237,35,-123
-63,112,71,-114,11,-16
-63,125,72,4,-111,-61
-35,-83,90,-506,-154,-69
-96,109,-43,-828,337,-2255
41,-101,-16,9255,-1679,-5240
77,27,79,11904,-13323,-4725
-65,-109,-32,6323,-14988,-2991
125,30,54,-6454,2420,-1837
10,-65,-81,3936,4028,-2635
121,63,83,-7808,2578,3097
-45,-88,-4,-7537,4097,165
-33,-11,115,-773,-3325,1751
87,-54,127,462,-4498,-159
39,-45,55,-7977,3735,645
80,26,-97,-7068,5696,-376
-4,29,16,-3961,196,2113
-100,-29,-71,-1106,-280,3008
-41,87,-95,574,-354,3485
-103,47,-12,-2010,-496,3952
118,-110,-19,1353,-852,2732
-27,55,7,-3003,-194,1721
79,-44,-70,991,-553,2168
50,-85,-30,1215,-597,2179
22,-128,-92,840,-61,1729
-13,87,-115,-325,-133,1556
-38,-115,-101,-1224,-230,1235
-87,-117,110,-26,-883,-58
-96,114,-113,549,-265,-586
-106,30,-123,575,366,-584
-113,-1,96,417,0,-410
-103,0,98,-260,233,-185
-96,-17,85,-204,-45,41
-82,31,74,-306,-97,-156
-76,34,88,-199,-34,27
-85,31,71,97,-76,-20
-68,75,78,-292,-87,-59
-63,79,73,-244,33,-102
-65,84,68,-57,-115,-58
17,22,91,-956,-80,-223
-111,23,-121,1324,-123,-4683
88,-24,-67,2851,309,-3518
110,99,-26,7436,-7384,-4280
13,-23,-27,5000,-6171,-3569
-128,-77,-11,7058,-10982,-122
73,-63,-68,-3747,242,-2291
102,-23,81,-246,2872,-2520
-63,-121,-1,5999,3788,-5385
3,96,-10,2868,-10964,118
94,-111,100,-8009,6156,2037
99,-70,36,-6464,2946,-1264
-93,-80,-79,-2385,-2076,1437
71,37,97,-4027,-1577,507
80,108,125,-6801,3497,972
106,-40,-51,-3019,960,35
-102,-65,-117,-2639,-954,2505
-100,-63,-101,-706,356,3016
28,-67,-46,-1745,933,2513
-123,-79,-110,-78,-731,3726
-105,-51,-48,-490,-1234,3201
123,120,-31,-423,-27,2221
116,27,-56,-405,-452,2124
60,-66,-108,1253,-536,1952
-5,111,-99,755,-407,1812
-35,70,-119,705,-52,1573
-50,96,-113,-346,-96,1305
-78,-105,126,58,-481,335
-105,115,-119,329,-3,-784
-109,1,-125,808,256,-575
-124,-37,106,512,-198,-369
-103,-25,107,-386,72,-299
-97,-56,101,-128,-2,-72
-93,-34,92,172,-42,-152
-77,-8,94,-227,-13,-69
-82,-15,80,-183,-17,38
-79,35,83,-193,-202,56
-72,56,82,-227,64,-16
-64,72,70,-249,19,-190
-51,93,65,-318,-112,-89
30,-1,72,-338,-64,-325
-58,-91,-114,6912,-5762,-5055
-17,28,43,4727,-1980,-3905
127,-37,28,6756,-8803,-4466
92,64,114,3374,-9758,-2012
63,-80,87,882,-2945,-1695
-41,0,32,-1651,3503,-1894
-37,96,104,8331,1060,-2269
-9,-31,43,-585,-2483,-25
50,-48,0,-6202,1350,1479
93,-27,-33,-5231,1514,-210
-4,-115,-48,-7500,4107,580
38,63,-86,-7431,3150,796
-114,93,36,-735,-1858,2414
-77,-49,122,2301,-1543,3064
69,57,12,-4593,1622,2294
69,-124,106,559,-193,3529
-107,-123,-61,1185,-1802,3655
-84,-95,-56,-1676,181,2568
120,-42,117,575,-233,2446
100,-81,-94,1237,-1442,2559
24,-86,-82,360,-110,1981
-24,-28,-113,-1095,-239,831
-80,-30,-119,-457,-457,97
-118,115,120,650,215,-711
-111,71,101,653,-59,-546
-118,47,85,197,259,-741
-92,-12,85,-174,246,-264
-101,-17,60,41,-206,-296
-71,30,71,-357,140,-250
-72,9,67,-82,228,-147
-73,52,45,-98,-249,-128
-64,67,55,-625,89,41
-62,76,43,-119,-92,-13
-51,119,57,-442,-103,-124
-38,-113,59,-529,85,-148
59,-103,118,-1132,-157,-1604
-24,-42,-11,4905,-1482,-4084
60,-103,46,6308,-6176,-2297
11,-65,-69,6060,-4945,-4319
-91,30,-38,6891,-8083,-1507
51,25,-64,5675,-9772,520
-38,121,122,-5794,-562,-988
70,31,79,-3856,4697,-3117
52,5,90,6842,568,-4198
75,-124,-38,2635,-4348,1057
101,-71,-45,-7676,2408,2320
125,19,125,-10642,4407,1342
112,60,127,-634,-2464,466
1,46,88,-990,-2462,422
-23,124,97,-4323,462,204
-22,30,-3,-7479,4176,475
90,-104,3,-5875,1987,996
77,-50,77,-2341,-211,2446
-2,13,-19,-832,-846,3551
28,-5,11,1254,120,2738
104,-19,2,506,-491,2987
-105,-79,-39,234,142,2923
62,76,-71,1115,-1039,2121
80,34,1,-1307,165,1848
11,78,117,1266,306,1947
10,72,-122,1139,-989,2141
7,42,-76,-246,176,1886
-13,99,-81,-1167,-164,1160
-65,-119,-82,-711,-616,431
-105,81,-90,258,49,-309
-122,4,-118,1081,-140,-281
-117,8,125,291,-7,-409
-115,-47,123,163,-98,5
-128,-13,119,-300,-151,-129
-97,-18,104,12,-21,-66
-93,-16,112,35,-14,70
-88,11,99,-51,-52,-77
-96,19,107,-292,-67,-9
-86,28,85,229,163,-180
-83,17,94,-304,-109,185
-81,57,84,-191,-58,113
-68,70,70,322,-53,-219
-78,13,71,1014,-338,204
-41,96,79,2551,-830,-137
60,7,4,6886,-3456,-2360
121,-72,-87,-471,-1533,-6200
-70,46,-107,5348,-10444,-3004
-44,-40,39,4283,-7225,-1390
-99,-115,-101,-5976,-1653,-2499
-58,-70,-47,1725,-2470,-448
24,121,119,3670,3889,-3603
39,-21,-98,958,994,-877
-6,-55,25,-5549,789,1915
-88,-74,49,-4914,2135,-91
-36,105,-86,-2858,-2588,482
-35,39,-19,-7647,3020,5
73,-111,-17,-5544,1286,1730
46,-87,81,-2942,520,2540
-83,-80,-57,271,-2018,3869
18,-38,0,1276,-1024,3460
-123,-62,38,-709,433,3069
-101,-97,-69,33,-564,2735
-124,13,-59,699,-771,2799
-122,12,-55,-304,-389,2366
48,104,-113,1030,-324,2212
7,106,-41,278,-516,2190
-57,-78,-115,-651,-288,1118
-77,-73,113,-300,-530,-56
-81,99,108,481,50,-803
108,-32,121,673,-27,-338
118,-1,114,-390,-74,-99
124,-18,98,-377,182,-89
-103,-12,92,-34,42,-3
-105,0,70,-50,-7,84
-113,45,65,-302,-66,-198
-93,2,66,88,108,120
-90,62,51,-319,1,-215
-84,53,61,-76,-46,-67
-80,59,53,-89,27,-56
-68,94,56,-106,-118,-209
-43,121,62,-335,87,-297
118,-73,96,-194,-291,-2127
-4,113,49,9799,663,-7282
108,-39,-43,10981,-14931,-2147
101,5,30,2397,-12103,-2226
-86,-110,-66,983,-3186,-2436
-60,10,95,-3899,497,-2320
-54,63,30,4404,301,-1002
-96,30,96,1786,1496,-3002
-112,-27,-101,1053,-4815,718
-98,-93,-79,-6618,2494,2419
64,114,114,-5358,2251,-247
73,18,15,-3330,-1502,1547
-29,-50,-43,-4749,-153,912
-16,-35,-68,-6649,3765,512
-24,97,34,10155,-4123,-6086
-121,-36,77,7265,-12903,-4242
13,30,97,197,-9217,-816
-27,102,4,-6247,4869,-2467
23,103,-45,6013,989,-2552
-122,-63,4,6171,2134,-3514
12,127,-31,-6397,68,521
52,-20,-23,-9660,3404,3003
-29,54,-100,166,-3419,-305
12,-94,104,-266,-4056,1816
60,-35,99,-1528,916,852
-82,-46,43,-6344,2882,-42
-27,103,-31,-2738,1928,185
-43,67,-19,-2080,372,1478
81,46,-3,-1655,1131,1756
0,-53,23,-2042,2608,3074
-6,-22,-111,-4098,1400,1872
125,-46,-103,-2770,-183,2875
-111,-89,67,-3591,-263,3652
-23,-47,118,21,-1444,1801
-108,46,58,168,-748,1731
52,-8,-9,-405,-471,1339
21,-97,-66,638,-964,1467
8,119,-76,526,-760,1557
-14,113,-67,-44,-279,1179
-22,-83,-77,-206,-578,450
-45,-77,-84,-48,-132,-540
-62,64,-104,758,519,-656
-88,41,115,333,-276,-203
-85,31,108,-250,-160,-220
-60,21,118,136,44,-51
-59,54,101,-359,-101,-45
-55,63,98,-283,-9,-88
-53,81,108,-60,-62,40
-44,107,97,-258,-101,-38
-41,121,99,-196,18,-210
-35,125,100,-14,-44,-72
6,-42,102,-456,-173,-272
-57,111,-67,-597,-166,-2973
-113,-41,61,574,6125,-6399
41,-28,71,16183,-11986,-1145
-101,-32,111,5219,-9318,-5427
77,-36,-11,-2874,-6448,-1019
86,97,111,-1780,4316,-1214
8,-85,6,4592,-111,-1813
-65,-98,-7,7342,-2137,-5130
-15,49,-20,-5399,2465,1727
123,-121,-99,-7723,5234,703
-48,28,51,186,-4704,282
-38,33,-87,-4801,-314,276
96,-70,-6,-3844,845,852
47,-22,-55,-4925,1482,-25
47,-2,-28,-1287,-1716,-508
56,-87,75,-4210,1482,1734
38,-99,-128,-2944,1584,2406
-49,-51,-124,-260,-1330,3230
18,-15,2,-893,449,3021
-112,6,-34,-1183,-645,2867
108,-91,30,15,-610,2734
113,85,-18,155,-346,2162
96,-43,-62,1032,-613,2490
57,-50,-71,172,-697,2112
5,93,-76,114,20,1824
7,72,-72,-533,-290,2014
-14,-120,-85,35,-519,1078
-73,-102,-73,139,-214,-99
-106,70,-98,716,246,-457
-120,-14,-120,593,48,-55
-117,11,115,50,-236,-103
-94,11,125,-92,190,-349
-96,-22,105,-128,-140,15
-99,11,103,-166,-115,-171
-86,21,114,-251,6,-80
-75,33,98,-8,-71,-104
-65,68,101,-423,24,-289
-66,66,98,-293,-168,-58
-43,-101,97,-331,-49,-598
26,-19,120,426,414,-1048
-26,62,-76,1058,-1452,-3528
-8,-45,-46,10003,-5746,-5184
111,63,-47,2797,-6707,-4454
32,12,-125,1219,-6309,-2465
50,78,-107,3049,-2984,-1886
-16,72,-94,-1109,1479,-2112
4,106,-39,5810,3212,-2320
64,-12,104,1760,-2773,-1330
-126,89,114,-8029,2414,2533
-101,-79,14,-4564,2550,-381
-50,-80,84,-2419,-1904,1194
102,21,-14,-936,-3208,225
33,106,-31,-2633,1824,434
-94,-59,43,-2896,1426,38
66,78,44,-4113,1894,337
-5,12,-79,-3238,1981,1552
121,-103,37,-3532,1286,2180
-48,-90,78,-1461,635,2556
-3,-125,-90,-1674,-85,3033
72,81,-72,-883,-247,2956
-90,120,25,-1100,-115,2743
-110,1,-26,306,-646,2433
-117,-30,-40,247,-776,2377
60,-95,-25,595,-324,1713
9,113,-64,352,-333,1498
-28,69,-85,365,-265,1549
-44,-118,-93,-558,-140,576
-76,124,-113,-144,-146,-139
-96,35,-124,736,-34,-397
-104,-10,120,283,-40,-187
-119,-26,121,101,-82,-42
-101,-27,114,49,-21,-73
-86,-15,105,-234,-181,23
-89,-9,114,-105,7,52
-81,29,102,-128,-86,-152
-80,24,105,-61,-6,-46
-74,34,91,-69,24,-65
-73,33,88,-64,-124,19
-67,54,82,-87,47,-22
-64,61,73,10,-115,-90
-38,110,75,-475,-35,-83
49,50,84,-997,123,-1312
-113,18,-125,6303,-2103,-3827
-75,-20,75,8750,-7899,-5184
-104,64,0,8659,-7329,-3008
-54,58,58,-1078,-6863,-1785
15,97,-100,-3604,2630,-402
81,-40,125,2781,2506,-2203
46,67,14,2619,1223,-2433
-54,-16,-57,-1284,1593,365
-123,-97,-24,-5849,-2414,2034
-66,-103,119,-4274,1917,-180
80,-79,-56,-1251,-1297,1478
65,123,35,-4340,275,1174
36,-87,-14,-6595,4463,1153
67,32,-38,-4798,2745,1430
-50,-104,59,-1382,-924,2880
55,-88,96,1732,-1171,3527
69,38,-49,-2648,1263,2513
-119,-46,-66,-1969,-141,3029
114,119,-79,816,-1141,2532
120,-9,-28,-370,-530,2393
96,-43,-85,-633,111,2043
67,58,-112,1115,-832,2369
30,-48,-95,-381,-833,1523
-34,-18,-103,-1232,-373,229
-100,115,-109,1093,-168,-616
-111,65,-114,825,-49,-436
-106,41,127,-103,251,-391
-99,9,106,-56,109,-293
-99,11,102,-35,215,-325
-63,-17,70,223,122,-203
-83,3,73,-120,-25,6
-73,29,69,-315,-28,120
-64,41,66,153,-1,11
-58,69,63,-255,-73,126
-59,91,72,-98,-58,-10
-52,87,69,-90,-21,-41
-50,104,59,85,-153,19
-53,91,66,865,-731,-107
-30,-96,97,-518,341,-623
35,-46,84,1323,254,-707
-74,-40,41,4155,-3802,-3598
-73,68,113,5623,632,-4472
-18,-96,-89,321,-6589,-3239
79,-41,46,7906,-11411,-252
-116,-17,28,-5202,-881,-2440
87,-5,-79,-422,1014,-1327
-76,117,-99,3766,5028,-3588
-23,6,-111,-2075,-8821,1840
117,-10,29,-6125,7089,334
-107,93,-57,2273,-4798,566
-29,-11,14,60,-6157,1896
55,-25,-23,-5817,3841,952
-8,108,-88,-6718,5403,-1007
-10,83,10,-4215,458,184
108,-122,48,-2663,457,1512
115,94,16,1856,-1012,1547
28,83,-45,-4491,1784,2617
33,-72,-80,-1247,205,2466
64,-71,-3,-1492,-618,2908
-113,119,4,-4,-270,2739
-88,10,-17,1104,-1172,3310
-104,32,-12,72,-617,2399
104,-118,-72,2570,-668,2879
47,85,-48,2789,-1053,2493
-40,-51,-84,-871,-136,435
-116,64,125,-652,470,-453
-114,-22,-113,681,-435,-124
-123,-35,-113,-101,-49,-151
-128,-40,-103,-407,-127,-77
-118,-46,-109,-375,110,-237
-112,-32,121,-22,-201,-196
-103,-41,124,-177,100,-93
-97,-15,96,-22,-31,-123
-110,-36,91,855,-672,179
-80,42,104,-1038,399,-261
-79,12,69,-19,56,-219
-69,53,81,136,-22,-448
-51,61,86,-276,615,-658
-69,15,78,52,-289,-215
-57,45,83,-675,140,44
-42,-14,82,-1231,4301,-7385
-28,-27,2,10598,-6654,-3469
-3,-111,47,5529,-7719,-3238
37,13,-93,2162,-5685,-1517
-87,87,89,2551,-1121,-1502
45,-15,-33,7210,2658,-1038
-59,-35,83,-4886,2493,-1316
-7,47,-88,-1746,-4234,-67
-27,-2,-68,-4522,-2014,2143
69,20,16,-3975,2333,-76
-37,-51,26,1085,-2802,1046
-41,-113,41,-2992,464,897
119,-82,104,-5898,3179,348
-11,35,119,-5430,2517,653
-92,-77,21,-3881,535,2032
-82,69,-122,-4034,1421,3405
-46,42,76,-1882,1854,2166
92,-8,-121,837,-2065,3562
99,30,-73,1311,-3247,2677
110,46,31,-3857,979,1191
48,76,-56,-1776,148,1629
14,31,-101,-235,-1543,1775
72,-55,-64,1038,-1048,1956
45,-65,-115,1453,-1298,1837
-5,-26,-85,162,-765,934
-32,-34,-87,-230,-394,403
-61,-39,-97,457,-73,-52
-86,-101,123,472,148,-606
-102,92,96,557,303,-499
-93,64,80,129,84,-89
-78,85,69,-259,103,71
-67,60,63,556,-49,-149
-50,96,64,-285,291,-209
-59,74,43,-97,-108,-52
-57,83,54,-183,12,-1
-52,115,59,-127,-179,83
-52,115,57,-108,-134,-43
-47,-121,66,-63,-61,-126
-37,-107,72,-197,-28,-105
-18,-64,80,383,281,-916
-119,-54,70,6775,-3567,-6361
-42,-114,-54,7123,-8097,-4945
-36,-41,-87,2904,-6027,-268
67,71,58,-1801,-1434,-1245
-108,73,-13,2359,3015,-1006
16,102,-39,2974,6313,-1833
20,-50,6,193,-5303,1474
-21,45,96,-5112,959,528
-62,-103,-93,-3517,821,-515
-78,-62,122,-1177,-1486,377
94,-32,41,-781,-1579,683
32,123,-45,-5314,2725,922
66,-3,124,-6272,3213,110
-116,74,-63,-2585,743,1971
109,-47,57,-481,-312,2172
6,36,69,-3483,-161,3451
19,54,-104,-2077,666,1909
44,-63,-27,-1166,-1263,2715
74,112,6,-367,-933,2651
92,54,9,989,-769,2417
99,-31,-43,737,-373,2476
84,-85,-61,501,-618,2222
22,-112,-87,133,-719,1800
-8,126,-82,-164,-317,1363
-64,-113,-115,-326,-220,642
-94,114,114,94,-218,193
-94,117,109,-353,-8,-145
-116,57,102,239,241,-399
-102,8,78,837,41,-387
-101,0,83,-33,192,-544
-88,-17,66,-312,29,-47
-88,-6,69,52,-217,-50
-76,27,75,-305,58,-69
-75,39,65,-122,-156,95
-76,56,69,-98,91,-30
-60,87,64,-249,-83,-48
-61,86,63,-161,-41,-68
-60,90,60,114,-34,-65
-45,-126,54,-258,28,-160
4,-110,50,847,194,-471
48,105,-19,3359,2354,-4905
-38,86,78,9295,-8604,-4109
8,3,-77,3201,-5768,-3720
38,-9,21,1603,-3907,-666
-111,117,62,158,-473,-1771
5,-71,41,5152,-976,-2443
-46,60,-61,2149,6088,-4547
68,-123,-11,-3450,-5842,3687
-105,59,4,-5120,4645,-285
-65,57,16,-2507,-2292,-157
-54,52,87,-3859,-1071,250
53,103,-33,-4038,66,178
108,-15,-51,-5505,3078,214
21,115,61,-3544,614,1224
124,-54,91,-1488,-20,2059
-88,-42,-7,-4123,736,3884
12,-38,-41,-317,229,2682
-49,-37,-29,-371,-39,3036
-93,-41,-15,-798,-757,2889
-103,96,-50,195,-627,2532
-121,43,-45,-9,-827,2184
78,-63,-68,713,-744,2011
36,98,-111,1294,-699,1943
-2,122,-92,-168,-863,1395
-35,-101,-79,-1025,-470,552
-87,110,-87,263,-139,-214
-110,76,-96,513,46,-320
-114,27,-127,312,-203,-118
-110,26,-127,-152,-10,-95
-102,20,112,150,70,-291
-84,-10,93,94,189,-374
-83,-13,81,-178,150,-152
-89,9,72,-250,-17,98
-73,37,62,-47,-2,-22
-63,67,64,-269,8,-3
-65,61,65,-207,-101,57
-67,73,66,17,-44,-82
-55,93,69,-221,9,-120
-60,79,66,-81,-122,98
-53,103,67,-248,-39,-107
86,123,-43,9601,-5984,-5071
-102,-63,115,6595,-12154,-4007
-95,-124,17,428,-4923,-1607
7,-65,-74,-3549,2195,-2639
58,21,32,6400,5652,-769
119,105,-98,-256,-2190,913
-65,41,70,-7208,2340,1320
78,65,-13,-7602,3188,19
47,75,41,2739,-6413,1005
100,11,41,-3022,823,-133
-26,26,-56,-6295,3482,667
14,-9,-79,-4061,244,23
53,110,1,-2555,646,1365
14,70,19,242,277,2498
-85,-30,39,-44,-39,3261
21,111,105,-2856,1230,1937
64,92,92,-238,52,3199
26,-118,-89,671,-888,3363
-121,-24,-61,966,67,3173
-3,-79,-113,490,117,3076
-70,-119,-110,-371,-537,2897
56,-26,-85,-1013,-458,1641
-28,-31,-119,-951,81,448
-84,-98,103,337,-101,-269
-108,73,97,1279,93,-483
-86,33,101,583,-3,-350
-111,26,97,-413,103,-269
-91,7,96,23,-119,-266
-69,-7,92,-123,90,-306
-71,-5,89,-199,-56,-163
-82,-2,83,-293,130,-195
-72,23,76,-212,-104,53
-61,46,65,-271,129,-67
-49,72,59,-59,-104,79
-58,77,55,-183,26,9
-48,100,59,-90,-84,-20
-50,102,57,-194,-72,-9
-43,104,59,-31,40,-97
-46,111,59,-105,-153,-56
-43,100,68,55,55,27
-110,72,-23,4118,-3487,-3439
-115,87,59,2634,-394,-5331
7,91,-56,4102,-5827,-5736
-85,-113,-109,4405,-7632,-3467
57,97,68,-1979,-815,-2590
-111,-3,-37,4008,-224,-1547
-35,-74,111,4997,2917,-1954
-106,-47,116,1565,3283,-2759
93,120,-14,-4137,-3075,1801
-27,-71,106,-5710,262,1531
-26,-61,-48,-2513,-1903,1325
4,36,-38,-4300,-970,480
121,-73,40,-6713,2301,375
-65,-1,-56,-5367,2673,1742
6,-68,41,-2412,-618,2754
43,126,119,-317,-827,3294
69,118,9,-3181,1114,3029
-44,81,3,1550,-1943,2929
-109,-104,24,648,-693,3137
-94,52,-45,-51,65,2761
-76,-65,-118,1625,-682,3070
-121,12,-87,-767,-1039,2354
3,80,-113,-1075,-1055,686
-51,-41,-128,690,90,-822
-84,73,108,1006,415,-686
-85,65,81,-86,116,-193
-88,55,76,-269,-152,-40
-63,52,73,-199,18,-247
-57,52,63,-56,-33,-236
-74,55,73,-378,11,-16
-63,66,58,3,54,-120
-44,65,58,-241,-9,9
-46,82,50,-274,-57,116
-52,110,61,-166,54,-9
-49,118,56,-229,8,147
-16,-106,44,-7,41,-186
-20,-94,69,-362,-118,-165
22,23,114,779,898,-1294
-90,-67,-69,6014,264,-4292
-77,-39,-5,8104,-3970,-3934
20,68,99,3560,-6854,-1959
43,118,-5,120,-1009,-1522
-49,117,-18,6519,835,-1345
-107,43,-2,3416,-1633,-4344
101,43,1,-11010,4176,5226
-98,-46,82,-7491,8072,629
-30,67,26,4783,-6171,187
84,-25,67,695,-3494,2916
-118,28,-11,-2436,88,-836
0,1,-116,-8173,4046,36
-18,-71,118,-5060,2570,1466
119,33,31,-2030,2569,1310
14,9,62,-3029,171,2546
1,5,-123,-2192,812,2145
89,-83,102,-39,163,2475
-116,-88,-43,-565,-1083,3394
-94,118,-14,44,-89,2324
-83,-57,-79,9,-304,3235
-93,-85,-37,88,-945,3213
-126,7,-45,-687,-410,1626
-5,17,-84,-216,-490,194
-50,-75,-72,738,-335,-467
-97,74,-97,971,-110,-372
-84,35,-90,332,-27,-121
-54,19,-128,-413,125,-269
-67,-7,118,-198,-42,-270
-54,-2,107,-489,114,-29
-52,15,83,175,-206,195
-50,56,94,-231,89,-37
-44,88,95,-450,-77,85
-47,65,75,491,-52,-136
-38,62,91,-238,9,118
-59,96,83,-527,-105,105
-44,127,79,134,7,-225
0,104,67,-78,15,-229
-32,-118,88,527,-252,-301
-42,-108,-126,150,460,-721
11,93,83,-17,218,-311
87,66,-113,-1757,-221,-637
-35,-111,2,4487,-3613,-4532
118,-10,12,8185,-4009,-3513
70,-64,-21,7832,-6163,-3266
127,37,117,7126,-7667,-875
-106,43,-101,262,-6138,645
120,-51,-5,-6173,310,-1992
27,81,-12,-855,4092,-2361
-95,110,-13,6839,36,-2782
2,82,39,-3503,-3207,1949
124,21,-67,-6958,5668,883
-74,-111,-57,-2260,-2135,188
-95,-63,53,-2036,-2556,989
87,8,-89,-3424,2116,1480
35,-64,-47,-3754,1332,373
97,81,30,-4502,1773,1357
95,25,-35,-2416,1689,2827
-37,-59,62,-1488,613,3552
48,12,119,-1988,308,2793
-122,-23,-73,-2371,475,2857
-70,0,-72,1352,-1177,3727
-5,-11,-43,1400,-837,3414
-61,-38,-58,22,-427,2822
98,64,-73,-1120,-844,1402
-52,-21,-95,473,-357,-34
-83,119,-107,1069,34,-210
-116,75,122,-14,235,-321
-96,27,103,376,94,-151
-78,12,101,-42,44,-328
-76,-9,101,-224,159,-164
-76,-24,99,301,-122,-107
-66,7,98,-512,208,-183
-62,18,78,-428,-120,-51
-64,4,91,36,194,65
-56,57,83,-329,-78,120
-47,85,66,-291,171,-148
-47,72,71,-92,30,46
-43,86,57,-203,-52,-9
-44,114,64,-325,2,-145
-29,124,65,-103,-166,-100
-23,-89,49,215,-535,-908
37,-4,120,235,-79,-940
117,42,78,5311,-1885,-3037
-56,48,-24,5427,-2166,-2761
117,1,-98,3171,-9400,-3304
107,94,-27,2379,-11132,-135
-92,76,34,-6066,2071,-2266
34,95,59,-138,2742,-3435
-125,-17,-42,9530,31,-2907
-32,-38,21,-1313,-2007,102
-104,-122,-38,-8463,3900,1639
100,127,48,-1670,-1841,-454
-46,-2,-36,-4530,-1394,672
-117,-91,104,-7938,2448,689
-32,62,-69,-9537,4224,207
-4,112,43,-2709,-1847,1810
26,72,100,1674,-3854,4455
13,63,112,-1505,-427,3793
116,41,-96,-365,-1011,4027
-4,-52,126,1600,-1389,3225
47,-39,-105,-684,147,2808
-32,117,-33,1036,-322,1782
75,64,-23,907,-1458,1153
-2,22,-30,-647,117,344
-50,-83,-86,938,-478,434
-55,-84,-118,-113,26,-180
-57,92,113,309,41,-198
-57,50,126,254,-310,41
-56,62,-118,-51,-264,38
-56,68,-113,362,79,-154
-59,57,117,-207,-80,18
-61,66,116,-409,-269,235
-44,105,-115,-383,-201,365
-81,-120,112,-83,26,-259
-47,100,88,-33,212,-131
-46,96,70,-205,-397,245
-67,-102,104,-265,-196,21
-51,-108,106,-70,140,-252
-54,-127,73,-92,-179,-112
-32,-104,92,-509,-21,-79
-47,-114,86,332,-153,-71
-48,-101,76,-113,94,-161
106,112,-118,8578,-3339,-2916
-118,-84,-37,7954,-4926,-6319
25,2,54,5751,-8087,-4676
-9,93,66,3464,-8081,-2207
62,-30,-119,-2009,258,-1882
91,-103,13,10434,3174,-1445
-104,-50,-15,-2278,-9100,1910
5,-111,90,-7093,4301,2230
26,-122,73,-2521,-816,459
51,111,-106,1670,-2172,1559
-48,-52,22,-2784,1849,1318
-12,91,-1,-5453,3515,577
-6,-70,-50,-4059,1537,1458
70,4,-65,-1813,1481,1607
-108,107,-47,-1781,1574,2113
70,-3,25,-3983,3165,2239
39,-34,-103,-1832,728,1921
75,12,116,-2049,250,2347
58,117,-60,-330,-732,2369
87,77,-20,-357,55,1842
85,-7,-100,-744,-142,2114
57,-81,-121,449,-942,1987
41,-80,-83,-605,-330,1673
15,-111,-112,-1050,-217,1297
-3,-72,122,-1148,-783,1063
-44,-47,-111,-441,-351,142
-69,-96,-128,1009,-31,-569
-63,115,108,806,194,-604
-68,92,88,197,75,-526
-65,61,76,-188,28,-396
-71,49,81,187,-66,-297
-73,37,75,32,75,31
-51,79,52,-352,-30,114
-40,92,58,-61,-166,111
-44,119,62,-155,82,-46
-45,122,54,-23,-146,39
-37,-119,57,-226,-14,74
-42,-111,65,-152,-124,84
-38,-107,63,-34,-7,-24
-32,-99,66,-98,-116,-30
19,59,-114,3224,-1680,-5565
127,82,1,8235,-1157,-5599
-53,49,101,8134,-7709,-4283
107,-126,48,2270,-5451,-3199
-89,87,-25,2257,-3770,-1528
12,48,105,4916,-2227,-870
-65,-93,-65,259,5608,-2907
-118,120,82,-2153,-5812,1876
-4,-59,-128,-5802,1862,1515
78,-41,-84,-2983,1931,-30
7,-1,88,89,-2407,1555
-15,-67,-39,-5152,2716,978
74,15,-123,-8049,6938,1098
95,92,-69,-3631,458,2158
-1,1,73,-1084,-121,3378
64,0,-74,-742,-155,2498
-119,86,-103,-1526,161,2622
-110,-22,-31,-718,-833,2437
91,115,-21,-713,-318,2178
103,36,-81,201,-527,2265
65,-42,-92,306,-824,2016
24,-86,-73,-890,-385,1621
10,-127,-52,13,-320,1652
-13,-57,-84,-44,-320,585
-42,-68,-91,325,-189,-319
-74,86,-120,479,364,-561
-74,64,106,492,10,-300
-69,35,109,97,158,-193
-62,34,79,-88,1,-257
-47,34,83,-117,-81,-111
-52,30,83,-20,-64,1
-50,63,96,-280,-89,22
-43,74,88,-168,-96,-31
-36,97,102,3,-16,-52
-38,100,88,-113,-82,-78
-38,105,98,-102,4,-38
-35,112,88,3,-69,-108
-28,121,88,-148,6,-93
-33,119,84,-43,5,-12
-29,117,82,-59,-7,37
104,-113,-69,7403,-1513,-3113
88,2,-62,7942,-9875,-4879
-19,-74,57,-71,-7707,-2245
7,123,57,-1199,1281,-2156
-43,28,-46,4473,683,-2292
93,-47,-56,3860,442,-2647
-5,-99,88,-9024,2650,2814
104,94,-79,-4442,4263,-999
-92,36,40,1152,-4796,634
-127,-108,108,-980,-3099,1487
-51,-109,-69,-3553,2189,683
-89,-108,-13,-4687,2131,62
-20,6,-12,-3328,905,901
-7,-44,-94,-723,1988,1916
-117,-50,84,-5851,3709,2224
-70,12,-37,-2003,1508,2619
59,-25,116,-595,379,2847
61,-68,-99,621,-477,2509
95,-107,-84,-1309,563,1737
76,-28,-109,-217,116,2231
81,-39,-104,-106,-769,2174
57,107,-90,149,-108,1785
54,96,-106,-24,-103,1881
11,51,-116,487,-471,1662
-11,119,-122,-437,-107,751
-45,115,126,-334,-30,165
-84,72,108,444,-189,-339
-93,41,111,458,-138,-215
-90,42,84,271,-193,-413
-56,32,111,-298,119,-453
-57,46,81,-718,138,-794
-51,-4,90,-172,-138,-465
-57,15,85,-120,38,-465
-50,18,85,-91,21,-336
-41,34,63,-83,63,-175
-44,36,56,-56,-5,38
-34,67,47,-45,-76,194
-32,93,48,-181,-120,210
-32,108,51,-83,-172,252
-32,122,53,163,-136,99
