AccX,AccY,AccZ,GyroX,GyroY,GyroZ
-28,119,50,249,4460,-3985
-109,24,-39,-609,5105,-4235
-51,12,69,-1694,5003,-4142
12,-60,79,-1103,4387,-3139
-50,3,97,-1006,3921,-1900
18,21,99,-1176,3569,-2181
75,-12,-102,-993,3003,-2027
-112,-30,65,-1018,2490,-1418
73,-42,26,-977,2893,-1549
115,74,-87,-256,2449,-1206
123,-41,-26,-38,1760,-132
53,43,120,-796,943,706
86,80,24,49,138,934
127,68,70,460,-2071,68
2,75,7,1350,-1981,401
109,23,-41,1410,-4015,478
104,126,60,-726,-4595,1274
-42,23,46,2513,-4395,860
-106,-102,19,4372,-5163,2037
-7,74,-81,1245,-5847,2820
37,49,-111,703,-5594,2699
-31,-3,-4,785,-5082,2659
-50,40,-79,-599,-5270,3416
94,-128,17,-581,-3541,1649
-25,91,26,763,-2038,1523
4,126,83,1705,-960,1549
-6,29,120,367,253,-258
-96,-67,35,1081,1199,-1619
118,-121,-43,1266,1180,-1201
114,81,112,297,739,-649
-84,28,31,12,628,-230
-49,-13,-17,72,523,-570
-22,-80,-75,458,807,-638
-17,-71,-90,130,571,-414
-18,-75,-111,29,317,-426
-6,-60,-99,-251,232,-225
12,-44,-95,-125,101,-117
40,-27,-92,178,-22,-229
33,-13,-90,46,-84,-273
15,-25,-84,145,-280,-227
27,-24,-75,161,-219,68
45,-8,-76,33,-79,77
54,-1,-80,87,-60,93
57,1,-77,127,-109,64
59,-3,-77,445,-20,-52
63,17,-79,-112,20,30
69,13,-90,-138,-2,112
77,19,-92,-140,100,80
91,14,-102,134,213,-81
98,14,-111,162,235,-152
-22,-10,-36,-1046,4459,-2945
50,-17,-49,-742,4424,-2818
-125,32,-68,-1236,3743,-2328
-50,-24,-109,-1038,3443,-2501
-74,-3,-42,-1430,2737,-1955
10,-106,-35,-695,2177,-1706
111,69,-91,-305,2190,-1596
87,120,21,545,1233,-588
20,90,-83,208,52,1121
102,-92,48,1019,-898,1320
-54,24,74,379,-2564,1457
-101,78,-110,175,-3465,1541
-48,60,-111,1022,-3914,1582
99,80,-51,1954,-4939,1800
-28,93,0,3179,-4837,2258
94,-35,115,1680,-4592,2835
9,-61,-122,399,-3967,2715
-26,-119,96,673,-3589,2084
-67,110,-91,336,-3850,2392
-48,121,-27,838,-4329,2539
103,-107,113,1054,-2968,2195
0,115,124,-378,-439,1093
78,-12,-28,1909,-58,681
-25,114,-85,355,-106,1107
-55,88,100,750,-96,299
-94,96,51,343,-174,-375
-51,104,23,-525,615,-70
-67,-11,-8,40,581,-666
-70,-62,-30,678,577,-773
-35,-59,-63,108,845,-824
1,-98,-112,83,640,-880
-2,-116,122,126,580,-807
-2,-125,112,139,372,-594
8,120,101,87,162,-312
3,-113,103,-104,-75,-113
17,-83,105,-127,-134,-255
24,-80,104,130,-49,-141
23,-94,93,592,39,263
36,-68,109,194,-460,773
58,-17,124,-309,-519,442
69,-15,-108,151,-250,-34
56,-11,-111,371,-11,-184
59,-11,-121,397,212,-169
65,2,122,-81,217,34
73,-2,105,-109,187,-41
94,-4,95,-14,297,-296
95,-23,87,160,404,-235
95,-15,86,-120,271,-203
105,-38,79,193,119,-191
119,-27,74,26,216,-197
-103,-119,72,-250,4689,-3389
-125,-105,74,-613,4825,-3257
31,-73,76,-918,5165,-3330
59,-36,86,-1551,4952,-3090
112,-31,-114,-1290,4478,-2385
51,-43,-39,-398,3369,-1172
-104,-53,-74,198,3085,-987
56,-25,106,-144,2961,-954
63,-108,-11,-366,1644,-2135
-95,117,60,-1126,519,-1044
29,-118,108,292,68,430
91,0,28,-275,-148,1121
-119,99,0,395,-1417,867
-84,-31,7,-103,-1939,279
44,-75,4,1034,-2213,-214
-120,-47,-4,682,-2775,15
9,124,-20,1019,-3587,298
-110,58,-46,1605,-3962,811
75,24,121,2282,-4100,1066
0,124,65,1564,-5458,1571
56,-82,89,349,-5905,1685
53,-109,-74,1100,-4052,1457
-66,-105,-35,1180,-3804,1428
-127,122,21,661,-3712,1973
-97,40,110,1566,-3332,2725
-84,106,126,1044,-2526,3210
68,-70,-116,1682,-2065,2751
66,74,-104,515,-1159,152
-15,-102,26,1533,1149,-2319
-89,53,-123,283,1510,-1270
100,-29,32,545,72,222
113,-65,-55,580,609,-599
-107,-72,-89,61,812,-592
-69,-113,-108,531,367,-436
-68,-103,-88,319,322,-331
-69,-96,-95,-116,468,-277
-64,-116,-105,284,151,-48
-33,-81,-98,-49,306,-111
-8,-84,-100,355,348,-239
0,-83,-100,436,228,-193
10,-96,-106,560,246,-193
13,-89,-111,288,189,-60
32,-78,-120,76,166,68
42,-74,-122,225,80,23
53,-66,-127,313,127,-59
63,-67,126,347,10,-44
85,-51,-122,18,67,-53
77,-72,-120,270,163,-195
85,-75,124,44,68,-9
100,-63,-120,-73,-29,221
-107,57,10,1499,3637,-4314
-27,-118,-76,709,4392,-4663
107,-26,-46,-1467,2750,-4492
-38,12,-17,-1469,2944,-3418
49,64,8,-1916,3115,-2839
122,44,90,-782,2732,-2696
-47,103,-126,-1834,2686,-2313
-119,49,-74,-307,2309,-2385
108,-125,-121,-1533,2854,-2929
-17,-22,63,-1176,2992,-4594
-68,93,58,1430,1362,-4706
-14,-91,6,-1262,828,434
-28,-113,-32,473,-163,-87
32,13,-93,-4,-728,1877
-126,-107,-49,-44,-2260,2170
-3,-25,-30,1430,-2446,2551
-43,118,-67,1187,-2436,2214
55,-120,-100,1326,-3128,2366
-25,-96,110,908,-4004,2444
38,-86,-121,897,-6545,2275
-100,15,67,508,-5544,2651
-86,-26,-41,1856,-3365,1062
124,16,6,964,-3608,1775
99,-111,-51,1519,-3219,1798
10,-82,27,-748,-4009,2719
72,67,34,159,-2932,2847
116,57,119,579,-2164,2583
-87,-30,115,-532,-2148,2069
100,76,49,3350,-564,-227
-25,101,-55,2927,-141,-1619
-71,33,-62,-2914,1518,-445
-126,24,126,-1562,1287,-726
-85,114,38,2307,920,-305
-36,6,-104,461,1341,-988
-57,-96,113,797,935,-1159
-52,101,117,950,175,-164
-18,-107,-111,391,-143,393
10,-86,-78,267,-208,79
28,-43,-42,-210,-211,186
43,17,-15,-687,-175,160
11,-37,-34,92,480,-661
8,-100,-46,1246,612,-370
18,-55,-64,851,191,-209
79,-69,-80,840,309,-443
90,-91,-93,655,344,-498
79,-114,-101,422,182,-314
82,121,-106,592,119,-28
101,-127,-109,567,-48,75
-109,-111,-104,554,-52,185
117,-101,-109,557,95,29
7,18,47,958,4727,-3557
50,-53,3,-246,5623,-3877
-6,-119,110,41,5252,-3732
42,-73,58,-67,5002,-3638
-61,-16,85,-1105,4623,-3392
-3,13,113,-1073,4584,-2935
63,14,124,-1289,4361,-3124
53,-78,-112,121,3757,-2663
-12,-86,51,124,2700,-2026
13,106,-43,-447,1424,-2115
8,-88,59,2098,408,-1232
-9,-60,-12,-105,-693,1690
121,121,51,98,-2298,2259
69,84,-128,280,-3391,1928
-7,-101,-98,-146,-3919,1923
-77,-76,-61,-303,-4358,1473
-97,127,5,2186,-4742,1060
6,-64,56,3063,-5179,2330
28,-10,-100,1196,-4544,2276
-9,-43,-81,1178,-4069,2063
-11,-107,-119,1352,-3570,2002
-44,-112,-9,474,-4136,2987
-56,-125,7,-321,-3229,2827
116,53,95,1265,-2390,2239
6,67,-111,2128,-994,1417
-102,-31,55,1733,1244,345
-51,48,-15,84,448,-1180
-56,13,71,1469,452,-916
-77,-7,-12,241,-275,11
-66,-89,-43,462,275,-996
-40,123,-45,151,643,-626
-21,-112,-66,-116,252,-202
16,-116,-74,243,363,-283
26,-101,-75,32,257,-237
28,-105,-79,31,333,-146
66,-118,-81,385,552,-86
18,-108,-117,517,398,12
43,-104,123,548,258,-151
80,-97,116,524,209,-309
101,-123,125,438,327,-555
76,-126,-104,534,24,-28
78,-118,-91,439,-72,313
99,-90,-81,631,-184,262
-92,-68,-80,613,240,-24
-117,-51,-102,294,79,-403
115,-97,-84,153,78,-9
126,-73,-71,-338,-134,372
-101,-86,-71,257,143,-102
-91,-81,-92,-125,403,-178
-115,-87,-108,-173,196,69
52,-80,120,426,4526,-4562
109,-47,97,-325,4319,-4654
95,-56,77,32,4421,-4558
-118,35,101,-600,4051,-4000
-41,80,-109,-1367,4062,-3172
82,100,103,-1511,4114,-2943
125,35,101,-396,3760,-2960
-26,6,66,237,3407,-3105
95,-41,51,641,2643,-3571
-29,-103,-58,320,2478,-3730
-11,126,119,478,545,-3049
-18,75,-76,-68,211,-7
-45,-7,-12,-295,-1660,2162
113,8,57,900,-2100,2976
68,100,-119,430,-2623,2131
-88,-92,-107,704,-3122,1614
35,-40,-105,404,-3616,1115
96,-23,-4,1294,-4676,1939
-77,-60,72,2186,-4811,1632
-42,-98,65,3325,-3858,1520
-73,-29,113,1059,-4101,1904
-54,-89,-42,1463,-4385,2163
10,-44,21,968,-3393,2209
60,-82,41,1187,-3488,2160
16,-91,80,871,-2180,2155
-46,-124,-93,1097,-1782,2237
111,106,71,1423,-969,1995
48,-105,9,1068,-43,1382
-22,-112,-117,1081,5,44
-84,123,53,642,11,-493
-96,81,36,480,160,-359
-102,-2,47,1764,-52,-279
-81,1,16,1280,325,-586
-63,-32,-7,580,366,-881
-40,-56,-19,-222,411,-790
-35,-128,-37,78,333,-674
-25,-120,-42,-311,332,-348
-2,-97,-69,-235,162,-288
21,-82,-89,161,222,-657
29,-85,-114,558,179,-929
15,-95,-117,579,106,-801
8,-115,-121,751,63,-377
18,-100,-104,181,112,247
34,-90,-107,119,63,280
58,-100,-104,544,-9,265
75,-86,-111,479,75,267
79,-80,-117,355,46,252
81,-78,-123,317,71,228
83,-71,-127,148,114,200
89,-69,127,166,95,174
-46,15,46,367,4597,-3647
58,1,-14,-114,3831,-3981
-122,1,60,-46,4024,-4405
41,34,-48,-776,4098,-4305
-114,49,-54,-791,4811,-3901
-50,90,-106,-1864,4492,-3709
62,-102,-128,-2917,4321,-2922
52,-17,84,-463,4253,-3035
65,114,113,1414,2950,-2364
71,96,-107,1166,2929,-1865
-58,64,60,-1454,610,-1514
122,126,-67,-80,329,-956
-53,-86,-65,552,-1145,646
-12,-16,56,601,-2045,2637
-22,-33,99,1448,-1797,2603
-16,-101,96,1615,-2345,2011
-125,-44,76,592,-3036,2016
-28,13,-73,25,-4993,1954
51,5,67,768,-6075,2088
83,-64,90,1713,-4463,1590
73,-53,-52,1889,-4447,2182
115,-56,-28,2112,-4035,2524
-79,-8,-34,705,-3332,2678
127,-76,113,1114,-4223,2891
117,94,-18,1806,-1544,2078
3,121,81,1981,-1758,2267
-111,-122,-44,2403,-727,1865
75,23,-10,-621,-679,1588
25,-45,-107,596,64,237
-111,-103,62,1211,382,-1119
121,112,38,894,631,-1384
-104,53,-17,341,856,-1429
-54,18,-61,-433,608,-965
1,25,-53,-1138,25,-629
-4,6,-43,-929,141,-967
10,-12,-47,-786,578,-1380
15,-25,-61,-697,711,-1478
35,-77,-107,233,749,-1535
57,-69,126,-32,704,-1099
39,-70,103,177,244,-447
7,-64,-124,115,-330,77
4,-52,-76,-53,-311,570
35,-54,-50,480,1,817
67,-67,-93,1348,231,686
83,-23,-111,518,89,958
96,1,117,32,-80,1140
101,-19,108,728,-207,1035
108,-22,96,1173,-302,885
109,16,-127,409,-418,972
91,27,-109,35,-119,690
110,-117,-21,-942,5039,-2531
-57,-32,-125,521,4888,-4605
-35,29,-8,-2257,6034,-4344
-104,18,-34,-2389,5710,-4082
-82,-8,68,-1152,4763,-3035
-39,100,90,-2421,4930,-1774
18,112,113,-1947,4549,-1409
35,-2,-83,387,3898,-1700
-109,-29,-105,1416,3424,-2197
-54,-31,37,544,2858,-2592
61,88,-76,831,1718,-2701
86,93,81,741,-26,-1843
-125,80,41,-574,-853,1281
2,-61,-105,-336,-2757,3172
-9,-71,-5,155,-2835,2837
-4,86,-2,1358,-3101,2789
121,-106,-24,940,-3639,2481
55,122,121,1818,-3438,1652
-112,-90,-27,1572,-5513,2482
-9,-35,29,418,-4960,3081
-58,-85,44,369,-3940,1575
-90,-115,75,546,-4048,1931
-63,76,105,749,-2888,1639
-34,55,-49,931,-4015,2160
-45,-46,-51,3620,-2132,3277
-64,11,24,6369,-1393,3079
-15,-9,-57,4105,-2357,1723
34,-90,-24,-1318,-23,425
-38,-58,-120,344,1758,-763
-90,-103,57,-264,1240,-1319
-46,65,-14,-511,745,-1865
36,-78,-70,-14,1215,-2585
39,6,-118,1125,907,-2428
33,-23,-113,389,78,-1511
39,3,-123,-655,133,-971
31,-22,108,-149,229,-806
15,14,-127,-313,-129,-268
22,55,-125,6,-175,143
19,85,-108,236,-281,371
24,-114,-88,-107,-385,646
49,-79,-77,106,-214,791
52,-54,-81,291,-100,732
55,-29,-91,393,-79,526
63,-29,-102,527,37,200
70,-17,-118,215,156,30
76,-31,124,230,140,-148
76,-47,115,404,126,-311
80,-49,110,202,95,-369
91,-64,97,177,120,-440
100,-76,99,193,11,-476
127,-23,-80,313,4286,-5477
-117,-96,-34,425,3591,-5801
10,-52,16,-141,3335,-5355
-9,80,57,-2422,3521,-4598
42,73,92,-2602,3262,-2836
124,53,63,-1406,3482,-1977
-59,87,50,-1098,3250,-2090
-119,62,4,-1165,3687,-2776
-70,-101,-42,849,3049,-3385
83,90,-120,1927,2386,-4189
65,-117,56,1549,610,-2810
-88,-119,-19,-1121,513,-1169
100,-75,63,831,-1945,2428
82,-17,111,-569,-1264,3411
32,-44,117,1247,-1896,2666
-78,86,101,895,-2375,2738
45,-118,110,27,-3181,2373
-93,108,-105,121,-3988,1902
-20,45,-51,2701,-4802,3107
83,112,-27,2679,-5000,4158
106,-92,43,1469,-5038,3730
-76,-18,65,178,-3973,3472
-27,-55,-77,340,-3368,3155
-85,-49,-51,-387,-3658,2290
-96,8,112,3057,-1698,1194
94,-35,1,211,-2037,2147
-93,79,-102,2967,-1256,1280
85,-94,-79,2707,-1190,1138
29,64,-37,-1115,-419,1388
-65,-53,-46,159,-89,559
-87,-81,-98,958,527,-640
-74,-88,67,635,1194,-1212
-77,94,-59,266,1365,-1953
-35,-5,-91,352,1040,-2277
-5,-89,125,666,1058,-2171
29,-127,116,240,377,-1756
72,-105,122,-700,180,-1219
82,127,-113,-517,76,-1255
43,114,-114,76,236,-1240
-11,97,-113,496,72,-1060
-25,120,-118,4,73,-386
13,-126,127,-29,2,553
62,-123,126,570,-144,902
89,-84,113,330,-61,1088
53,-67,95,149,-412,1163
43,-29,112,-325,-825,1716
45,9,-122,-612,-702,2072
59,36,-114,-100,-537,1931
89,78,-105,369,-289,1549
118,118,-115,158,185,1056
-32,83,31,486,4420,-3430
-83,-81,103,596,4981,-5079
-42,91,1,-21,4307,-4731
74,-95,13,-831,3878,-3748
58,-26,69,-1893,3641,-3008
-92,6,73,-2051,3982,-2302
27,47,77,-2017,4500,-2336
-8,-119,63,1287,3817,-3232
38,-89,-11,1414,2715,-3232
-12,92,-54,29,1593,-2972
17,48,-64,1515,-375,-1576
-62,15,-21,-1402,2,860
95,19,8,206,-1024,1970
-59,-61,11,-394,-1744,1988
71,-33,-10,302,-2337,2273
-1,104,-13,-579,-3075,2293
124,99,-6,489,-3525,1964
28,-94,42,829,-4222,1885
77,-81,-113,1436,-5083,2673
122,124,90,1318,-3926,1626
-113,-93,-34,661,-3648,2211
104,116,-4,345,-3929,2086
110,74,-49,-497,-3135,2387
118,64,-55,-692,-2488,1960
27,-6,70,1998,-3347,1582
-51,88,-35,957,-1660,1420
-35,84,62,831,-1263,1460
110,126,28,796,-974,621
-21,92,-51,1288,150,-612
-46,95,107,-110,1207,-1010
-30,26,47,-120,740,-703
-26,-49,-4,923,674,-848
-16,-81,-50,552,616,-849
2,-71,-60,-386,578,-491
22,-123,-87,305,539,-672
19,102,-112,608,457,-599
20,-120,-115,-73,359,-362
47,126,-119,397,200,-263
62,-91,-107,113,23,-99
84,-90,-98,450,-104,-57
76,-68,-73,387,-189,-36
69,-60,-65,166,-61,208
82,-37,-67,-25,-1,290
99,-38,-72,373,-37,180
98,-29,-80,291,-25,106
102,-13,-73,-82,59,100
115,-39,-94,373,201,-127
117,-43,-107,366,45,-267
-117,-60,-118,192,159,-290
122,-78,-122,207,-59,-266
74,-55,-49,402,4458,-5030
-83,111,115,836,4393,-5368
105,-94,56,470,3929,-4858
-100,51,54,-2587,4076,-4214
121,62,123,-2183,3446,-2758
-74,70,-44,-1657,3164,-1626
-112,76,-92,-1012,4330,-1457
-66,-21,87,1539,3804,-3372
49,-97,47,1465,3169,-4249
20,-78,33,1372,1347,-2016
73,89,-102,517,839,-147
-15,-44,23,-927,414,108
8,71,83,-808,-1984,2515
-114,21,-11,-990,-2835,1909
24,106,38,-515,-2609,1468
-70,127,51,-29,-2439,887
35,-119,43,627,-2880,776
72,-123,27,968,-3651,852
113,103,87,1019,-4597,1654
-96,88,112,796,-4658,2338
-4,25,113,2711,-5012,2488
79,110,117,2333,-4582,3083
79,-105,125,-134,-3543,2467
-96,83,-52,287,-2722,1930
86,6,-17,6607,-849,271
-103,97,-125,7656,1055,2182
-103,42,-38,2937,-157,4413
77,28,-24,-531,-2014,7031
15,-89,-86,-1599,-1302,4587
19,-40,109,-1502,467,-326
-54,-94,38,2028,1884,-3639
-40,-128,-35,1403,1483,-3313
30,99,-105,-1839,790,-2850
81,-99,-108,-96,256,-3188
69,-42,-76,2092,-117,-3249
52,-110,-53,4476,-885,-2510
102,-118,-36,4410,-1227,-1994
65,-107,45,2780,-774,-1329
40,-58,62,131,-309,-686
42,-72,52,-1826,-360,107
64,-7,-37,-5389,274,902
51,44,96,-6099,73,1296
-20,5,14,-1613,-376,1042
-32,111,102,-718,-964,809
38,-69,92,131,-419,1045
58,-58,-115,1143,-616,1673
72,-11,124,1331,-435,2339
-127,40,115,1269,117,2273
-110,64,87,1097,-127,1534
-103,88,100,132,-365,916
0,45,0,-690,4465,-4456
32,6,14,-718,4037,-4157
-14,66,85,-1035,3885,-3717
105,98,126,-1323,4335,-3564
-118,-124,118,-1418,4057,-2995
-3,-101,-126,-1945,3400,-2810
97,52,-123,-774,3701,-3160
69,-47,-112,684,3124,-3054
-34,-53,-117,931,2487,-2786
101,-107,-37,1938,2470,-3652
-122,-80,-122,444,945,-3915
-49,76,82,230,41,-482
-51,-70,-104,796,-934,2047
-96,10,-87,668,-1031,2659
32,-54,-93,1253,-1655,2334
-124,54,-107,1399,-2497,2623
-32,112,-83,166,-3428,2986
116,111,-64,1820,-3809,3604
-30,-65,-56,1411,-4943,4026
-65,-11,-64,655,-5261,3940
-39,-47,-77,-370,-5200,2114
121,-77,-2,83,-5487,2402
-50,-113,-84,476,-5539,3006
-30,112,-91,384,-2368,2010
-41,90,29,1446,-1772,1335
62,81,-27,2813,-2384,1454
3,-118,-122,2174,-1620,938
66,-127,13,3025,-704,163
-74,100,88,-1989,155,439
-58,-95,-102,-1178,2518,-816
-62,11,-4,1432,2591,-2041
-67,-17,-108,2638,1450,-2135
-8,-58,100,2369,759,-1919
12,104,85,1280,368,-1871
18,79,114,403,69,-1213
38,87,-117,-517,-77,-837
30,94,-96,-877,-304,-456
15,91,-81,-482,-310,-28
14,111,-55,-97,-255,484
17,-122,-52,40,-158,689
40,-99,-50,253,-27,828
61,-85,-63,423,130,859
76,-78,-78,594,241,703
70,-78,-104,807,86,564
62,-74,-108,679,-12,605
68,-60,-99,330,-130,706
64,-59,-92,374,-63,487
74,-61,-99,457,-49,111
96,-48,-102,59,-147,-145
127,-48,-117,-340,-96,-229
-58,78,58,810,3985,-4944
-119,26,-44,786,5085,-5087
-124,115,-59,-576,4469,-4154
-53,-94,20,-385,3244,-3336
-32,-14,116,-1266,3173,-2818
125,28,-73,-1260,3743,-1646
27,72,-126,-1230,4785,-1744
110,83,56,-1329,4616,-2978
-69,-42,53,1528,3512,-4140
38,-114,-43,2420,3109,-5082
-88,-82,92,1390,1257,-3953
90,40,58,1362,-730,-247
101,4,104,-685,-1270,2844
19,68,-94,-179,-1810,2902
-69,-36,-82,1116,-2387,1917
-126,53,-121,2016,-2655,1951
5,-117,100,566,-2616,2344
-83,-105,-87,-1,-4024,2440
27,114,11,1322,-4935,2749
102,101,-34,2491,-4048,2815
-91,113,127,1622,-3302,2532
63,53,59,2281,-2567,2857
-35,8,78,1931,-3146,3712
55,-111,41,-1635,-4758,5288
73,9,110,1933,-4604,5050
2,-19,-75,2147,-3188,4555
-59,-125,7,2679,-3754,2414
-84,-80,93,1678,-2674,-110
7,-91,-65,-402,1695,-1668
-65,26,110,40,2938,-2331
114,-123,36,758,1370,-3127
-40,64,-50,578,1064,-3436
90,-35,124,-58,1413,-3680
-37,92,69,348,1422,-3534
-65,60,86,-124,367,-3163
-105,15,95,-352,115,-2273
103,6,92,-312,-35,-1686
66,6,103,-371,-203,-1218
36,25,102,-481,-133,-321
-7,37,111,-267,-310,557
-30,80,127,-203,-283,1342
26,-128,-123,392,33,1962
73,-103,103,700,284,1892
99,-4,117,-597,-527,2195
94,-11,-120,-331,-421,2114
-122,-12,-69,668,-387,1886
-120,-12,-106,1324,282,1410
-115,25,-110,922,155,1229
81,79,-109,-170,38,600
65,29,-118,52,113,-418
48,64,-24,-2274,-2871,3699
-109,110,-16,-2193,3483,718
47,1,27,617,5026,-3515
-37,111,3,1888,4196,-5167
-67,-31,-53,-808,4562,-4407
-99,-36,-95,-1155,4825,-4215
-46,-75,-61,-143,4063,-4578
-104,8,-6,-896,3958,-3707
-39,101,36,-2495,3664,-2254
45,74,48,-2027,3606,-2012
51,-16,-88,-346,3380,-3484
-27,45,-89,1203,3457,-2595
75,-1,-31,-547,2692,-2567
-74,2,96,-665,414,-2302
-25,-83,18,955,-21,-572
-65,-31,72,-820,-618,1658
46,-115,-85,159,-1714,1996
-77,28,-43,829,-1835,1559
124,106,-101,1581,-1800,1433
-33,-86,127,838,-2719,1850
84,-92,122,762,-4186,2186
-2,-65,116,2110,-5590,2733
-105,110,-86,417,-5762,2234
-18,-5,-72,-626,-5091,201
-2,-112,-43,1630,-5840,749
-4,25,-66,809,-4629,1233
-119,5,40,766,-4080,1991
85,-121,-30,2183,-911,1422
-77,-27,108,2753,-655,1762
-120,-40,-66,461,-862,2768
26,30,-104,-271,-1512,1934
-45,-43,126,1086,-534,-230
-86,-62,102,1116,92,-739
108,-52,98,129,211,-268
108,-111,77,631,175,-373
-121,-112,70,142,276,-784
-52,-128,-128,-1547,789,-1092
57,30,22,-248,2013,-1397
88,-6,-50,-47,1648,-1811
91,30,-93,-1023,1694,-1407
91,-16,96,-482,1672,-1348
48,-47,61,78,937,-1030
19,-27,85,120,5,-306
27,-30,94,259,-34,-92
33,-38,103,646,-227,139
23,-42,127,780,-556,555
72,-33,-113,494,-508,1121
104,-44,-118,1234,-931,1595
121,-49,-113,1952,-931,1597
113,-104,-110,3771,-663,1193
109,-47,103,-696,4378,-3191
49,45,12,1242,4428,-4505
96,-59,-8,-1127,4304,-4055
-33,-28,41,-635,3693,-3341
45,32,91,-587,3512,-3319
124,-111,-31,-2238,3235,-2376
0,-52,-5,-3386,4131,-1375
-63,119,-3,-2378,4528,-1529
46,-60,-73,437,4806,-2162
-118,-30,114,1290,4421,-2192
-77,101,-111,4083,3522,-3638
-124,19,39,947,676,-3514
-108,90,-20,1011,-263,59
-53,-121,69,-575,-1397,1848
-119,-123,-96,-103,-2380,2099
33,53,-51,370,-2624,1695
-85,-113,-36,1063,-2888,1510
75,-39,-36,1324,-3303,1500
-76,-76,-52,2394,-3752,1905
44,-53,27,2624,-4866,3853
-76,-80,-34,2094,-4621,4012
22,-46,12,1287,-4702,3759
92,-58,34,1132,-4203,3488
90,100,22,2077,-2772,2220
72,0,-118,2763,-2433,2062
103,-102,-110,514,-4010,5004
-82,119,36,2896,-2241,5470
-45,108,-34,3329,-3188,4643
-42,75,114,701,-4482,2233
46,-1,123,-271,-1529,-1524
-40,52,-29,297,3156,-2923
-32,-2,110,-2622,4639,-3239
-48,61,-68,695,3245,-4310
1,-18,114,2676,1422,-2544
58,100,97,-199,909,-1700
85,-10,50,-421,651,-1967
85,61,60,-1111,79,-767
12,109,81,-913,-721,-425
-3,-82,100,-606,-513,-375
20,-81,79,2,-10,-602
-22,-62,90,138,-409,-399
-29,-57,118,-2,-667,22
-4,-44,-104,33,-645,400
34,-57,-88,864,-211,423
32,-62,-84,1004,-123,284
24,-50,-94,765,72,451
14,-38,-91,289,-41,665
7,-26,-101,2,195,725
17,-22,121,56,362,500
38,-22,99,263,341,500
-41,-99,-32,87,3671,-4634
104,-102,-99,-99,4886,-4840
85,-74,-93,275,3924,-5432
-82,63,-30,-1789,3486,-5148
-30,61,-50,-1864,4034,-4410
-105,-115,85,-2606,2990,-2831
56,110,66,-2290,3493,-2280
126,-51,69,393,3730,-2598
17,-106,12,2863,3151,-3612
79,56,87,1549,1455,-4863
-119,-36,-109,-2497,653,-3142
-59,-106,-47,2135,-1091,-730
2,-62,85,-284,-534,2579
-86,-51,-120,1418,-1264,3074
69,-92,90,1975,-1506,3059
34,40,14,2709,-1626,3662
-70,76,-38,2923,-2070,3904
90,-71,126,2075,-2685,4640
-79,71,52,430,-6742,5954
-74,-5,-111,-857,-6649,4489
64,111,-63,1138,-5581,3961
10,31,59,1794,-3924,5542
-124,117,105,217,-3142,3660
-12,-78,-14,1991,-1775,1151
58,107,46,3931,-888,-423
90,-78,125,3644,212,-42
-61,22,51,-913,1157,14
-86,83,27,894,209,93
96,103,28,1196,-419,318
74,-110,0,-640,288,-308
-110,79,-56,99,748,-723
-45,29,-96,58,350,-1402
24,-83,-128,495,320,-1762
10,-104,126,-947,236,-951
-46,-29,120,-3019,61,-346
-35,-102,125,-1021,-35,-1035
-38,122,-99,613,100,-1097
-25,-119,-93,167,363,-707
6,-98,-115,-386,-124,-297
-40,-18,74,-41,-354,-97
-41,-24,21,680,543,-149
-25,-17,-5,968,661,240
-17,16,3,455,674,841
15,-13,50,64,-41,492
35,-32,78,864,-726,469
49,-28,106,1274,-512,599
50,-8,126,812,-227,597
59,-4,-111,301,-66,386
77,-23,-124,481,182,58
96,-37,104,454,366,-244
-92,41,-68,-750,5633,-4010
-17,70,72,-926,6126,-5584
109,71,104,14,4852,-4886
52,-51,-60,-1690,3862,-3692
56,-105,-63,-1544,3494,-2587
118,116,-54,-1345,2982,-2183
-111,-17,-47,-462,2928,-2148
8,-75,-87,947,2886,-1988
-76,-70,84,1038,2747,-2455
-24,38,122,782,1129,-2132
17,58,64,243,-150,-1386
-99,110,112,-588,-896,1347
49,5,-41,-139,-1801,2622
-16,-27,-19,318,-2084,2303
-83,-126,-25,307,-2666,2104
-2,-108,-6,211,-3301,1805
94,114,-38,1600,-3229,1910
39,-10,-84,3007,-3943,2933
1,96,-14,2485,-4811,2322
31,31,84,1907,-4403,2226
57,-21,-27,473,-3647,3025
78,126,-44,783,-3179,2852
114,22,-126,1734,-2017,3158
99,-128,106,-152,-2949,3864
90,103,-75,1323,-2451,3702
-32,-107,-123,1531,-2159,1763
-100,-59,47,1483,-1955,1741
53,-39,-19,1575,-481,56
-46,-80,-123,810,798,-1578
-63,88,66,198,1244,-1853
-59,-4,-14,-250,1151,-1637
-29,-81,-40,-131,783,-1275
-44,109,-77,566,406,-834
5,91,109,502,440,-700
-34,-120,108,-1014,38,-127
-17,-78,127,-1641,-280,430
-2,-80,123,-950,89,52
-7,-85,118,87,166,5
-26,-37,114,-288,-52,87
1,2,125,-925,-77,432
33,-15,-120,160,-140,370
118,-11,-126,826,174,-17
40,-25,127,836,-141,-330
23,-25,-96,-211,-174,44
87,-34,-109,77,276,508
69,-36,-118,693,60,160
79,-5,-119,131,202,175
87,-46,120,477,237,184
98,-11,116,-235,183,439
121,-44,102,529,73,116
90,-81,109,79,4201,-4428
35,-112,20,-492,5381,-4648
108,-121,-16,-237,4696,-4999
-12,-38,14,-1323,4575,-4284
25,-1,30,-1600,4541,-3364
-13,46,64,-2034,3947,-2878
62,-60,107,-81,3680,-2733
-8,94,101,1707,2849,-2600
-41,-86,35,963,2734,-2954
-8,7,-126,487,1646,-3348
73,76,63,-1146,595,-1401
-91,38,16,1358,-523,552
-58,-125,80,461,-1359,2580
-34,-69,123,474,-2117,3138
-67,22,105,1025,-3041,2616
83,95,107,364,-3993,2830
28,79,106,757,-4787,3265
-123,-58,-18,-93,-6519,4626
9,115,24,2191,-7215,4669
30,-101,-7,-268,-4092,2643
-12,44,-32,1568,-2475,1518
52,93,107,1204,-2849,1913
9,-97,-96,-191,-3788,2474
-74,-32,79,4004,-2503,1164
78,-89,-15,1334,-2452,1668
-32,122,-100,2092,-788,1575
28,-65,-63,1471,-1191,841
-59,-3,-70,10,-306,274
-89,-76,-116,59,839,-835
-105,62,27,509,1452,-1945
-89,-66,-51,1164,1495,-2406
-67,-112,-93,1264,856,-1511
-13,67,-115,700,236,-1296
41,44,-121,64,410,-1058
30,5,-120,66,22,-883
-16,76,-98,-1322,-180,-592
4,60,-120,-883,55,34
22,124,-127,-364,-89,580
11,-68,-128,-229,-79,530
36,-32,-120,-227,-115,367
40,-8,-108,-31,-18,196
37,-15,-103,215,91,-166
52,-38,-114,544,280,-242
62,-24,117,112,265,-87
62,-29,109,261,116,-176
81,-48,97,734,-106,-259
91,-15,-125,139,60,-153
84,-40,112,223,280,-348
89,-69,94,516,167,-234
111,-64,84,415,125,-194
-42,-71,-122,-20,3940,-5314
2,-69,-91,230,2850,-5089
27,87,-16,-549,2891,-5045
-36,-102,-28,-1085,3124,-5713
127,-34,0,-1861,3417,-5301
113,-88,-61,-1621,2521,-5248
-82,93,-50,-1614,2117,-4794
-106,-47,68,87,1872,-3149
-45,82,-70,1394,3062,-3841
57,19,43,-384,1005,-4435
36,-75,86,-1868,-414,-3055
63,-36,102,1088,-687,-3837
-67,120,-38,206,-480,1692
-13,-49,113,-478,-594,3071
118,8,0,1095,-319,2681
-43,-33,-82,1410,-864,2494
73,-25,-110,1579,-1117,3018
4,-58,51,2952,-813,2934
1,-69,0,5383,82,2722
22,-53,0,-135,-3717,5935
-119,65,-26,-280,-6169,6402
34,105,-57,290,-3126,3938
-40,4,78,2230,-2687,4418
-29,-45,98,1501,-2982,4732
16,45,106,-955,-2817,5739
52,85,-1,2221,-3111,3632
32,-13,-114,2119,-3556,3418
125,50,-67,3221,-3324,2918
-112,-14,92,526,-3057,2127
-35,-97,109,-603,-583,-325
-88,75,24,-143,2285,-1699
-104,-90,83,-56,3492,-3507
-74,51,-85,520,3683,-3931
1,-13,72,764,1670,-3885
71,97,96,1600,-245,-4657
72,47,112,143,456,-3992
-72,-48,48,-537,1502,-2263
-29,-57,18,341,795,-502
41,1,71,494,-614,194
-41,39,103,-478,-1156,168
-10,98,-121,-1755,-1003,810
14,80,108,-824,-548,1513
-6,97,-118,652,-883,2324
48,-88,-105,553,-816,3128
-90,45,-85,-282,-742,3817
-104,103,-110,-299,-624,3102
103,-125,-71,47,-951,1234
75,96,-65,894,-225,-318
46,65,-87,1003,580,-920
59,30,-122,550,726,-1138
2,-73,35,715,3204,-5796
-118,-94,-15,231,3674,-5419
-104,-16,-34,-1470,3656,-4851
-24,-9,-110,-1698,4290,-4558
43,48,-81,-2860,4518,-3726
93,52,-67,-2569,4736,-3121
57,-50,-23,-557,3981,-3322
-123,-87,-12,871,3475,-3356
-57,75,-123,1937,3287,-4039
26,-74,16,1431,2002,-2946
76,-16,-127,185,704,-1064
115,71,-93,-562,-1936,1078
-15,36,7,-1090,-2521,3423
-99,-6,122,-33,-2851,2326
-114,95,104,1918,-2435,1572
31,120,33,2324,-2364,1631
-84,-107,22,1220,-3637,2334
7,105,68,1016,-4905,3458
126,-86,-94,1188,-6888,4865
54,-74,-58,1030,-5990,4323
-42,-93,-44,1253,-4306,3447
117,-70,65,1158,-4300,3442
72,-31,-40,5497,-4335,2222
-25,-108,89,4825,-860,3470
-8,-83,89,-314,-72,4118
-108,-26,-94,-1192,-1623,3331
34,119,-85,1440,-1276,776
-37,115,102,1761,277,-1169
-73,103,54,-44,1047,-2084
-34,-63,-2,-314,1794,-2723
-128,-47,64,2577,1031,-3065
-104,75,92,-1078,-343,-454
-40,-44,82,-508,-62,-419
-51,2,114,-97,-14,-452
-60,-115,-91,-711,-161,-293
-24,-15,-79,-299,56,-560
-17,-12,-72,335,157,-942
21,-32,-91,316,542,-890
2,-34,-114,267,278,-687
9,-42,-122,38,154,-495
18,-44,121,-331,265,-216
26,-48,112,-71,222,-200
44,-31,92,57,243,-221
47,-16,89,2,-74,-212
59,-15,82,229,61,-339
60,-5,83,131,55,-473
53,6,86,-178,-94,-199
38,-2,92,37,-227,77
38,13,110,-43,-143,369
54,26,114,33,-112,481
-69,44,38,-1641,3566,-3323
121,-15,63,-176,3232,-3718
-13,34,110,-643,2857,-3468
88,-121,6,-2711,2432,-1914
17,68,-116,-2115,4388,-1990
69,1,-81,-1020,4253,-2633
-108,-39,-47,442,3282,-2687
-25,1,-17,220,2190,-2532
106,-67,-91,471,2426,-3721
-10,-107,51,-708,2235,-2914
77,-89,-107,-746,1876,-1386
1,-9,57,1946,187,-376
-102,62,91,-135,-1857,1447
-1,125,-69,-661,-2571,1876
-86,-51,-33,1323,-2523,2005
101,120,-36,832,-2548,1730
-31,-116,-72,1140,-3160,1501
73,-113,-27,852,-4569,1237
-94,-121,59,188,-4754,1573
-91,77,48,1193,-4448,1523
-86,71,34,2925,-5662,1810
51,-116,26,2950,-4581,2242
-123,-48,-25,1050,-3301,2187
-126,66,-9,2463,-2723,2483
-57,90,46,2092,-3132,2824
-32,72,-15,1889,-2865,3134
126,114,-13,2959,-2642,2520
6,-59,123,2567,-2546,1584
65,-28,49,2436,-2,-152
-82,-21,-81,608,1531,-1026
73,113,52,350,1362,-1319
89,34,18,307,374,-1404
-127,-26,-21,500,321,-1227
-90,-86,-77,439,621,-1385
-65,-122,-96,374,267,-1572
-40,113,-88,72,-285,-1352
-8,110,-65,-706,-485,-885
-8,110,-78,-1233,-351,-564
-25,104,-88,-1144,-488,-326
-42,109,-88,-691,-520,-4
-58,-111,-75,-581,-712,380
21,-46,-65,-1039,-398,964
-29,10,-79,-1284,-217,868
-103,26,-55,-981,-409,313
76,42,-86,-697,796,272
120,0,96,762,1456,-758
49,-26,75,2216,449,-737
46,-4,67,615,105,-381
15,-12,84,-555,9,4
24,-62,90,-100,195,125
103,60,65,224,4517,-3906
68,37,-54,-1245,4882,-4916
-77,-106,-106,-735,4193,-4400
-94,-100,-101,-298,4815,-4116
-40,-126,-100,-304,4291,-4293
-76,121,96,-1331,4059,-3416
-54,91,122,-1773,2935,-3006
38,26,106,-497,3448,-1838
-28,11,16,914,3640,-2568
112,-114,108,2741,2969,-4085
-50,122,96,-123,1085,-3507
-8,27,123,537,-261,-182
-88,22,-50,-84,-1333,2034
115,-128,-62,-150,-2513,2710
59,9,-96,1216,-2032,2330
-7,-87,-104,450,-2907,2448
109,-84,-95,451,-3979,2143
5,-87,-49,775,-4974,2333
127,125,-72,2489,-4551,2918
101,89,-29,2527,-5146,3028
112,-6,-93,435,-5109,4076
-40,27,-49,-91,-4612,3648
77,-62,-14,774,-2998,3182
31,-58,93,1682,-3733,3426
-51,-47,0,1541,-2449,2816
74,-126,122,-1111,-1746,2171
116,6,59,857,-841,-347
-3,-80,-14,1506,259,-1206
-99,117,-106,1353,613,-581
-101,84,73,892,579,-403
-66,-8,-42,681,819,-923
-59,-65,-81,579,624,-997
-64,120,-100,1103,380,-895
-34,-118,-95,549,585,-833
-13,-111,-104,82,460,-571
-25,-95,-105,48,21,-159
11,-64,-96,-632,48,587
24,-12,-120,-435,283,438
79,-33,104,1022,527,-280
43,-52,101,868,458,-897
31,-40,-112,-73,531,-313
22,-119,-110,920,320,-233
95,-122,-104,1075,357,-200
-51,120,-111,1088,267,-217
112,126,-76,803,-181,-134
102,-127,-51,322,109,-8
115,104,-71,732,129,-8
114,-124,-60,261,-149,347
-79,-77,-65,-386,14,514
127,-121,-86,661,111,-11
-6,94,-75,422,5242,-4743
-40,52,-105,1064,4399,-5378
33,-43,96,-1198,4521,-4901
49,-3,95,-1858,4590,-3701
24,14,104,-978,3225,-2455
89,120,67,-2197,3263,-1991
-32,-32,25,327,4070,-2564
58,-77,-38,1278,4020,-3194
33,97,20,2657,1539,-2297
-74,-14,-4,-1064,-717,-1713
-83,-33,-41,2055,-1013,-149
-2,116,-98,-1036,-2146,3025
-18,59,-26,268,-2584,2853
-18,31,-75,455,-3113,2697
86,60,-108,877,-4050,2697
47,52,115,1596,-3954,2665
-109,74,94,1540,-3864,3099
88,120,89,1049,-5181,4555
82,114,96,-1054,-5765,4660
28,-113,15,-981,-5746,3747
89,-9,42,-2960,-9017,2320
40,42,104,2555,-7897,2648
22,99,-50,4815,-645,180
-13,8,-30,921,360,-1011
8,20,112,1425,1495,-1989
-112,100,118,1943,2492,-2205
-108,-18,-35,1649,2396,-2143
-123,80,-93,1800,1031,-1699
-68,84,-108,-37,471,-747
-22,41,-95,-192,233,-629
-6,15,-95,147,176,-536
-32,82,-86,-224,-33,-12
-19,-77,-105,-619,-111,0
10,-39,-123,-226,-178,-676
18,-97,-125,321,-30,-1042
40,-68,-114,-438,20,-369
-18,-105,-124,29,-43,-593
-2,-127,122,607,182,-459
42,-110,99,191,27,-109
21,-118,92,375,-370,193
27,-84,101,-235,-397,732
104,-29,107,-356,-415,1082
82,-14,117,498,-469,849
-7,0,-115,796,-401,541
17,53,-110,-461,-26,754
73,60,123,-295,-70,794
58,70,120,255,-228,476
39,91,116,-127,40,-40
79,78,98,-231,357,-547
102,40,79,380,320,-907
-114,62,71,-449,4379,-5763
-10,25,47,891,3688,-5656
-91,-30,110,-2025,2455,-4548
14,-44,-96,-1819,2509,-3816
118,-54,-72,-2151,3318,-3270
78,-14,-26,-3542,2692,-2169
85,-81,-37,-2754,3067,-1615
-49,57,-25,-872,3028,-1738
91,-6,21,248,2928,-2000
57,107,-103,3832,3633,-4176
86,26,-93,4962,2549,-6443
-100,116,-128,-2116,876,-2568
35,-98,-94,1191,-1125,467
36,-20,-38,-945,-704,2368
126,-4,41,-359,-1424,3003
-33,-91,28,427,-1112,2500
77,11,-4,935,-1108,2452
-128,21,-63,1133,-1661,2576
-29,78,-68,456,-2740,2917
38,106,-22,190,-3854,3320
-70,43,-28,1581,-3668,2899
45,-12,-45,4386,-3186,3210
117,93,-88,3658,-2061,3407
62,-11,-12,762,-3106,4585
-125,-82,-16,559,-3143,4290
-76,-76,-96,65,-3441,4888
-57,-95,-94,-569,-3279,4288
-77,-104,-16,1226,-1234,2413
71,37,-105,3932,-269,1587
35,121,64,3368,-213,-945
114,0,-2,919,164,-1863
-96,-108,-103,-1501,643,-1239
-92,-2,43,-1649,31,-1113
-70,-118,-14,324,-83,-580
-45,-114,-44,443,495,-1110
-24,123,-87,316,621,-1384
4,76,-112,605,299,-1386
11,59,-94,414,-172,-1081
20,53,-61,-128,-211,-514
9,50,-68,-328,-76,-34
-24,41,-76,-5,-117,334
-20,66,-98,397,-41,1151
12,100,-114,347,-91,1490
46,-100,-114,201,-175,1797
45,-59,-119,-50,-282,1483
17,-23,-112,-548,-383,1096
53,-4,-124,-1019,-537,338
121,36,106,-412,-459,767
51,60,106,-225,195,287
16,57,101,-268,536,-376
-25,29,-55,1115,4768,-4705
82,41,-26,1386,4026,-5029
97,-46,36,-1444,3622,-3530
-6,-49,1,-1218,4525,-3228
25,-29,30,-1444,4401,-3345
69,-96,-93,-4312,4141,-1446
3,114,-125,-3510,5291,-460
76,-45,-104,480,5271,-1723
84,-18,124,2696,3776,-2260
-76,50,-46,368,1283,-1958
80,-108,31,-1640,1300,-769
-35,-112,7,-24,-356,-790
-14,9,82,482,-1948,1197
81,-109,-1,-898,-2012,2195
-4,0,55,329,-2468,1808
-49,122,17,927,-2751,1211
88,-58,-47,1247,-2816,952
49,43,-120,1848,-3992,906
11,44,35,1242,-6433,1398
-109,-78,-77,2318,-4625,1596
-92,-67,41,1535,-4929,2323
-59,-115,119,1710,-5493,3372
8,108,88,1532,-4079,3540
85,-70,-20,-406,-3717,3976
53,105,76,785,-2325,3261
-87,-88,-101,910,-2018,2350
-79,-20,118,669,-479,-361
63,102,21,1640,1091,-1957
-52,-122,-90,-1635,1913,-1746
-109,-87,56,-259,1339,-753
-112,-99,45,1469,-97,572
-23,-16,-40,912,422,-90
3,-45,-89,1037,855,-801
-8,-62,-118,264,652,-843
-3,-123,-122,433,228,-371
9,-118,-114,511,38,75
27,-86,-109,139,-114,113
43,-85,-96,201,-118,135
56,-65,-87,80,-185,196
61,-43,-73,-243,-271,285
67,-16,-56,-254,-164,274
71,-41,-62,532,33,8
78,-11,-68,29,128,-7
101,-26,-88,210,201,-182
116,-58,-119,304,164,-320
101,-48,-109,-205,-24,121
108,-42,-102,-42,-37,95
113,-47,-107,352,111,-146
126,-46,-115,199,79,-171
-125,-65,-114,310,-62,-1
40,15,-112,2150,5226,-4854
-73,-111,44,-613,4985,-3683
-92,-117,9,-123,4399,-3104
-10,-25,67,-879,4269,-2998
80,22,52,-599,4847,-2964
30,90,117,-1327,3746,-2708
-75,-123,-108,-2286,3947,-2083
49,66,-84,-1123,4199,-2426
69,-29,-58,459,3446,-2578
-71,-63,118,-331,2914,-2393
-90,18,-123,-281,1652,-1208
-37,125,27,-1313,-165,-1214
-16,82,81,-529,-1365,973
87,112,-74,37,-1931,1283
-70,25,-10,326,-3199,1644
85,-110,-2,673,-4163,837
19,-54,-80,1842,-5114,529
-110,30,-120,291,-5255,901
59,-57,-92,1281,-6480,1017
114,-91,-74,2418,-6212,1067
-68,-77,-107,2357,-5635,978
-69,-45,-74,116,-6159,1420
8,-126,-37,-85,-4948,1670
11,50,64,1235,-4059,564
13,-47,-127,4379,-2631,-758
1,-113,-70,2615,-1881,-349
107,-49,31,747,-182,80
-38,-102,46,94,251,-217
-72,67,-64,841,1155,-935
102,22,84,1320,656,-1120
115,41,26,-199,951,-471
85,5,-46,-449,478,-161
97,-32,-52,21,848,-423
-119,-31,-87,-183,1349,-99
-84,-80,-114,-82,606,-441
-70,-83,127,218,463,-616
-67,-79,-121,-124,42,-846
-49,-60,-103,-800,136,-214
-45,-102,-119,-222,299,-224
-13,-74,-119,-40,650,191
-9,-51,-127,-156,80,179
19,-29,-109,-331,607,128
39,-25,-92,319,138,414
43,-2,-96,258,-209,490
37,18,-89,28,-704,742
60,19,-96,38,-221,530
37,13,-83,321,-293,338
59,18,-118,233,156,171
81,0,127,367,281,60
119,-18,112,768,300,202
-111,-108,121,-680,4858,-4208
18,-103,72,-1557,5306,-3632
-57,114,2,80,4956,-4195
-92,-68,57,112,4238,-4371
-41,11,64,-995,4256,-3665
-59,64,-121,-1698,3665,-3086
-71,119,-104,980,3316,-2834
42,-116,109,2171,3315,-1757
-81,-54,20,2602,2204,-2768
-88,-55,-67,619,1379,-4286
1,-40,-58,-1091,-251,-3774
-88,-75,-51,1102,-881,107
-54,-55,11,495,-895,3031
-9,93,33,361,-1243,4149
-70,76,-64,712,-1652,3574
77,-41,-59,-401,-3235,3226
62,-33,57,-1489,-5476,2850
-100,123,17,258,-4856,2459
47,-61,89,3118,-2151,1199
34,90,-13,941,-3675,3071
-52,-108,14,1080,-4930,5682
-91,47,29,2195,-4950,4815
84,-61,20,-66,-2993,4042
106,51,-117,-1555,-5244,2549
-88,-82,44,4322,-1936,1853
-3,-56,-63,4188,509,-739
57,-41,-84,3662,782,-674
-76,-91,75,481,337,-811
-110,3,17,-793,-394,-1044
-38,32,-42,1597,356,-1256
-65,91,-28,221,911,-379
-51,77,-84,85,290,-953
-26,96,-47,-578,-481,-806
-2,73,-74,-553,-545,-872
-11,38,-77,218,-604,-695
39,40,-117,618,-131,-254
13,80,-93,-91,-492,-163
19,80,-79,-97,-523,-68
31,50,-63,525,-146,13
-35,61,-79,402,25,202
49,110,-95,-161,323,629
29,124,-121,307,72,446
22,-113,112,93,53,493
43,-75,114,-513,12,811
45,-39,106,-381,125,840
53,-39,81,337,250,484
113,-14,51,163,27,435
91,-2,75,8,-207,388
69,-14,73,459,131,-84
78,-21,63,189,-9,-276
-105,-32,56,-159,4920,-4898
79,-82,46,-1956,4612,-4065
-15,116,-60,-1050,4832,-3831
-108,74,-70,-127,3737,-3721
-121,118,34,-2161,3231,-3379
2,81,60,-1860,5186,-2455
84,53,-14,-576,5050,-2308
124,78,-89,-1815,3755,-2688
-114,-72,36,-312,3361,-1937
-61,104,-80,916,2414,-1839
-2,-33,-32,1079,1605,-2418
15,-24,126,855,-926,-1221
-21,-43,-5,-888,-2477,1221
-116,107,-22,-547,-3293,1853
106,18,16,502,-3060,1498
29,117,6,881,-2904,1344
-37,-100,-7,1228,-3188,1350
-3,122,-26,2518,-3746,1755
78,103,-54,4386,-4110,3497
-15,-47,30,4367,-6041,4757
27,-87,-88,245,-6212,4722
58,43,-74,698,-3384,2376
66,-75,94,2729,-3186,2303
117,25,80,-494,-4349,3417
-7,44,33,2449,-2005,2802
-72,-59,60,872,-1621,2387
60,-21,92,343,-1710,1690
-119,-33,16,240,-212,233
53,-96,-19,-51,389,-1231
-112,-66,-101,1183,1312,-1707
-80,-113,12,77,1914,-1056
-67,77,-71,25,900,-607
-48,65,-115,-134,494,-40
-71,-119,-85,-563,84,393
-83,-101,-93,476,178,184
-87,-4,-65,-149,355,110
-42,-9,-86,17,556,-79
-13,-31,120,646,298,-523
-47,-72,-128,561,-247,-448
12,-35,-86,-1059,-168,160
31,-86,-103,167,-62,-23
118,-63,-105,145,141,-217
75,-55,-85,-23,-348,-89
83,-63,-77,383,136,-28
-120,-45,-112,220,202,153
123,6,-108,-456,-420,270
-111,-12,-92,-90,86,64
85,-36,-88,13,-115,43
39,-9,-60,-674,-183,462
54,-35,-81,253,200,125
-96,-99,-95,-753,3357,-3958
-31,-57,-84,-993,3829,-3919
-58,21,-114,-1201,4112,-4485
66,12,-104,-1304,3898,-4422
-102,-6,-114,-2054,3815,-3948
-80,-84,100,-2164,3578,-3280
-31,60,126,-1540,2769,-2260
24,-16,-102,-700,2288,-1506
-48,-32,-103,839,1892,-1152
-102,-96,-71,471,2647,-3371
93,41,-44,612,459,-2922
-62,116,-44,-1352,-702,801
-63,59,50,-126,-1379,2135
84,-35,-30,-562,-1880,2618
-32,93,45,299,-2107,1335
100,-101,7,1120,-1850,876
-128,125,12,1229,-2326,592
-19,96,-23,1698,-2556,1367
23,91,-69,2349,-3675,1844
-88,-121,-59,2376,-4075,2687
-30,-21,27,1283,-4789,2730
2,-82,46,2380,-4213,2531
10,4,-68,1150,-4144,3030
3,-32,24,961,-4124,2717
-10,-74,85,1159,-3786,2740
-44,-85,-12,4843,-1623,1618
38,21,120,4433,-341,3024
-1,-89,-80,-1427,-884,4634
-14,51,-50,-1547,-1509,659
-29,-8,-71,3557,319,-2051
-46,19,76,2709,1354,-2111
-63,28,20,-102,976,-1280
-115,-52,-40,-1280,-104,-576
-116,-101,-50,-768,-550,-151
-115,-128,-43,208,-50,-103
-94,104,-90,1336,530,-47
-77,-102,-77,818,-148,271
-61,-80,-97,327,-361,230
-33,-55,-82,-534,-319,14
-15,-92,-91,-175,65,-477
-6,-116,-91,187,44,-600
-5,-115,-91,20,-29,-430
-6,-121,-100,-6,103,-293
9,-126,-118,117,112,-137
25,-117,123,27,50,-44
35,-113,110,34,17,37
32,-105,110,-32,-59,211
38,-94,109,-24,-48,353
45,-79,115,221,4,352
58,-71,112,333,96,229
55,9,116,85,3384,-4972
-47,-44,84,21,3636,-4105
-24,90,51,-1736,3509,-3545
-104,92,105,-652,3402,-3674
44,-99,124,-1587,3944,-3693
-127,-98,122,-1939,4109,-3449
-50,124,-112,-1837,3404,-3341
71,126,-79,-2089,3483,-2875
73,-81,-121,-326,3161,-2613
-3,-127,56,1067,3094,-2309
-5,-16,79,1799,2178,-2706
55,100,31,-568,-345,-796
-67,-96,41,-594,-669,619
42,-15,-95,276,-1424,2969
-24,-1,-57,51,-1516,2252
-42,47,-96,1562,-1914,1640
16,97,106,1952,-2290,1949
112,-81,53,549,-3054,2311
-48,19,21,-616,-6556,3363
74,-61,66,2178,-6180,3231
-49,4,-105,1815,-4664,2975
-105,74,-9,-29,-5042,3661
-118,-121,-65,1875,-4574,2752
-80,-49,32,127,-3891,2661
57,69,-50,1344,-1917,1501
42,84,40,2105,-1669,1818
-14,127,-80,1919,-967,1455
86,-90,-35,1399,-1178,797
-16,-106,-39,797,-463,130
-66,-60,-53,-1390,235,125
-98,90,-123,-273,406,-180
-88,45,65,1043,706,-725
-46,9,-48,814,1395,-1350
-24,-72,-107,1452,1315,-1552
-10,-100,110,1055,1314,-1204
-8,109,94,1023,462,-966
0,-104,102,-145,-223,-776
31,-89,105,-1100,-432,-709
52,121,-107,-246,-575,-315
41,105,-89,671,-269,-119
37,-89,-51,-200,-199,201
36,-79,-65,-550,20,472
53,-63,-65,-371,-20,713
90,-35,-78,79,-170,782
119,3,-70,-173,-184,647
87,23,-82,-559,-64,162
43,38,-92,-1043,179,157
34,41,-101,-804,108,467
60,40,-117,137,170,535
108,70,105,525,194,163
-19,-9,3,-564,4625,-4502
57,-79,-96,-101,2554,-4296
-48,11,49,-1035,4889,-4524
67,51,-45,-1180,5662,-4419
71,62,-66,-1035,4902,-3858
-23,-125,-10,-1771,3293,-2993
122,-106,45,-2664,3292,-2147
-73,-5,72,-399,3402,-2092
15,-55,105,3,3392,-1751
-29,51,-2,1794,3090,-2336
119,5,29,-825,1058,-1899
-104,8,-120,849,133,627
-46,97,-126,-840,-1119,1294
36,9,91,-358,-2644,1886
114,-124,-70,708,-2367,1228
81,-75,-87,1629,-1886,447
64,-31,105,1725,-1908,-152
-101,-65,92,2225,-3420,977
-7,-88,126,950,-5017,2306
60,125,-106,1873,-6326,3730
-124,-122,36,2473,-6918,4247
-123,-41,5,1402,-4578,3602
-104,-19,95,856,-3787,3319
72,12,16,-518,-3892,3042
-76,-93,49,555,-2766,1852
-105,-125,116,1721,-1957,1889
-15,14,102,406,-912,1453
69,-76,7,2544,-178,-249
-59,-72,-126,2267,609,-840
-83,-19,78,-1439,873,-415
-109,79,43,-104,24,-212
-93,46,9,755,101,-221
-74,34,-39,502,708,-787
-63,0,-75,255,545,-821
-49,-54,-93,479,502,-772
-22,-75,-103,480,374,-571
-3,-98,-121,549,435,-583
5,-110,121,381,322,-441
7,-112,115,0,89,-41
6,-112,107,-116,-75,212
23,-60,124,-486,-307,579
36,-30,-122,-387,-305,540
30,-11,-111,-114,-277,352
50,24,-104,-409,-141,345
66,32,-105,-176,-215,279
63,28,-100,248,-91,-26
65,25,-101,228,146,-232
68,-11,-113,684,139,-383
78,-20,122,332,327,-433
88,-35,94,276,161,-1
7,112,62,-550,4571,-4163
43,109,110,-1232,4423,-3802
-10,108,-111,-1032,4550,-3242
11,110,-102,-1047,4185,-3148
104,-89,-82,-2627,4167,-1875
-95,54,-75,-1050,3910,-1302
43,122,-46,-2164,3456,-562
-61,19,-35,-364,3568,-714
115,-19,-78,1263,3856,-1817
-12,-63,25,1968,4154,-4012
-28,123,-47,694,1651,-3011
68,34,60,32,942,-887
-115,-121,-116,11,-82,1040
-10,59,1,-292,-2037,1800
-82,-36,108,1262,-2179,1254
98,67,98,2511,-1851,716
-44,103,32,2659,-2044,1130
105,-119,-22,1826,-3080,2022
93,-16,-56,-557,-6002,2266
-42,-101,38,1809,-5836,2649
-12,104,85,3529,-3751,2166
70,-72,79,3545,-2310,1909
108,-56,17,3253,-2716,3443
-109,-54,40,-469,-6144,6270
16,107,122,-277,-4100,4425
-111,-56,81,2113,-1397,2014
15,-45,34,2851,-937,1115
92,-22,-44,1402,-577,708
-34,-75,-54,509,-379,542
-92,-126,-40,669,-800,863
55,-116,-59,280,-710,513
53,115,-125,827,207,-37
-62,52,28,172,452,-766
-73,51,96,-750,-573,572
-127,-8,85,326,454,-465
-66,-69,3,557,1639,-1600
-23,-77,-60,38,1169,-1296
-31,-50,-70,-312,296,-782
79,-22,-113,-1084,854,-891
92,-83,108,-124,648,-962
63,-99,102,-311,442,-786
41,-61,125,-878,144,129
17,-67,-123,-220,-67,152
30,-34,-111,-229,276,219
79,-76,123,1217,256,171
117,-56,-89,606,-618,713
113,43,-36,-728,-533,1167
113,-13,-62,747,18,444
97,-46,-106,1512,596,-41
116,-16,121,849,464,-37
73,51,-9,-762,5104,-3571
76,-47,-81,299,5339,-4969
46,-23,73,-317,5674,-5328
98,67,84,-1708,5092,-4415
-35,108,100,-2649,4960,-3194
-112,82,57,-1604,4978,-2092
114,53,-119,265,2927,-1272
55,104,95,400,3848,-2226
-38,-59,-94,1567,4766,-4973
-79,-33,-54,357,747,-3490
94,-93,-111,303,-1620,1413
-94,70,98,-1382,-2739,2923
-75,-85,-98,-299,-3746,2858
-7,-93,7,1397,-3320,1569
-127,36,41,230,-3484,1308
-20,-5,67,1824,-4062,1327
0,-64,-29,3481,-4081,2390
58,-15,-52,1662,-5696,4169
-10,-55,41,410,-6068,4557
112,-90,-106,229,-4532,3869
110,-125,-59,895,-2718,2738
-31,-65,14,-449,-3163,1892
118,83,5,913,-1970,1365
0,47,32,1907,-1797,782
-87,99,-21,1453,-994,1213
-126,99,-62,807,38,582
61,5,63,2503,91,-385
-54,80,63,-335,-30,-209
-92,63,36,-2216,136,462
-58,-76,34,-16,-526,829
-64,-46,34,493,-54,129
-112,-79,-23,830,616,-461
-25,-103,-117,712,681,-314
1,-118,100,406,77,-137
-20,-108,112,-289,-392,230
-20,126,-122,-87,-311,359
-14,-111,-115,124,-116,314
-27,-63,-106,-166,-365,352
29,-52,-109,-278,-122,354
81,-94,127,796,-14,-148
66,-72,-118,116,-104,-168
52,-97,-118,91,124,-12
46,-117,-126,418,76,-25
52,-73,121,-81,23,154
70,-82,111,114,51,151
83,-74,101,82,51,61
96,-65,103,-60,-66,53
89,-90,102,149,-70,20
87,-75,107,100,88,183
105,-54,105,79,138,132
-97,-46,49,1414,4157,-3899
45,-43,-23,-927,3725,-4283
116,-57,-77,-1530,5154,-3816
32,-125,58,1,5033,-4478
38,-93,90,-1395,3914,-3942
-33,-74,-92,-3330,3099,-2732
-54,-43,-60,-3785,3904,-958
53,-68,-104,1632,4239,-1890
97,-18,55,2246,4081,-3016
100,-46,125,421,2783,-4926
122,36,75,-464,383,-1646
24,103,-33,747,-506,-114
55,-79,94,136,-2106,1971
35,-84,-86,1534,-2281,2752
-61,126,-59,850,-3023,2300
33,-52,-27,830,-4278,2226
96,16,40,344,-5949,1071
-116,-38,27,2393,-5007,1336
-93,-25,46,3342,-4615,1874
-28,101,105,1490,-4219,2366
28,22,-106,2579,-3647,2365
98,-30,-63,2325,-3958,3601
47,-115,120,1946,-3194,4653
58,34,36,83,-5461,5101
-81,93,52,3979,-3123,2173
-81,-88,30,3979,-1482,-406
61,32,13,720,353,-224
-125,-106,-63,752,672,-706
117,112,89,52,1014,-971
-97,41,16,-139,615,-1049
-86,-79,-38,-55,1103,-1654
-71,55,-99,1068,850,-929
-43,124,-126,-631,11,-404
-77,121,-103,-1175,-605,-508
-52,-127,-91,-987,-177,-193
-38,-122,-79,-421,-87,-115
46,-61,-86,-276,297,186
94,-44,-105,718,248,-156
-14,-36,-88,794,142,-696
9,-78,-113,482,731,-676
-33,-99,107,594,390,-256
-22,-69,-125,39,-257,193
58,-40,122,-197,290,245
103,-75,112,912,101,66
94,-85,112,1133,82,45
66,-48,-125,-84,-68,176
70,-56,-110,-342,-187,379
97,-60,-115,135,1,313
83,-45,-105,160,-193,316
79,-27,-95,-212,-26,308
-79,26,-63,-1964,3964,-3210
-71,0,78,1200,5096,-4892
-23,44,-58,-788,4928,-4774
96,48,-74,-1477,4105,-4658
89,26,-37,-841,3632,-4185
115,84,-8,-1696,3903,-3253
78,-30,-50,373,3311,-3396
-37,70,82,2150,332,-3535
36,-7,-72,-1328,138,-889
95,93,-48,-3834,1776,493
-120,-39,-98,-1706,2595,-913
100,-123,77,1948,2217,-2671
85,46,20,1362,227,-3069
-69,86,15,-954,648,351
-21,-89,-71,1169,588,1390
54,-99,-83,195,-299,2157
0,21,-115,1540,-1293,1629
-106,15,83,2943,-1524,1484
40,53,-24,1845,-2085,1978
-102,65,-79,537,-3473,3757
-36,-117,-115,-959,-6290,3892
71,52,-60,1407,-5851,3852
-126,58,-28,3310,-4831,4057
-102,103,-7,2166,-3874,3749
86,-74,83,1635,-4378,5180
65,-18,44,-418,-1675,4006
-65,-78,-69,566,-2026,1924
57,-85,18,1825,-2309,1369
-124,14,103,-548,-854,1048
54,-95,56,1101,815,-796
-57,-101,-118,1867,1022,-1939
-95,114,5,-396,1845,-578
118,-91,-94,414,528,-129
-113,-47,-104,604,-161,344
-55,-35,-128,107,213,-153
-55,-77,118,356,186,-535
-53,-93,127,273,-98,-421
-33,127,-112,410,-148,-128
-20,-90,-96,-96,-239,184
-8,-93,-79,17,-148,136
12,-73,-77,25,61,88
-9,-90,-88,365,23,54
6,-61,-113,-123,133,149
12,-70,119,161,82,133
27,-69,101,207,58,187
37,-33,92,-437,2,365
42,-44,99,87,-182,198
51,-25,102,183,-90,-25
53,-36,108,197,-113,-102
49,-32,110,-96,-12,-36
-61,59,-105,-2692,4910,-1583
44,-67,104,-201,6273,-1822
102,-18,13,221,6054,-2194
-125,68,9,4,4853,-1985
-27,69,12,-772,4305,-2419
-2,38,74,78,3635,-2446
-79,-31,-51,9,1816,-3132
-114,18,-56,-1587,1873,-1628
59,60,-77,311,2402,-2047
58,112,-62,2080,3236,-2298
21,-25,-42,-1077,1276,-174
-31,117,-67,378,-1286,1480
80,-20,-41,-790,-1340,990
-44,-34,-48,2388,-1143,1199
44,67,-76,1946,-1250,1317
124,95,-84,1503,-2390,1714
49,105,-74,716,-3639,2426
-98,59,-113,1350,-3705,2752
14,56,108,1737,-4459,3866
-128,-110,-41,1705,-6120,5125
24,-110,-25,1250,-5232,3511
65,61,119,-250,-3829,3640
-83,75,10,-1367,-5549,2264
42,1,92,4304,-3945,1686
-104,112,-84,4628,-2959,3244
72,-1,82,3608,-1323,3425
-125,-26,-81,650,-1956,2511
-42,-60,101,-626,1,-210
37,-104,-96,1403,2691,-3519
-15,2,-4,2188,2338,-4030
-62,-55,-49,856,1093,-3729
58,-119,-90,-981,793,-2719
94,-81,125,-4077,619,-1418
52,31,107,-657,-156,-1166
49,46,-89,113,-31,-860
49,84,-94,-171,364,-602
66,70,-90,788,-22,-355
40,77,-90,1144,-144,-310
34,85,-73,641,-258,90
39,103,-59,-22,-384,725
49,-97,-71,-1141,-535,1484
33,8,-113,-2626,-1270,2042
70,82,-101,-2672,-2253,1704
77,19,-16,250,-1559,1067
39,-32,-81,2854,195,269
14,92,-72,1258,-233,1004
17,-122,-76,-92,-845,1548
64,97,-61,174,-631,873
97,80,-80,965,206,108
85,79,-101,690,416,-876
71,-32,97,733,3177,-4204
-63,-6,126,-117,3628,-4319
-70,63,-118,-1331,3834,-3952
73,77,127,-1050,3414,-3791
-87,123,124,-1525,3651,-3348
19,-107,-128,-1737,4137,-3110
39,127,-123,-1551,3745,-3248
-72,127,-104,-1593,3411,-2650
-121,-15,26,134,4328,-3318
-103,-82,18,2690,3531,-3742
-98,-81,59,2478,813,-1967
-48,4,-96,804,-2201,1178
66,-34,-76,-2388,-2807,2753
-63,54,36,1219,-2145,3062
74,55,-30,1446,-1605,2614
-69,-88,-15,196,-2633,2717
78,-107,-29,1025,-3229,2808
-66,-120,-43,1490,-4165,3368
38,-127,-38,1928,-4959,4326
74,-123,-15,407,-6204,4297
127,112,-29,-300,-4966,4072
0,72,-26,478,-3546,3240
-88,123,107,109,-4037,3266
95,2,76,-1540,-4939,3508
-119,26,2,3349,-2597,660
-4,83,-23,4370,-936,-700
-102,-49,-95,2342,-29,208
-14,8,-43,-356,-488,658
-88,108,-81,1486,367,-593
-86,70,69,1713,1533,-2002
-18,-8,-62,784,1755,-3284
54,127,-111,1277,1333,-3320
89,45,-106,962,442,-2925
121,28,-90,101,105,-1876
69,18,-88,-479,144,-1156
23,-3,-75,-414,43,-410
21,-14,-96,286,53,121
19,25,-95,508,-273,978
65,70,-109,448,-572,1743
50,-43,-55,204,-1045,2297
63,-34,-100,-96,-93,724
107,-26,-116,-224,312,517
59,-24,-117,-472,-255,673
54,-8,-115,-1212,-449,723
75,-19,-113,-771,57,490
90,-39,-121,212,-123,145
94,-6,-115,-176,-186,-22
107,-5,-117,-420,76,-313
108,-38,125,145,112,-548
120,-47,117,226,161,-542
-73,-6,-27,1412,2361,-4722
9,6,-83,1047,956,-3300
37,-69,-110,-389,56,1101
115,84,92,-2038,-110,3326
-50,-90,-50,-2328,-2715,2307
-128,-57,-27,-204,-2564,2318
-25,22,-16,127,-3302,1633
75,40,-70,849,-3505,1777
-118,61,-78,1146,-3910,2427
-96,-23,4,445,-6041,4475
-38,92,85,-1014,-4999,2646
51,90,15,555,-4252,2067
-9,-12,46,853,-3386,1557
2,40,-72,2258,-2188,1027
-18,4,46,1647,-1750,1860
-111,-84,-121,2882,-1050,3568
119,114,89,5723,-2675,4771
-37,-55,73,1744,-2400,6071
-71,-12,122,-166,570,2902
-106,5,-122,579,-974,1164
-14,-78,-65,1324,-1022,-26
-20,-80,114,61,828,-601
-40,113,43,-667,985,-1341
-19,35,8,-170,564,-2191
44,-28,-30,190,665,-2469
116,-119,-69,202,730,-2857
-96,92,-58,146,447,-2576
-86,43,-28,-78,423,-2058
87,-36,-43,162,287,-917
74,11,-46,-451,-251,-84
23,49,-81,125,-308,39
-33,60,-120,598,-237,-139
74,90,119,-220,-339,797
31,-72,-82,-427,-1231,1685
-4,-35,-24,377,-1291,1632
88,2,-51,376,-97,1494
-118,60,-99,-614,97,1104
125,77,-83,-1210,-365,978
-91,60,-91,-704,-151,545
-127,75,-99,-289,-262,95
87,66,-90,132,-308,-317
85,43,-97,372,-75,-621
100,31,-109,127,-95,-720
91,24,-116,43,-262,-559
66,30,-112,-341,-277,-380
66,29,-94,-475,-211,-315
122,6,-112,223,196,-332
-127,1,121,603,107,-404
117,17,103,112,-9,-255
78,21,120,-367,-240,-105
121,-23,55,-1546,4557,-2920
11,-1,70,1422,5947,-5360
-128,17,80,1339,4321,-5016
-98,125,100,-996,3209,-4390
-111,79,125,310,3869,-3788
-55,50,-126,213,3576,-3870
95,-21,44,-967,4013,-4195
-96,61,34,-3264,2506,-3060
87,-72,-45,-1469,2534,-2344
87,34,53,882,3301,-2475
103,-124,-86,2578,2343,-3765
57,41,53,-766,-280,-1138
117,-14,-65,257,-1135,781
45,61,66,-1443,-2702,2641
-73,40,-36,90,-1694,1744
64,-95,-12,458,-1615,1043
-52,-91,-56,950,-2374,982
8,-115,-31,619,-3584,1252
-105,65,-49,1860,-3975,1841
11,-88,22,1367,-4520,2901
82,-19,94,3161,-4371,3631
117,-104,-15,560,-5509,3686
-76,67,-67,-458,-4576,3187
0,-2,-122,-336,-4628,2719
-40,-68,20,-1050,-3356,2306
-121,44,7,2759,-1985,2367
-127,-95,-25,3699,-1431,3320
81,-59,-61,-399,-1801,1887
-36,37,117,1446,-1092,254
-67,1,-5,730,136,-429
-79,-42,-95,-758,506,-835
-29,91,78,136,909,-1021
31,62,-7,-533,1106,-1257
18,-17,-51,441,918,-1513
101,-40,-84,-426,1400,-1612
69,-97,-99,321,805,-1087
11,-115,-123,289,-4,-552
34,-61,-122,-1035,-110,-99
44,-78,-111,-306,-288,-23
46,-82,-96,599,-201,10
43,-51,-74,186,-205,164
52,-13,-59,-141,-550,665
76,20,-56,-153,-557,541
78,19,-34,573,-539,538
63,12,-42,1192,-410,534
62,26,-49,805,-345,406
84,110,-56,-1269,210,328
73,61,-46,-205,-289,221
82,66,-35,207,-202,-15
89,72,-41,279,-28,-222
30,115,65,-1699,3992,-4039
-73,101,-124,533,5103,-5661
-97,105,60,-2208,3338,-4601
-119,-70,-80,-3227,3363,-3097
29,125,-48,-1487,5154,-3045
84,122,-54,-851,4860,-3012
-102,-89,-119,-1958,4407,-3019
-43,5,-121,-478,3685,-2684
-10,-118,121,1525,2164,-1582
3,-38,-66,2492,2626,-2937
-47,-84,63,-576,1092,-2128
-52,-58,38,-806,-696,160
1,-33,-95,-96,-1371,1317
99,122,6,691,-1467,1862
60,40,-7,1211,-1680,1163
-74,56,-62,1158,-2084,1436
70,91,-86,736,-3193,1974
-63,124,-20,439,-4184,2611
17,99,-12,1717,-5104,3263
90,-125,60,2711,-6315,4890
-87,86,-51,2399,-4699,3970
71,-68,-70,516,-3041,3809
122,-51,-15,301,-3495,3816
34,-111,-90,47,-4845,3234
37,110,-90,1299,-2001,3097
121,-101,92,1004,-2201,1744
-18,-99,63,1712,-244,659
38,-62,60,2360,-174,-944
-38,-34,-27,-948,1011,-1182
-75,-9,87,-14,1415,-945
-84,-84,15,1161,713,-1219
-54,-89,-40,372,719,-1055
-35,92,-128,313,939,-919
3,-117,-127,-647,332,49
28,-114,103,-525,150,3
39,-104,109,55,9,51
6,-72,-121,-82,-231,318
16,-43,-98,26,-137,12
34,-45,-83,113,14,-269
48,-53,-30,394,-246,-498
72,-106,-64,719,477,-727
81,-78,-76,-273,45,108
63,-74,-82,723,-304,315
72,-71,-89,740,-97,-6
89,-38,-84,85,16,385
117,-44,-104,417,-196,262
-118,-9,-95,-82,-145,213
-127,-23,-95,-70,115,10
106,-24,-89,-180,-71,241
-127,-37,-104,349,302,-13
-39,-47,-13,-1120,3651,-3466
-41,-71,-85,-854,5934,-3523
-24,-73,118,-990,5896,-3836
71,-96,-91,67,5119,-3926
104,-10,-19,-1214,4456,-3877
105,16,-58,-1306,4171,-3999
3,123,-75,-2538,1460,-2783
-127,-41,-39,-755,2205,-1605
-62,125,-24,610,2873,-1443
58,90,56,1049,3467,-1794
101,-33,83,1172,2384,-2308
-61,-86,44,405,-801,-288
-60,59,75,-410,-2062,602
63,97,-23,-518,-2690,2262
90,-47,14,458,-2780,1832
-1,6,-38,1948,-3097,1466
-100,39,-126,2699,-2773,1319
54,75,54,3748,-2733,2832
115,-31,-123,1847,-3923,4940
-3,8,-75,1941,-5922,5310
105,107,-4,-1685,-5310,4171
123,-2,69,-650,-4514,2516
-125,125,-77,1535,-3083,1837
-40,-92,66,973,-3247,2035
28,80,58,2661,-1776,1597
-79,96,-16,3538,-493,1103
33,-101,-88,2642,-603,671
-60,-46,127,173,-220,320
-85,-68,80,-1329,232,-166
-86,84,32,-232,448,-1057
-55,-22,-36,896,810,-1917
-13,-36,-72,87,896,-2134
36,-100,-114,-976,1019,-2092
41,-125,109,-1827,1222,-1397
6,50,74,-122,479,-779
-1,96,69,-185,-24,-324
41,-118,67,-269,-135,-41
18,-112,88,254,-380,93
16,-97,119,656,-449,472
30,-66,-117,392,-373,865
31,-55,-113,686,-394,1041
40,-33,125,605,-277,1002
40,-18,-125,399,-496,1088
85,-48,-105,1176,-152,952
76,-51,123,1429,108,436
65,-24,-120,424,-55,376
81,-43,118,65,229,8
88,-78,102,449,183,-482
93,-100,91,433,122,-661
112,127,89,418,134,-750
-92,-16,105,1628,5951,-3575
-66,48,-72,1318,5887,-4532
-43,104,-28,-1369,5369,-4221
34,76,-59,-1059,4868,-3472
88,41,-35,-284,4180,-3592
-50,124,30,-1739,3987,-2530
48,118,41,-1426,4096,-2052
89,69,123,-943,3146,-2428
108,22,79,-876,2743,-2401
-40,115,-52,-210,2486,-1942
-102,108,-96,1361,2241,-1835
-96,-9,94,1242,-865,-510
-60,107,56,-1077,-2531,1720
53,19,28,-1239,-2564,2515
6,101,43,366,-2581,1158
-86,-48,79,742,-3096,597
19,-58,93,1236,-3182,642
-108,-117,56,2799,-3144,936
116,-79,29,2924,-4006,1785
-99,-48,29,1753,-4417,2260
68,-57,41,827,-3657,2760
48,-100,62,1417,-4018,2441
99,-106,-118,553,-4573,2753
114,92,-46,903,-2987,2783
110,50,-76,1491,-1873,2130
79,56,-108,2504,-1751,1786
-43,-77,-1,863,-1962,2184
85,-40,-63,-587,182,1036
-19,-52,-125,-2299,445,235
-26,-118,124,-1720,-374,356
-79,51,104,1126,-358,201
-111,81,33,1196,523,-722
-31,54,-84,411,1317,-1205
-25,20,-74,-527,257,-723
-95,-16,-78,-245,107,-515
-57,-55,125,292,631,-856
26,-77,71,544,177,-1052
-11,-18,-112,-254,-466,37
-58,-38,-108,164,-269,2
-32,-8,-106,-96,127,-221
76,-43,81,165,273,-427
28,-42,-118,-333,-565,92
-22,-81,-119,94,44,194
-1,-64,126,699,265,433
73,-10,81,418,105,434
88,38,116,-342,-673,691
38,70,-105,-286,-164,658
18,2,-126,1100,419,-270
58,-15,64,1237,669,-456
100,8,30,-110,-69,123
64,-19,-121,56,5255,-4344
-122,-75,23,-47,4910,-4397
53,-84,51,-333,3864,-3740
-103,-40,22,-1401,4525,-3239
-75,-30,73,-1528,4308,-2747
-91,93,-58,-2666,3072,-1573
26,32,-88,-1185,5135,-1808
-20,0,7,3907,4593,-3554
-19,-78,56,205,1323,-1398
-123,33,-25,-1032,629,-1133
-8,90,11,725,-397,-185
48,114,-97,-196,-2239,1871
-27,-16,-17,-456,-2671,1998
28,57,-58,722,-3028,1446
-125,-126,-61,272,-3630,1150
38,-104,-65,947,-3547,1047
-109,-19,34,1427,-5275,2320
0,-9,91,2504,-6064,3100
28,-92,43,-155,-4300,2889
6,-59,7,1937,-4161,2467
-51,10,113,-759,-4712,2841
-59,53,93,1125,-2393,2090
104,44,52,2344,-1576,2199
-28,-19,87,-262,-1569,1752
78,104,51,3198,-882,-97
5,34,-34,-2162,51,-116
-57,46,-121,1094,272,-662
-74,9,57,674,504,-692
-32,-19,3,464,1046,-662
-10,-79,-64,823,655,-837
12,-40,-75,-346,583,-640
12,-118,-98,455,560,-673
37,-118,-126,205,569,-484
42,-108,-118,12,15,-155
62,-105,-116,98,-39,-86
67,-101,-109,218,3,49
67,-76,-101,19,-216,209
70,-114,-105,1635,-405,80
65,116,-101,2299,-711,-4
96,-36,-96,-405,73,335
82,-92,-105,105,18,211
86,-91,-102,218,-141,223
104,-79,-112,86,14,157
102,-71,-115,-13,-148,120
108,-76,-119,176,-208,58
103,-93,-119,741,-341,-91
116,-74,127,138,136,-4
123,-76,123,-346,132,-36
125,-97,119,44,-30,-38
-119,-91,116,14,31,-53
71,20,122,1611,-4861,1776
85,41,-57,2704,-3659,2318
108,-67,3,417,-2293,1901
69,-93,15,2024,-3152,2242
66,-60,-6,801,-3160,2817
-127,-117,38,2535,-2183,2700
0,108,-49,-909,-2760,2899
-54,-59,-46,740,-1027,1363
47,-58,-50,625,-455,791
-85,108,64,1034,-171,449
-92,106,-65,-881,57,212
-63,-27,61,129,309,311
-39,-36,-9,514,443,-72
-31,-78,-48,923,297,-435
-43,-103,-79,759,181,-226
-25,-110,-81,389,55,-176
-6,-119,-69,356,-164,58
4,-120,-50,464,-165,47
15,-123,-40,474,-197,-13
14,-122,-23,70,-248,40
31,-120,-28,-93,-132,192
70,-92,-33,-130,-177,289
30,-71,-56,211,17,93
31,-69,-76,281,76,48
61,-53,-92,-51,-89,71
79,-57,-93,24,-135,-26
122,-59,-83,20,-66,-32
63,-72,-78,247,-21,-169
67,-55,-76,-31,350,-172
122,-47,-75,-118,-29,-158
-126,-78,-97,112,-60,-268
125,-75,-93,-183,-82,251
-126,-51,-106,161,-92,-37
-125,-45,-111,20,268,-152
-124,-32,-94,-84,165,-287
-97,-32,-91,159,449,-379
-96,-52,-92,266,15,-3
-100,-22,-91,-217,-483,525
-88,-27,-99,80,-481,438
-105,-16,-100,73,-363,290
-99,-11,-99,106,-30,73
-91,-12,-99,170,20,-104
-85,-28,-106,145,17,-41
-74,-28,-104,-66,-121,177
-75,-23,-102,100,-44,104
-79,-16,-104,52,28,22
-75,-18,-105,54,-6,72
-59,-12,-109,41,-22,-14
-62,0,-100,-94,-4,-105
-78,-16,-102,229,153,-116
11,-20,-79,-424,3864,-3988
8,-84,61,119,4172,-4285
-124,-48,30,-73,3296,-4212
-80,46,96,-1282,2956,-2932
-4,77,-74,-1561,2551,-1868
-64,93,-82,-2164,3377,-1938
96,48,-97,-1571,3874,-2268
-49,-74,-119,523,3397,-3050
-45,-110,68,882,2484,-2764
29,63,-76,427,1748,-1522
30,40,72,864,357,-915
26,-65,-100,-2113,-1236,1530
-128,-46,75,-688,-2089,1404
-14,-73,-42,2295,-1430,1335
122,-11,1,2757,747,885
93,74,-101,840,-1487,1966
-20,84,-73,-489,-3079,2691
-118,113,-79,-438,-3836,2392
-42,-102,15,930,-5075,2873
-83,-91,-118,2896,-4979,2475
-8,-33,-104,1083,-2241,1454
31,-44,122,243,-3579,3095
0,106,-69,955,-4222,3209
60,113,-10,804,-2601,3367
92,40,103,2156,-685,3391
90,-89,-59,442,199,3008
-77,-17,-102,-5,-1036,1778
27,123,-123,1622,-1106,-361
-3,40,58,1549,53,-716
-55,-15,5,411,154,-432
-71,-93,12,1620,-502,338
-54,-23,4,36,-210,484
-34,-39,-23,-249,125,-67
-20,-61,-41,-162,240,-552
15,-73,-72,-844,433,-482
5,-101,-90,-506,392,-550
10,106,-104,448,291,-589
31,-111,-114,-155,170,-346
42,-108,-122,-101,-4,-168
48,-117,-125,95,4,-134
53,-99,-111,-53,-61,135
62,-81,-107,-83,-140,304
76,-46,-103,-241,-145,220
86,-32,-98,-76,-163,162
90,-23,-97,-132,-34,212
93,-16,-102,94,-66,172
104,2,-104,-36,8,-31
114,-13,-115,153,86,-118
118,-16,-122,116,-20,-99
-126,-23,-122,183,-8,-147
-36,78,-25,256,3733,-4455
31,95,-36,-298,3806,-5131
39,73,-119,-421,4199,-4933
57,97,-82,-1617,3293,-3805
114,106,-56,-1893,3375,-2768
-85,111,-88,-2029,3278,-2348
97,108,-76,-2383,3308,-2323
103,-97,-111,-47,3441,-2117
-110,53,51,1889,2908,-1670
-29,34,113,1310,2363,-1295
120,-19,-64,-186,1870,-678
62,74,-88,898,-139,249
32,-128,47,-741,-1984,1128
-57,-70,-31,215,-2402,1634
81,18,-20,702,-2041,1552
-59,101,-21,-64,-2415,1262
47,106,-1,838,-3243,1224
123,-105,20,1353,-3600,1727
-92,-64,15,1678,-3612,1680
-57,35,116,1087,-5119,3182
-30,49,-89,270,-5086,2782
19,-57,-41,957,-3974,2629
86,96,118,1417,-4370,2800
-80,5,-109,-1964,-5702,4984
19,75,-10,164,-4019,2757
-80,-2,125,4796,-2548,1345
-28,-47,106,2865,-1696,1002
8,-23,2,1231,-573,33
-39,-53,-46,-31,152,-49
-110,-93,-106,-292,72,-318
-68,-128,120,-147,619,-886
-35,7,34,565,1359,-1832
-12,-89,-40,821,1425,-2191
3,-104,-84,53,873,-1796
35,52,114,656,492,-1356
-24,83,-121,17,-63,-677
-33,125,-101,-425,-153,118
-4,-80,-102,-483,-269,214
-5,-59,-79,-126,-297,168
23,-41,-102,20,135,73
57,-39,-94,506,24,209
45,-40,-113,897,-16,32
18,-24,-84,436,-323,159
34,-42,-100,437,80,275
69,-46,-110,507,-1,406
41,-37,-115,295,-292,411
58,-37,-115,112,-106,465
127,-58,113,394,-151,491
-115,-30,-106,235,-131,800
49,-19,-114,464,-145,216
2,116,-36,3198,4358,-5219
122,-16,120,-101,4250,-4923
82,14,107,-1072,4160,-4250
-122,26,-114,-393,4043,-3367
-119,114,112,-1039,4231,-2849
-32,125,71,-1224,3683,-2733
96,-109,-98,-1721,3184,-2183
-16,0,125,259,3836,-2395
100,-75,55,1401,3118,-2831
-62,95,-90,1698,2651,-2907
-114,-113,53,-127,515,-1700
32,-15,7,-294,-256,82
28,22,86,-1111,-1058,1755
113,-62,-97,-827,-1953,2197
-33,76,-13,-471,-2441,1738
-110,-123,0,549,-2622,1438
7,-93,-3,141,-2832,1132
-128,127,-22,1305,-3159,1288
-110,122,-26,1885,-3838,2098
-91,121,11,1666,-4720,2875
40,-83,63,1381,-5134,3759
-94,25,-126,258,-4494,3323
-51,-35,-51,612,-3970,3292
-78,-100,-19,362,-3448,2891
-36,53,10,3230,-1817,2625
-86,-77,38,2517,-2289,3514
5,-59,-71,-2980,-1867,3477
51,89,-35,-51,-428,201
-3,89,112,4110,536,-1745
-1,-122,-104,980,1103,-1809
-23,32,-16,-636,682,-1881
-18,-69,-55,402,338,-1581
-14,-107,-92,248,418,-1509
-6,99,122,389,238,-1016
-32,104,-121,206,-416,-126
-13,-87,-88,-862,-585,571
-15,-78,-84,-453,-224,253
29,-124,-124,919,-3,-340
65,-118,-84,675,-278,307
25,-71,-49,-377,-252,707
34,-95,-69,380,164,590
56,-97,-82,898,169,639
112,-82,-92,615,112,833
-111,-70,-88,637,94,971
67,-78,-89,1177,-12,434
55,-62,-99,358,272,114
88,-56,-116,-563,259,230
86,-77,115,-107,20,166
96,-59,97,-307,-163,42
116,-19,92,-1101,-231,45
53,-44,12,2392,3171,-4671
-22,52,58,-926,4303,-4585
-38,9,118,-395,4557,-5022
-71,80,-38,-887,1930,-4229
-26,-94,64,-2123,1556,-2953
82,-76,-68,-2158,2336,-2052
-19,-54,-6,-2782,2909,-1357
-38,-124,-46,-1632,3141,-1360
-110,105,-79,-1088,3028,-1896
51,30,124,124,2750,-2920
118,-83,-104,1157,1737,-3684
-99,93,109,262,950,-2230
74,-53,54,-481,784,-1150
-15,-53,-38,1163,379,-238
62,36,-80,130,71,977
91,84,-73,610,-1213,1664
-53,-38,-22,178,-1862,2147
72,-9,-47,869,-2043,2109
-41,55,-73,622,-2691,2067
-26,69,-43,458,-3976,2367
81,64,-44,1552,-4292,3024
-53,126,28,1734,-4388,3034
-19,-79,59,1910,-2895,1843
19,6,101,731,-3030,2017
26,-26,-116,255,-3390,2003
36,-79,-21,111,-4704,2742
43,126,-3,435,-3893,2949
66,38,92,1746,-3726,2509
-53,45,55,2168,-2899,1973
-104,-2,-20,-1517,-2754,2595
126,-91,74,-427,426,1027
2,86,-96,1661,2253,-1459
107,41,7,2140,1381,-2795
-124,-36,-17,2796,70,-1994
-105,-67,-34,1722,-30,-977
-97,-119,-35,329,239,-620
-72,69,-33,869,202,-446
-34,66,-45,669,9,-365
-14,85,-41,-59,-85,-324
-32,67,-65,48,11,-199
-52,70,-83,-32,-145,178
-47,90,-90,-159,-17,447
16,93,-114,164,109,682
51,125,-124,413,-90,903
-10,-110,-121,433,-101,547
11,-85,-115,-7,-36,497
49,-87,-120,134,122,467
54,-98,125,793,162,55
68,-116,115,1059,200,-436
83,123,107,963,133,-430
-60,53,46,-191,5481,-3602
7,105,79,1742,3522,-5765
120,23,53,-675,3794,-4510
-20,45,118,-1297,3457,-3405
-13,87,-42,-1967,3333,-2743
-125,17,83,-306,5454,-2481
-116,48,80,321,3737,-2716
30,-94,-111,-1218,3288,-1950
-124,60,91,-42,3762,-2311
-4,103,19,4135,3144,-3520
30,-32,-62,999,2087,-3507
-85,52,8,-997,10,-3336
63,100,29,-713,-365,-2454
56,9,-106,-154,-1168,134
117,21,-86,-346,-1001,2634
42,60,-99,55,-1429,3525
-57,18,-119,360,-2027,2937
-126,-121,98,548,-2541,2568
-2,-119,57,228,-3347,2397
83,-94,58,-682,-4402,2127
-80,-72,-39,-744,-6354,2416
-51,99,-34,1219,-5495,2404
120,25,96,2572,-3933,1803
-24,-102,15,809,-4437,2870
-33,114,-56,157,-3780,2769
30,118,120,-566,-3854,1935
-31,82,14,1259,-3645,1265
115,76,15,2547,-2664,1196
-13,19,126,204,-1327,1536
-69,-39,65,958,13,378
18,-121,-103,2458,984,-1155
-102,117,27,2038,779,-1938
-108,66,-29,1282,662,-1705
-128,-11,-71,1080,576,-1506
-111,-82,-97,753,340,-1151
-89,-125,-124,941,386,-720
-71,-119,-108,415,-110,-213
-30,-115,-116,147,-116,-176
-20,-123,-98,197,-191,-459
-10,100,-88,505,-162,-671
30,94,-80,220,26,-432
19,83,-101,55,210,-245
6,64,124,272,81,38
5,88,120,-110,-77,719
15,-120,100,-530,102,977
33,-113,78,-43,123,871
58,-89,55,85,110,647
72,-78,49,263,-52,330
62,-104,47,888,-101,114
52,-101,72,721,-184,149
10,-38,-125,1140,5328,-3294
-98,124,120,136,4877,-4479
-10,-109,121,-736,4865,-4015
-75,-92,96,-1335,4407,-3512
19,95,-10,-1127,4220,-2546
65,-2,-112,-1451,3649,-2472
114,-38,82,-2274,3589,-2592
-92,86,-108,-598,2761,-3465
33,91,81,-1193,3070,-1324
-86,-38,-36,-73,2865,-1686
98,-106,106,633,2411,-2712
-98,-31,17,954,864,-2729
-71,-116,-93,492,-160,-807
-3,96,52,-634,-1390,2155
-124,-25,102,835,-1769,2362
-11,-83,-120,973,-2076,2515
-88,-14,98,2325,-2129,2728
122,-108,46,1821,-2781,3216
1,-74,3,1869,-3925,3571
104,39,-127,1029,-6010,4010
96,67,-40,-143,-5914,2730
92,28,104,255,-5135,2106
-115,-99,-79,1569,-4516,2457
-69,-58,-56,805,-5036,3624
23,-45,-4,567,-4073,3690
16,-97,43,2098,-3198,2378
-113,-70,-103,2440,-2772,1621
-95,-7,27,2796,-346,310
-32,-21,-29,1861,8,-1322
-99,-50,-83,915,411,-1048
106,-102,83,-659,915,-978
107,55,38,170,755,-1075
-127,-3,-34,774,730,-1298
-84,-2,-72,23,782,-1407
-45,-45,-109,-13,606,-1462
-18,-104,126,170,226,-1520
-15,-114,126,-196,-4,-1219
-38,104,-115,36,-79,-789
-56,100,-113,141,-191,-338
-48,118,-104,-170,-262,269
-25,-101,-115,-398,-379,742
-6,-69,-101,-491,-488,1094
11,-38,-104,-299,-322,1104
7,0,-108,-320,-337,807
14,17,-119,-396,-176,669
19,53,126,-753,-359,723
-6,70,-121,-748,-342,638
1,73,-111,-176,-41,344
19,90,-120,-71,15,96
41,97,120,-184,105,-191
-42,-112,58,-1112,3868,-3962
40,-76,84,-1762,4237,-3708
25,-79,56,-873,4790,-3091
-89,-94,-112,-70,4788,-3860
-120,-62,-112,-1721,3485,-3582
-14,-117,-114,-2385,3398,-2862
33,79,-35,-2526,2940,-1882
3,-101,125,1238,4491,-2536
-102,-102,-24,603,2786,-2759
-125,-53,8,35,859,-1969
14,-37,-97,678,190,-554
5,-41,54,-571,-1272,2164
107,-120,-57,-251,-2581,2093
-22,29,12,226,-2604,1924
-80,-107,-5,342,-2843,1636
17,-77,-15,-159,-3670,924
109,-95,-4,545,-4401,788
-98,-119,28,2236,-5405,1536
-86,-84,-78,1803,-5892,2605
17,123,-128,2661,-3575,1720
60,-74,-117,2283,-3961,2301
70,-98,-116,1745,-4022,3039
-115,121,127,1483,-3091,3011
-83,116,-50,2129,-2781,2483
77,24,-53,4287,-1984,1666
-19,115,-63,4246,-721,1735
67,0,-52,758,-539,682
-30,-81,-43,-119,-310,-192
-81,0,108,1277,207,-228
-101,43,75,175,-66,293
-115,43,44,-993,12,-132
-71,-62,-8,-28,674,-1155
-17,127,-73,562,648,-1457
-25,121,-93,-479,469,-1626
1,117,-98,-1417,517,-1035
15,75,109,-484,140,-309
19,47,-126,639,-243,-215
3,114,-108,-126,-283,-188
23,101,-95,-32,-202,53
29,117,-99,97,-224,157
32,-72,-75,-405,-289,497
31,-50,-76,-408,-320,528
36,-51,-67,115,-257,513
55,-11,-56,-133,-137,438
61,3,-70,-176,37,361
57,18,-85,-216,63,252
76,27,-99,-255,51,197
89,0,-120,289,154,-90
105,3,-125,103,115,-226
105,-26,123,383,149,-456
14,-52,103,1642,3387,-4801
17,103,74,-2061,3233,-4316
-128,70,36,-1630,4108,-4107
49,45,14,-1005,4541,-4828
33,45,-22,-988,4313,-4300
103,109,-80,-1496,3921,-3774
42,111,61,-2111,1599,-3468
86,5,-108,-1221,1547,-2365
-78,-44,-18,-454,1953,-1651
94,-119,-88,204,2396,-2368
26,9,29,737,2621,-2872
-119,80,-105,723,1040,-1370
-58,-111,104,-1137,-660,1173
-27,-36,-103,417,-1779,2361
-91,6,81,-675,-2391,2527
69,11,84,436,-2155,1819
-49,55,38,584,-2153,1740
83,76,-6,1429,-3452,2014
-21,87,-62,1806,-3529,2455
67,54,-101,2027,-4250,3190
98,77,-90,1947,-5126,4483
-103,-85,8,-335,-5866,4523
-109,97,17,1215,-3438,3926
22,90,-39,1512,-2392,2605
94,-103,-70,3753,-2281,3419
5,-8,-46,2086,-2238,3251
107,92,-6,945,-1856,2525
-21,-100,-44,-150,-1407,921
-70,16,-92,-659,1163,-1234
-20,-82,-3,-1640,2093,-1933
5,-76,-67,366,1223,-2393
-48,-26,-88,3304,545,-1884
-37,96,-113,227,527,-427
-6,27,118,339,28,-776
6,0,-125,752,-169,-492
6,43,-92,-152,-401,-5
23,71,-84,-408,-373,529
-20,123,-77,-330,-438,411
-4,-92,-84,-396,-160,626
25,-28,-85,-764,-419,814
48,-6,-77,-63,-456,612
40,-10,-76,444,-229,-77
44,-8,-73,209,26,-360
57,-64,-105,626,172,-1019
79,-66,-128,915,276,-573
74,-68,126,81,259,-249
76,-80,124,-322,47,-75
88,121,103,932,243,-552
-127,101,93,1065,31,-218
103,-93,114,-294,-138,533
-120,54,-43,-814,3057,-4205
82,-84,49,-1352,3943,-4525
-21,113,66,-1344,3182,-3897
114,-128,76,-1865,3650,-3271
-114,94,92,-1914,3533,-2796
-11,77,-122,-1748,3440,-2277
45,-55,108,-1295,3662,-2410
83,-8,-31,-2677,2613,-691
63,-119,-16,868,2575,-438
32,-54,47,1973,3560,-2596
121,99,103,2078,3055,-4004
77,-12,73,-1157,-510,-1931
-120,-8,-70,685,-1338,1348
53,35,104,-1210,-2140,3213
67,7,-53,211,-2762,2263
-45,94,-59,888,-3109,1974
112,-62,-45,87,-3873,1600
-54,-84,-38,255,-4577,1323
-27,-82,-22,803,-5451,1733
67,-120,-4,1607,-6303,2379
-96,-79,41,259,-6271,2389
-5,-117,112,13,-4807,2459
71,62,-104,743,-4161,1813
97,83,-12,1693,-4529,2269
0,-43,48,260,-3714,2113
-125,41,-108,3380,-2275,471
-16,-117,95,3644,-989,-12
-23,68,-128,-1157,-847,-337
-50,89,49,-491,770,-274
-104,-17,125,1019,1657,-486
-125,36,-22,182,1407,-452
-113,-19,-63,869,433,-560
-116,-49,-92,492,167,-761
-127,-71,-62,-7,-99,-405
-56,-29,-74,-608,466,66
21,-105,-124,663,435,-767
-20,115,-121,1043,-139,-717
-1,-58,-102,-694,180,163
-15,118,-114,866,-122,-290
13,-108,-125,532,-9,-60
24,-62,-106,-486,-244,234
36,-77,-102,160,-94,11
43,-101,-111,660,135,-77
42,-75,-117,198,-35,189
68,-77,-126,327,7,222
77,-74,-128,369,-95,177
76,-78,-119,364,-93,272
79,-64,-118,158,-30,299
91,-65,-120,289,-62,292
91,-75,-126,665,-10,84
-77,98,21,-1369,3884,-3955
-87,57,71,318,3501,-4029
65,115,35,-792,3699,-3999
68,65,51,-682,2911,-3543
-89,-127,119,-1982,2207,-2611
32,108,-56,-2062,2208,-2139
-101,12,-81,-1431,3061,-2056
12,10,-37,-1446,2087,-1592
20,-111,-46,921,2894,-2167
110,-122,48,966,2781,-2753
-57,23,-92,-241,1068,-2414
24,-63,-2,1552,-282,-543
30,38,67,-589,-933,1509
-71,-35,-93,-348,-2166,1736
93,35,-67,878,-2259,896
-47,91,-33,1029,-2935,1038
57,73,-22,1631,-2974,942
95,75,-23,2821,-2861,2237
110,-58,14,889,-3898,2948
-87,-56,115,2830,-4999,3474
-7,3,57,2494,-3622,3437
24,-99,-16,171,-5607,4600
-90,12,30,1234,-4354,3354
-122,-90,41,2415,-1736,3006
35,-14,20,415,-2759,3242
3,112,53,1914,-2163,2976
-49,-48,-82,1790,-418,1773
-78,2,-109,-109,-940,-609
-71,77,-112,746,-157,-919
-112,5,125,202,301,-255
96,70,124,-705,-564,742
-60,79,63,-1345,531,-156
-75,-73,-16,425,523,-1177
-80,-103,-56,40,327,-668
-44,-91,-126,-1033,335,172
-61,101,94,-44,-177,282
-67,-123,94,192,179,234
-53,125,85,986,157,245
-5,-34,122,64,-380,816
14,-20,-118,-70,-765,739
8,37,-47,-780,-733,533
-36,58,-1,-818,-464,461
23,18,-19,93,257,-316
33,34,-44,-233,563,-573
30,13,-96,-137,693,-580
29,-31,85,211,633,-783
57,-37,60,246,340,-578
67,-53,54,327,39,-483
73,-81,57,632,38,-320
46,-51,58,283,-53,85
69,119,109,-1441,4398,-3850
-64,-61,-70,-1691,3509,-3488
7,-80,23,-1589,3169,-2632
-98,99,-20,-1390,3468,-2206
-28,52,-16,-1641,2789,-1975
30,-65,-33,-1136,2322,-1845
-64,21,-38,-2198,1466,-1189
-93,-26,37,-1119,1263,-790
-97,107,-90,687,2882,-2282
-17,0,3,412,3083,-3876
-29,109,-83,-545,167,-1586
-38,82,120,226,-1148,1375
117,13,-25,32,-1682,1904
-23,-125,-11,1524,-1617,1863
63,17,-37,1719,-1919,1893
-54,107,-91,2198,-2137,1726
110,-100,92,1994,-2820,1727
-46,-101,-116,2086,-4638,2401
82,-108,-68,2817,-4977,2932
-96,-10,-111,1350,-4835,3118
95,-46,-44,963,-4268,2387
97,-110,-16,1801,-4017,2630
73,-118,36,1136,-3826,2817
96,72,-106,1472,-2769,2431
57,117,6,187,-3458,2796
31,54,11,1925,-2885,2076
-45,117,-124,2205,-1976,1778
47,-63,64,2087,-716,309
-87,-108,61,1609,-488,-908
-120,122,18,215,611,-924
95,48,-99,-769,610,-714
124,-35,99,330,616,-579
-97,-53,17,255,933,-778
-70,-51,-37,-163,872,-861
-28,-96,-84,105,637,-1186
-4,117,-115,-16,525,-1312
-30,79,-114,226,238,-1022
-26,61,-114,283,36,-584
-6,90,-102,-144,-163,-187
2,58,-86,595,-186,-60
17,94,-65,237,-233,270
7,122,-45,-25,-358,640
11,-118,-58,58,-169,781
33,-111,-83,592,-102,781
44,-103,-97,1024,-99,765
48,-87,-108,823,-42,652
56,-63,-120,233,-16,606
51,-71,-119,296,-192,415
58,-85,-115,590,-24,165
70,-45,-117,-491,-112,92
-24,62,-67,-1097,3963,-4389
-54,43,-73,-1046,3604,-4047
43,113,-4,-1201,3287,-3606
-121,-98,20,-1653,3515,-2986
-3,-111,30,-1336,3256,-2449
90,74,0,-1064,3651,-1918
-41,19,-18,-368,2603,-1849
24,-29,-38,228,2040,-1946
-25,-31,-78,25,2198,-2357
-94,-100,81,417,2097,-2540
-48,16,-56,202,1026,-2099
94,56,-107,347,-689,-665
44,-73,-119,-85,-883,485
-128,-26,-63,314,-1674,2338
48,-93,-26,594,-2092,2404
-54,-13,-48,1427,-2329,2422
120,68,-92,1397,-2659,2935
-32,-5,-1,-567,-4081,3366
15,1,-90,925,-5372,2435
41,-95,108,3467,-3845,2613
-3,11,-100,18,-3867,3205
-37,127,-55,821,-4261,3597
64,69,-73,2611,-3320,3712
-99,-67,-29,74,-3338,3912
100,99,-100,764,-1885,2654
25,94,-69,1641,-2434,2168
-56,122,-11,1425,-1703,1278
85,69,22,2832,-1081,384
-40,-81,17,558,-490,114
-78,-127,-55,-861,478,-372
-97,27,110,-112,994,-461
-83,-55,16,475,870,-743
-30,-61,-50,-213,1076,-844
-2,108,124,187,831,-925
-18,71,97,891,152,-964
-1,100,116,218,-226,-654
-43,104,107,-101,-156,-739
23,95,114,193,-193,-303
21,109,113,23,-539,-162
-41,119,-106,-91,-712,73
-14,-109,-108,-469,-553,430
19,-72,-93,-409,-705,471
12,-51,-84,-156,-598,482
-10,-7,-77,-566,-401,374
-48,2,-93,-353,-172,188
13,31,-128,-794,145,2
-123,31,73,-644,171,54
113,23,68,226,-448,6
16,41,97,173,-508,-167
-4,68,113,-676,-76,-42
-82,-27,120,1486,2442,-4343
78,-19,73,-1541,1957,-4769
66,48,68,-450,-55,-3400
-37,48,-84,802,266,-500
21,-28,-13,-1628,-759,1660
84,48,42,23,-1206,1668
-106,-98,48,411,-881,1447
-15,-56,13,1282,-1296,1492
60,-12,-18,755,-1526,1517
72,-42,-67,968,-1875,1683
80,90,-96,-638,-2802,2604
-77,-112,-63,-1432,-5108,2602
24,123,23,-296,-6700,1755
-74,84,65,1525,-5525,999
-50,77,121,2515,-3865,847
-75,82,-128,1923,-3326,950
-62,25,59,2631,-3346,1379
-22,85,-126,1226,-4659,2213
86,64,-90,334,-4428,2286
94,-32,-35,2151,-3105,1410
44,-5,14,3473,-2930,1193
-12,104,63,2665,-1441,1802
107,78,21,3882,-676,1121
-80,-47,-25,2810,-643,607
-114,10,-29,-112,156,87
113,-64,-86,-437,706,-694
109,60,75,185,756,-1915
-91,2,16,-134,618,-2436
-22,-80,-37,-840,415,-2458
-7,79,-40,-324,409,-2047
-10,45,-38,-267,215,-1399
-13,28,-57,-266,132,-1003
-4,43,-62,-202,41,-832
-17,38,-75,157,216,-852
-19,19,-104,491,183,-586
-19,31,-103,312,-27,113
-27,40,-117,271,-231,850
-34,89,-117,-215,-503,1686
-13,-101,-79,-292,-891,2316
42,-79,-103,520,-55,2294
64,-16,-113,323,-139,1927
75,48,-119,109,-203,1351
48,60,127,-202,-78,294
29,23,123,-42,34,-528
32,-21,117,559,141,-723
45,-30,108,346,21,-739
56,-37,98,-151,34,-837
65,-66,90,-46,-11,-1053
88,-88,91,131,-67,-1067
106,-103,103,136,-129,-1007
87,59,6,-1950,2875,-3991
-45,34,-35,-890,2736,-3942
-36,91,54,-988,2247,-3612
83,-121,87,-2124,2412,-3046
-60,111,-82,-1640,2364,-2587
109,4,-94,273,2610,-3144
8,-24,117,499,2730,-3412
-121,57,-63,2694,1779,-3971
-61,100,-86,2203,-497,-3568
63,-25,-49,-442,1,-556
-5,-43,-46,-189,-859,1023
80,-111,-6,597,-1056,3007
-34,-101,-12,404,-819,2979
70,-38,-63,907,-1521,3252
-49,59,-38,-265,-2292,3611
70,92,-18,266,-3010,4126
-52,45,-44,1819,-3206,3458
40,95,-79,1896,-2847,3402
82,44,86,1625,-2942,3023
-113,96,-33,-486,-4289,4973
-24,-122,62,-1857,-4276,5306
-104,39,72,1321,-3767,4380
-66,44,86,2895,-3604,3872
34,-42,-84,2663,-2764,3442
78,-45,56,-1067,-2649,2529
110,87,104,587,-1439,-612
-8,-90,29,2258,1085,-2049
-26,-21,127,-1382,2293,-1973
-31,54,4,-674,1935,-2225
-21,-91,-90,220,1159,-2214
13,-103,-116,241,818,-1515
32,90,76,499,605,-1319
44,102,90,-405,312,-812
43,85,73,-529,163,-731
17,39,81,198,-172,-670
13,37,91,378,-171,-225
21,65,110,166,-388,442
38,114,104,130,-546,571
30,-94,126,118,-676,574
43,-66,-108,76,-603,771
57,-46,-93,401,-439,779
61,-46,-89,1133,-176,584
48,-44,-102,1103,-19,559
41,-13,-110,378,-37,712
58,1,-114,-179,-48,568
68,0,123,-344,95,174
70,23,95,-1027,126,-41
85,26,80,-1171,148,-246
102,-5,65,-148,240,-564
120,-10,52,218,230,-721
-81,-123,-128,-948,3258,-4340
101,-103,106,-1637,3731,-4745
-94,-101,-99,-949,3323,-4299
121,-54,-6,-1679,2447,-3267
-20,90,2,-584,2974,-2767
63,-12,-69,89,3234,-1791
-33,-12,86,397,2349,-1371
-83,-51,62,1312,1519,-2191
122,-26,20,472,1182,-2842
-6,44,21,-372,453,-2883
54,-57,-53,-191,-200,-416
0,87,-95,-726,-719,3281
-43,-15,-62,-851,-1301,1670
5,85,12,13,-1987,1299
67,104,4,-545,-2354,1164
-109,54,0,228,-3025,986
-55,101,60,-402,-3680,1379
-19,-12,73,-429,-3150,1899
45,-13,-120,432,-3671,3990
-80,87,-120,1225,-4237,3473
105,-56,-78,2319,-4084,3329
121,-3,127,1112,-3581,2853
93,-60,102,456,-3682,2642
53,-116,-48,213,-4400,3064
105,84,-37,786,-3301,2233
88,82,35,1485,-2422,2267
-44,-60,71,499,-2052,1827
125,-85,80,1389,-718,336
24,101,-61,2638,63,-860
-56,118,113,1002,35,-1039
-98,23,56,352,-39,-1042
-93,-44,30,610,85,-861
-48,-68,-1,143,360,-876
-19,123,-43,147,367,-940
1,78,-59,624,316,-909
16,60,-72,683,293,-695
-30,70,-61,93,18,-575
-9,50,-100,-166,897,-1091
30,58,107,175,529,-346
44,98,118,-258,-523,568
50,118,106,-265,-561,814
84,-113,123,-104,-519,931
68,-85,-109,-185,-646,1023
44,-68,-84,-106,-532,1117
45,-20,-55,-255,-354,1194
56,1,-59,-280,27,667
42,-10,-103,74,316,-392
-82,-33,-111,175,104,-568
102,-39,-116,57,-74,-634
27,-71,-127,-88,54,-788
-45,-90,-59,-2425,1149,-5028
86,-115,-73,-2310,1588,-4276
-124,84,-54,-1435,1833,-4054
-13,78,-7,-1675,1557,-3693
-128,-17,32,-394,1963,-3489
-18,-128,9,1315,2236,-3552
-73,81,90,-37,2459,-4418
74,-89,23,-67,871,-3375
111,53,-4,301,-699,-1232
63,1,15,-1439,-457,908
73,94,99,63,-1074,2261
-110,76,103,237,-1368,2349
-3,-51,95,585,-1637,2187
113,41,76,781,-2235,2150
-67,48,65,803,-2928,2142
-13,93,116,515,-3774,2791
74,-123,-73,523,-4642,3579
93,-68,58,790,-5511,3858
-77,-104,95,1567,-3738,2590
-3,-42,-75,1445,-3311,3273
38,-18,10,819,-4516,3803
98,-102,-33,978,-3041,3221
95,-80,5,1037,-2816,3120
54,-53,32,1731,-2229,2528
-46,32,13,950,-1588,1260
72,-49,-38,1895,-913,-393
-60,84,-123,3169,184,-1475
-27,53,11,2225,988,-1609
-78,-36,-36,1884,412,-814
-115,-7,-9,175,-359,419
-122,-7,-26,-880,-102,147
-89,-63,-59,-417,18,-584
-33,-98,-77,140,31,-919
-26,-108,-85,27,-156,-827
-49,-122,-89,-38,-13,-695
-55,107,-107,319,75,-724
-22,105,126,57,-42,-392
16,107,126,22,-198,111
20,106,114,310,-328,262
30,-89,-109,-855,-481,874
-21,-48,-98,-1099,-225,890
-6,-61,127,59,72,256
30,-47,107,268,16,207
41,-6,96,-209,-88,161
50,-33,86,412,82,-295
48,-48,81,501,-3,-556
76,-80,81,507,20,-423
67,-96,85,604,-39,-106
63,-101,98,1037,-94,111
68,-64,105,531,-142,64
114,-62,96,1159,3655,-4103
-16,26,26,-1454,3914,-4029
-74,-23,6,-23,3665,-4467
58,-125,-96,-1336,4706,-4969
98,92,-78,-1132,3051,-5624
-18,122,100,-2261,1021,-3572
-38,57,68,-2936,1594,-1390
-28,-44,78,-277,3153,-617
-36,-26,23,849,2975,-1491
-56,34,127,265,2716,-2399
-47,-53,85,-915,2730,-2991
59,-35,-64,-743,3196,-2068
92,62,92,-212,-3,-352
54,-50,-42,-42,-471,543
33,25,57,176,-1844,2439
-63,8,-64,-540,-2602,2441
51,88,6,-92,-2699,1725
-35,119,1,395,-2881,1478
0,112,-14,494,-3494,1199
64,55,-55,2261,-3774,1636
105,70,-84,2570,-4181,2709
81,-81,20,725,-6098,4022
-30,91,71,1326,-5420,3186
-121,86,-121,2219,-3905,3421
-55,125,-63,885,-3559,3754
-51,63,-128,1767,-2761,3100
-90,-96,-8,1012,-3452,2813
67,-104,51,1649,-2462,1743
-75,-128,32,3016,-944,382
27,-94,-60,2900,-128,-527
-96,124,90,2011,397,-1180
-128,74,40,869,719,-1218
-126,-16,-28,50,627,-1265
-97,-66,-41,11,129,-1104
-60,-122,-63,96,-193,-1116
-40,125,-63,-449,-97,-1045
-34,99,-70,-581,-147,-906
-37,79,-61,-428,-293,-464
-23,85,-62,-449,-148,-220
-23,100,-75,-461,6,-56
-26,122,-79,-473,-13,36
-3,-120,-105,-377,182,166
26,-90,127,-326,-24,370
29,-73,126,-137,-3,435
31,-52,-126,-20,31,396
16,-35,-122,118,-48,326
47,-20,-122,-142,2,397
62,-4,-108,-193,-106,363
69,-7,-107,72,34,64
79,-11,-98,69,68,-132
8,-65,74,1227,4044,-3503
-80,-37,-36,210,4166,-4785
-49,3,111,-1972,3975,-3993
-128,-26,-107,-1477,3127,-3561
-82,39,50,-2843,2614,-2028
-26,-16,-81,-1737,5181,-2105
-11,-127,44,322,3726,-3827
95,-75,88,-2463,3430,-3201
111,118,-125,1002,2975,-2378
26,86,86,1424,3729,-2476
24,-14,121,372,2472,-2600
105,-74,-58,287,276,-418
1,99,-104,332,-632,1019
30,93,33,-847,-2372,2622
-24,14,-119,-228,-3086,2195
-76,71,-109,972,-3184,1715
-111,-116,118,647,-3124,1133
-31,104,121,1868,-4353,878
23,106,-109,2929,-5692,3279
101,38,45,1551,-7371,5607
-39,45,17,1511,-4206,2360
91,-8,56,2992,-3291,3029
82,39,105,519,-4766,3764
86,-64,-59,1282,-3230,2684
-31,113,93,3478,-2395,2261
124,3,99,2265,-1190,2150
99,-62,-72,-1063,-851,1167
-55,9,9,337,1001,-510
-97,-43,108,486,870,-1014
-82,-124,44,-474,974,-1551
-107,35,-44,2066,876,-1632
-69,-90,-59,689,-4,-376
-7,-84,-89,-371,209,-962
-14,118,-114,421,405,-1145
-26,73,-108,595,63,-915
-9,80,-119,-67,123,-425
8,86,-121,-180,-152,-178
10,97,-119,-145,-384,-38
-9,122,-110,6,-385,272
-11,-79,-105,-270,-248,342
22,-55,-124,-10,65,501
15,-41,125,486,71,579
-2,-36,119,893,104,386
105,-34,105,802,371,355
96,-104,98,2463,196,85
34,-121,126,2712,-5,-111
39,-44,-102,-200,353,-154
80,-120,121,-342,346,-286
-69,105,127,136,-4,-68
-102,110,-128,347,55,-502
-100,-86,-90,-1416,2998,-3654
-101,-98,-80,-2266,3715,-3836
51,78,59,-1084,4514,-3643
-47,63,60,-1052,3242,-2964
51,-97,105,-1920,2981,-1613
-27,113,101,-1337,3619,-1876
92,-4,65,345,3418,-2218
-51,19,48,-199,2682,-2240
82,-128,-60,217,2310,-3199
-29,-29,106,146,1248,-2533
-3,-30,-8,219,79,-304
-21,-115,-61,-609,-783,1274
67,46,31,172,-1825,2218
-63,23,-98,30,-2435,1831
37,51,-115,1028,-2428,1588
-71,-99,-108,124,-3140,1908
-9,-79,-55,-323,-4586,1609
119,120,-62,1052,-4834,1723
-23,-123,-9,1662,-5663,2757
67,84,-72,2497,-4613,2243
-41,-91,80,1210,-4936,3216
-18,-92,-78,-102,-4679,3000
-38,95,-118,633,-3303,1906
-13,40,44,1247,-2808,1647
-66,101,107,1489,-2279,2228
71,-62,57,541,-216,1712
55,-114,0,2310,-869,-329
25,-84,30,1366,-756,153
-111,-82,13,588,-221,307
67,111,-57,1322,-284,-172
-86,44,75,2257,227,-1450
-12,1,-37,1879,1023,-2603
-18,-87,-122,1021,1163,-3038
-3,98,-122,337,443,-2255
-10,54,-117,-19,-158,-864
-54,64,-99,-474,-524,-321
-42,62,-109,-375,-156,-178
-4,81,-116,-372,-365,187
29,94,-128,-60,-507,599
28,-111,-94,-314,-701,979
24,-76,-80,-740,-500,1288
39,-67,-63,-505,-237,940
83,-63,-81,634,180,625
87,-56,-122,990,225,-42
110,-69,112,646,40,-89
126,-53,121,-152,74,480
59,-75,102,136,240,241
26,-97,107,606,185,321
61,-100,110,687,299,622
87,-102,103,906,410,689
-24,102,-56,-1499,4942,-2909
31,32,125,-818,4238,-3202
83,-67,94,666,4481,-4717
-31,-28,93,-438,4697,-4634
11,72,115,-2565,4575,-3319
63,58,73,-2621,4627,-2364
85,-76,-65,-5202,3739,-926
-39,-85,-70,-210,4509,-352
76,91,3,4387,5296,-2745
93,-66,74,1427,2834,-2920
83,77,-125,-1731,501,-1202
-6,-113,-112,-1123,-1419,1208
108,110,86,-922,-3336,2141
23,61,21,-1303,-4012,980
-76,94,63,802,-3792,684
33,-83,59,1017,-4124,495
117,-63,55,1630,-4883,664
-15,-66,4,2046,-5036,1258
59,-100,16,2235,-5593,2077
-74,-124,57,2019,-6287,2869
33,-108,46,621,-4798,2588
60,-114,119,-47,-4150,2047
67,-125,29,-72,-4099,1819
-60,110,-84,897,-4005,1155
88,-35,55,3687,-2258,480
-56,-101,-83,1225,-1383,715
50,92,59,2054,-408,78
-51,-98,5,-494,430,-169
-103,31,115,58,996,-489
-105,16,45,464,444,-347
-95,25,0,-298,310,41
-95,-66,-47,827,354,-325
-82,-52,-62,413,243,-244
-76,-70,-93,147,168,-288
-72,-98,-93,312,222,-307
3,-123,-98,382,83,-72
17,-91,-69,-525,-24,404
25,-83,-56,-47,113,837
28,-75,-43,107,-275,438
22,-71,-68,262,212,-201
33,-77,-99,319,381,-390
51,-86,124,421,173,-176
43,-71,116,102,67,121
52,-77,117,334,80,379
68,123,121,1163,-147,340
87,-77,-114,-145,-533,449
90,-71,-97,-290,-474,264
106,-63,-87,-60,-124,31
109,-57,-92,-81,51,-82
118,-66,-100,49,-14,-147
-60,-126,38,793,4140,-4981
-104,63,65,1085,4013,-5553
-56,-93,15,-1500,2559,-4973
-18,-109,63,-2435,2133,-3651
-39,-121,-33,-2798,2181,-2476
94,-105,69,-2533,2183,-1420
107,60,44,-359,3338,-1485
31,-37,-101,1850,3067,-1629
6,60,72,376,2679,-3204
-38,-73,-94,585,2601,-3761
-54,48,19,1148,-454,-3019
56,-21,-79,286,-373,895
78,73,99,-1197,-2190,2779
0,88,-45,-30,-2609,3213
-90,-9,-62,278,-2423,2801
111,104,-62,520,-3384,2910
-3,86,-75,940,-4102,2769
-126,113,-55,1584,-5281,3804
103,-83,18,1681,-5650,3768
-32,42,-112,950,-4715,4051
-34,66,-6,559,-3721,2731
-84,-16,23,735,-3412,2524
-42,-65,122,4869,-1643,1810
74,-72,-71,1511,-2628,3497
79,-30,3,150,-2002,3434
-36,11,16,1292,-1163,2577
59,106,9,-774,-747,189
-1,8,-27,-171,1404,-1584
-73,-126,-115,686,1544,-1774
-82,32,62,935,953,-1471
10,-73,-49,832,991,-1447
80,106,-96,1040,695,-1779
103,83,-114,867,171,-1629
74,39,-108,371,59,-1563
37,20,-105,224,79,-782
4,47,-106,-291,-371,-188
-2,68,-108,-519,-608,729
13,125,-97,-919,-823,1274
44,-68,-81,-873,-1017,1676
64,-34,-48,-426,-641,1691
86,-36,-58,558,-102,963
97,11,-48,678,-130,576
78,40,-44,-260,-774,92
96,67,-89,-379,273,-136
86,57,-100,-552,487,-802
93,36,-118,-261,186,-803
113,16,113,2,19,-733
101,24,104,-872,-265,-585
97,16,101,-1061,-312,-617
106,-12,107,-383,-517,-732
-108,-38,-36,-2716,3933,-3389
-49,44,-70,1014,3834,-3819
75,117,37,247,3345,-3901
-23,119,-50,-1262,4157,-3545
50,74,119,-1151,4241,-3306
126,42,14,-1098,3787,-3214
-51,-49,-64,1194,2540,-2766
43,-74,-74,233,957,-2711
-86,112,106,-896,1547,-2978
-128,26,38,637,1071,-2407
-99,-122,-56,463,182,-714
-99,77,-27,-87,-943,1601
59,-37,88,291,-1757,2666
-34,-126,-95,828,-2087,2668
-60,-19,105,1300,-2420,3255
99,78,60,250,-2952,3108
-12,100,41,409,-3758,3170
-110,-36,19,-670,-6116,4055
-119,99,-10,1660,-5290,3281
-62,-104,91,279,-3878,2546
-79,98,32,211,-3234,2016
-19,76,113,1005,-3143,2275
19,-80,-8,-539,-3431,2644
103,-119,23,-568,-4049,2648
110,-45,-58,-935,-1492,1861
-28,94,-22,2842,-910,-58
90,-70,48,2154,687,-822
-28,-46,-102,462,901,-973
-82,-111,81,102,509,-680
-97,80,5,271,439,-548
-25,18,-82,485,893,-695
-19,-24,119,862,683,-1258
5,-49,-118,-38,-2,-1149
31,-50,-125,-1068,501,-806
19,-113,-126,128,106,-664
15,-126,126,661,79,-704
26,-99,120,-70,146,-269
25,-92,115,-10,-329,221
22,-69,116,-131,-283,445
38,-17,120,-449,-451,693
46,-18,-90,-100,-506,895
73,-18,-76,374,-163,795
85,10,-68,256,-176,367
82,37,-70,59,-236,277
78,51,-88,-94,-238,100
81,55,-100,-51,-141,-69
73,17,-112,686,-232,-282
76,27,-123,168,-134,-197
91,18,127,-72,155,-193
101,-4,119,344,31,-364
-70,34,-18,-1429,4341,-3486
88,-82,-57,-259,4879,-3899
90,-105,-78,-552,4484,-4131
-118,-111,-80,-1700,3907,-3795
-45,118,-104,-1797,3635,-3267
-51,110,-39,-2290,2869,-2625
15,42,-92,-1813,3007,-2064
27,-33,-44,-237,1767,-1472
-10,-107,61,957,2388,-2503
-112,-91,83,1101,1542,-2189
-91,-73,0,921,-369,88
-33,-43,115,-783,-1658,2448
-7,105,-29,919,-2391,2438
-12,9,-52,506,-2526,2777
-116,97,-34,-182,-3983,2664
30,106,-41,1739,-4541,3327
-81,30,4,-175,-5241,2957
-14,0,86,2499,-5882,2420
-40,-11,-125,924,-5029,2326
-50,108,-105,2113,-3486,1921
126,90,94,828,-3120,2095
123,51,-108,636,-2705,2720
96,11,22,1352,-2491,2549
-94,105,31,122,-2623,3026
15,19,-49,3170,-1588,1723
-115,-36,58,694,-1489,1291
-22,-26,4,-567,-32,-51
-40,-71,-59,-963,1286,-456
-77,-116,50,-1615,1561,-1180
-40,0,-34,141,1528,-1814
-16,-52,-95,1131,1122,-1728
29,-71,114,1828,668,-2059
44,121,89,1753,493,-2317
69,-97,108,-1339,588,-1138
16,97,89,-724,-226,-564
-4,66,113,148,-711,-235
23,77,-35,1146,-679,509
50,-61,-61,7794,-721,158
32,-68,-74,7868,-1268,-1232
-126,19,-57,-2215,2263,-452
84,-86,87,-5765,2440,1091
66,-122,-13,-5319,257,959
93,114,-33,-2265,-933,134
89,-81,21,-401,-852,98
97,-59,74,309,-528,-138
124,-111,95,2095,-404,181
85,-105,-103,2436,-261,550
87,-117,-124,2224,25,464
117,-94,-87,732,-104,683
-118,-100,-74,7,-88,863
84,14,-84,-741,3413,-3947
126,-13,-96,-742,3358,-3712
-127,45,-128,-1317,3916,-3457
-4,48,110,-1229,3732,-3310
55,71,-101,-1469,2915,-2675
-86,98,-78,-1370,3305,-1907
19,97,-34,-1065,3009,-1456
-66,-11,-106,143,3418,-1894
75,-29,98,898,2480,-2362
46,80,100,2862,1096,-2535
54,-77,106,1222,1505,-2431
30,31,62,-1114,-298,81
26,-96,123,-763,-1760,2062
-126,76,5,155,-1555,2620
74,1,12,-120,-1678,2220
39,57,-9,681,-1981,1764
-108,-103,43,332,-3227,2421
-72,-67,88,-247,-3870,2510
-63,109,85,1744,-3563,2293
-91,-58,-76,1646,-4031,2520
-58,-16,-93,133,-2367,1797
-65,-107,-102,810,-2623,2067
-100,114,-83,452,-3158,2693
-60,38,75,346,-2748,2805
-31,55,-78,645,-3268,3745
29,73,-47,668,-3187,3787
14,-101,-18,-240,-1763,2779
-32,-108,-23,657,-750,1261
58,95,-115,2006,-390,-881
-2,34,72,2217,103,-1540
-57,15,1,239,539,-1319
-91,-30,-15,-561,-82,-831
-103,-72,-32,237,-416,-211
-77,-63,-60,165,-107,2
-42,-48,-81,64,179,-206
-12,-58,-101,85,82,-566
3,-82,-112,227,45,-863
7,-102,-119,44,15,-931
8,-128,125,40,52,-814
2,124,125,-53,-63,-450
1,125,119,-122,-41,-198
13,-116,117,-23,-95,281
26,-94,108,-144,-125,479
41,-75,103,-33,-122,529
49,-62,102,-29,-131,563
58,-45,102,-24,-140,550
68,-34,98,79,-108,452
75,-25,96,63,-103,344
79,-19,95,32,-91,225
89,-17,95,52,-65,119
-35,59,-73,491,5154,-5322
13,112,33,-837,3581,-4907
13,50,-23,-2366,3142,-3518
-88,22,-10,-566,3041,-2963
14,59,18,-878,3182,-3619
50,-111,124,-1399,2300,-3002
62,-108,-17,-941,2583,-2913
-19,20,47,402,3826,-4547
-94,-84,-21,603,3480,-5174
-16,-111,-72,-479,1611,-2651
-12,51,39,334,758,-2480
55,-18,7,1963,-1019,-660
76,116,113,-2116,-1635,1706
-32,-36,-12,-89,-2497,2693
-103,-74,8,-407,-2890,2767
63,29,16,-498,-3658,2699
32,-104,82,-601,-4963,2900
55,-103,-66,751,-5860,3425
65,43,-39,5062,-4287,3683
-100,-123,72,5174,-1551,2848
-58,53,85,2961,-1714,4209
-56,-49,63,1509,-1615,4206
-83,-55,-65,-1219,-2880,4354
82,88,112,-320,-1978,3463
7,-100,-21,3607,-1785,1851
-67,27,-63,3826,-1274,1728
79,-1,-24,-509,-330,1496
-70,112,-121,590,19,-336
-84,-16,85,1770,-230,-2081
2,-67,29,468,-20,-2052
20,121,7,-349,-289,-1949
105,54,-3,-335,-289,-1444
-7,27,-57,-675,-60,-1146
21,26,-87,-1297,-369,-637
123,58,-115,-1286,-49,-325
65,49,124,-524,-660,-49
-71,119,-83,-603,-719,1074
-109,-35,-46,-229,-129,1512
1,-9,81,263,1337,401
126,-30,24,726,646,-316
119,-27,84,169,-1107,422
28,50,-106,-1880,-1164,813
43,11,-107,-1484,-130,443
88,-23,-109,-15,389,85
100,-23,-100,787,139,-55
95,-4,-109,355,109,-56
74,29,-100,-950,167,148
13,-3,75,-1063,854,415
-60,81,57,-2263,-147,715
-52,65,-79,-649,-1833,345
28,-100,-15,-3365,4635,-3448
-64,-49,39,-1002,5754,-2471
110,123,-89,-2490,5136,-2504
-104,-81,116,-567,4456,-2942
-32,109,-115,-1416,4177,-2316
51,91,-9,-1760,3401,-1322
24,75,-71,-4852,2138,-1081
-126,-19,-64,1491,2808,-965
-53,-68,-81,-1224,1788,-941
22,-68,67,1801,1434,-838
-86,-68,-41,468,-136,64
-116,-61,-34,-875,-1248,589
-40,-9,113,-534,-1614,1059
5,48,-28,331,-1845,1012
118,-121,-30,-594,-1762,1095
-88,-76,-29,-333,-2219,1041
-5,124,120,-86,-2991,1047
111,-116,88,4,-3265,618
-29,115,-123,1756,-3942,826
110,0,47,3055,-3668,1784
89,-115,60,524,-4107,1039
-117,101,-43,-464,-5018,3612
-108,-51,47,-152,-4779,1345
93,98,61,944,-2023,1185
-55,-38,25,2074,-4570,1886
0,-103,63,2835,-855,944
-115,34,49,-36,-1683,3072
58,-10,92,1458,-2032,3744
82,50,27,3948,668,743
-109,-1,-1,-1504,-647,371
67,-23,51,-572,193,-1515
-98,-35,27,509,1287,-1181
-118,123,-31,667,-36,520
-123,-57,-78,-567,19,544
-93,-76,-127,-584,161,159
-105,-81,119,-511,-3,341
-102,-84,127,-154,-178,660
-115,-51,118,-279,-413,670
-92,-52,120,481,-381,665
-79,13,81,48,79,370
-64,-37,92,361,-15,24
-55,-37,68,-821,-127,-169
-52,53,103,1303,-100,451
-62,101,-114,1007,-225,621
-44,-75,105,836,-146,379
-29,-89,93,672,163,320
-24,-128,75,1400,220,217
-37,118,68,1276,55,130
-54,-115,108,-195,-145,103
-49,95,102,-151,287,117
112,-13,-120,-1245,4281,-3033
-21,-115,41,-590,3882,-2372
110,-82,-17,-948,4207,-1791
-28,-102,-39,-752,3168,-2050
-126,93,-85,-27,3881,-2209
-92,-48,25,1341,2443,-1885
60,-111,-61,1020,1969,-806
-75,-75,-27,683,217,-283
87,-20,38,-1733,276,-614
46,100,120,748,-783,-24
21,-69,-51,-53,-1457,564
70,13,105,-830,-2220,1433
-120,73,-96,-1028,-2105,893
-99,-127,-27,-323,-2677,890
-27,112,-85,-1242,-3356,1251
124,78,97,1448,-2395,888
-69,-90,35,-866,-4563,1678
93,-96,-128,1077,-3520,1477
-22,-10,19,-3957,-7051,-266
122,125,-117,5160,-3022,1248
-28,-18,-35,1831,-4092,904
-27,-75,-2,2708,-2681,2041
-18,68,42,-1182,-3907,2345
-71,93,119,3453,-3356,2198
-47,-17,-78,1796,-1783,4044
-75,-40,94,5408,-1665,4889
78,45,116,-121,-3975,3839
63,-105,-54,3468,-3201,1516
-88,-62,54,7749,-350,-2587
-39,-123,22,-6888,2590,-1472
79,121,-81,-5910,1009,-803
77,-33,-128,-3740,738,31
101,-25,-113,-541,864,99
-123,-1,115,761,855,-438
-110,69,50,-1911,-8,-979
-96,28,50,-2699,-63,-382
-108,-35,45,-1089,149,144
-121,-5,81,-498,-356,12
-101,0,-117,666,-452,64
-73,-19,-24,1207,-39,329
-63,46,-79,358,113,178
-71,56,99,466,-261,286
-59,53,85,402,-61,262
-41,65,58,-29,138,194
-34,68,51,-340,-73,180
-33,59,56,-225,-180,78
-27,45,67,-199,-109,9
-17,38,76,-429,57,28
-8,26,91,-588,117,50
-3,9,80,-226,8,111
-90,64,-114,-4415,-5739,1025
34,112,-119,809,-4004,-46
37,90,-70,2618,-2489,804
89,61,-30,3267,-2829,281
64,-28,34,4282,-133,2000
48,-128,-25,-3624,-4066,541
10,85,75,12895,517,173
-99,56,37,-3494,1215,-1231
73,114,-105,-3242,-129,521
50,-103,-123,-329,646,-29
52,-96,-114,754,211,20
88,-26,-118,-163,197,299
105,-32,-111,-491,132,298
125,-46,-107,-188,131,199
-109,-51,-106,-221,55,33
-112,-54,-93,-601,-161,-239
-95,-86,-26,-580,282,-54
-101,-102,-86,346,-84,360
-92,-72,119,577,-124,297
-76,-44,107,-10,94,164
-64,-36,79,-242,115,197
-63,-39,79,-164,-150,143
-53,-43,78,51,-93,107
-46,-35,83,-262,-128,72
-37,-37,88,-336,36,47
-24,-55,90,-93,61,77
-28,-48,102,-293,-96,123
-13,-46,83,-261,12,123
-8,-44,57,-151,-24,98
-2,-48,49,11,31,142
9,-35,36,-134,-38,149
18,-32,37,-157,-54,126
20,-28,43,-231,-24,112
25,-38,42,-117,1,108
41,-31,44,-352,1,154
40,-34,42,-184,-22,139
41,-32,35,-223,-53,150
54,-27,28,-182,14,125
53,-34,15,120,-19,99
57,-43,6,83,-118,203
69,-22,22,-219,-145,294
74,1,35,-467,51,69
80,-13,24,-342,87,-23
82,-44,7,-53,-4,82
83,-41,0,-84,-65,160
88,-28,-1,-277,-74,169
96,-18,9,-241,-89,153
98,-13,15,-323,-3,104
102,-19,10,-232,-31,162
104,-14,-2,-188,-41,151
-51,-74,-6,467,5150,-2414
-80,-22,32,-1057,4814,-2816
-59,-15,80,-556,4536,-2560
90,-24,-106,-1288,3818,-2104
18,-68,107,-1419,4225,-1952
-123,-97,96,-651,3577,-1358
8,-114,-19,-2621,3216,-1649
125,94,-9,-1520,3005,-867
0,10,-93,-225,3109,-1137
-68,126,97,2565,3455,-1174
57,59,123,3010,2813,-1025
-124,-70,-49,1149,862,-1496
70,45,-26,-901,-1864,-11
50,27,-19,-526,-1855,586
71,-43,-34,-1113,-1931,1404
106,52,-18,-537,-2329,1076
-115,111,-19,-855,-2800,967
-13,-121,-53,-511,-2974,996
50,-116,-34,382,-2910,688
-112,-31,-35,-702,-2465,690
-73,-88,24,1377,-4012,956
-11,-81,71,1392,-2216,1566
-63,-88,-113,2462,-3434,1690
116,56,-57,-1003,-4179,1630
-103,116,-44,1153,-3581,1665
-63,-36,-35,721,-3115,1338
60,-128,46,-2157,-5739,1463
87,-108,101,-172,-3821,1041
73,-65,115,-230,-3636,1752
-28,32,-3,1086,-3568,628
60,17,123,2268,566,1458
-84,-20,80,15,-765,11
-128,-86,-50,12302,128,981
-126,23,-85,-3330,989,-1316
95,-126,-74,-2899,-496,110
88,-43,-50,-881,-299,165
113,-60,-95,276,536,328
-111,-12,-128,-356,727,79
-113,-15,109,-409,168,-55
-108,-50,116,226,-212,-189
-91,-63,125,422,-129,-137
-75,-42,110,-447,46,-104
-83,-67,115,-190,-289,46
-70,-58,114,-296,-158,179
-67,-52,118,-315,-212,140
-60,-46,116,-122,-195,185
-45,-43,-121,237,-89,210
-40,-41,-121,536,-43,249
-33,-22,105,-12,2,171
-27,-33,79,-28,-53,179
-9,30,-2,1323,4870,-2703
77,33,33,876,4248,-3250
-127,58,77,-244,3969,-2633
-126,42,26,-934,4744,-3041
-16,-46,78,-269,4667,-2916
43,41,42,-2717,4005,-2697
72,-18,48,-1585,3248,-1642
-109,-126,69,1624,3235,-1411
-25,-86,-65,943,2777,-1744
-39,14,123,1821,2105,-1693
19,68,-44,-1989,-850,-1080
-41,56,49,138,-1264,-677
-77,99,87,427,-2352,37
25,7,-24,-1318,-2304,1196
111,23,65,-68,-2506,813
-90,120,103,351,-2353,765
-70,110,66,1036,-3126,975
-14,-4,-1,-1863,-2935,530
57,-64,85,1038,-2107,-401
-16,-128,17,2161,-3711,974
55,-20,-100,-1002,-3025,836
40,127,14,104,-3210,-52
88,-98,-7,530,-2767,1200
122,-56,51,-207,-4139,1201
-28,124,99,1887,-3415,1298
19,-51,117,1378,-2694,1311
-61,-69,62,-161,-4694,1707
-29,104,101,1389,-2927,1572
-58,-119,-72,2410,-2604,1517
96,-37,-119,5465,-2661,870
-12,-22,48,14867,-314,-314
-67,-18,-22,-692,2577,-1604
-33,104,-118,-2109,-2216,1244
86,29,-102,-4608,468,727
71,-104,99,-3697,1076,-110
98,-124,114,-814,790,466
126,-93,-107,339,227,481
-120,-47,-104,281,-262,108
-106,-73,-111,858,-206,59
-91,-70,-123,257,-41,-184
-78,-74,121,-538,19,-296
-86,-87,-121,-717,-247,59
-94,-85,-106,-671,-91,164
-80,-85,-88,-108,201,236
-67,-60,-110,-65,-83,366
-54,-37,112,-271,-28,311
-42,-36,87,-146,154,65
-39,-48,73,70,63,19
-32,-45,64,-35,-69,184
-25,-42,60,-230,14,203
-91,-4,-12,3464,-2974,1940
-104,22,3,-260,-4204,1400
-124,-30,81,-2700,-3353,508
77,45,111,3,-3091,1028
78,50,-108,387,-1826,1328
116,93,67,-555,-3434,599
-73,-9,-117,781,-1559,1346
-127,-102,-73,-319,-922,1611
110,84,66,-191,-2445,508
-69,42,-73,2216,2,673
-122,62,-7,584,1771,-1138
101,9,-108,-956,1020,-828
105,-35,-123,30,-180,117
113,-20,-125,109,-190,-91
-104,-2,-123,263,136,-32
-116,-14,120,440,-51,-58
-102,-12,117,648,-124,-68
-94,-80,120,2345,-518,13
-95,-45,121,696,-244,-195
-65,-1,100,-1775,463,-160
-72,-93,80,-364,254,252
-63,-59,70,-167,-136,194
-44,-17,62,-735,-3,75
-42,-35,63,-303,26,220
-29,-12,62,-350,-5,166
-19,6,75,-329,188,248
-14,-5,56,-117,-83,-58
10,22,49,-882,201,-68
17,4,53,-394,242,1
45,-46,49,1151,302,1038
-27,18,93,-564,-943,111
40,-13,35,-579,524,359
42,21,56,-986,101,177
42,-13,38,-256,-131,-40
53,1,50,71,-264,-217
65,19,53,-501,154,-146
63,17,44,-81,-154,243
79,23,39,-157,457,59
70,33,32,-318,-271,147
83,11,27,-76,-73,-80
90,18,23,-118,-179,37
91,21,24,-211,-31,-44
94,10,17,-8,-263,194
96,39,21,-717,-98,55
95,27,41,-560,-158,92
100,50,-128,-267,273,-222
115,84,-93,-290,310,104
121,64,-38,487,1006,85
-12,-75,108,144,1416,-270
83,-38,-34,497,2105,-1199
94,-52,120,3603,-2757,1868
-34,-89,24,-1911,-5276,1266
-113,-80,45,-2724,-4491,1360
85,124,35,2448,-3192,376
14,125,-25,2283,-3043,2126
16,-43,126,-3056,-3658,1578
7,-96,-22,-1692,-5148,1340
98,-5,-109,-765,-3754,1786
-47,3,-58,735,-3352,109
118,-117,-49,2004,-2046,1196
-80,113,-73,-544,-2167,37
-91,-38,-47,8901,2031,25
47,22,-33,-4718,118,-1103
106,-22,16,-4434,273,-672
-107,33,109,-1915,655,21
-120,75,111,-836,-140,625
-113,-117,92,-1583,-494,84
-111,38,127,-629,-494,38
-80,-56,-112,304,332,37
-77,12,84,341,90,-250
-72,51,86,-538,-36,337
-89,-29,106,1839,-245,430
-80,8,104,1644,-639,447
-47,39,123,1166,-606,607
-38,77,94,-493,228,313
-51,31,76,-137,182,-7
-43,20,63,-272,102,-24
-25,42,51,-1186,123,30
-23,27,55,-705,-171,-87
-11,11,45,-481,-53,-8
-27,-28,69,164,-130,69
-15,-42,73,636,-109,291
-1,-3,32,664,-263,351
21,45,34,-463,47,90
25,12,36,-53,45,18
20,5,34,-192,-56,94
29,-7,44,-336,74,82
34,-12,25,-205,-27,146
44,-7,21,-131,-40,134
50,0,20,-174,26,102
52,0,21,-133,22,80
55,0,20,-194,10,140
65,33,22,-571,-49,8
86,24,19,-521,372,-306
52,-33,104,367,-462,125
119,7,-92,-487,1035,-5
-100,19,19,1684,815,-18
-4,-67,-87,-725,2479,-626
84,-45,-32,599,2267,-1308
25,-47,-5,1147,2936,-1629
21,-12,21,-2703,-4481,1004
15,-7,-88,1291,-4123,1397
11,-80,63,-515,-3539,707
30,96,-105,902,-2660,1347
-127,-125,-94,149,-2321,1048
56,-121,114,-444,-1762,1173
-45,-63,71,-289,-1879,846
-22,-34,94,9226,-1268,1231
-111,26,-89,-768,1059,-1438
115,-98,-41,-3205,533,-1114
-126,9,85,-1319,537,-452
99,-39,51,141,743,-157
99,-27,47,182,99,-151
-119,-9,72,-415,-717,365
-128,-8,-118,-232,-627,503
-91,-104,-73,1878,232,240
-74,-15,-102,-338,365,-222
-77,-45,119,-92,34,225
-72,-49,77,124,176,-69
-61,-41,58,1,41,201
-50,-42,64,319,-92,284
-9,-35,86,452,-87,362
-20,-29,101,-136,115,189
-50,-59,90,-128,189,-78
-55,-47,81,-457,-128,178
-40,-37,72,-499,-44,346
-9,-18,60,-524,77,317
12,-28,51,-114,45,220
20,-13,52,-402,-1,118
17,-25,49,-214,158,21
28,-41,48,1,94,18
64,-59,45,365,152,18
21,-76,30,781,-170,-4
44,-75,24,353,134,131
42,-77,11,119,-25,298
48,-57,6,-371,-196,379
59,-62,19,-128,-188,367
74,-59,36,16,-202,291
92,-39,46,-306,-98,301
77,-42,43,-113,15,61
70,-54,31,-21,48,7
66,-57,26,-124,-83,119
72,-59,23,63,-37,77
87,-42,8,-136,75,-38
122,-63,7,88,-2,-49
108,-58,4,-185,73,-196
111,-77,8,-262,107,-121
113,-84,7,-304,-73,190
112,-60,13,-386,111,245
-114,-8,-16,-848,51,303
-12,71,-37,-3045,-6148,2736
33,-44,-15,-2148,-4990,754
-31,39,81,2170,-3038,1014
-117,-74,-124,-554,-3300,1107
80,31,-82,964,-2245,686
21,67,-125,651,-2098,1553
-55,49,-61,-804,-1799,533
-57,0,45,2537,217,1497
103,78,-50,2585,-197,3
57,21,-101,646,136,-845
105,-6,46,-1576,255,-30
118,-32,-44,-837,-130,133
-113,-46,-96,-199,222,158
-106,-35,-105,-217,372,176
-101,-36,-115,-51,57,137
-89,-58,-123,142,-137,-185
-75,-55,117,-124,92,-223
-66,-63,109,-352,-32,-74
-70,-64,112,-225,-182,13
-69,-84,115,252,-302,78
-50,-80,121,480,-168,163
-50,-104,123,1193,-337,254
-39,-76,117,531,-118,253
-37,-72,101,226,-112,239
-31,-65,99,-269,-121,216
-21,-66,90,-359,31,232
-17,-61,72,-266,2,208
-11,-60,63,-82,-26,140
0,-56,58,-90,-42,73
6,-54,53,-277,-24,19
12,-63,52,-297,1,-1
21,-71,51,-216,-13,45
25,-70,53,-216,-16,58
31,-72,50,-172,29,84
38,-70,41,-53,-31,148
44,-63,37,10,-34,177
52,-42,31,-254,-13,171
65,0,27,-1617,303,99
64,21,27,-1972,187,105
79,63,23,-2413,333,-23
100,115,30,-3279,442,353
93,62,70,-27,-239,421
117,-125,65,-494,18,-422
115,-117,68,-723,-32,-241
108,112,56,-274,-16,78
100,93,56,296,-324,81
115,126,49,-474,-3,195
120,111,65,-237,-169,-139
126,93,97,322,-12,94
117,105,-52,180,-97,-453
126,126,62,-2253,4558,-1470
117,40,112,-454,4386,-1273
79,119,112,-1217,4671,-1432
-19,89,50,-874,4456,-1461
73,-80,-22,1121,3546,-1175
-122,50,-83,-2476,2708,-1437
22,-110,-95,-679,2742,-1094
-65,17,109,1804,3655,-1207
42,11,-81,3301,2973,-937
-121,-29,-119,1369,1514,-1822
-7,71,77,-860,-1239,-1267
56,31,22,-1383,-1980,860
90,-102,-56,-1796,-1997,1297
125,-14,18,-1056,-2169,945
-100,106,23,-1678,-2647,-113
-47,96,54,-623,-2944,613
23,121,43,244,-2430,442
55,-98,65,343,-2778,595
97,-28,49,-885,-3590,295
-94,-83,71,250,-3876,244
-59,-78,118,1193,-3013,-902
-113,119,-64,1775,-3272,1009
-78,-21,35,91,-4795,782
89,-58,-21,3293,-1922,-902
-96,73,-101,-2868,-6434,-367
-16,95,113,3519,-2743,1157
-88,97,-114,884,-3376,1025
-119,114,-67,-1362,-2742,1041
6,-95,-35,2379,-1067,1128
-117,-87,-110,-1877,-1821,1051
75,14,-23,8670,-851,2003
89,30,-31,-2448,872,-711
-107,65,-43,-2979,351,-1050
110,-123,-75,620,11,303
77,-100,-74,2124,-424,796
99,-50,-59,1457,-315,621
-116,-44,-82,806,377,326
-84,-103,-108,1593,385,89
-90,-65,-102,315,53,-69
-92,-98,-93,-62,22,-186
-83,-102,-108,-545,382,-197
-85,117,-122,185,266,-59
-58,113,109,428,138,108
-50,-113,106,-264,-96,288
-61,-109,101,-199,-121,311
-49,-107,107,-54,-157,273
-35,-101,109,18,-155,367
-25,-117,105,704,-308,342
-1,-108,111,864,-400,417
6,-94,115,205,-340,303
56,14,42,-461,5073,-3001
35,-11,13,-1123,3417,-4135
-30,85,105,296,4677,-3540
-79,119,109,-2292,2144,-3068
-23,119,-124,-3604,2462,-1779
-128,123,-47,-234,3008,-597
73,-33,-126,660,3490,-1641
123,-24,72,-535,2183,-1581
65,-114,-20,1394,2956,-1133
-93,92,28,-157,1529,-1235
32,-34,-67,892,-25,-1052
-39,122,-72,621,-220,-713
-37,115,31,-350,-1496,740
9,-63,118,-649,-1600,1017
60,32,-95,-658,-1833,1199
-126,71,-86,-287,-1877,1082
-76,-72,-83,-1125,-2847,1167
-13,125,-105,-1320,-3494,1083
0,23,-49,-2162,-3590,310
-99,-110,1,3077,-3463,977
-35,-39,-84,1360,-3260,-112
64,32,-90,-191,-2633,1010
-122,-25,81,2924,-6248,1849
86,-71,50,-450,-4865,1576
12,87,91,-648,-4279,750
57,-12,101,-140,-4201,1380
32,-27,-111,97,-2204,1761
-114,-40,-34,65,-4227,1378
104,-89,-82,582,-2012,2314
-38,-95,-22,1238,-2718,659
-36,-97,35,9967,916,885
-127,-120,-70,-2051,1006,-1539
91,-108,93,-3488,23,79
68,-57,-28,-568,101,41
120,-53,-73,866,933,42
-92,4,-111,-735,899,-17
-73,19,34,-2396,854,-64
-108,-37,38,-1388,168,242
-96,6,53,-770,-263,360
-60,105,86,-2660,-249,41
-76,38,-109,4,-615,230
-45,80,-96,399,-256,204
-51,-93,-20,-956,-668,387
-68,71,-51,554,-152,127
-52,101,-114,-316,-212,154
-33,22,-122,532,158,12
-41,27,112,415,-1109,-54
-17,19,90,289,405,-627
-30,21,91,21,-134,120
-19,4,74,-150,66,146
-86,-124,5,-742,5018,-2462
-49,-101,41,-721,3983,-2536
-92,72,46,-753,3847,-2117
-20,72,-44,-1706,3483,-1740
92,81,-42,-1596,2952,-1105
-15,46,-20,-1067,3755,-825
94,-14,-26,257,3212,-461
17,71,-63,-1788,2879,-643
-120,-86,-41,-548,3212,-658
-1,-127,-54,209,2234,-24
-38,79,-101,444,2619,-68
-73,63,-26,1955,2300,98
73,110,-75,-198,477,-381
-67,78,123,-1622,-1048,-525
29,-24,125,-233,-951,75
4,5,-74,-23,-1327,628
59,50,-52,-620,-1613,172
120,50,-52,-358,-2299,660
-80,73,-75,-322,-2226,420
-47,72,117,-551,-3183,440
93,-118,-45,-365,-3624,716
127,-88,-41,-586,-3842,150
-86,-105,22,763,-3000,-568
127,-53,-123,-2247,-3924,-674
112,-51,81,2419,-2985,603
113,-65,122,-498,-3316,-198
45,-115,-70,585,-4535,637
-81,33,-98,2396,-1775,800
85,-69,14,-32,-3679,307
91,108,72,495,-3426,1302
67,121,54,-82,-1858,337
24,98,-109,-258,-2440,686
-19,73,-121,-813,-1950,-410
-15,-61,63,2469,-804,784
-100,47,-59,-54,-1053,647
86,-18,-127,39,-273,754
75,-62,69,1525,60,578
101,-45,36,1468,130,303
-98,-40,-72,1573,937,189
-115,-124,113,1382,693,-830
-88,-41,-46,-306,-868,1118
-87,-21,-14,-337,-635,1066
-99,-101,-80,1434,434,183
-89,-40,123,-137,687,-302
-73,-74,-109,-530,-241,261
-84,-126,-75,1120,-484,270
-68,117,-118,1943,457,161
-46,-61,109,-361,279,42
-47,-86,98,-773,-228,130
-22,-111,98,-539,-107,-20
79,47,71,-3364,-5158,-778
82,61,113,1395,-2164,368
14,-60,122,-577,-4244,448
53,-28,-34,-1226,-2855,-1492
11,61,-19,1904,-2355,-123
80,-111,-116,1878,-1972,1056
-82,-53,1,-1423,-5334,-62
-6,22,22,-244,-3787,-1023
70,-38,76,1844,-2026,609
127,-41,99,1040,-2677,494
-19,38,-18,4070,292,921
117,-19,77,115,-1779,462
-52,-124,-118,1829,-2129,2463
-31,14,92,1538,-2017,3136
-35,123,-88,2810,-2433,2130
-54,37,-96,-2152,-2084,1304
-99,-80,-51,-902,-726,70
117,0,-110,1441,1197,-357
78,42,79,220,536,-312
71,-16,3,420,218,-432
100,-68,-10,536,604,-239
-83,-5,122,-1857,1331,-406
-91,-90,82,-627,614,-522
-67,-81,66,279,254,-168
-75,-28,93,-18,-203,-273
-82,-15,110,-19,-280,-299
-30,-51,-108,459,-839,-266
-30,-66,-99,711,-86,5
-41,-77,97,386,441,-604
-34,-78,109,-140,262,-533
-25,-105,93,41,39,-177
-18,-75,76,-832,114,-11
-29,-100,67,-49,-112,363
-35,-102,59,398,-372,565
11,-20,84,-1063,-303,791
22,-20,71,-664,-67,756
30,-9,67,-339,-34,329
35,-2,65,-239,-208,155
24,-17,65,-64,-110,233
33,1,66,-561,-27,267
42,0,62,-184,-150,173
53,6,66,-224,-80,86
63,3,66,-241,-45,-14
52,-20,65,53,-10,-16
56,-18,59,-175,125,51
65,-25,23,-211,172,57
71,-23,19,-275,-152,179
76,-4,24,-583,-99,144
79,-5,36,-406,-61,166
88,23,45,-770,-146,131
50,-60,2,-2070,4508,-2615
83,116,45,-383,5688,-1815
-2,-88,108,-873,4353,-1941
-74,-77,112,-1466,4298,-1537
62,66,109,107,4032,-1211
-60,71,-118,66,4255,-665
23,85,41,-430,2005,-865
-4,22,24,338,3757,-1240
-104,109,-90,-1902,2116,-1896
-120,-111,25,163,3210,-2071
-26,1,-84,1953,1787,-1358
-106,-43,-42,1243,1114,-79
116,-88,105,-242,21,-472
-125,-122,-105,-400,-1834,518
-124,-48,116,-811,-2127,769
-117,-110,-34,895,-2124,1234
-57,-14,-28,126,-2105,1402
-43,57,-77,-833,-2726,1316
9,101,16,-1027,-3368,973
107,77,-1,1322,-2560,1959
-109,-98,-89,-333,-3370,1546
-99,-12,93,-924,-4144,652
105,-78,63,1198,-3150,2054
-73,34,-127,3510,-2917,1637
60,24,-87,-1044,-4861,2017
94,-45,-3,-790,-3056,1694
40,83,11,1611,-3352,1536
63,-56,29,-907,-1869,1531
-5,92,-25,1479,-4081,2134
83,-89,26,-567,-3198,1918
4,114,-66,2126,-3363,2720
58,-27,70,3598,-2611,2735
-22,98,52,960,-1677,539
-63,-103,-44,1220,776,-733
-114,116,102,-538,1341,-478
80,43,-21,-2129,984,-235
49,-25,-73,-1121,207,497
95,0,-59,231,-371,985
-109,54,-113,42,172,22
-98,33,-125,41,106,-494
-75,20,-120,-222,-88,-676
-70,-39,-118,562,-43,-544
-97,-113,-114,1953,-309,-510
-101,-78,-63,-770,0,-669
-62,113,-12,-1015,742,585
-64,-115,109,1216,-374,647
-30,-87,94,1337,-318,505
-21,-56,95,466,-18,423
-30,-37,60,-582,245,164
-35,-59,62,-350,-35,236
107,42,119,-6384,1398,1081
115,-11,122,-549,716,760
-125,59,103,2069,112,-770
126,87,94,1029,-811,-68
-112,55,-128,1264,-457,519
-101,111,-115,1011,-353,112
-80,127,-127,61,-215,72
-70,125,-128,-1122,145,142
-70,88,104,-1339,418,65
-68,60,86,-590,221,91
-37,39,81,226,-155,193
-62,58,80,766,-134,55
-47,16,26,1504,587,-178
-39,14,-9,1193,-29,-253
-29,-17,11,956,-350,64
-14,-43,51,1683,-293,289
-16,-25,71,1699,-456,401
-13,-8,66,922,-296,229
-2,-23,76,385,-14,-104
15,-70,66,376,-57,48
35,-28,70,-1432,347,101
43,-74,17,-1475,912,-177
10,-114,-6,-71,429,1
13,-46,23,-722,-273,-114
82,-54,48,-124,-81,-31
110,-33,44,381,-94,152
103,-53,38,1308,593,36
100,-13,17,-58,391,-818
100,41,-107,-1502,-227,-1031
-107,-105,106,-1569,758,-1311
-54,52,-35,-1545,232,-1138
-81,51,4,1244,6115,-1839
106,-82,-17,-1915,3555,-3413
56,6,4,889,4533,-1990
48,-128,52,-2332,3080,-2667
35,65,59,-1400,3611,-1341
-63,34,65,-1414,3867,-1274
71,48,93,-1658,3230,-1239
7,5,56,-1499,4062,-864
106,15,109,-1528,2823,-341
98,-21,52,114,3534,-678
17,-20,-30,1372,4273,-1219
67,-80,44,-1456,2434,-737
18,-50,-26,1245,1655,332
-64,-13,49,1501,1646,-70
80,23,-93,-1072,107,-29
61,-113,2,599,-1355,379
89,26,97,-1988,-1869,1003
123,3,-64,-1175,-2063,300
-68,41,-55,-505,-2711,877
-86,-62,22,7484,-875,892
109,45,-99,3459,216,-433
111,-101,75,-1901,175,92
75,4,-25,-2120,-40,3
101,-84,-40,-355,178,130
-84,-88,-114,-204,972,-120
-104,-78,-118,-709,259,-427
-109,-109,-119,94,-79,-96
-103,118,-119,1216,-143,4
-82,-114,-125,725,-63,20
-84,-109,-124,182,-274,245
-84,-90,-121,-584,-205,228
-68,-89,-124,-609,61,131
-60,-103,121,-64,19,132
-47,-84,113,-95,-177,239
-40,-67,117,-293,-81,158
-38,-71,103,-142,90,-17
-26,-96,95,253,-61,94
-24,-83,85,-104,-63,227
-17,-67,84,-492,-29,262
1,-42,75,-750,134,64
7,-51,70,-549,40,92
24,-15,65,-1276,122,92
28,60,43,-3528,383,-150
46,91,14,-5099,784,386
36,25,78,-1461,-146,970
71,121,115,-221,-593,-33
92,-108,123,-372,244,-439
88,-70,109,-1528,232,280
78,-87,101,-1395,-206,123
94,-62,101,-1364,13,-194
95,-63,-119,-1068,46,-195
92,-85,-115,-377,62,-289
85,-98,-125,120,-72,-61
95,-67,-116,-1128,15,-7
94,-97,-95,-209,120,309
104,-81,-33,14,205,-406
-113,-71,111,113,795,384
-112,-70,14,800,1203,-296
69,9,15,-243,2917,-755
29,-9,-9,-515,4757,-1053
-92,-43,3,8,4399,-1164
-98,-106,32,537,3772,-724
-100,4,67,-1710,3995,-1018
-102,-68,117,-4,4063,-442
-104,9,-66,-231,4888,-479
18,20,-86,-1048,3014,-488
-22,-58,90,-286,3918,-399
56,3,96,-1817,2194,-544
49,-110,6,-208,3390,-36
-127,-117,26,-2213,-4583,1641
-72,-60,-42,2488,-3146,1755
-4,35,44,-132,-2328,714
-13,53,-12,-413,-2986,205
-103,-64,-33,-1011,-4565,491
-76,76,67,368,-2105,620
73,115,-109,218,-3879,456
52,-11,-117,1882,-920,1689
-63,112,55,-141,-2009,1218
-67,84,107,3266,-237,3124
106,-52,-74,7445,613,1218
92,-86,-27,-5300,844,-1314
115,27,65,-3909,214,-1006
-102,96,-80,303,-31,155
-42,-110,115,1726,794,171
-56,16,95,-1608,270,-217
-65,-31,82,-1768,-31,116
-49,-40,103,-370,-112,272
-19,-5,94,-392,-11,24
-19,20,95,-572,-209,233
-31,19,108,-436,-346,26
-18,0,-128,166,-278,205
-11,13,-127,22,-173,172
-6,2,125,191,-295,187
2,-6,-118,591,-455,186
15,-10,120,504,-241,133
13,0,109,-351,-95,81
12,-17,102,-185,-150,32
20,-9,102,-288,-314,12
34,-6,103,-569,-106,117
30,0,112,-289,-78,264
38,16,79,-514,5,-193
47,28,71,-1066,165,128
46,26,63,-687,-142,248
53,6,73,571,-435,174
57,-39,75,1662,-501,-27
84,31,43,521,242,-203
80,26,42,-998,389,-341
75,-17,36,-539,1,113
83,-39,43,-284,-154,93
91,-14,48,-380,-114,278
91,0,46,-138,-19,91
85,18,61,-190,-231,60
78,51,125,-494,-218,-490
127,-119,41,-729,229,-188
-72,-60,107,-897,1362,-1638
35,-59,-19,-533,3533,-1260
102,7,-15,215,2201,-1378
54,76,-22,-786,3510,-1207
50,64,-7,808,3559,-1930
-48,-36,23,-2171,5030,-2307
-54,54,70,173,4793,-1509
84,-110,77,-2687,3947,-1768
55,54,80,-456,5079,-713
-121,80,11,-1068,3925,-1094
52,-51,-96,335,3874,-1258
76,22,-47,-2569,3214,-1366
0,126,-91,1308,2282,-637
107,-120,-2,1727,2114,-1795
-63,-46,-65,1285,2591,-839
32,35,30,-1402,-453,-4
13,-1,79,-1069,-1475,510
86,-97,54,-664,-1676,969
-126,15,-69,-753,-2338,993
-58,98,-37,-1441,-2837,844
70,92,-12,-28,-2928,697
103,-90,-32,-65,-3383,266
-62,-68,-30,-846,-4288,336
56,124,43,2249,-3338,24
26,-4,24,-738,-4562,175
-30,6,-108,-408,-4345,-37
27,75,-76,2411,-3527,508
-53,-74,-34,1290,-3497,326
-35,-113,19,1638,-3662,1022
-90,61,61,475,-3513,1442
-27,68,110,826,-2979,1874
109,110,-80,354,-2565,2005
-9,119,-59,1433,-1841,1379
-63,-124,-124,1728,-1398,1111
123,-85,-44,462,-1009,-18
92,125,-42,1318,-562,-163
125,-59,-56,709,1518,-242
110,-2,33,-1701,173,-184
108,-95,-84,213,-92,260
123,-49,-102,-196,186,381
-119,-10,117,-883,-65,302
-102,-33,126,-483,-237,56
-86,-25,124,-521,-148,45
-84,-12,118,-707,-74,-120
-81,-40,122,75,-72,-4
-75,-35,124,-87,24,9
-65,-67,-119,-99,139,232
-56,-52,-127,-254,-126,225
-47,-33,113,-203,-119,148
-27,-9,92,-385,33,136
-28,-2,84,-283,-33,110
-19,-5,73,-135,-74,110
-9,-11,68,-171,-18,171
-1,-3,70,-156,-110,90
12,-19,74,-151,8,121
-11,44,-27,2398,-4261,2317
-39,82,71,-2063,-4903,-315
44,-66,-18,-146,-4752,676
116,62,-11,1047,-3036,814
-67,60,23,803,-2440,1379
-90,88,50,-1068,-4270,1399
-97,57,91,1017,-1443,1746
99,-56,-16,-1050,-3522,1650
59,-100,-53,84,-3034,1161
-19,-98,28,3491,-3321,1412
-63,96,35,13988,-780,338
-110,106,116,-3697,25,-1520
-66,-79,8,-6662,1831,-1259
103,124,79,-2732,1106,-690
86,-76,63,-1985,-205,477
-126,78,96,-3910,-213,841
-99,72,81,-3279,-165,182
-102,75,119,-457,-628,-88
-75,61,-120,170,178,-483
-96,-79,-92,-511,-112,691
-112,-74,119,1669,-265,288
-69,89,80,852,-302,-130
-62,84,93,546,-96,155
-62,64,81,-5,-13,114
-61,19,93,-6,-148,206
-48,2,104,-88,-80,211
-35,21,80,-194,-67,104
-29,17,69,-167,-44,101
-28,6,62,-195,-103,139
-18,6,65,-117,-89,20
2,17,55,-297,63,74
-7,20,34,-99,-142,118
9,21,45,-237,-19,112
12,12,48,-260,2,65
26,-5,37,-124,131,-63
28,-1,21,-103,-58,92
37,10,27,167,-37,35
46,37,24,-249,-9,150
49,31,29,-249,-41,42
60,18,27,-686,-103,210
59,-5,18,-214,-6,120
61,5,20,-56,-8,50
70,-3,74,-17,-18,-105
117,83,117,-607,-95,199
119,74,-59,-414,161,-892
-79,5,37,922,1316,86
-27,49,-125,656,1740,-901
65,-123,-96,-369,1468,-1224
-48,-85,-113,991,2255,-2189
92,29,-36,-1635,3981,-1080
2,46,64,-2827,-5048,127
-114,127,104,-287,-2857,347
100,58,44,926,-4418,592
98,33,68,376,-2989,1111
57,-5,108,884,-3360,1509
92,31,-100,749,-1943,2007
-15,80,74,660,-2076,1834
-11,77,45,1301,-1045,1875
-85,-99,-94,1989,-740,1070
-125,-45,124,-301,-626,-74
119,71,90,966,40,157
105,66,60,284,187,44
101,50,13,-55,-67,246
107,10,-56,-231,187,157
-125,0,-69,-456,227,-87
-94,-7,-115,-534,220,-190
-78,-30,-128,-142,139,-210
-72,-54,122,70,114,-147
-64,-42,100,-522,89,12
-56,-47,94,-400,-108,-33
-45,-35,109,-402,-125,76
-32,-9,116,-430,-93,22
-28,-22,124,-12,-65,226
-20,29,115,-565,-133,4
-9,-6,119,-84,67,114
8,23,104,-430,84,13
7,-7,83,42,11,132
22,12,72,-230,42,-4
30,15,66,-372,-73,83
42,0,66,-34,-13,103
42,20,56,-304,-75,-81
45,-3,68,-63,-132,120
50,19,67,-428,-115,48
53,6,84,-112,-122,107
60,36,78,-638,-39,48
58,65,96,-1102,-22,-162
58,98,-105,-1508,-60,79
83,81,-69,-550,583,-18
109,127,4,-456,334,97
-84,127,65,218,1014,-339
-13,-87,112,-147,1764,-622
78,-96,-110,-254,2301,-1004
-109,113,-95,323,2529,-897
-21,-96,-41,28,2748,-1211
6,-84,2,318,2759,-1282
114,-65,17,1319,3807,-1061
-103,-11,61,1138,3501,-2078
-115,43,81,-35,3659,-1984
62,16,83,165,3385,-1928
5,20,47,175,3441,-1931
-11,14,-127,-2792,-4844,-1197
61,41,50,3353,-3591,-153
4,34,87,-2459,-4899,-1269
7,-16,-34,1910,-3610,201
-8,120,-20,911,-3845,-346
-56,75,-13,-43,-3690,63
-100,7,12,810,-3736,859
-128,29,50,1003,-2935,254
79,2,97,367,-2231,948
-9,-24,52,1294,-3060,1655
29,91,87,284,-2110,1648
-84,92,69,-283,-1809,252
-59,-25,31,3154,-995,1112
-99,123,117,2040,-944,446
118,78,-120,3746,-668,122
116,40,116,1204,579,-194
108,-23,76,-712,260,-20
-126,-30,-42,-1448,-48,216
118,-60,-76,-360,-186,-50
-107,-86,-110,-79,212,-411
-87,-69,125,-630,304,-404
-96,-112,116,-221,92,-185
-91,-106,111,-196,-77,-108
-69,-107,107,-472,3,149
-71,-116,101,-336,112,335
-47,-56,95,-537,-218,501
-40,-30,95,-694,-175,219
-39,-53,100,-114,-126,380
-29,18,95,-891,-144,255
-24,-1,97,-525,-32,314
-10,20,87,-827,169,291
-5,33,81,-441,-126,91
10,3,73,211,-143,-81
4,16,60,-253,-120,-124
2,-27,55,-173,10,151
13,-19,55,-214,-91,262
32,-16,65,348,-129,148
51,2,65,-229,25,58
39,-5,61,-854,370,-13
57,13,37,-1688,797,96
68,-9,39,-974,162,709
94,18,38,-416,-435,479
75,62,33,1102,-629,-355
92,112,42,461,-467,-491
62,46,24,308,-325,-377
39,-64,17,116,-342,173
78,8,59,-530,-225,1086
116,48,87,-242,187,-579
96,18,-104,-647,357,-2
70,68,-26,512,94,-283
-28,-64,-2,708,4762,-2675
2,25,36,-1101,4116,-2671
-104,-36,64,-1036,4133,-2244
66,-37,87,-312,4628,-1401
-110,47,10,-2284,3437,-1703
35,-40,-33,-406,3852,-1045
-70,34,-42,-1567,3683,-1229
15,0,-22,-2544,2968,-911
-51,91,-17,2122,4012,-266
68,-29,83,-1507,2069,-648
29,-13,-94,2197,2392,14
-120,34,61,446,690,-382
44,-52,-26,-707,-634,-105
27,-77,-105,-478,-2170,606
106,61,-88,-601,-1814,692
126,110,-45,-49,-2833,665
-43,85,-58,330,-2232,527
34,-97,-40,-902,-3150,521
105,121,-9,-189,-3308,515
-44,96,-6,343,-3564,643
10,89,-37,-405,-3996,898
62,121,76,1493,-3156,-48
-15,86,-7,-655,-5212,1987
112,94,56,-213,-3672,1580
-13,-31,-23,-1033,-5030,637
0,97,44,-134,-4621,1188
22,71,98,663,-2674,307
2,87,-100,190,-3517,1952
124,-111,-67,313,-3909,2142
57,-30,-111,1213,-2935,1965
-57,112,-81,-276,-3258,491
-62,-113,96,4739,-1300,-527
115,-65,51,5825,-423,-390
114,60,-82,-3995,1924,410
78,88,14,-2020,1069,-263
113,-12,-48,1932,888,-465
114,16,121,1640,516,-1161
-117,51,72,-2718,571,-1063
-118,10,31,-4837,493,90
121,-115,56,-2848,348,852
113,-71,92,1048,-399,-146
-105,-54,109,1528,-663,160
-77,-6,123,1658,-420,261
-80,14,92,1898,-211,75
-73,27,80,1137,-156,21
-58,21,88,-4,-81,107
-56,-10,92,-123,49,168
-59,-46,106,-301,63,114
-48,-52,93,-353,43,57
-39,-51,72,-70,-90,88
-64,40,34,6316,3867,1075
-87,42,-26,-3547,3303,-2652
0,-94,-23,2785,4553,-1570
-67,-31,-11,-14,5204,-2491
21,-103,40,404,4988,-1931
-64,-25,92,-1075,4625,-2557
70,-40,49,-547,4479,-1451
107,-8,21,-1034,3626,-1564
-48,8,27,-880,3335,-819
117,-9,-34,-1197,3471,-1243
-54,-26,-35,-83,2642,-722
-113,-44,115,190,3033,-740
68,-120,90,365,2662,-1040
-53,3,69,1690,1941,-103
-78,22,116,-109,573,110
122,-74,91,-65,-829,-563
114,-87,4,472,-1843,599
121,-45,94,-781,-1820,880
-95,31,-63,-971,-2780,994
-34,58,-32,-545,-2875,957
52,36,-31,339,-2921,1216
77,-125,-14,-628,-2855,711
-102,78,53,1167,-3062,1714
-53,-120,-19,-1298,-3379,1531
-49,-106,95,-609,-3974,-165
-35,82,-112,2462,-1964,1993
-124,-90,33,-1025,-4984,1101
14,-79,-119,1050,-2413,1630
58,-44,14,-297,-5973,1644
-70,-74,59,-865,-4120,1672
-69,113,124,442,-2876,2534
57,-80,-86,709,-4069,1359
10,-78,-101,1957,-2299,2699
-82,54,93,309,-3188,1347
-46,22,-123,8997,-1060,735
119,-9,114,1581,917,-2508
127,-105,67,-3655,820,-287
76,-44,-25,-1153,70,-102
61,-88,-72,1209,30,443
112,-30,-77,718,178,-82
-96,-34,-97,351,490,-476
-87,-95,-115,954,229,-433
-94,-94,126,274,112,-492
-85,-103,127,-535,89,-383
-77,-121,111,-901,172,-134
-84,127,104,-590,-144,208
-82,-92,114,-1064,-218,479
-68,-71,117,-1040,86,882
-55,-50,110,-1492,304,1137
-19,15,113,-2271,347,1379
-53,-4,8,6218,-2721,2007
-114,-4,-108,1095,-60,1524
-108,18,9,-2087,-120,-1068
-89,-117,16,238,510,224
89,80,84,-691,-30,-24
32,3,-98,-1043,-223,-424
58,-85,15,-2098,-1101,330
-85,-24,111,120,89,725
-44,47,-125,-1527,117,-1069
33,-41,7,181,3040,-341
74,10,-12,3525,4540,-927
-62,28,-24,-1732,4892,-3364
-125,65,-5,2910,5975,-1215
-103,-94,34,413,5074,-2558
-13,-9,69,-1214,4034,-1849
111,-35,-62,-1429,3980,-1275
-69,-86,-116,432,4355,-1029
38,31,-81,-1736,3454,-1443
-87,-123,-86,956,3340,-1016
-37,-41,-122,-547,2881,-1298
-90,58,-110,2404,2252,-736
12,42,-62,2078,1844,-648
80,-45,-87,214,2002,-1518
16,-98,-125,-947,577,-684
-17,82,-85,-119,-1141,471
33,-61,74,-1167,-1617,783
-124,51,127,-2019,-1685,1176
110,-126,-50,-2216,-2706,610
-51,102,49,-485,-3337,901
20,109,63,229,-2584,525
86,-103,-51,-650,-3003,844
123,81,-40,631,-3259,219
-111,105,17,708,-3092,955
-114,-103,-8,-1084,-4024,425
-82,117,113,-462,-3883,758
-45,-121,-94,325,-3790,659
-51,-103,-3,220,-3482,755
-85,-122,2,125,-3952,819
-102,60,25,853,-2946,558
124,57,84,1112,-3266,1731
85,123,114,-392,-2831,1772
37,114,78,681,-1891,1598
4,48,59,-3368,-1414,403
-75,11,-50,-2663,-2587,-243
104,2,-22,13868,-1812,1643
-124,118,49,-1769,2382,-1634
-78,-58,-107,-2485,-195,-1037
-102,-51,86,-1012,1333,-486
88,-84,18,460,375,1084
113,85,56,-2613,-812,945
113,-55,-28,815,6145,-1470
-32,5,-14,-11,4717,-2032
45,-5,-85,-121,5482,-2053
-99,21,-105,-478,3876,-3026
46,31,126,-704,4139,-1906
67,-14,-24,-607,3751,-1586
-111,32,-72,-2581,3037,-1161
67,-64,-67,-606,3019,-627
-47,-74,-101,30,2854,-1128
65,-86,111,-679,2232,-444
39,4,12,2468,3251,-756
-52,-39,-50,1343,1858,-753
74,-123,58,-263,-349,-423
78,63,38,778,-1276,458
48,-98,-103,-338,-1681,1404
125,80,21,-2678,-2387,1618
-78,20,-17,-237,-2477,852
-60,-114,-42,-1210,-2777,784
41,106,-75,-478,-3238,1015
-124,74,-59,694,-3352,995
-121,-62,-35,-2083,-4210,477
-9,-57,-37,1622,-3045,756
109,97,123,-481,-3632,1492
5,97,108,-2098,-5695,-105
107,69,-76,2826,-2630,1837
-23,-16,-8,184,-5188,563
69,-8,78,1094,-2958,793
-52,103,120,1513,-4074,1589
-95,111,-96,1286,-2282,2578
35,43,44,-2503,-2792,1797
52,108,-61,24883,-3837,5741
-3,13,-97,-9137,2671,-3879
-75,-78,-67,-9329,1619,-1628
-119,-107,24,-408,2404,-1007
77,90,90,2944,151,1374
93,78,57,-1623,-741,849
-106,91,20,-4047,-247,-214
-98,-27,-108,-394,-1230,1029
-111,78,52,-725,-909,766
-59,-109,-70,-2655,1584,-218
-105,4,-93,-81,334,-882
-70,29,-34,214,-815,389
-69,126,-47,-139,-452,150
-41,92,119,542,335,-414
-37,23,123,333,-58,197
-74,-15,-126,867,-810,782
-70,37,98,1076,-393,203
31,16,64,499,392,-78
4,11,97,-600,-111,336
