AccX,AccY,AccZ,GyroX,GyroY,GyroZ
36,80,90,-659,5134,-4694
-74,33,88,426,4269,-7747
55,-106,79,1338,4426,-9283
22,-104,110,196,6745,-9155
85,5,-41,-616,8944,-7182
-86,-92,-1,-4386,6424,-3535
79,-88,-80,-3243,4442,4865
-59,-4,-4,-6368,529,4155
-13,-68,-33,-3087,-3577,4656
-85,-31,-77,1391,2913,-4141
-38,-17,-18,5891,-2436,-7278
22,8,17,4227,-2398,-7021
-25,-94,108,3799,-443,-6050
108,88,64,1146,4885,3864
20,105,52,-8070,733,6508
-41,-29,-8,-4991,1723,4620
-49,-79,-127,-4973,564,3497
108,80,39,-474,-3079,6064
27,-90,92,1148,2133,-2512
-119,-128,-45,5031,-1957,-4666
-2,125,-21,3568,-3221,-6476
59,90,77,3859,-3893,-6458
-24,-89,-85,1819,2014,-2819
-63,-109,43,-669,485,4327
40,46,8,-4608,-301,7890
-28,92,115,-3617,-4415,7279
-84,-56,-86,-1913,-7044,7970
-31,49,45,-2820,-10851,7535
14,56,-123,1550,-6288,7772
121,-113,3,-3664,1849,5905
-99,38,-71,2734,-2202,-2592
-45,-16,-108,-2352,2965,-1085
50,106,104,-400,-1613,1666
54,19,44,-705,1031,-74
-1,59,107,195,-41,-633
30,74,115,-604,698,-236
31,32,126,-119,207,-367
74,73,116,-872,653,-235
51,-4,119,-25,202,-119
77,58,126,-127,318,-315
-48,-68,-40,3977,5250,-8114
-92,-71,103,3379,503,-10928
27,65,99,808,2038,-11415
78,54,-122,-1308,4834,-12366
-125,87,-86,-5957,7376,-5154
-26,55,-100,-4167,3565,5388
94,42,31,-5525,581,6228
-107,-41,-94,-3378,-4072,6980
-116,49,-39,2079,2106,-3270
121,-60,89,5526,-928,-7033
-25,80,114,4405,-3079,-8469
-121,-8,97,2661,-3259,-8603
-72,-98,43,3735,2780,2003
45,25,-30,-7395,619,9921
50,-78,5,-2967,2630,6134
-26,-56,89,-5295,1781,5581
124,2,2,-575,-22,5751
-86,-100,-105,2382,2007,-2605
24,79,20,6145,-3617,-7755
-3,-73,-78,3437,-3475,-8780
125,17,-119,2358,-3679,-7945
118,-47,5,2940,5356,1522
72,-99,114,-3433,57,8412
-108,-97,96,-2892,-1761,9898
-86,20,40,-3041,-7203,6271
62,-63,-53,-4797,-12432,8578
-75,-46,83,2435,-7891,6931
118,76,61,33,1649,10668
58,-110,100,-2177,-4546,-1798
99,114,9,-1636,5718,-1913
110,-105,-104,2613,-1595,1449
-30,69,-124,-3444,161,-367
39,36,14,688,1201,-389
32,-113,-118,-802,1142,-536
63,101,-119,-928,1126,-863
61,69,117,659,-162,8
92,-110,-99,-449,401,-499
78,76,-104,316,284,-264
64,94,-102,506,-25,-233
74,40,-107,576,-38,-235
-3,-20,88,3599,3781,-3635
100,37,103,4709,6331,-10206
89,37,-111,2742,180,-6676
-2,77,-46,561,7126,-8351
-2,-41,89,51,10354,-3191
-69,-126,-119,-1525,6602,2778
-41,48,54,-700,599,5424
46,-20,-17,778,-2051,-8525
-11,84,90,3272,-4463,-10365
-80,19,-63,3228,-6306,-8483
-85,-23,44,-1317,4242,-5988
-14,93,21,3174,2156,1813
-19,103,18,-6710,3152,9369
-125,54,109,-3319,4933,7120
-28,-60,-35,-5039,3613,5059
33,-19,-54,-3297,-2197,6002
110,-128,-89,1354,-1391,-449
118,87,48,2924,-1403,-9935
70,31,56,3903,-4990,-8119
53,58,30,4715,-3844,-7357
-16,-28,-33,1504,1046,-5427
27,-70,-37,-1074,5316,2228
83,45,33,-6386,2299,9398
-106,-59,47,-4701,1698,8343
-83,99,-13,-3075,-2114,6352
3,107,-51,-5468,-7029,2704
-1,-30,101,-4031,-6452,-4707
8,25,112,3383,-9741,3895
24,75,-91,662,-11212,9172
-124,88,-100,-1667,1757,4192
125,-56,-16,1476,-588,4908
73,65,-31,-2363,-60,-3712
-38,-70,7,1174,3535,424
49,17,-90,147,-2329,844
29,-24,-49,-710,29,-708
19,46,-87,653,899,-702
12,40,111,466,333,-372
36,52,123,-576,-136,-441
25,29,-110,50,0,-296
20,17,-108,76,-9,-214
-70,-33,35,683,4925,-7788
1,-27,78,2157,3589,-11817
-108,106,-28,-886,1359,-10001
-90,47,90,-2888,5427,-12400
13,-115,51,-6933,4672,-4507
-68,30,-105,-3687,2878,8523
88,112,17,-2495,3477,6442
-93,-19,-88,-3918,860,6310
47,42,-17,272,-773,1844
65,-52,-122,4024,3031,-8550
-104,-35,63,5163,-3569,-6550
28,88,106,2214,-2691,-8216
83,-21,86,815,388,-6043
120,-64,29,3043,2808,2896
-44,54,-20,-7264,2268,9142
109,83,-9,-3364,1635,7142
35,84,-100,-4754,2175,5332
-9,-78,-5,-749,-1910,7025
13,118,-6,3873,3931,-4998
-67,50,-42,4604,-2719,-6199
38,41,106,3305,-2201,-8744
31,-44,-49,4268,-4213,-6270
50,-120,-65,3163,-1925,-4069
-72,-124,-113,1435,-1329,825
-17,-40,-26,1005,1101,7294
125,115,-106,2386,-1517,11524
-32,-25,-65,-4418,-6539,7302
1,-85,26,-1011,-13595,12638
95,18,-128,-821,-4921,5664
-68,-91,-59,1173,-1634,9453
-63,26,58,-5601,-1876,-3234
-62,-37,-67,5307,2696,-3297
-78,115,92,847,-469,635
-111,-124,43,1137,-2445,1356
69,-51,13,-498,2905,-1338
-18,-17,-118,77,1530,-934
-11,9,116,474,539,-777
14,9,101,-478,562,-698
9,5,86,-150,103,-122
20,31,108,-114,-28,90
10,-62,44,2581,6358,-5581
-48,-121,67,4537,3368,-10215
24,89,7,165,2082,-8760
92,52,15,-208,2285,-10614
50,1,26,-1969,5420,-8285
37,125,98,-5108,2880,-2870
-62,95,-124,-6034,1325,10605
-62,-42,84,-2714,3622,7718
-54,106,-113,1092,-1122,3971
39,-97,-18,2564,4320,-10916
-32,-29,-66,4710,-3757,-6457
-97,-93,55,4110,-5604,-8115
-90,-4,-117,2849,-3294,-6249
114,-42,25,2589,3066,-66
-24,59,-51,-6032,2082,7204
-16,-70,-71,-3486,2263,7721
67,-41,-26,-4708,2820,5207
-120,112,52,-2710,-157,8496
91,80,49,36,-1976,1682
73,99,-45,3661,976,-10222
-77,114,-14,4314,-4021,-6433
80,87,111,3275,-3385,-7387
-77,82,-114,1685,-2265,-5531
47,-38,-59,3868,1068,-2389
-41,-56,-81,-4532,4003,4860
42,21,-113,-4366,1131,10524
27,89,10,-4184,1138,8187
-14,97,-45,-3338,-5660,7821
120,20,28,-7963,-9478,-1494
-19,34,68,983,-5463,-608
-48,1,-18,1588,-7534,2469
55,-59,-114,-1187,-6446,6956
-121,-67,-125,1824,-77,7848
29,-95,13,950,-3081,1368
-19,104,7,874,3532,-5310
-107,-50,-19,1102,3167,-562
40,105,103,-1185,-2941,1505
-6,106,-65,-475,312,-943
31,35,-107,971,1400,-568
-14,96,85,-710,731,-508
-1,-111,20,2685,6254,-11783
15,57,41,4347,-3942,-10915
39,103,-12,-1931,858,-13101
-106,-75,81,-7281,5892,-9592
-86,-1,-8,-4313,6500,1791
-22,-33,10,-2922,3886,8819
-81,-26,-23,-6072,2596,6097
-89,37,-5,524,-3090,95
18,50,-94,2952,4077,-9380
-83,-1,-102,4714,-3431,-5888
-15,26,71,2382,-4019,-7279
-3,97,83,608,2099,-4937
51,18,81,58,3410,6210
-46,81,78,-5431,977,9124
14,15,112,-2165,2979,5064
-31,-12,-100,-5609,-728,4957
-30,-113,-94,-1116,-1754,3813
-87,-127,29,3645,3193,-9681
95,-83,116,5409,-6342,-7372
-80,50,-103,1705,-2219,-7516
-1,85,101,1218,-3119,-5382
26,-93,-91,4643,2785,923
-40,-59,-71,-5966,4384,5960
35,-108,-54,-1520,1027,9788
-121,-111,-32,-1334,2457,7157
-6,-43,-20,-3909,-4719,2468
-7,51,-106,-7144,-9052,-348
-40,40,-32,4256,-7462,4194
-14,116,15,1960,-4720,4714
6,-102,-77,-2672,-3232,6926
-7,-100,-7,959,261,4309
4,126,15,4373,191,5175
103,76,113,-650,-2449,-1355
6,119,-56,-2792,1881,-3772
-73,72,40,2564,1194,-970
82,65,-123,1413,-458,1475
7,119,-92,-1532,650,420
30,15,112,-506,514,-317
12,-35,113,-145,-142,376
38,3,114,-9,157,241
68,-113,-87,2467,5228,-4763
127,-70,69,2853,3623,-10931
-54,110,83,231,1684,-9710
90,-48,-39,574,3743,-11281
-99,-28,39,-1446,1526,-8852
38,127,-22,-5872,3555,-3245
80,71,14,-3231,-546,8872
-88,1,-18,-6154,1323,5858
29,-122,24,-2184,-2101,7153
4,117,109,3904,6053,-6705
100,-28,-58,5432,-2475,-3969
-13,49,116,3587,-1261,-7833
-35,-15,-90,1419,-4941,-7048
20,51,22,4568,4076,-205
-52,-37,-30,-3806,1502,7146
49,16,99,-3487,-121,8778
121,-88,-43,-4683,2664,4170
8,66,-91,-986,-791,9713
65,-92,-40,-382,5185,-2871
-104,73,-117,6030,-1460,-6414
103,-97,-63,3590,-2999,-7266
74,-113,76,1864,-5815,-8954
50,-109,67,2693,-1296,-4139
-93,-104,-94,3089,2384,280
-107,-64,-88,-4432,3111,7755
100,74,77,-5040,718,10194
64,19,-54,-1704,1577,9073
87,-66,80,-4661,2965,1787
-116,90,63,2119,-4121,-2765
10,106,53,-822,-7723,-2
32,90,27,-1828,-5111,4381
41,-13,111,-228,-4521,4063
-91,-128,-87,-1296,-2697,4205
72,-111,-125,-583,-782,2726
46,-8,95,407,-354,4799
17,112,-28,-1798,-2545,1663
-42,22,-24,391,-1157,1620
29,18,-123,540,301,-2133
-36,118,51,789,1643,-2102
-81,-58,-80,1609,847,-954
58,-22,104,6028,6627,-15002
119,25,104,1863,344,-10423
-50,-67,57,-1208,5094,-11583
20,81,39,-3561,3672,-7147
69,14,-81,-3141,2278,1432
110,120,-86,-6350,-1168,8415
72,-47,-105,-1171,3352,8464
81,-29,-23,1093,4810,-3947
120,-36,-21,5403,129,-6824
61,-24,-87,4516,-1583,-5727
119,-110,-30,4507,-6682,-6186
41,20,-35,759,2084,-4334
-30,45,7,-1268,2187,6327
68,38,-101,-3284,2369,9136
8,112,83,-4616,2820,5069
-35,-76,-28,-4763,-1636,6292
93,91,115,-1055,1409,-479
2,-88,93,7137,-1054,-8299
41,-43,-56,4038,-5354,-7001
-125,17,78,3168,-3042,-7358
-36,17,121,577,-703,-5250
-55,90,-71,1897,3028,1310
-37,-4,-82,-7636,233,8076
122,32,-104,-2075,1053,5733
83,-18,-108,-2895,-2302,7820
-82,-96,58,-3379,-1354,-96
113,-31,-121,2245,-3069,-1655
82,95,25,732,-5608,490
-11,25,-116,2698,-5540,3759
115,-43,-9,1680,-4140,4190
12,-98,84,-2066,-520,1111
-42,-60,-119,603,-401,2489
110,94,43,2779,-798,5050
-13,2,-106,-29,-1812,6505
121,66,114,15,-716,2354
78,8,-120,90,-1143,1961
36,-49,88,580,-235,190
-24,114,37,824,500,-1188
-36,58,-50,63,849,-1049
-30,-40,-126,184,269,-611
-96,114,-54,3689,4594,-2268
-106,-24,68,1745,2831,-5537
34,-128,113,960,4603,-9061
-19,96,122,-37,3899,-8983
-44,124,-109,843,5194,-9729
44,7,-89,-2304,5996,-4737
98,72,37,-4007,2760,4045
85,103,-77,-7473,-690,6873
34,62,-11,-1387,-816,8838
-40,27,85,821,3913,-5356
46,8,-22,5593,-1744,-8275
87,-116,34,3044,-5871,-9280
-105,-94,15,1955,-2287,-8585
52,63,94,5029,6798,1043
123,80,-99,-8831,231,9001
-19,-92,20,-2367,1939,8277
-96,-47,98,-4335,2832,5743
-35,-3,7,-1456,-563,2650
73,101,-29,4420,2126,-8811
20,-112,120,4969,-7164,-7310
10,53,-43,2865,-4386,-8159
-100,-99,-65,2456,-583,-6424
-78,125,-49,3580,4442,-657
10,34,-29,-8697,2375,7379
-34,85,-11,-4954,-1406,10476
-80,102,62,-2540,1347,9087
80,-35,35,-1884,-1178,3152
73,-39,58,-3428,-4380,-6272
-87,-15,-41,3108,-5461,-685
95,-98,105,2544,-7492,6008
100,-92,-1,41,-5023,4264
23,-102,-127,47,-1214,3936
39,14,-88,-310,-624,4048
22,91,-16,2223,-1696,3270
77,77,-105,-405,-163,1932
32,-12,53,-1631,291,708
6,-116,17,375,-314,952
-24,-113,-39,724,-234,626
-3,-89,-23,-381,755,385
6,84,-88,284,813,-484
-38,47,-117,5172,4964,-5747
-7,60,77,1451,5589,-11161
89,-4,-82,3954,1408,-11068
18,121,43,-2624,-2511,-15592
-106,25,-59,-5602,11861,-8704
60,62,123,-8185,-1311,13638
22,-63,-102,-4331,2779,4916
121,51,86,-2710,-2035,8898
-3,-52,59,5807,6422,-7939
27,-33,35,4205,-6468,-6783
77,-58,88,3944,-4481,-8249
90,119,25,1922,-6839,-8824
109,-42,37,4325,7879,1460
-106,9,-71,-6212,1935,8303
108,73,-41,-2711,-367,9542
-113,44,81,-4844,5189,4428
101,38,-17,-1968,-1648,9958
-118,-70,72,4051,3621,-8159
107,-125,-127,4450,-6380,-8271
59,76,-4,2114,-4317,-7421
38,-26,54,-1062,-4331,-7552
7,-108,-77,5641,3714,1448
-7,-93,-88,-4999,4067,4257
-83,120,-94,-2266,1744,8132
80,-37,-93,-132,2362,7593
38,33,-82,-4685,-1603,5551
113,-36,101,-6555,-8367,6047
22,92,125,-3346,-7675,1588
112,25,54,2397,-5148,2023
-16,-80,-91,-954,-1420,2554
-67,-126,-61,1349,-1588,3456
-111,33,85,508,426,2537
-109,80,-63,38,-797,1616
27,-118,-113,-1943,-481,72
-5,-44,56,-542,110,-950
-58,23,-71,859,-392,-548
-77,22,-120,539,-10,25
-50,56,93,75,273,57
-8,55,37,142,-189,-53
10,52,46,-122,-187,-69
-19,-29,89,3848,9131,-8913
109,-2,113,5825,3711,-9043
-30,-24,23,-1268,2767,-11002
-95,-44,87,-522,570,-12935
47,-21,-44,-2567,137,-8622
17,-78,-12,-6657,3554,-1659
126,90,-3,-2569,2966,13344
18,-2,-72,-2558,6633,9093
25,-103,-78,-1548,-295,7389
71,-65,-30,-1193,203,-8530
87,-17,11,2956,-1871,-11542
-8,-10,76,4722,-4882,-7558
-103,73,-59,2687,-3408,-7790
55,-8,86,2580,4863,1155
69,98,1,-6946,4103,8896
90,74,86,-3875,2258,9899
-53,35,36,-5538,3451,6419
-118,121,-61,1408,-408,8516
-102,39,-25,2972,256,-10406
57,109,71,4749,-3036,-7555
12,-99,23,4253,-5462,-6947
104,94,-109,2056,-5354,-6851
82,100,31,1866,-478,-4374
113,-32,100,4463,-2785,4374
-12,-117,-114,4393,-2417,7792
-40,63,-32,3587,-1601,9415
-52,-121,54,389,-3773,10711
-60,51,-60,666,-1660,6992
-17,47,97,-1827,-206,3578
-109,-59,95,-1037,-2424,5073
111,-8,1,-225,-943,2864
98,-46,-78,196,-601,-415
11,9,68,-164,896,-2890
-82,-8,-19,447,381,-634
121,-48,-81,218,-292,706
-29,43,-47,177,-167,383
38,79,-53,-39,379,-479
40,11,-64,284,371,-252
37,8,-114,161,192,-476
29,14,-107,-379,227,-257
-58,-21,-49,4081,2272,-3717
62,-111,93,4327,5826,-8597
101,58,109,-871,5821,-9125
37,-122,-88,-13,3604,-10476
-122,12,-79,-612,2477,-7866
36,46,-1,-2221,2926,-4079
14,39,-23,-4195,4563,7340
34,39,-15,2935,6456,12941
13,-103,119,-1248,4553,6450
60,108,-8,-2852,-605,-6453
38,114,-121,1802,-2079,-13466
74,-1,-29,3160,-7334,-9827
-120,18,85,3240,-4163,-7090
-1,-86,48,2505,2780,-4797
-58,45,-3,-2696,3766,7637
44,83,-26,-1980,3679,11300
-31,-76,89,-3408,4814,7923
86,127,77,-2627,3868,6405
44,-127,-23,-1998,3805,3745
-125,-28,-109,2615,-1475,-12180
104,26,-12,4515,-4723,-6170
-23,107,-91,1310,-3367,-9076
-48,-106,3,3455,-6352,-5298
-100,-5,100,2147,-3082,-2026
-16,-92,105,7553,-1338,8108
6,-8,44,1453,-2228,10177
51,90,-125,-2307,-6050,10866
-52,-83,25,-1951,-9808,8257
-2,123,53,-2087,201,1079
95,-54,-37,2111,-3805,4819
116,-82,-92,-540,-315,2780
88,-105,-50,648,-1005,-607
-38,64,63,1537,1858,-2103
-109,-44,-41,1339,888,-372
-91,-2,-49,0,-649,632
-21,18,-51,163,-246,-157
-47,9,-42,-563,40,97
11,55,-65,-555,492,-280
33,9,-84,383,495,-307
34,22,-117,358,74,-33
97,-72,51,3035,6102,-8654
-74,-77,96,878,2230,-12163
-82,23,102,-1480,5109,-12189
-62,-74,127,-5200,4205,-9092
101,3,78,-5132,5104,3108
-99,51,71,-91,3936,10313
95,25,39,-379,3205,8381
-34,-68,83,-4001,52,2823
85,109,31,3400,882,-7761
-114,-19,117,2906,-3480,-10308
-41,-66,68,2314,-4862,-8644
-1,69,-112,2329,-3548,-8330
120,23,83,3056,5467,-1264
-24,87,-32,-4920,1724,9026
-128,112,39,-3416,3648,9044
-10,-102,-82,-4216,4225,8082
-11,-85,-101,-2081,2322,9912
-4,-18,-123,-7343,-270,3916
-90,-118,32,3808,1457,-9474
-52,-40,-64,4706,-2555,-4297
19,93,37,3685,-2720,-8923
-94,115,-57,3256,-6247,-7615
-109,-86,-87,143,-4028,-5950
-103,-31,101,3512,-1161,1251
-30,-82,-21,4337,-1129,4248
63,7,-103,775,-1065,7937
20,-99,85,1593,-3165,11302
-73,15,-48,1081,-3426,9410
107,83,6,1555,-2179,5863
6,-69,-21,-4670,-1978,4196
-76,121,66,-1316,-2359,4008
14,107,12,-547,-676,1722
59,-113,-118,226,422,-1756
-2,74,68,1413,1613,-2639
-64,-27,-34,691,987,-970
125,-42,-102,29,-122,81
-67,-9,-118,289,31,168
4,19,-128,-340,402,-144
26,2,-114,-167,299,147
28,6,-126,577,117,1
-6,-7,109,15093,2103,-4694
33,-20,88,-6224,3923,-15916
-112,19,-57,-2067,-3045,-13844
92,6,-7,-4404,2035,-11021
-62,-32,-24,-5160,8043,-4712
35,72,-31,-4391,4984,10008
112,127,-80,-1971,6368,12643
-119,-76,-37,-1886,33,4734
14,-124,68,3187,-1200,-14877
-35,43,96,2419,-6459,-9382
71,-73,5,4866,-8681,-7017
-13,48,96,1145,-1109,-8131
108,-113,-50,496,3933,3648
103,96,-42,-3682,3090,13979
69,-45,63,1886,8208,6964
70,27,68,-1810,7064,7589
16,45,66,-4464,7979,4604
18,-48,119,3540,-3764,-6559
-59,-38,-58,3653,-6355,-5743
8,-30,85,2684,-9309,-6934
81,-116,63,474,-9349,-6209
-65,11,92,-4214,-3520,-8245
120,-110,-82,4603,4489,47
-18,-34,-120,-4325,5405,7844
85,-35,67,-3401,3402,12135
88,91,3,3643,4720,10271
35,-97,-11,-10096,1547,140
-110,13,37,-2318,-9465,-2567
18,95,-50,266,-7492,1704
40,-11,45,1780,-6358,6156
25,78,-113,-2606,-4539,5329
-95,-87,-57,-3642,149,1345
60,-74,-92,1003,-403,4289
-113,79,-88,4100,-474,3559
116,53,87,363,-1736,1853
69,88,61,-1863,-257,-843
27,113,-27,-523,1262,-1696
7,-5,-97,920,1162,-1241
-43,-35,105,1578,-73,-558
-32,-34,98,563,139,42
105,115,48,1346,5524,-11239
-123,34,-118,-854,3986,-11596
-32,13,52,61,4073,-11402
-81,14,-121,-2554,2089,-9909
-122,-94,113,-5758,2384,-1967
-68,-107,-62,-3212,2422,13026
58,-34,64,1412,6959,11305
-45,-48,-21,-6034,-423,4661
34,67,26,939,-376,-7051
-66,-39,-48,3231,-2950,-11503
22,-31,21,2679,-6605,-8218
105,-12,114,2144,-2573,-9804
74,23,-10,3336,4963,1954
-16,62,-39,-6043,2679,8404
73,72,39,-224,2952,10593
-92,85,-31,-5543,3824,6361
83,25,87,129,-444,8098
-25,119,-125,-807,2007,-6111
117,81,-53,3155,-4018,-7288
-57,-29,29,2950,-3874,-8591
-85,-62,-42,2650,-5172,-8356
92,-31,-93,-696,-2497,-6889
-113,-51,-109,1665,5268,1656
-119,25,-93,-8546,-11,10057
-100,37,-92,-3256,316,8680
107,86,3,-2274,-483,7675
-18,-69,-6,-3579,-6312,1669
-125,-113,107,1069,-4334,-5151
-49,12,32,1548,-9076,2424
127,96,-6,1625,-7654,3309
114,-45,-64,-57,-6146,6846
15,107,1,1408,353,1415
41,-84,-51,945,1239,2871
42,13,19,1287,-823,1565
20,-22,-119,547,-1705,1450
-8,49,75,-1838,735,-391
-53,-97,21,-609,540,-1061
-83,-18,-65,350,606,-911
-30,24,-57,112,113,82
-36,-18,-78,1140,72,390
-123,-127,-123,3132,4189,-11499
-97,3,3,394,3146,-10635
113,-66,-48,-3216,3648,-12774
86,-13,41,-2137,4574,-11568
-45,78,-74,-6604,6721,-2754
78,109,-105,-6245,4075,13374
-2,77,-77,-3598,2337,9421
-25,-81,56,-1855,-3164,2423
-76,70,27,2397,2810,-10773
-3,-74,-30,4574,-3251,-9481
-38,-88,69,5069,-5838,-9341
-77,2,97,3808,-2877,-7812
-57,-58,-51,2249,3917,750
11,68,-55,-5748,3167,10932
-61,46,-45,-1994,3608,10611
-30,-109,26,-4208,5426,6923
117,-53,91,-2906,151,7601
73,73,-55,1007,906,-6136
12,67,-46,3910,-3484,-8845
67,37,66,3854,-3981,-8941
44,10,45,3616,-4441,-8868
57,-36,125,2560,-948,-5746
115,-55,-111,-2495,3670,2220
70,7,-61,-4238,6,13459
-88,15,24,3555,3902,9526
-79,73,38,-5114,2894,6403
-52,-39,27,-1726,-5557,-4628
-25,20,41,-2296,-4908,-1362
-54,73,57,622,-7966,6609
-128,111,84,-798,-5038,5715
-35,70,-77,410,-2986,5441
1,67,-51,-2146,-701,4570
78,29,70,660,-1874,3198
0,-57,125,121,-1967,2004
95,-77,-2,-723,1327,-1712
-11,-95,74,1391,1684,-1850
-118,-15,-105,2183,-42,-1768
-76,-46,101,1196,-32,608
29,49,77,-573,604,161
69,23,57,-252,742,-529
-74,97,105,2099,6128,-6037
-92,125,74,-2868,6798,-9916
23,12,67,601,7309,-9895
-64,86,56,-1846,9869,-9075
-27,-24,-106,-4664,4795,2507
-42,67,-87,-3381,3759,16788
119,112,-53,-46,2865,9717
61,42,107,-186,-817,-1746
-74,74,34,2863,2821,-12463
-128,-11,14,4586,-2807,-8550
15,-75,-23,5953,-6379,-9751
-22,68,118,2050,-504,-7836
-78,21,-26,3036,3021,13
-8,84,-40,-9158,2364,11533
45,11,-47,-6332,2475,9384
-78,122,18,-7221,-1460,8918
106,85,39,4282,-2836,6852
-8,8,96,1241,2056,-8304
99,76,-97,2068,-1482,-6366
-14,44,27,3231,-1997,-7735
114,62,51,2807,-4460,-8213
62,-61,-103,2342,-2676,-7624
-78,122,-41,-391,3691,-198
43,3,94,-2880,660,12011
18,116,20,-1822,2661,9385
-102,63,-18,-2167,3519,6476
26,-33,59,-2947,-3661,1092
67,13,-113,-806,-7055,-4448
102,-25,66,-523,-7588,2663
6,85,37,1189,-7937,4637
53,-1,-115,-1308,-4286,4461
-72,101,-8,-2466,-1770,3813
10,-77,-7,1335,-9,3728
-41,58,-110,1372,949,2215
27,-92,47,-787,1178,-1218
-74,96,111,823,685,-1015
-126,47,-11,355,-765,-700
-72,62,-17,-778,-17,258
11,65,-32,278,370,125
50,45,-46,648,625,-216
21,-127,100,5193,2828,-4779
-17,24,90,5682,6272,-5703
66,64,-102,2694,8520,-5514
28,101,80,1578,8023,-3875
-42,-79,86,1548,5757,1803
102,-124,112,5059,2681,-2255
-22,-38,100,105,-6588,-17987
23,-43,58,3364,-3202,-9867
-12,42,-54,5183,-862,-6665
-120,123,3,-2138,4571,1299
-11,-74,-24,-4155,526,11500
93,34,46,-2407,3196,10917
-80,52,-79,-4856,2336,6447
50,-42,-36,-1825,-355,9316
51,-5,106,2792,2381,-2709
103,-15,-18,1978,-2101,-8638
86,83,126,4884,-4843,-8429
4,-27,-22,2117,-6476,-9079
-84,68,26,895,-2634,-6749
-57,-93,-76,5032,969,-2092
-97,-25,125,-1954,3646,6062
-56,110,90,-2818,-315,12771
-68,43,-27,1331,2449,10537
-79,-109,-18,-4721,-3768,4804
-101,120,71,-6918,-10986,9243
63,-112,76,1809,-5790,2707
78,-55,-106,-3187,-2921,4400
35,-113,-92,1258,217,1561
-97,105,-90,1924,-824,1325
84,-40,-47,-272,2142,43
-126,-16,-77,336,2895,-2333
-115,29,84,-555,-2987,-1168
-48,-4,98,-328,458,14
-33,-18,32,43,1460,-78
-36,28,19,72,-100,316
18,68,71,-379,-489,97
33,90,112,-866,-274,-213
21,98,-125,-914,-239,-565
9,86,-99,-496,128,-629
-23,-25,85,439,714,-138
-103,18,-72,806,6060,-5212
31,45,48,895,3238,-8019
83,-115,89,-1298,863,-9664
87,-51,3,-2905,6020,-11359
-20,-105,-15,-227,2461,-8669
-98,-60,4,-6330,5570,-343
-25,-118,11,-6156,601,9561
101,105,13,-2665,4623,8430
48,-21,45,-1751,-3800,10558
-90,107,32,1933,3225,-8534
34,15,86,1830,-4435,-10523
-18,83,-108,3733,-5790,-9441
-118,-45,-121,1587,-3636,-8861
39,2,40,4802,6204,-3142
-128,43,-90,-6752,480,8443
80,-112,55,-4985,1861,12610
-59,-112,-11,-1680,5645,8099
125,-86,95,-1825,2659,12171
22,-73,36,5361,3163,-1686
116,-64,-122,149,-2064,-10976
-5,34,15,3145,-6588,-7516
66,81,-35,2246,-8132,-5634
-54,26,-128,1823,-4558,-680
-45,114,91,7280,-8398,7177
22,-42,-18,3311,-5996,11037
43,-79,28,1688,-1393,8783
-71,54,-94,681,1242,3771
-126,58,25,300,-452,2909
-24,11,-76,-1479,-2262,5102
-118,-48,121,-1301,-3620,350
30,74,-90,-1464,915,-2394
-13,94,53,1512,2089,-1722
-101,-4,-58,2239,660,-945
-97,6,-76,129,-17,538
-53,22,-104,-601,451,-67
7,-23,-123,92,402,-325
-10,-8,-88,-388,-213,-94
7,87,-120,-735,246,-459
-6,30,98,46,385,-392
94,-14,72,896,266,-167
-117,41,-40,579,4838,-5918
34,-115,111,4808,3303,-12829
-68,57,70,2829,1271,-14878
-18,109,32,-3026,4040,-12723
-115,60,-29,-7729,2709,-5311
-87,98,-13,-8519,2134,11925
2,120,-44,-1760,2388,12093
-72,-109,-41,2741,7851,9454
24,54,-14,2029,-55,-12641
-10,-65,-57,3580,-6767,-8923
-84,34,-30,3776,-8699,-8911
2,-33,28,-1498,-2508,-10739
-123,-10,74,4067,7391,963
87,108,-10,-7847,199,13563
-34,91,107,-284,4667,10634
-120,26,-89,-1362,4859,11038
102,22,90,-3145,4192,-299
-10,47,-27,5043,-3708,-9268
78,-10,112,3863,-6419,-5587
-110,83,-9,2345,-6005,-6105
-37,-119,-126,243,-8415,-2802
-79,13,-41,838,-3659,902
25,35,-9,6356,-1357,4044
-121,-34,-71,4840,3028,5529
-16,-111,-54,1070,2853,7266
121,-29,-80,1491,-992,7653
61,76,-3,957,-135,6663
-29,31,76,-980,-1051,4934
-111,-24,-60,-2160,-2247,2821
-101,78,33,-2395,713,1143
-108,-61,41,-2343,264,1465
58,123,14,1560,-1117,1011
27,-118,44,1313,-683,235
8,-99,67,-237,298,-743
-8,19,-61,551,822,-542
-22,-22,118,1405,109,-224
18,8,117,131,627,-394
43,-14,69,-224,574,-504
53,-24,61,-352,187,-347
73,-9,70,-553,171,-370
-94,108,120,7060,-488,-3243
-2,70,85,-6157,6233,-11114
45,23,-85,-2738,3261,-11766
80,-62,68,-2266,2978,-10514
6,-76,-76,-2608,912,-8103
-59,70,81,-6313,4305,-4282
-76,91,35,-797,2867,10913
16,103,35,-2585,7513,8216
-124,6,-43,-441,2788,9096
-99,-77,54,861,-2079,-3737
-96,-82,-38,2808,-1165,-9458
19,65,91,4251,-4018,-8357
-13,-107,-32,2242,-8184,-7371
-24,18,68,1648,2654,-8052
113,48,-34,-2244,2227,7740
27,62,12,-1977,1014,13021
17,110,85,-467,5113,8103
45,-75,70,495,5066,9211
-109,-22,121,-2092,3616,-284
35,-69,-76,1622,-2517,-9347
77,71,16,2044,-5228,-6103
-67,-72,113,2668,-7063,-6717
-78,50,-114,-755,-8494,-4649
80,56,-71,-1194,-2161,-4079
-124,-112,87,8174,1444,2886
74,28,-62,4830,2749,6740
99,-19,-60,1473,2257,9931
110,-30,-86,2081,-685,8647
55,103,-83,608,-1681,9264
-81,77,45,-1756,628,4914
79,-102,124,-3301,-1972,3634
5,-55,115,-1105,528,3174
-86,-44,77,427,-2504,3265
-119,-98,-112,-1778,-1534,535
54,14,125,726,1355,-1847
-39,69,47,-382,2260,-2930
-101,-40,126,1435,-356,-1206
-123,-29,103,2807,86,350
30,78,-127,-2957,2012,1803
61,43,16,-1076,120,-493
