AccX,AccY,AccZ,GyroX,GyroY,GyroZ
-1,-68,20,236,4045,-5002
59,-87,8,-1159,4769,-4701
114,34,-118,-2141,5177,-4613
-72,-118,39,-1883,5207,-4047
36,71,25,-2092,4721,-3398
-103,-56,-52,-2190,3964,-3190
-98,-49,8,-3485,3326,-2273
1,100,-52,180,2603,-1802
53,84,-38,-149,1995,-1262
58,64,-12,2061,1589,-1996
-32,6,34,-406,-800,260
47,8,-104,770,-1634,1159
-98,0,90,468,-2098,1561
-41,92,84,1191,-2544,1514
56,-85,72,1210,-2959,1192
-75,8,52,-864,-3746,2251
44,-107,3,972,-4034,1252
-58,5,-122,1090,-4436,1438
-113,-25,-23,3537,-4426,1242
-56,51,1,201,-5050,2644
-18,47,101,569,-6625,1164
-124,-46,66,2043,-5797,2456
-50,-2,45,1229,-4000,1515
110,-49,86,3341,-3062,273
-59,28,83,2083,-1086,408
87,42,-105,1089,-1994,-462
31,-15,-18,4568,111,-1557
68,-45,-97,-2114,-303,-70
89,-98,77,1046,-61,-739
65,-91,23,698,156,-507
31,-100,-36,257,-76,-205
76,116,-38,1519,-305,-298
116,-67,-57,149,820,127
96,-67,-78,-557,826,187
111,-123,-119,45,1128,-195
-121,109,112,1100,1155,-298
-120,-120,110,806,781,-199
121,-123,105,252,495,-259
-66,67,69,743,657,-547
-4,74,76,615,177,-9
4,108,-126,-339,116,-246
-2,124,-81,-467,-304,163
1,114,-83,-313,-97,606
10,124,-97,-376,15,591
-4,121,-112,393,-145,248
-16,116,-112,669,-181,-221
13,-116,113,224,164,-189
8,118,80,168,229,-77
19,-120,60,-237,-61,215
29,-105,45,-356,-279,233
-70,38,64,-2913,2688,-2713
111,-69,-74,-1298,2605,-3864
48,-53,-32,-1837,2950,-2638
-109,48,81,-1388,5062,-2018
106,121,-127,-3069,4622,-2307
37,41,121,-3465,4553,-1841
108,-116,125,-3030,4393,-2057
-55,-102,4,-4498,3725,-124
4,123,105,-1450,5478,-1663
-75,91,48,384,3217,-1666
-57,-34,78,2048,3846,-1637
-71,-95,-122,-947,156,-1536
58,-27,24,277,-1994,957
119,61,-10,487,-1760,673
14,-11,110,761,-2839,1735
120,123,65,117,-3252,1321
4,-45,54,99,-3824,884
-80,48,7,937,-5761,1016
51,63,113,136,-5515,1112
48,2,7,3338,-3764,-1935
56,-68,14,2927,-5030,1253
-110,103,-97,1323,-4658,385
-45,-3,23,5930,-4434,-153
-85,68,51,4786,-6095,1653
43,-25,81,1367,978,830
-27,111,-39,-1052,-932,2694
99,49,43,2812,1559,-542
-104,-77,98,117,-2357,694
1,-97,-112,3101,-935,371
-75,-66,101,2913,633,-257
-114,-74,95,2078,591,15
102,-93,48,1510,508,347
75,-119,40,1136,333,202
69,121,24,244,331,-268
85,76,-5,323,460,-810
122,-1,-43,1058,475,-1233
-106,-13,-41,1124,229,-1158
-92,-19,-35,579,-25,-861
-74,-18,-24,-252,-238,-368
-87,-33,-39,-588,-149,-245
-51,-44,-51,-397,-190,40
-35,2,-64,-812,-39,285
-43,-4,-88,-557,473,-84
-50,-25,-112,439,19,-7
-37,26,-123,288,-34,200
-20,43,116,16,275,37
-5,35,90,176,371,-74
-3,33,74,218,-25,38
-15,39,102,316,-221,170
-2,48,101,397,299,176
41,-60,21,-2759,2025,-3519
43,-5,-1,-3439,5124,-2151
-54,-117,54,-2714,4355,-1571
-101,-56,41,-5054,4238,-752
-46,-67,69,-2852,4766,-621
11,-118,-101,-2837,4518,-623
96,37,-11,-3244,4602,-11
-72,-16,-24,-5030,2531,1825
-100,24,-36,3512,5348,-370
22,120,122,3265,4469,-1040
77,-87,27,546,1531,-1467
46,-31,120,-1868,-2424,-686
-86,-43,72,2641,-2117,772
87,53,-16,887,-3202,2322
28,-91,-89,994,-3651,918
-1,-49,37,2529,-4333,109
1,114,44,2700,-7322,-22
2,119,-12,6501,11,-442
-69,51,-117,1621,-7504,2897
-6,-89,-92,1486,-7153,3371
-12,-15,97,6138,-3254,492
-51,60,-39,3700,-1463,2596
26,111,-82,4308,-3033,4698
-36,-82,-85,-18,-28,2565
65,-85,-47,3590,-1334,-863
38,53,-114,6913,282,-3349
-65,0,-35,-1160,1337,-1291
95,-28,123,-2964,1012,1049
69,94,-4,-2321,480,1244
88,60,-81,-653,1532,248
93,26,-128,718,1354,-1220
113,15,-118,1079,631,-1660
-121,-10,-117,1708,-111,-1141
-89,-11,-86,1060,-292,-510
-71,-8,-66,192,-97,-138
-68,-27,-79,222,166,98
-59,-29,-89,437,109,307
-85,-32,-63,812,-544,965
29,104,-20,-604,591,2595
25,48,-120,-2467,1321,2575
-82,-96,64,-501,338,-862
-64,24,50,1347,147,-3138
31,17,54,1634,-128,-2323
36,82,111,-228,-376,372
-14,102,97,-1079,-104,1636
-20,99,75,205,-122,1042
27,-111,-117,-1967,125,-632
-57,3,60,-433,1327,-3135
-1,-13,33,-2078,273,-3589
78,-75,42,-1977,3332,-2777
-56,104,-51,-2421,4847,-3848
-96,19,46,-1642,3711,-3674
-52,0,116,-3338,4173,-3774
-66,106,-124,-4871,3523,-1039
56,102,-79,-4419,1115,-1698
-83,0,-100,-2827,2917,-873
-81,-7,-90,-3502,2010,344
-122,47,8,-4361,2271,1260
53,8,71,2276,3431,-1131
-40,-103,-88,3226,3551,-3009
-3,25,71,1978,2556,-1612
85,-101,-47,-222,633,452
90,38,-106,94,-1611,487
-18,121,23,-413,-1689,1594
29,-113,67,717,-2281,1506
84,10,31,655,-2294,863
-92,113,125,252,-3032,-506
-88,-92,95,1134,-3338,143
120,-40,78,4335,-3294,398
88,19,12,6220,-1383,459
39,-90,-74,9445,-6329,655
-78,-119,-113,3828,-4907,4181
-87,-120,-122,-1879,-4102,5110
-29,-44,50,4161,-2923,4605
67,-21,27,2983,-1229,1854
-29,82,71,-509,-1388,2790
7,91,6,2505,2706,-1430
27,26,96,2461,686,-241
-30,-16,50,927,-993,898
57,-74,70,1292,-734,872
97,-18,101,529,-501,890
-123,-56,91,56,685,-929
-94,107,49,1172,1167,-1603
-124,35,26,821,395,-1123
121,2,25,-620,-251,-17
83,-75,-29,-448,-334,787
102,1,-47,-783,-117,1335
-102,55,-86,-472,-141,869
-63,111,-99,-8,-52,506
-61,-32,-23,-2185,1047,-1515
73,-111,-65,-1565,1152,-1178
-24,109,-84,-230,-9,543
-73,-83,125,-396,-70,753
-16,-92,-119,1162,-393,278
24,-91,-100,1394,-204,418
-8,-39,-120,442,333,33
-73,-64,119,-183,57,247
-82,4,75,-2028,-1652,1130
-15,-16,-25,-2766,-490,125
-7,-81,2,799,174,-212
-54,5,6,706,5883,-3860
44,28,-9,1602,5548,-4273
-75,-5,28,-354,4703,-4110
85,41,82,-1598,3829,-2953
32,11,106,-2018,2962,-3272
-44,22,-108,-6731,2118,-1074
93,-72,-124,-1796,6137,97
64,91,106,-582,5321,-1860
-112,112,51,-2341,1933,-841
-106,100,-125,1029,4119,69
38,107,-96,3480,2549,-1712
-77,-70,-117,1184,-13,-1750
-110,4,-85,-38,-259,-290
-59,-11,116,481,-2056,632
65,123,26,-129,-2810,1140
-29,-84,58,781,-3574,1476
119,103,-24,641,-3844,1261
30,-60,100,1669,-7453,1575
-104,-23,-94,2324,-5796,-1086
67,-65,127,2621,-5550,216
-7,112,65,397,-4654,1595
-45,-84,-128,4157,-4584,1098
37,-92,127,5759,-4237,1388
-6,122,-27,2920,225,1739
103,114,-118,5281,-555,1230
41,27,-47,2142,-442,3047
-48,-108,122,2418,-1625,805
1,-86,23,1986,-2868,282
-91,69,-74,2491,-84,-78
94,127,-70,413,576,-177
37,48,-119,-794,874,-363
67,-109,50,-877,1107,-604
84,5,3,-926,614,-597
-125,29,-76,-3269,710,766
84,-65,-85,-1593,-573,388
98,112,-80,3636,-1065,-543
88,91,-30,161,-52,12
26,93,121,-888,-761,1437
-24,13,115,1113,-987,-360
40,-113,118,887,-1942,721
92,-98,-40,278,413,125
81,-86,-96,-1401,1826,-539
87,117,114,-662,1374,-805
-93,-120,93,-773,584,339
-98,-116,117,-349,535,-195
114,105,-70,-2878,-2780,305
93,-18,123,-3094,1221,1800
-50,-99,-71,1300,2012,-1803
-36,-108,100,-656,1331,-4611
61,-28,103,-713,6425,-4143
-95,74,40,-2058,5652,-3969
-13,-64,111,-3642,4417,-1780
71,81,48,-3395,4053,-906
98,-35,99,-2585,3631,-342
11,-44,-50,-3918,5792,-483
-18,59,-31,-4265,3218,-352
-114,-60,34,1617,4713,-1726
-38,9,-51,500,1308,-348
-76,120,55,-619,1725,-305
114,-38,54,1471,-57,-385
-87,-110,-60,563,-1217,658
-61,-64,14,878,-2158,1100
96,65,5,2028,-4329,990
-10,0,6,115,-4787,1446
-36,-3,97,809,-3802,-28
-77,-64,-63,4872,-2607,-1689
-59,-72,11,-3780,-4836,3321
-100,-113,-126,-680,-3784,588
27,-69,-8,762,-2627,-1302
-53,42,66,4245,-2120,-1401
-41,-85,94,2490,-4712,158
-37,102,118,2319,-4492,667
71,127,73,5824,-1282,-552
114,119,37,11530,167,-2151
-107,5,-14,-5536,60,4617
-10,36,-15,6243,34,-1045
-99,-110,-81,1593,726,413
-118,79,-52,-203,297,859
75,34,-105,3312,-150,-983
119,74,87,1699,1157,-1735
-76,29,10,-379,1579,-1318
-126,-81,32,586,-100,-958
-53,-93,74,698,-906,-201
-70,-28,-117,-384,-766,220
-39,-118,66,-112,453,-685
-10,-116,45,-11,497,-131
-65,-88,38,-228,-313,474
-46,-68,16,-406,-57,573
-38,-50,1,-365,-93,596
4,-15,-19,-342,376,569
-24,-49,-79,286,736,-193
-19,-101,-84,1331,333,-657
-4,-71,-93,1502,503,-321
-63,-29,-49,141,-296,169
11,23,-50,-1099,-252,1323
12,31,125,-1032,485,1121
-32,28,83,-389,278,267
-30,57,82,-918,-9,-114
-6,53,75,-369,-376,-63
58,94,112,-338,-220,-189
-50,-17,-69,-1863,2665,-3811
-50,52,-5,-3105,4912,-3391
-26,-46,-79,-1776,4152,-4125
-109,-75,7,-5427,3657,-1445
71,112,-29,-5125,2187,442
-12,18,-19,-6022,5683,1717
109,-2,-35,-1428,4439,514
5,-91,-91,406,4306,-456
121,115,-58,2388,5101,-1413
71,-25,98,2573,3974,-1252
122,126,36,965,1272,-1387
-78,-78,9,-1495,3034,193
37,-118,98,1610,724,-2096
59,6,126,-122,-1986,1116
120,39,34,-115,-2962,2101
25,23,-7,2145,-3370,177
-31,-35,-40,68,-2781,75
-16,-11,-10,-322,-4656,-478
59,-19,-82,3369,-7774,-345
15,-71,-42,5008,-4778,-701
73,-50,34,91,-5201,2697
91,3,125,4052,-6032,2075
19,-84,111,4158,-4654,2100
-29,54,111,1592,-135,1141
-69,-98,74,1540,-1527,783
67,118,-114,2847,1188,-155
-21,123,-127,2127,-217,866
127,-38,-64,3662,793,327
115,-44,-21,3539,-768,284
-124,-22,19,1737,-955,439
-116,-58,26,320,-522,39
123,124,29,619,18,-728
118,39,-3,1335,426,-1682
-82,-45,-7,1629,576,-2019
-45,-65,-26,1528,563,-1293
-25,-6,10,-289,154,137
-108,-7,-3,-1806,-442,664
-68,-39,-30,-1112,-279,797
-34,-19,-89,201,483,678
-47,-6,-118,708,662,-212
-40,-7,114,821,356,-790
-7,11,-91,383,-474,-415
32,-36,-107,822,361,-1114
64,107,116,1982,792,-1581
74,-74,-41,877,-259,529
-16,21,-48,-789,16,1883
-26,46,-99,-1640,254,1541
22,34,73,-911,984,922
61,63,46,-139,511,716
18,105,66,115,-395,28
100,83,59,-1878,3762,-2954
6,6,43,-1571,3001,-3040
-71,115,59,-2506,5880,-934
77,-41,-17,-5378,5507,385
64,48,67,-3432,2817,-2188
53,84,71,-2315,4250,-445
-37,98,44,-2687,4868,-93
4,13,-68,-2753,4337,35
-66,119,-93,-724,3839,244
16,-26,88,2853,4336,-1632
62,4,-105,3259,4265,-1582
94,9,9,-1669,431,1466
-115,-20,51,299,-2054,-217
19,119,-29,623,-1151,330
74,125,-11,1843,-2580,182
-55,-85,-22,666,-4066,1599
-40,14,-75,2931,-6429,1948
72,-92,68,2250,-7948,1786
26,101,54,-2359,-7485,1100
-56,45,72,6516,-1790,-857
94,-56,-65,1190,-5264,323
57,-56,-6,831,-3489,347
-34,68,49,4902,-4462,344
120,-3,51,4359,-459,-272
61,12,-10,5634,-274,991
-101,-93,18,4205,1627,2525
55,70,106,-257,-1555,1938
-67,72,55,1537,-334,1345
72,19,72,2222,-543,704
20,-47,89,1854,-390,-740
46,113,44,2171,386,-2070
110,46,29,2463,325,-1691
-88,93,43,796,270,-464
-115,85,58,-758,-82,-271
98,-26,28,-174,-118,-1172
-74,-87,5,631,306,-1102
-28,-44,-22,79,336,-149
-56,-32,-30,-468,-50,-44
-78,-57,-42,-148,-243,-25
-68,-44,-38,-19,-50,109
-49,-25,-53,-109,200,247
-48,-12,-60,200,-73,590
-51,11,-89,251,343,430
-2,19,-112,207,403,-3
15,19,122,313,300,-188
-77,15,109,246,77,-207
-70,6,-119,96,-482,250
27,84,-111,-689,-54,1338
25,123,95,-980,629,918
-8,118,57,-550,300,1
89,-114,20,-4756,2915,2427
-30,-104,-105,-3053,-353,3424
-43,123,-68,1518,-1121,-765
54,-24,30,566,-785,-740
115,67,76,-167,244,1172
80,-55,65,659,46,37
-123,-11,84,655,86,517
70,-8,21,-226,494,-237
78,4,-1,-927,492,-451
85,-13,-33,-887,-681,-203
-2,118,110,-11,-2051,39
40,-85,-125,1500,-2418,2497
32,79,50,-1216,900,270
53,11,0,-95,1259,-1386
47,11,-11,344,262,-957
-18,-80,-82,1288,190,-714
34,-38,-57,700,-651,968
34,-127,-57,-2283,-623,2060
29,62,-52,329,-323,43
94,27,-103,633,1593,-403
109,-127,0,-1639,939,-143
125,42,-65,539,783,-993
127,29,-31,431,454,-1204
-43,82,-38,-523,312,620
19,83,-58,-167,982,-309
-33,79,-1,233,1141,-742
-60,24,20,349,1040,-285
-45,42,-32,689,-595,-341
-97,5,-113,1588,-2616,-1328
-87,-33,0,-613,-107,340
-30,36,-35,-3156,270,76
-83,-122,66,-7657,2322,-5382
-5,-90,87,2772,4190,-2335
-15,122,16,-3642,5606,-3244
-31,114,-80,-2424,5472,-1666
-67,-112,0,-2534,4575,-1330
-113,117,117,-4585,2819,-532
54,37,47,-3553,4047,-14
-128,60,3,-4824,3368,205
30,-60,32,-305,5267,-637
25,-102,109,-1061,4396,-190
22,-26,-22,127,3046,328
13,3,72,3591,3279,-2288
-94,-128,124,-484,-1059,-1046
-4,-116,-48,1402,-2824,1303
43,-48,16,1322,-3540,1907
-6,-52,34,1236,-3132,1531
-96,47,118,1736,-4497,1324
-118,-86,-127,1266,-7006,1574
9,88,16,527,-3797,62
19,7,-62,3422,-4743,186
-23,27,106,4940,-4013,608
58,-75,-29,3860,-4138,2988
-62,51,-32,4279,-6529,3252
-126,-118,88,899,-3526,2179
44,84,0,1409,405,-1161
-15,-28,120,3977,2041,-1466
114,-92,114,4800,3028,-567
-112,-59,25,4343,-812,1188
-110,16,110,479,-1346,2672
-104,49,-125,-2021,-1505,2824
123,-28,66,-991,-116,1395
118,-97,-4,643,1445,-998
65,-110,-32,673,1198,-2010
-118,82,-56,301,686,-2361
-36,25,-86,143,635,-1801
-58,-44,-80,484,178,-1421
123,-112,-59,695,-502,-854
-60,17,-73,-1580,121,609
-63,13,-111,-1578,-83,715
-61,25,113,-36,-104,449
-40,16,103,813,273,-659
4,5,101,1335,386,-882
-13,19,112,656,151,-205
10,50,125,-387,28,749
-98,108,113,-1442,-416,1539
-2,-94,120,-2170,-298,1172
78,110,14,291,1715,477
41,-90,-54,-759,2968,-2421
92,-85,80,969,-159,-252
47,24,-53,-42,-1174,2146
25,-21,-43,-721,-954,-32
-101,-95,107,1451,1273,-255
-76,-91,31,160,1737,-1801
-87,103,43,1007,507,-286
-111,-98,118,-12,-960,848
124,-104,93,-317,-243,405
-74,-94,104,-171,209,164
-61,-47,70,-429,-264,576
-108,-60,84,490,-939,190
-125,-44,92,-27,-674,-76
-80,-9,100,-1019,272,95
-64,-61,81,-143,804,-125
-95,-66,39,233,-18,-253
115,38,11,-2101,-767,214
91,109,4,-2413,-1092,-101
111,-95,-54,99,-747,-1452
-112,113,41,-3695,5261,-1652
98,94,13,1788,6796,-3508
19,-103,6,-2484,3179,-2967
-90,-36,87,-2193,5003,-3024
-62,120,-93,-2031,4177,-2790
48,39,-117,-2670,4514,-1919
16,108,34,-2350,3898,-2213
16,-11,-36,-3651,1887,-1409
-62,93,-72,-1410,4098,-582
73,-47,-66,-1085,1718,-550
27,-48,19,3041,3582,-115
-61,10,-10,117,556,-847
-61,116,-89,116,-1019,834
-53,-82,69,175,-1819,741
50,12,-22,1184,-2578,913
126,-127,3,852,-3155,607
63,-21,-32,832,-3953,657
-34,-13,77,2086,-4492,522
56,84,-63,1954,-4628,884
-118,53,-47,3331,-4357,-1227
-94,-6,91,4957,-3668,1546
43,-119,-42,-463,-8478,2205
-15,-60,-46,1990,-5888,892
-80,-104,96,3654,-1669,1456
-87,-88,-62,2288,-2765,2417
87,-103,-117,2962,-1193,1768
83,-79,5,3904,-425,1069
-4,-115,-72,3863,698,21
-118,125,107,3385,-27,397
107,76,-112,2026,-1203,569
119,86,-103,160,-1044,511
100,-3,-128,21,-203,-558
97,117,80,971,786,-1631
101,93,74,558,962,-1557
-87,23,42,335,608,-1084
-124,-5,18,419,414,-604
107,1,24,-677,52,-296
-70,34,-31,-1598,537,482
-99,33,-105,-1103,462,483
-126,83,-75,-649,-653,351
-106,94,-75,-338,1,-95
-115,71,-100,325,543,-356
-52,114,-123,-117,253,-229
-56,97,83,-238,362,-8
-27,-92,67,-956,-390,823
-100,6,92,-2925,-906,564
-16,8,-88,-1563,-426,428
12,-120,-40,-1328,-572,-286
89,-41,-88,-821,-151,-1878
16,29,120,274,1767,-3109
103,73,40,-526,4585,-2655
-109,-100,1,-1298,5098,-3959
-113,-65,-81,-480,5416,-3765
-88,-44,119,-2494,4492,-3307
43,-125,88,-3754,3426,-3003
-82,49,-124,-2170,3833,-2515
-101,-22,92,-3981,2597,-1744
-68,-86,49,-4881,4136,217
0,50,-119,1777,4118,-1511
95,39,106,-2876,2446,-852
-96,53,-91,3758,3407,-2226
-1,81,39,-51,-568,-482
88,-13,-96,-138,-2005,735
-60,81,-112,510,-2571,1248
-126,25,-7,1055,-2915,1088
-28,-115,-88,1043,-3804,1052
85,-29,45,227,-4546,774
-120,-30,-74,2557,-5147,-265
-25,50,-60,2661,-5429,22
-57,111,28,1595,-5905,1220
5,-107,115,4197,-5337,-671
-27,107,31,2478,-3766,1496
-97,-100,35,4526,-3108,2099
21,92,55,3582,-1276,2483
57,25,-97,3063,-1000,1130
-123,-8,91,5578,2671,-437
-76,54,-59,4535,1952,682
-119,-32,70,4363,-1353,1448
93,25,90,2193,-1478,2249
86,124,-88,-458,-1337,2037
81,127,-96,-1299,-405,1168
82,23,-118,355,116,-260
56,-90,109,1459,481,-2257
107,126,86,466,737,-2922
-84,1,71,6,778,-2353
109,-80,53,-366,527,-1453
-101,-88,35,-1066,58,-74
-69,8,-26,-2166,-307,1374
-105,-23,-90,-1945,-13,688
-111,23,113,-1831,192,1078
-114,-95,-123,-2480,-1118,1870
-124,-34,-38,-1828,-986,621
-73,0,-64,166,776,-123
-74,45,-87,-594,313,10
-90,39,127,-1107,172,-72
-98,-36,73,-86,238,-43
-62,49,56,-739,234,334
-115,108,92,-1473,-715,297
-22,-113,122,-1520,280,242
6,113,-102,24,223,-127
16,18,-50,2628,320,-1426
65,82,-37,1958,670,-2163
127,-51,65,288,771,-2505
-26,53,-104,-2498,4175,-2786
97,1,-20,-2630,4528,-3058
84,-101,-81,-3467,4495,-2069
114,-13,93,-3596,3479,-1949
-96,-56,86,-3934,2962,-587
-68,63,-118,-3923,3372,-101
-7,45,-21,976,2825,-660
12,92,50,-49,2788,-658
38,-29,-31,1848,2437,-1569
-111,-26,-81,321,914,-57
121,-111,69,0,-1124,439
-97,-79,-91,850,-1553,313
-29,22,27,773,-2261,539
38,98,-1,1322,-3236,919
-54,24,60,-1050,-5060,1633
-123,42,99,-1649,-3363,-290
107,-59,-64,3705,-3250,-2098
-127,-9,127,694,-2925,-314
-112,43,26,3552,-4584,-163
-16,-8,74,669,-6102,1092
-87,50,115,3705,-3931,-1171
-9,115,-113,4816,-4009,692
-50,-128,76,2528,-3665,2585
-80,-111,-62,2867,-1731,2078
-49,-100,40,3318,-907,1420
82,126,32,4153,1998,917
-118,-39,-80,2035,-2532,539
83,12,-43,3330,-2016,-709
-115,50,-74,2773,-644,-449
-118,72,-78,97,920,-393
100,-25,-126,-198,880,-716
104,95,94,490,416,-1574
74,58,78,247,329,-1993
106,-22,90,-668,142,-1662
-89,3,37,-1650,854,-46
-97,-27,-50,-721,829,168
117,-83,-91,709,203,-824
-108,-50,-51,-26,-325,-286
-62,67,-6,-1670,-511,1453
-116,59,-58,-953,-160,1248
-65,28,-104,681,622,121
-75,46,83,1121,932,-650
-68,95,127,548,-331,251
-102,-112,-98,-725,-1257,900
-18,116,-89,-217,-641,716
3,85,108,1462,571,-152
-42,117,120,350,451,-649
-35,-99,-124,-1094,39,-58
-54,-121,103,-905,133,346
-55,-124,97,-324,-248,562
82,-105,41,-4230,2961,-1619
-76,45,5,-1966,4333,-933
4,102,-54,-743,5515,-1540
3,13,-9,-2151,5921,-1506
-31,-43,-21,-981,5373,-1661
32,-72,-102,-3099,4420,-1065
-13,-13,-99,-1840,5715,-1502
-44,-73,-46,-1848,3413,-1142
30,-29,-26,-1521,3991,-69
-118,-32,-3,-2561,2608,-68
-112,-30,2,1453,2958,-1330
24,38,102,2670,1622,-1388
70,-5,94,-1730,-1563,901
119,103,-11,1082,-1408,356
-24,7,116,211,-2716,1059
115,82,87,479,-3109,745
73,-78,-28,269,-3493,701
13,32,-120,1583,-5447,1471
-7,51,14,2892,-4513,1520
93,5,-68,892,-4867,226
-119,81,8,471,-5803,376
-48,47,88,1578,-5544,-722
107,97,-109,8188,-4778,303
102,39,-10,1008,-6637,3033
29,-33,41,823,-1757,2269
-84,-96,88,4107,-1316,215
-82,-38,-41,5952,566,-1616
-124,114,47,4456,-461,-6
69,-20,-50,-1383,-1745,1737
73,91,4,-2840,-809,1104
55,-119,-114,-322,1423,-165
81,-59,57,-1179,3321,-706
102,-107,-98,-1235,3486,-1141
-87,81,74,653,1888,-1331
-114,100,101,1449,-60,-1196
96,62,-127,833,-1236,-1863
-29,56,-70,-838,-1230,-1404
60,99,-122,-2251,65,148
6,113,80,-2858,744,397
-52,56,53,-719,497,-411
-117,-20,59,2659,44,-1089
126,10,75,2279,-1202,-800
-69,-18,32,2087,-767,5
12,11,87,1909,480,1930
16,104,80,125,1863,2494
35,-108,28,-761,1262,2688
23,-39,77,-1139,-878,2687
-37,-10,89,-744,-1380,1775
-56,-48,85,579,-635,83
-53,-32,78,656,689,-1016
42,79,-6,-3433,2844,-2404
-126,-12,36,-124,1328,-4987
-31,44,9,-4386,4103,-2844
26,-33,-23,-1191,5661,-2076
-80,-62,-64,-2720,4402,-2854
-62,-125,-25,-1986,2792,-2349
27,-40,54,-2458,3454,-3278
94,44,77,-2380,3605,-1348
-61,-11,-119,-4298,2645,-807
-49,65,19,1481,4305,-1217
-108,-66,23,-937,2085,-1498
-67,-51,92,1348,2072,-1407
-27,-31,-10,1609,-17,-935
29,-44,55,-869,-1215,2105
-24,-92,-66,2122,-2017,1347
84,94,-28,2311,-3317,2361
7,-107,-88,1257,-3306,1250
72,-98,107,2873,-4210,2464
77,28,75,3149,-2396,2286
-89,102,-19,4746,-2409,2696
-15,45,-72,-1391,-9692,4128
3,69,-124,156,-2757,3897
-15,1,65,497,-5514,4419
-74,-65,115,1082,-3400,1921
54,66,-78,1748,-635,1349
-53,-21,47,6647,350,250
17,95,60,6008,-1149,823
-22,95,0,3851,-260,1290
-77,-64,43,-89,-589,2334
-102,-54,37,-2750,-781,2085
-98,75,-25,-1379,-462,385
-98,45,-16,-948,770,-1059
110,-54,-29,-224,1320,-2385
85,11,-95,1310,1810,-3352
-57,7,83,1421,1497,-2111
-11,42,99,157,372,-437
-29,73,108,-826,-572,0
-25,73,98,-764,-95,-498
-23,27,75,260,631,-1095
-14,43,70,327,492,-810
31,74,-126,376,-526,265
34,72,112,775,-62,583
-11,95,-127,164,-34,468
8,73,99,567,263,684
63,72,85,1358,-13,1182
98,-99,86,311,60,1590
66,-61,48,-552,358,1132
42,-111,37,197,127,-27
28,117,33,796,73,-760
21,96,28,838,-96,-736
19,59,36,-2670,4359,-1033
-44,64,29,1229,4402,-2574
-11,62,23,-1449,4882,-1565
-94,-33,60,-1436,5136,-1976
101,-19,-21,-2021,4898,-1692
-30,-78,29,-2272,4228,-1077
51,80,56,-2308,4501,-901
111,80,-65,-4910,3363,616
-32,-41,41,-169,3913,96
-82,-72,19,1189,4456,-1012
-82,-100,53,1566,3177,-2206
-10,21,-72,324,274,-1431
15,57,2,990,-1697,-542
127,-116,37,1548,-2149,-44
32,-115,-115,749,-2176,548
-77,-113,-15,2066,-3784,581
73,-106,-59,-1302,-5840,1971
77,74,91,1977,-5220,-765
0,-27,-33,2012,-4643,-900
33,16,-38,1855,-4233,-1649
90,-20,-72,4515,-4902,-1161
80,-100,76,2648,-5320,157
-94,-56,-44,3902,-3303,740
78,-85,-68,4088,-1191,1675
-67,-65,112,9630,1485,-1050
-77,-127,-22,7725,2606,1406
62,9,115,-2375,-1971,2955
34,111,36,-957,-1339,-29
-111,77,48,3128,-122,-1146
-127,53,75,2759,559,-1490
118,49,92,861,429,-1187
126,22,108,45,-193,-196
88,-26,102,172,-207,208
86,-38,83,129,212,-202
-63,-47,33,-245,624,-106
4,-33,-25,-35,769,604
-58,-4,-57,188,490,690
103,25,-44,-57,-164,191
106,41,-52,-1038,-1142,-84
-91,21,-125,-1184,-263,-35
-31,-24,89,-51,866,-53
-53,-27,102,598,1141,-732
-77,-27,106,838,290,-778
-58,-27,115,632,-235,-474
-36,-33,117,462,-127,-90
-3,-10,124,-399,64,491
2,22,108,-925,80,925
17,30,70,-418,209,812
7,50,71,76,-2,555
21,75,72,51,227,419
-119,112,54,-3100,3372,-1603
74,124,-6,-1267,4162,-2278
-91,120,26,-2508,3665,-1218
14,6,61,-1744,3296,-1060
-43,-34,78,-2210,3823,-484
-21,116,76,1502,3634,-1229
-22,35,-3,566,2364,-2853
-105,120,-44,987,2343,-1489
-15,-22,52,484,-423,-1003
30,117,113,278,-989,-569
87,-45,45,35,-2109,956
-47,70,63,-40,-2710,861
96,-89,31,-56,-3316,614
67,-95,0,1451,-3362,-363
69,-86,-49,2881,-3312,650
-116,50,-60,-1584,-5161,4026
-94,42,-93,3427,-3202,-101
-14,-75,-128,2737,-4041,51
-25,-122,-92,1646,-4480,577
-33,-81,120,3733,-1285,-203
42,93,66,1670,-5243,2090
85,46,95,3196,-2623,737
-59,90,30,4598,-564,1001
-115,-124,116,4077,1375,517
31,-85,-122,2744,375,706
-69,33,81,2500,-54,272
-126,-39,98,1041,-986,450
111,-59,96,-265,-573,565
101,-104,81,-289,-68,721
90,124,44,427,486,226
103,-111,-11,-95,716,-218
105,-121,-4,-743,14,-537
-105,69,-18,279,296,-916
-65,40,-63,621,930,-1507
-50,73,-108,-1335,1659,-1519
-50,1,97,-780,760,-1306
-24,-73,80,1093,-89,-994
-17,-39,104,762,-310,-511
10,7,-113,-101,-475,252
-4,32,-124,-833,42,537
-26,13,82,-635,440,431
-4,109,81,-2038,-148,1485
18,-82,68,-2564,-1036,2143
-6,-80,68,-113,-899,1661
-35,-4,109,-1080,83,379
1,15,80,-748,-356,963
28,-19,49,245,184,-329
13,3,74,2293,-1060,-1272
36,-115,-50,26,-278,-1676
-68,-71,-84,3690,1869,-4421
-83,122,-22,-1912,3855,-3274
-102,-115,99,-1650,4932,-3042
-41,91,-38,-2700,4000,-2801
87,51,-88,-2465,3630,-2743
-86,52,42,-3797,3385,-1709
108,55,69,-4772,4031,-553
39,13,-13,-3638,5009,860
101,25,31,1300,3053,-2271
112,-62,56,2200,3459,-1229
51,-121,-104,834,692,-1535
82,-53,-12,959,-834,-1096
-126,66,99,-423,-2550,1909
98,-93,-111,1047,-1171,1085
86,69,-112,-104,-2830,1694
-48,116,88,-929,-3993,1685
125,0,51,-1071,-3429,1351
15,-62,-46,1191,-3552,1525
-118,8,95,941,-4582,-21
-60,-20,121,2783,-4442,-1286
-42,59,-113,2303,-3705,-288
-124,75,62,1433,-5670,800
-2,-80,-121,3953,-3582,367
-20,-40,37,4507,-1855,605
-127,58,-97,7805,-2404,1933
16,69,61,612,-1133,2230
98,11,117,2097,1146,1588
-14,89,-14,1363,-1818,1351
-52,66,-64,1183,-920,1384
76,62,-84,812,-646,557
104,-25,118,1196,487,-427
103,-84,107,1364,818,-775
79,-128,90,904,944,-1195
84,80,58,-184,866,-1354
-105,-97,1,-3766,1391,-347
-55,16,-94,-2157,938,-745
-53,-115,123,1413,583,-1628
-60,-56,-90,945,241,-1436
-50,-28,-80,138,116,-658
-38,-57,-98,566,-76,-153
-32,17,-104,-760,-781,756
-59,-25,123,223,-673,1087
-47,-47,-121,2294,133,934
-7,31,-86,1749,160,915
-3,88,-94,595,369,810
-24,63,-128,239,347,256
-26,9,111,1003,61,-58
-16,42,-123,735,-319,191
-33,51,-120,97,-80,-14
-4,36,127,-43,161,-204
-1,11,106,381,151,-369
-35,107,9,-4,4312,-3699
116,-66,18,-712,5433,-4046
31,55,-90,-1507,6072,-1071
-17,109,92,-2030,6161,-1168
-3,27,-37,-2098,5017,-210
-47,49,51,1656,6838,-3237
-59,-12,83,1080,3097,-5317
30,117,-61,-6216,1647,-1873
-13,-15,-72,516,3180,-1451
-33,-126,122,-320,2000,-29
94,109,-99,2181,2339,-3242
-16,-51,-75,-1109,-1936,547
79,33,76,-120,-1868,413
-50,-122,-59,1179,-2365,1375
25,24,-104,1250,-2244,1084
-73,-93,3,1318,-2803,890
69,-49,-120,3640,-2636,510
71,72,5,3423,-3863,1000
114,114,34,3166,-4386,425
-87,-96,117,94,-4676,1736
25,-15,-20,4122,-4701,773
36,-73,-118,1128,-4757,2475
-16,8,-113,2265,-4076,3561
-70,-8,56,3021,-3921,1386
-115,33,-56,2793,-607,1084
-76,-50,-79,3225,-1214,386
8,69,49,2669,620,-118
-106,-33,55,2622,-738,-323
-92,114,82,3964,-374,35
-123,7,90,1678,127,1300
110,42,-125,-163,-110,1451
81,-1,96,-209,-12,500
76,-105,59,559,590,-1433
103,62,10,1113,1290,-2477
-83,-13,-56,1285,1595,-2472
-80,-21,-53,789,729,-1629
-89,-16,14,-179,-391,-759
-10,-58,-66,-517,476,-600
-31,-56,-93,-788,206,-520
7,-81,-120,-518,-262,-421
13,-65,-123,75,-536,316
-23,32,-54,7,-1500,724
-9,25,-73,346,-308,-34
11,32,-103,285,605,-485
4,10,-104,575,487,-325
20,-3,-123,740,291,175
28,56,119,-281,133,983
15,63,106,-463,-166,1185
26,62,93,-137,42,790
78,38,46,472,555,365
69,-49,-6,-698,4744,-3564
-46,-18,-16,-686,4136,-3063
103,110,-20,-1131,4602,-2462
-49,10,-105,-2414,4785,-1761
121,-85,92,-1440,4429,-2539
-30,111,102,-1435,4630,-2795
-114,47,18,-1837,3074,-1648
55,-6,14,-2608,3187,-799
-6,57,-17,296,4783,-1816
68,-39,46,-780,2115,-1223
-32,-9,-101,1332,2777,-753
48,-8,-64,738,526,-1015
-2,15,-75,436,-2015,-71
114,91,-64,512,-2641,1515
103,17,-9,1714,-3643,1252
32,-35,117,336,-4345,2090
42,-8,-7,89,-5264,1476
91,58,90,1339,-6197,563
63,-103,-72,1460,-4866,228
-36,-20,84,4692,-3237,-366
-40,-84,-99,2307,-4760,2052
118,-86,68,2569,-3731,1613
25,-90,29,1812,-2908,2330
-51,-44,126,2864,674,902
117,119,-61,3385,-935,190
101,-40,21,5040,1476,-5
-41,-21,-78,4169,949,1117
-108,54,75,726,-1148,2183
98,58,88,-2031,-1714,1385
126,-17,46,-612,-804,626
-116,-116,9,1354,611,-926
-84,-101,-24,-837,1512,-1674
-103,-18,-100,-952,256,-1208
-97,13,108,-1985,318,75
-106,59,89,-1608,-537,44
-66,98,77,-895,85,-469
-56,112,76,187,235,-612
-68,-54,85,-575,380,237
-83,-88,61,120,127,8
-69,-57,66,-23,-78,113
-14,-93,69,905,61,-360
-17,-69,77,389,319,-241
-19,-73,67,241,123,-141
11,-123,78,1024,140,-406
17,-82,66,402,99,-186
17,102,42,1116,-343,-173
13,103,38,914,-288,-215
35,-127,22,1082,-254,-149
29,-101,27,-70,-203,54
36,71,11,249,77,-323
0,-40,-21,-2024,5147,-1693
-17,-55,-75,-1752,5131,-2630
-29,4,87,-2496,5400,-2528
-17,-74,99,-3040,4438,-2132
-92,-11,66,-1973,3836,-1764
-63,-72,62,-3015,3801,-1239
61,-115,-66,-3330,3980,119
85,-40,109,-1459,2891,-424
29,16,-106,644,3522,-1441
35,106,101,-906,1475,632
26,-21,-111,-163,773,-800
82,71,-106,1160,-1035,-161
116,-117,58,726,-2310,891
28,85,-73,886,-2783,774
-81,-100,-119,1177,-3069,-373
97,-51,121,278,-3752,541
34,-26,-10,1697,-3647,-718
116,-66,126,97,-3613,1843
-106,-87,74,662,-6726,50
24,35,119,3397,-3675,-1228
21,123,-102,3789,-3316,-1249
-81,-12,-50,1311,-5843,505
82,-50,109,2743,-2601,333
-15,95,71,3488,-3055,508
-81,50,48,3095,-408,390
-95,-31,-66,4343,364,304
-38,-25,122,3562,-360,416
-45,-111,92,4591,100,-367
-107,1,125,1768,-196,-129
-118,-58,-107,-1619,72,809
114,47,69,-588,637,222
77,-30,27,1199,707,-414
96,-24,7,1760,646,-898
99,-25,0,1672,270,-697
-93,24,34,128,-62,-358
-53,-28,-1,-145,371,-855
-15,-97,-27,615,367,-1194
-74,104,-31,1143,-122,-1418
-5,-112,40,84,-850,-469
16,-67,27,-1210,-179,640
-15,-120,-42,-687,469,364
-6,120,-64,618,156,463
-4,-62,-73,497,230,584
-25,-24,-83,-100,192,429
-33,-39,-101,-1,30,-13
-18,-55,-118,358,158,10
8,-39,125,237,74,319
6,-23,106,222,-8,341
-7,-21,102,252,-24,192
9,16,111,-230,-156,359
-112,112,-54,-1386,4345,-2665
53,-38,3,-2053,4333,-3545
-60,-67,-107,-2258,4459,-1522
83,-92,-39,-4218,2577,-49
-8,-11,-79,-2549,4995,-124
81,13,65,1730,2425,-2167
-80,103,-21,793,3426,-1677
-86,118,-126,335,1759,-1007
33,-116,-70,-723,-1644,407
98,-19,-4,2198,-3230,-143
-119,-60,-89,-1584,-2269,1270
101,77,-80,129,-2913,1685
-39,-39,127,-296,-2847,196
-57,57,-31,-107,-3786,-74
65,-33,-72,840,-3029,-2972
36,-116,-60,-1629,-4510,564
75,56,83,4069,-3586,-2045
100,18,-11,4227,-4320,-368
-94,-36,-12,4797,-5138,936
-78,-107,-113,5374,-4715,2003
47,-89,-1,1169,-2723,3926
24,112,73,-380,-389,2190
41,-108,-69,5381,2149,-1633
-123,-62,-54,1341,-219,358
123,35,23,572,-1194,459
93,-50,-57,1174,-334,546
117,-9,-26,577,-116,504
92,6,-10,-493,-191,53
-128,-95,-47,138,224,-1301
-111,73,-89,1169,1017,-2815
-42,99,-77,-41,710,-2201
-35,75,-98,-680,-60,-905
-35,-8,123,-122,-76,-1089
8,-41,99,435,297,-1130
13,-34,96,397,413,-927
10,-47,90,442,265,-495
-1,-22,117,203,-120,423
-5,-8,109,197,168,688
22,-22,83,895,368,650
45,5,77,956,295,968
58,28,65,779,290,1061
63,44,62,674,215,989
53,48,66,632,93,708
43,45,68,683,58,380
43,32,66,782,93,-33
46,31,74,714,-31,-149
57,18,82,639,251,108
61,-3,82,558,507,-261
66,-43,85,776,-126,-871
112,-74,95,1128,-373,-984
-28,15,70,2096,3235,-2751
46,7,-15,1032,6330,-5472
-96,104,-42,498,3479,-4906
121,22,-95,-379,4551,-3300
-45,-39,105,-3923,2529,-3578
-17,-122,-97,-1329,4558,-3934
104,32,120,-5284,3986,-1693
117,-112,114,2701,4602,-4005
-124,-86,-97,-1591,2092,-1636
-110,104,112,2050,2495,-2363
-100,97,-80,59,-481,-676
-38,-94,64,16,-489,1688
77,40,-51,1598,-1735,2100
71,35,6,1719,-1821,3441
105,-96,-49,816,-2178,2307
96,-125,92,-350,-2907,2524
40,-119,8,-392,-3682,1977
95,80,-78,2229,-3454,1627
10,-107,-63,2291,-2469,3066
-43,33,83,1173,-5141,4106
62,-91,21,708,-5263,2913
72,11,-57,2431,-4208,2064
-66,-91,23,2758,130,1221
95,63,8,6018,-1879,3220
-76,-10,-40,4067,437,698
6,107,-27,5049,1067,1658
-77,-114,29,1230,-584,1687
121,98,42,-1182,-1024,1134
115,101,-21,-1916,-167,1730
112,96,-29,-2345,56,1185
-126,-16,-67,-1285,686,-853
-83,86,114,-152,1990,-2840
-114,-79,67,972,1290,-2768
-88,19,109,-1209,-56,-565
-48,55,104,-1342,-38,-53
-22,-7,61,308,847,-1130
-22,32,55,592,916,-683
-2,52,50,581,24,-63
3,103,69,239,-569,269
23,-116,88,-675,-329,233
28,-96,60,-1087,780,-7
48,-39,27,-1265,363,-219
48,11,96,-460,-1430,1206
27,9,-107,1263,-711,232
-99,-35,37,620,1234,-495
49,27,99,-946,-27,-103
50,-48,19,42,135,-1107
55,68,79,-855,-118,-262
107,-43,-16,-2074,457,-513
-7,127,54,-4812,453,-1453
53,21,26,-4430,2210,-2601
-63,-41,15,-183,6328,-1724
-39,-108,7,-1571,4737,-1257
-22,-58,-53,-2471,4877,-1719
-75,5,78,-1129,4370,-1567
54,123,33,-1920,4704,-1956
98,84,-53,-2963,2829,-894
57,-107,20,-2368,3842,-1373
43,-126,88,-5055,2689,-197
33,106,10,-1451,1550,-576
-99,60,-65,-1342,1868,1432
-33,127,-6,3854,2331,-1589
54,-10,-41,934,-809,-256
-100,-23,-98,49,-3036,482
-97,-45,-1,2267,-1410,282
-50,-112,4,2250,-3629,784
-114,-74,119,2140,-3437,443
-71,-47,-22,5163,-3442,-190
3,-89,84,4685,-4072,1052
-2,103,-81,4528,-4066,1573
-16,72,-121,3022,-4046,1877
41,-98,-54,3044,-5005,3770
97,89,63,3862,-4827,3443
-102,127,77,2835,-884,2582
-80,47,46,1802,-1001,1386
26,-3,50,2398,725,-235
-93,-44,90,866,106,893
107,-30,-62,3444,319,270
78,-40,-109,2775,-186,637
65,-61,-102,1736,-699,400
67,-95,-121,-52,-117,25
127,116,69,-1256,951,-405
-119,27,7,-635,898,-718
94,-2,4,272,-76,-643
65,-9,12,315,-438,-1046
-65,-50,2,313,57,-1140
-8,-45,-30,369,663,-352
-67,-41,-58,119,319,-48
96,-22,-18,-204,-846,156
-63,1,-6,-699,-398,412
4,-22,-72,316,785,434
-28,-22,-108,1095,723,305
-116,39,-72,661,-500,615
-53,52,-66,-46,-244,216
56,54,-118,-98,1005,413
11,50,80,40,713,237
-103,46,122,461,-760,69
-38,49,-121,383,-511,-261
50,44,117,459,583,-177
24,31,73,290,552,-225
63,40,73,-1647,5574,-1706
-34,122,36,-786,5013,-2152
-81,-48,78,-2366,6036,-2092
100,57,-12,-873,5451,-3101
40,-115,-18,-1686,4113,-3007
33,86,35,-3105,3624,-2082
63,-59,68,-3000,3139,-1238
24,55,-55,2386,3256,-1516
64,101,-4,-2487,1456,416
-100,18,25,1792,2401,-2032
-112,-114,-71,1930,143,-531
-75,-98,24,436,-1906,734
115,22,-45,815,-2770,1273
6,-67,-34,152,-2963,1254
-92,-20,-105,2881,-3290,32
-47,4,-78,5310,-4045,1068
23,91,-30,512,-4519,1937
106,112,93,3847,-3954,707
33,18,33,849,-4724,1752
119,2,-38,4321,-3903,1197
17,-116,-111,3338,-1194,2375
114,115,-42,4984,-3666,2480
-111,87,105,4704,-219,2050
20,30,-35,273,455,2976
86,-69,-22,2850,2008,1989
-107,6,23,4899,-1028,1348
123,9,2,3324,-1314,977
-107,80,32,407,-739,1406
102,-118,32,-2149,71,1866
53,32,-6,-982,438,294
64,-81,-50,525,855,-1773
108,-62,-53,-853,1010,-1919
-117,82,-72,497,407,-1658
-69,37,-107,1572,156,-1417
-68,-21,-107,1851,-213,-2136
-11,4,-90,500,-52,-1744
-4,-8,-71,-751,-230,-999
-11,-44,-68,-626,-334,-275
-46,-27,-94,-658,42,359
-69,-17,-110,-352,15,525
-15,6,115,146,289,939
22,59,96,559,63,1457
-2,103,99,603,-168,1345
5,101,87,520,100,561
22,98,63,747,461,145
12,96,54,684,237,-147
12,70,63,889,-40,-225
3,54,64,883,-44,-151
8,64,74,241,-93,14
30,72,80,-290,-95,170
21,-35,40,-3520,2537,-2013
35,-32,-50,-159,4390,-3856
-92,-17,50,-4030,4534,-2385
45,-26,117,-2228,4094,-2064
43,-3,-19,-4073,4035,-1499
-22,98,46,-2781,4955,-2504
39,24,59,-2875,4131,-3007
38,-66,58,-3131,4174,-2439
72,80,-99,-4120,2505,232
111,22,104,987,3380,-113
-65,-106,99,145,541,466
-22,57,64,1488,691,-2073
-35,12,-66,631,-725,723
41,94,12,1264,-1364,1383
124,63,3,925,-2145,1377
-3,-14,9,-378,-3524,1673
-125,-90,-59,274,-3750,601
93,-65,-104,1283,-4500,163
30,61,102,-35,-3099,44
4,90,-57,-1415,-4708,2732
48,-56,62,1456,-5298,19
-19,94,99,2169,-5900,-1153
73,12,117,3653,-3450,-1006
60,-20,69,3140,-5056,1363
89,-45,-29,5997,-2593,246
57,-125,-50,10403,2983,67
70,48,39,7782,1750,3719
-13,-89,45,-964,-718,1631
-96,88,83,728,-2240,530
-78,-12,100,2233,-600,75
92,-72,89,1786,485,-738
56,-100,80,1447,454,-864
50,-126,102,616,-138,-795
89,68,81,421,-212,-743
127,53,119,244,-261,-1048
-91,-7,86,289,73,-1339
-68,-15,78,-498,-116,-1044
-51,-29,56,-998,-183,-709
-43,-71,6,-1039,12,-801
-32,-105,-30,-619,306,-681
-51,-81,-70,-721,219,150
-75,-29,-81,-1077,-370,1126
-55,6,-95,-512,-143,1623
-57,111,67,-554,614,1068
-60,103,-118,-1047,-302,-555
21,21,-111,220,156,-1313
31,25,-105,422,216,-718
-11,13,-83,1397,-321,-137
-11,44,-122,1808,-95,386
-15,-111,115,-380,199,473
-20,-62,9,-2747,3432,-2103
76,-84,-57,-350,4952,-4139
-33,92,-9,-2576,4648,-3474
-88,-77,64,-2361,4293,-3923
-34,125,112,-3577,3767,-2965
50,-100,-104,-1780,4002,-3347
-23,95,-75,-3299,2177,-1719
34,-68,-66,-2338,2781,-1196
80,-26,-105,1060,2822,-513
44,-17,76,-1104,1187,-593
-94,-128,25,-120,-574,837
-59,-101,69,379,-2158,340
68,-2,-72,1581,-2810,712
-69,-108,-94,1369,-3245,1250
81,-17,37,1629,-4768,85
112,-63,-106,4162,-5112,548
-50,-29,-64,3711,-4094,1825
-66,30,-104,4341,-4909,2009
61,-73,-88,3683,-7639,3430
44,-51,113,3032,-1563,2007
-61,-32,78,5487,-1048,1534
59,66,70,1094,-1975,1384
115,94,-11,4486,73,226
-39,12,-80,5991,378,-993
126,67,121,4825,506,-2212
-125,-35,112,2980,631,-115
121,-67,-82,-717,600,626
-127,45,124,-1042,822,834
121,-7,89,155,638,748
96,-6,91,317,219,248
109,-25,93,618,-148,-360
-100,-13,88,287,54,-341
-82,-16,61,-172,263,-149
-96,-14,47,-754,1,-82
-92,-22,22,-1122,35,-10
-77,7,-37,-2102,390,75
-66,-7,-78,-1858,77,215
-48,11,-98,-907,-312,398
-65,67,-98,-1271,-27,-21
-48,101,113,-1532,362,-141
-96,-107,81,-1740,117,-388
-107,-11,59,-1727,-853,-243
-88,-24,-125,-3876,-1455,295
-115,127,18,-3597,-1581,-681
70,79,73,-2641,571,-2079
56,28,97,-3783,2379,-1350
11,125,44,-4074,4261,-285
-41,-90,-25,-2494,7809,-316
12,68,-91,-1438,6009,-2382
127,7,-84,-2238,5798,-2213
-83,95,-57,1077,-6922,1744
-48,49,55,3688,-6528,-399
0,77,-1,4543,-5659,889
1,7,-75,2140,-7448,2946
67,25,-89,4083,-3776,1978
-15,-51,66,4829,-924,2191
-124,108,67,2730,-604,2149
9,6,0,5510,3481,48
23,15,6,3201,291,891
31,-71,64,1050,-1917,1361
51,82,64,-549,-1241,1409
51,45,34,-703,-234,825
25,-76,56,-257,166,-1051
79,48,19,898,700,-1805
-98,58,13,509,454,-1586
-95,-15,11,-454,135,-1504
107,1,4,-1606,-239,67
-99,95,-10,-2256,-341,1355
-91,73,106,-413,772,504
106,41,93,2211,489,-762
106,79,121,1683,-327,-1090
127,87,-86,501,-681,-293
-103,73,-91,-399,214,323
-30,57,105,133,741,189
3,52,84,702,252,-155
-57,99,109,-242,-191,331
-121,-93,-103,-1764,-710,987
-11,-92,96,-779,466,891
6,95,-11,1503,1201,-181
-24,-116,54,1396,-564,-261
-28,-28,97,-1507,-424,78
-17,114,79,-479,320,-326
54,36,42,2057,753,-724
88,118,44,1318,408,-533
114,91,35,694,163,-587
-24,81,40,-271,-139,272
6,-108,110,-1638,-914,1298
119,-104,34,-515,707,833
93,57,-57,2045,1546,-872
104,-116,-7,400,-86,-157
98,4,67,-2056,-1114,1177
66,-115,51,86,-758,-144
-112,69,44,2086,749,-1089
-102,103,17,1355,986,-667
-89,126,36,247,-204,481
65,-69,101,-1681,-959,484
-53,-127,75,48,1006,166
-45,-121,-8,646,961,-25
-110,-27,10,-744,-962,591
-103,-43,18,-1028,-814,675
-57,-57,25,3552,3668,-5581
91,10,11,-5390,5222,-3290
38,-6,-12,-2304,5161,-3838
-17,-97,91,-5274,4664,-2734
-9,75,33,-4036,4746,-2183
-33,35,-4,-3890,2902,-1419
119,74,36,-3062,4814,-823
5,78,-95,-4941,3485,250
63,-17,-82,-498,3153,437
13,-94,-25,278,3913,-382
9,18,64,1812,2514,-24
10,-57,110,722,277,-938
51,41,-112,1525,-2416,1103
9,-9,74,2007,-2605,927
-65,-66,82,2759,-2916,959
-101,32,-43,2844,-3958,1485
87,-109,-97,3822,-5394,3051
87,-24,-106,1558,-7621,1938
-24,84,-121,4589,-4099,349
71,20,57,2091,-4587,1465
-3,-57,41,6836,-2938,3352
100,-67,-94,1797,1548,2734
73,-114,117,5364,-2187,1568
84,-22,-19,4129,1367,2090
-52,15,32,4770,1952,1593
-90,69,45,1372,627,2235
98,13,68,-1203,-369,1846
50,-35,18,-1306,-705,1177
42,-116,13,172,-363,-828
102,30,-8,1206,608,-2836
-127,-95,-13,2320,771,-3726
-45,87,15,2649,-170,-2732
-107,-53,60,947,342,-419
-48,68,68,869,-505,-1634
-36,79,-128,-692,-367,-1439
40,85,36,-1405,806,207
43,83,10,-309,290,1785
34,-82,-61,530,636,1670
-6,-39,-65,504,247,855
-5,65,-58,-1882,-89,973
-12,100,-105,-2445,-530,1287
1,83,-91,-1054,-829,740
15,84,-98,528,174,98
7,-121,-81,-835,357,-147
-41,-38,-112,-3154,-1456,217
-74,13,-31,-3800,-2046,40
13,-72,45,-474,116,586
11,-99,47,-2818,946,411
-35,56,3,-273,-425,-168
-37,122,25,-1291,169,654
-100,-16,34,-680,4899,-2915
-30,61,-82,-1101,6003,-2599
-23,97,17,-1095,5211,-1931
106,45,-71,-1284,5220,-2863
99,11,-40,-2276,4341,-1957
-66,-61,17,-2420,4362,-1926
-51,117,-106,-2973,3633,-1206
71,62,-46,-2266,3469,-433
103,100,22,1012,3762,-2015
34,43,-78,384,2735,-1538
-8,25,-50,1513,1106,-1959
-5,-73,9,243,-1738,862
118,30,-49,1382,-1899,1175
5,-7,23,1001,-2582,1500
-53,-111,-16,-241,-3284,1855
123,-47,126,1001,-4584,1698
85,-56,21,3195,-3760,79
40,102,-35,2202,-4232,1197
5,42,-114,2856,-3158,1552
-34,-10,-82,-165,-7438,3099
-80,15,-92,3878,-6522,205
85,-38,26,2507,-3456,1379
-44,47,-20,3329,-986,493
76,78,-16,1318,-1883,1599
-111,88,71,3103,787,25
110,94,60,1292,153,829
107,-40,95,2513,-1215,254
-91,-46,37,1639,908,428
-113,-81,30,2629,123,539
80,-61,52,1440,-500,126
80,92,54,1455,-516,-1415
-114,44,60,1344,215,-1421
-49,82,35,-825,950,-388
-87,23,2,-493,468,-184
103,-48,-8,-342,-1,-638
-29,-37,-42,-177,705,-26
-34,-14,-116,-158,846,-172
-88,-29,106,-42,41,-259
-52,17,-124,-848,-169,435
-62,16,126,-637,55,529
-47,35,105,-420,-15,307
0,63,119,-256,-170,361
37,68,90,224,68,141
4,69,99,912,-371,127
-60,122,-113,-489,-76,796
7,99,127,-476,409,814
25,40,45,2078,235,-259
29,80,60,1658,-355,-578
20,-127,114,-826,-347,334
4,110,93,-943,70,733
-103,7,37,-3299,4553,-663
16,117,-120,-1784,5827,-1773
35,-12,-78,-3149,4058,-1449
-66,60,60,-7921,3913,459
-118,71,19,81,6245,145
-79,78,-20,1183,4530,-503
-60,115,15,-826,3332,655
42,60,71,2874,3600,-1462
11,-33,-47,628,-359,-1335
82,61,-87,-585,-3451,562
-72,85,-18,1747,-2822,1289
21,108,78,1452,-3281,1112
-69,-42,-83,1904,-4046,858
86,-107,-92,-627,-6035,816
59,61,6,-286,-7577,2200
-78,-75,-14,-952,-7304,-832
-22,-125,-61,4521,-4407,-3402
-1,72,-3,8039,-3331,392
-96,-31,72,489,-6530,2450
42,60,-29,7900,-923,2035
12,25,27,5408,-3494,4883
6,-124,71,1034,-2005,982
7,74,-72,2015,-1481,488
-74,-114,1,1949,-1471,195
-107,-76,-2,2123,-1197,228
84,32,6,-401,-24,179
57,115,-70,-881,1159,-1737
104,78,88,1607,1785,-4376
-69,26,-49,4605,2120,-6146
47,-120,4,2304,1470,-3556
-29,-127,-105,-502,-575,-814
-45,123,-103,-2026,-1554,948
-41,21,52,-826,-429,668
-22,-114,-38,-411,986,1314
-70,-3,-57,-1222,588,1656
102,90,-85,-1467,-512,1617
94,97,-67,-589,-1280,1161
111,66,-43,921,-814,446
-36,2,-79,2155,736,-692
-18,62,118,1482,1195,-681
-33,11,108,702,360,-334
112,-128,-78,-3243,-1589,3064
99,6,101,-5334,-430,1448
26,-108,89,388,1858,-1854
-57,-91,-9,2396,2049,-3843
-4,71,41,1198,-689,-2088
-102,-33,-55,-4520,-596,700
99,-101,44,-1782,-989,2173
-23,-92,107,-740,-855,307
-127,116,-10,-824,261,-41
-20,-91,-6,-3194,3472,-2352
-48,-127,-123,-2083,4644,-3066
79,-102,-6,-3471,3763,-2597
25,-57,122,-1851,3787,-2933
51,44,-115,-3212,2734,-1625
100,-28,-60,-5459,1584,-510
43,-123,-58,-3908,2810,-20
9,-80,-45,-499,1286,-406
123,118,16,-377,2568,-903
-114,-105,-114,1362,1473,-1225
29,-120,73,-279,-839,599
99,72,116,1059,-1983,453
-11,-82,-42,2596,-2406,124
74,-105,125,1950,-2809,735
-20,-23,12,1193,-4054,1194
1,-24,-95,3903,-4192,-212
-105,69,-126,4184,-3893,-418
-11,98,-48,3434,-3902,649
22,-51,26,7318,-1606,899
-3,47,110,2427,-4840,2442
-95,-3,-33,4610,-2259,2692
-32,-125,3,6603,-1198,2319
28,57,-76,1302,2360,4013
-42,48,21,1877,-228,3179
107,-90,-36,3734,372,983
92,-29,-82,2111,-633,1663
0,-91,-116,-440,-2507,991
62,40,71,-1166,-667,183
51,66,5,341,1598,-2110
39,17,-29,1105,2170,-3098
-107,-67,-32,1832,754,-2518
-34,-62,66,1238,-708,-921
-120,-95,107,-99,-1215,203
-49,-17,123,-2896,-747,1526
-42,-18,-11,-2348,505,1541
-127,-57,-91,-217,438,734
-108,96,-52,-1183,-242,984
-123,117,-67,-1051,-266,737
-110,125,-85,-214,172,474
106,-90,125,-776,-516,192
-78,-66,54,-2753,289,713
-104,86,35,1134,669,499
-61,-58,60,27,878,-157
-60,-60,93,583,-142,555
-20,-11,-106,365,-380,514
-53,-79,-77,2398,-804,-1040
52,-59,-68,-1741,-1954,-1511
-20,-17,97,381,3220,-360
-28,71,-114,-333,2304,-3130
-109,77,-32,-1517,1123,-3692
-41,35,68,-2580,3491,-3432
-50,80,-62,-2971,2953,-2901
-99,48,-123,-3919,3974,-1915
-32,-29,-44,-3462,2930,-1250
-20,-64,-33,-2242,4445,-1286
-25,-20,45,-4008,3372,-254
12,9,-38,-4515,1790,-442
-13,40,96,717,4431,-1358
-46,-123,82,-1082,1831,87
-112,37,-17,2497,3357,-1404
59,126,39,382,210,-282
114,44,55,31,-1556,950
-48,37,-66,1064,-2124,1278
118,36,87,464,-2563,1310
-37,111,74,367,-3419,1115
121,8,-99,-583,-4267,622
-29,-112,109,2754,-3005,-1074
-18,-105,-35,4478,-2637,-23
-80,115,-64,404,-4635,714
42,108,69,3597,-3298,106
-18,-87,64,2256,-5225,946
-81,6,61,1568,-4336,1328
13,-99,39,3715,-2722,1064
-90,8,-73,1437,-2497,2188
-103,-86,-52,2298,-390,576
38,111,40,1781,-189,753
-48,57,-8,393,-84,947
-101,-117,90,2813,362,443
-116,117,102,3273,-337,130
-127,-38,98,-16,-93,530
-112,100,73,-483,-440,-258
-93,13,24,1568,411,-329
90,85,81,638,-293,-28
-73,69,61,1405,336,-515
-74,70,43,976,59,-296
-91,58,10,-627,652,-103
-112,-42,-38,407,169,-457
-64,4,-28,-341,229,-56
-55,-12,-58,173,252,-256
-44,-15,-62,91,417,-710
-12,-65,-82,635,514,-739
44,-51,-118,657,642,123
-47,-19,-90,257,-471,520
38,9,-93,-419,-78,440
46,-20,119,814,279,450
8,-11,-107,1079,-331,24
10,51,-93,-17,5,290
6,19,-81,173,97,29
41,-5,-117,927,296,2
81,33,-125,105,224,-48
53,-27,-6,-2379,4315,-1885
-31,-36,105,-1423,5282,-2309
117,-40,11,-2115,4632,-2982
-38,127,32,-2794,4714,-1991
-124,-91,34,-2035,3582,-2203
-105,-40,-21,-4305,2241,-104
15,-46,70,-3043,2743,1188
75,-59,34,-158,2783,-563
-2,-8,1,-967,2563,804
-14,28,-110,2796,2753,-1258
45,32,37,987,-192,-1220
87,-83,93,-266,-2666,1098
-7,-71,83,623,-2084,271
74,72,-77,159,-3370,674
-17,111,-92,598,-3585,388
-60,13,23,1157,-3345,892
38,-37,24,1810,-3827,623
-49,83,-20,3737,-6352,-1167
-49,-23,6,1840,-5708,844
67,91,66,376,-4985,953
-72,40,68,2822,-4652,122
-61,-2,35,3126,-3853,1298
85,-23,2,2411,-2153,280
-58,122,0,4060,311,-22
73,-4,-14,4642,1066,-717
-50,9,-67,2853,760,1287
117,-54,-6,2059,832,1169
113,-4,105,-352,-1784,1875
106,-62,47,-519,-1648,2047
118,-64,47,-56,-878,1110
-128,-95,15,897,415,-282
120,121,-3,1886,549,-1170
90,46,-35,2460,353,-2089
125,26,-9,1418,7,-1881
-97,-17,-1,750,71,-1282
-54,-44,4,-233,116,-553
-43,-77,-27,34,276,-559
-53,127,-62,599,239,-666
-21,-104,-43,489,-45,83
4,-57,-57,-214,127,375
-20,-59,-79,-263,117,213
-20,-68,-89,1,107,261
27,-39,-96,28,242,795
46,0,127,-60,552,980
-30,47,116,-370,44,793
-53,42,-128,-128,-296,93
29,59,-112,-307,151,360
9,84,126,-978,300,881
-20,68,124,-261,-210,517
-10,76,100,-323,527,-198
-66,-47,16,-2109,5052,-1715
-9,-83,-52,-1162,6019,-2974
-27,81,-111,-2676,5102,-2487
92,10,41,-2887,5283,-1845
-40,-9,108,-3291,4167,-1407
-72,74,-70,-3049,4030,-863
52,-26,23,-2159,3871,-535
75,-73,-64,-3399,3277,151
-82,97,56,3210,4455,-2329
111,19,41,-1332,2259,-630
5,-113,46,1224,991,-920
6,96,23,522,-1042,-101
65,-112,-43,1046,-2188,586
-8,9,93,761,-2383,1093
-118,-71,88,711,-3249,936
9,12,28,-121,-4236,653
-50,-88,-76,2529,-3740,-222
82,125,114,1490,-4031,237
63,54,37,2050,-6001,523
-27,-84,-25,5021,-3520,-944
-8,-114,30,2685,-4800,1200
36,125,-51,1458,-6365,2175
-49,-47,-10,3413,-4335,1037
-82,-56,114,2953,-519,284
72,-113,54,3323,945,328
8,9,109,4570,1080,339
107,6,29,3377,607,423
127,-24,61,2697,-396,1244
112,3,94,754,-1037,1570
87,-9,92,-597,-797,899
96,127,62,828,-112,-424
91,74,40,1659,324,-1299
-108,74,47,1305,153,-1286
68,65,68,578,-413,-1104
115,-7,81,-92,-125,-1309
-34,-56,31,-298,839,-440
-51,-29,-28,-517,716,-39
-105,-54,-63,-283,83,-643
-82,-69,-69,-37,-64,-476
-73,-47,-77,-684,-106,180
-82,-68,127,-428,106,355
-66,-22,-105,-293,-225,629
-10,42,-127,-221,472,494
18,50,100,99,434,305
-85,105,117,-369,-381,303
-33,71,126,296,-600,-79
9,70,111,890,269,-42
5,100,88,246,505,-248
-8,74,71,484,-105,-104
3,109,87,-280,-235,98
-4,103,53,-3710,2682,-2083
83,48,16,-2224,3319,-2639
28,-43,21,-3236,3592,-1085
-16,-31,29,-2759,4372,-1440
0,-91,-121,-1693,4704,-1276
102,-59,62,-4614,4208,-542
-115,78,34,-1049,4201,-1361
24,44,65,-1141,4576,-1594
34,-11,-34,-8027,862,468
82,-14,-2,2448,4966,-282
113,10,56,-1255,2587,-1339
-93,-126,122,2436,2694,-975
18,-52,61,230,-760,858
57,-40,98,506,-1519,324
-46,71,45,851,-2495,624
64,71,64,966,-2967,874
-42,-44,15,415,-3988,1277
77,55,12,-710,-6460,1912
-3,63,-76,-789,-6909,492
42,109,-123,3670,-1927,-2872
113,114,116,1294,-6527,2205
-74,-29,104,2867,-4167,259
-25,-65,96,5177,-4255,-508
87,-56,-113,1207,-5641,1807
-120,23,-53,2338,-5000,985
43,24,-117,3621,-901,-826
41,27,23,3867,1844,-832
-36,34,113,3291,689,285
66,-28,-73,2535,-1072,343
94,-55,-126,2458,-417,799
97,59,-109,197,-205,1437
92,72,116,-1739,-79,1224
82,-45,72,-468,169,24
72,123,36,-554,1082,-1514
87,-4,11,879,1022,-1484
101,49,-62,494,914,-543
-75,75,-51,-384,277,-241
-112,-20,126,887,870,-1082
-104,-94,112,1669,463,-1547
-82,52,-75,-953,-359,324
-82,55,-77,-1473,-636,767
-49,-4,-103,637,-433,215
-75,20,-108,960,332,-286
-57,69,-100,182,244,-134
-27,101,108,-737,331,446
-52,102,99,-251,-365,934
-83,-105,97,-393,-595,803
-16,-84,-118,56,-777,612
23,-45,122,-525,112,132
-28,-127,15,103,1593,-1338
-87,10,29,248,5064,-3620
54,-78,-9,-1653,3073,-4097
-5,63,-1,-1658,5877,-3063
46,-99,-84,-2101,5100,-3689
-93,68,-22,-2307,4903,-3753
116,115,-89,-2072,5257,-3709
7,31,69,-2688,3769,-3378
77,-100,47,-2229,3543,-2650
57,77,56,-3587,1756,-1281
86,73,-98,2449,2942,-58
-14,14,105,-1538,-125,234
126,-81,23,75,-720,182
-86,-44,116,767,-1993,469
16,38,-53,1450,-2147,468
-125,-63,-39,1520,-3440,633
47,-40,102,2431,-3232,418
22,-25,-15,3018,-4717,643
126,52,62,3807,-5966,964
-74,28,60,4522,-5120,2003
-53,-81,16,3169,-4169,700
24,124,-32,5126,-3654,1669
-86,-59,-46,3465,-1399,1883
3,-128,-36,2423,-1241,1824
-82,120,-27,782,-1582,3051
71,55,110,2350,1362,1090
6,-4,22,3810,1577,1383
-84,24,-125,2956,-1115,2175
-45,40,-117,1600,197,1807
-58,113,110,889,210,2204
103,-126,104,-761,-1181,1825
76,50,80,-1096,-1182,203
91,-91,35,3,224,-1856
105,95,-8,1064,1282,-2321
-120,42,-39,853,1178,-2405
-83,-22,-61,1151,622,-1975
-43,-49,-81,1025,317,-1395
-30,-51,-67,97,-407,-863
-27,-48,-54,-908,-638,-343
-23,-58,-77,-815,-310,117
-37,-36,-87,-532,-195,438
-38,-10,-106,-70,-37,628
-27,12,-119,353,32,744
-19,42,-126,408,5,868
1,90,118,141,14,980
-1,105,110,52,-24,857
-6,117,94,222,20,603
-3,124,84,245,92,270
4,-125,77,175,80,117
-2,124,67,241,65,-57
5,120,65,202,55,-141
28,-62,-59,-6141,1090,822
50,-67,-113,-5306,-380,-487
-100,80,100,1355,2912,-1897
8,-101,53,-1870,4473,-4758
64,19,54,-759,5598,-3523
-49,-109,-55,-2476,6594,-1863
20,110,33,-2940,4466,-2397
41,16,121,-3467,4587,-1022
40,82,-3,-1700,3648,-651
-86,88,-70,-2192,4315,-355
110,19,-4,-2618,2713,-1223
69,27,-41,2297,3344,-2235
12,97,80,-1328,2376,-606
-60,29,-127,1135,1425,-1745
113,-11,-128,389,-493,66
113,122,-107,1965,-1559,90
-62,-6,-61,2463,-1634,87
90,-97,-34,2458,-2351,557
-94,0,-13,1323,-3834,2139
105,55,-23,1898,-3782,1754
37,-128,-82,2177,-3753,1852
103,-127,20,1881,-3591,2609
65,-76,62,746,-8238,2478
22,85,117,-1762,-9775,711
-14,51,-128,2601,-2159,-106
98,124,105,4698,-3454,-303
-59,42,21,4089,-1050,430
48,-106,126,3174,-291,2587
-111,-99,-119,2095,509,3029
-75,-28,-99,1516,-2245,2733
-100,-49,-119,1230,-3000,1426
-91,-56,-64,1271,-2782,607
-121,-81,-101,358,-29,-1103
92,34,93,685,2209,-2792
65,-123,-46,-310,3924,-3096
-86,-48,-113,-1493,1864,-336
103,70,118,-330,-156,-775
127,-38,71,1701,114,-1621
-101,37,93,1020,451,-1085
-102,27,104,-298,184,-391
-85,57,102,90,-414,742
-81,100,-120,300,-913,574
-39,120,-124,723,-403,390
-53,127,125,721,-2,37
-37,-125,-125,659,-12,-205
-43,127,114,426,302,-346
-30,91,99,844,127,-506
-30,76,89,994,-56,-346
-15,76,101,716,-105,-295
14,40,86,826,288,-389
-62,-122,98,-6433,2354,-1309
79,48,38,-4512,3062,-3093
79,-67,24,-897,5145,-3155
-34,-114,-101,-2954,5954,-1558
63,-37,46,-1454,5159,-2995
-72,54,-74,-4487,4755,-893
107,-33,61,787,5529,-1347
-91,-1,55,670,6854,-2224
19,0,90,-3355,2803,-2811
60,21,68,-2458,1859,-790
-102,67,80,-1124,488,778
62,-14,-55,2381,1343,-1135
64,26,22,2606,-762,-959
90,30,-118,215,-2381,749
-25,88,26,294,-2940,2066
36,-79,-1,3352,-4600,568
-45,-122,-55,1519,-4978,1681
110,-93,24,711,-3060,595
-32,-94,-59,2783,-4460,782
-50,-39,44,3413,-5490,1853
-56,-25,24,2904,-4571,1153
57,-38,-107,3632,-5376,2303
-28,-17,36,2883,-4357,2462
26,-122,88,4606,-1047,989
96,123,-33,4246,1653,671
-44,-117,65,1777,-237,1078
127,-100,-2,4634,1626,753
8,35,-65,4306,-3,2298
-59,-46,124,-1144,-1682,3512
118,-20,86,-3276,-1888,3335
60,-111,101,-1565,-1209,1726
41,28,77,656,1129,-1714
45,-90,-8,1099,2728,-4311
-128,17,118,1563,2481,-5067
-27,-32,114,2177,362,-3090
2,49,-50,279,-1009,-273
-51,4,-40,-1400,-782,-287
-96,-23,-52,-1629,-591,77
-33,17,-84,-1309,136,1195
-13,55,-124,-266,63,1200
-25,-120,-118,-385,-154,784
-28,88,-114,867,-7,-247
-28,44,120,1847,794,-818
-13,-1,114,2839,242,-1011
15,96,-72,1728,-204,480
9,109,-109,1448,42,212
43,122,-119,-5,378,414
39,75,116,418,421,404
60,35,80,317,543,-397
99,8,111,390,165,-559
30,122,11,-4091,2114,-2786
-41,99,2,-1472,5097,-2866
109,21,9,-1310,6349,-2860
15,-127,107,-2780,6033,-3946
25,44,-6,-2345,4105,-3631
-120,-116,56,-2522,4063,-3358
-59,-43,-72,-856,4636,-4113
-54,60,62,-4435,3385,-1842
25,116,-124,-185,3943,-1552
-87,-82,59,-1670,531,823
57,16,26,3440,2252,-288
-122,84,-28,951,-356,-108
-48,85,-82,1930,-1960,1035
101,21,105,2181,-2334,2123
-76,-93,122,1900,-4372,2356
-107,23,84,1073,-4750,1936
-52,-108,-75,-822,-6412,2761
-6,26,-94,1418,-6625,1163
27,-2,-108,3464,-3891,860
1,-128,-78,1618,-6280,705
101,-3,83,2515,-3973,454
-73,58,108,2465,-5634,1585
71,34,-43,1591,-3844,1673
85,52,-42,1982,-1310,1444
41,-48,-11,4311,-1435,-190
-128,-39,60,3552,1454,-891
74,-107,47,2531,1063,-785
15,-104,117,-701,-1607,615
63,-17,86,1354,-388,-168
88,-20,96,1412,442,-575
65,-52,71,1339,353,-516
69,-69,58,486,292,-409
81,111,9,729,404,-578
90,121,-6,-213,433,-533
-127,88,-40,99,360,-349
-108,49,-65,634,299,-815
-112,46,-69,487,253,-709
-107,39,-68,-66,158,-429
-90,41,-91,-602,358,14
-83,5,-123,298,210,117
-79,37,122,375,75,256
-71,72,118,-179,25,489
-70,74,110,28,-21,371
-50,95,111,76,-24,311
-36,122,110,-327,343,194
-24,116,80,-206,658,168
4,122,79,-380,223,297
30,-112,73,-562,131,409
45,-91,91,-449,-142,534
-13,-54,104,-699,3,404
-41,-64,-58,-1683,3960,-2544
-10,124,-114,-2660,3109,-2830
6,-72,-36,-3642,2929,-1315
-42,108,7,-4116,2472,-1555
-47,-115,0,-2145,3929,313
51,91,-87,-2597,2312,558
46,49,-9,-2627,4202,454
14,11,-95,-3518,4712,-937
80,-80,38,3548,3945,-1854
-19,-95,-3,3222,1822,-1322
111,50,0,1494,1254,-1365
40,5,55,-1880,-425,745
120,96,-97,1225,-1825,1292
37,-77,-5,664,-2466,2453
-34,47,-26,855,-3292,2040
115,-107,-112,-52,-4143,1849
83,-10,60,-835,-5515,1982
-75,-32,-44,869,-3992,841
91,-115,-10,1075,-6652,394
-91,1,-23,2204,-6197,392
-70,9,-100,2504,-6526,284
51,126,-83,3041,-4568,1134
10,122,-79,1397,-2302,1431
67,-29,-3,6238,798,-620
-126,63,-100,6890,-795,675
-8,101,-126,3430,478,878
-97,84,-98,2347,306,1918
121,-95,-93,297,-290,2234
66,-56,-79,-2195,-567,980
73,21,109,-469,-128,-138
74,-51,74,544,601,-1298
125,-105,19,-114,1148,-2428
-45,61,-44,-137,1120,-2470
9,13,-56,-8,685,-2450
43,-87,-98,269,1131,-3302
87,115,-91,474,451,-2755
31,-84,-51,-772,-394,-164
-4,-20,-88,-1806,-966,1395
4,-32,-119,-868,-851,1393
-11,-14,95,153,-25,1311
15,25,95,936,-366,1259
36,-120,-65,429,-438,1766
29,18,-53,-566,619,1890
17,12,-95,-966,70,863
15,-82,120,923,-197,-484
17,110,83,2043,212,-1185
23,122,97,1182,113,-799
53,80,66,771,337,-518
18,91,81,19,-279,27
31,119,106,-989,-504,308
-71,-96,38,-2790,4048,-1550
-75,115,-6,-1274,5315,-2371
-118,67,-66,-2922,4785,-2110
-86,41,15,-3036,5576,-2142
26,16,38,-2901,4287,-1282
32,-87,61,-4274,3831,-846
96,-75,-79,-2393,3408,-910
-51,84,16,-1322,5050,-785
-42,97,43,-2291,3118,-207
-101,41,-106,981,4161,-1
59,103,26,-197,1673,578
-88,-10,35,782,289,-69
-117,-49,72,707,-1612,88
-23,-30,-51,2007,-2798,719
106,68,-1,999,-3429,855
37,-113,-17,1937,-3851,474
-121,-4,-17,1249,-6647,-29
98,-35,-57,1384,-3917,264
72,-94,54,2051,-4618,951
101,17,92,1488,-6123,1693
-119,109,-89,4160,-4899,495
-42,-62,-41,3171,-5652,1228
-44,-45,-6,1913,-5003,1537
-48,-72,38,2872,-2694,1306
-29,-95,-85,2597,1329,297
-18,94,107,3094,-497,16
-38,21,-94,2821,-1456,-290
-109,-61,120,3347,-522,46
-108,20,-95,1674,81,450
106,11,-120,937,337,387
64,-29,122,272,334,-330
69,123,101,1126,288,-1408
95,76,91,1255,451,-1795
-104,-2,46,1034,904,-2318
-48,-86,21,1428,916,-2497
-6,-121,40,689,501,-1837
-12,-97,55,-853,206,-414
-64,115,19,-611,-300,81
-24,92,-2,29,-287,285
24,124,-27,586,263,807
-2,-70,-37,363,81,1207
-14,-29,-39,141,-134,1155
-6,-23,-36,508,49,794
-31,5,-41,668,-70,542
-6,2,-43,815,-25,273
8,6,-70,787,238,82
27,6,-98,284,333,-167
-72,-8,-86,102,-510,-77
12,15,-59,-499,-427,282
33,49,-112,-922,607,370
-110,27,24,-1982,4538,-1897
24,64,-16,-2040,5205,-1885
-115,27,71,-2364,5419,-1979
5,-39,95,-2702,4297,-1492
121,112,-111,-3051,4785,-1006
40,-39,-55,-2017,4135,-965
106,-88,-84,-2846,3553,-352
-30,123,104,1404,4043,-1088
106,-119,-52,2122,2530,-1268
49,-122,82,-1864,1040,-574
-31,-35,-22,1305,-1415,-166
-103,85,-112,1941,-1656,671
4,-6,-23,2407,-2349,962
-91,-82,-12,1643,-3505,2001
-117,-110,117,1986,-3639,2343
-57,-18,-113,1017,-5660,2428
-84,-84,100,9,-7699,1847
-84,76,112,2339,-3882,609
81,111,99,652,-5545,1453
109,-112,-66,429,-6636,1175
110,17,-119,1887,-7311,592
-84,84,18,3660,-27,-432
95,80,73,1213,-871,618
109,-36,23,4001,953,-884
3,102,59,1673,-513,423
67,113,-20,5344,1380,-1665
105,-6,-4,2100,432,15
111,-6,6,-1045,515,1018
116,72,-48,822,196,1411
124,73,-44,1642,112,518
119,77,-43,1340,132,-332
-102,47,-50,1174,147,-958
-69,-2,-61,1359,222,-1068
-54,-16,-49,614,75,-886
-29,-28,-28,34,-381,-372
-19,-27,-18,-150,-232,-102
-80,-53,-44,-177,-103,-295
-38,-40,-43,-454,-180,251
25,16,-90,-981,185,983
2,40,-120,-798,36,805
-10,75,127,-660,-2,315
-12,55,96,55,364,-550
5,47,89,418,248,-491
18,68,72,117,152,-173
16,85,66,-333,-43,160
17,93,51,-372,-65,108
29,88,45,-83,-91,-18
36,104,41,-179,-225,160
37,-126,52,-326,-357,320
64,-126,49,144,-57,40
-9,-101,-47,-1704,3666,-3790
-99,-82,83,-693,4267,-3732
106,111,-14,-3288,3686,-3267
-56,15,-31,-3448,3357,-2890
30,-59,53,-4419,3181,-1488
-71,-70,-27,-4581,2938,626
0,80,123,-280,4548,-1316
6,45,115,-200,4944,-1805
14,8,-108,-981,2397,-1230
48,-36,-62,2831,3127,-1253
16,20,121,413,193,-904
2,-113,-105,-257,-1458,74
100,-76,5,841,-2057,1322
-70,93,-92,-436,-2237,1393
54,-102,-15,-192,-2942,1075
-127,28,36,-3621,-4485,1771
-7,116,113,-1561,-2536,-1088
84,122,-124,570,-1798,119
-41,-125,85,1655,-3506,-1058
27,30,39,4985,-935,-1701
-24,65,-14,-57,-4298,993
96,-83,-84,618,-3431,-157
-86,68,5,4125,-3100,-827
-13,-62,97,3318,-3094,911
102,64,-88,2014,-8052,1650
-124,-75,-14,1328,-6474,1935
14,-121,68,4062,-3306,893
-103,-65,-3,5991,52,-267
118,-89,-116,641,-1214,-58
76,55,-36,5063,1609,-3626
109,20,-39,22,881,-1491
106,-124,80,-14,1020,-469
90,-2,9,26,876,-383
88,-12,-12,344,597,-248
110,-65,-49,1409,762,-498
-116,-42,-41,843,634,-314
-123,-51,-23,587,2,-180
-100,-65,-5,491,-232,-73
-73,-69,27,632,-256,191
-64,-47,21,339,133,454
-52,-55,2,781,134,361
-32,-54,-14,926,132,124
-16,-34,-21,849,131,382
-102,-14,-14,59,-254,377
-41,-14,8,-134,-345,651
-25,-10,-45,224,634,474
-64,-56,-90,1153,514,-485
-44,-36,-78,1193,-145,-146
-43,26,-58,-200,-111,223
-36,0,-60,-583,-14,-40
-119,-62,-118,-453,4539,-3619
67,-64,97,-233,4604,-3790
-19,-51,-124,-2779,4798,-2157
-71,60,86,-2099,4784,-2599
124,92,-68,-2021,6083,-1719
-81,37,-124,-3511,3746,-2987
103,-60,27,-1683,4860,-2883
4,-113,112,-6538,2841,-16
71,-61,7,1414,3572,658
-113,-19,-118,3211,3200,-2912
-43,96,119,1222,1094,-2265
-37,-17,-12,-560,-1374,1100
56,8,-78,1938,-2071,891
-23,74,122,-142,-2557,1978
92,127,85,273,-3290,1656
-37,-41,31,921,-3623,1349
-62,-38,-117,2514,-4813,129
-99,44,86,4005,-3016,-777
-119,73,-22,-1602,-2686,3236
127,-76,-64,385,-6090,1923
31,10,106,4276,-2644,-167
12,68,-104,-348,-4712,1830
-11,-1,105,3196,-5396,1590
-120,108,103,591,-3687,2108
-35,115,-38,2090,-3872,1667
-71,-112,94,3235,-3329,656
111,-113,-79,2656,-458,-645
101,66,-87,3062,804,-744
-32,44,-118,1884,-287,580
115,96,106,585,-787,1650
73,-26,-119,2245,-991,35
48,-83,126,3575,-547,-2000
101,1,103,-1375,1270,-1133
74,47,33,-466,1422,-921
95,-46,-21,1283,875,-1157
-94,-38,-55,2008,977,-1709
-49,-51,-60,1620,719,-1890
-111,-42,-1,-270,-156,-868
-101,-27,23,-1454,-814,301
-18,-77,-13,-125,-454,547
-22,116,-101,2018,1318,-615
-42,127,-117,2290,1339,-875
-15,-61,-54,1308,-71,244
-15,-18,-10,-219,-873,1286
-8,-31,-35,-289,-232,1016
3,-93,-88,1124,654,284
13,-72,-97,1612,628,-163
49,-36,-73,1021,-81,131
-44,-7,-42,6,-769,460
19,-22,-30,-262,-364,101
41,25,127,2206,3924,-2261
56,-17,80,-2649,4959,-2031
22,110,74,-166,6346,-2446
-71,-55,-5,-862,5417,-1546
-104,24,-58,-2429,4145,-974
15,10,-34,-3325,4076,-875
54,92,-14,-163,5196,-740
-101,-48,42,-3106,4798,-874
8,83,-93,1286,6174,-2226
-112,106,53,80,4286,-1595
-61,-95,-2,402,3601,-1934
25,-114,89,328,1319,-1485
-8,-120,-53,-1789,-953,609
48,30,35,1584,-2032,493
-98,29,-46,215,-2326,1588
45,120,1,1375,-2809,1439
-18,18,-50,1657,-4095,1962
-76,47,16,1500,-6067,1761
-63,-103,-58,170,-6624,933
-34,-9,-67,909,-5671,652
-70,53,88,1173,-6751,605
36,-114,109,3039,-6678,-809
-117,30,117,5003,-4376,996
27,-20,31,620,-4714,2984
80,-115,-19,5683,-1052,555
-128,-11,91,5600,716,327
-100,-62,16,4853,-103,1175
106,-73,65,1418,-721,1332
103,-115,1,715,-676,2020
82,-65,30,-2026,-558,1636
65,112,7,-1245,-204,119
65,-34,-18,987,384,-1827
79,-123,-53,1177,1024,-3314
-122,81,-64,-106,1114,-2897
-15,34,-115,-477,958,-1158
-95,55,-106,-1024,-563,369
-71,-124,-96,-1600,-1118,873
-54,-116,95,-659,50,308
-108,72,75,1120,364,-1066
-110,86,82,1822,103,-1014
-90,107,99,945,-267,-253
-45,-93,120,-665,-81,672
-74,-127,84,-262,354,198
-42,78,55,748,463,-313
20,84,45,993,156,267
-43,-83,80,-304,-636,1433
-39,4,102,-1926,-712,1467
9,-63,33,-496,716,440
14,-92,-14,1031,1098,-338
0,-69,-1,1190,113,-521
-21,-23,-91,5801,-1000,-1854
27,104,-73,1440,-96,-408
39,25,-69,-178,656,175
-26,-6,-70,-828,191,114
-80,-38,-35,-313,-586,-32
-6,-38,-47,-134,116,-70
29,-24,-60,-291,327,287
55,-22,-78,-108,273,452
69,10,-82,-225,243,768
-60,5,-30,317,-201,491
-9,-49,-35,629,517,-638
-91,-68,-69,1170,1384,-167
25,21,-12,-243,273,477
-49,20,53,-773,-314,-15
97,116,99,-2183,575,-239
108,-89,-47,-1414,-52,-1354
-30,-19,-19,3313,-176,-4722
-17,16,21,-4007,5170,-1777
-5,-35,-27,-1413,5740,-5172
-1,-18,18,-2578,3814,-4878
-41,-116,-85,-3049,4661,-3979
11,-17,-28,-1988,3596,-3957
-36,-103,98,-1227,3455,-3306
71,-13,-36,162,4458,-3715
14,-111,-18,-5614,1995,-1774
-117,64,-112,1027,3705,-2383
80,68,84,189,2091,-2658
126,33,-23,621,127,-1403
-20,85,-59,1602,-781,-1140
28,3,115,397,-2764,1258
-65,-109,42,376,-3298,2728
85,-37,35,1441,-3306,2237
-111,-27,14,-297,-4242,3006
84,-41,-104,1661,-4142,1241
-31,100,68,1157,-5599,2168
-81,74,92,552,-4100,268
102,-40,2,1168,-7739,1472
84,86,-71,3616,-5992,188
83,-47,-1,4880,-4265,908
46,116,83,4959,-5881,2313
-81,43,-98,4580,-1080,250
121,-35,94,4628,-376,-57
104,126,-78,7172,1576,410
123,59,-45,1386,-683,975
-90,34,85,-1952,-2082,2305
114,-49,103,-1182,-1014,1138
37,87,-121,1139,113,-938
32,-126,124,-653,370,-2071
-103,-52,12,-185,1254,-2987
-53,48,-89,1730,2219,-3518
-5,-6,38,-2636,5660,-2412
-114,-17,28,-2471,6433,-3291
24,-38,43,-2266,5664,-4051
-17,-54,-6,-3568,5139,-3062
23,114,86,375,5516,-3075
-3,-90,86,-1985,4924,-1983
125,72,67,-1510,2513,-2190
81,-28,-54,-3306,3775,-2589
-127,31,10,-830,2140,-1339
-69,-34,61,2686,3713,-1226
-33,-98,112,-732,987,-1108
-42,21,115,-1144,590,708
-61,73,-13,715,-3173,1231
71,-98,71,2138,-2410,1890
6,83,70,1400,-2008,3172
58,97,76,1992,-4473,2513
91,-25,4,811,-4585,3683
49,125,-25,647,-6047,2969
81,-81,64,582,-7406,1673
16,-100,44,751,-8401,1229
-48,-58,60,2066,-4563,461
44,86,-9,4993,-471,-365
-68,-121,-30,4308,-2440,1600
-5,24,109,4448,982,783
38,124,-111,1787,-847,2516
-96,110,76,2816,1019,255
-127,125,86,1877,-464,1122
119,13,-24,2397,-176,853
97,-29,40,1213,-735,-94
78,-36,31,595,-543,-54
116,-45,17,225,308,203
122,-59,-16,128,461,29
87,123,-55,822,89,-849
126,112,-53,344,-122,-819
-106,96,-75,-81,99,-496
-90,81,-90,-664,-80,-207
-97,87,-108,-1371,-26,109
-81,76,111,-950,-98,68
-58,73,89,-616,-47,63
-73,94,94,-353,-295,328
-68,-109,98,-717,-223,408
-71,-116,79,121,-184,81
-54,-72,88,-504,-142,172
-33,60,95,-3836,119,1102
-74,-16,19,-1487,-224,707
-55,-31,59,561,-231,-6
-13,43,58,263,122,43
-19,-12,40,1366,10,-509
1,47,42,23,195,-134
2,0,24,315,-43,-166
84,-128,-65,-4425,5854,-1314
49,-41,0,-1855,5704,-2136
-55,-36,-125,-1775,5538,-2347
-22,-63,-8,-3525,5212,-1755
125,72,-19,-2597,5030,-1824
108,11,52,-4053,4667,-948
106,66,35,1379,4553,-1695
37,112,10,-37,4020,-328
79,-93,2,2402,2148,-1473
-46,-58,-84,-765,-1410,-828
-112,83,61,387,-2176,1543
98,13,1,2458,-2871,1868
18,-91,-16,2281,-3471,1294
19,-39,-101,2263,-3448,1744
56,27,-71,3370,-3305,2151
7,-111,84,4198,-4805,3171
36,-117,30,29,-10144,3666
91,99,5,2507,-5309,3749
-80,-40,94,5788,-577,3411
-127,-79,105,5301,-2283,5541
104,-57,-48,2946,-1900,3623
77,-3,-97,3420,-2783,1963
-96,7,-71,883,-2240,1456
-128,66,67,1316,-178,-13
88,68,12,1115,1176,-61
76,113,-18,-1648,1620,-613
102,-78,-121,-971,1777,-2524
-26,-23,61,1067,1371,-4086
69,-89,92,2462,118,-4541
-75,124,-99,2306,-1010,-4079
-7,114,11,883,-1610,-2716
-55,118,82,-692,-1843,-851
56,61,51,-705,-955,546
17,113,32,-1255,263,1570
45,-128,-64,-257,1277,2045
101,-90,103,784,1863,2515
-106,-26,66,1036,1452,2919
-112,81,84,469,-68,3326
88,127,122,-91,-1079,2920
22,126,96,123,-794,1480
-16,75,91,1366,-127,-357
-14,25,104,2153,169,-1597
29,-10,114,2146,396,-1935
54,-27,122,1472,297,-1490
-3,-44,-73,705,-764,-785
66,-14,-27,-860,-834,48
-121,-27,-122,-1429,662,-177
127,-90,59,-455,870,-942
125,-87,75,436,-241,-900
120,-48,102,134,-894,-358
42,59,45,-4180,3375,-1576
-102,117,46,-2626,5898,-2474
-95,-27,34,-3402,5004,-2107
-53,105,-117,-2746,4264,-1654
99,115,-31,-2107,5563,-1673
67,17,-25,509,4406,-2667
-81,25,86,-2133,3684,-4929
-58,112,84,-2874,2431,-2359
6,-26,-118,-647,3032,-264
-28,76,-79,1991,2076,-2256
-66,48,75,-833,-588,-415
40,-7,-72,782,-1860,1853
-52,77,52,558,-1689,1543
-108,-67,98,2680,-2876,2039
-14,-3,93,2350,-3728,2036
25,61,-104,1851,-5985,3773
-24,-45,48,618,-7589,3482
-115,-119,-29,1661,-7237,2009
68,-102,109,3495,-6703,-1009
-23,11,39,4587,-4945,-262
-33,-67,9,1873,-1182,2032
-124,65,83,2029,-3343,1193
73,89,-124,4328,890,61
-22,-78,46,3023,-496,850
-66,120,-118,2537,-1158,-137
-111,-11,6,5428,539,-2572
-108,63,-21,5993,979,-1129
46,-6,63,106,725,62
31,73,52,-2581,196,456
114,-110,-34,-1178,651,23
-103,64,-75,-121,997,-619
-90,-4,-97,778,766,-1355
-73,-41,-103,1190,392,-1648
-113,-45,-69,753,-616,-981
-47,-3,-15,-852,-1181,40
1,2,-55,-1240,-241,445
-35,-47,-113,-292,400,136
-58,-41,-110,632,71,194
-41,4,-103,411,-154,604
-28,62,-104,-161,101,1015
-12,61,-127,238,340,870
-2,49,93,1136,390,449
18,54,87,1340,276,60
26,54,89,1034,177,-95
-3,53,99,603,-74,207
-19,71,-123,-208,-375,548
31,88,114,-662,328,658
54,104,59,-655,512,436
25,92,46,32,-43,-122
25,78,41,421,3,-846
27,47,-35,2282,5652,-5152
6,19,37,-1146,4667,-5578
-44,-10,47,-489,904,-6433
31,-49,52,-4259,2092,-4064
-60,-17,0,-3741,2736,-4433
-105,-4,111,-3357,2708,-3657
-106,38,-125,-3294,3273,-3758
-45,24,-89,-3729,4663,-4079
119,27,83,-1010,2885,-1780
123,28,7,-694,3528,-2661
-71,47,115,-128,2642,363
124,99,86,2686,2021,108
-88,78,13,1154,-4194,1561
-45,101,91,304,-5364,2209
7,-56,35,1592,-3253,1578
29,-75,-43,585,-3171,1583
118,25,68,1472,-2989,1227
32,40,44,3248,-4030,-243
-97,-127,-83,2937,-5876,667
-82,-93,109,2560,-5589,2619
54,-127,-105,5134,-6369,2635
69,-44,-38,4604,-6004,3569
45,23,64,1611,-5202,4250
-34,96,-94,438,-3033,2024
-98,-54,-59,1951,-1874,496
-66,-102,50,5880,1711,-2387
-57,76,-31,3565,284,-1021
115,-10,-69,1143,-165,226
59,-94,95,-254,-232,1051
81,92,43,255,310,438
74,35,-17,361,952,-1092
79,-102,-99,1607,1211,-2520
85,93,-113,2480,664,-2529
94,54,-110,2089,213,-1799
120,33,-66,814,-245,-581
127,31,-57,-369,-293,455
-107,49,-66,-882,-193,917
-91,81,-88,-797,-256,1066
-86,106,-97,-419,-247,899
-86,118,-113,62,-54,419
-76,112,-126,654,74,-77
-50,-122,-126,484,89,146
-31,-107,116,179,242,194
-45,120,94,473,340,-49
-40,125,89,361,208,276
-40,-96,82,-244,146,468
-25,-96,71,-222,262,234
-11,-106,58,155,302,-92
-4,-116,48,353,172,-350
14,-128,40,300,194,-415
-93,-32,-119,-6512,575,1764
109,-22,105,-2093,-2380,-1350
117,81,113,1994,1493,-1022
75,-82,52,-1587,4113,-4043
-99,5,16,-1153,4111,-4900
-58,-116,-3,-2847,6847,-2657
95,-105,61,-2446,4884,-2216
109,-80,7,-2851,4375,-1900
-81,104,88,-3300,3724,-1264
68,-64,29,-2596,3331,-599
-124,-68,78,783,6712,-900
82,4,-11,-793,3610,-2222
49,27,-87,-1895,1701,-1990
15,36,-86,718,2171,-1387
2,118,47,1571,738,-1293
-87,57,-16,189,-455,225
37,93,102,1512,-1340,330
-114,82,-3,1543,-2724,2334
32,115,-9,951,-3870,2008
-106,7,103,1183,-5163,2294
25,-127,80,299,-4152,2002
-112,11,32,-3072,-9497,3076
87,59,101,-1388,-5117,-1036
101,-113,107,6059,-3605,303
-9,-10,106,4809,-5083,367
28,-23,86,4501,-4868,1046
-39,-61,-95,3727,-2276,832
-101,96,-32,4292,-632,1159
75,-28,-21,6065,1291,1348
47,-83,-14,4338,-483,3039
-33,14,41,-1099,-3936,3140
-89,-23,-56,-2337,-2003,1986
-88,124,-110,541,503,970
100,117,-119,503,1507,-692
-17,-72,64,1197,1556,-3156
54,109,-9,1416,1506,-2590
-115,127,-49,-305,945,-1074
126,-18,-40,-509,-247,-1349
-102,-40,-21,-35,-483,-302
-99,-21,-65,-63,300,-99
-112,48,-100,-1212,60,-160
80,123,-127,-3209,-519,768
100,100,22,-2329,-127,1550
108,-127,19,427,-334,960
-126,67,105,-647,-578,-103
-57,-58,-80,-1296,277,-528
-34,21,13,-1508,682,-1687
108,-74,49,-274,718,-2683
-73,19,121,47,2636,-3975
61,68,46,-1451,4036,-3192
-94,65,42,-2625,5686,-4392
-16,6,120,-3801,4341,-3134
-93,-99,0,-3383,4972,-2378
-115,104,29,-2876,4849,-2337
-117,-67,-103,-1475,4250,-3178
-80,-100,-28,-3537,2935,-1970
-45,68,31,-4711,1429,-1027
-117,79,-3,2554,3510,-714
-14,117,-54,257,845,-198
92,39,40,1226,-1770,-133
31,114,-27,1474,-3286,1510
-11,93,-102,1021,-3690,1734
124,53,51,2217,-3535,1563
68,-103,-114,3074,-5558,2660
-4,67,72,2661,-4062,1241
-54,100,-125,2796,-5361,915
-43,-53,41,4382,-5307,1630
-72,18,-80,2128,-4899,2347
-33,84,-1,2984,-4327,3423
83,20,111,1744,8,844
52,-123,-102,3596,-1018,351
28,-23,-37,817,787,617
108,6,-75,2424,75,496
66,-84,112,2857,623,701
106,-7,97,1185,48,1419
127,-51,102,1732,-776,604
-111,-77,69,1799,-174,-393
-114,-125,72,836,386,-1539
-98,34,66,839,578,-1884
-63,-25,41,596,806,-1220
-68,-50,19,468,899,-1277
-74,-82,-8,448,437,-692
-49,-83,-6,538,82,-186
-8,-71,-28,310,387,295
9,-98,-56,951,375,268
32,-69,-61,681,33,792
-72,0,-36,-545,-390,1220
-85,-33,-34,-375,-376,814
21,-46,-60,72,252,704
28,14,-78,-70,33,837
-15,-78,-73,-3348,44,998
-11,11,119,-6059,-200,1268
11,-14,-75,1271,1003,-109
-25,-99,74,182,-906,-592
3,-42,103,242,-728,300
7,-63,-96,1149,-65,-297
26,-68,-97,1380,201,-411
27,-111,-79,1360,123,11
35,113,-127,1239,818,83
87,29,102,1985,15,-145
92,68,40,-1517,4138,-2384
103,-84,72,-1653,4688,-3963
-37,-68,107,-2226,5155,-3786
-7,59,23,-3448,3018,-3559
-117,-29,-107,-2883,3791,-3011
-2,-16,-108,-1018,4806,-2899
-128,66,-64,-5664,1690,-1440
94,-77,-101,4179,4670,-1089
-116,-124,-24,-4485,-2878,-235
93,36,101,3656,1521,-606
87,124,-42,-373,-1460,1554
-52,-89,120,1196,-2345,818
96,-123,-37,1559,-3299,2002
16,-28,-97,2033,-4017,685
-26,26,2,2737,-4432,762
-118,25,-99,3742,-5690,1090
-2,-35,56,3645,-5186,1413
-1,-29,42,4671,-2547,430
-93,-32,5,5256,-5274,3507
47,-40,-36,1177,-3910,3686
-38,-67,90,6276,-2898,2838
-15,-126,124,-210,-1814,3662
32,23,41,4647,1466,1303
17,-122,80,5022,1721,1777
-118,-24,-123,2622,-1439,2953
104,12,-97,-648,-2605,2822
-112,-13,90,-1500,-1212,2235
91,-118,34,-347,832,126
67,43,5,546,1661,-2631
82,-71,-42,1282,1394,-3837
-91,87,-82,1355,720,-3669
-53,45,-61,816,-321,-2328
-48,-56,-55,652,-578,-1565
-46,-68,-50,53,-340,-1022
-60,-65,-35,-633,-377,-315
-80,-57,-40,-866,-349,571
-86,-37,-59,-481,-107,1048
-69,-12,-88,84,271,1196
-44,46,-128,323,491,1341
-27,88,106,250,313,1412
-19,-122,93,177,5,1334
-33,-97,99,61,-250,1082
-35,-88,97,223,-77,669
-33,-89,79,454,189,121
-33,-96,75,492,174,-324
-26,-112,63,481,116,-397
-7,-122,56,127,81,-408
4,127,48,-119,24,-415
15,105,39,-14,-26,-585
28,94,39,81,-39,-621
86,-25,31,-840,5853,-1700
17,3,32,-3633,5647,-1102
33,-59,-85,-2834,7598,-360
66,110,-47,-3428,6198,-429
70,-87,108,-2719,4129,1276
-15,52,-13,-3637,4176,135
47,-96,-3,2945,5021,-823
63,-86,-29,1194,3515,-986
124,-120,-89,-287,1807,-544
0,-39,123,-1799,-2284,-862
-125,85,-96,660,-3020,1450
24,119,42,3086,-2438,-874
-59,-66,47,3469,-3729,632
33,-57,111,2863,-4107,-48
-49,-61,16,2429,-5665,1005
-19,-19,-72,-2088,-7173,3641
23,-112,-73,123,-6407,146
82,97,14,6587,-4169,-1955
-91,-36,-88,2547,-2389,97
-71,-27,-105,2839,-1472,2015
-3,71,87,2553,-2035,2322
53,16,3,2491,-3440,1795
106,122,42,3038,-1832,1140
-44,-20,41,3753,796,626
41,-29,-34,4462,722,765
-43,36,-111,3020,-2280,1431
-116,54,-70,304,-1605,835
-89,21,-109,-330,56,568
93,-57,77,77,1456,-371
78,-120,17,483,1577,-1534
122,36,-53,1063,1168,-2312
-77,-24,-74,1375,750,-2663
-16,-69,-59,1219,303,-2416
38,-107,-33,486,-114,-1762
31,-123,-17,-212,-222,-1126
3,114,-14,-624,-325,-282
3,109,-31,-339,-138,530
17,-71,-63,-612,168,1324
25,37,-107,-964,254,1378
16,45,-123,-228,201,921
22,38,-128,611,94,540
24,35,-125,886,80,192
49,25,123,755,338,-104
52,4,127,855,219,-246
85,-36,-113,1070,345,-684
-106,-52,-73,1343,494,-601
-98,-46,-75,1060,704,81
119,-23,-59,310,-38,420
106,-40,-77,735,84,262
119,-5,-52,987,483,-37
90,89,-5,-2426,4446,-3350
64,9,-1,-2713,6963,-3344
39,34,-69,-3192,6452,-3532
-55,-16,107,-4569,5428,-3342
-99,-126,-14,-1193,4875,-3110
124,-125,-53,-2303,3607,-2382
-118,-82,-59,-1594,2931,-2365
86,-61,-97,-1722,1673,-2005
115,52,74,-300,1491,-630
102,-86,68,289,-563,267
-118,-65,116,1763,-643,1045
-64,-93,-70,1382,-1768,946
104,14,-29,3224,-2010,1616
-26,-15,-117,2226,-2406,2303
-103,21,36,4077,-4595,1810
87,-104,-69,2462,-4148,2423
-103,-54,-57,2959,-5691,2471
12,1,115,3651,-4035,1034
-45,32,-15,3044,-6162,3122
33,-82,-110,2816,-4682,2552
-69,36,-65,2470,-1587,2328
-115,59,56,629,-2067,355
32,11,-82,1933,1702,-691
122,87,-103,1225,1002,-98
55,-73,124,2116,-307,402
61,-58,59,1451,-101,1050
105,-53,73,1245,-667,978
-101,-78,58,1416,-306,589
-96,123,23,2232,288,147
-112,127,0,1459,574,-9
-115,110,4,112,193,-280
-74,71,-7,-146,-7,-205
-69,37,-30,109,175,-195
-65,22,-45,-9,388,-445
-80,-26,-79,425,472,-694
-74,-34,-70,436,-108,-115
-34,41,-64,-590,-148,656
-41,33,-107,-642,339,212
-24,5,116,212,397,-231
-8,-1,96,805,114,-258
-6,21,100,417,-132,-74
14,27,102,126,-116,136
25,30,103,274,-43,255
26,40,100,398,-289,209
37,40,-124,657,-119,216
55,65,105,449,357,184
50,81,97,-237,46,232
57,64,74,-88,-51,147
57,45,70,433,135,-80
61,70,67,72,52,32
101,11,13,-1422,5600,-2962
77,-33,10,-1938,6085,-3264
-35,-28,114,-3356,4504,-2836
31,61,12,-2058,4876,-2394
53,-32,53,-1746,4386,-2280
48,103,119,-2222,3340,-2279
106,29,-100,-3100,3391,-1677
-31,-90,126,-2955,2418,-1917
94,-75,9,2123,3668,-1547
-75,110,22,-329,1031,-248
81,-45,116,1292,-454,575
95,72,-26,938,-2056,976
56,-78,-119,2432,-2669,2046
-20,-69,-93,1391,-3472,2461
-19,-12,4,1840,-3550,1813
-5,77,-128,2150,-6077,2826
-88,-8,-78,1637,-8553,1208
86,51,24,3037,-4777,1592
-35,-46,122,3783,-5125,1447
-70,114,-62,4422,-6115,2252
67,-113,53,4000,-2031,2557
-60,43,60,6625,696,719
100,70,60,6880,2614,1445
-72,71,28,4538,629,2033
102,-29,112,742,-1963,1554
76,-83,-117,-2463,-1979,1570
64,36,92,-1334,-464,209
89,-59,75,440,702,-584
121,-106,43,224,1151,-1885
-89,56,-22,837,1103,-2287
-77,-7,-48,1234,737,-2051
-97,-61,-68,1256,342,-2083
-8,-97,-44,1025,-173,-1441
63,-27,-11,-487,-188,139
-6,-26,-49,-1556,153,162
-30,-81,-99,-746,221,-405
7,127,-111,857,140,-292
15,-89,-98,1246,178,519
-20,-63,-39,1335,-465,706
19,78,-121,3714,1290,83
77,-120,93,3583,1805,447
-117,31,-74,40,395,2090
65,-73,-49,-3880,-1038,3335
-56,104,-126,-3078,-1236,1860
-67,-13,95,435,-220,-78
-44,-55,112,2846,664,-1305
-36,63,113,1715,586,-424
7,-81,127,-1765,135,292
85,91,24,-2302,993,-549
-108,-4,-51,-437,1226,-1198
100,-71,79,-1563,3801,-4371
-60,-115,118,-1465,4484,-4898
-20,-99,50,-1902,6041,-5950
-58,-26,-97,-1774,6383,-6450
-1,-3,-97,-951,3604,-5908
51,-28,33,-1912,721,-4506
-107,109,112,-3184,3456,-3857
-94,-54,-90,-2517,2048,-2969
-32,16,-43,-1087,2422,-2053
-41,105,72,1132,2122,-826
-125,84,19,415,630,-1260
68,-45,-17,416,-369,231
98,-60,38,239,-1402,1878
-67,88,86,579,-1572,2190
12,-14,121,914,-2681,2706
-115,64,56,1134,-2767,3006
68,107,-15,1007,-4086,2695
-34,-51,-18,436,-4909,2751
72,62,70,654,-5736,2212
39,91,68,-951,-8290,3044
98,89,-94,-125,-4957,538
-94,6,126,5297,-4119,-138
121,49,75,2797,-3340,1177
-95,98,127,239,-4336,1565
70,84,-71,5017,-2317,1144
45,-114,-118,1446,-1942,1565
-92,86,124,2034,-1091,721
-38,-12,-62,2442,1314,-1553
70,-60,-120,1779,19,-1880
31,48,68,773,386,-982
69,-27,50,-552,912,-244
59,-89,-14,-261,645,201
86,-120,-70,562,605,498
80,-120,-93,1476,747,-63
99,-110,-101,786,633,-624
125,109,-124,505,360,-883
-104,69,-127,836,124,-748
-77,27,119,1064,154,-715
-69,10,-100,1195,-142,-547
-30,-14,-107,1273,130,-121
-58,44,-81,264,-210,985
-53,74,-74,-562,-411,1149
-32,99,-115,-769,277,1204
-19,84,64,-125,846,618
-23,83,51,837,107,520
-34,-119,67,495,-516,448
-54,-98,97,-167,-541,200
-32,104,93,298,11,-472
7,33,52,1491,660,-1178
29,17,48,1632,264,-985
30,-97,-54,-2398,7221,-2889
-71,-107,106,-3038,6384,-3477
-4,36,76,-1706,6952,-3605
39,-75,97,-2951,5328,-3065
-28,-103,96,163,6003,-4534
-90,-35,87,-3440,3872,-3161
-46,-27,-63,-1859,3642,-2112
61,118,74,3596,1911,-1840
-95,-109,-50,-2701,638,100
46,-124,-35,1328,490,-198
39,25,37,482,-1524,912
-83,-127,-45,215,-2659,1702
83,-42,3,1188,-3046,2110
74,65,-45,1351,-3238,2421
1,-105,35,1151,-4462,2855
-6,50,51,2270,-6820,2742
-15,-48,-77,432,-7224,2787
-60,-24,-27,322,-6432,2004
16,92,38,4347,-6105,-466
110,-94,-63,3477,-3178,50
37,16,-21,1348,-2519,2011
-110,60,104,4747,372,-1226
-93,5,-40,8570,509,942
67,31,111,5813,-1004,-1603
109,105,19,7002,1452,-5271
69,22,122,-1784,199,-43
-117,110,73,-4722,93,2396
-126,-61,25,-3345,-137,2018
-106,-71,-100,-1608,1133,1335
-87,-88,123,516,1891,-424
-53,-91,116,1377,1619,-1675
-88,-101,-96,2522,-36,-1392
-74,-82,-26,1383,-1192,-400
-4,0,37,-723,-867,1171
-15,-37,-78,-1072,919,1012
-41,-86,122,254,880,636
-28,-24,-89,890,-314,967
-45,43,-57,215,-563,675
-8,37,-87,509,212,88
30,12,-80,871,400,-417
51,-43,-128,1531,498,-631
42,-5,-95,854,-110,-52
-13,-24,-98,302,-488,25
53,29,-50,-703,-357,584
54,8,87,-850,1061,92
56,-39,57,133,541,-569
60,-21,79,696,-605,-37
50,33,100,-334,-505,159
54,29,99,-350,-89,-266
98,-20,72,632,280,-592
103,-29,28,3111,2064,-5524
-4,79,5,-506,3869,-5383
-15,-9,-103,-6228,2632,-3822
-72,-95,-47,-3563,3736,-3776
-76,-59,-13,-4140,4973,-4432
41,65,24,-1084,5459,-3525
62,-63,-106,-1113,2206,-3573
-41,83,-21,-4109,3288,-2487
-68,96,-38,-2653,1888,-2143
95,-76,-41,-122,3870,-3605
67,87,7,430,-965,-2651
-107,-111,-23,-455,-117,662
81,0,62,524,-746,1339
108,98,112,1801,-1071,1111
-68,11,-65,1588,-2109,1904
71,-106,-51,1657,-2822,1968
-29,-21,-36,1758,-4549,3336
8,1,-6,-1667,-5467,3226
11,-118,23,489,-3219,427
49,-1,-114,4594,-5761,777
20,-95,36,3818,-4150,1901
60,-95,96,3344,-4129,1057
-80,-25,-36,2667,-6420,2192
116,30,-20,775,-5058,2522
72,-47,96,3303,-576,163
75,-112,32,4274,-627,383
118,120,-23,4577,-213,1694
-3,-113,42,3317,1850,1143
-126,9,20,1267,42,2040
89,-59,95,1072,-1749,2626
96,-59,-112,-104,-1410,1254
95,79,102,108,13,-989
117,-32,52,916,974,-2011
-107,-117,20,364,1027,-2401
115,48,-15,524,537,-2378
-60,24,-40,-114,608,-1921
-19,-36,-90,325,579,-1471
-36,-94,-113,1184,430,-1549
-42,-95,-83,1033,-208,-782
-46,-9,-41,-1119,-651,761
-73,90,-48,-3636,-632,1728
-17,86,-124,-2368,-1024,2204
-16,82,92,946,151,1837
-11,-75,63,1977,742,1127
-94,-78,79,1339,-200,25
-11,-127,89,1435,-578,-98
33,-119,68,1271,119,392
-6,-123,85,365,-61,-40
-17,106,101,242,-261,-86
-22,124,114,-325,-244,-6
46,-13,29,-2238,3602,-2537
43,112,-110,-2699,5653,-2864
-79,105,-80,-2667,6523,-3611
-68,75,113,-2116,5796,-3016
42,37,-95,-3015,5316,-2629
-120,99,-6,-1675,5228,-2369
83,10,-23,-1718,4960,-2414
108,-83,23,-1975,3280,-1785
-104,-59,-97,270,2537,-1282
17,-80,36,1586,2575,-2156
15,38,-109,-767,716,97
-19,-95,-105,984,-962,1076
55,-77,31,393,-2343,1333
-46,19,115,2316,-3178,1024
60,100,83,2741,-3222,1579
22,4,-31,252,-3866,2788
19,79,-81,1049,-5611,2001
18,-78,124,3034,-5467,732
60,24,121,2237,-4998,985
-42,54,-116,-130,-9125,2348
-4,-119,-79,2086,-7341,-97
19,119,45,4051,-3345,842
-10,123,58,2332,-1694,1200
84,-119,98,5254,-180,-109
-114,90,116,3841,-1734,919
63,-50,44,6066,-652,-2271
-12,59,75,1237,-888,-1156
84,62,87,-192,1406,-693
79,-114,13,-1369,2095,-49
59,55,-31,19,1378,-42
82,27,-50,655,84,-152
-128,41,-49,822,149,-514
-98,38,-72,897,579,-879
-116,11,-77,778,332,-951
111,-4,-49,624,-732,-168
-112,5,0,-151,-631,545
-55,58,-54,-863,781,1165
-56,59,120,-414,1386,849
-74,73,86,229,561,535
-83,102,105,338,-366,271
-55,108,108,246,-105,-175
-30,90,111,271,58,-313
-27,83,102,378,155,-101
-16,78,84,342,175,-274
2,63,83,553,-32,-324
13,70,102,454,-223,17
18,59,84,352,-1,-198
27,91,116,-201,-538,305
25,110,104,-741,3,312
66,83,57,-37,384,170
-41,26,11,-1941,7357,-2379
-73,96,114,-1342,5825,-2887
-100,-28,86,-2241,5677,-2655
91,46,-80,-7429,3951,-1946
-9,-28,-125,-3391,4511,-1888
-41,-1,-122,-543,6368,-276
-22,-13,96,-2799,4057,-1111
69,-6,99,-579,4469,69
-12,-121,66,1415,4074,-659
72,28,93,-826,1204,-1043
63,70,16,1821,-780,-54
107,113,-88,2635,-2950,903
47,-112,-80,1267,-3464,1368
-69,-45,-44,2301,-4614,1486
-63,80,97,1564,-4651,1416
121,112,14,2516,-7158,1501
96,-101,-127,3362,-5267,1198
67,-103,-104,6462,-6267,-221
118,-5,59,2187,-4816,3511
-54,-10,125,3589,-7196,2604
52,36,-104,3716,-4256,3451
-14,32,-78,2576,2,949
-106,64,-89,3788,-1108,482
73,-103,11,3713,727,715
79,105,38,2837,2002,20
36,87,-11,935,772,301
56,46,-2,-373,-95,438
40,-25,-34,-5,101,-139
30,-94,-50,524,90,-923
104,-106,-66,378,287,-1193
-82,23,-114,1298,490,-1829
-64,-4,-91,1466,-113,-1832
-69,4,-61,393,-387,-1472
-31,-88,-55,365,-291,-1378
-18,-106,-44,581,-221,-477
-18,-42,-53,-573,171,521
-98,-43,-110,-382,216,1111
-118,13,-126,-892,-521,1598
29,-100,-82,-1307,-263,1937
12,-117,98,768,547,886
-12,120,87,1476,-95,-587
-24,114,85,986,-257,-587
-21,125,88,-281,106,-5
-26,117,73,-838,-27,234
-17,88,53,162,-97,95
0,115,70,52,-68,88
28,120,61,-136,128,23
39,117,44,-134,78,41
38,119,37,76,-16,8
37,121,29,141,116,-131
-118,12,44,-3188,1199,-4656
71,-36,-2,-2542,5850,-3282
-61,-104,0,-3122,3564,-2431
0,-59,-10,-4114,5436,-2619
25,-14,-44,-2654,4290,-2491
-1,-96,-29,-5259,4019,-714
87,-62,17,-2660,5078,-1922
-100,-15,-60,-577,4865,-1904
6,55,67,-2442,2946,-215
122,84,-3,3004,2893,-1818
53,28,49,2180,-1723,-2188
88,-34,68,-1290,-2140,2228
59,-9,127,1813,-3307,2670
-19,-84,-18,625,-4181,3448
50,-86,10,-756,-4597,2784
-59,103,50,2674,-2583,-28
-58,64,-25,703,-5013,1695
63,-46,95,1863,-3622,450
85,70,88,4490,-4674,418
-82,-12,-87,1055,-5273,3149
66,112,-67,-359,-7456,2486
62,36,85,2970,-3208,-136
14,85,-111,2741,-3566,415
89,-55,-34,3039,1413,-652
111,-5,-93,1075,-993,254
28,19,-18,1629,1284,299
41,-27,7,607,776,492
120,-54,-17,628,63,747
-108,90,-71,2019,269,454
-120,13,-48,3278,-194,-730
-110,11,-43,2883,87,-878
-100,23,4,1945,-294,-188
-59,49,36,403,-192,618
-57,11,18,442,118,480
-70,-16,-20,706,375,31
-72,-24,-15,791,101,-427
-48,-46,-19,954,-67,-539
-11,-46,-20,617,70,-458
15,-44,-22,162,179,-317
-15,-68,-37,165,106,-324
-28,-75,-51,31,184,-392
-2,-74,-89,-331,397,-139
26,-70,-112,-320,74,190
45,-77,126,142,100,88
58,-67,125,244,28,-4
55,-28,-116,-371,125,343
40,-36,113,-99,179,486
47,-54,105,1029,-147,192
65,-81,95,2419,170,-510
90,-90,127,3174,36,-904
53,62,49,-3048,5795,-2747
-49,-29,-15,-2566,6689,-2730
-70,-18,110,-3903,7849,-3980
-55,15,-21,-2550,6364,-3794
7,-126,-12,-2020,5512,-2886
-76,98,20,-4120,2981,-2438
-117,88,125,-3381,3681,-545
-48,-12,-120,-850,4288,493
73,40,111,1039,4317,-2069
30,-120,104,2569,-106,-2449
-38,124,101,-952,-1971,2023
87,-115,54,317,-2696,1844
59,108,-77,1833,-3205,1588
-77,45,-105,291,-4472,1488
0,69,56,1727,-5154,943
8,-89,-81,2501,-6048,1379
-103,-7,-14,3459,-7528,811
-110,66,-20,2166,-6950,1562
-69,-61,-1,3589,-6429,1180
47,-29,11,3860,-7415,2699
-20,68,57,902,-5306,3156
66,-13,96,1880,1182,-418
-45,25,46,2181,385,89
-23,-97,-108,2959,1029,163
9,115,-79,2808,1449,-164
72,123,-8,1578,-402,-78
110,88,-20,766,-535,201
82,69,-4,-206,-317,22
79,24,-8,-606,107,-638
109,-67,-54,133,715,-1241
125,-100,-91,608,802,-1427
-119,-128,-115,748,479,-1400
-76,85,117,707,399,-1413
-25,63,119,475,171,-1105
-16,42,124,422,229,-1087
-108,-16,114,692,116,-888
-116,8,-100,-294,-533,361
-38,110,-110,-1542,-252,2308
13,-113,62,-1018,819,2397
-30,-99,14,48,893,1394
-29,-85,18,672,-52,-49
-13,-95,24,1120,-624,-171
-7,-80,54,772,-693,105
-5,-74,64,109,-106,305
7,-84,61,271,3,355
26,-94,63,554,-123,-167
61,-115,75,1041,-22,-383
58,102,21,1239,340,-966
9,105,74,554,-661,-480
59,-121,86,-898,-220,395
-37,-55,105,-8368,249,3232
-60,-89,-43,1258,-2125,393
15,46,79,2398,-983,-1608
56,-97,-108,-1446,782,365
3,43,-9,-1789,609,86
116,-20,-49,-1472,1409,1038
71,-13,123,1235,2453,-595
114,-22,56,280,4455,-1513
-71,57,54,1034,4670,-2472
31,88,64,-1509,7684,-1201
63,-119,-126,-1358,6166,-1480
50,-30,88,-1111,6769,-1769
61,-76,66,-741,5262,-1825
-50,-56,-58,-1687,5503,-2001
-86,68,-101,-2258,4692,-2353
-60,0,63,819,3787,-2002
-79,-92,-23,-17,3769,-834
60,75,55,1873,1742,-2370
32,55,-116,-273,-2399,1126
-86,122,21,2104,-3004,1974
-109,60,-11,956,-3122,3305
38,-61,-27,1818,-3847,1629
20,62,56,2473,-4305,1541
89,-102,126,1648,-5963,2175
69,-94,-107,4954,-6201,711
-90,3,-78,4934,-4439,2585
-60,-35,4,3519,-10038,5113
106,51,-99,1969,-5197,3154
5,113,14,4890,-1236,1920
-38,12,-44,1539,-3125,1641
-114,112,-101,3842,2485,-2723
53,-10,56,8027,877,-3066
-20,-10,67,142,-212,227
29,57,66,-3346,177,1460
94,-97,21,-1603,290,1844
96,47,-15,231,926,1281
98,-3,-67,1483,1406,-1032
-109,-17,-106,1464,1378,-2057
-27,-46,-105,1588,281,-1649
-42,51,-13,-479,-791,208
-84,31,-32,-1686,-843,252
-53,-54,-83,-655,-259,28
-21,-49,-124,561,748,153
-35,-16,119,626,492,197
-49,53,-119,-181,-415,597
-40,58,-125,-360,-323,530
-28,16,101,684,203,-46
25,15,93,1037,275,-70
20,75,106,-3,-48,475
14,45,79,404,-63,452
-117,-37,57,1588,5747,-3744
73,-19,23,-1926,8488,-2202
45,-111,85,-2396,5532,-2324
19,98,-34,-1558,6569,-2581
32,75,59,-1868,5046,-2956
127,29,88,-2595,5356,-2323
-120,84,21,-1095,5302,-2245
-115,-122,83,-4740,2970,-1184
-89,38,-42,1396,3925,-820
33,-32,-46,1717,4033,-1773
104,54,64,2641,-342,-2899
-14,-23,70,67,-1926,2214
122,-79,87,1508,-3104,2167
93,-67,18,482,-3051,3731
-43,30,-22,796,-3414,1399
-36,-124,93,887,-4652,1054
-78,-6,-98,1086,-6751,1360
-75,-41,66,3322,-3845,563
-80,33,39,4004,-5229,2248
91,-102,-99,-250,-10788,2360
-103,-5,31,3220,-5388,2009
38,2,-54,3321,-5328,1368
-8,-29,96,2039,-830,108
-104,12,73,7649,-84,-910
-36,-36,-21,4782,-942,1087
93,-56,87,1884,365,351
72,-10,27,-740,225,1094
75,-32,-16,-2335,635,2028
36,86,-53,-938,452,-204
54,-59,-76,270,1224,-1515
74,92,70,833,1549,-1643
-125,-128,118,-24,-2,-793
-67,-121,-108,-474,-349,-106
-53,113,127,-199,244,-468
-119,124,121,76,308,-413
-116,-107,-105,-548,-533,-46
-54,-92,-101,-457,-284,505
-29,-117,105,746,454,118
-70,-85,110,-235,640,-667
-33,-57,93,-573,489,-22
-3,-83,69,1026,17,884
3,-78,58,1385,-163,489
24,-82,52,1178,-33,5
19,-91,57,544,-60,-199
31,-58,56,-1009,28,193
22,-72,75,-790,-659,834
23,-108,49,699,-91,144
60,-93,30,1040,233,-262
57,-53,44,166,-138,142
42,-70,38,64,-152,-34
-37,-60,-10,-2111,4505,-1918
92,-6,107,-780,5910,-2570
-62,66,-29,-2513,5005,-3166
85,85,7,-3003,5143,-2538
-33,127,47,-2137,4962,-2862
31,-111,112,-3557,4095,-1588
-41,-2,-103,-3838,4187,-1374
0,-36,78,1802,5504,-2370
-110,29,-38,-1604,3454,-893
-64,120,-27,3549,1377,-2960
-36,-28,-18,3277,-1379,-2658
-83,32,-22,-156,-3180,3486
-43,-69,125,1059,-3717,3485
35,-102,77,1826,-3216,1266
117,-7,-31,1727,-4343,1768
-99,84,73,1598,-5364,1049
-18,-88,44,3309,-5990,2267
-66,53,68,-867,-8563,2596
109,-112,16,1312,-5226,965
-67,69,-45,3596,-6339,-1252
87,73,52,2629,-5372,1072
-105,-28,95,2130,-2458,1414
-107,-6,-119,1531,-740,491
-72,-45,111,3647,1698,-1944
79,7,12,3753,731,-738
64,-90,-93,4575,951,2
-128,-49,-52,3856,74,1343
-105,0,39,1720,-630,1852
102,-37,72,566,-1081,1177
98,-81,109,943,-1193,246
112,-79,106,799,-356,-156
99,-88,94,-80,302,-897
-118,91,53,112,905,-1658
-117,-31,-35,852,1139,-2400
107,92,-10,2586,68,-3089
-57,96,1,2301,244,-1457
4,-21,-18,-1007,1021,904
-45,-12,-12,-2500,-414,1270
-56,8,-106,-2381,-597,1008
-46,-92,117,514,10,-682
-36,-83,-124,801,576,-1221
15,-35,-112,-391,370,-437
-53,-38,125,-695,2,702
-35,9,98,-1025,-822,1399
51,-90,-113,-1732,-1226,2112
33,113,51,1008,788,53
17,118,35,2165,636,-607
-7,-93,109,441,-651,-154
-14,-107,-125,-573,-528,548
16,76,82,189,513,254
58,-63,-110,7902,2415,-3920
106,-106,-39,-4836,4553,231
-91,-23,-18,779,5614,-3622
-87,-114,-56,-1281,4790,-4148
-76,61,-31,-2956,5442,-2530
86,-99,-19,-1287,5392,-3537
-66,-117,80,-1480,5679,-2991
-95,-14,-84,56,4710,-2999
-66,41,-92,-2722,3450,-2078
119,-15,-59,1078,1215,-1513
84,-18,-11,-1006,1261,-190
59,5,-98,558,339,-663
85,64,-34,-828,-669,2494
-83,-120,-29,178,-2321,1796
55,50,16,458,-2689,1248
-59,40,-80,773,-2650,-402
-85,-118,84,1604,-4123,1058
-40,-43,31,1899,-5535,1516
27,6,21,1449,-4925,1241
20,86,103,2131,-5768,1312
76,98,-18,-1122,-3678,2573
-95,42,8,4346,-3763,2535
105,-1,112,5174,-3996,2935
5,51,113,100,-1932,1780
27,11,-36,2437,-2235,285
112,122,126,2199,105,-589
-17,26,57,1620,-43,-429
-73,-102,-75,1984,-1318,347
123,115,123,2768,114,1203
115,-6,102,1102,-423,1936
126,-14,115,878,-1528,1424
-96,-15,70,-238,-228,-54
101,-127,8,-119,1442,-2221
121,-54,-75,546,2533,-3483
-83,-65,-98,820,1389,-1870
-61,21,-77,-515,-73,382
-79,38,-98,-1921,-742,458
-72,-14,89,-1177,70,-179
-4,19,68,-572,457,-16
-48,62,41,-566,-48,184
-12,75,54,80,-487,35
23,91,83,467,-310,-33
11,69,72,1512,181,-65
-9,55,66,2257,-153,-130
26,56,77,1969,-261,313
38,112,77,425,349,808
24,119,58,-821,542,686
48,90,41,-195,-63,407
60,-11,77,2519,617,-404
-8,1,18,3636,559,-817
25,-118,22,-1850,4244,-1909
53,22,41,-2163,5139,-1779
39,-92,-28,-3633,4690,-1630
-64,19,-107,-1720,6142,-2222
-23,116,-77,-5073,4822,-1220
-72,-68,6,-2599,5260,-958
-104,107,-44,-829,3297,214
-91,10,-11,950,4685,-1543
35,-86,-1,1977,2888,-3497
-11,46,-28,-1226,-182,472
62,-67,14,1189,-1170,1374
-72,-14,-50,962,-2535,1431
-83,-127,-6,-206,-2841,2260
-74,62,-96,3099,-4301,1169
-84,43,48,1760,-4554,2498
-72,-46,-29,3460,-5522,2199
54,-122,33,-1710,-13150,2671
-82,-5,46,-416,-4442,-429
83,73,-42,11121,-4268,-1159
-30,-47,36,-508,-2231,2304
-90,104,-41,1001,-4738,2291
-64,-117,-58,7594,1564,-725
-106,44,119,12652,3111,-624
-94,-117,-51,2721,1546,3061
-125,42,22,-3268,-2565,3573
94,-81,-121,-2174,-2093,2324
92,-20,72,597,-152,568
59,-76,26,524,1786,-1693
-115,-127,-74,-373,2251,-2306
-101,44,112,-764,1150,-1981
-116,-46,83,-1324,226,-1145
-99,-95,76,-1018,-266,-97
-68,-30,113,-1301,-786,964
-54,70,126,-1450,-658,1316
-69,112,94,-1125,-743,650
-92,-42,-29,-1219,-1203,1385
-121,-70,-42,1782,-680,519
-126,-119,-124,2393,951,-1332
-86,-69,-45,-317,1870,-1012
-77,-64,-86,-1243,-209,811
-85,110,6,2174,-1804,-28
34,54,-101,895,-772,-627
68,-32,-80,-3128,1125,-438
109,-125,-31,392,887,-2096
21,67,10,2478,239,-6852
-12,-10,106,-2119,4724,-4945
103,46,30,-2697,4128,-5474
62,73,59,-5609,2465,-4119
104,-91,68,-3399,3006,-3860
-105,-104,-61,-1380,3462,-3405
-63,-25,110,-5719,1535,-1480
1,94,44,-4161,3614,-1484
-53,-101,-127,2416,4281,-2389
-99,-22,-101,-2465,1937,-791
80,-120,-37,1919,1455,-1678
82,95,-37,-196,-395,-1408
-117,115,62,979,-1775,1112
-49,59,-50,666,-2649,1175
80,-9,-1,391,-2956,942
-110,0,-46,2887,-2984,-266
86,-55,114,287,-2989,2106
-92,-107,23,2573,-4514,1638
35,126,-47,1044,-4266,2040
-120,-42,-31,5127,-3128,907
-53,12,111,2426,-6377,2188
87,25,3,1833,-7850,3227
53,-21,78,1125,-5702,2976
-7,-56,89,870,-2250,2054
23,80,-87,1463,-2302,-90
-45,97,-105,5935,560,-1480
92,23,-12,8868,1175,-3498
48,46,-30,-601,686,-364
91,-12,123,-1723,-125,1102
107,-103,76,-1039,-254,904
-117,113,22,-161,407,233
87,34,-32,1513,694,-1403
98,32,-15,1062,457,-1835
-83,22,-31,404,460,-905
-83,25,-50,-219,456,88
-120,10,-81,-386,359,96
-107,-16,-124,163,361,-26
-82,-7,121,571,134,171
-72,21,115,197,-33,371
-68,49,116,-222,-221,588
-63,48,110,-31,-217,524
-20,50,112,319,-211,570
-3,79,120,399,-325,899
-69,113,-107,243,-574,896
-20,-58,-54,-650,-532,1084
-30,-102,113,-316,596,19
-23,60,72,1252,627,-1088
-8,73,79,1537,129,-368
-25,118,84,113,-20,225
-15,123,87,-559,-28,28
14,40,45,762,471,-679
33,5,34,1801,422,-1132
60,0,45,1535,49,-871
111,11,84,599,-133,-214
98,10,75,59,79,284
47,6,95,-188,-558,385
66,-57,26,-678,6796,-1690
-25,89,-72,-1370,7437,-2647
10,-87,26,-1814,6369,-2267
-26,118,85,-2422,6878,-2726
-14,-47,-62,-2373,5329,-2676
-50,39,-43,-3120,4087,-2047
-16,94,77,-2205,3995,-1088
-128,66,-116,1467,3587,-1169
-115,-105,115,250,1693,-709
-36,23,-17,148,-612,-396
3,-34,-103,693,-2549,918
-17,-51,-48,840,-3200,1586
-87,121,-10,1821,-3632,1498
72,-31,-54,1501,-4243,1435
104,33,-25,2270,-4917,1139
-63,76,62,4066,-5757,1205
-75,4,-1,5805,-4382,2386
-128,55,8,2689,-5393,3959
-64,-62,-29,1049,-7782,3318
102,127,53,5112,-3175,2479
10,-30,24,2680,-3394,1521
-111,73,54,5484,-289,-1700
82,-1,79,3279,1769,-744
39,-75,-118,863,661,367
97,-63,-2,741,104,919
112,-49,-20,-651,270,1371
52,98,-44,736,-102,506
59,69,-32,1970,264,-800
104,45,-56,2764,873,-1398
-99,110,-27,862,347,-851
-44,82,13,-1317,-424,-299
9,-52,-31,-834,-235,-609
49,-86,-42,-209,16,-637
-62,-52,-26,-583,-435,-1
-67,14,9,-2019,-941,802
-48,5,-73,-1604,173,1245
-23,20,99,-474,970,1212
-31,79,74,133,283,1054
-19,-121,97,202,-561,963
-38,-102,73,233,-45,254
-40,79,56,934,381,-1046
2,61,44,1416,358,-735
21,86,45,620,-64,-47
29,98,64,-362,-317,459
-10,96,74,-1126,-277,597
42,118,84,-1026,-385,1140
64,-15,63,-2258,-185,1560
24,15,28,-2586,149,851
30,-125,33,-4563,-526,783
80,29,23,-461,523,-659
123,-116,-8,-1833,6196,-2592
70,-33,-110,-1575,6235,-2126
-9,-91,20,-3917,6328,-1704
68,39,-25,-2357,5834,-1706
-33,-11,37,-2986,4841,-1607
-18,6,48,-1932,4431,-1366
114,29,104,-3966,3923,-713
80,-31,75,-1935,2931,1458
-93,-120,-97,-2066,1323,-375
4,63,-30,3171,3088,-645
18,-104,96,234,-1218,-102
97,127,64,-248,-2513,946
63,-63,-112,1095,-2814,259
-107,33,-62,-466,-3684,1636
49,127,120,-102,-3764,-64
120,-52,31,336,-4559,-797
50,-88,104,3034,-4207,-785
59,44,-96,3139,-4423,721
-80,-68,-96,3452,-6227,1290
-48,109,22,189,-8749,905
-27,22,18,1164,-6759,179
55,-9,-9,1151,-5069,407
-22,121,108,504,-3982,1972
97,-53,-72,2757,-1546,-895
-90,-19,-49,3875,839,-897
-51,111,68,-106,-822,224
95,124,-91,1944,-300,-709
67,-84,27,145,1262,-1058
105,122,7,348,864,-774
98,92,1,826,326,-143
79,78,-3,1382,-116,-23
87,82,-17,1101,188,-213
107,91,-36,396,361,-64
126,104,-51,-443,300,362
125,88,-65,-160,87,270
125,61,-78,530,176,-216
-103,59,-92,669,402,-439
-99,57,-113,473,263,-250
-87,48,-123,339,30,-59
-76,52,-122,99,-81,210
-58,59,-125,-23,-79,298
-46,36,115,914,5,-6
-43,43,115,1001,-49,-235
-26,57,117,370,31,46
-27,40,108,424,-172,134
-15,49,117,432,-159,205
0,73,120,34,13,216
2,68,101,201,111,137
26,67,80,227,145,24
17,80,88,-138,-147,34
-55,31,8,-2429,4563,-3390
90,126,-1,-2394,7988,-2908
63,23,-8,-3005,6363,-2162
-19,-26,99,-1200,5737,-3047
-99,-80,54,-2044,3091,-2295
-6,-119,-45,-2289,3895,-1582
19,89,-26,-2489,3240,-1217
-23,52,103,-4914,3485,-968
43,-2,51,1420,4448,-2431
88,34,-52,-1176,2477,-1060
52,74,100,536,1618,-1660
34,-115,-68,1149,-1621,250
-104,-68,0,330,-2406,2590
123,-105,84,1905,-2339,1388
-4,-85,87,2095,-3267,2257
121,-24,-62,1880,-3435,1572
-116,10,-52,2238,-4983,2141
103,115,96,2130,-5512,2387
-49,100,-72,3506,-5753,1656
61,98,100,2044,-7278,2132
7,81,-64,2052,-7059,1074
106,107,-113,594,-6400,1766
10,79,81,3402,-1313,-435
36,-29,86,3281,-1916,-502
-59,-104,31,1683,204,133
-83,-20,12,3591,1342,-1367
-103,107,-7,2194,875,-953
-107,77,-108,-914,-107,1027
-110,-73,68,-264,209,1443
104,97,8,-607,750,861
97,22,-54,-289,1643,-1026
-107,-74,118,1205,1983,-1439
-76,-33,120,1156,985,-182
-72,-13,-116,1276,-116,826
-53,28,-90,434,-567,929
-31,51,-66,-929,-173,-391
55,11,-98,393,398,-553
15,0,-62,1786,-257,321
-29,19,-26,878,-947,101
9,18,0,173,-298,48
24,18,-104,-138,1334,527
20,9,114,207,479,934
-13,45,114,129,-487,1043
-15,77,113,-453,-584,714
7,62,105,-36,-300,-33
19,22,96,890,59,-491
15,20,98,1055,42,-558
27,21,106,597,-152,-272
96,30,114,144,-132,183
74,31,78,431,222,379
-32,109,-42,-3008,4332,-2533
109,-14,-7,-5629,5145,-2066
-2,-112,119,-4039,3241,-2617
-15,34,17,-4935,2460,-1478
-59,103,-13,-2738,5281,-264
27,-3,85,-1398,5008,-115
-96,37,28,-1331,5457,66
14,-11,-87,-2082,4506,-381
60,-75,-11,1575,4017,-1210
72,-43,-112,-1798,-1828,555
49,14,26,-811,-794,-2411
42,-128,-40,2550,-1325,-362
57,-78,38,723,-2209,486
-31,-32,85,2591,-2747,1676
-117,-45,-56,5331,-2715,281
57,51,-23,7813,-3907,1690
-22,39,-50,2767,-4778,3095
-119,6,-58,-1287,-3397,3062
95,120,-91,5681,-1416,-404
28,-120,45,3235,-1712,2336
75,-92,-23,3294,-1930,2093
-108,-75,43,3393,-2906,3085
-123,-33,-72,-879,-2430,4801
-81,-23,-57,2139,-2247,2417
82,119,-90,4365,-284,1024
-94,-62,-117,1599,310,1211
-57,-2,81,1173,157,701
-87,-121,54,3023,98,189
116,-124,20,2969,79,-2
106,-68,75,523,-296,119
103,120,29,-60,231,-16
104,66,8,301,107,-12
106,117,-3,-937,23,370
108,-113,-19,-1992,-166,249
-101,28,-46,-405,188,-442
-80,34,-45,142,423,-404
-57,63,-95,-667,297,71
-63,91,125,-968,-124,176
-50,37,110,347,570,-1486
-24,10,95,890,766,-1871
-13,20,97,-93,451,-840
-11,-9,76,254,115,2
-9,13,80,359,-142,698
49,-103,91,-1602,-302,1181
31,-124,33,-693,-90,390
39,88,46,742,-70,-413
39,89,54,1056,-16,-308
35,115,71,520,-206,194
49,106,66,445,-54,437
54,107,55,568,-44,340
81,-57,2,-1866,4836,-2010
66,101,-56,-2177,5865,-2348
1,-49,-36,-1998,6498,-2978
63,-84,-7,-2693,4904,-3114
-44,-11,45,-1603,4468,-3362
-2,-125,105,-1546,4459,-3761
-84,18,-24,-3955,3191,-2537
16,19,98,-1895,2364,-1086
76,76,-6,525,3164,-1555
-59,64,98,850,1304,-1866
78,-100,48,-559,-213,77
-127,54,114,1629,-1522,1435
-29,-110,-14,1066,-1998,1801
72,43,-12,1514,-2716,2090
-12,-70,-123,1413,-3575,1844
-57,3,-2,2309,-4640,1900
-89,94,-95,2695,-5298,1696
52,-122,53,3496,-5023,1904
35,70,-57,913,-6987,2130
-101,33,120,1851,-6642,1633
62,-40,-117,1613,-4574,1286
29,127,-67,2235,-3033,650
-82,-48,126,2503,-1603,357
-83,-68,123,2299,-1227,822
20,36,-94,3259,668,67
111,-22,71,3601,-27,-46
-127,-66,35,4296,89,-13
112,20,65,2611,-115,688
81,55,100,-157,-110,661
69,-15,76,-1070,119,-161
91,111,42,157,672,-1489
120,42,-11,1027,989,-2073
-98,-21,-67,1254,963,-2470
-46,-44,-74,691,660,-2108
-2,-70,-72,51,189,-1267
32,-80,-77,-410,-69,-375
-81,-69,-65,-709,-376,219
-94,-75,-89,-985,51,397
-9,-83,-97,419,-526,1431
52,2,-111,792,-135,1935
1,35,119,1309,-264,1154
-8,68,-110,904,-263,718
-15,100,-92,364,352,567
-5,66,-119,750,646,-19
9,40,112,1228,317,-244
24,54,-124,853,275,-159
39,35,116,231,86,-185
5,23,117,158,-235,-68
23,12,119,-453,-126,-76
52,41,114,-939,-227,267
-12,-117,-16,-2248,4428,-3901
-58,101,108,-1916,4654,-4325
-111,-9,-1,-4069,3276,-2645
63,-83,-26,-2756,4584,-2060
-22,-70,-32,-2730,5871,-2125
-57,-61,0,-642,4001,-4462
-60,-5,77,-4943,2827,-2320
90,-16,-87,-1404,3225,-775
-43,-84,41,2653,2535,-2555
22,68,52,-545,826,-1254
36,-20,106,10,-1587,1262
-72,-31,78,1519,-2306,1726
90,-22,-82,1862,-2871,2327
-23,-79,127,1534,-3228,2236
-50,-5,-63,2857,-3960,1787
29,-86,19,1497,-5740,3362
-56,-53,79,3044,-6909,1532
43,32,-56,3818,-5335,3291
-48,-22,-7,94,-7622,2485
101,37,-48,4586,-3797,1399
-14,50,121,2623,-2672,737
-106,-86,-73,2142,-1923,480
-92,29,-16,5350,1581,-1034
-45,47,48,6090,2297,-787
-114,119,101,2030,1199,456
126,107,97,-440,385,2742
102,-82,90,-2032,-514,3069
96,92,27,-2439,-586,580
-112,-81,-49,1140,284,-1070
-69,108,-87,1772,931,-2087
-38,52,-116,1566,584,-2376
-104,42,-84,1052,-333,-1557
-108,3,-61,-144,-794,-1406
1,-21,-29,-953,-676,-436
30,-27,-103,-538,632,151
-22,-59,119,382,579,-104
-43,-25,-112,676,-415,275
-22,19,-95,-1,-459,696
-12,26,-108,84,-48,750
-5,-15,115,971,286,584
49,5,94,1711,629,1387
100,105,91,497,476,1890
-12,-66,102,-656,-358,1859
-43,-99,-113,-814,-1418,783
38,106,110,458,20,-14
20,52,28,1901,1398,-1086
6,71,63,1391,382,-933
14,98,87,49,-420,-322
55,74,85,-460,-204,-573
81,-32,62,853,257,-1355
-114,75,-9,-2317,5225,-2499
-26,-35,114,-2872,5038,-3653
-41,-68,-19,-3106,5941,-3117
-118,103,94,-2647,5416,-3218
-3,-94,-53,-4864,4976,-1642
-40,-45,14,72,6149,-3202
109,-71,-13,-2683,3073,-561
108,-56,114,5695,5090,-3942
87,109,-47,-144,-1740,-1480
42,-42,94,449,-2033,753
-22,-106,-37,1978,-2959,1709
-71,4,48,1829,-1920,1673
-7,-38,-54,1862,-3128,1922
-83,31,112,1632,-4289,2258
97,-70,-21,1432,-5324,2083
52,42,-17,2562,-4534,1444
-51,-91,63,-435,-6973,1931
13,-126,123,1208,-7312,-2012
25,-60,55,3850,-2201,397
-26,-36,-93,3436,-6226,1882
20,122,73,4214,-2146,155
-62,104,-49,6469,-1905,-315
-52,-15,63,8686,57,-5016
-42,-21,-5,-3048,3999,-1907
1,-124,-117,631,-42,-495
1,81,40,-795,499,1022
46,30,-8,26,1155,1424
122,30,-59,672,1437,1403
-104,86,-117,503,1299,1024
112,84,-121,234,336,-90
-126,29,-99,431,-619,-1068
-90,3,-87,832,-514,-799
-89,8,-80,599,-123,-192
-55,5,-71,436,-336,604
-33,38,-62,-129,-379,856
-110,29,-96,122,-153,272
-73,54,-56,-224,-669,221
-41,109,-65,-948,39,826
-48,93,98,-717,839,304
-47,67,86,637,302,-135
-64,92,79,581,-10,-179
-32,117,86,-58,-38,-133
-8,82,67,330,311,-362
-19,51,46,763,370,-572
17,36,34,904,152,-464
57,59,48,342,-93,138
50,122,80,-612,-503,920
6,106,67,-615,-378,307
69,124,86,-388,92,199
49,95,14,398,985,-419
-31,22,-89,-8431,-2137,1424
15,-122,45,625,1722,141
103,-94,38,-589,4351,-5885
-38,-115,6,-1696,5810,-4836
-18,-11,-27,-4161,8201,-4010
-10,18,-103,-2803,4951,-4458
2,64,-92,-1655,5347,-3846
0,-15,96,-2896,1866,-2723
-62,58,65,-97,3519,-1977
18,123,103,-3949,1932,-574
7,-41,-4,-3773,1817,-478
78,64,-62,-137,4065,-2391
-33,-105,-97,789,1912,90
117,-73,99,826,1209,-125
91,72,-83,-1766,-2799,2621
-7,93,84,966,-2957,835
-97,68,-21,855,-3578,2230
-117,-94,-36,2185,-3768,1344
89,-15,103,2657,-4108,2093
-7,-115,101,2707,-5042,2037
62,-88,57,1275,-3381,2589
-27,-7,98,-510,-9469,4445
-97,-72,-64,774,-7465,1033
70,-12,-121,4551,-3678,-817
6,1,3,2702,-3923,1094
4,93,88,2224,-2205,591
111,38,6,5829,2336,-658
-43,24,-54,6646,2353,-655
11,-67,-125,1656,673,-294
102,37,-73,118,-823,924
-103,-100,125,1228,-389,899
-54,100,73,2738,588,357
-32,104,44,2147,1068,72
-96,60,39,1095,882,-706
-108,-46,26,1037,675,-1618
-32,103,-3,1318,794,-1719
40,113,-18,852,877,-618
3,125,-30,697,246,812
82,-74,85,-6,-1561,894
-15,-44,94,-473,-567,-395
-63,1,0,628,1356,667
11,35,57,-235,-384,567
-43,-49,51,253,-738,-554
46,-57,23,747,437,-310
86,-38,-27,254,790,-54
88,-12,-23,222,-155,58
64,-12,-31,830,-202,-38
56,11,-7,92,-18,-238
88,-28,-45,143,281,-132
107,-42,-53,361,11,134
2,-4,-5,-3173,4634,-1852
119,-126,11,-2271,5896,-2699
-15,61,45,-218,5925,-3560
-16,-105,-107,-2421,4206,-3770
111,-82,90,917,5220,-5370
76,4,-87,1974,1516,-4677
-25,-116,-22,-3471,824,-1692
-109,-77,-84,-1625,302,-1782
-1,-78,102,-1041,-136,-749
122,65,-70,-11,242,130
-38,110,19,3074,893,-895
-26,-95,68,1868,-614,1622
85,104,111,1753,-1817,2611
14,47,21,3392,-2032,1743
-103,91,87,3210,-2452,2341
-1,-11,37,3160,-4927,3967
-100,-48,57,2938,-5732,4211
-117,-33,-71,3561,-4978,2939
-59,-10,-73,3844,-5316,2893
122,-21,48,436,-3227,3883
69,42,-10,3155,-2479,875
0,-110,-38,2334,-535,-569
115,84,-58,851,625,-237
-121,76,2,1260,687,-414
64,24,-71,37,76,505
83,-82,100,895,584,18
104,-22,104,433,-140,294
-114,-51,31,189,568,-359
-117,-95,7,359,356,-275
-110,109,-50,482,547,-247
-99,76,-56,906,278,-148
-98,104,-58,-169,156,186
-83,66,-96,38,47,489
-64,83,-112,-280,208,919
-57,62,-124,180,-116,1212
-41,96,-86,-512,-344,1545
-41,-107,-121,-818,148,1760
-47,41,-95,1795,-499,499
-15,89,-81,2657,-89,166
-6,63,-56,4411,-716,-272
7,-96,31,1966,-814,-77
2,-86,5,-1115,396,140
10,83,-66,-1831,767,34
-20,-126,117,755,362,-1002
-7,18,-114,2896,170,-1431
67,-1,-98,-378,482,840
70,15,122,-2354,273,813
52,-10,49,-2005,288,300
43,-40,36,-195,-93,84
59,25,61,-271,-325,480
-55,9,6,-1744,5468,-2736
30,-107,49,-2986,6864,-3116
7,72,59,-1842,6836,-3552
71,-81,-44,-143,6284,-4037
41,-60,32,-1352,5524,-4074
65,-63,-62,-2778,2782,-3848
-99,54,-75,-2076,3350,-3273
8,-126,-107,2014,3366,-4336
70,64,-48,-2159,-102,-59
-59,-10,27,220,381,-2646
-63,-36,116,-566,-1301,1249
-53,90,-52,1313,-1438,1582
-1,-103,-1,1222,-2238,1777
-61,123,-29,2887,-1782,2954
-115,-98,-113,1518,-2699,2929
86,19,-13,1358,-3994,3510
42,-47,26,1201,-5236,2666
83,114,-21,3251,-4250,2890
47,124,56,1930,-5279,2570
40,-106,-105,1933,-6675,2387
-86,-110,-2,2122,-3894,2281
43,-8,-11,4866,-77,1442
23,-44,44,5274,-620,2306
-47,105,-119,-661,-531,1801
-119,50,63,3927,56,-928
86,25,95,-1992,-370,887
104,-127,84,1422,-369,-171
115,-105,50,2113,613,152
103,-87,42,1492,332,679
114,127,14,1398,-70,-533
-71,-64,42,-1176,193,-169
-42,107,-34,-2285,927,-1193
-2,-7,-63,-1181,1265,-2198
27,90,125,-2523,85,1643
-72,20,108,-358,-775,125
-16,53,119,898,-363,459
-9,-97,-88,169,-361,442
-4,121,-119,723,160,218
8,103,106,1391,449,86
8,117,96,858,427,-198
17,118,97,626,-232,54
20,68,116,1240,-845,105
22,56,-127,1525,-606,-76
37,37,-122,1572,-44,-388
59,34,114,744,517,-422
64,30,109,33,56,111
57,26,103,-111,-275,219
61,32,105,-91,-246,220
77,64,96,-568,178,337
78,-97,50,-2437,490,875
80,48,12,-6172,-199,1658
-6,26,-112,-4639,-1145,617
109,60,71,2823,-579,-1213
-87,127,108,-1198,1327,120
107,44,39,912,377,-1
83,87,31,961,-299,12
77,107,22,168,110,-226
91,113,26,78,121,-51
-116,-94,-41,-1099,-600,-787
115,-40,-62,411,1162,-331
-52,54,38,16,2603,-2255
104,33,-7,-1853,1869,-2702
-85,-39,-11,-3004,4224,-549
91,-114,-21,-4275,6678,239
56,-17,102,411,7148,-2774
-4,-29,-88,-1638,6885,-2871
1,30,79,-1026,4339,-3360
-124,3,73,-9069,2294,921
-25,-80,49,-383,3916,-539
102,115,36,-252,3758,-533
-28,60,-4,2319,4178,-771
-26,40,-99,567,-108,-1758
12,-99,84,-537,-2185,1204
-50,-40,-51,2679,-1942,1071
-123,-124,72,1643,-2485,1092
78,30,12,2523,-3094,753
-96,66,77,1325,-5449,1429
83,45,-53,3821,-5266,106
-112,-65,-6,3229,-5108,512
23,69,-121,5162,-50,940
110,-31,106,3106,-7752,4201
55,37,1,1248,-5426,4627
117,-7,69,3921,-5574,2410
-9,-100,-13,3914,-527,469
101,18,-64,4211,-308,409
-9,79,38,4457,-1067,919
-128,125,-37,7069,1694,-3442
83,5,-24,-304,350,551
41,53,-118,-4223,302,1768
73,-113,26,-2567,592,2180
101,44,-33,-985,735,799
89,25,-76,23,1312,-974
117,93,-94,-1045,695,-773
-91,121,-113,-1715,-181,-85
-93,68,-118,-1252,272,-297
-76,21,106,-352,523,-434
-55,74,-127,-437,-313,417
-86,112,-103,-276,-650,639
-65,100,95,600,-64,-534
-54,83,-120,576,-224,-1779
116,26,-20,-1589,4922,-2785
-56,-4,-86,-1315,4508,-3028
43,18,-75,-2814,4031,-2497
124,127,29,-803,4096,-2264
-4,92,-112,-840,4024,-1893
-116,-99,-9,843,4253,-1284
22,56,111,776,2489,-837
126,-104,83,1788,2194,-1162
119,98,-91,261,306,-893
-118,99,-16,-714,-828,346
-72,42,-122,1028,-2190,1147
91,-37,10,685,-2580,1985
-56,42,11,231,-3141,2357
72,-98,-44,-1128,-4497,2579
40,-44,-2,-900,-5842,1753
-69,-41,-50,1822,-2985,489
58,-8,51,-669,-6925,1321
124,73,-116,2236,-3302,67
33,-113,76,5536,-4178,503
-121,102,12,-1493,-5457,2378
-36,95,-99,-656,-4217,766
-128,76,-45,1132,-2224,35
-37,-79,-64,3502,143,-720
105,7,-109,1602,-941,-210
48,79,-103,3010,367,-375
-78,-95,-52,2320,1769,631
33,-29,-38,2693,-720,2033
-39,46,43,802,-1134,577
-84,49,48,39,-632,109
-80,-37,91,538,-1034,412
-109,-72,27,1068,-373,352
106,-74,-12,-224,52,-42
-117,-86,-51,-1299,446,-131
-68,-126,-102,-804,293,-109
-59,98,127,81,95,-720
-80,63,118,601,112,-1462
-68,26,-126,955,21,-1211
-58,30,-119,673,-112,-395
-47,66,-111,-522,-85,521
-26,96,-127,-722,-220,864
-18,-121,99,-487,221,490
-6,-125,91,285,152,93
22,-106,96,557,181,-40
73,-104,119,623,32,30
84,-119,-79,240,-473,-182
79,-120,-14,268,-121,142
90,109,-125,918,1833,720
52,-111,-7,72,1982,962
26,-54,-102,-1163,-313,636
46,-81,-126,302,-701,315
-112,104,109,3436,-4634,-865
13,-100,-79,4220,-1768,-462
-39,-120,-125,4400,-797,-57
56,53,58,5302,-1685,507
-90,-120,-113,-302,-2473,2453
-85,-72,4,704,-3322,1702
101,87,113,1499,-1905,545
126,77,73,635,-485,474
67,57,57,-440,-605,1086
48,-84,-85,543,124,273
-13,-69,-106,-25,-67,274
-66,-122,31,126,637,404
-72,65,26,738,87,358
-62,104,-1,1285,-181,1092
-104,-97,5,491,527,558
-34,-50,-25,-227,193,811
-32,-52,-48,-529,160,945
-33,-18,-71,-1547,346,554
-26,-123,124,-766,316,-207
-55,63,-115,342,-187,-580
-24,70,-101,-126,-130,-529
-4,33,-118,579,232,-244
32,85,111,583,-91,-15
38,45,-113,1176,-384,-802
67,112,-81,5504,19,-1486
-126,-121,88,5913,2168,-845
102,-112,-92,265,1686,1069
77,47,-31,-1392,-872,1519
103,3,-84,-209,-1296,1413
125,36,-53,15,-465,846
82,-4,-77,1225,97,163
61,-27,-56,1748,-319,-373
84,-9,-42,979,-270,-187
89,-45,-46,876,42,-361
101,-92,-55,1047,120,-514
101,-111,-62,991,41,-444
112,-94,-47,265,-263,27
121,-99,-53,-92,-125,225
123,-89,-84,-303,104,224
121,-97,-108,-58,3,122
-125,-90,-125,119,2,84
-120,-70,119,65,3,96
-117,-49,111,-32,13,144
-128,-34,98,-23,-10,31
-123,-38,90,160,10,-93
-112,-36,84,298,-68,-130
-93,-34,79,315,21,-98
-88,-29,75,229,-6,5
-92,-25,79,340,-100,77
-83,-15,81,466,33,43
47,125,11,-1482,4085,-2523
8,29,41,-2064,3955,-2779
34,100,25,-3738,3898,-2823
-94,-49,88,-3109,3289,-2135
20,53,41,-1654,4066,-1298
58,62,118,-3053,3019,-803
-123,15,-79,-4475,2237,306
-27,44,-20,-963,4546,135
-76,-83,-95,1335,3694,278
25,-38,73,-12,3330,30
-1,-74,-7,3052,1982,-1411
52,-54,-29,-917,-844,0
-90,77,116,774,-1786,991
11,-43,44,183,-2579,1136
-50,-59,46,3205,-2443,1222
33,123,-4,232,-3978,1830
-85,-64,-35,276,-5139,1445
-121,112,-11,164,-4233,664
-92,-127,-3,573,-5158,452
110,121,80,2229,-4670,-1244
122,24,47,4387,-5695,-68
-79,81,-17,3165,-2707,1542
-72,-5,70,4715,-3754,1992
-28,86,-88,1385,-2998,1742
-71,67,114,4609,-673,929
-115,56,2,-689,-1404,1693
70,7,42,1853,1517,-10
126,-114,81,4219,1138,-703
123,11,108,1477,61,39
-106,-79,99,812,69,-20
-89,-110,65,866,36,211
-94,-97,93,-270,44,-486
-46,65,43,552,458,-802
-18,78,9,-367,159,-276
-4,67,-2,-841,-80,-176
-12,57,-60,-760,220,62
-18,58,-53,-510,-88,26
1,57,-93,22,29,-94
8,68,-83,26,-4,-218
42,90,-80,-80,-12,265
55,77,-104,686,236,63
25,95,-101,759,-112,40
46,-119,-66,-102,-362,437
82,111,-77,593,-51,314
91,100,-112,972,456,-180
68,108,-94,545,-95,98
95,-108,-101,-525,50,366
107,102,-110,494,169,-48
101,113,116,103,193,-61
106,-108,119,-680,-201,536
-28,92,26,-1162,4612,-2911
-70,-70,26,-1668,4658,-2402
-88,-8,-85,-1970,5020,-2647
116,80,49,-4099,4600,-1383
-93,-122,78,-1626,3852,-1386
-64,88,-56,-1952,4441,-1170
-20,76,5,-2122,3773,-577
121,-38,2,-2814,3557,-48
-101,63,9,-1415,3514,-904
9,-58,-39,-374,2202,467
-113,46,30,2446,2870,-673
-11,98,109,706,519,-579
16,-50,-128,-637,-2117,-535
112,109,-82,755,-2785,690
52,67,-121,895,-2862,713
-48,-83,42,1191,-3717,225
35,-88,-76,916,-4694,1189
23,47,43,-73,-5662,483
0,40,-16,4225,-4536,-416
44,43,19,1931,-5566,-49
116,125,-6,5213,-4284,-776
-83,-55,-110,6926,-3094,982
-51,-52,-75,-3355,-9057,4939
12,-51,-93,5313,-1638,-471
-93,-51,-9,5598,-118,-100
-3,78,64,2075,94,954
-15,73,-30,3443,2374,11
22,-54,-111,-554,-108,1262
31,-112,87,-1362,-1412,1481
86,56,45,31,-863,761
120,-83,-11,1835,962,-926
73,120,-46,1518,1393,-1802
108,12,-76,1327,1085,-1989
-94,-18,-80,1101,279,-1375
-72,-27,-39,-72,-463,-816
11,-12,-55,-549,-239,-409
-7,-85,-81,529,131,-1029
-34,-68,-72,341,98,-491
-41,-58,-56,650,-164,337
-45,-33,-82,328,52,638
22,-25,-97,756,-45,1228
37,41,-119,463,155,1600
6,63,107,393,148,1095
-28,75,124,-37,-350,504
-37,90,-117,-234,-414,468
-15,69,115,414,129,-29
16,30,87,1190,471,-893
25,17,80,1188,223,-959
33,19,91,396,-182,-626
55,23,105,-175,-299,-162
-48,93,19,-4271,4199,-1594
-51,124,29,-919,4572,-2831
-1,62,45,-1921,4528,-2512
17,-45,61,-2328,4222,-2661
-42,-106,-78,-3068,4457,-2055
-107,53,111,159,5538,-2503
92,76,107,-4516,3343,-2177
-34,30,-36,-1842,3023,-1254
75,67,-115,-4052,3070,-1253
-32,116,38,1310,3370,-1090
54,100,-50,-754,1473,-844
-111,88,56,93,1529,-1480
-38,62,23,1252,-974,411
35,-35,-104,395,-1666,1477
-46,-56,-6,1650,-1916,1194
85,-112,35,2776,-2017,867
-62,-77,-52,3404,-2724,1235
36,-48,88,1787,-3721,2416
12,28,4,951,-4691,2850
126,110,1,-524,-4500,2459
86,-38,-88,-506,-6107,2072
-83,16,-56,3700,-5694,-879
18,9,70,3719,-5238,697
41,-25,6,3031,-3037,521
53,-1,-60,2775,-3803,2448
-85,-104,27,2711,-1662,1849
65,-107,43,3406,-433,1299
22,86,103,4216,526,1126
-70,88,-110,3795,-1230,1085
-127,96,-102,2505,-1695,804
-123,117,-104,826,-212,366
100,64,126,-241,493,-572
68,-40,71,231,444,-1322
102,-100,29,162,665,-1672
123,102,-23,-77,844,-2092
-101,4,-64,202,622,-2410
-55,-47,-68,671,212,-2240
-9,-86,-61,674,-98,-1710
-24,-87,-45,116,-363,-930
-39,-91,-36,-368,-467,-320
-42,-117,-23,76,-478,380
-17,-105,-50,609,165,906
-20,-28,-49,331,518,1456
-9,14,-81,162,312,1849
16,57,-112,93,212,1891
17,92,120,298,-15,1638
-17,107,111,587,-139,1069
-48,114,120,500,-252,380
-24,109,109,372,111,-146
-15,98,95,365,236,-330
-105,7,28,-2795,4490,-1423
35,-62,-7,-4079,2917,-413
-67,-45,95,-1193,5683,-1893
-37,-21,65,-2417,4478,-1660
31,-58,-121,-3198,4182,-1188
82,4,-36,-1604,4721,-965
122,-113,22,-5334,2813,667
98,55,68,-1626,3868,578
-81,-13,3,1593,4429,-261
-84,-111,-1,1585,4860,-785
12,-15,-86,477,1545,-1194
-81,-107,-86,-992,-1413,277
68,108,59,1138,-2277,1047
-43,28,-13,1478,-2728,920
-63,-5,49,651,-2655,1489
-51,121,-67,1128,-4648,420
18,73,-97,783,-4734,1015
14,-24,-54,874,-5851,634
29,66,-55,-841,-5398,-1725
84,-3,-47,4155,-5681,-1207
102,-54,14,3237,-7058,-746
-11,-43,-89,3896,-3947,1243
73,-91,-18,3750,-3302,1371
84,-76,120,4827,-1582,1381
-22,10,-89,4599,-1626,1334
-18,51,58,1831,-1306,502
-74,6,12,1429,193,118
107,24,102,2792,219,-1218
-114,-68,97,2372,301,-1521
112,99,87,1444,32,-1428
-128,88,97,-746,82,-226
-109,53,56,-2336,196,606
98,-24,-34,-2006,78,829
88,-56,-68,-445,261,233
95,-34,-82,369,134,-171
91,8,-97,635,-102,-258
123,22,-89,581,-71,-281
-110,5,-100,1146,260,-267
-115,5,-104,1121,-7,-160
-83,4,-116,1111,-80,164
-48,13,-124,923,351,512
-40,49,-125,107,64,898
-58,96,-127,-732,-353,1069
-53,98,118,-555,-182,583
-48,84,94,140,254,-7
-57,89,84,391,245,-184
-54,93,73,317,23,-54
-37,111,65,-47,-6,126
-17,-126,54,-463,172,160
0,-118,29,-497,213,-161
-100,-80,10,-2591,4533,-1871
26,-92,-11,-1865,3776,-621
-53,-69,81,-1626,5486,-1185
116,-86,26,-1709,4750,-1615
-8,-86,102,-3124,4648,-911
-53,10,-92,-3037,3686,-248
-69,20,-55,-4014,4952,667
-15,101,-105,2063,5364,-1382
-86,-73,100,906,4519,-1245
54,49,88,2201,2823,-2317
-54,-23,-49,-1816,-608,-1331
62,-87,45,889,-1745,690
-102,58,-23,1440,-1977,724
84,24,99,1525,-2735,2054
-110,67,34,1769,-3004,1129
47,-90,-11,1839,-4264,1663
-40,18,67,955,-4346,1769
105,92,86,1185,-6566,1372
-8,55,-27,3221,-4336,-201
36,99,-5,4005,-3976,153
-27,-56,63,1731,-5891,1854
103,-62,68,4124,-4177,1352
-25,2,-85,9171,-2319,18
-68,102,-78,4225,-2487,3634
108,61,86,-416,1253,1290
101,-3,16,3733,572,-347
57,-44,7,3197,-628,-1184
67,26,-60,2694,168,-664
82,11,-64,-1678,1223,816
89,-98,75,-2611,1085,1517
120,78,-16,-1244,892,855
124,-16,-90,547,1044,-991
-127,-42,-88,1470,588,-2235
-77,-67,-61,1468,-127,-2047
-51,-74,-30,757,-378,-1157
-26,-90,-14,-223,-207,-321
-29,-88,-27,-674,-161,560
-37,-71,-47,-692,-224,1031
-57,-24,-62,-641,-351,1345
-52,17,-65,-473,-434,1486
-31,65,-86,-183,-135,1364
-15,86,-90,236,1145,879
-34,117,-98,-16,483,515
-45,127,-116,234,-722,380
-27,-126,117,318,-541,123
-20,115,83,339,236,-305
-15,100,58,164,615,-657
-7,86,53,311,-4,-625
26,71,48,381,-319,-664
39,60,52,194,-233,-721
-100,3,-99,-2523,6972,-3043
-98,-95,-44,-1318,5097,-3367
5,-103,-84,-2085,5428,-2696
12,33,-39,-1264,4198,-2087
75,-3,22,-1950,4086,-1493
36,-36,-65,-2412,2618,-747
-27,-113,-35,-1531,3238,-1031
83,88,-11,-515,2290,-1567
-32,91,-118,2075,3259,-1604
15,-26,-28,1023,490,-699
-50,-114,-57,-2622,1936,1600
-124,97,-81,2490,-141,-1300
-114,57,-31,-482,-1263,322
7,62,4,274,-1923,1333
90,-20,-77,2295,-2276,602
-59,94,-83,1253,-3624,1938
47,-95,11,299,-3985,2239
-52,-45,122,1645,-1994,1958
-93,-25,96,1774,-2958,1389
-109,50,112,284,-4895,2092
-97,-51,26,896,-5395,1815
-44,-110,72,2648,-7430,2609
96,-3,88,2676,-2604,1374
124,62,59,4614,-2864,2171
-107,-80,-110,392,-1576,3459
-95,45,125,558,-2294,1224
92,52,33,3874,-272,224
9,102,93,3338,-1809,596
-38,60,-105,2730,-1511,768
-95,101,-68,1296,-377,198
109,68,-46,1109,496,-572
81,25,-110,1439,841,-635
76,45,120,-315,457,-680
-126,-21,63,-1499,433,-1006
-44,-118,4,-732,1027,-2091
2,53,-58,774,1350,-2247
46,-1,-91,1301,824,-2119
56,-18,-98,769,357,-1390
41,-60,-110,393,55,-995
22,-105,-108,285,-396,-572
37,-76,-96,-336,-528,275
29,-59,-107,-487,-414,829
-4,-50,-125,-267,-176,559
3,-53,-89,940,-168,493
84,-27,126,2008,408,2024
83,-83,-100,-902,-116,2825
30,-73,113,-2014,-781,2134
-10,-96,94,-954,-641,910
-7,-125,81,865,-128,355
-18,-80,97,370,-256,205
101,-112,18,-3306,3163,-2793
93,52,29,52,5092,-2824
102,22,18,-3582,4495,-2783
1,101,-19,-3126,3898,-1989
57,-52,-69,-1964,4600,-2382
-42,-62,-81,-1590,5923,-2313
-85,17,69,-1627,3443,-2601
100,-56,46,-3053,3335,-1242
104,-66,-3,1251,3958,-1919
54,96,-122,119,1279,-1267
-51,122,-28,-1081,910,-158
-126,-35,-96,901,-647,685
-109,-104,-18,782,-1514,1169
-41,-2,96,965,-2798,1438
102,-111,-50,1403,-3179,1798
-44,-52,121,2510,-3993,969
-108,21,12,2454,-4465,1529
-119,1,-98,3488,-6458,1761
7,-34,72,4449,-5156,1370
5,-33,26,1700,-5746,3136
-36,-119,93,1982,-5697,2799
-121,-106,118,3179,-4499,1974
-106,-87,-62,2980,-2986,2415
86,112,50,2112,-552,1627
-112,34,74,7020,1819,761
-125,-110,102,7539,-249,2800
9,6,116,572,144,3147
86,-66,84,-2269,-1214,1847
63,46,108,-832,-1336,1211
56,-90,89,850,-223,-191
76,-77,55,314,654,-762
101,106,6,-300,783,-1805
-90,100,-42,770,963,-3831
-61,100,-123,3002,1708,-4283
-8,-53,-55,563,499,-1280
-47,-76,-9,-857,-1260,-353
-16,-58,-53,-313,-840,176
-35,-30,-76,-281,-155,346
-62,25,-99,-208,82,877
-68,76,-99,-254,-546,1183
-40,-88,-105,-632,-394,1541
-72,-93,96,-337,170,862
-85,-103,84,524,-32,236
-62,-77,91,705,-429,407
-55,-51,93,302,-366,469
-36,-25,91,-366,-147,304
-40,-45,89,-165,-63,-41
-25,-65,73,73,111,-317
8,-92,71,266,-2,-385
9,-96,45,9,356,-3
-1,-125,-5,404,6645,-3469
84,-47,-3,-386,5088,-4281
-90,55,41,-2535,4403,-3488
-109,17,-128,-3296,5260,-3753
-69,113,94,-1336,4766,-3123
95,40,4,-2716,3709,-3028
121,-56,-45,-3528,2017,-1954
-10,39,76,-1428,2443,-1819
-28,88,-41,444,2590,-137
61,-89,-59,846,1831,-483
79,97,-8,-85,-1746,208
-27,113,-79,983,-2294,1028
69,-46,99,2219,-2737,754
-12,117,-89,2161,-3709,2041
90,-65,60,1375,-4283,1961
15,-54,-82,1246,-5285,1339
34,60,36,1260,-6021,1523
108,-93,-126,1556,-5927,1780
79,-17,120,1488,-5919,1040
86,64,-75,3579,-7300,2237
-66,51,-54,3207,-7574,1993
3,95,-80,3397,-2455,941
82,-104,-30,1932,-1278,360
24,-99,-91,4250,910,-1065
82,53,116,6467,810,-1641
30,-104,-101,5986,-1271,-1248
79,3,-29,-457,-232,-313
117,55,-111,-3314,1105,578
98,95,7,-1366,1262,138
81,-1,-39,749,880,-766
92,2,-27,2096,162,-1500
-125,-8,-19,1817,154,-1472
107,-29,-17,982,313,-982
-126,-55,5,473,-303,-108
-70,11,28,-635,-275,1180
-94,22,-40,-1055,460,887
-99,-17,-87,-75,390,246
-77,-9,-95,940,-177,385
-70,57,-78,305,-382,617
-53,89,-74,-244,-138,470
-57,57,-100,271,198,48
-54,46,-110,721,33,-124
-52,53,-118,546,-2,2
-44,81,-110,-149,-135,251
-28,72,120,-177,161,66
-16,67,110,59,-18,-39
-4,62,87,236,62,-166
-9,74,83,-108,-122,-43
-3,94,88,-628,-177,262
19,96,63,-458,108,129
