AccX,AccY,AccZ,GyroX,GyroY,GyroZ
1,-94,125,2298,3328,-4037
120,-122,-3,3677,4599,-4444
-95,-73,-106,3574,5070,-4631
-91,-41,-80,3306,5290,-5049
-96,94,-101,1933,3654,-4866
-77,52,10,-333,2507,-6791
63,-115,114,230,2498,-5136
125,-60,-8,-431,1343,-3824
-109,-11,100,-1168,518,-1901
-92,123,40,730,202,44
-76,-107,-57,2016,-729,410
-119,32,-28,2080,-1057,-723
-101,22,-47,2460,-1246,-439
-12,6,66,3271,-1228,841
63,90,15,1642,-2052,1371
13,-124,102,745,-1581,782
43,-116,63,-2069,-3250,2136
-41,64,97,-145,-4055,4667
7,-98,-90,-1739,-5152,3427
84,95,107,-4705,-5761,3599
97,-106,-121,-877,-1933,1467
70,62,29,541,-726,-6
-86,-43,-7,1752,1037,-1836
71,-97,-76,152,587,-566
18,74,-10,196,417,-461
40,29,53,643,736,-901
35,-9,3,1823,-265,-273
30,-65,-63,1876,-741,284
67,-5,-89,998,-192,848
57,68,-54,-12,-759,1258
36,55,-28,1103,-483,1841
111,87,8,2006,-295,2604
98,-125,-26,1479,718,2463
97,-47,40,654,-510,2816
-111,-98,80,1574,114,2360
-108,-60,101,913,952,2173
97,-126,-101,229,159,1477
89,19,100,562,657,1546
64,2,98,829,465,1096
47,-47,55,851,104,708
46,-48,19,-208,-12,248
40,-73,45,-579,-115,-381
84,117,5,-176,667,-823
79,87,-14,-93,391,-908
92,68,-30,-483,208,-954
84,33,-23,-241,-57,-667
85,14,-34,113,517,-427
96,57,-35,-504,304,-437
115,56,-33,-151,456,-443
120,113,-32,-764,382,-54
-32,121,-103,3174,3464,-4151
86,-109,88,3184,4608,-5212
-121,-87,-104,3007,5991,-5146
-19,-92,39,4688,5802,-4651
-90,101,42,2850,4175,-5636
89,117,78,895,1941,-6222
-26,83,23,363,1324,-1468
17,40,-30,-1037,-1795,-115
-58,-97,-42,177,-993,155
-64,76,1,1449,-1924,264
-24,-91,120,1662,-2722,-1283
-13,-94,115,2911,-2164,-906
68,-90,14,2358,-2352,-1110
-62,-113,6,1629,-1558,-8
-125,52,84,-4077,-2849,-1613
36,109,-26,495,-4542,2659
-55,-68,70,-2469,-6412,2936
28,-65,58,-2906,-7653,5898
-3,68,-107,-859,-3335,597
67,-112,68,2968,2192,-1653
57,-77,-15,-206,-376,-1033
17,26,-41,717,688,-312
10,54,-46,691,815,-152
37,81,31,682,-57,-771
49,-6,-68,1799,-92,-523
49,23,-97,973,-539,-30
41,40,-72,-120,-273,1152
53,41,-94,558,-595,1373
97,-107,-70,911,-1281,2828
111,84,40,2567,-857,3073
-60,-69,46,2098,-401,3695
-15,-16,92,1419,-491,3778
-54,7,-86,2357,-271,2757
-94,-71,104,2069,877,2194
104,-108,-123,1010,308,1651
32,-128,-128,1030,178,685
2,27,106,784,622,-131
-11,-42,80,542,466,-351
13,-122,66,455,286,-512
35,55,55,399,391,-663
48,26,38,392,455,-779
49,18,27,204,395,-686
70,25,15,-564,177,-431
67,10,-1,-316,109,-442
65,48,-2,-693,157,-284
75,50,-5,-317,98,-276
74,67,0,-101,102,-116
115,74,-14,38,484,-49
101,-118,-24,-696,-147,-270
73,120,-36,-498,51,-553
-76,125,-119,1998,3066,-3608
3,90,-12,2672,3797,-4023
-94,-83,97,3676,5689,-4734
-128,-27,-104,2841,4857,-5590
-107,107,-118,1922,3812,-5428
114,102,35,660,2546,-5167
1,16,-90,146,1619,-4267
33,61,-99,-788,644,-3240
82,-65,66,450,400,-1205
-123,-104,3,755,-897,-678
-74,19,-19,1908,-1273,-1254
-86,104,-9,2924,-1482,-1364
-83,7,-115,3255,-1494,-1159
71,-124,-8,2945,-1803,1517
-113,-47,-83,1997,-2114,2410
56,-87,24,-2227,-3474,2008
-128,-97,105,-1400,-5640,4081
-68,-44,31,-3325,-5527,4444
10,-76,-55,-2826,-3318,3691
-45,-11,125,-152,-1826,620
39,-38,20,2244,424,-1532
116,-72,-15,666,572,-821
40,86,-55,-395,758,-18
19,67,14,182,125,55
58,116,46,-146,-238,-383
61,17,-74,812,-350,-965
70,33,-113,285,-1188,-323
-14,-36,-72,1193,-1731,1133
0,23,-62,863,-512,1109
51,81,-42,1429,-894,1956
64,41,-50,3158,151,2623
-60,119,-15,2241,444,3398
-17,-63,-38,2105,-176,3567
-63,-124,-109,1148,-1364,2400
-47,109,-126,819,-306,2232
-102,85,-113,1111,663,2229
111,123,124,1045,227,1121
39,80,86,848,-42,-41
1,-23,61,584,225,-648
-10,-96,25,172,504,-1019
10,114,4,-383,664,-1150
59,43,-23,-115,757,-1097
60,25,-36,-155,493,-1176
85,8,-30,-194,385,-1197
89,3,-33,-392,461,-766
82,1,-30,-189,-7,-252
85,38,-35,-518,61,-119
100,79,-53,-644,222,-292
94,93,-44,-380,139,-127
88,103,-59,77,377,-121
3,106,-82,3517,3283,-4393
123,-74,63,2785,5467,-5111
108,-24,-97,3038,5324,-5246
123,110,-32,1453,4986,-6650
-102,-97,-65,1547,4084,-6520
125,-80,50,876,3120,-6734
-41,-23,18,-568,1357,-3075
-80,-90,-125,-1448,-185,-1022
-64,-112,65,1224,-199,869
-28,48,11,936,-815,121
-48,59,-59,3168,-991,-21
-55,-102,-47,2360,-1506,40
6,102,66,2736,-1865,51
58,-94,-124,-358,-2718,577
14,110,-86,461,-3406,2231
-18,-7,45,-3055,-4418,1861
-105,-81,-26,-2935,-4264,3935
-4,-48,-17,-2553,-3566,2769
-125,85,61,1378,-36,248
99,-108,-3,2437,1244,-1964
-81,65,-65,-60,-36,-1007
-38,57,80,-406,700,30
5,-113,-28,52,-235,-869
104,2,16,1452,-90,-740
81,-31,-74,1173,-189,-677
43,61,-109,2754,-267,171
17,-71,-81,688,-731,2660
78,65,-51,-49,-1295,3221
107,99,-3,1783,-1176,3750
-44,-41,55,1654,-629,3608
-5,-64,11,1705,514,3746
-68,28,83,108,-1121,3516
-114,-75,-51,1466,-735,2619
-89,-97,-95,1545,699,2460
77,-127,119,762,992,1013
60,-116,117,267,1717,-135
7,62,81,1341,1366,139
-24,-11,56,946,-33,-207
-5,-79,43,-254,-761,-282
35,105,27,-390,47,-1023
65,24,8,225,610,-594
77,54,2,-207,167,-537
91,36,-17,-78,82,-524
98,33,-13,-313,-17,-542
108,34,-16,-434,139,-540
86,29,-13,-260,110,-267
83,68,-13,-490,111,-163
90,75,-30,-157,302,-27
88,105,-38,234,150,149
78,-124,-46,-275,146,-352
-113,-96,73,1759,2406,-4061
55,-105,-57,3091,4541,-4819
112,-37,108,3767,4950,-5711
107,82,-83,2848,4873,-5820
107,-39,-45,1617,3803,-6912
-113,-24,-96,654,3413,-7396
117,-27,26,1031,3007,-4511
-103,-10,-117,755,475,-2273
85,112,-33,-288,-2021,-35
102,16,-99,1549,-1148,576
-120,103,43,1265,-1401,-741
-83,93,-7,2509,-774,-1733
-91,-23,33,3679,-1339,-371
55,-76,-22,1554,-2217,1500
74,-125,18,1173,-2320,2838
20,-5,41,-1677,-2106,2224
-72,5,-88,-878,-4562,4596
59,-85,99,-4505,-5076,3235
-25,-95,-117,-3480,-6999,5413
35,-100,-102,78,-1987,1536
-98,72,38,1359,-444,-1178
-57,-85,2,974,853,-766
86,111,-56,774,782,-809
67,57,-29,137,1198,-716
23,27,5,511,306,-926
47,-63,-74,1779,207,-629
48,17,-100,312,418,295
26,25,-35,1154,-271,1072
38,15,-58,1925,-209,1407
111,97,-16,944,-720,1820
121,52,-3,2418,-231,2446
-118,104,19,1338,23,2524
-91,-77,78,56,27,2652
-106,87,50,1604,482,2175
114,125,104,961,-798,2240
94,50,89,874,226,1600
103,44,86,433,168,1439
50,46,80,-36,-212,1011
7,22,60,140,-55,-138
29,-33,35,36,510,-876
64,111,0,351,762,-1081
78,78,-20,-163,731,-1360
73,36,-31,-210,449,-1006
80,11,-42,-5,390,-480
93,43,-46,-219,138,-71
86,114,-49,-708,-42,-193
103,113,-50,-413,342,-245
116,96,-63,158,370,-283
-126,113,-73,-112,169,-317
94,107,-71,-235,43,-362
67,-90,-65,4342,5563,-5277
-35,-54,-101,4170,6447,-5232
-91,78,69,5077,6127,-5221
122,58,102,3899,3508,-7934
-68,62,49,-55,3184,-10139
13,74,14,1600,2214,-6984
-104,25,-65,-617,-224,-4959
-121,56,30,476,-871,260
62,-120,20,1472,-531,933
105,62,42,2055,-557,-573
22,-37,12,2821,464,-664
-63,-115,81,2946,793,-96
38,-46,3,1191,-924,1772
-36,72,-121,466,-1316,2785
-42,124,13,-484,-3068,4573
-18,-110,-100,-1861,-4059,4739
75,89,91,-2162,-8136,6529
96,-100,-1,-4182,-11177,6958
-44,2,-2,1445,4551,-4041
12,50,-17,2451,255,-942
54,123,-74,-1398,549,-654
2,4,43,640,-112,-494
58,-3,30,1613,-148,-311
64,46,-35,663,-481,-530
83,-31,-115,1483,-116,138
43,3,-47,871,-1072,1423
12,-5,-63,1530,-1331,2360
43,34,-68,1941,-55,3237
113,-107,-16,1404,-1274,3299
-85,-58,32,1299,-167,3727
-89,-21,82,1066,-919,2621
-101,-41,-71,925,-1256,2303
117,-97,-101,1055,485,1696
52,-89,83,269,806,582
-9,100,80,173,94,-130
1,-8,36,855,485,-308
-20,-65,12,477,595,-683
4,-121,-22,182,887,-1032
46,78,-25,175,677,-927
50,49,-31,-124,373,-691
72,54,-32,-336,282,-535
70,32,-40,-136,270,-414
81,69,-49,-474,308,-263
78,74,-54,-355,131,-155
86,94,-56,-388,301,-161
77,120,-62,-176,235,-95
85,-121,-68,-255,320,-136
87,-113,-76,-180,259,-130
100,-102,-78,-208,298,-246
109,-98,-79,-250,232,-251
-67,-111,96,4000,2924,-4685
-128,-77,21,1949,5692,-5280
74,87,-98,3804,4910,-5266
72,15,-36,2897,5785,-5159
90,60,-48,749,4322,-6893
41,75,90,1101,2386,-6583
53,-51,-43,1999,2507,-3725
-105,7,32,697,416,-2100
-87,109,117,346,-1433,290
-116,2,-83,674,-424,534
-43,89,120,2213,-87,542
-70,-82,-2,1774,-1386,-875
-10,32,106,3219,-784,-655
45,17,-13,3222,-1336,176
-40,-35,-66,2556,-1147,1212
-17,-23,92,-2005,-2532,1397
-71,-84,-26,-2298,-3988,3634
127,70,57,-4498,-6463,3786
97,33,-38,-4297,-12347,7115
-124,-14,-34,-3608,-2069,1132
108,99,47,4703,5123,-3140
41,81,-38,1348,-1259,-617
36,78,80,-503,213,-237
30,-41,116,1310,793,-362
38,23,-1,1186,59,-218
39,-3,-79,1050,-470,26
67,2,-34,1460,-83,1118
2,55,-36,942,-1406,1785
70,73,-69,1503,605,2319
-124,-85,-53,867,-863,2733
-123,105,17,2425,89,3053
-48,-49,-31,1131,346,3022
-83,-20,96,383,-1225,1935
91,-121,-97,1408,-283,1987
94,-104,91,85,684,1409
17,71,107,846,-190,1044
23,19,73,875,393,571
25,-7,38,139,622,-37
50,-52,22,-114,527,-521
55,-124,7,353,444,-920
57,49,-11,714,569,-803
62,49,-19,61,588,-713
81,21,-34,45,504,-466
89,23,-40,-106,314,-212
98,57,-47,-637,179,-168
96,64,-40,-476,69,-136
120,80,-42,-155,435,-15
94,111,-53,-220,147,-267
93,104,-53,27,279,-233
111,99,-65,10,553,-96
4,-75,97,2839,4843,-5580
-15,121,22,5042,7539,-7175
74,-31,-29,4596,4852,-4818
13,102,-25,2683,4890,-5276
27,-17,22,1267,5073,-6803
-41,3,-29,965,2863,-7061
17,27,-13,738,1915,-4422
-98,65,-40,316,518,-2444
123,74,-30,1304,-758,1077
-106,-12,8,1491,-1004,560
-54,96,-81,3130,-222,-758
-58,105,66,3641,-211,-885
-103,-59,-51,3929,-393,1509
-127,-30,-23,395,-1703,1782
114,-48,-97,-165,-2571,4408
-7,109,-5,-3690,-4850,3369
112,91,76,-4265,-8269,3527
-85,1,-11,-2581,-12610,7635
48,8,22,-361,265,140
113,19,12,2847,3393,-2472
-14,87,-24,953,-108,-776
45,57,87,278,1219,-912
29,-28,91,1579,768,-826
48,-25,-64,1236,-131,-189
13,-26,-81,577,-1272,778
24,28,8,125,-1414,1756
6,-19,90,1795,1609,2559
50,87,-101,2086,-482,3249
-74,-101,-101,1776,-107,4135
-56,32,-110,335,-344,3691
-103,42,-103,671,-2163,3375
-75,-91,-122,2103,-606,2683
-81,1,-122,-149,492,1992
82,-69,115,280,-311,671
27,54,104,1425,237,82
10,7,15,-96,1101,-594
-4,-47,-14,-639,595,-783
23,-107,-22,-537,330,-867
35,105,-44,-395,273,-800
59,104,-46,-661,309,-808
91,113,-48,-1244,273,-1115
59,64,-20,-333,-90,-615
47,64,-47,544,709,-36
59,110,-70,27,620,-15
83,-108,-90,-408,216,-89
90,-110,-83,-179,149,111
89,-94,-90,-248,193,12
94,-73,-84,-264,136,49
92,-60,-79,-354,154,-128
92,-62,-77,-202,236,-234
102,68,109,6279,1233,-4146
-105,25,-63,3414,4043,-6465
-6,0,51,2181,5104,-6688
-1,27,103,3425,5236,-7234
9,-45,-74,1908,4485,-7571
-58,13,-28,-2160,267,-7470
-83,-20,69,234,2453,-4949
1,-41,-88,192,229,-2524
21,52,54,996,-266,-71
30,-107,25,1409,-514,-242
85,-113,16,1662,-780,-1717
117,71,-64,3040,354,-1971
-86,-55,18,2999,-811,423
60,-36,-31,714,-1170,1119
9,-29,96,211,-3600,4287
53,2,101,-2675,-5793,3756
13,92,86,-2437,-8556,6053
-72,-69,41,-2613,-8180,5999
-60,19,103,-1595,-2000,1022
-91,-77,21,5298,3086,-3914
-84,-51,-27,325,455,-1375
26,101,27,-915,210,-543
40,-11,107,1420,30,-831
37,32,-22,814,63,-688
-37,-35,-86,1256,-222,376
-40,1,-18,1915,-879,1596
37,23,-100,2502,421,1540
57,108,-34,1733,-325,2689
90,59,-76,2062,273,2768
-125,-69,16,225,-725,3513
126,106,71,2294,-489,3359
-79,-58,99,1243,-415,2585
-121,-94,80,312,725,1657
83,95,80,723,205,1196
29,41,50,995,126,734
5,15,24,237,285,-69
-2,-29,16,-255,480,-668
22,-121,-2,237,743,-866
57,-95,-31,-1771,952,-1286
77,57,-36,-269,666,-971
74,32,-41,533,475,-620
69,50,-49,124,236,-469
73,67,-50,-434,156,-355
79,75,-64,-473,295,-154
87,82,-67,-107,276,-113
99,105,-72,-152,193,-99
102,118,-75,-237,212,-31
96,-128,-80,-219,219,-49
98,-128,-73,-111,124,84
99,-108,-72,-125,224,-12
-62,88,-123,4579,2107,-3581
-97,-36,-30,1732,5788,-6163
-38,115,107,4713,5573,-5468
-38,1,-33,5440,4199,-6075
-53,104,-98,636,2668,-7982
28,80,91,377,4473,-7738
25,-86,-36,-167,1631,-4022
-116,63,-35,-1663,1027,-2907
85,-77,18,1134,694,-108
-127,53,65,331,-239,-620
-105,109,46,2097,-878,23
-116,-81,23,1928,-415,-1372
-85,46,-65,2726,-529,-881
-125,-73,15,2332,-759,590
77,-81,-51,1503,-877,1648
80,33,85,147,-2071,3001
16,66,-52,-2539,-5279,3577
54,98,119,-3365,-8367,4626
46,17,9,-4927,-11700,6920
111,123,38,-1462,-1510,323
97,-33,28,3513,4421,-3925
41,26,-28,1557,32,-883
-24,31,31,-326,310,-97
-10,29,117,811,-124,-183
9,42,5,1057,-176,31
2,18,-20,1244,-478,408
27,37,-52,1542,-266,1079
123,21,112,2118,869,1971
10,71,-72,2021,-1387,2984
101,-127,-79,1864,-109,3166
121,-30,68,702,-1834,3625
-99,-58,82,1224,-102,2736
-110,121,116,2074,-1121,2479
-105,-108,79,1084,117,2133
116,115,92,1279,876,1676
17,-124,39,223,715,581
6,-111,11,-2319,667,-575
7,-106,35,246,1026,-729
-2,105,6,1345,398,-660
2,121,-10,473,181,-708
36,58,-24,449,257,-771
69,77,-48,-596,753,-675
79,30,-58,-55,324,-674
73,34,-70,85,298,-279
78,60,-71,-396,236,-303
80,54,-69,-171,95,-209
76,80,-72,-302,229,-21
60,83,-57,112,101,13
77,102,-67,254,524,-6
93,-120,-78,-205,378,15
-13,119,-93,3374,3547,-4431
86,-96,-16,3261,4486,-5600
-95,-24,67,2538,4616,-6002
-33,-122,-101,3549,4052,-6810
-63,110,104,1251,4377,-7111
-83,41,105,2924,3877,-5598
57,2,-13,2566,2336,-5086
94,97,73,1045,57,-2978
-95,49,80,137,646,-882
-88,-8,3,372,-1359,1554
72,-108,15,347,-254,220
-119,-52,-110,2725,-1102,333
36,-78,46,3282,-307,-494
124,30,-71,3067,-861,1181
-120,63,34,1343,-1710,1972
-106,-90,99,-2205,-3033,2213
18,-52,66,-3264,-3705,4005
-124,62,85,-4018,-6783,5168
104,-64,-127,-3616,-10903,6527
78,85,3,-2327,-4389,4299
74,-99,33,3110,4152,-4438
87,125,-23,1593,438,-1228
-1,87,-106,64,1553,-415
-30,105,-65,81,1126,-500
5,44,63,951,533,-652
24,38,-27,871,588,-239
24,52,-57,39,771,322
17,7,-47,844,-128,1210
51,9,-85,1235,-443,1967
43,62,-75,804,-422,2837
111,66,-28,1525,-451,2843
-35,117,-55,1258,72,3627
-65,-95,12,1410,-577,3241
-82,-70,112,632,-768,3142
-63,-48,111,350,-68,2015
97,-102,-81,582,-488,1651
60,105,-112,-181,89,849
34,18,112,1050,570,382
25,12,51,9,578,-285
30,-101,5,-13,282,-530
52,108,-9,-27,468,-493
55,59,-53,74,525,-471
60,68,-40,-180,112,-409
82,50,-51,-87,266,-248
94,69,-39,-420,36,-189
83,99,-20,-590,-51,-242
47,107,-28,-364,252,-388
80,98,-45,46,666,-463
90,82,-63,408,427,-309
81,87,-90,162,303,-288
1,-89,-43,3149,3581,-5110
105,-52,30,2497,6250,-5340
85,-71,-60,4783,4789,-5034
124,96,-69,2697,5032,-5988
101,-77,-29,4214,4171,-6205
79,76,87,1228,1061,-7013
81,22,-37,1445,1744,-4616
67,-117,-66,254,386,-2218
95,-16,71,628,-641,455
-65,63,-15,1065,467,282
-36,-53,57,3270,-852,584
47,-47,38,2820,-533,-35
-70,80,-44,4144,154,1624
109,122,-38,580,-1665,2559
-118,-109,-104,-1138,-2159,3140
-8,-31,43,-3209,-4765,4235
-4,3,102,-4747,-6531,4988
-53,-119,-121,-3529,-12193,9256
-124,-1,-108,-5415,-1459,2212
-95,-57,51,5929,3163,-2599
106,97,-31,-1081,161,-1513
75,55,85,539,1412,-1364
19,-19,85,779,947,-910
20,8,-13,882,-2,-382
-13,-18,-36,1023,-744,168
10,5,-99,528,83,1193
-9,64,-54,260,-646,2091
21,59,-59,1739,-606,2787
-118,-64,-7,1338,-447,3043
-89,-43,-39,1651,-158,3060
-106,-55,16,2205,-685,2358
-74,-79,26,1521,-250,2301
118,97,79,1029,771,2289
112,56,69,1259,704,2340
-120,83,79,436,530,1872
48,-69,57,-1798,-493,601
-2,9,35,5,-225,-654
25,-96,16,815,968,-579
24,-105,-22,472,745,-562
51,91,-42,864,418,-652
79,96,-43,-388,249,-1024
98,26,-36,-235,272,-846
93,29,-41,-488,15,-730
98,34,-42,-447,127,-537
93,42,-54,-389,314,-558
98,54,-53,-80,340,-86
100,81,-72,-116,313,-123
97,100,-77,-192,258,-94
97,115,-81,-86,270,-44
105,-124,-80,-123,293,13
-8,-54,-48,2296,4254,-5009
76,-90,116,5127,4924,-3930
5,1,127,3674,2142,-5169
93,119,112,944,2263,-5914
-100,-110,80,822,3017,-6550
-84,-57,12,1671,3488,-6136
69,108,-94,671,2545,-5509
-107,26,1,744,1404,-2453
82,112,49,-1006,-489,-769
-116,124,76,1001,-636,1200
-5,1,74,1209,-207,17
-110,79,-43,2418,-302,-267
2,26,61,3458,-226,-577
98,-89,-52,3752,-784,1197
56,-60,-77,2501,-135,1278
80,-46,58,-422,-2137,3620
70,-15,-15,-3885,-4492,2652
125,-53,88,-4782,-7669,5144
40,-35,-122,-5618,-14002,6997
-118,4,5,-2278,-5470,4454
7,-57,65,4006,7631,-5117
61,-93,-54,-49,-92,-1271
14,63,32,466,1869,-1010
17,36,101,1502,1419,-408
-19,44,9,834,248,-209
8,28,-18,1036,-436,765
12,33,-54,965,-79,1404
23,60,-34,1243,38,1994
84,91,-62,1220,-463,2276
110,125,-42,889,-321,3369
-109,-110,-64,1035,-599,2690
-80,-95,40,1048,-1093,3037
-80,-114,38,1558,47,2601
-92,-109,77,1157,-494,2172
110,98,105,448,-75,1903
88,46,114,1477,595,1646
55,60,77,1047,362,1261
1,81,27,-593,-285,-171
5,-16,21,-624,251,-826
18,-124,7,429,631,-869
31,122,-30,-157,511,-996
52,90,-35,-168,320,-919
60,56,-41,112,292,-845
96,44,-55,-29,491,-761
112,55,-55,-446,221,-739
90,37,-57,-194,-11,-573
94,48,-61,-339,241,-469
109,49,-62,-271,237,-203
101,62,-73,-223,195,-8
88,93,-78,-355,178,141
-90,-94,60,1387,3337,-4043
9,-74,-45,2735,4557,-4284
20,-37,-123,3157,4071,-4445
49,-11,99,2490,3771,-4914
84,56,44,1075,3248,-5800
86,-118,-22,1121,3969,-5693
6,90,-68,1164,2886,-5356
-102,6,-13,860,1797,-2357
-121,-77,100,-269,476,-1253
-96,-107,9,1656,346,470
-80,10,-77,1741,-1222,-39
-54,29,63,2642,-1165,-659
28,-37,-55,2794,-2651,-1022
-79,101,-89,3265,-2374,1465
-74,96,-117,124,-2392,1449
-123,-5,-44,-2579,-3768,3169
10,-13,82,-3069,-4257,3810
-42,111,-18,-3760,-5827,4542
-72,57,-58,-4745,-10290,5530
101,-124,45,-1564,-2408,762
15,-55,50,3187,4087,-4013
85,13,-12,1359,119,-797
30,108,-71,249,1062,-358
9,40,-78,1377,528,-228
64,96,-2,1374,-114,-931
37,11,-83,1163,-333,-533
2,0,-61,845,-376,412
-6,11,-45,1050,-785,1226
23,1,-99,2021,331,2096
-12,41,-63,2395,-928,2964
68,-74,51,529,-997,3781
-68,-58,-14,1840,892,3027
-84,-69,51,1973,-107,3047
-67,-108,66,1134,44,2589
121,126,115,628,-144,2461
105,111,119,773,1,1599
60,71,112,1011,249,894
17,42,81,104,271,2
14,-28,52,-266,203,-645
26,-113,54,138,217,-818
37,87,27,-104,519,-1336
58,32,3,-143,718,-1116
68,35,-31,-662,573,-710
73,33,-57,-472,154,-323
90,43,-64,-267,298,-198
103,70,-78,-364,260,-195
102,79,-71,-153,124,-187
94,103,-64,-471,-31,36
79,125,-55,-532,-1,11
72,-118,-58,-319,183,-93
88,97,63,3055,2503,-3294
-7,10,-74,1076,3928,-4596
105,108,29,4277,4887,-4481
109,-52,79,3161,4188,-5342
83,26,87,2399,2786,-5282
64,-123,72,1025,2749,-5879
33,-72,33,2061,3078,-5049
-90,-58,-25,-2,1974,-5535
91,-52,31,1347,1721,-1604
-122,4,110,-296,-262,406
-81,-84,-82,-650,-232,548
35,-122,67,1513,548,361
-30,-74,-97,1907,-521,-1270
26,60,-103,2253,-580,-1475
55,-93,48,4534,-665,446
114,-74,-32,2609,-863,233
-43,-110,-11,1178,-1135,1082
74,-125,-33,-1313,-2697,3243
38,-75,62,-2586,-3082,3341
113,-51,111,-3014,-5467,4741
23,8,-35,-4473,-8680,6837
-97,58,-42,-6143,-8478,5839
-38,54,51,1472,-2132,177
-9,13,40,2554,2718,-4005
126,82,-9,420,660,-300
-2,-91,-79,-6,638,-235
30,97,-1,536,1196,-1087
30,76,74,590,1036,-1369
44,-24,-41,1308,484,-1243
-3,-8,-44,412,-182,-322
17,44,-45,-275,194,454
-6,74,-24,169,211,705
-29,54,-48,1587,216,1705
2,62,32,1837,-715,2212
98,74,-26,1870,658,2868
68,112,20,1815,-214,3396
-89,-118,10,1855,158,3361
-47,124,42,1782,494,3121
-93,114,61,666,110,2473
-123,73,90,589,-395,2142
99,38,120,566,138,1481
69,71,111,241,101,531
27,-7,77,566,160,-582
29,-109,55,586,531,-859
39,96,31,157,434,-787
63,50,12,-163,288,-876
78,29,14,-216,178,-856
101,3,1,-94,452,-845
103,15,-11,-486,225,-650
103,13,-25,-494,108,-449
41,-110,-105,2298,4033,-4652
-126,-80,23,3279,5690,-4939
-124,48,-77,2777,5131,-5191
-124,-109,-74,1889,4755,-6012
-82,-8,-75,475,3896,-6812
109,120,118,502,3921,-6054
-112,-23,-3,1377,2790,-3810
-40,77,-18,-600,1510,-2360
-52,-121,-58,-119,-2295,1250
-77,-11,69,282,-145,-272
11,10,84,2416,-163,878
-37,90,-17,1888,-785,309
58,39,127,3053,-1118,193
100,75,71,2690,-1564,1057
-40,21,34,2132,-2231,2184
34,117,-13,1375,-1606,1220
108,99,85,-852,-2831,1692
-54,0,-88,-687,-3798,3690
104,22,-14,-1429,-5122,3431
-44,66,70,-2035,-6829,4789
-46,90,-113,-5599,-8300,5981
3,-53,63,921,3481,-2403
-124,93,5,2513,352,-1781
-26,86,-82,-442,103,-766
-25,-44,-6,1050,1075,-876
-17,53,66,114,372,-1176
-46,-66,-39,1470,-315,-887
-52,-46,-56,616,-516,-97
-26,-31,-87,357,-354,741
-34,15,-48,563,-764,1756
-7,24,-40,1411,-678,1808
89,82,-21,2378,-151,2613
127,-79,-16,1625,57,2792
-87,-55,23,1802,-135,3023
-81,-71,38,1918,111,2423
-127,-89,93,1710,727,1570
110,-98,108,1527,545,1646
20,83,75,1520,646,1194
-11,74,77,605,-4,752
2,-35,55,589,112,101
8,-104,45,117,360,36
31,115,7,234,740,-578
55,84,-14,243,729,-654
63,52,-32,23,345,-621
63,40,-31,-198,96,-532
68,36,-31,-223,96,-459
67,41,-27,-226,151,-393
74,38,-31,24,272,-428
88,45,-29,52,292,-346
81,45,-45,48,287,-244
113,-13,24,3235,2743,-3865
24,77,-113,3957,4860,-4876
44,-64,66,3098,4706,-4937
40,-8,-56,3683,4755,-4480
12,80,11,3975,4387,-5029
-14,-83,-30,3371,3375,-5612
-12,12,-97,3596,1097,-6254
3,-48,-31,2173,795,-5427
-89,-97,-110,1646,616,-3703
-16,121,45,-243,79,-1743
-10,-29,-91,294,-90,703
94,106,108,660,-216,813
29,-82,-12,2062,-40,989
67,-83,122,2264,-718,580
-67,95,54,2960,-340,1882
66,71,36,2059,-709,2114
-31,78,107,327,-1672,3226
-116,99,-35,-910,-1844,3569
28,-23,120,-4190,-4575,3678
-59,-90,106,-3869,-6480,5191
55,-16,91,-3095,-7045,6171
7,4,91,-7831,-7181,3516
-96,-120,65,1539,1186,-785
-41,-115,7,4735,1923,-1443
5,72,-32,-1917,296,-505
-20,72,95,756,351,-289
11,98,-39,578,491,-547
60,8,49,1622,795,-1004
55,35,44,854,468,-376
44,-15,-4,979,454,132
31,10,-33,411,589,509
55,53,-64,41,-149,1477
31,23,-10,1501,-263,2311
99,74,-41,1507,195,2547
93,102,-10,1053,389,3423
-117,-105,5,1027,236,3076
-65,89,38,1784,193,3290
-50,125,62,1045,335,2948
-81,113,-109,820,-220,2493
-116,-111,-123,157,158,805
73,33,-123,1353,407,210
59,-69,82,1215,676,-226
58,-114,53,551,487,-391
54,89,54,328,52,-549
85,29,41,12,360,-596
90,18,36,-142,78,-551
104,3,26,-120,165,-452
110,5,29,-265,1,-309
119,17,9,-334,217,-253
115,46,3,-528,-104,-268
-117,55,11,3014,3075,-3327
37,-122,119,3862,4876,-4465
88,-81,102,5255,5577,-4836
38,39,-52,4384,5052,-5675
-60,117,0,2332,2876,-6055
43,-81,-14,2536,3020,-6002
39,-80,-70,1757,3001,-5909
-56,-66,27,1137,1678,-3978
41,-63,-17,-396,848,-1795
91,-94,27,639,-128,511
-106,7,9,754,-475,166
28,13,-96,2355,-775,673
67,26,90,2555,-1876,275
-107,-27,30,3963,-943,654
-84,-63,109,3522,-1637,1470
-105,101,-108,1339,-1943,2200
-92,100,58,362,-2132,3449
126,3,-8,-3756,-3258,2177
-2,-31,47,-2842,-5445,5076
42,1,-45,-1678,-7658,6172
-17,-68,-87,-7555,-7052,4576
-108,22,49,1890,-13,254
-34,54,4,2976,989,-1649
36,-12,-20,211,579,-1231
16,45,-118,1706,1267,-1007
40,32,107,1422,1549,-1152
65,0,13,1787,558,-1202
85,-18,-43,1486,-154,-615
53,-47,-100,220,609,81
-59,-37,-91,16,-250,1399
-31,-43,-81,1097,-646,2584
-10,33,-64,1859,236,3734
18,-116,0,993,-134,3778
104,-79,47,1385,340,3569
-79,-107,47,1074,866,3603
-34,-53,66,118,533,3717
-81,13,-113,-556,-990,2556
113,-29,110,-103,-260,1211
35,91,41,1268,491,-690
34,-62,-1,1729,993,-917
20,102,-45,1277,876,-510
24,88,-51,351,118,-355
79,-128,-24,-1312,-256,-515
74,59,-23,-450,-351,-577
78,64,-9,-672,-133,-850
69,50,0,-650,-61,-681
73,34,-13,-425,247,-528
74,40,-22,-151,291,-292
83,39,-47,186,537,-252
88,70,-63,-92,348,40
-85,104,41,2767,2747,-4136
93,77,-95,4061,5167,-4669
72,92,56,4758,4243,-4914
92,82,94,3916,5168,-4990
34,35,59,-423,1374,-6184
122,3,2,1029,2999,-5660
-82,34,68,1692,3156,-3967
41,87,103,1323,3643,-4124
-57,114,45,631,3262,-1900
-109,9,-82,-406,706,-685
111,-50,-25,493,552,682
90,103,-122,329,-1653,-272
107,71,88,2814,-1905,270
-83,9,49,2656,-2882,1211
113,116,-47,5510,-2101,2406
119,-44,84,1420,-2965,2575
26,-80,17,-997,-2101,1643
15,-62,11,-1219,-2930,3397
-101,7,66,-3870,-3564,1830
-63,23,-110,-3768,-5777,3187
36,-119,85,-4176,-9680,6378
-25,-80,-54,-3679,-3685,733
-92,-31,38,4400,2566,-876
76,99,-16,1013,292,-1651
23,-101,-40,-373,374,-377
4,87,58,653,485,-505
40,98,122,20,673,-1167
62,-8,23,1609,254,-1269
7,12,-13,-206,-387,-215
-22,-47,-57,574,200,276
-26,35,-7,586,-800,1444
-28,59,-48,1333,-54,2057
-8,-95,23,1626,-282,2463
99,-122,-13,2193,223,2627
58,-66,2,1006,262,2718
106,-103,48,880,252,2497
-112,107,-1,1219,792,2344
114,97,12,494,185,1905
-125,33,60,808,199,1964
100,83,21,346,157,1091
114,59,79,305,-310,800
52,5,65,33,-307,240
-17,-69,36,666,-49,-148
40,109,-14,480,827,-784
89,89,-40,158,880,-585
101,89,-48,-352,88,-467
83,77,-36,-563,-310,-560
93,45,-44,-153,264,-608
104,49,-31,-285,202,-600
109,60,-25,-505,245,-235
121,117,9,2294,2700,-3676
75,-95,-78,3165,4719,-4665
-125,-118,81,4906,5684,-4663
117,-56,-66,5541,5402,-5174
38,87,34,3731,3304,-5509
96,-125,-10,1894,2676,-6378
98,-99,-92,1848,3086,-6229
-57,69,9,4192,3016,-3509
72,-57,101,2650,1925,-3199
-10,-63,-86,-1448,-168,-2973
126,-1,48,-28,-361,466
-86,101,70,110,-1007,913
57,-59,2,1701,-738,1238
116,-102,-106,2242,-873,1151
-61,90,85,3003,-434,1168
-24,-29,95,3718,-644,2599
4,-39,-122,1142,-703,3446
14,62,100,-2354,-2550,3732
-7,-26,-74,-4653,-3931,2857
34,75,-70,-5341,-7106,3713
-103,125,-28,-3884,-7232,4572
91,-63,-27,-5623,-8949,4124
-102,6,48,4099,2956,-1042
119,90,-13,1872,252,-1196
7,-78,-22,-216,147,-581
-22,100,122,523,367,-246
-4,-124,-44,145,526,-817
27,20,41,1633,137,-1100
16,-48,-55,2047,280,-797
-11,49,-46,-628,-777,277
-11,-12,-81,166,-289,643
20,70,-56,369,-273,1514
2,60,-15,2225,-864,2448
61,106,-26,2447,-27,2899
-116,-69,-35,911,236,3364
-97,-74,43,1862,33,3306
-53,-94,75,1901,460,2933
-86,-17,103,-161,137,2486
97,-113,-121,800,8,1670
74,88,65,1197,775,893
42,60,26,951,454,412
44,-26,4,726,81,-28
47,-97,-4,442,170,-624
62,107,-29,-255,479,-897
75,58,-40,-540,57,-800
52,54,-2,-612,-476,-783
86,17,-8,128,518,-668
94,40,-19,-156,360,-567
87,35,-28,-410,-1,-293
90,57,-36,-617,162,-182
-105,113,122,4251,2362,-3198
61,-74,-5,3348,4155,-4110
23,-100,66,3808,3546,-4449
74,-9,-115,3367,3788,-5034
101,91,-104,1654,3448,-6418
99,110,-121,1800,3222,-5628
25,115,87,1025,2933,-5221
120,96,23,-99,2239,-4349
23,82,-111,242,1948,-3691
109,-115,-55,137,657,-1805
58,44,115,-766,-194,-1141
-77,-9,-101,-404,-618,-251
57,19,-109,792,-139,71
17,44,64,1613,-480,-142
19,27,-17,2627,-593,589
-115,-21,72,3313,-945,915
-54,-55,5,3174,-1761,1696
-127,-65,-47,2740,-1851,2656
-43,-19,39,718,-2276,2498
-126,19,-79,-1404,-3183,2884
25,9,40,-3987,-5721,3036
-95,42,-98,-2204,-8205,7107
-125,40,-33,-4072,-6996,4765
-20,-104,82,1312,1101,-312
-86,-36,-12,3412,1646,-1847
13,-2,-33,-1360,-304,-385
-24,18,44,928,819,-656
-16,-2,118,1028,471,-678
-5,16,-14,590,-175,-655
7,-1,-63,465,97,-174
29,-98,46,1846,-28,367
-69,54,-31,-38,-2325,2097
-25,32,-32,1049,-984,2005
96,-116,35,1025,-647,2658
73,108,62,2118,-75,2651
-100,-55,51,1299,288,2772
125,-52,39,1088,342,2561
90,-66,-100,1080,-164,1940
104,-126,112,1167,1220,1501
75,110,80,810,914,1126
32,70,76,643,294,649
29,13,37,43,7,211
30,-37,13,-67,-49,-63
39,-88,-21,-612,-156,-485
53,-91,-25,-906,-154,-618
78,108,-36,-28,317,-560
83,94,-54,-140,407,-885
74,79,-56,-91,108,-684
70,66,-46,-134,130,-396
73,70,-49,-209,257,-228
-66,123,38,2492,2453,-3926
35,-97,-85,3287,3608,-4528
53,-66,68,3017,4311,-5285
67,1,-117,3888,4430,-5356
51,26,-81,2886,3352,-5652
86,-107,-112,1383,2972,-6594
63,-73,79,1852,3348,-5842
-111,-114,-55,1618,1672,-5110
-19,33,-67,1435,-74,-2769
12,58,85,-385,-395,-811
46,-64,74,-698,-1284,876
-118,-40,-79,598,-626,1124
26,23,67,1503,-528,349
-31,-37,-110,2675,-1339,733
-118,-120,5,2674,-1084,894
-71,46,-67,3334,-1957,2671
112,100,-66,1141,-2033,2644
-22,-103,59,-419,-2933,3921
-75,45,-60,-4386,-4288,2348
86,60,53,-4147,-4896,4011
72,112,55,-2005,-6800,6772
47,-90,77,-4559,-3467,1789
89,-5,70,2023,417,-321
-92,1,-9,1921,1237,-2076
59,-128,-25,-51,805,-831
-1,22,19,449,891,-581
39,70,120,252,418,-827
24,-25,18,1394,-363,-657
30,17,-37,522,53,-433
-9,5,-17,497,-203,449
-36,39,-34,487,-460,1293
-21,53,-31,1282,-335,2011
33,104,-37,1743,-116,2451
-17,-100,27,1378,-1035,2912
-115,-70,-6,1752,114,2226
124,-76,38,1145,-367,2334
127,78,43,1559,494,2138
110,59,101,1617,52,2092
110,72,108,623,693,1797
81,66,102,518,297,1191
59,17,82,629,55,653
42,-16,59,187,86,115
36,-103,18,402,235,-329
46,121,0,50,404,-666
80,98,-24,-280,448,-835
70,49,-28,-189,3,-885
75,37,-27,-361,161,-803
93,11,-40,-137,391,-577
103,22,-50,-303,81,-268
85,44,-49,-657,-172,-101
-36,-117,121,2720,2289,-4291
76,-126,-33,2563,3039,-4627
-66,-83,40,2747,4361,-5619
-26,4,56,1994,4757,-6554
-27,58,60,1499,4574,-6495
-79,121,40,2344,4217,-6656
127,-1,-45,1749,4482,-7440
-7,57,-97,-85,5063,-9885
-113,-67,90,-564,-1488,-4935
5,54,116,274,-638,84
-78,28,126,112,-2416,2608
50,-128,-38,1024,-995,2206
-87,-85,102,1882,-2011,1608
-74,-33,-34,3148,-1263,412
-52,116,30,4517,-927,891
-19,-120,-76,2965,-1891,620
-109,111,-66,1746,-1241,1417
25,-33,51,842,-1942,3799
-5,6,37,145,-1843,3366
-30,116,-104,-1584,-3833,5339
27,-11,-40,-209,-5189,7054
85,93,48,-7263,-6733,2738
-104,-124,72,3567,1431,678
125,-86,-12,199,614,-1259
13,-89,-20,280,-22,-402
-31,-12,111,1071,633,-358
21,44,-86,-135,97,-504
33,-29,46,562,-12,-497
7,-74,-24,785,-643,-219
34,-70,-62,543,-85,49
-4,19,-32,-414,-858,999
-12,-30,-46,1140,-482,1095
48,16,-26,1425,1016,1704
40,117,-72,1250,-454,2813
30,-60,104,811,-1219,3037
-99,-119,30,2442,587,2619
83,-76,65,1417,-202,2597
98,-81,108,784,-250,2072
-96,101,-126,1260,145,1739
-9,79,-75,420,-237,1221
-22,48,112,-349,536,330
-25,2,48,-48,632,-101
49,-80,-17,455,739,-661
56,-118,-40,264,456,-1090
49,65,-49,362,256,-989
96,13,-35,17,283,-689
-107,35,1,-381,-214,183
24,61,-4,-431,-439,62
35,65,-41,-333,373,-571
104,48,-47,-28,748,-415
-127,124,82,3040,1974,-3621
53,-78,-33,2740,3515,-5150
-94,-38,62,3239,4472,-5830
-5,28,-123,3248,4713,-6696
38,74,120,2914,4269,-6921
55,-113,102,3032,3807,-6825
-115,-75,44,3031,1461,-5432
115,0,55,-2314,-942,-5921
115,-29,-53,879,2090,-1256
-101,-52,29,-696,-830,917
77,87,82,-969,-435,390
-102,-63,79,1646,-789,1178
-104,29,-46,2103,-967,127
-38,-66,31,2920,-1457,-369
-14,81,-85,3399,-1764,1356
-101,124,118,1506,-1861,834
-80,98,8,-328,-1950,2710
-31,0,-69,-2390,-3331,3267
-70,84,-67,-3897,-4710,2841
17,53,16,-2721,-7499,4942
68,17,-104,-4549,-6903,3679
-18,8,115,1247,-982,499
20,-23,10,2450,639,-969
115,-65,-17,503,786,-611
52,-114,-51,1093,315,-561
66,61,-55,1058,1341,-1227
63,-8,-89,981,656,-1121
46,-81,-98,1202,-988,-497
0,-69,-127,-215,-229,118
-45,-12,-79,20,-800,1550
-30,16,-65,1463,-976,2440
41,69,-6,3079,-358,3282
-77,-37,-60,1980,-431,3197
-46,-48,39,1070,-408,3324
-49,-57,58,1046,-554,3200
-76,-84,-87,1701,762,2866
-77,4,-91,1203,137,1803
54,14,-114,-1938,391,342
15,118,-124,-1412,627,-629
1,-19,94,814,373,-605
43,-48,34,460,439,-630
45,-74,-6,-151,378,-492
52,122,-26,126,240,-616
97,86,-27,295,382,-501
94,85,-46,-21,324,-643
93,98,-34,-330,231,-422
110,101,-30,-255,76,-252
110,117,-27,-208,274,-168
108,-113,-31,-381,135,-245
104,-103,-47,-447,69,-90
-60,-74,124,2994,3136,-4749
-109,-97,32,2935,5904,-5422
-90,-99,-12,4308,5916,-5137
107,15,63,2946,5138,-5630
98,75,96,2692,5073,-5308
40,-70,13,1914,3449,-5133
2,15,-101,2144,2934,-5398
86,85,-7,1665,1587,-4337
119,21,70,1041,1402,-3959
-89,63,-14,-699,352,-2566
124,39,104,332,119,413
19,48,19,549,-1050,735
-42,106,-2,702,-1466,-117
24,79,-88,3137,-1158,1297
-116,127,43,2422,-2318,1186
14,103,-21,2736,-1281,1954
-88,-103,-60,1102,-2073,3073
117,0,-110,-957,-2608,3746
74,47,-3,-2111,-3959,4028
44,-91,94,-3453,-5923,3884
-110,74,-37,-4190,-9532,6847
35,100,28,-4102,-310,-623
-18,110,19,5939,1644,-1386
53,-25,-23,623,-395,-1086
-2,43,40,431,345,-796
11,14,-115,871,94,-1018
10,-38,12,1522,-328,-845
18,-32,-37,976,-427,-78
-11,-21,-35,262,-1065,619
44,9,-38,683,-698,1046
-9,92,-10,69,-1624,2190
10,43,12,2113,-602,2449
87,-124,45,1222,-936,2907
-73,-128,61,2335,901,2776
-123,-111,10,2037,211,2951
-120,-40,119,-359,-562,2644
-110,77,116,1246,1162,2420
106,96,110,1172,186,2116
77,112,94,-349,-147,1403
-7,87,74,-113,-60,388
-14,24,22,420,659,-612
9,-106,-6,1050,841,-651
33,110,-11,337,476,-653
44,95,-27,93,541,-600
78,59,-42,188,469,-522
73,73,-49,-126,225,-675
91,89,-43,-736,95,-550
80,78,-26,-363,37,-382
73,82,-31,-293,131,-511
90,82,-36,-154,314,-659
-31,110,38,3025,3256,-3481
79,-98,7,4299,4525,-5655
-101,-74,-68,5492,4917,-4826
78,114,37,2781,3447,-6238
-59,-68,-20,1037,3556,-7291
-15,118,-30,651,3926,-7212
113,-64,91,711,3466,-4661
-68,45,76,-148,1860,-2662
113,-123,22,96,937,-21
86,-80,-104,1366,-847,898
-79,-106,103,1309,-1534,-794
-58,54,116,3364,-1659,-322
87,46,48,3355,-1818,78
-40,36,-26,2913,-1656,-87
87,-11,67,1968,-1520,2113
-45,34,-40,-993,-967,1295
-112,-1,124,-1149,-2745,4527
-118,-126,7,-3512,-4228,3860
122,-78,-82,-2690,-7364,6959
-47,-107,86,-3555,-5727,3645
-8,89,38,1722,2421,-2066
79,-30,-16,2774,962,-1486
91,-101,30,536,105,-1406
60,3,52,1060,-370,-746
46,-58,-27,856,-1288,-168
35,14,-53,-935,-2285,1476
-23,-69,-104,1018,-296,2519
-41,44,16,810,-1502,3302
127,-90,-66,508,-609,3466
-107,-77,35,2351,5,4269
-15,-1,-34,1964,-802,3451
39,75,96,1281,531,2838
-93,-1,-114,1396,-168,2329
-94,28,-128,463,477,1566
-6,-39,123,415,-186,642
0,-125,86,236,305,-370
0,38,23,-217,531,-787
31,-113,-8,510,440,-702
17,-121,-20,125,302,-739
61,109,-38,-149,602,-861
98,93,-43,-421,216,-765
99,70,-34,-252,110,-571
98,69,-44,-410,195,-547
76,67,-43,-521,-7,-266
88,88,-55,-542,255,-62
104,116,-59,-226,256,98
91,-115,-72,178,330,71
93,-84,-75,-215,229,-3
97,-74,-87,-336,225,-99
114,-79,-74,82,258,42
-82,120,122,3397,3159,-3269
77,-90,-4,3783,5209,-4613
117,-47,-93,5194,5792,-5198
14,48,32,5894,3460,-4905
78,-48,36,3310,2574,-6146
-59,-5,-40,1595,1895,-7902
-104,23,-100,1599,1990,-5468
-51,65,-32,-549,1408,-4036
-80,81,116,-308,864,-486
-71,94,-58,-74,-946,440
25,-82,114,1738,-911,956
-42,29,39,1716,-1887,-54
123,-65,-42,3532,-1755,1116
-19,-53,-123,2869,-2322,1181
-58,-74,-50,1396,-2927,3283
-118,25,-124,-1977,-3188,2080
-10,63,44,-2230,-4442,2621
-89,91,62,-2839,-5564,3885
98,-108,-4,-2804,-8139,6908
95,-19,-80,-4278,-2091,207
80,33,54,4383,2216,-1888
67,-53,-19,1647,-640,-836
11,123,-120,233,30,-509
11,38,-17,954,132,-544
44,13,56,1436,282,-876
2,59,-9,-233,-1100,-413
-10,-55,-50,830,427,170
-52,-14,-45,345,-561,1151
12,9,-84,685,11,2078
-19,92,-21,1251,-849,3157
-119,122,-55,1562,384,2884
-86,-40,-2,558,-989,3862
-67,123,21,2016,-107,3942
43,-57,-7,1337,-535,3352
-46,-46,111,140,-785,2618
110,-94,-89,1251,-329,1458
65,-88,-91,1017,306,501
17,73,77,779,725,-693
0,-68,43,1281,883,-870
22,-121,-10,504,1034,-826
57,103,-39,-222,518,-692
74,100,-44,-888,-105,-835
61,55,-31,-420,-71,-726
84,49,-37,-738,250,-690
88,50,-40,-515,126,-499
96,56,-54,-429,53,-401
83,63,-40,-67,104,-220
104,81,-63,-203,455,-341
106,99,-64,-392,63,-193
111,96,-64,-86,251,57
-82,104,18,3417,2785,-3475
-57,2,-24,4127,6307,-5695
93,18,-75,5305,5598,-5736
12,-16,13,4252,2709,-6168
89,39,28,2511,2207,-7572
-128,121,0,1622,2528,-6580
32,95,18,1247,1760,-3816
64,6,11,-994,553,-2347
56,-114,64,989,842,614
39,7,-99,931,-506,-458
-28,-3,115,2149,-1192,67
52,0,37,3266,-1085,407
-68,116,-107,3452,-1163,401
36,70,-73,1910,-1826,1979
-33,-123,93,-502,-1580,2078
-91,-63,87,-2765,-3339,4361
-116,89,-105,-4504,-6025,3991
5,13,-120,-4520,-7593,4929
-41,-13,-35,-3282,-6740,4639
114,75,17,3265,3566,-3142
67,-66,-40,2826,1359,-2424
28,107,-13,393,270,-1208
-36,-24,105,1939,-195,123
-27,50,0,163,-1147,382
-22,3,-58,-64,-755,656
-39,57,-49,-587,-1046,1624
-23,11,-41,2203,-789,2188
27,121,-22,1335,-962,3121
52,-22,-26,-266,-431,2924
116,-48,97,904,-762,3049
-57,-59,8,1435,-646,3133
-79,-50,127,2094,-684,2778
-82,-51,-103,1152,503,2060
127,-86,102,1136,779,936
58,79,90,1347,499,611
25,-19,29,814,637,219
32,-48,3,199,191,137
22,-120,0,506,254,255
25,-101,-12,115,333,-183
55,123,-22,136,474,-674
80,86,-38,-79,451,-581
70,76,-28,-197,105,-458
88,70,-41,-483,229,-609
92,69,-39,-559,-14,-522
94,47,-32,-109,257,-261
99,75,-39,-419,283,-162
95,107,-61,-546,82,-270
99,98,-62,-298,269,-293
101,106,-74,-180,326,-120
110,122,-90,-210,272,-20
-13,112,19,4608,3517,-4603
-64,-72,67,5972,5878,-5726
110,-13,-56,4193,3440,-6770
-55,-109,3,1748,4231,-7355
-63,-62,-40,1170,3334,-7122
-58,-106,99,764,2926,-6424
39,-114,126,957,1855,-4513
45,0,-67,-761,392,-2638
87,36,38,720,180,659
33,-46,23,151,-447,91
78,63,-31,2136,-604,-1127
-107,-25,68,3560,-478,-925
92,84,-109,3969,-814,1342
-5,-94,-126,1927,-1148,1726
3,-40,7,86,-676,1465
52,93,5,-2732,-3532,3328
5,122,105,-4612,-7590,3997
-27,-10,13,-2394,-9297,5602
28,13,58,-2319,-8644,4434
109,28,11,3341,4132,-2975
97,125,-18,2958,559,-1042
-13,-25,92,-588,347,-845
18,18,-78,1846,919,-1064
20,26,-5,753,14,-819
6,-8,-52,518,-909,-149
-14,27,-64,-693,-1010,645
-84,-21,-23,1019,-590,1510
-63,52,12,1349,-984,2511
12,70,-61,1641,67,2474
90,116,-3,1915,-162,3535
-110,-77,-16,1232,-286,3036
123,-69,61,888,-1062,3394
-55,-90,-118,-86,-25,2993
-35,-124,-126,824,-125,3222
-103,-86,123,827,50,2456
39,-88,87,344,-401,485
24,57,49,1076,369,-202
0,-38,9,800,531,-592
5,-108,-7,1140,700,-547
16,-114,-21,315,508,-670
32,100,-11,33,64,-770
54,77,-15,-227,383,-827
73,66,-21,-396,249,-860
88,47,-36,-341,204,-769
86,40,-46,-371,207,-650
79,38,-45,-335,83,-388
89,43,-51,-196,269,-200
96,67,-60,-309,195,-12
91,74,-58,-172,184,40
90,94,-68,-162,282,101
-109,93,57,2258,3008,-3562
36,99,-67,3332,3899,-4208
97,105,-97,3639,5805,-4448
58,-104,-18,3600,5074,-4484
107,17,6,2492,4414,-5556
126,-107,-38,1649,3309,-5787
-110,-42,-116,2276,3064,-5379
23,-122,-52,2700,2484,-4470
121,-82,51,-212,605,-3270
-16,-98,-126,262,148,-1137
-48,-111,93,-383,-1105,-93
103,-121,116,1339,-533,758
-42,15,49,1389,-1129,-102
-25,-4,-52,2826,-837,155
38,-51,26,3836,-1277,1008
-4,-79,124,3089,-1431,1675
119,120,-64,905,-3099,3885
123,-97,-92,-857,-2915,3131
5,37,63,-3157,-4044,3562
99,-95,-66,-5089,-4891,2873
68,-27,123,-3743,-7541,6395
-62,-62,-11,-1902,-4483,2308
87,2,7,3424,3599,-2791
74,-21,-22,-70,-380,-1270
-10,38,111,304,906,-735
-7,67,-95,-50,1117,-947
10,26,20,792,329,-1018
-18,-58,-64,2147,-628,-440
-7,-92,-111,1759,-1194,99
-6,-4,-68,360,-967,974
-43,24,-51,120,-1161,2149
14,73,22,1219,-648,2549
114,91,-10,1915,-362,2778
-77,-93,-20,2110,546,2369
-104,-83,24,1245,-319,3148
-31,-95,-6,1064,925,2529
-96,-104,36,994,-68,2701
-122,-110,102,812,165,1912
82,107,46,774,410,1142
28,89,55,195,-135,488
2,24,44,-8,44,107
-5,-39,13,-263,292,-197
7,-83,5,-172,231,-626
44,-123,-16,-243,481,-864
67,83,-29,-271,380,-1080
72,52,-34,-83,259,-874
73,31,-43,-178,230,-742
63,49,-52,-584,27,-368
70,55,-61,-527,107,-182
75,89,-68,-689,44,-38
-60,66,105,2497,2849,-3523
43,99,-73,3167,4083,-4701
92,-30,80,2537,4009,-5206
56,-68,-47,4304,4189,-4422
30,62,-10,2474,3328,-5864
59,-86,-106,1220,2938,-6510
25,-81,66,676,3206,-6327
-73,60,119,1009,1318,-4414
87,58,-84,137,1009,-2617
93,122,126,905,340,-299
95,76,10,546,-375,145
-36,116,-7,1941,-726,969
-54,-14,-111,1880,-984,291
83,125,-39,3546,-1866,1602
-9,-103,-99,2152,-2470,2173
91,-39,-21,560,-3009,2952
38,68,103,-347,-3018,1940
-113,105,-44,-3263,-5287,2744
31,41,54,-2369,-5550,4456
-8,-39,18,-3520,-5714,4741
-69,101,-84,-2256,-2025,811
69,77,30,2753,59,-943
88,-73,-13,531,1120,-1119
4,73,-101,179,-101,-18
16,57,-19,-97,559,-2
48,40,63,195,355,-367
52,-21,-15,1452,-175,45
12,28,-60,-369,-1101,359
10,-70,14,2078,-972,1692
60,-7,-72,2285,938,1734
113,-106,-48,1080,-176,2419
106,108,-29,1791,-280,2652
-54,-116,-36,1536,96,2446
-78,-75,13,1234,15,2807
-91,-97,45,1343,245,2000
-114,115,80,1427,185,1882
53,98,90,387,131,1617
54,69,115,906,-2,1219
38,13,80,756,219,572
22,-13,79,205,161,-26
23,-49,47,-485,262,-502
48,-124,27,-374,92,-689
72,82,17,97,345,-773
73,52,-7,-42,405,-845
87,45,0,-497,117,-767
90,21,-8,-81,420,-364
78,53,-19,-424,-2,-255
85,70,-28,-564,229,-229
110,72,-47,-262,371,-143
114,98,-62,-303,83,-143
22,-103,-47,2359,3887,-4375
91,-50,46,2984,4280,-4825
-108,-29,-122,2817,4392,-5572
-70,52,-89,2702,4864,-5924
-116,89,-88,3172,3947,-5659
53,-71,58,209,2530,-6184
-66,-96,-60,227,1513,-5245
83,42,28,1094,1461,-3133
-55,-45,90,1,365,-1282
8,85,45,-542,-1837,1051
-56,127,79,227,-198,130
-100,42,-107,977,-695,242
-85,-13,-2,2311,-403,175
-67,-58,117,2674,-1227,496
29,-48,-34,2853,-1693,-43
58,-15,10,2064,-1501,1413
-37,-13,125,-1057,-1934,-728
-77,40,-73,726,-3240,3005
-81,56,-83,-1542,-2815,1931
-53,75,43,-195,-5417,4741
-117,-95,26,-2180,-6573,3549
-111,-1,-30,-4050,-5019,2204
-37,-98,37,2513,1055,-34
96,-44,-15,1427,1350,-1630
-5,76,-79,267,1080,-819
-55,-46,-68,495,1011,-307
-31,-29,62,337,302,-205
10,-48,-34,322,-58,95
-21,-19,6,-76,-779,1224
15,4,54,-216,-354,772
-5,-4,24,737,-621,2165
50,38,42,2201,-7,2233
98,105,-41,1295,-602,2756
-85,-101,30,1380,-447,2904
-78,-123,-33,1542,104,2809
-92,-41,106,410,-1639,3105
-35,118,117,2362,341,2212
116,-106,-121,963,-14,1797
80,104,-119,711,-358,1421
39,33,110,822,63,696
4,29,111,116,-398,167
4,-30,83,-6,-114,-123
10,-112,80,606,384,-390
11,-128,42,296,404,-640
24,102,37,88,194,-655
41,54,22,172,276,-499
53,46,9,132,397,-402
71,56,0,-167,53,-443
59,53,0,-230,103,-357
66,57,-12,-251,441,-413
-54,-33,63,1745,3666,-3427
-22,-61,-112,4246,4038,-3307
-8,43,-69,2981,4074,-4167
-8,66,-104,2822,3031,-4895
34,110,77,2053,2861,-5863
70,-95,16,513,3682,-6808
37,-116,103,-224,182,-4806
-24,-107,99,-912,493,-2411
126,-94,-54,571,134,184
-10,109,95,769,417,987
-116,107,-4,1250,-633,1557
-56,30,-2,1818,-923,447
-64,-61,-59,2461,-1196,29
11,120,95,2894,-1092,-150
-120,51,12,2451,-2057,995
-75,77,4,862,-2409,2153
30,14,105,-1371,-4241,2205
-65,16,-8,-1922,-4257,2277
119,62,92,-1686,-6683,6511
82,95,32,-2792,-4405,4911
114,-112,-94,-2679,-2200,208
-39,41,42,4251,781,-1142
107,11,-14,-1513,195,-462
4,35,76,373,184,2
28,54,66,-336,260,-663
37,-11,-81,846,261,-631
-26,-28,-54,747,-1846,521
-50,-63,-84,1323,-1031,1172
-2,108,21,-84,-1160,2399
28,57,-22,1736,54,2155
98,98,114,4395,-1743,3725
-44,-120,-35,3886,804,2298
-79,-53,-22,1256,966,2856
-106,115,17,1836,275,2236
-117,105,57,1196,757,2387
102,-73,28,-389,79,1002
6,90,26,472,-449,-178
8,0,15,148,80,-673
-5,-80,-15,-215,49,-1029
-12,-124,-14,-321,-110,-781
-21,88,-17,-793,21,-861
24,45,-30,-576,243,-761
60,32,-31,-346,247,-646
65,42,-47,-381,220,-503
85,69,-61,-566,212,-330
87,98,-72,-723,163,-246
41,110,-88,-365,64,-109
28,127,-86,-31,433,-151
49,-115,-102,5,617,-107
66,-105,-119,-32,479,40
-56,-116,85,2027,2657,-3813
1,-104,-79,2021,3433,-4338
20,-92,-35,2522,2966,-3971
82,12,-59,437,3300,-5391
59,27,-73,1137,2498,-4913
12,97,-116,1107,2548,-4678
-101,-128,123,113,1734,-5509
19,81,-90,250,2678,-3058
-112,-14,39,-689,1299,-2138
30,-75,112,-323,1017,406
72,52,63,468,-35,32
-75,103,39,1338,-792,-781
-67,52,-76,2252,-1217,-609
-55,35,116,2747,-1639,-1141
-65,-22,64,3174,-1769,-625
124,73,-17,2364,-1475,1576
-54,-124,37,-338,-2220,3238
-63,55,-56,-3303,-2086,4287
34,77,56,-2535,-5241,2259
33,118,68,-880,-6635,7418
79,32,-57,-4072,-1663,2963
-97,-25,27,899,-1028,663
123,-83,-21,1759,1145,-2355
39,93,-46,377,1298,-817
14,64,-34,18,570,-465
29,62,88,197,-358,-565
61,-8,-67,230,-207,-478
15,13,-38,443,-659,541
20,19,-78,444,-320,356
7,46,5,464,-778,1750
16,87,-34,599,-538,2055
37,108,15,1274,-423,2229
-104,-101,-13,923,-425,2673
-93,110,-3,2100,15,2340
-77,92,-26,1368,-177,2762
-79,88,78,485,-1185,3022
-64,86,112,994,141,2714
-89,112,-127,1215,6,1821
57,94,118,259,336,737
48,91,102,-990,1570,-337
7,-110,78,1414,569,-802
64,119,58,968,169,-412
96,101,26,-25,226,-217
84,72,0,-210,-176,-172
44,76,-16,-759,-263,-612
46,59,-24,-626,120,-587
-117,49,-23,-292,517,-493
122,69,-31,-327,83,-524
106,60,-51,-189,73,-591
-111,83,-30,-472,127,-515
-100,-54,-33,2338,2294,-4501
87,-85,116,4047,2960,-5516
-84,-128,-36,3818,3764,-6135
-33,-44,23,2948,4485,-6519
-35,26,67,2097,3080,-6500
-60,98,32,-450,-753,-7206
79,39,24,-193,1964,-6929
95,118,86,2118,2147,-3750
-119,-106,-17,-871,-490,-2058
-45,-86,-104,-945,-822,-397
-106,34,-106,1080,448,779
-35,17,105,958,-558,198
-29,-13,-33,2415,-361,-192
-86,-43,99,2332,-1269,-196
36,-93,25,2178,-1538,-200
87,-36,56,2057,-1285,349
-89,-50,36,-219,-1430,602
103,-101,105,-599,-2734,4200
53,83,-28,-4139,-4182,2692
-26,39,-26,-1519,-4522,5152
51,95,-67,-3020,-9063,6056
-106,-111,7,48,-1083,235
-108,-16,-8,2175,1811,-1706
50,-90,-25,935,758,-982
24,31,51,1187,1596,-405
56,35,-5,152,768,-1294
-22,111,-11,1937,-929,334
17,-86,-43,-107,-807,1321
46,12,-35,505,-637,2120
94,108,-80,812,-638,2265
85,-99,-4,1787,-351,2579
-108,-49,-37,1870,-172,2645
-98,-55,-14,1261,472,2345
74,-78,1,781,-1089,2799
113,-86,-101,1115,-135,2694
-82,-121,59,1689,1351,2199
68,109,123,812,49,2145
44,37,97,391,-184,1750
5,57,108,-512,-326,1190
8,8,70,-230,150,770
-3,-80,47,-151,123,-425
18,111,11,364,460,-444
32,96,7,87,366,-465
42,73,-19,-165,358,-564
53,58,-26,-130,260,-787
79,39,-34,-209,202,-925
44,58,-44,-1013,-50,-736
50,40,-46,-542,110,-538
67,51,-56,-64,370,-406
64,64,-78,159,380,-137
-62,105,38,2901,929,-4307
-122,-86,-93,2267,5071,-5856
-97,97,-27,2933,4284,-5385
40,-28,-2,64,5865,-6360
87,-24,22,2248,5780,-7733
-83,64,19,1788,3464,-6359
96,118,-76,1004,2245,-5392
-66,-80,53,155,1593,-3739
-75,-117,-111,238,567,-564
-13,-69,115,-703,-366,-249
69,1,-68,-248,-325,132
-47,-110,-113,1252,-79,-99
-11,-125,13,2854,-207,-86
40,42,-110,2613,-969,43
-116,127,-8,3692,-1917,1495
-113,-120,64,2113,-3028,1813
5,-53,0,548,-2211,1827
18,-26,-60,-2047,-2959,2867
-40,20,91,-3394,-4182,2021
99,42,108,-3246,-5799,4669
65,36,86,-3329,-8882,6905
-63,71,35,-318,1544,-2213
-105,106,0,5083,1474,-1603
-26,-118,-86,-807,-31,-273
1,85,20,132,235,-790
41,14,113,1105,340,-844
94,-4,-107,527,-373,-1134
30,-13,-44,56,-1918,-87
-11,-85,-31,1306,-305,1042
-57,33,23,477,-670,2050
-76,82,-9,589,-772,2588
32,103,96,2547,67,3393
-9,-121,-113,2500,1841,3387
-95,-7,-18,2125,-974,3595
126,-2,-84,-68,-987,3070
-73,-61,-6,1039,683,2845
-105,-103,-33,1294,776,2516
60,-83,112,-745,-107,1020
13,76,91,199,-770,613
30,-16,59,873,-73,291
30,-59,-5,97,691,-517
27,-122,-15,479,566,-435
32,124,-7,-136,76,-360
37,-122,-23,-1195,79,-805
67,68,-25,-90,398,-866
70,43,-44,94,459,-783
85,37,-47,322,323,-417
81,56,-62,-148,189,-425
86,64,-62,-320,45,-231
91,79,-54,-377,-17,44
-100,87,-37,2024,2500,-3790
103,-108,104,3548,5683,-5837
-90,92,65,5068,6065,-5814
86,-54,-76,4366,5253,-5857
66,121,-55,3235,3550,-6166
76,-26,-112,1510,2332,-7075
99,76,102,1410,2645,-5648
-65,27,-80,191,1213,-2959
-17,-69,-22,-739,-262,-355
54,-11,-123,-594,173,-180
-1,109,82,-50,-496,-142
-103,107,-49,1795,-1367,-66
-43,68,118,2841,-1434,-592
32,-117,-22,3436,-2419,755
-125,-5,107,3485,-2332,873
-20,93,92,1043,-3113,3207
27,110,112,-2326,-1856,269
6,48,67,-1746,-3195,4218
-99,86,-95,-3102,-4025,3272
-56,92,25,-262,-6583,6828
-96,-107,-62,-6714,-4105,-949
32,53,22,2884,2553,-1910
41,68,-2,3024,1185,-390
-46,-42,102,-62,86,-194
-22,10,82,1668,-120,77
-3,28,-16,1250,-708,-192
18,6,-85,451,312,-653
14,-2,-41,458,13,556
8,-22,-120,408,-743,1387
-52,9,-13,603,-910,2760
49,-27,-109,1253,259,2319
27,27,-68,1557,29,4090
-76,-80,-9,-116,-274,3986
-13,107,67,2734,-348,3997
32,-13,-110,110,314,3697
-23,17,-101,-840,65,2664
-115,-29,-100,-307,-929,2331
36,-59,101,699,-726,591
3,43,43,1687,445,-878
9,-79,26,1061,1070,-993
8,108,-8,1013,861,-815
26,88,1,236,278,-624
33,72,-6,-366,68,-510
58,35,-12,-246,327,-567
74,26,-16,-65,271,-493
88,32,-29,-273,172,-351
69,41,-32,-558,-28,-307
63,42,-29,-433,105,-70
78,72,-47,-246,309,-188
88,87,-55,-186,232,-85
16,-118,109,3971,4012,-4504
91,-113,86,6068,5612,-5019
-36,60,-29,3864,3221,-5737
47,-38,4,2751,3538,-6576
100,52,-57,1783,2567,-7857
-115,64,-107,2496,3200,-5578
34,0,86,719,1033,-3296
39,-87,106,-907,-150,-1070
88,-107,50,1420,644,450
19,62,-87,1754,-805,407
62,80,-107,1592,-1175,-385
119,17,-123,2773,-1122,199
-105,-67,5,3779,-915,1319
-28,-87,-30,2084,-989,819
21,-103,58,-453,-1359,1073
-65,-73,-126,-2043,-2469,3107
70,3,-88,-3172,-4342,3577
-15,24,-19,-3334,-5216,4778
-2,28,3,-2809,-9734,7867
112,-95,15,-2139,-651,-2155
-120,-51,-5,4684,3054,-2047
18,-82,125,1774,596,-1146
-33,74,-107,230,-44,92
3,-1,48,1592,-1120,458
-7,44,-35,-835,-1399,1016
-76,-10,-62,428,-725,1788
-3,16,-49,1361,-1267,2700
82,26,-125,1827,433,3452
70,118,-13,-674,155,4211
-11,-24,2,1023,-1112,3506
-15,-12,81,1613,-981,3661
-39,-7,95,527,-327,2443
-110,-36,115,1067,-157,2251
78,-73,-120,1123,87,1565
68,-70,81,136,677,602
30,79,-1,307,880,-322
23,-32,-14,726,540,-758
15,-96,-51,607,549,-684
37,102,-63,397,428,-617
68,122,-69,-587,254,-699
54,88,-73,-416,-118,-610
59,79,-54,-350,-157,-627
70,85,-49,-493,49,-512
67,77,-52,-264,52,-514
73,96,-55,-234,158,-140
77,124,-69,-452,264,-165
76,-125,-71,-259,140,-181
92,-110,-81,-122,377,-118
96,-92,-95,-383,209,-153
94,-85,-93,-285,114,-214
117,118,101,2374,3551,-5164
-41,-38,-124,5655,3169,-3952
82,-12,-55,5167,4620,-4554
-18,5,-63,5409,2676,-4451
85,119,-55,2736,3186,-6382
103,86,-68,3836,1765,-5770
-86,16,13,312,826,-7638
-122,39,-108,452,989,-5230
-17,33,-12,-161,683,-2943
-49,122,1,-886,-143,-1041
-42,-113,29,365,-498,798
27,-16,-21,1619,-381,370
-76,54,-109,1714,-1731,366
7,-6,29,3016,-1427,241
80,-87,-89,2592,-1952,1130
-25,123,-80,1108,-2195,1118
-95,62,7,191,-2646,3536
-60,-49,-40,-3479,-3021,2088
80,22,45,-3849,-5290,3501
-11,-120,-111,-2017,-5793,5869
31,-40,102,-4480,-5511,4118
112,-45,44,351,235,-1207
-86,-33,-3,3156,336,-1260
37,-5,-22,-355,251,-839
22,96,-106,747,832,-434
28,-120,-39,-25,6,-558
44,-6,39,1447,-160,-409
35,-13,-44,1115,-160,-367
2,-27,-68,631,-592,65
-20,49,21,-685,194,691
-3,-32,1,1661,387,1745
83,96,-71,1476,585,2611
89,-105,-118,1479,-148,2645
-84,-76,-121,2443,1395,2013
-30,-50,-20,2950,176,2018
123,-117,33,924,1235,3028
64,125,29,241,530,3103
76,105,-119,-226,-457,2475
-71,97,-38,-1415,1079,2015
-121,-111,-73,-361,372,1472
34,-61,90,-667,-426,-112
67,-61,23,686,-216,-473
80,110,-34,700,748,-808
93,74,-56,811,892,-916
-125,21,-72,774,676,-917
-122,53,-41,-647,-281,-795
-117,12,-21,-287,-215,-324
120,33,-2,-448,-361,-199
118,54,-4,-779,-182,-377
-128,55,-10,-310,261,-84
-103,-97,79,5556,2434,-6340
119,58,-38,2900,5248,-5164
61,-28,83,3266,3536,-5321
104,3,-124,2669,4984,-5509
112,27,-102,2777,4174,-5301
-114,-73,-116,1292,4775,-6899
-2,-90,23,1275,119,-5222
-16,-43,-82,-174,399,-3294
56,-104,-39,-218,306,-822
101,104,-115,-14,46,1012
106,-22,124,375,-222,405
-121,110,47,953,-867,-179
-90,49,-102,2289,-1438,312
15,-23,-10,2425,-2651,614
-124,-20,-54,2306,-2006,119
-92,-67,125,1891,-2563,2143
-72,-94,104,-612,-1489,-71
-74,59,80,-2703,-3670,2425
53,110,10,-3916,-4485,2198
-42,72,9,-1496,-5349,4377
59,90,53,-3339,-7360,3671
59,126,39,180,-3,-720
88,-45,4,2628,1330,-1619
-5,-116,-21,659,527,-605
24,26,113,728,882,-447
32,70,100,-18,-267,-309
38,-18,33,1077,-962,-196
45,-52,7,1458,-444,377
9,-26,-57,881,510,973
-3,61,103,198,-130,1436
7,-88,35,885,-1682,3288
19,-90,-32,1860,-371,2123
88,-85,35,2752,430,2958
116,-59,-9,1977,-235,2712
78,-37,93,-88,-465,2418
116,107,88,443,-45,2372
96,78,-109,1196,343,1997
81,82,-124,285,396,1463
54,37,97,455,662,1044
35,-18,73,752,201,589
39,-52,45,700,315,128
37,-89,28,442,358,-294
64,93,4,250,544,-574
67,58,0,438,344,-358
66,54,-2,35,217,-336
73,50,-6,-199,260,-466
87,26,-6,303,302,-376
109,39,-18,32,372,-255
104,33,-19,62,170,-376
113,30,-20,47,349,-299
122,83,-77,4704,4097,-5280
-72,-115,73,4552,4931,-6238
-96,-13,-69,4125,4262,-6683
119,119,-83,1862,2948,-7328
-111,-67,103,1442,2781,-6990
80,61,4,1286,1767,-5533
-34,43,98,317,1089,-2943
-3,-99,-74,-286,657,-1145
-35,-59,121,-406,-537,182
69,26,-113,40,-503,143
-49,38,18,1783,-512,137
-56,32,127,2102,-1230,-5
91,-97,-15,4485,-717,786
-126,102,120,2867,-1976,1938
-59,-122,-48,1283,-1911,2613
-117,-87,102,-1132,-3160,3700
114,36,116,-4040,-3657,2189
-108,51,-49,-3098,-4800,4498
125,-17,-91,-2444,-6340,5713
-49,-18,-50,-1150,-2825,1320
-8,-29,1,1990,2731,-3641
47,-37,-14,1958,505,-1521
-2,50,44,625,720,-353
-17,57,111,773,-1441,259
4,-11,10,447,-657,-624
-33,3,-50,-250,-159,306
-79,-45,-23,904,-303,1244
-32,46,-19,574,-828,2107
-81,31,-13,1373,-459,2643
14,59,7,1362,212,2913
97,105,-33,1120,397,3449
-120,-80,0,373,-27,3226
125,-49,100,456,-736,3123
-65,-44,-125,732,251,2186
-81,-94,105,369,319,1694
41,114,88,328,-432,1478
-2,18,33,950,97,625
20,-2,10,587,419,-163
54,-84,0,1058,508,-431
55,103,-11,1285,550,-257
26,-126,-8,125,45,-457
36,98,-3,-269,197,-656
63,43,-16,-72,413,-590
72,51,-24,-293,181,-366
80,51,-31,-358,63,-274
90,50,-28,-53,252,-186
94,75,-41,-356,226,-247
92,74,-51,-353,77,-191
96,70,-48,69,372,-41
92,101,-61,-235,237,-78
-47,90,54,2522,5052,-4918
98,105,89,5498,4583,-3815
41,-110,-107,4786,4295,-5128
41,16,-31,4158,4310,-5189
41,-114,-46,2809,2339,-5647
108,52,-108,2157,2158,-6597
-125,-90,43,2382,2190,-5175
14,-126,-121,1628,542,-3216
59,121,39,-2408,-125,-2331
-11,15,110,45,81,1018
105,-47,52,354,-51,759
-21,24,-58,1706,-1411,483
0,87,86,2343,-1248,-72
98,-69,-68,4877,-1591,1016
-90,-48,-120,2123,-2411,620
101,83,-45,2083,-2024,2381
34,-107,103,-2004,-2839,2655
-12,-108,-22,-3284,-4420,2871
-74,71,27,-3985,-5349,4185
-52,66,-125,84,-6867,6399
-48,87,-39,-5630,-2472,564
57,117,33,3219,1382,-495
77,-19,-14,2572,439,-596
-3,-7,-25,-51,113,-303
6,102,83,980,560,-402
58,95,-109,480,556,-906
70,-58,-6,2074,-313,-874
73,-52,-67,868,-88,-472
50,-29,-66,-317,-514,372
6,-30,-121,-464,-283,1022
-38,-24,-60,1407,-605,2469
44,18,-36,2212,-546,3375
106,83,-59,2383,214,3528
107,-23,19,594,-15,3967
-34,-51,6,552,267,3599
-104,-53,69,233,-410,2992
-87,95,118,1238,-514,3239
-80,-109,118,310,331,2574
77,14,86,-836,-678,421
24,56,58,1348,-51,-1150
4,119,45,1531,950,-1182
4,93,-6,699,1256,-864
37,51,-25,682,761,-430
63,76,-27,-378,73,-336
60,76,-23,-692,-201,-573
85,39,-21,-362,270,-754
91,13,1,-16,309,-660
100,23,-21,-439,388,-434
95,27,-38,-352,233,-275
97,37,-68,-76,367,71
-3,46,60,3717,2661,-4423
94,71,-119,3362,4328,-5362
112,-127,-8,3405,4296,-5792
102,-72,98,2316,4385,-6088
105,54,92,2013,4197,-6432
26,-110,40,1656,3164,-5498
-48,61,-16,1005,2437,-4574
96,101,126,144,1849,-2835
-98,-22,97,-779,458,-1451
-6,-87,36,-324,-389,146
95,-22,-14,979,-1242,691
-8,80,-97,1326,-1791,558
59,74,96,3210,-2084,295
-112,84,-51,3125,-2547,807
3,-55,92,3601,-2982,1661
-116,124,57,2828,-2490,2824
59,3,-126,-1414,-3258,1782
-121,77,9,-3475,-4264,1724
34,95,-90,-2087,-4388,3764
-29,126,78,-4571,-6100,3928
125,93,-58,-1958,-2692,325
15,6,28,2608,711,-748
37,-120,-15,1536,986,-694
-40,79,-61,251,261,193
-38,61,25,362,470,335
18,103,73,119,50,-413
38,-4,-38,1760,342,-207
14,-34,-81,1533,-1099,471
-27,9,-102,141,-1343,1095
-11,56,-41,-478,-391,1193
-37,46,24,1265,-706,2257
25,89,-12,2597,260,2439
87,-72,-11,1487,-28,2789
103,-81,2,2011,283,2995
-111,-108,1,1989,337,2868
-53,-100,91,967,-330,2887
-82,95,-108,1015,108,2768
-127,125,120,318,155,1535
72,70,92,1441,511,-188
34,60,74,373,421,-481
2,-86,50,1029,260,-348
15,-126,44,570,153,-39
42,87,27,-238,209,-323
57,71,24,-74,233,-626
94,52,21,-96,682,-1313
110,18,28,421,981,-1235
104,36,22,-60,71,-346
96,43,16,-612,-389,48
116,53,-7,-692,126,-346
127,67,-28,-21,286,-74
-102,-106,58,1923,2346,-3815
6,-95,-36,2924,4618,-4421
100,-21,-128,3507,5406,-5351
117,40,-41,3912,6177,-6402
-4,-108,21,3381,2996,-5750
82,23,-70,1387,1952,-7077
66,13,124,1595,1821,-4805
-8,28,-60,1065,1754,-2342
-83,-78,12,-534,777,217
-97,-65,113,124,-274,539
42,67,-23,333,-442,-442
70,38,-105,2838,-1311,791
114,66,92,2343,-1750,-93
-63,-23,48,3645,-1302,923
3,-9,41,2277,-1567,820
89,-76,67,2482,-924,1916
-16,3,114,-240,-1849,2419
-42,-5,-14,-772,-2725,3911
24,93,85,-4870,-4789,2159
10,-49,-28,-2679,-8682,7864
59,-34,-119,-4050,-3542,3132
126,-13,21,-164,-1098,107
111,-18,4,2762,197,-1492
35,-75,-20,157,514,-1000
-18,83,120,-40,711,-390
-10,85,-83,-11,803,-724
54,19,26,1225,1128,-1443
44,-53,-51,1163,1227,-738
28,-74,-87,273,-96,743
-22,-40,-65,-463,-1024,1891
13,91,-33,-394,-887,2333
49,0,-72,2860,1017,2754
107,-121,-47,1644,-318,3624
-90,-70,-67,1079,489,3301
-69,-58,109,940,-459,3244
109,39,-56,-1420,-2783,2932
-6,50,-95,1994,1444,2701
-111,-107,-111,1508,196,2220
53,-64,121,-860,-587,855
5,69,70,-735,-347,-39
22,0,40,-556,-67,-421
12,-67,32,384,282,-491
28,-123,-33,875,879,-910
50,-126,-45,-4,609,-1079
80,100,-55,-376,297,-1034
96,56,-46,-1,27,-791
88,31,-50,183,352,-762
95,40,-45,-358,121,-623
96,21,-35,-6,188,-35
88,64,-54,-311,330,257
-4,-105,-83,4363,3238,-4621
-101,-40,63,3237,4390,-5728
-42,-59,-60,4270,5987,-5810
-117,25,39,4679,4815,-6414
83,-94,-2,2282,2452,-6655
103,-64,-78,1860,2421,-6236
15,-25,33,1642,1880,-4376
115,63,49,2535,2237,-37
-83,24,88,838,-117,119
-122,6,31,-885,-1205,-1223
97,26,-51,3268,-386,1285
63,-103,-125,1716,-1322,-742
19,116,-12,4058,-1397,1813
-124,6,-70,2623,-2365,1966
-69,-57,8,1508,-2313,3068
-2,36,122,-2385,-2630,2728
-111,-42,50,-4832,-4349,2876
-52,76,-107,-3746,-4748,5027
123,119,-19,-4357,-11075,6431
88,82,49,-440,1805,-66
83,1,13,4467,149,-1137
-36,-20,-30,-1550,-1228,-892
-2,0,-80,1544,921,-888
16,26,-85,1631,576,-620
56,12,28,1676,287,-650
13,17,-17,539,-303,-303
50,7,-50,-108,182,348
-43,53,-38,-354,-72,1188
-102,20,-36,1208,-701,2938
32,-128,-15,1281,-289,2802
37,88,3,1963,259,3847
-99,-9,17,297,263,3163
124,-50,54,503,-1030,3580
-110,-12,116,-262,-193,2694
-30,106,86,1329,335,2735
109,-119,121,-41,-811,2342
66,73,69,717,-331,1573
30,61,65,1162,-201,681
39,12,39,1011,325,-322
31,-83,19,1249,752,-735
28,104,5,931,555,-674
37,80,12,373,316,-567
66,75,-10,-422,373,-888
88,31,-5,-240,98,-744
92,23,-10,-321,166,-625
100,10,-23,-107,233,-555
83,24,-23,-440,-22,-189
74,55,-27,-842,-43,124
80,84,-31,-607,100,83
121,112,-51,-378,386,-235
-7,-94,60,2944,3683,-4826
91,-106,-9,4655,4689,-4854
71,-33,-90,4953,4748,-5873
13,106,-45,3094,3064,-6465
77,-52,-87,1474,2418,-6707
95,-96,90,2412,2221,-5809
41,81,-2,1671,1645,-4967
-92,-117,81,182,517,-3476
-59,-118,-121,-363,222,-977
8,127,90,670,-714,1106
-106,-22,100,69,-275,108
3,1,23,1702,-668,675
-9,37,-58,2153,-629,404
34,-66,120,3420,-528,787
-128,112,-16,3062,-1406,2072
-20,91,121,2615,-1339,1430
98,-120,-49,1141,-1522,2934
50,-17,-128,-3302,-3957,1633
62,36,1,-5266,-5099,2874
-82,44,-70,-1515,-7679,7469
17,124,102,-4458,-4045,2011
35,-58,27,-369,1326,-1209
-5,73,-6,4278,1342,-1383
-84,-44,-60,-530,268,-526
-91,52,35,284,763,-182
-6,48,88,552,477,-304
-10,4,-2,1102,-741,-367
-18,-20,-55,496,-371,-313
-18,-3,-53,-172,54,221
-77,-26,-59,435,-592,1476
-45,19,-22,1090,-82,2253
18,83,-31,1563,-787,3156
52,124,-14,1443,157,3347
-106,-58,16,1139,-464,3389
-51,-109,7,2089,452,3436
-96,-58,24,879,-607,3160
-98,-40,-102,-435,-1010,2886
-116,-128,116,1209,371,1899
71,117,-103,1200,-142,1403
23,89,115,407,247,567
-4,6,96,1134,351,-8
-10,-46,66,766,301,-422
12,-111,25,-52,433,-773
47,100,16,-300,405,-928
47,43,-10,29,387,-892
73,23,-32,-450,343,-891
84,8,-35,-463,-16,-534
64,12,-16,-223,-62,-108
66,44,-27,-239,192,-134
80,65,-31,-340,259,-181
-120,104,90,3788,3288,-4171
-110,-111,-20,3608,5840,-5741
121,-97,-128,4691,5327,-5221
76,46,-7,4066,4804,-6023
6,-101,28,2360,2444,-5998
51,17,-42,-246,896,-6475
-107,-47,11,477,1534,-5582
-52,40,-87,1466,1784,-2623
-43,-66,1,-1670,381,-1760
-28,125,127,-772,306,553
83,-22,115,907,8,1473
-72,109,13,1031,-710,331
-91,-113,-113,2437,-1337,-49
-52,38,67,3636,-2960,1754
68,14,6,1890,-2601,35
-114,-83,120,1723,-3510,947
-122,-44,107,-2430,-2870,135
-18,73,83,-1652,-3415,2456
95,123,59,-2570,-4837,2534
-47,104,-7,-2288,-6348,4217
-72,117,-27,-2898,-4155,677
24,-28,40,2631,1529,-1734
16,86,-10,1412,-7,-1022
19,90,-35,11,383,-233
-7,37,60,620,375,-267
40,21,51,1032,246,-753
-3,5,-26,532,-402,-784
28,-102,-96,1667,477,-342
3,-112,-74,2317,277,1513
-21,28,-96,-199,-901,2015
1,82,-7,1270,-1463,2678
119,87,-1,2144,-418,2859
115,-71,36,1543,-312,3153
-113,1,62,456,-833,2779
-99,-68,109,839,-434,2808
-122,-100,103,1063,152,2209
89,108,121,931,-527,2046
61,-126,115,-241,14,1358
36,75,114,340,304,827
2,47,84,525,473,-67
11,-14,63,72,949,-754
46,-79,18,-421,1421,-747
115,57,0,1286,2746,-1586
-110,124,41,259,1368,-653
-101,105,18,-685,1162,-1212
-123,86,53,120,254,-347
-104,96,55,465,991,-263
-109,-114,70,73,468,-428
-94,-107,76,-239,241,-108
-89,-109,52,-24,-19,20
-101,63,80,3722,2770,-3500
-12,25,-80,3643,2831,-3750
118,48,8,4660,4736,-5411
112,113,119,4611,4330,-6097
53,50,-98,1616,2199,-6761
-67,108,48,1328,3432,-6782
40,121,58,1478,2376,-5652
-25,37,-63,1782,1737,-3933
-10,-107,25,-1305,447,-2932
87,-80,77,-845,-454,-666
-84,91,-26,363,-990,1086
55,25,41,1191,-1518,299
18,94,-24,2613,-1177,17
37,58,50,3247,-1819,301
111,-42,-78,4207,-1439,954
-66,-50,115,1721,-3126,2522
17,13,36,28,-2345,2064
-127,121,-45,-2663,-5083,3632
-81,-50,-82,-5186,-5181,2170
-92,-83,104,-4019,-8212,6165
33,8,104,272,-1845,1393
111,-39,-6,2423,1103,-1772
92,-115,-7,1595,523,-1288
12,-100,-38,-391,324,-607
11,5,95,1409,991,-574
21,67,99,614,888,-706
15,-20,1,944,125,-362
72,-48,-100,865,64,-494
54,-111,122,1236,240,478
-56,-10,-32,-565,-479,2086
19,86,-68,242,-709,2559
54,127,-24,1784,-629,3110
86,-69,14,1250,-6,3184
-73,-10,26,791,-198,2984
-90,-44,47,664,-360,2914
-104,-90,117,862,-828,2465
-71,120,122,940,204,2584
106,108,-87,835,109,2165
99,113,-127,530,263,1280
37,77,-128,498,45,465
22,46,94,-520,-193,-342
30,-5,62,-918,-21,-753
46,96,17,44,318,-743
39,71,-9,23,539,-760
46,86,-25,-495,308,-587
83,56,-50,-153,356,-433
100,65,-55,-135,252,-234
100,84,-62,-374,123,-250
92,94,-64,-383,13,-346
102,77,-58,77,300,-185
-88,-118,93,3848,2595,-4109
-114,-86,47,4441,5199,-5076
-115,-95,-71,5594,4713,-6396
76,86,20,3344,2768,-6135
-70,-45,-19,2332,2682,-7069
-60,-6,-93,1814,2217,-7034
122,34,32,1446,1895,-5390
-43,19,89,-328,1434,-3655
-59,-36,-61,-1345,837,-1992
-26,56,26,636,447,1202
-121,-111,-64,571,-1048,507
-7,-45,-105,1554,-1780,995
35,-76,56,3461,-1340,1485
-109,-124,-74,3088,-2463,1321
45,-74,77,2916,-2004,2083
-79,-17,124,-358,-4319,3070
-36,-119,-79,-1764,-3959,3653
52,19,9,-4034,-5168,759
109,-97,-55,-1077,-5592,4664
95,-39,-26,-2406,-5548,4916
-104,-22,-17,-1453,-1774,-1734
-51,52,15,4227,3095,-1702
3,-95,-66,11,387,-63
-25,117,12,-103,234,-219
3,57,73,512,891,-314
6,22,11,1372,-89,85
22,-24,-57,1496,-107,-39
50,67,-53,121,969,-543
-65,25,-38,319,123,1407
-29,51,-9,769,-307,2384
20,39,7,1865,-592,3364
45,91,7,1365,178,3063
117,-43,58,301,-715,2872
124,-85,106,457,-152,2996
-111,-69,-94,1002,-153,2568
122,-30,-108,350,196,1891
90,-110,118,444,647,1232
42,50,72,891,223,1336
10,7,82,353,-204,1182
25,-26,62,373,144,371
32,-28,40,-334,143,-360
57,123,33,305,259,-653
85,106,-13,-79,471,-755
87,63,2,133,342,-649
107,41,-20,265,493,-537
106,41,-30,-84,93,-376
111,41,-31,-218,65,-263
117,58,-22,-302,203,-61
101,83,-29,-316,-66,46
103,106,-31,-405,-80,84
-30,98,-104,3438,3572,-4215
69,94,29,3938,2847,-4659
-58,-106,22,2938,3894,-5453
-72,-55,42,2431,2937,-5556
-68,21,9,1180,3404,-5922
-128,116,-16,286,3205,-6094
-12,-17,-21,2193,2093,-4917
76,-109,-128,3245,1668,-3371
-70,72,-85,-1364,438,-2654
11,-83,-121,-1234,-1001,-920
40,-122,84,461,-442,482
-76,33,94,977,-1394,293
-90,-15,76,1747,-1040,-240
-83,-46,-90,2205,-2029,-263
-77,-89,95,3354,-2526,805
75,122,7,2408,-1266,561
-64,-56,-32,2418,-2041,2341
-68,105,-9,-95,-2347,1025
0,12,-112,739,-1715,2547
86,2,-16,-192,-1953,3103
15,46,62,-2500,-2016,3044
55,67,120,-3691,-3298,3556
-14,-4,64,-1556,-2599,697
60,-56,-4,3548,1134,-1464
-18,-53,-8,-537,1238,-770
-58,49,57,268,304,-75
-8,-4,-107,892,146,157
8,-26,26,194,-247,123
19,-67,-41,476,-350,512
0,-60,-12,686,-1102,1665
3,-3,-57,816,-952,2360
12,28,-50,1087,559,909
59,93,3,1342,169,2819
88,95,-44,1635,558,2683
74,-105,13,634,-316,3128
-100,-123,31,1082,240,3034
121,-126,47,1083,-48,3013
121,-52,124,-452,-363,2205
112,84,101,1369,385,1801
67,12,106,1664,619,1480
28,26,80,372,304,1055
-9,-6,100,434,-393,787
4,-30,89,-281,0,-33
23,-90,72,-221,295,-561
50,106,64,262,448,-1021
71,44,20,24,725,-1220
74,-19,16,503,270,-1062
78,-5,-2,211,39,-898
78,20,-14,-475,196,-145
90,27,-26,-492,326,-96
-12,-122,-81,3410,2620,-4746
-128,-106,66,2485,3734,-5446
125,63,119,3612,3455,-4828
126,122,76,2570,2809,-5652
115,-19,73,1152,2945,-5196
51,52,44,1329,3195,-5389
-94,70,44,1423,2591,-6175
43,-100,-17,1909,1220,-4347
8,-57,-61,118,561,-796
50,-40,-116,-954,-297,-260
104,-100,72,1629,32,1094
-97,81,-67,952,-2077,233
-10,28,-70,2553,-2067,516
78,-3,91,3075,-2418,593
121,-48,-19,2564,-2541,598
-51,92,-103,2931,-2533,1705
101,-55,-117,1454,-2753,2182
-116,18,63,1490,-1538,2552
50,-113,-23,-3530,-2753,1377
-55,31,78,-2436,-4470,4789
-20,70,-5,-4140,-7078,5933
-75,63,-10,-565,-3469,1780
61,-71,69,2587,2235,-2670
104,102,-21,889,618,-742
-7,95,78,-74,241,-304
-15,16,113,257,696,-569
3,-5,15,1053,133,-571
-27,-56,-39,593,-214,-27
-49,-24,-30,186,-447,914
-12,0,-54,547,155,1535
-21,67,-28,1076,-528,2286
27,68,-17,2206,-543,2697
-97,-112,-10,1291,425,3010
-123,-89,-32,1790,481,3087
-82,-27,57,282,985,3777
-82,117,39,2580,36,2643
93,-64,-123,978,-1240,2483
107,-58,-90,-985,-50,889
42,34,-112,1561,327,857
24,0,116,1260,898,257
5,-31,63,181,525,-150
5,-73,39,-149,-286,-270
27,-126,40,-4,7,-289
59,88,2,-125,415,-728
74,67,0,-171,146,-776
87,46,-1,-231,127,-618
83,39,-17,-337,160,-556
79,35,-18,-223,60,-441
92,41,-28,-401,227,-275
105,63,-48,-267,260,-126
-59,-101,-33,3446,3196,-4294
61,-110,27,3626,4093,-4633
-103,-5,90,2857,4082,-5367
-59,14,91,2612,3533,-6008
-28,84,59,678,4020,-6677
87,80,70,1597,3076,-5565
7,121,-11,929,3133,-5454
18,77,-34,1541,4410,-6704
75,-92,-122,433,767,-1452
-62,-125,-91,-458,-1046,413
28,97,109,-139,-742,1734
123,-16,99,761,-483,1094
15,36,-1,1945,-891,939
63,11,99,2559,-851,136
-122,107,-31,3932,-1833,2148
8,-76,-42,1892,-2331,1770
96,-42,1,1249,-2540,2101
93,19,112,-967,-2249,2666
86,-76,-37,-1767,-2861,3359
101,13,103,-3227,-5372,4575
-72,-66,25,-4273,-5774,4591
-98,-58,-74,-4680,-4331,1380
13,-119,37,4464,2350,-2077
5,-43,-18,-722,230,-1194
-11,-27,-47,1050,172,-314
-9,7,-57,550,236,-385
-10,-4,91,331,-71,-483
-25,-61,-27,789,-55,68
-6,3,-35,491,-161,1139
-29,12,-47,702,-729,1428
-10,52,-53,1046,-260,2069
72,104,-10,1332,-701,2554
51,100,-60,1541,272,2952
-119,-79,15,1790,-733,3300
1,-121,-15,2816,776,2970
-108,-24,17,447,-254,2861
-110,-33,-57,-334,-1583,2466
91,91,-118,1458,803,1827
18,-87,-64,123,-473,1264
-2,42,116,1147,532,363
29,8,98,741,562,86
32,-47,37,-289,327,-428
30,-115,22,-367,107,-523
39,82,6,-165,281,-569
69,67,-18,-215,344,-680
84,46,-33,51,339,-680
84,47,-40,-73,195,-582
87,42,-49,-119,171,-430
92,38,-42,-140,117,-210
88,52,-48,-209,82,-39
57,28,15,3676,2328,-3811
-91,75,-75,5039,3748,-4519
-1,-52,32,4538,4870,-4772
97,82,125,3513,4101,-6304
87,-68,-20,2470,4141,-6525
12,-18,-12,3413,2908,-4918
-87,-112,109,354,-1178,-8400
95,124,53,417,1626,-4725
89,-92,-125,-265,143,-1415
-102,-93,-60,-106,-469,756
-68,-34,110,208,-236,1702
15,-125,45,1636,-411,413
-112,-14,-82,2503,-849,-598
-8,43,96,3629,-586,-116
-118,-93,-82,3943,-1261,1342
-4,-103,116,1379,-2187,1450
13,-107,-22,1186,-1875,4144
-7,-88,95,-3929,-4089,1864
122,67,-6,-3344,-5685,1885
-76,-51,-25,-507,-8481,6110
14,-109,14,-2855,-9692,6637
50,-67,29,-2219,5811,-2483
6,25,-1,6367,-2151,-2568
64,108,-29,-1016,1263,-440
-16,18,127,581,44,-99
-1,41,-89,435,1017,-716
29,-31,50,1306,891,-1080
42,-71,-54,615,733,-374
19,-87,124,-378,377,609
-52,-105,-116,-462,-331,2116
-1,-42,98,1076,385,2848
126,-109,-41,1593,-859,3877
-102,-76,-50,1804,-142,3686
-8,44,8,959,-70,3525
-10,-29,20,1659,-59,2831
-109,-22,115,616,-558,2707
-110,99,95,1456,425,2163
77,-122,104,539,381,1997
40,-114,112,283,-175,1101
1,41,88,1038,92,469
-5,9,74,440,227,-42
1,-61,51,292,185,-496
31,119,39,194,488,-782
44,85,19,-140,383,-880
58,49,2,-321,210,-831
72,16,-8,-403,122,-761
88,2,-26,-200,284,-529
92,15,-32,-284,143,-420
105,23,-33,-248,50,-247
104,35,-36,-274,116,-132
20,-85,-125,1900,2694,-4869
91,-44,-31,801,3009,-4564
104,-88,7,540,3176,-5280
-125,-37,10,266,4682,-5406
77,28,20,-106,4556,-5076
20,-122,-3,-904,4280,-5435
-60,-27,-67,990,4759,-4222
0,-47,59,625,2714,-3180
8,68,-118,-226,-1871,-222
-98,-63,116,448,-105,23
-95,-33,59,2243,-1434,410
-103,80,-122,2951,-1732,-1042
-77,-18,-112,3897,-2203,-245
-75,-43,-48,3948,-2003,-243
-13,13,71,3551,-2775,1262
-20,122,100,806,-2136,1354
-59,46,11,-1076,-2152,194
71,20,2,-1081,-2802,3380
24,58,16,-1573,-5377,4817
-32,-97,-126,-2075,-4787,4593
68,-115,62,798,-1099,584
115,98,-7,888,-101,-1459
44,83,-21,931,731,-1007
-13,-2,-54,588,865,-244
4,57,-15,347,-76,-480
49,-6,60,848,651,-860
28,-68,-65,569,26,-222
3,-66,-50,741,-262,1012
-43,-2,-46,287,-526,1241
-17,-35,-66,2024,421,2460
9,119,-5,780,-497,3147
57,84,-84,2717,592,2783
99,-43,24,1078,-495,3520
-78,103,-28,2609,860,2356
108,-90,44,778,-442,2721
91,85,-127,1147,-738,2450
104,65,-109,1220,644,2112
60,22,-117,1693,175,1790
10,81,-113,-201,-287,1030
17,33,-105,-464,-192,-259
24,-111,125,779,795,-874
22,57,62,440,1033,-777
2,66,34,-271,343,-508
36,23,12,-133,286,-470
69,28,0,-215,427,-547
84,21,-14,-130,285,-535
70,18,-21,-175,76,-513
80,13,-21,-299,126,-458
80,15,-21,-277,32,-316
96,21,-25,-250,136,-167
-90,-65,-22,3961,8055,-7464
72,-124,-41,3045,8008,-4972
109,42,-84,3903,5877,-5068
29,39,-116,3184,3316,-6407
118,-54,-42,2260,1894,-5903
10,41,-68,1570,626,-3968
119,-5,-55,135,-629,-1644
-98,49,-38,1849,-314,1360
118,-29,-21,2142,-2000,1198
96,11,-7,2508,-2352,1288
119,55,1,1918,-2821,1727
-86,-87,76,-211,-2523,243
-28,-98,-32,284,-4619,4798
-88,28,73,-1733,-4315,1831
-111,60,16,-3356,-5237,3518
117,11,28,-1737,-1670,2323
-80,-10,-70,2179,1032,-1255
-40,-65,-10,408,-79,-1422
-69,10,-72,-116,589,-81
-117,85,28,4,34,784
-40,-107,-75,99,291,11
68,68,4,774,280,-350
-124,75,-84,-163,-782,-1100
80,-42,6,1062,14,-193
22,-41,-28,638,-1017,1556
7,60,-66,-55,-1431,2852
16,115,-17,2236,-1402,3270
77,-68,48,2054,-299,3284
-82,3,2,1737,615,2981
103,-51,86,1920,-515,3440
-96,-53,90,662,149,2461
126,-111,99,504,-95,2776
101,-119,-119,345,-454,1941
48,94,-104,271,-190,1209
13,41,107,739,214,458
7,-10,55,685,204,-125
27,-78,15,460,434,-538
16,-110,1,-115,353,-758
35,106,-3,-73,178,-853
78,65,-12,-153,305,-877
99,57,-22,-172,300,-873
98,38,-34,-84,205,-805
85,29,-36,-195,152,-635
106,25,-40,-12,361,-437
123,27,-56,11,302,-161
121,46,-58,-258,73,147
104,79,-61,-576,-97,202
92,96,-49,-251,202,183
106,110,-54,161,406,276
105,-122,-66,42,226,255
50,-28,91,2661,5747,-5701
89,-18,-91,4818,4845,-3906
9,77,-4,3394,4876,-5203
-28,-102,24,2355,3239,-5999
23,52,-50,829,3390,-6859
15,111,-118,1181,3198,-6581
65,-25,-5,2212,2438,-3307
-61,7,12,-234,500,-1905
-88,-93,113,-939,-1029,-143
110,-82,123,874,-160,1297
-41,24,-6,1495,-1144,1013
-61,83,-95,2252,-1028,-482
-5,31,36,3956,-1616,574
-123,-16,-19,2704,-2225,555
48,-93,3,1148,-2520,2222
-1,12,-74,-2857,-2873,1427
-121,-4,-6,-183,-2950,3687
-47,-14,96,-4923,-5725,3585
-76,-71,74,-1791,-8175,7434
2,-54,-48,1128,-1759,2425
44,-37,-11,-394,2254,-2646
49,-68,-15,2690,1647,-2911
27,79,67,593,1288,-975
-3,-28,116,904,22,555
-18,42,-45,-980,-1116,285
-20,-53,-56,790,-1592,1096
2,-30,-112,322,-154,1361
27,61,-22,83,-1199,2566
32,1,-73,1569,-501,2294
-102,-94,-2,595,-616,3061
-66,-83,-81,640,65,2694
-87,-11,59,-381,-1472,2454
-42,111,68,2142,-341,2152
-97,-24,106,-157,-624,1822
93,70,-56,2427,-325,1692
98,-118,-120,738,970,1222
32,114,82,216,-13,378
5,3,71,483,-213,-246
45,-79,38,534,845,-507
49,-91,3,6,671,-560
70,103,-32,-303,249,-667
63,60,-21,-109,-7,-88
57,85,-32,-389,153,-192
88,81,-41,-132,264,-350
100,82,-51,51,351,-308
100,96,-50,-151,167,-245
104,104,-61,-155,181,-217
98,108,-58,-32,195,-206
100,104,-62,-48,269,-77
116,-124,-65,-289,172,-105
-109,-112,120,2975,1763,-3799
102,-74,-55,2426,3295,-4757
106,-102,0,1852,3259,-5299
-67,-61,10,1522,3793,-5404
-26,16,8,102,4106,-5891
-36,96,-52,-1221,4783,-6132
78,40,126,875,5327,-5665
-12,-107,68,5916,-1631,-3697
-53,0,88,-1067,-121,-1109
-119,98,101,-557,-506,-462
-51,-70,-93,1842,96,574
-105,-2,-20,1559,-1168,-602
-89,-11,113,3338,-2483,72
-86,-68,31,3063,-2119,-835
-101,122,-14,3470,-2564,985
42,-105,-111,2472,-1953,1932
-76,-119,-66,-352,-2112,1571
-41,54,42,-1556,-1344,2955
-32,-25,-113,-4018,-3156,5537
32,-28,-98,-1683,-4598,2697
2,-51,32,2257,277,-623
-44,-108,1,1403,-387,-448
25,125,-46,135,231,-507
30,-29,-54,734,475,77
55,-39,34,1391,-367,347
76,-94,-56,1532,-555,777
44,116,-5,2608,-933,2136
76,112,-111,2558,1703,1926
83,11,-100,1725,1620,2892
-105,101,-117,702,1148,3234
-74,109,-59,1050,604,3803
-114,-53,-42,-596,-39,3416
-106,-82,34,-31,-971,3087
111,-55,100,-750,43,2392
104,96,63,1454,626,2087
13,109,100,1368,216,1280
8,86,62,194,593,404
-5,-30,52,513,787,349
-31,-45,24,-263,401,-613
11,122,7,170,503,-710
67,4,1,909,787,-1219
78,28,-8,119,687,-1011
67,0,-1,-191,-105,-498
83,9,-2,-427,-225,-150
87,25,-15,-479,0,-180
-127,71,-25,-235,298,-289
86,75,-50,-191,-64,-290
26,93,-30,-828,-324,-285
75,71,-33,-133,418,-233
81,80,-53,202,281,-197
-105,-105,71,2437,1319,-4328
62,118,-68,3461,3106,-4333
47,125,1,3524,3483,-6217
115,-82,53,2565,3011,-7025
15,23,-17,-1383,3581,-8932
-40,-53,-62,381,1726,-7599
92,-28,40,-837,180,-3271
82,-32,19,-756,350,-72
-69,14,-51,281,-1245,1051
-68,40,35,1493,-968,-162
-49,-128,-35,1450,-2121,-807
-43,-118,-64,2969,-1962,-1343
-65,59,64,4036,-2168,-1291
-43,-36,18,1571,-1919,372
-48,60,-28,925,-2873,3653
-109,5,84,-2015,-2001,2231
-2,70,-67,-1551,-3144,3740
6,-15,119,-4036,-5476,4609
-14,59,-82,-4419,-4631,2740
106,66,33,2840,1604,-1892
-94,64,-15,2696,847,-1761
60,122,-114,-448,107,-506
33,-46,-32,1108,553,-270
51,16,78,672,99,-197
48,-30,-17,1065,-286,-355
23,-18,-52,364,630,-145
-3,5,-45,-203,-194,1324
-10,50,-15,753,-622,2733
44,20,-105,2936,1383,2608
110,-100,-32,1705,-710,3514
-42,-77,-53,1661,995,3422
-87,-115,-52,2029,56,3135
-113,-87,91,1550,-1747,3019
-75,-114,101,919,892,2496
-95,80,83,1256,674,2051
48,91,111,47,-79,1457
36,64,70,-958,27,470
-1,-11,93,-93,-163,99
27,-123,34,748,814,-324
15,-103,8,-514,477,-858
44,93,-13,-490,157,-1174
64,12,1,245,161,-1001
93,5,-19,-17,473,-899
83,23,-30,-733,-18,-796
71,16,-34,-917,-338,-484
106,18,-38,-655,147,-337
95,40,-47,-489,-30,-106
68,103,-56,-900,-271,-61
77,95,-51,-343,219,-174
84,126,-48,-111,367,-52
-100,-1,28,2852,3132,-3593
30,107,-30,3699,4333,-4159
19,121,62,4075,3993,-4094
9,16,-117,2331,3563,-5218
21,124,-109,1289,3183,-5311
57,104,-101,-130,2265,-7284
-74,125,110,584,3274,-5340
44,97,103,-616,1538,-3524
39,-66,-121,-1924,334,-1542
-98,-95,-123,644,-28,1006
17,67,124,1278,149,232
-104,-123,-37,1404,-1109,-470
-77,-120,64,3285,-2036,-737
-29,65,-6,4072,-2517,-157
88,-6,-91,3951,-2407,898
-16,-12,-74,1714,-3264,2940
-16,12,84,-1144,-2599,1894
-35,38,-40,-2678,-3464,3379
-109,-61,81,-3610,-5137,4829
113,49,-18,-1914,-5124,3239
-55,-6,14,-950,79,41
91,80,6,4010,-12,-1786
58,119,-46,-994,595,-226
-1,58,52,324,127,-207
0,10,92,785,222,-359
7,8,0,847,240,-586
26,-31,-63,940,-106,-243
32,-16,-57,426,0,591
37,12,-62,0,99,1218
32,45,-30,672,-505,2064
94,45,-36,1981,186,2681
122,-122,10,1201,-797,3295
-85,-90,46,1257,99,3306
-22,-48,19,1413,-43,3266
-104,-63,87,989,-1081,2679
-111,-122,-90,601,-153,2280
123,62,88,1449,804,1892
49,93,115,314,-164,1132
2,28,-124,195,-135,535
4,-41,101,912,342,37
11,-96,83,1121,-98,-485
49,97,41,1036,761,-771
57,71,13,-56,720,-971
47,22,-2,-298,301,-827
100,-20,-4,531,694,-621
125,-18,-46,646,855,-735
80,-14,-7,429,-263,-459
106,-11,4,-339,-49,-283
107,-2,2,-530,8,-129
85,13,-4,-479,-19,110
-30,93,40,2159,1803,-4460
62,102,-122,2041,3270,-5535
113,105,-51,2104,4258,-5581
-73,-123,113,-1453,6261,-7878
-80,91,69,570,6816,-5362
82,-79,118,1575,4345,-6437
55,-116,-68,2187,3052,-4991
104,-100,-20,620,462,-2454
115,-85,16,-642,-973,-622
-91,109,102,1034,-262,798
-47,-88,107,1624,-1036,693
-116,-39,24,1821,-1226,16
-60,-20,-125,2429,-1938,639
-33,8,28,3194,-2305,513
-1,-32,124,3487,-1641,543
-10,8,123,914,-3323,2232
30,-36,30,-855,-2515,2562
-21,-80,-34,-1845,-3723,4342
-106,3,87,-733,-4822,5910
-123,70,-92,-3763,-6143,6442
12,-94,10,253,-424,-639
-4,-41,-2,2284,1732,-1588
109,-67,-29,15,474,-996
8,0,1,504,646,-429
11,0,90,63,93,-376
-14,-36,2,804,-198,-595
37,-23,-43,566,528,-42
5,13,-67,-298,92,501
16,4,-74,282,359,1435
95,38,-70,93,981,3304
35,75,-26,507,-1583,2818
-124,-84,58,1109,-1151,3632
-14,-9,-120,760,-889,2689
-81,-76,-120,2101,-1124,2744
-99,-59,-84,561,-478,2138
-111,108,110,1148,-228,1442
82,61,-117,1249,-719,1570
60,41,92,391,80,1033
18,22,77,333,-142,388
17,-7,47,-237,-105,-452
44,-96,16,-190,427,-791
98,126,2,-234,498,-755
27,104,-12,-272,100,-951
6,32,-35,-83,489,-909
52,26,-31,8,567,-444
63,34,-70,81,462,-442
117,52,-67,-89,314,-213
-100,81,-59,-525,170,102
66,103,-59,-291,-126,259
77,119,-78,241,463,-68
-68,-51,-17,3331,4726,-5724
-25,-121,35,3642,5705,-5898
-66,-12,76,2259,4616,-6708
-21,108,32,229,3841,-7007
-111,8,3,2345,3510,-6419
-63,-102,-127,2536,1215,-2467
39,-48,-36,-1662,239,-1847
-29,21,-2,-489,121,856
20,91,-51,1413,-95,1087
-104,72,31,2361,-2160,-164
-51,118,-20,3322,-2992,-749
-52,-4,126,3631,-3199,-420
51,-91,71,3236,-2420,944
62,-52,57,1003,-2517,2325
-66,43,-30,-1798,-2708,1763
-47,-18,-112,-1929,-3591,3824
-85,82,56,-2530,-3637,4668
104,86,-128,-3042,-4658,2725
69,-1,39,868,1457,-1466
72,124,-7,3631,989,-614
-77,-103,-32,-308,79,-233
-40,57,15,-297,-203,-10
24,14,102,482,-458,-150
-17,-33,-18,537,-1099,438
-14,-58,-58,734,-636,929
-25,7,-63,323,-996,1061
-15,-6,-74,1266,258,2055
-9,127,-30,742,-250,2359
86,96,-77,2453,165,2502
104,-79,-64,1258,-204,3031
-119,-51,-2,1556,-750,2889
-63,117,47,2767,-75,2797
-124,-67,109,634,256,2294
121,101,118,1578,477,2542
57,63,96,1477,858,1391
30,46,100,1030,255,1076
28,-10,79,410,255,212
41,-54,98,-290,-122,-463
23,102,74,-71,336,-567
2,55,18,-320,700,-632
41,57,-8,-603,413,-516
68,31,-26,45,231,-297
71,28,-42,585,570,-397
58,47,-43,80,-19,-582
102,28,-21,-109,238,-494
118,28,-18,-218,165,-316
120,47,-12,-267,-41,-246
-101,55,9,-424,220,-68
65,92,-5,-722,110,-385
53,26,-60,679,633,-691
118,4,39,5212,1586,-2960
33,127,106,3211,2337,-5448
-104,86,-70,2430,2851,-5878
-91,119,7,1717,3240,-6122
-60,97,-55,-2442,3598,-5780
-14,27,-32,-759,4330,-7774
53,-69,17,1832,4333,-5417
100,-98,-116,-349,1989,-2749
-75,-18,-46,-404,751,-1264
-9,-23,-128,252,-83,552
53,43,-106,910,-896,615
-87,-54,-64,669,-1172,-355
-54,-71,76,2328,-1860,647
24,109,-55,2454,-2677,131
5,-122,117,1907,-2811,-51
24,29,29,2920,-2339,-289
82,69,-58,2093,-2716,1301
17,78,-48,1720,-2816,1763
12,15,3,-766,-2874,2130
-17,-116,125,-1716,-2912,2182
71,-110,117,-1427,-3660,5501
-4,98,81,-5002,-4178,3056
122,-90,56,834,299,-959
-120,-59,-16,3006,963,-1739
38,-63,-48,-336,1230,-914
-28,2,-53,822,1006,-367
-10,-6,42,241,262,-75
-27,-84,-20,358,156,713
-6,-57,-94,-136,-424,1318
33,-33,-98,618,-31,1692
45,41,-51,865,-625,2272
74,59,-58,1787,-628,2507
-67,100,-41,3481,-639,3323
-92,115,-38,1556,95,2521
-110,-126,-16,72,-323,2982
-77,79,33,995,-639,2459
-126,98,88,524,-36,2458
114,63,78,1057,101,1764
81,45,56,912,178,1265
44,2,67,456,100,729
6,-56,52,748,236,426
-14,-67,72,667,97,182
-10,-87,41,62,482,-331
18,121,23,215,549,-723
38,80,-5,240,537,-856
53,22,-18,952,405,-537
49,15,-14,822,166,-634
62,67,-24,-1229,255,-1045
89,-5,-47,-930,254,-1067
80,-10,-37,-428,-137,-756
70,9,45,5416,3199,-2447
-24,-46,-93,3206,2960,-5638
-34,-70,49,3758,4730,-6434
-127,-39,-4,3056,5050,-7309
-81,-63,-39,1707,2212,-5874
-74,38,-44,1052,3197,-7241
79,-38,-57,613,3100,-6177
63,64,-42,197,1811,-3987
106,-108,50,-369,-616,-438
-60,112,44,13,63,628
121,5,-100,429,-395,1083
0,52,-114,1236,-211,491
-88,69,9,2345,-731,-120
-64,21,65,2805,-1770,73
1,-28,-37,3120,-2241,-71
62,108,-100,3024,-2739,1179
40,-101,-70,978,-2323,1917
-81,-73,19,-1810,-2500,2323
-44,-77,-86,-6256,-3238,137
119,58,67,-1584,-5879,3579
-111,-69,52,218,-8916,6262
4,-67,3,-1392,-2085,334
-57,-22,18,4079,2583,-2069
1,-40,-18,25,-323,-726
-23,7,-62,887,750,45
-32,51,-67,167,634,-113
-7,-27,49,584,-241,175
2,-18,-25,302,-1181,509
24,-71,-68,1062,-991,608
3,-8,-45,239,-950,1809
52,-9,-86,572,-683,1961
86,109,-43,601,-944,2460
83,119,8,1877,-848,2689
-92,107,-4,2836,49,2461
-73,-75,7,1652,-80,2653
-108,-90,18,1112,143,2482
-123,-126,21,1235,-278,1976
65,-120,92,61,-615,1928
48,76,121,995,233,1170
21,55,80,1052,626,603
1,36,49,554,254,26
-11,-31,46,458,245,-329
-13,-118,14,523,539,-399
0,-93,-12,-1016,235,-764
9,-111,-25,-1453,-168,-899
56,75,-31,-559,143,-1151
75,57,-34,-48,367,-1122
82,36,-53,73,453,-988
81,27,-60,103,246,-634
56,22,-51,75,4,-372
-43,-106,54,3959,2168,-5044
95,-82,-125,2243,3443,-6357
-48,-62,22,4149,4211,-6958
-84,114,-105,2030,3476,-7501
-103,-76,115,244,1241,-7441
-65,122,32,1100,2352,-6173
42,29,-85,424,1547,-4510
-49,74,-59,-1924,510,-2732
-39,99,64,-1512,403,29
-62,-48,77,-707,452,370
-56,110,-79,279,-353,397
-105,42,-17,1799,-788,-112
-69,32,70,2110,-2295,-277
-31,21,44,3412,-2124,-768
-16,-67,127,3687,-3108,934
-85,-100,124,2385,-2666,1692
-81,-6,-24,-1239,-3490,2216
6,32,-111,-2597,-2051,1818
72,101,-18,-813,-4575,4506
-76,89,-71,-2600,-7166,5688
51,-49,-48,-1052,-3243,4949
-126,22,14,2172,1110,-4489
108,72,-17,2827,364,-1684
-29,44,-82,-721,299,583
-9,65,4,456,-70,-465
29,17,82,928,-48,-667
12,-76,-70,822,243,-350
-17,-18,-47,-340,-269,151
-5,-111,110,213,182,616
-4,29,-80,-690,-1462,2463
-9,-47,-110,2793,-34,2766
126,90,-49,2761,-307,3411
0,-108,-111,2293,557,3557
-19,-115,-63,1821,-46,3841
-8,-124,49,1369,-782,3732
-22,-102,42,912,-244,3116
-104,-67,98,724,-629,2249
14,122,111,1512,-459,377
-4,29,92,1604,472,-705
-33,-77,66,1293,988,-964
-24,126,30,876,1067,-1151
-6,80,25,399,468,-1285
38,26,30,-420,250,-1221
61,-32,29,-198,188,-863
41,-52,41,-110,4,-324
59,-37,11,-260,368,-531
93,-31,2,-327,148,-402
85,-14,-17,-292,-73,-177
82,3,-14,-455,61,-160
73,45,-20,-876,61,-17
40,83,100,5099,4341,-4502
-99,-94,6,4625,1993,-6865
-16,2,98,2846,5130,-7712
-58,45,-58,1971,6680,-7389
86,-100,20,1920,2645,-6436
-30,-64,-79,1173,3277,-4870
97,-46,-32,759,2203,-2858
8,-3,-85,-1298,925,-1842
116,-114,2,180,115,993
-30,104,80,1425,-411,1094
10,-9,-61,2824,-2491,1057
77,1,-45,3542,-2563,343
108,-119,100,3015,-3130,2594
-29,-47,111,2070,-3116,3189
-67,-27,-93,169,-2343,1497
-44,-101,-6,-5256,-3342,-796
127,-103,-100,-7545,-6472,-1510
36,-116,-97,-5665,-9467,3978
70,64,1,2932,-3060,3449
42,-1,13,3887,2751,-2704
21,60,-52,1470,-600,-226
-59,105,75,-677,-632,-5
-2,22,-30,1598,120,-411
28,13,88,1726,421,-142
5,86,-30,-249,-927,312
-3,-11,-34,622,-346,615
5,65,-14,126,-811,1587
15,12,-52,1261,-679,2304
11,112,3,1285,-323,2943
98,126,-61,2302,-248,2984
-67,-37,-101,1622,277,3182
-112,-12,30,2408,-1384,2824
-76,125,76,2108,1042,3182
-123,-100,124,761,-16,3380
-108,-73,119,595,186,2314
60,-67,-101,772,-433,1233
29,93,104,937,398,-71
-30,-44,67,908,518,-775
-11,-115,32,41,596,-861
16,105,10,-342,444,-810
60,48,-25,-169,501,-840
82,44,-33,-565,292,-1013
98,-1,-42,186,228,-722
77,14,-29,-201,-147,-558
90,17,-30,-362,40,-406
82,40,-33,-651,50,-187
83,20,-26,124,25,-120
86,81,-44,-424,250,-11
80,91,-40,-412,80,-19
91,94,-50,-40,282,140
123,45,36,3063,2817,-2889
-103,92,-43,3672,5015,-5239
-58,67,98,3810,5646,-5977
-91,-28,-47,1749,4263,-5865
108,110,85,581,5459,-6210
31,41,67,2052,5388,-4280
8,-58,-126,360,3246,-3626
-94,-6,30,-559,1249,-1472
-36,37,100,-396,-94,-64
-35,99,111,739,-293,100
-12,89,54,1881,-878,-15
-40,-79,-91,2691,-2197,378
68,-17,-17,3456,-2654,-503
-86,-123,92,3463,-3581,487
38,61,78,2903,-3324,1719
33,-71,119,131,-4194,1727
-29,-115,66,-2459,-4819,186
9,55,10,-2625,-5806,4115
-44,62,-91,-3422,-4903,5369
-12,47,6,-2178,-1871,-1865
29,36,18,5169,2024,-1465
-55,78,-73,693,465,-467
-74,105,36,-1127,-381,-13
-37,91,-75,-6,-228,-455
-17,-21,46,854,142,-131
-26,-5,8,582,-568,366
-34,-63,-36,947,-289,835
-17,13,-51,570,-599,1518
30,90,-23,518,-1109,2387
20,90,-35,1888,-530,2636
-112,-51,0,1184,-1058,3161
-61,-76,-19,1930,-84,2872
-127,-27,76,455,-1228,2870
-90,-82,-124,693,-1128,2727
-80,103,110,2297,-185,2638
89,-118,-121,817,-168,2049
71,-105,119,390,-166,1410
31,117,84,642,54,358
-17,33,75,401,227,-489
5,-64,41,263,510,-638
6,-84,0,-376,413,-823
43,95,-27,-69,517,-892
57,59,-41,347,618,-826
64,43,-59,334,542,-820
64,43,-40,-108,180,-352
72,39,-48,-189,305,-174
72,60,-33,14,250,-14
94,77,-57,110,669,-143
92,114,-43,-214,149,22
121,104,-65,-90,495,-82
-57,-87,67,2788,3339,-4308
-85,-64,-20,3826,5560,-5789
-126,8,-66,3330,5795,-5045
102,41,27,3939,4961,-5476
41,-86,1,850,2999,-6252
-96,-14,-90,844,4975,-7265
-20,-74,34,1245,3337,-5124
-104,96,56,-1360,672,-3628
-5,-127,123,-1378,-146,-100
37,-88,49,407,-62,1335
29,51,53,364,-1089,899
-43,113,29,1497,-900,-419
-90,107,-34,2716,-1265,202
35,78,61,3823,-1209,-118
106,74,-73,3235,-2513,807
-12,29,-61,2933,-2022,1450
-113,61,77,-552,-2627,1417
83,-1,-3,-1487,-3124,2691
28,44,-124,-2848,-4716,3798
-124,-125,43,-1444,-6054,5906
-20,127,59,-2926,-6876,5498
48,125,49,1267,3030,-3469
87,-105,-11,3390,1260,-1986
31,-117,-88,394,293,-1068
32,-1,-63,1761,466,-141
47,28,49,922,202,-750
78,-73,-28,639,-287,222
-52,-8,-57,-1364,-929,979
-52,-13,18,-85,-591,2508
24,-5,-38,1285,96,2780
42,119,-1,590,-211,3439
107,-77,9,1419,-708,3735
-46,-78,-5,1899,262,3179
-106,14,24,780,-612,3068
108,22,-124,-720,-535,2404
124,-75,-118,1321,-154,1768
48,56,-88,1632,1067,1384
26,73,-127,585,293,1253
15,19,112,216,-131,767
25,2,92,-224,-255,329
27,-53,62,127,-176,-132
24,-117,30,-79,275,-695
49,104,1,-290,505,-710
56,80,-11,-100,193,-472
67,65,-8,-32,318,-439
85,58,-29,-34,536,-316
79,83,-30,-336,-25,-267
97,81,-31,-155,261,-193
94,98,-35,-238,228,-170
98,109,-47,-305,79,-233
-76,94,67,3178,3332,-3415
-115,-35,-30,3737,5869,-5475
79,-18,-74,3785,2989,-4828
127,-124,-51,2084,4510,-6255
106,-120,6,1818,4253,-6506
-122,127,-85,1580,3962,-6503
70,56,114,1452,3392,-5224
-90,86,-72,-693,1806,-3744
-81,120,-95,-2487,275,-726
-26,-112,67,745,591,1891
13,-106,-17,409,-574,88
-82,-82,-27,1804,-1078,-157
-5,103,-49,2845,-796,-317
65,31,21,4021,-1520,704
101,15,85,3933,-1439,685
-51,13,71,1405,-2213,1350
111,26,-127,595,-1769,2793
75,-92,26,-3351,-4581,2253
-23,77,60,-2554,-7086,4334
-104,52,70,-2327,-16156,12762
15,76,-9,-2192,2926,-2223
12,37,-5,6834,3090,-5687
-53,29,-55,-119,-1007,-135
-36,82,115,-1413,777,-729
7,33,-14,764,446,-599
21,-2,18,583,362,-529
17,-90,-65,923,-513,-486
20,-63,-100,-72,-459,367
-25,-46,-83,-271,-497,1721
-37,11,-43,973,-664,2633
69,110,-39,2072,-613,3205
56,-93,-13,1893,35,3679
-62,36,59,218,-377,4013
2,-86,-11,2722,864,3672
-84,35,72,1683,-1349,3368
-76,39,-17,-408,-939,2122
125,-120,107,1811,1390,1643
5,-99,-118,1604,-195,1003
-28,75,111,1036,11,366
-19,-25,77,736,423,-258
14,-97,65,939,252,-528
58,126,21,-479,559,-1349
38,25,38,289,137,-936
64,6,17,-323,332,-935
73,-25,18,-397,117,-396
85,-12,-1,-485,167,-398
82,8,-4,-297,76,-182
93,12,-22,-90,439,-131
97,38,-33,-97,54,-27
93,55,-37,-204,241,62
-24,118,42,2079,3502,-4299
28,85,-83,3352,3939,-4504
88,-114,6,3301,4995,-5689
23,-18,-111,2131,3741,-5515
42,65,111,543,3694,-5697
14,56,75,966,3687,-4877
-68,120,-18,628,2607,-4445
118,-117,59,580,1390,-2042
-31,49,-24,-1459,740,-1578
-5,-85,-111,-747,111,448
-115,10,-128,379,21,760
33,84,69,615,-440,143
-56,-95,-54,1836,-1715,-228
-20,-98,-123,2398,-1582,-438
61,-104,1,3005,-2351,-158
-77,-125,-78,2526,-3264,1850
-46,-68,-93,1215,-4156,1165
-72,-44,73,-2278,-4625,848
-127,-94,119,-3553,-4747,485
-64,-1,-13,-636,-5426,3421
-29,101,49,-1713,-5198,5294
-28,40,9,223,-1365,-627
33,127,12,2298,2424,-2194
10,53,-53,748,-28,-590
-19,20,84,-197,519,118
-8,75,-39,-192,323,-40
-4,-8,104,668,257,8
-20,13,26,270,428,-220
-26,-55,11,1213,83,197
-9,53,3,-494,-113,991
28,-6,1,1380,251,1370
42,111,-37,312,-267,1897
99,74,-39,1925,-178,2088
-107,-124,-21,1561,-408,2268
-82,91,-70,2405,-90,2422
-103,115,0,1260,150,2578
-87,97,-22,1223,-40,2328
-112,109,38,841,-492,2503
-118,49,104,1074,369,2159
-116,50,86,1135,443,1894
43,93,-54,756,-396,1251
35,61,-74,421,-5,115
21,-6,-112,792,-56,-815
13,121,99,478,121,-760
31,58,57,-444,712,-511
41,28,13,-329,350,-287
54,23,0,-147,214,-332
81,41,-21,-403,520,-442
87,36,-22,-242,26,-427
93,46,-27,-458,-11,-285
-69,-119,46,2080,2835,-4220
99,-116,-65,2228,5081,-5150
90,-95,117,3157,4312,-4709
80,19,-87,2753,5402,-5684
30,104,-59,2039,4628,-4769
55,-2,-82,2033,4331,-6141
14,21,95,2509,3528,-5638
-125,-3,-39,1062,1296,-3741
58,-46,88,-852,504,-1822
106,105,-96,-361,-463,694
-123,-56,66,272,19,522
-5,-19,-45,1613,-1316,1309
58,-13,-128,2178,-1751,916
94,-14,31,2444,-3026,1594
-82,-105,-102,2769,-3447,1212
-6,23,-72,1222,-3250,2264
101,-68,-44,205,-2717,1621
-15,-36,99,-963,-3935,2433
118,-35,-24,-2299,-3853,2055
-89,-62,-76,-3687,-4547,830
-79,-32,-75,281,-3929,3230
-50,80,-24,998,-125,-1191
26,112,12,1637,387,-632
-30,110,-62,429,655,28
-85,116,39,47,119,164
-23,20,-115,19,389,163
-11,29,54,89,-115,91
7,-35,-20,412,65,294
18,-74,-37,901,129,773
42,-64,-62,1133,-48,1401
98,72,-76,-646,-400,2965
54,-127,-21,733,-794,2636
125,-52,42,866,-795,3207
-85,-29,-42,933,155,2323
123,-46,91,1636,-1123,2221
-65,90,-39,3364,1108,2360
90,-30,113,521,-678,2252
47,125,127,705,618,1396
45,73,-118,1289,391,1443
19,34,122,916,460,914
-1,-8,115,361,79,479
22,-54,93,73,470,-55
28,-122,77,166,380,-343
45,93,60,105,381,-488
63,82,39,-425,323,-497
82,42,30,-247,-11,-389
106,43,12,-317,352,-514
113,44,-3,-305,216,-462
107,26,-10,-137,302,-357
123,41,-34,-292,307,-394
-18,-109,-66,1050,3207,-3871
5,-97,18,2065,3751,-4372
30,-31,92,2210,3921,-4449
35,32,-117,1914,4015,-4425
9,101,-101,991,3592,-4712
-31,54,113,238,3443,-4127
-92,58,42,497,3763,-3863
-44,51,-29,487,916,-3002
-97,4,90,1444,1455,-1705
99,122,-89,51,842,-1062
-67,-109,-1,223,-662,128
-51,90,37,1150,-430,3
-101,-102,-5,1887,-1819,727
1,-38,-85,1790,-2123,216
108,-35,93,2228,-2249,881
-75,36,91,2429,-2308,881
-69,53,54,1191,-2561,2016
40,54,-112,-232,-2955,1235
-92,21,-87,-333,-3401,3180
25,95,-29,-2052,-2858,2378
-92,-103,-87,-1046,-2797,2855
-101,-111,-108,-2348,-1655,1521
125,10,-99,-635,-4178,2791
-71,-41,30,-486,-4177,2799
120,55,-34,-4881,-3394,1205
-2,-114,68,2241,106,-144
-93,-21,5,1046,1858,-984
25,-116,-27,-347,592,-334
69,42,-16,701,1240,-562
103,57,-124,1079,429,-967
97,-4,35,1222,-111,-836
80,-86,-34,1150,317,-39
50,0,-72,-753,261,-138
-4,-27,-101,880,-318,772
29,41,-102,871,159,1076
3,96,15,860,108,1525
53,40,-42,2262,556,2313
121,125,61,1478,-113,2917
-122,107,23,1181,57,2730
-122,116,114,910,-544,2600
-79,88,124,1475,-176,1926
-121,104,-91,1090,424,1016
35,11,-119,1505,347,590
-2,-21,111,502,359,419
-5,-89,95,361,246,145
59,-38,48,-1179,259,-297
86,-83,31,-892,-91,-1015
118,71,17,334,351,-689
99,75,3,-200,-102,-594
115,62,-7,-340,184,-620
-24,-104,93,4891,2782,-4697
-9,75,-104,2466,6723,-6369
-90,31,30,4567,4468,-5177
5,125,-75,1127,3520,-7401
54,2,92,2902,3295,-6177
-104,-3,-20,2450,2219,-5951
124,91,-106,610,866,-2953
-90,98,-76,-277,-51,-1343
-127,9,-18,178,-1481,702
33,41,-5,2150,-682,938
-28,-73,-92,2060,-1655,630
-67,-70,-16,3507,-1234,681
-14,-51,-91,2859,-2109,1240
-71,4,-92,-2111,-2378,152
86,-15,41,-31,-1938,4116
1,-74,-28,-3437,-4067,3766
124,120,52,-4139,-4927,3872
57,108,46,934,766,-1765
32,10,42,2556,1777,-1474
-119,75,83,-1291,-1154,153
-45,-8,-4,451,-537,438
-13,-24,122,183,-196,542
-19,-25,11,755,-243,768
0,-12,-19,353,-752,1113
-14,26,-23,-442,-529,1086
3,56,-18,-290,30,1607
49,58,-14,965,-422,2527
55,77,-24,1134,-26,2884
-101,77,-76,1188,-873,3443
-32,23,84,-928,-2290,3782
8,108,62,2519,311,3225
-31,-9,-100,1119,-1209,3337
-5,-117,79,1602,659,2871
103,-107,-113,1406,-562,2518
79,-85,-111,135,21,971
42,73,-124,1458,568,361
-13,19,86,272,576,-285
3,-25,47,-1991,-68,-1070
-2,96,47,-520,-214,-270
72,90,7,-141,358,-579
85,70,-8,-45,296,-814
84,93,-33,-883,163,-812
78,49,-48,-287,-124,-587
78,83,-56,-421,209,-465
86,80,-61,-97,212,-432
90,90,-51,-48,-35,-256
87,113,-47,-174,113,-121
102,123,-43,-233,88,-249
102,-122,-51,-229,235,-167
102,110,-49,465,404,102
-100,-81,110,2442,3046,-3978
-97,-94,0,323,6811,-5170
96,102,-34,5720,4764,-4414
-123,48,-23,2743,4542,-5625
126,-25,-17,2100,3264,-6890
-114,-24,-109,93,3054,-6504
-128,125,-65,276,1115,-5759
-13,67,5,328,2084,-1313
-115,-54,109,-411,1008,829
89,-7,72,701,-202,1621
51,108,46,1600,325,1284
35,3,8,1580,-613,-795
94,-100,-61,2845,-436,225
-124,-111,89,3602,-881,-175
-93,72,74,2981,-642,-181
-30,-13,-73,1360,92,779
-72,-66,-46,-1151,-1279,1747
-57,-21,11,-1892,-3587,3849
22,72,-83,-4923,-7300,2977
-85,56,-91,-1014,-10434,8624
-125,28,31,-4535,-1413,-665
126,-32,4,3866,2420,-540
-91,-60,-80,709,87,-1025
-78,29,32,389,9,-98
-33,-17,107,522,-312,-98
2,23,51,12,-772,166
39,-40,-1,751,-12,-179
21,12,0,184,-656,886
-51,18,-41,-390,-639,1696
-18,69,58,921,-938,2574
94,112,-14,1659,-16,3012
75,-89,11,1294,-321,3654
-124,-44,-19,407,-653,3273
124,-58,58,876,-1164,3462
-111,-82,109,1697,-117,3138
-96,-49,103,908,-149,2608
98,-39,102,-221,-141,1721
47,123,112,977,-75,1098
29,55,69,1307,435,383
17,26,43,264,123,-364
27,-68,32,618,105,-764
28,115,7,-36,157,-1112
20,60,27,19,156,-707
8,31,4,-50,461,-436
71,55,-20,-313,390,-235
118,70,-36,-328,351,-189
91,88,-50,-527,-72,-330
76,86,-48,-538,-35,-340
98,88,-47,-514,140,-185
84,97,-53,-180,50,-22
36,-62,-39,2387,4309,-4624
57,5,38,1981,4051,-5524
-114,38,79,1586,4280,-5731
-55,-126,101,58,4179,-6142
-48,-38,56,-503,4343,-6816
24,109,9,3177,3929,-5738
56,-43,-61,806,-918,-2726
-28,40,70,-712,-640,-233
-118,16,-107,-179,80,839
-4,-62,94,1584,-151,957
-85,-8,-60,1137,-1246,-282
-78,-58,-110,2416,-2362,793
-61,-86,13,3338,-2487,-1139
-81,-5,-52,2608,-2177,475
-115,-34,-62,358,-2412,1228
-95,-67,83,-918,-3203,3568
-86,-25,-33,-1217,-4161,3941
48,104,0,-307,-5392,7250
-3,104,50,-3407,-1911,776
-6,76,19,1538,1741,-2077
17,59,-4,1533,584,-973
-25,48,124,-355,285,-55
41,-56,-28,757,1689,-52
42,-10,23,1032,823,-4
74,-99,-43,1552,348,542
68,-97,-84,815,-537,1748
28,-51,-121,280,-318,2500
74,105,-66,-456,-722,3336
-128,-106,-16,431,-636,2849
-126,-106,18,2103,-112,3499
-8,-83,-38,1869,1017,2962
-96,16,-27,272,-1152,2963
-128,-7,110,1184,-230,1866
121,-69,-52,1783,-64,1714
19,-117,6,1135,932,923
7,59,-71,1059,728,552
9,-34,-121,587,514,150
44,-73,95,-118,134,109
36,-115,62,-437,-313,-41
53,80,47,-315,-104,-520
118,28,37,404,588,-603
95,2,17,348,113,-266
70,31,4,-730,-28,-237
83,33,2,-587,208,-85
95,29,-8,56,169,-109
-126,66,-10,-120,533,-152
125,68,-17,233,532,-258
114,84,-28,-138,34,19
121,93,-21,-578,-259,48
122,82,-24,-210,-1,-21
-10,-108,-57,3396,4219,-5412
-91,-74,0,3664,5153,-4595
-95,69,-109,2484,3309,-5983
23,-34,-93,1468,4117,-7317
-14,-86,-83,1234,4201,-7009
-68,46,77,2224,4691,-6470
-42,-99,-50,5763,989,-4214
82,2,-128,-1634,-1413,-804
-106,-62,50,-918,-188,521
97,-104,-99,-266,-510,863
17,-51,68,1025,-645,811
-87,-34,-98,2037,-1761,459
-57,-51,77,3206,-1804,417
-34,122,-106,3569,-2304,1118
54,-114,-118,2221,-2045,1171
31,-13,14,-1660,-2120,600
36,9,-92,-819,-2501,4041
29,-39,66,-5356,-3892,3900
68,19,-81,-5993,-3438,5717
-106,73,127,-22,-2331,387
105,14,17,3113,1242,-1282
11,-68,-49,-262,670,-1435
-25,-100,-40,1018,28,368
-15,12,64,-26,-1223,247
27,-32,-4,556,-894,310
-27,-45,72,961,-1018,1475
36,-11,-46,244,627,1313
-8,99,0,170,-972,2292
87,-107,17,947,-1051,2410
-123,-81,7,1153,-1053,2675
-91,-96,40,1651,-441,2833
-74,-92,-23,1471,-993,2226
-95,-115,64,1293,-222,2215
102,126,74,375,-257,2224
126,113,115,1476,-286,1861
106,65,91,1583,1121,1266
34,42,-125,546,-125,1041
47,-52,73,1038,460,890
32,-51,43,440,312,800
4,-71,17,434,98,609
7,-99,10,522,245,82
56,127,15,267,245,-161
62,108,6,-404,270,-779
58,73,0,-380,-26,-927
63,36,9,-180,105,-937
68,18,14,250,636,-1087
83,28,-17,-211,443,-746
-113,10,-25,-311,193,-242
-119,22,-52,-231,81,-161
106,35,-64,-366,164,-264
-30,44,-119,3998,1344,-5084
98,89,-34,1208,4926,-6574
76,64,20,2183,4522,-6454
-95,-58,-36,1029,3729,-8347
-46,46,-117,65,2380,-8470
120,125,123,-248,1975,-4675
63,-109,-85,-533,-637,-1107
56,87,-63,174,-416,-610
-87,110,-127,1385,-1591,268
-110,-58,-25,2396,-1877,84
-88,-28,-94,3017,-1094,-174
-61,-70,32,1570,-2256,701
95,-82,101,2077,-1494,2572
-4,9,-109,-1175,-2354,2293
19,36,42,-1651,-1864,3762
6,95,116,-1269,-3991,4265
-31,58,122,-3906,-3330,5309
75,-5,54,-72,-658,-966
114,-39,11,1713,620,-1495
29,67,-43,1086,306,-348
14,-15,-50,212,475,273
80,-37,29,770,-18,87
90,100,-79,2349,229,1021
62,-82,-124,-51,-1202,1899
98,50,-68,-501,-1040,2231
-112,105,-43,1183,-122,2337
-112,-114,-36,1949,-54,2062
-19,-117,-49,2604,568,2047
-74,-71,-2,70,-26,3043
100,-109,58,272,-499,3100
-89,-122,59,1019,204,2709
89,-81,96,-264,328,2134
95,107,43,835,943,1348
32,58,83,911,262,1173
24,30,49,-449,206,612
18,-29,44,-231,2,89
37,-79,26,-228,38,-16
55,102,12,38,568,-564
54,90,-23,-88,339,-868
65,53,-14,-13,-53,-754
94,24,-36,-102,411,-690
-119,51,-42,-145,179,-578
125,40,-46,-83,29,-371
127,38,-43,16,169,-493
104,63,-41,-277,-68,-280
100,63,-43,-485,130,-67
124,80,-40,-296,277,118
116,92,-54,193,409,195
106,-125,-76,-109,283,79
98,-119,-81,-270,174,-113
105,-106,50,3835,2321,-3302
48,62,-63,4003,3705,-6062
-85,118,-62,3695,4907,-6085
88,118,3,3417,3801,-6181
106,-40,-10,1025,2727,-6948
-48,71,120,239,2960,-7914
-96,87,28,676,2954,-5341
2,39,104,-296,1848,-2737
-38,91,80,-1365,-377,-83
10,-126,11,-198,-947,1586
32,82,-32,1396,-975,665
116,-125,-96,2302,-1609,-221
-53,52,70,3390,-1597,634
-112,25,-33,2651,-2366,668
9,34,-35,1286,-3282,2157
-88,94,75,310,-2453,1954
69,-55,4,-2816,-3799,1269
-44,-100,-68,-2939,-4870,2530
-70,-65,37,-2478,-5904,4142
92,20,59,-2567,-4187,2495
57,96,27,-399,899,-2894
62,112,-1,4219,604,-2383
-7,70,-44,465,1006,-512
-24,38,-1,666,-235,871
-23,65,105,535,-1549,842
23,-37,-80,1224,-368,-181
-9,5,-42,875,84,796
-53,-7,-35,1060,-203,1416
15,2,-70,2094,448,2102
36,86,-47,2054,-189,3277
72,57,0,1963,1284,2281
-36,-64,-5,1967,1915,3134
-121,26,74,407,-563,3649
94,13,125,-261,-799,2651
86,-93,-78,545,-236,1896
46,114,-120,-249,17,1542
42,73,113,-249,-487,1611
24,39,58,-131,283,-182
29,-15,34,163,562,-791
-28,99,-3,731,626,-853
54,92,-16,64,562,-572
74,57,-12,390,120,-406
97,29,-26,568,527,-619
-78,40,-15,-147,961,-346
99,68,26,-552,-629,482
71,119,-6,-770,-454,216
122,117,-16,-135,139,-214
97,118,-31,-295,113,-418
77,91,-32,-25,109,-218
113,116,-38,-267,413,-189
-26,123,-127,2830,2889,-4054
101,-109,-15,3918,3965,-5172
-117,7,8,2196,5038,-6394
-98,-102,-12,2068,5076,-6846
-113,-117,114,2286,5403,-8709
89,76,9,4122,4636,-5809
-117,-41,-49,-420,-534,-4227
59,-74,39,-1644,-431,-1700
116,9,64,388,174,1216
-122,-22,-56,1125,-808,1062
-28,65,-78,2246,-1479,519
-86,29,-101,2870,-1265,827
8,100,-20,4440,-2632,2601
-93,71,70,1543,-3047,1179
-91,108,-4,-1876,-3767,3044
112,33,-36,-3218,-3749,3212
98,-128,74,-3557,-4295,4128
-91,-85,-7,-1595,-7331,6558
11,-17,83,-1702,-96,232
-65,-80,11,1326,661,-3501
57,-15,-4,1644,21,-652
20,98,98,-67,359,-224
36,6,75,1255,1238,-876
7,5,-60,493,-1601,-197
20,-34,-74,643,-1361,496
28,85,-1,-162,-583,850
-8,45,-51,604,-160,1355
-16,-114,47,887,-746,2419
47,77,22,3313,274,2565
83,-81,-7,2114,545,3086
114,-24,60,87,-157,3085
-84,87,15,2384,610,3203
119,-97,60,989,-439,2833
121,-104,-103,406,-199,2676
-124,-115,102,1188,1181,1391
42,85,100,1251,63,1104
1,33,43,-169,132,339
8,-35,37,-321,-91,130
36,-89,14,-234,452,-384
34,89,-22,270,516,-785
44,54,-14,58,335,-823
56,15,-34,-6,299,-677
71,0,-21,634,99,-278
127,-8,-15,589,356,-220
122,61,-37,-1005,171,-510
76,33,-28,-522,-461,-235
90,37,-26,-467,71,-227
104,70,-30,-557,137,21
101,97,-49,-365,150,-115
80,95,-62,-59,117,-232
25,-62,97,2840,2672,-4466
90,-62,-107,2227,3965,-5934
-127,-50,32,2328,5131,-5714
115,-36,117,2527,4891,-5891
51,110,-109,646,3908,-6439
-28,-105,-110,138,4325,-5708
111,-63,4,-952,617,-5057
-120,-123,2,1398,2264,-1234
-112,84,66,-1152,446,-1339
15,-32,84,-353,-403,-16
120,-2,74,1110,-201,303
-54,8,-30,2741,-745,522
-73,86,-88,2284,-1557,268
4,14,42,3611,-1371,295
-20,112,65,1442,-3486,2476
58,99,44,-461,-2424,-627
-51,114,122,-114,-4626,3468
109,-65,-12,-2611,-2763,774
110,49,-68,231,-4304,3942
93,1,-90,-3368,-5062,4136
73,55,-44,-441,-3532,2272
-24,-48,13,2926,1652,-1497
51,-36,-57,-839,242,-1113
43,9,97,801,673,-684
56,-15,68,185,426,-497
-8,4,-8,-121,-653,-303
19,-46,-16,710,701,-313
0,-42,1,849,552,1053
-3,-5,-40,1205,190,1968
6,50,-44,1239,697,2707
79,87,-47,2016,-316,2822
110,100,-60,1650,431,3533
100,-75,-26,432,-433,3209
-123,-127,16,1047,-370,3266
-101,-78,61,568,-524,2842
-66,127,-119,842,105,2426
-110,110,-107,564,84,1666
81,60,-96,268,41,1092
24,13,122,-107,60,531
-5,-26,94,88,-93,-52
5,-79,46,-189,220,-471
71,113,-8,-318,497,-888
54,35,-25,389,314,-710
48,20,-39,1,244,-431
76,53,-49,-839,65,-129
83,44,-35,-201,44,-209
39,84,-24,-215,-22,-108
65,72,-16,96,180,-135
74,68,-6,610,299,10
-123,88,-47,126,737,-111
48,112,33,3465,1950,-2857
-85,-35,-102,2698,2491,-4717
-109,-25,1,2086,4180,-5775
-97,-68,50,3284,4434,-5842
-107,94,54,758,4684,-6652
-81,-116,-124,413,7477,-7540
-21,-98,-21,2808,4021,-4829
117,-127,-24,1337,715,-3806
55,28,-127,-462,70,-1597
-101,110,7,-1077,94,231
-45,-64,106,96,-53,1578
37,97,-62,2106,-703,971
-37,-115,63,2481,-2099,59
-41,-107,-15,2715,-2477,-389
-115,73,20,3466,-2786,1235
89,-42,-16,505,-3611,761
-89,-108,-43,-1952,-3010,1485
41,-72,81,-718,-3462,4870
32,-51,-86,-3672,-4581,2344
61,-116,-52,-4008,-5240,3719
101,32,118,659,-607,2010
89,2,-61,753,-676,-3030
7,-115,4,1441,-15,-126
-11,-47,-37,149,480,269
35,60,-108,-103,-98,-142
55,14,56,602,-291,378
49,-34,-58,848,-391,395
6,10,-86,130,-779,1205
-14,63,-71,-143,-399,1867
4,69,-21,2021,-538,2897
85,-72,-51,1689,-1017,2864
111,-8,63,1077,-873,3171
-72,-66,0,1620,-372,2076
121,-95,64,983,-908,2447
-67,89,60,964,-142,1987
-37,42,-77,1878,-72,2704
-89,56,100,1775,663,1711
23,105,116,740,-586,679
21,20,81,253,2,-337
8,-53,57,76,73,-465
19,-109,17,-215,145,-850
6,-126,-2,-1086,-273,-968
37,77,-9,-759,-170,-738
71,60,-40,-778,-20,-702
108,63,-42,-407,74,-557
63,61,-61,-162,80,-396
49,65,-77,-36,318,-426
66,69,-78,60,397,-119
74,75,-99,370,485,149
94,103,-93,280,412,255
95,56,9,2575,1611,-3856
-11,119,89,1844,2660,-5112
115,105,-53,2452,4601,-5604
99,-75,44,2489,5351,-5758
38,-11,-102,1728,3998,-5223
-23,63,-119,2680,1139,-5457
-11,-128,6,752,2530,-5147
109,-77,-125,2087,1880,-2289
-4,-24,-53,254,22,-573
63,-85,-10,-586,-1193,61
75,58,1,761,-1437,-598
-49,74,-47,2349,-1363,-702
-10,105,98,2988,-2014,-454
85,10,25,3533,-2129,-35
-113,-70,-23,1997,-2134,810
-51,-6,48,-17,-2689,920
123,-52,-45,-879,-2788,3169
80,-8,76,-2308,-3312,3597
10,102,127,-2730,-3786,4543
-52,16,107,-4726,-3435,4356
57,122,-45,-1446,-2258,734
-109,-37,31,3012,1131,-673
53,-25,-16,508,760,-1096
33,49,69,875,575,-281
19,1,60,463,-129,178
58,35,-18,299,-822,213
7,4,-34,-124,-975,697
31,2,-42,906,-521,1338
46,59,-13,823,-474,1976
114,-123,-24,669,-65,2263
92,-125,-13,2192,-484,2408
-70,-99,-51,1736,-139,2831
-97,-25,6,384,-556,3071
-126,-73,65,809,-602,2466
-57,-93,63,1142,-71,2130
102,83,123,1059,-271,2052
91,39,104,1124,323,1474
53,45,92,340,22,1149
37,-20,89,869,73,603
39,-50,57,400,187,-74
17,-105,35,-3,-25,-513
44,89,27,363,532,-752
63,71,-5,31,489,-899
63,45,-17,-250,134,-883
108,27,-27,-155,249,-836
115,10,-55,-204,364,-786
99,21,-53,-509,-199,-473
99,11,-44,-254,-118,-61
89,41,-45,-385,-8,127
89,85,-61,-512,65,158
-70,-114,77,2326,2233,-4035
16,-123,-82,2358,3044,-5004
106,-63,-25,1744,4416,-5227
-97,25,25,767,5102,-6262
-33,55,-8,-526,4231,-5902
-46,21,-6,582,5224,-5986
17,-4,-40,3063,4202,-4226
50,103,-127,1635,2257,-3491
-114,108,31,-636,638,-1092
69,-90,-85,-431,-612,63
-122,-62,72,-290,-826,448
-69,23,9,1348,-801,424
-65,124,-50,1553,-1347,-43
30,45,-125,2621,-1378,645
-128,43,17,2133,-3150,886
-65,65,61,2161,-2668,695
64,86,-79,30,-2952,1103
-78,4,-33,-865,-3309,2536
51,-11,-6,-1034,-3700,3652
-117,49,89,-2298,-3233,2351
71,-122,46,-3200,-6966,5216
-93,-4,102,-1433,-1708,2491
100,-19,61,2752,-989,-124
-9,40,-5,-698,1067,-1615
119,67,-36,1199,632,-542
71,63,-37,-182,774,-617
43,2,37,-79,752,-1068
45,-58,-43,900,791,-660
30,13,-118,-143,-1044,-15
-10,-13,-49,-55,-1134,1407
22,68,-26,586,-427,1671
42,103,48,1826,-435,2376
-98,-113,-37,2851,286,2272
88,-63,-40,973,-544,2698
-113,-62,90,112,-1741,3003
-109,87,43,1937,124,2542
-104,-101,106,1423,-559,2826
114,106,34,1600,-14,1370
107,70,76,1320,199,1317
28,53,75,654,-232,643
-8,28,83,148,17,-349
13,-91,63,136,609,-921
57,124,21,-528,747,-906
78,53,9,294,335,-892
86,51,-10,-282,85,-714
88,48,-21,-632,-123,-659
84,42,-36,-540,-69,-476
79,34,-42,-459,41,-526
59,53,-51,-551,-87,-137
63,80,-57,-509,225,-20
18,-31,83,1938,2058,-5974
8,-26,-46,1678,6216,-7538
-108,33,101,552,10947,-10332
-62,15,-104,2982,5901,-3704
-84,-4,-115,1808,3133,-5404
-84,-49,33,1240,2252,-4476
91,-27,48,-313,1416,-2415
-36,70,107,-1488,574,-1036
38,34,-52,-166,-249,295
-120,101,36,1452,-438,1007
69,-62,-60,2539,-1323,237
42,-33,-105,3221,-1400,-202
-119,-76,63,4487,-1219,318
-44,-60,50,3472,-2012,100
26,-99,22,2062,-1957,920
-26,105,-70,1498,-2606,3128
103,-77,27,-2365,-4605,1462
5,60,-98,-870,-4770,4557
-46,-110,96,-1801,-6111,5119
106,-89,-82,-3634,-3818,1512
98,50,25,2732,1880,-1720
-41,48,-17,2551,1259,-832
-88,68,105,-333,691,-209
-55,19,-94,422,64,-129
-11,-15,30,791,95,61
-5,-89,-82,1272,-472,690
-29,-10,-52,-154,-641,1522
-41,24,-50,-505,-1033,1753
32,50,-61,1821,397,1851
9,-120,38,1094,644,1602
78,-106,51,902,742,3133
-4,-124,47,685,-580,3738
51,-71,96,451,-997,3443
108,-107,98,560,-767,3244
78,-100,121,-310,-792,2714
97,102,115,889,-904,2659
109,72,103,1605,-223,2081
50,-103,106,739,-872,1032
3,-1,96,1309,94,144
-23,-30,60,-201,770,-1011
-22,-64,20,-1816,832,-967
15,100,-13,-1462,370,-987
36,59,-21,187,269,-473
59,82,-47,82,445,-586
62,81,-74,-140,427,-659
47,88,-76,-561,54,-564
43,66,-58,-95,-82,-191
-119,87,-75,266,588,326
73,-108,-82,-171,-277,305
35,-94,-71,-433,-454,50
61,-37,62,4557,1661,-2674
-20,-91,-84,2628,2609,-4718
123,102,13,3228,3604,-4855
-125,-70,59,2936,3930,-5881
-123,-4,94,2139,2472,-5046
-21,111,33,-800,2926,-6504
-107,-102,20,2607,2770,-5226
5,-29,-54,1152,1474,-5207
-1,-87,-5,-211,-1043,-2025
-114,-48,-109,-237,-270,-865
-66,55,27,321,-347,358
-66,-58,37,410,-994,-129
-60,65,28,1871,-1608,-441
-47,104,-83,3041,-1602,-1204
-61,19,-5,3710,-2121,-505
-13,45,-59,1829,-2590,547
106,31,48,-370,-1912,638
-92,0,-88,1660,-1633,2976
80,78,-32,-2473,-2597,3326
91,87,23,-1471,-3134,5648
18,5,103,-6185,-4751,4666
-59,-1,35,-641,-1101,703
-25,86,4,4584,1480,-3306
41,-118,-39,-15,1166,-1327
-3,-13,17,541,58,-234
-1,-72,117,843,227,368
2,2,0,83,-1074,198
35,-14,-28,358,-587,682
-3,-35,-25,215,-302,1156
30,27,-19,780,-729,1851
104,66,-69,789,-559,1435
100,49,-12,2174,-754,3241
106,67,-63,1784,-412,2700
-13,-119,-5,1464,-11,3529
1,123,23,1571,36,2985
-30,112,53,1632,341,3410
-36,117,73,745,72,2724
101,66,96,1194,-287,2423
77,88,102,1018,-60,1687
16,99,73,301,-196,203
-3,1,72,313,159,-503
11,-76,51,-26,1136,-1016
-3,123,23,118,268,-977
26,48,20,165,-159,-854
49,31,-7,-358,243,-866
56,15,-11,-545,178,-807
77,-7,-23,-277,121,-645
86,-14,-29,-105,221,-513
79,-4,-37,-113,122,-526
83,4,-52,-6,216,-310
-92,-121,65,3683,3620,-4419
81,-40,-30,2978,3390,-6154
-56,-24,65,1613,4938,-6961
-65,15,-71,2674,4939,-6759
-48,-118,-29,1787,4624,-5918
99,-86,-103,1275,2957,-6171
-8,57,47,1101,2731,-4174
100,-94,126,1272,2131,-2142
-21,70,-126,-1229,190,-1978
70,-63,119,573,159,746
-98,-34,19,861,-422,652
-27,11,-104,1694,-1242,352
-27,55,102,2801,-1842,45
97,-41,-8,3973,-1534,632
8,119,-115,2275,-2569,1996
103,-119,-67,1091,-3112,2941
-15,-27,102,-682,-2556,2646
52,114,65,-1800,-2353,3603
120,-100,-49,-3427,-4314,2172
114,9,-126,-3187,-5532,4274
46,14,-88,-1771,-1277,504
97,62,18,1297,-590,-456
-29,-41,-9,400,242,-686
-17,46,-70,1374,573,140
-9,109,-20,159,5,-45
-8,59,56,-18,-282,-142
-13,-31,8,1286,-452,-355
-10,-35,-34,501,9,-231
-17,-12,27,-276,948,-57
11,51,26,-234,1177,1690
-1,61,-9,1848,-723,2871
38,113,-48,1335,-483,2770
50,58,-84,2056,-735,2775
123,-87,-64,653,-924,2888
-98,-128,29,1239,85,3283
-119,-78,113,260,-569,2834
-127,-94,119,374,-206,2476
-110,93,-79,-1125,272,2598
111,58,-101,-315,-602,2240
18,97,102,274,-339,1215
-3,56,65,223,319,136
11,-45,33,1013,497,-45
12,-41,-24,-442,209,-397
40,-123,-22,511,709,-896
66,75,-38,726,759,-1001
62,60,-29,-269,143,-767
62,58,-24,-603,-297,-428
68,58,-35,-693,-174,-586
86,53,-43,-444,177,-298
77,85,-54,-410,-29,-144
-118,-122,53,3637,2142,-4295
-12,95,-107,3208,3393,-4870
94,-45,-22,1718,4201,-5927
-110,18,64,1819,4846,-6296
69,78,-96,2627,5302,-7173
86,-11,-99,1946,4998,-6020
-56,-75,-96,1715,2659,-4179
-95,16,14,768,731,-3136
9,-29,46,-1856,-1057,-1286
-57,100,112,473,-48,1642
-100,20,12,-351,-1025,195
-3,91,-68,1808,-1248,-119
-64,-98,-92,2574,-1826,-837
25,46,-120,3002,-1553,-169
-87,-86,12,3250,-2066,1132
-21,27,10,1292,-2345,1563
52,55,116,284,-1732,1217
73,116,-75,-1394,-3352,1986
-8,88,97,-2316,-3536,2920
113,91,41,-3125,-4896,2906
116,14,2,-3816,-5817,5115
-65,-65,12,2755,776,595
99,-115,1,730,1435,-2679
1,8,-100,372,622,-880
-15,-53,-33,1305,389,379
14,-1,84,1070,-365,473
71,18,-98,595,-610,-261
48,-56,-104,1373,-650,804
-60,-24,-88,637,-1052,1378
-2,72,-52,181,-719,2106
-8,86,-55,1061,-765,2289
49,101,15,1711,208,3366
-73,123,28,918,-323,2975
-79,-89,17,770,7,2692
-77,-126,63,1228,-881,3117
-54,-95,92,823,-343,2969
-105,121,95,1019,167,2246
97,61,99,1406,-109,1916
54,68,-121,568,-36,1236
-1,58,80,332,176,461
0,-12,41,453,439,-438
4,-127,-12,1117,974,-770
28,119,-2,262,616,-915
55,72,-32,50,401,-958
58,13,-4,211,28,-573
67,4,-1,-336,-5,-652
73,-27,28,327,-126,-455
91,-30,-2,19,279,-294
76,16,-2,-864,81,5
86,20,-26,-152,288,26
-26,119,-68,2501,4020,-4137
67,-13,66,2491,4356,-5135
63,-3,122,2580,3737,-4584
73,-115,87,1338,4015,-5471
-6,-92,81,1342,2406,-5055
-67,-18,20,-400,1925,-5336
114,78,-45,-148,2539,-3982
0,-21,-71,-388,2682,-3034
-89,-9,-115,1716,1926,-71
50,-72,8,-607,-990,-372
-95,-110,61,-64,-621,-339
-73,-114,-39,2131,-1666,1500
-80,-56,80,2956,-1021,743
-16,-42,-43,2940,-3285,1530
-35,18,-19,2636,-2266,1201
23,32,12,196,-3725,3013
46,60,-111,-1181,-4198,1815
108,121,-25,-3893,-8356,2517
99,-52,69,-5333,-5423,5172
-15,-72,16,-978,-2202,1339
122,-36,43,2382,-233,119
-95,-32,2,987,183,-647
57,80,-57,996,331,-271
51,68,15,1144,1302,-234
32,86,58,-526,-255,-485
24,-54,-52,1319,-1140,234
36,7,-98,5,-706,243
61,-81,-98,1879,387,410
34,81,-57,940,-1303,1853
51,54,3,1907,-949,2757
-98,-92,-1,1608,-1184,3044
-39,-88,61,1137,-879,3336
-18,8,72,-196,-680,2736
-67,-51,-51,1344,-530,2329
-122,-85,-57,1763,188,1945
102,-92,-114,1401,47,1614
11,-77,109,512,-202,770
-5,106,94,458,-247,-517
7,-80,65,1402,870,-686
-3,-124,35,193,617,-493
15,92,19,-75,97,-521
49,66,17,250,131,-402
65,37,-1,508,531,-578
60,65,-21,-376,316,-648
80,38,-37,-30,204,-141
87,65,-47,-129,21,-169
85,81,-39,-181,-21,72
89,90,-38,-58,96,-6
90,126,-39,-296,75,-100
93,125,-44,-247,74,-194
92,-20,3,3374,3892,-3987
-51,125,-86,3909,3632,-3333
29,14,26,1991,4070,-4942
44,-16,92,2446,4309,-4752
41,86,-101,1706,4195,-5168
81,126,-67,1809,3870,-4661
-2,-64,99,337,2388,-5011
117,-95,15,-610,1766,-4557
59,123,125,165,1671,-1603
-71,-32,-38,-573,386,-445
44,-76,111,-493,233,-189
114,4,101,1467,47,377
11,61,42,2351,-43,111
15,68,-117,3462,-1213,531
77,-121,67,3023,-2371,842
-44,118,25,2955,-2042,57
-43,54,61,1465,-3939,2835
-58,16,-114,269,-2070,1024
-36,34,-23,-523,-4335,4148
-81,108,-126,-4428,-3774,1272
-35,30,-23,-2995,-5198,5546
99,108,-50,-1904,-2680,2960
115,70,15,-1262,45,-2532
15,-26,-7,2326,-639,-388
-13,38,-117,72,38,-288
16,60,-49,585,-18,-738
17,-35,63,1761,-164,-53
0,-1,-76,665,-597,-132
-7,1,-46,240,-911,988
-19,15,-27,244,-931,1394
4,34,-16,1292,-308,2107
92,107,-32,1900,175,2281
30,-117,-11,1951,39,2934
-47,-6,-93,807,576,2691
78,-20,82,1031,-1102,2660
123,-98,97,1071,836,2146
99,105,-81,1714,989,2249
125,40,119,2266,1975,1707
78,62,105,1583,811,1744
35,-19,113,1842,71,969
19,13,78,-774,-228,27
25,-106,56,5,-399,-54
63,77,37,314,397,-716
76,56,32,333,480,-775
94,42,35,-69,216,-828
122,-1,31,-66,282,-1006
-123,-32,25,124,233,-776
-120,-28,29,-222,161,-434
-121,-10,7,-265,394,-140
119,23,14,-460,-16,385
26,-105,-43,3142,3942,-4888
123,-66,55,2984,4780,-5429
67,-13,117,1692,4179,-5832
-90,89,121,108,5329,-5433
111,93,-86,2760,4612,-6126
-37,-48,73,359,3262,-6838
71,-36,-120,682,1846,-2744
8,21,18,-631,795,-1359
107,-59,-103,-644,-145,-295
-106,125,40,1118,-606,1697
48,-16,-26,1670,-1211,1779
-61,74,88,3344,-2316,2039
34,-70,-45,3072,-2855,-220
-69,-119,0,2398,-3306,716
110,41,-8,2060,-2933,1285
112,90,75,1107,-3492,2307
-84,50,-37,-1766,-3498,2485
23,-34,82,-1707,-4340,2548
-122,-4,92,-934,-3542,5972
-57,117,-66,-3687,-2880,1999
44,-119,-55,121,951,-1280
73,-94,3,2985,311,-1524
-23,-127,-93,-778,163,-435
-58,24,-8,183,-707,272
-23,-2,93,92,205,-715
-11,-49,-10,1122,117,-224
-22,-26,-27,360,-526,588
-30,-35,-18,326,-225,1276
-12,0,-37,194,-449,1730
40,58,-10,895,-735,2996
48,39,-26,1907,-150,2679
-84,-81,9,1405,-783,3740
-25,-105,-19,2040,77,3079
-73,-32,42,1275,-273,3080
-95,-87,-125,1118,-516,2540
-110,120,100,1429,172,2025
75,-120,-118,876,139,1372
29,82,-124,927,141,456
14,-10,94,1518,572,-225
16,-55,77,903,449,-458
38,123,52,586,272,-563
44,98,46,-87,223,-795
60,49,27,-28,294,-888
75,4,27,50,350,-772
85,1,1,-270,272,-675
85,15,-3,-617,-68,-340
87,4,-10,-313,122,-143
102,20,-22,-235,223,-65
100,52,-25,-273,25,-62
122,53,-33,-165,215,-65
-119,101,68,2748,4084,-4508
92,37,-25,3281,5202,-5463
-119,102,-119,2383,4533,-5498
59,114,-43,2482,4691,-5223
71,27,18,792,5808,-6866
-6,-51,23,-498,4599,-8169
-66,-2,-70,646,3557,-4941
-93,63,-101,995,1248,-271
54,-126,-42,-597,-840,1329
112,105,-100,-239,681,-207
21,104,7,1562,92,1029
-30,-106,-87,2335,-962,831
17,-117,49,3332,-1834,1746
-123,-112,-37,3888,-2989,2300
-57,-103,-110,3204,-3609,-201
1,-77,-61,1141,-4540,1321
-119,80,-126,-858,-4091,720
68,11,-42,1193,-3321,2443
-97,45,18,-937,-3294,2483
-87,-9,-91,-1587,-3682,4132
99,-75,103,-2681,-3691,2031
-44,62,31,-896,200,-2188
-41,1,5,3892,1519,-12
-113,84,-39,496,-16,870
-73,92,27,-284,71,736
-32,117,48,-775,-513,-63
-4,-26,-21,498,-869,185
-43,-32,-54,338,-1168,628
-56,-41,-39,601,460,553
4,-51,37,1012,2150,1111
110,101,-10,1173,1064,3352
67,-45,78,1601,-1362,4105
-83,-22,75,787,-343,3054
-102,0,-118,560,-735,2776
91,-88,-114,1183,-107,2770
106,-33,-110,353,-295,2083
43,98,-119,1345,458,1899
25,85,98,1409,226,1555
28,51,73,992,443,945
6,-7,91,845,231,272
24,-68,76,447,549,-498
52,-127,75,349,589,-386
83,105,74,58,136,-260
42,102,84,-192,2,-315
51,90,46,5,345,-492
62,76,16,76,69,-436
97,72,1,-163,-35,-500
108,75,13,-82,-8,-465
107,66,10,-69,-74,-216
111,94,6,-658,-477,-159
-19,-97,-62,3609,4186,-4170
32,28,88,3429,4188,-4910
-2,36,-81,3552,3642,-4923
6,-52,-23,2513,2965,-5112
120,-16,11,4007,3313,-7107
-95,23,16,736,2493,-7741
-7,116,-39,2307,2147,-2893
-62,111,-45,-2321,-416,-2025
-50,55,113,-691,-333,1221
-91,-13,110,241,36,1257
-40,-127,-26,1310,-1043,605
-43,-96,81,3113,-1367,-307
10,62,-29,3322,-2704,119
123,-52,-71,3392,-2790,809
-25,-66,107,2126,-3040,1431
65,-37,-80,388,-3548,2798
77,-18,-85,-3279,-3791,1254
14,-2,74,-4409,-5019,3303
-97,119,-14,-320,-5528,6203
-6,93,-126,-4385,-3586,1900
-7,-97,52,3446,2932,-2377
35,64,-23,1686,299,-652
-50,91,123,-92,278,61
-49,6,-86,330,392,240
-41,51,61,205,-184,394
-20,18,-23,663,-287,249
-31,8,-52,436,-211,631
-18,58,-39,104,-671,1381
-24,45,-45,499,-88,1658
55,99,1,1854,-960,2383
123,68,-60,2955,612,2263
119,-56,-40,1043,-456,2914
-112,-68,-19,-14,-338,2807
-90,-107,24,961,-836,2821
-82,78,105,1628,-288,2877
-115,106,83,1513,202,2510
125,80,-122,1738,-521,2444
52,96,-110,1054,-249,1545
-3,105,124,-68,93,372
3,0,84,295,165,-622
18,-114,44,353,544,-1043
29,113,22,-308,404,-1123
68,116,-20,-2267,778,-1487
80,87,-58,-1682,366,-1221
86,-3,-45,678,172,-952
101,52,-52,-312,430,-985
100,25,-55,144,184,-436
98,44,-60,-319,147,-268
111,53,-70,-105,132,114
119,75,-73,-41,-5,337
-127,114,-113,3276,1939,-4190
95,-64,-10,2189,3934,-6134
23,94,90,3612,5702,-6085
-39,-48,-108,2289,4009,-6473
-29,21,-90,2024,4339,-6617
100,112,-108,1818,3452,-5463
-56,-126,84,1521,2722,-4964
47,-109,-83,595,1621,-1832
-38,-12,0,-221,589,113
114,-73,23,883,-904,1016
110,-6,-49,5,-800,-653
-12,3,125,2721,-2185,-2
22,48,69,3521,-1874,399
-98,-51,-26,3532,-2574,207
-31,-115,-23,2585,-2943,2888
119,-115,16,106,-2706,1801
-39,116,-79,-147,-3379,4010
90,23,15,-4861,-4076,2678
-64,-57,58,-1854,-5566,6652
112,62,10,-3890,-6189,5236
-30,-104,-66,-740,920,-187
10,35,17,3034,1280,-2380
113,-19,-45,436,395,-942
-30,74,105,28,-404,-498
10,25,3,-276,-328,-3
-8,21,109,203,-198,-402
11,-23,24,699,190,-201
-11,-35,-43,879,-394,159
-26,13,-55,319,-413,715
-16,-2,-34,1157,-204,1463
40,103,-26,602,-313,1904
8,83,-84,1378,-273,1971
105,79,14,2222,-221,2558
-86,73,-96,2233,855,2333
-106,95,-63,2027,-210,2682
-105,82,10,1074,-170,2523
-51,73,46,459,468,2471
-50,27,75,1340,285,1654
-55,40,97,2258,182,1317
37,100,-121,21,116,954
11,37,107,-510,-171,392
1,-70,65,350,-252,129
-13,-102,12,46,267,-443
23,104,-20,9,622,-905
75,64,-41,224,390,-864
97,43,-53,-83,0,-819
77,16,-31,-371,-376,-799
92,-1,-26,-514,-57,-688
119,-3,-24,-495,-85,-456
100,-3,-29,-278,-83,-267
92,-93,-115,1916,3038,-5576
-98,112,-25,2158,4907,-5725
-84,64,88,319,5416,-6353
-70,124,-82,-1026,6188,-7805
-40,78,-25,959,8069,-6714
-60,108,-35,1476,6151,-4962
65,51,-62,-1079,821,-1826
52,119,-49,-868,-351,-654
30,-98,29,294,-851,1203
11,-30,-34,1703,-1496,1309
105,-126,-77,2777,-2102,573
-20,-71,35,4262,-2471,-236
89,110,-65,3443,-3087,551
-18,110,-20,2495,-3008,1150
-117,116,122,-403,-3666,1426
42,15,10,-627,-3283,3361
-106,71,40,-2769,-4094,3297
-120,-104,124,-1701,-4239,4301
-44,73,97,-2077,-6421,3986
-115,-53,2,-1007,570,-1371
118,91,13,3513,981,-2627
46,54,-31,96,-331,-378
10,-17,21,487,-240,267
2,26,89,246,-976,131
38,-35,23,762,-102,40
11,-42,-26,953,-114,615
30,-42,-53,1214,52,1431
55,-108,-128,2624,122,1830
21,81,121,975,-838,3482
20,118,-18,1498,-908,3767
124,34,23,-89,-443,3132
113,-27,89,1012,-1178,2628
-95,126,49,1446,255,1787
-54,-116,124,265,-819,2209
73,90,-91,93,-509,2012
76,76,80,1157,779,838
46,85,1,1096,580,-199
21,-7,-27,1137,-216,-1386
23,98,31,1541,250,-1212
30,40,11,616,860,-1080
42,37,0,-562,213,-835
24,-1,-6,-7,-294,-59
47,20,-18,-346,-94,-99
48,73,-22,-1440,-382,-76
69,70,-38,-1060,-51,36
57,102,-52,-585,0,-49
33,-121,-58,-775,76,-318
47,100,-76,216,592,-174
56,109,-96,515,592,6
113,-123,-110,131,505,68
-78,-110,33,2873,3548,-4760
-101,-73,-95,3292,5951,-5437
112,-4,122,3819,5304,-5446
124,76,16,2560,6429,-6213
-16,-95,-109,3352,5380,-5344
-98,106,86,765,2934,-6691
-77,83,-15,523,2680,-5704
-59,-49,-37,-48,1184,-2674
80,62,-50,-2060,-1625,-1365
-87,-38,121,-338,178,870
88,14,-93,87,-314,991
-30,44,124,1189,-934,959
38,88,-8,2931,-706,1161
6,-96,-41,3524,-2344,1867
123,-93,105,3061,-3369,-201
49,126,-92,2455,-3040,1256
-57,121,44,-923,-4238,2281
-25,96,-43,-2264,-5073,2078
-117,57,-112,-4757,-5489,1434
101,-28,-126,-1402,-6450,3828
117,4,-128,2346,-5685,3690
-39,-111,32,813,1647,-3210
71,47,-20,1323,442,-1329
-32,-57,112,368,-315,496
-21,35,-43,-101,-115,52
12,-3,80,587,353,-384
-15,-63,-18,1206,-377,457
29,-29,-71,487,-273,695
2,6,-53,365,-223,1413
65,-63,-93,2307,-463,2779
93,-103,-38,273,-1007,3455
124,-75,11,1336,-1162,3283
-97,-20,-12,995,-456,2713
119,-59,36,1600,-958,2134
-93,97,34,1316,123,1156
-116,63,34,1648,-183,1990
-109,110,124,828,-394,2270
97,80,86,1812,588,1085
18,94,36,1065,23,-139
-19,-33,41,418,-94,-1015
-17,118,48,480,181,-919
17,56,38,605,568,-697
67,36,-5,303,662,-484
55,46,-20,-180,65,-348
38,60,-25,-831,-290,-446
51,26,-36,-618,-41,-483
69,23,-27,-315,86,-175
78,34,-42,-192,319,11
78,58,-62,-145,171,35
71,73,-72,-213,204,9
-96,81,62,3188,4425,-6178
97,-43,-76,1833,5988,-5806
11,31,98,2171,5142,-5026
19,112,-13,1699,6244,-4881
-82,-104,113,2558,6189,-4348
100,31,112,1353,5346,-5594
64,-16,39,940,1389,-5118
-17,121,-122,367,1639,-2319
61,16,-34,-1134,-472,-1076
-106,17,-82,-834,-587,677
-13,41,-100,871,-132,1648
-37,-61,55,997,-1188,552
-14,-13,11,2727,-273,-156
7,120,-74,3634,-830,-842
122,94,50,4420,-2257,244
-58,22,28,3049,-2526,849
5,41,33,1993,-2484,710
127,79,-32,-505,-2971,2161
15,32,66,-1750,-4771,3346
-25,55,-126,-2348,-4591,3694
116,122,46,-533,-5628,6259
-95,-69,-74,-2885,-3451,1602
-73,64,8,2051,-506,-748
-9,-119,-14,1368,-395,-652
-1,69,-75,432,789,-769
-10,8,-30,1310,1199,-830
11,37,1,669,466,-753
-32,-2,-20,-478,-274,-110
-23,-79,-24,631,-278,654
-34,-32,-56,639,-340,1204
-59,-18,-23,693,-52,1956
26,76,1,1092,-756,2705
73,41,-27,2751,834,2712
39,-122,-17,1711,-178,3706
-121,-76,22,523,-1151,3358
-88,-114,20,1399,-179,2573
123,-106,78,1327,-206,2349
81,101,102,1018,-247,1656
46,73,109,273,185,1484
26,26,83,592,274,820
-13,-43,63,1028,114,495
1,-50,61,350,266,233
22,-85,31,121,460,-191
9,113,8,317,229,-576
15,82,15,224,119,-766
27,42,10,129,228,-718
34,3,21,482,373,-453
43,8,-4,238,419,-459
54,29,-8,-452,132,-458
81,9,-26,-531,149,-349
-47,-75,55,1954,1960,-4958
104,-79,-104,1906,4182,-6348
-104,-25,93,82,5579,-6100
18,10,-17,-44,7316,-5506
-71,-31,10,2598,6800,-5687
58,-44,-59,1093,5156,-6077
124,11,68,77,2694,-4506
101,94,-59,354,2182,-2269
0,46,-38,-102,652,204
109,-46,70,-506,-1212,997
-66,-61,65,184,-718,862
-38,28,-44,1914,-1490,840
-44,-108,-121,3471,-1891,328
68,111,29,3792,-2409,152
-5,-4,-79,3805,-2881,1825
