AccX,AccY,AccZ,GyroX,GyroY,GyroZ
61,75,-83,1681,2035,-4988
122,60,122,4360,3902,-4653
-128,88,7,4146,4226,-4646
-68,-31,-117,1636,5648,-3126
73,63,3,4409,5103,-976
-69,-72,60,519,6602,2114
-101,19,-128,-3021,3936,5383
97,-64,-78,-5436,1911,7799
106,52,-22,-5132,-8675,3490
-107,-32,-50,-2946,-6430,789
-106,-126,-16,-2860,-6817,-4917
88,-103,31,-1607,-1425,-5687
96,-53,-36,-1120,1075,-5104
-71,-79,-33,-463,3818,-4760
-17,-27,-66,3,5874,-2875
-51,75,-62,-1085,6043,-459
85,-9,-107,-1838,5619,2973
113,-73,-41,-3075,4147,5912
-74,7,-90,-5747,-689,5246
-47,-98,-26,635,-2193,3052
-29,-122,33,-4522,-6352,2378
-47,46,-118,-7306,-9585,410
24,2,-25,-2834,-9556,-2531
-15,121,-26,-1476,-3744,-2884
43,50,-81,775,-1918,-1962
16,-14,1,-2262,-679,-170
125,-50,34,-1222,-609,234
-32,63,-111,-93,467,468
103,-52,39,-1605,123,2052
-122,122,-64,-2286,1557,2201
-25,-83,117,-1710,2307,1957
95,22,50,-1615,1591,2519
-41,-102,6,-2623,1701,2671
17,-110,-33,-641,1712,2581
-126,-12,5,-1763,1664,2689
-87,-4,-11,-447,1251,3335
29,-6,51,1465,1264,3046
42,52,11,1849,30,2496
-29,66,93,72,-295,1388
-88,81,-125,1020,1655,503
-83,40,-106,1717,1287,720
-53,-33,116,1634,987,783
-65,-64,-118,329,456,345
-61,-126,-113,540,392,193
-59,105,-106,280,368,-84
-56,63,-79,369,182,-149
-60,55,-85,159,234,-165
-62,42,-78,-114,79,-349
-43,27,-75,-67,202,-147
-35,38,-87,-448,301,-11
26,102,65,5425,1194,-4448
22,-28,-70,4052,1155,-4765
57,36,-37,2806,3044,-4601
-14,-121,-125,3011,4067,-1831
76,15,-11,753,6083,-180
-47,-71,20,-1752,5643,2160
-29,-100,108,-4477,5127,7116
107,-40,79,-7735,-2737,5702
4,-81,-92,-3524,-5356,538
-5,62,98,-4124,-8249,-1833
80,97,57,-1318,-5660,-7117
-68,33,-96,1435,972,-5054
-112,89,-8,-1004,2105,-4606
55,119,34,589,5220,-3746
113,100,85,-571,5758,-738
-20,-76,108,-1450,5682,1578
85,-104,-53,-80,5134,2765
97,-5,-45,-1725,3404,3870
21,3,-99,-2264,-939,3639
-5,-56,-124,-3185,-330,2886
70,3,-9,-4766,-4763,1947
55,-9,4,-6967,-6228,-1766
84,91,-1,-4360,-10256,-3095
-9,-91,-50,-1154,-7284,-5323
-13,-27,117,-1728,-3019,-2237
56,-58,-33,-1024,-2769,-611
45,-105,105,-738,235,-322
-53,15,-98,-24,798,596
-124,100,-53,-904,484,68
-104,90,-33,-594,469,739
7,78,-61,-1571,1686,716
68,63,-115,-2048,1400,1784
-104,-114,59,-3657,1427,2366
-78,5,-5,-2721,1165,2800
13,-121,-19,-2078,1064,3025
106,-50,-60,274,1712,2985
-124,49,3,397,796,3655
-60,124,59,-1486,625,1875
-25,37,96,383,1065,2965
-27,67,-123,-157,733,1844
3,-15,-57,1378,990,1856
-22,-115,-97,1771,1265,1202
-56,72,-92,1190,366,628
-64,15,-82,360,30,99
-60,-65,-68,567,322,50
-58,127,-68,480,195,182
-57,-124,-62,-199,-91,-211
-44,108,-71,-473,374,-332
-41,67,-80,154,298,-266
-47,64,-90,283,252,-224
97,4,109,6373,3059,-5713
-112,47,-118,5703,4493,-5841
39,-43,34,3648,3886,-4274
-17,19,-55,896,7968,-1095
-29,-38,-5,-1765,5919,1099
-115,-85,81,-3680,4136,3983
-11,77,21,-3984,-357,6866
-67,23,-28,-4174,-6341,3887
-15,124,109,-1633,-6203,-365
74,43,-57,-1513,-6182,-4701
92,-6,-3,1265,-3084,-4812
40,40,-84,-1106,-292,-4547
-114,-22,13,-358,4404,-3440
-97,-103,113,-102,5121,-1557
-13,-90,72,-1089,5839,346
60,-82,-117,-1265,5708,2140
108,5,-62,-1223,4250,2458
-98,10,28,-1087,2401,3221
26,-9,104,-3523,-1366,2636
-2,19,-120,-2601,-1814,2146
-21,93,-4,-4092,-4309,775
36,99,27,-4311,-6976,-868
-128,-105,-119,-4346,-10445,-746
37,-34,-115,-8677,-7705,-751
-33,-110,109,286,-2530,-3629
-48,31,82,-1418,-2232,-1218
-31,-100,72,-765,-744,-530
65,62,14,-122,471,17
-27,-14,108,-319,573,316
-76,74,-18,-1031,1269,422
-47,43,2,-1580,1339,615
61,82,-97,-2974,1521,1030
116,30,43,-1533,882,2932
-109,-53,-61,-1648,1243,3138
13,-65,-94,-3378,417,3882
74,-68,-53,-1460,843,3059
-15,111,93,-2775,1007,2755
-5,1,-78,2080,-808,3177
38,40,-72,2884,-1206,2736
65,7,93,1701,1411,2254
-3,-15,101,1847,1480,1637
-65,-56,-127,1857,202,1100
-86,52,112,2181,825,519
-117,-25,-104,1125,685,148
-117,-103,-104,1122,671,67
126,115,-102,755,620,-228
-126,75,-91,29,113,-410
-34,37,-86,-200,627,-756
-17,-22,-53,214,274,-522
-80,-46,-14,8,93,-190
-90,-124,-68,4433,356,-3967
22,-32,-76,3479,1025,-6147
104,103,98,3880,1780,-5602
-114,117,62,3389,2860,-3773
-8,-52,126,2583,3607,-1977
-22,-52,-24,358,5341,-256
76,102,-64,915,4665,3296
76,-27,45,-2220,4875,4662
89,66,36,-4160,1402,5923
-78,-14,-126,-2715,-2378,4905
94,-21,-117,-793,-4321,1515
30,-53,103,-4499,-5139,558
59,-99,1,-1244,-4464,-5183
-11,17,-107,-1295,-2976,-4563
31,-66,-43,-3276,1005,-5168
-38,-15,-14,502,3689,-3248
-63,85,-2,-885,4952,-1868
50,5,-27,304,6028,547
-79,-91,-124,-1764,5582,2496
110,69,-33,-727,5798,3740
-27,-127,25,-6240,925,5491
16,-31,122,-327,-514,1938
-15,-1,107,-3111,-3068,1693
65,-107,42,-4200,-6979,-1412
53,112,-81,-4581,-7636,-53
-74,-89,30,-3750,-8658,-2493
-127,-83,-12,-3649,-5925,-1717
118,-40,-29,-1068,-2451,-720
31,-109,55,-2376,-1393,39
5,27,-39,-578,178,-343
75,17,-30,-48,957,-344
68,46,-112,-824,1577,-444
-91,53,34,-1362,1937,580
-10,123,-67,-3813,2680,1104
116,104,86,-1612,2932,2192
-7,33,-1,-3002,3322,2231
86,91,-23,-2051,1776,2858
-25,-96,-20,350,1758,3553
125,-3,11,711,1395,2659
49,-72,29,532,705,1887
119,-38,47,-970,1690,2118
103,-128,-2,669,1680,1570
83,83,58,1117,970,1399
30,34,43,899,1233,1080
31,-1,125,1302,721,1237
10,17,-76,1121,337,744
-11,-38,-85,890,491,46
3,-76,-43,-332,-131,-333
-15,98,-37,120,-218,-339
-44,54,-41,476,192,-235
43,111,74,4957,2293,-4797
-128,54,-58,4925,1517,-4486
-116,-51,-75,1948,2158,-4156
50,-75,122,3133,2120,-2529
-66,21,39,1565,3568,-935
-54,5,-127,-177,4643,1382
81,-96,-117,1049,5032,3892
53,-51,-13,-1912,4075,4371
2,41,-38,-3642,-676,6519
-18,-50,19,-1585,-2889,2727
-44,70,-20,-1313,-4385,1486
45,-29,-35,-3154,-5314,-3259
14,-30,-128,-796,-3506,-4391
-42,-11,113,-2537,50,-4793
-8,-109,-100,600,3002,-3623
-59,94,-107,203,4723,-2363
-86,-119,-37,-1332,7137,-365
-33,-109,44,-43,5094,386
-13,26,-100,228,4708,2554
31,68,36,-2415,1269,3451
23,-7,-75,-1072,502,3174
-94,90,58,-3717,-2282,2650
79,74,20,-4562,-4078,1763
97,40,29,-4579,-6653,395
50,-24,121,-1151,-6960,-597
-42,-16,-112,-386,-6008,-1044
-105,76,61,-2317,-6219,-518
-119,-90,-99,-528,-1580,-370
42,-30,43,-1929,-1156,554
125,18,-44,-880,1544,-337
-101,-66,-122,-353,270,-535
-49,-107,108,-1927,2058,-277
40,-111,-62,-3018,1646,550
97,90,52,-5544,1362,1915
-123,46,-5,-3026,1672,2364
-59,-36,-40,-3004,1602,2301
80,79,-54,-1450,1964,2265
101,81,-29,839,1421,2801
-93,-13,-44,-125,1168,3089
-13,-31,-33,-671,1138,2576
-37,70,37,-1489,494,2630
-8,-28,76,450,908,2066
-61,-1,111,-290,249,1298
-77,-51,-114,-310,-306,1109
-67,121,-101,843,843,355
-93,66,100,1267,867,-396
-104,2,118,941,357,-756
-27,-119,113,701,617,-849
-45,125,-125,76,191,-591
-72,77,111,271,94,-469
75,116,-13,4403,1784,-4697
-126,-71,-59,3301,2393,-5136
43,100,23,2642,3681,-3816
-102,76,-59,2320,4941,-1609
-90,92,22,710,3987,457
14,-14,76,-670,4658,1684
74,-120,22,-1771,3837,4580
-78,-108,106,-2626,-366,5405
9,108,57,-2233,-1383,2636
-93,48,83,-2591,-4658,2533
127,-49,88,-662,-4979,-2080
-79,24,-3,84,-4073,-3047
5,-19,-10,-1821,-2432,-3945
-117,114,-45,250,1432,-3931
70,16,49,-953,3317,-3146
99,116,60,157,4922,-1638
-88,69,118,381,5591,-121
-56,-8,89,-3016,5386,1649
115,-91,14,-5114,2409,3732
-64,8,-46,-3811,-154,3940
-101,123,29,-372,-2211,1854
56,-62,-18,-3806,-4547,1311
-44,52,44,-1452,-5985,-86
114,70,-52,-4843,-8286,691
17,-108,-62,-2436,-6765,-632
-94,-103,38,-1313,-4423,-1039
90,67,-43,-1358,-1313,-33
-23,-7,-36,-1155,-320,64
19,-61,-40,-1709,219,360
-53,10,45,-2174,988,656
-2,72,-62,-6639,1961,709
47,103,23,-4729,1308,2391
71,-13,-6,-3290,1185,2392
-84,108,50,-1746,512,2510
-9,-18,49,-108,505,3066
-101,3,120,1810,511,2971
-22,20,-12,2863,1589,2406
14,33,25,108,1077,1640
-52,-3,85,-205,-96,2138
-16,-85,65,604,1313,1566
-20,-68,113,473,704,1781
-40,-110,97,546,883,1098
-47,93,120,863,347,495
-68,28,114,933,417,305
-45,-37,-114,514,288,67
-72,-75,-104,175,180,-96
-79,-111,-113,-99,270,-243
-63,106,-109,-353,312,-442
-39,84,-111,-326,285,-326
-44,83,-117,-356,102,-281
61,-97,85,3315,-1804,-4126
62,0,-33,3097,-580,-4746
67,-86,27,2774,1683,-4968
8,-109,54,3392,3299,-4360
119,-112,-35,2687,5319,-3015
-65,11,60,1336,5224,-1263
51,-108,-89,-650,5308,1312
-51,-67,7,1127,3722,4031
-124,10,-82,-2758,-776,7169
52,-16,76,-4510,-3826,4338
75,19,56,-3771,-4537,2766
106,81,35,-869,-6060,-3467
-45,79,-128,-837,-2647,-3814
-76,36,-1,-840,695,-3998
107,73,85,-1214,3196,-3548
-124,112,3,-924,4278,-1662
-100,55,101,-484,5535,-112
-60,-31,-107,-332,4635,1307
44,56,91,-1695,4213,3393
-7,107,-101,575,2274,1945
52,60,-100,-628,93,3149
33,-24,61,-4990,-2673,3663
87,87,-49,-5058,-4749,2543
47,14,-85,-5195,-7632,3149
64,73,-28,-2253,-9298,158
55,97,-127,-3924,-6999,1484
69,15,-1,-2313,-1641,232
-108,-95,36,-831,501,161
-57,11,122,-217,386,314
26,-97,0,-813,1796,9
-32,-66,99,-1855,2258,207
81,0,-61,-4766,3355,1547
109,80,-43,-4599,3010,2611
-93,-70,-82,-3818,2859,2395
29,38,-17,-1487,1731,2372
-111,-94,-36,-720,1832,2480
-46,-2,-31,-871,1633,2281
-18,-47,13,252,660,2320
-15,-56,80,146,712,2048
13,126,82,893,1071,2032
-22,-123,86,197,595,1804
-41,-118,-104,-77,-139,1644
-37,70,-117,863,645,838
-58,29,-92,1503,483,556
-85,-54,122,1288,539,-3
-74,-74,-94,131,4,-228
-64,76,-86,523,395,-437
-74,77,-68,120,25,-414
-75,47,-68,-33,119,-510
-73,40,-68,-379,110,-460
99,-81,54,3529,-2699,-3087
-123,-110,54,4280,989,-4227
64,-44,50,5052,616,-5172
-9,-5,97,2482,1369,-5467
72,80,-27,3082,3961,-4557
-44,18,44,-1320,6022,-2507
-6,-60,116,-3311,5840,1473
-105,24,33,-1908,3915,5023
-44,-6,96,-2634,1337,5618
-24,-68,64,-4248,-2950,4069
22,-128,-67,-3405,-5488,2412
-51,13,29,-2233,-6701,318
64,-43,-77,931,-6613,-3595
53,-86,61,-1308,-4786,-4149
-104,58,28,-1771,157,-4663
-82,-37,-47,-968,2781,-3718
91,82,121,-1046,5485,-2403
-25,21,-8,4,7284,-791
-126,-64,65,-3341,6239,6
-22,-20,-38,723,3508,3450
-88,40,-59,-1075,1818,3763
-18,-17,57,-1322,-348,3674
47,31,-39,-2742,-2540,3811
101,17,123,-4004,-7524,2593
80,44,106,-6875,-8371,1482
56,53,38,-3448,-7316,-1397
-20,-1,40,-2349,-4967,-810
101,101,35,-3290,-1714,-817
62,-28,-62,-832,-376,-363
116,-126,-6,-495,482,-30
-57,68,-85,-1401,1750,173
-34,-12,5,-1593,1971,-335
2,9,-108,-2195,1341,1434
60,97,63,-3440,2067,2199
126,-102,-11,-2163,1626,2478
-67,1,10,-2584,1961,2501
32,51,27,-1401,1334,2758
-70,112,-25,-685,1243,3166
-53,-68,26,-318,-92,2830
-2,-58,88,-449,512,2807
4,-71,54,93,1141,2180
19,-92,-102,976,538,2579
-3,-90,-69,1027,402,1750
-42,-87,-41,667,498,1266
-51,98,-59,1117,732,669
-112,19,-42,763,275,222
-104,-78,-62,730,378,-47
-110,-99,-46,-65,70,-309
-94,58,-55,542,541,-410
-85,60,-61,-65,350,-450
15,-128,-47,4334,-371,-4150
43,-74,86,4219,20,-4646
93,-64,-41,2637,1769,-4679
-33,-96,-29,2882,2450,-3122
22,9,103,940,5197,-3648
-115,37,9,1397,3983,-926
13,105,52,-1854,5334,4154
-24,92,-35,-516,2625,5921
44,-49,-106,-3068,-2330,4654
-46,70,-22,649,-4914,2261
29,25,87,-5571,-6930,-444
107,-103,-61,550,-3304,-4556
-53,0,105,-1752,-1994,-3746
-22,-4,76,-1343,1879,-3365
-109,-107,81,-506,3509,-2090
104,109,-127,-313,4818,-908
-86,38,119,-1065,6484,251
-104,24,-31,-2151,5712,2491
75,124,-51,-2405,2107,4706
-18,-18,-78,-2576,882,3983
107,15,2,89,-1712,2683
91,15,104,-4016,-4249,1355
-59,-48,89,-3925,-8547,422
-94,112,-108,-2819,-8757,-613
115,-99,-73,-3194,-5615,-1811
27,89,-125,-162,-4010,98
-107,43,-27,-2241,186,166
26,10,-8,-1360,1437,274
57,-57,-73,-582,640,-182
44,-20,-99,-2057,441,661
63,26,-90,-3612,1838,1622
123,115,21,-3099,2218,1906
-63,-77,1,-4099,2353,1729
25,-70,-49,-1846,1689,2347
99,116,-38,-3082,1357,2574
-70,-97,-46,-1566,1074,2821
22,-62,2,750,846,2660
70,-19,112,558,226,2557
47,-58,-98,378,399,1873
59,-88,-48,1021,437,1971
19,-126,-59,889,715,1528
-13,71,-57,1209,193,1147
-55,74,-72,757,-121,763
-79,54,-48,-36,241,-523
-77,-107,-45,1053,638,-375
-58,103,-48,764,465,-585
-34,57,-53,491,268,-645
-38,15,-12,153,131,-269
-39,-21,-25,-29,547,-164
-67,-12,-14,-113,118,147
56,-51,12,4222,-2048,-2917
8,-55,-30,3132,4131,-3045
60,-127,-3,8604,1243,-3504
118,11,123,3601,1539,-5686
91,-33,33,2787,2105,-4349
-67,92,-115,1607,4273,-2340
-33,91,-17,384,4581,102
-27,84,22,-165,4477,2660
-99,122,-5,-2261,2322,5580
-5,-92,-117,-3191,-1066,4913
38,-50,-56,-2793,-1828,4617
55,84,97,-1224,-4837,-1179
-74,58,85,-991,-4335,-2400
-102,-73,-7,-1345,-2027,-4208
0,-52,9,-53,1324,-4314
-75,-104,40,-299,2986,-3130
-99,66,105,148,4069,-1769
-93,-12,-61,957,4906,-665
-123,-35,-39,296,4565,725
-38,-115,121,-1986,3188,1703
-10,100,-29,-722,1219,2212
-28,-95,-96,-3800,-633,3499
119,108,41,-3737,-1946,2996
101,-82,121,-2247,-5321,2370
-79,-41,68,-6427,-7260,3112
111,118,77,-5160,-7578,475
47,109,-124,409,-5493,76
-59,92,-15,-617,-1468,-874
-76,78,108,-2741,-1107,845
123,72,26,-6,996,-513
71,69,-23,-732,263,348
43,117,28,-1816,1458,530
83,-54,-44,-4192,1231,650
-90,-53,47,-5021,2399,2107
-82,60,-38,-4198,1693,2234
12,20,-85,-4620,1586,1912
74,70,-34,-2133,1152,2066
-78,-37,72,-3168,1388,1859
-11,61,-104,-500,-624,2899
36,125,-45,-268,-983,2888
11,86,-36,893,46,2364
-22,44,-16,1594,181,1692
-35,14,-47,921,400,1407
-50,-88,-30,1485,614,992
-68,46,-90,1899,795,431
-80,11,-92,711,448,435
-61,-68,-82,-191,402,35
-57,-87,-79,-530,68,-196
-67,123,-74,117,45,-249
-70,96,-85,235,444,-404
16,46,40,5323,-592,-4568
100,-90,-88,3330,109,-5068
120,-111,29,3456,1567,-4955
108,-52,-16,2908,2956,-3633
107,75,-82,2350,3878,-2554
-87,43,-13,2066,4716,-340
-53,78,83,-379,4994,2453
-57,-81,77,-2693,3731,4656
-122,50,-30,-4203,-721,5677
117,-92,-74,-237,-3422,3592
34,105,64,-5535,-3965,1708
-27,30,-125,626,-5905,-3010
99,123,86,-1792,-3230,-3279
31,-22,0,-1126,-864,-3821
-93,68,-90,-1801,2962,-4015
114,61,-56,321,4285,-3016
-86,-63,-103,666,5288,-1840
-96,-127,17,312,5131,384
53,99,-73,-382,5135,2058
79,102,114,-1614,2621,2925
-83,110,74,-3482,912,3945
-38,-110,-15,-5395,-1007,3574
45,-64,26,-4532,-3687,2692
90,40,4,-6008,-7629,1415
-116,67,0,-4341,-10943,1790
63,-68,-74,-2976,-2280,-624
61,46,-96,-1270,-1576,-99
-71,-105,-52,-817,-676,38
-68,49,70,-1360,868,165
115,-114,-128,-1376,857,-114
97,-56,64,-3451,1760,789
-111,-36,113,-4092,2530,1623
-78,111,-37,-4997,2585,1933
-20,-91,-50,-4028,1834,1938
85,102,-1,-3172,802,2397
-81,-109,66,-156,380,3009
52,-70,39,387,662,2749
26,-31,7,-194,243,2466
58,-69,97,628,224,2780
21,-75,80,1422,335,1758
0,-67,-90,800,362,1502
-25,106,-100,434,855,1001
-75,43,-74,1216,191,795
-77,-39,-74,1836,218,328
-76,-97,-78,961,774,-293
-79,114,-67,392,423,-317
-64,56,-63,7,302,-488
-47,19,-59,12,208,-428
-52,-4,-58,-42,315,-343
-78,-13,-71,38,301,-255
21,114,5,4224,-2739,-3715
51,-8,62,2174,-2747,-4642
-43,-48,-24,4041,-274,-5793
16,-40,34,3346,479,-4940
-122,10,1,1795,2855,-3060
104,9,-50,-1123,4577,-1223
127,-10,-8,1214,4460,1062
-16,-42,-46,806,3603,2431
-74,99,-57,-356,2451,4123
-62,-47,-103,-3233,749,5690
-126,26,42,-2659,-2251,2978
48,110,-127,-948,-1906,26
-3,88,62,-4631,-5024,-2567
27,75,-71,455,-3061,-4864
2,-102,79,-1131,-2004,-4614
101,-117,-15,-165,1214,-3662
-83,-1,99,-10,2875,-2824
127,-47,-63,241,5006,-1436
-38,-17,38,835,5792,454
110,25,-121,819,5359,1158
-31,44,44,927,4497,3493
71,-60,-95,-888,2426,2956
88,8,13,-1112,1528,2366
-43,-99,77,-4045,-1423,2143
-31,80,-92,-5510,-3387,722
84,-120,106,-5451,-6538,-988
114,38,115,-2914,-11413,-1540
108,19,75,-4653,-5307,-982
12,-81,-23,-907,-3098,-715
47,67,14,-1835,-1225,-56
-31,-53,93,-1415,199,-41
-22,-92,-124,121,1433,-530
66,81,-28,-2002,1489,-133
-109,52,99,-2832,1201,66
-58,43,25,-2560,1620,1924
-45,127,13,-3046,1532,2133
5,-5,-40,-3717,1482,2012
92,42,-5,-2092,1408,2737
-69,-120,-36,-937,2010,2375
108,28,36,-1010,1054,2976
64,1,115,1069,130,3012
98,-86,110,2428,728,3059
88,-67,98,817,-53,2639
67,-93,122,-186,1197,1519
-6,38,-116,872,912,1214
-23,12,-98,1164,422,734
12,-48,-90,840,509,-75
-48,88,-42,960,141,-315
-55,18,-45,784,262,-143
-63,19,-41,-394,200,-185
38,73,-107,3437,-485,-4798
57,124,-40,3354,-148,-4499
77,-41,-5,3090,1086,-4656
30,-18,14,2638,2108,-3734
53,-25,-71,2364,3925,-2510
55,57,-6,2905,3999,-505
36,104,64,3176,4387,1756
71,73,-59,-148,4623,4487
18,-128,-83,-4415,913,6505
-115,18,20,147,-3449,3942
-56,75,-94,-5445,-3487,2511
110,83,-94,-2512,-6715,-2438
-120,112,35,-1293,-4203,-3473
-124,-28,-56,-1258,-1652,-4457
-25,-63,113,-1279,1652,-4148
24,-28,-58,-1769,3690,-3121
31,107,38,599,6335,-1705
120,94,99,1526,6511,-670
-99,88,-59,5209,6326,-231
48,13,97,-3118,3982,1682
37,41,-17,-3040,1496,3321
17,-100,103,-4091,984,3767
61,82,-43,-4515,-4089,4192
100,89,73,-4556,-5846,3607
-114,-48,41,-6454,-7326,3905
127,100,8,-3089,-5121,428
52,-57,115,-1636,-3297,363
-48,-31,-62,-1490,-110,175
-62,14,48,470,95,-363
62,102,86,-1140,2193,-506
70,126,72,-2965,973,135
-64,-116,-92,-4719,1647,637
-60,-109,93,-4190,2698,1313
21,-50,-26,-4536,2574,1760
39,95,-78,-4755,2256,1990
120,-12,-58,-2195,977,3083
10,-127,-44,-2391,1956,2615
7,-106,60,384,638,3010
89,-46,108,-129,1093,3010
78,-71,-127,-205,484,2737
59,-52,-54,-758,369,2206
13,-94,-50,559,-5,1262
-35,78,-24,1748,130,966
-59,-3,-45,1273,356,-104
-73,-85,-63,1138,227,-470
-73,78,-39,664,471,-243
-74,35,-57,238,410,-388
-78,30,-53,-142,27,-358
-67,-3,-45,-62,82,-280
-27,-13,-52,-68,355,-267
-33,-96,80,1819,-3589,-3255
-67,-125,-116,5149,-2819,-4841
96,79,-121,3392,143,-5809
97,-71,17,1786,-802,-5419
-93,-10,-118,1489,1612,-5268
-115,56,-60,2158,3108,-4666
-104,84,-128,2182,4210,-3542
-103,19,-121,676,5018,-776
-115,-7,-11,417,4573,2738
-87,-57,117,-2842,4007,4467
-11,-93,84,-3556,1810,5852
-4,-67,4,628,-1059,4264
64,43,-108,-5506,-4269,3562
115,-54,-82,-3909,-5800,-1315
-39,126,-91,289,-4922,-3497
-112,81,63,-2334,-1823,-3838
29,97,55,-1872,1145,-4401
-73,-20,-40,-2463,3850,-4068
-126,-56,28,-896,6245,-2509
26,-26,93,-3521,8108,981
85,-86,40,-1529,4259,3498
10,-17,-90,-4167,3939,4254
-111,-106,-43,2258,-397,2667
-53,-4,-16,-5935,-1958,2321
62,-39,-107,-4910,-8038,2037
-70,-13,-124,-4818,-11455,-636
-104,-6,108,-12218,-11566,-1500
63,79,2,-453,-1722,-1800
-29,-15,-55,950,-1130,-956
-126,41,83,29,-1171,-174
109,33,30,-686,1532,-315
45,-126,1,-123,1627,-78
53,-55,-45,-1936,2047,765
125,63,110,-3354,2064,1590
-76,74,11,-2932,2515,3047
-42,-5,-64,-4133,2232,3220
107,-110,-118,-3648,1313,3457
-77,-41,37,-1510,0,3606
9,79,60,-1780,800,2956
76,-113,-72,-2911,341,3897
95,88,-12,-2205,-859,2198
34,-25,111,3499,-1411,2272
20,-42,85,2987,-737,1631
-39,-67,-4,1513,809,856
-89,93,-19,1302,220,449
-111,30,-27,458,217,71
-77,-71,-45,726,582,-234
-50,-114,-74,967,723,-751
-49,56,-55,1053,561,-1039
-14,28,-64,219,964,-841
-67,94,-119,5692,-1301,-1691
-62,-40,62,4608,-2379,-2219
30,-58,34,2024,-723,-4728
63,-30,41,3398,127,-4413
27,-72,20,2438,1200,-4547
22,13,-99,2632,2359,-4038
23,114,71,2181,3536,-2558
-26,-97,-19,1714,3605,-450
-50,-31,51,864,3812,1618
-29,4,123,-690,4186,4004
-45,-66,-10,-3467,2579,6105
38,-39,122,-3546,-2373,5274
90,121,-34,-1730,-2513,2370
-77,-28,4,-2164,-4733,-316
-107,-53,36,-2299,-5190,-2911
-97,-119,-119,-2659,-1860,-3980
-30,49,-83,-1087,1209,-4749
86,72,32,-533,2818,-3692
123,-16,127,264,5306,-2464
-118,-36,-103,-584,5663,-950
108,113,-117,565,5073,1143
-24,-79,11,-891,3990,2481
-7,66,-37,-1325,2148,3034
86,-110,69,-2916,986,3772
-39,-27,62,-3847,-1623,2856
-120,-118,17,-4742,-5257,1307
-39,-37,81,-4242,-9861,1401
-114,-108,-105,-818,-5869,-73
80,-73,53,-2543,-3633,1295
-54,69,93,-1969,-1507,1054
-115,-68,73,-5,-392,15
119,-118,109,-1707,1339,293
94,-115,119,-1903,1280,-289
107,-67,104,-3687,2333,-64
-52,-21,105,-3902,2678,684
-12,34,35,-5000,2709,1241
50,101,-31,-4716,1971,1462
-121,21,-44,-3356,1733,2719
-31,15,52,417,1418,3330
91,96,71,247,2280,2609
-83,115,79,398,1273,2405
-95,45,92,1267,1137,2417
112,-107,87,-1958,767,1900
17,58,120,12,-305,1724
8,47,-73,254,322,1207
-32,-27,-48,1038,633,1116
-74,-64,-40,954,321,683
-82,-65,-15,-153,-29,253
-20,106,-32,192,908,-256
-36,95,-64,122,316,-598
67,-47,-24,4637,2020,-4224
-45,119,-47,4260,1738,-3123
10,-60,-128,1860,3623,-1439
-36,49,-36,2178,3116,972
-49,95,-73,5078,3372,4179
-8,-11,54,-1962,3256,3465
97,-30,48,-146,-1633,5007
112,-18,116,-5135,-1967,4136
46,-99,26,-4820,-6120,580
-82,-14,-100,-1988,-5547,-1781
-19,-91,-72,-3084,-1134,-3451
5,106,-96,-2204,1012,-4084
-127,64,36,-827,3592,-3480
96,79,117,-121,4656,-2296
79,-28,-50,-29,5157,-515
70,-113,-87,612,6719,1445
120,-7,5,-2561,4629,2633
-30,34,92,749,1946,2605
-82,-8,-45,-3989,2003,3252
-45,-6,-1,-4677,-2141,2627
67,-33,-24,-4101,-7176,1731
120,-75,123,-6272,-9094,3300
59,-77,-128,-3708,-8304,537
11,-46,49,-3812,-1512,-169
-86,-51,40,-1961,-1864,470
-83,-125,57,-1176,538,242
86,10,16,-654,1203,84
18,-40,-49,-1020,1849,-1204
60,63,-68,-1895,1736,-872
-119,57,90,-3559,2014,-266
-56,70,23,-4667,2130,1041
-74,83,-17,-3533,2092,1102
-21,-86,-9,-2673,1664,1667
122,54,25,-1571,1628,2341
-72,36,46,397,1549,2591
-19,-41,96,-2056,754,2411
82,-32,27,-2406,2104,1819
39,90,-123,2985,-27,3223
79,-122,-86,625,323,2365
48,50,-115,961,788,2121
10,104,-54,-893,-455,1773
4,28,-54,46,-16,944
-69,-71,-22,1769,38,658
-95,-126,-29,1884,145,-1
-116,79,-22,901,220,-469
-68,15,-27,-124,517,-670
-18,-7,-28,-443,240,-341
-54,-6,-35,-509,-199,-192
-74,-7,-41,-531,12,-380
-58,-9,-47,-606,319,-258
-53,-111,-77,5524,-2179,-3536
-119,-15,-29,2916,-448,-5684
-109,11,4,3359,-65,-4843
36,-1,59,2208,1617,-4333
-45,67,-68,1705,3306,-2849
-35,-62,-4,1783,3615,-1213
-32,-34,-39,2863,3961,1644
126,-95,69,1435,2836,3127
-60,109,125,-3132,4032,5454
89,-61,-81,-3548,-711,4347
-31,-101,76,-424,-3577,2965
115,105,-121,-5794,-5485,-555
57,124,-65,-708,-3777,-3067
47,-102,-104,-2873,-1459,-3398
79,25,110,-1343,1861,-4094
41,-121,-64,293,3360,-3413
96,126,-53,-2057,5676,-2355
116,-33,-93,-735,5502,-262
90,-72,75,689,4284,1790
-69,0,1,-1950,3298,2817
41,-89,-69,-1248,2019,3142
66,104,24,-2388,592,3983
75,38,13,-6809,-1863,1895
127,99,-24,-1680,-3132,1546
-56,-110,-57,-7339,-3393,-590
3,-49,40,-2251,-7859,-1404
8,-43,-74,-4499,-10356,-2620
7,71,88,-3381,-1479,-1827
84,98,-107,-2552,-3040,140
-113,49,-75,-104,1019,-435
67,-34,-59,-361,-111,158
-26,117,-81,-1082,1745,173
-18,-20,10,-773,1555,451
82,19,-108,-2293,2731,1241
-69,-119,-40,-3184,3348,1456
-1,-17,-62,-4230,2089,2188
97,59,-118,-2828,1765,2320
-118,-34,-11,-2324,409,2779
-5,-24,31,-1020,1059,2505
3,0,84,211,997,2795
54,-8,70,676,1076,2025
35,-14,-124,311,39,2243
-5,-83,-79,826,21,1941
5,99,-76,1382,573,1750
-27,83,-78,977,556,802
-50,31,-49,872,366,462
-40,-73,-42,1218,634,307
-86,124,-29,1563,345,97
-44,72,-48,673,1682,-377
-58,20,3,-152,730,-1163
-26,64,-1,6488,-1278,-5451
5,19,13,3536,168,-5530
-55,-6,71,3213,-466,-5646
57,-94,123,3559,1382,-4443
28,25,42,1701,3519,-2809
54,83,123,3355,4865,-245
-100,38,71,6557,4434,322
69,32,104,-1125,2682,2252
-114,-99,115,-4706,2763,4791
17,-35,-26,-3166,-200,5932
69,-8,1,-2711,-1775,2743
73,-70,-116,-4812,-5104,-1031
23,122,21,-158,-3733,-2981
-77,17,-71,-1663,-674,-3850
29,-36,80,1556,1952,-3426
15,50,-51,1082,3416,-2376
73,51,32,-70,3326,-1921
50,121,-45,1733,3650,-723
-98,-96,-122,-1139,3443,287
76,109,-4,-2273,3735,1901
107,-87,63,-1883,1476,3266
-96,-15,43,-6317,2684,3235
-14,-59,-116,-4091,-3879,2294
8,-34,54,-4553,-6445,1328
46,109,-64,-2469,-6503,-424
28,61,67,-305,-7067,-680
32,124,82,-1738,-2771,-290
105,91,-75,-925,-898,291
68,-75,-60,-186,-331,-105
-108,25,-20,-1227,1122,-172
117,99,-101,-2233,1714,-611
127,-121,32,-4003,1618,-843
-15,-14,101,-7490,2732,839
-12,-19,-58,-6036,1428,1597
60,84,-34,-3021,384,2393
106,-36,21,-1441,1038,3045
-72,-105,0,1404,334,2326
-57,-122,4,84,1213,2554
-50,-87,-12,-1330,1357,2011
-56,-89,87,-1055,600,2300
-26,-85,-116,-421,1300,2142
-1,-122,-104,1011,1097,1652
-55,68,-105,1416,713,1096
-68,27,-100,615,428,728
-63,-46,-104,649,357,-241
-93,-103,-81,1008,289,-573
-89,55,-80,1243,718,-544
-62,60,-71,244,252,-306
-34,36,-62,-69,99,-123
-45,57,-51,-695,-326,-258
-56,51,-83,5120,-679,-3547
40,49,57,2597,-988,-4252
123,124,41,2368,222,-4622
71,-75,6,1854,1380,-4102
39,-112,-100,2190,2706,-3162
45,55,-93,1575,4329,-1333
70,-55,-62,-475,5013,336
-109,97,-82,-521,5955,4321
-83,55,117,-4958,691,7079
-2,77,40,-1126,-3562,3127
-78,20,26,-1770,-4017,-20
-39,59,44,-1201,-4998,-4096
70,3,-100,-156,-2532,-4157
-69,80,91,-1356,-181,-4465
-100,-86,-1,-284,2006,-2846
-127,23,-6,-275,3773,-1817
-94,125,98,-2228,4576,-442
-97,-90,127,456,4649,1363
52,48,-107,-1370,3774,2977
-116,16,116,-2149,2311,3365
21,96,-34,-1468,134,3097
-60,-51,79,-3355,-1744,2272
84,-50,33,-2308,-3654,1040
26,26,43,-4548,-5928,184
84,-128,21,-2908,-6019,-933
81,-81,-65,-635,-4685,-1410
75,68,113,-1727,-3392,-728
-29,110,-56,-1642,-682,150
9,-62,41,-332,-162,-150
127,-121,69,-1773,1938,-713
-125,-12,-98,-1910,214,-30
-63,-10,117,-2142,988,684
-97,85,28,-5869,1367,1856
-57,-120,-29,-4839,829,1681
15,-75,-15,-2199,1305,2403
103,-128,11,-139,1018,3368
-98,-33,45,247,234,2205
-23,-17,-15,-191,824,2153
-20,-19,60,-508,502,2046
-2,-94,54,490,1091,1858
-4,-36,-120,-642,326,1367
10,121,-104,947,1973,186
16,99,-102,1541,1268,1179
-61,64,-114,844,152,1013
-67,29,-93,80,-434,659
-48,-15,-101,-111,199,384
-29,-51,-94,38,361,-414
-30,-120,-110,549,353,-550
-40,117,-107,47,127,-552
-11,66,-114,324,354,-499
66,-34,88,-6061,3079,453
88,-101,-21,5534,-2437,-326
-49,-70,99,3560,-3500,-1632
93,-6,-67,4703,-3452,-4976
-5,-105,-89,3885,310,-5893
74,-65,-27,2463,-265,-5111
-89,82,-19,2831,1791,-3501
-74,-70,102,1294,4173,-2044
-48,46,-93,1278,4227,-76
21,70,-95,539,4979,2355
106,100,-122,-1214,3734,4860
86,-74,-80,-4093,1076,5989
-36,-5,-92,386,-2309,2527
-108,-1,-10,-4338,-3370,815
-21,-31,-24,-2145,-5563,-3128
1,80,90,-509,-2829,-4232
-6,18,96,-2138,-231,-3912
14,-86,65,-206,1964,-3271
-75,-3,102,-51,3897,-2073
-46,-2,-90,324,4711,-614
76,-4,-4,-99,5102,763
-124,-79,14,42,3942,1853
-8,-4,-108,-410,1549,3773
12,-46,62,-1212,662,2435
5,13,-9,-1976,-1077,2854
-67,-114,93,-3865,-2993,1984
43,1,23,-4464,-5982,810
51,-41,60,-5014,-6718,-30
-82,37,88,-1100,-5120,-341
92,123,10,-2178,-4431,-213
10,109,100,-1661,-1188,180
121,-21,23,-799,1006,268
75,97,-91,-240,1012,-387
14,-69,-46,-1199,1750,-333
33,-85,-61,-2525,1738,287
-92,40,37,-5393,2175,906
-65,26,-91,-3778,2393,1602
-48,-60,-74,-3745,1793,1651
33,24,-70,-1693,1024,1966
-124,-82,23,-1582,1063,2383
-94,-85,45,513,944,2677
20,-3,101,-741,1422,2352
48,-48,3,530,1874,1831
2,-64,122,1181,-622,2623
3,-24,119,-1602,509,1049
-48,125,-107,313,410,778
-45,11,-119,2202,427,815
-58,-61,-117,2679,-300,271
-52,-95,119,2177,-68,-320
-37,-107,118,-117,730,-985
-44,3,50,3700,-2833,-3539
115,-53,-41,2149,-1090,-4887
71,-40,65,2296,-466,-4886
-3,7,-127,2554,1067,-4306
-85,92,65,2836,1845,-3474
123,-36,7,1477,3416,-2029
-108,-124,55,-1707,5203,-780
-111,-30,27,-124,3541,3402
123,-78,96,-1787,3393,5371
105,8,-72,-1117,-1623,5051
63,2,-55,-457,-1836,2496
44,-7,87,-3104,-4056,-258
-91,-53,120,0,-4692,-3482
-80,-104,-80,-2358,-2230,-4107
-54,79,1,-1007,-414,-3936
57,-128,-67,65,1073,-3051
-37,59,76,-92,2856,-1922
-108,5,-111,531,3704,-448
-25,35,14,239,4703,811
15,3,94,-38,3631,1754
3,63,6,-2132,4138,3552
43,110,-122,990,970,3088
-48,124,-42,-356,1000,2763
30,-42,-118,-4646,-2564,1967
25,-38,-99,-3812,-4278,1114
69,51,109,-5611,-6216,499
53,-46,-85,-3041,-5318,-603
51,-4,83,-3184,-5101,-50
0,70,34,-2592,-775,249
-19,-61,54,-1180,647,-453
-101,94,47,-1908,1154,-780
70,-19,-28,-2590,788,-590
112,18,113,-3713,1628,725
94,91,18,-4659,1630,1625
-87,-24,-37,-4180,1514,1777
0,45,29,-1865,939,2191
60,-105,25,-1490,-105,2657
-88,-14,47,-633,-50,3056
21,17,70,-21,-33,2610
55,16,87,205,1242,1639
64,-2,88,1116,49,1800
23,-39,-108,1666,-336,2090
9,-49,-96,1112,551,1273
-37,-111,-121,1195,746,773
-42,75,-108,1254,436,488
-30,-23,125,1066,653,-21
-78,-68,123,676,295,-242
-76,-118,-120,316,272,-347
-22,93,123,-88,567,-492
-18,73,122,166,291,-447
52,58,-33,4941,-2013,-2968
-41,120,-102,4747,107,-3958
79,67,42,2964,-546,-4775
114,99,-109,1834,868,-4925
86,46,-101,1923,2621,-3814
61,-19,108,1180,3379,-2809
-109,-91,2,1336,4229,-1486
-76,-43,103,282,4398,189
-43,24,-71,-1906,4567,3085
-112,-110,-68,-3663,1241,5863
12,-10,-117,-760,-493,3797
19,-66,41,2302,-2408,3389
-92,-42,58,-5203,-5606,578
45,-84,44,-233,-5527,-1861
2,-21,-76,-1638,-4823,-3326
-118,115,87,-2767,-2373,-3836
-13,-61,102,-993,1446,-3437
7,94,-45,-1042,3266,-2159
72,125,1,-322,5557,-1222
-121,-115,-40,1062,4348,-40
-91,106,-120,-70,5413,89
41,-15,106,-2086,4196,2704
115,79,-86,-2150,2837,3247
-2,12,2,-3054,628,3474
109,107,-17,-3729,-1451,2166
-18,47,-31,-3199,-7292,1915
-97,-78,117,-3556,-6982,1272
125,111,-127,-32,-5993,-868
-112,-104,105,-2475,-3258,569
-70,105,117,-2241,-1064,202
46,-66,-71,-403,-448,253
-19,43,-24,-1694,1636,-530
-103,98,106,-2827,1186,-43
-70,-91,-87,-4866,1561,1412
-45,19,55,-5158,2302,1330
-13,100,19,-3142,493,2266
69,113,19,817,1216,2480
-118,-21,18,187,1714,1932
-84,54,-45,-1917,1387,2480
-18,89,-54,-1739,1703,2301
-24,121,11,-1021,1058,2302
77,-60,41,-1625,1387,1794
13,-112,109,304,676,1393
-9,103,126,1708,204,1402
-28,58,104,1262,498,423
-39,-17,114,1060,653,64
-59,-74,100,78,488,-78
-80,-106,-126,-782,25,-164
-61,111,-114,41,24,59
-46,113,-96,-346,-2,-292
81,104,-18,5295,2801,-4121
14,-124,-62,4677,-222,-3297
119,45,-48,3220,2391,-4012
34,-97,-81,2075,2456,-3048
22,-50,20,1899,3274,-1692
32,-111,-102,-97,3982,-129
52,23,-17,-166,3712,1923
-108,-30,16,-729,3326,4149
125,71,122,-1244,1842,4968
21,-32,-44,-1559,-1116,3499
3,82,-78,-1369,-3492,2619
-16,72,43,-3965,-4499,762
48,-10,95,-1220,-5021,-2932
0,33,-58,74,-3868,-3732
21,84,119,-2442,-1812,-3863
16,-112,-91,74,1929,-3607
-76,112,-28,236,3313,-2410
-60,-111,23,-499,4838,-952
106,-118,-72,792,4704,556
-121,60,73,23,4854,1282
34,-24,122,-2389,3527,3113
89,-30,30,-664,2635,4193
73,-45,70,-4149,-97,4573
29,-87,-93,-1579,-3003,1160
-70,-45,106,-6128,-4947,421
53,30,-14,-4725,-7431,-63
31,-39,-104,-1420,-5930,-1711
-111,-18,87,-2232,-4293,-353
-102,5,-67,-1964,-1042,-374
-55,-79,71,-686,192,-577
96,46,-6,-435,2048,-1079
61,-60,-63,-2162,401,-267
116,43,81,-4545,1072,534
90,13,25,-4885,1937,1435
-119,99,-44,-4707,1560,1224
-49,-25,-18,-2826,1257,2134
35,80,26,-894,1182,2295
-83,-69,43,-1055,1586,3374
25,-38,51,-1122,1616,3303
65,-8,117,784,258,2580
96,-24,98,-140,585,2796
42,16,-81,-671,-406,1795
39,-79,-63,1350,188,1570
5,-112,-67,842,622,684
-29,78,-107,-77,238,129
-39,16,-81,131,-1,149
-79,-65,-90,423,189,-109
-68,-97,-97,111,444,-209
-73,127,-104,-177,329,-482
-58,85,-107,522,208,-229
-56,59,-22,4301,-1988,-3749
38,103,76,4176,1368,-4722
-41,-106,59,3584,1076,-4317
-53,-6,15,2696,2144,-3696
-51,-3,85,1334,3544,-2419
116,37,12,-1360,2615,-71
-109,0,-49,-483,3802,2765
31,47,-10,-1094,3498,4382
120,109,3,-860,899,5273
-104,39,-101,-1656,-2564,4403
-21,88,86,-2388,-3463,1562
-128,51,-25,173,-3234,-333
58,-115,-97,-2331,-4434,-2228
-116,18,86,-1119,-3739,-3873
-119,-29,-8,-1333,-785,-3650
-32,21,-30,-743,1395,-3321
-91,99,80,146,3047,-2288
-22,82,-87,-233,3575,-1667
31,40,-19,-1321,4383,80
-125,-18,96,617,5294,1539
82,73,-35,-707,3816,2575
-120,-50,33,-85,2639,2843
-16,-28,-90,-700,986,3342
-7,-101,53,-4121,-777,2055
-22,-75,-13,-5272,-4304,1860
-53,78,15,-3649,-5899,402
-16,17,-58,-3136,-6604,-7
15,34,108,-3343,-4963,-1339
-79,117,-66,-1769,-4302,-896
75,65,-14,-1857,-1303,-154
-46,125,-86,-1107,454,-146
63,15,-100,-1079,1160,-6
24,-71,21,-1983,1182,179
58,9,-113,-2818,1701,572
92,88,26,-4772,1857,2339
93,-92,-46,-4414,2170,1852
-51,24,-21,-1854,846,2477
82,-101,-12,-1441,1676,1959
-126,-39,31,-223,697,2570
-44,-12,28,260,563,2365
-15,7,65,-6,494,2330
-33,-48,68,1037,432,2403
8,12,117,-259,517,1728
-7,-100,113,1153,995,1289
-58,79,-107,2281,432,1437
-42,65,-119,966,494,460
-40,-13,124,701,126,172
-104,-80,-102,-419,118,-266
-117,87,-104,605,643,-15
-77,79,-111,852,434,-28
52,-93,1,7344,-223,-4150
76,80,6,3385,-733,-5061
-116,60,-95,3083,1300,-4851
64,97,-64,1336,2191,-4238
74,-5,-61,1446,3705,-3236
52,-100,106,892,4346,-396
48,3,107,434,4397,2295
-105,127,-95,-1113,3921,4277
-107,-70,-69,-1679,367,5288
-58,41,105,-538,-1052,5618
23,127,-118,-563,-1754,2654
68,-24,108,-1315,-4070,160
-87,89,10,-1922,-4422,-1925
-116,109,112,-1637,-3154,-3342
115,-55,53,-1919,-1238,-3826
30,-100,-12,-483,1121,-3453
-74,39,-112,-369,2127,-2249
-113,-61,-36,451,4209,-933
-56,-66,47,306,4372,486
-14,-100,-77,-253,4635,1917
-84,-12,26,-1602,3726,3085
30,-30,100,269,1835,3221
-53,121,-68,-2519,1193,3593
-115,56,-109,-4217,-2385,2294
-28,8,-110,-5735,-5759,1282
21,75,-27,-4120,-6839,236
-9,-26,-12,-3088,-5016,-503
-41,48,20,-2053,-3874,-706
30,43,61,-1859,-1764,29
-98,-127,34,-1631,493,213
58,-45,49,149,-28,182
-35,-52,101,-1708,2633,-233
7,-49,-77,-2366,1905,-786
103,33,72,-5534,1793,329
-55,-123,-87,-6403,2027,884
-48,-73,-59,-3775,1106,2708
-33,-57,-9,-4304,158,2181
95,16,88,-1396,383,2403
-85,52,-99,-220,198,2287
-16,63,-88,1321,811,2236
-9,69,-97,1387,414,2824
-12,95,-87,103,414,2019
-20,-28,-73,1187,574,1714
-21,-77,-92,793,510,1107
-54,79,-83,1694,691,814
-72,36,-100,720,551,284
-57,-2,-73,-121,368,-36
-32,-59,-85,240,513,-9
-57,-100,-82,588,245,-268
-48,124,-67,826,239,-497
-28,108,-104,-3161,2068,4775
114,-10,-44,6291,-2654,-53
-58,123,-50,2315,-4200,-2164
-121,1,-49,3092,-915,-5010
97,58,-123,3339,-2130,-4842
93,-117,35,2723,458,-5028
-11,-29,-59,2682,759,-4593
-99,-89,6,5034,2370,-3967
0,47,-31,2357,4974,-1557
32,-104,-95,3891,4915,2001
-2,111,71,1819,5381,3433
-77,-128,-42,-5470,5166,4317
77,87,-81,-2745,376,4502
-5,-35,38,-4977,-2267,2586
-18,8,82,-5983,-5224,-981
-12,22,-103,-1563,-5010,-2906
-44,-34,-1,-2421,-2400,-4077
15,-77,-44,-1067,411,-4021
88,9,32,-596,2494,-3302
94,-64,96,529,4351,-1320
-65,-19,-127,-67,4684,-374
44,-46,-45,2,5017,1060
7,-26,-111,-1428,4451,2237
-74,47,-10,224,3481,3015
44,-59,115,-1383,1425,2910
17,123,-101,-3892,513,2738
-13,28,104,-4045,-3310,553
-124,44,60,-4061,-6272,-467
18,69,-48,-2857,-7342,-949
16,-20,77,-2883,-5133,-1762
122,-78,-66,-2731,-3374,-491
-108,-10,19,-2103,167,13
75,-82,95,-880,1441,-662
90,21,19,-426,699,-955
74,-121,108,-1108,370,-276
119,-57,99,-2670,1554,102
-89,6,11,-4344,2611,326
-38,58,-51,-4166,2144,1106
43,-101,-35,-3111,1594,1674
-120,-38,11,-1982,1349,1716
-33,90,47,-1746,368,2282
13,-123,53,-2457,796,1932
62,97,108,-92,269,2014
64,-96,-115,-412,390,2061
46,-99,-94,-658,136,1715
66,113,-91,47,814,1714
16,91,-52,1132,-170,2031
22,85,-63,537,80,1210
0,26,-66,955,539,723
-30,-28,-83,751,310,255
57,51,-8,5971,-1000,-3484
32,-5,23,2655,-2237,-4662
-110,-9,-19,3587,1290,-5181
0,59,-90,2071,1092,-3779
-41,74,-55,783,4296,-1944
-17,107,-87,-677,4022,-132
23,91,-14,108,4032,1418
62,43,20,-425,3164,2769
26,22,-81,-3288,2189,4301
6,-55,-66,-3417,962,4701
116,3,108,-303,-570,2749
103,-27,48,-2473,-3830,2066
-6,-39,-68,-4980,-4281,-960
97,-121,126,-2131,-4185,-2842
123,5,111,401,-2931,-4662
-56,60,-86,-2503,-1963,-4569
61,-73,-21,-911,-69,-3697
-105,109,100,-774,2877,-2702
19,115,-107,-191,2972,-942
29,-101,-24,-216,4034,493
-70,-55,60,-1752,4601,1580
63,-50,103,-1346,3696,3121
65,-85,32,36,2562,3738
-10,-108,-20,443,1945,3850
-80,101,64,-1115,-1044,3107
-93,11,43,-2737,-1681,1796
6,-38,-26,-3677,-3303,-102
31,-88,-108,-5915,-3555,-1111
-67,123,-77,-1750,-6667,-3701
-95,39,-16,-1989,-7521,-1350
8,75,-6,-2830,-3836,-2286
-128,107,15,-1398,-1996,-393
113,117,-14,-893,206,-564
-85,13,-23,-1072,1273,104
-104,-45,98,-2666,1519,111
-81,78,7,-3892,1687,320
31,100,92,-3421,2079,1945
57,16,46,-3400,1410,2501
-83,72,41,-1991,878,2769
58,32,80,-2258,894,2977
-124,14,117,153,961,3157
6,111,-118,-166,821,2936
74,109,-116,378,325,2783
73,112,-98,148,159,2467
35,108,-77,143,-470,2374
-25,-10,-61,1850,45,1803
-30,-15,-92,1003,366,823
-61,-64,-109,595,206,489
-83,89,-117,748,221,-56
-78,25,-127,704,124,-519
3,-35,99,2684,-2424,-4498
-26,50,65,2726,104,-5943
67,48,-57,3085,-40,-5100
-22,110,-14,1947,2360,-3910
-60,-98,114,1234,4153,-2428
-11,-128,-89,717,4225,-120
58,59,-4,864,4488,1639
119,47,-17,-1197,3913,3423
91,-117,39,-1830,2300,5487
-11,76,-89,-811,-659,3454
30,-28,69,-3139,-2175,2494
13,113,-19,-2510,-2916,-1963
8,-72,-37,-670,-5059,-2554
28,-76,74,-2078,-4809,-4671
80,-19,-22,-2005,-1335,-4281
29,-69,-110,-672,284,-3159
100,76,-93,-740,3194,-2141
59,55,-91,-907,4031,272
-64,-60,10,-1554,4943,934
110,35,29,517,4686,3029
-127,-75,-49,-1454,3602,2804
54,-68,-59,1951,2274,4034
-62,-117,13,3595,684,1906
115,-112,-114,-7271,1816,3267
115,89,-56,-3436,-2513,1611
8,-118,-126,-3519,-6701,-101
30,-121,-114,-673,-8408,149
4,15,-33,-2924,-6284,479
-71,80,-75,-3983,-3703,512
-6,80,-15,-1914,753,-846
74,-91,124,-1314,-708,-2
28,45,-37,-1159,1912,-837
-10,-104,-6,-2147,854,-122
66,2,88,-3732,1122,-102
118,61,21,-5700,2081,920
97,-88,-39,-5020,1463,1037
-68,-2,2,-3135,1185,1567
-3,80,23,-1617,1557,1318
90,-103,86,123,512,2307
-101,-50,41,-238,594,2323
-87,-27,41,-1509,463,2210
-14,-61,-122,-841,252,2364
38,-104,-117,-42,1121,2102
84,-95,-75,150,353,2727
125,-67,-51,344,145,2440
81,-113,-71,1119,323,1529
17,74,-101,1535,214,1337
-11,-3,-110,1650,422,825
-22,-11,-125,395,181,185
-53,-47,-103,-117,-71,-386
-99,70,-59,4156,2818,-4657
-34,-8,115,4759,-3022,-4534
-49,123,33,3479,850,-5683
32,64,-107,2664,377,-4884
-41,-97,-95,2185,2726,-3243
-101,28,15,995,3962,-1643
-79,-28,126,1715,3905,786
-5,-102,-63,851,4716,2165
63,-55,-46,-2966,3473,3508
-114,23,78,-4448,1711,5614
41,54,66,-3048,-975,3118
52,16,-11,-1420,-1574,2532
-16,-27,49,-3394,-3940,-1159
-69,72,-87,-1073,-4847,-3772
-126,4,-115,-10,-3522,-4171
-112,-88,-4,-484,-2600,-4388
6,-36,-6,-759,74,-4018
-118,54,-72,372,1933,-2918
39,61,10,-213,3354,-1726
64,24,127,314,4667,-124
-50,4,-62,-364,5345,1452
123,-87,-86,-994,5674,3427
107,-126,27,-1900,2378,4005
-53,-79,-52,871,1545,3291
-79,-64,-46,-3377,-863,2487
93,8,-103,-5488,-3079,556
48,89,-73,-5611,-6364,-191
14,-46,12,-3641,-6714,-2038
-78,-94,-14,-1296,-7676,-1251
-120,-39,54,-1867,-3247,-1870
-56,70,-18,-2323,-268,-287
-45,122,119,-1932,63,-503
-59,29,-25,-1325,736,58
-19,-49,82,-2501,1148,-166
-4,-2,-89,-3650,1720,493
37,114,28,-4420,1656,1592
75,-28,26,-4547,1125,1723
-114,35,56,-1765,1096,2066
8,-50,88,-1064,883,2558
116,-47,66,380,1206,2469
-82,43,73,-46,675,2753
6,17,52,142,1079,2696
13,14,69,686,298,2863
24,53,116,-500,266,2324
11,-42,91,585,830,1383
-29,-91,-116,933,331,1296
-18,-106,127,415,429,452
-59,35,-97,1405,523,512
-72,-3,-92,895,100,200
-82,-28,-93,-262,309,-263
-38,-96,34,5041,-1726,-2772
-81,28,-125,5212,-3728,-3079
-127,-40,-43,2335,-1236,-5525
112,9,108,3179,-699,-5037
43,-128,-109,2545,119,-4815
5,19,-84,1538,1187,-3917
-88,-10,-104,2544,2969,-2674
-79,-63,42,623,4842,-667
24,90,-96,1067,5145,976
32,-122,117,-612,5577,2851
-35,-105,-59,-2699,2762,5556
78,67,45,-2604,-191,3600
107,109,-55,-1360,-2064,2647
27,121,-106,-2936,-5111,732
-98,14,94,-1909,-3990,-2783
79,-20,67,-188,-3672,-3072
-28,29,-103,-1623,-1529,-3916
68,-19,-119,-76,797,-3389
-84,122,-70,140,2175,-2890
-93,105,51,119,3243,-1550
-36,33,-91,451,4302,-665
38,-74,12,-185,4853,809
73,-65,114,-742,4636,2943
-50,12,27,-127,3089,2293
100,88,48,-1429,1610,3509
-126,-77,97,-6270,133,3178
-14,-13,50,-5222,-4303,1209
120,88,94,-4998,-5338,689
-20,49,19,-3939,-6797,-108
-99,5,110,-3191,-5959,84
-26,-68,14,-3464,-2472,384
63,99,122,-1477,184,-643
4,73,68,-1455,315,-343
-2,-81,123,-2060,1585,-782
-35,26,-15,-2974,646,-369
27,97,-122,-5226,2797,36
68,-92,-13,-4236,2374,803
117,-72,20,-1928,1091,1216
-18,86,14,-2286,908,1583
5,-118,14,-3005,641,2075
103,-95,84,-426,122,2549
-76,9,115,-1305,514,2335
-41,31,125,-261,278,2354
4,27,-107,31,-228,2234
4,-10,-111,900,143,1995
11,-12,-93,106,-12,1746
-13,-63,-107,171,411,1237
-39,-115,-44,1269,324,1407
-42,102,-79,1232,452,1032
-68,84,-110,369,92,525
-73,111,93,1827,-2864,-4084
-54,9,35,2404,-1280,-4809
83,100,-116,2402,-2317,-5646
118,-103,-15,2418,-819,-5977
121,-34,5,2142,-270,-4742
-6,85,-70,700,2636,-3792
122,-11,20,-1402,4237,-1809
-81,-127,-25,-2524,5837,1691
-28,-65,-69,-2473,3607,4388
112,-110,94,-2718,2422,5341
-119,29,32,-501,664,4683
-76,-103,-107,-2537,-2066,3103
-34,-107,17,-3156,-4024,957
-114,45,44,-1655,-4564,-1736
22,-123,-71,-1004,-3685,-4566
105,18,-46,-953,-2037,-4946
116,-110,-66,-358,975,-4059
51,-115,-73,230,1686,-2950
113,72,-27,255,4301,-1473
-102,56,37,435,4068,30
58,71,-120,151,4697,1309
13,125,49,-1002,5662,2215
-126,-124,3,-763,2972,3038
66,-97,-114,203,2428,3853
-21,-115,61,-1656,729,4077
62,106,94,-2947,-767,1504
-31,-114,-10,-5680,-3386,-646
-25,14,68,-3655,-8717,-2027
-47,-19,-108,-3133,-7175,-1973
-109,46,-2,-3516,-7628,-1612
-56,3,-22,-1942,-1534,-2106
-111,-51,-94,-759,-1950,-631
-24,-67,73,-1663,1462,-220
-128,97,-24,-1166,610,-43
-84,96,-59,-3345,559,75
3,-104,-88,-5413,1922,1309
4,-94,60,-3047,2073,2347
-114,29,72,-2771,1439,2247
8,117,36,-721,1691,2634
114,-45,61,-1416,1748,2298
-18,29,72,-592,1183,2747
29,-2,48,696,911,2649
103,74,-117,194,179,2869
98,29,98,309,671,2033
48,-10,-120,147,312,1608
63,-89,-121,1280,577,1421
-14,109,-110,1108,787,952
-7,86,-97,460,241,863
-20,6,-105,479,230,387
-38,-6,-80,324,104,27
5,120,91,2913,-2551,-3216
-108,-26,-104,3000,-1786,-4745
106,38,47,2913,-672,-5060
-36,124,1,2030,350,-4242
61,-102,123,1830,2013,-3263
52,16,-33,1934,3300,-1666
78,-63,30,1049,3778,117
-73,-25,58,-822,4023,1717
-58,-68,126,-2126,2537,3763
-55,94,57,-2221,1378,4312
-70,-79,49,-878,-308,3252
-11,59,74,10,-1156,2315
119,110,96,-2517,-3008,598
-16,20,-82,-723,-4202,-1810
31,-72,39,699,-3300,-3603
-125,-26,-66,-1765,-2124,-3861
-93,21,0,-760,236,-3737
39,35,-116,604,2591,-2316
9,-34,-54,425,3356,-1128
71,-66,-21,328,4076,580
-99,47,79,-2291,4075,1216
-34,-97,66,-3425,3394,2344
86,-70,-60,152,702,3734
63,-42,-127,-2797,205,3742
-95,-77,31,-1749,-1768,1345
95,-26,-16,-2082,-4183,-234
78,-60,-71,-4356,-4748,-2328
-124,11,53,-2629,-4753,-2933
84,49,-116,-756,-3772,-1821
13,-58,-39,-470,-2866,-848
77,-19,-39,-991,-1461,-501
92,41,-79,-130,345,-290
49,-96,18,-827,537,95
53,-1,-88,-2386,1825,-1044
107,81,117,-5717,1706,-702
-72,115,12,-5592,1271,875
-32,56,-30,-5087,67,2387
-14,112,95,-1580,-1097,3378
95,4,100,-2005,775,2722
-50,46,-108,-940,692,2483
-18,124,-93,-779,-370,2107
3,99,-62,125,-555,2345
30,80,-13,537,-223,2068
24,38,-50,1210,649,1651
3,-9,-69,1528,42,1453
-23,-78,-98,1038,209,883
-45,119,-94,975,289,783
-63,77,-97,646,257,495
-62,12,-88,578,387,-51
-58,-4,-88,137,171,-301
9,-118,-115,6913,350,-3715
97,50,78,2852,131,-4649
125,49,-5,3239,1755,-4209
-27,11,-71,2461,2730,-3349
-21,-121,69,2000,3649,-1654
33,80,-108,1128,3921,-141
51,-3,-96,134,3554,1932
87,-27,-21,-1934,2860,3348
91,-4,78,-3516,1735,4921
20,-64,-40,-2163,-2147,3941
3,-120,24,-30,-2422,2047
-52,44,-17,-2490,-3491,-279
64,49,70,-439,-3848,-2583
42,-69,-87,-627,-2897,-4006
48,-9,-121,-599,-896,-3740
-43,8,30,247,1440,-3048
-116,-70,96,321,1560,-2075
119,123,-62,-72,3706,-952
-100,115,32,-1095,4410,454
-20,-103,120,-1479,4144,2210
84,-96,-97,-1984,3429,3558
44,56,29,-2604,1640,3767
-86,-25,-96,-381,-310,2733
117,14,-16,-2156,-1984,1250
18,0,-94,-4055,-3477,-499
66,-24,-40,-6396,-5010,-2092
41,116,-126,-2201,-6431,-3120
120,-7,-18,-1893,-3212,-3218
98,76,109,-1255,-2106,-1828
-45,59,44,-807,104,-738
93,-13,97,-789,530,-173
35,-59,-55,-1006,1006,-171
81,-60,107,-1078,-93,-148
127,-75,65,-1950,1095,219
-92,-43,2,-3810,2015,687
-58,-28,-14,-3719,1559,926
3,64,-9,-2432,1204,1958
73,-100,5,-1502,949,2546
-86,-15,66,-569,598,2699
-25,53,86,-1002,934,2475
31,-4,127,701,336,2273
47,26,-85,-374,172,2347
41,-7,-101,-83,291,1706
35,-41,-55,551,-531,1292
-3,-99,-66,1948,366,1036
11,110,-88,1483,527,658
-26,53,-104,883,398,273
-50,23,-87,-310,35,-311
-41,-48,-100,-285,329,-582
-17,-88,-103,-296,276,-630
-105,-91,117,4741,-2459,-1931
-86,-8,-28,1438,-3857,-2462
5,13,-119,2895,-823,-4665
-20,-89,-67,2684,-1045,-4077
-53,88,13,1273,-253,-4325
-99,23,91,1927,1408,-3608
91,98,38,1724,2672,-1977
117,3,-110,1254,3132,-691
-125,79,-62,1423,4195,1263
-57,68,-37,1891,3776,2633
-11,-20,33,-2364,2530,4525
90,-57,-48,-1400,29,3758
-126,-16,-100,-2504,-561,3022
109,100,-80,-3592,-3170,688
7,-71,45,-2537,-3749,-2282
-12,-28,-38,-137,-3501,-3215
73,-47,-90,-1685,-1720,-3253
-68,41,-95,-733,343,-3351
63,-77,100,175,1680,-2628
17,-117,-50,28,3082,-1577
76,-128,87,146,3883,-626
-47,88,-40,382,4759,525
56,19,1,-85,4449,1739
-34,42,-95,-1868,3463,3021
90,96,45,-522,2816,3544
43,101,43,-1411,-39,3182
-111,-63,-82,-3571,-2622,1792
88,-86,6,-4399,-4695,793
-50,44,80,-4216,-5586,-546
-85,21,75,-3414,-6031,-1021
-8,-41,1,-1010,-4768,-2184
43,25,-25,-1903,-2115,-421
-6,93,-51,-1419,644,-622
98,-81,-33,-545,898,-405
33,-111,28,-1003,1592,-728
71,-21,-62,-2390,1427,-492
-97,3,73,-4543,2068,593
-41,-109,-37,-6247,1851,1807
7,-110,-23,-3616,1206,1839
102,113,23,-3033,1267,2306
-42,117,85,349,1002,2688
7,-10,61,-952,990,2617
81,-7,64,75,603,2672
70,-31,121,507,448,2474
69,-48,-123,-157,623,1774
53,-128,-105,234,638,1857
15,72,-87,779,128,1572
0,42,-115,557,671,1288
0,31,-82,-3,137,624
-24,-62,-95,979,309,337
-91,116,-88,3884,-4251,-2538
112,56,71,2909,-175,-5052
85,118,119,3865,-832,-4396
58,-19,105,1817,567,-4687
-88,-23,91,1865,1586,-3125
117,68,6,855,3363,-1809
-108,-36,71,665,3518,389
-56,116,-82,1235,3421,2081
29,2,-17,-513,3280,3328
-12,-51,64,-2464,1273,5263
-6,72,56,-201,-152,3888
60,-82,-38,-1122,-1564,2497
-62,-90,9,-3220,-4019,623
-1,-91,-110,-880,-3539,-2150
0,-1,127,-1044,-3554,-2502
-102,7,87,-1616,-2617,-3455
-19,44,-68,-687,-592,-3283
115,-76,-84,-807,1214,-2675
23,93,66,-22,2773,-1639
73,93,-74,487,4216,-888
-83,56,30,714,4400,143
43,-34,65,-163,4445,1883
15,73,-44,-2280,4673,3063
-127,90,23,381,3116,3425
7,114,-53,-379,-254,2357
55,69,-4,-879,-1585,1331
-6,61,-107,-2738,-4689,1001
-97,-38,70,-5031,-5052,1462
-67,-94,80,-2527,-5756,361
-19,-14,-97,-1369,-4707,-289
46,-59,30,-2418,-1623,-258
116,108,-38,-1072,-583,-359
-107,-7,36,-1726,-401,238
49,-62,111,-2949,1130,-99
53,-20,-58,-3654,983,-313
83,-53,94,-3787,1587,1432
-109,-92,-7,-5863,2215,700
-26,-81,5,-3064,1728,1650
63,46,33,-2294,1296,1840
-96,-117,75,-917,783,2290
-56,-17,95,-912,575,2568
17,-34,94,275,1464,2280
68,14,110,-148,832,2617
49,-35,116,659,633,2285
66,-24,-127,600,61,2042
2,-67,-88,-156,468,1223
-6,127,-78,436,519,1069
-44,3,-94,1654,297,890
-43,-61,-81,1707,120,602
-28,-72,-87,304,204,364
-40,-11,-108,3451,-2050,-3502
78,-90,-53,2799,-882,-4685
43,7,34,2344,-630,-4939
-28,82,103,2418,409,-4088
99,38,-118,2315,2131,-2701
104,-26,56,766,3709,-1095
-121,115,-111,786,4003,730
18,86,121,-190,4787,3033
84,-48,-120,-1871,3091,4759
-24,-17,10,-3219,170,4719
-33,36,-89,-32,-1559,2159
-108,109,-94,-3046,-3715,800
43,-71,116,-687,-4665,-1434
57,35,-121,-2071,-3405,-2729
-42,42,99,-1929,-2875,-3381
-26,-81,7,-650,-214,-3204
113,118,-60,-477,1301,-2538
68,123,80,-395,3271,-2106
47,78,-105,949,3546,-786
-107,126,18,-786,3958,57
18,38,122,-433,4683,1996
12,113,12,-1868,4653,3196
-33,-71,96,-28,2413,3137
45,18,-65,158,1059,2685
35,-64,54,-5816,-1611,2243
-64,-125,108,-3080,-4837,481
61,42,-70,-4075,-5705,-299
61,-115,-112,-3055,-4761,-1525
-13,123,12,-1864,-3431,-1534
-84,-50,-107,-3081,-1085,-1344
27,78,-96,-322,-656,-1120
-92,-31,-55,-669,-91,-569
69,121,32,-969,-78,499
77,3,-104,-1896,657,768
80,51,105,-4778,1564,715
-96,90,43,-4544,1598,942
-32,-83,-6,-3476,1680,1346
45,-1,20,-1507,1282,2642
-119,-68,1,-2896,1473,2650
11,-72,24,-86,1414,2188
26,10,66,-61,248,2937
32,7,99,-282,304,2215
55,-7,112,-645,480,2013
-9,-31,-89,279,376,1772
24,-95,-98,1291,426,1487
-9,-128,-104,928,384,895
-12,88,-93,380,233,447
-39,-11,-103,747,291,-9
-48,-45,-81,512,129,-348
-50,-105,-102,483,293,-410
-66,97,96,5222,1863,-5162
96,110,-26,5831,-824,-4603
-99,79,48,3007,1964,-5978
-13,90,-5,3381,1582,-3669
115,86,114,3451,2752,-1423
-84,40,-32,2195,2907,-288
-13,-23,72,1242,3472,993
32,-70,-22,-90,3714,2449
-122,-117,78,-1808,3498,3930
104,-124,110,-3474,465,5821
34,-9,47,-2192,-512,2288
-15,-71,6,-4117,-1145,1977
16,16,-76,-1384,-4869,-1689
94,-66,112,-1224,-4088,-2919
34,-27,81,-684,-2766,-3993
-110,-69,-73,-620,-1612,-3854
2,44,-106,-733,282,-3618
123,-86,84,-140,1344,-2761
46,-112,-66,-63,3011,-1875
66,-119,91,-18,3641,-295
-85,-108,-13,-278,4298,666
25,-117,112,-1080,4619,1969
56,119,43,-56,3625,3515
75,-54,-58,156,3045,3019
-66,13,-67,-815,923,3596
-108,5,110,-6179,-374,2916
-42,-114,73,-3790,-2827,376
-15,50,-79,-3562,-4421,-1138
-54,96,-128,-2941,-5397,-2241
-53,-77,-118,-2131,-5492,-2053
3,-10,56,-2855,-3538,-717
61,17,-55,-856,-706,-958
-128,-74,68,-893,-207,-384
3,-100,105,-535,1317,-379
46,46,-67,-1662,920,-529
114,115,88,-2392,794,-569
-92,-103,46,-3643,1678,415
-92,-88,29,-3785,1691,791
-20,-41,-7,-3275,1927,1456
72,81,2,-1846,1567,2231
-76,59,43,681,896,2704
-13,-63,41,-395,301,2835
47,-48,51,-984,991,2561
51,-47,65,-782,891,2251
83,-104,97,515,645,2500
32,-69,-96,-83,-179,1976
42,100,-124,660,729,1456
-6,82,-99,121,77,884
-16,10,-108,274,-66,269
-37,-2,-93,-19,-84,-18
21,37,29,-6269,1496,2468
19,-11,-118,328,-125,-1817
38,10,-79,6448,-69,-2961
97,-87,73,4902,-1938,-4209
112,101,-119,4663,-625,-5213
38,-102,-47,2812,875,-4479
-76,-38,-114,2458,1919,-3199
-90,74,-12,1363,3602,-1996
-40,92,103,-1338,4249,-559
-2,9,-87,-1236,3755,1829
46,-4,0,-600,3068,4155
92,-123,59,-2571,1746,4652
92,-20,-36,-2161,-1105,4079
71,30,-34,-1969,-1433,1577
-113,-53,-18,-2310,-3713,-92
-59,41,122,-2333,-4400,-3400
-49,83,39,-1524,-3345,-4506
4,-25,16,-1312,-1992,-4625
3,4,-59,-839,218,-3296
13,-91,115,162,1681,-2217
-42,-73,-79,-298,3779,-806
45,8,-5,-1116,4176,571
-60,58,116,-1088,4694,1876
54,69,-32,190,3415,3122
-113,-105,-93,-1147,3156,3362
56,-102,55,-708,1409,3932
-38,37,-95,32,288,3191
-104,-18,-69,-1406,-1697,2157
-19,100,-109,-3327,-1901,138
122,-39,90,-3474,-4262,-1587
108,37,-82,-3227,-4478,-2630
-98,50,67,-1784,-5573,-3082
104,-50,45,-167,-4866,-3703
-105,-95,30,-2304,-2613,-1085
-15,115,-95,-1308,-1273,-42
48,96,-73,-1112,-23,40
-40,-27,80,-400,443,58
14,92,-74,-855,918,-521
43,59,-124,-2571,649,-258
70,54,-123,-3498,907,793
115,83,68,-2286,760,2673
-106,-79,21,-1843,2354,2135
26,68,33,-2376,1861,2318
-119,-84,3,-1699,1255,2833
-31,-19,58,-798,636,2772
40,-34,58,8,1042,2818
78,50,113,-422,31,2707
108,-31,-114,526,558,2360
84,23,-102,-25,48,1713
-4,-110,-60,1788,424,1424
96,99,100,4164,695,-4417
71,-50,-16,5533,-1920,-4415
-99,-78,15,2284,-484,-5558
4,104,7,2784,965,-4664
-22,-19,93,1086,3286,-3060
14,95,-78,1253,3853,-1459
48,-35,-31,1129,3672,525
69,27,-90,-298,3377,1062
-12,-37,88,-837,2912,2964
-45,-106,24,-2885,2295,3616
-37,-20,-114,-1925,604,4723
32,61,13,-3925,-1107,2910
80,-69,-64,-2600,-3606,227
-60,31,-2,-122,-3330,-1676
85,46,105,-1033,-2925,-3972
-49,-66,-28,-1139,-1820,-4236
72,-119,-56,-846,551,-3736
-84,-75,-2,-981,1901,-1851
99,-76,118,-1424,2681,-527
76,105,5,448,3944,-336
-71,-48,109,180,3677,483
-32,-3,78,-1149,3674,2338
11,35,-14,-104,2257,3345
41,127,127,-1203,2171,3454
-112,18,88,-2864,-463,2660
89,103,42,-2422,-1671,1985
-76,-44,-94,-2283,-2042,504
-114,-24,89,-3331,-4970,-1035
94,-121,3,-3096,-5357,-1782
-104,-98,55,-1742,-5223,-2231
126,51,108,-1548,-3979,-2149
-12,102,60,-797,-1131,-1183
-57,-115,-49,-2044,-435,-803
54,-69,95,-487,378,118
-44,-16,22,-1825,647,339
52,-78,-65,-2815,1540,-843
101,-115,126,-4289,822,208
127,-46,84,-5101,-414,1729
-83,-53,51,-963,-962,3519
-28,-78,83,-2868,836,2776
87,-4,56,-1209,1092,2489
-83,35,78,470,1117,2196
17,-17,-33,3316,2124,1959
-7,-104,-112,-626,-339,2133
7,-6,-73,1034,1704,1893
60,-57,-108,2048,1237,2387
17,-83,126,914,415,1890
-18,-123,-114,-56,-392,1790
-40,23,-101,1652,-87,1345
-38,15,-112,32,403,-8
-85,-128,81,5225,-2011,-3037
46,58,-95,3384,-1439,-4245
99,-61,74,2130,-832,-4645
12,26,-125,2304,165,-4344
-47,71,123,2204,1265,-3675
91,-5,83,1929,2679,-2238
-96,-68,10,253,4428,-442
11,100,19,-502,4879,1831
-45,100,52,-1750,4896,3466
-1,-63,114,-2377,2319,5976
81,40,-87,-3340,-1100,3006
28,-105,108,-3235,-3029,2956
-44,-68,27,-1047,-5126,-506
6,112,-53,-2012,-4238,-1421
5,6,-36,-1614,-3691,-3484
102,21,-53,-1348,-1957,-3463
-75,65,-2,-939,609,-3396
111,-9,125,-379,2171,-2932
91,-127,-70,927,2675,-1761
-72,-102,-57,-509,4605,-1022
-37,97,81,138,3962,515
16,48,13,-26,4804,1205
-46,64,-35,219,3077,3121
-74,62,-61,2176,2587,2215
84,-36,68,-1947,1893,3289
-24,62,46,-3235,317,2901
111,92,93,-3701,-3748,1414
-55,17,-7,-4141,-5848,1197
41,46,91,-1334,-7176,354
-19,-45,-121,-5024,-4024,-651
-80,72,-76,-1128,-2535,-475
-123,96,19,-1520,-65,-192
-107,-44,77,-525,-326,-387
-40,-96,-68,-1313,47,-73
45,-3,36,-3965,1190,-70
74,-40,-113,-3984,1611,846
102,78,28,-6325,2174,1143
-94,87,16,-3983,1980,1865
-28,-96,43,-331,663,3085
-94,44,61,1563,882,2651
-41,-64,-20,-1188,1870,2090
-13,103,-25,466,1561,2015
55,-55,-7,-1659,1305,2267
20,-94,46,29,469,2135
58,-92,60,223,791,1796
19,-88,90,366,520,1451
7,59,108,2065,454,1143
-33,0,99,1687,604,751
-45,-55,117,841,666,346
-51,-91,-126,178,295,142
-43,-38,105,2970,-2489,-2767
10,75,3,3494,-597,-4151
65,-109,100,3606,-51,-4435
37,15,95,2828,391,-4397
-75,102,76,2205,1980,-3220
97,-100,-18,1189,3524,-1816
-89,-125,94,916,3505,-183
-86,73,-43,818,3181,1368
-28,95,116,-896,3178,2844
70,-88,-4,-5807,4404,3808
57,15,120,-5168,565,4839
-60,-58,-41,-1762,-1360,3296
-73,-39,96,-1298,-1837,-155
-95,36,-104,-2164,-5024,-1525
82,98,55,130,-3996,-3226
-100,4,73,339,-4025,-4233
-1,2,44,-775,-2820,-4480
2,36,-8,-944,436,-3984
-2,-88,126,-102,1018,-2895
-64,107,-94,37,3511,-1557
-38,-121,3,-217,3939,176
91,-107,121,-297,4466,1390
-43,-32,-6,-1395,3806,2751
77,-18,-86,-753,3823,3873
103,92,69,201,2189,3422
8,-54,-121,430,664,2827
-109,-56,-1,625,-2050,2584
-36,-81,-123,-2855,-4200,150
-85,10,22,-4078,-5394,696
-104,-99,-79,-3792,-5386,-1375
-25,70,17,-3242,-6036,-1732
55,-63,40,-1435,-4397,-1186
-4,-72,93,-1985,-2096,-888
7,-122,-100,-1079,-380,-1119
-24,-7,-60,-412,18,-129
-68,124,-112,-602,831,64
-34,-123,57,-823,2075,-530
39,20,-10,-4347,2219,450
-122,-30,120,-3867,2341,1464
8,115,-7,-4478,1979,2271
10,-75,-15,-2578,550,2825
-127,-106,-7,-2223,405,3319
-14,-14,-9,-1358,1009,3347
-1,19,38,920,411,2858
-115,-36,-15,2459,1586,2587
44,40,62,896,794,1891
47,-97,95,1578,1724,1809
-38,126,-105,1244,1112,1858
-76,81,-94,-151,7,1520
-86,57,-96,-166,-142,869
15,-24,65,2515,1491,-4348
-36,-8,70,2610,2460,-3743
-22,-94,30,1014,3690,-3079
67,121,-114,462,3444,-2237
109,-14,-10,1360,3666,1919
119,-23,101,-963,4056,2860
122,-126,-71,-4285,2620,4825
50,47,60,-572,1640,4378
29,-39,-11,-2153,-3056,3067
110,48,103,-3599,-5276,1653
58,97,-67,-3566,-4972,-573
0,84,108,-1449,-4226,-3284
119,-119,-112,-1559,-3329,-3697
-97,-67,93,-1784,-295,-3925
-90,-106,-35,36,909,-2787
74,-83,79,-1138,3275,-1957
68,77,113,415,4070,-314
-43,100,102,5,5202,889
67,98,124,-328,4652,2132
38,120,76,-1782,4793,3340
-67,-24,-75,-1,2839,4137
100,49,74,348,1085,3004
80,-35,50,-3132,-1169,1140
56,-95,-11,-4455,-5241,-109
-32,4,-20,-3856,-6004,-1987
93,17,90,-2982,-6739,-2279
27,48,29,-519,-4700,-2948
-50,102,40,-319,-3125,1100
103,117,75,-1328,1836,-283
61,-72,-4,-164,4,-223
61,15,-111,-1154,102,-168
74,36,-16,-2235,827,300
-106,-7,-76,-3311,1830,1366
-90,11,89,-3882,1770,1822
-30,-126,2,-4949,1739,2909
39,-65,-85,-2522,1915,2625
-85,85,-34,-1063,1641,2510
64,-2,46,-1137,1853,1447
115,-9,67,-124,2189,1942
-118,32,-63,1105,168,2895
108,-1,-64,1376,215,2926
73,-47,-80,297,1005,1996
10,-82,-89,146,408,1539
0,100,-77,981,575,1142
16,75,-67,453,705,-60
-40,-11,-24,971,549,-391
-40,-89,-5,1153,3,-185
-16,119,-3,354,-109,-562
-10,79,17,-448,-259,-941
3,15,3,-43,565,-576
-25,-11,92,5256,1785,-5336
94,16,-62,3219,441,-4751
-36,120,120,2076,2102,-3522
-117,47,0,1200,2906,-2186
111,68,72,-427,3480,-1229
103,76,6,-1064,3437,830
-29,42,125,-270,3836,2549
84,70,74,-1448,3059,4098
-25,-95,-59,-4404,2028,4620
-10,0,34,-2341,-759,5412
-119,49,34,380,-2090,2937
125,29,-110,100,-3355,820
12,46,98,-3155,-6659,-417
34,122,5,-1480,-4018,-4874
47,94,-30,168,-1444,-4124
101,-87,62,-931,-1325,-3989
-109,-51,-88,-561,1925,-2998
54,-119,-40,87,3074,-1721
63,-104,32,200,3630,-610
127,-106,109,960,4479,521
42,-30,-57,-759,5157,1302
-20,-68,77,-179,3110,2476
-92,37,29,-1708,2454,3747
45,-55,-42,-2086,768,3202
89,-126,48,-3338,-838,2185
-82,40,121,-5305,-3486,575
106,66,-88,-6229,-4377,-194
31,89,102,-5302,-5660,3
16,-108,-42,-3081,-4551,-932
-85,7,83,-3939,-5995,-1279
5,126,-103,-39,-2284,-777
-84,-71,54,-2185,-619,-715
-62,-33,-55,253,-58,-223
44,-37,-56,-950,992,-312
107,-54,102,-764,784,-470
-107,-58,70,-2035,1597,-345
-52,-91,-4,-3452,2768,840
-37,-58,-104,-5505,3910,1176
70,65,38,-5361,2047,2424
-48,5,88,-3305,845,3068
76,44,-19,1128,177,3667
-32,-105,-51,1869,1575,3851
92,26,-91,431,1024,3203
78,-78,-46,416,176,2678
87,30,-86,2564,-48,2642
55,27,-104,2172,-324,2428
12,-33,-106,1845,-65,985
-26,79,-128,3076,304,895
-68,7,-109,2120,-20,501
-66,-49,-111,1152,95,44
-44,100,19,4414,-745,-3689
113,12,-58,2578,1238,-4895
48,-1,-5,3126,1307,-4266
-38,-51,-117,2293,2561,-3176
-48,-19,-1,2300,3174,-1361
-93,-108,110,1035,4279,357
27,84,47,-1201,5528,3288
-68,-58,-55,-3022,2555,4773
-104,18,74,-3523,-1622,4996
-16,-28,59,1329,-2966,3235
27,36,-53,-918,-3125,1767
25,-30,2,-1435,-3607,-1390
-111,-104,85,-591,-3570,-3964
-25,20,53,-1257,-1812,-4550
26,50,104,-988,659,-4258
-59,91,-38,-197,2525,-3081
-122,-49,16,202,3478,-1177
-83,-46,28,-236,4661,304
5,-43,106,-137,4406,1925
39,-34,-22,-1021,3791,3130
4,110,-61,-629,2539,3846
-29,36,83,26,1270,3025
123,-117,-117,-601,-1109,2559
-25,-25,39,-3350,-2689,1220
-52,64,-77,-4446,-4501,479
-117,-43,71,-2480,-6248,-950
-39,-56,39,-690,-7387,-1619
-16,11,11,503,-5849,-1569
-90,59,-53,-2942,-1648,197
-34,-115,73,-1860,636,572
87,-47,42,-240,480,168
-37,-123,108,-831,472,448
-16,-109,4,-675,732,534
47,-52,-14,-3818,1827,778
113,-40,-103,-5082,1989,153
-101,-21,28,-5075,2121,1926
-91,82,-47,-3664,1660,2420
24,122,-63,-3162,903,2918
97,-86,19,-1310,660,2761
-110,78,110,-3005,875,1944
-4,-26,-99,70,986,2457
-21,21,-84,1166,184,2753
-14,120,-40,-250,253,2060
-39,-2,-87,1124,822,1411
-70,-53,-102,1672,229,1091
-91,-114,126,1161,360,441
-100,79,113,177,249,-203
-80,19,114,68,475,-712
-65,-13,126,-45,204,-903
-54,-79,-104,190,383,-1176
-99,62,-3,4625,-1560,-5300
107,63,85,6789,1943,-5102
-128,-121,92,5070,1455,-5019
-18,92,77,3611,1204,-4388
-22,72,-122,2055,3634,-2808
30,14,5,-23,4823,-902
80,33,-110,177,4735,1248
-95,63,32,68,4219,2625
29,-128,4,-2846,2758,3284
102,-12,-108,-4598,1347,5284
-92,87,50,-1812,-1105,3063
-14,-115,-1,-2951,-2820,2653
-64,2,97,-3479,-4927,-243
13,96,62,-1228,-6479,-4270
-61,29,-25,107,-1618,-4386
-75,-43,101,-1165,-2027,-3992
64,-102,64,-68,1729,-4089
-64,-77,120,66,3472,-2874
-71,-79,-39,369,4991,-1702
13,-118,48,751,6088,-180
-22,21,13,2556,4925,1394
-104,-107,7,438,3731,3527
127,-57,-33,-4163,2048,3203
99,-66,63,-2036,1476,3226
-115,23,16,-1910,-1782,2493
112,54,-81,-3784,-3761,1715
43,-43,116,-3026,-6226,1261
-56,-40,-43,-2704,-5641,-121
2,-58,-102,-4726,-5310,-464
111,101,63,-488,-2771,-638
102,-108,52,-2002,-1197,68
83,-107,-122,-1238,1341,-92
-20,63,66,-1198,-3,288
12,-105,-13,-1546,379,644
9,-55,-25,-3537,847,1635
52,-31,110,-4285,2412,2019
96,41,-21,-5262,2699,2404
-106,-16,-93,-3962,1842,2951
-21,68,-62,-1784,1077,2768
123,-29,51,-1319,-68,2935
-67,-65,63,2318,794,2195
-28,-14,-4,1111,1560,2012
-23,42,53,-222,921,1923
-27,-112,104,1235,1017,1608
-21,99,114,1914,799,1135
-77,39,100,1440,573,986
-77,23,119,178,157,319
-75,-52,99,508,533,53
-95,-92,-125,567,359,-366
-84,117,123,697,481,-287
48,-9,-98,4384,-4828,-5097
42,-9,-21,1730,719,-5976
59,-76,11,2858,506,-4697
-65,80,-66,1399,2321,-3432
86,-84,6,1687,3397,-2032
101,-93,-127,889,4401,-761
-71,-99,-6,469,4708,1216
-98,-69,96,-810,4278,4312
59,-51,-26,-3491,4353,4235
28,-15,55,-3322,1889,5392
96,33,-118,-1980,-1173,3406
-57,-53,-36,-1711,-2254,776
-62,123,-78,-2850,-6443,424
-80,-38,54,551,-5607,-3707
41,-128,18,-948,-3999,-4333
71,29,-94,-979,-963,-4340
-107,72,19,-888,1056,-3632
95,-51,69,-842,2589,-2283
60,126,124,-268,3725,-839
-92,-113,-27,-296,4874,745
-29,-92,102,-466,4524,1441
122,-32,-17,-1678,4706,2808
-127,-46,-33,-894,3477,3447
109,114,-120,-2019,1506,3500
-66,28,18,-824,-540,1804
-80,62,-36,-1120,-2176,1135
66,-74,-73,-1110,-3541,-444
-81,47,-94,-3750,-6061,-297
67,109,-44,-2999,-5726,381
-8,-125,105,-2037,-6464,-1577
-59,48,62,-1443,-2204,-1136
30,-3,5,-1077,-1579,-865
-119,-64,-105,-1395,-133,-435
-89,10,10,-1306,966,31
-87,105,91,-1789,1542,156
-23,-3,-52,-3652,2067,220
97,81,24,-5131,3011,265
-90,-43,-63,-5464,1824,775
-8,73,31,-3338,543,2518
63,-63,86,-2614,550,2024
-121,-7,121,-1732,585,2328
-40,111,-18,-1668,-148,2629
-17,-127,9,-1513,597,2006
0,80,65,637,-174,2844
51,34,25,1961,-195,2769
56,17,-32,2028,345,2051
50,-11,-82,1327,339,1325
14,-61,-106,573,186,247
-18,108,-110,832,112,-393
-41,23,-88,1317,230,-730
34,93,117,-3243,2650,2216
-2,109,-44,847,-1065,2385
-107,36,-52,1192,-1384,-1013
25,-92,-71,5611,-2029,-2715
-15,-41,-22,4476,-3385,-3867
102,124,107,3750,-742,-5445
-31,-89,-100,2757,-564,-4178
99,1,127,1887,1159,-3787
3,30,87,1820,2964,-1974
60,-41,-63,406,4230,-546
-105,63,58,1395,3805,1384
106,24,-96,-1896,5045,3112
-63,71,-24,-2193,2381,5399
55,71,-116,-1927,-494,4969
52,-73,72,-1733,-1983,982
-47,-5,123,-1747,-4903,-769
-83,-36,22,-876,-4883,-2419
102,62,-40,-2542,-3801,-4358
105,-99,86,-1522,-611,-4176
-80,105,27,-88,1659,-3610
-23,-74,82,-99,3212,-1607
8,24,-111,-1852,4599,799
-121,28,-42,-217,5296,1710
96,33,-13,-332,4597,3256
104,63,121,-511,2943,3779
-25,10,-56,-1561,395,3765
-30,-98,-84,-4474,-2002,3140
89,-53,87,-2819,-6402,-121
-59,-23,-73,-3292,-6270,-550
-71,72,62,-2013,-5503,-1528
110,-44,-69,-1914,-3586,-1065
-110,-75,-114,-2374,-186,-869
81,-44,95,-1029,46,-1782
76,55,105,-3147,1051,-1033
71,-92,-100,-4684,1094,-414
74,88,37,-5910,1745,789
66,-62,12,-5317,973,1408
-102,43,53,-3971,1368,1794
67,-45,75,-3331,1236,2017
-117,16,-115,-1011,-24,2896
-16,42,-110,-829,414,2744
22,127,8,-1336,-844,3080
80,36,-40,1393,160,3005
94,20,-5,2189,-10,2592
112,-54,-101,2094,595,2417
80,-117,-84,1249,97,2133
55,122,-82,74,85,1522
11,70,-67,504,129,627
-9,6,-56,1366,136,-2
-29,-72,-57,1121,88,-269
-35,65,-68,2070,-2601,6382
49,-55,-44,6170,-2970,-632
-124,65,60,-884,-1626,-4921
26,-106,62,2538,-3563,-4179
-124,82,108,2441,-876,-5279
110,69,-1,1515,-211,-4186
-32,-98,0,796,2671,-3471
68,-50,78,382,4838,-1136
-88,-109,41,1170,4814,971
26,-95,59,679,3784,2598
51,-118,58,-1661,2915,3629
17,-122,7,-2666,1443,4197
-95,22,-68,-998,-560,2893
84,102,123,-4526,-2374,2411
68,17,66,-336,-6899,-999
-49,-63,54,-2256,-5715,-2344
104,11,-6,-2566,-2827,-3882
15,-72,62,-1219,-1511,-3935
121,-38,-16,-966,1584,-3806
-34,30,25,-193,2860,-2688
14,42,-120,-1098,4565,-1437
87,-11,-67,-115,4694,195
-36,-72,-21,391,3183,1012
84,-7,126,-203,4057,3676
-71,-38,-28,-2330,2296,3451
46,-33,83,818,1439,3518
-126,35,5,-3541,-46,2636
-27,-119,1,-3594,-4027,640
23,46,34,-2509,-6766,-270
-30,-120,-98,-2625,-5457,-971
54,63,108,-2053,-6091,-2152
-106,-110,0,-1360,-2368,-731
64,39,61,-1241,-595,-214
55,-30,78,-1173,751,514
-36,-123,60,-1074,1079,-162
-30,-62,-62,-1513,641,-318
10,-11,-97,-3244,1428,126
52,3,68,-4944,2159,1138
85,29,-37,-2962,1097,2664
-107,-38,-31,-3018,791,2291
-30,20,-32,-1513,1475,2183
39,93,-14,-1079,1571,2522
-83,0,9,-2297,1427,2035
-51,-28,56,-625,943,2013
-13,14,125,-1393,281,1712
-32,115,-89,-2323,-1162,1620
-33,12,-3,995,551,2023
-25,-49,-3,3382,438,2148
-26,0,-102,996,349,1022
-61,-16,-98,-810,86,199
-10,41,75,5639,-811,-3347
48,23,26,4699,-1740,-3740
108,82,98,3077,-1380,-4379
23,-59,-109,1717,1213,-4388
-106,40,64,1778,1742,-3323
115,-75,-31,1791,2874,-2135
-127,117,-96,1132,3870,-713
-97,44,76,898,3875,1357
7,-25,-14,5675,3199,4288
-44,-100,110,-1660,4887,3297
3,88,105,-4208,1770,4663
-96,-42,55,-14,-864,2964
111,-127,-36,-4018,-2671,2892
-25,-17,-45,-3627,-5149,230
-87,88,-7,-619,-5478,-2322
-64,-26,2,-3339,-2914,-2927
-74,15,104,-123,-576,-3286
92,-61,-17,-811,1324,-2994
58,117,94,-589,2518,-2480
47,66,-74,-320,3776,-1235
-122,50,77,-118,5322,424
-57,-9,8,-414,5445,1318
37,-38,-127,-1262,5011,2920
6,101,45,-2142,3536,3192
55,-84,69,-195,2454,2861
19,-78,70,-2211,-2407,2172
17,62,18,-3042,-3213,-111
86,-65,-67,-3331,-6714,497
-4,24,85,-2457,-7045,-333
-16,51,-122,-3326,-4120,-549
-29,25,-1,-1492,-1005,201
-59,-22,95,-1826,-73,-869
89,-32,56,-253,26,-251
71,117,32,-1580,383,-485
67,-88,-9,-3008,376,-134
-107,-55,-108,-4685,1974,708
127,-27,0,-3978,2379,540
-28,78,-9,-3867,2877,388
74,-84,-25,-4143,3649,379
-70,78,29,-3672,2222,1496
-29,-59,111,-2146,-381,2552
-6,-24,-79,-416,-543,2456
67,8,-70,-240,555,2674
78,-27,-84,102,344,2261
49,-76,-51,67,8,2228
49,89,-76,1068,-95,1882
17,84,-60,558,182,1362
18,54,-58,95,758,672
-10,-7,-39,761,564,144
-29,-40,-48,709,-105,176
-83,-85,100,-35,3412,4645
97,12,-28,-4714,583,3727
-74,-108,0,-586,-1397,3130
76,-42,87,-1502,-3776,1716
12,-42,127,-1179,-4372,-128
-59,71,-127,-216,-4282,-2829
37,104,74,-2082,-2579,-4051
-101,-51,113,-1136,-377,-4186
-19,126,-12,-424,1627,-3285
-62,53,93,-121,3293,-2175
-39,15,-71,238,4078,-708
-2,13,-25,-451,4644,574
-15,-23,-114,-276,3939,2169
-35,40,68,-1183,3719,3348
-101,-28,-115,-1138,2290,3040
58,19,-83,-1129,-860,2345
89,63,-127,-3793,-1777,2158
-126,38,-124,-2268,-3687,1236
-27,-112,-2,-3183,-6964,945
27,-53,11,-3107,-6554,456
122,17,-86,-1660,-5412,-146
-81,-29,-34,-1536,-1349,-33
-21,-35,6,-1604,-65,-173
78,52,39,-1373,446,-260
9,71,76,-2139,306,-132
52,-41,-59,-4070,471,-944
90,-28,111,-4319,1870,1094
49,-4,38,-3707,1400,820
-82,-90,-15,-5169,2114,1439
-54,-65,12,-2840,1405,2152
42,32,44,-868,1324,2355
-115,-108,79,-506,1082,3076
8,-15,33,-1273,1136,2727
24,-18,58,-399,592,3019
57,8,-93,-332,-720,2821
75,7,-100,-589,235,1712
-7,-2,-65,126,-323,1241
-19,-81,-75,1394,246,953
-68,-126,-70,1055,531,441
-36,54,-79,632,477,130
-87,-57,-110,1326,427,-388
-92,-101,-98,413,192,-346
-90,112,-94,-320,430,-272
-63,116,-103,-408,247,-157
-48,118,-104,-328,269,-317
-37,104,-110,-241,333,-429
-47,110,-115,-421,200,-350
-42,101,-115,-328,290,-346
-52,108,-110,-322,182,-242
-50,106,-108,-181,442,-143
83,55,-95,4366,-5093,-1959
38,68,20,340,-1248,-4455
109,78,11,2239,-1313,-4631
50,3,-122,1539,126,-4526
-55,112,-102,923,1152,-4119
-123,-120,62,880,2918,-3099
124,55,-32,796,4240,-1264
-97,-28,81,1213,4574,644
90,-58,114,-385,5046,2340
-96,81,29,-3756,3670,3785
-81,-29,90,-3530,244,5840
38,56,-66,1152,-2474,2903
-96,21,-86,-1694,-3512,2187
-81,87,-48,-3815,-5115,-1313
44,-45,-7,311,-4227,-3628
76,26,-23,-1444,-2720,-4125
35,12,84,-847,-1125,-4028
-94,65,45,-400,2082,-3161
51,-16,76,-560,3058,-1680
64,49,62,-666,4217,-85
-77,57,-69,389,4398,1077
7,34,97,287,4519,2113
35,-103,21,-2544,3762,3842
49,29,126,-1545,3288,3362
121,-77,-108,-896,82,2209
26,30,80,-2023,-1420,1189
-104,-100,-16,-2336,-4203,710
-14,-100,108,-1661,-5679,-181
54,102,8,-2287,-6913,-503
-83,-12,92,-650,-5458,-844
46,-33,-69,-3766,-2935,-322
101,17,90,-2069,-396,-139
-127,121,-116,-246,222,-218
56,27,-106,-1041,1231,-421
17,-111,-62,-2124,800,152
103,-13,-120,-4735,2106,181
-69,79,-52,-6348,2623,990
-43,113,-96,-4054,1579,1587
3,-5,-37,-2777,1112,2253
125,-127,14,-1787,1148,2317
-59,-69,29,-1618,481,2522
-18,35,88,-826,-211,2585
6,62,-95,-234,-237,2596
40,46,-107,-59,869,1688
-7,6,-74,121,367,1689
-15,-3,-35,-394,5,1235
-41,-105,-44,1054,275,892
-65,82,-24,1116,166,809
-46,49,-67,-440,835,409
-43,0,-67,74,246,199
77,121,24,2144,2615,3776
-21,76,66,5443,-7006,2748
-70,-86,6,-2067,-1975,-3121
-63,-50,-112,1469,-2026,-2767
-64,-80,-67,1549,-2326,-3239
54,92,23,1850,-1600,-4142
50,-40,-25,656,-1206,-4264
-38,119,-95,807,-184,-4089
83,-32,-48,1285,1287,-3392
7,72,118,1495,3255,-2124
64,61,-29,641,4448,-728
-115,-17,96,623,4709,1139
-127,-91,-104,-468,5442,2375
-108,126,-41,-2612,3921,4392
-96,-127,101,-1536,1224,4450
-33,-4,9,1858,-2075,2645
117,121,105,-4977,-2847,2840
-44,88,15,-3355,-5174,-498
6,73,-86,-2432,-3556,-2168
-119,104,97,-27,-2828,-3765
4,-42,-24,-2113,-1509,-3408
-122,-85,-15,-856,1663,-3399
34,68,-96,506,2924,-2400
86,-23,-54,422,4770,-1097
-95,-47,18,-309,4902,816
-10,77,-28,675,3931,1368
-15,-75,-37,-2576,2479,3834
-105,106,-59,-787,772,3195
-54,-8,-123,-823,520,3198
117,-12,75,-7432,-1811,628
46,-53,108,-6287,-8373,-2496
-4,-65,-9,626,-4199,-3091
42,68,-44,-1446,-8103,-2376
-42,-122,111,-1959,-1276,-1125
-40,44,51,-1229,-578,62
95,-72,-80,-555,337,-318
50,68,-41,-378,-54,249
49,-36,-49,-2233,879,1315
7,63,101,-4149,2592,1476
108,120,2,-4850,2461,1617
-36,-47,-41,-3625,1906,2246
87,118,-14,-3509,1520,2428
-97,-23,12,-3555,814,2590
-58,64,126,-979,-312,3216
63,-19,-72,2896,-66,3137
106,62,-111,714,815,2737
115,13,87,812,754,2069
35,-73,-119,1305,-89,2058
12,-125,-95,1422,85,1398
-9,69,-122,1023,511,868
44,64,-123,2852,-1005,-4524
72,-26,-56,2303,-1282,-4579
44,33,92,1706,101,-4936
-70,99,126,1507,1557,-4173
127,-111,40,1159,2855,-3060
-126,23,-78,1009,4286,-1030
-74,27,74,744,4347,592
57,-8,-90,664,4801,2487
-113,23,32,-1141,3790,3176
-103,65,-66,-3291,2859,4497
26,67,91,-1530,362,3649
-8,-49,-35,-1195,-1285,2811
-125,-72,-118,-4926,-3998,806
73,-78,-15,-4111,-4769,-772
-35,-7,-116,-1255,-3945,-4118
-122,108,-6,-55,-3796,-4095
-36,-89,112,-2758,-944,-4121
54,-77,-11,-1381,2017,-3559
-22,64,44,100,3421,-2274
2,127,40,-736,4171,-629
-111,-67,-113,-1292,5121,879
-17,-63,45,-647,4273,2289
-95,-82,-26,-1254,3838,3487
-12,33,-125,-2666,2784,4132
17,-24,69,-802,-293,4038
-111,-93,-91,-1434,-15,1422
-46,-56,34,-2280,-2144,733
105,19,-113,-1403,-85,-190
3,-24,0,-3858,-13590,-1954
-117,-67,24,-3705,-8739,-1791
55,51,84,-2585,-2887,-1966
-121,52,96,-1831,-1491,-1462
46,-128,27,-1823,499,172
-112,-36,-119,130,586,146
-96,-72,-2,-843,732,-2
-78,14,-41,-1754,1083,65
17,103,-123,-3716,2026,522
71,-118,69,-5789,2344,682
121,-96,2,-3640,1619,1888
18,52,59,-1944,1712,2544
112,26,75,1352,875,2906
-64,-34,55,-1742,1063,2618
18,-54,82,-451,1209,2952
87,-49,73,663,1248,2526
121,-62,97,854,1434,2623
117,-108,123,908,1301,2549
117,97,90,948,1124,2349
103,101,111,459,750,1608
54,85,118,538,334,711
-1,1,108,1241,314,-26
78,-66,-86,1837,-1307,-4885
-86,-96,-102,1821,-389,-4097
80,1,-113,1326,1144,-3559
-5,-115,78,756,3191,-2553
25,63,-61,879,3613,-839
-125,-35,-37,1169,4026,908
-30,-50,48,-351,4048,2428
2,-87,78,-1883,3323,3328
-26,-105,-119,-4630,1117,4125
69,0,58,-739,-1005,3637
63,-109,-54,-1881,-3573,1153
-18,-44,22,-4446,-6591,-1063
-96,-62,-121,-2012,-4869,-3721
-46,-61,-10,-1441,-3220,-3893
-20,19,-96,-1204,-282,-4254
119,54,36,-1363,12,-3841
8,61,-122,-1136,1990,-2877
117,50,21,-667,2740,-1064
125,54,-88,-923,3878,294
-14,112,-17,-1311,4281,2028
82,-101,-96,-761,4075,3399
-37,-48,2,-493,3785,3834
-24,91,72,-1161,1571,3984
-112,-44,12,-1465,-41,3145
-117,68,-79,-3367,-1029,2324
86,78,-17,-4121,-3139,257
77,-99,-50,-6221,-6924,-763
81,-5,-95,-2437,-6928,-2420
-124,-119,26,-155,-2224,-1692
24,83,122,-1431,-2148,-496
125,73,19,-1618,-734,82
-104,-74,-72,-324,-107,74
113,25,65,-544,923,36
95,73,20,-296,576,200
119,109,42,-1311,1398,711
-70,-111,-17,-3191,2687,1062
-4,-127,-128,-2958,2619,1567
118,-5,14,-1122,1937,2144
-62,94,-35,-84,1819,2066
-7,-32,-35,-1968,1980,1826
66,-18,-33,-1499,2354,2074
-109,8,-36,390,2080,2469
-75,95,49,-138,356,1856
-48,19,9,651,1308,1738
-42,11,38,1188,946,1149
-33,-81,5,1656,1077,1057
-54,-95,28,339,425,123
-63,67,19,709,278,258
-73,63,69,-284,-179,-359
-77,10,73,104,20,-579
57,121,101,2494,-3330,-2417
-79,93,32,1852,-2191,-4705
26,-86,-4,3765,728,-4779
-97,-47,59,3752,1090,-4739
-122,-10,45,2021,2623,-3834
-76,76,-38,1609,3806,-2401
15,11,87,148,5509,-922
78,26,25,-1448,5492,1846
108,-52,69,-1278,3998,4761
109,50,-3,-4586,1089,4021
45,-23,-57,-1152,-1039,3039
16,-87,-76,-2060,-3883,2692
-85,-21,41,-4291,-4332,-237
112,-107,-126,-2926,-4051,-2479
-80,11,-46,288,-3283,-4714
4,71,-102,-1431,-2872,-4294
-51,116,13,-1592,286,-4009
52,-70,122,169,2325,-2773
-19,-95,-6,-134,3740,-1803
83,-60,17,-811,5248,-113
-56,23,-115,-749,4536,1607
-103,31,-29,-172,4968,2470
84,-64,-65,11,3845,3889
-16,23,55,-1438,2678,4240
21,-92,-92,-5042,46,1574
-122,-69,105,-752,-2342,2077
22,-100,73,-4776,-2613,533
-4,88,87,-3472,-5682,-1205
-80,59,-106,-2674,-6235,-3275
-113,87,-99,-1230,-5061,-2105
-5,102,36,-4457,-3271,-2318
9,18,-62,-192,-1606,-703
86,7,81,-2104,1821,93
-77,-47,-101,-794,-123,353
-31,120,-110,-1949,616,-223
-5,-80,115,-2641,1330,-67
45,-51,59,-2606,1141,1058
13,-31,66,-2089,879,1369
70,50,53,-1775,1184,1757
-65,-111,47,-1191,1658,1824
-19,-40,47,-1794,950,2078
51,-5,63,-72,445,2481
-96,-36,79,959,814,2649
-40,60,70,-1447,1226,2175
3,-45,80,438,919,2083
-16,-51,-99,702,-144,2533
29,-68,-121,583,668,1734
5,-88,126,540,134,1377
-4,-127,117,711,398,612
-25,104,105,598,416,-90
-76,-81,-29,4377,-4162,-2626
8,35,-82,2919,-1159,-4230
-27,-128,7,3496,-1065,-4095
-76,36,57,2346,157,-4232
-127,106,123,2020,1833,-3932
-103,-10,57,999,3130,-3186
-32,61,-6,1945,4260,-1688
31,-65,123,1834,4769,272
-106,-95,-2,-518,4939,2096
-38,-70,25,-4093,4684,3373
-47,-119,-29,-3399,-486,6782
118,22,-95,-898,-1099,2111
104,30,92,-2888,-4405,1088
93,67,-65,-4930,-5441,-1021
10,63,-120,-2262,-3847,-3944
86,98,-101,-3,-3324,-4522
30,124,110,-1240,147,-3937
107,-52,-54,-275,871,-3193
-11,83,-11,-75,3106,-1949
37,104,52,-90,3704,-325
88,-110,-100,-217,4235,917
-14,-49,5,-289,4761,1792
21,-39,-66,-653,3887,2486
-15,34,-127,-2060,2612,3199
-39,-67,60,-3322,1600,3185
-128,80,-102,-3481,-1105,2190
-118,117,35,-1696,-2311,716
48,-104,-16,-3083,-4459,-697
79,46,104,-4155,-5459,-1742
-63,-109,-9,-2158,-5981,-3851
-57,-48,47,175,-7252,-597
-2,-30,34,-4134,-259,-776
40,-123,68,529,48,-759
-107,-102,69,-986,-703,674
-94,8,-50,-192,660,-26
-106,27,-81,-58,1169,149
-68,52,-45,-2040,1459,651
-22,69,-73,-2279,2305,1304
89,-80,51,-4582,2875,1393
-75,-59,-18,-3536,2498,2291
19,87,-3,-2046,1461,2721
-49,-91,-1,-631,1798,2325
-18,66,26,-2038,542,2268
9,-11,62,224,230,2332
23,19,90,238,321,2047
7,-42,94,1709,684,1852
28,-54,63,1622,946,1547
-2,-98,34,1556,493,819
-18,94,45,1657,167,392
-47,26,65,1139,53,27
105,-82,-118,4765,-3319,-735
-42,26,-100,2458,-2211,-3834
36,0,-3,4392,131,-4565
-55,52,113,3825,353,-4353
-89,122,-109,2268,1725,-4044
-110,-128,94,1869,3502,-2746
-117,24,19,1573,4021,-932
13,-72,110,703,5391,1208
-53,-67,-106,-1419,5905,3236
-85,-113,-38,-4463,3540,4184
18,-36,-44,-4519,-785,4185
-9,-128,-56,-37,-1852,3067
56,-40,-92,-2505,-3855,1075
102,-60,-37,-1288,-6834,-2276
-41,38,121,-1458,-3481,-3942
-119,95,-87,-2488,-2303,-4166
-92,-87,-92,581,3237,-3937
91,-126,57,-942,2146,-2716
115,7,-93,543,3807,-1845
-115,68,-68,2203,4131,174
-90,85,111,23,4030,1403
-67,79,3,-1870,3507,2989
-89,29,120,-3051,2441,3617
106,121,-71,-750,-189,3425
117,-22,67,-5237,-2296,2008
87,20,67,-5891,-8608,232
-81,33,62,-3892,-6423,-515
95,-116,-103,-1433,-7590,-563
64,-104,78,-2735,1806,187
97,-40,21,-2237,336,-606
-53,-22,55,-1128,-104,-114
-63,93,14,-732,1401,-987
-41,-45,-60,-1753,1120,-285
45,45,81,-3925,2507,-80
52,100,-30,-5216,2681,1387
124,-50,-88,-5399,2078,1213
-15,118,0,-3954,165,2066
43,95,105,502,-271,2862
-89,-4,-97,1247,314,2720
-26,87,-119,406,1289,2271
13,98,122,325,1130,2108
31,16,93,1402,1040,1903
43,5,105,768,1184,1229
8,-75,66,821,1268,1013
-25,122,122,733,331,1154
-12,56,114,905,453,639
-16,28,123,626,394,230
-10,-32,117,322,398,-187
-12,-60,125,-63,54,-540
-18,-101,-123,-61,64,-556
-63,-105,-113,6040,-3026,-3073
46,81,-86,2835,-1735,-5038
63,69,-100,3075,-172,-4898
-84,-53,-96,1467,1219,-4117
91,10,53,1535,2437,-3406
98,90,-119,772,3990,-2037
-98,-57,22,1966,4680,-274
-59,113,-101,1593,4342,1938
69,-82,-26,-2041,4704,3561
109,-102,62,-1714,1333,5243
-64,-8,5,-538,788,4143
-42,68,-57,-315,-3312,1728
73,73,117,-7429,-4240,1213
-75,-107,-15,-3246,-6195,-3059
-57,-58,21,447,-3067,-4561
32,-17,-33,-1647,-1765,-3745
18,-27,19,-1267,953,-3776
127,-74,-104,-758,3534,-2980
118,-102,-77,-117,4571,-2049
-72,-98,-99,371,5033,-311
47,-38,47,-1229,4943,649
122,94,-36,113,4989,1736
65,64,103,-864,3008,2963
16,-32,30,-3608,2253,3092
59,15,127,-1459,-1174,2786
-30,-106,-96,-2907,-3040,2221
71,121,-91,-3558,-7246,1477
61,101,14,-5064,-7221,132
-14,113,-61,-3716,-7637,-1294
96,117,-91,-1762,-376,-306
-122,-44,97,-1899,-976,-532
77,17,95,-189,1379,-574
-5,120,99,-42,-565,-59
-11,-36,124,-1854,122,179
11,20,113,-1888,826,1460
-39,107,92,-4406,1757,1419
23,125,25,-3935,1841,1520
-125,-2,47,-2317,1460,2010
-51,65,34,-2372,1988,1659
31,120,59,-111,950,2203
-104,-77,44,-524,1566,1908
-49,-34,39,-487,610,2079
-23,-37,77,-325,335,1996
0,-44,78,158,248,1772
-38,-40,126,-96,460,1603
0,-119,98,950,1059,1246
-23,108,103,1320,519,1407
-12,74,112,998,619,1093
-40,27,101,759,407,753
-51,14,118,83,76,87
34,-62,95,-1415,3442,3494
65,-48,-106,-2047,3027,4971
72,5,73,873,-4268,-774
16,100,49,1000,-664,-3089
4,-17,77,3885,-2197,-3636
42,105,-10,3997,-3148,-4438
81,82,-98,2805,-119,-5299
-19,-49,-17,2376,258,-4707
-112,-43,0,1737,2559,-4025
-127,-30,103,1821,4208,-1828
-74,-48,-74,968,4662,-298
63,-88,-66,391,4358,2134
-94,-43,42,-2438,4412,3160
-91,-10,110,-2959,2012,4471
60,99,-15,-2053,-408,3497
3,-10,-120,-84,-2510,1993
-75,-92,-1,-3023,-4662,936
-36,109,-123,-4689,-5175,-2230
-8,112,-2,-159,-4127,-4141
11,91,83,-1413,-1039,-4498
-43,-18,-122,-177,979,-3735
71,127,-55,-401,2991,-3002
85,35,-127,346,3896,-1389
-76,86,-83,-277,4545,-91
28,115,10,-494,4647,950
92,-35,-92,-1283,3843,2521
-7,-95,-66,-1769,2507,2220
-30,79,39,-440,1441,2966
-97,-7,-90,-2924,-251,1913
90,-31,89,-2882,-2296,1144
-66,-75,37,-2771,-3335,548
6,-60,49,-3778,-5323,-735
13,-41,77,-1661,-6071,-3000
-87,119,84,-3189,-5689,-1303
105,-89,-100,-1479,-2446,-1142
42,-104,-124,-983,-615,-293
77,57,-103,-1248,-531,-263
-13,-63,28,-869,464,-19
-61,17,-18,-1621,1090,-288
10,-85,-82,-3860,1974,-446
68,-70,72,-5411,1970,675
97,19,-11,-4251,879,1607
-111,94,77,-2153,232,2515
-25,-49,121,-2068,69,2322
86,-11,118,-688,909,2615
-83,56,-104,-879,-48,2334
-26,-121,-44,-987,-52,2180
17,14,-77,1409,826,1575
26,47,-125,1083,105,1783
-9,-41,-100,2428,-645,2047
64,110,-63,1217,4702,2259
112,-96,11,-1103,2862,3724
21,9,-68,-5138,715,3835
124,55,114,-313,-1186,3207
75,-120,15,-3560,-3105,1919
125,-30,-96,-3503,-5028,-1176
-80,127,-90,-2521,-4041,-2938
-24,-120,-107,-483,-2788,-3647
48,-107,59,-1272,-1287,-3604
-105,21,7,-2081,2066,-3171
59,-123,1,767,2999,-1864
113,-38,84,-493,4198,-1091
-43,-66,117,-587,3753,132
53,-18,-13,-964,4138,1761
34,-45,-64,-884,3759,2991
-20,110,105,-1647,2213,3030
-93,-128,3,-931,1433,2764
96,18,78,-2223,-1069,2027
-86,61,-81,-4050,-3462,1372
-32,-76,-75,-5517,-3620,-1547
97,29,-53,-1900,-6724,-2959
3,99,75,-2264,-6027,-2504
29,-103,11,-1783,-4326,-1428
-45,51,-40,-2703,-1151,-1025
-65,91,100,-1970,516,-261
82,33,80,-1101,476,-153
-68,-125,-106,-206,-140,-117
-61,-51,-116,-810,-333,25
-39,-93,-117,-2373,549,897
3,-59,58,-2901,917,1594
68,18,17,-3568,2116,1651
-94,46,14,-1691,1756,1943
48,-101,43,-1168,1016,2224
93,-27,78,-1537,776,2718
-61,37,54,-1772,980,2205
-49,66,-106,-162,190,2828
21,-25,-124,2185,733,2515
89,-11,97,1082,985,2408
31,-78,108,742,376,2139
10,-123,-96,1095,38,1981
18,77,-122,914,915,1199
-4,78,-105,435,127,568
-36,13,-121,776,42,69
-52,-58,-102,627,-76,-467
-69,-121,-105,661,152,-582
-61,114,-113,-20,168,-861
-30,71,-106,-296,193,-1030
-29,48,-101,-337,63,-830
-9,22,-86,-140,245,-579
-68,33,-114,-287,152,-447
-52,48,-97,-2219,3179,4138
-77,100,-123,-40,547,5627
26,-73,14,-1058,-715,3107
-19,-73,-111,-889,-2647,2826
-117,-38,-45,-5118,-4407,1644
-60,108,89,-3925,-5445,-2025
-111,-106,-25,-1376,-3680,-2742
-40,-84,-54,-2209,-1112,-4387
-82,117,-59,-1270,-87,-4228
122,-7,85,-205,2593,-3464
6,-86,-31,-38,3429,-2553
78,-123,10,-615,5044,-938
-69,-54,-92,-1557,5233,1099
106,-37,45,-1384,5382,2357
-125,-20,-103,-1367,1791,3387
67,82,115,-1304,1627,3653
-107,-121,95,-1038,778,3457
-115,40,21,302,-73,3469
-35,-22,68,-6349,94,-1361
-36,64,79,-2742,-9472,-500
-18,-115,-30,-2025,-7314,-2064
-86,48,95,-3379,-7812,-1288
-35,69,77,-658,-1920,-1051
-40,-118,23,-2501,-416,350
36,-22,71,-709,918,-244
-49,-115,-60,-788,580,310
-60,-83,121,-424,426,354
-47,52,-119,-1166,1848,-29
23,-92,96,-2867,1854,82
85,-115,32,-3909,2486,449
96,114,10,-2089,2033,1631
-67,20,35,-2736,1583,1567
6,-4,22,-911,1749,2044
88,117,45,-2536,2081,1955
-46,-6,31,-4871,1516,1648
-16,-52,118,-1540,-404,2124
5,-42,-26,214,-635,2449
80,-51,-33,1123,332,2118
81,-99,-94,2155,639,1653
48,-106,-84,1743,44,1631
24,86,-117,1403,188,1123
2,101,-118,371,328,312
-44,17,121,452,59,-115
-51,-34,-120,516,101,-384
-49,-77,-126,449,263,-545
-55,-100,-124,-62,66,-873
-59,125,-121,-228,100,-893
-14,113,-117,-322,335,-931
24,67,122,190,466,-860
-43,70,127,439,-334,-365
89,-99,97,7194,-1063,-2007
67,93,13,2682,-2004,-4347
76,-64,47,1330,723,-4942
118,-124,63,1139,1711,-3108
-114,12,125,1050,3148,-2406
-59,117,-63,991,3935,-817
40,103,31,-78,4182,848
-101,-61,100,-3289,3900,1647
-89,-93,126,-1535,1704,3477
114,51,82,-2246,367,3599
28,-125,50,-667,-1152,3954
121,-46,-11,-2970,-2825,2569
-19,-97,106,-2404,-4725,-2
-69,65,-120,-1315,-5267,-2481
9,-60,-122,-488,-4857,-4458
-24,-47,14,-1736,-1710,-4692
102,5,8,-401,57,-4605
-63,28,85,-1505,1922,-4878
115,48,-67,-278,3263,-2556
53,-16,25,306,4212,-56
-73,92,113,-972,5091,2272
76,125,-7,-470,4373,3110
-81,24,-112,-2814,3803,3801
67,55,-126,-1783,1500,3910
67,112,59,-1448,1850,3846
82,-31,-128,-3324,-1850,2631
-28,-36,63,-5530,-4896,553
-17,-20,-32,-6453,-7277,-312
28,51,-20,-2234,-5077,-2750
-42,61,-58,-2773,-1959,-2368
-59,4,67,-3296,-1599,-2455
-86,-79,-110,-2226,214,-2029
44,71,85,-4403,570,-1427
-26,71,-58,-2968,708,-1002
-59,-42,-123,-2726,971,1389
-28,99,96,-982,-411,2715
73,0,97,-1175,493,2441
-56,113,91,-509,1175,2658
68,-84,70,-1425,1475,2136
119,30,121,-2409,309,2344
-67,35,-83,-1096,99,2483
62,-1,-59,1204,808,2523
82,24,-69,1652,756,2778
62,9,-93,1184,673,2385
13,-64,110,1520,963,2115
25,-121,82,1593,885,1626
67,90,44,1842,1146,933
79,31,24,2419,915,216
59,-96,34,2631,403,-334
-33,111,70,1279,-420,-815
-41,126,21,3898,911,-4048
-106,24,81,2494,2239,-3712
-63,-94,-4,1461,3739,-2672
-48,18,-86,1424,3782,-1519
45,-76,72,1299,4445,127
100,122,-34,374,3880,1686
-112,55,84,-1081,3438,2837
94,-12,-87,-4648,793,3356
-38,67,76,-3108,-2372,2584
-8,-80,62,-3032,-3383,3321
10,67,-38,-3734,-4696,303
-7,-121,-49,559,-5209,-4732
2,65,86,-1304,-2933,-4736
-92,97,-35,1073,1991,-4292
-11,-87,-89,-194,1578,-3872
-50,34,-3,-794,3489,-2445
-71,-16,12,-1207,3864,-308
42,-4,102,-989,4752,628
68,-37,12,-120,3840,1688
93,-5,-62,-940,2826,2165
39,29,-46,-2325,1146,3533
-10,42,123,-2852,-373,3170
-32,77,-1,-994,-1324,3845
-101,-32,-21,-9071,-3795,1095
-41,-97,-87,-1456,-8532,-191
-78,78,99,-3352,-7791,-1195
53,-14,113,-920,-5491,-1036
97,-89,-75,-2703,-2047,-596
0,-74,-66,-1225,-1131,-329
1,102,-8,-924,-520,-201
-73,-96,-88,-905,818,-232
96,-5,34,-1437,735,286
112,-95,57,-2552,1098,-50
-101,-126,10,-3250,2185,999
-29,111,-124,-2471,1501,1843
11,-28,113,-4551,1788,1750
116,-6,82,-3434,2094,2584
-12,81,74,-880,1457,2584
-125,-37,83,-273,1070,2806
6,-86,-12,2888,1313,2419
-1,-7,59,686,106,2077
-7,-94,58,824,964,2435
57,-51,71,39,1340,2183
23,-92,68,945,1287,1945
12,-91,65,656,1084,1791
-19,101,67,1213,694,1073
-24,57,72,1461,513,643
-52,16,79,1083,282,-56
-68,-64,90,755,212,-547
-60,-105,123,337,-8,-867
-67,74,22,2254,2469,-3999
-100,110,9,3158,3194,-2631
-55,-24,116,1544,4368,-1220
-34,-81,54,120,3901,368
-41,64,-45,432,4786,2473
-107,-89,75,-1863,4541,4414
-9,-30,127,-2747,1850,2967
-98,-87,63,-3020,-1656,4586
79,-112,100,-3081,-3915,2222
-69,-58,-58,-2251,-4121,-1075
98,-52,57,-2059,-4711,-2592
19,107,104,-1712,-3626,-5029
-90,126,-123,64,-2857,-4949
31,-60,-45,-1979,837,-5181
104,52,-19,779,4330,-2983
103,31,-71,48,4380,-1483
-72,115,-75,-1070,4552,633
65,-74,55,-1277,4267,2753
-59,-102,-77,88,4025,3428
-47,63,65,-3503,2529,3415
127,72,-39,-3292,324,3750
-56,-70,125,-3112,-870,2945
-127,114,88,-4402,-6316,541
-52,-99,51,-1926,-7440,-1615
-104,-81,-1,-5178,-8868,-3303
-88,-91,32,-3321,557,-253
92,-37,-68,-1848,-1212,-1454
77,-31,23,514,1114,-1573
4,-127,-9,-288,-498,-627
-33,-13,32,-194,-69,-309
-67,79,102,-702,616,-322
-43,51,-126,-621,1055,-284
-12,24,-110,-1396,1841,-472
84,41,125,-2845,1954,828
-81,-114,18,-4653,2119,1969
-28,15,-14,-3649,955,2514
72,-121,56,-1780,-47,3064
-85,23,108,-2648,-62,2895
-27,1,-104,-762,583,2695
48,112,-63,-757,801,2112
70,88,-13,753,308,2308
84,72,-91,1243,984,1132
32,-26,-92,2526,76,1191
-7,-100,-115,2515,512,782
1,54,53,2214,1115,118
-13,23,86,1155,624,-98
-33,-31,96,470,212,-103
-26,-53,122,-540,31,-473
-18,-78,-117,-459,157,-712
-10,-105,-115,-152,271,-723
-66,-96,98,4470,-1272,-2662
113,-45,46,3360,1040,-4595
73,-16,-90,3214,182,-4861
31,-79,14,1846,2843,-4352
-101,51,-71,3105,4102,-2196
23,58,-10,241,5551,-846
120,1,-17,-10,4619,1770
31,120,67,-3216,4430,3566
96,-117,36,-2477,1533,4548
-65,-30,-66,-3807,-1478,3318
59,-17,-44,-315,-3638,2814
-89,67,108,-3272,-4473,1353
123,-80,-4,-2662,-5610,-2218
-24,-73,-13,-1833,-3679,-4705
-65,-115,84,698,-321,-4069
-12,41,-102,-747,2344,-3979
-85,-98,105,-308,3741,-2571
-48,-53,123,-1127,5201,-1889
84,-121,45,-382,4873,549
-80,-7,-58,-1816,4243,1968
-88,-104,105,418,2632,4323
-93,36,-103,6008,2800,6056
126,-94,6,-3422,797,1123
-2,-54,-19,-5337,-2621,2950
55,-121,-34,-3677,-5210,912
18,83,-117,-3305,-8348,824
-100,61,37,-1461,-8245,-797
24,68,-69,-3971,-2972,-368
-59,-113,35,-1937,-1729,348
-35,-44,29,-485,666,20
-85,77,79,-754,99,573
-103,97,48,-66,1177,-970
-75,-50,-89,-737,1416,-939
9,47,-123,-5449,1636,-391
69,17,88,-4820,2334,291
-98,-88,-43,-6835,2068,1432
-78,40,-48,-5141,1181,1896
18,44,69,1090,245,3398
-24,83,-89,-1444,977,2207
-4,36,95,-548,868,2959
49,89,-61,222,-132,2918
125,65,-123,1232,1504,2190
57,47,114,763,764,1792
40,5,108,-5,482,1313
11,-106,114,1531,377,1314
10,106,-126,1422,384,1055
1,34,107,886,525,596
-24,37,-119,-334,-78,-108
-33,-13,-115,-385,50,-533
-38,-52,-91,-337,61,-802
40,-53,-106,3949,-188,-4519
-26,-17,25,2216,636,-4206
-111,64,11,1717,2714,-2949
-90,-73,-118,1753,4202,-1475
28,-97,-54,844,4719,-522
-86,-70,32,-2054,5487,462
33,-3,-50,-4174,3269,2141
32,-105,-51,-3479,-659,4231
51,13,14,-175,-1348,2656
-75,-74,4,-512,-2451,2214
70,16,89,-2664,-4349,534
25,110,-87,-880,-5146,-2194
120,111,-90,68,-3715,-3836
-104,-13,99,-311,-721,-3904
101,-71,-83,4,2146,-3503
-29,-53,124,399,2556,-2342
16,-88,-113,218,4424,-1079
39,-101,-77,683,4314,-71
101,-86,-83,-756,4898,1323
116,-101,-27,-395,2778,2538
117,17,-1,-917,1104,2551
19,-2,-11,-1439,-449,3445
95,-75,-84,-3198,-1675,2446
5,-90,123,-2384,-3610,2115
-57,-12,117,-2276,-4576,483
-7,-16,-45,-3032,-6305,-191
-29,-17,62,-4124,-6311,-2603
95,-20,88,-728,-4318,-1393
124,118,41,-1381,-635,27
-88,-18,45,-18,-651,125
-11,-77,79,-678,609,242
-78,20,-17,-974,384,299
-72,47,-29,-1871,843,373
-11,26,-84,-2012,1794,764
51,82,74,-3569,1787,1848
67,-86,4,-3542,2041,1968
-79,-20,-11,-2028,1603,2114
21,105,6,-1770,1389,2191
79,-99,12,-994,1514,2230
-74,-64,34,-18,829,2201
-55,-32,32,-212,840,2193
-55,-47,42,-39,643,2078
-52,-38,93,135,63,1589
-45,105,76,2029,925,1540
-58,122,40,459,1003,946
-61,85,68,65,768,1005
-71,52,86,557,451,564
-81,-3,90,660,660,166
-81,-17,110,36,390,-145
-76,-61,107,98,258,-335
-5,126,31,-1957,2456,4314
85,127,8,-2653,-398,4750
13,108,-60,-1184,-1305,2567
100,35,-94,-2331,-3602,1453
75,12,45,-4279,-5642,102
54,-119,-24,-3075,-4913,-3296
81,88,-79,-40,-3164,-3603
-101,-83,-24,-71,-925,-4161
-102,92,89,-1202,463,-3069
-19,-44,-83,-1210,4239,-1921
8,-107,-119,-76,4759,-312
-41,-16,98,-1328,5485,1270
-85,29,102,-454,4240,2223
-88,93,35,-1596,3068,2687
-86,32,49,862,1214,3661
22,44,-12,-2033,2081,2580
-108,13,-26,-1435,-2712,1441
-76,82,-15,-4610,-3304,1158
-90,30,61,-1442,-5350,-848
-41,46,-76,-4033,-6327,-1511
-40,-122,49,-4304,-7018,-2375
-56,-76,-120,-1576,-2790,-1690
107,48,12,-273,-2037,-709
82,-60,67,-566,682,-188
-61,-120,86,-299,362,-77
-80,16,16,-580,1345,-457
-39,89,-101,-1568,1169,26
49,110,99,-5082,2401,413
88,101,-11,-5275,2510,1684
-98,-43,-42,-3220,1141,2554
2,104,47,-1747,380,2684
88,-1,68,-1234,900,2470
-71,31,-105,-516,738,2448
-21,16,105,373,1253,2376
-10,-2,106,362,852,2622
19,30,107,-656,510,2301
30,-59,-111,1786,601,2562
41,96,-122,3506,694,2163
36,83,123,1619,615,1130
0,56,108,-210,573,520
-36,-2,-114,-80,125,-140
-45,-84,-95,695,29,-419
-18,125,-92,730,1043,-1011
-34,103,-51,236,957,-1262
-27,85,-44,-301,-100,-688
3,81,-39,-812,-388,-657
17,78,-38,-838,325,-875
-30,73,-55,-458,298,-576
-33,66,-70,-235,266,-173
-22,96,-74,-656,458,90
-12,-126,-57,2457,-4131,-3135
-126,-120,21,2817,-1340,-5133
58,33,113,2695,-1351,-4797
-21,-51,-123,1612,15,-4493
89,49,94,1499,1480,-3821
34,126,-3,2119,2573,-2134
4,18,-113,1251,3708,-1108
93,-44,-4,636,4529,1341
-3,-57,79,1212,4162,2207
81,12,-89,-2589,3961,3707
-10,92,94,-2228,891,4492
-31,16,-53,-1804,328,2958
45,18,49,-3730,-3802,2237
94,-31,95,-3588,-6561,-73
-24,112,12,-2582,-2693,-3346
66,30,-34,-1636,-2637,-4622
-50,14,87,-267,-585,-3630
124,124,-119,-970,2492,-3332
4,105,-119,-1338,2755,-2754
46,100,22,-471,4855,-940
99,104,92,-70,4288,695
0,98,-58,-1286,4272,3042
75,-40,-117,-1127,2899,4239
29,-115,-49,-1336,1745,3788
-53,5,35,-734,645,2559
38,62,-17,-2536,1129,1922
92,82,98,-3667,-3968,146
71,-13,-34,-3597,-6223,-2304
-20,83,71,-238,-7353,-1737
-108,-30,-37,-3694,-7366,-654
5,-63,-65,-1508,-2195,-562
-54,122,-33,-1569,662,-518
-51,75,-76,-723,-454,-179
-67,-37,92,-571,1184,-536
-77,76,-126,-946,319,-689
-65,-97,127,-2370,185,-648
35,126,107,-3687,2038,-62
-19,108,71,-4224,1423,905
69,-49,26,-5276,1954,1176
-119,-2,30,-2026,1396,1812
-28,118,95,-809,1128,2106
96,-18,92,-334,1011,2491
-104,-7,61,-725,1382,1985
-38,-9,84,-488,714,2265
-18,-24,74,13,804,2403
22,-25,118,328,276,2786
43,-11,119,-257,281,2349
29,-55,-86,201,52,2298
3,-52,-62,462,-54,1505
1,-72,-57,568,314,750
53,-106,-58,5779,-3067,-2597
83,-8,32,-192,-5511,-4391
-20,-25,-13,1450,-827,-5298
46,46,-53,2156,-621,-4310
-56,119,-32,993,1686,-4057
-79,-22,99,930,2171,-3182
-38,36,-14,532,3900,-1748
-94,84,109,-618,5506,-324
79,101,-99,-60,5597,2232
-57,75,-104,266,3331,2985
126,-118,122,-2296,3311,5088
52,107,-23,-2875,310,3508
26,-29,-62,-3352,-2104,2043
67,105,-16,-10678,-5746,-758
111,-100,127,1296,-5111,-4762
70,125,57,-1186,-3748,-4786
17,53,-98,-2945,-1030,-4795
-33,-23,64,-87,1894,-3437
-5,-19,92,572,3014,-2290
119,111,-105,-1641,5489,-2342
-66,125,-33,-1253,4056,636
-116,104,18,928,5004,2339
-49,97,-120,-732,4121,3180
-28,78,89,-2726,2669,4624
-54,-82,49,-2943,932,3933
91,-81,-79,-9552,628,2366
-6,-14,82,2044,-3880,-1165
115,-126,-31,-1995,-6690,-3096
-127,42,-48,1521,-7801,-3576
50,27,60,2236,-7083,-3689
59,14,-80,-1747,-3670,-1283
35,44,6,-2070,-1716,-547
-92,104,75,-922,-180,281
-34,93,122,-698,-232,1144
-36,-61,-60,799,575,-19
-69,35,111,390,343,56
-5,10,-109,-587,1039,570
58,-2,-99,-1269,1945,734
116,-83,110,-483,2224,1445
-83,22,28,-1684,2252,1788
-47,-1,36,-876,1940,2098
68,97,-28,-2424,2354,2345
98,-38,-70,-3027,1966,2062
-76,-24,-39,-904,1267,2575
18,89,-17,-1230,1659,2240
2,-93,43,-1717,1395,2126
30,102,113,-21,1291,2385
29,123,127,264,744,1508
24,49,-115,1911,1157,1148
1,53,109,856,1400,507
-118,-112,-99,2215,-959,-4964
83,-94,64,2160,-1052,-4421
32,-49,-63,1463,955,-4100
-85,80,-119,1018,1892,-3061
124,-76,19,1685,3118,-1750
-104,-79,-106,934,3833,-546
-50,-106,27,345,4064,862
-121,-60,-123,-1288,4299,1703
-88,-110,-14,-1414,2793,3238
107,-102,-106,-1231,1382,3852
-58,-107,117,-2576,15,3310
70,-22,69,-808,-1192,3321
-62,45,-20,-2460,-2207,1208
-71,30,-13,-2901,-4813,-142
-18,41,-88,-1890,-5033,-2748
114,82,40,620,-4937,-2376
-5,-44,92,-3539,1135,-3444
-12,-62,-84,181,1659,-2616
81,-65,66,671,4616,-2095
-73,-53,-11,-156,4015,-878
-40,-64,94,-807,5060,17
36,62,-90,821,4686,1643
-14,113,14,-421,2526,1985
94,113,-121,1479,1272,3048
-11,-57,122,-484,-703,2334
-13,50,87,-4138,-1499,2612
-46,-109,81,-1474,-3828,2084
22,25,-92,-4655,-4656,1231
-21,87,-4,35,-4775,222
-58,1,-87,-3997,-6383,1576
125,-42,-22,-1512,-615,2
-95,22,83,-1051,-924,243
39,122,79,-731,464,-106
-40,-28,-82,-1110,1233,-351
-49,-62,61,98,1615,-817
22,-91,32,-886,1457,-386
115,-14,-61,-3898,2244,1269
-112,34,-24,-4664,3134,885
-64,120,-57,-3206,2600,1500
14,-109,-79,-62,2600,1493
-93,52,-119,-1042,2987,1006
-62,26,-45,791,1483,2187
-34,-105,27,-2450,1725,802
26,78,16,-1353,2221,1209
17,43,59,1086,1273,1973
40,-59,79,3890,1033,2480
53,-110,79,3104,1571,1354
64,-112,73,635,1748,492
27,69,100,74,974,97
-8,64,-125,99,-159,362
85,95,-11,-3136,7064,3856
-120,108,23,1682,-7402,-2700
-123,109,40,-309,-4258,-2529
-55,-52,18,3177,-4301,-3482
-57,-49,46,1790,-2528,-3930
-123,77,111,2191,-1347,-4342
98,-8,92,1090,984,-3836
18,102,36,867,1950,-3857
43,-90,-78,847,3541,-2382
54,79,56,1526,3713,-748
-114,50,-86,650,4249,359
20,18,24,-958,4339,2059
94,43,94,-4045,3782,3560
42,3,2,-4241,953,3156
-14,108,-90,-39,-827,4083
60,43,-128,-2407,-3322,1519
-62,122,-36,-1688,-4433,271
-88,-41,-90,-2535,-5285,-2172
109,82,125,-1280,-3556,-3539
4,-109,112,-1764,-1523,-3528
70,19,101,-18,2264,-3177
-3,-82,96,186,2584,-2527
40,101,45,-162,4227,-1361
105,75,97,-32,4582,487
-91,64,-70,-162,4691,1503
-27,78,12,-140,3969,3137
-2,15,-68,-2046,2956,3048
-91,60,21,-1101,-219,2685
-56,-116,-125,-3528,-1206,1959
32,-18,-68,-3300,-4449,1204
-19,102,122,-4762,-4901,-10
111,-51,-126,-2370,-5075,-1263
27,-59,-61,-3632,-6025,-960
44,-44,-70,-1149,-3724,-686
-124,-20,38,-2257,-131,-135
-40,98,111,33,840,-308
-115,9,91,-493,544,-63
113,-81,-97,-746,1484,-703
117,-75,-86,-1219,1321,-610
-68,-82,105,-3600,1335,-170
13,-82,57,-4499,1858,469
32,-79,33,-2754,2342,1861
83,123,24,-3057,1347,1994
-111,8,82,-3118,929,1881
-1,57,95,-1574,1326,2341
124,48,-109,1697,775,2726
-30,-103,127,-187,1049,2324
13,91,87,586,1293,2139
4,67,-128,620,-40,2190
3,44,-97,474,-130,1847
25,63,-85,3938,-5101,-629
-94,17,-27,1017,-740,-3669
-127,110,54,2957,-929,-3528
-79,102,111,1898,-515,-4135
-97,-28,-53,1466,215,-4076
-87,95,-18,1231,2016,-3814
107,-69,-36,586,2499,-2843
83,17,-92,710,4245,-1218
-59,25,5,391,4980,580
71,43,46,-264,4365,1754
52,11,94,-1025,2580,2772
-38,-117,68,-1114,704,3652
-87,-36,10,-1625,-316,2833
-11,-89,6,-3836,-2846,2392
-71,-73,-72,-2652,-4301,1910
-96,101,-7,-2477,-3785,-2455
39,77,12,-171,-4492,-2924
-85,-72,-87,-2162,-1023,-3932
-107,44,-49,-615,59,-3412
93,-48,98,-580,2457,-2876
37,-94,-85,-649,2795,-1991
81,83,-52,-593,4257,-877
-120,61,50,-528,4237,1057
-22,121,-97,-308,4086,2041
-63,31,121,-1446,3169,3009
-69,106,107,-714,2451,2770
-39,-19,-27,-2388,550,2586
-72,108,22,-3029,-1732,1644
-67,105,-27,-2315,-3528,324
77,49,40,-2881,-4684,-420
114,-86,-51,-3317,-5522,-1464
-89,115,-71,-3099,-6464,-2042
-112,19,-118,-2140,-3902,-2059
-70,-61,118,-1455,-2583,-667
-69,-35,-84,-610,-331,-353
-23,95,-32,51,495,162
-122,23,84,-1235,773,555
-98,87,24,-1510,1534,206
11,-90,-123,-3827,2170,612
90,-20,8,-5711,1765,1794
75,16,-9,-3589,850,2557
-100,118,54,-1330,727,2659
4,-3,65,-653,925,2909
122,0,79,1155,1025,2568
-50,76,28,437,1802,2548
-28,92,83,-790,1692,2712
25,9,106,277,633,1881
43,-42,110,1560,284,2620
12,-26,102,409,-193,1250
-13,-119,123,1128,465,971
75,-55,46,-1642,3538,3708
-43,-22,-58,-2355,963,3034
-37,98,9,-766,62,3545
-53,-9,-86,-1490,-1616,1990
98,-70,-70,-2931,-4849,1235
-18,63,115,-2812,-5266,-1250
-26,-20,77,-2276,-4779,-3471
10,31,72,-2505,-2326,-3451
-123,11,-112,-1398,551,-3239
3,-122,-116,101,2296,-2150
-52,-31,-85,-2377,3840,-953
27,-54,-75,99,4747,142
-83,-49,26,563,4940,1166
18,-1,-88,-573,3948,2050
41,15,24,-655,3277,2947
-108,40,-63,-531,1042,2869
81,-69,74,-1618,-161,2990
-104,-111,-18,-5423,-1557,1693
71,-108,-56,-4441,-3504,-473
-90,32,-122,-2534,-4936,-2159
-32,-96,75,-3372,-5390,-2434
123,-16,-87,-2061,-6112,-2774
103,77,-65,-1666,-2533,-1580
1,38,-51,-1997,-1028,-253
-10,-59,-103,-270,-399,25
-115,-12,-114,-393,1072,62
-71,83,-4,-1112,481,228
-13,-114,-36,-2074,2012,402
86,119,17,-2920,3025,952
-121,-12,22,-4094,2271,2037
-27,-11,-24,-545,2054,2199
-29,117,-47,847,2377,2345
-84,-1,13,-2,549,2406
1,-35,-84,-755,1726,2651
-39,18,59,376,346,2741
27,-13,85,-65,1368,1947
31,-90,67,354,2027,1625
67,101,61,1076,932,1975
24,80,75,690,278,1445
0,-8,99,522,390,622
-8,-49,115,370,348,-34
-33,-111,-122,1135,-203,-232
-51,55,-104,1937,-873,-879
-43,96,-94,286,-28,-694
-57,59,-112,-492,709,-537
-62,29,-87,-646,-29,-621
-46,29,-91,-349,11,-286
-43,54,-96,-647,259,-271
-54,58,-101,-653,362,-379
-62,54,-105,-320,360,-127
61,-27,-29,3178,-1334,-4003
-127,102,-112,1982,-1965,-5024
73,101,37,941,-290,-4618
-119,32,127,1012,1013,-3868
53,110,35,1085,2918,-2534
8,97,-50,100,4323,-1356
114,76,9,68,5386,583
99,-81,120,-1466,5594,2281
30,-103,-36,-693,4796,3417
-3,-117,-65,-1144,2299,4649
52,-3,118,-1020,716,5199
40,-77,-27,-5517,-1062,2995
-52,102,16,-438,-4356,549
44,64,42,-1819,-6068,-2363
-18,-89,74,-1294,-3409,-3023
-80,-116,53,-2393,-1282,-4059
-54,16,-125,480,940,-3480
82,-69,-69,-221,2356,-2778
82,120,69,201,3751,-1248
116,-105,-68,8,3830,-489
30,84,80,29,5087,918
-122,118,-63,-268,5061,2062
-28,98,-121,330,2252,2690
108,-38,-110,-2379,1999,3641
65,78,-34,-2802,-530,2442
-11,-4,123,-2935,-1577,1683
-108,-39,-74,-3213,-4825,87
113,-114,-92,-2858,-4507,-417
-113,89,106,-1357,-5946,-1086
113,29,65,-2146,-4809,-620
-102,-87,96,-1500,-746,-213
-84,-19,-124,-1913,-2056,773
66,74,81,752,989,-745
-6,-31,-22,-513,470,-526
8,-23,-73,-1144,325,-569
70,20,127,-3864,727,131
110,-54,92,-3504,1225,2060
41,-122,91,-2866,760,3338
-73,-1,5,-4183,2546,2199
21,19,-19,-2128,3037,2049
-115,-85,34,-1382,1133,2247
17,-74,0,-147,1954,2526
63,28,98,-1684,651,2189
82,-38,97,542,1336,2109
106,-97,-114,2384,879,2705
112,-77,100,1055,677,1555
68,96,102,1434,472,1350
10,17,77,1338,292,827
-12,-3,95,436,8,161
-28,-56,104,343,57,-246
-95,21,28,3744,754,-3584
-115,-94,59,1987,2281,-3049
-87,-70,12,1953,3382,-1678
-13,-103,-64,983,3991,-341
49,100,118,576,4224,888
-66,118,-44,-2199,4669,1691
-10,115,-61,-1871,2027,3457
29,65,65,-2416,-938,3202
126,0,12,-2337,-2085,2375
48,-40,100,-1785,-3570,1343
-27,-119,33,-137,-4554,-715
-107,-123,-73,-2942,-5090,-2686
26,66,9,-431,-3252,-3976
-115,22,73,-204,-992,-3696
-120,-11,49,-355,1572,-2878
68,-59,-119,-1093,3390,-1716
-97,-41,78,-1615,5452,-425
110,24,100,-1959,5579,641
-95,126,-70,1063,4404,2272
112,48,-4,-3202,2414,3218
-22,-81,22,-2502,578,3508
-91,124,112,432,-781,2447
-68,-111,58,-5035,-2162,1616
95,100,-14,-3020,-4730,236
-95,-59,-116,-4019,-5431,-1003
-13,65,-73,-2005,-6692,-2447
-121,-18,-36,-1468,-4508,-3202
51,5,-90,-319,-2899,-3021
-24,-18,-61,-557,-310,68
33,-109,53,-562,772,201
-76,-76,-43,-1226,816,144
-37,-13,-67,-1427,955,269
0,63,-88,-3918,1270,558
106,122,36,-4923,2170,1093
-97,-68,-23,-3315,1765,1930
-40,53,18,-1680,420,3194
85,-1,39,-2031,1584,2582
-79,25,34,-119,1718,2491
9,28,70,2197,1365,2761
-5,45,13,-297,1146,2291
-18,26,68,-1283,311,2312
-21,-42,117,-544,142,2395
31,-64,-101,-289,294,2100
33,-78,-121,291,639,1183
3,-84,123,971,231,328
-34,54,-107,1158,665,-877
-36,-45,-100,1067,636,-954
-50,-72,-118,303,400,-491
-38,-120,-104,20,73,-579
-38,125,-97,52,125,-434
65,-54,-84,5602,1024,-3057
-100,114,91,3314,-1975,-3199
30,-55,-85,2062,563,-4259
-61,-13,-11,2942,837,-3361
105,-105,-27,1546,1836,-2997
82,1,-100,1789,2897,-1985
119,-55,80,1638,3618,-830
-118,-98,-8,1270,3565,454
-32,85,-122,578,3844,2172
89,88,11,-246,3562,3087
107,-83,105,-2877,2931,3479
-116,40,-33,-567,-633,3152
108,-68,-119,-687,-1020,3039
-121,31,95,-2764,-4825,736
-8,-31,57,-3168,-4884,-1479
45,-99,20,-651,-4339,-3635
10,-58,-6,-2798,-2505,-3904
17,-84,-76,-1729,119,-3958
-78,14,89,-2030,1286,-3530
40,114,-82,-270,3333,-1894
3,-92,40,-96,3550,32
83,-30,-66,-642,4339,1201
12,-12,-13,-698,4336,2425
53,-35,-55,-288,4098,4111
60,117,122,-2053,1166,4109
-4,103,-11,-1961,1464,3179
101,-27,-109,-1113,-1697,1875
-40,-14,38,-1439,-2223,140
123,61,81,-3074,-4563,-96
50,25,-31,-4605,-4297,-1537
101,95,-52,-1922,-4887,-2170
-86,29,-42,-1783,-5060,-1793
75,-60,-7,-1295,-2365,-1501
41,-39,99,-2712,-405,-444
52,-38,-29,-466,-348,-92
3,-69,95,-2045,476,-11
-67,-22,43,-420,300,170
-2,39,-42,-2879,1231,708
55,117,81,-4297,2081,1427
-120,-4,-27,-3627,2192,1860
-37,31,-16,-1525,1096,2669
61,-53,-1,-2059,667,2869
-81,-36,61,782,466,2838
0,37,44,75,799,2595
24,44,123,223,212,3033
72,-25,61,1236,1401,2049
83,15,72,514,540,2154
-9,-62,-107,477,-511,1512
-9,-99,-116,439,557,840
-40,53,-108,2011,625,606
-97,-29,-1,-1424,2779,4551
-76,84,-76,-2554,1304,4879
34,-46,25,1423,-382,3913
106,60,-6,-907,-3112,2278
88,22,-42,-2979,-5777,-342
1,2,88,-1762,-5068,-2847
-107,48,6,-2509,-2695,-3757
89,118,120,-1728,-309,-3803
-109,-85,-101,-744,1733,-3143
35,-123,-46,-570,2252,-1856
-16,-105,46,250,3884,-722
71,-94,-85,96,4967,526
-61,116,23,447,4675,1780
1,75,97,-1333,4185,3696
-34,-53,14,-2455,2050,3884
-80,-76,-115,-676,-728,3654
-79,56,-98,-1400,-2249,2209
-23,-79,-21,-2661,-2154,939
-85,-39,-33,-4843,-3433,-615
79,4,108,-1767,-4647,-2507
41,35,-101,-651,-5686,-1467
-96,77,-39,-1771,-2503,-1526
74,-61,114,-1113,-650,104
-114,103,-126,-801,1077,-8
35,-92,-30,-103,1422,-501
104,26,108,-1379,549,-473
-107,22,86,-1843,986,16
-55,33,53,-3061,2008,984
-43,21,30,-2371,2536,1166
25,121,-47,-2695,1351,2022
115,12,-95,-3092,1689,1471
-98,19,-43,-1065,1636,2135
-6,78,-2,-1210,1907,1608
60,-118,-19,-446,2294,787
54,-60,84,-450,198,2149
38,-73,89,-1397,-71,1794
14,-109,-106,-587,-413,1650
-5,53,-123,1289,234,1347
7,40,92,1013,785,618
-22,46,107,269,434,168
-21,-29,103,795,357,-202
-32,-52,-119,371,-135,-358
-36,-106,-109,-89,139,-535
-35,-120,-100,-276,266,-619
-30,105,-114,-109,404,-543
-22,108,-102,-591,371,-254
-12,46,-123,512,481,-638
-30,51,-126,621,483,-131
-24,61,124,-242,576,65
-17,70,110,-468,479,109
-66,117,-112,-4405,-4415,-2266
100,54,99,140,-1062,-4075
37,-76,-1,-205,-1721,-3987
-58,-67,-27,-410,1914,-3030
61,-8,88,158,3199,-1508
95,76,120,-147,3902,-278
-125,39,-96,699,4324,1339
-92,-52,-87,191,4100,2826
8,72,26,-1746,3376,3867
-105,38,65,-2174,-255,2637
-105,-126,100,-2409,-1615,2355
37,-46,108,-2491,-3752,1115
37,-101,-4,-1656,-5560,623
-87,71,-69,-2381,-5696,359
-72,63,35,-1841,-4336,-1058
6,-77,30,-2335,-1622,-346
-57,-95,-10,-760,-602,-331
23,41,-63,-1319,461,-644
-18,99,93,-1674,655,-340
6,-94,18,-2926,909,-1751
91,9,-107,-6304,2353,931
95,-52,14,-5427,470,1760
-114,-10,-19,-2957,1010,2100
-16,-42,3,-2090,1353,2105
48,-25,6,-958,1308,2072
121,105,70,-1849,491,2144
-70,24,78,1430,598,2499
-47,70,92,-115,710,2107
-21,49,80,-587,707,1439
-23,-28,121,583,328,1578
-8,-75,95,813,808,1348
-46,-79,100,246,103,972
-51,116,102,530,178,507
-47,97,100,242,-22,64
-51,51,97,145,31,-494
-48,9,110,194,718,-515
-68,-44,97,679,420,-512
-64,-68,96,585,174,-433
-47,-73,98,-174,237,-573
-40,-97,93,-281,396,-571
-57,-106,101,-234,154,-352
-58,-106,99,-277,353,-243
-54,-102,98,-339,463,-141
-48,-96,101,-176,313,-1
-50,-83,91,-379,401,20
-51,-71,96,-490,363,110
-43,-69,100,-209,491,182
-44,-59,91,-182,514,187
-41,-41,92,-446,352,188
-28,-48,97,-108,520,136
30,89,110,-2959,2491,2930
-106,-75,-62,860,2967,2982
70,12,-78,3458,-5406,973
-25,-120,65,-2405,-173,-3499
-88,-19,-35,2547,-1028,-2459
-75,-47,73,3720,-2145,-3789
-35,-124,-37,2500,-398,-4106
-80,-5,37,2676,106,-4237
-86,-127,109,2198,1863,-3699
-126,-4,51,1810,3058,-2747
-83,127,-79,1355,3926,-1523
-36,27,-8,713,4384,347
63,21,-120,-515,4641,2270
92,-24,-21,-1051,3568,3151
40,41,-29,-3826,2343,3862
-31,97,76,-2756,330,2858
-21,88,26,-1690,-1882,1363
-97,44,98,-271,-5548,13
94,108,-87,-1157,-4922,-1579
-28,126,8,-915,-4647,-3464
-2,-110,112,-1359,-2305,-3713
-9,-97,104,-1185,1131,-3359
86,-60,-44,-839,2226,-2875
86,11,-66,201,4276,-1424
-106,38,-67,206,4244,353
-40,73,-16,-631,4452,1487
-65,74,29,-621,2730,3008
-114,27,6,-2673,2391,3184
52,101,-90,-1184,-278,3107
-123,-14,43,-167,-1127,1754
47,64,28,-3576,-2726,820
84,124,-119,-2711,-3683,-1304
-6,-2,120,-3393,-6824,21
-76,62,-15,-1744,-6165,-921
-108,-25,61,-507,-5115,-637
27,-48,7,-1099,1000,-439
35,84,-87,-474,293,190
-34,-37,32,-543,1885,-582
-28,26,-107,-1022,1540,-558
45,68,38,-3272,1321,-113
-127,72,-7,-4481,1443,1025
-128,-127,-67,-3457,1833,1256
-113,12,-41,-3287,1242,1538
-24,102,-44,-1704,1422,2042
82,-74,20,-42,1640,2237
-75,14,-5,-749,2079,1263
-35,-24,19,-637,1732,1598
-27,14,48,-1581,680,2040
-26,-1,114,-842,-83,1963
0,5,-101,-721,372,1471
-98,87,-43,-4999,-4886,-1396
65,120,83,-138,-2172,-4062
37,74,22,-682,-2395,-3615
-72,69,27,-1369,788,-3555
20,45,113,169,1812,-2059
20,39,-61,-28,4391,-885
89,75,-11,-460,4624,410
-20,81,-13,-280,4319,1843
-61,67,-72,-1154,2990,2911
8,-68,20,-1359,2265,3220
53,45,-59,-1234,-38,3601
76,-25,126,-1714,-680,1869
-14,-102,95,-2303,-2611,1045
-79,-29,-8,-3078,-4815,-559
-116,-69,37,-2085,-7724,-1314
-44,113,80,-2584,-4913,-1216
-37,-8,44,-2250,-3553,-253
16,54,-108,-1307,492,-95
36,17,89,-1279,1327,-50
-17,-70,29,-1688,763,-310
-1,78,75,-2784,671,257
40,76,45,-3313,1798,984
37,115,-35,-3230,2206,884
95,-63,-13,-3208,1365,1531
-83,14,14,-1635,1390,1967
18,119,7,-554,1560,1699
89,-42,4,-1091,1669,1996
-120,-62,31,-650,1234,2015
-35,-13,84,-835,822,2365
-44,-77,93,1068,811,2356
5,-9,100,-681,973,1957
26,-52,61,-466,233,909
-45,-32,-114,-498,-660,708
-45,-86,116,-141,100,271
-61,-123,102,410,401,-538
-74,42,83,1195,623,-516
-66,-43,63,988,514,-721
-58,-52,70,131,129,-592
-52,-91,88,-240,-53,-692
-79,124,101,-107,-96,-358
-90,-125,100,-338,173,-66
-84,-126,102,-231,541,-3
-81,-99,87,-316,447,288
-74,-81,89,-464,290,299
-64,-77,79,-271,461,352
-67,-45,74,-439,400,407
-60,-31,71,-424,343,210
-58,-17,71,-417,287,17
-58,-21,76,-154,276,-223
-64,-38,75,-36,235,-266
-83,-123,72,6126,-992,-2764
-58,-107,-63,2786,1255,-3418
-53,-67,-78,4211,2181,-3178
-21,-113,81,1738,2688,-2574
5,-5,-14,2044,3223,-1757
42,122,-83,1838,3838,7
111,5,38,1223,4822,1445
-49,-7,57,-1723,4399,2784
64,-91,-52,-4440,1195,3924
-41,-60,-119,201,338,2947
-93,42,37,-306,-2511,3445
52,23,99,-3117,-3476,1742
-48,85,-101,-3637,-6227,-254
-92,69,86,-3158,-4453,-2784
-39,-68,122,954,-1528,-4083
0,-15,-16,-1216,-515,-3417
-74,14,-84,-1274,2350,-3076
88,71,-49,157,3870,-1827
-115,86,34,-305,4532,-564
5,39,77,202,4404,894
8,44,38,-291,3869,2225
39,64,4,628,3231,3113
-61,7,-98,-929,2051,2741
40,79,54,-1844,-257,2363
12,113,-1,-2479,-422,2471
-84,1,44,-4346,-2803,1001
-115,-4,43,-3550,-4509,-75
27,-106,29,-1616,-6637,-2301
7,99,14,-2544,-6784,-728
4,-7,-67,-2356,-872,-977
67,34,3,-1834,-1002,-100
124,-78,-29,-437,179,-233
47,54,49,-986,633,182
40,-56,-19,-2180,1280,373
84,55,73,-3853,1474,847
-66,-96,4,-5073,2147,1758
-102,70,2,-5623,1782,1922
-17,13,44,-519,1445,1689
-90,-82,72,-503,1616,2572
9,7,25,-188,1191,1785
-10,40,76,-1009,1015,3078
32,24,69,-2623,651,2341
32,-23,-127,-1110,-212,1317
73,-80,-82,1393,340,2229
97,-83,-114,1272,307,1161
22,-123,-114,918,-91,844
27,74,-105,789,540,97
19,-3,-122,1375,851,-68
-37,-26,-101,339,-11,-22
-18,-72,-113,8,124,-148
14,-120,-6,-4184,1574,4186
-15,94,-22,-685,178,3220
117,49,-73,-1332,-1307,2719
60,10,-79,-2925,-3748,574
-50,50,-94,-1544,-5488,-1398
88,-20,-85,-2394,-5012,-3567
111,-38,127,-934,-1424,-4098
-27,-109,89,-422,-811,-3211
58,-71,-89,-585,2464,-2525
10,-107,-44,-85,2877,-1281
52,-123,44,-401,4339,25
-82,120,84,322,4250,1529
-23,125,21,323,4506,2478
57,-76,-123,-879,3751,3197
24,8,-77,-1269,2133,3046
117,14,-113,-653,-847,2669
-84,63,51,-4093,-1687,1990
44,118,40,-3519,-4310,341
2,124,-114,-2105,-5263,-1181
-48,94,47,-3007,-6563,-1295
116,-70,-64,-2291,-5584,-1609
124,87,-82,-3330,-2535,189
83,79,-99,-1338,306,-1030
-3,10,13,-551,92,16
-59,-100,40,-905,1053,-67
-77,114,-40,-2325,2329,-574
-18,88,108,-3262,1943,-77
75,-96,46,-4794,2241,239
113,-98,-24,-2441,1567,1996
-56,73,3,-2970,1351,2104
-5,90,13,-1254,769,2505
-128,18,36,-2729,724,2090
-84,8,99,-1407,746,2395
-38,55,-103,-790,695,2079
8,81,-63,-360,378,2071
47,18,-76,1332,205,2262
30,-17,-70,1383,715,1590
12,-86,119,1277,568,1361
-12,-107,-119,348,94,1147
-12,85,-128,471,433,702
-3,49,-120,362,274,153
-26,4,125,604,160,-322
-31,-24,-118,198,29,-555
-33,-56,-110,-624,177,-926
-41,-36,-112,-1616,44,-1293
-41,-98,-103,3,75,-637
-48,-92,-118,27,597,-363
-48,-88,-126,-61,583,-379
-42,-90,112,-78,421,-151
-44,-82,122,-321,373,31
-26,17,-118,1447,4504,-2210
-15,30,121,703,4492,-824
117,-16,122,-386,5659,675
-99,-78,65,-1308,4050,2665
-11,114,-26,-2130,1025,4055
-117,114,-19,-1679,1115,2649
-94,31,-98,-1905,-1046,2179
97,-124,-78,-2686,-3977,1091
96,-75,85,-3393,-4915,-92
75,118,98,-3264,-5635,-2817
-64,-4,-19,-2529,-2637,-3436
-10,-8,118,-2985,773,-4510
-8,86,-36,900,430,-2616
-42,-128,-34,-1024,3668,-1760
-93,70,115,-227,4099,499
46,-77,-26,-528,4479,1881
-87,-38,-117,-543,4185,3425
10,93,67,-712,3328,3214
35,-106,58,-216,2164,3354
-4,-4,40,-405,698,3157
-77,91,15,-1298,525,2915
85,13,-65,-2385,-131,455
-73,14,45,-2936,-4722,-786
-16,35,-36,-3446,-4889,-2680
-74,-34,-25,-1486,-6853,-1985
83,113,24,-5777,-6774,-1501
-112,22,85,-3104,-1534,-736
8,-106,-67,-1786,-409,-134
-88,-82,-71,-1296,488,-131
-110,25,108,-226,1303,-710
-58,116,-4,-844,1519,-853
-26,90,99,-983,1151,-504
57,-70,68,-3510,2009,319
87,-72,-33,-2032,1682,2126
-103,51,-8,-2049,1191,2577
-11,-59,-17,-2424,1580,1953
79,-66,5,869,956,3064
-53,102,41,-1551,1346,2688
11,87,70,-508,983,2411
45,77,-124,489,431,2504
27,53,-103,529,388,1944
17,13,119,134,991,1489
-10,-64,-121,766,405,1032
-34,117,111,1467,91,759
-35,72,89,1131,378,339
-37,50,79,387,412,-239
-21,1,96,408,211,-693
-49,-70,91,540,8,-740
-36,-61,115,-851,-111,-1039
-39,-84,-119,-1012,-59,-1154
15,70,-79,-1591,4045,2516
-30,-116,102,-3027,1900,3582
-64,-15,11,-1669,38,3126
127,-93,-105,-950,-1566,2992
-65,26,-13,-1748,-4756,1120
-62,27,72,-2409,-5203,-1182
22,24,-95,-3246,-2890,-3878
-47,95,99,-622,-1454,-4065
-76,50,85,-266,295,-3578
-100,84,126,138,3149,-2313
96,80,-125,-16,3198,-1125
-106,48,-82,233,4421,-84
-106,33,-72,-483,4089,1112
-52,28,3,-1092,3824,3252
116,-87,-104,-760,1530,3455
77,-69,93,-1685,-189,2917
-118,73,72,-1274,-487,975
105,-106,-121,-1249,-5154,637
100,78,63,-3872,-5184,-866
120,30,-127,-3744,-4845,-372
-30,-99,122,-1400,-4866,-931
60,-22,-103,-2817,-3981,-534
-112,-90,40,-1352,-1943,-57
37,108,-19,-662,370,46
-45,1,-108,270,220,-925
-62,84,-11,-783,92,-1107
-31,31,-32,-2265,1093,505
-43,56,-55,-2994,1557,1081
10,41,-101,-3960,2046,1497
86,110,12,-3186,1497,2513
-97,27,20,-1469,1917,2374
50,-117,30,778,2892,1935
-79,-95,-74,-132,2655,1644
-61,-44,-11,-1491,659,2456
-10,-75,-16,-989,1330,2312
28,10,60,-932,890,1848
46,-42,56,635,857,2062
37,-67,98,1131,325,1485
10,-120,54,965,804,951
-21,93,78,677,272,649
-50,15,77,345,346,237
-69,-9,90,-85,182,-8
-44,-33,104,-546,79,-216
-50,-75,113,-145,111,-519
-42,-106,116,169,368,-503
-51,-124,124,41,242,-619
-65,125,118,-267,214,-438
-57,111,124,-265,290,-403
-48,114,120,-385,348,-216
-55,120,118,-417,382,-53
123,89,0,-4426,-2643,2441
-17,-53,42,-5455,-7585,1537
-110,-71,127,-4761,-4389,-2669
-74,-30,21,1003,-3215,-4467
-59,74,37,-1659,-1487,-4385
-26,63,20,-801,-41,-3671
57,-105,-85,-896,2702,-3329
-7,102,-40,-109,3850,-1903
37,113,17,-317,4979,-130
-81,119,25,735,5241,1322
38,77,-81,1195,4972,2549
96,18,107,-30,4137,3491
-49,69,-118,965,3039,4573
-64,55,-100,205,-168,1471
54,-88,39,-3946,-618,2546
-100,-20,-80,-3333,-3430,1152
-108,-104,52,-3565,-5129,-153
-96,-101,-43,-2543,-6245,-488
-79,57,-49,-2621,-7676,81
-122,113,123,-4166,-4779,-523
-4,50,-68,-1983,867,-1097
11,-107,4,-1399,-117,44
-75,-5,12,-250,2527,-889
106,-23,34,-1977,807,310
-30,15,118,-1488,1226,-316
19,16,116,-3028,1983,872
-4,-14,75,-2905,2045,1094
104,123,1,-4826,2099,1318
-58,-84,-13,-2767,1132,2527
62,77,-20,-917,351,3260
102,-96,25,-186,1422,2250
-43,-59,9,-576,2230,2251
-6,-60,-4,202,1302,2807
-13,-14,110,-1106,-114,3605
61,-17,94,-120,224,1956
15,-22,-104,885,811,1304
-38,-125,124,1960,390,994
-48,69,107,1410,471,385
-61,66,112,-389,182,-260
-74,-9,108,-607,212,-880
-70,-76,121,168,333,-1159
-69,125,120,550,362,-1169
-68,107,121,54,235,-1081
-63,85,118,-137,248,-795
-73,83,121,-400,99,-480
-82,91,126,-542,82,-272
-82,92,123,-359,387,45
-88,121,124,-639,299,189
-73,-110,-126,-591,371,360
-81,-85,126,-503,527,423
55,-121,-67,-1788,2989,3467
76,-59,-125,1527,-874,1760
-47,-126,127,1162,-2091,-1720
100,106,37,-2730,-1597,-1834
3,-117,-1,2008,-976,-1145
97,32,-79,268,-646,-2265
-118,-48,30,1765,-135,-2956
-95,-124,-34,2743,231,-3698
-83,51,33,2052,959,-3757
-88,-65,96,2026,1894,-3315
-81,-24,-5,1687,3143,-2166
-67,-128,123,1989,3745,-967
3,107,-1,1319,4138,412
58,-125,88,855,4002,1621
127,-117,-48,50,3754,2585
54,-112,75,-1907,1969,3586
-6,-126,49,-1807,775,2930
-74,11,17,-1258,-1951,2691
20,-90,89,-1780,-3240,1554
-71,-63,-118,-1833,-4895,-749
59,21,34,-751,-2936,-3122
-38,119,39,-706,-2115,-3899
1,6,14,-510,387,-3624
-61,61,111,-582,1394,-2980
109,78,-56,501,2283,-2127
103,41,79,732,3445,-563
96,48,-48,528,3849,846
119,19,28,823,3869,2262
-69,88,-89,-697,3517,3095
-79,-105,45,-523,1385,2688
89,19,-7,-2426,-670,2666
-108,89,-3,-3854,-1492,2369
-9,93,-14,-2578,-3313,1433
-115,-93,88,-3106,-4823,919
-79,16,-65,-2946,-4443,341
97,38,-106,-1849,-4786,-663
20,53,123,-1585,-4462,501
19,20,38,-1415,-764,168
-3,98,-27,-1126,48,223
-92,-68,74,-282,1345,-56
-126,-4,-51,-1679,1266,-209
126,-3,10,-1897,1947,-13
-17,43,-102,-4404,2350,-298
52,68,0,-5464,2458,1752
114,-24,-57,-4441,905,2458
-122,-51,-16,-3744,1350,2060
-10,21,117,-1791,755,2225
85,108,-87,-767,1092,1995
-120,102,-68,133,295,2484
-77,-72,-54,-979,373,2166
29,-20,-20,-2062,-3851,2518
-41,61,-20,-1019,-4431,627
-92,-100,112,-3656,-4175,-2621
125,-28,34,80,-3010,-3901
18,80,108,-1102,-68,-3738
73,73,-121,-1505,1507,-3063
76,-95,15,-439,3098,-2397
62,37,75,401,4053,-568
-95,84,-74,-365,4991,951
-14,101,19,-255,4343,2256
89,87,123,-737,4099,3435
80,24,9,-1716,1680,2628
125,66,-107,-920,-974,3312
-112,107,127,-3397,-937,1557
8,-119,50,-2463,-3298,400
-98,-119,66,-3230,-4735,-1762
-40,14,46,-510,-8425,-1228
-122,-67,86,-2871,-7525,-441
-105,109,-21,-1305,-1449,-1121
-46,-124,-59,-1376,156,-275
9,-1,101,-454,564,-206
-112,-73,71,-1007,1672,-237
-33,29,117,-1681,368,589
10,-123,57,-4491,1683,726
12,90,-41,-3935,2193,1165
88,-103,-16,-3281,1856,1599
-99,57,-5,-3215,1635,2266
17,-12,-7,-3484,1576,1815
83,-28,33,-927,804,2432
-100,-88,-119,-3556,641,2010
-34,-120,-87,-1644,576,1621
-68,-128,-10,116,-461,2111
-26,120,25,870,-214,1719
-5,54,-58,1584,800,1238
-13,37,-84,877,690,-122
-16,-40,-71,1571,1624,-730
-53,-122,-93,1479,370,299
-52,89,-107,781,-33,464
-32,39,-112,7,-73,-112
-23,19,-114,-296,447,-543
-30,-24,-111,110,375,-402
-38,-36,-115,-120,270,-308
-39,-38,-120,-263,389,-276
-35,-42,-121,-299,338,-202
-34,-44,-127,-271,351,-59
-31,-32,126,-415,292,29
-28,-26,127,-449,299,11
-30,-12,126,-369,350,24
-31,0,-127,-492,235,8
-29,4,-121,-409,287,23
18,-55,105,-2381,-4976,984
-76,117,-99,-2284,-5054,-1192
25,-52,45,-2136,-3787,-3333
123,-52,105,-2020,-1886,-3937
-15,96,106,-184,627,-3535
-115,114,-51,-217,2683,-2597
52,27,124,-7,3713,-1098
101,97,-53,-245,4622,392
-48,76,-6,526,4486,1327
-5,66,-73,203,4577,2609
-59,-71,-96,-965,3094,3034
-63,63,65,-500,1700,2732
-122,70,-56,-1102,474,2206
-99,-48,-23,-4118,-2313,1650
59,109,50,-1898,-4817,344
67,86,52,-2659,-6101,533
-43,-20,-109,-3318,-5505,-314
98,-37,-110,-1906,-3887,-786
-117,123,-67,-1541,-1172,-283
101,-75,-8,-1268,554,-133
-59,44,-48,-1190,829,-122
-28,0,100,-1592,1377,-1477
46,-1,91,-3166,390,-537
95,52,109,-4781,1889,-1060
127,-51,-11,-3113,899,1024
123,113,-2,-3210,1461,2174
-27,-5,-36,-2145,2330,1918
22,-87,0,-2525,578,1887
113,-114,-2,-309,1452,2345
-65,32,25,-1223,732,2566
-46,45,106,-1561,330,2106
-14,78,-119,-1617,1067,1908
-5,36,-50,-501,263,1849
10,47,-73,-735,352,1874
-12,-69,-45,1062,-230,1096
-12,-118,-67,1566,421,809
-24,108,-111,1022,614,296
-30,47,-113,569,247,-335
-22,-7,-121,367,226,-535
-23,-58,-118,126,96,-527
-44,-68,-125,-465,-154,-548
-47,-94,127,-489,120,-398
-55,-116,125,-222,358,-300
-51,-104,126,-277,443,-204
-48,-94,114,-309,372,-85
-50,-83,106,-401,369,28
-47,-72,104,-394,515,157
-40,-59,102,-448,410,234
-31,-48,104,-337,406,179
-34,-32,102,-358,218,110
-42,-51,116,3519,-5418,-634
16,-11,-124,2436,86,-4660
-117,59,-88,2830,-1867,-3687
13,-11,3,1769,-526,-4309
-63,86,79,1207,1015,-3908
109,-77,99,1145,2193,-2765
108,24,-27,1483,3479,-992
-97,23,61,622,3836,505
-36,12,-82,-317,4134,1925
-23,77,-27,-1226,3405,2924
-86,-83,127,17,1979,2857
90,5,-55,-897,-175,2417
-127,108,105,-1501,-2218,2461
109,26,-35,-2383,-5098,1431
-26,0,2,-846,-4352,-496
82,60,6,-2549,-5398,-3468
4,-103,1,-3673,-956,-3323
-114,-109,-123,-803,1034,-2891
-17,-68,88,261,1495,-1659
10,19,-98,-452,3739,-472
49,123,-36,-206,3648,352
-102,-47,76,7,4169,1405
-50,-15,-9,309,3777,1749
-70,-57,81,173,3327,2405
73,-121,28,-1677,1349,2546
28,-63,-28,-855,453,1817
93,-2,65,-2365,-1979,758
107,-67,74,-4391,-540,-12
102,-85,88,-2831,-7952,-1649
11,125,69,-3723,-6354,-1459
-17,-88,10,-824,-5732,-904
127,-102,90,-2130,221,125
79,-31,123,-176,390,-420
-60,-112,-52,-619,-238,-98
-10,15,-62,-1105,1018,-27
31,53,74,-990,1014,-822
49,53,-79,-3468,1789,181
123,85,82,-4456,2159,618
-64,-109,16,-3926,2456,2381
15,116,-83,-4843,2297,2089
114,-115,52,-1403,753,2277
0,-51,58,-166,1594,1600
58,-31,110,675,659,2466
86,1,-111,-652,475,2367
127,57,-23,-1342,299,2056
126,-76,9,1636,949,2057
117,113,-65,2215,970,1845
82,88,-112,707,582,1310
63,48,-119,-177,321,789
40,-6,-108,654,148,440
-30,-74,0,-3127,-4670,-2550
28,-111,-80,-1008,-3382,-3987
-64,-54,-117,-1869,-549,-3081
-34,22,15,-637,2661,-2536
-96,-29,32,-21,3171,-1552
30,-56,-10,14,4761,-70
85,-67,55,-322,4110,1154
-27,-47,-68,-1528,4847,2662
25,16,-2,-482,2423,3331
-13,-102,-10,-668,1486,2625
-124,1,123,-1460,-501,2022
103,99,-112,-2304,-1623,1586
-68,-102,99,-1490,-2932,495
108,-79,41,-3856,-3741,-352
23,-16,47,-5417,-3750,-2095
-56,-47,13,2238,-5533,-3940
88,1,-108,-983,-4524,-1592
42,85,-8,-1684,-1639,-583
123,-52,-107,-1075,285,-186
-21,41,-95,291,-487,388
-81,27,-10,-449,808,486
-79,60,-99,-47,956,-361
-31,109,-116,-1912,1518,-85
56,61,121,-1441,1449,200
101,73,102,-1449,2036,1112
-97,-90,7,-2536,1772,1212
-43,-89,-6,-1627,2082,1430
46,-8,-61,-2203,2443,1695
-128,-101,-31,-2634,1802,1685
-46,105,-40,-372,1874,1961
-20,-45,15,-1623,1263,1897
6,-61,45,-452,815,2235
47,-98,61,483,473,2091
44,-89,87,-125,906,1627
13,-128,117,-51,561,1351
1,109,120,115,413,703
0,77,-126,633,445,176
-10,10,122,929,393,-284
-35,-30,-121,749,52,-616
-32,-63,-128,-96,368,-779
-16,-102,-115,-360,494,-846
-14,-120,-102,-289,199,-657
-25,121,-91,-129,261,-459
-29,122,-86,-270,298,-284
-31,118,-90,-265,462,-37
-24,-116,-97,-386,431,144
-10,-93,-110,-334,445,200
-16,-68,-111,-595,346,194
-9,-64,-108,-377,509,18
0,-59,-110,-247,428,-37
98,-74,-102,1900,-1711,-4541
-65,-17,125,1721,-1619,-3750
87,-70,-93,818,-227,-3535
-46,68,-78,1060,1600,-3061
-49,-33,-9,981,2635,-1949
53,-75,111,1298,3966,-887
-122,120,-62,1241,3972,147
0,27,-88,707,4073,1273
-67,-92,1,-878,2788,3110
-98,123,3,-3328,2402,3476
-106,89,-107,-1920,80,3148
15,115,-89,-966,-2376,1550
-78,67,29,-647,-4590,498
-123,-5,-27,-3226,-4028,-2218
2,-10,31,-1244,-3126,-3587
-10,-4,-39,-1198,-1713,-3269
23,-42,-58,-968,480,-2973
-98,126,94,-111,2410,-1941
-55,-108,-114,-134,3876,-822
19,-69,-90,-24,4309,603
101,116,11,869,4239,1616
62,86,70,-86,4947,2650
-27,-33,-95,-1076,1175,2895
-123,-78,119,-2662,44,2165
67,-71,57,-874,-994,2063
-37,103,-23,-4424,-3056,757
-85,-75,-50,-4092,-4521,-275
-125,2,-58,-5199,-5585,-999
44,-103,112,-1832,-7155,10
-111,122,16,-1297,-3074,-1200
71,13,-56,-899,-891,290
-112,-25,-109,-819,124,440
124,-124,113,675,1123,-400
118,-64,124,-351,536,-519
97,-103,-32,-1596,1713,-354
-108,98,0,-1058,1697,-116
29,-102,-76,-3867,2828,750
73,124,26,-2306,3655,1837
-89,8,6,-2962,2607,1587
65,117,-44,-3637,3050,2166
-86,-60,13,-2962,1940,2606
16,22,44,-2930,692,2560
42,74,-85,-1365,-41,2450
83,42,-24,779,332,2296
107,21,-45,2271,319,1993
99,56,-96,1623,108,1280
57,3,-123,870,160,608
9,-55,-101,1038,99,365
-28,125,-115,1042,228,-106
-21,82,-127,644,337,-369
82,63,79,-2144,4400,1696
-38,120,9,-2506,3822,2654
-56,-51,-81,-2061,2060,2813
-84,35,-128,218,167,2920
-112,-110,102,-513,-664,2217
-20,94,51,-3316,-2490,1213
85,-61,-95,-1787,-4750,-556
-79,78,0,-300,-4922,-2145
-98,44,88,-2039,-2997,-3677
14,43,8,-1875,-391,-4516
-127,41,32,-81,1670,-4648
15,44,62,-208,3607,-3051
51,-96,62,206,6223,-464
-53,111,48,626,6200,2247
65,59,50,-685,5137,3198
117,-65,8,-188,3133,3694
-67,28,5,2192,1144,2682
102,-67,8,-9348,-4393,3013
-12,-51,11,-5682,-11384,3421
124,-11,-104,-2879,-4994,-684
80,0,-120,-3230,-3956,118
80,55,91,-3714,-2099,-760
-79,-8,-40,-2733,405,-1784
18,36,38,-2614,36,-1241
-87,113,-80,-3910,1695,-917
107,-91,-33,-4345,2140,518
-55,39,103,-3224,2249,2027
84,5,31,-4117,1038,1995
-62,114,24,-3773,1475,2163
55,112,62,-1078,1143,2784
-62,-8,-121,-2182,-177,2751
38,-20,-92,-53,638,3419
-119,-11,-84,1395,-466,3899
-34,26,-23,1169,44,3965
