AccX,AccY,AccZ,GyroX,GyroY,GyroZ
122,29,7,-1688,2943,-3539
-35,-69,-47,-3361,4342,-4292
106,24,-12,-2696,4885,-5133
120,-35,-20,-3060,3854,-4285
111,-119,69,-2697,3499,-3741
-107,79,-75,-2580,3104,-2521
-52,-23,-107,-2049,2990,-2108
17,109,113,-1557,2692,-1632
23,42,-10,-944,3187,-2385
1,101,-111,-1886,1508,-1434
13,92,87,214,388,-667
-37,95,-127,-405,-1455,882
-113,-8,14,98,-2084,1078
-23,20,57,998,-2047,1052
69,83,56,1355,-2054,1320
-95,-73,49,1244,-2822,1607
-32,-22,60,1250,-3352,1381
105,11,71,1258,-3338,1742
-95,14,105,2525,-3843,1577
-84,89,118,603,-4088,1830
-22,-92,117,3255,-2051,550
25,110,-63,1641,-2787,1735
-56,-70,-104,3010,-1736,1597
14,57,-11,1952,-2740,3043
-41,-35,-66,2217,-1256,2588
-107,-2,69,1957,-1564,2178
-121,-34,-22,2478,757,1239
-48,-9,-34,1141,300,250
-101,102,-93,1173,582,-205
124,66,92,-567,99,-84
-93,-35,29,41,65,-336
-56,-76,-45,-669,495,-787
-33,-109,-74,-479,324,-716
-7,-114,-97,-538,247,-687
7,-115,-108,-603,99,-783
30,117,127,-343,451,-782
14,109,121,-268,44,-455
18,121,113,-368,-77,-107
36,-121,115,-143,-201,84
29,-95,114,-170,-89,119
41,-79,118,-79,-61,211
40,-60,119,-169,-170,229
58,-47,-128,-23,93,190
57,-48,-126,502,109,241
62,-32,121,469,-63,291
56,-25,108,240,-34,241
69,-29,99,173,46,157
74,-10,88,-331,58,-9
72,-19,81,-229,52,-235
78,-29,64,-351,92,-314
107,-59,-7,-2312,3860,-2772
13,-31,-100,-2644,4722,-3159
-27,-94,59,-2844,4619,-3036
51,105,115,-2484,3612,-2204
-127,54,-99,-2780,3310,-1424
-94,-111,-65,-1829,3472,-1228
42,119,-48,-2034,3491,-890
-63,77,-42,-1403,3618,-1037
-85,-105,-106,-181,2903,-1415
21,120,111,-996,1706,-617
91,-72,59,826,858,-624
54,-36,60,505,-43,-96
100,-23,78,593,-457,436
-72,32,81,922,-1001,515
8,65,69,1040,-1216,400
120,118,27,768,-1582,664
-96,-114,30,605,-2895,952
13,-35,87,823,-3771,1213
85,-23,-101,1647,-4086,837
120,-5,-89,1540,-3054,570
117,-64,-83,2267,-3033,553
-125,-41,-114,1552,-2970,853
123,89,115,2917,-2602,1091
-71,-102,-82,1692,-3563,2182
-58,75,113,2769,-2082,1924
8,-43,-15,1515,-3363,2881
-32,124,-52,1995,-1411,2317
-90,-10,123,1536,-1608,2599
-118,-52,-10,2313,707,666
-84,43,43,-464,-203,585
-79,74,-101,1400,856,-830
96,29,45,381,459,-885
127,-28,-15,-512,411,-640
-124,-111,-41,-235,271,-531
-90,95,-93,-308,403,-497
-69,120,-92,-570,207,-264
-46,88,-120,129,376,-330
-25,109,127,255,322,-249
-38,97,106,121,216,-272
-27,97,-98,116,-103,-13
-13,98,-109,105,293,182
0,-119,-99,-87,3,238
31,-121,-118,450,112,322
14,-70,-115,-169,-90,378
15,-58,-120,-101,-167,282
31,-66,122,205,106,12
24,-51,120,-160,170,-178
30,-72,110,-131,319,-390
61,-79,94,-226,461,-379
55,-64,92,-453,66,-213
-88,28,8,-1951,3202,-3145
-38,-3,-53,-2376,4573,-3890
-114,108,19,-2370,4464,-4183
37,56,-12,-1806,3665,-3617
97,33,37,-2906,3144,-3179
119,-2,60,-3877,3338,-2215
-121,-107,-118,-2645,2825,-1255
-85,74,-81,-2091,2248,-487
59,115,38,-2861,1642,932
86,-17,3,-1131,2946,-103
-110,71,-47,1829,2184,-1294
-64,0,33,1044,2082,-1867
45,-102,31,146,157,-46
103,-94,-11,267,-1038,672
-35,-33,-21,500,-1287,646
65,59,8,412,-2145,801
-79,72,-4,1244,-2145,508
75,110,-62,1643,-2156,917
-115,73,92,786,-4866,1733
19,-34,-103,2553,-2988,1018
-6,-32,-77,3313,-2658,1343
-60,124,-126,80,-3716,1893
-26,-112,-101,2721,-2484,1542
44,-23,-29,1946,-2387,1930
-61,-106,-83,2492,-1865,2035
-11,-57,-3,1569,-1918,2443
-7,101,-36,2653,-503,2417
-126,-45,20,960,-567,2947
46,-12,-78,862,191,1933
-59,-2,-18,-633,-397,1043
-85,48,-123,2060,869,-104
-118,65,94,1027,82,-374
-106,-29,47,261,-434,-459
-67,-94,-8,67,-212,-737
-29,118,-55,-226,125,-1088
9,41,-97,-265,425,-1186
-19,61,-70,-496,15,-452
-28,30,-110,-69,429,-476
-2,25,-128,444,668,-193
31,61,93,220,626,91
29,68,67,379,144,66
30,75,96,85,-371,290
33,87,109,-136,-393,511
53,112,118,-127,68,517
47,-114,124,94,-219,585
45,-95,-128,-29,-95,265
52,-65,-118,-428,111,315
52,-59,124,-272,26,69
53,-56,114,-262,118,-233
61,-72,94,-213,240,-408
-24,42,-56,-2848,4165,-3287
-19,103,-6,-2496,5157,-4006
110,8,-41,-2503,4151,-3320
54,-7,-3,-3612,3587,-1999
98,-48,5,-3300,3526,-802
-116,-86,104,-3337,3182,285
33,120,-63,-3086,3079,1174
-85,-45,-31,45,3494,289
-14,-123,-64,1623,3273,-914
-88,105,57,1624,1741,-1557
79,38,1,-99,1220,-536
84,4,0,-595,-348,574
124,14,39,689,-1102,350
-58,91,73,285,-1034,336
25,114,70,397,-2204,396
-117,111,45,650,-2202,245
19,-115,21,957,-2943,226
-83,-88,60,1589,-3322,356
-84,-64,-86,1775,-3224,786
-30,-40,-77,2078,-2961,656
-46,-6,119,1385,-3204,1291
-58,-102,78,2117,-2720,1365
-3,-89,-94,2444,-3988,2258
-104,-117,10,2517,-2104,1881
16,-18,-24,2157,-4439,3162
19,-119,55,2535,-1097,1734
-11,-116,-7,2080,-947,2942
-54,-23,-55,1223,47,2071
68,52,-4,698,-775,1250
-93,-19,-66,-55,376,-580
-126,101,-126,247,867,-899
89,-40,36,290,728,-930
-113,-88,-32,452,670,-884
-95,-107,-89,-517,591,-855
-51,91,-115,-534,312,-870
-42,69,-125,-448,274,-781
-29,78,124,-557,166,-426
-44,68,105,-311,172,-475
-23,85,99,-171,11,-118
-30,110,95,-231,-123,47
-12,-127,101,86,88,379
-17,-90,101,26,11,313
1,-71,106,20,106,319
10,-34,112,-28,195,306
22,-34,120,473,-66,232
37,-22,115,277,153,83
37,-3,111,-294,48,-57
34,-25,106,-231,59,-95
46,-37,90,-150,180,-145
56,-42,72,-102,262,-312
-64,82,-68,-2083,3196,-2757
-56,60,125,-1770,4195,-3349
24,104,48,-2476,4490,-3600
-4,112,84,-2764,4073,-2993
-126,65,102,-2602,4209,-2608
-92,14,-100,-2631,3598,-1576
-35,121,-97,-1626,3340,-1079
62,62,-74,-2049,3427,-379
-37,2,-31,-1549,3028,-58
25,-111,1,-424,3183,-382
100,72,-87,1294,2180,-1230
124,3,62,903,1656,-1210
70,8,-3,-618,726,-202
82,-26,-9,198,-137,112
126,13,-5,406,-889,452
-81,50,10,335,-1522,560
48,80,19,310,-1890,519
-127,90,23,981,-2393,513
43,-124,-51,1041,-2436,339
-127,-89,-28,1423,-3658,817
-86,-42,37,1379,-4138,1196
10,-85,54,2744,-2981,983
-17,7,107,1323,-4157,1892
-27,-36,-105,1282,-4200,2194
63,-116,-71,3544,-3251,1672
5,1,-62,1230,-3294,2902
64,-83,-32,2707,-1983,1898
11,-72,-43,2340,-1618,2720
-32,-3,9,1579,-1148,2915
-111,-19,33,2658,522,1510
-1,99,-51,-186,379,710
-118,31,-87,-702,-408,-124
122,60,93,381,378,-1110
-124,46,34,-876,416,-974
-114,-36,-31,-885,27,-1020
-50,-64,-78,-910,568,-1075
-44,-121,-119,-338,646,-1335
-33,-121,125,-763,464,-1034
-34,-128,116,-716,255,-714
-42,98,110,42,140,-424
-38,-105,108,-283,-81,16
-50,-97,119,-49,-331,201
-34,-114,119,527,90,479
-23,-53,124,95,-153,811
2,-48,-127,597,-138,878
18,2,122,264,-72,837
22,4,117,390,-148,592
33,1,127,450,-18,337
24,-7,108,318,268,20
19,4,103,-271,3,-18
32,69,80,-1785,4673,-2805
117,29,-103,-1893,5254,-3090
-5,-36,-102,-2063,4338,-3017
87,-111,1,-2119,3695,-2219
-119,104,94,-2066,3828,-1502
-35,-119,-55,-2939,3269,-383
-100,60,-46,-1731,3712,-425
-59,-14,-27,-1084,3419,-589
-33,113,-127,1144,2764,-2151
-42,-18,32,1209,1698,-1981
9,0,87,-2033,94,454
83,-97,125,531,-242,294
120,40,-91,306,-519,323
-50,92,-78,-223,-1313,913
24,91,-70,-120,-1273,386
99,90,-80,52,-1474,277
-86,96,-102,1036,-2624,353
20,118,86,1532,-2550,42
113,118,42,2258,-2783,307
-81,-46,27,1068,-3145,829
-24,125,-33,2393,-2476,639
-33,-21,43,1216,-4200,1935
-41,-98,-25,1188,-3955,2129
-68,-122,-112,3003,-3837,2009
67,-60,81,1532,-2964,2799
-52,-102,-32,2700,-2062,2342
71,-43,-7,1704,-1805,2550
12,-86,56,2467,-603,2111
107,34,23,1037,155,1492
-34,-7,-38,993,-191,31
121,126,-97,767,70,-614
123,37,81,175,446,-766
119,16,25,-877,72,-759
-69,-114,-23,-538,101,-1381
-49,101,-93,-629,1019,-1423
-34,107,-101,-731,420,-799
-36,92,100,-386,600,-624
-34,126,97,-818,232,-540
-16,104,73,-401,282,-374
-22,122,87,-125,4,-73
-18,127,76,142,72,13
-16,-110,108,295,-300,271
6,-87,107,0,-150,520
19,-57,109,-194,-282,620
28,-59,96,232,-167,525
10,-44,98,349,-361,402
14,-34,102,174,56,123
25,-29,98,117,167,73
20,-25,91,-35,-55,1
35,-43,89,267,177,-211
-108,22,73,-1822,4120,-2301
98,37,74,-2224,3884,-2326
6,-9,-114,-1776,3407,-1722
-75,-80,127,-1892,4374,-1829
-44,126,-110,-2165,4107,-1640
44,88,-26,-1994,3104,-880
-126,-27,-4,-1585,3191,-440
17,-72,-5,-776,3111,-361
29,24,121,1156,2493,-1165
-108,79,101,210,1116,-414
93,39,51,-22,389,15
111,71,63,80,-453,241
-92,75,88,558,-873,179
-15,112,98,129,-1217,252
94,125,80,120,-1657,99
107,78,72,896,-2142,83
-10,81,33,1010,-2564,633
43,97,54,1466,-3579,1023
-101,-109,105,1516,-3647,1359
-57,-93,105,1665,-3090,1246
-68,-78,127,1455,-3333,1703
39,-79,109,1794,-3548,1531
-57,-60,-128,1881,-3044,2395
14,-56,-58,2072,-3191,1885
51,-68,109,2240,-2059,2284
-21,-41,12,1364,-2549,2883
-50,-127,19,2270,-1342,2685
-57,25,63,1434,-380,2219
63,-15,-68,1883,796,660
-109,39,-91,-782,-373,163
122,108,-115,307,-472,-542
-128,12,74,24,51,-618
-104,-24,-4,-1251,192,-784
-53,-74,-48,-1603,556,-966
-44,82,-94,-629,729,-1060
-53,78,-116,319,712,-718
-50,127,113,-306,503,-332
-29,-116,95,-214,169,47
-30,-97,86,-145,30,72
-34,-92,95,47,-26,142
-19,-67,100,-31,-126,287
-8,-69,103,439,-51,224
2,-39,100,127,-5,286
1,-38,108,80,-226,312
11,-40,112,224,-102,256
17,-27,114,202,14,164
23,-18,111,17,13,104
32,-8,111,-217,18,42
41,-17,101,-184,142,-272
41,-35,94,-54,321,-421
10,44,-38,-2170,4837,-3371
-126,4,25,-2520,2939,-2090
-121,-36,19,-1606,3705,-1860
-16,-80,55,-2676,4170,-1923
71,104,105,-2199,3494,-845
-107,42,-60,-2222,3814,25
7,-18,-25,-1456,3354,124
-122,27,-4,-3128,3554,495
-59,75,11,-499,2769,219
0,5,89,2131,2188,-997
-121,-47,18,-1013,131,340
-99,43,-2,875,-858,-10
-69,127,46,-112,-1462,3
21,83,-124,267,-2016,-67
-112,81,-119,1547,-2119,-296
-30,82,56,2704,-2108,-653
108,-49,-7,751,-3175,628
-62,-109,28,1741,-3825,799
15,-59,41,1108,-3818,1228
43,-109,43,1186,-3496,1447
-119,-72,93,2140,-3688,1308
56,-55,-93,1123,-3841,2506
-128,115,107,2825,-2998,1840
91,-36,-90,976,-3058,2906
30,-122,56,2392,-2238,2165
105,-102,25,1846,206,1870
-46,11,53,1309,-353,1449
10,-33,-70,1799,368,-133
-95,-38,125,-557,359,-239
-128,52,65,183,38,-358
-105,-42,0,111,-8,-247
-84,-77,-47,-344,186,-532
-51,-116,-86,-750,351,-686
-41,71,-110,156,525,-827
-34,86,-124,-314,271,-512
-30,92,-119,-279,-8,-85
-30,78,117,157,164,-162
-17,126,125,-25,-108,204
-7,-108,110,-110,-77,245
1,-89,125,145,-198,281
9,-77,117,154,100,184
17,-54,120,46,-30,180
26,-54,110,44,47,-5
26,-57,108,1,192,-134
45,-71,89,94,283,-182
38,-65,83,-114,109,-106
50,-64,79,-254,151,-36
50,-66,71,-129,178,-29
55,-46,63,-332,40,3
59,-40,65,-391,26,4
70,32,38,-1928,4310,-2892
45,-27,-11,-1757,4734,-3139
-99,-48,18,-1974,3948,-2515
-16,-105,50,-2099,4164,-1759
47,-119,-115,-2727,3260,-1093
-75,26,-54,-1150,4186,-728
-16,32,-26,-1531,3640,-804
31,-81,-15,-1226,3008,-775
115,30,-77,1197,2338,-1211
-54,71,95,-23,1871,-1039
59,18,3,-265,382,56
99,5,-9,324,-392,46
-112,74,16,65,-1022,249
-55,84,79,407,-1799,301
69,91,95,612,-2005,299
-89,102,73,1155,-2301,142
5,100,1,1545,-2280,74
107,120,-34,1651,-2869,735
-70,-64,33,1145,-4280,1764
-8,-102,61,2367,-3948,1753
55,-59,56,1795,-4122,1899
32,-64,58,2161,-3421,2955
115,-37,69,2294,-3263,2275
117,23,112,1309,-3293,3258
74,-16,-26,1463,-2545,2425
119,-113,12,3344,-1997,2409
49,13,75,1943,434,2246
112,73,-71,775,53,987
-112,77,-68,-1376,-1067,98
-108,67,-115,740,-209,-703
122,-19,76,589,210,-788
110,-4,36,-964,115,-293
-109,-106,-36,114,761,-726
-82,-93,-88,-547,680,-677
-78,-102,-94,-491,291,-378
-101,126,-113,-24,437,-580
-3,-123,92,-78,662,-348
-25,-89,88,-414,52,151
-76,-86,115,-56,-407,77
-40,-72,117,-290,97,-19
3,-74,97,-83,379,-45
0,-52,100,-77,-159,123
-10,-36,110,-319,-204,102
7,-36,110,-254,97,-3
14,-31,107,-192,49,82
19,-26,101,-87,-16,172
19,5,109,-351,-43,232
35,6,102,-186,137,109
38,19,95,-215,138,-15
58,18,81,-104,208,-154
-78,-117,-13,-1825,4546,-2661
122,74,-126,-1670,5100,-3483
-79,-31,-57,-1962,5320,-3414
6,-77,-36,-1819,4043,-2361
110,-104,-15,-2184,4355,-1819
94,98,26,-2146,3837,-1259
-40,97,-105,-2652,3309,-7
-31,-31,-67,-1378,3138,-99
120,10,-24,-1893,2958,303
-107,118,-26,-106,2089,-521
-82,1,71,1367,1801,-1441
95,79,45,-730,137,397
-121,0,35,594,-610,26
-100,36,76,-20,-860,232
-29,35,101,-12,-1628,476
79,53,108,67,-2062,426
-44,81,74,567,-2391,-17
122,85,33,861,-2603,173
-33,111,64,1563,-4272,412
114,-98,-126,2023,-3798,1476
83,33,117,666,-3526,1029
10,-73,110,2058,-3400,1028
57,-113,-105,3049,-3272,1166
-9,-2,86,1186,-2834,2386
80,-112,-77,3101,-2455,1698
24,-86,-109,1613,-1804,2440
-45,-91,-22,1182,-1694,2782
-34,-63,-9,1380,-1272,2353
-115,19,-15,553,-378,1619
18,43,-29,-152,283,71
-109,93,-75,160,372,-853
-98,-32,99,346,678,-502
-111,-66,14,-619,145,-180
-78,-98,-52,-781,111,-268
-59,103,-82,94,178,-461
-23,-120,119,-741,571,-364
-54,-122,117,-550,106,-219
-60,-126,107,-75,91,-188
-39,-74,108,-345,7,-7
-37,-78,95,-22,26,-178
-13,-59,101,-30,-39,-137
6,-53,89,-71,-26,-106
-7,-30,111,-402,-260,38
26,-14,124,-483,-321,-43
37,-9,-110,-365,429,-161
-5,-46,123,672,411,-366
8,-22,106,142,210,-242
38,-26,82,-4,236,-40
57,-30,63,156,278,2
55,-21,65,180,143,-69
36,95,4,-1855,3848,-2389
56,96,23,-1963,3558,-1828
103,63,-32,-1907,4153,-1974
8,-54,-89,-698,4506,-2231
-16,-120,31,-505,2905,-1043
62,-104,-109,-1878,3952,-1096
-85,126,-99,-2427,4059,-1573
-29,-39,-85,-648,3467,-1248
2,-37,-98,-2155,2798,-1043
120,77,-95,369,2013,-1025
93,-48,-25,1698,1549,-1508
64,49,-43,-862,116,191
96,3,-57,318,-769,201
-99,76,47,88,-1033,197
-48,83,108,163,-1328,388
26,75,127,77,-2002,822
79,77,104,201,-2323,667
-54,65,66,517,-2463,601
40,66,41,629,-2858,767
-118,25,14,1561,-2875,782
-69,-119,116,1090,-4138,1475
-41,53,120,1437,-2987,1492
-7,100,93,1374,-4166,1851
42,-80,88,862,-4457,2806
88,-128,72,2187,-3720,2076
126,-44,68,356,-4152,2680
-39,-52,-73,1182,-4405,2932
-59,-122,74,3871,-2270,1986
101,105,-107,1801,-691,1555
79,-86,-117,363,-435,501
-45,26,31,826,709,-660
122,-48,-97,-841,917,-1023
-117,42,81,-546,751,-1290
-74,-61,-3,-493,949,-1255
-89,61,-96,41,949,-1459
-64,100,-103,-467,587,-438
-75,-119,110,-551,155,110
-34,-68,110,-429,-180,257
-38,-55,102,-116,121,-91
-62,-76,117,446,86,-203
-65,-72,127,572,150,-7
-20,-30,112,-86,106,144
-19,-30,121,60,-286,226
64,20,-126,-1318,-260,563
-13,49,-18,-1100,-1234,844
15,-56,-81,704,841,-248
46,40,-87,-524,809,-26
44,8,103,97,336,-260
23,-28,112,474,352,-233
58,-29,76,71,639,73
-83,-124,-15,-2603,3780,-2704
-88,-113,-19,-3404,5020,-2191
-78,-71,47,-1170,6020,-2497
-44,21,33,-2290,4628,-2159
68,-89,61,-1493,5083,-1785
52,-127,-122,-1366,3361,-823
-79,85,-122,-1739,4048,-854
-70,-102,-95,-69,3776,-1176
-42,22,61,2588,2557,-1693
-53,103,-68,-1022,1824,-1883
40,-122,6,-891,244,278
81,-55,38,-13,-311,492
-108,20,82,349,-538,306
-49,42,90,444,-762,317
-16,44,93,50,-1464,831
64,39,70,239,-2063,991
-55,103,29,-603,-2701,876
21,79,20,-336,-3609,791
-24,88,104,1519,-3674,896
-17,-81,111,1581,-3706,863
-51,-68,-127,968,-3726,1310
-6,97,62,2596,-3421,1429
-17,13,-128,317,-4922,2624
95,50,101,3909,-2846,1778
99,107,124,604,-4635,2692
127,-121,-101,3264,-2286,1735
86,7,29,1809,-2430,2551
35,26,68,1652,-1290,1770
72,43,109,1148,-15,456
-62,-57,62,1161,197,-736
-114,76,-30,714,636,-899
102,24,117,-1275,591,-319
108,-72,22,-476,478,-446
122,-64,-74,-1139,-54,-558
-65,-84,-66,-809,591,-372
-76,-95,111,-689,757,-556
-94,-109,108,-364,-25,-445
-59,-102,118,-260,-261,-377
-39,-77,116,-667,101,-119
-50,-91,110,-242,-60,-128
-61,-57,122,-402,-16,112
-43,-44,-121,91,293,123
-16,-25,115,173,219,228
-7,0,-124,-13,87,271
12,7,114,191,396,207
4,16,118,131,-69,134
19,1,105,401,162,7
21,15,105,-157,35,-57
31,7,102,-360,1,-64
42,-23,106,101,195,-219
9,-5,-22,-2945,4297,-2952
-117,-99,-65,-1526,3616,-3094
-21,-45,45,-2886,3482,-2331
86,93,83,-1895,4195,-2007
-91,124,-95,-2526,3685,-1152
-25,53,-57,-2270,3266,-720
65,-79,-48,-950,3134,-698
-62,54,-81,876,2781,-1188
-107,58,34,165,1669,-1178
78,36,39,-1230,647,36
74,-40,72,-78,-263,541
120,56,113,-69,-935,822
-55,95,-85,-167,-1332,730
-4,63,-82,244,-1419,287
68,87,-95,-440,-1697,552
-88,20,114,597,-2448,347
-38,11,63,1445,-2822,543
111,51,-62,1728,-3111,724
-83,-121,-85,519,-3734,1142
16,-92,-2,1559,-4880,1608
122,-119,-93,1732,-3372,1058
89,-81,-45,1843,-3970,1922
-94,-24,70,1764,-5116,2662
5,-20,93,1467,-3269,2281
14,-21,-101,2416,-3271,2975
-105,18,117,1467,-1400,2531
46,33,-62,2697,61,1284
-7,126,65,-99,312,465
-95,-2,14,52,35,-221
-118,70,-100,257,607,-658
-107,-16,60,-49,497,-532
-108,-68,-6,-611,329,-247
-83,-122,-83,-617,248,-354
-79,118,-92,-188,134,-241
-60,-106,-110,-229,249,-46
-65,-83,-112,-310,55,-62
-42,-75,-113,-392,6,-2
-27,-73,-119,-67,74,-94
-17,-49,-117,-156,83,-131
-21,-42,-120,-202,24,-140
-6,-16,-120,-636,136,-25
2,-38,-110,85,78,-121
18,-33,-126,285,347,-63
20,8,-118,-385,-22,126
36,11,126,-372,108,53
38,3,121,-127,81,-19
43,12,116,-217,63,-32
53,10,97,-73,78,-101
56,11,85,4,71,-152
59,2,75,36,187,-158
35,52,-6,-1897,4243,-3023
-51,8,-102,-2092,4915,-3129
99,-64,101,-2240,5111,-2748
124,-117,91,-1965,4658,-2052
-120,-104,-72,-2432,3391,-1179
-18,54,-24,-1587,3415,-184
87,14,-14,-1612,4082,-94
-86,-23,-66,-863,2844,-591
-21,64,118,1710,2651,-2012
122,15,7,-653,1729,-1405
93,-77,33,-53,309,526
96,-2,32,-217,-355,349
-121,15,96,149,-1053,649
-42,90,-98,98,-1230,481
23,84,125,492,-1391,159
72,103,116,169,-2108,472
-79,53,49,689,-2479,286
11,67,6,976,-2874,405
-109,107,-61,1529,-3494,373
-4,-83,-2,595,-4019,999
33,90,-35,1987,-4035,952
40,103,127,-2422,-5668,1563
-80,-35,-6,4153,-2997,516
56,12,-50,790,-4052,1969
121,84,-42,3049,-2470,1617
66,0,-9,832,-3587,2343
68,100,25,2604,-2606,2227
94,-17,-42,2676,-1028,2011
-93,93,-81,1683,125,780
-48,31,52,786,572,-603
121,124,-48,-27,664,-613
-128,52,117,-943,67,-284
-108,-86,26,57,133,-525
-77,-75,-24,-777,455,-498
-51,-96,-74,-1040,501,157
-85,80,-107,33,33,-510
-59,-121,-103,-336,84,-289
-41,-91,-113,-417,-59,-185
-25,-86,-103,4,-171,22
-22,-48,-92,-303,-91,184
-5,-33,-88,-244,180,164
-10,-40,-84,272,135,-163
5,-23,-89,25,118,-9
1,6,-86,-300,72,104
4,-15,-103,14,289,-172
32,-5,-115,-65,336,-131
53,-8,115,30,211,-131
54,-5,114,-164,171,-58
72,-1,111,-171,30,-9
57,-13,114,163,56,-267
-117,-19,-15,-1143,4534,-2940
36,5,-40,-1949,4812,-2637
125,40,-6,-2583,4091,-1691
30,-111,-85,-996,4920,-2590
-96,-87,-46,-2341,4671,-1920
-68,39,-107,-1233,4740,-1186
4,58,-80,-1476,3963,-499
6,-23,-85,-698,3298,-567
127,-74,-83,-286,2921,-643
-103,-4,94,2227,2392,-2114
-92,71,21,-877,1102,-737
104,-44,-3,-204,416,166
113,5,21,315,-146,50
-107,72,88,39,-768,230
-43,60,96,601,-1113,329
11,80,56,717,-1546,236
100,84,16,592,-2134,465
-59,77,-18,923,-2553,409
32,102,-67,824,-3016,555
-46,91,-39,1504,-3567,1172
-45,-86,58,1206,-4349,1413
22,-125,47,920,-3325,1494
-49,-88,-120,259,-5580,1372
-55,-91,56,2926,-2755,1996
51,65,-114,651,-4641,2648
-57,-33,27,2524,-4598,2605
16,-41,31,2764,-2408,2780
-102,34,-3,2801,-1605,2210
-83,64,-121,1944,-9,906
-24,-127,125,-390,-558,464
-89,118,-4,1151,495,-1223
-109,15,-116,1002,1274,-1237
102,-40,29,-576,729,-771
-106,-109,-32,0,420,-453
-88,-102,-66,-405,143,-131
-67,-95,-87,-820,-154,36
-66,-120,-110,-392,-4,-277
-65,-109,-116,-227,39,-396
-104,-81,-90,-1043,-258,-57
-59,-85,-109,-517,56,-15
-48,-37,-112,-465,-94,67
-8,11,-97,-609,-265,333
-2,20,-108,-167,141,46
-6,14,127,208,286,-265
-37,9,116,-99,191,-113
-28,-1,108,-33,180,-91
9,-13,73,107,231,34
78,1,54,229,101,196
19,47,93,-299,-562,270
-9,9,-115,-127,93,0
-19,-43,-7,-2178,3206,-2767
-31,-36,-4,-2586,4392,-3171
-71,-63,-50,-2570,4515,-2953
79,85,-104,-2812,4034,-2247
-43,-47,92,-1792,4635,-1828
-22,-40,114,-2569,3835,-1088
64,-107,-63,-1863,3679,-2
-112,-3,-23,-1028,4286,-329
-114,-13,18,-1232,2422,-106
-12,74,-60,1584,2422,-1111
12,112,59,-67,1762,-1853
-99,13,65,-516,951,-151
82,4,43,-292,295,-252
120,-15,96,347,-366,28
-109,-5,124,196,-703,348
-32,13,-116,134,-1402,651
46,58,110,-187,-1713,715
121,35,74,23,-2170,707
-42,60,53,-37,-2833,763
100,55,70,425,-3082,733
16,74,67,1471,-2981,-265
70,-112,127,2056,-2741,387
48,-107,96,1746,-2479,1334
-41,-63,97,2178,-4534,2417
90,8,-124,1009,-2986,2350
70,-26,21,2726,-4115,2704
57,100,17,361,-3720,2346
105,-89,-68,2657,-2691,2993
44,87,-42,1844,-2075,2528
-62,-119,-37,907,477,404
-110,72,91,358,-316,-169
103,-108,5,434,-360,101
84,96,-91,-676,-647,134
-102,-23,90,-549,112,-319
-75,-41,9,-1080,590,-433
-92,107,-44,16,513,-521
-80,-101,-71,-583,326,-34
-61,-92,-113,-286,81,-64
-60,-70,-110,-365,-19,127
-58,-60,-124,-225,105,-16
-42,-34,-118,-393,83,151
-41,-29,-112,112,36,105
-38,-14,-106,-24,16,62
-14,7,-94,-111,-34,126
-9,4,-105,-179,-12,-12
9,2,-112,-103,133,-69
18,1,-123,-216,125,20
20,-2,127,-149,106,-85
27,3,117,-192,165,-57
41,9,114,-218,188,24
-1,-39,99,-1739,4848,-2021
-113,-115,121,-1298,4714,-2016
-19,21,94,498,4236,-2095
-54,-126,-76,-2565,2246,-346
-115,34,-58,-2037,3333,-291
-54,-86,8,-1245,3050,-121
127,-88,35,-1170,2669,231
-41,-8,-19,1785,2632,-1157
-39,40,-97,786,1339,-1126
-117,68,116,-488,888,-413
-109,15,108,-399,680,-322
-89,34,-75,-320,-865,499
-70,50,-51,190,-1236,216
-9,54,-62,336,-1008,27
61,48,108,432,-1494,117
117,74,47,-775,-2142,376
-50,32,2,-266,-2775,128
50,-4,-37,987,-3441,43
-5,109,-59,479,-4040,670
46,117,30,1199,-4507,918
117,-89,29,1812,-4255,797
87,-43,-13,1630,-4206,1227
-101,-116,95,3129,-4322,1305
-43,31,-82,953,-3282,1810
-56,-128,-45,4288,-2161,1178
70,45,102,1158,-3216,2673
9,-88,-114,2393,-1340,2045
-109,39,-53,1047,-505,1315
43,-30,54,936,63,-321
-114,-32,-19,-569,-169,-438
-128,34,-81,155,187,-737
103,-103,53,-53,517,-728
109,-93,-24,-925,445,-259
-109,49,-71,761,954,-712
-103,127,110,-793,783,-394
-87,99,106,-461,102,-109
-90,111,109,-402,-7,98
-83,-115,118,-355,-170,8
-44,-110,117,62,187,-67
-47,-72,-125,-166,-14,246
-51,-62,-104,-44,-130,223
-33,-32,-107,-371,83,157
-22,-29,-115,-96,32,57
-31,-44,127,514,-115,-171
-15,-35,121,170,175,-54
21,-14,92,-615,419,-12
16,2,88,-1072,286,-68
17,-45,92,80,194,-193
32,-20,101,-101,187,-150
45,-25,93,-113,157,-84
104,46,-12,-1690,4100,-2805
11,52,9,-2059,4561,-2036
78,109,-34,-2604,4745,-2045
33,31,-113,-2029,4880,-1964
88,-43,126,-2171,4504,-1060
-67,-126,-109,-1756,4300,-832
-99,31,-82,-1623,4001,-639
36,4,-15,-1944,3805,107
-107,-24,-22,-2030,5211,-847
-112,35,5,2640,2649,-1475
-40,75,45,85,1364,-883
85,-17,-10,-323,688,-503
61,-56,51,-401,-508,347
-121,-28,-107,233,-1012,234
-28,70,-58,-134,-1218,389
34,37,-94,742,-1453,304
100,111,125,140,-2170,262
-60,88,97,465,-2540,384
-8,68,66,1358,-2847,152
-119,94,12,1593,-3299,875
-52,-88,17,1199,-3882,1055
-8,-99,66,1435,-2891,591
91,-35,-35,1120,-2370,995
0,-5,-15,1622,-4284,2028
-3,-60,-7,1755,-2870,1779
-56,5,28,1202,-4458,2313
-21,-125,89,2769,-3422,2771
-75,-64,-87,1829,-4164,2835
-9,-70,76,2192,-2915,3021
-78,-79,-115,2525,-958,1836
44,33,-20,619,244,611
-99,-7,-15,-558,-550,-436
-122,29,-83,115,361,-1235
116,-34,104,-378,899,-900
114,-67,29,-877,624,-219
-123,-61,-73,-1607,235,-155
-115,-85,-107,-411,223,112
127,-96,118,-55,201,-461
-104,-95,-117,-121,92,-328
-96,-113,-120,221,250,-95
-85,-59,-88,64,-54,40
-57,-66,-114,307,156,12
-53,-20,-103,-317,-179,163
-55,-19,-91,-191,-101,105
-22,-14,-98,-149,185,2
-18,0,-108,-154,176,-49
-26,-16,127,84,232,-271
-29,-17,118,-67,228,-233
1,-25,93,23,354,-50
-4,-23,82,199,209,-109
85,89,-114,-2869,4424,-2143
118,51,11,-2654,5257,-2271
-18,8,58,-2352,4109,-1616
-117,-60,65,-2199,4629,-844
-27,118,97,-1708,4910,-623
28,51,-127,-1259,4635,-231
46,18,-79,-1779,3651,67
-112,-43,-19,-1360,2504,672
-77,-8,-94,2654,2320,-1620
-109,59,52,68,1603,-1012
107,31,36,-1019,630,81
126,-26,76,139,-360,286
-97,45,-68,-192,-1185,504
-50,94,-31,-128,-1138,312
21,102,-60,-20,-1221,131
97,81,-111,139,-2226,256
-48,34,68,930,-2889,277
34,81,1,1050,-2864,-127
-103,100,-58,1091,-3272,352
24,101,-83,2204,-4244,543
63,-80,112,1025,-4753,832
85,-18,-63,1252,-5751,1432
-52,-127,22,2737,-4472,1267
-65,-86,56,2513,-3310,1850
-43,-31,123,2600,-3301,2162
118,-18,-6,1394,-2594,2505
-81,-28,113,2372,-1574,2733
78,21,119,2621,-84,1767
68,-91,58,250,884,214
-92,-26,-21,345,402,-1015
117,56,-100,-100,258,-402
110,-62,32,-296,-62,-244
-120,-92,-13,-758,225,-439
-99,118,-85,-542,501,-345
-95,-124,-103,-489,292,-261
-94,-119,-114,-441,139,-148
-79,-65,-121,-755,-152,-37
-85,-63,-115,-394,-171,-109
-68,-65,-104,-2,157,45
-48,-56,-128,347,302,-259
-34,-48,104,79,83,-111
-66,-6,-113,-692,-147,330
-56,-46,-128,197,201,13
-33,10,123,-442,101,202
4,21,113,-238,235,474
9,-19,85,251,272,-223
38,-8,96,49,-131,70
24,30,103,-588,182,38
14,-33,78,692,349,-478
36,-12,69,92,331,-290
-83,113,30,-2293,3484,-2502
97,-63,-12,-137,4519,-3167
-49,40,-48,-1613,3963,-2696
-126,127,-89,-3155,4163,-2369
116,1,25,-2405,5533,-2713
-111,-44,28,-2376,4598,-2037
101,-74,119,-2607,3778,-808
-42,110,-83,-2088,3614,30
50,57,14,-1959,3142,821
-49,-21,5,-171,3157,502
-5,-67,-55,1212,2078,-580
85,-108,36,1022,2215,-2328
97,65,30,-674,1209,-939
86,-44,78,-518,67,207
123,-64,-126,279,-611,224
-105,12,-79,29,-1120,582
-41,30,-94,172,-1117,538
35,33,61,421,-1491,404
-124,48,16,65,-2678,769
15,7,-55,1219,-2977,445
-128,55,120,1553,-3457,664
48,-109,54,1359,-4446,1414
-73,-91,-121,1692,-4724,1539
-4,-95,-33,1847,-4342,2013
1,-45,-3,1173,-4830,2341
35,-111,-107,2529,-4676,1962
70,-55,23,1448,-2898,2801
-23,-56,3,2650,-1898,1744
79,44,77,802,-2547,2513
-9,-41,121,2388,-269,884
38,65,92,-82,113,546
-97,-126,-9,786,451,-318
-119,55,-107,425,651,-579
-114,45,72,-945,65,-268
-111,-85,-24,-576,411,-225
-110,-98,-57,-425,330,-345
-101,127,-89,185,177,-387
-97,95,107,559,366,-753
-102,111,-118,472,-394,-409
-53,-77,-125,-805,297,405
-67,-104,118,46,64,169
-64,-43,126,28,-281,58
-44,-55,-128,-29,251,-192
-22,-47,122,-180,312,66
-16,-29,123,-176,-87,-14
-33,-21,-127,-657,12,-52
-10,-48,119,-334,289,-74
-1,-44,92,142,278,-83
-4,-26,82,-17,205,-141
25,-22,65,-158,273,25
78,-57,113,-2314,4776,-3711
-109,124,-10,-2110,5017,-4097
21,58,-4,-1831,4370,-4071
47,121,24,1458,4160,-4410
-23,72,-109,2040,3349,-4728
125,-118,-98,4898,294,-3936
-100,11,106,3504,-868,-3441
71,55,-64,-1771,-107,-2123
-20,-62,16,-3232,-233,-983
-74,-116,28,-749,-730,-1466
80,-55,124,1471,-578,-1408
38,-91,-46,585,-3,-398
61,-32,-46,-236,205,626
119,26,-68,-195,289,1212
-84,69,-101,215,306,1330
-8,96,126,-8,-66,1823
92,39,79,1359,-110,1993
-36,62,-18,1530,439,2321
39,106,-56,796,211,3614
-44,-67,57,1230,-182,4562
70,98,55,679,-1178,5124
66,68,-35,1535,-910,4364
-54,4,62,-206,-1720,5320
124,-70,10,1039,-1905,4380
-96,59,-95,564,-2044,4158
-75,-59,-55,1245,-1661,3634
107,-28,22,1780,-716,3250
48,38,-60,1362,-600,2410
108,-67,-72,2113,163,1086
11,-49,118,605,267,620
-84,-104,45,-183,-43,-352
-91,-77,8,1075,488,-1455
-104,56,-29,32,461,-1045
-96,59,-50,-942,-94,-314
-74,4,-74,-251,-42,-237
-38,25,-109,-397,157,-370
-23,45,-127,-581,92,-372
-26,49,116,-651,91,-296
-19,29,101,-22,121,-362
0,45,98,117,278,-3
-28,93,92,-234,116,160
4,96,90,-22,166,176
25,116,89,-4,283,308
25,-96,88,-103,195,341
25,-85,78,-121,95,172
44,-90,67,75,297,31
38,-80,65,-66,115,15
45,-82,53,101,244,-144
62,-80,41,35,137,-174
73,-86,38,-58,58,-115
126,-36,-43,-3170,3231,-3202
-29,127,100,-3435,3627,-3689
114,106,-25,-4679,3351,-2104
-107,111,47,-891,3915,-2095
-48,-59,69,-2050,3693,-1526
6,107,110,-695,2838,-1254
-80,100,-82,-1013,3128,-1027
61,84,-28,-1019,3161,-1000
-23,-28,-77,1108,3122,-2091
71,-70,-1,247,1924,-2189
101,-8,-87,-161,687,-1423
6,99,-73,54,315,-591
-2,89,-31,-287,-485,307
57,126,59,201,-826,886
-100,-44,67,91,-1038,996
-5,-8,23,21,-1613,1169
66,-7,21,197,-2101,1304
-92,9,-48,656,-2568,1320
81,55,-105,1280,-3056,1531
-93,-106,-78,1605,-3647,1846
7,-94,-48,1953,-3152,1843
57,-3,95,1692,-3927,2484
19,-30,-32,1096,-2407,2562
0,26,119,1737,-4355,2730
-92,20,78,2142,-2901,2679
118,52,-96,2381,-2185,1790
65,16,-37,1795,-2460,2625
-40,62,21,-701,-1899,2830
-54,-81,-118,2123,-662,1444
21,-71,-34,1635,1035,247
-87,-111,-111,1174,248,-85
-122,-127,99,-3,-16,1
124,-11,41,-94,-104,-287
-103,-68,-15,-188,412,-424
-83,-116,-60,83,459,-518
-76,124,-90,314,318,-577
-63,127,-106,-59,232,-392
-47,114,-125,-75,233,-335
-44,98,120,248,216,-358
-34,116,117,36,56,-140
-28,118,110,39,88,7
-16,-119,-128,95,-69,210
-16,-104,117,93,121,100
-7,-69,118,-235,4,175
20,-78,111,-27,199,103
19,-73,97,100,127,-25
25,-64,91,-42,121,-24
28,-69,88,-53,179,-25
42,-72,71,57,175,-66
56,-55,70,-221,107,-52
6,-96,-86,-1543,3533,-3156
122,-33,57,-2459,3600,-3137
106,-76,45,-2378,3268,-2941
19,-125,55,-2885,3607,-2418
-102,40,-108,-1810,3259,-1891
29,-39,-93,-1759,3890,-2175
82,0,7,-1795,3514,-2014
1,-38,-28,-1932,3879,-2122
-128,84,-96,-1392,3514,-1967
-60,-128,91,-470,2429,-1436
47,-69,-50,960,2541,-1802
68,122,-126,-1208,1029,-599
16,32,124,-193,584,16
18,111,-66,-100,-875,988
122,-40,23,130,-1248,888
-49,2,60,280,-1496,1128
30,30,36,447,-1977,1041
124,17,17,465,-2418,1345
-46,21,-16,842,-2869,1346
106,67,-48,1248,-3056,1703
-84,-128,-54,1765,-3584,1945
-23,-37,0,979,-4048,2046
77,-75,106,3007,-2979,2070
37,79,-100,1526,-3767,2594
85,-9,-100,2242,-2232,2247
122,4,115,1840,-3246,2505
63,-19,-10,1920,-2631,3043
115,72,-110,627,-3068,3584
18,-46,-114,2038,-1752,2926
116,43,-90,941,-1286,2305
23,22,61,607,-670,1002
-56,-20,-3,820,159,40
120,-120,112,456,507,-1003
-122,50,73,-197,434,-920
-100,-77,-34,-24,950,-914
-103,-113,-53,-157,310,-846
-82,-107,-73,-723,137,-414
-68,-108,-97,-893,-38,-319
-67,-127,-111,-317,93,-371
-56,-79,-115,-692,-31,-259
-74,-63,-118,-677,-380,38
-62,-41,-125,-513,-66,115
-39,-19,122,-222,84,34
-35,11,114,-467,84,126
-25,18,127,35,-1,153
-40,52,-117,13,-92,151
-32,51,-121,60,-33,-3
-8,56,-126,-201,42,55
6,45,114,39,157,8
9,44,96,109,164,-86
30,124,-89,-2869,4081,-1525
107,-31,60,-1534,5145,-2296
-15,95,34,-1145,4780,-2231
57,42,50,-756,4317,-1688
104,36,106,-1419,3774,-765
-107,2,-92,-1458,3909,-75
-3,26,-76,-3145,2434,1267
-59,-69,-49,-1825,2975,426
92,-108,-61,3388,2210,-2404
-36,120,99,-161,599,25
122,50,46,-219,745,-160
-92,59,110,-155,-297,276
-72,85,-104,-48,-1096,506
-31,109,-104,38,-1105,118
66,118,-115,-173,-1557,301
-77,78,79,56,-1760,16
4,49,71,766,-2721,163
86,79,7,673,-3314,462
14,-117,1,382,-3903,1065
69,90,92,1877,-4117,862
122,-108,120,1050,-3180,1247
104,-31,-121,136,-4235,1121
104,25,-34,3390,-3411,880
88,-18,-105,506,-2970,1332
90,-125,-69,2342,-2367,2173
41,-90,-56,1184,-2478,2702
25,-89,56,1486,-2465,3080
-63,123,90,2764,-921,1854
68,-40,-101,1341,204,1020
-35,43,-69,-1009,-1063,757
-79,109,117,852,-428,-437
-113,60,103,393,-192,-574
-113,-3,36,-810,746,-1114
-91,-92,-44,-807,868,-1024
-97,-104,-83,-1073,647,-802
-78,110,-111,-307,572,-917
-63,56,89,876,500,-1264
-39,120,78,-97,291,-291
-54,-103,84,-973,-47,38
-60,-128,77,-175,-220,-310
-46,-103,88,-103,-115,-82
-36,-61,95,-207,-81,502
-35,-56,108,43,-193,408
-16,-38,107,89,-65,409
1,-3,110,-76,-26,400
-6,1,107,-115,-22,277
1,3,109,20,32,176
27,-2,85,346,311,70
23,18,82,-46,160,44
24,14,73,-245,193,-178
119,-119,-51,-1714,3528,-2896
95,125,51,-2103,4480,-3457
53,91,22,-2263,3806,-2837
-80,13,-10,-2486,3728,-2504
-71,-14,77,-2019,3587,-2323
-71,35,96,-4015,5095,-1586
-48,-112,125,-2783,4679,-760
2,-54,-60,59,3423,-705
63,116,-118,648,3014,-1196
37,39,-37,378,2624,-1677
69,-35,-112,-777,1354,-639
-36,-127,-105,-716,471,-86
26,-126,-30,435,-1166,798
75,-15,42,-117,-1343,768
-41,36,118,-20,-1692,951
49,43,100,32,-2100,1076
-128,82,71,-284,-2363,976
-18,56,43,440,-3120,828
108,68,-4,1420,-3437,830
-16,-114,-30,1269,-3836,1096
48,-87,0,1671,-4141,1226
90,-91,-38,2401,-3394,1343
96,8,42,1425,-5622,2377
-112,-20,124,849,-4126,1899
-61,-10,-7,863,-4067,1932
-55,-111,71,2485,-2808,2106
96,-9,106,1290,-2739,1957
20,118,89,3615,-1276,1948
-92,105,105,171,-566,1646
32,-33,34,1567,-438,390
-80,-80,-60,871,475,-252
-118,123,-119,-343,292,-559
127,-4,61,-241,419,-505
-112,-53,-13,-446,729,-614
-98,-77,-58,-440,386,-718
-59,-108,-102,-355,567,-595
-51,125,-128,81,543,-796
-52,-124,114,-281,327,-608
-62,-117,113,-472,0,-283
-61,-110,124,-339,-243,-20
-35,-86,-119,-209,-232,506
-24,-72,-111,22,-185,510
-9,-23,-125,-557,-128,744
3,-67,-95,615,-61,196
7,-22,-113,379,65,362
11,16,-112,-192,-147,380
29,12,124,-204,109,244
19,18,118,-231,43,174
35,12,104,56,289,13
48,17,95,-25,501,-260
77,85,-9,-1845,4581,-3035
65,77,-76,-1545,4727,-3918
-38,25,84,-1829,4627,-3778
-86,8,70,-1931,4426,-3192
51,-21,6,-2239,4761,-3080
-27,-109,30,-1953,3993,-2151
75,-95,94,-2618,3459,-735
126,56,103,-1703,3843,-685
-90,30,-107,-2063,3706,-221
52,-61,-73,-61,2691,-137
45,34,2,2122,2307,-2106
97,47,-78,-536,1300,-605
40,10,-88,-937,515,-26
71,-28,0,35,-597,330
106,43,89,-268,-1314,518
-63,78,-119,-175,-1252,418
9,72,-112,-369,-1809,776
93,60,-125,-128,-2115,517
-76,64,100,296,-2618,705
-2,51,43,1228,-3034,479
87,57,-34,1663,-3074,529
-108,-122,-78,1715,-4748,1018
33,120,-95,1920,-3378,1249
35,-78,-38,2417,-4691,1790
117,36,51,750,-4809,2504
-59,-31,-100,2041,-4110,1907
-46,6,30,2053,-3614,1984
104,-49,54,1986,-1561,1585
-59,-56,126,1607,-2281,2749
-56,-61,23,1238,-71,1778
46,55,119,631,-1581,1668
22,-46,-8,1000,827,46
-82,4,-88,-1012,605,124
125,26,92,631,520,-741
-124,-18,11,-237,966,-717
-122,-36,-41,-1112,480,-261
-80,-66,-81,-975,-9,-352
-86,-119,-111,139,382,-641
-50,-77,-115,-531,458,-350
-70,-86,122,4,111,-134
-72,-69,124,120,-232,-136
-51,-40,-110,-3,-65,360
-40,-24,-128,65,103,51
-19,26,-116,-327,-174,184
-29,6,-109,7,-164,13
-12,17,-95,-329,-69,25
2,18,-119,-518,222,-120
8,-3,123,10,167,-290
17,2,107,-325,196,-134
15,-7,94,-221,256,25
-33,-93,123,-933,4889,-2947
11,-100,-87,-943,4456,-3103
-108,-50,17,-2425,2769,-2446
98,-88,77,-2083,4081,-1912
112,92,122,-1438,4476,-2115
-34,-120,-98,-2285,4224,-1392
3,-8,1,-1273,4239,-687
-107,62,-125,-2000,2574,-52
72,-49,-128,-755,3170,-141
43,-93,46,808,2964,-714
109,108,71,1068,2618,-1767
123,-5,-8,-123,776,-644
74,-64,-34,-138,0,-10
100,-80,7,329,-942,476
-71,14,54,-215,-1478,1020
14,46,52,212,-1782,588
116,74,41,-24,-2355,814
-76,33,-38,563,-2977,711
112,89,-72,76,-3904,1141
-54,76,-52,1107,-4910,1198
59,-80,17,1036,-5287,1466
-102,115,-2,2631,-3585,999
-95,-59,-13,2456,-3882,1847
-116,-6,117,1407,-5847,2456
-79,110,-127,2047,-1655,1832
-107,-19,59,481,-4175,3204
78,74,-57,2646,-1750,1768
59,18,56,558,-2980,3001
26,-85,55,2488,-898,1989
87,120,49,151,-321,740
2,-24,-22,662,583,-944
-113,50,121,1213,1088,-1532
102,10,29,-333,478,-751
106,-40,-20,-969,218,-154
127,-80,-77,-537,177,-133
-98,-66,-63,-274,196,-391
-74,-91,-105,-355,683,-740
-65,-93,-107,-594,544,-609
-68,-125,-125,-250,366,-505
-56,-115,108,-241,349,-321
-42,-82,114,-309,109,223
-42,-80,107,318,54,264
-29,-24,108,-122,-101,449
-18,-17,122,118,-188,377
5,-5,113,210,56,256
3,18,125,-140,-105,308
22,7,120,-31,42,138
45,16,112,-135,108,130
29,13,108,13,81,-106
29,8,108,-199,178,-169
2,58,-23,-529,5030,-4219
-101,17,118,-1619,4729,-3616
15,-36,-58,-1408,4762,-3792
-76,-7,-56,-2984,4411,-3332
-22,107,-74,-1881,4405,-2655
-126,124,2,-2884,3772,-1535
-48,50,90,-1768,3317,-552
36,-32,-101,-1089,3341,-349
83,23,-73,-2000,2740,139
8,96,120,1073,2709,-1337
-119,8,-27,1057,1619,-1846
31,4,-36,-1269,1104,-178
64,-127,-28,369,-22,174
101,-21,44,-37,-1619,978
-102,26,90,183,-1417,807
26,74,103,70,-1808,910
112,76,60,83,-2167,815
-55,54,4,465,-2648,708
97,79,-53,841,-3520,814
-18,-112,-91,145,-4017,1035
34,-49,56,980,-5506,354
-91,-117,-20,2525,-2782,840
75,1,67,1043,-4341,1937
125,-65,34,1642,-4669,2060
-70,-77,125,2776,-3852,1842
-104,3,-105,902,-3104,1974
-120,88,13,2601,-2421,2058
37,-66,-5,1027,-2192,2817
9,-80,83,2989,-882,1619
-127,-2,-52,1535,250,539
-43,37,-62,-201,-149,-3
-125,32,-109,1723,300,-997
108,29,79,-1022,489,-457
-125,-68,11,-833,616,-375
-115,86,-76,421,838,-749
-101,118,-103,124,545,-703
-74,-119,-116,-211,502,-767
-72,77,117,258,533,-486
-64,-101,121,-897,96,-130
-54,119,99,-58,54,-251
-41,-106,111,-196,119,-10
-45,-106,105,77,46,-36
-32,-78,120,-167,418,-486
7,-81,127,389,1039,-1085
47,-13,-117,-103,347,96
35,3,-123,-552,-409,603
31,1,125,-122,-579,557
35,-3,106,-199,-43,91
38,-18,96,98,170,-133
34,-16,87,63,45,-86
120,103,72,-2830,4133,-2218
-127,-54,-78,-3046,4851,-2126
10,125,-85,-2073,5232,-1443
5,54,-31,-881,4664,-1368
84,59,75,-852,3954,-449
-68,40,77,-1115,4053,-140
12,12,118,-1548,3772,167
-124,-49,-99,-1574,3015,375
-44,57,-123,1810,2579,-1415
31,32,-71,1796,700,-2165
83,98,-77,-1470,900,193
113,-74,-11,214,-739,175
-122,6,80,-187,-1542,785
-88,70,120,-129,-1203,726
29,91,91,-150,-1631,663
-124,91,28,-181,-2766,826
-35,65,-29,564,-2934,285
-79,100,-114,848,-3753,720
66,-116,89,1221,-4713,698
-70,-95,-101,1346,-4642,857
-53,-112,-101,1310,-4271,1347
-75,112,43,1671,-4890,2323
2,-118,36,1214,-3777,1557
26,-79,92,934,-3476,2350
23,-63,-74,1344,-3483,1920
-9,-78,115,1971,-2657,2222
89,-1,-81,1910,-918,989
-77,81,56,973,-212,238
-68,-46,-31,619,588,-476
-123,-115,-83,62,382,-499
118,-3,72,316,665,-421
126,-30,-12,-360,429,-275
-99,-45,-74,-676,623,-126
-88,-98,-123,-218,756,-571
-78,-102,112,116,659,-600
-52,-79,101,-182,368,-387
-53,-93,96,-204,104,-406
-52,-77,110,-237,-148,-231
-32,-75,126,-114,-36,193
-33,-51,-125,-238,18,262
-13,-41,-126,-92,24,254
8,-32,126,212,-38,263
-15,19,-123,-423,-163,433
17,8,-127,7,47,116
17,4,115,66,178,-105
26,9,107,-210,136,-30
28,4,99,-293,131,-42
38,-3,87,-173,189,-65
44,-2,80,-78,164,-11
52,3,74,-79,142,-13
-7,92,-1,-1879,3568,-2615
118,65,-19,-767,4275,-3811
63,98,93,-2491,6155,-3896
93,-17,-70,-1737,4484,-3552
-2,-19,-71,-2911,4181,-2263
-25,99,-96,-1670,3959,-1906
14,112,2,-2452,3736,-730
70,41,98,-2202,3368,174
111,-4,104,-2543,3087,542
-4,-2,-67,-2744,1507,1479
15,-92,96,2926,1901,-1852
69,92,50,227,845,-712
111,59,35,-467,147,85
-120,46,98,35,-734,434
-100,65,124,518,-1763,217
-46,101,106,249,-1554,249
68,108,82,-157,-2071,451
-83,62,32,546,-2632,225
28,48,-47,1401,-3000,106
-77,106,-125,1309,-4213,549
116,18,-73,3837,-4674,1159
-108,19,-78,-555,-3365,1816
-120,113,-10,1578,-4839,1862
-15,113,30,1842,-3731,1525
-67,109,25,879,-2176,2546
-60,100,-109,757,-3858,3515
18,-4,-17,259,-3919,3092
-2,-58,-110,1766,-1840,1565
32,-4,-69,1920,-953,516
82,52,64,521,401,-305
-87,-65,-39,301,135,-1140
-63,115,-95,-238,432,-379
119,-69,43,682,376,-687
-118,-32,1,-807,308,-593
-82,-94,-88,-470,335,-1260
-60,-125,-112,-250,638,-1373
-46,-96,-107,-913,651,-481
-74,111,88,343,339,-476
-51,-73,102,-289,215,354
-67,-95,87,77,-9,125
-39,-37,104,-225,-151,553
-28,-50,108,191,-277,411
0,-6,117,303,-14,513
-16,35,-122,87,-724,98
-2,47,-109,-462,-92,161
7,-14,124,-19,543,-217
0,0,117,-189,90,-138
10,-16,108,-380,155,45
37,-32,81,-71,293,17
42,-22,67,-70,163,55
-16,65,-98,-2518,3952,-1765
-90,54,-41,-2130,5031,-3290
80,-47,-2,-1988,5037,-3123
-104,-105,45,-1442,4453,-2361
61,28,43,-89,3768,-2059
-121,114,80,-1573,2658,-960
-8,62,-92,-2160,2279,-268
100,-26,-47,-1950,2802,-181
-7,-72,-19,-2006,2900,-14
78,-7,-15,1328,1921,-1141
-111,1,124,1763,1543,-1637
70,74,106,-1128,697,-82
97,-61,62,101,-204,121
122,6,127,-185,-1223,821
-73,11,-98,20,-1377,745
34,50,-121,-286,-1543,883
89,46,104,-43,-2177,757
-27,16,8,828,-2656,700
37,1,-56,1725,-3501,800
-86,68,96,874,-3621,1558
78,80,-117,1524,-4645,1821
-90,100,-101,2174,-4166,1819
-45,-71,-73,549,-4063,2495
5,124,94,1753,-5373,2570
74,125,38,1336,-2854,1914
-18,-105,-83,1465,-3305,2729
-47,-62,26,1316,-2919,2526
127,-55,101,1764,-1332,1790
-21,-33,78,2397,-471,749
-2,10,-18,1145,324,-215
-78,-49,-47,-335,357,-600
122,21,127,-3,787,-617
-112,-12,54,-273,709,-600
-68,-63,-47,-506,666,-1011
-56,105,-92,-16,789,-1132
-65,82,-117,28,514,-833
-33,112,-124,-516,89,-712
-47,-115,-119,-727,118,-67
-64,-119,-119,-534,-139,149
-45,-90,-106,-161,-265,392
-23,-47,-106,-486,-58,357
-19,-31,-101,-52,71,291
-10,-7,-113,-178,6,203
33,-10,-120,-166,61,230
50,15,-110,-341,-131,306
41,-7,-120,289,226,-91
1,8,116,-31,268,-329
14,-14,105,-75,166,-246
33,-11,87,-273,49,-28
17,-14,67,-103,-175,-162
68,86,-121,-1658,3311,-3712
-39,120,47,-2592,3781,-3184
40,107,-68,-2315,4134,-3413
-81,33,-92,-2165,4305,-3521
-4,-63,-26,-1323,3647,-2875
-2,126,23,-1340,3463,-2190
104,110,104,-1603,2912,-1429
-90,6,120,-880,3060,-1465
51,43,-116,-2169,2507,-811
-118,-35,-124,-2895,2312,-1002
-19,-69,-110,2179,1442,-1782
102,-43,79,347,857,-521
36,-72,2,164,290,126
74,-41,-39,104,-352,649
-105,1,-39,191,-1124,771
-40,25,-12,149,-1774,1128
62,15,-16,512,-1944,1225
-76,42,-45,804,-2396,1249
40,49,-108,486,-2977,1997
-12,117,-104,329,-4156,2321
78,-79,9,533,-4522,2479
-88,-94,51,1577,-3496,1787
-96,-44,87,1083,-3789,2011
114,-16,118,279,-4787,2720
-118,115,112,2740,-2699,1945
112,35,-52,462,-4245,2998
-94,-84,-80,2349,-1861,2527
98,60,79,820,-3084,3292
68,82,95,907,-597,1480
47,11,45,1729,188,-252
-46,9,-60,289,-72,-437
122,84,95,909,337,-771
126,39,23,-800,666,-592
119,-47,-43,-725,115,-397
-84,-79,-102,-834,389,-260
-99,-92,-119,-588,306,-374
-94,-102,115,-141,245,-523
-83,-101,111,-42,125,-181
-78,-52,104,-438,92,114
-63,-55,98,-20,128,34
-56,-34,107,24,137,135
-42,-21,104,114,103,159
-28,-4,105,83,57,183
-22,-4,108,293,44,161
-18,-4,98,157,115,120
14,9,84,-221,119,154
34,-4,72,-76,107,83
8,3,82,-78,-97,44
16,2,83,-377,1,-26
32,-1,75,-464,174,-67
-68,-100,-14,-1754,3681,-2811
-88,-43,124,-2801,5484,-3141
-34,-101,6,-3134,5231,-2981
91,51,9,-2054,4902,-2483
-96,-46,4,-1568,5164,-2080
67,121,93,-769,4186,-1527
-80,36,61,-529,4372,-1534
-32,65,65,-2052,3016,-966
-15,-35,54,-2603,2257,-385
69,-49,39,2063,1870,-2164
45,-42,0,-714,875,-682
15,122,-34,-186,525,-39
42,-50,12,-125,-378,765
89,17,41,161,-1412,810
-31,71,100,178,-1453,823
38,113,96,-476,-1982,964
126,83,70,256,-2398,639
15,96,6,628,-2812,529
76,95,-22,1773,-3627,932
-23,-122,-41,1871,-4249,1355
68,73,36,3566,-3348,1682
63,4,-8,217,-3841,2483
123,-93,39,1285,-4187,2633
98,-22,112,762,-4804,2677
-67,-118,33,2390,-3239,2477
-100,60,49,896,-5245,2844
-8,-104,-1,3635,-507,1694
39,-63,-77,301,-2224,2497
-86,-2,51,2169,681,-48
-23,10,21,1085,-5,-284
123,103,-67,488,669,-573
-120,60,97,-623,471,-410
-126,-14,9,-981,-30,-349
-84,-86,-59,-379,826,-411
-89,-84,-58,-886,530,-427
-74,113,115,84,655,-580
-63,-100,114,-297,182,-273
-55,-102,105,-188,53,-145
-51,-100,110,44,21,-59
-60,-78,122,-68,-196,195
-30,-60,-116,76,-11,201
-17,-54,-125,264,112,168
-16,-17,-122,-249,-194,284
7,-9,-123,-380,-59,340
15,-16,-117,-51,113,124
8,-29,121,283,179,-34
20,-1,113,-192,144,87
16,-23,98,72,146,2
38,-23,84,116,230,109
40,-11,80,-66,53,152
-87,33,2,-663,4932,-2736
62,116,-105,-1750,4775,-3504
-70,-88,40,-2930,4965,-2913
-63,28,-75,-2330,5469,-2831
43,-24,-17,-2056,4940,-2197
13,80,66,-350,4434,-1704
106,92,76,-601,4184,-1423
-73,53,48,-600,4093,-1548
-96,15,93,-1337,2612,-1352
-34,119,64,604,1241,-1542
-48,-118,1,1781,2462,-3548
3,-112,6,-804,802,-361
-20,65,-39,346,173,-708
7,-73,81,-280,-708,1009
77,-9,111,-23,-933,1028
-95,35,69,74,-1048,983
3,70,18,-624,-2506,1329
-128,38,26,-183,-2492,1176
5,67,-16,505,-3322,881
116,62,-77,1432,-3372,804
-77,121,-117,1577,-4023,1396
26,-45,-75,927,-4361,1892
103,109,-2,3069,-4059,2229
-19,-14,-126,1380,-3478,2530
14,47,-1,1989,-5285,2846
53,15,-85,2044,-4118,2176
27,-4,47,2049,-3202,2985
-6,45,-47,2233,-1800,2847
83,67,-113,2265,-412,1923
54,123,45,918,-284,728
-46,39,-9,-47,-302,-169
-101,-121,-90,12,448,-835
121,-23,43,-307,843,-745
-125,-48,-15,-1531,778,-693
-104,-106,-64,-2547,33,-315
-82,-102,-107,-640,-49,85
-99,-73,-114,-576,466,-69
-100,-31,-126,8,287,-184
-91,-14,117,291,134,8
-71,0,110,171,119,-62
-59,6,119,198,-105,48
-48,8,-125,109,-60,-36
-44,14,-121,-114,-79,-8
-13,-6,-116,88,178,-21
-23,7,-112,120,-88,-11
-22,11,-114,110,-46,-81
-6,24,122,-643,111,90
18,-3,110,-209,373,155
8,14,86,123,157,50
17,38,86,-239,143,-55
-104,14,-31,-748,4751,-3136
18,111,106,-2379,4219,-3187
-77,65,0,-2237,4800,-3601
-87,-24,-114,-2276,5351,-3500
-20,-47,-66,-1848,4351,-2899
-36,-100,5,-2004,4013,-2239
36,76,82,-1779,4036,-1474
96,-34,94,-318,4007,-921
27,27,57,-2590,2408,-429
-76,-35,-125,-2429,1834,336
48,-45,-119,2180,2033,-1890
84,52,79,-317,1583,-576
69,5,49,-20,436,104
80,0,66,250,49,-61
107,8,87,397,-1218,487
-91,17,81,758,-1535,586
37,56,45,297,-1762,757
59,49,16,333,-2371,676
-28,9,-68,949,-2610,858
57,26,-115,1277,-3295,1236
-62,109,113,-149,-4186,2239
100,67,-58,934,-4692,3199
-50,-61,21,-878,-4282,3362
-76,120,75,936,-6401,1336
63,36,-46,3075,-4869,1955
84,-15,-89,435,-2871,1456
-84,103,-13,2522,-3103,1462
-124,-3,-53,1047,-3133,1351
56,-59,102,3854,-1512,1444
111,39,23,2480,156,55
-28,58,-26,69,-147,308
-104,-64,-95,-687,291,48
-122,71,115,-159,-203,-735
124,-42,40,-559,415,-928
109,-124,-39,-215,435,-481
117,-121,-91,-460,325,-487
-127,87,105,259,605,-522
-118,127,100,-273,634,-349
-114,-118,109,-192,89,-155
-94,-124,108,297,13,66
-78,-75,118,-165,25,278
-67,-60,117,-215,60,154
-53,-53,119,-38,128,178
-47,-32,118,-196,142,207
-44,-5,116,-372,-1,280
-16,24,123,-691,-120,330
-7,5,103,-141,93,-56
-19,10,100,-288,90,-206
-7,-3,88,-185,198,-229
6,-13,66,-5,214,-229
19,-102,19,-3480,5178,-3025
-121,-35,-77,-1033,6029,-5031
-80,-55,71,-2422,4543,-4120
-78,-93,31,-2586,3833,-3201
127,-125,123,-3257,4917,-3342
78,60,-102,-3266,3940,-2617
10,-46,24,-2399,3417,-1238
90,104,69,-1708,3443,-1251
80,18,-107,-1509,2964,-690
-55,-80,-84,-582,2307,-811
63,48,107,1140,2797,-1642
76,-20,-6,45,1935,-1727
28,-119,-38,-439,679,-222
27,126,-48,-135,-453,337
80,-127,-3,278,-1131,939
-80,-34,52,53,-1542,1327
15,10,44,364,-1887,1077
114,52,27,91,-2385,1330
-47,43,-28,302,-3091,1276
102,82,-64,846,-3834,1712
-55,-89,-58,738,-4603,1595
22,74,26,-708,-5814,1392
-118,-106,127,3291,-4298,580
108,-31,-104,3376,-3376,1115
23,51,107,2245,-4024,1787
86,-30,-59,2597,-3266,1892
-123,-45,-102,3136,-2968,2050
19,-28,-18,2262,-2159,2579
-40,-38,-125,1956,-2107,2207
-64,-92,-8,2821,711,1378
-17,10,-26,1231,-672,834
-90,-74,-57,535,-235,-121
-120,113,-110,-461,314,-592
80,-2,59,-998,-100,-985
120,-58,3,-905,105,-651
122,91,-79,114,749,-814
95,94,-102,-221,398,-701
116,115,-94,-746,-12,-21
-107,-122,-123,-542,409,-51
-97,93,101,414,470,-517
-108,82,90,756,28,-395
-98,112,-119,192,-125,183
-79,115,109,-19,342,305
-49,-108,120,-382,-143,799
-36,-68,-127,-380,-224,930
-60,-33,-124,-117,20,535
-55,-49,108,375,456,-47
-32,-43,79,450,513,-168
-1,-56,46,382,334,-119
-10,-49,56,-64,-21,35
-113,89,98,-2382,3818,-2833
7,114,47,-2608,4398,-2447
22,63,21,-2230,4656,-2400
-107,14,-9,-2684,4865,-1902
-33,-68,58,-1543,4374,-1336
3,68,83,-789,4695,-1160
126,117,110,-1776,4071,-341
-62,17,114,-1018,3775,-691
-1,-33,124,-636,2617,-710
110,79,94,2173,1808,-2306
34,7,-57,-368,1480,-1644
-2,122,-59,63,372,-117
37,-76,-54,-223,-640,563
73,-41,33,157,-1222,890
-100,31,74,155,-1389,1027
12,88,63,-135,-1852,1009
95,51,37,454,-2348,859
-59,31,-53,1124,-2679,666
-127,102,95,2057,-4019,1396
7,-48,126,804,-3802,1731
63,-72,-50,1843,-4252,1583
-87,-48,-50,1983,-3657,1868
85,-52,-7,1899,-4432,2441
-88,-121,-26,4069,-4596,1865
-35,5,-25,1754,-2256,3478
-20,15,105,2434,-2578,3520
-55,126,12,2025,-3177,3618
107,-113,44,2275,554,1545
116,-63,29,251,-116,810
-82,-89,-48,2255,-122,-1145
-109,-127,-116,334,656,-861
82,-15,21,-1346,474,-539
109,-121,-21,-522,397,-524
-123,83,-91,87,823,-407
-106,-126,-121,-593,397,-159
-91,112,114,-256,144,-144
-84,-124,109,-271,-17,-141
-84,-116,107,-298,41,-153
-80,-119,107,-78,-5,-117
-56,-115,98,168,-52,105
-58,-76,99,-415,-212,281
-54,-52,110,-771,-285,464
-49,13,-90,-1482,-175,687
-31,-38,93,599,489,103
-46,36,115,59,-233,-193
-19,4,106,-323,158,-263
10,-30,78,-10,408,-191
0,-31,62,277,198,-25
0,-17,57,-71,56,91
11,-8,59,-239,0,246
-54,-87,-90,-1812,5877,-3022
-60,41,-42,-1302,5501,-3785
-95,-13,-119,-1716,5440,-3843
32,-104,121,-1998,4947,-3577
31,127,-61,-2092,4356,-2741
14,-26,69,-4449,4254,-2315
-5,7,-119,-1033,4733,-1862
-15,26,-44,-1474,2113,-756
113,13,-88,-2097,2115,-450
1,81,-92,387,1880,-835
67,33,53,-231,1366,-735
7,-5,51,-576,424,-81
-9,-31,75,743,-380,121
67,50,-127,-79,-582,347
126,28,-122,558,-1093,624
-53,63,97,584,-1657,709
27,64,63,727,-1905,647
91,53,22,969,-2331,791
-42,41,-42,1694,-2908,1096
39,107,-99,1520,-3401,1511
-101,-124,-81,1398,-4102,1832
2,-118,3,1546,-4528,2334
11,-82,-10,852,-4668,2620
-82,-87,107,2233,-4848,2077
-39,-38,-49,1768,-3726,1375
-105,-109,-44,2016,-2526,1836
119,-60,-11,2932,-2940,1690
20,42,53,620,-2466,2302
-56,-67,-109,2542,-1093,1408
45,49,35,1150,-219,837
-36,-54,17,1925,-125,182
113,110,-59,673,452,-201
96,45,111,-591,8,-423
-119,-33,66,-970,200,-189
-120,-114,-44,-499,483,-532
-118,-87,-69,-1215,153,-609
-108,-107,-94,-1158,222,-212
-113,114,-120,-196,162,-97
-105,-98,125,-120,119,-33
-100,-87,119,-58,-13,110
-92,-68,-126,-159,-9,299
-81,-53,120,-20,-63,406
-63,-31,123,-32,-108,437
-55,-18,-126,-210,92,391
-44,16,123,-684,260,324
-40,10,-127,-352,110,220
-34,9,-125,105,0,198
-16,25,119,92,166,155
3,29,94,-21,328,43
10,28,84,-28,93,-57
-51,36,16,-2329,3664,-2240
43,52,-50,-2803,5494,-3874
-78,-85,72,-1864,5332,-3969
58,81,-84,-1614,4474,-3578
19,125,50,-3015,2108,-2430
-125,69,-98,-3831,2544,-1464
-58,48,-62,-1297,4736,-1486
-22,118,49,-1697,2736,-442
-91,13,-35,-1405,3331,-320
19,9,-44,-1899,2755,-108
127,117,-69,-179,2214,-287
2,16,92,1804,2245,-1284
56,-4,-24,102,1333,-1276
34,-49,-53,-429,-247,609
70,-24,-35,-53,-1106,357
-100,3,71,-69,-1478,931
-24,25,69,210,-1794,717
57,35,45,459,-2282,826
-61,2,-44,1096,-2627,865
31,42,-74,1114,-3433,1260
-35,67,120,1629,-3908,1791
34,-78,-58,521,-5273,2183
104,-113,-72,1595,-4624,1845
-88,-72,-25,2641,-4509,1666
-101,42,-127,834,-5177,2425
-72,-114,-105,3062,-3520,1283
-84,-97,-78,2175,-2637,2168
-122,-106,-97,2580,-2423,2716
91,7,104,1249,-2412,3101
15,-28,28,2569,71,1135
54,46,-8,1262,-373,143
-89,-79,-48,683,128,-775
118,45,-124,498,696,-1071
106,11,68,-739,741,-584
106,117,-22,78,721,-703
-124,114,-72,-60,598,-821
-86,125,-99,-557,417,-571
-89,110,-98,-443,318,-353
-111,99,-105,-191,107,-370
-85,-124,125,-426,77,-21
-71,124,116,-202,-25,94
-70,-95,-127,-278,-212,256
-3,-79,118,-309,-95,398
-16,-42,-102,-372,-357,657
-75,-23,-100,78,-129,153
-39,-28,-128,48,351,-88
-1,-13,103,-88,340,135
-10,-11,86,88,0,-24
-3,-16,83,50,98,-104
10,-9,85,-340,154,-32
-106,-27,-3,-2428,4496,-3464
-62,-69,-107,-2349,5832,-3571
-45,-118,127,-2555,5779,-3750
43,108,86,-3225,5206,-3077
-2,-5,103,-2147,5140,-2914
-87,123,-22,-1164,4316,-2262
-53,86,84,-1489,3171,-1035
47,39,104,-1422,3382,-861
62,-39,103,-1057,2865,-983
-104,-70,115,-1318,1816,-877
-109,-113,-2,1988,1739,-2094
13,-87,10,-11,472,-375
12,-114,-13,63,-58,162
64,-56,31,-101,-912,923
-105,0,79,-77,-1641,1182
26,37,80,18,-1691,1119
73,49,46,-143,-2205,1134
-75,28,-2,174,-2941,1286
73,40,-82,1156,-3424,1083
-57,-106,-63,646,-4143,1595
96,-28,28,978,-4641,1369
127,-107,42,3181,-3832,1283
107,15,1,1220,-4013,1791
116,-46,124,2764,-4590,2168
-126,9,51,1231,-3674,1933
-106,-79,-33,3001,-2829,2251
91,2,-51,2482,-2211,2218
42,105,72,380,-2243,2526
-85,-91,108,2378,679,785
-19,-25,-69,1076,457,340
-105,5,-21,-1058,-775,543
-107,-12,112,552,638,-516
126,31,55,-1268,439,-449
124,-46,-29,-1112,162,-519
-109,-100,-68,-256,475,-614
-113,-105,-99,219,405,-565
-107,-93,115,48,378,-571
-89,-86,114,-506,144,-155
-86,-85,97,-175,-35,27
-88,-83,99,-30,-75,-33
-82,-56,-128,-325,-189,258
-65,-61,109,68,198,140
-48,-44,110,155,135,37
-40,-56,104,499,209,22
-40,-25,103,5,84,402
-40,7,117,-524,-167,625
-2,20,113,-598,30,571
27,17,90,-123,246,186
14,14,77,-52,263,-230
10,-4,59,48,308,-306
-11,6,-11,-937,4885,-3355
-102,46,-22,-1486,4578,-3501
114,-103,-60,-2381,4185,-3132
-61,108,-125,-1439,5218,-3395
32,76,55,-1919,4512,-3039
117,35,60,-2034,4383,-2680
-58,-33,85,-1329,4814,-2619
-93,-41,-128,-2370,3984,-2093
36,-111,-114,-1912,3515,-1579
51,-85,74,-1006,2691,-1267
-100,92,69,348,2375,-1297
-78,102,89,1552,2013,-2274
-9,73,56,-1004,351,-86
-33,29,77,208,-845,443
65,-107,-45,-208,-1536,1152
-68,-23,45,235,-1791,1236
29,36,52,188,-2024,1396
-123,46,17,732,-2662,1494
14,50,-84,1072,-3013,1592
-84,-122,-127,891,-3980,2056
70,36,-56,-173,-5031,1846
-125,-69,11,2719,-4609,1528
-123,81,-26,2510,-4932,1276
-95,109,-102,1677,-4147,1824
52,11,-42,1425,-4126,2111
-123,-105,-18,4140,-2985,2532
-72,57,-1,2055,-2392,3288
110,44,84,2501,-1282,2689
-8,78,104,1817,-783,2152
-104,68,39,1903,-176,849
-106,51,-58,-36,272,-565
126,-110,114,-1473,357,-548
101,-25,74,-378,110,-369
-125,-93,-10,200,376,-570
-126,-79,-57,-555,324,-641
-72,-120,-99,-507,299,-636
-74,-126,-104,-74,243,-232
-90,-124,-121,136,139,-434
-78,-126,122,165,153,-129
-71,-89,116,-477,13,301
-69,-91,122,-45,-247,421
-37,-81,123,383,246,320
-36,-22,116,-305,-38,546
-31,-6,118,-321,-260,509
-9,-14,117,62,160,249
-23,-4,111,74,112,-30
-25,-4,94,44,137,-70
-1,-6,86,-60,328,-80
16,-25,65,57,210,-131
38,-6,60,-385,40,84
100,-87,9,-3853,4231,-2454
2,70,-40,587,3654,-3986
82,-66,-50,-3111,5447,-3603
-119,-21,91,-1846,4759,-4218
50,-99,-92,-2147,4166,-2589
123,80,-100,-463,3815,-2359
-60,-32,-37,-3892,4009,-1811
41,72,4,-2166,4738,-1791
-58,-104,89,263,3748,-1968
-2,-70,87,-552,2625,-1409
0,-28,-22,1123,2167,-1962
77,-46,-50,-506,798,-980
17,-125,-77,-712,64,-269
23,88,-40,213,-944,338
115,-80,40,161,-1341,1401
-59,15,48,532,-1415,1043
29,85,44,174,-1976,1403
-109,84,-22,159,-2686,1421
49,126,-92,395,-3559,1364
-45,-97,-68,637,-4139,1400
31,-9,9,945,-5178,1548
57,-17,54,739,-4724,1425
110,-91,98,3402,-4671,1195
103,-9,70,1795,-4138,1710
17,-66,-62,1149,-4983,2008
-87,-110,79,3671,-3412,1966
122,69,7,2053,-1988,2066
36,63,20,2051,-2831,2482
-18,-31,-43,3387,-752,494
53,-16,6,2136,819,490
-34,22,-64,108,670,425
121,-39,-122,-1369,80,-337
-123,-49,47,962,1064,-1627
119,-113,-52,-32,1314,-1440
-117,101,-100,-631,740,-1050
-81,91,-117,-846,471,-473
-116,89,126,-529,-60,0
-92,96,96,-265,199,-259
-75,118,110,-281,-76,65
-53,127,89,-95,-59,145
-82,-99,117,-218,-324,331
-50,-68,123,-386,-257,586
7,-28,-120,-461,-133,759
-52,10,-106,-279,-258,528
-65,-6,-115,207,83,-55
-26,-15,108,170,512,-174
-4,-4,75,-87,290,106
-14,13,78,-335,-169,270
-8,-2,74,-18,80,-30
3,-9,61,119,336,-256
-84,38,-104,-234,4796,-3867
46,-49,85,-3453,3738,-3255
-106,74,-22,-1862,4891,-3215
25,115,-65,-2875,4330,-2953
59,17,33,-2995,3886,-1937
-92,-109,118,-1639,5005,-1583
-19,108,-107,-969,4340,-1103
50,50,118,281,3684,-1536
79,-28,35,-485,2878,-1809
60,-126,19,-1255,1674,-1371
92,94,-46,1403,1049,-1982
-11,-88,-30,-991,23,-245
26,-100,-14,338,-383,-18
41,-72,47,294,-942,679
121,-16,87,99,-1359,1136
-49,36,83,-72,-1894,1393
56,54,45,111,-2181,1285
-66,19,-25,888,-2536,1213
22,65,-74,896,-3166,1382
-102,95,-111,1792,-3537,1563
25,-11,-54,1058,-4561,1878
73,-35,-53,2924,-4476,961
92,8,-40,3067,-3647,1467
70,127,22,808,-4410,2704
123,-17,115,2801,-3319,1731
-91,-10,-86,2880,-2472,2075
17,-38,-41,2920,-1242,2149
-27,79,8,2156,-2521,2660
-97,-67,9,2516,1205,1548
-16,23,-91,1282,-298,1084
-88,-22,-40,648,-461,294
-119,123,-117,-42,862,-509
99,14,70,-281,593,-898
111,-87,-14,-396,602,-653
-126,-103,-63,-662,147,-490
-127,103,-127,-356,193,-532
-75,-92,-126,-1347,-158,18
-85,89,81,-422,360,-411
-85,102,91,-222,37,-568
-67,97,112,-151,-125,-122
-65,100,101,-80,166,-89
-65,126,108,-182,-169,271
-49,-97,125,-314,-32,457
-34,-87,101,110,364,329
-36,-51,99,116,123,440
-39,-40,91,74,34,464
-22,-28,84,89,93,392
-16,-35,74,330,164,247
-1,-26,66,203,230,218
5,-7,66,-204,0,266
74,-25,95,-3052,4282,-3986
-75,-16,31,-3397,3133,-3611
97,-16,105,-4115,5247,-3163
-89,-100,62,-3016,4588,-3068
-3,-74,-90,-4010,4311,-1449
-9,3,23,-2941,4090,-1014
90,-57,-123,-2585,3816,-655
-114,9,-94,-723,3757,-723
-14,38,123,-1773,2978,-427
68,-50,112,-1785,2026,-342
-70,-18,71,929,1538,-1026
0,-88,-1,579,966,-777
17,-52,7,-168,-338,548
69,-39,12,562,-1125,655
-96,8,57,373,-1662,1086
16,46,57,286,-2108,1097
108,37,18,789,-2388,967
12,87,-68,470,-3034,998
107,-124,-45,-90,-4294,1831
10,-32,95,-544,-4480,1768
81,-99,-78,2184,-3823,763
75,-35,124,1978,-3973,1131
102,-64,-127,2677,-3975,1288
17,-22,121,1157,-4001,1804
-127,77,-102,4276,-3569,1682
-108,-29,60,2322,-3143,2411
70,-41,-20,2796,-3543,2914
123,80,-117,2255,-1935,1619
-128,-26,83,2859,1577,-154
-64,-35,-29,1561,491,-392
119,-105,-62,-151,-46,29
103,1,74,-897,398,-314
96,-80,25,-483,-96,-510
121,119,-44,-357,265,-523
-115,78,-90,-34,598,-1060
-96,45,-114,12,492,-891
-77,86,125,-675,276,-58
-92,62,123,-174,-50,-94
-82,89,120,-149,-1,-7
-74,119,125,-316,59,242
-76,-105,-115,-130,-237,372
-64,-104,120,250,217,43
-42,-59,127,-297,264,391
-46,-64,114,-134,-99,324
-21,-54,110,-73,84,310
-17,-36,107,-382,123,210
-19,-44,92,-250,-9,170
-5,-37,85,-311,39,202
-1,-45,72,1,82,-2
-2,-58,58,164,197,-94
70,4,-9,-2030,3921,-2597
-109,-36,-51,-1297,5333,-3180
39,-90,10,-2067,5480,-4096
-74,61,-55,-1339,5151,-3799
-37,28,-53,-2067,4399,-3233
-93,-44,2,-2467,3721,-2298
-57,110,28,-1966,3953,-1967
-55,5,85,-819,2950,-1524
-49,2,69,-2152,2403,-885
68,-96,44,-2012,1424,-741
-127,-87,67,127,1636,-1294
18,-113,60,42,582,-106
30,-44,49,-251,-278,514
85,-23,54,322,-1202,633
-78,17,118,-121,-1476,1054
-6,-7,113,457,-1667,1070
99,41,69,82,-2169,1182
-75,19,28,1005,-2641,1190
96,59,-48,1665,-3363,1409
-51,9,121,2159,-2518,2014
98,-64,-74,758,-4887,3413
-66,-49,7,2024,-4723,2617
-2,15,58,1437,-3934,2613
-44,37,-68,1598,-4645,2168
-72,-1,73,1252,-3274,2144
-56,-79,69,3372,-2858,2291
44,38,-21,622,-2246,2807
0,-14,-106,2360,-1732,2276
105,99,80,4,-261,1110
-8,66,65,-419,-961,441
-58,93,-50,1783,1074,-805
120,106,96,-1021,708,-733
100,-14,24,-1186,139,-628
-127,-105,-67,-720,616,-606
-106,-127,-114,-59,764,-658
-118,-88,126,-661,-187,-88
-92,-95,108,-585,-59,202
-75,-97,92,17,364,-79
-91,-67,96,-106,76,-50
-72,-57,112,-83,-115,328
-69,-53,-118,571,-150,234
-46,-41,125,795,420,39
-41,4,102,-281,221,282
-22,-2,117,-100,-163,285
-7,-25,91,225,213,-23
-6,-11,81,-193,86,23
-13,3,82,-757,-121,256
-17,-4,87,-596,-65,189
-7,-14,82,-126,169,76
14,3,74,-145,177,120
9,-123,-18,-490,4917,-3613
-102,-90,78,-2569,5416,-3770
-20,95,-74,-2207,5313,-3599
117,43,-106,-1885,4858,-3415
119,28,-44,-2038,3743,-2903
-90,-6,36,-2338,3784,-2036
-82,84,50,-819,4202,-2226
-13,-128,108,-1832,3260,-1657
40,19,-128,-1836,2614,-1446
68,-96,-95,-2169,868,539
6,-15,97,369,1457,-1549
51,-108,117,679,1196,-1022
11,-91,53,-291,320,202
22,-24,40,-339,-535,502
81,0,117,140,-1060,493
-108,5,-91,134,-1242,997
-1,26,110,518,-1566,943
72,48,67,28,-1976,990
-73,-5,-29,1124,-2602,983
42,70,-103,550,-3005,940
127,-16,62,2436,-3586,1418
83,41,-97,-765,-5619,2500
-109,-18,23,1360,-5331,1189
-88,-119,79,3998,-3794,1092
120,70,-19,1617,-4790,2331
-65,-23,-110,2255,-4689,2448
18,-57,-89,2641,-2464,2100
-67,-53,52,2972,-2435,2545
93,3,85,2237,-1252,2289
-84,38,120,1641,-45,1049
0,-23,-10,1921,532,-211
-124,-12,-64,-164,81,-474
97,89,89,-310,279,-865
99,-1,35,-293,290,-1011
-98,-65,-49,-597,276,-1121
-103,114,-91,-719,356,-1263
-115,57,-95,-188,234,-884
-107,56,-108,-160,225,-533
-107,75,-117,-370,148,-199
-87,87,-116,-425,208,46
-73,109,-112,-204,-138,401
-70,-126,-127,-104,13,536
-56,-78,-115,-452,159,677
-33,-44,-113,-156,3,903
-22,-30,126,125,164,636
-20,9,-123,40,19,608
-23,0,118,222,94,290
-13,-6,98,214,177,78
2,-11,79,117,166,-49
2,-13,72,-96,112,-103
-71,38,-58,356,5724,-3750
-38,-112,-49,-2684,6059,-4473
-95,-42,113,-915,5448,-4697
41,-31,-108,-1945,4579,-3955
77,-88,-64,-1399,4150,-3323
-82,-106,13,-1386,2767,-2320
60,-121,84,-2441,3515,-1846
-121,37,84,-1561,2959,-2035
-48,-120,105,-1833,2218,-1486
20,-9,125,-4,1538,-890
103,87,15,928,1313,-1135
8,-112,12,-1024,301,523
37,-122,-16,262,-766,888
116,5,26,100,-1133,882
-69,20,50,350,-1483,1084
5,56,33,426,-1714,1074
-101,66,-30,725,-2131,1043
-41,47,-80,1274,-2726,1210
56,105,-125,555,-3773,2071
16,-30,-54,648,-4495,2055
60,32,96,1613,-5471,1806
62,-13,111,2318,-4623,1831
36,-1,62,2228,-3995,1694
49,14,-124,1898,-5253,1249
-57,-74,78,4031,-1823,1752
37,54,123,1833,-2629,2637
54,-14,-26,2974,-2581,2651
35,26,80,2100,-118,2239
71,31,64,2704,11,847
-12,44,-2,1001,641,78
124,-56,-119,-814,710,-688
112,19,73,-376,495,-999
109,-127,10,538,498,-822
-102,52,-82,938,679,-884
-117,47,-110,98,158,-540
-113,63,-109,-896,39,148
-81,63,114,-535,122,268
-93,81,97,-220,-62,82
-85,126,114,-359,-71,41
-81,-116,-127,-459,-346,113
-50,-117,-107,-9,70,145
-33,-91,120,212,349,10
-38,-59,117,-251,-23,-24
-15,-40,116,-654,-111,250
-35,-52,114,-500,31,-77
-61,-37,114,-917,96,208
-38,-41,88,-233,101,314
4,-11,53,-85,42,274
12,24,60,-370,84,333
19,4,42,317,281,52
-5,123,46,-915,3368,-3905
-96,-65,-33,-2412,3236,-4111
-55,-127,-108,-2674,3334,-3780
-106,69,104,-2468,4208,-3862
108,-19,-75,-2474,3176,-3477
-81,-31,13,-3225,2970,-2136
50,109,44,-1945,4118,-2607
124,-112,-90,-2097,3531,-2031
-23,37,-71,-2187,3120,-1960
107,-85,-61,-1507,2112,-1016
39,0,87,1291,2333,-1318
-72,-72,-14,614,1597,-984
109,-127,-95,118,502,6
103,125,-125,-94,-529,640
-105,-100,-61,139,-1361,1172
1,-23,-20,377,-1555,1358
30,-18,-22,496,-2014,1485
-106,-15,-51,807,-2355,1912
17,38,-88,1228,-3205,2251
-121,122,-67,677,-3803,2617
-14,-96,-27,485,-3319,1416
57,103,-109,314,-4795,2790
94,30,105,2349,-4096,2458
93,63,-41,2425,-4790,2660
126,50,-69,2027,-4884,2880
-103,-68,55,3749,-2924,2834
-94,55,52,2696,-2080,3257
51,-109,55,1474,-1680,2970
-69,96,-118,2275,-968,1572
0,81,-12,1299,403,-95
-119,-47,-112,1076,389,-843
86,-114,67,-1060,198,-598
-127,-44,20,173,374,-909
-107,-74,-30,-678,411,-471
-105,-109,-68,-763,151,-671
-74,-127,-77,-688,365,-705
-71,100,-99,-76,300,-455
-76,110,-107,-74,-52,-228
-56,-116,-104,-311,49,37
-38,-108,-110,-103,174,67
-39,-84,-111,45,49,230
-34,-55,-103,36,-22,374
-17,-40,-116,-25,205,379
-13,-18,-121,-178,91,423
1,0,123,-373,19,447
8,-24,108,233,151,23
16,-11,116,106,224,40
26,-6,105,-216,178,91
33,-11,97,-167,132,96
44,-15,86,-91,169,7
40,-39,-5,-1902,3723,-2650
-63,-17,-97,-2461,5101,-3354
-5,119,-22,-2892,5388,-3355
-117,95,-25,-3781,4020,-2046
-63,-110,-30,-1572,4917,-1670
-36,121,-22,-852,4980,-1768
-92,30,40,303,3875,-1620
47,77,99,-1930,3617,-506
-125,-37,89,-548,3048,-629
-87,-119,60,-52,2452,-1436
-65,-28,-58,828,2001,-1989
44,-10,-50,-955,696,-225
21,-124,-50,57,119,36
61,-38,13,-142,-1030,824
-114,25,97,-150,-1271,938
-29,50,84,-72,-1350,851
13,60,74,-469,-1921,922
83,29,47,-479,-2412,1001
-46,45,58,-115,-3577,1041
92,66,42,859,-2934,714
-67,-51,-126,33,-3324,690
-51,122,110,2241,-3521,859
-27,-61,68,2391,-3656,892
-31,-33,65,1213,-4138,1715
45,27,-7,5014,-3795,1776
82,-10,41,2566,-886,2262
-24,78,-108,497,-3257,2902
-2,-61,-82,1489,-3249,2736
6,-127,-10,2420,-1766,2656
-8,-29,45,1945,-548,2265
62,43,-18,791,-529,871
-52,10,-40,-83,-33,6
-117,-95,-94,-248,268,-567
101,2,48,160,551,-1001
-121,2,18,-1145,652,-1098
-93,-122,-88,-678,941,-837
-66,116,-105,-744,261,-443
-73,63,-121,105,-201,-158
-81,84,119,-39,-191,-162
-51,87,123,335,-472,197
-67,-60,-92,-1125,-47,884
-65,-92,-108,99,188,240
-45,-36,-112,-11,277,215
-31,-38,-122,203,212,269
-24,-21,113,223,150,77
-32,-14,108,31,175,41
-6,-33,91,11,301,-36
8,-40,75,51,45,83
10,-32,70,-94,80,120
12,-33,74,-97,59,-23
85,-65,-2,-786,5186,-3480
26,-112,87,-2010,6201,-3919
-43,43,87,-1814,5629,-3713
12,21,58,-1827,4425,-3402
-57,30,-122,-3227,4437,-2400
38,-117,-95,-1998,5177,-2423
-51,71,30,-1414,4332,-1715
12,30,89,-1601,3478,-1019
24,-71,116,-1651,3476,-1010
-121,-110,-71,-1559,1976,-246
-22,-78,16,1222,2019,-915
-48,-63,110,-41,966,-938
-11,-68,-109,-271,-388,214
40,-59,-48,733,-1356,684
-127,8,54,42,-1933,1014
4,24,82,361,-1933,1107
66,62,57,88,-2131,995
-103,66,1,458,-2718,849
72,92,-87,-41,-3578,1022
-72,127,1,296,-5271,1287
90,-115,13,1647,-4613,960
107,-57,74,2041,-4497,1147
79,-46,69,2727,-4322,1147
103,-35,51,2893,-3552,1732
124,9,94,2572,-4375,2229
-10,-90,107,4261,-1722,1768
-124,23,8,2549,-2235,3364
61,125,36,710,-1945,3128
-31,61,-70,1968,-1135,2030
42,0,-11,2123,845,99
-104,-1,-67,277,-573,-976
-123,73,-115,1363,-13,-1263
94,-23,51,-732,1163,-1380
105,113,7,-314,445,-864
-116,74,-51,-327,181,-160
-102,51,-73,-343,-379,350
-114,114,-99,-916,-505,447
-64,84,114,-440,561,-307
-93,94,114,-178,217,-295
-86,104,-120,29,100,151
-84,-110,-124,-279,-152,487
-68,-66,-119,-421,-123,471
-48,-68,122,-8,161,231
-47,-23,120,-232,-318,363
-53,-34,113,-128,-458,344
-48,-45,98,-14,-229,193
-51,-51,89,40,-173,102
-55,-37,85,-340,140,51
-33,-54,55,-48,262,-76
-30,-50,54,-165,176,34
109,-79,8,-1729,4482,-2495
-110,84,-99,-927,5341,-3708
-51,57,-80,-2250,5636,-3499
-122,13,92,-2508,5315,-3245
30,-26,116,-2379,4740,-2486
86,-112,-105,-1635,4547,-2098
41,125,-39,-1604,4334,-1692
99,88,21,-1739,4018,-1149
-108,15,92,-1569,3043,-841
-89,82,118,693,2155,-1669
-50,-82,-29,1970,2644,-2793
-67,-110,-96,-1032,677,-458
-41,37,-104,96,-694,668
22,121,-24,-54,-1142,958
-113,-87,48,635,-1541,1403
-9,23,16,-17,-1861,1548
-109,57,-4,30,-2312,1420
-17,86,-38,-525,-3152,1432
123,68,8,141,-4158,1595
46,112,-11,2327,-3761,1176
94,92,-13,909,-4887,1870
-84,47,-17,1547,-3717,1324
-78,3,66,3327,-4727,1250
-65,-10,-31,1547,-2973,1766
-70,-64,-32,2603,-4226,2604
-48,3,5,1215,-3457,2870
-28,-48,-101,3032,-1258,1995
-49,21,100,1968,-319,1877
50,52,44,497,-729,622
-31,-91,-62,1721,582,-426
122,-108,87,-283,476,-619
114,31,58,-471,126,-565
-119,-96,-17,122,379,-431
-110,-104,-53,-526,226,-540
-91,123,-92,-536,338,-542
-66,94,-123,-275,409,-428
-78,96,124,-65,284,-317
-67,120,-115,-34,-59,107
-49,-122,-125,-54,314,286
-36,-83,-128,-154,6,390
-27,-66,127,-50,-119,344
-12,-40,-127,-190,64,397
-6,-47,116,129,195,124
-4,-27,106,-113,-7,92
2,-26,93,-356,-1,0
12,-44,82,-190,90,-81
22,-55,75,129,294,-314
29,-71,66,354,180,-377
34,-81,66,322,485,-377
32,-65,66,110,164,20
-79,-6,14,-2759,4392,-1487
22,-45,-14,-77,4051,-4283
21,-67,74,-2924,5225,-3869
-55,-23,122,-2203,5202,-3673
77,-77,93,-1932,4520,-3407
96,-117,-125,-2257,4047,-2849
13,60,3,-1088,3510,-1736
93,65,89,-1868,3250,-1140
-111,39,-86,-1234,3502,-194
113,-5,-119,-1006,4358,-767
-113,-49,120,-312,1650,-1722
-56,-105,-36,1605,1701,-1864
14,112,-48,-402,615,-211
27,93,-62,47,-72,391
77,-95,-34,-12,-824,994
-72,2,-21,185,-1547,1198
46,77,-24,124,-1863,900
99,21,-12,392,-2363,1283
-7,39,-91,225,-2986,1363
126,74,-84,86,-3974,1990
54,-128,-12,2105,-5131,1919
126,29,71,563,-4118,2321
125,-43,117,2394,-3653,2066
-128,-9,123,1328,-4608,2600
-87,91,95,3730,-3224,2348
-71,6,-80,1586,-3772,3425
105,-78,-109,2171,-2208,3248
-127,19,-60,1881,-1840,3393
20,101,-42,1205,-1291,2161
-120,66,-39,1327,111,-10
-38,-88,-117,1920,-28,-1530
-98,-122,117,88,387,-631
105,-26,42,-515,577,-623
112,-81,10,-380,23,-111
-110,-102,-69,-485,302,149
-117,-116,-85,-607,28,-65
-82,-96,-92,-816,-28,140
-95,-86,-80,-714,79,288
-76,-115,-123,31,577,-263
-69,-101,104,127,331,-256
-64,-82,102,-94,82,70
-39,-67,97,80,108,13
-23,-52,95,81,203,-129
-21,-48,102,112,25,-119
7,-41,92,-244,79,72
-4,-34,95,-422,-173,108
-1,-40,97,-306,50,151
6,3,105,-608,94,318
22,0,100,-202,294,41
34,-9,88,33,258,-71
-86,70,-53,-2516,3984,-4067
-102,-4,17,-3116,4921,-3787
-109,-41,-104,-3142,5463,-3407
-20,-123,121,-3784,5502,-2590
-38,-57,-107,-1848,4764,-1731
67,-67,-67,-1358,4252,-1409
-87,112,-64,-1245,4609,-1530
117,-67,-101,-468,3471,-1588
-113,126,-122,-1401,2122,-1188
-96,-89,90,848,824,-1829
-45,81,82,-255,103,-246
9,-115,-110,-563,-643,639
44,-69,-65,809,-1319,750
-120,38,-12,81,-1507,1035
-49,59,5,465,-1840,1025
70,70,-30,862,-2420,949
-68,57,-102,1371,-2705,1020
61,90,118,1465,-3572,1595
-60,5,-49,-329,-4668,2144
46,98,67,1616,-5010,276
-10,47,124,2000,-4086,833
-78,-70,-92,3198,-4740,707
-45,-103,-80,2743,-4717,2352
-100,8,-91,2776,-2538,3215
127,-86,-39,2098,-2379,4227
-55,85,-37,5954,685,2860
-120,6,51,1749,-1894,3826
-43,-107,-89,1365,-2391,1577
58,19,-102,2133,-326,-839
-125,101,108,1654,705,-1669
92,67,80,-202,517,-811
96,-57,21,-512,640,-247
108,-102,-16,-669,523,-394
-122,-101,-39,-1009,298,-223
-95,96,-67,-544,350,-422
-83,81,-87,-219,491,-602
-73,91,-99,-378,498,-319
-79,98,-126,-468,395,-241
-53,106,116,-65,213,-104
-43,-113,110,-181,-38,149
-39,-97,123,-41,-117,226
-33,-85,122,171,21,124
1,-74,127,280,185,-14
-2,-65,-127,229,185,90
-4,-50,-128,-41,151,38
25,-36,120,26,261,168
17,-23,111,31,104,235
29,-9,92,-120,144,81
47,-9,82,-367,198,-67
62,0,82,-1069,239,-45
94,122,50,-2682,5762,-3415
-7,-45,14,-648,7174,-3931
-85,-62,-124,-1227,7246,-3992
103,125,-83,-2146,5352,-3372
-89,42,-14,-1638,2991,-1826
-23,-77,-20,-2566,3571,-1341
106,-125,-108,-2840,6036,-1580
43,25,-15,-1342,4173,-1295
-68,118,-22,-37,2489,-1154
61,-125,-17,-1330,1736,-837
-93,-100,119,834,2038,-1355
-50,-76,99,-690,82,227
6,-73,101,521,-801,545
107,20,-55,621,-1567,495
-98,16,11,767,-1948,1083
60,54,-6,1167,-2276,1108
-118,35,-86,1973,-2481,1130
44,57,76,1224,-3238,1852
-26,-125,42,1154,-4734,2568
88,-64,125,578,-5328,2667
-68,-105,-3,2408,-4546,1875
-29,7,53,1117,-4686,2315
-28,-20,126,1464,-4581,2304
6,-113,-102,2857,-2978,2649
11,8,-45,2498,-3562,3156
-40,-30,-97,3564,-894,2477
37,-101,91,1574,-2196,3292
-10,127,12,1421,-204,1361
20,77,22,2058,-482,-218
-108,-11,-71,434,110,-1035
125,-90,119,-1496,610,-664
-125,-2,24,-1271,625,-664
-111,-116,-54,230,564,-757
-92,-123,-100,-462,510,-643
-79,77,-120,-165,448,-601
-55,100,117,-427,413,16
-89,125,104,-63,-404,117
-70,-113,124,-151,106,94
-58,-102,125,39,352,66
-51,-76,123,-31,0,208
-16,-57,-126,24,128,229
-12,-30,-128,-72,213,219
-13,-40,-123,277,90,141
-1,-9,119,-147,142,189
16,-15,121,152,37,124
19,-17,108,139,137,32
24,-5,107,-57,208,88
41,-4,92,-127,117,5
53,-14,100,-117,131,-12
63,-12,87,-283,225,-145
-6,-112,-50,-4136,3988,-1850
63,-55,83,-1169,4760,-4257
24,-19,-108,-2743,4905,-4513
-23,27,-60,-2757,5695,-4994
10,-55,0,-3353,4982,-3984
4,115,-121,-2387,4120,-2751
16,65,-39,-1787,4058,-2560
-30,-123,125,-3377,2648,-486
122,-55,106,-1199,3258,-644
-57,-59,101,-1190,2606,-427
40,9,-2,1566,2545,-1550
84,19,-95,-612,1300,-539
-32,-121,46,-331,307,-246
0,-111,119,161,-771,725
66,-25,-50,286,-1298,822
-53,77,-1,356,-1796,1048
32,93,5,487,-2216,948
-116,91,-23,582,-2626,908
38,83,-90,1091,-3336,1166
-119,-120,-74,1258,-4156,1468
91,-92,-76,1268,-2748,1814
60,100,-123,715,-4819,1377
107,-45,118,2276,-3962,2004
89,-25,-15,2041,-5360,2479
-107,53,22,451,-4705,2283
-58,-119,28,3602,-2504,2392
126,81,62,1663,-3503,2835
50,-19,19,3544,-1351,2122
-57,-118,81,1035,-1719,2397
82,68,111,1578,-895,623
-1,-63,13,2165,1216,-319
76,-47,-53,-279,109,-496
-122,40,-117,719,860,-1120
-71,-3,5,-567,1293,-784
-78,-96,-54,-296,247,-810
-51,117,-103,-412,144,-364
-43,59,103,-280,240,-193
-63,82,107,-389,11,-101
-48,104,121,-136,6,193
-33,-115,-120,-31,43,321
-24,-106,-107,470,28,113
1,-46,-107,-111,56,335
-5,-52,-95,-52,-206,308
18,-42,-101,50,94,241
20,-49,-103,695,120,3
18,-47,120,412,248,-75
17,-20,-120,-392,-224,170
37,-67,118,505,77,65
40,-49,107,-58,281,-85
64,-34,100,-691,158,31
-88,-70,-8,-2154,5154,-3682
41,-28,-70,-4119,4877,-1771
99,17,67,-63,5915,-3061
-10,-121,45,-1992,6461,-2739
16,86,115,-1777,5669,-2162
-40,45,-54,-1159,5036,-1385
6,12,1,-300,3746,-1242
23,11,-6,-1011,3070,-1339
85,95,17,288,1885,-1633
73,-79,-126,1020,1602,-2302
-62,-89,113,-1581,12,311
-21,77,-99,956,-862,194
23,-48,-25,283,-1161,943
-110,30,19,640,-1640,1153
9,68,14,648,-2274,1217
86,83,-22,244,-3344,1308
-12,13,108,1051,-3584,1370
-116,52,43,1610,-3987,1866
75,-45,-123,859,-5955,2358
-101,125,-82,2518,-3546,1670
-79,-9,-69,1472,-4819,2078
6,-70,-27,2068,-4607,2790
35,-70,89,2101,-4306,2576
52,-83,44,2209,-2528,2538
6,-9,-121,1873,-1987,2718
123,-22,56,3392,-1736,1916
-13,98,-49,1914,549,940
16,72,-67,312,-346,508
-69,-95,-86,485,-408,-129
-102,122,123,-309,509,157
-127,27,63,-288,199,-648
-99,-94,-43,156,762,-855
-98,-105,-77,-349,644,-645
-103,-104,-100,-582,287,-387
-66,-109,-107,-359,181,78
-59,-99,123,-358,171,-88
-44,-88,-125,-167,-30,-30
-54,-77,-121,-153,-277,-191
-46,-86,-126,288,-159,-319
-8,-29,127,-767,646,479
-32,-58,109,-261,114,68
-21,-45,112,110,-166,124
9,-11,102,-396,207,238
-5,-10,100,-89,-67,125
3,-14,95,249,-53,42
21,7,98,-151,178,109
26,-9,78,100,174,-68
31,-4,84,-5,-36,95
45,-10,71,46,139,40
56,-4,72,32,37,46
-27,7,93,-740,5850,-4011
-97,-68,-67,-1164,5580,-4428
90,-67,-103,-1805,4448,-3620
-35,-42,-70,-1978,4414,-2715
7,-13,-82,-241,3608,-2617
114,20,-98,-3601,5371,-3908
120,59,-48,-1377,4937,-2623
99,83,18,687,2803,-2716
75,54,-11,-1532,1948,-1429
15,125,-96,385,2166,-1603
4,52,71,-102,1287,-1073
-55,1,96,183,-506,421
-7,20,127,441,-904,1077
-122,-110,-41,139,-1277,1555
-27,-63,-55,634,-1782,1706
45,-20,-57,565,-2324,2008
-79,-15,-119,852,-2782,2127
74,74,60,125,-3359,2767
-14,-71,103,529,-5356,2650
-97,-118,-59,-1955,-5953,3166
-96,4,44,1910,-5696,776
-96,-52,125,1995,-4311,1960
-82,-75,-92,2485,-4176,2191
-32,-34,100,1886,-4085,2406
18,-93,-114,3225,-3058,2519
-31,-35,-37,2763,-2683,3140
-87,-20,14,3742,-1953,2538
4,-115,69,1636,-1079,1626
93,-23,3,-2416,384,271
-61,-32,-60,-1587,1047,-1294
-128,-40,118,1949,981,-1532
108,28,38,-844,832,-933
-83,34,-65,-2621,807,-547
-46,-53,-76,-203,398,-627
-49,-17,-113,-297,668,-457
-73,-45,127,-323,535,-770
-70,-73,100,-147,449,-533
-46,-45,98,-212,178,61
-44,-45,109,-117,-151,61
-27,24,-101,-796,-598,423
-9,-18,-84,477,-176,130
-13,-16,-118,981,297,83
-19,12,-122,594,-85,438
-10,-11,117,1014,-73,496
27,17,96,529,377,294
36,14,107,201,-53,100
38,-8,109,162,33,14
47,-5,113,-92,90,17
46,-8,120,-197,0,51
55,-23,106,-1,162,-3
106,-1,-39,-1008,4298,-2902
111,-18,79,-1122,4695,-3693
-94,22,43,-2168,4235,-3136
-92,-17,-108,-2187,5154,-3344
-101,-114,9,-619,4019,-3222
58,110,-56,-858,5123,-2985
1,-106,-31,-1791,4210,-2566
78,9,5,-913,3926,-2425
118,2,73,-2385,2138,-1607
-64,104,-11,-1943,1697,-1075
-23,-44,46,-66,1467,-978
-26,107,-9,478,1555,-1294
-48,-127,-8,-233,391,553
5,-92,-68,279,-594,517
79,-39,3,210,-1327,1174
-93,23,47,45,-1424,1022
39,74,34,-169,-2044,1195
103,60,-11,-61,-2558,978
1,53,-76,834,-3155,950
108,77,-81,1593,-3836,1355
-50,62,-61,3255,-3441,1463
90,40,-44,467,-3722,2732
55,-78,111,2276,-5179,2225
-52,-19,100,1500,-3477,2303
99,0,-48,1051,-4905,2213
-27,-59,108,2265,-2737,2531
114,-51,20,2262,-4603,2799
119,24,99,1095,-1903,3210
20,42,-58,1680,-2148,2140
-101,43,54,2172,490,757
-40,4,-27,1882,16,-203
-114,-122,-103,2502,138,-819
127,-111,89,-1415,1021,-565
-125,-46,16,-604,464,-690
-96,-79,-44,-1103,99,-180
-75,-86,-71,-1207,96,-678
-82,82,-81,-91,45,-749
-78,104,-101,-12,428,-366
-86,122,123,-473,276,-236
-65,-128,-120,-17,-89,290
-60,-92,-114,-26,39,386
-36,-77,-112,596,88,235
-41,-86,115,1354,415,174
-17,-25,123,303,8,451
8,-18,116,-175,419,203
12,-17,125,-181,48,145
20,-34,123,33,-39,112
23,-29,125,-129,0,129
27,-31,106,-202,89,101
40,-41,91,-58,96,-17
33,-82,-98,-2271,4881,-3038
-121,19,-6,-1513,4799,-3590
50,38,-20,-3159,4180,-2632
-112,-61,3,-2681,4254,-1873
124,102,34,-1631,4391,-1326
-8,95,110,-1206,4037,-816
-115,32,81,-259,4309,-990
-82,40,90,-1487,3605,-767
33,-68,76,-217,2652,-976
20,45,42,890,1388,-2226
84,24,-109,-81,878,-1886
-20,-85,-78,-349,664,-500
4,109,-65,482,-749,511
44,-44,-1,226,-1283,897
118,-7,29,613,-1419,875
-25,71,12,280,-2109,1128
37,56,-11,253,-2341,867
-71,-14,-103,1422,-2723,905
72,107,-125,857,-4088,1803
-22,-103,-50,1058,-4362,1522
62,-91,40,1766,-3539,1263
35,-111,27,2269,-3830,1732
113,-128,27,2925,-3960,2023
91,-50,-15,1632,-3983,2674
-82,103,115,3453,-3477,2811
-23,2,40,2430,-2147,3207
-60,121,-102,733,-3227,3781
84,54,-120,1763,-1555,1752
-87,9,84,2177,128,554
-39,34,20,-549,-468,207
-62,-50,-1,-423,265,290
-118,70,120,243,1394,-1208
110,3,17,-381,332,-1354
-87,104,-41,1395,830,-2016
-73,125,-99,-142,863,-803
-105,99,119,-1018,313,-380
-82,79,102,-498,196,-104
-83,110,99,-477,213,-55
-65,-90,95,-752,-63,290
-46,-54,94,-777,-246,89
-60,-106,-121,602,-59,73
-36,-39,-102,-169,204,388
-14,-36,-110,89,118,338
10,-10,-112,105,-27,563
12,-3,-106,292,18,544
13,12,-118,-15,26,324
19,3,-121,-71,147,137
42,-13,104,244,289,34
40,2,107,-157,33,74
45,-5,93,-135,203,-10
81,96,-28,-1564,4521,-3606
19,51,86,-1480,5275,-3726
-121,15,-58,-2491,5440,-3550
50,-38,-71,-2449,4807,-2584
121,109,-86,-1830,5282,-2438
110,-116,11,-2502,4160,-1459
120,-19,93,-672,4681,-1863
-81,2,123,-188,3448,-1111
15,-42,89,-535,2730,-1717
37,-82,-40,2019,2510,-1845
70,-35,116,-639,846,-858
-28,85,84,-226,-214,-106
25,106,-82,67,-1102,734
127,-66,8,-143,-1478,1183
-26,21,70,-52,-1896,1230
47,58,55,-359,-2248,1353
-106,82,17,-28,-3227,1196
6,74,-9,1174,-3665,1243
-123,-109,-12,733,-3704,1409
-68,-42,43,837,-4565,1138
2,-60,96,1493,-4329,1266
33,99,-78,3923,-3862,1040
12,10,83,332,-3771,2225
55,-109,-56,2432,-4061,2042
69,-63,-85,2198,-3695,2174
98,-74,-30,2716,-1621,1976
3,8,-87,1993,-2384,2709
-3,37,-10,1644,-1693,2436
-123,42,108,1308,-758,1364
39,7,79,1375,-272,383
-71,-39,-20,479,324,-325
114,-96,-100,-1245,129,-380
-112,-14,65,70,826,-333
-111,-60,-35,-207,511,-195
-110,-107,-103,-252,206,-542
-83,-104,127,-797,603,-572
-83,114,-123,-193,138,-432
-89,112,-127,-13,184,-342
-61,-128,125,-123,424,-225
-44,-89,-119,-251,138,171
-46,-82,-102,-19,-290,217
-16,-54,-107,262,133,434
6,-50,-116,581,202,229
22,-40,-122,728,103,201
17,-4,-113,143,-6,425
6,-15,124,148,35,157
26,-37,107,369,50,-70
37,-64,92,763,297,-236
27,-72,79,442,143,-274
42,-80,80,-131,43,-204
-81,107,39,-2153,4357,-3766
-78,63,123,-2558,4526,-3724
-115,122,51,-2481,3707,-3395
-49,-62,9,-144,3735,-3064
68,-64,-69,444,522,-1539
-18,-5,-90,1567,671,-1984
-112,-15,-98,33,824,-948
47,107,-60,240,-413,428
69,114,-53,1564,-715,1162
116,89,-6,296,-1208,1643
-67,-16,77,-1951,-2095,2689
41,-48,8,-474,-1790,2105
76,36,106,35,-3713,2742
-24,-92,-40,2743,-1528,1817
-52,87,107,580,-3665,3465
-122,-46,24,3626,-1534,1947
81,-6,-25,2760,-1545,2834
66,14,-27,2101,-710,2118
-54,-74,-16,847,-872,2213
-81,-123,117,1612,-1173,1494
-111,61,52,1608,1274,543
37,102,9,350,-392,95
-7,-27,7,588,-514,-124
18,-111,-40,-390,539,-77
12,122,-84,-557,131,-87
33,44,-113,383,51,-210
56,75,116,-59,508,-140
55,89,104,-446,33,-189
70,59,84,-234,65,-6
70,74,87,-175,-18,110
69,95,80,-191,89,138
84,110,68,-196,180,19
82,106,62,-36,10,156
92,-113,64,-305,-9,301
106,-122,62,184,209,67
106,-91,66,-214,7,179
109,-86,71,-168,-3,110
124,-87,65,39,226,-77
121,-83,59,-172,93,58
-128,-82,55,-101,67,99
-121,-77,51,16,176,66
-121,-66,47,-63,141,67
-116,-64,40,-109,84,166
-117,-53,38,-210,84,204
-115,-43,29,-277,50,191
-105,-46,39,38,78,144
-99,-34,30,47,120,22
-97,-27,42,-173,-34,99
-88,-42,41,28,159,89
-95,-34,46,-59,22,166
7,45,-31,-2453,6634,-5223
58,3,-89,-897,6720,-6218
36,94,127,-4178,6164,-4500
-76,-52,-63,-2413,4847,-3935
109,-67,106,-2933,4100,-2842
50,-110,-39,-3305,3663,-1297
49,63,48,-2335,3747,-950
-37,37,-107,-2069,2695,-562
-117,-74,-69,-429,2075,-648
-9,-9,62,1260,3034,-1963
-55,-110,96,-247,1296,-576
-102,86,17,290,-118,641
-48,-48,81,-61,-1022,836
63,32,-29,530,-1716,1026
-70,95,7,873,-1996,1007
53,-101,11,511,-2567,983
-91,127,-29,651,-3186,1053
67,-109,-70,749,-3844,1088
-69,-67,-11,845,-4845,1323
40,-74,98,1365,-4034,1313
52,-53,-110,2690,-4117,1166
56,36,40,873,-4687,2147
111,-50,91,2745,-3364,1660
97,13,-66,2023,-4958,2257
-115,-104,94,4329,-2373,2178
-102,106,-39,1699,-3225,3378
75,34,-32,2249,-2418,2076
-2,65,116,1986,-942,1947
87,61,44,1352,107,631
-23,42,72,-172,509,25
-91,69,-81,1459,1218,-1224
127,8,36,378,712,-1074
-108,-122,-7,1757,488,-1214
-99,120,-96,9,237,-790
-82,102,-95,-1087,-40,-7
-65,42,117,-418,396,-206
-71,61,-120,-122,-74,54
-59,96,112,-213,215,219
-42,-126,-109,-125,179,141
-27,-121,118,-44,420,54
-19,-85,-115,-398,-146,199
-14,-106,-115,123,-147,274
-9,-79,-127,-125,51,242
10,-74,117,50,75,308
12,-58,117,247,-237,379
23,-80,100,973,233,58
11,-14,93,-408,-77,151
30,-45,92,-399,-107,95
47,-65,87,-42,51,-2
41,-56,86,-166,103,-21
-30,36,-11,-2306,3285,-3696
-80,73,83,-1265,5376,-4205
114,54,-32,-2303,4492,-3571
-10,96,3,-3176,3626,-1922
94,-74,-23,-1730,5099,-2792
105,-70,22,-1936,4832,-1996
-56,92,-3,-544,3928,-1622
25,75,-10,-1549,3854,-1855
-46,108,-39,-944,3475,-1603
-16,-23,-3,-136,1693,-519
110,-106,88,783,1867,-1015
-24,-33,75,-1059,29,10
23,-125,97,826,-818,479
93,-3,-59,-170,-1438,1070
-91,4,-16,537,-1851,1086
13,51,-13,90,-2087,1296
97,-5,-49,908,-2601,1400
-19,15,-100,1050,-3300,1904
-77,117,-118,975,-4150,2135
41,-71,-55,456,-4589,2130
77,-28,20,1031,-5037,1795
-120,-63,28,2256,-3639,1690
89,-60,95,2388,-4312,2009
-121,-36,37,1775,-3068,2518
-68,-50,-84,3338,-2999,2799
-76,52,127,1287,-2890,3522
119,69,76,1755,-2643,3038
37,81,83,2517,-982,1696
-116,83,59,2630,150,-95
-97,31,-79,281,562,-562
107,-102,-94,-574,3,-190
114,-16,27,312,880,-230
-126,-8,-1,-106,275,-480
-95,-74,-84,-453,554,-819
-74,-109,-118,-1062,368,-713
-83,72,-115,56,237,-772
-68,106,120,-318,418,-321
-67,94,111,-24,152,-184
-44,-128,108,-106,14,223
-53,-101,-124,24,-49,174
-30,-74,118,51,270,249
-22,-49,108,-127,48,298
-15,-41,104,126,-45,310
-10,-22,109,74,108,315
1,-18,100,179,137,177
9,-13,96,36,30,161
23,-13,104,-74,25,185
35,-8,97,-386,71,174
48,-14,96,-209,88,87
84,9,87,-758,655,627
48,123,4,-1172,3794,-3327
-34,59,-17,-905,3772,-3490
-67,53,109,-1786,4685,-3452
-115,6,-25,-2642,3999,-3308
21,-27,-11,-3420,4456,-2021
-13,60,-33,-1406,4922,-1853
58,127,14,-2338,4632,-1175
-112,42,39,-1199,4512,-636
-68,27,78,115,3389,-427
26,38,13,-1725,3112,-643
118,68,6,915,2316,-1753
13,-89,98,753,1502,-1154
19,-91,60,-1,-172,182
57,-77,101,278,-1291,603
111,-1,-33,78,-1840,1203
-27,55,9,295,-1976,837
93,93,30,3,-2388,984
-74,34,-48,956,-2628,581
86,108,-117,535,-3287,1191
-34,-79,-15,897,-4963,1462
91,-27,57,722,-4233,1604
99,-109,86,2565,-4089,1293
121,-28,-18,2095,-4126,1766
-32,-22,111,1814,-3829,2257
-52,-32,-20,2211,-5670,2906
22,-80,-19,3160,-2295,2768
88,-8,-123,3907,-1413,3853
-116,-5,-8,1981,42,2245
78,127,97,2552,-1243,1062
-50,40,-4,840,-37,117
-117,13,-63,-508,129,-441
-98,74,103,377,846,-1104
-70,-27,-1,-256,718,-719
-93,-85,-42,-460,322,-615
-81,79,-94,-52,485,-676
-56,101,-108,-558,273,-358
-44,72,-120,-110,134,-25
-38,-128,-101,-419,-278,334
-32,-108,-96,-313,-91,261
-39,-72,-87,-262,-82,201
-27,-56,-94,-97,-123,173
-4,-51,-100,-63,-97,182
42,-10,-115,-560,-94,383
6,12,-104,-617,-406,323
-40,21,-111,-868,-125,52
-9,84,126,-2492,407,276
-8,34,94,-765,-51,81
66,50,85,-167,66,45
57,82,91,-416,-120,61
52,51,82,307,57,-171
66,-42,-13,-3192,3031,-1906
127,-122,-12,-981,3772,-3255
104,-5,-121,-2985,4725,-2946
-12,-124,-66,-2360,5090,-3435
106,73,-69,-2319,4210,-2721
-100,41,-32,-2959,3321,-1779
-26,-95,-14,-2222,4668,-1541
33,114,28,-2002,4864,-1458
80,35,88,-955,3422,-883
72,-30,40,-1856,3219,-809
102,-97,79,-1577,1986,-365
-34,-43,52,764,2439,-1287
-29,-50,-49,-775,1096,-557
17,-65,-43,-36,-353,356
61,0,39,195,-1268,351
-119,8,116,755,-1567,627
-18,64,80,679,-1764,721
99,98,39,911,-2538,672
-79,91,-34,1247,-2632,557
83,111,-119,853,-3287,869
-32,23,81,1592,-2229,1304
-101,120,-118,2236,-4405,2572
-38,37,75,1250,-6665,2870
69,13,-101,875,-4408,2224
-13,-38,33,1614,-5488,1966
60,-95,-14,2443,-3948,1919
9,-76,25,4087,-3486,2215
-116,-112,103,856,-2815,2669
20,76,-71,2023,-1088,1515
39,60,119,1472,-94,870
-88,7,30,1103,-501,-115
-116,-60,-60,519,248,-503
85,122,97,-1070,282,-779
96,27,21,-1516,200,-1557
-128,-42,-42,-1213,526,-1063
-127,119,-85,-325,569,-734
120,113,-115,-230,631,-272
-117,-95,102,-637,251,118
-112,-101,122,-292,-178,56
-108,-84,-101,-266,-203,313
-78,-31,-86,-535,-1,567
-74,-32,-100,-96,7,479
-62,-11,-96,-78,44,437
-54,6,-117,-97,62,407
-49,4,124,-77,-18,272
-44,11,112,-98,-60,311
-38,9,108,40,125,298
-29,13,98,66,78,273
-22,30,87,-132,-69,212
-3,3,77,220,186,-78
-2,116,-86,-2126,4156,-2616
-47,-90,-116,-2519,4565,-2116
-116,-113,-25,-3464,6263,-2691
56,23,-15,-2425,6264,-2046
96,-13,44,-2463,5500,-1329
-123,-104,86,-1220,4612,-1165
89,45,98,-637,4221,-1386
99,-31,91,-446,2982,-1549
122,-95,32,-511,1831,-1741
86,84,-95,1107,1526,-2275
-29,65,-56,-439,-48,213
-35,3,-38,913,-708,531
72,-78,24,587,-1188,1192
-110,5,44,1339,-1422,1034
4,84,26,1516,-1431,1110
89,79,-29,1772,-1811,1230
-86,104,114,1353,-2508,1801
65,-65,57,617,-4048,2328
-62,1,109,441,-5235,1935
95,-125,-54,-2137,-5560,2447
110,-100,-117,1133,-6589,869
-106,31,102,2536,-3335,632
120,114,122,1736,-3597,1280
-106,-103,-104,1267,-4028,2076
112,53,124,2939,-4223,1737
-52,-42,36,1324,-3643,2149
121,96,80,3966,-1458,1242
-78,33,92,1792,-199,920
43,-23,12,1460,115,42
-91,-59,-18,309,97,-483
-99,72,102,341,944,-527
117,11,27,15,857,-649
107,-92,-59,214,599,-670
117,-125,-92,365,481,-460
117,125,-107,-37,-37,-292
111,126,-68,356,-493,170
-110,-118,-90,324,451,-18
-87,-94,-117,-226,500,-126
-53,-107,119,219,94,-58
-81,-91,-122,44,-298,101
-69,-110,-120,-156,-130,-56
18,-76,-111,-655,-17,500
-61,-86,-104,-59,-140,202
-56,-82,122,79,382,-195
-20,-79,86,-51,531,-81
-20,-82,70,-82,90,-13
3,-82,70,111,10,252
10,-55,71,-220,-30,248
7,-67,73,131,69,119
7,-55,70,86,199,122
103,-120,-38,-1911,3871,-2687
-21,74,91,-1477,5096,-3388
-59,27,-86,-1871,5396,-3637
105,25,99,-3229,4762,-2374
61,118,44,-1193,5388,-2639
5,102,-124,-1930,4360,-2004
-45,44,-48,-1888,3938,-1069
20,6,38,-1663,3209,-548
70,-10,78,-1966,2690,-236
-126,-113,-100,-510,2230,-575
-43,14,74,1804,1686,-2168
61,65,67,-935,1496,-1394
-3,98,60,549,463,-343
27,-112,74,151,-907,821
88,-28,109,494,-1590,1019
-58,12,87,1391,-1261,664
46,73,64,1013,-1737,968
-116,15,-22,1859,-1991,1210
3,96,98,517,-2827,1717
-119,115,72,-91,-4246,2308
55,-92,-22,1753,-6575,1986
120,85,-59,4190,-2687,1214
54,6,-101,1002,-2882,2312
81,-16,-4,1073,-5459,3185
-74,-58,-35,2103,-3392,2169
-46,-78,69,2749,-3106,2200
111,-58,73,2269,-2659,2541
116,12,7,1996,-1558,2547
-80,-8,56,2247,-1179,1473
117,45,-96,2341,1259,177
-92,110,-72,-706,-312,-177
121,32,-74,1438,437,-898
121,-40,96,-790,1057,-88
123,-96,6,-875,588,-243
-108,114,-64,-753,489,-310
-94,100,-102,-542,313,-141
-88,84,112,389,562,-250
-87,-127,102,45,257,-78
-78,126,102,118,-37,7
-54,-123,108,231,-65,172
-48,-116,104,225,119,158
-53,-104,-126,277,-223,185
-36,-97,114,322,54,217
-23,-75,123,-38,-95,188
-17,-89,108,115,-127,143
-24,-79,98,-64,24,298
-18,-72,95,-72,80,245
-2,-62,85,4,49,120
11,-61,69,-64,292,-13
17,-70,61,-27,255,-58
0,73,-96,-2936,4999,-2916
-9,8,120,-2144,4805,-3379
-80,-27,-72,-2513,6611,-3554
-22,97,-50,-2628,7318,-4301
70,-45,94,-1503,5249,-3058
88,-91,94,-1954,4961,-2240
62,66,-78,-2180,4261,-2012
13,90,-59,-105,4591,-1493
-89,127,-49,-889,2766,-947
-17,-76,-1,1264,2433,-1894
-124,73,-63,-635,375,-485
-95,1,-22,245,-939,1010
-28,-84,89,578,-1607,1285
109,-127,-44,705,-1965,1228
-40,-87,-20,971,-2183,1150
90,-56,-48,262,-2608,1105
-39,-87,-90,179,-3350,1095
64,-122,-77,1706,-4523,942
-62,13,10,223,-4250,1327
-25,-23,-98,1048,-4887,1044
14,-100,-123,2229,-3469,1247
-34,-85,121,2839,-3835,1536
39,-57,31,2206,-3190,2223
8,-26,34,1900,-3577,3001
-109,-25,-104,2761,-4389,3070
-78,-51,13,3335,-1597,2013
123,37,-67,2289,-1910,3015
-13,25,20,2206,-1225,1506
-100,13,-41,2343,354,542
-82,76,-79,-763,462,-93
94,24,95,1718,572,-1424
116,17,14,451,548,-746
-113,-14,-50,-578,622,-167
124,-120,-95,102,604,-603
-117,108,-99,11,228,-504
-97,104,-109,-381,150,-204
-86,96,-115,-313,-5,-63
-43,-115,-106,-729,-270,251
-50,-91,-97,-516,-121,319
-94,-101,-116,279,176,-271
-47,-103,104,262,565,-421
-17,-77,93,-25,209,134
-30,-56,89,110,-189,171
-26,-44,98,-99,-91,-21
9,-77,80,128,292,70
-5,-20,90,-529,-256,459
-6,-37,93,181,-120,45
1,-46,79,34,406,-197
29,-52,59,-31,362,96
34,-33,53,-113,-21,358
2,72,76,-3871,3183,-1968
2,-61,-12,-886,7307,-6880
-39,108,108,-3633,5082,-5100
-43,-87,29,-3320,6229,-4155
-65,87,-51,-3296,4831,-3202
-122,6,46,-3350,3518,-1516
119,86,76,-2090,4310,-1609
-75,14,-11,-1746,3119,-721
1,40,35,-2454,2261,-40
-109,78,-6,1369,3071,-1872
-67,-21,47,-309,1274,-1835
-62,123,71,-311,-734,421
-27,97,79,835,-1535,296
112,-81,-53,520,-2659,1415
13,0,-13,1347,-3001,1349
-33,119,-43,1512,-3207,1430
69,108,117,1844,-3850,1614
32,3,74,287,-4882,2693
-96,107,-11,278,-6631,1685
-61,-39,19,2679,-4366,633
-97,6,79,2533,-3425,1127
-97,11,112,1902,-3623,1410
99,-53,32,2883,-2950,1929
-106,-107,90,2988,-2073,1571
83,75,-49,3738,-1501,2181
36,-56,-121,2727,-955,2364
-15,11,35,1622,-267,2567
74,31,-86,2019,-319,933
-98,79,-118,-408,25,-171
125,34,44,1209,900,-1054
92,15,-7,-565,325,-681
119,-127,-68,-489,235,-478
-128,65,-107,97,361,-573
-102,86,127,-669,-5,-353
-77,96,124,-1189,-128,46
-74,108,-121,-1009,-291,135
-88,121,-123,-378,157,-113
-93,-121,122,-302,362,-310
-69,-111,95,-71,193,-244
-44,120,53,504,213,-94
-46,-99,77,-229,-113,361
-63,-62,91,-371,-338,594
-35,-37,105,-301,-158,518
-5,-17,104,-108,283,352
-28,32,117,-475,-147,272
2,0,89,91,158,151
12,27,72,-449,239,132
22,19,47,-388,160,-25
28,3,34,-241,181,-124
21,-1,32,-332,240,-146
63,-64,8,-2854,4079,-1424
100,-25,-111,-1736,7916,-4427
-1,57,79,-1186,6753,-4789
-7,37,75,-2345,5629,-3545
-34,-59,102,-1963,5161,-2970
30,-101,-77,-1828,4157,-2316
-71,66,-85,-1927,4501,-1750
127,-40,-48,-872,3697,-1575
102,-64,-67,-1652,2692,-1210
59,-69,45,-304,1998,-1881
82,-6,21,491,-366,522
-46,-25,-123,-401,-1341,1107
61,50,-13,686,-1840,700
-88,99,82,503,-2363,1162
37,110,81,1248,-2370,1037
-88,-113,5,1406,-2648,1296
9,-67,-59,1079,-3626,1749
-44,38,-44,492,-4818,2141
54,85,62,629,-5080,1320
-123,-9,62,2595,-4190,1162
110,58,32,1836,-4520,1632
106,-16,86,2336,-4818,2053
111,-39,4,2592,-3468,2284
-123,34,-122,2067,-3766,3012
-68,-39,-80,3604,-2214,2478
110,61,-88,2778,-717,1907
-70,-106,-8,-24,-584,1593
2,-23,-60,666,516,-425
-97,-122,125,795,522,-1134
-124,34,30,-190,641,-888
118,-38,-15,-550,358,-755
-124,-118,-76,29,485,-626
-94,-117,-119,-913,401,-483
-104,104,-127,-677,-3,-295
-63,103,113,-152,380,52
-88,-99,86,-279,250,273
-81,-72,82,-164,-10,369
-67,-65,89,383,26,229
-51,-34,81,80,56,357
-36,-29,95,257,-47,292
-19,-27,82,240,97,206
-24,-5,88,-76,-137,238
-19,-25,83,131,39,109
-3,-1,75,-249,-17,182
-2,-14,72,-40,-45,82
4,-14,67,-28,28,62
13,-5,58,-277,8,15
19,-16,58,-168,56,9
27,-24,49,-79,246,-59
35,-26,33,-91,235,-67
20,-108,-6,-981,4759,-3292
-15,120,114,-1670,5026,-3407
7,44,65,-2157,6108,-3454
110,-15,43,-2703,4889,-3198
-34,-118,97,-2128,4990,-2569
-40,108,-88,-1751,4706,-2262
-26,-119,53,-2427,3651,-1451
-28,26,94,-1232,3983,-1156
6,-6,123,-1933,2930,-1143
39,-63,-75,-4381,2978,-1008
-22,4,-123,-1703,3309,294
-38,116,-37,1843,1089,-320
-38,71,-87,-176,-1264,493
74,59,23,389,-2015,417
-44,75,-118,658,-2296,462
33,127,-120,613,-2826,443
95,-127,120,983,-2968,243
-34,-83,61,765,-3400,317
69,-72,35,-74,-3888,296
-99,31,106,-2730,-4061,415
3,80,-67,1079,-5122,-644
27,-118,-80,2691,-3733,-323
57,-8,-87,2447,-4416,287
25,-106,-91,3833,-4261,649
124,-13,-125,3020,-3558,732
123,-44,-105,2109,-3882,2081
-100,120,59,4133,-3676,1890
114,-35,-112,2583,-2422,1991
4,12,50,1733,-680,1400
64,10,109,1301,775,-449
-111,-22,15,-706,335,-709
76,3,-89,-358,171,-1040
98,-48,92,-300,646,-1048
-113,-107,2,-268,794,-596
-91,-119,-38,-534,375,-264
-95,95,-90,-241,64,-68
-90,86,-101,-93,-36,25
-93,108,-114,-252,12,241
-86,-123,-115,-130,-75,298
-88,-108,-112,0,-194,440
-71,-89,-93,257,-156,498
-53,-53,-110,38,28,557
-38,-33,-106,-149,-111,599
-46,-46,-122,219,-221,359
-60,-42,-123,200,-123,195
-56,-27,-124,-264,22,167
-27,-42,102,-141,70,-12
24,-52,66,213,384,-92
-1,-41,57,-141,72,-187
-11,-57,64,-309,-350,-190
110,96,-43,-1505,4367,-2866
85,122,-66,-1800,4597,-3161
-39,119,24,-2774,5625,-2729
100,10,-125,-1581,5264,-3112
47,-49,-56,-1509,4900,-2701
97,-78,-93,-2405,5074,-2472
-124,-112,-68,-2102,4680,-1987
9,3,-42,-1053,4111,-1796
-45,-62,-27,-2021,2819,-1135
-42,-104,39,-3191,1883,-254
-104,-62,11,767,1594,-1123
-45,-97,-37,-95,826,-348
-26,124,-79,369,-793,642
57,-20,-27,188,-1608,843
-79,19,62,675,-2104,1068
41,69,73,712,-2374,1122
-111,69,50,1102,-2574,1168
33,73,-44,1345,-3079,1376
-112,-117,-73,1032,-4205,1889
63,-36,-12,69,-4998,1775
103,-108,-98,1050,-4887,1459
-115,54,49,3600,-3231,1175
-92,44,21,900,-4303,2382
87,-24,57,1152,-4359,2384
-103,-88,-102,3162,-4059,1698
-61,-67,61,3871,-1842,1916
89,55,0,1292,-1920,2818
-26,-26,25,2554,-1497,2076
-108,15,46,1443,385,1277
-11,-42,-28,1831,439,347
-94,-19,-93,-422,83,-203
-97,96,118,-892,298,-695
-110,-61,53,-197,148,-654
-116,124,-34,-556,112,-435
-93,119,-76,-937,132,-485
-90,81,-123,-442,236,-486
-88,85,122,-234,172,-299
-97,114,103,-449,39,-19
-83,-111,102,-442,-142,233
-81,-101,101,-105,-32,351
-44,-71,108,407,221,273
-42,-49,101,269,19,232
-38,-23,120,85,-237,424
-39,-29,120,102,-15,248
-37,-22,123,72,20,230
-18,-22,109,35,92,205
0,-28,86,228,199,120
14,-10,78,8,102,126
10,-23,64,-69,-49,-38
23,-20,84,-432,-61,117
-41,43,-67,-2724,4720,-2678
20,-80,77,-1411,4225,-3729
-38,112,94,-2769,6577,-4131
-112,-30,39,-1667,4807,-4108
14,-66,118,-1608,4189,-3788
61,-77,-13,-2315,3995,-2662
56,110,8,-2121,3873,-1791
36,72,27,-1797,3758,-1355
-117,70,77,-912,3008,-2216
-75,64,-22,1249,3458,-2937
-90,26,79,-1599,1212,-1951
-41,-52,57,804,472,-972
125,-124,85,353,-848,605
14,-32,-70,635,-1283,1608
-56,-99,-25,842,-1597,1890
43,-29,-36,725,-2318,2207
-66,-1,-71,780,-2575,2477
91,45,101,643,-3297,2620
-15,-109,64,-307,-5159,3574
-27,-16,-43,1205,-5799,2545
16,-124,-118,-68,-4331,1575
-65,-84,-95,3146,-4415,1208
-72,-13,107,3062,-3431,1470
62,14,73,971,-3509,2834
113,-68,-86,2815,-4134,2364
120,-29,76,3799,-2207,2135
63,-41,79,251,-2380,2648
-76,3,119,2194,-469,788
71,-62,-7,2835,1574,-9
-67,-40,-125,1159,718,-36
-112,-120,79,-1392,6,-558
-64,-84,-9,314,473,-908
-121,-122,-34,-207,133,-593
89,-112,-53,-1408,1,-13
116,69,-89,-375,-64,-19
-93,109,122,-208,264,150
-58,-118,114,-255,112,273
-49,-98,101,-182,-80,212
-50,-69,-128,-392,-358,471
-66,-59,-128,-84,-76,330
-59,-51,113,133,211,1
-37,-42,104,159,178,49
-21,-48,80,218,132,53
-13,-32,83,-144,-63,202
-22,-26,85,-375,-151,261
-25,-10,100,-454,-188,260
-10,-32,81,147,175,-121
10,-27,75,-53,198,-13
36,-22,58,62,146,297
22,-34,38,320,-188,289
28,-49,-66,-3642,5342,-3517
104,-12,-3,-3024,3096,-2715
72,27,-86,-3649,5170,-2787
36,-31,-106,-2808,5577,-2434
-121,-97,-47,-1845,4844,-2198
-76,67,10,-102,5450,-2501
113,84,115,-1539,5146,-2178
-102,-31,53,-1516,3299,-1624
-106,84,-11,-1695,2797,-1558
-63,4,4,-3101,1852,-937
99,63,0,84,2032,-1586
60,91,-99,336,1238,-1233
14,58,83,536,262,-432
-5,52,102,582,-608,851
116,-76,-15,303,-1377,1185
-58,-10,30,796,-1409,1315
68,19,14,1034,-2023,1637
-108,21,-50,1503,-2435,1748
36,99,-92,680,-3331,2355
-116,-64,-24,729,-4355,2211
0,-33,11,1304,-3795,1697
5,-28,69,1729,-3777,1597
34,-15,73,2629,-3888,1990
2,64,-106,618,-4635,2736
106,127,103,3833,-3285,2361
107,82,-58,1573,-4637,3696
-29,-31,-82,4748,-1568,2197
95,-119,52,1348,-2536,3438
-38,38,67,1834,-1011,2513
113,74,88,2013,-365,861
-22,82,-9,64,213,-295
111,69,-95,412,729,-962
106,-59,61,1253,1156,-837
101,-45,-1,-331,657,-703
-106,-110,-49,-670,152,-326
-89,121,-77,-304,195,-128
-88,92,-101,9,191,-121
-76,118,-108,-287,71,25
-72,-125,-107,-196,-162,157
-55,-100,-113,-175,-33,148
-44,-88,-117,-267,18,56
-49,-87,-116,-144,-108,85
-36,-84,-120,-51,47,106
-25,-63,-125,-259,31,160
-10,-56,-122,-238,236,260
-16,-53,123,-19,-53,276
-2,-24,119,-260,-11,301
9,-28,106,-99,278,99
18,-21,90,-151,146,83
27,-15,83,-178,22,154
29,121,-53,-627,4804,-3692
101,17,87,-977,4271,-4063
47,122,8,-4024,3746,-2456
-50,41,-18,-3128,4220,-2174
100,17,39,-2940,4153,-1501
15,77,-118,-503,5311,-1923
42,60,34,-1582,6310,-2273
79,54,79,-811,3830,-1419
79,-49,9,-698,3419,-1231
-124,110,15,-203,1510,-1476
51,-77,43,232,1651,-2162
-97,76,118,-367,-288,358
-32,-126,-89,-205,-1545,815
70,-8,68,353,-1872,1266
-62,70,74,311,-1784,888
30,76,14,819,-2637,872
-108,44,-38,1267,-3474,1576
49,93,-73,1380,-3722,1767
-10,-75,119,1847,-3953,2002
74,72,57,404,-5461,2249
-86,-9,-16,3103,-5075,631
-114,-12,29,1443,-3704,1346
117,-99,8,1645,-3622,1947
-90,-86,-78,1921,-4619,2902
-21,75,-53,4420,-1425,1698
-69,-3,102,3290,-1636,3595
-72,124,64,1797,-2160,3142
35,16,14,4158,648,763
-85,-69,-26,1364,6,-265
-121,-3,-68,-2598,-74,-95
-123,-76,92,687,957,-587
127,-121,-10,350,505,-890
-96,96,-67,-49,455,-525
-88,61,-115,-466,369,-280
-87,49,127,-296,104,-140
-74,72,-121,-233,166,123
-73,100,-126,-265,60,216
-50,-127,-127,-150,-25,213
-29,-103,-116,104,162,78
-24,-96,-111,181,247,-42
-14,-50,-111,-512,58,27
-5,-50,-126,-646,-56,181
2,-89,-117,296,169,-11
20,-53,116,-318,321,-16
26,-57,107,-280,69,123
21,-50,98,-105,16,60
29,-47,84,40,120,-71
49,-42,81,-241,61,111
56,-38,84,-163,-9,184
58,-42,76,17,47,79
127,48,-27,-5577,3697,150
-63,112,-64,-562,4100,-2886
-3,107,74,-1845,4637,-3107
-95,-33,83,-1573,6030,-3576
107,-121,30,-1551,5230,-3989
-33,72,113,-1376,4481,-3068
25,63,-105,-1256,4849,-2622
-77,-29,2,-3390,3482,-1454
-102,-120,14,-2752,4390,-1112
-105,79,64,1592,4422,-2084
-78,37,-75,1121,3283,-2789
-74,-26,71,-1049,1987,-1501
-98,-30,-1,-285,332,-222
-83,-38,45,-343,-832,727
71,99,127,251,-1387,1731
-77,-57,115,1031,-1900,1317
23,9,126,668,-2775,1557
-84,52,-108,319,-3263,1622
93,92,117,36,-3127,1700
-8,-94,126,1743,-4546,1909
-91,102,-33,1029,-5689,2271
-86,12,105,1991,-4561,1599
-56,-16,59,2485,-3522,1706
-38,-72,102,2860,-3598,2759
19,72,105,2053,-5108,3449
38,45,86,3390,-1027,2560
106,-42,97,1012,-3850,3955
104,-53,118,511,-943,2550
-82,-90,-36,1252,-430,725
28,87,39,249,1232,-789
-53,-17,-110,-638,424,-1408
110,-94,71,84,905,-1213
97,-117,18,-6,268,-130
-70,-61,-61,-470,-195,579
-75,-49,-84,-928,-96,67
-65,-53,-89,-698,24,51
-44,-60,-89,-123,146,70
-54,-57,-99,23,144,130
-32,-61,-111,361,290,2
-14,-42,-110,215,154,166
5,-57,-110,802,210,307
10,-3,-118,164,82,294
4,-2,-113,-185,-209,290
22,-20,-110,184,129,230
16,0,-119,59,71,205
22,-15,124,242,27,98
51,-17,123,251,179,138
65,-2,109,-117,71,121
65,-3,122,-218,33,21
68,-24,119,-19,240,35
-72,-16,-26,-1206,4711,-3275
-14,-63,72,-1851,4896,-2861
-113,-45,22,-3180,4723,-1752
-53,61,-58,-1642,5550,-1832
-47,102,22,-2254,4903,-1284
-6,32,76,-1142,4220,-950
5,-45,111,-270,3863,-244
93,-111,124,826,2295,1104
104,-105,-96,1085,2603,-1862
-105,53,-113,388,1598,-1877
49,-25,118,-814,505,-111
74,-118,-102,708,-1077,424
107,1,-30,24,-1724,1022
-39,42,6,287,-1864,1019
53,80,-5,37,-2751,1099
-113,49,-16,277,-2883,1089
36,39,-89,-78,-3337,1147
-105,-17,96,318,-4865,1701
113,70,113,35,-6102,2282
32,-116,-32,710,-5313,1691
15,-81,36,1898,-5344,1142
-12,-108,-91,2846,-3905,489
-31,48,39,286,-4284,2348
-32,60,109,4071,-2646,1934
19,85,20,1270,-2239,3263
-98,-84,11,4258,-255,1515
-75,87,13,2496,-396,1598
88,-104,-29,-119,193,799
-62,-24,-101,142,335,-1056
-90,45,92,756,619,-1365
-119,-28,46,-328,179,-818
-80,115,-35,-133,442,-443
-61,117,-73,-591,350,-305
-61,91,-92,-449,116,-251
-50,82,-111,-250,276,-114
-44,102,-111,-127,151,97
-21,124,-126,26,426,212
-18,-75,-116,-11,24,429
-10,-50,-122,51,-93,487
17,-45,-116,36,205,140
18,-15,-125,-368,78,165
24,-33,121,-92,156,-30
43,-23,-115,-120,-56,-104
43,-57,-124,54,-91,-202
55,-30,-122,-500,-153,225
52,-65,-128,191,51,186
57,-28,108,-223,91,220
72,-24,95,-204,21,138
74,-21,95,-67,11,273
74,-8,88,-62,85,232
76,-85,-27,-1110,5491,-4987
-120,-87,-97,-1864,4117,-3869
88,-104,-119,-2367,4147,-4004
-3,34,97,-1897,5227,-3582
-61,-64,39,-2087,4613,-3062
-29,-100,12,-3129,4042,-1651
24,45,46,-1065,2874,-1216
-113,-4,9,-1241,3266,-1246
-15,80,-38,865,2646,-1841
127,82,-8,789,1948,-1926
3,-45,-52,305,-403,396
41,-16,1,-87,-1392,1117
-44,-116,-72,53,-1993,1803
37,-35,-27,220,-2147,1755
-107,49,-25,95,-2753,1812
-7,30,-79,1057,-3392,1566
97,-122,-99,1375,-5322,1723
9,2,58,979,-3725,2155
2,-4,98,1938,-3691,2262
43,70,93,1788,-3291,2658
47,16,119,2402,-3041,2251
-126,53,69,2220,-3441,2558
-124,13,77,2114,-3513,2893
89,83,61,1107,-4159,3624
124,71,82,2893,-1755,2587
-3,-80,-55,1354,-593,1861
77,64,74,1936,336,717
-100,-18,6,1349,-265,-36
-110,-92,-103,103,864,-243
115,111,75,-775,325,-122
127,-86,-16,758,193,-515
-72,-72,-66,-381,451,-399
-51,121,-100,-275,241,-277
-71,91,-117,99,18,-434
-70,101,-96,-334,-90,-150
-46,99,-115,-328,67,312
-39,-102,-110,-465,-255,319
-8,-85,-106,20,-143,528
-16,-27,-111,-655,-247,429
-20,-30,-108,-203,-232,220
-32,-37,123,-9,182,94
-23,-21,98,-332,-26,119
-52,-6,97,-798,-415,380
-63,10,92,-1186,-279,527
-25,63,99,-1510,-300,614
62,56,51,-304,340,196
70,68,39,167,249,-58
-15,50,27,498,154,-719
-35,21,51,242,58,-901
11,7,47,-149,279,14
50,-95,-15,-1790,4512,-2766
-45,127,-112,-2121,5222,-2768
-112,90,-19,-1852,5096,-2785
105,-46,-95,-982,4468,-3069
-34,-93,-84,-1777,4676,-3004
-78,101,-71,-2350,4714,-2455
-42,125,48,-137,2701,-1578
94,42,82,-2483,2621,-233
-84,-69,76,-1000,2781,-947
-16,53,43,1235,2236,-1270
-23,17,-13,82,674,-1235
2,-82,-72,52,205,-122
23,-123,-34,633,-1022,608
122,-51,11,436,-1345,900
-51,-33,12,1054,-1728,1399
78,47,-33,504,-2511,1591
-50,67,-81,282,-2865,1782
90,115,-118,216,-3771,1915
24,-108,-93,1867,-4701,1769
109,-3,33,1749,-4778,2107
105,-12,-55,1616,-3657,1694
83,-32,8,2345,-4530,2442
-67,3,22,1620,-3923,1992
-76,-40,117,2646,-2790,2461
-99,55,7,1711,-3367,2762
-94,-33,-54,3029,-593,2122
-28,-105,111,750,-1694,2451
95,0,103,2603,-389,334
-16,-1,13,1352,677,-87
118,-96,127,119,249,-390
120,52,85,-470,295,-69
-121,-87,-30,-26,273,-106
-121,-73,-69,-1343,46,-169
-82,86,-123,-9,558,-451
-88,85,112,176,437,-440
-91,-126,94,-492,163,-42
-88,127,93,-292,-77,43
-75,124,86,16,43,189
-63,-86,108,-112,-94,413
-41,-86,97,97,104,268
-24,-53,102,9,-109,480
-16,-14,122,-404,-343,527
-14,-41,110,-48,-118,119
-11,-23,120,-359,-180,146
-16,-25,106,-412,-160,194
-17,-35,105,-98,133,158
-8,-34,90,144,303,151
0,-15,57,50,302,39
14,-22,52,135,216,58
44,-28,27,210,325,89
-121,72,-112,-998,4454,-2924
43,88,42,-1950,4140,-2662
-50,39,-99,-2292,4785,-2645
-42,-64,-96,-1234,4515,-2456
-73,-24,-106,-2350,5305,-2565
3,101,-92,-1270,5878,-2742
23,91,-92,-1363,5539,-2103
50,11,-65,-203,4645,-2248
-99,-48,-82,-453,2537,-1873
-48,65,-127,532,2496,-2893
26,49,46,781,1136,-2648
-123,-68,96,-83,-330,144
-82,-106,113,406,-1005,1016
8,-115,-55,-117,-1896,1868
-111,-43,-25,1040,-2156,1368
31,55,-19,355,-2272,1807
-69,58,-86,621,-2592,1618
55,93,64,196,-3399,1780
-32,-82,47,463,-5680,2061
-123,30,-50,746,-5980,1953
-16,1,78,2942,-3575,979
-83,27,25,3611,-3462,1215
84,60,-35,2670,-3144,2134
-117,2,-46,3529,-2981,2352
-69,88,8,2068,-3449,2695
127,-16,-82,3848,-1298,2072
31,109,38,1424,-599,2399
-127,21,-45,1278,349,1533
-32,-47,-77,1962,420,105
-108,-40,113,-423,351,-519
122,60,55,-545,138,-478
126,-104,-14,151,217,-469
-124,-108,-58,-149,115,-407
-103,-118,-113,-1056,289,-207
-100,86,120,-433,240,-362
-107,58,111,5,140,-382
-98,69,100,-119,133,-46
-84,94,94,-220,-79,473
-68,-122,109,-374,-292,752
-46,-60,114,-644,-157,830
-59,-27,121,-524,-144,645
-52,-30,99,-82,227,183
-44,-6,87,-209,249,186
-31,4,72,-193,116,96
-18,-1,57,-41,272,-209
-13,-5,50,-205,149,-203
-2,-21,47,-174,68,-207
3,-25,47,-79,113,-249
0,-53,34,238,86,-316
8,-47,30,13,120,-4
-90,14,-16,-2203,3370,-2889
-36,-53,-56,-1825,4786,-3745
35,68,25,-1466,6182,-4283
-115,18,-113,-1717,5511,-4529
27,-41,-124,-2284,5133,-3816
-57,126,-69,-2142,4171,-2865
-35,13,-36,-794,3667,-1847
-72,-34,-48,-999,3129,-1528
-126,-82,-24,-1666,2114,-920
-31,-8,94,936,1332,-1830
-43,103,46,-46,203,-1083
-29,18,121,-39,-629,761
9,59,-102,577,-1460,1204
-74,-30,-43,133,-2188,1774
38,3,-29,546,-2557,1718
-100,55,-26,650,-3092,1845
46,77,108,367,-3171,2010
-80,-57,-6,-1082,-5719,2782
-72,-69,-126,1349,-4772,1698
-111,-28,90,1708,-3302,1377
79,-38,70,2078,-4236,2084
121,-12,27,2085,-3855,2163
-77,-8,8,1984,-3879,2257
103,-20,-121,1737,-3927,2672
-72,-61,-81,2620,-3047,2292
-105,-7,5,2204,-2176,2397
46,48,125,1675,-554,1558
99,-19,-32,2093,589,91
-48,-10,-108,8,-130,-375
121,22,110,349,474,-640
110,-15,20,-481,752,-382
114,-39,-70,-986,11,-154
-92,-81,-113,-499,164,-150
-88,-124,107,-197,232,-465
-96,-110,79,-1037,13,-239
-104,127,96,-1091,-400,63
-93,96,122,355,-158,217
-39,-70,89,-217,236,353
-36,-39,83,-109,-210,503
-70,7,120,-243,-260,523
-86,8,125,223,83,212
-59,-1,91,478,316,-69
-25,13,58,10,20,105
-20,8,61,-94,-38,146
-16,-8,53,93,184,-148
-11,-18,46,275,269,-310
7,-30,32,169,186,-269
34,-45,27,-143,40,130
-10,-38,46,-249,-187,277
-2,-18,64,-459,-82,390
-54,113,-17,-845,4794,-3163
-49,37,95,-1066,5390,-3408
-37,31,-119,-2126,5637,-3293
-106,-70,51,-1339,5646,-3750
-4,-122,99,-1378,4466,-3055
25,119,-68,-2567,3809,-2061
47,91,-47,-2728,4190,-1208
-81,11,77,-1852,2730,-394
-101,-7,-123,-691,2978,-44
-12,-39,69,158,3108,-1425
-82,16,-113,1483,2501,-3034
-81,87,65,1172,311,-1341
-53,60,108,-48,-1168,849
5,-114,-60,203,-1702,1284
83,-30,16,519,-1938,1536
-21,56,30,708,-2192,1586
48,56,-21,1173,-2401,1269
-59,27,122,1313,-2498,1507
-121,105,74,472,-3933,2636
63,-120,68,1110,-4730,2279
-89,-16,-77,434,-4299,2127
-99,-71,-51,1679,-4429,1324
-83,-90,-24,3231,-4861,1232
-58,81,-91,5627,-2863,1205
-57,38,-88,1822,-1880,2684
127,-24,-32,2861,-1428,2810
66,75,126,1503,-587,2911
-23,101,6,1220,-375,2339
86,-26,-96,2267,1648,876
-67,-78,118,1408,231,78
-120,86,51,519,-316,-244
-87,-12,2,-79,150,-536
-103,-90,-50,-484,585,-442
-115,38,-107,279,575,-249
-108,57,121,297,132,-104
-99,79,109,-523,-203,-68
-76,45,123,-58,-78,-57
-70,70,-127,-193,-157,144
-59,96,-118,-262,-231,207
-48,121,-111,-351,-84,321
-41,115,-126,-43,164,226
-36,126,123,240,17,136
-19,-107,109,25,120,175
-18,-110,96,-29,186,157
-13,-97,91,-87,149,205
-9,-100,74,93,229,63
-2,-103,51,212,173,90
9,-86,45,-203,106,214
23,-87,41,-144,113,187
30,-83,27,-25,105,72
42,103,-86,-1163,4027,-3044
-26,99,41,-2586,4398,-2620
-93,-26,86,-1916,5400,-3525
75,-64,6,-2869,5228,-3115
112,58,113,-333,4264,-2748
38,119,-35,-2004,4181,-1747
-113,43,-14,-1282,4417,-1293
-47,-29,-27,-470,4319,-1320
-30,-36,-102,-429,3160,-1816
-80,-112,-3,1906,2156,-3350
-75,90,51,-1270,-136,-318
-72,-64,79,114,-1043,1089
0,-116,-92,-97,-1959,1749
-109,12,-18,453,-2462,1716
23,54,-7,652,-2499,1660
-82,37,-78,1422,-2625,1504
48,28,21,1818,-3139,1968
-32,47,-106,2013,-4376,2714
5,121,92,2212,-6517,4034
96,84,4,-527,-6372,3883
124,-50,-124,1491,-4704,2119
-70,-51,-3,2255,-3299,1810
117,-59,-18,2961,-3307,2433
31,58,-78,1939,-2590,2380
108,-58,108,5249,334,1248
-37,119,86,1969,369,1975
76,106,45,368,15,1745
-36,68,68,-506,-555,285
-92,125,60,604,-243,-1241
-117,14,55,-499,356,-643
116,-12,1,-2294,1089,-430
-120,37,-112,679,1209,-1124
-77,112,95,55,937,-758
-58,-104,68,-897,70,-259
-49,124,70,-370,-310,89
-60,-96,96,-377,-371,169
-58,-114,114,426,-61,127
-45,-78,99,61,177,129
-31,-73,114,316,-28,280
-15,-61,99,447,165,243
-7,-37,90,51,103,322
-20,-26,101,-151,-140,545
-1,-15,85,-141,211,436
6,-4,69,-62,170,278
32,11,51,-257,324,517
18,-16,53,142,-70,69
25,-16,32,266,143,-53
21,0,36,-343,129,6
44,-30,21,-129,85,-40
101,-21,7,-505,-60,245
-63,54,-4,-2377,4124,-3270
-65,-120,-59,-909,4430,-4054
-87,-61,-22,-4597,6394,-3317
39,-90,53,-1823,5649,-2947
-120,-80,-125,-1844,4595,-1859
-79,98,-88,-1150,4622,-1556
-68,63,-48,-1373,4322,-1281
-35,75,-31,-2177,3693,-385
-62,82,18,-2925,2068,-137
20,-65,59,3653,1785,-3172
-46,-64,-5,-658,-864,85
0,-16,14,484,-1847,609
59,-19,-43,-509,-2453,1703
58,-68,14,190,-2918,799
-32,-108,29,1661,-3393,803
113,-94,-24,2208,-3381,1059
3,-102,-42,1976,-4074,2409
123,-25,-81,1607,-4410,1655
-70,18,44,689,-3629,1738
-102,-20,52,252,-4170,2591
-93,-67,78,1488,-4434,1926
-61,-116,107,2684,-3160,2193
119,125,118,3157,-3311,3087
95,-57,75,1635,-1597,2699
104,103,-67,1438,-1670,2368
59,-121,-95,730,493,302
-55,-115,123,1722,-158,-806
-88,-127,89,154,-83,-494
-93,15,0,-875,1011,-757
-69,-95,-78,-420,1048,-644
-80,-112,-112,-518,395,-412
-59,105,103,-61,58,-176
-63,-124,104,-487,-101,-47
-71,96,99,183,20,-243
-67,-82,-126,-625,-95,368
-51,124,109,316,175,206
-20,-43,95,-419,50,471
-36,-59,81,50,-87,312
-17,-25,103,-435,-104,566
9,12,92,-1001,66,620
31,87,99,-2513,256,880
-8,-8,111,158,-356,147
10,14,111,1104,-35,-70
34,46,86,123,564,9
41,40,50,-240,367,110
20,29,47,-26,-52,100
92,4,28,240,360,-11
88,-3,39,804,27,-15
57,-11,31,669,59,-104
69,27,57,-909,-158,439
-29,111,-49,-1017,5174,-3560
-74,70,-10,-1739,4951,-3721
-120,-5,117,-2412,4533,-3127
70,125,35,-2022,4800,-2491
105,83,92,-1858,4185,-2097
51,68,-31,-2322,3892,-959
-104,71,2,-2370,4235,189
-2,118,-40,-2987,3926,579
15,-11,-45,-1089,2639,-543
35,116,39,3482,1726,-3291
-15,9,-21,-1376,-270,351
29,102,68,813,-1896,415
77,3,-15,-62,-2468,1337
-29,101,70,554,-2645,934
-114,-123,70,390,-3128,994
8,89,5,2043,-3225,425
-40,-49,-111,1401,-3590,997
56,-86,76,2584,-4530,749
76,94,-31,4350,-2455,284
-32,-3,-43,1035,-4347,2159
75,115,-82,3201,-2479,2078
38,-10,121,1216,-2156,2715
34,-42,-95,1929,-2947,3122
42,34,14,51,-2679,3190
96,-124,4,2189,-1295,2500
40,-77,-68,2513,-1456,2723
-51,-8,120,1984,581,1060
33,-92,80,3508,-47,-55
-101,-117,76,2530,-854,-620
-102,52,45,-88,-253,-532
-112,-62,-8,-1319,496,-104
123,-127,-88,-2104,392,204
116,61,-118,-347,310,-159
-117,57,120,262,455,-436
-85,99,88,-262,628,-622
-88,76,101,-409,102,-430
-40,57,81,-20,247,-415
-43,73,91,-30,-167,-68
-46,97,103,-508,-330,281
-42,116,101,-358,-255,555
-37,-126,98,-33,3,344
-25,-84,90,-216,102,563
-31,-66,81,-533,7,550
-15,-44,79,-523,-7,588
-4,-28,61,-334,150,430
-7,-21,54,-166,144,338
-1,-8,51,-153,112,259
13,-4,42,-45,162,156
24,-10,30,97,194,10
33,-12,21,-19,130,29
-115,13,88,-371,5398,-3060
65,123,44,-2176,3793,-2911
28,24,-89,-1549,5051,-2857
101,33,104,-2386,4998,-2901
20,-79,105,-2026,4442,-2562
96,116,-128,-2482,5085,-1880
-118,85,-64,-1430,4538,-1369
83,-1,-10,-519,3794,-1075
-100,77,-33,-2757,3280,-12
-13,-33,-48,-1384,2855,-1048
-60,11,-108,2694,1589,-2725
-45,-29,102,-1825,117,260
-1,53,-103,821,-1365,282
39,-15,4,281,-2088,1207
-113,53,50,607,-2414,1054
83,102,31,922,-3006,1025
-71,68,-72,1605,-3414,1075
82,69,76,2087,-4090,1311
53,71,-56,2951,-4511,2091
-26,-125,37,3292,-5547,3163
53,47,-66,467,-3770,2564
17,-42,95,1232,-4753,2182
-23,125,45,2268,-4038,2262
1,-126,-76,2747,-3809,2652
67,-96,97,3078,-1234,2601
34,108,72,1538,-549,2868
-10,-121,-20,2038,-957,909
106,-18,125,3189,1043,-560
-100,-28,40,857,983,-939
-124,91,4,-207,903,-1716
-85,-28,-39,-19,800,-1108
-67,-109,-92,-811,456,-686
-64,79,-114,-290,-168,-547
-61,52,-122,-463,-173,-452
-41,106,99,-1446,-33,-232
-47,95,100,-881,-326,-426
-61,54,107,178,-28,-151
-63,121,-125,-246,-155,340
-55,123,125,74,4,634
-35,-87,126,-156,-77,798
-9,-68,114,57,136,786
5,-49,102,112,236,762
-4,-31,91,104,62,698
14,-26,75,198,202,634
13,-12,73,120,45,521
22,-20,52,292,201,163
35,-10,48,-151,101,-40
41,-40,33,-11,40,-363
49,-36,31,-34,59,-260
46,-36,37,-329,-224,-115
34,107,-69,-4360,3812,-1864
-63,10,28,-1678,2870,-2382
18,77,17,-2061,4295,-3072
-81,20,-42,-2092,4824,-2745
-54,-66,-99,-2573,3941,-2060
113,-5,41,-2951,6089,-1582
110,-111,-59,-487,5602,-1248
46,-40,-81,-1500,3807,-317
-28,83,-85,704,3908,-938
-20,60,-123,-469,3503,-1693
125,-91,99,413,1748,-2346
26,-88,4,572,999,-2771
-98,-10,106,-1542,-393,327
-27,-100,-101,913,-1207,492
11,122,-9,-629,-1447,1778
124,-19,16,209,-2021,1604
34,72,-6,-36,-2682,1783
-111,90,-39,-77,-3105,1728
102,19,102,762,-3597,1535
-47,-1,-13,2443,-4615,1598
-56,-78,19,720,-5706,2962
75,15,-27,1002,-5256,1717
-49,-80,-97,2424,-5315,1931
-49,-26,-42,981,-4619,2372
-28,97,-46,3449,-3443,1317
-53,-56,-34,2086,-2355,2025
-105,-49,47,2202,-1925,1607
47,-93,96,3823,-240,1224
12,-126,-78,256,164,2094
17,-45,-121,2603,-281,25
-81,-45,113,1219,-261,-410
102,123,38,-16,102,-551
-114,0,-16,-1503,351,-565
115,71,-112,187,1062,-917
99,86,-105,-221,102,-599
-97,86,110,-184,187,-380
-100,36,94,326,327,-856
-81,94,-125,-737,-96,-20
-86,69,124,-463,-146,185
-81,77,-123,-58,-46,307
-68,109,104,-108,316,423
-47,-101,90,-439,44,676
-57,-80,84,-238,-147,733
-48,-54,85,-85,-4,607
-36,-45,59,21,191,314
-34,-32,55,-41,59,239
-30,-32,59,35,77,270
-20,-17,44,-149,186,183
-8,-10,38,-318,-32,215
18,-24,38,-14,129,-87
53,-118,21,-2168,3209,-2837
111,-60,58,-3019,3557,-2120
-62,-105,66,-1544,4305,-3178
93,105,35,-2110,4847,-2888
10,127,17,-3559,4606,-1568
104,-119,94,-485,5677,-2311
98,-120,-123,-1792,3596,-2956
100,-48,-126,-1534,3108,-1494
-23,-1,48,247,1642,-2252
-67,118,56,-430,646,-1276
127,9,115,-61,-892,432
-57,87,-39,322,-1211,654
69,-79,70,-228,-1689,1670
-42,-39,116,479,-2121,1602
82,47,94,-389,-2562,2085
-72,-36,75,1489,-2832,1472
-118,42,-20,2215,-2871,2085
-72,-63,-78,665,-3366,2611
28,-20,-46,1298,-4134,1987
86,-88,-95,2454,-3301,2303
70,-36,18,1874,-4773,3253
-35,-50,-42,2195,-2833,2834
2,-45,86,2281,-3035,3232
-16,7,54,2177,-2766,3224
-56,56,-54,2343,-1254,2807
52,-108,1,220,-885,2559
-91,-73,-7,3121,-370,745
15,0,-48,916,482,539
-41,-105,-127,666,208,-296
-109,20,77,636,304,-486
-90,-68,11,467,221,-408
-85,-97,-46,-424,123,-417
-47,88,-97,-206,214,-605
-30,93,-108,-628,252,-551
-2,45,111,-405,222,-679
4,60,116,-424,-55,-299
1,59,108,-475,-13,42
-16,108,115,-685,-175,424
19,115,121,-102,28,317
12,-110,102,-94,49,304
20,-71,127,-229,-117,503
26,-55,125,-76,97,638
27,-36,115,24,127,457
44,-5,106,-118,49,507
51,3,102,-172,16,420
64,6,101,-93,138,270
68,23,101,-260,57,171
73,20,94,-329,51,-54
84,10,89,-353,159,-16
80,-13,71,-271,123,-222
115,92,83,-1691,3440,-3159
29,78,-14,-1392,3439,-4010
90,-74,46,-2533,3687,-3914
10,-84,-14,-4588,4287,-3618
-1,-42,126,-3084,4212,-2772
-4,-89,-22,-2463,4444,-2066
-38,-104,69,-2880,3644,-1005
-102,87,84,-1868,3193,-128
34,51,85,-1106,2412,-1030
123,-128,10,385,2250,-1647
119,-56,-89,-487,2207,-1778
-72,60,-90,-993,182,58
-54,22,-78,140,-520,631
13,77,-10,623,-1018,1023
119,-65,53,661,-1402,1444
-42,4,35,641,-1736,1424
40,30,30,387,-2084,1489
-98,68,2,-552,-2706,1739
41,56,-45,537,-3414,1413
-110,115,-35,1511,-4132,1045
4,-84,-27,1576,-4013,1101
21,-61,66,1558,-4102,1501
39,-72,83,2491,-3562,1762
74,-75,7,2844,-3125,2263
110,-20,77,2457,-3395,2892
-89,-16,124,3087,-2681,2247
-93,-48,-46,2814,-1820,2828
73,31,-69,1702,-1288,2975
-54,13,78,1925,-1201,2555
99,-4,95,1828,126,1382
-41,-11,-26,410,57,655
-102,-60,-66,-822,-527,309
-110,-21,107,686,225,-183
-126,-16,58,-447,152,-309
-102,-68,-20,-595,455,-616
-84,114,-82,-39,433,-906
-61,104,-112,-8,737,-835
-58,103,-128,-644,422,-521
-48,76,-123,-423,178,-271
-47,96,-111,-129,-57,160
-35,112,-119,48,84,121
-13,-96,-120,-352,118,428
-11,-83,-114,-304,25,312
8,-82,-104,178,327,462
20,-50,-118,91,211,496
27,-46,-115,360,-158,503
32,13,-125,-822,-147,561
39,-18,-128,-200,-79,55
62,-24,122,189,349,93
58,-6,-125,-394,109,176
18,-56,99,-1383,4597,-3281
-98,-60,9,-1479,4623,-3373
-122,-19,-57,-2573,4841,-3214
47,-22,-26,-2355,5147,-3683
73,-58,12,-2018,5504,-3724
9,-76,-120,-2959,4137,-1926
-22,32,-91,-1456,3357,-314
-73,104,-66,-2310,3252,-14
117,-27,-114,-137,2806,-106
-57,-128,-80,1206,3560,-2251
18,-89,43,288,1177,-1494
-66,16,9,-124,-171,104
-27,12,65,492,-1078,705
-120,-85,-50,45,-1635,1385
-25,-26,-27,648,-2034,1261
100,68,-10,159,-2701,1602
-72,61,-29,419,-3141,1475
69,62,-126,883,-3458,1480
-18,-88,118,1120,-5019,1704
95,-71,-12,2303,-5192,1683
-116,38,59,838,-4327,1728
-121,-94,80,2383,-3633,2066
-96,-97,96,2750,-4276,2467
-73,34,-124,517,-3941,2813
-13,-51,26,3480,-3533,2670
-44,27,61,2139,-2009,2740
81,93,103,395,-1868,2442
-68,-34,-75,2495,-600,1263
15,-39,-46,3029,-46,-93
-102,7,-95,174,-1054,30
-108,85,101,868,395,-330
92,-34,23,-151,827,-691
110,-91,-37,-286,607,-400
-85,110,-66,-154,513,-465
-99,93,-81,-8,-6,-443
-80,101,-84,-425,-83,-78
-65,105,-85,-333,63,216
-65,-115,-102,-494,-59,184
-44,-99,-89,-308,-54,171
-38,-77,-104,-231,16,188
-43,-57,-102,-143,-154,279
-40,-76,125,-58,-35,275
-23,-54,-126,-363,293,138
-25,-60,112,-16,116,173
-10,-44,98,-107,145,272
2,-27,91,-229,38,455
11,-25,95,93,-433,613
23,4,97,-270,-131,567
20,-5,96,-150,207,-90
33,-23,69,-16,333,-233
-2,-96,-54,-2547,4326,-1808
-20,-93,19,-2157,6242,-3273
87,33,-71,-1964,5614,-3574
112,-29,11,-2066,4667,-2314
-122,-103,41,-1001,4498,-1861
-18,44,77,618,4639,-2777
33,54,-94,-1592,4221,-1561
-104,37,-68,-4641,1605,-1289
100,123,0,2727,3152,-2038
79,-28,12,-480,1051,-697
-8,21,-116,1012,718,-84
-17,107,120,63,-466,690
121,115,-68,961,-1121,1182
-31,-58,-73,720,-1651,1645
52,-29,-82,660,-2363,1896
-41,-11,-110,1110,-2875,2178
114,13,91,978,-3417,2603
72,-34,4,2592,-3451,2938
-68,98,8,-629,-5523,3121
-22,-56,69,2456,-3988,3108
-120,78,-84,475,-5508,3346
-6,-50,108,2605,-3035,2806
-41,14,90,2420,-2852,3152
-80,71,115,2068,-3713,3108
-59,20,-43,3202,-1535,2981
69,-51,54,1641,-876,2383
127,-99,33,1164,-260,837
-72,51,-17,479,290,-481
-102,-87,-126,-610,830,-804
-127,60,50,-1145,-168,-1006
-76,-99,-52,-252,526,-854
-91,-114,-92,-514,336,-622
-75,-123,-116,-631,100,-319
-76,88,-114,-132,-87,-43
-73,91,-123,199,115,-21
-84,116,-120,453,160,-110
-57,-105,-127,87,400,428
-42,-108,-122,393,196,340
-6,-51,124,-20,276,767
12,-33,-127,-102,-62,926
6,-21,-127,147,-379,557
-12,26,-121,-300,-191,185
9,6,113,-35,281,-19
18,-7,95,-34,74,-106
23,-22,81,-264,-16,43
14,-35,70,-430,-86,57
26,-53,57,-339,-77,152
35,-42,59,-140,-157,169
38,-33,53,-128,-144,152
59,-42,32,125,180,-21
95,-3,-73,-1941,3844,-2611
-50,-63,54,-2019,4405,-3767
-17,-90,116,-4554,6341,-3036
-63,-117,-50,-1944,6059,-3631
118,-79,8,-2357,5174,-2722
-100,-96,78,-2016,4797,-2231
31,70,-69,-1501,4390,-1876
54,60,33,-2005,3460,-330
62,62,114,-2133,2483,478
70,-63,-121,904,2072,-555
57,1,25,2572,3789,-3142
104,-32,-38,-1694,291,-1054
-69,-59,35,-384,-382,227
-26,-47,-102,463,-1636,1134
32,-108,-69,20,-2356,2039
-6,14,-36,14,-2611,1752
-103,106,-27,111,-3227,1527
56,80,-126,980,-3471,1231
-5,108,25,2885,-4388,1361
-87,76,54,-328,-5968,3083
3,5,-80,1135,-5347,1308
27,-55,-49,1526,-4703,1276
16,118,-38,2924,-4343,1777
49,-105,-32,2534,-3144,2144
95,-72,33,3088,-3940,2630
23,-74,74,2672,-701,2321
-123,65,-34,2001,-1679,3183
22,64,-51,2125,-913,1629
98,13,-16,-2667,-482,1411
-88,36,-52,2361,421,-1418
-114,97,-119,295,772,-798
-110,26,26,-1222,912,-401
-86,-67,-43,-468,1110,-501
-60,-108,-99,-290,1122,-240
-24,-80,-114,-550,903,132
-73,-113,123,-253,-142,-592
-14,-126,105,267,223,-538
-20,-121,107,-226,286,-317
-25,-116,112,-134,138,24
-20,-121,113,300,-90,253
1,-74,127,200,-150,566
9,-51,116,190,-36,459
18,-30,-123,41,-185,640
39,-24,-125,202,-140,547
61,-49,-126,1170,231,111
54,-7,107,28,388,91
54,0,-127,-566,-226,163
65,-49,110,180,31,58
66,-19,103,-97,213,-7
84,-28,77,119,80,-51
20,-60,34,-574,5629,-4940
-127,11,-89,-77,4970,-5203
0,10,-44,-1739,3900,-4863
-99,-26,43,-3057,4664,-4201
-94,-86,6,-2740,3914,-3277
1,108,93,-1484,2428,-2554
121,-79,-6,-2305,2343,-2037
-61,62,87,-1801,3757,-2276
95,-6,104,-1418,3666,-2264
-100,-76,79,-2204,3137,-1618
4,50,76,-1680,1672,-729
-71,-1,89,-398,1240,-300
94,71,-26,1885,1379,-875
2,79,-85,12,816,280
0,60,66,891,-379,1065
71,-78,66,56,-1236,1380
-98,-31,119,276,-2169,1596
-3,0,-70,491,-2641,1402
102,-36,-94,1318,-2405,1405
-4,-21,67,1322,-2448,1658
115,96,93,525,-4356,2546
-16,59,1,1444,-5366,2271
54,70,-8,1349,-2124,2633
17,72,71,-1012,-5512,2513
125,-123,44,2265,-4664,2678
-42,3,-111,1684,-3813,1814
-114,39,-34,785,-4521,2655
-35,-101,65,3583,-2950,1788
-117,-13,-8,3409,-2153,2030
14,58,124,1847,-1641,2352
-118,17,61,2596,-43,638
-50,-49,-22,2699,-72,-44
-111,-19,-76,-132,207,-27
-128,71,94,-83,435,-585
123,-14,20,-157,471,-674
-114,-81,-41,-492,418,-600
-86,121,-74,-729,548,-771
-73,77,-82,-244,351,-508
-83,77,-104,-136,142,-62
-87,119,-105,-363,-15,247
-63,-124,-108,-161,18,182
-52,-110,-127,-36,198,281
-36,-73,-109,-84,-145,286
-24,-77,-118,291,147,380
-26,-27,-109,-677,-153,389
-4,0,-113,-1385,39,578
-6,-35,-111,-79,-72,419
12,-19,-124,311,58,194
19,10,-121,-122,-4,264
29,3,113,-138,199,140
-20,13,115,-2620,3283,-3491
3,30,5,-2626,3469,-2950
13,64,9,-2144,3280,-2671
-120,15,-88,-3092,5178,-3115
-111,-50,-5,-2971,3795,-1598
-74,91,17,-1290,3562,-1232
-35,113,43,-2329,4038,-895
-119,32,59,-2039,3819,-284
-83,-23,55,-1738,2547,181
64,-53,71,-2024,1665,522
-112,-80,-2,1251,2095,-1322
-25,-98,-60,-496,440,435
50,-108,-116,901,-722,381
78,17,-79,155,-1498,762
122,26,42,779,-2222,922
14,84,52,227,-2025,790
-108,81,19,218,-2084,253
-18,103,-27,-331,-2616,389
97,34,-17,1552,-4137,520
23,-82,4,1982,-4159,1122
18,-14,64,1235,-4257,1314
62,-84,38,2609,-3563,1190
88,-11,10,3779,-4387,1209
83,0,56,1842,-2741,1656
-122,126,71,3326,-3358,2762
-119,26,-79,1458,-3428,3000
-113,-55,95,2686,-2440,2970
58,39,-122,1597,-923,2434
-48,61,124,2174,115,1144
-47,56,43,531,758,-237
103,106,-17,480,182,-405
109,-47,-112,700,276,56
-120,-38,49,-934,-150,449
-89,-109,15,-200,-80,1
-68,125,-52,-282,661,-369
-86,-107,-72,-596,569,-197
-88,-106,-111,-1018,528,47
-45,-92,-87,-914,-67,263
-43,90,121,994,364,-216
-38,-53,-125,-649,123,51
-27,-120,-121,136,42,157
-18,-78,126,-540,124,333
1,-87,-105,282,-285,442
12,-61,127,275,195,307
32,-30,-105,36,-24,500
43,-21,-123,-181,260,326
42,-27,-108,243,-81,238
52,-36,-122,8,280,117
59,-20,-123,-390,37,210
74,-43,123,44,5,193
102,-64,-65,-1551,4239,-2269
-31,38,53,-143,4614,-3530
90,58,-97,-1007,4837,-3717
66,0,54,-546,4506,-4207
-108,-127,119,-2184,3530,-3042
-87,110,-34,-2080,3192,-2345
-27,92,51,-1996,3606,-1819
90,87,69,-1285,3583,-1907
-21,93,117,-1165,3472,-1503
-127,98,91,-2343,3659,-1137
39,5,82,-2063,3722,-733
-24,57,70,-714,2640,-1814
56,114,65,1306,1081,-1412
-54,-127,-31,-293,939,-762
-31,95,-7,-691,-572,840
11,71,26,421,-1377,1015
120,-44,94,133,-1622,1378
-57,-20,88,498,-1800,1418
26,11,72,391,-1958,1484
122,0,-13,940,-2398,1460
-47,4,-93,681,-2844,1563
25,22,-105,1033,-4080,1868
