AccX,AccY,AccZ,GyroX,GyroY,GyroZ
30,57,61,-2491,1476,-4506
-43,41,45,-1788,5285,-4942
77,38,16,-1845,5277,-4767
-42,-89,57,-1827,6397,-4172
-68,45,80,-1801,6558,-2494
32,48,-86,-934,5307,-758
-88,125,-98,-990,2761,2865
-29,38,91,-1476,1525,3073
53,42,-28,-1821,-596,2910
56,-51,-60,-1369,-2795,1189
114,82,14,194,-3421,-2720
-106,72,119,1388,-1148,-3377
-112,-8,-32,689,658,-4131
-33,-83,-58,851,3614,-2249
15,-59,-82,222,3469,-123
52,-90,103,-841,2449,787
71,18,-35,-2027,946,2167
88,-72,-111,-1740,432,2913
22,-26,3,-2339,-1904,2596
-88,-79,44,-445,-2014,-2161
-3,108,-39,1035,-847,-2730
-104,-43,-25,1591,-641,-3590
-94,10,-51,821,1897,-2174
-31,123,-62,835,3063,1436
81,-112,-103,31,2265,1550
-41,50,-23,-1431,972,1483
21,-42,-124,-633,-568,1473
69,-15,72,-944,-893,1511
-19,-8,7,-582,-3446,3217
-43,67,-41,-1381,-5336,3054
-3,-4,-17,1116,-3422,4010
-35,103,8,632,-2404,3254
33,-109,76,322,-1091,2957
-30,-11,106,-1183,-2199,2528
-83,-81,-65,391,-1799,2684
-116,-11,49,-62,-1700,2155
116,-118,-14,1176,479,1700
32,-66,-18,649,-4,1133
-4,119,-114,466,692,78
-14,80,116,83,500,-78
-20,-16,67,-87,277,-356
21,-65,41,-391,573,-349
38,-84,1,-754,474,-449
45,113,-30,19,379,-452
70,107,-33,-226,640,-445
90,109,-52,-375,400,-377
86,96,-64,-288,354,-325
81,85,-60,-141,309,-192
119,120,-54,-723,398,86
78,123,-56,-316,340,86
-100,69,31,-1468,3694,-4403
-30,6,22,-1212,4669,-4196
126,-18,51,-2105,5440,-4150
-84,66,98,-1044,5669,-2367
-121,127,106,-628,6034,417
-55,-4,106,-316,4640,1847
-9,14,-37,-1023,2769,1871
26,67,107,-1710,1577,1922
2,-64,25,-1810,-811,2102
119,2,35,-1902,-2694,1557
32,-100,-47,-165,-2494,-2260
-24,59,-112,1438,-1310,-2606
-119,-59,-84,1285,-169,-3282
-97,66,-62,822,2025,-2465
40,18,-71,352,2846,-305
121,-40,-44,-66,3174,1299
-5,20,1,-1294,1952,1245
-116,-100,110,-1599,1010,2205
-102,74,20,-2077,-398,2245
80,-97,-37,-1647,-2376,1168
28,50,111,93,-2182,-1566
-34,-105,-21,2220,-1086,-1158
115,-55,10,713,-1284,-3005
-110,114,-76,771,2213,-2303
-16,55,-71,1366,3685,203
91,8,-101,-117,2539,405
34,98,-107,-707,744,-232
75,-33,14,-396,-333,815
-33,7,-2,457,-1825,2554
53,-75,7,209,-4175,3027
37,-119,-8,-719,-3633,3412
120,-108,35,197,-1012,2875
-122,53,73,-1001,-1299,3123
122,52,68,-523,-1417,2710
-37,61,86,1336,-318,3099
-38,122,-12,-678,248,2262
122,-90,-126,-1011,-2389,2149
-50,18,67,1484,-172,2287
115,95,-120,69,-8,2072
63,68,-116,296,-134,2134
103,-81,-114,-797,-85,1026
52,116,-125,557,245,124
27,7,71,886,674,-498
14,-36,34,-124,508,-310
23,-101,16,-167,213,-321
58,115,6,34,537,-325
74,111,-17,-377,631,-374
86,87,-27,-215,343,-272
82,97,-33,-434,399,-95
89,98,-41,-404,346,-26
-24,19,-111,-6347,537,-3575
-105,-118,-31,-2055,1779,-4364
-89,84,41,-854,4482,-4813
-14,-3,13,-1184,4542,-4940
-64,-123,13,-1129,6070,-3771
-75,-78,59,-848,5363,-1826
-120,93,-42,-831,4830,-292
-107,30,38,-423,4324,827
-66,29,-109,-897,2906,1936
13,34,90,-1119,2416,2376
-123,-94,49,-1759,661,2970
64,100,-118,-1464,-2227,2419
3,87,-74,-1773,-4150,-519
1,-15,-15,662,-2224,-2678
118,4,-23,770,-2225,-4182
101,-89,-118,-68,127,-4549
75,106,-123,1063,3943,-1459
58,30,81,25,3433,-187
-21,53,101,-651,2601,228
94,42,-78,-1264,2112,1507
-106,-105,88,-1606,1337,2863
-46,75,-37,-1810,161,2866
100,81,113,-1286,-2301,1823
14,117,-83,-265,-3766,-1924
90,-5,52,1199,-2223,-2779
117,-60,-90,539,268,-3951
-109,-5,-99,850,2984,-1784
-59,-34,102,647,3142,476
-23,11,-70,-224,2036,-384
16,-49,12,-1797,-1010,884
75,7,-29,452,-253,1356
-43,-23,39,1229,-1045,2719
56,-84,66,322,-2521,3573
48,-94,37,-587,-2693,3639
-97,-73,39,-735,-941,2626
-119,84,55,-1306,-1360,3487
-109,89,87,-146,-1382,3296
-34,92,60,429,-114,3160
-84,-96,102,-477,-1099,2831
-80,85,115,473,-945,2717
-72,86,-127,457,-176,2489
101,94,-113,138,14,2210
54,-126,-118,43,-466,1453
77,125,112,86,485,316
58,49,57,382,642,-502
26,-46,43,629,149,-527
35,-105,32,-23,488,-425
44,-121,-1,-857,459,-264
58,94,-22,-424,150,-256
76,111,-29,-543,240,-362
-31,75,72,-4582,3048,-4797
11,-68,-105,-1274,3399,-5664
-64,63,46,-1671,5536,-5014
28,77,17,141,5706,-3960
3,-13,53,-804,5250,-2592
105,21,32,-355,3641,-617
-50,-26,73,686,5189,954
-32,-37,0,-971,2813,1240
35,7,-91,-1211,1613,1865
47,103,97,-1337,227,2140
-14,-26,86,-848,-1832,2495
-53,-94,-98,-416,-3867,-1094
21,-39,-62,-109,-3729,-3933
59,92,-110,489,-1688,-4235
114,-38,106,39,1953,-2987
126,53,113,1159,3994,-630
-98,-39,35,-59,3303,579
57,-9,-7,-1180,2801,505
-85,16,29,-1394,1773,2556
9,-14,-95,-1628,608,3601
-14,122,21,-1735,-1427,2818
-117,-111,62,-494,-3702,-1067
-35,-122,107,407,-2854,-2044
92,-66,32,421,-2543,-4000
-79,75,-98,251,2804,-3283
-85,119,-102,2216,4352,974
-97,-64,-89,616,2098,775
48,58,24,-1735,313,485
33,-87,-38,-372,-712,1976
-29,-13,-72,-461,-1272,2039
88,-28,-43,-220,-3484,3358
111,-47,-30,-740,-2761,3205
-99,-24,-12,10,-1581,2906
-48,54,62,8,-1625,3162
-82,83,8,-753,-678,2869
-75,-116,63,-736,-1980,3304
-71,106,81,872,-2139,2958
-100,-95,-93,-364,-1245,3068
-121,-19,-74,-546,-318,2276
-128,28,-128,-618,-35,869
66,-36,67,-462,420,-310
50,79,-11,-1242,543,-995
-7,-9,-18,-1167,-244,-673
-7,-56,-21,-972,-294,-203
9,-43,-42,-1637,112,-273
18,-58,-54,-1075,225,-241
32,-53,-85,-613,426,-367
29,-11,-83,-1175,212,-169
43,-22,-93,-775,178,-251
28,-13,-75,-408,191,-118
-126,-63,1,-2059,5184,-5558
-100,116,97,-136,5206,-3747
-55,-97,-120,-1207,4335,-3936
12,30,-55,-1385,5040,-2399
-1,83,-37,-118,5109,-89
2,-7,39,-563,4568,587
72,-89,105,-569,3250,2433
121,-23,-87,-2370,602,1860
-127,118,90,-2376,-1663,2268
58,-45,95,-1608,-2468,1790
115,-61,-65,109,-3647,-701
84,-88,127,1012,-2778,-4202
-96,-91,-42,1101,-383,-3954
-79,-87,-34,772,2394,-3388
-51,90,-33,-154,4463,-2364
-114,108,-57,556,4495,1508
33,-76,85,-1405,2574,1053
114,22,102,-2637,779,2241
-106,-87,-86,-2031,-1340,3154
-34,-63,-119,-1278,-3641,918
-20,-51,26,719,-3360,-1970
88,-45,5,941,-2298,-3570
-116,-15,-58,378,615,-2454
-78,-104,-94,1198,2547,-250
101,38,73,905,3386,344
38,69,19,406,3025,395
67,-122,55,-2109,-356,437
79,98,-2,-1275,-1383,2465
58,101,6,-174,-2008,3998
9,-39,8,-1558,-1952,3694
28,-42,75,-234,-2462,3840
67,29,33,-1409,-1688,3421
58,32,55,-425,-1351,3106
95,104,101,-825,-1642,2985
14,96,-102,225,-952,3030
-8,-82,-32,461,-2167,1953
-55,100,-103,503,-802,1811
97,-115,-2,540,333,1355
89,81,-88,1372,401,696
-20,91,-84,293,-180,43
27,-1,95,-152,642,-600
45,-69,60,-228,739,-850
53,92,15,358,528,-430
86,70,26,61,259,-195
55,78,-20,-491,226,-300
82,65,-3,-45,315,-232
-127,81,-5,-145,338,-357
87,59,-3,265,138,-320
105,73,-16,-293,412,-223
97,70,-37,-113,258,18
-16,82,-35,-1638,3382,-4279
-116,-27,26,-1320,4717,-4175
-68,116,35,-727,5110,-2802
-91,-102,-36,111,5365,-1417
-99,-3,59,-127,5815,115
-87,-46,-102,-572,3544,1931
22,25,-27,-1217,1868,1534
39,-59,-125,-2018,-27,1837
-90,-41,-113,-994,-2250,1931
-107,112,2,-148,-2857,-1499
-15,74,-54,834,-3453,-2476
118,-105,80,537,-1030,-4014
-128,-70,-98,241,2005,-3247
80,46,-109,1279,3575,-83
90,12,17,-229,3277,500
64,11,-57,-1325,2262,1175
-96,116,66,-1662,1575,1457
-57,40,-94,-1780,-204,2749
-88,-103,47,-1798,-1641,2884
-127,70,-110,-348,-3178,-750
-62,-127,-113,716,-2270,-2669
112,114,-26,317,-1688,-3370
112,1,-101,565,1596,-3118
56,-7,-89,1216,4397,-275
101,-78,108,533,3735,609
75,-36,-8,-1439,2384,930
98,-60,30,-1271,139,502
68,107,-50,-1512,-868,711
-40,56,-49,-146,-2047,1948
-123,31,4,-1342,-2567,1351
118,72,20,-1248,-2799,2668
-99,91,120,-22,-2440,2639
-121,-110,-118,-212,-1859,2975
-115,-80,-84,40,-1468,3142
-103,-21,-70,-657,-2762,2644
-124,-81,-60,1145,-1140,2946
-113,-98,-72,720,-1244,2032
-125,103,88,442,-386,2239
93,17,-105,1994,486,2194
91,30,87,1720,878,2488
31,58,110,850,-221,2178
-4,98,110,-578,-265,1333
-16,69,85,-894,115,-80
-1,6,47,-281,540,-733
46,-31,20,-414,635,-1103
76,-109,1,-60,449,-1402
98,103,-7,146,475,-1440
113,81,-12,-468,417,-1430
-118,39,-36,-544,743,-1098
114,33,-32,-104,107,-504
-85,123,-52,-1609,3391,-4998
1,45,13,-1088,5394,-4658
122,-49,22,-247,4864,-4407
-44,-103,58,-2438,6038,-4900
68,-125,26,-1675,4666,-1205
24,-27,40,-679,3504,1556
-128,47,-60,-1328,2742,1974
-51,110,115,-1265,1525,2259
-21,-31,9,-1958,-246,1636
-85,-48,-39,-1839,-2138,1583
-59,84,13,-227,-2903,-746
-83,-111,59,1809,-1379,-2326
-111,97,40,1433,-430,-2987
-117,9,-72,881,850,-3477
-24,-37,-78,878,3585,-872
89,-106,49,-204,3665,1164
52,-38,25,-1339,1654,709
-49,94,105,-2091,891,1546
-41,-45,28,-1977,-186,2261
106,-73,-97,-2504,-3098,2106
81,126,8,-347,-2812,-698
121,-99,-44,1614,-1283,-1794
108,47,15,1413,-1108,-3783
117,-103,-111,790,1714,-2789
-31,25,-102,934,4248,-333
-90,-31,-31,387,3241,316
93,63,-71,-679,1412,-109
125,-116,45,-709,-632,845
107,-52,-31,-92,-1296,1723
-47,-39,-27,-790,-3269,2725
68,-1,27,-1396,-4323,3881
-82,0,20,984,-3241,3519
-104,93,66,1594,-2794,4292
-83,-71,77,109,-571,2628
-89,-21,99,377,-2307,3420
111,-78,-66,1652,-926,2849
-83,-108,86,1187,409,2410
78,-49,-128,-1042,-1341,2193
-3,-121,5,393,-598,1861
75,-89,-101,284,1391,795
-26,125,118,387,39,206
-38,4,104,518,175,-35
-21,-12,53,-400,541,-359
0,-59,28,-104,349,-336
15,-102,1,-294,285,-432
48,124,-23,-421,603,-558
57,116,-41,-462,438,-356
83,95,-53,-482,377,-426
67,91,-40,-383,115,-271
76,83,-54,-303,602,-309
-70,88,-3,-1393,2929,-4241
121,115,-57,-2410,2881,-5146
-18,-60,28,-102,5152,-4046
115,-71,24,-1542,5578,-3856
-60,89,77,-2164,5000,-3638
-38,46,117,-2346,6495,-445
-86,-37,115,-660,3025,2145
39,93,-83,-929,2605,1371
41,-71,41,-1638,951,1363
-8,23,-9,-1033,-1228,2526
126,76,27,-1040,-2751,960
-67,-106,-8,485,-2034,-2272
-113,42,-32,1886,-1184,-2153
-116,100,-31,1812,1071,-2943
-94,-24,-76,1000,2199,-1898
-119,-10,-87,262,2977,75
-19,-59,119,-718,2504,525
69,11,-55,-1686,1206,1242
-126,-118,114,-1683,705,1882
-116,-77,-51,-2364,-1144,1804
15,34,-99,-1411,-2739,728
-71,-126,58,-205,-2359,-888
97,112,-115,1000,-2004,-4696
108,60,-107,1274,1448,-2629
-118,63,-109,1395,2254,-471
-104,-108,-81,284,3350,131
127,-43,-16,-160,3146,641
16,24,-45,-700,1984,1334
125,4,-23,-1063,586,643
-12,90,-29,-1440,-1157,1041
-101,124,45,587,-1772,1642
76,81,-117,53,-2698,1532
70,-6,73,-241,-3911,2488
125,-60,59,1007,-3375,3196
122,61,32,-603,-1782,2254
85,47,-107,1203,-1889,3117
-90,-119,85,269,-1062,3083
82,-108,-113,1283,-1210,3163
-91,82,106,1749,-1127,2832
120,-103,109,-306,250,2518
69,118,-121,226,-370,2094
62,-120,-126,-314,183,1547
1,101,-100,657,650,660
0,65,86,360,790,66
-16,34,35,-783,83,-493
-6,-34,37,-727,-169,-499
16,-122,22,248,549,-428
40,-126,-9,-373,712,-884
55,93,-24,-291,443,-744
70,67,-31,-396,453,-446
-45,22,-43,-404,4699,-4016
-128,34,-118,-451,3390,-4762
-33,-115,-37,-1379,3388,-5320
33,70,70,-1474,3587,-5362
75,-49,92,-1338,3756,-3749
52,74,-124,-1230,3798,-2139
28,65,-26,-934,3664,-433
35,2,99,-981,2975,898
112,9,-12,-888,2519,1825
-54,42,99,-1294,1099,2139
9,92,15,-1755,203,2339
-67,-53,-89,-1391,-2647,2227
-52,104,-7,-85,-2693,-577
-23,-112,-43,775,-2258,-2126
116,-119,63,1243,-1419,-2778
-125,37,-90,629,1397,-3214
-69,-87,-97,982,3248,-1514
109,-79,106,3,3535,-110
33,-61,66,-1001,2234,714
102,-23,-90,-1823,1104,1446
-121,-82,94,-1922,172,2189
118,24,-40,-3004,-438,2413
-45,-71,-123,-771,-2897,499
54,-67,100,1108,-1409,-2325
-110,-125,44,1191,-2210,-3778
-124,-2,-113,789,167,-2519
-98,-20,-74,1046,3882,-77
24,3,85,750,3654,309
22,85,-50,-499,1146,-21
117,-60,31,-424,94,248
0,-85,26,375,-865,1729
127,-95,-3,-518,-2882,2607
48,-17,27,-1154,-3356,2933
97,-26,88,842,-2623,3392
-127,82,78,-167,-1974,2803
117,34,78,835,-1419,2658
-76,114,33,-398,-1330,2485
95,105,116,1193,-1422,3049
-86,119,49,1038,-769,2721
-114,-123,58,1407,-749,2815
104,-111,-103,268,395,2433
74,109,104,640,317,1939
11,-108,-104,220,185,1493
20,127,-127,-353,488,336
-27,53,120,414,408,150
-15,-42,70,635,573,-228
-14,-48,47,-921,169,-476
11,-116,21,-606,193,-278
50,118,2,-649,459,-596
75,100,-16,-330,1071,-1088
-79,11,41,-3940,4007,-3739
49,87,-67,-1376,2992,-3758
-71,82,28,-435,4256,-4755
5,6,55,-1549,4864,-4770
71,102,119,-793,4267,-2621
116,0,-89,-662,4505,-1910
121,103,30,-565,4082,-440
-91,-26,16,-1164,3045,727
-68,19,-106,-1016,1278,2102
-10,99,34,-1634,623,2104
-61,114,-39,-1803,-1492,1957
-2,-83,58,-492,-2390,-66
85,117,-7,1453,-1364,-1230
-125,-45,-3,912,-1212,-3106
-95,101,-49,653,846,-3731
-93,-43,-64,738,3154,-1376
17,-89,69,354,3287,557
12,-61,40,-1033,2019,688
124,39,109,-1552,1001,1945
-106,-33,32,-1453,293,2442
97,14,-60,-2022,-1559,2147
-97,-12,-5,-470,-2120,-776
13,19,-110,1557,-1846,-1597
119,-32,3,816,-1503,-4247
-118,-28,-79,1213,832,-1725
-54,-17,-96,1178,3709,1334
112,78,-128,707,2530,60
23,-115,82,-482,850,6
100,118,-32,138,-801,972
17,-125,-41,627,-1542,3076
-64,82,-38,376,-2625,3207
112,-6,51,-1527,-2424,3189
-86,-3,47,501,-1438,3160
-94,-117,64,276,-1601,3901
-90,-109,1,-187,-912,3131
122,-18,-101,-730,-2734,3436
-60,101,86,1897,347,3270
98,-56,-107,388,-431,3154
118,3,108,-1128,-197,1995
41,-103,-88,435,-488,1501
30,82,93,961,943,870
-39,88,112,-98,-43,491
-35,10,84,-449,212,72
-23,-40,91,13,584,-54
4,-63,49,-336,684,-296
36,-98,8,-514,523,-523
55,120,-7,-456,560,-606
61,97,-30,-572,590,-509
78,74,-54,-75,591,-402
92,88,-64,-250,586,-217
9,11,-34,252,6389,-3033
-104,84,70,-578,779,-4680
122,-108,-72,-2423,2379,-6031
-103,29,46,-1152,3754,-4737
71,-69,83,-1295,3475,-3694
117,-64,102,-789,4870,-2743
88,-34,-33,-432,4490,531
-102,-94,-23,-672,3522,1908
-49,-13,-107,-1056,2481,1837
-9,71,22,-1674,569,3344
-118,108,4,-1695,-1062,2006
46,-97,48,-200,-1684,-336
-82,-21,63,-71,-2365,-1664
-90,-98,9,984,-1095,-1732
-84,36,-26,445,-1721,-3826
-115,-28,-83,655,1442,-3532
19,-6,-70,773,3359,-671
113,-76,-39,-664,3052,1129
31,-29,-7,-1528,1685,1530
-103,-111,102,-1839,983,2084
-106,68,-2,-2018,-339,2366
74,-33,-77,-1920,-1829,1052
8,-71,6,-222,-2362,-383
-44,-31,-103,1193,-1331,-860
108,59,-3,433,-1479,-4000
-122,108,-86,1405,2088,-1965
-47,77,-84,1139,4085,216
94,-32,-21,285,3380,522
35,20,-69,-1015,1334,363
87,-89,43,-585,-186,897
4,11,14,535,-1380,2024
-85,-66,-14,78,-2659,2514
30,-22,22,-1104,-4570,3669
104,-92,10,392,-2435,2875
124,-15,38,1291,-1843,3248
-67,127,44,-1349,-405,2268
-126,65,-10,-16,-787,3071
123,-88,-105,-610,-2383,2887
-16,33,0,1367,956,2341
80,-101,-99,-20,-1112,2953
-109,105,107,318,-1,2334
74,-45,-109,-848,-261,1900
81,-125,-105,1050,454,803
22,97,81,627,650,58
-25,3,74,370,33,-147
-2,-49,49,91,448,-25
13,-85,43,140,461,-220
40,123,10,118,523,-312
43,107,6,-125,346,-268
59,96,-4,-225,525,-243
-31,-19,-49,-4297,1515,-3121
-76,-94,-69,-2178,2757,-4329
118,-74,-56,-280,2706,-4143
-49,-54,25,-1886,3900,-5274
69,31,34,-984,4745,-4129
-119,118,55,-622,5191,-3130
109,125,43,227,4816,-674
-125,-27,8,-275,4335,200
116,-9,101,-858,2251,1620
-43,56,-12,-1016,1970,2057
-65,-14,117,-1219,-328,2358
-91,63,81,-1384,-1771,781
95,115,-63,-417,-3263,-3004
126,4,85,668,-2430,-3760
44,-113,-122,-475,-689,-3521
69,-60,118,569,2363,-1509
-83,-83,-126,846,4667,1092
-102,-12,-115,-942,3891,2459
111,87,-121,-1699,2440,2362
55,19,-123,-1714,148,2572
32,105,19,-2050,-2225,2118
-19,-127,-94,-522,-2838,-2341
-45,82,-63,1247,-3022,-2846
77,90,117,152,-2209,-4816
-99,72,-128,1515,3781,-1143
-115,-112,-116,1727,3381,1737
-101,-17,126,1173,2237,923
68,64,69,-547,1970,503
23,120,11,-75,-66,2468
-26,107,-46,537,-953,3145
-56,-7,-66,-1563,-1647,2642
-75,44,-18,-2024,-2351,2641
-62,-1,-26,-36,-1125,2924
-53,46,46,291,-823,3094
-12,108,19,8,32,3213
-72,-86,64,-423,-1074,2847
-58,115,84,394,-741,2908
-77,125,109,306,395,2470
119,124,-121,-671,-631,2018
112,76,-115,-748,-360,1707
75,53,-93,-28,464,1646
42,93,-126,-70,-15,461
25,41,90,-160,296,-245
34,-42,83,315,678,-279
47,-111,24,307,825,-224
66,121,2,-234,509,-379
73,102,-19,-523,402,-154
84,95,-33,-257,505,-39
94,105,-36,-330,354,-309
116,99,-44,-293,309,-373
91,-74,-6,-2172,4811,-2544
-77,108,78,-3182,-366,-2666
-123,-49,-90,-2997,-239,-4186
64,25,-77,-148,2613,-2544
-38,53,28,753,3314,-3838
84,67,33,606,3931,-3936
-80,-16,61,300,3892,-3783
34,100,92,-44,4051,-2801
38,99,-117,-685,4512,-2233
30,-76,-34,-1605,3632,221
70,-5,99,-1414,3142,727
-58,79,-71,-1012,2886,1678
4,-119,76,-901,1620,2954
88,-2,-12,-648,400,3761
-24,-73,-125,-835,-2956,482
-67,-88,36,-138,-2842,-3677
-83,1,44,1176,-2322,-3294
-94,13,-12,1076,1573,-3571
-68,76,-55,819,2768,-122
-74,-57,-4,-83,2660,1222
0,11,-4,-1380,1734,-82
49,86,-107,-1805,756,1483
81,-46,94,-1776,418,1949
72,-2,-40,-2722,-1457,1048
-23,31,-47,-2630,-2540,-786
-14,55,-79,1204,-2175,-756
-123,-47,-113,804,-1207,-3785
-126,92,-101,1397,1213,-3274
-95,88,-70,1618,4547,-57
-101,-49,56,647,3673,706
-8,-55,-15,-545,2080,575
76,65,114,-1348,718,1148
98,-49,58,-770,130,1175
-22,62,42,-296,-1266,1638
-121,36,65,356,-2406,2359
20,74,43,-818,-4935,3216
43,-9,-22,-31,-4517,3811
85,7,5,45,-1129,2222
110,67,71,-243,-1142,2401
78,64,93,284,-1155,3524
-104,108,103,691,-256,3078
-114,-89,123,-324,-1109,3148
-99,117,125,894,11,2733
106,-98,-114,-224,-350,2579
-117,-69,110,-640,109,2064
85,-82,112,542,608,1148
25,-119,102,968,219,285
-6,42,68,617,585,-268
-3,-6,73,-12,661,-289
31,-95,29,-39,839,-369
-85,73,48,-4804,3449,-3306
-12,-75,89,-1219,4206,-4646
68,-77,11,190,2184,-5001
-99,59,64,-500,4643,-5020
-26,-118,66,-63,5323,-3473
37,36,106,-344,4985,-2654
104,-124,126,260,5008,-531
102,80,-117,-644,2884,-146
-71,-42,-98,-884,2378,887
-106,-6,26,-1385,907,2401
-103,-62,-9,-1603,162,1900
92,76,-50,-1282,-1666,939
127,65,44,-68,-2421,-1603
-47,33,1,1160,-1116,-2079
112,-3,74,989,-632,-2646
-120,-101,-66,1098,2583,-2365
-82,96,-86,740,3291,-382
21,-2,-110,-595,2382,55
-29,-1,-39,-1399,1758,559
84,37,-125,-1531,1239,2085
-70,-7,41,-1632,380,2598
-126,-8,-48,-2117,-1798,1800
24,67,10,-1489,-1336,227
96,83,28,885,-2299,-540
-100,-28,-37,1163,-1527,-2458
-111,-60,-26,1302,-1127,-3061
-120,-101,-61,1018,2014,-1926
-54,-66,-81,556,3692,486
-10,-41,-12,-268,2712,-50
36,-6,-63,-1456,1718,1050
96,-48,83,-1415,748,1034
-38,-6,31,-1025,-680,102
86,-77,35,-521,-1667,1255
90,73,33,95,-1811,384
52,18,46,-1411,-2785,940
27,-30,27,-614,-3491,3064
70,-26,88,347,-2734,3138
-113,-120,116,-676,-1755,2830
114,-107,-117,429,-1884,3425
123,-81,-16,233,-1988,3165
-58,-95,-72,1547,-177,3203
85,-41,-43,-378,-980,2683
-106,-94,-85,382,-153,2404
69,126,-102,993,-155,1997
37,-119,-113,64,-521,1231
-12,67,-117,225,-125,645
-4,45,-128,-28,-66,170
-16,17,101,-73,372,-202
28,-48,55,23,909,-549
38,-90,28,21,631,-686
-6,109,-115,-5565,2878,-3872
-43,-61,99,-3219,2918,-3687
36,102,-89,-677,3061,-3563
-50,-80,79,164,3660,-4700
60,70,40,-52,3908,-3815
-50,-41,60,-151,4867,-3481
29,69,108,-1076,3796,-3138
65,103,-124,-695,4568,-1180
58,-10,-100,-449,3518,781
-113,-39,-14,-560,3038,1603
-80,-17,87,-1183,1208,2138
-22,105,-6,-1275,163,2154
-113,-125,-42,-1686,-2193,1660
-2,-19,52,-402,-1782,-452
87,76,-37,1309,-2036,-989
-122,78,-116,1029,-1387,-3283
122,-49,-87,1454,1176,-1646
-112,125,-91,654,2645,-1439
97,-24,28,115,3052,517
98,-11,32,-1042,1989,216
67,65,97,-1632,1197,1196
123,-60,62,-1275,648,1845
-108,-12,-83,-1629,-500,2230
8,97,-89,-860,-2421,-167
-62,20,24,171,-2155,-2081
69,76,-124,979,-1769,-2204
125,7,-99,1141,1118,-2657
-103,-89,-96,1050,2980,-1157
104,-78,74,484,3527,513
71,-36,87,-864,1896,-40
-39,33,-85,-1233,1376,447
60,7,-13,-1686,-526,805
24,124,-10,-710,-1504,1267
-25,119,-6,662,-1664,2054
-65,54,12,648,-3014,2193
-68,59,36,-1570,-2963,2280
34,113,57,2104,-3211,3994
-109,67,122,-728,-1216,3483
106,112,95,413,-1888,4095
-83,-20,-63,832,-2469,3516
-35,-61,-121,1219,-510,3200
-126,-26,-19,835,371,3160
121,-15,-111,451,656,1986
29,-98,-122,468,514,1283
18,100,106,174,551,640
-24,25,61,150,185,52
-12,-31,49,-55,426,-310
-3,-85,36,-18,577,-63
25,-102,20,-265,577,-235
36,-111,12,-227,464,-494
86,92,8,1848,2993,-4147
73,-118,-6,1331,3113,-5150
52,15,13,-350,3646,-5268
57,22,32,651,4766,-3328
-14,-6,-111,426,4327,-2065
-79,16,-99,-1100,3172,118
-43,83,61,-1277,2601,1462
-29,-90,-29,-1756,2091,1587
-44,-71,72,-2072,-345,3030
-23,26,57,-1276,-824,870
41,105,-124,-652,-3305,-1711
123,-96,-35,757,-2388,-3371
-122,126,63,739,-1036,-4063
-127,-58,-96,401,2418,-3163
-112,2,-123,625,3558,-87
98,33,113,-1685,2003,-681
18,34,115,-2086,1208,762
107,-66,48,-1831,1231,2386
-121,-95,-55,-1701,-182,2972
95,36,82,-1013,-1588,1037
-26,24,-100,-101,-2940,-857
-101,35,-114,1082,-2508,-2144
97,-40,-89,557,-704,-4253
126,-19,-111,1158,3773,-913
58,6,-92,1051,4446,513
-67,46,16,-407,2341,387
64,-84,50,-1414,543,-570
43,-50,5,-512,-552,846
-39,24,31,-259,-969,1463
126,-17,40,773,-2310,2312
56,8,64,-874,-5272,3211
-102,-21,-57,-1267,-2161,2095
99,-28,117,1071,-1555,3861
-109,18,96,798,-1597,3968
-43,-10,91,670,-1329,3744
-53,24,118,83,-597,3460
-82,-18,107,232,-203,3046
94,-30,-46,229,-395,2889
119,-110,114,1255,996,2462
43,-48,123,-84,176,1281
-2,-93,-122,21,-392,637
-20,73,120,612,259,108
-18,-12,99,376,582,-278
20,-52,68,-59,443,-356
36,-90,47,-203,409,-485
77,104,11,-91,732,-905
80,47,2,86,731,-602
109,56,-3,-315,632,-325
113,60,-21,-376,277,-170
121,80,-27,-491,513,-127
51,29,111,-8567,2459,-3176
121,-64,-45,-8752,4638,-4716
84,75,90,-153,922,-3064
-13,-50,110,1851,689,-87
-56,64,74,512,4227,-3032
8,15,56,472,4077,-4114
-6,-106,73,555,5564,-3274
87,104,105,-150,5345,-3291
45,-82,-111,-590,4780,-2157
32,-60,-86,-1135,3924,432
75,-12,55,-1228,2576,1518
-81,45,-47,-1246,2359,2050
63,-24,45,-1574,726,2037
42,-43,-74,-1159,-2835,1637
-15,-42,27,-704,-3870,-1287
81,104,114,1035,-1998,-2353
-123,37,-93,1750,1299,-2599
-108,102,-66,1334,2472,-2242
-21,-52,99,18,2942,-439
15,-16,-105,-757,2351,208
-2,44,-82,-1503,1675,791
94,-91,124,-1348,1212,2301
-114,10,58,-1067,748,2326
-120,41,-30,-1424,-806,2244
-67,-72,-80,-1120,-3719,-1124
1,27,100,914,-2412,-1680
122,29,-44,1569,-31,-2743
-92,101,-75,1092,1697,-2498
-68,-18,-79,733,3381,-201
-81,-112,-73,-840,2621,652
-37,48,-34,-905,2335,835
79,-3,95,-961,487,484
32,69,28,-385,-1381,987
18,-5,13,444,-1817,1953
-124,-33,32,-284,-3569,2823
79,-88,32,408,-4857,4345
-92,-19,-2,-1703,-1510,2437
93,6,107,549,-2295,3813
-101,-72,122,-1195,-1550,3828
-69,-60,-103,882,-209,3569
-75,10,-102,12,-1419,3510
-103,-15,-78,631,-289,3075
-112,-43,-76,1321,431,2785
91,-54,111,248,649,2149
14,-68,117,-77,-310,1171
1,-120,108,160,-44,405
-23,40,86,635,394,-149
-13,3,63,153,234,-431
24,-24,40,-878,626,-808
44,-102,23,-631,581,-892
-47,-81,-63,-3771,2000,-4178
-66,115,-100,-1664,3315,-4287
41,93,112,276,2239,-4056
35,97,44,-629,2622,-5497
97,22,41,-476,4371,-4757
-62,-47,73,-628,4720,-3815
19,37,-120,-1005,4356,-3008
37,69,-16,-846,4170,-332
49,-25,48,-1387,3002,909
126,22,-62,-1331,2182,1777
-51,108,105,-1469,1136,2198
-7,-22,23,-1193,-431,2217
97,33,-48,-1341,-2053,1688
8,21,73,489,-2323,-1412
-69,2,-32,1212,-1299,-1437
-100,-10,-15,1065,-646,-2902
-91,116,-58,1227,2220,-2341
-68,21,-96,500,2844,11
49,-48,-101,-620,2759,416
-3,8,-38,-1287,1989,475
-110,-124,91,-1488,1231,2141
-81,34,-19,-2183,72,1795
72,54,-47,-1650,-1337,1631
-63,-126,-89,-358,-2160,310
74,-46,35,403,-2399,-1590
-113,100,43,1334,-1880,-2694
-118,-59,-47,998,1260,-2728
-80,123,-69,298,2407,-1605
-9,57,-101,-927,3632,-389
-14,40,26,-288,2792,567
-75,-39,28,-1205,1155,34
-95,70,-5,-622,207,384
5,31,15,498,-906,1420
-110,0,55,530,-1573,2133
32,3,75,-275,-3591,3397
5,9,52,-773,-4646,3766
78,-14,21,207,-2827,3560
-122,113,115,-380,-2040,3534
43,-113,77,-171,-1859,3520
-125,-54,-84,-371,-1244,3431
-75,-102,99,896,289,3183
83,-23,-91,445,-289,3303
-125,-65,-127,749,89,2601
48,-16,-118,-670,549,1437
20,-94,-121,396,221,1174
-1,114,96,369,158,530
-9,72,60,-247,270,-355
-13,-10,59,319,419,-401
37,-81,17,179,654,-594
51,-92,7,-270,339,-640
-47,-110,127,-1679,3280,-4453
25,-123,-27,-1621,3125,-4728
-121,90,14,-2489,5216,-4725
-104,-99,68,-737,5258,-3321
59,58,-2,101,4513,-1765
24,-74,73,-717,4121,113
50,-89,-74,-1237,2959,1566
-90,-16,76,-1094,2237,2383
-47,85,42,-1490,993,3238
-7,91,-95,-876,-390,3037
92,-39,-93,-1475,-2721,-267
-48,71,89,157,-2162,-2250
-114,-63,123,1452,-971,-2580
-82,-70,54,604,-286,-3596
-89,-94,-30,938,2802,-1834
41,-15,26,70,2699,340
73,-1,77,-695,2550,196
-10,48,-120,-1909,1096,1405
76,-88,93,-1496,1092,2158
-115,-71,-42,-1610,-260,2334
-125,-61,-106,-1107,-1786,1337
-113,-122,-64,289,-1085,-613
-91,-62,65,54,-3326,-1779
-112,-17,-41,925,-584,-2787
-100,87,-17,1127,2109,-1632
-28,-96,110,621,3067,-928
-50,53,-128,263,2184,273
4,26,-102,-792,2129,-49
37,-115,57,-959,254,594
35,12,43,-570,-682,1089
-35,28,2,181,-2292,1422
-97,1,45,-1377,-3543,2075
123,7,13,-1034,-3527,3295
-112,-17,25,13,-2492,3777
-80,64,76,772,-1987,4437
-59,-33,88,-1178,-2174,4006
-44,-16,-45,1440,-1155,4241
-35,44,123,-9,-184,3194
89,65,2,-51,-865,2928
117,4,-79,461,782,1882
42,-63,-113,1039,727,1159
-5,-97,81,-481,309,189
-42,62,84,202,-79,176
-10,12,65,129,315,-155
27,-27,28,-19,616,-565
49,-58,18,-186,352,-756
85,-96,-3,-383,528,-928
91,122,-5,-318,525,-916
105,94,-10,-259,448,-584
112,95,-22,-440,280,-419
90,90,-31,-5607,4488,-3457
33,-1,-54,-1800,2260,-5744
-120,33,114,568,357,-4404
-98,94,46,322,3989,-3612
-89,45,52,318,4081,-3989
-7,-55,83,-387,3948,-3353
-108,89,116,-273,4211,-2936
-22,125,-126,-1439,4227,-2476
-20,24,-97,-1188,3247,1102
53,40,59,-1306,3289,1816
124,79,-9,-1432,2390,1968
-29,99,-108,-1640,1278,2511
30,72,52,-1686,-1176,2681
106,-4,36,-741,-2559,314
-61,74,97,1293,-1630,-1795
-72,-93,-62,1256,-2315,-2479
-96,99,76,1098,-592,-4327
-97,9,-45,510,2734,-2949
12,-43,-113,-66,3745,683
-62,-82,59,-819,2503,1406
80,68,-71,-2017,1131,578
-98,-41,100,-1797,968,1967
-47,20,-86,-2066,-1457,2163
15,43,-92,-673,-2214,406
40,-1,39,1034,-1608,-268
-101,126,2,1730,-1580,-3480
-84,-69,-103,1217,1784,-3023
-51,-125,-67,852,3436,772
97,-79,-25,-271,3074,538
-91,39,17,-1119,1704,-328
122,-58,103,-1394,649,430
74,34,90,-498,-781,1424
-27,28,17,-16,-2976,2550
96,64,-54,-2130,-4581,2436
-103,-11,19,-722,-1123,2451
115,-1,93,1812,-2666,4051
29,-105,120,-1320,-2106,3571
-115,-92,116,-584,-2155,3261
108,-70,-103,653,-1645,4257
-126,-52,-68,788,-1339,3306
127,-12,-127,-47,-88,2812
62,-54,-55,-32,-1442,2387
75,-109,112,-211,1443,1686
20,125,106,1349,472,1840
10,127,60,-39,208,640
-11,127,71,-1127,195,-320
10,17,51,112,681,-434
17,-30,24,-37,326,-687
49,-81,15,-163,629,-652
57,-121,0,-199,406,-470
30,-17,-56,-6210,3468,-2962
53,-1,76,-3863,1122,-4702
76,-13,-49,-313,1446,-4581
-41,31,-45,-98,3533,-3378
107,55,65,476,3741,-4324
-51,-8,43,-155,3887,-4245
86,-108,76,-501,3876,-2951
-59,66,115,-921,4637,-2690
-12,-96,104,-733,4486,-856
93,27,82,-763,4115,514
-120,12,-46,-1250,2689,1662
-23,32,110,-1227,1663,2694
45,-99,19,-1847,-183,2630
-12,75,6,-1557,-1800,2511
46,-122,27,-1081,-3915,638
66,121,-63,400,-2769,-3340
106,-53,-124,492,-2609,-4470
89,66,-112,319,1465,-3710
127,14,-95,1194,4873,-313
-57,-95,105,-287,4445,986
11,-52,84,-1074,3219,1180
24,54,74,-1976,1734,2314
122,71,-36,-1594,405,2689
-36,36,92,-1135,-2175,1974
-29,36,-66,126,-2998,-3149
-90,124,-113,1313,-1906,-2281
-88,4,34,839,-381,-3643
-70,101,-22,914,3447,-503
76,-113,74,745,4121,1705
-31,-38,-31,-758,1767,751
78,91,100,-1535,-72,908
77,-57,57,-501,-990,2063
7,-29,21,-207,-1663,2618
-111,-13,22,-1841,-3967,3122
120,-36,23,-821,-3960,3448
-100,46,41,-491,-2291,4511
-61,67,64,551,-1327,3804
-30,-32,3,-853,4,3452
-78,-72,111,1081,-1368,4116
-5,-42,45,-234,59,2842
-100,-29,86,587,269,2885
68,-14,-87,-150,-411,1943
63,-83,111,-357,1096,1222
1,-81,99,-371,-461,662
2,115,80,-196,81,-191
-8,46,77,-686,495,-641
19,-39,55,-19,782,-651
34,-53,27,-467,334,-776
73,-126,0,-276,596,-673
97,-128,-17,-623,746,-763
14,-6,-49,-4016,2118,-2748
-22,-12,34,-5247,2663,-4905
61,109,-128,932,2373,-4706
111,88,17,144,2670,-4879
-112,-2,40,230,4067,-4383
7,-89,63,-246,4421,-3352
85,127,94,-1292,3568,-2721
-36,14,-118,-1003,4240,-1844
0,46,-54,-1357,3848,-288
45,64,92,-1548,2986,961
-120,73,-9,-1137,2763,1680
-41,97,107,-1617,1245,2282
-17,-46,54,-1736,-318,2353
-98,-17,30,-1523,-2081,1171
59,91,77,247,-2840,-1842
-81,50,-34,1527,-1780,-2384
-104,-45,40,1595,-129,-3129
-99,8,-50,982,2134,-2459
-59,-93,-63,533,3523,233
-104,-126,-117,-697,2792,1378
83,-23,-59,-1606,1389,1245
-97,110,122,-1706,1048,2080
-79,124,-26,-1692,-470,2294
114,-38,-104,-1138,-1885,1223
61,-10,-75,159,-2165,-1512
101,-18,-90,1181,-2399,-3171
-107,58,75,1242,-201,-4058
-101,61,-65,1012,3436,-1061
42,72,122,322,4066,1856
-108,-30,100,-666,2823,786
96,121,-124,-1625,909,450
-91,64,8,-663,-835,754
22,55,-2,949,-1483,2749
76,-10,13,1313,-3063,4069
34,-43,41,-763,-3331,3523
56,-33,-36,-1610,-2243,2363
56,-52,37,292,-1524,3474
85,95,96,-1077,-1883,3732
-111,96,24,603,412,3291
118,-46,118,-378,-1672,3587
-96,-81,64,-209,347,2869
67,-79,-68,-15,-809,2863
-117,-82,-128,-16,1195,2355
45,-79,-110,436,524,1583
36,-103,88,132,377,1212
-11,117,87,-170,-58,262
6,52,54,-92,596,-305
25,-17,44,107,628,-447
29,-69,12,-182,297,-569
51,-111,1,-309,378,-546
12,-24,-112,-6565,2559,-4347
-29,-85,94,-4007,2115,-4832
-62,21,-34,159,-414,-2524
-93,103,-38,-794,2103,-3804
-75,9,52,193,3556,-3762
-12,-74,23,-561,3860,-3450
119,122,43,-1380,4386,-3396
-55,85,102,-2421,3855,-2657
-83,-15,-124,-2409,4251,-1916
-25,115,-78,-1266,4210,753
-4,98,-9,-1682,2842,1200
-119,90,-126,-1334,2041,2485
-11,-73,82,-1322,485,2942
15,29,55,-1154,-515,2885
112,98,25,-1001,-2432,1559
-39,93,-93,547,-2479,-1644
-86,53,75,1246,-1681,-1862
-98,-37,-87,1442,353,-3646
-83,29,-52,1262,2428,-3144
109,74,119,395,3182,264
-73,120,-112,-820,2466,932
106,-83,-67,-1593,1056,1420
115,127,74,-2043,139,2134
-115,119,29,-1968,-560,2771
90,39,-73,-892,-1940,815
26,-122,27,68,-2396,-2520
-124,-61,81,2185,-613,-2040
-112,3,-59,754,717,-3888
-82,6,-69,1051,3802,-461
-87,105,36,158,2954,1304
50,-10,-70,-497,944,141
69,115,84,-1033,-778,718
74,-84,8,-284,257,1443
-105,-108,6,275,-1437,3335
95,-2,-4,-1994,-3655,3097
97,43,4,-986,-3711,3300
-98,-16,57,1182,-2983,4107
-51,80,48,36,-273,2386
-93,-115,46,-897,-1393,2844
-60,114,81,600,-1190,3174
-74,-66,-125,-75,-1572,3108
-120,-100,-70,872,131,2968
93,-19,-44,-68,-387,2539
94,-63,-72,166,145,1652
17,-95,-68,392,517,1293
-9,-121,-125,42,364,592
-15,89,100,600,225,301
-13,28,78,127,350,-350
12,-18,49,-867,657,-1029
45,-96,33,-607,439,-984
-20,12,62,-6544,2623,-3395
-111,35,32,440,2082,-4342
-26,64,57,432,2794,-5070
-6,-74,42,452,4472,-4025
68,97,62,-631,4142,-4008
-49,41,116,-1214,4155,-2703
-18,-10,-88,-1977,4265,-1847
4,-107,58,-1734,3772,-706
76,93,114,-1140,3447,1243
112,104,18,-1168,2694,1596
-47,92,-96,-1175,1604,2296
-15,-97,84,-1580,-431,2630
-47,116,73,-1488,-1823,2341
120,72,-96,-359,-3123,-871
-3,67,44,1264,-1646,-2160
-76,-116,-26,1298,-1116,-3452
-94,100,-24,1350,1501,-3192
-82,-41,-49,472,3092,-362
-104,-116,31,-212,2860,1088
-26,-26,25,-1277,1958,779
47,71,-61,-1533,1308,1525
113,-68,-119,-1706,687,1676
-105,-118,0,-2216,-571,1962
100,-117,-27,-1705,-2362,573
-70,-97,19,-708,-2658,-358
108,95,26,1720,-2094,-3346
119,-19,83,992,-1013,-4548
-128,-2,-85,1304,3671,-860
-40,-75,-69,696,4285,522
48,-41,-35,-167,3371,237
89,-6,-105,-956,1666,815
105,-111,81,-556,-624,1553
72,18,69,92,-1300,1789
-65,-17,3,723,-2637,3223
34,-11,6,-1348,-4044,2744
89,-76,-15,-190,-2645,2317
103,28,96,-815,-922,2617
98,24,84,543,-1699,2799
-113,84,65,-422,-767,2905
-118,83,59,287,-1701,3354
-74,-90,80,-407,-1424,3339
85,-50,-92,-480,-1070,3349
-97,-115,-118,1156,335,2992
81,2,-70,-277,-106,2207
43,-47,-70,752,950,1178
15,-50,-124,394,345,137
-28,108,99,250,89,-500
-11,-25,77,-411,459,-662
25,-95,53,72,966,-582
54,-118,33,-72,638,-548
6,-5,-85,-5990,2435,-1288
-29,105,63,-3044,1322,-4317
68,121,20,-1944,1021,-6025
57,31,28,-206,3931,-4173
43,-21,43,-636,4631,-4299
-94,-53,57,-1949,4554,-4185
55,113,111,-1573,6048,-2920
104,51,71,-204,4784,-400
104,-15,86,-1685,3036,962
74,25,8,-1251,1883,1370
86,82,-16,-1248,2257,2169
-94,-116,-124,-1552,777,2539
-14,47,65,-1420,-261,2129
-107,78,26,-1499,-2763,850
93,-100,-85,511,-2197,-2797
105,61,-117,1829,-1367,-2944
-89,-74,-108,1222,414,-4478
-100,-88,-46,817,2398,-2121
6,28,-104,337,3264,1427
112,-70,-107,-746,2625,765
2,20,-45,-1512,1260,821
122,105,-119,-1408,1035,2041
114,-33,121,-2117,71,2523
113,-126,62,-2139,-873,2089
117,30,35,-1313,-2000,757
-64,-35,28,826,-1476,-78
-113,79,93,568,-3431,-2508
97,62,-114,1461,-276,-4175
-109,103,-86,1199,3076,-3252
-34,17,-58,1120,4868,-921
-104,75,-21,-240,3429,1172
48,-73,34,-1453,1739,637
-119,-127,-121,-1648,580,1375
86,88,82,-1245,-442,659
-64,-93,42,-309,-2252,2143
-112,56,12,430,-3330,2192
88,42,24,-1318,-3604,2286
48,-99,33,1759,-4800,4394
79,-62,7,1112,-978,3559
98,103,111,-1070,-874,2945
-124,90,51,787,-822,3734
92,-32,125,-670,-708,3050
120,-99,125,227,-534,2916
93,-43,125,-260,834,2862
34,-60,-82,236,-179,2118
74,-82,91,-175,1263,1190
8,-112,106,127,-54,965
-2,78,62,-349,306,154
-17,56,69,-455,116,-102
17,-27,44,-122,477,-406
24,85,-9,-4382,1314,-2926
123,107,117,-2115,1246,-4690
39,120,114,-1138,2106,-5556
45,46,26,-80,3628,-4637
51,-77,35,716,4137,-4414
37,-100,43,-106,2634,-4385
-100,115,77,-1846,3690,-2190
-1,118,15,-700,4387,-329
24,30,65,-2268,2740,51
83,10,30,-1826,2843,668
114,51,-20,-1272,2080,2029
-65,-120,-116,-1418,1727,2341
-21,119,-28,-1568,-469,2622
123,79,-45,-775,-1860,1395
97,-32,20,218,-2599,-221
-75,-91,-37,1645,-1430,-597
-79,9,42,2154,-944,-557
-89,-37,11,759,-1388,-3806
-100,-126,-54,273,1281,-3893
19,-99,-94,-506,2737,-1776
88,-48,-67,-656,3187,574
-62,20,-11,-2156,1480,794
72,-122,-70,-1706,1658,1509
-122,36,105,-2015,778,1722
-104,-12,-1,-1501,-56,2284
73,50,-113,-533,-1192,709
-98,-19,-48,473,-1863,-1151
-85,93,123,1730,-1936,-1593
-83,-123,-81,707,-1705,-3731
-100,95,-19,364,2708,-2316
14,117,-63,654,4971,1579
-126,-46,100,-236,2392,849
-89,-70,-11,-1532,-572,-238
120,61,-19,-808,-974,1056
-12,14,-9,850,-2301,2857
-114,-25,26,-29,-2236,2201
60,-37,73,131,-3440,4203
88,-49,38,-297,-2324,3204
119,56,88,241,-1633,3749
-125,77,60,671,-1148,4154
94,-23,-119,-299,-725,3461
-91,-104,102,1774,-194,3820
64,39,-86,-1071,-294,2726
81,-32,-90,-500,-7,2219
48,123,112,1093,1118,1676
40,123,56,379,641,1144
-23,102,89,-602,-215,441
9,28,70,-430,874,-201
-17,1,78,-177,313,-238
60,23,5,-2552,1187,-1703
120,64,21,-1722,3764,-5153
-20,2,49,-3062,5539,-3373
50,30,-121,-767,4849,-1528
106,65,101,-1003,4436,-571
101,-19,-91,-1543,3184,714
-71,28,23,-1083,2741,1410
-62,58,-67,-1183,1682,2144
-75,-118,115,-1036,630,2818
-54,108,30,-1663,-1042,1704
70,124,24,-1207,-3000,-935
-80,51,-58,768,-1739,-1542
125,-7,-36,864,-1534,-3393
-85,55,-30,1580,2104,-3493
-75,108,-40,914,2172,-835
-67,-118,59,-579,2837,1243
52,-56,34,-974,2382,219
-114,40,109,-1533,1119,1699
-53,-51,41,-1650,742,2486
-121,11,-82,-1717,-1262,2104
-107,17,-87,-1258,-3044,-985
-25,106,116,1424,-1676,-1012
-100,-85,-92,1261,-1187,-4041
-103,-95,-26,919,1498,-2160
-49,75,-58,927,3870,1396
-2,-83,-38,-205,2763,130
31,83,125,-1231,1481,866
87,0,32,-733,265,790
27,-122,5,-596,-832,945
-114,55,41,27,-2041,1713
84,-14,99,265,-2656,2950
-83,-34,109,-166,-1817,3000
26,52,112,-2435,-3368,3711
67,0,-128,188,-2093,2960
-57,30,95,413,-991,3333
-114,-76,-80,-437,-1364,3523
-110,-108,-123,538,-790,3305
-125,-90,-115,1021,-786,3339
98,-27,-87,-976,211,2158
107,-100,89,402,33,1616
51,120,107,683,744,666
47,114,78,-321,1121,-763
-7,43,100,-77,262,-28
12,-17,56,-319,394,203
11,-32,43,-364,23,-74
59,-95,10,-75,642,-621
73,-118,12,-220,386,-328
94,-126,-9,-502,707,-463
101,-113,-19,-901,417,-625
114,107,-17,-149,294,-198
116,127,-23,-371,397,-174
-6,-38,-63,-6446,3487,-2898
-28,105,9,-2630,3915,-2186
103,-115,-13,839,2321,-5537
-104,43,80,-569,4426,-4819
-75,123,64,482,4694,-3590
14,57,90,-202,4629,-3436
94,96,-113,-352,5165,-2154
87,-31,41,-885,4732,-447
48,-68,-23,-1370,2740,1107
-112,34,-114,-1339,2226,2639
-21,124,83,-1688,942,2644
75,-100,-13,-1769,-1666,2505
-48,0,29,-1316,-2840,-620
-85,-58,-34,436,-2340,-2824
92,-85,12,1907,-847,-2573
-121,102,-88,916,697,-3696
-123,44,-78,1395,3005,-1767
98,83,76,-333,2927,533
91,-109,127,-1111,2451,815
-27,76,-59,-2249,1174,1802
93,-35,-99,-1576,1368,2351
-45,-58,26,-2022,-178,1969
4,-115,-61,-1743,-2328,851
38,-8,-32,-520,-3817,-327
50,-37,126,1510,-1825,-3472
113,53,-77,2525,868,-4150
-115,-37,-107,1041,2740,-3069
19,-82,-95,426,4060,2168
114,-111,-109,-183,2848,247
106,-107,89,-1780,440,613
-99,32,58,-290,223,784
10,80,41,-131,-1440,1342
-95,-17,25,1097,-2788,2925
92,-70,39,645,-3364,3545
95,-48,49,445,-3194,4420
109,-33,28,787,-2023,3489
-111,45,65,78,-1040,3646
-89,-118,11,-471,-405,3337
-117,-73,110,813,-616,3592
126,-99,104,433,368,3461
125,-4,-114,-101,75,2906
43,-26,-67,-701,1053,2098
62,-126,-118,1061,1124,1872
5,-124,61,-48,69,1191
-9,102,57,-699,-88,59
17,6,36,173,548,-188
19,-57,16,154,380,-526
29,-102,12,185,267,-478
40,-128,5,-415,334,-538
57,96,-5,-560,320,-624
-17,79,-8,-4306,2530,-3964
-93,-18,-64,-3498,3358,-4455
-51,-7,-94,265,2370,-3138
-122,23,39,44,3048,-3564
-85,33,53,-323,3617,-4051
10,-67,84,-665,3776,-3410
-120,-98,119,-1272,4370,-2542
43,-6,-85,-347,5003,-995
103,1,-57,-1062,4053,269
-107,-54,46,-826,3105,1995
-41,-58,-84,-1293,2237,2254
-7,49,94,-1885,331,3396
71,65,-6,-1738,-1581,1961
127,96,44,-895,-3066,-1494
77,-102,-29,533,-2129,-3018
-114,-19,-5,1511,-1844,-4559
121,47,-19,1325,3139,-3905
-80,22,-54,461,3829,393
13,9,-42,-377,2733,2866
71,11,-72,-1789,1457,897
-122,112,-108,-1616,1198,1751
-77,-32,55,-1963,322,2776
-48,98,-66,-2332,-1807,1556
-26,9,-7,-853,-2841,-1010
-63,94,-67,1070,-2235,-2531
-126,-8,-16,1138,-1670,-3616
-125,-5,-80,1218,3037,-2114
-38,33,-58,1464,4670,900
-19,-83,-22,-838,3288,885
-19,-3,29,-1115,2759,984
104,-4,66,-1177,755,822
73,118,18,-1099,-11,520
-62,-112,21,244,-1711,1523
120,52,42,410,-2548,2132
33,21,78,-739,-3727,3089
90,-118,58,673,-3170,2981
83,-9,52,-1155,-2800,3096
93,-43,93,406,-2259,3686
-75,94,97,-1149,-743,3189
-94,-79,-124,956,-951,3568
116,-52,-98,-44,-312,3284
117,-26,115,-1118,-516,2474
71,-85,-63,140,272,2502
83,-99,-70,1056,520,1845
23,-89,114,160,527,1008
-9,-117,96,-849,-452,252
-6,39,79,78,351,-33
0,-18,45,-81,627,-353
16,-47,21,-196,491,-343
39,-77,15,-14,506,-395
-27,37,14,-3618,2131,-3731
55,90,5,-244,1948,-4724
-4,-88,1,-361,2966,-5286
32,38,57,318,3988,-4220
104,29,59,-1107,2788,-4570
-112,-72,89,-1705,3993,-4226
-23,87,-120,-1017,4370,-758
19,-22,-44,-1131,3351,1175
114,-32,74,-1037,3340,964
-117,-17,-89,-1567,1802,1702
-47,33,96,-1698,977,2405
-14,49,13,-2415,-1123,2148
72,113,4,-920,-2941,-108
-108,-69,-33,1257,-1550,-2335
-110,-66,-107,2034,-562,-2366
-105,-63,-41,1334,1182,-2202
-83,54,-52,824,3042,-756
89,-99,24,-293,2696,652
109,-10,78,-1077,2117,168
28,8,-47,-1759,1544,1119
-103,-83,101,-1817,769,2237
-96,113,42,-2238,-417,1871
86,-65,-14,-1964,-2572,1227
81,125,90,598,-465,-1395
-82,56,72,1167,-3215,-2749
-106,29,-55,1224,-943,-5083
-117,12,-33,1031,2720,-1838
-58,-30,-65,529,4026,2799
-17,-126,-26,-366,2680,949
73,91,-72,-1560,1845,614
125,31,49,-1088,-157,240
63,117,5,-371,-627,989
102,19,15,819,-3515,2303
101,-78,13,-650,-5144,2787
-70,-80,-51,62,-3687,3328
117,-28,6,-593,-2156,2735
-92,9,66,1490,-2121,3754
-78,-113,46,-578,-1271,3423
-118,-33,-80,819,-1068,4071
-45,-18,-61,892,-592,3378
-72,20,-63,330,855,2987
62,65,-36,-200,-261,2182
62,36,-83,-293,277,842
-19,-123,-115,1328,390,261
-13,107,86,-554,635,-470
-23,19,50,-257,130,-438
14,-54,54,-235,135,-593
55,-94,29,-684,787,-804
56,124,44,-13,1010,-460
72,105,-12,-170,825,-675
-35,-95,114,-865,2487,-4684
127,63,22,-311,3108,-5209
32,-17,1,-1097,4103,-5487
81,71,-9,-1269,5334,-5288
13,42,-100,-4466,6694,-4242
0,-7,115,-256,2990,-1350
38,113,-5,-704,3277,2219
109,-99,-100,-1108,1942,3199
-70,70,60,-2026,496,2530
-56,-78,-4,-1732,-1752,1084
-67,-23,48,-1444,-2701,-1604
69,77,-20,813,-972,-1220
124,-23,-83,1223,-1247,-2797
-112,28,-79,1910,1866,-3036
-92,28,-66,1588,3412,-284
108,110,-59,-482,2020,-161
70,-24,67,-1207,2218,371
6,34,-98,-1688,1430,1835
125,-86,122,-1961,709,2695
-72,94,59,-2182,-322,2219
-99,27,-44,-2546,-3230,42
-115,-94,76,-1174,-2863,-1933
52,-20,-16,2208,-2855,-5748
96,21,-96,1529,3235,-4502
-112,90,-97,1419,3895,-261
20,5,5,-217,3140,1507
-2,-98,16,-1121,2455,510
-35,72,67,-1025,1338,2602
-69,24,18,-1110,-574,1206
36,-128,27,-550,-2716,889
-106,60,76,378,-3787,2776
104,-2,58,-81,-6677,4859
-73,-19,-33,643,-2061,2752
-78,-116,88,-567,-1743,3424
69,-96,-114,-172,-2282,4149
-73,13,-26,1070,-776,3827
-40,22,-70,1084,-615,3262
103,24,8,-299,-58,2953
85,-57,-60,892,372,2286
44,36,-100,-644,342,863
-12,-61,-115,267,198,162
-35,67,84,93,407,-248
-7,12,77,262,694,-89
26,-23,39,-378,700,-833
52,-66,21,-1833,326,-1477
71,-108,21,-1466,182,-1470
94,48,3,212,669,-80
81,-115,-19,-664,571,-8
84,-114,-29,-116,236,173
98,-64,-29,-591,615,-48
-4,4,-73,-1285,5115,-4043
51,32,35,-3188,5881,-4867
-48,-96,78,576,3181,-3708
-124,115,122,-1090,5091,-3712
80,-88,127,125,4736,-1184
79,-54,-84,10,4085,406
105,-114,-1,-917,2684,2063
-121,-37,-41,-924,1480,2687
-39,57,125,-1208,823,1909
-28,-19,59,-1855,-1228,1032
124,12,94,-1450,-2165,-373
-126,-58,10,-1418,-2515,-1747
-110,-81,-5,1186,-524,-2002
-97,0,84,1184,154,-3196
-105,121,-69,1313,2550,-1577
-46,117,-104,971,3104,-465
-53,0,-46,-148,2576,-238
-109,-31,19,-809,2001,819
-30,45,-51,-1561,1254,1560
25,-95,-94,-1846,512,1991
99,125,72,-2263,-657,1488
81,-121,5,-2358,-2559,111
-111,53,-128,-955,-1609,-438
47,-128,-51,79,-2020,-1453
107,27,-48,754,-752,-3249
119,-25,-105,1350,1200,-2395
-110,116,-99,976,2737,-1209
-4,-38,91,975,3083,706
3,-48,-105,205,2843,679
-17,-44,-73,-1526,1446,1570
55,116,108,-556,-226,2669
60,73,36,-1724,-995,1141
-11,42,62,13,-1379,2159
-100,113,92,-1581,-2388,788
90,29,117,-1007,-2859,2221
97,8,127,-88,-3389,2556
-115,32,-124,-444,-1405,2692
117,105,-92,-924,-1968,2229
-66,-97,-95,-658,-1359,2623
109,-52,-1,-562,-1165,2246
105,-98,-14,208,-649,2412
82,-89,-9,-124,58,2197
60,-84,-31,360,-576,1738
33,-74,-61,-414,-99,580
-13,111,-57,-26,-119,188
5,30,-108,-59,422,94
29,-20,102,-346,559,-351
35,-54,79,-333,442,-123
68,-99,45,33,482,142
96,-75,33,-99,572,9
-32,-108,125,-2222,3098,-3970
94,80,82,-848,3112,-5256
36,84,-7,-940,3722,-5868
-19,-10,62,464,3872,-2884
61,-68,88,272,3657,-3133
-86,124,118,-573,4015,-3491
-122,18,-95,-1060,3433,-3672
88,-73,-122,23,5695,894
-105,52,101,-963,3236,472
-19,-1,-24,-1191,2553,1404
60,-58,121,-1245,1720,2983
50,-42,95,-2166,62,3508
126,76,56,-1928,-1663,4556
24,-73,3,-1534,-4558,-3603
-44,-22,-9,1830,-1477,-3345
-112,69,16,1660,-975,-3648
-92,-128,-72,646,1149,-3523
-60,117,-122,-7,2627,496
-8,-75,-56,-848,2922,1332
-80,63,47,-1303,2104,493
68,-91,-116,-1701,1346,1614
-103,-37,53,-1778,801,2355
-65,-3,-81,-2155,-1093,2384
43,-112,-45,-1318,-2981,-960
-92,32,72,235,-2185,-2672
85,77,-105,1327,-1530,-2807
-124,-28,-100,1321,635,-3304
-100,13,-92,1304,3579,-677
-125,37,43,15,3509,1838
-106,-108,64,-830,2008,1079
72,44,-91,-1577,1026,1133
-103,23,4,-517,-1221,2069
13,127,-51,-1155,-3943,1376
-39,65,-80,147,-2676,1916
75,12,-2,524,-2977,2767
83,21,32,418,-1428,2797
55,83,88,-4,-713,2736
67,102,-108,-395,-1168,3446
-84,-103,102,118,118,2962
82,-67,-63,-868,-1317,3042
-105,94,-101,255,180,2968
127,-77,-97,120,-358,2937
63,-103,-81,110,-321,1932
70,111,111,278,642,1511
34,101,80,754,-40,1375
3,80,51,91,210,299
-3,2,57,156,259,-340
10,-55,35,153,455,-305
33,-96,35,-266,326,-563
50,116,24,-487,393,-575
-105,115,-61,-1810,3346,-5157
38,127,-96,90,2859,-3990
105,-123,15,-822,2831,-4396
-13,112,36,-1753,3625,-4783
10,-10,64,-1283,4294,-4100
75,-9,121,-1057,4820,-3100
20,45,-17,-550,3755,-477
31,-81,75,-518,3430,686
97,118,-103,-1020,2169,2541
-98,-37,104,-1495,1004,2849
-79,119,43,-2037,-234,2243
-112,-13,-21,-2393,-2496,1042
-69,77,-125,-481,-2301,-1319
73,54,-6,1289,-1323,-913
95,109,-32,1141,-1230,-3904
123,-43,-90,1301,1347,-2719
-115,112,-100,977,3310,-944
105,-65,62,-209,2993,516
-98,-32,80,-1044,2565,465
127,27,-125,-1596,1588,1531
-55,-106,71,-1726,770,2398
-11,-118,-56,-2171,-872,2345
103,91,-82,-1719,-2549,420
-12,-12,81,52,-2320,-1432
-92,-100,29,998,-1948,-1841
91,79,-91,1434,-117,-2540
-116,-7,-106,1127,3145,-2038
-10,-36,-99,913,3714,13
117,-99,79,152,2275,1088
43,27,-120,-1152,675,898
101,-120,26,-364,-1098,1888
77,-45,-56,-4,-1511,2418
-116,-26,-35,-1608,-2943,1937
104,26,25,-2664,-2024,1551
106,6,123,256,-2251,3023
-123,-120,-124,-1174,-981,2863
-118,-104,-111,-683,-1458,2611
-110,-54,-61,-448,-1556,3017
-94,-84,-70,-220,-326,2643
-109,-79,-75,-343,-1405,2424
-103,116,-71,364,-136,2737
113,-126,-65,416,-483,2417
81,-108,-87,130,-498,1735
56,113,-103,477,262,913
-1,94,-113,7,125,456
-7,35,-126,-201,338,248
1,7,123,-282,478,-128
44,-8,76,-910,522,-734
77,-67,43,-251,697,-653
102,-83,13,-331,713,-710
-101,82,60,-72,3301,-4819
-31,-12,61,55,3863,-4195
-18,-99,92,-179,3708,-3644
13,26,-118,-930,3899,-2979
-20,-105,27,-795,3720,-1553
-5,-17,55,-275,3604,-107
-20,-54,-90,-1760,1737,519
21,-43,-104,-1128,1524,2203
106,11,124,-1811,437,2671
-47,114,94,-1740,-407,3329
-27,90,54,-2411,-2039,1818
4,85,-123,-659,-3509,-164
-29,-52,42,368,-2646,-2891
116,-6,-123,1707,-127,-3704
-123,-39,-80,1212,2558,-3845
-55,52,-85,1039,3367,-1474
-41,-56,4,-189,2868,381
-11,-56,-9,-1168,2347,170
49,-9,-113,-1710,1331,2211
-90,-126,88,-1399,1244,3090
-63,107,-59,-2349,-649,2503
-73,-102,-67,-2292,-2082,597
-108,43,25,-1169,-3759,-2696
74,11,101,2365,-1861,-907
109,8,-94,1312,-376,-4217
-119,20,-111,1292,4086,-2704
73,-1,-89,1376,4544,2050
-97,-96,121,485,1852,861
-96,-42,57,-1165,896,793
-99,74,-20,-1225,-966,2389
108,-89,-70,-960,-1660,2864
-95,-17,-21,-2077,-2980,2050
117,54,44,-2356,-2410,1986
125,-19,-127,73,-1622,2951
113,117,-92,-1399,-2164,2455
-105,102,-109,-1019,-1006,2122
-109,-119,-43,115,-1252,2671
-71,-123,-82,441,-479,2707
-126,-63,-59,-58,-838,2558
125,125,-72,708,-622,2351
115,-115,-90,593,-213,2337
86,-101,-121,-89,584,1880
66,-109,-121,531,-40,1334
40,99,122,464,448,427
30,23,109,626,972,83
42,-25,86,-222,398,-478
80,-127,66,-11,924,-217
80,116,51,-407,406,-93
67,-119,27,-420,286,243
98,-100,23,-415,415,-176
9,112,-108,-488,3359,-4488
-99,56,38,365,4633,-4808
-43,6,45,-748,4913,-5172
7,115,104,-724,4813,-3797
91,82,23,110,3754,-2548
9,-8,117,-996,3462,-1287
-18,-104,-17,-881,2557,1276
65,-52,-112,-1411,1890,2149
-87,32,105,-1171,1346,2795
-46,-68,21,-1755,-117,2448
-102,62,38,-1143,-1346,1103
-115,20,108,-286,-1994,-2067
-2,-3,-23,1189,-1637,-1037
-106,65,31,1029,-517,-3825
-81,-66,-53,1027,1611,-2785
-71,85,-92,564,2857,-189
-66,-46,-82,-279,2604,769
-81,-10,-10,-1557,1752,110
60,45,-91,-1502,1393,2109
-97,-84,97,-1557,730,2605
-91,-110,46,-2234,-917,2977
-126,-13,-28,-1081,-1734,-261
-26,81,-7,606,-1736,-1554
-60,-88,-87,1037,-1753,-2191
-122,-121,46,644,-880,-3651
-89,-42,-51,1356,3318,-355
-35,25,-74,548,3839,-54
99,-76,-124,-102,2787,37
32,-45,-67,-1538,1342,1159
121,-104,61,-1131,-126,781
77,64,19,-336,-1283,1254
-27,51,-28,-611,-2322,1631
-121,81,-15,-2039,-3958,1603
75,23,-19,-1392,-3502,1985
103,39,103,-414,-2844,3197
51,31,96,445,-4262,4140
-101,127,124,-395,-2078,3290
-10,-87,99,-124,676,2487
-115,-63,-78,36,-1109,3106
-64,-72,-125,371,-422,2307
-126,-43,-84,-99,-275,2213
94,-95,-72,964,-78,1814
73,-127,88,865,605,955
11,-123,109,330,-350,610
-3,50,84,11,184,107
1,23,68,117,277,-152
34,4,50,-562,621,-835
60,-110,33,241,949,-594
64,-107,0,-387,654,-676
82,-128,-11,-585,500,-628
-76,-52,-77,-4722,4377,-3653
-57,19,54,1365,2946,-5429
14,124,20,-1105,3579,-5178
-96,-103,32,12,5049,-4148
-66,11,83,-367,4824,-3235
124,-122,81,-547,4323,-1879
88,-3,-114,-375,3925,-451
38,-89,-64,-1173,2388,729
86,-66,-104,-1183,1912,1854
73,-5,-118,-1491,833,2370
-113,91,101,-1329,281,2509
-55,79,37,-988,-227,2226
70,48,-38,-1747,-3064,-1120
117,-114,-39,791,-1192,-1827
-106,-73,-109,1317,-1547,-1613
-113,-20,-124,525,-259,-4160
-104,-72,-72,1594,3551,-1539
35,-20,-115,493,3166,-186
9,-56,-79,-638,2370,-70
14,-48,30,-1218,2359,1032
-121,77,-82,-1935,1331,1908
-21,-15,81,-1831,256,2303
-28,-46,-19,-2439,-1228,2488
-37,9,-80,-1559,-2275,734
90,15,25,2,-2800,-829
-22,31,-25,329,-2810,-2319
34,19,-120,702,-1584,-3534
105,59,125,1830,3922,-1974
-27,66,-82,867,4509,-1378
-62,112,-55,-182,2974,464
-126,14,-113,-1484,584,493
-11,-81,-31,-1141,-1092,1192
-71,-91,-59,-15,-1669,2666
40,-12,-73,-1966,-2772,1875
-79,-5,-12,-1245,-4136,3035
-17,64,35,-607,-2527,3017
-53,108,-92,-776,-1844,3053
-52,-58,-22,-466,-2291,3381
-3,-28,-40,219,-1052,3341
117,14,75,-283,-1619,3123
-47,-37,-24,323,-134,2443
60,1,-16,-1026,-883,1906
59,-83,-25,404,-12,1435
23,-107,-94,689,351,549
-9,119,124,-158,48,-152
4,0,99,261,428,-71
39,-23,62,-219,831,-457
45,-69,43,126,558,-532
86,-105,15,-316,719,-561
96,-122,-1,-237,547,-487
-49,1,78,-1624,2190,-5083
80,-38,-54,-861,3690,-5077
-55,76,25,-336,3645,-5417
42,-49,24,-1836,5464,-4756
-9,82,72,-4901,6565,-2564
81,-39,107,200,3461,-1170
-3,-122,-2,-1059,3224,1391
77,-65,-39,-146,2964,2530
82,17,100,-1498,1454,1946
-117,83,54,-1073,310,3286
-44,33,4,-2251,-1395,1820
-44,-114,45,-1401,-2336,523
90,-79,-33,-137,-2970,-2100
-79,-116,-2,1115,-894,-3337
89,10,-65,1149,487,-3791
-115,102,-113,1005,3127,-3025
91,-20,-116,835,3218,-563
-123,-92,98,-723,2419,809
-49,-9,-43,-1675,1461,947
42,-123,-126,-1265,1235,2131
68,16,65,-1858,173,1882
110,-63,-18,-1767,-774,2221
118,-26,-32,-1901,-1805,-378
47,-9,51,-2055,-3743,-1992
-69,-69,-22,1290,-400,-2048
73,-53,-72,1106,117,-3723
-120,-9,-119,1980,4540,-1909
61,-126,-115,1798,4251,1192
-98,-79,23,274,1540,861
63,-16,86,-872,196,425
113,88,5,-1103,-524,1825
72,-48,-18,-151,-980,2561
-96,57,46,-1919,-1683,1113
67,-115,125,-2526,-2631,1417
54,71,-128,-1034,-4816,3222
120,27,6,-666,-2868,2500
-57,67,-126,308,-1112,2117
-42,-105,-111,386,-996,2443
-94,-97,-93,256,-774,2565
-113,-90,-33,119,-816,2543
-71,124,-73,1504,168,2527
71,-75,-36,-266,118,2225
60,-126,-67,49,-153,1658
65,125,-91,98,261,1055
44,127,-110,-352,-190,239
35,31,117,127,364,10
30,7,82,-523,455,-481
43,-39,66,-358,293,-451
76,-99,58,156,717,-328
86,-95,34,-130,341,-487
-77,96,-51,-922,2601,-4596
-16,5,35,709,3056,-3752
112,-52,42,193,3769,-4474
-61,95,67,-103,4926,-3925
-89,-91,113,421,4563,-2641
104,-34,-39,-306,4239,-1288
109,116,32,-832,3458,257
-108,-126,-81,-720,2579,1567
7,-71,92,-1060,2495,2285
41,72,14,-1813,-115,3093
88,-79,-109,-2634,-1987,2782
34,23,-127,-1426,-4915,-2671
3,-17,49,1237,-2403,-3874
111,-56,-87,945,-1059,-4291
110,45,-96,1371,2905,-3032
13,-75,-91,1015,3795,288
115,-32,-60,-235,2903,591
-23,12,-1,-1261,2148,46
61,21,-91,-1242,1586,2300
-46,-120,60,-1507,1103,2808
-53,65,-40,-2557,-1067,2881
-29,102,-88,-2015,-1746,2080
-100,120,-41,-746,-3216,-627
37,119,-40,1049,-1768,-2503
79,-21,49,744,-2314,-4657
105,-91,-88,1057,2787,-4095
42,-81,-80,1455,5014,-241
122,59,-42,1107,2991,1604
-67,-65,105,-773,1500,1191
12,61,-24,-217,-45,2954
-73,-67,-67,-228,-2410,3235
-102,-6,-70,-2439,-4731,2095
-81,-67,-59,-1665,-2239,2038
-48,-25,23,-750,-1187,2715
-121,30,-116,-259,-1875,3643
-52,109,76,-96,-726,3696
-63,-81,-89,942,-671,3607
-18,-35,122,-132,-94,3372
-75,-33,120,305,122,2657
119,-96,-127,793,50,1856
123,76,82,703,576,1574
77,53,75,599,266,1030
71,44,46,134,659,82
67,-45,57,496,967,-66
46,-79,47,257,623,-292
74,124,51,-272,804,-231
61,76,9,9,769,-277
76,45,24,548,577,129
112,76,16,-58,697,-22
107,75,20,-11,450,-152
119,5,13,648,4420,-4805
-100,-117,37,-84,4366,-4193
123,34,70,-502,4502,-3247
78,-100,-45,274,3313,-2140
11,-11,39,-1016,3375,-380
15,-95,-74,-867,2593,1123
64,-77,120,-1088,1752,1991
115,-26,78,-1555,812,1957
-89,40,59,-1883,-369,3155
-84,-64,-17,-2574,-2393,1687
-109,-98,-102,-1371,-2931,-1340
126,-97,53,1177,-692,-1917
111,-80,-35,520,-1267,-4092
97,24,-112,1291,1194,-1865
-127,-14,125,778,2795,-2033
-86,-17,115,425,3450,-317
-105,-5,106,-589,2978,272
63,10,-103,-892,1974,1533
-32,112,15,-1434,820,2140
-51,-42,-23,-2457,-459,2670
-108,-36,-33,-2023,-3303,1538
91,23,-116,-1325,-1696,-275
30,123,22,1556,-1325,-2200
121,-70,35,1027,197,-3952
126,-42,-72,1566,2591,-2332
-35,92,-68,1462,4059,-708
92,-111,-83,326,2844,689
41,-55,-53,-1169,944,746
115,32,92,-517,-813,1700
116,124,-12,-55,-1620,2981
-103,-94,-36,-1411,-4184,2693
91,38,-28,-2980,-3045,1972
125,52,53,-716,-1781,2248
-97,101,-125,-188,-1042,2035
-108,-116,118,-902,-561,2248
-115,-119,-127,-411,-1648,2276
-27,122,89,60,-709,2166
-89,-109,114,-327,-953,2298
90,112,-38,410,-2076,2595
-49,86,-73,687,137,2561
-121,115,-110,805,-118,2252
69,90,101,345,-24,1739
43,115,105,-372,-371,1416
11,101,96,33,14,736
14,77,109,719,575,-184
36,6,84,1158,864,-996
91,-19,39,-1042,1026,-1676
84,105,8,31,772,-988
96,66,-10,-181,631,-806
124,81,-34,-1220,641,-594
-45,-89,30,-504,3622,-4075
-26,22,-43,-541,3990,-3664
-105,109,105,-1082,4230,-2841
75,-41,-37,-398,4119,-433
80,-72,-92,-723,3646,1606
119,-87,80,-1641,1808,2674
-51,43,-15,-1943,-364,2958
-58,48,-31,-2408,-1779,1845
-41,-40,86,-1285,-2796,-979
99,-53,-58,528,-2161,-1753
111,127,-17,45,-1751,-2619
105,118,-76,614,1358,-3080
-100,-89,-115,619,2753,-2039
-102,-47,46,759,3516,-650
119,2,17,-880,2559,574
-15,2,-69,-1627,1729,1647
112,97,125,-1327,1589,2679
-56,5,-1,-2035,167,2556
-54,-29,-89,-2309,-1642,2255
46,96,-41,-1318,-2873,-79
90,70,-66,122,-1982,-2440
113,-103,-60,567,-2237,-3507
95,122,-110,934,815,-3512
-13,111,-107,2141,3717,-804
-15,-25,0,1103,3268,606
-54,-101,5,752,2650,1096
18,-22,-91,-770,1506,2768
84,22,69,-1030,-578,2954
87,-124,-44,-2876,-2054,1923
34,-27,-43,-4095,-3075,1599
-29,42,23,-2124,-2691,2463
28,87,-125,67,-745,2951
17,-73,-97,-956,-1124,2744
4,-68,-105,-1298,-1808,2790
-65,-60,6,-589,-1818,2731
-36,-49,7,-299,-678,2632
121,-16,39,-148,-581,2050
117,-78,-54,1034,-34,1652
62,-116,124,792,-64,778
32,108,103,-127,-329,346
27,22,92,-26,504,131
23,1,97,148,349,-251
60,-25,90,-539,733,-524
79,-116,77,-86,588,-334
107,-104,46,-779,695,-523
121,126,23,-353,620,-346
-106,116,-3,-80,651,-165
-110,-115,-10,-393,475,-114
-110,-97,-12,-570,569,-133
-86,-119,-7,-28,717,100
63,-105,-12,-222,2656,-6342
123,-36,11,288,4201,-4846
-48,-88,19,-412,4443,-4881
-49,24,65,-1484,4675,-3398
-106,73,64,-103,4231,-1231
-123,-67,28,112,4143,-416
94,125,73,-893,2638,830
84,-79,7,-1268,801,2871
-89,80,27,-1116,340,3249
-57,-4,-41,-2215,-1013,1414
105,114,-2,-1675,-2897,391
59,36,-80,-505,-2566,-1811
-22,86,117,-318,-2331,-3701
11,-94,-125,666,667,-2572
-119,98,103,1541,3293,-1875
-30,122,-114,172,4062,-1846
123,-32,-64,343,3381,376
-22,-49,-28,-1571,2612,743
86,0,76,-1502,1069,2791
-89,-62,17,-2131,652,2378
-87,42,-69,-2151,-1709,2833
-78,-107,-49,-1532,-2210,101
111,112,86,162,-2189,-1730
-114,55,102,581,-2759,-3654
75,-74,-117,1461,568,-3389
-118,-65,-113,2408,4218,-1427
-71,97,-115,1008,3434,252
-65,-75,53,-53,1450,653
86,10,98,-848,355,905
100,114,-23,-1042,-860,1488
35,-73,-56,-1893,-1761,1795
107,32,60,-1987,-3564,2433
-89,51,98,-769,-1604,2666
-88,96,-106,-69,-1348,2585
-63,-89,-101,-397,-1008,2701
-67,-83,-121,-24,-1158,2857
-103,-54,-86,-637,-1077,2378
-71,-114,-104,146,-572,2395
-121,-122,-107,-203,-548,2475
123,102,-75,623,-624,2484
94,86,-108,334,122,2353
70,-78,-72,-838,-320,1237
69,-120,-92,334,248,317
38,44,126,747,378,-408
9,-36,106,418,264,-268
65,-82,71,-75,1147,-570
81,-100,54,-13,427,-555
117,-117,46,-308,388,-678
-113,101,23,-200,714,-563
-115,100,12,-381,321,-426
-37,1,-46,-935,3609,-4096
-2,8,40,-983,4334,-3902
60,-66,110,-2119,5170,-3831
14,-25,125,-154,4181,-1707
27,4,-37,287,4259,-147
48,-38,72,-1074,2730,541
121,-89,-70,-1171,1947,2194
-93,8,-94,-1443,1060,1896
-86,-121,107,-2091,-367,1937
-66,110,53,-2202,-1642,1462
58,118,127,-1183,-2703,-303
24,109,5,274,-1735,-1430
116,86,-3,1321,-2007,-4362
-128,-49,-76,1397,1140,-3881
-86,-107,-89,562,3839,-2894
-40,-86,-46,335,4406,82
-19,-20,-47,-922,2970,542
-87,6,-80,-1755,1950,1056
-1,73,94,-1752,1307,2790
43,10,0,-2164,-454,3142
-21,-97,-58,-2659,-2370,2520
-43,77,-1,-1046,-3386,-1257
-93,-85,18,1372,-2182,-2234
126,106,83,1222,-1317,-4329
-120,-101,-92,1186,1154,-2907
54,-110,-98,1380,3239,336
61,-69,-104,764,1905,1187
-74,8,-71,-239,549,791
-12,73,69,-412,767,1598
-76,-114,63,-1110,410,2107
-88,-57,35,-1796,-490,2162
111,52,79,-2192,-2013,2216
-85,59,86,-1794,-618,1788
-82,66,-117,-792,-438,1998
-98,114,-107,-476,-1380,1977
-58,-109,-120,-1759,-681,1505
-104,95,-85,-201,-1750,2050
-56,117,-65,-590,-995,1768
-87,92,-47,-141,-1118,2127
123,73,-23,-62,-1284,2344
125,79,-23,343,-805,2485
106,110,-42,360,-476,2370
68,-119,-60,343,-636,1323
37,87,-87,227,-141,330
20,23,-113,525,709,372
-2,16,111,356,389,219
42,-15,96,327,922,-389
67,-41,74,182,774,-591
107,-91,38,-83,746,-851
117,118,41,47,608,-742
46,113,109,-925,2785,-4498
-127,-128,24,-1534,5304,-4526
-118,51,57,100,3669,-3661
66,-63,83,-667,5101,-3569
116,-78,-112,642,5102,-1261
-99,-42,-34,-350,3947,-237
-32,-94,-26,-1043,3415,91
-31,-87,112,-1611,1616,1826
37,4,23,-2034,970,2318
19,-8,-51,-2135,-1482,2546
-67,-56,-52,-1490,-3381,494
33,-44,-75,167,-2288,-2574
-97,-128,-119,1350,-3005,-3235
91,-2,-56,1127,828,-5259
-118,69,-101,1425,4173,-1032
-91,93,-67,214,4037,1084
65,-89,79,-1209,2470,563
-92,-3,-89,-2035,1313,1215
8,-87,65,-2008,843,2435
-35,107,-43,-2592,-1255,2951
-104,71,-105,-1628,-2798,1139
-122,-1,18,-18,-3000,-2423
104,76,89,1575,-1477,-3699
116,-112,-110,1151,-429,-3626
-94,-33,-102,1491,3315,-409
-34,-16,76,651,2916,936
-48,39,4,314,1351,33
67,119,-2,-1009,569,634
19,-119,-15,-159,-263,2136
-56,124,-52,-291,-1256,2697
98,-33,-10,-2419,-2713,2729
-87,-3,15,-1242,-2463,3338
-1,22,27,-1025,-1929,2714
-36,99,103,-795,-1445,3332
-1,112,90,-545,-1576,3110
-11,-80,-48,36,-3295,3634
57,-126,-125,1015,489,2857
-83,-20,-79,-534,-1248,2812
-110,-58,-74,798,-1151,2156
114,-104,-112,1555,1495,1743
31,-97,126,1085,-105,747
-28,99,121,-42,-358,-132
-2,36,117,-305,795,-411
8,12,88,-466,603,-579
39,-26,76,-795,104,-1202
93,-105,47,-609,1109,-1383
110,114,12,-617,771,-1228
-114,72,-13,-678,802,-891
-127,94,-25,-1096,626,-601
-111,74,-35,-18,904,-84
-85,57,-10,-2247,3038,-4405
117,-108,-3,-778,3806,-4727
-76,57,52,409,4311,-4783
57,-18,59,-78,4782,-4161
-112,96,107,188,5211,-2953
-91,-127,-114,204,4575,-1988
-118,32,-55,-889,4000,-529
-81,-98,-15,-722,3165,755
-51,124,80,-1955,1315,2549
-11,15,65,-1794,438,3032
-7,108,4,-2424,-1273,1954
-84,-128,11,-1515,-2496,-118
60,127,125,244,-2733,-1600
127,109,114,1076,-2558,-3636
123,20,-89,1011,6,-3865
-118,-55,-95,792,3479,-2460
-109,-68,-95,439,3811,652
-60,-35,-98,-598,3008,240
117,-4,-88,-1942,1550,1325
-88,122,126,-1679,1365,2560
-62,-121,2,-2013,-150,2511
99,-73,-51,-1879,-1841,764
122,50,-38,95,-2264,-925
105,22,-81,1140,-2106,-2922
-110,-94,36,963,-1210,-2882
-116,13,-55,665,2541,-1953
-4,-128,-67,1188,4397,-183
42,-3,-61,453,2670,287
60,-8,105,-1820,367,714
109,123,34,-796,-1263,1960
115,-18,-50,-724,-1455,2309
-53,-11,-12,-623,-2630,2727
92,52,-1,-1757,-3198,2661
-72,43,29,-457,-1274,2590
116,-98,107,-491,-2228,2937
-102,-89,-128,-435,-1319,2790
-76,-120,120,719,-1209,2462
-97,-96,-94,351,-682,2687
-102,-113,-95,532,-644,2615
82,-85,-68,-564,-557,2395
103,-87,-51,-9,-449,1848
47,120,-94,-12,534,1325
14,86,-90,174,148,1076
7,76,95,-514,475,665
1,48,93,-382,281,121
23,31,68,-449,389,-408
41,-16,47,-280,642,-591
67,-50,21,-417,602,-924
96,-78,1,-415,655,-868
117,-124,0,-131,463,-828
-87,12,-37,-1885,2321,-3879
1,100,39,709,2118,-3521
-120,100,33,137,4797,-4597
-14,12,54,-94,4575,-4515
114,99,114,-414,5571,-3723
87,-61,-79,-276,5012,-1727
105,49,66,-610,4527,-568
-63,-46,78,-833,3967,1001
-65,-11,-40,-1195,2021,2202
-23,50,121,-1957,429,2102
-12,-44,41,-2366,-1284,1870
-84,-76,47,-1831,-2261,1245
-72,-70,-108,-1139,-2903,-922
-119,-9,6,746,-2535,-1138
-101,-8,-22,927,-1801,-3833
103,96,-76,1795,1128,-3216
-111,-10,-109,1492,3764,-1537
120,10,-112,499,3248,-409
-33,-70,95,-432,2751,182
68,-31,-64,-1765,1682,1297
-113,82,115,-1906,1083,1945
-59,61,-24,-2242,-382,2435
-108,-107,-88,-2351,-2962,1175
-40,-110,101,-1071,-948,-1820
-20,122,101,924,-3451,-177
84,55,-11,548,-1463,-2993
99,41,-113,1157,1669,-2125
-110,12,-111,762,3005,-2246
-107,69,117,1106,3958,88
-77,-94,94,-328,3172,419
71,-40,-107,-1547,721,1968
-86,-68,20,-915,-706,1348
69,102,-6,-480,-1432,1277
-120,81,-19,-368,-3675,2052
84,58,-31,-737,-3170,2247
117,30,-1,-1043,-1564,2136
77,61,87,-296,-1374,2577
124,125,97,-356,-1860,2600
126,-112,102,105,-741,2868
-125,-86,-58,276,-1643,2761
-84,116,-128,571,315,2655
72,-97,-100,-168,-1201,2567
-104,-120,-116,163,-255,1946
47,107,-81,576,389,1790
60,123,-112,27,170,1252
10,91,-124,-55,-160,699
15,45,115,-300,469,84
13,8,90,-193,807,-204
10,-22,70,-171,309,-337
59,-43,43,-629,556,-674
-43,10,-114,-3741,2922,-3283
58,126,-8,272,1930,-4066
-85,87,30,-433,3807,-4841
6,-45,31,-83,4146,-3992
-74,89,70,-202,5212,-3912
-121,4,116,-1116,4533,-2882
-68,102,-116,-176,5372,-1196
-88,-8,97,-1020,3962,370
2,-58,-111,-732,2797,2089
46,-34,19,-1760,841,2289
19,100,-14,-1888,-834,3358
-31,-102,22,-2153,-2238,1364
-16,38,-126,-1103,-2718,-749
118,44,9,785,-2043,-1302
-103,7,-33,616,-2033,-3618
89,-85,-88,1091,571,-4158
120,-14,-128,1376,3712,-1712
115,-76,-80,349,4180,257
16,-86,-82,-726,3102,300
-80,-54,-85,-1476,2480,1867
78,106,-24,-1545,1349,2955
64,-113,66,-2262,-1930,3138
-13,-126,52,-1860,-3003,-244
14,-19,-89,272,-2969,-2969
114,-22,111,1355,-1099,-5417
-121,10,-83,1746,3568,-1586
16,-3,-48,1082,4294,2319
126,-100,124,194,2206,1391
-122,58,116,-883,2051,1048
-102,-65,-15,-181,-344,1643
55,-52,-62,-375,-1427,2383
123,-29,-1,-768,-3572,2117
104,-66,-5,-1043,-3216,2930
-61,2,12,-1264,-1397,2083
79,72,119,-1393,-2493,3211
-36,48,59,-987,-580,2711
-63,-121,79,250,-1270,3494
-98,-119,-120,791,-2110,3572
18,-113,36,10,82,2372
114,-54,-113,-626,-489,2588
-123,75,-114,1825,268,1638
90,110,93,1349,1283,1647
34,51,104,1059,343,645
4,41,78,-338,323,410
10,-8,70,-661,462,-40
21,-21,52,-673,488,-261
42,-62,15,-582,767,-573
62,-77,-3,-751,430,-776
81,-102,-23,-579,347,-851
102,119,-23,-466,584,-908
-44,102,102,-3442,2413,-4188
-118,14,-83,54,2971,-5235
5,-1,26,-2091,4298,-4797
-123,36,43,26,3388,-4632
-118,-127,53,-575,4266,-3552
-106,115,92,232,5123,-2083
123,-36,-55,39,4430,-535
65,-49,-5,-1544,2941,-383
115,-87,-110,-1230,2702,1292
-80,14,23,-1721,1190,2776
-11,-6,-54,-2262,-514,2123
-54,25,-106,-1403,-2358,1609
98,-70,103,-245,-2782,-1423
-75,-24,34,1117,-2674,-2938
82,78,-76,1326,336,-4385
117,73,-117,975,2051,-2755
53,-47,-103,268,3893,255
-80,-69,-62,-614,3181,803
57,34,-51,-1713,1791,784
-103,-124,107,-1498,1461,2235
-15,61,-75,-1975,387,2617
-97,-118,119,-2113,-1982,1251
-59,-54,-103,-750,-2965,-501
-25,-107,-115,1322,-2150,-1940
110,-38,-27,978,-1727,-4302
117,-50,-93,1431,1873,-2940
-45,125,-85,764,3740,17
32,-119,55,-173,3242,947
40,-4,-33,-1161,1879,904
90,127,88,-990,224,1530
71,-51,17,-647,-916,2099
26,-2,-43,-756,-2019,2146
-99,68,-28,-2092,-4014,2698
-128,15,-9,122,-3501,3384
-48,67,24,150,-1275,3231
-74,124,19,-824,-1167,2745
-86,-113,102,5,-1797,3066
-15,-36,90,-516,-1221,3003
-116,-77,-24,134,-1037,2658
-64,-122,-114,425,-378,2505
86,-80,-46,243,-200,2201
85,-100,-99,669,-37,1454
18,112,126,925,330,747
-8,81,117,4,316,10
-2,-2,85,381,654,-85
12,-7,55,-724,454,-428
37,-65,31,-322,512,-559
60,-95,18,-340,733,-692
98,-112,2,-456,986,-491
100,62,-6,597,741,-785
-53,-87,-39,-3097,2203,-4203
116,-117,-97,-1140,2067,-3815
-96,-72,-111,-754,3374,-4756
-46,100,40,-233,3065,-4990
56,-9,53,-830,3979,-4575
57,127,80,-1049,3739,-3762
16,-51,89,-1032,3917,-2386
36,81,-49,-342,4290,-43
50,-2,52,-935,3469,77
-123,-36,-119,-1310,1943,1466
-48,17,73,-1712,1017,2252
-9,-66,-6,-1758,-631,2918
-72,26,-46,-1555,-2368,1374
81,42,66,-567,-3409,-1277
-82,81,70,1133,-1704,-1948
111,69,-73,1048,-24,-3415
-119,-96,-102,793,2402,-2601
-49,106,-94,395,3171,-415
89,24,-71,-314,2946,-32
-12,36,3,-1562,1778,152
77,63,-75,-1672,1291,1260
-127,-56,120,-1857,519,2545
81,104,109,-3096,-774,709
-24,-31,-11,-2283,-2718,998
8,10,51,-573,-2861,-107
17,44,-72,1504,-739,-1134
84,-91,120,1174,-1722,-3519
105,19,-116,1982,1385,-2832
-113,98,-113,1281,3275,-1184
-84,-125,-121,-89,3298,374
-68,-2,99,-247,2184,69
25,-96,-126,-629,877,284
19,-48,10,-272,-469,1040
-46,-93,-30,204,-2726,2333
112,-120,-18,-389,-4631,3916
120,-114,-85,310,-4714,4594
-54,12,-8,-1056,-904,2513
-125,117,18,-1224,-1638,2670
-121,63,21,1150,-1454,2599
-32,-59,0,-564,-1076,2632
-127,-120,94,938,-1076,2326
-99,-99,-76,1374,-1300,2502
122,112,-66,1063,1061,2165
74,-103,-81,938,716,2092
40,112,-107,958,506,1629
14,120,-122,177,-70,940
-14,57,99,272,314,152
1,14,83,-76,716,-402
4,-41,48,-242,491,-598
42,-103,33,-157,713,-726
114,-123,117,-900,3243,-4833
-94,71,4,-206,3299,-4678
19,1,47,-645,4019,-4293
45,-113,66,-1549,4448,-3823
75,-39,121,-764,5128,-2232
0,82,14,-643,4061,-803
68,0,58,-1745,3772,-245
46,8,-56,-1623,1723,1484
-103,82,114,-1526,1090,2567
-55,-66,76,-1631,-360,2477
-12,94,48,-1718,-1340,1997
35,-85,84,-1949,-4408,-832
-48,23,69,913,-1928,-1019
78,4,55,1735,-1089,-3000
116,-80,-112,2808,-378,-3600
105,115,102,2191,1877,-3113
-84,-19,-101,663,5084,-266
-99,-54,-37,-993,2995,505
12,-13,18,-1825,2339,419
-115,110,-122,-1895,2163,2304
-75,-41,32,-2308,656,2195
-62,-99,-59,-2240,-771,2243
87,13,-33,-1781,-2392,104
-20,-47,58,166,-1986,-1115
-74,-33,-22,590,-2816,-2963
104,-88,-102,1620,740,-3435
-96,50,-77,1802,3332,-2047
127,-112,51,1005,3317,141
108,-50,57,-380,1298,951
-14,25,-92,-1258,-91,991
60,-125,18,-778,-1040,2066
6,-69,-29,-435,-949,3302
125,-57,10,-273,-3351,3318
-120,89,-13,-2791,-2574,2284
-98,16,-4,-297,-1479,2456
-106,42,49,32,-967,2634
-48,122,18,-721,-1214,3025
-115,-117,84,-340,-1545,2791
-22,81,24,502,-884,2733
-88,-84,-98,-683,-1531,2814
-109,-113,-75,331,356,2577
-111,-90,-99,1073,-127,2078
57,-91,-109,363,446,1236
18,116,-112,534,311,735
11,39,94,850,477,196
-3,37,66,-591,296,-426
18,-41,61,-91,459,-528
63,-80,30,-937,732,-917
80,-121,4,-878,688,-973
86,79,22,-140,649,-565
-73,-47,-114,-3523,1975,-4952
-52,-78,-4,-1338,4332,-5297
-122,24,32,935,3068,-4278
83,31,30,-954,4394,-5547
-71,37,80,-530,5383,-3334
-85,92,105,16,5506,-1132
-88,-31,122,-1034,4268,-621
-35,127,109,-1718,2464,2149
33,-35,102,-1676,1660,2661
70,-120,7,-1968,-88,3209
30,-54,-51,-2254,-2296,2285
74,85,9,-1087,-2693,-683
-69,20,-33,882,-2859,-2402
126,68,76,1397,-764,-4839
126,89,-93,1099,1275,-4174
5,-82,-91,517,3641,-553
51,-76,63,-579,3047,889
38,-22,38,-1351,2536,353
-88,50,112,-1758,1441,2337
-6,-68,39,-1362,988,3400
-38,104,104,-2755,-1446,2200
13,-27,-110,-950,-3168,-467
53,-75,97,825,-2216,-2431
77,-93,72,1057,-1491,-4692
-121,114,-84,1061,2767,-2404
-60,-66,-72,381,3974,304
60,-70,62,-373,3361,1049
58,18,38,-1695,2408,-188
-76,-91,23,-1552,-17,1944
68,-8,-89,-657,-1082,729
-125,-91,-11,1538,-2025,1878
33,44,49,344,-3091,2150
64,-58,9,-508,-3098,2562
112,-85,16,-158,-1809,2617
95,58,86,-1560,-2406,3323
-99,59,28,-227,-764,2926
-95,-93,-124,303,-2292,3383
-17,-93,38,-457,228,2513
65,-74,-35,-356,-1929,2812
-82,97,-107,710,661,2540
87,-94,-68,104,252,2339
82,127,-103,474,439,1628
23,-93,115,-603,-334,753
-7,67,106,224,145,126
16,12,73,457,901,-269
10,-11,46,-58,689,-282
35,-47,45,-474,372,-609
66,-83,16,-295,656,-721
87,-79,-7,-1000,491,-983
110,126,-20,-870,456,-909
-98,24,-127,-2416,2404,-3981
-80,60,-114,-3136,5055,-3997
103,-45,71,1415,2213,-3443
14,-42,38,-1224,3949,-4274
92,103,71,-333,4424,-2940
80,48,127,-965,4187,-2364
72,-71,51,-744,3965,-1451
63,48,-114,-1079,3916,-535
70,-44,-23,-1540,2690,905
127,21,-71,-1242,1871,2258
-83,64,-120,-1576,1099,2111
-47,-32,51,-1758,-540,2788
-109,40,38,-2040,-2193,758
77,-119,-117,-86,-2802,-1510
-121,-100,-63,1915,-999,-1993
-82,-106,-84,1300,-510,-4570
-93,-75,-67,1136,1971,-3734
80,121,-56,484,3532,537
110,-109,-12,-424,2714,545
56,-24,-31,-1093,1847,1173
100,58,-57,-1160,1882,1779
112,-86,124,-1677,901,2459
-113,0,-35,-2219,-943,1958
48,119,-58,-639,-1595,77
-81,77,16,1042,-1608,-178
120,18,37,1449,-2172,-3705
-82,-10,-55,1426,1022,-2991
-57,19,-27,964,3576,-45
121,-126,59,-521,2965,596
-81,-25,71,-1077,1929,-8
125,115,-101,-1826,549,577
-44,6,35,-614,-768,1017
102,41,27,-323,-2333,1803
-84,40,-3,-416,-4712,2954
117,15,2,-837,-4792,3411
-88,86,25,-711,-2144,2913
112,95,120,991,-1729,3608
-102,-28,-108,-546,-2265,3377
-88,-22,-97,301,-265,3223
73,4,7,-313,-1278,3245
-71,-64,-98,957,705,2486
4,4,-6,-790,-787,2063
46,-61,-91,-141,648,897
-13,118,-87,880,355,438
-18,91,84,-165,534,-41
6,28,55,-653,316,-546
20,-37,58,-59,516,-603
63,-83,27,-14,1029,-666
79,-101,31,-97,626,-663
118,-127,25,-103,662,-536
44,117,98,-5193,5293,-3806
-89,-33,-80,700,1148,-5380
117,107,44,-374,3921,-4682
5,0,52,-107,4519,-4266
25,-94,104,-904,4184,-3811
8,83,-106,-1725,4101,-3161
50,-47,124,-824,4766,-1962
94,13,88,-956,2818,785
-94,15,-30,-955,2572,1310
-47,32,121,-1401,1337,2034
-56,73,110,-1546,95,3215
-98,13,51,-1439,-1211,3139
-13,54,60,-1259,-2994,-563
47,-119,-86,756,-1844,-2337
-93,-51,-109,1489,-1196,-2721
-101,-39,-19,1500,1167,-3001
-85,-89,-63,472,3028,-2096
-108,-20,48,24,2941,215
-48,-31,6,-1223,2062,435
53,5,-106,-1705,1005,2308
122,-104,-111,-1421,1327,2835
-119,-82,-10,-2156,-898,2214
-65,51,103,-2117,-2745,-300
-86,104,4,-110,-3464,-2829
114,-123,110,2237,-499,-1661
120,68,-122,994,-213,-3327
-106,-2,-80,1217,4089,-958
17,-39,-78,132,4201,617
83,12,-49,-325,3518,-656
-113,-9,114,-1777,1580,1143
-41,53,-24,-1564,-816,853
92,-72,3,-1149,-2316,-736
95,0,42,227,-4801,2075
-128,-3,25,-377,-4476,3686
96,-23,33,420,-5259,4349
-126,111,101,-673,-2329,2641
82,87,-66,1545,-2681,4161
-31,-84,-119,1243,-392,3018
-70,-34,-107,527,-947,3140
104,-104,-58,1562,-411,3126
124,-7,-89,-65,473,2434
64,-78,-113,809,537,2284
22,-71,-124,311,135,1480
-24,-103,100,-52,-28,376
-21,77,117,108,550,-506
-4,6,86,25,1098,-550
5,-49,56,-327,688,-834
39,-76,45,-879,405,-1126
76,124,20,-709,817,-958
93,115,-5,-1048,625,-988
-119,100,25,-243,3261,-5250
-17,57,2,-771,5655,-4773
59,4,29,-416,4198,-4088
108,-111,72,-828,3660,-3955
122,-59,11,-659,4237,-2475
35,33,-123,-914,3607,-821
26,-20,-16,-1271,2769,167
58,-24,-60,-1402,2768,975
-126,-61,-128,-1429,1763,2905
98,-9,3,-521,1567,5395
114,-72,33,-2807,-2439,1468
-124,62,89,-1950,-4587,-740
-35,-40,33,205,-2537,-1617
102,-94,127,549,-1694,-5614
104,60,-123,625,2640,-4131
50,45,-77,946,4508,789
110,-60,-27,-663,2921,-76
116,-37,-84,-1500,2240,622
-105,55,85,-1727,1281,2316
-79,7,20,-1808,618,2942
-84,-70,126,-1692,-1892,2024
-29,13,-98,-765,-3431,-1456
-11,0,-128,143,-2979,-3079
62,-100,-102,636,-1667,-3116
110,6,-124,1477,3191,-960
65,-125,-95,1208,4611,-683
125,-4,-119,1297,3488,363
-67,-63,-94,143,1065,1503
38,53,49,-1042,-328,2347
39,-101,-39,-1058,-2159,2652
-37,-61,-75,-1483,-1517,2473
-91,-22,-18,-957,-1703,2468
-95,35,26,-1570,-1254,2483
-79,-2,72,-235,-1312,2470
21,55,53,-436,-542,2340
-86,110,31,-1924,-1929,2487
-36,104,-97,-522,-1738,2576
52,114,103,810,515,3066
53,-63,-3,-1246,-1325,2672
-89,-94,12,193,197,2599
85,-31,-5,1296,866,2124
38,4,-77,-155,178,321
-1,80,126,525,-14,41
23,3,59,-1267,398,-462
38,-62,58,-48,467,-378
84,-79,37,-82,932,-587
88,-108,26,-57,476,-512
113,-117,16,-574,654,-605
123,100,5,-301,522,-362
-124,109,-7,-505,352,-306
-1,99,20,-428,3380,-4679
78,42,21,-539,3255,-5030
108,-37,34,-1226,3476,-4315
91,11,59,-1375,3413,-3047
54,43,-64,16,4020,-486
12,-54,27,-899,3221,332
50,-15,-106,-1311,2420,672
57,0,115,-1283,1801,1648
76,50,86,-1298,1147,2369
101,-95,77,-1755,68,2503
-127,18,74,-1634,-518,1902
106,-106,106,-1759,-1712,1820
-9,38,118,-1185,-1670,690
90,55,11,202,-2810,-844
108,-125,-2,619,-1259,-3861
78,35,-117,1234,372,-4646
124,28,109,250,2514,-3399
-59,-128,-106,415,3457,-1880
-99,1,51,-681,3503,4
45,-14,79,-1257,2807,925
-48,109,100,-1531,2574,2125
-42,37,-59,-1699,320,2653
-103,-77,-124,-920,-1221,1639
57,58,-37,223,-2388,-2250
-55,100,-32,1751,-1503,-2998
-83,-18,-128,1020,-446,-2709
-69,-81,1,385,3986,569
87,-42,104,33,3695,1230
-58,45,25,-858,2659,559
-124,-100,89,-1165,1163,1661
119,17,0,-1324,-623,951
89,32,-19,-405,-938,1917
-71,51,10,-646,-3824,2085
-38,46,-3,-2251,-3460,1805
-78,-21,27,-106,-3112,3167
-83,36,122,-580,-1655,3160
-50,123,95,-454,-1426,3537
-97,-51,-11,-50,-934,3962
2,-89,124,183,-239,3469
115,-5,-25,-1115,-792,3543
112,-27,10,-496,-586,2639
109,-19,-48,-382,221,1611
17,-25,-53,192,126,690
-13,93,121,551,461,-37
-12,55,85,-577,762,-551
16,-14,48,-347,519,-471
68,-42,27,-211,747,-742
86,-71,1,-471,564,-887
114,-114,-8,-559,558,-847
-128,127,-6,-469,738,-868
-50,-21,46,-5782,1947,-3136
29,90,17,46,402,-3642
83,101,39,90,3060,-4279
-112,-12,23,525,3500,-3826
21,-63,28,-175,3787,-4029
68,122,63,-1060,3526,-3647
126,2,99,-591,4758,-2356
89,-118,11,-828,4494,-989
65,6,-33,-910,3255,-277
67,30,49,-1843,1450,364
107,5,32,-931,1396,2089
113,76,56,-1478,563,2992
-116,-19,56,-1265,-94,3357
88,-5,30,-1581,-1834,1183
62,-83,100,546,-2611,-1035
-84,-104,108,1153,-1193,-3196
-121,-31,-52,1208,41,-3774
-96,66,-83,1109,2348,-2249
33,39,-93,491,2674,-547
116,-46,-92,-293,2834,-22
-52,-4,-1,-1710,1320,263
49,25,-68,-1432,1391,1994
101,-77,115,-2038,315,2483
-112,-115,27,-2653,-246,2827
115,-19,-108,-1923,-1945,1102
-35,-58,-27,607,-2514,-675
-67,105,52,1016,-1569,-4130
118,-66,112,759,-1029,-3370
-119,-78,-81,1447,3649,-1096
50,37,-78,556,3471,-617
-58,-49,121,-562,2731,-255
60,-29,-73,-1449,1048,1069
-97,121,51,-797,611,1524
71,34,-12,-313,-1626,1645
-63,66,-20,-1132,-3812,1400
127,37,-22,-991,-4318,2308
-52,31,20,914,-2595,3473
-109,69,40,65,-1182,2670
100,-115,125,164,-2590,3810
-51,127,100,1353,-459,3466
-120,14,-49,551,-1599,3514
-113,-61,-43,952,-466,2841
122,-1,-73,-1404,1076,2377
46,-103,-71,358,-81,2114
19,122,113,348,242,1407
-8,-125,126,-694,547,258
-9,57,89,-50,694,-212
8,37,50,-896,612,-827
35,-30,31,-465,654,-1223
60,-89,14,235,676,-763
-107,55,46,-1212,2632,-4701
7,98,-98,-2026,3310,-4768
72,25,29,-1506,3452,-4400
-124,-20,64,-1980,4220,-4615
47,52,58,-1514,4034,-3110
16,125,-24,-586,4562,-407
6,-52,58,-693,3390,1087
46,-36,-53,-1005,2282,1888
104,28,-83,-910,1709,2353
-93,57,77,-1671,429,2135
-48,-71,9,-2072,-939,2146
104,-27,41,-2171,-2737,263
73,-48,-65,32,-1891,-207
-125,80,-105,707,-1427,-2050
-107,-125,-127,1536,146,-3131
-95,51,-77,1314,1834,-3675
27,-124,-75,283,2551,-2557
-3,-84,2,-42,3031,665
-80,-55,14,-1681,2004,893
8,112,-57,-1635,1587,1832
93,-20,127,-1521,1384,1550
111,113,-33,-1958,-777,1697
89,35,-72,-2589,-2355,699
73,-83,108,146,-1535,-84
-48,4,-96,175,-2580,-1985
127,102,-71,1622,-553,-2853
-123,-54,-61,1021,1468,-3160
-83,2,-87,1197,3711,-374
-34,-89,44,22,3028,604
-83,114,53,-1353,1684,-177
42,39,-42,-865,1302,2465
65,-74,55,-2049,-475,-110
-65,-83,39,-693,-1012,757
-127,104,59,-18,-2467,1368
-103,49,41,507,-3227,2786
119,16,-21,1289,-4510,3477
104,17,22,-95,-2369,2889
94,45,72,447,-2331,3462
119,-115,-114,-50,-1017,3532
-119,-30,-67,143,-1005,3199
115,-94,-32,488,160,3052
86,-57,-40,365,81,3070
34,-39,-2,-414,523,1834
52,-74,-92,243,1160,1144
-37,106,-124,361,227,201
-21,57,77,-195,226,-125
-10,10,54,-510,197,-417
37,-28,33,-834,471,-868
53,-79,22,-181,718,-857
74,-91,3,-493,596,-887
-70,101,16,-1568,3582,-4323
114,-52,-9,549,4149,-3866
-32,-105,63,919,5194,-5525
44,114,82,-1405,3161,-4866
25,-114,19,-608,4038,-2485
107,38,71,-1329,2780,-1389
69,7,43,-978,3235,-428
47,-10,37,-653,3438,1121
73,-54,-76,-750,2216,2921
98,17,73,-2239,258,2200
-125,-36,57,-1983,-426,1625
23,94,62,-1672,-1911,43
14,37,-85,96,-1593,-1241
-96,70,44,1326,-1186,-2223
-72,74,6,1208,-64,-3485
-78,-36,-54,1248,1768,-3047
15,-37,-97,531,2987,-481
51,-55,-54,-390,2686,554
-40,-22,31,-1306,1911,451
73,89,-97,-1616,1435,2013
47,-16,100,-1974,321,1754
69,-18,25,-2457,-1086,1196
-119,77,-1,-1314,-2011,67
-91,-4,87,1047,-1084,-989
-78,-74,-85,762,-1946,-3668
-104,-74,83,1706,1005,-1880
-70,82,-59,1017,2916,-281
-16,-82,61,0,3034,790
-16,-42,90,-1070,1998,355
-46,-76,-33,-1215,1545,750
28,67,116,-1461,500,-132
31,112,49,-867,-66,1078
-48,116,28,-33,-2319,1211
-99,75,65,240,-4005,1687
127,-22,53,-498,-4311,2996
101,-42,70,496,-3490,2727
61,62,-128,-422,-2777,3581
51,-91,-72,-784,-1381,3495
-125,-74,-46,732,-936,3177
-115,-37,-46,722,108,3469
66,-35,-70,-397,-351,3007
59,1,-23,-515,-596,2131
56,-61,-71,587,917,1460
0,-58,-124,2,-73,498
-21,115,104,64,128,-166
0,22,72,-130,838,-402
5,0,61,-276,337,-437
50,-37,35,-534,503,-734
77,-70,26,-414,571,-824
87,-101,12,-445,358,-789
-63,30,12,-837,3180,-4475
116,-27,33,-546,4405,-4274
122,-66,60,-1050,4235,-4110
71,73,72,-696,4390,-2922
19,-11,-8,-1228,4026,-2254
-21,100,-115,-652,3407,-764
-16,-34,7,-740,2778,584
56,-90,-80,-885,2292,2208
73,-66,-117,-1612,900,2800
93,126,98,-2097,-217,2615
102,-92,72,-1820,-1313,2842
26,-38,75,-1095,-2204,-1025
92,31,-13,424,-1889,-1924
-102,-123,18,1609,-26,-2239
-82,98,-46,943,1011,-2806
-68,-102,-40,1084,3519,-1654
-119,-10,29,202,3151,120
-77,-8,44,-929,2416,-243
27,8,-60,-1624,1588,1544
126,113,-113,-1474,1227,2650
-87,90,32,-2218,-468,2479
125,87,4,-1771,-1379,208
-87,-78,81,-631,-769,-1496
-116,-28,-114,1111,-2261,-1527
-71,41,121,1355,-1303,-3197
-83,-34,80,838,-579,-4334
-83,-91,-36,896,4423,-234
-110,102,3,-320,3204,2045
-98,19,46,-1419,1808,-193
65,-47,113,-1504,7,1079
55,31,41,-773,-1825,1702
0,-16,-101,418,-3541,2684
-89,5,-70,-1809,-4013,1672
-83,51,-42,-901,-1665,1659
103,79,-99,1114,-2795,3566
123,-112,86,194,-2003,3407
83,-54,-114,-16,-2153,3463
-106,-31,-82,247,-1674,3007
86,-14,-16,198,-854,3139
79,-65,25,823,-371,2647
92,-101,-36,544,1058,2222
9,-68,-37,77,-302,1657
-13,-110,-68,-465,610,514
-33,111,-112,-362,213,52
-37,82,110,-753,173,-391
12,0,75,-176,910,-552
39,-23,43,-162,703,-795
78,-43,12,-662,329,-1036
102,-104,8,-311,296,-902
123,-125,-16,-366,861,-999
8,104,-101,-2671,4837,-4111
39,-12,43,293,3566,-4409
61,-34,72,-716,4057,-4789
38,-127,111,-604,4292,-3777
-9,2,107,-790,4024,-2577
-21,-107,7,-323,4078,-1225
3,16,126,-81,3931,192
17,-75,-31,-1441,2283,1486
83,-56,-69,-664,1599,2382
111,1,-81,-1917,532,2069
-111,-41,112,-1858,-874,2658
97,34,112,-1845,-2356,994
67,-1,-68,-228,-1531,-1640
-99,-37,23,997,-1762,-1559
-76,12,11,1289,264,-3357
-74,-84,-86,1143,1701,-2782
-22,26,77,-418,2858,-928
-33,46,-71,-841,2654,-286
-54,63,-18,-1392,1860,213
26,104,-91,-1683,1199,2289
104,-31,102,-1563,415,2420
103,-7,1,-1913,-1179,2382
10,12,-7,-1032,-2603,327
-89,14,98,267,-1960,-1750
112,-88,56,1123,-1882,-3505
-116,2,-116,1273,945,-3527
-90,-30,-73,1084,3467,-577
-105,-63,74,394,4217,1348
-100,-14,43,-1046,2157,-132
126,53,40,-1356,587,1952
99,35,23,-1249,-262,1062
1,-107,-17,-749,-1728,1035
77,89,25,-913,-4550,918
100,-37,47,-232,-4652,3769
107,-77,-2,-116,-5379,3066
-91,-25,62,834,-1375,2808
115,-128,-65,-243,-2475,3628
-118,-41,-83,-109,-1547,3180
-115,-69,-29,1869,-743,3305
-101,-2,-67,113,298,2601
69,-47,-27,376,383,2457
52,-120,-100,652,927,2347
30,-95,-122,-24,285,1378
-5,-103,122,-358,-406,782
9,78,107,-182,438,-444
6,8,78,21,965,-516
16,-40,41,-306,554,-698
50,-58,19,-842,619,-936
71,-118,7,-465,636,-923
88,109,0,-188,700,-632
-82,-103,103,-1037,2599,-5380
-91,71,10,-597,2646,-4946
9,-45,36,-117,4008,-3991
19,-72,47,-397,3876,-4169
45,88,81,-604,3829,-3544
32,-109,47,-502,4272,-1687
1,-46,64,-830,3516,-61
38,-52,-59,-1168,2693,1039
-115,-7,-93,-1028,2575,1891
-62,0,84,-1153,1766,2902
-59,-92,-16,-1835,-555,3376
-97,-19,-16,-2272,-2514,1320
119,55,120,-1168,-2343,-2056
-60,64,82,1489,-1082,-1435
-104,-70,13,404,-811,-4848
-105,-18,-73,1133,1791,-3318
-14,21,-90,611,3272,-802
21,-47,-62,-95,3202,828
-65,-17,7,-1349,1949,154
53,79,-81,-1337,1703,2025
105,-90,106,-1786,1124,2467
-79,-74,-65,-2182,-768,2817
106,45,-92,-1876,-3058,-251
55,-33,27,-362,-2463,-1162
91,-30,79,814,-2166,-2850
116,-65,-112,703,-13,-4903
-116,-116,-106,1184,3699,-1060
32,-107,-79,-15,3654,625
115,-27,-76,-607,3406,170
45,0,-118,-1577,1587,1139
-121,67,-23,-919,10,1457
45,-85,-12,-338,-263,857
-97,93,9,1117,-1992,1945
104,5,35,118,-3364,2461
-124,-41,24,-1141,-3020,2011
83,12,16,-1717,-1926,2081
78,13,-94,413,-2801,3685
-115,100,107,-574,-1310,3155
104,-46,-74,-314,-1764,3555
127,-66,-29,327,-888,3088
97,-36,-14,-36,393,2972
76,-90,-65,738,-70,2660
88,-93,125,-189,635,1700
12,-81,-112,-750,-205,1211
10,-120,108,-426,6,334
15,82,83,-64,296,-319
22,6,57,353,915,-546
25,-42,31,-43,519,-630
57,-71,16,-395,573,-747
89,-102,14,-316,544,-694
-48,27,5,-792,3526,-3991
-65,-32,27,27,3124,-3754
51,-29,37,-630,4339,-4701
115,100,89,-638,4673,-3445
91,-32,92,-870,4129,-2538
38,-114,33,-105,4181,-1277
60,39,-91,-791,4591,-438
48,-7,43,-1048,3338,599
109,-41,-104,-1564,2049,2484
-66,41,117,-1926,482,2900
-3,-88,83,-2059,-514,2914
-62,25,114,-2044,-2533,1567
-112,44,-103,-1000,-3684,-2181
38,76,92,1261,-1309,-1936
120,42,81,3040,-1695,-3628
-112,-54,-88,1362,1221,-3628
-56,122,-95,766,3396,0
-32,23,60,-842,3226,468
-110,96,96,-1858,2738,-454
-11,102,-73,-1777,1838,1156
-110,-37,62,-1984,1394,1885
-47,118,-2,-1805,549,2169
-119,-44,-73,-1637,-1873,-192
18,-84,-3,-252,-3042,-1513
-105,-30,-12,1366,-1099,-2098
-89,-41,63,1335,-268,-4034
-67,-29,-33,1306,3129,-1750
7,-95,-124,719,3809,1273
118,-93,80,-678,2220,486
59,52,-115,-1632,1088,1214
124,7,26,48,-219,1892
-4,40,-4,491,-2683,1540
127,-45,14,-621,-3471,2065
98,-83,12,-1265,-4235,3139
-98,-52,39,-495,-1118,2499
74,122,-104,-670,-3442,3660
126,-124,76,-382,-978,3238
98,-18,-86,-520,-2118,3408
-87,-92,-122,1418,226,3229
89,-2,-81,-475,-266,2933
100,-57,-115,359,106,2474
52,-62,-96,-241,382,2115
35,-94,110,-167,350,1578
0,-113,121,-106,224,940
19,94,85,75,499,245
9,45,65,-88,721,-559
34,0,45,-444,635,-860
64,-57,27,-237,627,-754
92,-80,12,-589,544,-1010
106,-118,1,-377,650,-910
-57,-86,18,-375,3112,-5475
93,88,40,-657,4819,-4743
-50,-11,105,-1553,6155,-4253
120,57,-80,-452,4544,-3573
39,114,35,-691,3322,-1857
66,-111,47,-1404,2837,424
102,-100,-23,-1386,2451,2281
-54,9,-106,-1711,1370,2857
1,-25,36,-2264,-391,2440
-79,-37,25,-1913,-2209,1930
-59,-3,110,-971,-2512,-1171
-40,116,-11,1045,-1523,-1544
-81,70,-108,677,-1340,-3587
-122,89,-78,1141,407,-4759
-52,-9,-65,1164,4996,-1113
-30,50,1,-703,2304,807
-45,30,65,-943,2725,462
37,90,-50,-1459,2177,1523
114,-91,97,-1572,896,2648
-98,-112,31,-2195,-477,2182
124,120,-39,-2105,-2159,830
112,-97,10,-534,-2846,-263
-100,58,-33,1051,-1621,-2086
-112,-36,38,1413,-206,-4062
-92,-26,-53,1188,3245,-1703
-21,-4,-80,250,3820,592
20,114,-74,182,2926,-846
94,-12,46,-1298,1488,1077
117,120,37,-923,-1726,2206
-91,-6,24,-625,-1086,2097
60,-31,-4,-583,-1953,2318
-65,-11,-5,-1893,-4083,2736
-127,49,35,-1982,-3936,3115
-113,116,127,-656,-2573,3254
-119,-39,-20,-204,-2048,3881
-70,24,-57,761,-1153,3533
70,68,43,87,-807,2495
94,-37,-68,-419,81,2194
-10,-90,-3,-376,-686,1906
51,118,-44,-162,410,1964
17,-104,-75,-13,-26,1326
9,-57,-117,-640,342,-354
-1,86,112,145,690,-385
22,76,71,-444,604,-795
35,-19,47,-85,546,-790
63,-63,27,-332,747,-711
88,-111,3,-235,716,-555
117,-103,-6,-745,456,-477
124,-112,-9,-214,542,-204
-126,-102,-12,-379,624,-203
88,-14,22,581,4281,-4394
-48,-36,33,-177,4581,-4919
10,-103,70,-234,4782,-4581
-101,61,-27,-2082,4498,-3556
64,-58,-96,-1023,3002,-1827
1,-32,89,-237,3275,-324
125,90,13,-42,4062,2919
-84,-79,-119,-1569,764,2908
-59,64,85,-1907,44,2383
126,-67,45,-1362,-951,2696
-7,-28,53,-1117,-2175,-919
-52,6,-73,434,-1513,-1363
-102,-125,114,717,-1349,-2201
-80,122,-114,396,271,-3889
-74,-49,-41,881,3139,-1102
70,-32,38,-110,3012,437
-128,22,66,-1308,2420,26
26,68,-84,-1998,1444,997
-53,-44,82,-1525,863,2606
-29,-102,-13,-1858,-461,2464
-114,-5,-72,-1824,-2496,-61
10,-102,91,-580,-2485,-1053
-15,-113,16,515,-1527,-2159
94,-54,95,490,-1242,-4131
-121,63,-100,1292,3007,-2379
-60,67,-77,981,4359,-305
44,-75,-73,25,3568,552
-40,-93,-57,-1443,1691,1333
81,81,106,-1693,603,2315
120,118,44,-1028,-341,1305
-24,-79,38,-533,-2070,769
-85,120,27,-685,-3327,744
-72,35,19,-959,-2465,1895
97,-9,52,266,-4198,3198
-123,26,67,195,-1921,3535
113,-111,-115,-1285,-2188,3257
-97,-60,-50,132,-1054,3382
123,-50,-2,312,-585,3337
95,-25,4,-788,-1391,2676
99,-115,-25,-158,624,2809
96,-70,-106,-20,-218,2254
38,-12,-120,-1009,-363,863
36,-88,123,-278,486,-274
21,39,80,854,687,-225
-11,-2,87,357,912,-486
20,-16,59,-621,1080,-574
56,-58,38,-734,217,-727
98,-74,28,-974,380,-807
113,-123,4,-240,663,-554
119,-116,-13,-551,618,-577
-105,-38,21,-262,2869,-5214
-49,-125,34,-566,3240,-4748
115,28,-12,-862,3793,-3966
52,-35,-86,-2146,4123,-2789
63,40,84,-1607,4977,-340
22,-78,-61,-824,3016,1650
-80,-42,80,-655,1904,3625
-56,103,39,-2359,390,2214
-82,84,22,-1552,-1402,2593
15,-14,57,-1435,-2800,-737
98,72,-59,414,-1597,-1748
-86,-27,-89,869,-1434,-2852
-96,-3,-21,2486,393,-4172
-92,-111,-81,-452,3195,-1888
15,-88,62,113,4787,1589
-127,33,123,-1156,1999,644
-34,-125,25,-1910,1179,1670
-35,-41,8,-1475,526,2523
-103,-68,-29,-2290,-1019,2137
-19,-80,-25,-1133,-2472,907
-112,-23,-88,-483,-3151,285
-124,20,-92,1317,-229,-3800
-98,52,-52,743,-36,-3769
-55,44,-96,1247,2901,-2521
-104,-52,76,612,3818,305
75,-84,-104,-538,2612,375
54,-15,-51,-1822,1912,1475
110,-39,33,-1125,381,1243
86,-110,-62,-1324,-430,1089
121,-118,-42,-232,-3512,1172
111,59,5,-1220,-4340,2057
-106,-71,-36,-248,-3836,2624
-105,25,44,-958,-1751,2419
72,91,-97,-833,-3332,3453
-109,120,-84,142,-594,3735
-81,0,-64,-613,-1560,3475
-64,-50,-91,106,-758,3336
119,37,-8,-920,-1105,3147
120,-49,7,1277,314,2129
80,-41,-71,978,962,1455
-30,-52,-114,-295,-29,126
-16,89,115,-5,527,-217
2,43,74,-335,642,-400
25,-30,51,130,742,-514
53,-47,19,-333,901,-801
78,-89,7,-309,594,-617
96,-105,8,-597,433,-531
107,-108,-13,-473,587,-525
118,-116,-13,-372,531,-421
-127,-103,-34,-688,517,-388
93,76,-52,-3238,4978,-2709
57,27,-67,-381,916,-3903
-4,119,106,-380,1114,-4337
86,97,29,-95,3933,-4081
-48,63,66,231,4087,-4301
50,-30,89,-24,4112,-4620
64,117,-123,-977,4034,-3662
11,-101,28,-1262,3550,-1479
23,55,-105,-673,3943,-355
75,-24,-17,-29,3510,490
-98,39,-125,-1472,2042,2220
-6,86,10,-1388,199,3101
-67,57,-73,-1939,-1912,2983
29,113,-16,-1160,-3110,478
-77,86,101,201,-2513,-1959
-72,-43,53,996,-2748,-4217
119,-4,106,660,499,-2610
-123,-41,-96,630,2632,-503
-6,98,113,201,3252,-33
4,110,-94,-752,2917,-737
-108,47,4,-1724,2113,521
73,100,-107,-1771,1483,2007
-110,-28,74,-2089,484,2055
-65,112,-23,-1983,-535,2661
-116,-23,-90,-1941,-2826,1120
86,-17,34,-111,-2011,-1057
113,52,-18,844,-2687,-2519
104,19,121,1219,117,-3908
-119,101,-98,1361,2374,-2524
24,-29,-61,488,4254,-786
26,-31,21,-245,3198,823
-87,41,42,-1531,1258,291
-57,45,-47,-1648,1924,1980
119,-24,-80,-1076,-1155,1717
83,68,-31,-1195,-1738,1141
-88,-11,49,-737,-2908,2635
120,2,44,-1644,-3963,3146
-75,80,62,-1417,-1650,2221
-88,109,-101,-348,-2300,2802
-88,-85,-111,-884,-759,2469
106,-117,-5,410,-2232,3308
13,-107,96,797,979,3265
99,-33,-77,-255,-1718,2928
73,-62,3,-1078,-1338,1795
96,-110,19,-631,693,1687
63,-106,-60,37,244,1239
-13,118,-127,29,194,503
-1,92,98,-409,335,25
18,17,43,107,742,-205
31,22,18,-766,320,-702
-69,-111,-101,-681,3524,-4596
-7,54,22,601,4841,-5736
71,68,32,-1261,5189,-4764
78,-89,92,-316,4490,-4315
84,79,-126,-1436,4656,-3171
8,116,-41,-938,3267,-587
15,39,75,-671,2864,582
49,5,-35,-668,3001,674
90,-16,-110,-656,2244,2947
-117,50,104,-1295,959,2976
-82,50,42,-1946,-847,1074
19,117,49,-1501,-2861,-262
-22,63,-88,-297,-1353,-1374
-106,-92,-74,730,-598,-3749
-84,-68,-97,1447,1134,-1554
-80,103,-90,406,2174,-1038
62,42,-19,218,3016,460
51,66,30,-733,2075,201
-10,81,111,-1426,1016,1124
34,-112,117,-1469,545,2237
66,16,97,-1935,-33,2815
69,9,64,-2026,-1581,923
-52,-125,67,-1274,-2857,-879
22,-19,4,843,-800,-1839
117,73,-67,1104,-1175,-3013
-121,-45,-94,1529,1885,-2937
-73,73,-62,1452,3728,-878
-91,10,-10,540,3732,-647
-99,-44,-31,-771,1824,182
105,111,10,-1233,266,1408
67,61,43,-749,-291,844
-32,43,6,-242,-1978,1720
121,-65,29,-165,-3561,2534
-100,-63,50,-381,-3946,3109
103,-17,63,-982,-4368,3676
-116,20,48,-402,-2579,3353
-120,-116,-86,-615,-1506,3354
-61,-40,-103,-17,-1051,3205
-100,-30,-38,940,-626,3330
-90,-35,-80,509,40,2505
101,-34,-79,-514,-613,2483
52,103,-64,1246,474,2319
60,-71,-124,204,686,1270
9,-97,102,165,10,273
-9,59,99,713,357,-239
-1,-2,72,199,633,-216
22,-8,40,-1649,650,-1003
37,-83,29,-538,328,-615
74,118,17,-204,769,-605
95,125,0,-771,716,-656
-122,101,-14,-1282,3203,-5769
-102,-78,18,-1403,3601,-5486
-74,-105,25,-3994,3320,-5351
60,37,51,-828,4780,-1455
-5,-50,74,873,5315,-1301
-97,114,-93,-188,3978,-1103
93,-53,71,-404,3297,552
67,116,-36,-701,1651,3333
58,-70,-56,-2491,-339,4879
-61,-68,-12,-1315,-687,2163
-68,-28,0,-1802,-2150,-566
44,-9,-26,338,-1316,-2130
-114,-63,-21,364,-1015,-2356
106,-96,-58,48,926,-3460
-109,69,-100,207,2629,-2667
82,40,84,559,3508,17
113,52,29,-911,2429,283
-33,54,-93,-1404,1576,959
88,-101,89,-1081,1103,2422
-110,49,10,-1833,-112,2003
-101,30,-51,-1788,-1310,1232
-78,-91,45,-1022,-2177,-518
116,-34,-48,1110,-1250,-1209
125,127,-102,885,-1317,-2362
-125,39,-51,1133,1251,-2624
-83,-70,-80,376,3322,-1712
79,-86,-125,832,3791,651
-77,33,10,-680,2071,-168
60,116,35,-1158,827,666
67,-17,9,-629,-1452,1141
54,-33,-7,-483,-1227,1678
-114,-75,18,-426,-3932,2506
-105,85,14,-3298,-2553,1007
89,9,-78,-282,-2201,2781
105,96,-54,-454,-1717,3138
-99,-79,-106,-1370,-1678,2332
-92,-99,-41,-455,-1992,2872
-33,-95,-23,-572,-1874,2025
-36,-105,-98,-539,-713,1547
103,-89,-51,-221,-2172,2630
108,-74,29,830,-1161,2814
52,-70,-42,973,-137,1840
-7,-59,-64,513,-486,1310
-6,-96,-97,-62,507,257
-10,99,-127,-60,457,-700
12,59,91,-1463,613,-1415
59,-47,41,-1295,1342,-1604
74,-92,40,-186,849,-879
94,-71,11,-777,684,-786
122,-101,-9,-311,567,-685
24,73,42,-941,2836,-5315
126,33,66,-13,3441,-4296
9,-10,104,14,4474,-3622
-22,107,95,-2694,5370,-3900
-115,-96,19,720,3762,-730
65,27,30,-922,2596,1361
114,-65,-19,-1651,2080,1469
-56,0,-124,-1335,1301,2570
3,-62,45,-1419,151,2645
-73,-93,44,-2111,-1815,641
0,69,-98,-109,-986,-1149
-6,81,-2,1116,-1175,-2078
-61,-128,-108,1504,-520,-3240
-53,70,117,1121,691,-2595
-52,-51,-12,678,2715,-1901
81,73,65,-52,2945,-749
58,16,-116,-1063,2190,543
-25,98,-5,-1848,1380,494
57,-80,-87,-1875,1055,1612
101,98,84,-2229,-102,2103
117,-16,20,-2467,-1807,1776
-9,-70,47,-1599,-1693,20
-33,94,66,-142,-1967,340
2,-114,-56,1090,-1120,-1278
-119,68,-126,1089,-1111,-3058
-110,-125,-63,1470,1973,-1974
-69,-68,-80,1056,2797,-1282
20,-111,83,301,2818,-1085
115,15,56,-166,2733,-440
-23,51,102,-1572,451,767
85,-28,95,-1033,714,654
-5,101,63,-949,-54,641
-90,53,23,-291,-1641,1117
86,19,55,-1236,-3436,1711
94,-48,21,-408,-4573,4012
97,36,35,-1168,-4666,3331
-122,11,31,531,-2217,3486
-32,92,57,1393,-2162,3450
-108,-51,-116,307,-1012,3198
115,28,-48,-977,-1723,2684
-62,-67,119,808,243,2409
40,-36,-21,19,-537,2127
94,-106,-82,167,1582,1487
7,109,-95,1439,588,1348
3,-119,-120,-84,412,695
-21,88,96,-568,294,42
-11,18,83,105,591,-196
17,8,62,-865,553,-803
57,4,19,-2678,532,-1771
61,90,23,417,784,-554
13,60,79,-1232,3019,-4122
-115,-2,-56,-575,4178,-4716
61,-100,35,1090,6577,-5771
28,8,100,-1563,6637,-4663
-96,-31,79,166,4120,-2955
19,4,-109,-939,2798,-1544
17,-45,70,-1098,2921,644
-11,-34,31,-857,2124,1468
86,81,-61,-1513,1511,1460
-117,-101,111,-1192,143,1970
61,70,51,-1947,-1226,1267
109,68,82,-1392,-2313,-40
-125,-31,-24,498,-985,-459
-56,-9,56,823,-947,-2748
-74,66,-6,1404,366,-1610
-64,53,123,891,1787,-1535
-54,-119,118,362,2272,-1220
-102,24,-63,-456,2667,101
106,71,7,-1194,1948,191
37,-105,75,-1552,755,1676
84,23,53,-1831,502,1514
61,-97,-10,-2008,-1030,1679
-19,-79,-2,-1883,-2206,113
22,94,-122,45,-1707,-201
13,-41,-25,764,-1479,-2155
104,121,34,1308,135,-2595
-102,-38,-70,1624,2257,-469
-69,115,-99,463,2890,-1108
76,22,-29,55,3217,-447
83,98,48,-550,2651,496
12,-116,106,-930,1091,298
124,-59,25,-1359,-202,957
72,15,31,-1003,-1425,1330
-14,37,40,-512,-2971,1844
-87,-3,64,-755,-4443,2940
-42,-4,20,-10,-3765,4603
-94,85,92,-657,-3635,3808
-50,-52,-87,-1507,-3047,3234
-72,-17,-47,482,-1437,3672
-93,34,-18,-382,-622,2828
105,23,-7,-121,-1211,2600
72,-10,7,404,320,2125
16,-28,-52,138,-14,1141
-3,-113,-85,869,397,773
-25,112,113,-100,340,97
-1,46,53,-736,744,-377
1,6,44,-666,516,-548
49,-73,15,-201,850,-529
57,-86,-3,-626,1030,-591
55,-121,-8,-306,690,-306
-25,-2,81,-828,3430,-4110
-20,-20,-30,-120,2766,-3830
-108,-18,44,-415,3969,-5266
-118,-60,71,-1759,3967,-4807
60,79,126,-2113,4592,-2881
66,-85,-18,-183,3457,-1114
70,7,31,-452,3305,-402
58,-34,-97,-845,2519,837
65,-53,-102,-427,1906,2388
120,-26,66,-1151,873,3428
-117,8,-42,-2057,-1868,2815
42,-88,44,-1991,-3147,-1246
87,90,43,41,-1075,-2411
110,-114,48,1345,203,-2166
-98,80,-92,662,862,-2985
-86,-29,-66,601,3271,-1706
-85,-41,-21,56,2881,-470
-66,-17,0,-904,2373,809
49,25,107,-1757,1133,1649
-113,-28,20,-1491,460,2842
-118,-57,-24,-1401,-653,2487
18,51,-68,-1717,-2601,133
57,-19,-27,38,-1358,-1846
-111,101,-43,946,-367,-3078
-95,-59,-75,898,1561,-2960
-61,-41,-98,1277,3248,967
-104,-41,-103,497,2482,1072
-47,-1,-100,-403,1051,791
74,117,71,-1464,187,881
70,-83,8,-10,-952,2406
5,-68,13,92,-1575,2620
-121,-23,55,-1464,-3056,2817
-98,43,44,-2337,-2354,2289
-67,58,77,-923,-1694,2797
-93,-125,-108,-852,-1530,2825
-35,-110,108,-687,-618,2942
106,-35,-39,-986,-2788,2868
-26,-123,-117,424,-317,3054
67,-33,-3,-890,-1395,2814
126,-114,-75,308,-579,2061
69,-55,-71,-226,-401,1696
46,-103,-84,511,290,613
6,78,100,860,736,-15
7,72,87,-1451,336,-942
14,85,23,-3813,633,-1437
24,-70,54,81,695,-253
67,-17,21,-610,942,-761
85,-70,-13,-46,870,-698
109,-76,-30,-349,723,-663
110,-95,-28,-271,499,-169
-72,-112,-110,-876,3500,-4284
-51,70,-89,-799,3818,-3960
-52,12,-114,-451,4820,-3592
-76,-39,101,-2777,7377,-3772
-76,87,67,-362,1845,-764
-19,12,-68,-1219,1594,425
-3,-100,-68,-959,2149,2876
14,-17,-74,-1029,663,4005
117,-89,117,-1598,-251,2493
108,39,47,-949,-2255,576
55,62,-78,-981,-1793,-2163
-98,-59,-122,1142,-896,-1722
-86,-60,100,736,311,-2533
-76,-104,-43,714,2298,-2349
34,78,70,128,2816,-864
9,22,-113,-703,2525,367
-33,44,-49,-1701,1600,347
72,127,-107,-1367,1294,2189
126,-14,69,-1759,192,2275
-110,33,-23,-1621,-1415,2025
-18,-23,34,-724,-1587,-1360
77,-38,126,1247,-1737,-279
-121,-24,42,750,-1320,-3256
-101,-103,33,1076,-329,-3712
-97,15,-72,1248,2870,-1363
84,-68,108,453,3326,461
42,-40,-92,-851,2032,-45
55,-20,-101,-1034,1906,1415
118,-26,21,-1197,274,1484
17,94,4,-1438,-1490,788
-84,38,-10,-694,-2599,1678
43,63,51,-2158,-3829,2522
99,-54,30,705,-3481,3889
-119,77,121,-142,-1601,3003
-115,110,107,-1262,-1381,2128
-111,-83,-75,-764,-1018,2541
-51,-125,125,1125,-559,2761
116,-84,-91,359,-748,2821
-91,100,97,1821,-671,2566
80,-43,-98,-678,-576,1778
46,-122,-46,96,797,1561
12,118,-57,161,767,1251
-8,96,-93,192,694,645
21,50,83,-470,434,-230
22,12,61,-1217,-248,-607
61,-65,17,-267,689,-286
57,-81,10,-106,509,-497
91,-103,-20,-507,595,-894
95,-122,-13,-374,403,-734
123,110,-12,-365,658,-660
-100,-21,72,-3588,1074,-3717
-86,95,42,-1636,3186,-5108
-105,105,-56,-1210,4602,-4663
-20,64,54,-412,4670,-3570
-34,-44,90,-404,3581,-3433
29,-126,118,-967,3985,-3731
30,4,93,-776,4003,-2219
-78,61,118,-887,2210,83
-13,71,89,-360,3321,817
-17,49,11,-993,2541,9
-18,-27,-52,-600,2086,1859
51,-42,-122,-1149,1691,2453
-122,71,32,-2200,-394,2569
-87,-127,30,-2293,-2019,1359
118,98,-71,-883,-1808,-1922
50,59,-30,1741,-1165,-1118
-77,-103,-118,1492,-756,-2855
-78,-33,-39,1460,1181,-2656
-63,-113,-57,705,2505,-2067
114,-121,-2,-286,2752,274
71,-67,81,-1199,2348,466
-54,28,-42,-1639,1441,1465
94,-74,-120,-1619,1257,1752
-123,68,42,-2367,-3,2102
114,-62,-54,-2571,-1858,-12
91,45,13,-1342,-3368,-2329
-34,41,-47,1062,-1267,-3473
109,74,33,1867,168,-2390
-109,124,-74,1067,2360,-522
-51,-43,-86,464,3027,215
-49,-6,-53,-158,2813,-27
-102,21,-7,-1037,2371,-205
31,123,81,-983,429,1568
84,16,35,-509,-324,1131
30,88,-50,-216,-2220,1531
-71,61,-44,-863,-3890,1987
-70,12,-14,-448,-3289,2200
-117,-26,43,544,-2386,3103
109,60,-101,-319,-2296,3176
-120,57,-96,460,-1452,3882
80,35,39,-1163,-2845,3846
-61,-38,11,762,-256,3423
84,82,22,-1230,-1127,2885
69,2,26,724,-7,2064
47,-46,-53,509,447,1343
-36,-95,-90,577,-61,741
-20,110,-119,347,807,167
-16,57,88,109,438,-379
3,27,57,-874,493,-544
32,-50,37,-115,1073,-837
-91,-50,-45,-1207,4732,-4294
2,-110,-8,226,5694,-4060
40,81,-1,407,7309,-4677
-101,110,56,-2767,5389,-3457
56,94,-44,91,4130,-1931
8,-42,52,-865,2716,39
31,-100,-39,-430,1709,2725
17,-33,-51,-1391,886,1238
69,38,-70,-2283,302,1749
-128,-9,-124,-2307,-1148,2003
97,17,-109,-1595,-1728,508
13,-24,12,67,-1523,-552
65,-30,69,1787,-985,-325
-92,75,-95,1583,-896,-1154
-88,0,-72,1534,964,-2343
-66,41,-63,601,2016,-2470
24,109,110,233,3067,-1192
56,31,104,-715,2378,-555
-54,65,-46,-1328,2122,1051
11,90,-87,-1378,1642,1973
113,-6,88,-1738,663,1893
121,-95,29,-2150,-752,518
64,-114,1,-1822,-1901,-519
21,81,91,-99,-1235,-523
-41,-108,-94,237,-2349,-2020
-109,-10,-65,1225,-439,-3191
-97,23,-34,1282,2564,-1934
-63,67,-83,387,3172,-1005
-74,-33,-69,-272,3164,-234
-88,7,-63,-1611,1566,372
64,-50,110,-1227,611,1392
72,121,79,-1003,-147,695
-2,87,26,-825,-1808,1366
-101,58,31,-1494,-3204,1218
125,56,50,-1068,-3592,2660
95,39,-126,-444,-4298,3265
74,27,-101,1051,-3869,3187
-121,-41,-40,-95,-2927,2486
-102,-46,-74,767,-1098,3108
34,-63,-14,765,-2520,2895
91,-16,-31,-275,223,2601
30,-1,-11,-135,454,2087
18,-70,-46,1300,711,1333
15,-27,114,-347,831,198
-36,99,120,592,390,-157
-19,66,47,-1034,514,-722
-12,4,65,-254,323,-586
44,-31,41,-404,705,-587
78,-45,20,-752,548,-871
92,-83,9,-575,416,-854
-115,-111,78,-1749,3771,-4692
-1,52,-32,-281,3827,-4529
69,-45,-7,-374,3248,-3942
18,-55,50,-1019,3449,-4034
-27,-111,122,-497,3871,-3064
-27,45,45,-1210,3593,-2987
-35,-103,-86,-929,3354,-1242
-12,-22,9,-833,3011,56
38,-24,-73,-1489,1568,1432
120,-10,-94,-789,1530,2336
105,77,105,-1841,-135,2774
90,61,82,-1852,-1487,2353
-85,-89,114,-1418,-2190,-1179
-36,-8,-3,1407,-933,-1050
-58,119,114,1477,211,-1765
-50,121,-35,856,-121,-2515
-55,-8,-117,1182,2659,-1527
24,53,30,97,2476,-563
57,-22,-126,-748,2327,223
-82,13,33,-1607,1911,1025
16,108,-61,-1691,1297,1808
108,4,104,-2157,390,1868
124,-29,21,-2660,-1212,2224
69,31,-31,-1550,-2397,10
-85,-14,43,377,-1989,-1166
-92,-71,-79,687,-2441,-3480
-126,113,32,1022,100,-3920
-103,101,-46,1310,2815,-1424
-36,1,-84,419,3885,-79
-17,-31,-49,-306,3076,565
8,16,-68,-1006,1447,1127
90,107,65,-1138,-895,1610
-118,-38,-38,-1423,-2183,1962
21,31,-111,-1640,-4209,1705
-23,53,-21,-1157,-3630,2307
-82,64,66,208,-3204,3143
-84,94,116,706,-2061,3404
113,-30,-13,-549,-2518,3380
-82,-41,-25,683,-797,3512
88,13,24,-25,-1370,3351
-110,-26,-27,958,-65,2758
55,-15,-41,131,-10,2093
31,-88,-61,494,340,1725
-23,-79,-103,-278,294,639
-27,-123,-123,-119,640,30
-12,52,101,111,657,-449
13,23,66,-263,646,-819
45,-21,45,-311,767,-1008
86,-88,10,-413,781,-1129
105,-109,-6,-669,626,-1082
-53,31,-82,-2210,2525,-3902
-54,-103,-26,-1024,5761,-4907
-108,69,52,-369,2818,-5167
29,-2,71,-1395,4059,-4419
108,98,-125,-781,4746,-2733
43,74,95,-1370,3645,-2439
46,-58,-45,-1019,3903,-1881
-48,59,75,-809,2597,-136
-39,26,31,-686,2475,1260
-11,41,-33,-1074,1599,1568
78,68,-122,-1201,387,2251
79,-86,117,-1254,-599,2346
-22,-56,-127,-1965,-2053,1151
10,-125,-13,-65,-1596,-205
1,-57,30,920,-832,-982
-88,38,-96,1844,-535,-982
-65,65,85,1735,1618,-2115
-50,-2,101,1052,1659,-1475
95,37,10,-131,2123,-583
-5,59,-108,-866,1977,-481
90,115,38,-1204,1789,-112
-57,-88,-86,-1643,1461,677
-9,-7,110,-1903,300,1643
48,-119,44,-1676,-201,1303
-55,-109,-24,-1881,-1745,61
-3,-2,78,-165,-1406,784
56,75,-107,568,-999,-608
-124,23,97,1088,-823,-2130
-87,2,54,1551,1233,-2329
-68,-19,-108,915,2134,-1247
10,50,59,-65,2590,-534
-48,49,-74,-417,2302,-670
-28,43,-34,-1406,2409,12
64,-101,83,-1130,51,1309
-111,90,21,-869,-1661,721
43,86,-71,10,-3884,1730
-115,0,-39,-326,-5750,3111
-99,55,-86,-1413,-4084,2300
115,33,89,1260,-1535,3071
28,-23,15,-696,-3030,3728
-118,-66,-59,842,-807,2869
50,-23,53,94,-1600,3498
-83,-44,-12,845,26,2817
29,-37,46,159,-173,2453
45,-61,-61,-353,202,1367
-23,-103,-41,-142,126,943
-8,103,-95,306,615,505
-2,53,95,421,747,49
11,35,86,-364,689,-436
32,-42,48,-60,949,-572
-56,100,-87,-980,5203,-4727
-69,36,37,155,5257,-4841
-100,25,68,-225,3825,-4990
-18,-24,125,-612,4006,-4186
64,-114,-98,-1221,4560,-3445
12,3,61,-1564,3682,-2014
42,49,123,-452,3238,-173
38,-52,-11,-702,2273,1362
123,-106,109,-251,1393,3626
-45,-73,82,-1801,495,3223
-21,-117,100,-1719,-1311,4165
-113,-110,105,-2666,-2284,-525
-71,90,-30,-97,-1692,-2097
-43,-10,90,1169,-58,-2863
-96,-84,-40,886,-205,-3334
-81,114,-95,767,1857,-2286
-50,53,103,404,2747,-881
-5,-45,-118,-783,2367,711
-125,57,8,-1603,1509,-10
-26,113,-64,-1516,1478,1598
75,-59,100,-1724,788,2197
120,98,43,-2149,-553,2650
107,-55,-14,-1695,-2429,1000
-22,69,126,787,-720,-304
-72,-42,-35,1342,-1328,-2945
-97,101,-22,1350,-332,-3428
-80,88,-11,1344,2478,-858
-14,-36,55,214,2603,-41
51,-19,54,-154,2230,649
-73,3,-100,-1211,1394,473
-25,72,66,-1297,-434,2614
41,-66,35,-1274,-1054,2539
3,-12,29,-1508,-2019,2452
-69,80,12,-2810,-3390,1549
-84,82,87,-1416,-2678,2058
-75,68,-115,51,-785,2521
-109,-100,-96,-1207,-1313,2552
116,-54,-51,-1102,-2566,2174
-20,-99,-100,292,-634,2501
60,-31,-12,-1236,-1882,2396
115,-116,-39,827,-587,2400
96,-84,-40,753,178,2379
15,-100,-26,124,-625,1705
34,-94,-69,-365,95,847
21,92,-103,913,683,413
4,59,83,274,378,1
5,56,40,-1425,171,-596
39,32,48,-1558,506,-1168
73,-29,44,-371,863,-1045
109,-57,28,-841,627,-1234
107,-105,25,-757,5483,-4746
-87,38,51,2,3690,-4317
-26,-39,88,-398,2294,-4372
96,106,87,-1569,2526,-4291
78,-68,22,-1058,4060,-1256
53,102,93,-1158,4166,-605
42,38,-17,-1404,3143,399
-118,-74,107,-1101,3104,2240
-31,-25,-48,-1507,984,3805
-3,-23,-123,-1925,-1497,3548
117,-76,-26,-1638,-2580,989
50,-21,-42,218,-2095,-2514
-97,10,-74,1360,-502,-2558
-84,-55,-104,609,-567,-3713
-40,-101,-55,526,3643,-2806
-68,125,76,231,3546,813
-67,-103,71,-1184,2684,715
112,44,125,-1944,1415,1935
-72,-41,17,-1416,1210,2922
-102,-16,-104,-1748,-1197,2544
-40,92,-73,-924,-2101,-447
24,-78,79,200,-2043,-1322
-127,80,-78,617,-1625,-3261
-92,-51,-65,1164,1676,-1873
-67,-125,-64,1121,3393,179
32,-18,-57,43,3132,-408
-39,-102,-10,-1415,1730,548
92,-6,119,-1504,1294,2057
78,68,-20,-1117,-474,1547
-14,-105,-22,-1344,-1412,681
109,96,31,-993,-2863,968
-121,50,0,-1368,-2218,1697
95,66,111,-689,-2907,2323
97,108,69,-1115,-2706,2881
98,-73,-88,-897,-2369,3212
-65,-103,-83,613,-1605,2805
112,-30,-23,-953,-1747,2913
90,-83,66,266,-404,3042
-118,-78,-35,1299,670,2911
23,-46,-27,-91,-318,1880
34,-84,-74,-504,274,866
-2,-128,-105,31,203,481
6,74,101,-261,407,-133
2,19,81,-247,451,-360
42,-14,51,-584,837,-730
68,-59,32,-271,631,-670
111,-85,19,-256,899,-747
116,-92,3,-410,651,-864
-127,121,1,-139,799,-443
124,-107,-5,-581,466,-348
5,-28,2,-2926,2784,-4007
-82,-86,98,-5558,4411,-4450
-119,12,-49,1875,1346,-3909
-55,29,86,-305,2845,-3364
65,-9,72,-128,3450,-3246
-72,-23,99,-417,3785,-3186
13,126,-105,-711,3893,-3041
18,15,123,-1454,3634,-2268
23,105,-32,-543,3453,-926
-3,25,46,-1271,3236,-304
-4,-8,-58,-973,1393,1974
61,0,-115,-1198,1543,1573
79,70,108,-1223,361,2930
-118,-20,56,-1745,-1058,2712
-122,21,56,-1428,-2254,1149
-79,63,-17,-38,-2161,-1992
-91,-83,-92,1494,-890,-1081
-82,-18,127,1046,-17,-2797
-78,-15,-34,803,2411,-2870
22,-81,-113,33,3674,580
71,116,106,-604,2564,940
77,40,118,-1745,1313,947
-115,-56,121,-1208,1326,1954
-120,58,18,-1422,-147,2178
-127,97,-30,-1441,-1800,1012
105,67,40,-888,-2203,-879
-86,19,89,1774,-310,1307
-116,-48,-121,106,-1293,-1924
-106,56,62,677,620,-3468
-56,2,127,698,2587,-2011
-80,30,-26,474,3670,43
80,-78,55,-702,2574,422
23,36,99,-2072,977,1507
125,58,44,-958,343,652
8,-8,2,-1137,-1179,-61
108,-113,-7,-968,-3084,-26
124,34,21,-1244,-3359,732
86,-79,47,1081,-4056,3255
97,50,103,-1085,-2350,2581
85,48,-96,644,-2748,3300
123,-62,-72,-1541,-2189,3013
99,-58,7,1275,-995,3178
78,-54,23,219,-578,3031
114,-62,-32,457,-173,2734
64,-80,-32,207,283,2285
59,121,-98,380,414,1776
-5,-113,-114,-189,-306,1238
1,-126,-126,-329,-153,414
4,60,110,206,388,-320
6,-9,73,-51,659,-854
-36,-75,29,-6877,3095,-4130
23,-78,110,92,2796,-2549
-1,120,73,-910,4979,-4189
54,-76,57,931,4305,-3000
-110,100,95,229,4380,-2488
-92,70,-123,-109,3854,-2284
-33,16,-78,-495,4148,-2268
24,114,74,-541,4028,-796
57,11,-99,-744,3713,263
114,-53,41,-904,3109,1106
-97,-38,-107,-1356,1614,2355
-13,55,115,-1836,242,2747
-26,22,90,-1927,-1543,1971
-53,123,113,-1396,-2388,12
28,-10,67,-262,-4347,-2879
-91,-108,87,678,-3186,-1020
74,-124,-51,1882,1065,-1819
-121,-53,-117,435,2075,-3726
-59,-116,-93,887,4106,-1160
7,123,59,-252,3136,-652
-51,87,96,-760,3043,-1207
40,15,-120,-1865,1603,1050
121,102,115,-1666,1002,2269
-112,3,100,-2119,328,2258
127,30,-6,-2234,-1414,1787
27,52,12,-1094,-2470,-335
-36,-68,68,217,-1796,-633
-100,74,-51,1087,-1905,-1609
-125,-106,-59,948,-1056,-2713
-118,-111,-80,949,1981,-2566
-67,105,-65,668,3273,-1719
-49,2,4,-231,3226,-348
-88,-57,59,-545,2638,780
70,14,123,-2058,913,1617
-123,-48,46,-1247,-858,1908
97,81,13,-1759,-1493,1412
-45,84,-9,-1345,-3681,2098
-89,97,27,-1734,-3531,2305
-101,38,78,-82,-3251,3654
-102,124,-116,-133,-2100,3254
-29,-88,117,285,-1235,3280
-121,-41,-59,564,-1355,3558
-97,-28,-80,-617,-1777,2442
83,-43,-9,-861,-400,2688
58,-123,-3,551,-235,2723
45,-34,-23,-363,16,1899
51,-65,-71,543,614,941
1,124,115,451,107,-378
14,59,80,-940,570,-879
7,-32,68,-32,655,-519
-16,-113,38,-5925,2627,-3276
95,2,-50,-798,1610,-3723
49,19,-70,-742,3936,-3942
34,15,60,89,4062,-3913
-122,-23,55,-493,4598,-4353
-78,-102,96,-1028,4091,-3411
-37,63,-124,-1239,3913,-2399
-50,-35,22,-1230,3157,-1769
-25,74,-109,-727,3562,-332
-17,-14,11,-936,2509,1501
95,-4,-67,-727,2231,2577
-99,60,126,-1262,1095,2651
-92,-47,60,-1507,-194,2498
49,-37,13,-1754,-2601,1301
83,-19,-94,-439,-1696,-1573
-108,-59,55,1520,-895,-527
-72,99,-26,858,-771,-3140
-77,12,-48,1563,2239,-2860
-14,50,-71,796,3381,-1395
20,-123,-76,36,2819,805
8,-74,-44,-1651,1694,233
98,41,-92,-1704,1108,2144
-78,-55,80,-1570,676,2161
-99,33,-110,-2357,-1896,1803
8,93,-39,-1024,-2251,-674
41,-31,81,365,-2099,-1295
98,19,-92,818,-1349,-2529
-111,-56,-95,793,1156,-2592
-89,-72,-81,526,2948,-1565
-102,-93,4,480,3610,430
-115,-44,34,-993,2787,1257
-4,74,-113,-1559,1154,1400
100,14,6,-1515,-481,919
35,19,-24,-352,-2202,2354
-67,-22,-24,-1360,-3781,2218
-106,19,23,-2514,-2877,1461
-100,48,114,-471,-2520,3233
118,111,-119,-834,-2412,2570
-122,-96,-83,-286,-1756,3046
-76,-30,-78,-214,-2214,2766
-127,-92,-42,651,-677,2501
-105,-114,-91,636,-562,2622
83,-98,-71,-509,-596,2071
62,-87,-47,-176,165,1748
40,-56,-82,27,322,783
7,-92,-106,39,398,101
0,56,108,-42,418,-137
-9,23,84,-256,444,-170
-1,6,73,-303,389,-299
45,-2,45,-740,512,-774
84,50,4,-51,4025,-4063
87,73,32,-94,3553,-4172
45,36,68,-138,5116,-4419
92,-81,114,-278,4393,-3832
126,49,-91,-1407,4363,-2536
106,80,4,-918,3864,-1178
89,-14,108,-1446,3872,105
127,-69,-33,-853,2767,2049
-69,1,-113,-1533,1315,2446
-17,118,112,-1569,428,2917
-38,91,39,-2162,-1657,2112
23,1,127,-859,-3031,-339
-112,84,-25,408,-1977,-2064
-87,-43,-89,1243,-2327,-2754
-108,113,-31,1140,1132,-4558
-88,-45,-72,839,3409,-2632
-93,-125,122,39,3781,400
-107,-11,119,-1074,2526,222
56,63,-63,-2001,1853,808
-34,-63,64,-1535,974,2759
3,77,-23,-2151,-87,2317
-106,105,-88,-1991,-2305,2144
-26,-29,57,-845,-2783,-1067
-101,-48,30,1202,-1964,-1695
-107,-43,41,1015,-48,-2486
-99,73,-50,775,1774,-1988
-7,90,112,640,3411,-201
38,-38,112,84,3240,817
-61,-43,-43,-1096,1860,620
84,43,122,-1557,938,1369
-115,-38,58,-1268,-199,1475
24,89,28,-1246,-2928,1244
-66,126,1,-2426,-3828,1018
-111,82,5,-1052,-3116,1359
105,115,86,158,-3844,3332
65,112,-117,-672,-1904,2586
96,-75,-31,111,-1954,3152
-82,-79,-41,1146,-1300,3287
97,-17,2,-588,-753,2764
117,-81,-39,496,-785,2456
79,-61,-50,-482,-33,1981
16,-103,-30,-17,-184,1311
9,122,-86,349,343,747
1,123,124,-162,70,270
2,53,77,-123,497,-195
6,30,59,-499,673,-535
40,-30,30,-225,1145,-677
65,-47,6,-515,502,-858
80,-65,-1,-707,415,-854
108,-100,-14,-454,881,-828
-122,-26,-72,1163,4624,-2733
64,-41,-76,819,4433,-213
118,-28,-91,-1141,2657,101
99,5,-44,-1536,2205,953
-97,119,-112,-1818,1208,2640
-26,22,63,-1693,653,2568
-94,-103,-71,-1633,-1578,2236
-90,-69,-25,-607,-2623,-1445
29,-104,110,873,-1782,-967
-123,-62,-81,866,-2299,-2633
-99,-116,-61,643,2083,-3232
-61,66,-50,1147,4463,105
-6,-58,-80,146,3690,562
-6,-29,-61,-1481,1815,591
-93,-90,35,-1676,174,1354
72,69,35,-684,-745,1462
-60,90,8,-139,-2422,1470
79,42,36,-1977,-2965,1113
87,16,40,-1708,-3131,1412
85,27,72,-1085,-2243,1938
39,101,-92,-1267,-3229,2463
105,92,-127,3,-1445,2938
79,-20,-5,-549,-2174,2947
-84,-62,-61,372,-976,2926
102,-38,-6,189,-1385,3011
51,-47,23,-283,-197,1969
68,-44,-18,43,1,1626
11,-88,-54,515,238,832
-17,125,-83,189,143,410
-14,67,110,-548,580,-109
3,27,100,-226,669,-252
32,-10,70,-49,909,-333
58,-22,38,-595,533,-556
81,-47,18,-494,372,-565
102,-70,19,-404,748,-639
112,-81,-1,-351,780,-534
116,-85,-4,-438,533,-572
-126,-87,7,-647,628,-295
-127,-97,0,-201,499,29
-118,-75,7,-504,928,-136
-115,-50,4,-716,625,-26
-120,-49,6,-307,252,358
-105,-31,15,-297,718,197
-104,-20,12,-173,699,225
-97,1,10,-548,347,30
-93,-14,9,-258,571,-98
-97,-20,8,-226,646,-87
-82,-23,4,-309,477,-74
-68,-26,5,-266,543,-169
-74,-34,9,-219,599,-182
-25,-62,90,-4925,3395,-2578
125,111,102,-136,2711,-3286
106,113,41,-67,3567,-4836
-79,-79,70,416,4542,-3445
51,-78,94,177,4776,-3552
116,79,-95,-226,4555,-3201
96,-40,100,-366,3937,-2176
90,110,-54,-507,3691,-1481
62,-33,4,-902,2994,376
98,-32,-105,-1156,1689,1932
-126,46,118,-1351,859,2793
-111,-19,23,-1895,-1468,2776
89,4,88,-1239,-2372,1341
30,-58,-39,-728,-2455,-1413
-119,-101,-113,1519,-1231,300
-96,125,82,690,-248,-4639
-93,-9,-72,314,1893,-3990
10,52,-118,474,3299,-476
-11,39,-45,-369,3341,382
-127,67,21,-1366,2214,280
27,-100,119,-1698,1361,1719
-127,2,80,-1563,940,1850
-89,115,12,-1785,-19,2305
86,112,2,-1375,-2051,1099
23,62,64,-1106,-2307,-108
-92,-97,-24,723,-2345,-1502
123,25,-17,1194,-221,-2586
-105,86,126,312,515,-4430
-35,-79,-86,1061,3971,-1352
-8,85,-56,405,3352,2061
-100,-51,8,-1370,1738,766
24,-100,89,-2163,621,1980
19,15,58,-701,-185,352
-49,86,79,-1173,-853,573
-92,38,28,-333,-2235,1123
96,97,60,-1931,-3472,1016
101,33,41,-881,-3689,2073
127,51,87,-384,-1320,2070
98,82,-108,261,-2066,3005
120,-50,-119,-331,-1339,2983
96,9,-41,-338,-1832,2611
109,-31,-49,-673,-186,1678
15,-105,30,-221,-1000,2327
80,101,6,535,82,1986
24,-107,-10,-469,137,1471
34,124,-63,113,5,1012
14,87,126,35,44,307
20,52,103,-51,612,105
42,15,67,-235,665,-160
42,-4,41,-694,364,-350
98,-30,62,241,3804,-5022
117,-98,56,-1030,4243,-5039
39,95,46,-943,3192,-3947
85,62,3,-2176,4747,-3921
-25,91,-79,-1216,3951,-952
-15,-38,13,-977,2246,1847
64,35,-31,-1243,2052,1876
91,126,-114,-1400,687,2067
83,3,105,-1473,-602,2144
8,-56,100,-1225,-1512,502
5,69,-79,286,-1364,-198
30,69,-30,1350,-560,322
-78,59,-102,1044,-657,-2888
-56,-5,18,913,768,-1941
-55,23,100,405,2100,-1556
38,103,2,-465,2171,-599
51,43,94,-837,2439,-218
-82,105,-39,-1761,1307,754
5,-55,-76,-1645,1191,1050
28,52,127,-1787,206,1599
60,-54,73,-1294,-362,1961
19,-112,14,-1530,-1387,-158
20,14,-5,-266,-2541,563
-99,-102,-49,732,-1507,-1268
-108,5,112,987,-823,-2973
-105,-14,63,719,947,-2353
-93,-2,-70,638,2286,-1786
-92,101,97,555,4303,-802
-56,-72,24,-1127,1633,-253
36,-7,-36,-1261,1685,964
80,103,-89,-1380,1686,1811
66,25,41,-1457,17,1014
-8,-65,14,-1602,-2131,532
-28,-29,55,-965,-2944,440
117,-99,58,-411,-3863,1017
26,59,119,-838,-3330,1703
-9,66,-66,-130,-3364,2668
-39,-104,39,79,-2710,4153
38,-67,67,734,-1794,3436
18,-52,84,323,-2646,3778
72,-43,82,-902,-809,2526
94,-99,49,961,-198,3078
58,-59,-26,14,-13,1868
-27,-63,-55,-69,-230,689
-42,122,-91,272,-76,361
-17,72,104,-274,428,0
5,34,79,-129,991,-536
26,-18,48,150,1009,-708
65,-49,22,-724,877,-1039
73,-93,16,-381,678,-779
-71,-24,23,57,4220,-4511
25,-16,47,-616,3882,-4950
100,-106,77,-300,3443,-4713
58,-55,-4,-2966,3383,-5081
-39,-79,-63,-1707,3388,-1202
-5,-2,55,-671,3567,2003
29,40,-22,-1351,2510,1658
95,81,-97,-1029,1781,1538
-121,94,110,-1249,1162,2187
121,-65,84,-1400,-111,2908
31,-77,93,-1712,-2162,1591
69,-56,-97,-1004,-2114,-1445
-8,-6,49,845,-1161,-2280
-99,53,-50,1370,-1135,-2619
-105,-14,-83,803,1260,-3049
-34,106,-65,922,3363,-1336
-46,13,41,-82,3258,-1
102,67,115,-752,2330,-27
-21,99,-21,-1083,2082,599
35,-114,-97,-1863,785,1223
96,-68,48,-1951,-50,2811
100,-20,-11,-2259,-1612,1776
-23,-18,3,-1718,-2531,777
2,-54,89,-6,-1127,-818
94,103,56,949,-1996,-1394
117,62,-110,1008,1165,-2587
-101,44,-85,837,2493,-2032
18,-105,-98,771,3542,-1004
30,-114,-59,156,3159,-558
-47,88,-25,-899,2151,-220
97,107,26,-1400,80,1207
104,-19,-3,-1199,-1453,1767
30,45,-61,-1492,-2797,1892
-42,30,-32,-1153,-3933,2262
-57,0,80,-554,-2583,2381
95,33,-83,-35,-2932,3445
113,-104,-33,-1404,-1898,2612
-99,-94,-52,-240,-1659,2906
-59,-64,-88,356,-964,3021
30,18,47,-1158,-2058,2348
-125,-89,-3,427,-156,1984
-16,-113,63,-182,64,2132
50,119,-8,561,372,1814
-4,118,-41,665,341,1168
-1,107,-128,-413,499,58
8,43,88,-441,443,-247
19,11,58,-501,299,-476
72,-30,27,-218,1024,-706
88,-39,16,-453,831,-1001
104,-71,4,-470,539,-1010
-107,21,54,603,4474,-4162
-67,-13,82,-46,3881,-4093
2,99,108,116,3086,-3410
-33,30,9,-1007,2712,-2577
-25,-103,-75,-2148,3535,-1641
-48,89,-109,-725,3128,67
-33,45,84,-828,2855,135
1,-39,-26,-872,2035,1981
51,15,-64,-1173,1114,2197
78,-56,-96,-848,108,2644
40,-31,59,-1157,-1576,930
-90,-113,68,-397,-1956,-1226
49,108,-84,841,-1200,-1401
-68,-14,47,891,-1291,-2071
-74,23,25,593,-1206,-3813
-101,122,-31,256,3235,-1129
60,-2,24,-121,2820,729
119,70,-3,-1346,1925,-74
-61,-100,-57,-1530,1967,1345
17,-1,-111,-1149,1595,1960
75,-116,23,-1432,594,1895
37,38,-35,-1662,-1291,1074
97,-79,4,-1476,-3068,-87
13,14,-107,905,-450,-375
-107,-35,16,443,-1571,-2071
-98,22,-53,229,56,-2855
-93,1,78,570,1718,-1509
-11,-120,44,28,2913,-328
-95,68,-74,-613,2307,108
125,30,38,-996,2407,502
-85,-128,-66,-1377,1254,1305
-23,31,84,-1282,669,816
-66,-77,6,-752,-917,955
-78,-112,0,31,-2184,1264
-125,59,27,393,-2623,1750
103,-41,42,-16,-3286,2635
113,-2,37,-1319,-2336,1756
64,10,126,-464,-2583,2937
112,96,-55,-608,-2606,2954
77,-117,15,147,-888,3609
-33,107,-109,1647,392,3856
114,-24,-92,-1401,-1637,3139
114,-89,7,-719,-787,2869
74,-117,-32,735,140,2541
25,-10,-54,-461,-479,974
-3,-69,-99,-133,385,-350
-21,46,96,385,909,-565
-10,18,59,26,845,-458
14,-2,38,-529,588,-914
51,-64,18,-560,797,-1133
-104,58,64,-919,4195,-3686
122,13,-118,-503,1784,-4365
-19,-69,53,25,3982,-3809
8,-85,59,-50,4317,-3689
42,100,98,-203,4271,-3269
30,10,-124,-359,3995,-2911
42,106,0,-238,4122,-1634
-12,22,-117,-756,3498,-210
-14,16,12,-1228,2175,509
65,0,-72,-941,2062,1025
52,40,87,-1994,478,2029
93,-60,61,-1481,-319,2681
52,-50,86,-1472,-1565,1571
-122,-76,-128,-633,-2084,-825
-79,27,-36,993,-1300,-1384
-102,3,-102,875,-1109,-1746
-90,-8,-69,1536,1302,-2154
-71,-85,-60,577,2433,-2094
59,12,41,-227,2882,-93
55,-11,87,-947,2239,272
0,29,-118,-2034,1235,1061
118,-92,99,-1540,971,2309
-92,-104,-19,-2136,-483,1851
99,-111,-35,-1860,-1972,727
86,-114,65,-386,-1993,-799
127,-51,12,538,-1783,-1943
-127,-47,27,1358,297,-3228
-103,-117,-77,751,2026,-2522
-24,19,-120,484,3368,-377
-26,-11,-92,-332,2757,731
-88,20,-17,-960,2174,137
57,-109,45,-1080,720,1728
63,12,12,-518,-1064,1621
-9,12,-15,27,-2139,1954
-88,4,-19,-2025,-3786,1667
121,33,43,-2257,-2358,1599
-126,14,-119,87,-1783,2880
104,-101,-69,-1297,-2352,2611
114,-114,-45,-573,-1474,2726
-107,-63,-35,-633,-1803,2715
-110,-75,-29,443,-920,3067
96,-9,-20,-1124,-1169,2040
55,-61,25,-299,-853,1933
66,127,-33,881,586,1940
8,-83,-82,390,-548,1009
-9,116,-112,236,-17,379
3,33,121,237,755,-179
10,5,75,-76,814,-264
22,-14,58,-386,473,-427
73,-45,31,-1073,745,-858
53,-42,-75,-1317,3415,-3836
34,-94,-72,-1578,3515,-3396
-28,82,-74,-753,3147,-2420
-107,-40,-121,-438,2728,-1654
-102,-111,-117,-509,3647,-741
-83,80,69,31,3399,127
-95,52,-13,-821,2908,408
-98,-13,-38,-520,2425,769
-67,-43,-100,-1737,1602,1887
38,34,92,-1869,782,3329
67,6,55,-2089,-1221,1429
-41,-76,97,-962,-2223,-536
-111,-11,-69,520,-970,-1562
-56,116,57,910,-1420,-2089
-82,59,-123,679,107,-2956
-68,-37,-33,1118,2900,-1246
59,25,87,357,3104,-179
92,-28,57,-707,2210,300
-32,17,-59,-1354,1696,1146
66,104,-126,-1468,1518,2169
-102,27,6,-2009,45,2684
-79,25,-61,-2029,-2132,1816
119,-87,8,-1069,-2065,-1247
-52,4,-75,787,-1914,-2275
-116,-25,-68,1024,-943,-3815
-100,90,-107,1569,1154,-2198
-50,57,103,484,2874,-304
-116,56,-54,268,2590,560
101,47,-1,-463,2015,600
-75,52,-123,-1296,702,1477
-59,93,41,-1292,-1391,2475
46,-81,-18,-1627,-806,2611
-97,-19,-18,-1905,-3649,2765
-40,47,11,-2153,-2215,1924
-74,-118,89,-1554,-1645,1666
-102,117,-123,-25,-1423,2290
-68,-117,120,-304,-1281,2438
-101,-61,-115,-488,-2377,2467
111,-89,-77,327,-1614,2694
-84,-70,-64,579,-631,2502
100,127,-57,794,348,2398
93,89,-109,1183,350,2448
46,115,-121,29,-116,1764
10,116,-110,-558,-58,1273
-7,74,-113,-260,102,501
9,46,95,-432,801,-506
19,15,67,-244,834,-529
53,-32,22,-182,997,-909
74,-54,4,-564,763,-1197
103,-88,-4,-602,647,-1265
42,57,18,-1104,4413,-4755
27,-11,62,-699,3095,-4016
119,103,97,-1274,4142,-3894
84,-31,18,-1558,4448,-2520
40,7,126,-603,4084,-532
34,-68,23,-355,3266,1743
73,-85,-46,-636,2644,2814
-121,-25,-124,-155,1516,3488
-93,122,69,-2144,-248,1525
-107,55,55,-1310,-1289,858
-67,59,62,-1736,-2895,-1403
98,-68,-31,492,-1174,-820
-73,38,75,795,-1965,-2015
-115,66,-88,1097,892,-5254
-68,33,-67,927,3150,-2990
-97,-42,29,-133,2496,-653
127,-75,108,-946,2545,179
-96,0,-19,-1944,1598,1228
-20,-105,-86,-1546,1656,2187
25,75,99,-2173,490,2097
84,-52,49,-1813,-31,2375
23,-34,-18,-1612,-2004,192
-105,125,52,-258,-3083,-682
-43,-72,6,630,-865,-1692
124,-27,13,962,-906,-3242
-106,-119,-79,1015,2983,-3198
41,-29,-93,897,3731,-954
47,-74,-96,-495,2844,309
-35,-30,-25,-1332,2240,978
87,-127,76,-1888,509,2088
61,33,52,-631,-957,1764
45,94,6,415,-1270,1750
-113,106,39,-2009,-3680,830
119,77,-13,-3084,-4081,1479
103,-24,44,522,-3326,2976
69,80,119,-922,-2593,2934
-97,-94,-78,-654,-1615,2760
117,-10,-10,-92,-2050,3212
111,-53,62,349,-1282,3117
-71,-51,-14,594,-6,2862
49,-12,-16,-642,-1125,2261
45,-88,17,473,-348,1506
27,-110,-62,610,700,982
-35,-105,-77,-99,-62,107
-23,62,-116,-188,601,-227
4,-12,101,5,811,-307
22,-19,66,-495,754,-538
65,-82,33,-284,928,-657
81,-98,17,-474,620,-643
100,-127,0,-318,687,-407
-117,49,31,-1631,4057,-4115
-54,96,-37,-3063,6528,-5288
102,-44,94,1768,3946,-4306
93,-101,98,-434,3202,-3274
-49,76,-119,342,4120,-2118
42,-58,-81,-35,4283,-2047
8,32,27,-543,3341,-118
77,-68,126,-521,3535,508
38,-66,-44,-1590,1378,1751
111,6,-60,-1847,1141,1439
126,-71,-102,-1977,-410,1456
80,-1,-100,-1606,-1202,260
122,110,-85,-346,-1810,-634
-99,77,-42,554,-1164,-1359
123,-69,-71,670,-1201,-1482
-85,88,114,1290,1534,-2926
-77,60,83,701,1839,-1576
73,111,25,656,3149,250
-20,126,-100,-273,2457,-498
116,66,1,-1090,1843,551
-57,120,-49,-1294,1332,1806
5,-33,-104,-1839,679,1636
20,-80,73,-2125,-676,1397
-31,-124,35,-2434,-2416,-1060
-21,14,-115,-635,-1158,-1362
-66,27,-40,1071,-736,-480
-98,-64,66,1039,-333,-3137
-93,-78,10,1023,1251,-2231
-72,88,111,663,2517,-830
36,4,18,-28,3094,1
7,18,-115,-378,2668,1033
-63,108,-79,-1689,716,879
31,-78,102,-620,-399,1212
22,60,59,-1279,-1673,1513
-66,72,-33,-692,-3346,1686
-118,43,15,-237,-3726,2134
-106,31,11,165,-2827,2893
94,46,79,278,-2513,3053
110,107,92,498,-1881,3030
97,-121,-88,213,-2069,3051
-110,-111,-101,134,-1157,2897
103,-79,-57,414,-725,3229
50,-6,29,-723,-965,2095
81,-103,-47,818,1271,1824
9,-78,-81,62,170,1297
-30,-90,-118,-1147,419,-208
-23,81,126,-164,953,-102
-28,48,95,-17,725,-203
-5,-11,57,-46,696,-466
20,-19,28,-683,360,-699
-121,109,-51,-610,2880,-4542
-9,13,45,11,3743,-4397
78,-8,88,-680,4635,-3873
12,-117,-112,-960,3272,-3718
54,16,89,-799,3168,-3134
-119,-50,-119,-595,4828,-1017
39,-82,18,-926,2216,1603
67,-42,-23,-1365,1856,1283
78,62,-80,-1716,887,1560
109,-98,107,-2051,-579,2432
110,82,94,-1841,-1502,1982
-66,83,-90,-1178,-2802,-109
12,-127,-1,1265,-607,705
-57,-114,10,386,-2162,-1749
123,-2,25,1200,-504,-2665
-107,25,-88,1130,1237,-3063
-92,50,-95,266,2621,-2115
-25,64,79,464,3655,-224
-79,12,80,-1245,2395,286
43,45,-47,-1586,1641,845
116,-87,-118,-1844,1405,1950
110,22,76,-2075,449,1505
68,-10,-10,-1612,-1326,1788
-87,37,14,-1133,-1563,-552
97,119,95,643,-1723,-859
-102,77,1,937,-1433,-2398
-116,55,100,1661,1191,-2122
-77,31,-51,674,2741,-2306
42,-25,69,38,2822,-365
85,-18,-112,-648,3136,100
17,16,-69,-1774,1697,57
94,-77,42,-1459,-470,1804
73,66,46,-1253,-1493,1610
-57,114,42,-895,-3176,1670
-124,52,70,-1218,-2835,2104
-115,30,75,-270,-2566,2495
61,86,112,-1175,-4078,3112
-81,67,96,580,-1686,1965
-90,-10,-53,-1266,-929,1944
91,-49,-9,-102,-1088,3172
47,20,29,-362,-2145,3392
28,-1,41,-244,-536,2807
32,-33,0,1015,-40,2114
-8,-35,-71,559,436,1042
-21,-114,-79,885,343,380
2,80,80,-577,962,-632
1,4,84,-190,580,-551
58,-34,58,-739,785,-825
72,-79,38,-506,700,-744
97,-94,19,-223,710,-609
-67,-23,103,-3944,3154,-2753
-112,-86,-99,440,4349,-3521
38,22,8,-275,2261,-4290
-84,-48,65,235,4165,-3877
-31,-101,96,84,4088,-3377
-27,94,-104,-84,3832,-2811
