AccX,AccY,AccZ,GyroX,GyroY,GyroZ
-80,-37,-126,2173,-5882,-1708
-125,101,14,1837,-7233,-634
17,-8,40,1641,-6580,750
5,81,-97,-3147,250,2134
-45,-78,-5,-4620,4585,702
-86,118,-124,-7405,4078,426
-54,-116,48,-10599,2463,1199
35,-74,109,-8007,-63,189
64,-106,-61,-4886,-2016,-1651
-113,-94,117,-682,-1202,-3978
36,98,9,-1941,-3724,-4324
65,-29,-14,-1391,-2866,-4310
125,126,125,-1259,-2204,-2898
-28,-78,81,862,852,-564
38,-52,-2,795,3117,3748
-103,-1,-128,1903,3782,6853
96,-55,42,2228,4343,4892
104,-41,-107,647,1946,3337
14,17,-39,3771,762,1555
47,0,95,2885,22,2339
63,123,-46,1897,-1021,3466
122,-15,21,2479,-596,3620
-66,89,-1,1148,618,3546
-42,102,-25,1656,979,4135
-33,-51,57,-184,-406,4528
-54,72,43,1751,-41,2715
-77,-57,80,3224,287,765
-96,9,98,910,524,770
53,100,-105,1069,13,-298
75,30,-89,1035,46,-370
90,35,-80,-450,146,-364
111,-86,-89,20,15,-703
-117,-93,-104,183,130,-525
-106,-106,-112,-233,132,-611
-78,-113,-125,-333,50,-235
-85,-108,122,-373,41,134
-94,-73,108,-494,-11,305
-71,-38,90,-597,19,467
-84,-44,71,187,372,235
-85,-7,57,102,245,300
-85,46,44,-412,69,347
-72,-4,25,523,181,52
-73,25,43,252,15,227
-86,32,46,-85,-80,341
-87,43,59,-378,-167,473
-68,41,50,-66,157,336
-58,42,39,312,175,237
-66,60,35,66,104,295
-71,62,34,147,120,268
-74,69,33,131,174,234
-9,99,14,1076,-4911,-2596
-84,-98,-14,1419,-6004,-2585
-103,33,95,814,-6021,-1275
-11,64,-30,3024,-6052,-96
-21,62,-90,1787,-5392,769
83,-14,81,-1123,-1711,971
-63,-85,66,-3567,3273,1108
-42,-77,-106,-8150,2899,1929
-44,-49,-58,-11376,3083,2124
-14,-125,125,-11405,-970,708
43,-22,-49,-4185,-1586,-1727
-108,26,-62,-531,-179,-3270
43,-3,-60,-968,-1393,-4218
32,55,-4,-1130,-1618,-4755
39,-97,-86,428,-2787,-3764
-15,-120,24,45,69,-295
-86,91,-55,1747,2806,4944
-24,19,99,2640,4949,6567
92,-10,62,1490,3818,4641
-119,-50,-16,1419,2410,3080
-14,-117,59,2828,153,1124
28,112,-117,3010,-975,2652
48,19,-22,1923,-1939,3308
75,41,29,1741,-1299,4030
-122,-83,-4,3037,212,3663
-91,-81,32,64,366,5341
-127,7,86,1317,16,3491
-84,-31,37,2524,-35,1545
-78,-91,79,3426,-67,1040
89,-84,-118,1839,23,944
10,113,-100,1137,275,-34
-9,5,-90,1256,344,-709
-2,-19,-61,-84,238,-784
23,122,-71,376,173,-1233
72,125,-73,-46,280,-919
-121,124,-86,-482,9,-814
-128,104,-100,-519,-210,-719
-126,99,-86,-290,-280,-3
-123,-127,-127,-345,107,251
-115,-106,121,-282,168,266
126,-78,88,-188,105,154
-120,-51,81,-335,15,260
-125,-54,66,-33,86,313
125,-18,59,-241,200,177
-111,2,60,152,368,-2
-96,-2,45,449,274,270
-104,49,70,-171,-158,782
-112,49,52,-96,-124,762
-111,55,49,-134,73,355
-97,60,34,-85,245,143
96,-124,100,1746,-3866,-2446
-8,-61,107,6487,-6210,-1251
63,-128,8,4924,-9444,-254
-48,70,-118,-4831,716,1940
-56,58,-48,-3733,3997,54
14,-89,-49,-8516,4183,1020
-17,-122,68,-8752,1037,426
89,55,118,-9634,-9,366
99,123,-86,-2317,-1774,-2548
-116,89,59,-1232,-1274,-3479
63,40,-74,-1960,-3659,-4773
120,-111,-25,-1969,-3238,-4824
-60,94,6,-1997,-1301,-3383
99,116,-15,-360,1453,855
124,-95,-100,1700,2446,5898
-72,80,81,3185,3402,7492
-127,83,-24,1372,3281,4763
26,8,-96,3097,1796,1128
10,-27,104,2272,89,2480
-30,9,-80,3600,-1694,2076
22,16,54,1303,-1726,3785
66,-70,2,1813,876,3401
114,-65,106,77,-180,5138
-100,6,37,3333,158,3294
-70,-95,91,1557,-130,3568
-60,50,-110,1953,-423,2871
-128,-36,106,1863,673,1422
66,-25,-87,1145,-61,952
-12,-120,-87,928,-46,-331
-8,18,-69,1457,-9,-2213
41,15,-63,64,463,-1449
79,-66,-53,-430,180,-683
102,-122,-74,349,-20,-389
122,119,-84,454,-28,-389
-116,-109,-80,-771,134,-50
-127,123,-118,-422,32,177
126,-116,124,-128,-67,369
124,-70,107,-219,163,436
-123,-38,89,-265,217,553
-128,-19,68,-131,225,531
-127,12,76,-272,128,542
-128,23,68,-85,0,438
-128,34,63,29,-127,314
-117,39,51,-41,188,114
-111,44,52,54,141,70
-114,42,43,81,129,4
-92,46,51,50,314,-83
-89,52,44,-72,11,204
-105,62,47,-245,-306,364
-96,68,41,-114,20,341
-114,13,-2,2876,-4863,-2472
-109,-128,-64,2949,-3816,-2662
-127,-122,-55,4473,-6044,-1186
-106,-84,23,4466,-7290,1029
45,87,75,-2900,-4336,2474
-31,90,116,-2492,3043,429
-115,-6,-76,-6167,4450,946
-21,-26,-6,-11023,4731,1419
41,116,-117,-5403,1599,111
-70,103,-33,-4482,-1246,-2287
-100,125,111,-3869,-2959,-3977
-113,28,-24,-2807,-4003,-5112
77,-80,1,-2747,-5758,-5376
-60,92,-49,-6676,-3522,-2839
-117,7,47,-27,1401,-201
67,86,-30,3471,442,6321
-116,-23,-99,2296,2034,6826
94,-65,56,4060,2981,5244
-78,-68,53,660,1325,5961
74,-112,-96,4777,523,1535
100,11,-57,4075,-799,1966
88,96,6,3268,-1453,2339
-125,99,3,136,-244,2998
116,0,0,1952,-101,3144
126,81,22,688,415,3075
116,52,51,883,-371,3366
-128,80,90,799,-434,2661
116,-86,112,2981,-158,1702
112,-18,-87,1582,105,1512
25,-87,-120,1323,400,465
-9,-89,-81,-201,-129,-39
8,71,-98,-107,-70,-653
16,-1,-110,-145,91,-980
46,-35,-121,-381,158,-913
99,-46,109,-787,167,-596
99,-63,97,-472,-182,-489
121,-41,104,-524,-68,-347
-127,-54,65,-218,354,-399
117,-33,58,-124,236,91
114,-8,27,21,186,324
118,14,22,50,23,535
110,31,21,98,-5,617
116,59,32,100,-35,744
126,77,30,-12,-17,734
125,94,37,-14,0,633
-126,97,23,141,77,350
117,113,34,-4,-25,248
-109,108,17,-45,200,258
-114,107,12,104,89,70
-124,107,18,1,-3,-61
45,-89,-37,5209,-4675,-1597
-106,-11,-78,4438,-6588,137
-55,108,113,2718,-8728,2380
-91,-41,-74,-2923,-5187,2641
-19,-14,-32,-1353,864,551
-40,-76,-102,-5217,2736,851
15,-19,25,-8459,5021,592
71,88,-122,-7441,1550,653
-79,-13,-124,-8435,-607,161
-67,77,117,-2833,-2243,-3199
118,112,106,-2369,-3388,-3844
47,-102,80,-1658,-4978,-5201
27,-26,-18,-1263,-6134,-4748
31,113,126,-145,-1071,-1267
-11,-64,14,1130,2759,3270
-105,-33,-101,1282,3503,5787
-11,-74,119,4483,7032,4685
-25,61,23,-120,2541,4491
117,98,-2,1106,283,1035
-39,-6,-110,2382,-385,2745
12,-99,-26,1907,-941,2569
69,108,44,1112,-432,3282
111,-2,-2,2625,-214,3608
-104,-121,18,1477,158,4452
-70,11,43,2183,101,4117
-26,20,81,1082,135,3094
-29,-75,96,2173,424,2418
-65,-29,119,1994,-356,1751
90,-46,-90,988,-510,235
40,99,-72,744,-31,-906
32,-12,-73,1027,488,-1352
55,-27,-62,120,462,-599
90,-38,-85,-778,115,-557
104,-99,-105,-245,-248,-830
-101,-106,-123,-302,-36,-651
-79,-99,113,-409,253,-382
-108,-89,102,-281,-87,-201
-112,-94,100,-64,-89,-16
-95,-55,96,-344,67,538
-98,-38,68,-57,155,626
-98,-5,66,-73,41,702
-105,18,60,-208,66,714
-111,38,58,-78,-1,661
-101,42,46,186,230,423
-101,62,39,10,143,339
-113,67,37,-11,35,205
-78,69,24,-60,143,113
-78,60,17,250,70,-50
-101,68,30,4,-82,-48
-95,66,37,-149,68,85
-38,-32,-124,1259,-3897,-4114
-103,-98,83,2569,-6342,-3286
-123,-127,-67,4553,-7623,-1021
49,86,-93,2085,-6873,-353
-115,125,54,-3209,-1573,2087
-36,-100,-63,-2385,3725,9
106,-69,-83,-5293,3712,637
-65,-39,24,-9606,-228,-402
2,100,17,-6347,-1386,-1049
-17,122,-104,-6114,-3558,-1781
-6,-115,17,-3991,-3990,-3284
-25,67,-126,-2524,-4342,-4333
81,88,-11,-2818,-3067,-4249
-42,-18,49,-359,-540,-330
71,-16,3,832,1150,3507
96,81,-75,2406,3113,5770
1,43,-90,3547,5827,6669
5,77,85,908,1235,3921
127,-65,80,713,74,389
-124,33,-57,2723,-807,874
-71,113,109,2274,-1092,1962
15,-2,78,2768,-741,3546
68,1,86,3029,159,3477
-124,103,72,737,1134,3912
-120,45,44,2106,855,3407
-47,72,106,1731,66,3328
-44,17,103,2237,171,2480
-86,-65,-119,2175,391,1242
100,-75,-104,762,178,1184
34,-70,-53,-760,-471,1176
16,43,-103,628,379,-86
26,4,-62,1103,456,-589
67,-54,-98,1032,883,-1003
94,-57,-80,170,243,-798
125,-96,-87,-264,19,-792
-96,-108,-108,-548,-126,-284
-95,-92,115,-925,-58,-161
-109,-89,124,-469,-475,75
-108,-85,100,42,70,78
-112,-50,106,-130,56,271
-103,-27,87,-198,39,452
-101,-11,78,-60,-5,551
-107,-1,72,148,135,488
-91,28,60,34,225,561
-96,35,48,183,154,467
-112,51,57,19,-86,459
-111,68,57,-51,76,370
-98,63,41,110,210,124
-101,76,40,-80,7,143
-101,84,39,-323,-20,109
-22,-60,-83,2753,-2308,-3513
0,77,38,2123,-3635,-3740
4,127,39,3241,-5965,-2611
-28,-97,-18,4129,-6082,-1105
-10,-30,16,-1024,-3739,859
-86,32,-23,-3525,3032,1115
-68,-72,81,-5101,4430,9
94,35,22,-8364,679,-862
99,6,121,-7429,-993,-2164
80,10,-90,-7390,-3275,-2907
73,67,86,-5926,-3342,-4098
30,89,-72,-1639,-4023,-5181
115,99,-60,-2101,-1972,-4842
-39,-35,50,-2,613,-1215
66,24,-44,414,1120,4082
77,20,-89,1433,1195,7083
7,127,4,2460,2889,6080
-67,-109,101,70,721,2716
110,6,-121,3973,1821,-39
111,84,56,3071,-13,1706
-86,70,117,2760,-1818,2400
-33,-37,-80,1803,-1600,3971
28,-112,63,2613,989,2919
104,-117,-121,1033,167,4138
-92,7,77,2900,1289,3035
-50,-34,57,546,400,4015
-68,76,107,2145,-361,3236
-120,-8,110,2251,193,1925
85,-65,-91,2066,106,1403
53,-71,-57,1162,252,1114
10,-117,-64,224,176,221
5,41,-56,406,-143,-834
43,-25,-45,386,-160,-891
73,-87,-39,84,-70,-843
93,-93,-51,-310,-101,-533
107,-88,-76,-731,-189,-226
108,-96,-94,-587,-160,-128
117,-95,-121,-262,36,-38
103,-73,119,-223,76,55
126,-65,99,-7,287,391
119,-40,84,6,177,432
103,-18,77,72,0,487
113,1,69,-83,191,635
124,18,61,-2,118,755
111,41,52,100,-10,600
108,65,58,-170,-60,411
123,63,53,-68,77,169
125,59,47,95,108,71
118,70,47,-131,41,78
-109,61,33,-261,184,8
108,-2,53,2160,-6856,83
-96,-82,63,47,-7238,435
95,-17,-79,-2142,2222,925
-27,55,70,-3445,2891,733
57,-14,-93,-7225,4051,189
15,-104,-89,-11150,-20,114
57,126,62,-5282,-2808,-2175
25,78,6,-6210,-3944,-2752
60,35,-17,-4530,-3939,-4165
54,-78,32,-3994,-3995,-5663
-33,-29,88,-919,-183,-3255
-124,-52,41,1801,2744,1619
26,72,-70,1166,1293,7165
-94,-26,16,4870,4631,6772
-72,93,46,-855,1693,2736
83,-93,70,997,1377,1959
74,-90,-74,4004,426,988
-48,123,72,1506,-1236,2474
28,-81,81,3028,-505,2763
127,-56,85,2162,1230,4162
-3,78,54,577,2614,5298
67,88,23,1344,1066,4109
108,107,53,2556,-563,4932
23,-99,116,-117,-727,3054
-105,8,-85,616,-880,1993
-120,-67,123,2404,506,1172
33,-82,-90,1665,273,-118
18,75,-67,1368,-295,-994
51,0,-56,745,-197,-1004
78,-107,-62,476,-20,-1231
97,-92,-11,-628,-634,-720
123,107,-34,-326,-304,-325
-109,-125,-92,-240,346,301
-128,-88,-108,-980,25,260
120,-49,113,-1093,-292,334
125,-68,85,-93,36,95
101,-43,88,20,106,92
122,0,57,-527,235,504
-126,23,51,-474,-227,605
114,11,45,484,-24,174
121,55,81,81,-53,347
-115,57,60,40,287,351
-121,82,55,-169,-82,401
-121,91,56,-191,-10,358
-127,98,49,-79,103,208
-118,96,46,34,207,74
-105,103,31,-102,239,76
-107,98,22,-83,61,36
-97,85,12,35,224,9
-77,98,9,-63,137,220
-59,-76,64,1625,-3477,-4030
43,-118,-31,-270,-5179,-2905
41,103,-18,2627,-6508,-3065
-71,-78,-106,4142,-7313,-2292
6,30,90,-1055,-2961,375
-78,-125,-35,-5018,5284,2077
-123,-43,-128,-3778,4916,562
58,-81,46,-8504,1182,348
-108,-60,11,-7176,-1050,-1862
96,-47,119,-4075,-2914,-3234
99,23,110,-4088,-3326,-3800
39,64,125,-2478,-4404,-5697
65,-8,-55,-2548,-5081,-4814
-106,103,71,-709,1679,463
-77,101,-29,2516,2041,4457
-94,97,113,2668,4193,6700
-4,1,94,3245,4370,5690
28,46,89,-242,2558,4256
5,28,19,2037,564,2650
-37,94,120,4309,-1243,1463
60,-31,-46,3298,-1408,2919
92,39,3,722,-784,4105
111,16,19,1154,-510,3589
-95,47,74,1189,-180,3615
-55,30,67,2210,496,3423
-49,95,85,1027,938,2559
-109,-58,118,2334,465,1582
96,-43,127,1517,289,1307
34,-82,-82,648,-72,319
23,71,-107,797,414,-595
31,46,-98,146,470,-717
49,-39,117,245,609,-1013
65,-70,-121,752,-434,-905
124,-69,119,-236,-249,-742
-94,-42,111,-1424,-157,-360
-97,-80,95,-975,-194,-550
-99,-77,84,-396,-149,-396
-114,-62,94,22,-145,-127
-116,-45,90,72,54,361
-111,-8,74,-162,174,716
-115,7,60,76,118,834
-106,32,49,29,199,1034
-122,71,54,-38,68,1023
-112,74,38,169,200,672
-110,92,38,197,189,513
-113,98,28,188,224,217
-98,99,25,-4,127,19
-92,94,20,-37,43,-8
-105,86,24,-10,-73,-202
-91,93,27,-259,-45,-120
-43,24,-115,4173,-1358,-4087
106,-48,47,4011,-2646,-3310
-10,14,77,3388,-5833,-749
-15,67,108,3643,-8022,848
-16,-32,-92,2381,-8642,2415
-5,-45,48,-5312,774,1650
66,-83,-78,-2040,3734,52
9,-9,-106,-5547,3713,82
-12,-84,19,-7790,-8,-179
69,-6,91,-7547,-1512,-1178
67,-119,110,-6128,-3146,-3129
19,77,46,-6792,-3954,-3884
-59,-121,-16,-3733,-4794,-6371
40,21,-114,-1912,-3290,-4900
-83,28,114,2033,1971,613
85,-122,-13,3070,490,6199
-88,-64,-103,3411,4655,6016
-117,34,84,319,3270,6169
47,-13,-24,2008,1198,-139
17,26,88,5520,874,1313
-91,-61,-19,2188,135,2550
-25,111,28,1274,-443,3498
13,-29,39,2350,-170,3166
86,124,52,1286,115,4108
-127,42,46,1670,1084,3539
-60,88,15,2315,625,3622
-9,4,12,3086,1456,2361
113,-40,53,2031,232,1836
94,-62,-82,782,-668,1894
49,104,-96,1035,-110,1165
10,77,-79,304,276,14
20,49,-75,-284,222,-442
37,-40,-101,-193,273,-899
73,-47,-115,-587,159,-845
100,-77,126,-283,-69,-939
118,-94,104,-123,93,-766
113,-68,106,-696,-36,-353
124,-80,86,-325,-110,-202
-122,-66,67,-154,93,23
-112,-36,58,-254,50,176
-125,-28,49,-166,-50,314
127,-2,44,-235,1,500
-120,13,35,100,88,580
115,25,36,116,57,552
-124,59,37,-140,230,427
-57,39,0,398,465,501
-100,64,2,375,-23,783
115,91,24,-29,-271,658
-115,106,24,-517,-27,413
-112,90,12,-151,75,40
-16,25,-122,3921,216,-3908
-108,102,-19,6268,-345,-1476
122,33,-112,433,-1806,225
-126,61,101,1396,-3907,-2174
-25,116,82,3934,-7046,50
-31,64,-71,1128,-7927,52
123,-72,-60,-5053,2,562
-85,-114,-74,-2440,2440,-387
-82,-26,73,-6610,3521,432
-78,-62,-5,-7225,815,-668
-127,51,82,-6251,-2058,-2145
49,-40,75,-5626,-4143,-3258
-29,44,126,-4764,-5155,-4965
-117,27,-91,-4822,-5611,-5899
-63,110,127,-935,-509,-2923
-128,29,20,3350,2311,2449
44,-67,-68,-141,1314,6230
-37,-8,19,4412,5048,7294
76,19,18,1024,3329,5820
37,-67,-25,1175,1916,445
-54,-76,123,2280,-169,2223
-11,-36,-20,2003,-1445,2463
64,-56,4,3034,-1641,3405
74,-2,49,1209,-492,3735
-101,50,-3,1463,362,4336
-84,-122,45,914,179,3762
-68,127,62,1206,-311,2204
-17,-4,68,2995,1535,793
-101,-34,-122,2672,684,1788
-117,-28,-106,1541,351,2083
66,-120,-104,944,177,990
39,53,-108,770,332,-268
67,-25,-77,553,251,-779
101,-23,-71,-218,360,-788
122,-67,-80,-398,-196,-763
-99,-97,-106,-411,-214,-810
-83,-107,-120,-372,-186,-658
-65,-118,114,-246,-37,-467
-70,-92,116,-424,-246,-10
-78,-73,101,-522,-223,298
-82,0,74,-812,-94,724
-108,45,65,-1240,-401,345
-113,35,54,-199,-81,184
-110,43,39,563,181,494
-118,74,55,68,-29,648
-105,87,49,-142,42,904
-100,89,36,-124,142,687
-91,88,26,146,117,433
-92,91,11,214,136,324
-100,92,17,259,127,196
36,-16,-119,3149,-5562,-2986
63,-23,-26,5639,-8501,-3037
23,27,123,3729,-9903,401
-59,109,8,-3902,903,2460
95,110,38,-1612,2818,-168
-100,88,29,-4300,4442,896
76,85,8,-7021,3985,978
-76,-71,47,-7633,66,373
-38,-90,19,-4887,-1573,-2174
-63,84,93,-4508,-3582,-3860
-83,72,0,-4039,-4670,-4810
72,37,-102,-3731,-5942,-5574
0,23,40,-2820,-2238,-3490
-82,106,70,1321,1625,1240
-72,69,-51,1333,3060,6756
-40,47,1,4617,5761,6369
-65,-41,125,116,2218,4865
-34,49,-38,2155,-346,-533
79,-27,101,4940,-814,2268
-66,78,64,2197,-900,2559
7,92,57,731,431,3215
47,-18,-4,2966,431,3250
123,-56,50,396,471,4512
-112,-5,-43,1270,1751,2985
-44,79,20,1093,645,3612
-34,-18,64,2763,111,2856
-30,63,118,886,-244,2067
105,-125,-110,1768,-272,170
83,84,-101,1532,406,-74
78,53,-90,522,513,-174
66,-23,-105,375,310,-465
88,-33,-93,85,-32,-391
113,-63,-114,-281,-45,-438
-124,-58,-126,-760,-133,-367
-99,-69,113,-524,-128,-408
-92,-81,88,-202,5,-518
-91,-61,86,-424,-44,-304
-95,-55,77,-357,-119,-89
-97,-48,65,-53,95,117
-91,-9,68,-175,42,488
-92,5,52,-71,63,503
-90,39,44,-189,37,559
-88,42,41,12,166,499
-91,46,31,153,236,485
-93,67,29,-15,121,530
-87,68,21,101,157,453
-81,77,16,26,138,422
-78,89,12,55,74,316
-78,93,10,-14,47,106
-75,98,12,-99,-13,59
-26,58,-81,2136,-6127,-2080
-43,-115,35,1440,-6042,-1833
-50,-9,81,-1787,1644,1259
7,12,-1,-3484,2950,1285
37,-87,-58,-5900,3348,1662
57,-55,-81,-7557,1381,281
-59,88,31,-6071,84,-708
-73,-98,12,-3537,-1553,-3395
-71,-124,-125,-3368,-1950,-3807
127,-95,60,-1623,-3636,-5370
94,-112,125,-2178,-4536,-5077
-92,-19,-4,-254,-3774,-3327
13,94,21,-263,2900,2780
100,-18,-84,1044,1782,6230
-66,-59,-26,3021,5185,5752
-90,-69,21,-404,1293,4780
67,-116,-18,748,469,807
-115,79,45,3000,-736,937
-97,-78,100,2609,-120,2418
-22,-111,113,2447,-628,3113
97,65,86,2530,242,3231
-123,125,99,1748,-109,4529
-111,68,110,2033,116,3415
-42,89,-97,1596,-18,4066
-61,20,124,1597,135,3025
-79,-61,-85,2303,-408,2457
120,-67,-70,1503,-164,1488
60,-87,-62,889,193,303
12,63,-78,901,543,-741
18,-4,-56,802,330,-1031
51,-57,-61,436,169,-747
82,-50,-47,-485,-144,-502
110,-93,-81,-428,-35,-618
-115,-95,-63,-338,-275,-527
-103,121,-110,391,545,-698
-105,-105,-110,-128,326,-308
-106,-77,-122,-694,-106,240
-103,-77,109,-136,-10,557
-110,-46,87,32,187,414
-110,-22,81,-70,125,594
-112,-6,74,35,35,802
-112,23,75,-128,-103,802
-104,26,70,104,44,482
-102,39,64,74,138,275
-108,41,64,149,82,226
-108,55,57,-45,78,180
-98,50,45,29,95,77
-94,53,39,-53,45,68
-93,57,37,-108,-29,51
-88,59,36,-71,21,4
-49,-51,87,3325,-3434,-3675
-33,-59,29,671,-3717,-3577
-40,127,72,3467,-4829,-3484
100,67,-8,4524,-5120,-2020
-1,-51,-22,-949,-2331,547
120,-31,-107,-3293,2362,1095
-19,86,115,-3222,4464,463
-119,32,-2,-7621,1959,345
-52,61,-4,-7729,-703,-1374
-50,-101,-6,-4747,-2858,-2785
-49,43,-22,-4574,-3587,-3794
105,-92,59,-3467,-4720,-4968
104,-96,96,-2803,-3240,-4691
-84,-67,56,-3794,-1060,-1436
-9,55,27,-505,468,2409
73,3,-35,2127,1446,5877
-75,32,42,3957,3464,6075
-67,76,-112,1004,721,5572
-120,-42,-116,667,95,213
95,-80,62,3810,-190,1488
-80,-39,84,3931,-1339,2130
18,64,97,3112,-1262,3336
72,7,27,2610,452,2466
121,88,56,1885,402,3901
-116,64,118,1277,-469,3832
-83,112,85,-793,-138,3258
-122,7,73,1939,-960,2695
-97,-21,-112,3195,-791,2016
114,-22,-106,2351,351,1343
26,-35,-73,1551,334,595
-20,-104,-72,639,185,-450
-15,55,-60,7,62,-791
14,-27,-89,352,320,-1017
56,-32,-81,-697,188,-792
121,-40,-101,-1474,199,-171
89,-104,115,-157,40,-632
-119,-65,99,-714,378,-395
-125,-65,71,-388,239,-95
-121,-46,60,150,131,154
125,14,43,-286,95,200
-126,6,43,22,-60,407
123,16,36,269,-102,545
127,38,34,275,100,386
-124,52,43,285,31,445
-120,67,45,177,-79,483
-117,81,44,107,-58,383
-123,78,43,64,35,157
-112,81,37,-16,149,28
-102,69,34,189,-44,-30
-106,62,35,217,51,-124
9,23,75,2117,-2661,-3477
58,19,25,331,-4455,-2782
84,-61,77,3460,-6701,-2720
-112,-74,-31,76,-6301,106
61,-73,111,-2792,2199,955
-17,-99,-121,-5072,4142,894
-54,-108,-34,-5148,3134,60
-53,8,-71,-9583,-778,-595
-31,-42,76,-4905,-2109,-3279
-71,-42,102,-5393,-2923,-3942
85,-59,-3,-2522,-3955,-6272
87,71,-127,-5092,-2797,-3863
50,-119,-4,645,1065,-912
35,-81,-7,1615,-26,5058
-118,-49,-77,2829,1926,6119
18,45,7,2229,1572,5913
53,39,-35,805,2542,1876
-34,99,31,4391,2064,902
3,69,-12,3847,558,2060
46,100,-104,2610,-750,2655
84,19,-117,2557,-744,3661
-116,-78,81,2791,292,3636
-77,5,56,2121,741,4074
-45,-8,57,1163,737,4003
-32,24,62,59,521,3914
-81,-79,-119,1230,-362,2165
-99,126,-74,1708,-255,1900
107,-122,-94,1039,494,1025
22,118,-92,374,3,63
2,28,-66,504,-131,-925
33,-26,-68,298,210,-886
72,-60,-83,-332,295,-842
97,-94,-108,-400,125,-781
115,-89,-112,-711,-204,-392
117,-88,123,-671,-274,-82
112,-83,111,-361,-200,23
119,-61,99,-369,1,94
124,-37,79,-370,61,259
123,-18,78,-301,-73,382
118,-5,65,-114,141,316
126,20,56,-95,188,359
124,21,40,144,230,396
-124,37,32,89,200,469
-124,51,28,109,125,550
-114,63,23,138,153,497
-114,81,21,54,62,295
-109,81,16,121,29,110
-109,80,20,147,27,44
-104,79,19,110,18,37
-96,76,19,82,37,-49
-24,76,74,2291,-3025,-4231
-20,105,116,4287,-6694,-4626
-101,-112,100,5343,-10081,-2325
-50,11,-14,-3508,2849,214
-77,76,-77,-1473,2320,-11
-42,18,63,-6754,4099,1355
-48,15,81,-7309,2459,438
68,-115,120,-5453,349,-1067
28,21,101,-3911,-2101,-2890
4,-109,-69,-5160,-2969,-3902
-84,-128,-37,-4082,-4801,-5699
-106,-46,118,-4231,-3889,-5691
25,38,9,-2632,83,-2106
-112,54,3,1978,3109,1965
-24,-14,-105,695,480,7501
-16,-63,-57,4265,3419,6360
-15,89,50,-650,782,3437
92,-71,-4,3158,1061,625
-108,-78,81,2344,-536,1667
-6,-88,109,2378,-1317,2010
41,13,125,1547,-646,2949
81,11,53,1656,75,3017
-114,80,120,2184,-245,3928
-72,55,19,1945,374,3531
-46,-44,-98,-485,-767,4018
-49,-23,97,2335,-163,2839
-77,22,120,1751,288,2438
114,4,109,1689,199,1777
21,-6,-116,593,-507,603
-11,103,-70,1587,-734,-738
40,-72,-92,3018,894,-1575
53,-11,-67,314,1237,-1049
103,-29,-83,-1373,273,-658
-115,-99,-100,-756,-625,-266
-114,-113,-123,-130,-532,-153
-111,-114,122,-82,-51,-238
-109,-80,107,-488,251,-169
-115,-88,99,-103,-44,46
-115,-54,93,-150,-102,447
-115,-29,81,-282,27,529
-113,-12,68,-118,85,614
-119,23,55,-101,27,634
-115,40,43,-71,98,545
-121,55,39,-89,64,433
-122,65,31,24,-8,314
-122,77,29,-66,38,262
-116,83,23,-44,67,158
-111,83,19,-3,28,-1
-108,86,15,-88,-41,12
-103,94,13,-207,-47,53
6,64,109,2443,-2520,-3197
12,62,104,1270,-3479,-2950
-8,-88,103,2273,-4679,-2201
-82,-6,92,2881,-5995,-1112
-38,45,94,-1295,-5245,-651
-89,72,7,-3031,818,369
-51,80,6,-2399,4111,203
109,-54,89,-7478,2619,1035
83,25,-81,-6644,-558,-762
88,-52,75,-4823,-2417,-1932
80,33,42,-4955,-2870,-2727
39,16,-32,-2255,-4076,-4137
32,20,70,-2007,-4344,-4971
-86,-64,-71,-1220,-1796,-3303
-108,-17,0,288,1722,851
123,-113,-104,644,2064,5245
-49,-32,54,2324,4051,5423
7,-21,88,-36,2708,6440
104,-52,34,1099,1665,27
120,2,9,2866,644,1490
-81,29,61,2170,180,1644
3,21,97,3091,-964,3907
92,-51,87,2929,355,3473
-85,67,62,1039,406,4324
-98,-13,67,1446,594,4002
-74,28,99,597,-363,3682
-50,-60,86,1932,416,3219
-75,-26,-116,1753,-189,2332
-111,-111,-98,1828,477,1528
104,-113,-76,916,843,735
48,53,-78,1237,829,-910
61,25,-33,1057,201,-364
64,-23,-9,-43,-93,-245
83,-61,-37,-286,-70,-97
116,-72,-75,-734,-5,-165
110,-79,-100,-703,-261,-369
126,-82,-112,-588,-399,-447
-101,-91,104,-358,84,-404
-109,-72,107,-463,-129,-249
-109,-76,91,-115,-137,-42
-111,-46,85,-231,-36,387
-113,-14,80,-305,9,457
-115,9,63,-79,68,536
-120,31,57,-84,46,654
-123,45,42,-128,-22,753
-124,78,37,-237,-66,806
-127,84,28,-167,4,528
-120,93,26,-131,0,370
-118,108,20,-118,-90,251
-120,100,23,93,7,45
-46,-15,-47,2629,-4717,-1939
-71,104,124,3312,-7266,-761
-22,98,0,-4156,-5489,1307
10,-125,85,-3358,5509,206
-72,-111,64,-2616,1617,-369
-117,101,26,-6307,1773,1598
-92,-61,20,-6705,928,110
-26,-44,65,-5433,-1030,-1464
-50,102,23,-4726,-2152,-3114
-90,116,-80,-4845,-3067,-3829
92,-33,-88,-2850,-4268,-5060
61,-64,120,-1902,-4035,-5287
-53,-120,66,1438,-936,-662
-95,8,-4,2101,2461,3232
102,37,-111,1143,3121,6294
-91,-6,-9,2868,5223,5880
-69,-98,-76,3734,2293,374
-125,-44,4,-65,1439,436
97,76,16,-1178,-907,1359
-26,96,101,1442,-1359,2536
34,41,104,2062,-946,3226
115,107,-114,1422,-386,4197
-123,68,93,2717,-979,4638
-32,119,-120,1390,-1190,4294
-5,4,50,2621,629,2441
-17,37,75,1845,401,2632
-91,-61,123,2139,-258,1907
113,121,-80,2473,-486,1568
93,-113,-72,1242,375,1018
34,95,-76,845,399,119
25,16,-59,681,192,-454
44,-20,-48,442,63,-567
78,-39,-71,-67,87,-759
109,-77,-60,-499,-363,-1043
-111,-115,-64,-139,-234,-901
-91,-115,-69,-54,140,-604
-82,-104,-94,-628,302,-519
-82,-108,-127,-507,137,-213
-89,-78,106,-257,-96,203
-101,-59,89,-125,90,271
-99,-30,78,-154,175,501
-102,-15,62,56,41,576
-101,-2,57,111,60,742
-100,19,56,-44,1,883
-96,34,55,34,-82,883
-94,51,48,-40,54,734
-98,70,43,-109,-47,534
-106,66,42,95,-10,176
-100,66,41,88,141,2
-98,66,38,-13,95,0
-51,57,-86,5401,-6520,-3389
-66,-87,9,4847,-7474,-1809
112,43,-21,-1365,-3695,-91
-4,79,109,-1098,3290,694
-17,-3,9,-4127,3281,1018
50,41,-21,-8965,1944,1999
121,109,98,-8853,1090,1492
-58,109,70,-5892,-962,-1168
1,121,46,-3338,-1860,-3012
-60,-66,-46,-3972,-3181,-4632
103,-2,-61,-3041,-4617,-5777
-108,99,-104,-3290,-3091,-4742
120,84,25,1195,1988,662
88,8,-61,1794,1882,3966
73,-68,80,2583,3871,5584
-92,-50,97,2140,3271,5712
-96,-107,97,584,1608,1798
-108,-65,-82,2437,789,1262
-22,-117,-15,4497,-29,1871
39,77,72,2655,-611,3627
92,-48,61,1469,137,2884
-93,20,-2,1262,1450,3211
-83,45,47,366,643,3842
-66,-37,-10,1606,602,3319
-45,-4,76,1209,-13,3420
-86,-73,84,1655,4,2366
-119,-105,-108,537,181,1674
112,110,-118,321,454,1568
85,82,-119,589,386,754
56,38,-104,1111,-152,-351
63,-20,-88,776,7,-1017
84,-34,-83,-36,94,-835
109,-60,-101,-457,178,-709
-117,-88,122,-415,32,-607
-108,-81,116,-579,-244,-437
-106,-75,98,-530,-230,-195
-104,-69,87,-272,-102,25
-107,-45,86,-353,-64,259
-110,-28,69,-152,84,414
-102,-8,59,-100,134,494
-103,17,45,-46,102,573
-101,32,38,-65,119,627
-99,54,31,-146,113,644
-106,70,27,-41,69,561
-100,79,20,47,196,457
-91,93,11,92,183,320
-92,107,7,-74,19,160
-93,92,7,86,30,-91
-85,94,12,-12,76,-42
-84,89,6,56,46,-41
64,84,-53,1977,-4794,-4340
57,59,27,2852,-6480,-3873
-59,-9,-126,3149,-6638,-2619
25,124,82,-107,-2502,427
-20,-46,111,-2876,3559,1125
-66,-119,76,-4506,4375,1399
112,-1,-52,-7220,1740,1742
-101,70,-54,-7169,366,-145
-81,80,-96,-4752,-1808,-2040
-73,114,88,-4365,-1978,-3272
-120,92,45,-2526,-3604,-4824
119,113,94,-3386,-4024,-6218
-63,-103,-43,-1025,-1847,-4257
-68,125,0,889,3250,2169
65,-118,-120,756,1821,5707
-118,53,-64,3567,4667,5814
-46,85,-43,2396,3765,4649
-6,-110,-2,-1619,1674,2056
123,24,-25,879,-699,1378
-3,-48,46,3312,-1027,2900
49,0,84,3706,-1643,3382
127,40,88,2160,-529,3935
-105,14,36,1374,603,3700
-61,-77,36,3097,1027,2581
-28,18,31,1645,1626,2735
-75,-66,94,2121,730,2967
-81,-75,120,1090,400,2495
-120,113,119,1220,405,1581
68,50,-99,1404,268,673
35,48,-78,413,314,-240
51,10,-80,241,419,-635
80,-56,-54,330,-295,-767
110,-81,-47,204,-314,-528
-125,-73,-56,-810,-397,-299
-112,-105,-77,-774,-380,-418
-102,-109,-109,-641,-144,-338
-102,-85,-127,-860,-302,-128
-96,-89,104,-413,4,-153
-101,-104,83,324,170,-221
-106,-71,86,176,140,338
-100,-28,70,-228,165,789
-110,7,43,-244,14,688
-121,35,50,-114,-62,628
-116,33,32,254,280,438
-108,53,33,35,336,336
-98,71,28,-175,310,140
-100,93,30,-850,-165,-751
-70,-78,30,-1377,25,-66
-99,125,1,315,-791,176
-106,-113,21,75,-102,-22
-36,-123,-114,2047,-2957,-3243
-67,-80,113,4333,-4471,-2665
-121,-5,95,3660,-5605,-1445
-64,41,64,-1776,-3175,1012
-111,-6,7,-2007,3053,745
-111,56,63,-4763,3931,1159
-107,65,-49,-6387,2421,220
-3,1,106,-8063,1070,-225
76,32,65,-6302,-783,-2035
28,125,12,-3054,-1587,-3223
-92,-73,-12,-1624,-3345,-5016
-105,-86,32,-2109,-4059,-6232
-70,-58,-56,-1181,-3041,-4041
-44,-60,6,693,2221,1141
66,-6,-101,413,1715,5142
-126,-80,91,2200,3954,5560
3,82,125,-367,3018,5079
33,-34,-71,514,960,3966
-15,104,6,2651,1327,847
-11,95,41,999,-548,2927
82,70,74,3525,-1683,2759
-95,64,87,2410,-1478,3741
-101,-52,21,2899,-309,3224
-72,38,47,1715,-304,3819
-66,-23,37,2045,40,2585
-60,17,81,796,-136,2951
-115,-77,-116,1297,-228,1933
112,86,-87,2549,-13,1279
103,68,-74,2342,828,927
58,86,-63,581,721,376
23,50,-47,39,-1,-110
35,-29,-45,-156,-190,-352
56,-68,-62,-269,174,-667
88,-94,-92,-448,299,-745
110,-96,-123,-615,115,-504
-127,-102,121,-637,-133,-343
-125,-110,93,-331,-174,-318
-117,-100,86,-245,58,-345
-113,-80,81,-278,49,63
-119,-53,62,-333,-35,165
-122,-47,63,-11,-28,290
-113,-30,54,181,264,434
-116,2,47,149,170,581
-110,16,43,106,90,699
-113,45,43,-16,47,754
-104,57,37,-14,125,620
-103,68,27,58,162,366
-107,75,22,81,8,152
-101,75,22,10,92,87
-98,74,17,-6,72,44
-32,52,-70,2490,-1686,-4319
23,107,64,4304,-3530,-3828
-14,56,25,5915,-6476,-2564
3,106,-124,2696,-7279,7
-114,28,51,-3367,-1566,1250
-33,-106,90,-1322,2151,-39
-14,-122,100,-3455,3181,-398
-26,-32,79,-10790,2287,96
84,63,-78,-8114,1633,-640
73,51,17,-5569,-1743,-1084
-7,-82,-126,-3061,-2764,-3749
-103,-77,-90,-1345,-4875,-5868
105,27,-91,-3705,-5869,-6339
-79,-106,49,-1251,1294,-1025
-75,100,-52,2443,2406,4714
100,79,106,1208,3587,6298
-37,3,83,2150,2791,6553
-123,-25,66,462,1924,-822
111,-112,-15,3332,687,1158
-24,-67,85,1698,-155,1447
0,79,99,1345,-432,3123
79,3,68,2636,-268,3840
-122,22,60,2000,90,3734
-51,-73,77,-340,-43,3900
-37,92,26,286,77,3463
-42,59,82,969,-784,2849
-64,21,-113,1355,-738,2807
-92,-50,120,1671,91,1649
117,-100,118,1700,554,1129
74,-120,-124,991,330,688
63,105,-122,446,192,51
65,33,-115,145,-106,-567
88,-3,-126,-155,63,-650
105,27,-115,-1149,-136,-227
-116,-22,87,-635,99,-681
-107,-29,77,-130,-24,-858
-94,-19,67,-438,-3,-764
-94,-17,60,-411,-62,-426
-102,-19,63,85,-1,-88
-98,5,48,228,264,263
-100,51,46,8,95,438
-97,67,34,20,84,624
-99,94,38,-136,-51,701
-91,93,34,165,139,621
-92,97,30,173,248,544
-86,101,27,116,136,606
-81,108,24,-99,160,745
-71,120,23,-142,286,740
-80,103,21,293,63,305
-73,114,18,271,43,112
-46,-46,62,2255,-7045,-1864
57,-55,98,3300,-10035,-1328
-91,-47,85,-916,-7451,370
-29,100,-103,-2121,2207,0
-85,-122,123,-2541,2918,257
-5,107,-127,-5986,3476,1196
0,91,-28,-9446,3187,1383
43,22,-83,-4759,-766,-919
10,-112,60,-4621,-2672,-2775
-40,-16,60,-5178,-3396,-3934
-96,-119,69,-2805,-5413,-6658
-79,42,27,-3123,-4823,-5795
-18,126,71,2297,2121,1712
127,-124,-59,1085,1801,4751
-93,-25,31,4202,4490,5941
20,-114,-85,2100,3982,4838
126,-23,115,492,580,263
-89,-86,-37,2041,-635,1149
-52,90,32,3195,-305,1907
46,-50,60,4021,-270,3017
84,-84,49,2906,696,3130
-87,66,11,790,1057,3951
-87,-91,4,1680,1654,2756
-15,-21,9,1232,1124,3164
-24,-78,100,602,291,2961
-52,98,73,1162,216,2050
-76,75,112,1962,-58,1720
117,-115,-106,221,68,1088
71,67,-121,14,195,-270
66,-50,-98,577,143,-919
81,-57,-97,96,174,-672
104,-74,-102,-275,21,-520
-122,-88,-121,-492,-177,-446
-103,-84,112,-671,-154,-341
-93,-83,91,-758,-81,-299
-93,-68,78,-634,-299,-123
-103,-65,72,-224,-68,-43
-109,-46,67,-12,6,196
-102,-12,65,-199,89,535
-94,1,42,-72,244,606
-88,36,36,-212,66,662
-91,44,18,-21,178,545
-98,62,19,86,84,447
-94,70,16,65,153,386
-88,76,11,91,130,354
-87,81,5,186,101,238
-86,89,5,36,32,153
-86,91,6,42,-42,129
-75,90,5,48,119,100
-74,95,4,7,30,84
0,80,79,1730,-6625,-1591
30,-19,-127,2360,-8104,-24
-20,-108,-54,-2470,-6058,1782
-114,52,-78,-1309,1618,-37
115,-38,-38,-2464,3725,203
-15,-35,-8,-6296,2762,572
37,122,68,-9438,3042,376
62,108,-25,-5524,-443,-1815
20,106,-120,-4046,-2111,-2949
-90,56,116,-5209,-4150,-4641
121,116,-70,-4129,-5121,-6635
-100,96,104,-1420,-2724,-4810
-128,92,88,2056,1634,777
93,70,-49,871,1878,5697
-110,-122,117,3302,4019,6471
45,-77,-6,1724,3235,5228
-90,9,-12,-264,1058,-306
-97,84,-63,4145,365,1785
8,96,13,3894,-503,2764
84,43,-5,3320,-333,3729
125,-30,56,2223,186,3390
-64,14,-98,1457,1874,3404
-58,15,20,1075,898,3692
-64,-51,17,630,576,3037
-17,28,45,-523,523,3070
109,104,15,2446,204,693
-113,100,-94,2743,-515,893
119,60,-103,1376,-99,796
98,76,-82,-808,325,134
78,-31,-72,0,-113,-527
-122,-83,-79,288,695,-1019
-112,-82,-88,91,679,-1118
-85,-81,-99,-201,-177,-579
-63,-81,125,-760,-163,-301
-58,-77,102,-680,-122,-371
-53,-77,87,-190,-8,-290
-44,-53,73,-162,377,-90
-50,-32,75,-141,-40,197
-55,-2,68,-77,-141,514
-51,25,66,-195,-132,673
-58,30,55,67,107,591
-62,61,58,-105,-25,685
-62,76,50,-128,35,635
-62,89,43,-42,59,390
-65,93,38,62,86,277
-64,101,34,31,55,176
-65,98,27,44,5,137
-59,100,24,19,-14,182
-61,95,14,-12,-87,78
-61,97,12,-9,-59,105
-63,48,-4,2560,-5521,-2882
72,-76,-41,2454,-7111,-674
-58,7,-112,-2600,-627,1374
51,-58,92,-2875,3334,492
-55,124,-91,-3907,4257,1166
-120,-97,115,-8186,2242,1819
-66,-74,58,-6796,354,554
5,127,-60,-3514,-469,-2136
-16,16,113,-2783,-1541,-4439
-109,-59,-19,-3981,-3977,-6329
109,96,-103,-2740,-5112,-6080
74,-99,-32,-826,131,-1290
-96,116,-13,1989,1525,3497
-122,-41,-122,2358,3465,6062
-50,42,122,4933,6135,5509
125,-107,78,-780,762,2707
52,-27,108,2294,381,-419
-54,-94,30,2745,676,1944
25,11,45,3460,556,3061
101,-2,53,2375,73,3842
-110,-2,4,976,1716,3535
-83,-31,13,1689,539,3698
-35,37,18,1376,837,3996
-55,94,45,1516,1136,2293
-47,-6,104,-1061,487,2884
-98,121,93,-394,232,2228
120,109,117,-608,-609,1796
77,-94,126,-839,-956,1463
42,54,102,874,-253,-335
53,21,103,974,701,-1522
110,-39,78,937,1079,-1741
-116,-41,109,651,312,-1099
-95,-34,118,-526,-351,-517
-90,-41,103,-982,-562,-238
-84,-59,78,-463,-221,-182
-91,-42,71,-99,12,28
-92,-13,68,-176,56,317
-97,19,53,-242,-51,467
-96,30,48,-37,32,624
-92,46,39,86,191,744
-88,69,34,77,247,708
-82,81,30,112,231,692
-82,95,23,86,228,580
-67,104,16,194,245,300
-68,110,13,96,26,194
-70,103,15,120,-53,107
-73,100,15,48,-11,-3
-69,99,14,-242,283,-422
-39,112,5,-69,300,-116
-50,116,19,69,-211,82
-75,-43,-47,5114,-1262,-4519
-11,74,-30,5719,-2614,-3865
-1,5,-79,4252,-7961,-1644
10,-86,-52,3507,-7577,848
-99,-75,126,-2915,-3936,1846
13,-123,-71,-2103,2077,-39
97,-97,74,-1463,3592,-665
9,-101,118,-5567,3090,-176
14,108,119,-7346,585,-1026
56,-31,120,-4718,-1702,-1730
-43,94,-34,-6779,-4685,-1983
-114,38,37,-6106,-5400,-3941
66,-127,28,-3353,-5573,-5080
100,28,-16,-2629,-3204,-3250
-115,-23,79,2947,1683,1608
-117,-21,-63,1597,2686,5373
-128,125,44,2200,5413,5260
-59,58,-31,632,3055,5138
14,-102,98,2235,705,-1000
95,-52,-70,2899,-192,496
-64,126,-128,1721,-306,1154
27,23,-107,1875,195,2565
45,-13,-117,2187,67,3809
125,-118,91,448,700,4675
-100,63,17,1476,689,4318
-13,117,-11,1180,653,4487
-69,-34,83,1032,-375,2294
-4,-23,97,1213,-256,2914
-55,-110,105,1447,314,1840
-119,-127,-126,1227,153,1063
80,85,-122,1186,19,207
75,-10,-94,1556,63,-959
85,-59,-99,1601,341,-831
111,-15,-70,-354,159,-229
126,-35,-89,-1388,-285,-256
-99,-76,127,-822,-241,-499
-84,-89,110,-120,-17,-790
-82,-91,102,44,137,-826
-66,-69,104,-390,4,-446
-70,-56,81,-323,-31,82
-77,-38,72,-129,-26,297
-71,-12,55,-149,97,386
-82,25,55,-182,-87,552
-73,33,54,122,201,542
-69,38,36,331,280,561
-77,73,53,-129,-121,672
-67,63,34,12,154,680
-70,74,43,120,68,602
-65,68,27,391,252,379
-63,89,29,-36,79,332
10,0,-62,3303,-3916,-3525
85,29,-119,4458,-7476,-1658
57,-24,21,3627,-8051,650
-29,-7,-110,-2594,-3048,1461
-15,115,-97,-1257,1249,-218
33,16,97,-2509,3270,-59
-108,-52,-4,-7480,2475,119
-25,11,35,-10063,1782,591
13,-106,-87,-5141,-1561,-711
-10,98,68,-5306,-3356,-2363
-66,-42,12,-5228,-4773,-4511
-119,72,34,-1684,-4931,-6666
-36,86,8,69,-1704,-3209
-106,110,10,119,2000,1797
86,32,-94,1120,2909,6252
113,77,70,-69,2207,9409
-125,42,59,-1056,1856,163
-128,-115,-46,4031,1577,-10
125,-106,-62,2285,572,564
-32,43,-110,3599,244,2322
59,73,118,3002,185,3372
-128,46,69,2637,673,3770
-61,61,44,2222,447,3697
21,27,30,-3305,646,5306
-125,119,41,51,-1391,3083
4,-24,-118,2492,-953,2810
-69,18,-88,686,-692,2464
-97,-110,-120,2217,-4,1759
123,-78,-113,1720,145,1130
64,-86,-94,888,-63,454
45,59,-85,554,-88,-561
70,3,-91,499,233,-1006
86,-44,-96,325,159,-842
114,-38,-100,-376,-17,-535
-115,-46,-117,-604,-44,-418
-95,-64,98,-427,245,-585
-100,-53,99,-413,-31,-423
-93,-47,85,-138,3,-20
-97,-28,77,-123,-12,298
-93,1,60,-216,29,389
-90,10,52,45,53,496
-95,31,44,17,43,672
-103,59,43,-29,-84,681
-96,60,36,113,84,601
-95,79,36,69,48,589
-96,87,32,71,26,481
-94,96,32,93,40,341
-92,106,23,18,113,211
-82,106,26,-75,123,112
-87,104,26,20,-48,73
-123,118,-98,2734,-6925,590
-41,75,-128,2032,-8477,2799
-33,-47,115,-3320,-5198,2371
60,68,103,-265,83,304
123,45,104,-4851,2669,1227
-96,-58,8,-9359,4556,2031
-60,63,-56,-5002,3650,1035
-50,92,-70,-6593,-710,-398
-8,-57,116,-2939,-2615,-2876
-30,-96,52,-6096,-3984,-3535
-96,-106,-43,-2685,-5940,-5727
-72,-25,60,-4079,-4344,-3043
-64,-101,-113,2403,1771,1426
-126,-68,-28,430,2926,4719
-70,62,48,3192,5640,5520
80,-94,-100,2933,2967,5452
-38,22,78,367,954,-676
-48,7,-36,2027,860,1712
52,-83,27,2388,484,2454
-110,98,74,1321,56,2968
-68,27,70,1499,529,3272
11,54,36,1660,990,3627
63,40,41,1238,985,3567
64,30,59,748,437,3115
37,-82,81,1241,247,3202
33,111,123,2116,-279,2711
-23,96,-97,2231,300,1657
-58,-118,-88,981,654,855
100,87,-69,722,-261,-179
68,-14,-39,1019,-336,-899
-114,-59,-33,419,19,-945
-67,-77,-60,-218,209,-771
-53,-73,-64,-765,-357,-503
-25,-77,-97,-1118,-511,-337
-17,-66,-122,-1103,-248,-445
-20,-64,94,-803,-121,-669
-14,-44,86,-764,-167,-513
-21,-37,74,-540,-131,-244
-39,-7,70,-347,-62,123
-43,-6,55,97,235,240
-42,33,50,58,144,634
-51,44,55,211,-9,795
-38,57,45,328,267,929
-32,86,51,179,126,1020
-27,77,39,407,209,899
-37,97,50,320,80,827
-39,99,43,286,155,673
-36,109,44,187,88,500
-35,103,44,262,16,153
-32,105,48,81,8,-49
-42,-79,113,2946,-2027,-4133
-11,92,-30,3847,-4427,-4351
26,-108,-81,5830,-9193,-2441
-44,-69,-23,2577,-7268,-983
-128,95,-86,-2025,376,792
71,21,-107,-2870,1995,673
-71,-80,-77,-6934,4097,1748
111,110,-127,-7551,2569,1941
-86,58,74,-7074,-608,296
-80,13,-22,-4811,-3445,-1759
-111,-51,13,-5147,-3912,-3672
-114,-71,-88,-2484,-4477,-5480
-91,127,127,-2252,-3218,-4612
66,-96,107,-263,738,733
-125,76,-14,1165,2513,4164
-105,-113,76,3925,4912,5811
-23,-15,-80,2837,4090,4991
-52,-44,-109,-218,724,1698
-61,124,-110,1631,589,1560
3,-74,-19,3529,-677,2545
81,111,12,1311,201,2668
118,92,42,1331,-200,3378
-87,111,-5,1881,533,3181
-65,24,31,2661,317,2478
-39,52,40,1792,904,2225
-49,-121,85,2902,952,1631
-23,-125,124,1689,1417,1735
-56,61,112,1895,1286,1451
-102,65,-60,988,156,1019
123,7,-64,627,-133,-104
-123,-3,-35,-26,-216,-294
-104,-79,-44,146,-151,-446
-88,-83,-39,-63,-124,-509
-67,-73,-50,-511,-156,-318
-59,-61,-67,-1002,-309,-295
-44,-74,-100,-766,-186,-261
-45,-58,126,-644,-263,-62
-45,-56,108,-327,10,-59
-49,-46,97,-148,108,11
-46,-20,90,-112,218,173
-36,6,84,-146,263,398
-30,18,79,103,184,441
-33,48,85,61,169,371
-30,53,89,205,277,305
-29,71,90,73,254,376
-19,83,83,56,192,493
-21,104,88,7,88,598
-40,111,86,166,190,442
-33,123,81,3,149,342
-26,123,70,21,-3,267
-108,-117,48,2564,-3432,-2798
-87,-57,125,2843,-6022,-2168
-109,-108,-14,4477,-7763,-1665
-109,-126,35,1182,-5277,515
-2,-33,-31,-1112,-942,710
-128,29,-73,-2989,3400,351
-80,114,112,-4330,4073,743
-51,-42,-123,-8594,3226,946
-39,-81,-78,-6876,928,-153
22,54,31,-5375,-343,-1934
-31,96,-8,-3757,-1965,-3238
-32,-64,45,-3467,-3776,-4069
-83,-13,-110,-3234,-4959,-5840
-43,-59,72,-301,-2990,-5095
106,22,82,-120,1078,1577
56,76,-52,1291,2525,5256
82,-88,109,2641,4098,5472
-64,-35,7,1364,2542,4188
-62,-41,-6,197,1899,2584
24,60,118,5358,336,2382
-13,-94,-47,3827,-598,1599
37,-42,55,3105,-972,3249
91,-76,9,1868,546,3821
-98,11,-17,77,1348,4239
-82,-29,-40,35,1106,3802
-13,50,15,-92,-145,3873
-52,-93,27,2147,-217,1980
-44,98,58,3105,67,1549
-89,-111,104,1823,359,1572
89,-127,116,602,101,347
49,56,-105,244,-365,-1187
84,-29,-98,827,-123,-1342
113,-29,-93,116,206,-660
124,-58,-101,-378,12,-509
-114,-83,-123,-320,-99,-599
-86,-83,111,-445,-40,-509
-86,-83,94,-390,4,-428
-77,-77,84,-254,38,-261
-81,-66,67,-174,106,67
-83,-48,66,-121,50,372
-79,-24,58,-19,130,588
-78,-5,52,22,173,696
-75,17,48,34,175,731
-72,33,37,135,152,655
-67,47,37,204,149,612
-73,64,31,113,96,512
-75,75,35,44,-34,364
-70,65,27,279,129,150
-73,87,31,-142,3,176
-67,78,25,17,-19,66
-66,-124,-54,2406,-2844,-3142
66,-4,-128,2892,-5944,369
83,24,111,4206,-8181,655
48,84,-75,1034,-7393,2177
36,-48,-108,-5067,-2722,2621
109,-7,-116,-4061,3397,1050
-119,-56,-128,-7455,3800,1818
94,-18,79,-7543,3069,2158
116,-117,13,-5847,-138,73
-98,104,105,-4277,-1934,-2675
123,-65,81,-4375,-3648,-3628
117,14,-123,-2867,-5354,-5682
87,-118,72,-799,-5813,-5104
-102,102,-23,-728,1510,224
118,-102,53,1119,3824,3718
59,31,-82,2596,5149,5843
-79,-74,-62,3445,5441,6630
-18,103,122,1850,2783,2761
38,84,18,6307,226,814
47,61,-81,-949,-536,1316
-5,-48,-13,2181,-1790,2383
57,-55,10,2047,-199,3522
64,14,-27,198,1803,2794
-126,-12,-56,1119,1198,2898
-50,-3,-46,1130,1110,3356
-25,-85,-31,1235,864,2710
0,-51,23,333,862,3329
-41,-85,18,860,103,2290
-114,111,45,2567,-614,221
111,49,83,3309,-867,-1378
127,31,117,1192,31,-1511
-123,-16,-100,-395,302,-1206
-76,-89,-105,-1073,72,-783
-48,-78,-127,-1383,-365,-302
-38,-62,90,-1404,-508,-143
-41,-62,55,-765,-216,-335
-50,-42,52,-480,-141,-292
-65,-27,47,-116,-24,-51
-73,-18,44,142,-11,302
-75,11,43,-1,84,616
-50,50,8,-61,342,729
-32,56,0,118,147,791
-49,72,2,137,17,839
-69,97,17,-159,-130,802
-56,106,20,-333,51,800
-47,117,14,-224,184,712
-74,127,9,29,-6,332
-82,-127,15,48,2,14
-62,121,-1,27,322,-78
-52,118,-10,90,203,-77
-81,-55,-83,4771,-4576,-3857
27,-18,47,4064,-8204,-474
70,126,-94,3065,-7689,1623
-81,-35,-116,-2106,-5008,2366
12,1,-6,-3050,2229,946
42,-43,84,-3467,3895,215
120,-49,-121,-7626,2997,1855
108,6,-127,-8341,1867,986
-38,7,-81,-4642,-64,-1229
-63,46,33,-3141,-2897,-3906
90,82,-125,-2505,-6457,-3827
35,90,52,-2552,-7624,-4981
33,-105,74,-1743,-2136,-1363
-124,-114,75,1612,2684,2080
18,-72,-76,1304,4093,4461
124,67,-40,4218,6361,4149
22,10,-26,2619,4944,4799
-113,-83,-92,2926,2446,2198
-104,13,72,1518,305,2940
-75,21,122,3093,-571,2593
-22,-9,-107,244,470,3031
-62,-1,-44,-739,-48,3232
-35,-106,-121,634,889,2246
-41,-65,-39,1034,633,2155
-29,-111,-20,1319,1008,1928
-28,107,5,2389,461,1880
-36,117,65,1053,617,1598
-32,67,37,801,760,1086
-60,49,69,570,137,314
-99,19,103,394,-506,-278
-82,-39,127,-22,-108,-748
-67,-58,116,-377,200,-842
-48,-34,122,-812,-30,-349
-25,-54,84,-460,-142,-352
-22,-56,70,-107,-286,-491
-13,-37,58,-316,-159,-330
-13,-27,53,-329,-88,-75
-20,-29,43,-49,2,62
-28,-10,40,71,27,332
-21,2,30,212,177,480
-33,20,25,171,87,710
-41,48,32,35,47,903
-26,59,24,0,241,898
-20,81,22,-114,152,796
-21,91,7,34,165,555
-33,94,10,171,74,232
-35,90,7,108,117,73
-30,88,6,146,141,18
-21,86,-4,104,189,-30
-16,98,-12,-153,5,19
126,112,-15,2309,-6102,-3783
89,94,-17,3774,-9860,-670
122,-93,43,-4691,-5036,434
20,123,-22,-1431,2905,-34
-47,-86,124,-3986,3131,904
-13,-110,-7,-8247,928,1818
11,33,111,-4453,-1037,-1647
-41,36,-99,-5948,-3494,-2640
-16,-102,15,-2618,-4388,-4386
-29,-39,-62,-1885,-5658,-3641
-117,35,59,-1730,-1937,-3184
12,1,74,314,1246,182
-50,105,-37,232,1756,4916
-17,94,-118,3110,3516,5914
107,46,92,5026,4297,4624
126,-109,-128,-2955,1904,965
-56,57,37,301,-1773,878
122,74,54,3752,114,2257
-54,83,68,3461,-349,3461
-8,-117,82,2029,-1085,4588
95,-31,-27,3461,-208,3507
-101,116,25,2698,-524,4118
-84,-45,-80,4120,1237,1890
-80,-28,-57,3483,951,2259
-127,-29,-11,1215,1313,2336
86,-67,57,605,1017,1953
23,117,80,1330,510,591
30,72,-108,1226,500,-634
25,-67,-77,1289,344,-1527
61,-57,-36,88,-342,-870
96,-81,-45,-942,-505,-266
115,-85,-76,-1261,-466,-142
-117,-101,-127,-1030,-110,-463
126,-95,109,-660,-385,-561
112,-86,101,-358,-829,-423
117,-96,64,249,-74,-66
-123,-67,53,-16,510,207
116,-36,44,9,340,479
109,-17,54,-11,-116,631
-117,-4,45,69,146,845
-114,24,33,-154,421,843
-104,50,40,-373,460,711
-115,58,41,24,94,615
-121,63,32,423,-67,448
-118,82,36,102,179,261
-75,83,0,143,544,136
-79,85,-1,204,186,75
-99,84,16,117,-215,-23
-86,90,17,-335,-132,16
-72,88,11,-287,-34,-45
-96,-38,-19,4566,-4143,-3312
-23,23,82,2763,-6334,-1239
-3,37,16,2932,-8630,565
-100,16,-64,733,-6960,1133
-28,51,-122,-2979,-2093,2309
-117,9,100,-4174,3389,926
28,-96,15,-7543,5276,1968
-38,20,-22,-9216,3266,2405
25,108,-4,-7999,-156,-35
-107,-84,119,-11268,-740,-511
-10,-83,-29,-2675,-1336,-5723
-107,-19,-99,-462,-1939,-6466
-84,49,35,-1122,-884,-5709
-42,-32,59,-204,632,-1027
10,127,-25,2060,1610,3742
10,-101,-104,3174,2387,5883
-110,-73,-102,3654,3630,5093
-8,-121,-53,-1188,340,5614
4,111,45,1843,154,2111
37,-18,-81,5891,467,2402
109,-53,-51,3995,-467,2701
-122,-113,-67,784,102,3774
-128,62,-30,834,-1097,3441
-114,-10,-16,2756,-1036,3110
-85,6,-2,2333,58,2366
-114,-9,52,1737,397,2138
113,-28,122,1273,110,1929
80,-127,93,2001,735,1217
50,-75,-116,992,219,725
19,96,-103,613,-29,-283
66,24,-79,-209,-162,-858
61,-36,-103,-224,7,-1000
74,-48,-104,-653,-99,-815
86,-71,117,-805,-73,-570
115,-50,75,-1442,245,-236
122,-21,39,-1319,-63,-197
115,-38,34,12,-204,-178
127,-3,38,300,14,192
112,27,42,-101,37,359
122,39,32,-74,43,459
-128,62,31,0,32,742
127,82,25,-69,78,855
126,106,19,16,62,768
-121,118,13,100,109,596
127,118,9,242,169,309
-83,115,-7,345,350,265
-101,116,-11,414,142,312
121,119,-3,187,-127,68
-110,123,3,-200,-28,181
-95,116,-4,-45,45,137
14,-77,124,1947,-3672,-3065
-76,-94,-1,5210,-5895,-616
-107,-68,-91,5681,-7244,763
29,22,74,227,-5959,1724
30,-127,-78,-1859,-2863,2353
77,77,69,-4339,573,1465
-55,-115,-127,-6215,5468,320
-29,45,-83,-8110,4269,737
-1,-22,-62,-7351,3607,-769
-55,0,73,-792,-2039,-3688
-61,-6,116,-4383,-4537,-3159
62,46,36,-4412,-6198,-5327
111,70,32,-4190,-7176,-5635
-93,113,125,-2204,-3344,-3154
-68,-115,117,3407,4101,1517
12,11,-33,1055,2266,5022
96,120,40,2706,5640,5427
-11,-23,17,279,4168,4969
-98,29,40,230,1772,-5
117,-100,-109,3703,756,1365
-41,20,36,2718,-618,1121
33,58,75,2721,-1183,2331
77,-92,45,2619,-69,2838
111,124,-26,3411,1873,2423
-83,3,-9,1633,1731,3224
-65,-62,-20,1509,1759,3247
-55,9,28,-388,1134,3092
-52,-64,-117,-718,609,2234
36,91,30,454,1982,2386
-72,95,116,1264,-155,1914
-103,101,-84,299,-448,1007
110,26,-101,429,-319,224
104,-43,-108,1038,87,-466
114,-44,-101,357,20,-405
-111,-77,-115,-35,167,-319
-110,-91,126,-100,-318,-37
-101,-83,114,-502,-269,-197
-88,-94,85,-297,39,-505
-87,-90,86,-256,-108,-425
-76,-77,73,-297,-135,-167
-79,-70,71,-133,-110,-3
-80,-59,66,-44,-13,215
-74,-27,58,-83,83,528
-78,-18,47,38,63,589
-78,4,45,45,110,678
-72,25,37,116,326,759
-75,50,27,-20,160,826
-77,103,11,-645,-208,750
-78,102,-9,-496,43,224
-82,74,-10,392,212,-279
84,-124,43,1520,-7168,230
-10,40,-7,1965,-6909,1503
44,22,43,-2083,-4525,1086
93,-30,-119,-926,1060,134
-54,113,-109,-3195,3488,258
20,-78,71,-10064,2772,1182
86,8,124,-11442,670,486
80,33,56,-7650,-1983,-1759
73,-18,-46,-5130,-2068,-3073
40,63,-50,-1098,-2751,-5050
43,67,-16,-1896,-2618,-6482
103,21,108,-708,-3263,-4227
96,114,84,-502,1591,1065
59,-102,-1,2688,1615,4567
58,-123,-106,1842,2886,6192
-78,84,-128,3064,4230,5650
-117,-114,-1,1010,1801,2392
23,35,-77,3369,1198,-98
89,39,107,1810,-196,2151
-33,19,69,2943,-281,2360
16,14,39,3429,-903,3617
76,-79,9,3624,154,3206
111,-10,-30,1952,1389,3351
-104,12,75,1193,1027,3762
-98,-34,33,1303,1240,2472
-99,-37,-100,589,624,2383
-84,-37,-117,-205,736,2405
-126,74,-127,1604,613,1443
113,55,89,2086,1081,524
62,79,126,726,186,27
34,-4,-106,82,-517,-735
87,-48,-102,-80,-274,-744
120,-58,-115,-401,80,-404
120,-44,-117,-729,-212,-333
-123,-62,116,-448,-165,-621
-114,-48,108,-454,-291,-444
-115,-32,101,-587,-369,-167
127,-30,73,-408,-323,41
126,4,81,-476,-194,361
-121,10,50,-98,276,295
-112,46,48,-1,296,342
-116,69,49,4,34,533
-114,89,47,1,46,621
-115,91,39,483,-67,220
-95,103,25,676,305,352
-98,116,33,309,-7,273
-117,92,17,649,-297,65
-103,108,16,367,-33,157
-116,91,13,273,-20,81
-114,87,8,12,33,92
-6,-122,-117,3692,-8380,-869
-39,-85,-127,3171,-10462,63
23,28,-63,-2679,-2568,607
50,102,-87,-748,1145,848
-39,-97,-98,-4641,2191,1820
123,-39,119,-9540,2940,2414
124,119,84,-7022,593,179
124,44,90,-3460,-2371,-2514
-123,-50,52,-5432,-3590,-2789
-117,-82,113,-5667,-5798,-4420
-94,-1,70,-1776,-4824,-4438
78,-31,5,318,-61,-1339
87,8,121,2056,2765,2298
46,-107,-4,1111,3757,5708
-103,124,31,6921,4998,4995
86,43,26,-408,2061,5652
22,-3,-88,2373,-36,2337
93,107,112,3955,355,802
57,-22,-64,2990,-182,807
111,102,-23,1800,15,1818
81,2,-11,2012,-176,2185
-126,42,8,1452,416,2265
-117,-78,-18,2210,717,1497
-92,6,76,-185,248,2797
-97,-110,55,27,701,2083
-65,97,41,1618,693,2144
-73,82,90,1895,442,1510
-91,70,88,1413,300,886
-118,51,109,1159,153,329
121,14,122,278,201,-136
118,-22,125,-364,44,-227
-115,-49,112,-213,-72,-180
-112,-54,101,-150,-72,-448
-101,-54,95,-370,-91,-577
-66,-64,72,-452,10,-555
-71,-55,60,-446,-69,-326
-77,-50,46,-305,-126,-210
-57,-53,32,133,38,-75
-64,-16,43,-51,-67,473
-68,7,45,-91,-15,645
-71,28,34,-119,168,635
-77,66,36,-336,53,711
-59,64,15,56,297,583
-60,85,5,211,235,521
-61,94,-2,122,197,374
-57,113,0,-87,-4,283
-63,104,-3,19,29,24
-56,105,-1,10,55,41
-61,104,-3,113,13,-24
-59,98,-2,278,87,-176
-64,-39,15,2578,-3283,-3730
-19,5,-118,5204,-5287,-3483
44,-77,5,5309,-8749,-1439
8,-27,-43,-1107,-4212,1172
74,-89,111,-850,325,327
21,-12,-11,-2250,1601,706
-124,-60,95,-6900,3534,994
81,109,61,-12179,2218,2174
-73,-128,-34,-3902,431,-190
53,-122,-46,-4960,-868,38
20,-1,82,-4030,-1852,-3764
-28,-83,43,-4368,-3794,-5294
-45,-116,75,-3260,-3131,-6547
-32,-99,27,-222,-1975,-3283
74,-81,50,966,1510,2466
5,-81,-37,2006,2226,4607
103,-109,20,3134,4192,5348
-97,-121,29,-715,1153,4301
-57,-68,91,2078,2007,1872
-41,78,-58,4301,92,1850
-56,64,-10,1858,-347,946
-30,29,117,2646,-1037,2267
92,-89,11,3585,769,2543
-117,25,6,2186,2049,2875
-50,3,-26,2008,1675,2970
-32,105,-29,1082,712,3932
-81,-46,83,695,62,2560
-74,-106,123,1194,-70,2063
-116,-127,-118,522,-16,1302
-118,108,100,820,398,828
84,82,102,316,254,-328
97,27,126,237,25,-762
110,-44,-109,471,-7,-757
127,-42,-102,-309,-211,-341
-96,-47,-126,-890,-133,-52
-93,-68,100,-469,-69,-153
-88,-57,81,-468,-75,-79
-95,-27,79,-624,-259,220
-96,-31,57,-136,87,192
-99,3,44,-100,80,332
-91,24,33,-141,93,427
-88,49,25,-169,91,454
-96,58,21,66,9,477
-95,68,15,223,96,497
-87,86,8,51,107,469
-88,91,8,28,-21,300
-86,91,8,154,42,211
-80,106,5,-40,88,233
-80,100,3,57,13,126
-68,98,3,126,112,145
106,31,91,5037,-3265,-3522
-124,78,91,3759,-5116,-2836
-94,28,84,3911,-7788,66
-66,-77,38,1047,-7195,1590
-116,43,-7,-3418,-2353,2226
13,87,117,-1338,2789,-805
-61,-28,-112,-4207,3019,790
68,-8,-24,-10168,2213,1566
105,37,69,-9517,2019,695
-125,98,-74,-6498,-2133,-1379
-113,-94,48,-6960,-3056,-1295
123,87,-73,-2357,-3738,-3430
-126,-77,-28,-1576,-3336,-4830
125,-2,60,-810,-2727,-3544
-13,-49,105,-455,23,481
70,-73,40,1796,2533,2354
92,100,-93,2889,3488,5635
-46,-106,-117,2211,4999,4488
-17,82,83,69,1023,3436
-30,61,-16,3959,645,852
-5,32,-44,5938,-58,885
-2,-68,-43,6719,-168,1226
89,111,24,4619,1415,1744
-103,119,54,1254,2883,2728
14,-100,-40,-5358,3774,5582
50,68,33,-266,-298,3287
-42,-42,121,-433,-681,2334
8,72,97,2785,-352,1667
-1,-103,-111,1283,338,1939
-80,62,-110,1150,727,1341
-82,73,-102,541,444,1265
102,42,-106,82,-40,288
100,-2,-104,21,-278,-492
105,-45,-113,-41,-61,-715
-118,-70,-128,-272,22,-777
-97,-80,113,-274,-82,-723
-89,-76,97,-460,-237,-467
-90,-62,88,-677,-357,-212
-95,-58,86,-372,-421,-21
-100,-49,72,108,-51,87
-98,-15,68,-124,149,429
-100,10,54,-192,69,531
-96,28,41,25,3,573
-94,42,32,142,173,644
-88,71,22,27,248,667
-105,86,21,-97,-70,620
-97,93,13,6,5,449
-91,97,6,189,207,255
-90,106,1,85,140,131
-91,107,0,-24,-26,56
73,16,40,4281,2752,-1598
51,-117,102,298,865,287
27,60,-46,572,106,719
40,53,106,1264,374,428
-34,69,-18,1161,-300,218
-103,70,-78,1969,-2272,-391
-68,-39,85,3878,-3083,-1303
1,-93,73,1633,-5428,539
43,-6,64,1945,-5861,707
38,-35,-16,1325,-5707,783
86,-9,121,-2475,-6383,1371
30,-41,103,-2868,1075,537
7,-64,-126,-4652,3828,824
54,108,40,-12068,2228,2659
46,-60,15,-9587,1109,1207
86,-39,31,-6148,-2235,-1371
-104,-62,-16,-5826,-1899,-997
-114,107,-26,-1339,-2143,-4214
96,19,17,-2277,-2796,-5097
127,-54,-47,-1616,-2131,-4982
-8,72,83,-360,178,-1346
123,-115,-6,2777,2145,4848
121,113,-109,2954,3688,5807
-119,64,-39,2104,3036,4381
104,70,54,-628,1414,2571
126,12,44,3837,1089,368
14,-85,62,2904,814,2605
72,-124,67,3457,-276,3843
-97,71,42,3295,-220,3484
-43,-21,-52,3588,715,4137
-79,-11,25,1560,-322,3026
-70,-111,-29,1801,694,2415
-47,-68,42,536,973,2342
-88,-119,109,538,634,2445
-124,71,111,1419,469,1741
83,79,-123,1353,104,884
57,49,-101,1084,-34,-70
56,-23,-73,1014,-28,-721
76,-92,-78,1307,411,-1057
109,-75,-39,118,-13,-650
125,-97,-54,-662,-253,-388
-102,-111,-79,-765,-356,-197
-97,-120,-107,-477,-115,-279
-99,-103,-121,-429,-104,-248
-100,-96,112,-339,-57,-198
-82,-94,89,-67,169,-52
-75,-71,64,-64,200,259
-94,-46,68,-302,-207,548
-96,-35,64,-478,-605,399
-98,24,28,-381,-210,697
-39,101,-97,3416,-6312,-1205
-49,-100,117,4282,-7305,1231
-99,33,118,-673,-5462,2551
-16,47,-111,-4517,93,1981
80,-83,41,-2837,3527,292
-90,110,92,-5806,3813,1202
-124,-80,-25,-11888,3465,2568
-81,88,-30,-8399,771,-115
-7,-115,-77,-8796,-1559,153
34,44,-1,1071,-1845,-3244
74,116,70,-537,-334,-4539
-28,-81,-111,-2545,368,-4648
52,-22,122,-35,-2368,-5294
55,-7,-86,-2,-1958,-2551
13,-59,-68,188,1253,4083
31,-43,-119,4078,1253,5914
-42,119,119,4425,4482,4545
-28,102,-38,-157,1774,2577
-34,-103,-7,2583,1524,1593
93,-108,-5,4134,948,1396
-94,-123,52,1186,682,3304
-97,-20,37,2273,346,3336
-8,-3,-43,3233,821,3851
-16,-53,26,2817,483,3171
-9,-24,43,39,640,3295
-3,-123,-4,-407,862,2853
-98,-126,93,1239,-680,2109
-118,84,-96,1696,-203,1627
89,67,-108,1504,559,948
48,84,-51,548,-232,325
63,2,-49,517,-144,-455
81,-42,-58,465,215,-670
88,-67,-60,-14,100,-785
-123,-83,-79,-517,-14,-719
-93,-99,-110,-676,5,-582
-87,-102,121,-656,-244,-424
-88,-102,101,-443,-200,-385
-84,-90,92,-323,-102,-222
-93,-86,77,24,77,-105
-91,-67,71,21,154,203
-84,-52,55,7,205,506
-74,-27,41,102,93,768
-84,-6,33,97,61,869
-86,24,32,-105,-35,893
-90,38,31,-107,-31,805
-81,57,28,-48,96,697
-96,67,23,144,64,406
-101,76,27,198,-18,152
-92,75,26,120,148,104
-88,69,20,134,135,70
83,95,101,2856,-6733,887
121,115,123,1167,-8630,3350
-117,71,121,-4275,-925,780
-68,42,-93,824,782,-315
-18,77,-1,-4369,2226,959
86,-39,-114,-8368,2827,1335
117,64,-30,-10044,1681,1665
-119,-70,35,-4413,-108,-106
-60,115,61,-4617,-1012,-945
-79,114,-80,-3492,-1879,-2700
122,-92,118,-3527,-3478,-4255
115,105,-85,-3011,-3628,-5332
117,45,-5,-1816,-2510,-4138
-24,-24,97,360,59,488
-1,-77,13,586,1724,2890
15,60,-85,2050,2158,5561
-87,46,-89,3287,4216,5586
-79,-100,85,-1849,730,5740
123,-112,-93,1205,992,-1723
-110,-19,-118,4610,74,1235
15,-98,73,2703,471,2049
69,-93,76,1358,-50,3788
119,73,65,3032,-671,3643
-44,86,47,2482,-532,4383
-23,41,85,1209,-132,3967
23,63,110,1287,-654,4075
-2,-23,-107,2703,-1299,3671
-71,-3,-111,1526,-699,2867
59,-42,-74,940,-311,568
5,99,-82,1623,76,-1320
24,-21,-75,2136,835,-2042
35,-24,-50,996,477,-1246
62,-46,-35,-622,104,-592
103,-72,-72,-1195,-114,-284
117,-89,-117,-819,-192,-251
-116,-62,-127,-949,-479,-382
-126,-76,113,-404,9,-687
123,-91,97,281,318,-542
-124,-68,89,367,462,35
-103,-37,52,165,516,655
-89,20,70,-55,-211,797
-94,-2,36,620,82,383
-114,32,65,142,-223,235
-97,31,67,-242,-71,426
-94,20,55,187,51,649
-119,43,59,61,-80,594
-122,57,57,-49,-60,538
-117,61,50,80,48,425
-96,55,32,465,321,260
-65,60,7,579,373,171
-11,95,-74,754,-6066,1553
-99,-90,-128,87,-6237,2125
-107,-60,-59,-2795,-4531,2061
99,-34,104,-3534,2297,789
-86,50,94,-4606,3746,599
15,93,38,-6183,3435,1493
40,-120,91,-7945,1130,347
-73,4,101,-7449,-389,-157
-93,26,102,-4072,-2131,-2153
-98,-68,45,-4678,-2332,-3350
105,-59,93,-2719,-2690,-5667
19,17,96,-1786,-3212,-4770
95,-72,83,2,-1150,-1268
-22,-22,62,883,1290,2219
19,76,-56,2844,3360,4288
89,72,-44,5434,6232,6042
1,-71,77,8973,4253,2317
-128,-22,125,733,2150,-1690
-89,-33,97,2070,370,1270
21,94,-36,1016,940,3115
66,-51,29,-1554,920,4461
47,-69,-42,-384,382,4104
-96,98,-44,-1717,287,5162
-121,-109,-2,-4326,-857,5073
-125,-113,-21,-2454,-2097,3825
-56,-114,7,4752,-1558,1084
-2,-67,59,5450,-1089,1219
-74,26,91,2795,-347,1093
82,-4,-128,545,73,134
51,89,118,1179,471,-1290
50,-39,114,2235,775,-1787
77,-35,-126,1443,494,-1342
-107,-29,-103,-408,187,-629
-83,-41,122,-1500,-123,-359
-80,-61,83,-1263,-450,-481
-84,-58,71,-696,-623,-533
-91,-58,68,-76,-185,-482
-80,-44,48,304,333,-145
-79,-19,44,-11,151,261
-74,12,42,-214,-217,605
-87,38,40,-182,-275,746
-99,55,42,-227,-31,820
-95,76,42,-46,205,942
-88,86,13,406,451,735
-87,99,10,403,246,613
-91,103,7,351,253,532
-64,103,-10,371,300,416
-40,114,-18,100,179,356
-74,113,-7,141,-169,26
-89,99,8,45,-197,-287
-59,-123,-124,2935,-3214,-3162
26,-18,36,3480,-5725,-1964
81,62,83,2092,-6619,-81
11,-106,88,2643,-6151,1588
-123,-122,11,-1445,-3064,1454
-106,-114,64,-750,-429,931
12,51,-107,-5259,3026,1291
106,-39,-99,-8357,3191,1844
49,127,-26,-6372,1143,-685
-87,34,0,-960,-511,-1209
-124,88,118,-5123,-2456,-1320
81,-96,-125,-6924,-4541,-1558
15,-55,-113,-5098,-5216,-2953
63,93,-53,-442,-3745,-3904
-116,-48,48,522,-1049,-2035
-34,-77,22,80,1008,743
22,-76,-72,-109,2485,3636
80,2,80,1714,3869,4814
-101,-27,90,5573,4590,3755
78,-23,-39,-2139,743,3321
-126,-98,-9,990,-674,1035
12,-71,51,3150,-787,1930
65,67,23,4199,63,2278
-119,43,22,2516,852,2482
-93,18,21,2375,1132,3109
-51,29,9,929,1205,4091
-55,-64,5,1968,646,2890
-60,94,53,2984,-43,2596
-13,-127,-124,1149,439,2224
-79,35,91,1195,1308,1133
-105,63,-107,379,465,955
92,-10,-93,577,-11,86
86,-50,-65,937,-166,-674
111,-105,-54,969,180,-878
-102,-89,-58,-154,250,-554
-84,-109,-77,-454,-59,-365
-84,-117,-86,-550,-536,-255
-75,-110,-103,-663,-378,-248
-66,-102,125,-612,-125,-182
-59,-99,107,-210,4,-39
-67,-100,91,289,108,21
-77,-48,95,-158,-64,429
-60,-40,72,-174,100,436
-62,-8,60,-275,-68,404
-79,16,64,-261,-172,431
-76,11,50,-3,52,524
-81,19,44,245,202,556
-81,43,34,158,302,584
-69,53,17,108,259,512
-60,58,5,149,148,353
-27,-40,106,1774,-6109,818
-107,-56,83,457,-5669,1412
-43,-86,36,-1971,-4488,1329
126,-29,-48,-3153,689,1068
-51,74,36,-5491,2850,872
-4,48,-2,-7333,2677,1455
26,-7,16,-10743,1049,777
102,-31,110,-8071,-1236,-1312
94,83,80,-8585,-2560,-2731
99,21,-111,-2202,-2122,-4760
32,-92,-35,-288,-1979,-5712
78,103,-95,-693,-413,-3369
-51,-121,78,423,1333,1227
-61,-89,7,1846,658,4630
50,11,-106,2223,2990,5163
69,-62,67,-1435,707,6105
75,-26,-73,-3547,910,2501
-96,-61,109,4605,-982,2403
-38,-124,-47,5156,208,2091
77,-30,80,6543,-1037,2774
98,54,34,6791,-855,2438
-96,-37,-29,4528,591,2884
-56,-101,63,3399,1459,3353
-97,-115,54,1612,1415,2470
-74,-100,125,-1345,1042,2950
-119,-80,77,-2155,738,2671
102,12,100,861,302,1689
83,40,113,1891,97,1189
59,80,-104,965,72,551
36,74,-94,-163,-16,-24
33,5,-101,46,3,-516
60,0,-97,-343,-20,-436
73,-13,-119,-586,-37,-634
103,-42,117,-333,-136,-857
124,-71,-127,558,6,-1102
-117,-122,76,1236,739,-1204
-94,-50,101,-619,102,-479
-93,-39,100,-1030,-409,178
-110,-53,55,-19,-444,559
127,0,65,-149,-509,614
125,19,42,-10,-56,494
126,58,34,-68,41,622
126,65,35,-33,-118,536
124,86,25,-11,0,575
125,100,17,-64,-153,405
-126,120,8,-92,155,271
121,125,0,29,-198,101
116,-93,11,-473,-485,76
108,-85,-31,-421,-174,277
105,-98,-23,95,-41,-10
-59,-28,112,4473,-5167,-500
-96,101,23,4062,-5563,625
8,-109,-48,-298,-5364,1558
78,47,121,-3739,332,1282
-54,-73,113,-1355,3376,-551
52,-94,25,-4780,2054,748
55,0,24,-9279,1061,571
84,74,-20,-10944,-615,-136
94,-14,-45,-8190,-1919,-650
83,20,-109,-7039,-2517,-1412
105,5,-46,-1033,-1977,-3899
93,109,-60,-50,-1026,-4802
57,92,78,501,-1782,-2575
-24,88,76,-410,1113,1707
32,30,-11,3447,1226,5127
-104,-49,112,2622,3281,4760
-77,96,-126,265,1610,3426
101,-12,18,4658,1096,515
-74,-110,23,4531,156,1621
-26,22,-40,6184,741,1300
83,-70,-110,7917,1612,1466
-106,24,-49,6484,2145,1275
-31,0,108,-2372,3430,2626
-17,112,25,-3510,2725,3399
-21,-82,-16,-1815,222,4025
-23,-88,42,-425,-427,3270
-100,-4,104,-822,-1381,2423
93,-114,97,489,-557,817
61,64,98,1850,395,-178
59,33,-127,1718,700,-697
89,-20,-121,1300,552,-609
122,-35,-110,485,123,-351
117,-29,-91,-665,-414,8
-116,-44,127,-1091,-204,-163
-101,-66,86,-608,33,-289
-101,-62,70,-252,-44,-290
-100,-48,61,-162,-36,-102
-99,-36,50,-167,2,60
-101,-13,52,-144,-139,253
-95,5,48,-84,-29,420
-90,28,38,-53,78,482
-95,44,34,173,77,391
-97,62,27,84,107,411
-87,101,24,-325,153,639
-89,106,13,-52,79,545
-87,106,8,236,235,278
-82,125,6,23,149,121
-84,120,4,0,-120,82
-74,117,0,126,13,23
-73,121,-1,47,-3,-45
-61,-32,-81,3615,-4791,61
115,-46,-56,883,-4819,1408
-50,-98,86,-2784,-2970,1425
56,-127,-57,-2132,1229,308
-75,-109,-63,-2169,1678,129
101,-77,-100,-7405,1322,1264
99,33,-63,-11016,456,301
107,104,116,-8775,-1032,-253
104,-66,5,-8441,-2284,-1565
93,-105,60,-3138,-2721,-3753
95,104,126,-1576,-2161,-4663
77,-104,57,-1739,-1057,-4249
-117,-86,88,52,377,-630
-53,-14,30,1574,681,2648
50,32,-58,2395,1558,4630
-104,-109,50,3268,2657,5281
-66,43,-84,-101,928,4422
-36,42,-117,5690,3322,247
45,101,-59,8577,3425,1929
100,-95,-29,8315,1646,2511
108,109,-44,2888,-452,3415
-83,-22,-89,1282,1174,3073
-14,-78,31,588,3730,2097
-31,94,100,-1934,1690,3249
-22,100,32,-1516,816,3974
-43,95,114,-864,-95,3651
-41,-128,77,-880,795,2968
112,111,111,225,-100,1831
79,-121,-128,-174,-293,794
33,48,-112,1066,-329,-548
37,-67,-93,2147,125,-1497
61,-28,-46,451,177,-1233
-114,-18,-63,-1223,1168,-1164
-95,17,-77,-1098,-284,162
-100,-33,122,-1171,-528,-72
-92,-44,92,-475,-104,-260
-98,-20,71,-444,127,-471
-94,12,47,-649,188,39
-102,2,34,103,-79,131
-96,43,44,113,-65,233
-90,76,49,-23,77,431
-89,92,48,35,29,491
-85,109,52,125,-53,608
-86,124,57,122,-276,720
-99,121,38,280,-284,600
-95,125,33,307,171,224
-91,-119,44,422,273,206
-86,-116,38,221,119,214
-83,-119,39,-36,-4,255
-77,119,26,39,93,174
125,-13,-121,-9244,3118,1396
-106,65,-35,-12123,727,316
-37,-29,-90,-8268,-489,-580
-74,-113,97,-4951,-2381,-1678
-42,-106,39,-1376,-1345,-3384
102,45,13,-1851,-2365,-5009
57,120,125,-557,-3196,-5677
-61,-21,54,-389,-167,-2659
63,-33,-9,961,1107,3391
118,-105,-78,2556,2667,4726
-98,-2,-59,3448,4029,4888
-101,-127,8,192,1696,5350
-57,-12,-1,3658,2178,600
63,7,68,8418,1818,2372
-118,-54,-100,8109,1937,2401
-56,24,-105,4107,1182,2862
-22,18,-89,-1198,2620,2194
26,58,-6,-3467,3551,2954
-20,17,34,-961,991,3807
-2,-104,55,-1297,-274,4108
-19,-74,100,-1053,-927,3024
-92,-96,120,-53,-974,2183
97,100,-103,1643,-537,1023
47,65,-91,1915,178,-522
55,35,-77,926,275,-1130
84,-5,-71,-82,255,-1002
107,-54,-105,-492,277,-825
-128,-67,125,-682,2,-840
-100,-80,82,-789,-277,-656
-92,-73,72,-561,-184,-441
-99,-60,64,-270,-187,-211
-108,-49,64,-100,-85,-27
-105,-21,63,-200,-87,359
-105,37,46,-377,26,614
-106,37,33,8,150,468
-107,64,40,176,-2,691
-98,79,31,152,194,678
-96,99,29,2,71,706
-88,102,27,282,169,519
-82,108,23,389,258,310
-84,117,20,115,-1,256
-82,112,13,-40,5,99
-78,102,14,105,202,-87
-67,101,13,65,327,-177
-55,115,18,-113,404,-235
-43,-124,25,-195,460,-306
-22,-101,33,-161,359,-286
-26,-83,38,28,-106,279
-33,-86,31,199,-284,630
-34,-97,41,354,-357,673
-31,58,101,3168,-4926,168
-32,-81,-15,3109,-5812,1397
98,44,-27,20,-4199,1235
-62,-32,72,-1016,-1899,1507
84,-60,-43,-1754,3339,-1034
-106,-86,-95,-1556,1761,166
91,109,88,-6136,1381,155
-98,-61,-21,-11232,854,230
-21,-70,-38,-10126,537,-304
-26,53,79,-9427,-1766,341
-40,-47,48,-2893,-2231,-1063
15,-90,81,327,-1008,-3869
-96,-109,6,-2275,-2650,-4612
-48,-62,98,-2321,-2146,-5310
-45,25,72,-1312,-1759,-1787
-109,-46,54,1488,1577,3326
-112,-63,-47,2134,2758,4801
-49,-27,39,3409,3391,5414
42,-121,-88,1665,2186,2894
-33,84,-38,4008,983,1510
70,34,-13,4379,462,2812
100,19,-28,5632,-245,3254
-93,74,29,2099,-131,3826
-69,-115,36,1980,0,3356
-52,-38,75,193,89,4199
-73,-55,51,-295,297,4561
-71,-19,58,-635,636,3474
115,100,83,1764,-548,904
-84,-127,-117,2165,-611,985
94,109,114,1709,204,310
32,69,-110,966,161,-523
44,14,-100,540,-32,-888
62,-32,-92,449,-59,-973
99,-49,-103,-285,-24,-733
115,-54,-102,-727,-32,-755
-120,-93,100,-475,195,-777
-115,-69,96,-607,-100,-563
-107,-65,82,-359,-139,-380
-106,-41,65,-156,-63,52
-104,-29,62,0,28,218
-101,-9,46,70,153,412
-105,30,52,-76,16,535
-102,35,40,105,136,651
-103,69,47,-152,-15,819
-93,77,34,-59,186,768
-96,89,28,139,124,660
-90,105,22,228,122,457
-89,112,25,237,78,288
-86,111,18,182,106,166
-86,107,19,263,38,21
-73,-107,90,3569,-2909,-1861
-96,-127,102,1609,-5280,-325
-62,-9,-9,3542,-5224,-749
-26,-120,-61,3937,-6248,1644
90,-21,35,-3516,-6604,3129
-43,-72,122,-2784,1548,403
0,-119,-61,-1794,2298,-190
21,98,-23,-4450,2035,1024
16,75,-110,-8907,2429,626
66,105,-30,-9547,474,385
73,67,-87,-9422,-2171,-750
90,-120,-14,-6349,-2565,-2337
110,27,-35,-1955,-2843,-4534
-120,-63,-43,-2108,-1296,-4701
105,10,106,440,-1053,-3585
2,97,47,838,1963,1286
-8,67,-41,2153,966,5978
-78,-114,-28,5215,3534,5406
15,-4,-23,3904,2860,4361
10,126,-22,3159,1620,2062
47,-18,-103,4167,438,2723
53,29,0,4076,-1097,2236
86,-23,3,1302,-634,2805
108,-12,-2,89,-57,3207
108,15,-7,44,286,3482
103,-50,15,776,281,2547
-87,6,47,500,462,2843
-94,106,7,2810,738,1642
-54,-100,102,2820,-345,1902
-105,-102,-118,1006,-21,1184
79,67,123,925,265,61
67,11,-110,999,33,-550
72,-27,-94,808,-94,-512
86,-60,-89,507,53,-412
105,-60,-102,-14,139,-314
-126,-50,-118,-775,-108,-259
-108,-53,-126,-829,-498,-354
-92,-55,121,-673,-216,-640
-87,-62,95,-392,193,-572
-85,-44,65,-546,392,-245
-96,-32,50,-281,121,67
-89,-1,21,-76,93,320
-96,23,25,-131,-94,449
-95,38,15,-11,17,474
-92,57,21,99,-39,562
-91,64,18,280,50,612
-89,83,18,159,-27,609
-83,86,18,297,25,544
-82,90,17,304,23,496
-76,96,17,219,-19,462
-104,-23,-82,3413,-3033,-2428
-27,46,108,3355,-5713,-1025
103,-16,2,3077,-8554,1103
35,44,-33,-53,-7845,1725
72,57,-29,-4112,-306,1953
101,-121,-56,-3876,3554,104
80,-124,26,-7869,2077,1955
-6,102,-95,-13411,2063,2396
-15,-51,-110,-12188,-1393,402
40,-41,53,-6574,-1599,-459
-111,40,124,1439,-954,-3429
-110,47,-47,-3143,-1095,-5696
-116,94,9,-807,-1028,-6811
-39,90,91,-76,-1146,-1552
-123,-80,78,-188,971,4140
-119,16,7,3385,2404,5816
-36,-115,-24,3136,3990,5523
-66,74,82,-945,181,5558
-93,-66,-98,2021,762,838
-12,-67,-117,3548,357,1732
9,-27,104,3945,445,1774
84,-94,-124,3353,-280,2551
119,85,-125,2735,320,2307
-109,57,-120,2876,993,2571
-30,54,126,1590,1768,2610
-55,-21,123,2232,1170,2389
-34,-35,-89,1739,804,2776
-65,-84,-64,1309,463,1953
-70,117,-29,1148,449,1703
-95,71,-31,882,466,1118
-116,47,-34,697,97,408
121,25,-15,381,-271,-39
-112,-22,-4,5,-418,-193
-116,-39,-13,-441,-331,-337
-118,-71,-32,-405,-204,-547
-76,-76,-54,-436,-171,-167
-80,-31,-70,-950,-230,208
-88,-36,-102,-607,-139,-119
-79,-38,-126,-130,3,-148
-77,-8,115,-320,16,274
-85,12,101,-251,-79,373
-84,31,90,-104,-9,216
-73,40,80,89,126,207
-75,53,71,104,52,266
-86,63,70,124,-8,353
-84,72,70,141,65,394
-65,83,66,235,98,482
-64,97,59,320,32,406
-67,112,69,142,17,309
-63,114,66,95,95,272
-78,-13,0,3887,-4779,-718
3,-6,-1,5441,-5297,-468
60,-3,119,3235,-6775,2551
85,-46,32,-2021,-4663,3172
104,-14,78,-1476,-805,1450
-59,86,77,-2092,1636,342
-33,8,-62,-8022,3362,1225
-21,-111,66,-11802,3450,2569
-26,-10,-47,-11912,499,1596
94,122,-11,-9664,-1651,410
-87,-7,-31,-1707,-1120,-2977
-16,-4,-24,-1285,-639,-5950
-100,59,121,-1836,-2624,-7008
13,-40,41,-553,-596,-3526
81,-122,89,147,821,1587
52,101,-3,2315,1947,5024
107,-110,-113,3294,2879,5869
-67,32,100,371,2183,4960
127,47,-93,850,1253,1645
-64,-76,76,5737,222,1885
-38,-37,-55,6398,1357,45
-4,-41,-37,6741,1205,1819
91,6,92,3040,1413,3353
-113,-66,94,1660,2050,4222
-105,-76,16,1134,2015,3444
-84,95,-28,2450,2057,2322
-91,-94,-112,302,693,2280
-97,104,81,-892,1494,2190
96,49,122,111,312,1510
89,44,-118,413,210,785
84,-12,-97,1017,111,-472
76,-54,-49,883,-346,-945
117,-59,-34,-128,-270,-697
-124,-81,-35,-665,27,-530
-110,-95,-75,-380,199,-351
-100,-77,-86,-462,-145,-201
-97,-67,-101,-378,-239,-21
-100,-57,-112,-235,-170,76
-82,-35,-127,-130,136,151
-88,-9,116,-259,6,369
-95,12,116,-237,-71,369
-90,31,93,-44,103,411
-83,56,85,-235,17,460
-89,74,76,-115,-8,367
-94,84,69,-46,13,309
-86,99,58,-115,75,249
-83,104,52,-41,18,141
-78,111,48,-52,37,98
-73,114,50,-5,-15,123
-72,117,48,9,0,146
-32,58,-105,933,-7190,933
16,-58,25,765,-6988,667
-57,-39,-92,2264,-7673,1070
17,-115,-83,792,-3997,219
-97,-22,-10,-313,1135,39
-124,-39,78,-5634,2772,2389
103,-50,112,-8375,3494,2381
-121,34,22,-12058,3556,3516
-25,-11,74,-8301,1264,1169
-105,-5,-9,-7195,-1059,-536
-62,-113,-125,-2261,-1014,-4005
-115,-5,125,-4791,-2656,-5813
-88,86,-97,-2919,-2423,-6809
-55,3,15,711,-1527,-2369
105,-10,127,418,603,2011
114,-81,37,3530,2290,4918
-93,8,117,5155,4597,5067
-66,-120,80,3365,3542,5388
-2,-37,8,1333,3217,2543
40,73,83,6453,2135,212
-60,36,82,7172,505,47
22,-81,127,2725,-1130,2860
36,-81,-99,-657,-536,4631
4,-59,17,-2647,933,5392
16,-73,-38,391,-14,4395
101,-101,-16,1890,906,2854
-31,48,40,950,708,2335
-93,-126,46,3235,425,1182
-112,-115,-112,3145,81,1347
82,-110,-94,1355,103,576
37,101,-69,735,49,-253
31,-3,-50,857,107,-968
52,-37,-41,535,11,-1024
79,-57,-51,-46,-71,-771
124,-67,-83,-637,-42,-545
-108,-67,-94,-634,-463,-451
-85,-78,-119,-444,-355,-631
-61,-61,124,-526,-317,-473
-73,-54,114,-540,-224,-245
126,-41,104,-384,-229,-154
-107,-45,74,-26,161,-179
-77,-20,53,119,139,314
-113,4,50,227,-138,592
108,27,60,63,-213,891
103,84,52,-371,-22,1093
-117,90,20,80,188,909
-78,113,-5,316,149,874
-93,-125,-6,-103,261,542
-102,-127,18,-23,280,249
-106,92,9,609,254,43
58,63,17,1136,-7633,2091
7,-127,-110,548,-7691,3025
-12,73,-46,-2842,-3688,2462
-77,-3,-40,-3659,3871,891
111,-77,-12,-6598,4087,2029
-54,113,-74,-11485,3211,2935
-2,100,4,-8055,1312,1276
104,93,41,-7200,-626,493
-79,-55,30,-3832,-547,-1307
-66,-47,-97,-2298,-947,-4021
-120,83,66,-3436,-1804,-5945
-123,-20,6,-2943,-1317,-6187
-48,62,-109,-1373,-275,-1709
60,71,87,2179,1045,4016
46,76,6,3403,1619,5407
-94,107,19,3547,2909,5677
-53,17,52,2626,1378,4835
-57,-87,106,3865,858,2190
16,-38,-55,6052,794,1354
14,102,35,4436,-497,2213
69,49,49,790,-189,2704
120,2,-22,439,1042,2735
-83,-17,123,1709,734,2896
98,22,80,2195,-1397,2534
-91,0,99,1029,864,2787
124,-28,127,843,631,2387
-104,-117,-127,2418,863,1907
-120,118,100,2295,1200,1400
84,-103,-78,759,162,964
47,58,-71,319,-590,-50
49,-5,-52,-139,-647,-455
60,-48,-77,-61,-61,-648
88,-53,-97,-523,181,-577
110,-57,123,-860,-72,-494
126,-56,100,-785,-333,-410
-123,-52,85,-513,-306,-384
-121,-48,69,-224,-92,-416
-121,-39,65,-107,-3,-197
-126,-23,56,-52,-5,155
-123,-9,48,16,24,445
-123,13,40,81,36,606
-120,31,42,130,72,784
-121,49,40,191,164,855
-112,78,36,205,192,924
-103,94,23,124,200,795
-102,121,19,-16,12,547
-101,119,15,141,88,138
-105,110,12,257,69,-90
-102,111,12,21,45,-79
-94,104,6,38,2,-111
19,-46,117,2392,-6546,-897
21,-62,119,3048,-8357,1258
-99,72,-60,-122,-5915,2005
6,-22,111,-934,-887,1155
-39,26,122,-1728,2428,-233
11,91,43,-4265,2424,785
-42,18,24,-7974,3499,1038
4,84,52,-10236,2095,765
48,-110,-13,-10369,-491,-468
83,59,104,-10121,-865,-553
112,-89,61,197,-1151,-1229
-118,86,-68,395,-65,-3283
42,53,-79,-1325,-2151,-5412
102,108,-49,-1609,-1251,-6023
-57,-43,32,624,-351,-3398
-111,45,-19,-420,1640,2794
96,-30,-78,2382,1239,6262
-95,-35,-1,3806,2760,6349
-123,-68,-80,-191,1546,4186
-123,24,-120,3967,1805,1540
44,-43,-59,8239,2550,3528
34,-108,-1,8364,-256,1777
106,-75,100,4040,352,2380
-76,-16,74,1752,3537,2086
-77,118,58,-1338,2162,3235
-65,-63,56,-3819,1018,3785
-113,20,-12,-3666,-860,3686
118,-46,108,-1074,-1457,2516
-127,-96,-92,2255,-468,2042
120,-121,-81,3228,293,1182
62,-88,-65,2317,4,570
51,99,-65,1394,-30,-594
30,-28,-55,1563,-104,-1094
73,-54,-45,490,341,-745
76,-93,-65,188,330,-570
97,-95,-74,-256,11,-202
112,-100,-103,-363,-145,-116
120,-90,-114,-472,-276,-78
-126,-89,119,-195,-114,-183
-128,-73,119,-105,-259,-161
-120,-48,103,-141,-59,-60
-119,-32,93,-198,-152,144
-123,1,91,-286,-178,88
-124,8,69,108,-1,135
-124,40,63,10,89,311
121,54,63,47,-1032,871
96,102,27,-817,-877,1197
74,102,-4,-675,-167,632
78,95,-10,124,386,119
103,113,-3,79,515,-24
23,-16,-78,603,-6657,1587
-110,11,62,-521,-7829,2220
-3,14,59,-2011,-188,832
66,-36,12,-3243,2458,-317
23,-77,2,-6440,2394,1832
-4,-54,123,-11628,2060,1589
71,4,-54,-10119,1621,811
121,74,110,-8203,-1437,-746
114,-45,112,-3917,-2526,-2888
117,-81,84,-3227,-2443,-5411
122,77,-57,-2098,-1381,-5796
-123,-99,59,-239,-1238,-4856
115,74,32,107,2829,842
33,75,-15,3869,556,5267
-108,-17,-110,3052,3350,6446
-59,55,-4,3507,2096,6512
-44,41,-71,1363,2354,1696
-50,63,-7,1878,175,1887
-40,-8,-5,3161,-1077,2262
52,17,35,3628,-1502,3169
107,-13,45,2634,-460,3210
-127,12,28,2068,823,2814
-75,-3,27,1845,747,2695
-57,75,72,439,389,3441
-97,-58,108,2169,-471,2894
-78,-80,120,2514,-33,2161
122,-92,-95,1827,193,1802
63,114,-79,1511,285,714
10,58,-60,1098,-266,-354
24,-14,-27,672,-299,-1022
65,-48,-42,314,155,-946
68,-77,-51,-175,87,-936
92,-90,-80,-932,74,-875
-122,-63,-110,-1356,-280,-436
-87,-104,96,-301,-261,-725
-85,-98,96,228,-170,-653
-99,-73,109,-172,-314,-273
-114,-64,101,-277,-151,123
-118,-57,91,-54,-29,508
-121,-26,77,-6,123,902
-112,0,64,57,197,1106
-109,30,49,85,174,1086
-101,53,31,220,237,853
-108,71,28,127,131,646
-111,78,26,291,76,457
-111,78,17,423,97,148
-109,75,25,231,-65,94
-101,84,31,-90,-36,227
-106,78,22,46,-44,-23
-93,77,19,83,-28,-98
-41,36,15,3082,-3258,-1883
45,-44,-18,1234,-4830,-685
-112,-114,-47,3951,-7278,977
121,29,3,5839,-8065,2754
-47,6,-117,-3210,-3919,2483
-27,-75,-51,-964,231,903
21,31,61,-2468,1886,43
39,-95,-33,-8386,3611,280
56,115,114,-13205,2298,467
-101,21,127,-12216,1599,139
-102,-89,-104,-8299,-1411,-892
-117,-110,-39,0,-1826,-2147
126,-47,2,-645,-2484,-5477
115,-47,86,-3850,-2414,-5662
122,-66,-41,-1124,-1233,-4669
-63,33,57,1967,441,1023
-5,63,-25,261,767,4440
101,-89,-109,3944,1886,5553
-126,87,-17,560,2086,4617
-45,-32,-89,7037,1575,1908
-39,-82,-103,4692,3158,593
-5,-92,-97,4897,1369,1803
-40,-104,12,3145,-1065,1958
27,81,39,434,677,3245
120,79,7,1488,1864,3725
-94,-2,1,113,1204,4090
-49,-1,-13,969,298,3900
-47,-27,52,880,435,2490
-40,87,113,714,160,2360
113,3,120,1708,-6,817
43,-123,-95,1994,-29,-299
32,57,-71,1244,-51,-731
29,-28,-61,1126,-361,-844
108,-49,-79,17,59,-540
124,-75,-87,-1049,-149,-460
-114,-101,-105,-1044,-344,-313
-116,-120,117,-356,-115,-267
-118,-118,115,-122,-136,-132
-108,-71,105,-288,-14,224
-115,-65,76,34,164,217
-112,-21,69,-74,38,489
-122,4,64,-139,-39,588
-121,27,59,-162,67,592
-121,31,39,165,170,452
-115,52,40,69,26,480
-106,71,31,-91,73,517
-110,79,21,-165,-28,302
-109,87,20,-92,-88,158
-105,86,17,30,97,21
-100,88,18,63,133,-18
-3,62,86,3370,-5046,-361
25,34,88,4017,-5030,730
39,80,32,151,-6169,3289
102,-94,-110,-2682,-3687,2042
-58,118,-12,732,1008,-535
-26,27,62,-2551,1348,-43
62,90,51,-6647,409,264
111,-28,0,-9621,1728,112
95,28,-83,-10587,-398,-618
91,-43,76,-11182,-2276,-585
49,-24,34,-8554,-3152,-1541
-115,124,-70,-3185,-1276,-2932
121,-124,79,2801,-821,-5348
35,-29,64,-2050,-1181,-3942
-116,1,98,631,-674,-1148
57,-24,39,1730,1630,4666
47,-27,-53,4579,2376,4786
-54,-92,-50,3476,3018,5139
-57,-120,-36,3198,2312,1390
51,69,63,1451,2092,3358
59,63,-11,6122,-122,1085
-111,19,31,-1291,-37,3250
63,23,17,709,-1500,3591
-120,94,19,60,-1554,3725
119,-119,37,-457,-1149,2427
-107,-94,122,682,-1101,3379
115,11,-118,3378,-1583,2286
-82,49,-120,2449,-202,2182
-123,-42,-102,3070,295,1303
78,-124,-126,3088,164,540
51,-113,-68,1243,-126,410
28,91,-72,24,-8,-274
32,9,-67,40,109,-846
71,-81,-88,610,448,-1073
93,-92,-98,652,423,-981
124,-119,-108,483,252,-863
-110,-120,-112,81,81,-527
-97,-110,-125,-304,-32,-182
-99,-109,111,-264,-122,38
-99,-100,102,-19,-78,237
-102,-74,93,-156,-34,414
-104,-46,87,-26,-102,504
-102,-33,77,128,74,540
-101,2,69,-95,34,628
-98,15,63,35,-14,584
-98,29,51,157,97,369
-100,40,47,80,92,214
-101,41,41,205,53,123
-94,47,33,107,66,70
-94,47,37,237,-52,47
99,64,40,3332,-1539,-3762
4,-114,-56,2776,-3807,-1741
66,99,-77,6374,-6978,534
109,-47,-30,3493,-7375,2575
-24,67,-20,-4862,-5071,2555
55,71,12,1030,-1099,232
14,53,91,-3246,2269,434
39,-101,-86,-7912,2409,1536
-37,-19,-86,-13398,1648,2419
40,49,-43,-10294,115,1871
103,-116,-30,-8267,-1902,1109
-23,-24,88,110,-1926,-1450
-9,-11,-69,-225,-911,-4509
-72,115,51,-2727,-2563,-4782
-28,76,-38,-1048,-1315,-4643
33,26,47,841,326,-132
88,67,-26,1872,648,4923
-86,-68,-94,1599,2757,4829
-16,-12,-47,2381,1459,4470
25,-7,-104,2043,1797,1828
8,-105,23,5083,1203,1575
61,109,22,3487,376,1757
72,63,0,5242,-630,1393
108,-21,34,4474,48,1486
-109,100,-21,3990,1792,1774
-71,-120,75,1657,1920,2155
-59,41,4,3034,1677,1800
14,-69,72,704,1972,2874
-119,-63,112,-1933,37,2339
113,104,127,-1597,-184,2011
78,-28,124,197,542,1110
72,-5,-89,885,793,264
110,-29,-77,1357,892,27
118,-32,-45,608,171,-31
117,-61,-33,144,-450,-108
-113,-81,-48,-570,-436,-195
-103,-101,-81,-483,-137,-269
-103,-107,-108,-427,-225,-253
-101,-103,-123,-363,-261,-152
-95,-96,116,-219,-164,-37
-95,-90,113,109,-107,89
-84,-70,92,96,194,240
-94,-41,85,-241,-113,348
-91,-21,75,-176,-149,454
-90,-16,62,100,161,363
-94,5,60,66,137,441
-92,22,45,125,142,469
-89,32,37,175,136,373
-87,46,30,48,105,281
-78,50,24,154,56,125
95,33,-112,4854,-7330,-173
21,-111,60,4138,-7946,0
86,93,31,4654,-7076,477
88,24,-20,-3422,-6094,3975
59,46,-26,-782,355,919
-82,80,6,-4792,1550,1965
126,14,55,-9134,1825,3042
41,-106,-83,-13964,2149,4909
-128,-123,-70,-8599,-1748,3867
71,-2,-9,-2614,-2503,742
1,38,87,-1888,-1191,-3455
-3,65,-51,-2729,-2204,-3926
47,46,-90,-1882,-1563,-4331
12,126,77,513,-622,-3034
88,-14,31,-612,971,3104
-99,86,-30,2830,1471,6361
41,11,37,2526,2681,5430
-119,-54,-49,2195,605,4603
-54,87,-10,4211,854,3015
-109,-83,-44,2259,105,1789
-120,-126,58,570,-1568,2073
-112,-31,111,1166,-861,1469
-80,111,105,1767,-929,1248
-75,77,112,596,-746,1926
-56,-48,86,2106,-1555,2513
34,-11,99,2756,-871,2723
-4,-8,-114,2678,-1057,2197
-72,-18,-99,2204,-452,1502
118,-18,-91,1667,-631,690
48,120,-68,2235,-232,-509
52,42,-50,1878,346,-861
43,-6,-31,1675,263,-791
57,-19,-3,487,-131,-565
96,-66,-28,148,133,-679
-123,-86,-55,-35,311,-484
-124,-75,-61,-818,-364,-260
-109,-119,-105,118,-216,-412
-81,-116,-115,368,157,-547
-69,-113,-114,400,157,-425
-61,-108,-123,330,196,-31
-64,-86,-127,67,175,279
-79,-42,-124,-361,-82,770
-75,-44,91,79,123,494
-78,-36,73,347,113,414
-86,-7,85,17,-28,562
-87,-4,64,99,98,404
-84,8,52,68,0,205
-67,13,45,77,46,55
-51,0,33,305,181,11
-50,0,36,238,6,118
-44,78,61,3942,-5010,-1237
113,-15,127,6045,-6425,1021
-56,24,31,-1872,-6865,3567
-64,68,-21,-849,-3756,1644
85,77,-104,-758,1539,254
16,-87,-55,-2694,2574,587
96,121,90,-8565,2629,2143
108,28,-115,-13516,2460,3103
85,60,23,-9720,-921,542
-61,-99,-105,-9942,-1877,161
28,54,115,2996,-623,-3595
-113,43,-70,-2607,-2005,-4276
-111,111,-19,-2926,-2911,-5314
-57,55,-48,-969,-1944,-5015
14,114,84,-1236,-633,-1179
-85,-87,33,2137,1832,3657
-108,-46,-66,2692,2390,6179
4,25,-45,3641,3861,5849
90,-76,100,2017,1998,4672
87,-47,-73,3702,1711,2504
42,-55,-104,7220,-15,1360
-100,76,53,11231,-303,1367
112,-107,42,3526,-536,1407
-127,41,-127,205,1656,812
-73,87,26,1831,3238,1151
-53,45,93,-1040,2212,2527
-80,-12,48,-1286,1860,2489
-64,97,99,-2611,643,3192
-126,18,51,-687,439,2377
-123,67,122,411,-74,1741
97,28,121,1409,-48,650
58,51,-77,615,-235,-255
68,-24,-84,354,138,-854
97,-73,-88,401,194,-942
-115,-109,-97,278,-16,-886
-89,-91,-101,-417,-251,-529
-82,-92,126,-856,-376,-366
-87,-81,119,-969,-687,-111
-89,-93,97,-364,-199,-223
-86,-81,79,11,80,-185
-85,-60,68,-17,117,56
-85,-41,59,-91,-2,506
-93,-26,51,34,35,607
-91,-10,39,187,219,624
-88,2,30,287,243,744
-85,19,26,350,201,854
-76,39,13,334,309,715
-76,50,21,263,61,487
-77,41,9,622,150,172
-77,58,17,289,82,128
110,72,-43,4863,-2703,-3060
-68,97,-6,4015,-6885,-2054
79,-27,34,3335,-8237,342
-104,31,82,2320,-7621,2553
6,-118,-42,-3002,-3208,2764
42,-102,-63,-1797,164,1310
-38,117,9,-5027,3585,989
21,69,-75,-11028,3954,2356
50,-65,39,-12969,3440,2248
116,89,-109,-9018,-1051,-717
-77,59,85,-5609,-1665,-1333
-52,-126,117,1243,-1602,-4121
-128,-66,-47,-1578,-3588,-5800
-81,-104,-100,-1532,-3486,-5983
72,-41,-85,308,261,-1755
79,24,75,340,779,2775
67,-115,-11,1726,2315,5104
-115,81,48,4372,4133,4814
11,-34,-87,4106,4309,4357
-101,29,89,-3975,2646,6314
-55,0,45,2554,-3129,-235
73,50,16,7360,-2265,817
-128,-32,-93,7769,293,966
-116,-22,-45,5089,772,1345
-89,112,43,2115,1647,1628
-109,-111,-1,-323,2268,2555
127,-107,-24,-1141,1482,2720
109,-127,17,452,65,2780
127,-58,87,-516,-193,2329
88,104,63,403,390,947
68,68,110,1231,248,252
70,8,-123,1308,76,-563
93,-8,-94,717,-33,-483
113,-77,-103,597,267,-572
-128,-68,-93,-14,116,-176
-118,-83,-106,-237,-42,-152
-105,-103,127,-6,-112,-195
-96,-94,122,-123,-57,-78
-102,-91,117,-36,-44,78
-100,-83,105,44,74,258
-97,-65,89,-100,143,399
-88,-31,69,-479,263,687
-93,-39,54,58,60,379
-94,-19,50,369,-1,360
-79,3,42,37,198,325
-50,8,18,92,254,308
-87,17,18,264,-89,173
-104,32,32,-109,-188,87
-79,35,30,-211,11,81
-59,26,10,205,86,17
-28,73,120,2141,-6424,571
31,-57,-3,1124,-7746,2286
12,89,7,-959,-6272,2727
87,-109,-118,-1811,-3158,1734
31,-25,-35,-2564,3115,484
112,94,6,-6008,3482,1856
-25,-49,-64,-12139,3451,2976
-41,-39,73,-13241,1764,2105
85,60,-101,-10360,-1554,-273
-66,-53,83,-808,-1051,-2825
-75,-67,68,-2100,-1219,-5332
-112,-53,125,-1500,-2992,-7294
-39,-103,48,-341,-2125,-5537
-63,-112,-63,62,961,2096
115,98,90,930,1619,4243
-119,37,-9,3612,3296,5736
-3,33,-117,3247,3870,6530
-5,10,-93,831,1437,3038
-23,36,-38,4203,1427,1298
-10,95,13,3607,-426,1780
33,-74,-1,2702,-397,2245
88,-20,-25,4328,-638,2560
-116,57,-20,2169,364,2940
-88,19,25,1913,428,2918
-128,-76,-36,3391,817,1811
-84,35,106,45,436,2728
-111,-84,98,197,489,2268
-103,61,95,2340,432,1373
108,85,-92,1751,342,924
71,73,-84,634,175,410
53,35,-74,152,-108,-141
76,-46,-83,314,21,-544
92,-57,-80,60,11,-578
118,-88,-97,-66,-143,-696
-114,-89,-103,-239,-219,-633
-96,-110,-125,-172,-52,-653
-85,-103,117,-332,-132,-461
-85,-97,102,-388,-160,-122
-92,-89,89,-226,-157,219
-101,-73,83,-36,-29,412
-92,-45,62,-119,135,546
-95,-4,41,-97,22,728
-95,13,32,11,41,655
-94,31,27,84,256,573
-76,41,6,190,388,444
-93,45,2,347,160,281
-77,51,1,257,210,174
-74,51,5,267,172,86
-57,59,5,113,134,34
-54,61,12,137,55,-14
-99,5,67,2976,-2348,-3261
-49,18,119,5617,-6488,-1984
63,126,9,7277,-8636,-409
119,77,54,3747,-7417,1917
-66,16,82,-4134,-1586,2182
-41,-8,18,-2550,2415,-83
-84,21,110,-5579,3150,996
-33,120,-43,-12265,2527,2347
21,-95,88,-10090,648,1363
92,-106,57,-8890,-1889,93
-128,-82,15,-3602,-1462,-2081
-109,-115,92,-792,-2011,-4621
-125,46,1,-3213,-3419,-6000
-26,-13,-31,-1262,-2011,-5318
-69,83,108,703,940,2040
-116,8,9,1651,1503,5128
-81,-20,95,3941,3392,5395
7,-85,55,2055,2078,6230
-57,-127,98,2024,1662,604
-49,121,-39,4551,994,1785
-49,-30,44,3420,-1065,2024
35,40,57,3418,-931,3113
99,-90,4,3257,472,2100
127,56,8,1655,758,3254
124,5,34,1783,570,3000
-113,42,63,1513,92,2809
-108,3,103,1346,766,2062
124,-61,-118,1386,362,1259
89,123,-69,1711,160,1025
97,99,-73,1105,523,481
62,46,-70,785,222,-213
79,8,-49,509,-156,-405
90,-53,-59,581,52,-499
97,-62,-56,38,-56,-386
112,-69,-65,-283,11,-369
-106,-69,-75,-82,60,-256
-93,-67,-96,-124,-45,-134
-99,-53,-102,-385,-191,-45
-98,-55,126,-250,-61,16
-92,-50,118,49,124,33
-86,-28,99,36,148,220
-84,-13,96,43,68,260
-82,-2,89,121,160,353
-82,23,80,-44,116,567
-87,37,74,-56,13,642
-81,53,63,61,30,575
-85,71,64,11,20,432
-75,83,59,100,47,275
-73,99,55,-24,1,123
-79,96,58,20,-22,-56
-75,124,-126,3913,-1887,-3045
34,-75,96,3959,-3494,-689
70,-105,-96,4001,-6534,2606
60,-105,38,947,-5940,3052
-20,-97,39,-1131,-5756,1905
126,-20,49,-1207,-877,554
-8,-52,107,-2918,1944,319
16,98,-39,-3189,2305,668
1,18,-123,-6206,2086,1404
-6,-115,-111,-10449,1216,1557
84,61,47,-8924,400,207
108,76,-21,-9534,-1439,-671
119,-117,27,-4583,-1946,-1571
-127,73,2,-1027,-1841,-3326
112,7,-120,-756,-2720,-5090
-77,-13,33,-333,-2075,-5205
8,-119,74,1085,222,-2321
51,-1,9,252,548,3134
60,-124,-34,1129,1379,5778
-53,81,39,4062,3493,5478
6,-30,59,592,1431,3957
-46,24,-116,2212,1359,1620
-17,35,90,4909,199,1100
-45,72,47,5089,382,601
34,-28,45,4591,888,1645
114,39,106,1528,1192,3490
92,-9,96,1086,771,3166
-39,102,89,-935,968,4111
-108,-33,-112,537,-241,2624
-20,-18,-103,1847,255,2327
-66,-124,-69,2983,544,1194
-86,127,-46,2193,928,1265
117,94,-55,1269,374,550
98,50,-39,929,97,-175
108,-18,30,653,-114,-580
125,-27,37,145,-305,-212
-118,-64,38,193,100,-309
-104,-72,6,-192,-26,-105
-95,-55,-11,-533,-642,95
-89,-60,-44,-583,-596,38
-74,-68,-89,-529,354,-161
-82,-79,-121,288,341,-121
-87,-36,-128,51,83,44
-72,-24,-122,-161,-250,98
-78,0,99,-310,-207,429
-96,6,103,341,-771,838
-116,6,76,381,-523,606
-116,42,91,-166,-127,440
-109,42,52,-68,271,311
-104,49,57,-1,447,79
13,-89,70,1653,-6503,1186
-83,-10,-66,1040,-6196,1703
-4,-19,-128,-914,-3911,591
-124,89,122,-2908,1378,759
123,-38,89,-2870,2240,395
-46,-15,0,-6221,1393,1563
8,-20,-121,-9901,1446,1400
63,-88,-107,-7248,306,1286
126,-126,104,-7509,-1406,447
-108,-44,113,-5308,-1851,-2121
-95,-93,121,-4460,-2624,-3038
52,-66,-81,-6675,-1351,-5908
-1,-113,19,1985,168,-4182
-86,60,-119,234,78,-1366
-24,-67,44,1190,1314,1721
3,61,-35,2286,313,5468
-95,14,56,3664,2117,4787
-7,61,-56,1161,1047,4070
-8,37,69,2264,2110,1020
-53,105,-113,3872,1986,1934
45,-110,100,4309,756,2686
106,-88,101,2702,400,3553
-58,98,127,2156,317,3962
-46,42,-117,2964,516,4481
-1,-51,-83,3573,547,2863
3,8,-95,2835,411,3007
-85,-5,26,529,-136,2246
-79,-45,-64,-389,910,2177
70,112,-20,444,274,1465
57,60,-21,1428,103,618
59,40,-7,1179,-167,-289
66,14,10,336,-462,-410
92,-40,10,-91,-254,-444
104,-46,-1,-626,-92,-224
113,-45,-22,-977,64,-113
122,-77,-62,-463,-146,-330
125,-61,-75,-169,-274,-256
-118,-25,-85,-439,-209,12
-123,-34,-105,-132,203,-76
-122,-28,-127,83,145,136
-117,14,116,-281,-65,502
-117,28,108,-76,-75,598
-114,43,108,103,63,447
-109,71,100,55,79,410
-106,90,96,-10,2,475
-105,97,87,176,80,299
-100,106,86,106,91,219
-96,105,76,180,114,167
-93,117,79,-22,-49,151
-82,106,80,205,54,149
-7,95,-12,3713,-6089,-338
-127,-89,21,4115,-6263,1430
107,21,5,-239,-6769,2743
109,38,-6,-2326,-3973,1908
-30,115,127,468,1413,-559
89,-16,115,-2051,1125,435
-12,55,87,-4928,465,693
1,10,-5,-10283,2340,691
39,-15,84,-11818,1595,775
87,6,-3,-9223,31,771
-127,-12,-34,-986,-1373,-550
-115,-45,-103,-668,-2104,-3243
111,-30,96,-4654,-3258,-4521
-83,-53,127,-3468,-3504,-6061
-24,48,69,-2195,-2646,-4743
-62,-82,70,254,781,1838
-104,-110,23,3033,761,5462
-93,-41,-114,4007,3362,4526
-109,43,-101,2343,2068,5478
74,60,-77,1718,1688,1186
63,-126,90,5635,895,1022
-117,1,-118,2902,471,1645
-41,-119,72,724,116,2308
6,23,-116,2100,-1092,3311
34,-40,74,2834,-152,2661
99,-127,104,977,201,3244
101,35,-127,1264,243,2333
-70,43,119,1413,384,2855
-104,-33,-102,2610,-285,2027
-104,-37,-43,2013,82,1972
97,-125,-70,3538,547,1079
74,-87,8,2427,246,141
48,73,-5,1468,36,-515
57,7,25,319,-227,-715
82,-57,16,-232,-116,-535
100,-107,-3,-430,-93,-329
114,-110,-22,-324,14,-173
120,-109,-51,-130,-285,218
123,-88,-65,-534,-363,216
-123,-83,-96,-631,-108,39
-120,-71,-122,-527,93,-23
-124,-71,117,16,180,-77
-116,-57,110,130,39,109
-115,-36,103,-14,57,323
-114,-26,96,145,77,455
-116,-13,91,228,163,496
-112,13,81,143,133,647
-108,28,72,106,70,707
-103,49,68,54,16,633
-103,64,62,146,32,372
-45,-18,84,4718,-3939,438
42,84,-80,4220,-3985,1539
-55,-109,-98,-2120,-6290,3596
-48,-125,-111,-1327,-3066,1374
95,48,27,277,881,-248
-76,-97,-115,-2276,1293,462
46,-71,-91,-4726,1154,469
26,-78,-12,-9629,1139,1370
106,46,-51,-13316,1935,2312
-106,-75,-116,-8395,696,567
8,-9,92,-8034,-1272,-115
10,81,-106,1601,-1530,-2416
-16,-64,-51,-699,-1231,-3525
-61,83,-24,-950,-2371,-4645
-76,-113,-28,1368,-2921,-5263
-24,124,6,-119,-1876,-1983
107,-4,-24,-33,1558,846
62,-124,-105,-158,2480,4252
-119,-19,88,1196,3062,5029
-9,-90,98,1553,2165,4450
88,-96,88,1131,2209,2914
100,-100,-80,5767,822,2351
-127,-123,25,832,267,2460
-114,-102,32,2056,-506,2848
-89,15,7,3819,-356,2765
-45,-18,45,3240,-329,2488
-37,75,65,1053,300,2968
-73,23,-123,76,601,3009
-75,22,-98,455,-223,2772
-76,117,-77,3004,905,1732
-94,119,-27,2699,856,1501
111,124,9,1282,53,1016
87,78,18,572,-195,339
83,8,3,324,-13,-389
95,-27,-6,158,-120,-544
114,-63,-22,-124,-181,-600
-122,-73,-43,-326,-124,-511
-103,-78,-62,-437,-244,-511
-67,-65,-85,-762,-222,-445
-87,-74,-101,-511,-109,-265
-100,-77,119,-78,-40,-226
-96,-32,108,-145,203,208
-98,-17,93,-163,129,178
-94,7,79,-30,-44,366
-69,17,69,160,207,465
-65,49,73,194,279,486
-73,62,82,85,5,505
-75,71,89,-49,-14,519
-67,74,92,159,64,473
-65,83,85,332,133,426
-1,-22,-66,1661,-5298,2553
-64,114,2,486,-5912,3855
-38,-66,-71,-2023,-4098,3012
104,-88,97,-82,515,604
79,69,-60,-3436,2864,586
-87,-41,42,-7566,2658,1869
-45,23,26,-13262,2640,2981
39,-85,-102,-9779,510,1583
-105,-16,-63,-12255,-586,2782
70,-49,-52,2612,-1181,-1172
58,97,-5,-1830,214,-3474
-48,117,36,-2527,-2040,-4654
-29,-127,89,-812,-1375,-5898
-55,-106,38,254,-2147,-3868
122,105,69,377,656,1328
88,-16,-3,1213,1305,4550
-98,-86,-77,1649,2699,4664
-14,55,-93,1836,1798,4686
-3,46,-58,2602,1567,2089
-56,90,93,3188,1537,1061
-26,36,55,3616,768,1208
30,-114,65,4119,108,1792
97,-43,69,4500,64,1994
-121,18,97,1995,919,2551
-94,-40,62,1611,1592,2150
-67,-27,72,1248,1357,2752
-61,-57,119,1072,793,2964
-94,8,-97,-77,-158,2410
-78,-125,-41,1031,121,1523
-99,-10,-70,2716,1529,962
123,76,-2,1043,222,1242
125,63,-1,178,-29,863
106,-4,-26,290,-241,15
110,-49,-13,649,-137,-518
-121,-69,-27,191,53,-486
-108,-71,-36,-343,-239,-396
-94,-87,-51,-262,-333,-434
-75,-94,-74,-263,-161,-502
-72,-78,-80,-411,-63,-262
-70,-83,-103,-240,115,-160
-74,-62,-106,-132,-181,147
-61,-44,127,103,289,258
-62,-5,-127,-86,199,301
-61,2,117,97,194,420
-54,13,106,86,233,400
-55,37,105,133,121,431
-56,39,94,221,111,432
-49,57,90,167,30,477
-49,57,87,298,-81,441
-57,62,77,78,-91,332
-30,64,-128,4970,-1110,-2881
0,87,90,3619,-4282,-2119
-80,-66,9,5493,-7201,1479
-55,-102,-49,2619,-7948,3160
46,68,112,-1512,-6723,3377
-35,-4,108,-1246,-1699,1744
25,-41,97,-1432,1755,-140
19,-50,20,-2565,1584,602
-108,-78,-50,-8212,1113,1498
-8,1,70,-15339,2728,2386
9,-110,21,-10810,646,332
51,-19,-119,-13141,-2381,457
93,-112,35,-616,-2248,-911
0,37,74,5735,122,-2899
110,-121,-65,-285,-1039,-4382
63,-93,52,564,-2228,-5374
-124,34,-37,1561,-4185,-4530
-84,-56,48,-1818,890,2117
-70,-100,-20,2015,2772,3398
-85,-8,102,1586,4456,5366
-31,-15,-126,861,3174,5841
-24,-76,-97,222,646,4573
-17,93,6,1373,1085,635
-9,-6,121,3913,-116,427
17,40,-115,4324,-915,2034
85,18,104,3799,117,2644
-106,6,117,3319,443,3256
-99,20,-90,1699,431,3134
-67,-19,-118,1948,700,3173
-46,-50,-75,1297,967,2680
-86,-65,-39,1282,431,2707
-125,123,-22,2010,-199,1219
82,72,-28,1753,254,41
63,37,-4,1690,-144,-738
81,-28,10,1228,-170,-750
101,-35,45,-212,-375,-428
114,-88,12,-439,-211,-169
115,-101,-5,-727,-284,55
126,-99,-42,-653,-233,-6
127,-93,-72,-481,-286,-14
-121,-98,-102,-88,163,-146
-121,-77,-110,-108,33,-21
-117,-58,-126,-130,-68,156
-118,-36,119,-281,-179,147
-119,2,109,-419,-244,416
123,8,86,192,-169,280
-117,42,86,-1,285,244
-118,58,77,75,47,339
-115,72,65,101,104,283
-104,83,76,35,481,128
49,-58,72,3044,-5052,996
53,72,85,1594,-6103,1908
100,81,85,-433,-5789,3009
6,56,22,-1742,-4518,2753
-89,-71,-111,-1608,489,1025
3,-112,7,-1909,3040,234
-13,55,114,-3647,2631,1257
-34,-127,-10,-9774,3642,2029
30,-51,-78,-11559,2572,1834
-50,72,-6,-9774,-233,1265
11,-65,-61,-2626,-1816,-864
63,-37,-63,-2225,-966,-3830
-17,-79,49,-4088,-3019,-5242
25,117,31,-1771,-1795,-5641
73,-73,-105,-1935,-365,-2270
66,-66,70,1858,909,2463
73,19,-6,1040,1306,4873
-32,-108,76,3018,2509,4796
17,123,-61,317,701,3884
16,21,58,2290,1785,1746
-14,78,-89,2732,1515,739
-52,-49,79,4563,326,1120
30,10,123,4278,-829,2957
-101,-41,-115,3438,-174,3676
-18,-1,78,2810,1620,3692
41,39,122,1370,791,4292
58,7,89,1366,375,4296
44,-54,78,2782,48,2936
-49,-55,-58,1475,92,2321
103,-49,-49,116,312,1026
65,98,-35,1917,-27,-209
66,32,24,2217,-251,-748
54,9,65,1017,-213,-855
67,-25,68,-98,-55,-748
123,-77,20,-622,19,-508
-117,-86,-5,-500,-312,-417
-93,-86,-41,-469,-269,-562
-83,-92,-61,-267,-74,-649
-87,-89,-71,-163,-235,-434
-81,-76,-85,-143,-195,-32
-94,-63,-94,-240,-198,328
-90,-46,-112,-118,-137,496
-70,-18,117,0,-107,797
-117,8,113,94,-44,788
-112,24,88,73,93,610
-107,47,77,-83,-87,807
-116,65,65,-55,-213,641
111,78,64,-68,-193,327
114,76,52,-69,-58,278
122,89,37,-247,-217,300
20,114,5,4284,-5675,984
68,50,11,3764,-6016,2090
-25,23,-75,-467,-4838,2585
84,75,-99,-791,-2610,2704
75,20,-1,-3159,681,1460
-53,122,89,-6586,3198,1474
-108,-72,99,-9428,4056,2173
-57,-22,-97,-7852,3148,1379
64,-70,117,238,1588,-1219
-82,67,-2,-1646,1103,-963
27,82,91,-2477,-3489,-1995
36,-4,105,-3323,-4183,-2982
-89,13,-86,-4000,-5903,-4860
104,116,-126,-1654,-5562,-4057
-6,-88,76,1588,-701,-890
18,-45,-17,-452,2394,2071
-55,110,-113,841,3539,3210
-30,-23,4,2549,3507,3610
107,14,-125,-1500,1283,6077
-78,82,-80,2402,1755,1553
-13,102,-78,4780,825,2177
-95,-21,-2,2029,414,3799
60,69,-65,2310,1259,3818
116,40,-57,3126,866,3765
-63,82,-64,1439,1079,3911
48,33,-3,-373,75,2809
-20,-113,41,1122,-471,1359
-66,100,61,1846,-113,993
-104,81,98,1281,266,201
-128,22,106,1242,251,-238
127,-16,-123,850,-6,-249
-121,-6,-108,-70,-258,-207
-110,-46,-119,-34,-192,-379
-77,-47,-124,-299,-208,-489
-61,-54,108,-269,-90,-598
-44,-50,95,-424,-243,-627
-39,-50,83,-341,-219,-473
-31,-45,68,-339,-106,-290
-45,-24,63,-286,-235,-27
-45,-28,44,87,119,78
-40,8,40,-79,105,529
-50,18,31,14,-5,745
-45,36,28,103,71,753
-52,68,22,-16,89,799
-49,79,15,32,96,739
-44,90,5,247,107,575
-54,104,9,197,16,456
-59,115,4,27,41,302
-52,115,-1,67,0,137
-54,107,-3,225,-33,-79
-69,46,1,3240,-3478,-2195
64,92,117,4230,-6873,183
-126,48,110,6123,-9565,2995
101,32,2,-1890,-5919,4196
32,-23,117,-1381,-866,1279
113,-79,-1,-874,2232,-381
74,10,116,-4064,2711,1206
121,66,18,-10712,2345,1878
-25,8,-58,-10699,1901,2236
126,3,117,-11695,670,2452
57,-112,84,-7822,-3415,-111
-2,-115,120,436,-1104,-2630
-10,-67,-118,-1252,-858,-4432
-74,102,109,-1450,-1378,-4926
-114,84,-70,-387,-1542,-3846
-45,-8,109,359,-787,-122
-26,28,45,918,316,4093
58,-86,-33,1634,2208,3600
-53,80,110,1565,2199,4797
-74,-2,75,2239,1663,2223
-105,106,-73,793,627,708
112,-18,-60,1196,-51,341
-63,-19,-68,2534,-48,474
-77,75,111,3603,-18,1594
-1,126,81,2651,-459,2771
96,58,77,2461,344,2710
-90,114,85,2232,94,3418
-42,87,83,2097,-18,2921
-39,-64,122,0,-733,3152
-107,-13,-94,2370,-745,1625
-85,-75,-89,2322,534,1529
107,-97,-84,1902,395,962
63,62,-89,2133,195,358
60,44,-53,1265,-21,81
64,4,-51,717,6,-54
74,-31,-39,59,-196,-295
94,-71,-52,32,-76,-361
113,-61,-60,-609,-164,-412
-116,-47,-81,-1762,-26,-371
-109,-111,-128,-256,239,-332
-110,-98,106,409,339,-239
-100,-49,83,113,265,15
-104,-32,76,-163,11,178
-99,-42,58,207,78,203
-95,-22,65,394,105,273
-93,-19,51,554,125,374
-95,22,75,49,-196,611
-84,23,58,112,79,505
-89,46,61,52,-74,425
-84,43,54,213,62,70
80,-126,-18,3990,-3741,-2931
-37,-3,-18,3876,-3590,-1233
-90,-33,-36,1109,-1853,-194
87,-40,-39,-826,1046,284
-86,-11,-92,-1005,-105,593
-120,63,67,-5239,1308,1275
-126,-123,-84,-10627,2188,1041
-25,125,-68,-10766,1760,1764
-7,-47,-113,-7191,-1135,658
55,-64,18,-1376,-1293,-1272
58,-12,125,-1938,-660,-2928
3,66,-27,-1011,-1039,-4079
-5,73,-16,-635,-1014,-4507
-36,-95,83,128,-1605,-4184
9,63,-40,317,-1306,-2076
123,-61,-63,-633,1322,1313
102,-4,-127,1737,1759,3981
-109,67,71,1439,1852,4421
-28,-114,-52,1373,1923,4728
-11,-78,26,496,1532,2516
-15,74,-29,2267,761,1687
-40,-22,22,7586,1629,101
-29,-26,96,2969,-670,731
41,-34,-28,-2584,-1182,2418
90,89,127,1228,-1103,2974
125,-126,119,2379,245,3345
-79,-83,-87,2753,233,3316
-18,40,-90,1560,722,3482
-63,-44,-77,2208,-213,2663
-12,-60,-1,2915,-295,2678
-55,-122,-62,2757,1073,1628
72,-49,36,916,146,1040
36,83,21,654,-215,-198
41,-40,33,1075,-75,-859
64,-93,35,799,101,-683
90,-85,31,-368,14,-382
104,125,-10,-443,-77,-411
125,102,-17,232,-84,-383
-110,104,-36,435,329,-470
-117,119,-52,-4,46,-236
-102,-120,-58,-489,-248,200
-98,-116,-97,-381,-69,426
-111,-104,-109,-53,-68,316
-108,-94,-123,215,88,273
-106,-63,119,49,49,444
-110,-53,110,68,-66,514
-104,-23,103,-117,-61,626
-113,-3,107,-169,-306,617
-115,2,86,50,-50,433
-111,11,77,170,244,102
96,110,-64,1641,-5136,1551
31,45,48,1437,-5373,2619
57,63,-34,-244,-4786,3147
98,-10,-46,-1463,-701,196
-19,-102,-29,-826,314,212
75,-93,-20,-8027,1862,1844
25,84,58,-12445,2052,2443
22,-4,2,-10786,1040,2209
101,111,-108,-8827,-980,1222
-108,-20,13,-2956,-1545,-234
-7,-110,0,558,61,-3086
-96,-124,30,-2433,-1098,-3652
-106,-65,99,-138,-1221,-4229
-121,-43,17,525,-1161,-2582
-103,80,-18,-43,-134,18
-61,-46,-56,1323,1208,1515
40,-53,115,1918,2164,4300
-115,12,-47,1371,1752,4243
-27,121,-46,-759,848,3109
-77,-112,72,4492,749,1162
-17,-115,114,3489,-161,1678
14,57,12,3793,-296,2149
108,114,50,2956,-40,2870
-106,-6,-14,3545,120,3100
-86,71,-37,2182,244,2819
-65,71,-40,1795,335,2705
118,-21,69,1705,-469,2140
118,-119,-126,2187,442,1976
83,84,-79,1083,257,1299
63,108,-80,905,166,674
42,55,-67,913,-6,-127
33,-40,-60,893,37,-678
41,-22,-67,-263,-428,-181
71,-62,-88,-734,5,-377
95,-106,-122,-445,300,-858
-116,-93,117,-725,18,-959
-108,-80,94,-820,-296,-1215
-94,-65,56,-6,-202,-260
-104,-41,66,-291,-122,169
-111,-46,53,-32,-19,313
-117,-26,37,108,14,484
-118,-9,32,244,27,735
-110,9,28,255,87,782
-113,27,14,363,71,693
-127,48,18,290,-262,610
-127,58,7,290,70,614
-126,69,10,141,95,383
-124,72,0,164,-52,56
-115,84,1,-106,-52,4
-106,64,1,72,37,-217
-91,73,-75,2084,-5638,-2021
-94,-100,-43,3371,-6738,-88
67,-38,22,3187,-6037,1774
-63,-17,56,-2540,-2746,2049
-4,-127,57,-703,420,567
-49,-27,56,-1567,1466,595
25,-29,0,-5213,1336,986
47,21,-107,-10307,1323,347
120,-107,58,-12597,1080,616
126,-68,99,-11914,-1913,-775
-111,84,-112,238,-2368,-1688
-75,-115,117,-318,-528,-3906
115,21,-91,-520,-1462,-4553
-119,-78,-35,-393,-1301,-4273
-76,-67,39,-237,-530,-876
10,-80,-2,857,1549,2095
28,34,-85,1574,1287,4861
-77,109,61,2221,2590,4091
72,-114,-110,1042,124,6758
-6,-123,89,3466,2369,-1577
-120,102,38,4627,501,1371
4,-113,84,2085,398,1552
69,11,15,3729,516,3376
-110,41,1,3492,339,3975
-58,-28,62,3827,163,4834
-55,19,101,1469,233,4125
-58,-99,77,1768,-169,3107
-10,-75,-127,670,1445,3583
99,42,104,2036,150,1236
59,31,-34,1872,-522,749
44,37,-35,901,-307,161
23,-6,-15,195,224,-726
21,-74,-21,373,195,-971
60,-77,-19,-459,382,-782
82,-124,-45,-241,30,-612
116,124,-62,-28,208,-812
-109,120,-94,-210,583,-877
-102,-113,-94,-611,-228,-432
-96,-125,-122,-352,-253,-281
-92,-118,111,-88,-71,-64
-97,-91,111,-145,-129,291
-101,-76,97,87,0,479
-106,-28,91,-31,-160,657
-97,-12,88,15,-59,700
-119,26,76,-184,-701,973
121,25,59,-63,-404,829
126,34,43,47,229,550
-115,72,31,-212,632,140
-85,96,52,-623,1228,-296
-86,79,52,177,182,-219
-73,-65,-26,2343,-5011,-907
-48,-31,24,3746,-6144,596
-19,-5,-107,1217,-5341,1772
85,126,124,-684,-3490,1424
-26,79,-1,108,616,13
-55,-73,109,-2330,1638,794
62,99,61,-6616,1265,1186
27,-56,74,-13029,1598,1332
49,-15,-79,-11820,454,213
100,-50,-88,-9112,-974,-402
-115,-78,-127,-137,-2352,-77
-85,108,-97,-1152,0,-2427
64,90,-59,-724,-2318,-3302
88,71,8,-945,-1788,-4140
77,122,-73,960,-2946,-3815
2,48,33,-319,-1297,-862
125,68,-21,631,1934,2539
87,31,-93,987,2356,4399
95,37,-44,3131,2890,4315
62,116,9,1156,1138,2218
31,7,114,1960,1348,-42
106,-15,81,2849,447,1136
-75,-73,83,1905,-24,2017
34,-46,90,4223,-92,2792
73,-55,11,3854,1181,2654
-40,20,34,1997,1454,3917
-79,-42,57,1477,807,3324
-4,18,40,1019,702,3723
-66,125,-94,3073,-1173,2508
-32,-30,-52,1354,25,2373
116,120,-89,1728,830,393
58,59,-28,2090,254,7
37,20,4,1168,-12,-82
48,-24,15,-14,123,-214
54,-93,-22,146,205,-580
73,-126,-18,133,-200,-584
113,127,-33,-268,-149,-374
-121,126,-53,-538,-188,-327
-108,-119,-84,-1290,-271,-244
-116,-115,-107,-1325,-349,36
120,-121,123,-346,-213,194
122,-95,111,287,30,268
-125,-60,97,85,237,406
-119,-41,78,32,112,567
-124,-19,66,61,-43,647
-118,0,70,159,40,657
-122,3,57,394,220,411
-116,30,54,165,94,433
-121,35,53,133,-58,384
-116,37,45,184,50,178
27,45,50,4115,-5547,464
99,-62,-85,2880,-5659,1884
-1,41,95,201,-5888,2901
6,-83,18,-1068,-1421,899
127,-124,-9,-746,1142,-32
-128,-57,-21,-3123,1135,1171
30,-19,109,-9398,1586,1569
-4,55,42,-13546,1265,1171
79,-120,52,-11240,32,-37
46,83,-24,-11281,-2490,924
-95,11,-44,3049,-1371,-730
-18,-5,10,-1081,-83,-2285
-68,-128,-62,-1065,87,-4293
92,-56,-84,22,-946,-4973
-126,111,-25,-459,-1332,-2482
-14,70,14,-281,-51,1794
83,102,-36,2441,1096,4141
-118,-123,-124,1857,2141,4322
-109,-61,-23,-425,741,3309
91,32,3,4129,1717,-45
-113,-34,-70,2570,713,1236
-71,108,73,5924,564,995
20,-37,29,6492,982,1808
127,110,-27,5105,2219,2810
-107,-49,32,880,1695,3418
-41,-80,-1,612,1789,4094
-43,-49,55,-522,661,3848
-63,-19,108,-1134,-67,3511
-102,-98,104,531,-98,2081
127,88,-73,1748,55,1259
105,100,-88,1502,354,659
56,80,-70,851,-36,-37
65,37,-65,10,-197,-432
70,-12,-62,-283,-232,-675
96,-78,-88,-187,-21,-837
110,-80,-104,-350,-7,-660
126,-82,-119,-376,-93,-432
-109,-81,108,-184,-33,-299
-111,-84,94,132,19,-354
-111,-76,102,501,8,-332
-99,-37,97,252,207,189
-105,-8,92,16,3,614
-97,7,79,57,81,600
-94,27,68,74,72,739
-99,45,68,81,-8,716
-95,63,50,-111,139,451
-99,82,52,-267,-80,414
-95,76,44,147,-70,257
-94,85,40,29,-78,118
-98,82,31,85,-93,-2
0,25,15,844,-5840,2632
-121,-128,28,-393,-5378,2833
-18,109,-117,-1554,-2343,1634
51,125,-9,100,629,126
95,-9,46,-3475,1590,905
-98,-50,71,-8493,1511,1718
-60,20,20,-13828,1325,1412
0,72,-25,-11498,189,622
31,64,103,-8060,-1609,-570
73,-51,-82,-1524,-1536,-440
90,64,-105,-1533,-1601,-2419
-127,-9,-2,-825,-379,-3871
51,-75,9,408,-1415,-4809
-117,53,61,301,-1074,-2241
24,-44,34,307,333,2259
80,39,-14,1955,1271,4954
-87,-55,120,2348,2587,4623
63,81,32,-1892,-194,3215
96,-69,110,2722,1809,-40
73,119,-58,2878,337,1192
-90,-47,-107,4530,-514,1387
16,-43,88,6033,-314,1848
91,70,97,2494,632,3385
105,47,127,848,602,3105
-66,76,110,1167,315,3524
0,-13,18,2923,1114,2573
-22,72,89,1339,-173,2726
-76,-81,-119,1861,-505,2383
-83,-23,-101,817,-177,1724
71,113,-59,1423,11,799
86,100,-46,1047,305,656
58,40,-92,1390,361,-203
41,3,-56,1264,-135,-540
78,-33,-32,645,-15,-521
92,-48,-22,-194,-160,-282
119,-98,-54,-167,-57,-400
-121,-102,-72,-72,-101,-264
-110,-87,-88,-455,-260,-79
-110,-96,-115,-248,-102,-51
-111,-85,-126,-164,-118,7
-110,-73,107,43,52,203
-109,-48,96,-8,108,437
-114,-28,83,-63,-50,538
-117,3,69,-189,-163,641
-117,16,58,-84,-282,649
-126,25,41,174,-77,347
-124,49,33,55,76,226
-117,46,16,8,387,-181
-82,96,57,-539,917,-577
-95,76,43,518,-224,-250
20,99,85,3664,-4808,-372
49,-22,-68,3181,-5265,871
41,-43,126,1850,-5460,1508
-104,67,-38,-988,-4562,1763
-94,-74,85,-2144,-1289,1195
21,110,-83,-2465,2236,-144
69,32,38,-5348,1456,1461
64,110,-95,-11241,1234,1706
20,60,9,-12067,-176,957
82,117,-102,-11383,-1022,1710
-91,-39,-11,1885,-2453,-630
-31,44,-83,-1442,-568,-3392
-103,-97,-2,-2510,-1932,-4198
-94,-87,-113,-775,-1285,-4451
-54,-33,29,57,-677,-836
29,56,-8,197,1149,2325
108,113,-87,1468,2168,4379
-84,-29,68,1439,2592,4007
-126,6,110,440,1046,2486
-121,95,-63,3062,180,1435
-46,49,-126,2972,1019,1023
-11,116,103,4037,439,2111
101,104,77,2971,727,2966
-112,53,55,2822,661,3044
-43,-125,79,2675,-335,3242
-20,63,-101,2141,-61,2856
-46,8,122,226,655,2382
-72,-58,-116,149,-103,3003
-105,-31,-115,349,-651,1769
125,82,-101,2605,-112,431
-128,73,-84,1826,770,129
77,71,-34,588,589,-219
110,13,-44,779,108,-179
121,-6,-33,356,-134,-104
-115,-33,-55,-255,-117,-116
-120,-55,-73,-431,-266,-209
-98,-58,-102,-372,-89,-68
-84,-68,117,-69,-27,-161
-79,-50,112,-159,-164,-118
-78,-43,100,-179,-184,-28
-81,-38,94,2,-101,18
-80,-29,92,115,47,174
-80,-16,83,210,45,328
-82,14,78,-3,-7,542
-82,22,74,82,93,585
-80,44,67,81,77,593
-76,55,54,143,109,495
-76,64,46,143,52,388
-79,70,44,171,-122,174
-79,76,32,190,-31,125
26,-116,88,6454,550,-1645
83,-79,24,4867,2300,-1164
79,33,37,1458,1362,262
35,-118,-36,2575,128,-309
14,57,-82,2149,-196,-350
-35,-27,-22,1946,-1228,250
-82,-18,-9,1917,-3876,549
105,13,-10,2962,-4733,1503
-58,43,-122,72,-7406,3897
100,46,95,-730,-5928,2948
-105,-126,-125,-1427,-3462,1749
49,-71,17,-2637,624,714
-35,-25,-62,-5173,2346,1232
34,40,118,-10731,1627,2418
58,-17,102,-12575,2190,1287
120,-79,80,-8591,-963,-283
-113,-86,106,-4987,-2393,288
-7,104,-52,1193,-1006,-3049
-82,-40,44,-1615,-2595,-4434
-67,12,-114,-1959,-2168,-4904
-53,98,42,1065,-924,-2723
-2,1,16,1524,-53,2161
101,-104,-48,1023,1794,4403
-52,61,124,1843,2697,4655
42,62,-93,1221,905,4507
108,-110,-66,1187,1682,1871
119,74,-106,2346,2143,2022
23,39,32,3220,95,1128
54,-98,117,2375,-1468,2057
117,4,-125,3969,-866,2172
-34,110,-78,1939,-44,3235
-9,69,121,2241,-47,3163
-20,68,-122,1529,-533,2468
-25,-67,-126,2544,229,2129
-46,-80,-99,2317,438,1940
-76,88,-73,2630,723,1404
-121,-127,-50,1000,213,1049
80,82,-41,-63,-239,337
77,-4,-54,61,-315,-145
90,-38,-35,134,-307,-402
107,-92,-66,271,-44,-896
-122,-83,-58,-295,-275,-692
-91,-100,-80,-303,-185,-569
-81,-114,-104,-83,-138,-428
-79,-103,-110,-158,-137,-209
-79,-99,-122,-17,-6,-12
-80,-87,114,30,143,259
-84,-69,107,117,87,507
-78,-55,83,285,255,654
-78,-33,75,230,152,839
-93,-116,28,3593,-4242,335
-15,38,56,975,-5922,2535
54,13,-75,643,-6392,3216
-68,84,-31,-905,-4871,2181
49,-105,18,-489,-485,648
82,-100,-21,-1830,1187,649
-28,-1,-123,-5497,741,1885
-106,63,43,-11414,1785,2431
-111,51,-56,-10077,630,1159
32,-43,78,-11776,122,1806
62,102,122,-2598,-2345,224
-57,-68,-37,881,-706,-548
-88,-7,6,-2507,-1345,-1879
-116,-123,10,-2071,-1257,-3758
-104,-59,-127,-1356,-1615,-4145
-40,97,26,598,-1533,-1677
58,-83,13,940,529,1608
120,-82,-61,1085,2101,4583
-63,-25,82,1825,2115,4235
-22,65,122,809,756,2697
-106,117,-64,2840,957,1107
-29,36,83,6099,1266,942
16,93,11,5360,794,1275
126,87,57,3012,495,2174
-102,-57,-1,2591,1578,2191
-46,12,48,692,891,3480
-36,-79,47,1839,814,3675
-3,-13,82,1000,335,3058
-21,-77,-105,1052,-139,2977
-40,-89,-87,956,-228,2107
-112,85,-51,1870,161,1228
119,118,-50,739,370,764
62,45,-56,827,-93,-76
46,-7,-33,236,-426,-337
68,-29,-41,-633,-25,-310
76,76,-29,-3551,-757,643
-118,-44,94,-1604,508,-449
-128,-91,63,-138,703,-930
-113,25,85,-1206,100,-2
-113,14,45,-574,131,24
-115,65,29,-191,134,-19
-102,94,41,93,127,106
-106,111,22,194,-140,219
-109,120,79,582,-357,463
-118,117,53,234,-156,405
-104,-125,49,257,108,334
-89,115,37,619,534,284
-62,97,27,1151,1067,-64
-62,97,71,731,-452,236
-70,-127,69,158,-704,965
103,108,-107,3545,-2754,-1714
97,-9,14,3509,-4772,-757
-108,-17,7,4388,-5696,-321
-26,-93,64,2145,-6260,1548
-66,84,17,-1778,-3689,955
-128,27,-81,-815,-882,265
103,56,-49,-2122,2,661
-69,70,-41,-3791,1475,969
22,83,39,-8421,1385,2017
-29,-59,-35,-11691,-73,1774
4,85,124,-12927,-1552,934
81,33,117,-8382,-2110,813
-9,118,29,3422,-1312,836
58,29,-90,-194,159,-2971
-87,-95,-11,-995,-2328,-3758
-12,57,11,-341,-1750,-3770
-3,-82,-34,78,-1333,-1696
98,-83,-58,305,567,1234
-82,-12,-112,1216,1935,3431
-30,82,80,2047,2185,4189
-10,29,77,3781,1365,2243
37,-82,-125,1692,1703,1181
-10,99,47,2909,1892,945
7,-75,70,1762,-150,1826
88,15,77,3110,-632,2339
-68,-30,63,3020,567,3119
-57,-48,69,2147,156,3326
-19,31,112,1122,13,3633
-9,-51,87,1641,179,3326
-32,0,-128,1375,-322,2474
-33,126,-73,2496,-8,1940
-80,78,-86,2782,847,1102
127,116,21,1783,525,766
62,58,17,1096,83,-201
71,-27,66,530,-513,-678
90,-90,50,570,-275,-533
-123,-76,45,-585,27,-194
-127,-108,0,-795,-427,-205
-108,122,-48,-582,80,-624
-90,106,-77,-171,134,-710
-77,126,-97,-191,33,-318
-87,-128,-127,7,-90,-49
-94,-107,-113,-25,-199,345
-91,-86,-123,41,-13,547
-82,-48,110,-13,32,584
-84,-11,116,-250,-186,709
-86,-8,97,63,90,504
-96,14,86,168,-11,482
-96,32,84,22,-39,433
-97,33,69,91,56,281
96,15,107,3019,-2392,-3037
107,-79,55,2285,-3815,-2772
-77,-75,10,4073,-5660,-1314
-44,-115,-57,4188,-5296,270
-38,28,110,-112,-4950,2008
81,45,8,-658,-877,462
-121,82,-77,-1643,543,899
126,116,-24,-3080,757,1102
-14,-24,-110,-9524,967,1812
35,33,49,-13074,1589,2004
67,-115,-16,-11105,-177,672
-120,-35,84,-2434,-1022,306
-36,-45,121,1632,-1245,-953
-105,76,91,-4006,-1781,-2924
-92,18,-107,-2121,-2751,-4534
-48,-127,114,-1738,-2027,-3639
21,-56,56,-147,-397,-973
53,33,-7,609,1029,1806
92,-92,-65,1742,1099,4200
-47,-47,71,2271,1794,4116
10,108,-45,-479,-110,4183
-60,86,93,26,643,784
-62,-73,-1,3736,1130,299
-83,-59,-52,2823,-605,2386
45,83,126,3598,-857,1974
-109,79,92,4128,-466,2781
-75,29,86,3820,-446,2956
-13,6,72,4621,209,2441
12,-17,99,2855,759,3140
-10,0,-80,-78,247,3888
-48,-87,-16,136,-677,3713
118,-109,-6,704,-944,2096
77,125,-26,2024,-497,126
17,66,-28,2043,123,-1122
-5,-16,13,1522,186,-1460
23,-105,-10,2428,329,-1385
66,-74,22,1020,63,-701
103,-81,37,-974,-253,-354
125,117,-22,-932,-246,-348
-122,79,-58,-304,-300,-416
-119,98,-65,-263,-187,-235
-119,105,-83,-132,5,-108
-123,116,-103,-8,88,201
-119,-102,-110,-166,44,529
-123,-79,122,-15,52,632
-125,-53,109,-6,103,704
-117,-20,95,-132,29,651
-123,1,81,-24,-40,489
-123,6,76,201,74,327
-122,20,73,429,62,97
-10,69,42,3857,-4720,-1677
39,43,-109,7318,-6896,257
125,83,62,3818,-7719,1235
-15,48,19,-1208,-1866,1433
1,-102,-110,-59,-139,6
11,-61,-76,-2950,1329,490
105,-4,95,-6604,1162,1421
56,-91,56,-13201,2007,2341
89,51,-28,-9212,250,610
-76,-41,42,-10173,-951,729
-90,89,-122,-960,-1716,-962
4,-43,84,-854,-178,-2903
-108,-25,-84,-2631,-1761,-4556
-68,-104,-9,-1659,-2110,-5412
-63,-118,3,381,-2933,-3832
76,60,38,-67,-328,1517
113,30,-8,1685,1557,2792
122,-51,-110,2256,2236,5016
-60,-110,-83,2575,3652,3485
-65,2,-9,565,1915,3814
-63,41,98,2915,378,1221
-9,4,58,3233,309,1426
56,76,65,3719,-270,2099
89,-21,25,4348,269,2139
-117,64,78,2413,613,2877
-76,-21,74,1900,841,2698
-85,75,71,177,178,3237
-85,-1,-92,360,-589,3015
-81,-70,-124,849,407,2348
-111,67,106,3249,786,1374
111,-93,-30,1376,-264,1621
90,125,-66,355,129,679
61,75,-53,555,-19,-135
75,-27,-38,868,-59,-712
95,-40,-15,454,-158,-661
118,-85,-49,229,59,-743
-111,-78,-60,-592,-101,-595
-94,-93,-90,-572,-175,-393
-92,-100,-121,-198,-135,-259
-90,-80,127,-214,-70,-167
-91,-73,109,-82,16,22
-87,-57,92,-62,43,253
-94,-35,87,-12,-68,553
-93,-15,81,28,-20,648
-87,6,71,197,84,693
-91,28,66,170,-44,753
-92,48,67,74,-107,790
-94,54,58,263,14,603
-93,61,55,234,-14,300
-101,78,45,113,-60,159
-68,-56,79,5061,-1679,-1350
-69,14,-19,2702,-2166,-1210
37,126,-9,658,-5211,1845
112,-68,-61,195,-5565,2582
-115,79,2,-533,-5765,4216
-76,-36,-48,-2584,-5288,3147
80,-1,-29,1220,-337,-154
68,-27,67,-1475,-430,1045
-111,118,24,-2032,1372,76
8,76,48,-5952,725,983
23,107,-77,-10212,2533,1041
62,-65,-111,-12793,2281,1429
-108,-113,86,-11799,199,784
-92,62,-107,-3444,-1603,84
29,16,-93,2102,-203,-1568
-46,-1,-115,-385,-569,-3343
-88,-98,52,-1116,-1779,-4921
-98,-20,66,403,-2854,-5103
34,-102,16,-1354,-1146,-2241
101,-71,-2,744,821,1295
76,89,-71,871,1482,4243
-83,6,108,1759,2370,4695
-49,-57,-59,111,710,4517
-124,54,20,2151,1333,523
-115,44,-38,3301,629,723
-56,-22,-100,4509,242,568
56,-59,99,5548,706,2117
64,-27,106,3262,1063,3052
-119,67,120,1315,1042,3636
-39,-45,77,2331,1369,4097
-62,44,98,1151,344,3064
-29,46,-57,-262,-182,3470
-88,-110,-78,1325,-70,2171
-109,72,-28,2376,-41,1603
112,-127,-22,1221,260,1104
65,109,-32,504,-113,283
44,0,-39,878,-350,-502
42,-41,-24,701,-311,-428
67,-50,-37,-66,68,-246
72,-43,-65,-809,-221,-448
112,-80,-89,-471,-307,-802
-110,-99,-113,-327,-10,-771
124,-91,-124,-135,-572,-227
105,-68,-126,-452,-821,292
110,-69,92,-348,-28,130
121,-46,91,-202,428,35
-120,-12,79,200,325,230
-122,20,83,291,-44,539
-120,33,80,224,137,593
-117,56,61,-9,53,622
124,-100,-15,2854,-5043,1099
0,-94,-43,4430,-4664,2048
4,13,-67,503,-5714,4326
24,58,63,-3058,-4821,4226
64,115,13,608,-961,444
-102,-68,47,-513,809,-83
109,68,22,-1686,875,340
51,-59,25,-6404,1004,1052
34,-96,-41,-10279,1602,1272
111,26,-58,-11125,1867,975
-89,75,-53,-8345,-58,309
-60,-12,39,-1787,-1975,-615
-14,76,-103,-1382,-1280,-1683
-91,-98,27,-2075,-2805,-3648
-80,-3,-92,-2704,-2744,-4194
-75,-18,115,-449,-1985,-4225
-8,-105,12,26,268,-514
22,38,-63,950,1099,2565
90,-121,118,897,2323,4097
-112,-118,27,961,1591,4667
-118,43,103,627,1318,1995
101,-110,-66,2901,563,1312
125,111,-95,3105,356,592
-50,123,-120,4856,-365,1113
52,-89,-127,5752,-9,1590
91,-58,107,3006,1243,2524
-124,-30,106,1413,1485,3292
-85,-26,43,-198,2324,2868
-86,0,85,448,176,3594
-71,-70,105,951,85,2664
-68,-105,123,1334,440,2296
-91,125,-81,1420,180,1919
-121,70,-92,1578,670,1197
95,88,-68,908,36,528
64,37,-68,675,-150,-207
75,-14,-56,-52,-164,-445
86,-38,-49,-350,-404,-470
126,-97,-80,156,-85,-683
-116,-88,-80,-111,-109,-567
-89,-73,-104,-853,-19,-272
-107,-68,-126,-940,-185,-15
-107,-85,111,66,-307,64
-99,-45,114,187,-206,231
-99,-29,99,99,26,262
-100,-7,94,11,82,459
-98,4,81,182,164,539
-98,25,69,151,146,512
-97,50,57,-4,54,490
-97,48,58,236,115,301
-91,57,51,251,199,236
-26,38,52,1629,-6401,1675
-56,-53,98,1821,-6847,2738
-86,-30,38,-1329,-6457,3078
-53,-94,-13,-780,-1700,840
-75,56,42,427,350,-223
-49,53,53,-1349,321,682
41,-18,125,-5766,-63,1318
13,70,49,-11531,1454,1450
50,43,77,-12141,1731,1556
83,-60,33,-12828,49,1725
94,73,71,-6781,-2241,629
8,-85,-29,3206,18,-1252
-56,-70,-5,-185,-122,-2320
-126,-110,117,-457,-1028,-4287
-85,-96,101,-1054,-1525,-5336
-49,102,-64,-862,-1710,-3867
-102,-74,-7,-465,483,423
-85,-79,-62,2772,1148,4154
-56,47,95,2557,2096,5031
-74,72,-45,1123,1742,3843
-64,-35,-98,3780,1764,1385
-99,46,115,2348,486,1670
-61,-62,83,4096,-308,1310
1,-43,86,4830,-946,1826
49,104,87,5334,-287,2327
101,-8,125,807,842,2762
116,-52,83,-426,1442,3094
114,56,74,-997,211,3459
-103,-100,108,1519,-115,3010
-112,-19,-54,813,-284,2166
-92,76,-64,3224,907,1418
114,-101,-16,1708,594,1270
82,94,-37,1204,460,498
56,75,-12,521,-214,143
68,-18,-44,576,142,-670
80,-49,-53,422,-45,-766
108,-82,-56,-15,-172,-916
-126,-102,-71,7,-322,-802
-107,-94,-81,-101,-208,-442
-106,-100,-100,-226,-223,-331
-108,-84,-104,-157,-315,-21
-100,-75,-128,-60,-148,63
-104,-36,114,-143,-183,304
-104,-24,101,-91,-66,350
-108,15,95,-86,5,512
-116,36,77,44,4,563
-112,72,78,-198,-391,640
-114,87,50,-253,77,538
-116,83,56,246,196,259
-119,89,53,311,-4,17
103,89,-90,2633,-4173,1388
-126,-5,67,1449,-4896,2883
46,-120,39,-832,-5492,3376
60,-35,-21,-2884,-4313,2172
-45,-125,20,-2511,2184,-635
-16,-23,-61,-189,1404,-3
47,-92,-71,-6972,578,1605
67,-99,-92,-12166,876,1361
82,62,124,-8464,-111,561
-104,63,-75,-9637,-1248,701
-120,69,-14,-3286,-1838,-811
-102,-113,-91,141,-1438,-1978
92,-96,-27,-329,-2077,-3690
-115,-21,45,-1941,-1905,-4572
-49,62,-57,-23,-1236,-3684
83,-87,-20,156,659,584
125,88,-80,188,1318,4882
-108,71,126,1757,2292,4023
-94,-85,-3,535,1630,4109
-121,-120,68,70,442,1358
-124,90,-10,2382,593,-140
-85,-16,-71,3251,104,603
-73,66,-82,3959,-664,1782
27,30,-77,2504,437,2512
100,10,-111,3328,417,2965
-87,123,-88,975,453,3925
-75,-72,-95,-388,476,2453
-73,37,-79,2479,-365,3459
-51,52,-7,1872,-98,2759
-41,-57,-68,2573,683,2603
-101,-27,-5,1317,-104,1976
97,-91,-23,777,30,1128
64,96,-20,892,-273,371
62,-10,-10,1494,-274,-481
78,-92,-18,1583,-186,-724
97,-48,8,-249,-32,-333
121,-94,-20,-503,-86,-170
-127,-117,-50,58,-111,-279
-115,-100,-60,-32,-94,-210
-111,-89,-81,-152,-92,-88
-109,-79,-96,-152,-59,93
-109,-73,-117,106,-55,133
-112,-39,-126,-86,-30,374
-106,-19,114,-193,-49,418
-108,-3,99,-27,-108,395
-109,13,91,37,-83,315
-104,22,86,127,108,204
-105,35,73,105,19,181
-104,39,68,130,6,179
-106,43,62,136,-13,100
46,-108,-76,3443,-5041,-1305
-22,-75,79,4415,-8971,772
58,-67,57,880,-7574,3113
75,-96,44,-1648,-2275,1625
28,82,-87,-675,466,397
18,98,-118,-2052,970,1085
63,-99,-116,-3559,963,1258
-8,23,33,-9023,1426,1827
11,40,110,-10452,1343,1558
102,-102,-126,-10632,-45,867
122,-95,119,-9177,-1436,857
-45,6,-16,-2078,-1283,-284
76,60,49,145,-185,-3070
22,0,-4,257,-263,-4545
-62,123,-88,740,-358,-5296
-62,-44,-65,364,-443,-2101
42,78,-84,-1454,907,3037
73,-13,-111,1789,1210,4950
10,-31,32,3449,1731,5364
42,-83,110,1496,1102,2198
72,-97,-106,4213,436,2334
61,-53,111,5115,-241,1807
118,-128,80,3798,-603,2510
-125,32,91,1864,-360,2183
-106,11,47,977,137,3144
-120,-51,78,1401,-441,2896
-69,-49,10,2150,223,2466
-89,-90,43,2765,-92,2291
110,-67,-100,1284,-257,1834
-127,96,-52,2262,127,1362
117,64,-40,2206,755,980
56,71,9,1490,369,909
38,18,13,1026,-142,50
37,-4,24,371,-208,-153
47,-43,25,64,-121,-291
93,-101,-20,698,486,-876
95,-98,-30,103,51,-1035
-122,-102,-28,-893,-448,-942
-84,116,-66,-462,-196,-736
-84,103,-93,-3,-43,-593
-74,120,-100,-59,26,-378
-70,-114,-121,-145,32,29
-81,-103,127,56,0,242
-83,-76,118,78,60,461
-83,-41,111,-46,8,801
-83,-22,105,-35,62,923
-86,2,92,38,-39,865
-85,15,91,132,85,749
-94,18,80,356,181,557
-92,30,70,392,205,349
-105,-115,-104,3966,-3184,-1362
-58,42,-14,1584,-5016,-469
3,50,-72,1056,-6543,-281
59,47,-108,3755,-7799,1079
-23,-63,54,-1590,-4317,1924
12,-33,-21,-1656,425,264
-51,91,-54,-1345,1441,265
53,67,92,-6472,1393,1283
5,96,123,-9998,1868,894
38,-15,111,-12756,1063,858
75,101,-79,-8938,-823,-113
114,-37,-113,-2881,-1868,122
-92,19,48,527,-1325,-1055
-118,-11,65,-295,-1411,-3862
-125,24,59,-301,-1733,-5071
-118,6,-92,-41,-1975,-4702
28,-112,-8,-1239,-97,-196
87,-41,-54,1300,1476,2756
96,72,112,2334,2465,4505
-88,8,-68,2515,2665,4754
-36,75,-72,2133,2236,3381
46,-14,18,3545,1056,3905
64,24,11,3383,-408,3387
120,-17,-42,4562,-366,744
-109,-9,-19,2827,218,1619
-123,-1,42,985,22,2344
122,-109,-10,1575,934,2055
-116,-74,46,1361,215,1893
-101,-72,122,575,-103,2358
-107,-101,-103,612,36,1826
-109,98,-91,1480,527,1429
118,50,-83,2062,433,1080
104,60,-58,1264,100,902
72,38,-55,569,-52,487
69,28,-53,-291,-228,6
76,-37,-61,75,-111,-441
106,-93,-87,577,322,-714
111,-78,-97,242,133,-561
-123,-81,-117,-189,-95,-431
-110,-81,125,-511,-289,-360
-97,-81,109,-354,-234,-246
-89,-70,100,-207,-163,-136
-93,-68,86,18,-26,-146
-96,-53,81,-74,-118,54
-93,-36,75,36,-52,370
-95,-20,64,57,63,525
-88,4,58,46,-3,638
-88,27,49,122,98,635
-93,41,45,126,39,481
-91,51,37,197,36,381
104,-6,-80,2824,-6101,329
-115,83,114,4373,-6711,1971
-126,16,78,-1013,-5386,2684
99,-103,104,-1594,-463,1252
-124,24,-51,1068,793,-154
81,24,-24,-2883,397,1161
-2,-112,-38,-7909,1221,834
-6,-97,-89,-13044,1442,1508
81,37,24,-12533,992,1600
68,-18,6,-8667,-1727,275
-97,55,-115,-1013,-1753,232
-7,-105,-88,917,65,-2953
-97,-66,109,-1457,-975,-3292
-114,-81,61,-384,-1944,-5077
-81,-87,-59,-223,-1569,-5046
-44,-11,-5,-730,-332,-1467
91,-118,-53,903,1481,2585
59,8,-118,1485,1967,4644
111,49,-12,3460,1912,4410
113,87,-43,-1713,927,2523
107,-82,0,908,1315,1814
-122,1,99,3461,1058,1524
-70,120,38,4378,141,2769
20,-12,69,3239,-874,3273
97,21,72,2007,-546,3602
-84,14,61,2108,-131,3788
-29,52,105,1519,-290,3387
0,12,107,2339,-199,3383
-9,-33,126,2625,-99,2507
-81,-37,-57,1857,-308,2154
93,-42,-5,1143,-628,1465
27,-97,17,1030,-220,392
2,62,-8,1003,341,-977
18,-29,-49,1208,1023,-1450
34,-61,-51,580,632,-1207
76,-38,-51,-1316,160,-475
120,-54,-94,-1601,-372,-64
117,-114,123,225,-327,-569
-118,-66,-110,-136,-203,-429
-120,-75,-120,-35,-133,-187
-119,-67,126,318,-187,242
-119,-31,120,49,-220,531
-118,-8,111,-25,-168,619
-119,-2,90,358,91,488
-125,5,84,637,65,433
-124,19,87,565,75,502
125,34,72,416,101,510
119,43,77,172,-223,307
126,49,51,288,-19,211
-113,61,49,170,215,68
-124,-107,-84,2234,-4074,-1869
120,113,102,352,-3736,-1698
101,-39,-95,1337,-4252,-956
62,-98,35,1855,-3564,-978
-36,95,76,2874,-2901,-437
107,-28,91,-1159,-1078,37
-29,-60,67,-3433,381,878
117,90,71,-5893,960,1388
52,-53,-6,-10495,1456,1401
43,-73,66,-12146,-1381,475
43,55,-77,-8000,-2592,-224
-104,102,4,-2193,-1426,94
-75,-96,-97,116,-589,-1709
-85,-52,-71,-598,-420,-2290
117,0,-77,106,-669,-3198
116,-65,-65,425,-313,-2388
-97,-81,-74,-134,-137,43
12,89,-102,-253,400,2451
55,-55,127,1570,1064,3132
117,-86,63,440,465,3748
-101,-125,-55,377,578,1354
120,94,101,771,-833,1110
-92,80,30,2604,-828,380
-39,122,-10,4657,-635,1447
0,100,-105,4199,-698,1428
76,18,67,3901,226,2628
110,-12,77,3218,362,2600
-86,43,63,1571,516,2981
-43,-23,92,2614,397,2809
-44,-60,-116,2618,-23,2694
-81,-38,-85,1921,267,2285
104,-56,-63,1353,218,1459
27,77,6,1362,-63,449
21,52,-1,1095,-127,-101
26,22,22,781,9,-454
48,-31,7,329,109,-667
68,-49,5,-76,-37,-651
91,-65,-26,-666,-48,-345
111,-50,-59,-1385,-308,-17
120,-72,-94,-1017,-263,-193
-121,-110,115,149,173,-557
-122,-77,118,122,207,-381
-117,-64,104,-21,64,-42
-123,-41,105,15,-181,291
-113,-33,87,277,162,343
-116,14,102,130,-133,499
-109,4,87,383,227,407
-99,37,86,79,36,584
-101,40,81,189,-53,529
-103,49,77,152,17,458
-82,-120,63,3451,-3507,-1155
109,90,17,2107,-3112,-690
42,101,22,-122,-2464,579
-40,51,28,-871,709,135
84,116,111,-1320,667,397
-32,125,-119,-4991,88,824
-68,103,-93,-8303,-1068,178
-109,47,115,-10580,-1642,996
-88,-32,33,-12133,-493,893
-70,28,126,-413,-1753,-81
20,38,-75,-404,-621,-1364
-55,-120,-87,-1871,-1667,-2597
-47,125,-17,-553,-1547,-3244
-45,88,120,-650,-1145,-2938
-9,16,-69,-434,-705,-938
72,51,-89,-140,267,1791
-122,0,-119,1029,1101,3180
-88,93,80,2161,1931,2686
-32,-25,-97,1476,1372,3120
-5,-66,81,27,-4,3245
-34,123,20,1732,181,216
-11,29,-64,3110,261,-358
48,68,-54,3920,13,674
104,-25,-63,2757,10,2415
-115,-29,-72,2119,-155,3662
-80,-21,-84,1882,-626,3853
-35,0,-112,1561,62,3123
2,-25,-112,1834,309,2828
34,-25,-122,1884,869,2221
-85,-107,-34,2261,-84,1750
-102,126,12,2039,-182,1845
92,100,14,1336,-106,1193
66,64,31,626,-91,390
59,-3,20,983,-18,-295
70,-52,12,1404,120,-666
86,-42,20,-118,-129,-913
-122,-98,-8,-505,47,-1002
-95,103,-46,-151,-2,-739
-94,114,-53,-339,-169,-451
-86,114,-73,-211,-252,-148
-94,126,-84,-61,-299,91
-92,-107,-106,-77,-26,387
-92,-67,124,47,269,499
-97,-56,110,286,152,508
-104,-15,114,77,-115,678
-97,-6,102,14,-74,601
-99,15,100,-98,-323,555
-102,11,82,203,-162,394
-106,18,76,236,192,123
-105,29,72,163,159,23
76,-109,65,-7637,1082,399
120,117,-98,-11683,632,453
-48,24,63,-11942,-568,810
-93,-5,94,-6561,-2898,250
8,-17,103,-321,-1425,-638
-28,-122,-3,-2139,-1145,-2626
-53,28,66,-1327,-1249,-3158
-72,-126,119,-170,-1096,-3563
-50,24,-45,1423,-1397,-1839
55,-7,-87,3528,107,-154
-99,-87,81,1994,2365,3395
-59,-117,4,1793,3133,3235
-21,92,-3,-178,1987,4239
-100,49,66,562,937,102
-24,-96,96,7,359,3424
78,-3,-120,207,-492,1801
109,-72,-75,2466,-2185,2240
-66,59,96,3927,-57,2130
-27,-70,121,2098,-899,3237
-27,33,-89,2691,-1103,2546
8,-54,114,3662,219,1973
-7,-23,-43,2728,47,2782
-38,-33,-69,1709,534,1758
-125,-98,10,1546,-317,1107
116,82,-4,937,612,142
93,98,2,79,604,-53
92,-40,-19,1419,271,-634
121,-26,7,713,-34,-463
-116,-40,-10,-224,-90,-308
-97,-91,-39,8,-453,-160
-87,-95,-46,175,-349,-227
-83,-97,-76,-55,45,-391
-70,-83,-88,-219,1,-188
-70,-82,-102,-52,-165,-24
-72,-73,-121,152,-52,121
-68,-52,-126,-55,-19,286
-74,-28,114,-59,-3,425
-74,-22,98,240,47,399
-73,-1,91,192,-26,426
-77,16,87,141,-40,481
-80,25,79,212,31,437
-84,42,69,173,-43,360
-84,49,72,163,-18,274
-72,40,62,415,40,208
-74,50,65,288,-85,145
-67,52,67,139,-20,26
-57,53,64,103,51,-53
-56,43,58,267,30,-69
-54,52,54,133,24,3
-54,54,46,130,48,62
-42,33,-111,3433,-4517,-1281
-51,108,-62,3182,-4024,-1065
