AccX,AccY,AccZ,GyroX,GyroY,GyroZ
-88,-35,96,-674,-2489,-5353
-90,48,40,-358,-4629,-7175
98,-64,-52,-244,-4858,-8453
122,-77,-102,-317,-4307,-7493
-66,9,46,1261,-5642,-5150
9,17,8,690,-3703,-2568
-40,-98,0,-971,897,1475
66,71,-36,466,1099,594
-68,58,54,70,115,-662
106,-88,20,77,1201,104
-107,-50,-115,521,869,341
-52,-70,-18,-524,1235,1589
44,-97,-43,-254,2913,1434
-119,-63,-101,-1027,2695,2880
-79,40,25,-1441,2559,4237
13,55,-54,859,2271,3738
90,-107,125,367,3472,4351
-116,-108,68,652,3992,4751
-18,-50,42,-1961,2454,4506
-27,76,98,1034,2073,4312
6,69,-31,1444,817,4291
45,124,-17,-736,1379,2930
-93,-122,0,352,60,2403
81,109,-9,1507,-188,798
0,-13,24,2430,135,-339
1,-59,15,938,742,-698
-13,127,19,826,466,-462
-6,90,26,89,-83,-699
18,45,41,75,-99,-676
40,7,46,159,214,-856
51,-8,38,-61,242,-480
43,-27,31,247,84,-224
53,3,30,-173,31,63
30,34,2,-343,-189,-126
65,39,8,-192,552,-74
80,38,7,203,287,-12
50,70,0,-214,-152,51
65,72,-1,-220,244,40
76,80,-22,11,385,-23
68,96,-30,-133,139,-10
71,96,-38,-65,201,-38
85,110,-48,-124,254,-105
84,112,-51,-53,131,-191
112,98,-56,-35,294,-237
92,89,-56,-47,348,-165
90,95,-64,-67,280,-141
111,83,-66,184,337,-83
117,103,-78,-73,262,6
111,107,-75,-34,172,21
114,120,-73,-35,294,-7
30,71,-65,-628,-1879,-5641
-95,14,6,638,-3129,-7095
96,-22,56,2275,-3453,-7111
-57,-110,-85,1653,-3003,-7221
28,-4,-56,3699,-3398,-3701
-99,-89,-70,-961,-2559,-533
-35,-36,102,-858,1747,1114
-6,52,19,385,692,165
-16,-91,-47,-35,25,-646
117,-42,-119,-366,988,489
121,91,-25,383,187,105
-26,-126,-28,-118,1629,1843
66,-54,-85,-1696,2290,1717
-34,-98,81,-1102,2806,3520
7,23,-33,-1446,2723,4498
125,110,103,-734,2976,4367
-54,-2,83,-736,3154,5040
-6,2,116,-317,2827,4259
108,-105,-118,-1760,1805,4473
101,62,-74,23,1082,3791
125,-13,-7,2361,606,4486
49,-61,-30,218,299,2416
-125,-41,-24,1125,-451,310
59,-18,-5,2728,263,-1551
37,-5,14,2656,1165,-803
37,36,17,196,709,-186
54,-2,60,-360,-346,83
76,-17,65,81,-24,-178
76,-12,65,162,461,-458
63,-50,77,552,180,0
74,-22,75,271,351,252
85,56,65,-91,250,410
101,72,66,32,-10,228
84,77,69,-4,132,-151
84,57,45,-97,567,-480
97,18,20,242,553,-321
120,37,7,-174,261,81
109,70,-10,-449,154,22
100,89,-6,-284,56,-7
-121,93,-3,-108,303,-153
-113,104,-10,-151,227,-359
-111,99,-15,-97,165,-597
-108,50,-22,44,241,-449
-111,62,-26,-221,160,-266
127,69,-38,-55,86,-171
-105,71,-43,-37,248,-41
-95,106,-39,-354,-99,131
-109,125,-33,-122,2,130
-80,-110,-34,-71,275,43
-102,-100,-51,21,-2,-9
-128,-92,69,-3624,-1871,-6862
50,-67,-41,-312,-3257,-6357
8,115,-90,717,-3066,-8072
-13,109,-82,-546,-4525,-8603
76,-87,42,1917,-4564,-6255
-102,-107,114,1778,-3590,-3918
-116,38,16,844,-1057,-356
-89,83,45,-74,1452,649
19,93,-91,448,408,104
4,-126,120,-61,334,-8
110,22,-52,-208,1041,349
-53,-59,-30,-711,2154,1363
41,-69,-57,-1206,2227,2021
106,-13,67,-1541,1782,3419
-115,-15,-15,756,2270,3765
41,-65,-118,-864,3720,3936
17,-23,119,-116,2893,4120
-90,111,75,-145,2006,3491
-51,63,-128,-533,2098,4040
-34,-106,-92,-116,1263,3168
7,74,-71,1165,924,3601
-66,69,-53,1392,786,2500
-92,43,-16,440,587,2587
107,73,-49,286,463,1689
46,34,-25,1552,-259,407
45,-40,-12,1291,418,-551
25,99,8,1344,653,-661
19,85,4,458,316,-501
26,52,37,-133,-45,-471
71,-15,49,133,247,-331
76,0,49,-256,160,-207
69,1,39,-247,31,-54
77,26,29,-299,245,-190
85,29,13,25,440,-93
85,58,-19,-15,270,-97
93,50,-27,466,372,-286
95,59,-42,175,351,-244
104,37,-40,382,155,23
111,56,-39,91,133,-50
114,71,-37,-317,87,6
101,85,-28,-428,-133,-35
106,92,-22,-93,151,59
104,92,-29,222,382,-102
125,106,-40,60,257,-81
126,95,-45,199,277,-93
116,94,-49,78,287,-76
113,100,-58,14,334,-63
-115,100,-67,68,358,-17
-105,120,-76,-221,179,20
-116,127,-70,-156,157,-67
84,113,-101,-1464,-2259,-5453
61,68,-79,-97,-2652,-5842
7,-33,-128,1329,-3812,-8059
4,15,-93,-278,-5254,-7939
-6,50,-32,2941,-5276,-5251
-48,92,22,-83,-3669,-2199
-100,-79,45,-134,-660,-557
121,-15,121,479,971,405
115,-18,-33,-316,1715,652
114,112,63,112,1345,452
21,-28,-99,304,2922,1309
41,35,107,-2930,2236,2499
-92,-90,-46,721,2348,3486
52,67,-100,-949,4093,4579
13,-35,80,-2012,2963,4286
11,-118,-23,-1519,2540,5054
-37,-8,83,1082,1361,4379
-105,16,125,-1263,922,3791
62,-50,-109,2711,1011,3639
90,-123,-58,697,571,3681
-43,-77,-53,438,-473,1805
79,62,-37,1531,-318,-62
36,-62,-13,1841,700,-722
44,93,-15,1769,1100,-587
44,76,-6,666,317,-351
55,61,9,-271,-215,-364
61,21,36,-308,-70,-445
70,-9,31,-198,399,-316
79,4,24,-246,220,-196
95,9,5,-105,366,-159
100,35,-21,-244,294,-245
96,24,-34,38,363,-225
114,33,-37,-79,145,-84
127,59,-39,-171,91,-173
110,52,-25,44,110,-153
102,54,-40,13,342,-169
114,69,-46,-228,249,56
-126,96,-53,-375,111,89
-119,106,-57,67,279,-127
-123,100,-63,-109,277,-211
127,105,-63,-270,182,-135
-111,91,-62,108,361,-119
-119,114,-73,-25,272,-161
-107,109,-75,235,319,-186
-123,99,-88,176,262,-55
-112,119,-90,-48,244,-15
-83,118,-89,238,225,-11
-94,-117,-89,-242,50,83
-104,-111,-74,-160,83,29
-102,-99,-65,-205,243,-53
-109,-14,-108,-1941,-2752,-5173
51,96,114,100,-2305,-7377
53,-57,-83,341,-4446,-7670
-64,84,35,4102,-4778,-8435
-101,-12,-73,-492,-5572,-4119
112,-60,85,-675,-1134,-108
-39,-49,18,267,458,888
-28,49,-51,657,485,448
6,-80,-54,133,665,73
-25,-126,-82,441,781,-79
109,55,-69,-271,1047,168
-60,-85,-2,-498,1939,1666
42,-85,-85,-735,2604,1806
124,5,30,-1467,1745,3420
-52,-6,-32,-163,3395,3378
-40,-119,96,-289,3570,3810
-127,47,57,-1325,3429,4370
94,-27,72,620,2040,3873
5,-43,124,-2174,943,3955
13,-23,-71,1937,428,4421
30,118,-14,297,334,3308
-3,5,3,1168,834,3151
-65,119,7,17,201,2210
91,113,-36,1175,-106,724
17,-7,3,2220,175,-442
20,-90,-23,1270,1356,-1027
40,87,-21,992,847,-624
40,24,21,961,-331,-129
47,3,40,569,-145,-440
85,0,53,-292,385,-576
52,-13,36,-309,164,-177
50,15,17,-307,122,95
61,47,7,-329,104,-82
78,69,7,-195,237,-184
100,65,3,-3,233,-370
94,50,-17,45,319,-310
100,53,-19,68,308,-346
124,19,-37,660,567,-262
103,42,-50,-104,163,132
87,95,-45,-786,-142,145
102,99,-32,-165,114,-65
-119,76,-35,757,593,-222
-121,80,-69,475,473,-131
107,105,-59,-635,-166,183
102,-123,-44,-761,-201,127
115,120,-33,170,285,-204
-103,106,-50,361,647,-308
-121,109,-78,-191,164,-47
119,-126,-68,-627,-3,156
-124,122,-69,100,340,-30
-119,-87,103,-3153,-582,-4445
-43,-118,104,-3247,-2974,-5161
-63,-57,122,-1005,-3087,-6934
-16,-2,-91,-474,-3517,-7743
-84,-72,-70,1974,-3882,-8279
81,-22,-3,3910,-6398,-4514
85,-42,-19,-256,-2792,-2059
-16,126,-28,-359,1116,738
14,-112,65,-24,1009,910
-26,-103,12,1252,1208,-65
2,126,115,-640,1334,794
-101,23,-60,-137,2136,925
34,-51,-107,-1649,2425,2973
97,60,-47,-1021,2788,3260
-93,109,79,1493,3218,3702
6,122,44,-2956,3038,3396
42,-19,45,853,2176,4424
-84,-120,77,-1290,2045,3082
-6,21,106,446,1739,4039
51,50,-124,708,1080,3799
-121,49,-106,1881,939,3513
35,71,-41,1111,301,2991
-60,81,-63,991,65,1666
87,64,-59,979,-78,-183
76,-86,-51,1573,665,-994
65,66,-34,1634,894,-772
33,25,-11,796,-82,-326
67,3,13,239,-90,-324
-126,-11,29,-177,150,-374
111,-18,24,-130,-5,-134
83,-10,29,-419,-244,-251
83,-1,19,-481,102,-164
108,-7,8,81,376,65
123,40,-21,-40,339,-15
118,58,-37,251,231,-216
103,41,-40,241,273,-277
88,28,-46,292,255,-220
122,37,-62,-77,392,-9
-88,65,-78,-478,130,138
-119,85,-73,-587,-315,118
94,99,-51,-561,-122,-197
119,79,-51,-28,468,-290
-119,81,-69,-94,394,-160
-107,98,-90,28,168,-96
-119,92,-94,321,330,-207
125,90,-86,259,322,-162
-117,93,-97,-48,321,-57
-90,100,-103,-19,285,64
-91,110,-114,-214,102,172
-124,-109,-100,-713,-83,38
-94,-108,121,-4532,-307,-5121
29,113,-90,-757,-2866,-5291
10,118,-95,-1627,-2664,-7528
-22,75,-28,-481,-3606,-7475
95,99,77,-172,-3439,-8329
0,103,-48,1958,-4296,-4290
80,-87,86,1813,-3249,-3317
6,69,111,-550,-10,-269
50,-93,30,-831,2291,1773
15,-18,-92,712,524,149
-21,-74,2,789,745,203
123,27,-101,-394,1893,473
27,-115,-61,98,2682,1982
-127,-71,47,-1549,2707,3158
-78,48,118,-1083,2297,4644
-51,-105,83,1416,1703,4654
-112,-84,29,-1467,3292,4606
-127,39,53,1032,1694,3814
23,36,86,-2003,805,3310
-23,86,-60,965,319,3545
-39,115,-59,1812,500,2190
-67,-13,-71,2528,1226,2157
-103,20,-41,1211,1101,2106
104,-24,-85,1517,405,1130
36,-9,-32,870,-101,454
63,-112,-24,1029,555,-334
76,105,-26,825,639,-420
36,87,-5,134,-211,-457
38,24,17,-117,-56,-638
76,1,22,24,361,-524
93,-18,3,254,283,-458
93,-17,5,239,134,-353
114,-24,-4,265,369,-354
94,-12,-9,34,55,-282
92,-24,-6,17,246,-51
125,-8,-31,19,393,314
109,40,-45,-190,-18,377
87,83,-42,-472,-43,293
88,92,-40,-168,174,-58
118,75,-53,463,449,-235
117,75,-61,193,259,-236
111,66,-61,128,195,-167
104,63,-58,13,271,-200
114,70,-62,-69,284,-228
-112,60,-73,-43,384,-203
-98,61,-91,-165,130,75
117,99,-85,-700,-101,106
109,100,-73,-283,135,-126
-115,92,-81,187,530,-145
-110,107,-102,79,283,-76
-74,-57,22,-3612,375,-7257
-71,32,80,282,231,-8373
-11,83,55,4977,-2310,-6973
42,104,-5,701,-4493,-7634
51,68,-88,4979,-1427,-5050
-55,11,-35,614,-4029,-1284
79,-73,-90,-726,1395,807
62,36,-101,691,-9,562
18,-11,-14,-294,615,-352
67,3,119,81,919,390
-95,25,110,-285,1226,638
15,-115,-70,-725,1824,2184
-126,-60,91,-1183,2771,3042
-49,-26,1,-1019,2899,4337
56,-64,62,-2063,2413,4396
-93,-94,53,709,2829,4657
-17,-20,37,-1792,1174,4164
29,19,88,1242,1803,5390
56,-77,-124,859,583,3613
121,-10,-50,3090,1986,3874
50,-124,-55,1756,469,2743
-65,81,-87,1068,367,1251
32,57,-35,349,-683,180
26,-99,-16,1846,236,-341
12,103,-15,1501,710,-889
32,47,14,273,275,-1100
51,-15,56,155,-214,-509
59,-61,65,224,-7,-491
71,-50,69,-247,80,-249
60,-47,46,-221,85,-204
78,-30,30,-210,277,-71
86,-5,11,-123,191,4
86,22,-4,-71,183,-152
82,4,-9,288,362,-96
80,12,-21,108,271,-33
82,19,-27,154,94,46
98,30,-34,90,126,-42
95,28,-34,60,220,-132
88,27,-31,1,315,4
90,43,-38,-157,162,-19
95,55,-42,-138,66,-35
104,59,-47,-147,256,-121
99,64,-56,-100,152,52
108,89,-67,-416,-10,-136
103,82,-67,-219,54,-185
98,87,-80,-339,143,-198
106,92,-89,-162,146,-233
98,98,-106,-257,43,-272
82,106,-116,-509,-32,-257
101,103,-114,-402,76,-212
-115,-73,-65,-1286,-2166,-5653
81,38,-21,-301,-2402,-5451
-14,115,26,270,-2076,-5400
124,-59,116,2090,-2526,-4906
-76,-49,3,2144,-2054,-3313
76,111,-82,2328,-2751,-1010
-13,26,6,-807,-212,-988
110,98,-65,143,807,376
91,-111,-25,-382,315,45
99,117,-12,389,566,73
-116,114,8,-114,583,226
-79,16,76,-462,907,938
28,-46,118,-579,1196,2198
-112,-103,75,-373,2171,2966
5,26,-57,-1869,2707,3560
16,34,123,115,2555,4526
-76,83,19,-3023,2152,4688
-118,-98,78,297,759,5143
68,-42,79,-2303,1159,3261
57,106,-61,141,461,3287
6,58,-30,2141,-182,2773
-22,-73,-29,2733,437,2662
-44,-4,-50,676,758,2072
-117,1,-11,1013,66,1672
82,-35,-12,1275,-339,314
46,-90,11,895,352,-308
29,98,27,860,570,-459
21,42,1,567,459,-498
29,-19,34,1234,3,-389
50,-27,7,610,331,-510
66,7,29,-774,98,-542
77,-47,18,33,148,-357
71,-18,1,-10,101,-430
87,-4,-13,-195,220,-365
82,0,-23,-261,167,-227
82,9,-29,-93,37,-243
95,26,-33,-194,205,-311
96,27,-44,-188,131,-159
97,28,-50,-44,201,-19
100,48,-55,-42,270,22
96,56,-64,-64,101,-18
102,71,-65,-68,209,-40
100,74,-64,0,214,-20
105,85,-70,-41,248,-21
117,90,-78,99,384,-84
118,90,-84,101,265,-118
115,95,-90,-6,298,-106
-122,91,-92,122,349,-80
-123,100,-100,45,262,-79
-120,105,-102,-104,238,-105
-99,-69,65,-2333,235,-5929
69,51,41,-77,-163,-5528
-55,-37,59,1271,-968,-5465
88,90,66,3671,-2179,-5459
-18,70,-89,5851,-2669,-4119
-122,5,108,2107,-2193,-3958
-117,-127,82,-2825,-691,-1710
10,-115,56,120,482,271
-107,10,-20,-414,255,677
102,-112,-117,451,127,-93
118,100,0,-325,439,160
-65,45,39,-230,832,338
37,-37,121,-834,1159,1358
-49,-93,-103,-1280,2521,2751
26,-21,24,-1333,2517,3805
103,80,-106,-951,2358,5288
-95,-52,107,-907,1774,5023
-9,31,62,-907,2150,4568
-6,119,89,-810,1063,3597
28,35,-76,1362,809,3752
29,-127,-73,-373,748,3083
-62,-1,-42,639,413,2752
-84,30,-51,195,198,1663
122,-61,-35,1442,186,1431
82,-69,-23,1222,-216,417
26,-55,-10,1119,-438,304
19,-93,10,468,493,-203
20,82,12,457,538,-750
19,44,21,630,164,-732
40,18,30,130,15,-819
60,1,25,-184,66,-789
85,-11,19,-374,331,-432
82,-14,2,-448,128,-611
85,-17,-15,-454,92,-383
78,-7,-21,-505,123,-116
83,-18,-25,340,433,38
98,21,-55,170,598,125
99,46,-66,-241,192,136
101,49,-73,-87,252,121
93,62,-57,76,289,99
101,57,-72,269,373,68
107,80,-78,-77,138,22
109,68,-75,120,201,-46
94,72,-73,12,142,-67
105,74,-74,-101,296,-82
115,73,-78,83,270,-40
118,83,-87,24,237,-133
123,77,-91,78,288,-178
123,71,-96,81,218,-142
127,70,-98,-46,202,-152
42,-42,-72,-950,-1563,-5508
29,57,-47,606,-2012,-6711
121,78,28,2083,-2695,-5941
-18,-103,76,2814,-2881,-4997
5,-119,-63,5674,-4470,-2840
78,127,125,1745,-5266,-3290
-94,84,23,-3677,-43,972
-52,5,52,1059,932,432
101,115,-39,-426,638,203
66,93,-97,360,459,-302
107,63,12,-494,554,46
-72,7,55,-42,997,121
37,-33,117,-176,1745,627
113,-69,-74,-1444,2816,2338
-13,-75,105,-1668,3644,2670
79,56,-66,-2247,3957,3746
-92,75,112,-229,3668,4809
13,11,71,-759,3134,3902
-2,-50,-125,219,2188,3193
84,68,99,-4232,2655,3673
-25,-25,-97,-1580,236,3490
37,44,-36,-190,-1004,3229
-36,-75,20,2419,-527,2573
-67,-83,-16,2369,635,1806
103,-2,-12,804,755,684
68,-58,-15,1038,250,-125
33,84,15,1482,247,-770
32,45,31,713,423,-947
29,-3,32,400,348,-706
47,-41,56,247,11,-440
87,-46,66,40,-69,-253
93,-74,63,273,146,-225
86,-40,47,-442,105,-313
77,-59,32,-229,134,-154
71,-40,23,-212,149,54
80,-13,0,-165,229,80
91,12,-13,-235,240,78
95,22,-21,-102,227,41
101,38,-31,-4,253,-32
100,45,-37,-132,171,-106
99,44,-44,-85,162,-145
104,49,-47,-204,191,-228
105,40,-49,-119,175,-191
100,49,-60,-132,169,-175
103,46,-63,73,276,-126
114,52,-73,27,318,-66
121,70,-83,-56,216,-90
-128,65,-87,134,312,-137
-125,64,-92,109,247,-55
-123,72,-94,-119,126,16
80,58,-55,-1253,-2773,-5064
80,-90,-21,1591,-3220,-5343
-117,-114,108,2407,-3466,-4451
9,20,-85,2475,-3628,-2909
4,-124,41,2147,-2003,-1617
-2,81,42,-1633,-2122,-1254
-55,9,0,1008,689,-406
-110,-18,59,-424,563,540
-100,10,-66,762,442,235
-90,22,-11,163,1346,403
-5,-31,99,-972,1468,1772
85,-83,123,-1458,2278,2768
22,-110,7,-45,3608,2921
109,34,-78,-1582,3702,3515
117,78,76,-528,1815,5050
39,56,-82,-2096,3086,3148
39,-109,-17,-3679,2658,3481
12,26,124,489,699,3441
19,38,-44,1499,525,2750
0,-1,-47,581,1241,2534
-49,-10,-26,1198,333,2225
-100,6,-25,358,25,935
91,-20,-30,582,-28,312
70,116,-21,1333,454,-726
69,56,-12,1030,545,-817
70,0,2,969,395,-353
91,-12,17,285,67,-306
100,-26,13,-157,84,-433
108,-36,25,-90,65,-342
109,-50,18,101,155,-228
95,-26,10,-56,172,-42
107,-14,0,-60,210,31
-124,11,-26,-96,373,38
-122,32,-36,-158,136,-8
119,41,-38,-177,70,-127
111,39,-36,-149,206,-160
117,30,-39,15,331,-62
-124,55,-55,-107,237,-32
-119,55,-62,-7,245,-57
-121,64,-68,45,236,-113
-118,70,-67,36,270,-137
-109,65,-75,68,263,-189
-109,63,-79,-8,170,-110
-110,81,-83,-268,76,-129
-112,75,-85,-112,140,-102
-108,80,-83,-1,250,-57
-107,94,-88,-36,273,-75
-98,100,-91,-60,484,-36
-103,106,-93,162,244,-26
-92,108,-97,233,244,0
36,-18,-46,277,-2882,-5815
-114,-44,-84,782,-2897,-7347
-79,77,-80,-785,-3613,-8683
-70,127,85,4202,-5266,-6839
13,-116,16,3695,-3392,-3872
-6,98,24,-449,-2499,523
-78,51,-69,503,935,-102
108,43,102,-1144,682,180
84,49,-90,421,538,-512
115,26,8,-294,467,411
-99,-9,82,-6,1310,257
40,-118,-70,-212,1336,2233
-95,-78,-128,-2815,2598,2736
6,106,17,-1013,2766,4364
100,66,53,-1607,3825,4974
115,-5,16,-2645,3675,4319
-103,25,19,-5962,769,4380
-2,-91,-61,-728,-1255,4424
57,67,0,3457,248,3544
104,-34,7,716,289,3083
-47,83,-14,1339,178,2305
-96,-2,-3,1971,140,2155
110,34,-33,928,246,1132
53,-11,-25,1018,317,68
42,-110,-29,1414,513,-383
45,103,-18,698,425,-488
55,53,-14,371,294,-693
85,11,-3,302,345,-565
82,-42,6,463,134,-332
64,-16,26,-219,-335,48
77,2,13,-745,-7,-144
105,-12,-9,-115,473,-191
96,28,-22,-137,198,-297
94,26,-31,50,186,-158
90,32,-44,236,347,-27
98,65,-56,-130,693,-425
114,88,-49,210,814,-405
-111,95,-49,129,427,-13
-117,102,-51,-73,-164,-44
-126,47,-50,945,-375,-85
-125,82,-58,-287,165,-344
-126,53,-65,-441,322,-152
120,49,-64,-74,-5,46
-123,88,-71,-172,169,5
-126,83,-79,115,314,14
126,105,-85,-3,210,-20
-113,115,-92,144,-86,-155
-109,-125,-107,172,396,-4
-89,123,-110,127,441,-109
-102,112,-116,305,121,-210
77,5,-6,807,-2498,-5520
-21,30,8,1880,-3153,-5208
65,99,121,2412,-4646,-4646
-4,49,41,4070,-3740,-2772
40,75,-78,-2054,-1380,141
-57,-22,57,19,1035,502
65,117,-107,177,233,-13
57,121,-84,476,102,-225
111,101,9,134,358,-316
-97,59,95,-171,643,291
-9,24,121,-430,1346,668
108,-74,-111,-620,1982,2169
-61,-70,67,-1404,3062,2894
32,-63,-33,-605,3957,3595
-90,103,67,-1134,4372,4020
-39,113,49,1109,3525,4886
37,-112,1,198,3187,4531
-18,-115,-41,1376,1648,2983
56,-91,-78,-3842,1724,2134
-77,97,-70,90,1269,2829
-86,-72,10,368,-37,2576
-80,-29,0,9,179,2083
101,-20,9,-3,96,688
81,-90,5,1315,378,-216
73,77,22,2106,546,-475
51,73,8,27,641,-1114
40,-13,31,462,197,-622
75,-32,31,-6,172,-287
75,-29,39,-419,5,-194
74,-36,20,-219,91,-238
75,-14,14,-281,79,-233
84,-21,7,-25,212,-140
84,0,0,-82,152,18
88,20,-17,22,245,-15
125,40,-24,-198,332,32
113,46,-31,-74,100,-86
94,47,-34,133,16,-190
105,40,-26,90,223,-100
108,58,-30,-382,234,-85
99,58,-46,-98,120,-208
98,67,-54,-494,357,-307
108,102,-78,-1433,332,-343
114,63,-60,169,55,95
-116,86,-80,734,737,119
-77,124,-93,28,440,-45
-125,108,-98,193,-91,-155
121,96,-86,67,143,-124
-121,104,-73,-349,192,-55
-107,101,-80,132,213,116
-109,118,-89,88,234,-63
-22,62,-41,2254,-3334,-4970
-5,30,-108,-244,-3959,-5677
-40,122,-94,296,-5140,-4953
35,-120,-12,16,-4780,-5062
101,94,-85,2864,-5353,-3788
0,-47,48,889,-1005,-1954
63,-6,-88,-1119,-1087,964
-111,74,5,428,479,168
57,97,11,-293,518,71
74,86,-23,292,526,-483
102,77,29,-143,315,107
-107,43,33,312,758,-120
-23,11,108,-343,1294,393
-123,-21,-85,-1480,2961,772
-27,-127,-112,-932,3557,2128
79,-40,39,-2325,4260,3032
89,-109,-68,590,4410,4008
61,-21,23,-2700,5467,4028
-9,-39,88,-1477,2495,4005
113,26,-100,-1436,1370,4125
46,-122,-15,513,907,3925
94,42,-30,-1890,1173,2837
15,-63,9,177,171,2963
-52,60,23,101,794,1989
84,-30,21,1934,371,-39
20,-111,36,1527,-325,-698
51,65,17,1265,495,-750
75,36,19,762,718,-521
93,31,38,-347,-132,-383
44,-11,76,11,-751,-470
74,-52,64,70,134,-539
88,-30,53,-633,396,-535
103,-47,30,-119,218,-160
83,-22,6,-39,-58,-72
83,-4,6,-193,167,35
87,23,-15,-161,313,17
95,31,-24,33,246,145
-126,55,-42,-69,237,220
98,83,-41,-36,-121,-31
100,71,-36,89,76,-279
111,69,-25,-228,181,-313
116,54,-24,-88,90,-207
114,57,-31,-192,172,-186
97,56,-45,-71,245,-136
96,57,-52,8,311,-17
99,68,-61,-33,370,130
117,88,-78,-57,484,63
-91,90,-90,225,588,189
-70,110,-98,142,303,154
114,122,-107,49,-135,-168
-52,58,37,-2386,-341,-6136
28,-9,91,309,-1575,-6358
-51,100,6,513,-1789,-6970
50,100,21,1053,-2884,-6059
111,56,64,3538,-4520,-5129
-124,127,-52,2434,-219,-3982
109,38,-125,421,-3763,-778
-32,-46,-102,-122,635,116
120,-9,-107,-212,646,189
98,-127,-63,-80,484,-235
58,76,-29,353,285,186
-109,63,12,-26,524,-191
-71,60,30,-37,537,398
5,0,108,-202,2099,98
-102,-57,-70,-848,3475,880
54,1,39,-3404,2885,1609
78,3,-32,-1614,3020,3464
-126,21,-34,-76,1879,5555
-76,-16,122,-2154,2046,4969
31,4,16,-5477,1378,5384
-116,118,93,-2114,211,3274
16,-81,55,3487,-574,3618
13,-11,26,1304,515,3095
-11,104,20,-1076,335,2132
-98,-40,18,1682,-158,1926
101,3,30,1272,-29,798
34,-56,15,902,433,-202
32,104,7,688,1097,-400
39,51,3,979,752,-359
107,26,0,1232,457,-265
57,31,17,527,-64,-271
61,-4,18,254,113,-493
54,-81,39,858,-325,-286
96,-25,25,-265,49,-75
93,-2,16,-778,258,-292
68,-26,-4,108,194,-122
70,3,2,17,304,-132
76,-8,-6,496,348,183
89,41,-31,-70,149,-65
105,47,-30,-239,168,-53
-125,46,-36,41,253,-117
97,55,-44,110,13,-275
89,42,-40,-17,107,-261
104,40,-37,-198,203,-124
112,55,-44,-196,118,-28
117,56,-52,203,225,-12
107,84,-68,-129,246,-235
97,78,-69,-95,258,-243
116,69,-66,79,325,-160
124,74,-78,186,433,-64
-47,-84,-123,850,-3019,-5347
-56,43,88,64,-3858,-6237
98,68,-105,1791,-5149,-5590
0,59,-109,-1254,-5649,-3747
117,-26,66,724,-3513,-3277
-83,66,13,-869,152,-582
80,69,40,-89,741,547
29,63,34,-280,501,155
3,114,-60,446,124,-154
77,80,3,72,383,78
-116,38,59,498,750,370
-10,-48,-86,-352,1326,1975
97,-92,-127,-1154,3602,2032
-50,-95,23,26,3949,2631
-4,127,114,-2271,2839,4867
92,57,90,-148,2750,4802
-46,-111,-1,-1731,1989,3853
79,97,18,-1068,3179,4651
-24,115,90,-213,440,2639
48,-53,-58,2028,603,3675
66,12,-19,1768,687,3098
-15,121,-48,657,-51,1610
125,76,-28,1020,-193,145
53,113,1,2351,379,-611
22,40,-1,2188,352,-331
25,59,3,384,406,-211
52,54,12,-635,-29,-354
94,35,-13,-427,81,-635
117,13,5,-349,-313,-780
53,-29,26,211,-244,-596
52,-46,33,133,210,-503
88,-36,25,-541,227,-326
105,-23,4,-148,229,104
107,0,-13,-71,350,49
79,28,-36,-164,150,-101
85,33,-43,-98,336,168
79,54,-56,-153,323,70
117,53,-63,202,481,148
-95,76,-81,13,545,248
112,104,-87,-234,-41,-155
96,68,-71,29,-32,-402
120,64,-63,-210,368,-76
118,67,-79,-3,191,-66
-128,79,-89,-101,158,-125
126,83,-88,-217,149,-93
103,77,-82,22,26,-163
108,82,-92,431,161,-157
-124,110,-106,-168,549,147
-105,97,-107,63,359,31
-97,105,-114,203,211,65
-79,91,-123,-3050,-431,-5333
33,-4,-98,-52,-2096,-5622
-52,-71,120,-732,-2753,-8281
-82,-103,-84,797,-3332,-7756
47,-106,115,5751,-6806,-6865
-36,27,88,1046,-1494,-3517
10,112,-8,494,-3152,788
-51,-69,-62,-387,445,515
75,-35,-75,188,1201,186
34,-91,-33,101,89,-187
76,53,1,364,393,-215
111,47,43,207,334,48
-102,55,39,-188,494,35
-80,64,20,159,544,128
-11,47,98,-255,1281,-79
-111,-34,-107,-662,2356,155
-20,-81,112,-2978,1902,2922
54,-4,-110,273,3310,4851
-15,8,5,-1105,4710,5010
-94,-110,-126,-1365,3285,4853
126,7,48,-926,3362,5209
-118,125,118,-1765,2570,2200
93,10,-51,2711,1137,3622
40,57,-1,-51,871,4784
-39,-127,-57,-1615,498,2605
91,83,23,-69,-803,1593
32,-23,6,1428,-230,316
-23,-71,19,1633,478,-882
-22,81,23,1360,803,-1179
17,12,22,1083,812,-696
103,-15,43,985,359,-199
30,-8,64,181,-741,-520
6,-15,92,-696,-702,-600
51,-72,83,-216,287,-384
70,-50,56,-27,581,-104
85,-25,31,119,332,43
52,0,10,-23,-41,-157
35,-7,13,-44,104,-10
51,3,7,12,524,207
87,29,-13,3,648,324
-118,54,-35,-83,608,398
71,77,-54,-135,-23,-221
40,37,-24,303,-243,-458
74,19,-13,30,379,-260
103,21,-7,83,393,-125
97,45,-43,-344,-34,-167
74,38,-39,-143,39,-42
71,44,-34,-34,410,75
94,65,-46,-137,391,-75
109,74,-64,-86,256,-31
-26,57,-90,-317,-2843,-6554
-55,124,-57,1912,-3675,-6267
31,-119,20,3093,-5668,-5377
-61,-43,-49,1623,-3746,-4891
92,-1,94,840,-3799,-622
39,-95,14,-4,91,37
-111,112,0,-51,918,345
44,-112,-72,-47,-28,-239
72,61,28,-44,122,78
-109,42,33,66,733,-441
-115,67,40,-342,-113,478
-68,82,9,140,676,-88
-50,80,66,-3,694,112
113,-14,-63,-414,2109,309
-7,-122,1,-2153,3591,1761
115,85,-103,-1878,3541,3346
-25,-33,-73,-2315,3817,4909
44,116,119,-1071,3487,5731
29,79,74,-2360,2024,5314
94,105,-107,-2798,1099,5176
99,100,-31,-346,229,4272
121,122,60,884,432,3179
-11,-117,68,1334,160,1778
116,85,64,1055,548,532
46,-38,42,1857,188,-23
33,54,-3,3098,303,-300
37,91,22,382,626,-643
43,39,33,-46,487,-482
26,-6,60,246,-417,-3
46,-5,60,167,34,-102
107,8,57,-62,351,-178
73,7,40,-38,-17,-270
59,-12,43,123,-67,-188
68,-5,40,-203,7,-150
80,-1,29,-358,20,-67
75,5,22,-138,178,77
61,20,0,61,152,32
64,38,-4,-5,266,100
77,49,-18,161,440,34
95,59,-37,289,372,58
-127,71,-47,216,294,-24
105,89,-47,-46,42,-270
116,48,-28,180,170,-462
116,28,-29,104,185,-388
94,17,-29,-126,137,-180
107,31,-43,-325,255,-178
100,31,-48,-69,234,54
100,55,-62,94,333,157
103,80,-69,-10,311,141
107,89,-74,-48,303,178
-19,58,-117,-3169,-1069,-5065
37,-89,-84,-368,-1313,-6609
-119,31,-39,644,-2938,-6995
40,115,-1,1377,-4058,-8188
37,-120,89,6128,-4835,-5676
-43,78,-115,2071,-3460,-1986
118,14,-118,-1235,-2369,-72
0,-91,11,440,954,84
41,-9,115,161,609,472
41,109,-70,123,110,-79
112,34,-42,-220,297,71
-110,54,25,349,177,97
-115,81,42,-288,814,-26
-81,92,-21,493,699,-173
-23,59,63,-31,1714,-240
108,-35,-57,-150,3633,-408
10,-47,30,-3797,3596,717
107,-85,89,-4721,3130,2739
127,-105,-34,-2008,1326,6787
1,59,-128,-657,1639,5995
96,79,41,-2612,2915,4326
89,42,104,-2202,1853,3430
120,-44,-64,905,712,3531
-67,38,52,1453,507,3917
-20,-120,36,502,-659,1687
-122,65,40,336,-124,803
68,21,12,1055,273,134
9,-99,5,1912,-44,-715
35,92,21,730,599,-1064
48,39,26,302,382,-724
89,-11,17,89,362,-331
110,0,28,181,29,-210
79,-10,27,200,-21,-174
73,-11,36,-285,209,-380
87,-13,25,-256,212,-174
92,0,6,-346,58,91
102,27,-9,-240,268,117
104,48,-23,130,330,-40
106,60,-28,123,221,-16
116,66,-26,-27,306,-90
115,61,-33,99,308,-129
115,68,-45,69,260,-94
121,68,-48,-51,198,-126
121,67,-49,-101,142,-128
119,78,-49,-362,100,-99
124,77,-47,-210,162,-139
123,80,-46,-63,236,-71
-115,94,-60,-86,345,-88
-123,98,-65,22,322,-107
-128,99,-70,70,414,-65
73,-103,-56,937,-3090,-5457
-73,-94,-108,231,-4578,-6690
-106,-32,-117,1200,-5598,-7080
117,-65,120,5898,-7337,-6443
-49,89,-87,1474,-3682,-2180
45,-34,103,-1138,-2402,252
-10,-105,61,664,1475,1005
104,36,79,-479,969,48
2,-125,-92,233,78,-44
74,81,52,29,177,12
119,55,57,-230,632,-249
-71,17,109,-436,446,809
51,-34,-77,-1136,2334,736
-68,122,-14,-724,3606,1697
80,-71,123,-2868,4590,2674
-94,-56,-53,-1886,4284,3763
41,62,111,205,4030,5203
69,83,-9,-1918,3093,4886
69,-121,46,-3238,2091,4759
48,11,-100,195,890,3834
111,37,-12,914,1329,3215
53,89,26,490,728,2798
-113,-126,13,-280,-765,1622
63,27,28,894,-18,-291
63,-114,42,1974,1109,-848
65,45,27,1211,1267,-869
55,26,42,399,115,-339
56,1,70,461,-247,38
93,-2,72,78,173,-310
88,10,62,-293,153,-499
86,-20,63,125,239,-230
100,-14,48,224,279,-95
112,16,33,-151,109,-196
115,20,22,-163,172,-151
110,29,9,-136,143,-31
107,43,8,-194,4,-73
111,47,7,-62,195,-12
118,60,3,-82,226,82
118,82,-8,-89,137,25
123,93,-22,-48,198,-125
-117,99,-26,-16,288,-252
-109,93,-31,29,186,-274
-119,74,-32,23,201,-307
-111,56,-36,193,322,-129
-119,66,-47,-51,202,92
-113,100,-45,-252,130,145
-108,119,-51,-16,205,-79
-88,122,-53,70,442,-226
-91,110,-64,141,312,-174
-105,103,-67,37,216,9
-12,59,70,1380,-5156,-5017
-5,-30,45,-983,-4285,-6234
-87,-8,-98,2152,-6131,-4706
-84,3,-67,2590,-4051,-5758
102,31,111,538,-6046,-224
-90,-15,26,-185,-826,-386
-61,74,-29,-201,1379,19
78,31,72,99,782,-189
21,90,-40,-59,-250,378
80,35,74,0,999,-340
92,38,77,-464,420,406
-4,-45,-79,-384,2425,349
62,-54,-87,-1961,2409,1746
-101,-44,41,-3106,3052,3474
-42,-16,-51,-1314,2563,4538
41,31,-97,537,2648,3374
-11,-78,91,851,4741,3794
5,0,93,-150,3827,3304
20,102,91,-2946,2653,3315
35,11,-50,-1716,1014,3884
90,80,-54,-983,914,2808
43,13,25,1769,112,2961
-55,-91,62,645,-1038,1735
77,27,13,286,-669,-765
88,122,26,1110,1273,-705
55,39,19,1675,567,-358
68,48,36,615,-81,69
82,30,47,-25,195,-124
83,27,55,-124,125,-239
99,17,42,-94,303,-224
108,30,41,-201,181,-194
111,28,29,28,151,-118
108,40,15,-106,210,-96
113,54,5,-160,214,-177
125,53,-3,-56,280,-124
-124,57,-10,50,271,-128
-124,69,-20,-51,186,-207
-125,53,-23,99,281,-110
-114,60,-28,102,309,-36
-111,65,-32,96,182,13
-107,81,-33,1,244,-3
-109,83,-34,60,252,33
-103,108,-41,-95,227,-58
-105,112,-39,468,247,-143
-111,106,-38,396,240,-1
-91,121,-47,-273,252,-25
-85,121,-42,-190,8,-41
-115,114,-44,-42,139,-109
-92,117,-50,-164,421,-102
-75,123,-59,23,262,-85
-31,26,-52,-408,-2583,-5137
73,-77,-82,1146,-4497,-7101
97,-119,-9,677,-5258,-5774
-75,85,-68,2392,-5229,-5938
112,80,-72,-320,-4864,-2714
-13,63,-27,1856,-1417,-1560
-26,8,2,-585,870,364
107,-64,-97,1048,340,462
44,-123,5,-233,424,-114
30,125,61,-7,-146,193
105,63,116,145,640,-278
-94,4,-96,-230,683,535
32,-58,-35,-960,2434,857
-71,99,30,-1212,3624,2246
-4,122,105,-1884,3442,4353
-120,5,-93,-2309,4633,4405
-33,70,51,-649,4836,4117
79,-19,-4,69,3063,4865
-98,0,35,-2726,1762,5014
40,33,-66,1220,841,3680
-75,124,-34,1446,2379,3193
-40,94,2,1260,173,1609
126,47,26,684,-976,1598
61,4,-11,45,-328,31
50,-104,-3,848,439,-894
39,80,30,1342,330,-685
28,45,41,830,149,-487
49,30,52,150,57,-262
60,12,68,-57,9,-361
84,10,38,-235,378,-340
85,-6,30,38,161,-418
84,-14,22,127,161,-223
87,10,9,-111,281,-29
91,15,4,-67,157,-54
101,31,0,-116,231,6
94,45,-3,42,91,10
99,60,-11,-96,283,-105
97,68,-13,-46,194,-58
108,70,-20,12,285,27
114,93,-25,-181,137,-16
107,101,-33,-187,182,-75
115,102,-42,-144,296,-161
122,108,-53,-160,178,-240
-117,99,-58,-37,304,-261
-117,103,-64,-134,340,-243
-115,86,-66,85,174,-321
-108,82,-58,-1,191,-76
-113,98,-59,-164,257,-53
-106,105,-65,56,329,-77
-95,102,-77,132,335,-27
-76,115,-32,-221,-2712,-5160
-57,106,-54,-1059,-3190,-6462
-112,-125,91,2009,-4617,-6159
7,67,-24,4180,-3615,-6863
10,-26,-119,5106,-2573,-3542
-37,-4,91,-821,-3688,1289
26,-74,-92,-222,1086,75
60,-18,106,192,478,520
59,99,-59,145,623,-441
81,47,4,-273,-57,-100
-92,-14,40,277,645,-75
-97,58,28,-273,140,-71
-64,47,14,-5,454,-14
12,23,85,-455,836,137
119,-62,-47,-890,1873,848
-4,68,48,-2130,2519,2163
-86,60,92,-3595,2244,5736
22,-96,-86,-101,2916,6079
66,-2,36,-864,4252,5912
-120,-16,2,-3424,2524,4200
82,41,99,3091,1120,3794
-47,-13,-102,1001,2917,2799
15,-95,-28,457,2000,3964
125,37,42,1911,-1024,2795
40,64,1,-275,-526,1050
17,-35,39,755,356,-364
10,114,66,1522,799,-307
-23,69,49,730,564,-575
2,25,84,946,-66,-376
29,8,79,82,161,-692
54,-36,89,-214,424,-474
48,-31,79,-302,168,-301
58,-38,67,39,58,-392
73,-29,64,36,281,-266
78,-20,43,-35,248,-344
87,-16,32,-197,146,-142
85,-5,23,-152,155,-17
78,9,13,-17,159,-79
87,20,4,-17,255,-28
89,37,-2,-52,159,113
111,58,-6,-68,242,82
89,71,-14,97,208,-30
81,80,-12,-220,214,-94
97,75,-19,-86,256,-121
116,78,-26,-20,254,-134
111,69,-32,52,295,-141
114,73,-41,-98,277,-131
120,76,-42,-80,218,-72
127,86,-45,-37,290,-93
-128,90,-54,52,244,-129
-122,47,103,-1253,-2254,-4994
-44,16,94,807,-3861,-5673
-6,-112,104,1309,-6413,-6526
7,60,-46,2385,-6546,-6895
-54,-46,-43,3836,-5839,-2803
80,-128,-28,-555,-2589,-53
-14,118,45,703,90,237
51,-76,46,599,916,172
37,126,42,-589,95,62
13,84,50,598,88,-112
77,103,98,-308,176,-207
121,51,110,-240,278,126
-110,70,100,-158,587,-168
-37,1,-117,-288,1187,63
64,-49,1,-1143,2466,713
-1,124,22,-1586,4402,1597
66,-44,103,-2806,4017,2666
127,-36,-73,-1755,3634,3683
-27,80,86,617,3562,5152
41,-117,38,-3263,4207,3635
-12,-124,29,-3847,2494,4115
-25,6,-2,-406,746,4315
45,2,45,3564,19,3870
17,-91,11,-749,999,1866
-128,64,34,395,79,1036
66,-25,56,1240,-35,356
49,-85,37,671,394,-52
33,94,47,786,419,-246
48,73,51,335,147,-479
50,28,68,332,226,-284
60,17,65,-100,255,-247
71,12,61,-22,47,-323
84,17,60,-172,129,-214
90,16,51,102,197,-70
87,37,35,-107,34,-195
93,50,21,-289,122,-93
94,53,15,-2,116,-53
104,72,5,-107,141,-52
112,92,0,-292,147,-274
107,72,-2,140,300,-203
110,76,-12,-43,263,-150
124,78,-28,-50,275,-199
-126,82,-30,-64,250,-121
125,76,-36,113,291,-38
-123,98,-44,-20,222,-122
-109,94,-48,52,200,4
-115,112,-52,-39,249,58
-122,113,-44,69,189,69
-115,-127,-51,-158,100,-6
-104,-124,-49,-71,220,52
-16,-54,-111,-1218,-2308,-5035
53,127,-116,773,-3823,-5878
1,-9,121,592,-4293,-5927
33,15,51,1047,-5687,-5806
-69,113,17,3787,-2974,-4520
28,67,83,2048,-3656,-2054
92,14,13,-989,-1307,464
-62,31,124,223,587,555
52,95,42,-53,725,-37
29,100,-13,-159,140,24
65,62,22,182,-30,-30
-120,45,80,-29,456,-55
-99,70,56,43,397,78
-75,96,30,106,672,-124
-24,76,127,-820,995,199
-126,-65,12,-956,3083,770
22,110,-9,-1264,3225,2259
-93,108,74,-1170,4333,3685
-32,-85,-23,-1103,5034,4657
78,-63,69,-2553,4294,4973
-104,46,91,-2822,2851,5187
91,86,-112,-1637,1953,3628
-78,27,2,717,1008,4590
107,7,57,1453,964,3123
20,-81,79,-2200,-117,2608
71,-100,81,223,-1926,923
23,0,68,1894,-554,-833
25,-122,42,1519,1186,-1325
35,51,33,940,1085,-1383
30,1,52,995,39,-246
33,-26,74,811,5,-27
59,-2,82,-269,59,-449
67,-23,82,-68,100,-190
77,-24,72,153,227,-195
77,-5,59,73,181,38
75,15,42,-176,78,22
81,32,25,-131,129,36
86,54,14,-223,244,-78
93,54,5,-29,236,-167
99,48,-10,133,245,-152
95,51,-14,44,151,-142
100,50,-19,47,279,-112
111,56,-21,-66,239,-149
115,57,-20,-28,144,-99
124,62,-16,127,251,41
118,77,-24,22,184,-112
111,75,-24,44,282,-33
118,84,-39,5,302,35
127,96,-44,-4,232,-3
-120,103,-49,38,253,-28
-82,-121,-71,1078,-2626,-4740
-23,52,94,855,-4034,-5630
-44,-63,100,-1316,-4825,-5932
44,-66,-36,-1390,-5985,-5047
115,100,-2,5362,-4411,-4290
54,65,-16,892,-3350,-2165
18,-60,47,-168,-18,167
-95,-125,43,-134,640,270
10,76,25,-82,332,173
24,55,75,191,298,249
72,92,72,30,814,-362
106,73,99,-449,421,257
-60,18,-117,-207,1380,184
37,-39,-47,-625,1747,1503
-96,-67,-82,-1496,3067,1942
-17,-2,58,-1935,3560,3190
20,-23,-33,-27,3186,3249
-72,110,98,-1081,4632,3843
-16,-92,46,1715,3058,4072
78,0,72,1802,3561,3359
26,105,68,-2580,2759,2766
-13,-51,-77,-1117,2352,3863
58,-26,-62,-618,2727,3425
-26,-62,43,-607,809,2204
122,18,38,1759,-1305,231
56,-91,41,1010,-134,-326
41,60,39,1202,752,-449
29,64,39,470,-22,-210
52,31,61,-156,-79,-79
50,6,81,196,-243,-198
52,17,77,27,-152,-206
66,-4,60,295,-60,-431
88,35,62,-311,801,-513
86,5,45,435,465,-125
83,27,37,112,-239,128
95,52,32,-478,150,-160
97,43,29,-40,246,-100
104,53,12,-36,156,-237
125,52,3,94,260,-309
119,38,-9,96,257,-245
103,39,-14,-50,135,-163
106,48,-23,-32,246,-11
-121,59,-32,77,285,-44
-125,74,-32,-84,228,-101
-123,69,-30,274,258,89
-124,87,-35,48,282,34
-124,92,-39,66,210,89
-122,103,-42,9,122,27
-116,99,-39,107,233,22
-116,119,-45,-127,193,-8
107,-112,-79,-505,-3255,-4247
122,116,70,463,-4792,-4859
-69,5,33,792,-5132,-5750
110,-11,-52,2858,-6415,-5077
65,14,-47,870,-6980,-3824
49,61,-79,-1294,-2692,-225
33,-91,97,-1931,545,276
84,-90,-57,690,345,413
20,90,76,280,171,-10
40,77,-120,4,679,-91
26,101,80,19,128,6
91,66,-121,-151,412,72
-108,22,-88,302,1008,30
-7,29,-79,-372,1528,340
119,-111,45,-1067,3387,1451
-16,-104,-84,-1441,4400,1884
34,-7,-32,-2638,3725,4476
91,-111,-26,691,4093,4532
41,-69,102,-1495,5338,3608
46,-71,96,-374,3706,4819
124,75,126,-1520,2509,4824
-64,52,-62,681,1614,4630
95,125,-43,1138,-982,2501
-63,80,21,712,-1067,2052
26,-10,-46,1456,205,-33
-21,-60,-4,1590,363,-368
-26,116,23,1341,194,-532
-6,62,32,1198,-36,-502
-3,52,96,250,-459,-616
27,-28,126,-195,18,-839
21,-54,-122,-239,-123,-603
66,-61,104,-1689,613,-166
39,-57,57,-784,210,-171
31,-45,25,606,361,83
64,-4,19,880,594,136
66,22,16,1408,34,560
33,9,22,1464,-24,381
41,79,-1,-1027,493,-259
51,44,-12,-937,388,-297
64,12,-36,212,91,-43
49,49,-25,-100,-112,-131
66,60,-34,-629,219,-461
71,41,-41,-434,77,-312
69,53,-49,-444,146,-231
97,63,-56,-298,315,-269
103,67,-67,115,180,-170
80,80,-73,25,200,-68
70,93,-81,-73,268,-126
90,95,-84,59,285,-152
-123,92,-82,55,386,-25
87,-38,-120,-2503,-1445,-4910
-33,24,-63,-2024,-2950,-5555
73,3,-40,-1013,-3200,-7150
-8,-58,66,906,-3669,-7751
77,41,-22,2984,-3688,-7537
51,-94,-113,7371,-5537,-5006
-86,-17,45,273,-3591,686
77,82,122,-765,879,712
-107,111,100,224,758,547
7,-102,33,-223,-31,34
49,45,-83,-8,283,-275
119,7,-58,175,404,-138
-84,33,-112,-42,532,-270
-76,4,-94,-84,339,299
-52,51,125,-316,715,-144
38,-32,2,-338,1308,646
-25,120,-126,-1224,3292,1152
80,87,3,-1868,3706,3184
-117,-103,68,-912,4292,4070
-78,-41,-76,968,3667,4621
49,-56,73,-1148,5640,4790
-23,11,51,-2267,4046,4712
-2,4,-83,-1002,2598,3622
20,64,0,618,238,4161
-27,100,-21,-662,1107,2717
-128,-128,34,300,-357,2102
20,112,39,713,-35,192
-20,0,16,1495,910,-527
-10,-99,20,1827,711,-525
-5,119,32,-9,-56,-581
-4,60,76,-343,-524,-723
-20,-8,96,-719,-213,-731
2,-55,73,235,426,-194
-1,-26,68,245,220,2
15,26,40,-76,153,129
9,32,34,-23,77,210
4,61,27,-18,229,199
22,79,5,202,438,174
52,89,0,134,295,14
57,102,-13,3,150,-230
41,78,-10,20,53,-339
34,64,-6,-243,96,-307
33,56,-7,-456,123,-260
26,49,-15,-291,115,-141
54,69,-24,-245,423,-78
70,78,-41,52,261,-59
53,87,-50,289,341,63
59,105,-62,128,468,-60
78,118,-70,-20,222,-228
119,111,-63,123,416,-165
-108,-101,107,1122,-4329,-4309
-128,-89,85,-1956,-3736,-5237
-128,19,-29,940,-5444,-5528
76,-86,78,3883,-5373,-4426
9,-110,107,528,-1241,-3368
-107,29,109,-960,-3030,-124
-29,-34,-95,679,820,9
-116,-51,-97,-156,678,235
78,16,-47,359,345,47
93,60,-86,-168,48,-43
-125,31,-17,72,49,-49
-84,63,30,-187,91,94
-33,29,73,-87,797,-112
-9,6,94,44,945,595
101,-114,-34,-685,1642,2281
47,89,-11,-2547,5627,1402
-124,115,65,-4156,4263,3777
-33,-93,100,-1646,2416,5711
116,43,22,-4067,1822,5089
39,-10,107,-1079,-83,5526
-122,4,-37,1667,114,4754
21,4,37,3167,1871,4501
71,-1,-16,1110,-101,2203
-110,80,-2,1640,27,583
50,-5,-7,1330,1086,-461
1,122,-52,1186,1475,-1269
37,121,-1,-284,-247,-672
18,36,25,189,-462,-424
44,-34,71,656,-261,-664
76,-47,75,238,290,-964
77,-77,70,199,319,-581
63,-72,65,144,-82,-34
68,-55,58,-121,202,116
74,-26,34,0,401,204
83,5,7,83,371,261
87,29,-15,-187,256,225
95,62,-25,-512,48,182
95,39,-13,-82,-160,-360
95,37,-2,-176,72,-354
66,21,-3,-123,129,-280
64,17,-14,-69,268,-142
85,27,-30,-94,413,-96
105,38,-53,105,476,34
114,52,-59,111,389,9
123,51,-69,252,330,-17
119,67,-70,136,213,-10
121,62,-69,207,260,-138
-128,64,-62,-59,141,-210
127,49,-49,-50,120,-198
125,48,-46,-156,223,-81
-100,-75,-48,957,-3111,-5624
-69,-106,105,-532,-3983,-6238
40,-63,63,-4629,-4054,-8678
27,81,-85,7520,-3975,-6074
24,30,-3,2724,-5086,-1637
-36,39,74,-1603,-1094,-406
-5,-90,109,1667,1000,31
73,12,-111,-410,707,173
50,82,85,199,449,53
56,87,57,-610,381,-59
93,58,95,369,387,211
-103,119,40,-266,584,-245
-43,19,108,-250,727,261
48,-12,-99,-1176,1578,958
-20,105,-47,-319,4032,964
61,-88,-98,-2946,4398,2869
122,-48,-8,-3659,3874,4069
31,47,92,-52,3031,6063
90,31,66,-1141,2719,5578
75,-64,95,-3077,1199,5454
95,0,-21,1232,988,4746
-100,-88,31,351,211,3418
-77,-82,39,1112,-661,1411
56,77,51,1444,-156,581
46,-62,-7,2066,1014,-723
32,109,24,2051,618,-872
29,65,25,924,621,-631
20,4,52,187,61,-605
33,-13,63,-156,-220,-334
47,-24,82,-481,-399,-209
47,-33,76,-157,-109,-74
51,-22,56,-210,315,-300
49,-15,44,-99,340,-111
51,-3,18,132,353,87
54,27,0,-105,304,11
109,48,-14,-77,362,-22
87,51,-18,97,122,-37
78,52,-20,-87,-2,-279
79,52,-21,-592,76,-227
90,45,-24,-557,10,-171
96,51,-25,-335,-18,-120
72,65,-39,-95,171,-175
72,71,-45,-174,289,-188
84,67,-54,3,343,-61
97,82,-69,122,375,-3
109,92,-84,164,379,-32
-117,96,-92,-8,385,29
108,107,-86,110,-64,-62
117,100,-74,266,189,-168
-127,103,-73,-205,211,-239
92,70,-119,-3744,-1340,-3629
-66,77,-102,-1262,-1901,-5836
-27,14,-10,-165,-3542,-5833
-3,111,-68,-978,-2160,-7967
-104,5,-23,3416,-3634,-7209
-119,68,70,2554,-2637,-6004
-125,121,-16,3825,-4306,-1371
-39,-116,28,-1216,-833,296
-53,-6,-105,555,455,757
0,-107,78,-523,713,-359
54,75,0,-347,143,-161
122,5,22,314,484,-161
-99,61,2,-370,516,-86
-102,51,22,-12,164,258
-30,29,90,32,1081,171
97,-65,-8,-1070,1781,1410
82,53,23,-1618,5986,1137
-51,-111,-103,-3500,5878,2342
-11,-127,-65,-5905,2946,4979
58,-43,-111,-2287,695,7242
-19,80,-103,-760,324,6932
-28,-99,-83,740,475,4056
-80,-88,-35,5657,1483,3316
-114,73,-26,1800,1994,3560
-49,-95,-9,-1953,992,2565
88,55,-55,516,-210,1060
0,-51,3,2088,-615,-554
-36,72,38,2829,55,-727
-16,35,45,1513,620,-1060
19,-2,72,291,243,-1015
18,-16,99,-636,-488,-711
57,-62,116,-350,-402,-787
104,-79,-111,-503,0,-900
52,122,110,441,298,-434
38,-95,101,-349,59,-181
50,-57,72,-1230,1,175
83,-43,39,-791,317,254
72,-17,20,-248,282,384
45,19,-5,100,268,425
44,54,-14,-297,298,304
59,78,-21,-267,256,212
68,88,-22,16,242,67
110,71,-38,549,588,-212
99,72,-42,235,231,-531
77,55,-39,201,-70,-539
91,45,-27,-192,33,-532
97,29,-24,-366,71,-385
92,43,-35,-601,121,-133
85,50,-45,-449,38,-212
99,53,-51,-40,319,-130
118,-19,-125,-4270,-1746,-5552
-70,-46,-24,-713,-2312,-4058
127,2,45,2028,-3946,-7622
37,122,34,5726,-5114,-9269
-7,18,115,2988,-4451,-5725
-14,-20,-98,-3206,-5996,-693
74,-87,33,466,402,-511
-108,-34,-55,-113,856,1089
39,5,-106,109,1156,193
50,95,33,-335,315,44
84,31,38,290,658,-188
-91,-16,113,-406,1021,317
-6,-64,-33,-1613,1985,1626
125,123,-85,-1206,3547,2123
-36,-37,68,-1692,4201,3165
-2,-33,3,-225,2774,3815
-66,10,72,-4191,2754,2246
-107,-102,38,330,2424,4691
32,127,34,-2539,2363,4019
60,20,86,-166,1611,4498
107,-55,-109,3849,1039,4422
91,28,-52,2377,871,4523
-33,-34,-34,-2215,202,3040
100,-98,-48,-2483,-454,-11
-2,125,-13,2482,-394,-1254
1,89,22,3611,298,-407
7,122,8,1505,604,-472
-8,116,20,-191,171,-626
29,65,25,-815,-68,-938
78,22,29,-65,113,-1103
103,-22,34,476,143,-1163
86,-27,33,59,-52,-1225
111,-56,36,-19,196,-905
93,-64,19,-38,262,-277
82,-47,-4,-256,143,-42
95,-24,-8,-655,41,190
101,-10,-18,-422,277,536
108,25,-30,-380,283,693
107,62,-40,-447,266,657
91,92,-56,-246,279,559
86,111,-60,-167,300,498
86,-123,-68,-97,409,418
104,-106,-81,211,496,115
-117,-117,-92,526,594,-186
-91,117,-96,596,382,-342
109,113,-93,217,-150,-573
119,89,-73,36,-10,-693
-117,74,-52,-255,34,-681
-102,56,-45,32,164,-421
-115,54,-58,99,207,-322
46,-107,-124,-2907,-123,-6766
-118,-58,-25,192,-2156,-6723
-111,63,-41,72,-2765,-7678
59,53,15,1580,-3977,-7548
-5,7,127,5058,-6434,-6762
-38,59,106,2093,-2613,-3617
-114,97,120,-789,-2711,414
-58,-91,27,560,912,466
65,20,12,-700,520,331
-2,113,0,14,432,-407
35,40,49,34,299,-266
92,-21,104,-72,701,24
-58,-15,108,-69,933,597
41,-60,-41,-464,2021,1086
-73,96,11,-1322,3495,2321
64,113,123,-1671,5052,3325
115,24,-44,-4455,3981,4431
-101,-28,-24,-3453,1686,5121
64,73,99,-1123,1025,6282
32,-89,-102,-587,43,4528
-114,-49,-58,480,354,4136
74,39,-55,2767,889,2336
42,-23,-32,2814,1091,3014
-112,65,-24,946,309,2939
115,39,-14,1212,-95,1885
54,65,-11,504,-720,-254
4,-55,8,1641,-381,-1040
-30,111,35,1593,-157,-1446
0,42,54,760,686,-1059
10,36,58,-328,243,-973
38,-20,46,88,106,-777
74,-30,38,14,-114,-914
-123,-56,37,143,508,-939
-114,-73,35,147,370,-696
61,-70,31,79,-201,-353
72,-66,32,-384,30,-41
82,-60,37,-356,111,251
92,-19,0,-252,303,603
70,2,-17,430,-34,843
91,90,-30,-922,420,697
73,99,-53,-748,204,-95
84,72,-51,332,336,206
83,99,-62,165,379,-73
71,99,-76,177,285,-208
83,86,-71,80,303,-417
-121,60,-75,247,386,-243
111,73,-73,-45,101,-208
94,62,-75,-6,113,-461
109,55,-66,-330,29,-391
111,39,-65,-185,-67,-210
121,-79,126,-7172,-723,-4388
-86,113,-11,-1669,-492,-5505
-11,-44,80,829,-728,-6353
61,-79,65,-462,-1645,-7765
-57,-123,75,1592,-2522,-6669
-111,-81,51,2560,-4540,-7894
-118,53,-64,1409,-3067,-2648
-108,-11,120,-81,239,-483
91,69,1,841,574,263
43,71,96,-398,18,307
55,-120,35,188,31,-150
56,125,80,-201,811,97
-104,65,-117,-166,-63,1128
24,-30,-81,-474,2214,503
126,-81,-91,-932,3438,915
21,81,0,-3794,4116,1043
60,30,-70,-1636,2333,3512
-122,-111,-82,-384,546,6910
-30,24,113,94,767,6651
-12,-2,84,2532,2032,4827
93,93,97,1057,3116,3839
37,-11,-119,1192,2788,3351
89,-58,-70,1016,2360,3646
25,35,-72,-632,-494,3278
109,-109,-19,-303,-1063,1911
2,37,5,13,-436,-706
-3,85,44,1882,678,-879
4,66,23,993,867,-798
-8,25,19,483,372,-366
3,31,37,-632,-163,-430
2,-6,56,-398,-181,-461
8,-33,60,-27,36,-332
33,2,33,-607,451,-439
38,-17,26,-121,35,-389
41,-25,13,774,447,-101
68,4,-9,465,705,-95
-113,24,-27,3,652,-80
17,41,-23,-109,-459,-167
31,23,-5,-49,-47,-261
104,19,-4,-273,687,-182
109,25,-24,-13,295,-87
71,39,-30,-143,-93,-275
90,8,-39,6,341,-138
76,32,-44,-278,320,192
64,58,-63,-154,179,181
96,86,-69,-215,356,156
110,98,-70,-42,480,77
104,103,-74,380,367,132
-102,110,-81,405,449,121
86,114,-86,224,15,-101
-16,-122,-66,-213,-2487,-6103
-16,-9,-50,952,-3203,-6697
65,19,82,1425,-5870,-5472
-92,-14,-92,1947,-4291,-6182
87,-90,111,4059,-807,-3448
105,45,126,300,-4274,688
24,-45,-67,-852,1410,134
90,-126,-23,59,1073,434
77,117,-84,-113,807,-535
112,-20,28,58,236,391
-49,-41,97,-676,826,351
3,-87,-59,-133,1659,1002
126,-92,-3,-1445,2754,2092
40,126,-78,-1329,4188,2553
107,9,6,-3461,4157,4243
-78,114,83,-3161,3402,5047
-50,-33,27,-1177,1800,5254
83,14,27,-5149,1663,5007
-21,-34,-90,1641,-270,4110
-110,62,-13,1980,856,3597
81,55,-6,1507,997,3001
-20,-103,23,-107,-109,2502
70,-119,14,285,-667,906
44,10,18,2065,306,-326
19,-128,-3,2140,708,-1433
46,22,-7,1673,928,-1099
50,14,16,1063,98,-135
54,20,21,-1,-210,-422
75,-19,46,-359,-217,-647
79,-32,46,-539,19,-453
85,-43,43,-258,96,-293
86,-25,28,-205,83,-181
75,-19,16,-30,155,-74
68,-1,-2,-33,303,129
70,19,-17,1,336,352
83,48,-34,-87,312,377
101,80,-53,-28,330,242
-114,83,-50,62,220,-33
114,99,-55,73,-28,-230
96,87,-43,-194,27,-489
100,68,-31,-284,141,-449
111,55,-34,-175,180,-308
118,65,-50,-153,237,-212
99,71,-55,-160,155,-202
94,65,-61,80,349,-94
107,85,-76,-48,370,73
119,94,-89,21,369,76
-89,95,-100,254,512,157
-79,115,-103,352,-64,182
109,117,-116,124,-416,-62
98,50,-62,-3335,685,-4473
-93,-116,-14,24,738,-4759
-19,18,-25,-1372,-1931,-5287
-79,-38,-43,-437,-2636,-7499
-6,115,23,1732,-3053,-7348
52,56,-124,3189,-3757,-6668
-10,-38,-127,6814,-4261,-5057
81,54,-35,-657,-2995,99
-77,-18,-31,-1655,446,119
75,49,-2,1096,1420,199
68,126,-36,-696,95,19
63,85,-42,544,124,-95
105,56,33,-260,294,-73
-84,0,90,93,616,248
8,-63,-73,-741,1011,1155
125,89,-7,-804,2998,2085
9,108,-63,-847,4080,2596
119,81,-26,-3671,3951,4126
-88,67,90,-942,2754,4944
-1,-69,50,-1235,2971,5228
73,-100,56,-3815,1815,3950
3,98,-92,-4686,455,4081
-95,94,-27,3974,-901,4250
63,50,8,4666,105,2117
-56,-72,-65,-283,911,1885
17,-64,-35,-1025,-592,176
40,-16,-11,1565,317,-762
50,-126,0,2705,726,-1002
77,69,-34,1754,931,-1418
48,65,28,-342,-252,-935
63,-24,39,-91,-321,-410
72,-35,77,-325,-111,-178
81,-37,44,152,299,75
84,-5,40,141,173,96
-112,12,6,284,388,230
91,41,0,54,65,139
79,32,-19,216,341,-75
93,24,-22,291,379,106
104,34,-42,177,293,191
104,64,-50,-244,51,144
108,71,-52,-259,163,-121
102,67,-47,-152,55,-199
84,67,-45,-246,58,-274
89,47,-40,182,334,-210
110,52,-59,140,420,-188
-119,57,-69,101,382,-106
-79,62,-82,125,276,-33
110,81,-83,-200,-158,-246
104,57,-72,-196,144,-353
-120,44,-64,53,302,-33
-58,-120,13,-2041,-1974,-4387
98,76,35,935,-1050,-7594
-22,-100,73,5888,-3231,-7147
27,119,111,5811,-6966,-5998
89,80,84,5541,-6509,-4765
13,-96,122,-1764,-2788,1505
-30,-80,-80,-1607,1700,425
43,54,-86,586,1017,458
16,-110,105,-210,357,-241
58,47,-33,513,-149,-44
113,39,42,15,532,-152
-106,50,24,-200,461,30
-81,30,14,118,433,154
2,8,93,-141,1183,251
123,-76,-15,-158,2613,1322
4,118,29,-1342,4734,1014
-90,-89,-120,-5748,5047,3322
10,-53,-127,-3616,4405,5252
73,76,18,-5257,1249,4404
54,98,72,-2429,-1154,6135
-86,16,-36,2394,197,5630
-65,90,-21,4893,-354,3346
47,-4,-58,3858,1238,1782
-28,113,-10,106,1444,1400
27,7,-37,363,184,-173
7,114,10,1813,66,-374
11,11,41,2545,248,-423
17,-27,60,1847,567,-758
35,-27,86,210,279,-770
50,-45,106,-650,-151,-494
57,-83,116,-672,-243,-383
104,-94,98,-224,307,-230
73,-79,90,-263,133,-183
52,-71,69,-311,-45,-84
58,-53,71,-735,-74,40
69,-44,57,-762,232,191
92,-13,23,-539,397,187
78,5,-4,-192,105,89
50,25,-4,-54,106,30
47,23,-11,-38,451,-70
58,27,-22,33,444,-109
118,17,-46,344,676,-141
-100,33,-61,-303,19,-384
53,69,-79,-623,-624,-298
69,29,-34,-138,-209,-506
122,7,-28,281,771,-399
114,1,-32,303,467,-170
95,34,-43,-367,337,-135
116,18,-37,-241,340,-38
113,39,-51,-213,403,345
-105,45,-119,581,-3046,-6274
77,-108,-28,-102,-4848,-5394
-99,-127,86,2482,-3710,-6838
42,-45,71,4661,216,-3411
123,-122,113,-2876,-5446,67
118,77,-107,1216,68,190
127,-89,-62,-311,707,690
77,7,18,476,839,85
43,90,-39,-28,222,38
102,79,-21,-11,229,-323
-90,60,12,-162,461,-316
-59,29,55,-323,227,127
19,11,79,-362,1068,162
67,-34,-77,-1526,1593,1132
9,76,8,-1418,3611,2217
106,-80,-126,-2432,4653,2789
-60,-7,-27,-1759,4332,4162
50,-120,113,-1170,2964,4664
96,-8,116,-2010,2406,5093
68,33,119,-1459,1625,3740
112,-9,-48,-927,1778,4084
83,-26,-18,1209,1554,3864
-6,39,65,1319,428,2942
-107,43,18,964,-258,1497
65,-8,22,1303,-135,337
37,-111,11,1167,976,-800
44,60,34,1133,486,-939
62,14,45,444,-104,-487
21,-44,86,327,-44,-494
56,-56,94,-104,268,-566
75,-48,86,-438,76,-382
64,-67,90,-184,-84,-155
74,-50,78,-305,257,-223
62,-52,66,290,141,-141
48,-31,37,149,277,243
66,11,37,-228,308,387
76,26,21,-156,88,116
107,44,8,24,339,49
112,54,2,73,238,-137
81,35,-9,367,59,-396
116,35,4,-265,313,-333
100,33,-7,-504,95,-257
92,20,-12,-169,17,-208
108,19,-26,-388,181,-154
84,27,-38,-121,195,253
83,59,-52,-202,291,243
99,100,-56,-148,222,97
115,95,-65,299,299,-16
-111,86,-82,436,385,-225
-112,70,-78,290,160,-106
114,-25,111,3632,-2298,-3634
53,111,-111,5450,-3958,-3249
-70,-77,-105,3877,-738,-2105
6,-128,124,-4083,-1675,586
-23,-47,1,1125,1574,516
-110,50,-34,-482,749,100
64,66,-85,248,283,145
-102,33,42,-346,904,-233
8,-62,-60,-632,1542,940
-92,102,33,-2204,3327,1840
70,84,-73,-2076,5141,2625
-85,-56,17,-2155,4271,4359
5,109,61,-608,1955,5127
124,18,-5,-1484,4276,4748
57,-72,-50,-3670,2108,1927
4,-55,-66,-9,214,3333
-18,123,-20,2240,384,3139
118,125,-65,-1290,1627,2868
-108,-6,-122,1069,460,562
45,-73,18,1818,-1134,1636
50,-55,20,604,-66,-52
63,63,36,1516,1002,-77
82,14,22,1380,1300,344
43,12,20,768,65,-408
54,8,35,109,-239,-233
85,-6,34,-337,200,-631
114,-37,34,2,353,-276
76,-20,16,9,-52,-446
75,-6,26,-570,-178,-655
102,-32,33,-413,190,-471
124,-32,11,-86,404,-280
104,-20,-6,-124,94,-130
75,-7,-18,-139,110,79
77,25,-23,-335,275,172
106,32,-35,-17,525,201
-109,65,-56,-94,363,196
-125,84,-70,-133,55,-42
119,79,-61,-67,49,-266
121,70,-57,-151,238,-265
-128,62,-59,-174,196,-59
115,75,-66,-159,162,-4
122,89,-67,-97,233,-94
124,95,-70,-30,267,-96
121,97,-74,73,323,-50
125,105,-81,112,438,-67
-83,100,-94,295,600,-19
-71,106,-111,344,229,-76
-118,108,-110,133,-89,-283
-110,100,-88,-238,157,-295
-89,75,-83,-75,240,-32
-37,-106,-25,-2087,-1146,-5100
-78,-56,8,-2630,-506,-6560
-28,8,49,883,-943,-9245
21,25,116,3534,-1561,-9532
-62,-28,24,7405,-4593,-6492
-28,-46,101,1662,-255,-1983
29,-123,-42,-929,-3566,1282
-44,-27,16,399,1238,538
28,43,39,-240,74,275
36,107,-53,286,163,-303
98,37,13,-122,440,-278
-120,16,10,524,37,172
-99,71,-1,-185,503,-57
-91,79,9,-35,226,106
-52,55,17,-90,581,390
-40,88,-3,-51,251,16
-24,108,2,-447,405,119
51,51,119,-983,610,704
2,-108,42,-2957,3476,980
-121,77,-56,-4025,3782,3101
13,-84,-44,-3467,2785,6035
85,108,-118,-1329,835,6888
126,7,-102,-1647,1014,6846
-55,96,-15,176,128,5494
-9,25,37,2810,-161,3179
-71,-75,-2,1642,906,2735
-70,80,52,648,390,2592
74,66,18,420,446,1734
8,22,-10,1335,-12,-538
-9,-66,5,2217,456,-849
8,105,34,1480,488,-1087
13,18,85,876,-111,-789
16,-33,104,163,-102,-816
31,-85,122,-320,-57,-614
59,-84,94,-515,251,-197
63,-65,75,-436,-28,-198
63,-50,49,0,207,37
42,-36,35,-77,228,-20
33,-21,26,-17,188,149
42,10,4,-167,328,209
39,27,-5,176,208,138
-123,43,-23,236,761,297
97,69,-27,-7,10,-11
30,61,-25,86,-297,-330
57,36,6,-310,232,-515
94,11,-6,-15,296,-290
95,39,-25,-422,38,-50
79,40,-38,-389,19,-288
61,36,-38,-80,119,-183
68,34,-42,34,328,-140
-31,88,-77,584,-2138,-6476
-18,-119,-66,1820,-4358,-6357
46,118,-45,3897,-6575,-5904
-93,66,-97,3493,-2276,-3836
-16,-86,31,-1242,-4221,280
70,96,99,350,1572,453
117,-58,-17,-351,691,711
42,115,-80,129,631,-69
81,65,-64,-144,264,-190
125,-18,53,-105,516,263
-45,3,101,-790,1344,462
35,-27,-109,-603,2554,658
-54,-41,-85,-2009,3978,1170
9,27,2,-3246,2860,2622
65,-41,-84,60,2627,4073
-45,-98,96,-1455,4058,3878
-48,-10,76,-2597,2651,3530
0,-72,-118,-199,1555,4686
71,37,-68,-33,993,3796
56,-48,-36,1357,1804,3109
-2,-61,19,68,1643,2648
-9,-2,18,-1510,1762,2716
-41,-50,-34,1597,899,1840
-89,-20,-21,1955,-57,964
-9,106,0,3499,-963,-269
29,-27,69,3241,-291,-790
77,-19,108,-388,963,-1082
55,-63,113,-818,39,-328
66,-89,121,-120,-253,-92
60,-84,-120,-18,-188,-193
51,-91,122,678,-77,14
68,-55,96,-63,412,-159
66,-46,63,111,459,-43
121,-43,50,163,472,-87
107,-19,46,20,47,-73
60,-11,52,-198,-189,-231
82,-16,56,-493,242,-232
94,-28,39,-113,348,-84
109,-4,17,-172,169,-30
99,15,6,-293,123,-202
108,-3,2,138,371,-258
110,1,-6,76,404,-172
125,-2,-20,-36,319,-116
-126,-10,-27,126,307,143
-117,20,-38,-191,402,244
100,46,-42,-273,142,275
103,80,-47,-510,0,-54
126,62,-40,-228,208,-77
-115,66,-46,-327,223,28
-127,82,-63,-316,77,-111
-101,82,-18,-3012,-3660,-5030
110,124,34,-1674,-4442,-6546
62,12,-29,1557,-4221,-8708
11,38,-43,7339,-7286,-7396
124,-52,84,1885,-5446,-588
24,93,47,-2350,-662,-50
-44,-36,40,698,771,1164
-43,48,38,120,989,132
-53,125,-2,210,-161,42
17,75,92,258,144,-116
126,35,-115,-160,563,60
-66,-34,-33,-445,1197,548
68,-104,14,-1349,2722,1405
-73,103,-64,-694,3722,2760
1,-56,59,-2141,4428,2673
60,1,-124,-370,3498,4899
-76,-103,40,-1903,3901,4512
-99,63,-39,-2310,2378,4091
36,70,95,-884,1631,4789
46,108,-119,345,903,3388
23,-38,-64,194,272,2220
-95,94,12,902,-38,1919
112,106,-19,163,471,837
28,-10,-22,1004,279,146
11,-92,-44,1381,680,-466
20,97,-51,1160,805,-609
46,24,-36,1096,424,-334
52,14,-11,647,100,-16
68,2,12,323,-137,116
71,32,19,-144,85,-17
80,31,16,-201,283,58
68,39,15,-128,82,148
52,76,-5,-212,168,-60
78,40,-25,151,650,-227
88,50,-48,-173,296,-21
73,72,-60,-342,-174,27
103,81,-45,-516,224,-164
98,52,-50,50,163,-355
91,69,-55,-416,93,-26
85,81,-56,-371,122,-83
95,84,-69,137,369,-282
116,91,-88,264,391,-219
121,82,-92,384,310,-181
-97,82,-88,216,413,-109
127,84,-86,200,6,-116
86,83,-73,-11,102,-90
115,88,-68,-252,454,78
-112,105,-79,74,123,16
-126,116,-84,1,231,0
-123,117,-88,-94,389,-13
-128,71,-109,-3944,-845,-4588
56,-121,-32,-1515,-937,-5913
73,28,30,-293,-1507,-7305
115,68,84,3961,-3317,-8169
8,-108,-16,8158,-7666,-8388
32,101,36,1044,-2208,-2616
75,-62,-110,-741,-5218,1476
8,68,-117,48,1109,660
73,-95,75,29,1086,627
-13,126,31,-181,346,-25
2,78,73,85,-8,-281
81,25,-100,54,604,-254
-102,12,-113,-491,615,73
-25,-56,-12,-26,1787,339
103,-84,71,-1614,3340,984
14,103,4,-1906,4468,1898
63,-14,22,-3859,4144,3897
103,31,113,-3647,3825,4483
-42,-37,21,-2066,2457,5748
-29,104,71,-2078,933,4785
30,-113,-105,-691,1063,4178
85,10,-15,3050,708,4381
68,-34,-28,-600,946,2991
-32,12,0,340,-831,1839
41,119,41,1320,-654,-593
26,-61,13,1782,940,-206
6,124,-22,887,1146,-713
23,85,-6,477,140,-447
42,32,17,482,-206,-224
69,27,27,-287,249,-238
61,6,23,93,390,-131
71,20,10,145,243,-101
70,30,1,124,226,22
68,46,-10,10,265,75
74,60,-15,33,276,26
88,59,-14,218,411,106
93,71,-23,52,285,14
89,67,-19,165,311,63
99,70,-22,55,473,-74
102,60,-24,129,331,22
-121,63,-22,-44,503,36
-124,70,-32,17,299,54
86,64,-33,-40,303,-11
109,79,-42,-519,462,-126
-101,71,-55,-69,487,91
-110,84,-49,276,269,-8
-118,98,-59,1,440,-198
-117,68,-47,265,441,-99
-110,77,-48,52,372,-27
-123,73,-42,143,383,-41
-102,112,-26,-3339,1126,-5036
32,-51,12,240,-52,-5626
-54,-40,31,1163,-3046,-6504
69,78,-67,1396,-3858,-8237
27,84,-31,7312,-7658,-6899
-84,-54,104,1329,-6490,-3976
-71,-103,79,-1733,-4309,1261
-109,-16,-69,-1274,1393,-504
86,-112,19,180,1195,179
28,65,15,201,218,260
40,100,39,-94,374,-104
74,54,-100,345,409,73
127,82,125,-208,843,-67
-91,78,113,-170,560,260
-11,29,-69,-569,1626,775
-128,-86,8,-254,3422,753
22,-43,-86,-2077,3871,1914
40,-110,55,-580,3400,3675
-66,36,121,-1821,4594,4103
-72,105,64,-1048,4371,4738
29,14,69,-2373,3395,4658
39,-75,-109,1018,2011,4154
-97,64,-22,-690,1616,4597
91,86,-46,-385,1071,3316
-48,-101,61,861,-1197,2185
77,-114,34,456,-180,-315
20,-67,50,1841,710,-771
-7,77,20,1195,811,-639
9,70,39,177,81,-299
22,37,56,17,-105,-301
41,5,68,-79,112,-403
46,-11,77,150,288,-308
47,-9,60,3,50,-329
61,-19,53,59,274,-88
53,-1,41,-102,181,63
70,28,28,-203,195,190
71,50,27,-337,101,184
68,67,25,-52,130,64
67,75,4,-11,333,-133
82,71,-10,75,393,-207
90,59,-21,200,243,-114
86,63,-25,46,255,-85
85,78,-36,-223,299,-102
100,78,-39,-148,227,-92
107,87,-40,-129,155,-142
106,85,-36,-57,215,-152
110,85,-43,-56,259,-172
115,86,-48,-61,199,-90
117,88,-46,-14,282,-52
125,98,-53,9,300,-42
5,-117,-59,-5207,-1350,-2967
-77,121,-72,-2208,162,-5084
6,80,57,120,-205,-8017
37,77,93,1853,-2329,-8511
-111,42,-122,3142,-4512,-8215
116,-47,-110,9970,-8187,-6714
7,-73,101,-2295,-329,-978
-114,-32,91,-2797,-2088,1016
124,-121,-58,2469,1463,356
73,78,-68,-903,637,458
16,122,-62,310,360,-438
77,54,39,-225,47,-57
-123,37,79,-36,388,-23
-72,68,62,-595,250,79
-93,66,44,175,289,13
-67,122,14,-38,229,-315
-16,62,91,-13,495,-61
76,22,-91,-704,1841,-23
-26,-60,73,-1517,3219,486
-112,115,18,-4028,3321,2998
-3,103,95,-2405,3729,5553
89,-29,-77,420,3384,6465
96,-122,67,-2919,3544,5112
66,27,90,-1942,2344,4669
-99,12,4,2897,1339,5097
-112,64,21,1211,1812,3123
20,-105,12,-409,189,2462
57,75,49,883,-794,902
18,-46,68,1638,345,-167
-8,-118,50,1286,636,-568
-17,80,71,450,294,-646
8,30,93,319,133,-416
13,22,110,0,45,-335
28,-30,112,117,154,-512
30,-27,114,-167,194,-257
33,-45,96,-69,118,-38
42,-23,80,-77,182,-54
50,4,61,-240,256,-29
47,-3,54,220,275,-56
59,16,41,-113,274,-3
63,31,32,-43,161,-36
64,28,24,32,326,-89
63,28,19,103,295,-52
72,44,3,-118,210,-81
74,39,5,-19,207,-84
79,35,4,35,381,-17
84,54,-9,-86,152,-47
92,56,-9,-164,321,-100
85,54,-16,11,262,-26
98,70,-28,-176,280,-58
68,16,-82,-3623,-1087,-3494
-45,59,-85,-919,-1687,-5439
-80,74,-77,2471,-4068,-7426
-17,117,-106,1677,-5419,-9182
49,-107,-85,4534,-8202,-8374
-44,94,-110,2208,1280,-2351
64,117,-126,-2925,-3982,2363
-47,-102,-42,1532,2215,312
5,106,100,-103,257,220
1,107,55,301,-167,18
84,41,-63,-134,405,-144
-128,20,-84,237,410,67
-103,49,114,-269,654,-60
-70,42,103,-339,767,-21
42,-38,-36,-216,1648,260
-56,-104,97,-1264,3568,989
49,118,2,-1479,3612,2186
-121,-40,40,-2651,4318,4330
-124,-51,-57,-1015,4168,4721
-35,-117,73,-764,4130,5024
30,98,78,-2953,3784,4700
-16,81,74,-1361,1894,4279
89,-125,-18,680,745,3878
0,81,16,2289,476,3208
-101,-100,9,1073,-202,1178
33,54,37,777,-254,121
4,-103,24,1393,645,-603
-14,82,53,1499,431,-732
13,32,70,777,400,-498
14,10,85,43,126,-260
29,-20,94,-70,115,-246
32,-25,90,-72,130,-95
40,-29,85,46,245,35
50,-10,69,-92,196,17
62,9,59,-12,283,103
55,12,47,223,427,-69
47,15,25,124,424,-107
47,14,12,-3,230,-63
60,7,13,65,332,154
75,43,17,-180,142,197
53,58,14,-136,101,139
50,70,14,-176,305,16
65,65,0,-45,317,-99
80,57,-11,93,305,-150
89,62,-21,-139,258,-164
90,56,-27,-57,227,-117
84,55,-26,51,201,-191
94,62,-37,-121,326,-110
106,65,-40,6,190,-112
109,80,-42,-182,221,-186
-44,-15,-65,-3568,-930,-6162
-22,16,-1,-1261,-999,-9785
16,28,-95,9379,-3586,-9375
121,-81,-110,9457,-8324,-5960
-47,82,32,-3786,4745,-3851
-65,-95,-123,-1606,-4566,2223
-57,-79,58,1010,844,825
53,50,92,-385,619,171
42,81,52,455,70,141
89,85,51,-77,205,-228
-122,47,105,-277,405,33
-88,64,55,-223,310,-23
-79,77,32,-336,95,-164
-34,45,61,279,289,-186
3,67,79,-48,341,-18
27,63,119,-673,857,195
-91,-10,32,-1549,2882,1152
125,-105,54,-1364,5009,1722
-94,126,-40,-2528,3604,3885
11,84,-74,-3623,3112,3884
9,111,-7,2626,4604,6261
74,113,-110,-2714,3727,3656
113,41,-82,-3287,2650,4444
65,-33,-4,-449,158,4009
-128,24,46,1767,36,4558
-23,60,72,969,-257,2255
51,-126,7,122,-232,-537
2,-68,58,1766,155,-708
-24,47,87,2051,687,-564
-18,26,90,1416,354,-271
0,25,106,220,-34,-297
0,-11,-125,-422,-171,-431
19,-50,-124,47,184,-380
19,-62,-128,223,374,-151
19,-44,109,64,396,-83
25,-26,93,-91,364,47
38,-11,69,54,421,63
40,18,55,-121,248,127
38,37,39,-251,-7,21
45,35,38,-166,167,-30
52,34,33,-212,139,-93
44,40,26,-234,-112,-35
47,57,22,-269,317,122
60,58,3,-112,394,-304
71,59,-10,-60,269,-338
75,44,-13,3,309,-281
70,34,-20,75,269,-129
74,58,-33,-308,241,-73
77,66,-32,-171,152,22
91,85,-34,-191,279,-78
69,61,-36,-5428,-1191,-3402
-80,20,46,-2136,235,-4920
-14,-18,46,673,707,-6367
-13,111,29,3858,-2925,-6617
101,35,36,1080,-6519,-8517
27,59,-59,6867,-6098,-6915
87,-75,-70,1006,-1684,-1501
24,-79,-101,-2316,-2045,-312
-88,-89,18,698,1190,447
53,35,-124,-56,663,186
58,125,24,661,154,259
92,126,69,-180,845,-263
111,71,122,48,33,220
-47,4,-45,-282,1243,499
36,-77,-5,380,1927,1535
127,-91,14,-825,3041,1918
-6,122,-89,-1892,4076,3118
91,-14,-35,-4068,4707,4122
123,20,95,-260,1581,6815
61,-9,35,355,3758,5683
36,-97,11,-548,2178,3025
79,-26,-104,1302,1679,4274
64,-50,-67,1665,1734,3168
92,37,-53,582,1127,3216
-108,122,-8,335,-957,1383
65,10,8,1874,-708,-86
13,-70,34,1768,252,-800
-9,99,54,400,592,-886
26,86,53,-506,404,-655
37,21,52,515,214,-454
44,21,42,520,108,-670
47,9,42,59,191,-840
48,-17,49,-107,122,-410
58,-27,51,19,110,-110
55,-9,50,-86,122,93
59,23,35,-332,159,47
58,32,27,-213,247,130
80,47,8,-100,421,121
86,70,-15,-112,198,46
90,80,-24,-75,192,-123
91,67,-24,123,309,-120
93,76,-31,-135,161,-109
93,71,-29,53,183,-49
89,84,-25,-110,271,-63
102,83,-34,-59,316,-80
109,87,-43,-1,286,21
110,104,-61,-100,244,-9
116,112,-60,-145,227,-6
121,120,-63,-62,177,-112
119,118,-59,-29,219,-113
86,-75,-31,-2653,-2106,-5760
-39,63,13,-2334,-490,-8975
-41,-79,-111,4375,-1523,-8852
-28,-73,55,6626,-5350,-6695
-8,97,-67,3090,991,-5003
-76,20,22,-2106,-4910,1552
17,-42,-115,1026,946,-144
52,-39,27,-373,583,643
40,101,19,285,320,-60
69,57,65,-324,414,-89
119,80,39,-132,252,-158
-83,61,117,-1146,959,-542
-63,55,34,71,297,168
-67,126,-15,-535,625,-278
-3,36,76,-127,608,367
123,-51,-58,-324,2023,734
37,75,94,-255,3642,1834
-102,-72,-46,-3889,4889,1885
-9,93,-50,-3990,3737,3437
36,80,3,2125,2085,6698
80,68,-123,-974,3006,5186
49,30,79,-646,2762,4687
83,-11,-108,411,2448,3336
64,13,-25,-324,2364,3331
-65,23,-46,1514,551,2827
72,73,1,1298,-331,891
16,-54,19,971,124,-748
5,40,91,933,523,-872
2,-20,113,1038,492,-228
8,-32,114,536,355,-85
18,-10,116,-209,369,-94
15,-27,108,-334,67,-113
26,-25,109,-191,419,-41
32,-15,95,59,206,4
45,0,85,-59,308,-103
45,3,85,-123,394,-156
43,5,77,18,222,-92
59,14,65,-106,252,-189
68,4,53,32,425,-278
60,0,42,-116,387,-308
64,8,30,-193,291,-163
74,31,30,-562,656,-343
89,43,7,-932,663,-136
95,57,15,-870,205,-191
124,65,13,-830,728,-187
98,66,42,696,162,462
-117,101,9,-371,782,-114
-124,73,5,807,420,324
-123,106,-27,-399,461,-73
-121,100,11,-76,-55,-50
-6,-113,44,736,-2867,-6155
-113,-88,89,3074,-5026,-6760
-35,-92,-28,2941,-5815,-6152
3,-114,-110,3159,-4429,-4155
111,-60,-77,2170,-3282,-479
-50,93,-14,-2104,-1203,-60
-120,-15,-81,1066,1865,393
24,97,84,-754,259,-80
33,50,39,435,35,28
103,32,112,-483,455,-536
-126,-21,121,-70,-72,310
-56,-21,-107,-368,957,100
2,-43,-25,-731,1272,938
92,-101,33,-808,2858,1823
-24,29,90,1857,3918,2557
100,-54,-17,538,4829,2638
-73,40,-24,-2538,5140,2422
54,83,-13,-2485,5786,3746
-6,121,19,-714,2689,4175
92,-112,37,4099,2295,3688
-20,5,-35,632,2159,1752
-60,82,-102,-5562,3163,1704
98,-101,-70,-535,947,2672
111,-72,1,1964,412,2245
87,52,-38,363,727,533
20,-59,-9,1171,-18,-679
1,92,59,1537,-313,-506
-1,64,67,619,273,-448
4,35,75,-66,177,-656
30,-10,83,269,79,-609
47,-12,81,-49,-25,-567
41,-38,91,-27,-124,-397
57,-26,81,-168,488,-388
46,-27,74,35,240,-10
58,4,48,-346,210,167
56,24,32,-237,106,154
63,35,24,-142,401,-11
89,47,9,-148,366,92
77,63,4,-159,240,17
64,68,-9,162,413,-86
75,66,-19,-105,341,-140
98,52,-24,34,230,-88
97,50,-18,222,201,-62
90,79,-27,-350,222,4
87,80,-26,-229,213,-27
93,101,-29,-189,186,-175
107,75,-32,539,-391,-713
102,102,-50,484,-419,-441
122,112,-71,-382,586,-255
110,72,-66,44,461,-111
-87,-56,-7,-3032,-1024,-4855
14,0,42,-2695,-1533,-4986
-6,89,114,-1123,-2080,-8187
26,59,10,4080,-2514,-9399
-91,-71,46,6693,-5573,-6355
76,-84,96,1684,-3615,-5633
1,17,102,-1334,-4127,650
-1,-8,36,-195,1062,593
65,121,-16,339,594,809
0,-39,-1,172,40,-328
54,39,-101,225,86,74
111,36,-55,50,570,78
-105,50,-122,-28,810,36
-37,-39,-18,-288,1340,854
-105,61,58,-459,2648,2202
37,72,-21,-1269,4333,3268
117,-113,65,-1800,4146,5070
-33,-87,67,-5608,3405,5505
-101,116,-49,-3630,737,6737
75,-126,-56,1593,983,4735
-105,-64,43,1578,1989,4790
-76,105,23,1862,931,5582
63,-22,42,501,-1315,3854
-73,-30,53,631,-1156,1446
62,-58,41,1065,0,-638
-20,-72,33,2861,350,-1279
3,121,16,2101,772,-1058
-7,98,20,1037,66,-652
-6,42,70,605,-456,-365
49,39,71,-266,892,-915
40,-5,79,29,233,-712
53,-13,78,-291,9,-295
44,8,76,-496,-249,-84
55,3,53,-11,186,1
69,38,29,-239,200,-196
87,32,12,62,207,14
105,52,3,-126,107,31
71,55,-22,107,202,0
78,65,-29,-176,199,-44
82,73,-30,-307,72,33
45,89,-33,-195,-142,26
42,93,-39,-399,-16,-13
54,104,-41,-590,8,3
76,104,-55,-213,62,-116
-116,112,-56,-139,193,-53
-103,109,-78,118,105,8
62,114,-92,93,-163,38
21,115,-89,-126,176,76
62,104,-108,304,559,185
102,116,-100,284,277,339
-67,-113,-113,-1387,-576,-7904
50,62,118,2529,-1661,-8839
31,104,-103,5721,-3677,-9873
-123,-121,25,5970,-5390,-4811
-78,-56,113,-1733,-2124,-482
-98,-9,52,-128,-663,892
67,102,-105,0,1061,701
36,115,114,-231,441,-62
41,62,63,262,387,-299
107,6,-125,22,456,-277
-99,-6,-128,-193,459,142
-57,-20,-118,-102,788,226
29,-47,-27,-783,1597,861
-112,105,48,-500,2429,2021
51,-115,-62,-1154,4229,2093
89,92,32,-3265,4322,2895
112,13,-106,-501,3003,4500
-13,127,-114,-1463,4127,4717
-75,46,55,-3956,1774,5749
-19,-109,75,-3526,198,5437
84,-38,18,4228,1041,4362
97,-51,40,813,977,3092
-105,105,10,779,578,2157
110,65,45,1515,-352,1290
58,8,12,1540,8,-128
-33,120,57,1857,251,-724
-18,59,60,1230,618,-951
7,27,73,441,509,-464
-6,-1,100,-41,-252,-44
-1,-4,103,-264,-527,-367
17,-27,105,-104,-150,-337
36,-32,90,-223,416,-295
32,-13,70,-191,282,-149
33,-4,53,-192,263,-65
34,6,27,-251,201,-49
43,27,7,-372,283,49
51,51,-22,-414,287,22
53,61,-39,-341,225,99
66,81,-47,-446,217,92
72,105,-60,-416,165,1
66,108,-68,-198,177,-81
59,110,-72,-99,240,-211
70,103,-77,41,267,-211
76,102,-78,27,208,-155
84,106,-76,-118,194,-176
80,100,-76,-13,172,-193
85,102,-79,-85,176,-119
85,109,-80,-244,163,-74
104,117,-78,-132,272,-56
108,120,-85,50,253,-71
106,-84,-32,-5027,-104,-4762
37,-69,85,-2637,74,-5340
45,86,-68,-1338,1229,-8211
-68,100,-86,5117,1038,-9670
-86,64,-54,7077,-3568,-7861
47,78,-63,6043,-5642,-7091
10,125,104,-3578,-3051,-340
-107,-14,-52,1158,-212,152
105,70,-124,47,622,1111
64,98,59,-436,535,-159
54,56,29,545,157,-85
-126,48,64,-505,180,-149
-86,35,54,-143,410,-135
-76,77,79,-224,176,98
0,42,92,-200,925,38
47,-30,-110,-384,803,1607
-34,110,-11,-856,2610,2226
94,119,-85,-1099,3623,2928
-96,-31,66,-1742,3186,4585
-71,63,-108,-144,3073,5777
-5,-31,100,-1692,4017,5255
-13,84,76,-2318,2640,5063
67,-54,-80,-4992,367,4990
-47,-9,-18,1461,-1473,4166
87,46,64,3996,-248,3103
-63,-93,63,671,-128,1212
76,110,55,472,329,747
-8,-22,21,1639,384,-637
-12,-106,32,1681,683,-786
-14,97,35,1294,145,-933
10,26,50,565,-24,-524
8,18,47,-212,160,-387
11,2,48,-258,50,-469
27,-10,48,-150,16,-338
31,-6,41,-91,100,-96
27,-3,32,-120,111,-98
33,21,18,-247,188,-21
36,35,0,-189,161,77
49,49,-7,-209,224,115
54,70,-23,-371,81,-34
51,88,-24,-476,76,-3
49,85,-26,-194,196,-116
55,94,-34,-109,235,-145
56,90,-50,-105,233,-190
60,98,-60,-179,361,-216
64,94,-70,17,310,-158
74,97,-79,-36,295,-232
85,103,-87,-146,219,-135
86,102,-84,-94,174,-139
82,101,-74,199,124,-5
83,19,6,-933,-1955,-7008
109,69,46,1601,-2797,-8109
96,111,-85,7963,-4791,-10041
-44,-39,-68,7718,-2911,-2996
-17,-88,73,-3607,-4749,781
76,65,42,775,764,-130
39,-71,60,-924,828,445
22,2,79,770,470,116
37,93,-33,-681,388,-439
67,-22,74,204,23,270
-126,10,69,-116,647,-87
-91,-3,109,111,668,-40
-39,20,114,-516,1033,89
34,-50,-51,-1298,1632,1008
-60,70,33,-379,3439,1789
85,-86,-56,-2987,4846,2327
113,1,-56,-4179,3626,3712
-72,108,46,-2079,2275,4745
-28,-35,77,255,2993,5055
37,78,83,1721,2066,3939
67,82,-87,-1442,3285,3650
45,24,-51,-1142,2307,3335
20,-52,34,657,651,2826
-87,-111,-2,-499,-292,2732
54,47,3,959,-555,-268
24,-126,5,2347,301,-1025
5,64,23,1999,-122,-1116
30,74,40,-102,424,-387
36,5,47,147,203,-310
50,-23,49,279,-133,-334
68,-23,63,-150,-140,-425
72,-30,53,-267,20,-421
64,-35,47,-312,39,-189
69,-13,32,-552,26,42
73,13,17,-390,45,165
82,42,-1,-321,254,158
63,73,-13,-374,-103,157
61,71,-47,-303,-248,-30
78,90,-57,-268,638,-156
77,71,-70,311,587,-355
80,86,-87,394,12,-381
88,89,-79,171,-13,-10
92,85,-76,-218,199,-232
86,74,-77,-71,171,-146
88,79,-77,-117,226,-89
99,73,-78,-31,204,-160
100,84,-87,-66,256,-9
106,88,-92,-85,368,54
111,89,-90,-2,214,14
108,112,-100,-156,195,46
42,-62,22,-5834,-140,-2506
118,-41,-89,-1079,127,-2922
-18,-18,-46,-294,661,-5506
-62,3,-118,1204,1339,-8470
59,0,-105,3377,-1621,-8357
-33,97,-104,1862,-2512,-7213
98,23,1,3357,-976,-6546
-8,90,-124,6236,-850,-1449
-88,74,-126,-2466,-2789,876
-67,-10,11,748,1490,191
61,103,-1,-684,-196,596
77,82,-59,-25,326,-217
116,52,-14,-319,425,-111
-88,31,5,256,399,314
-51,84,6,-481,589,39
-2,35,47,-388,1031,353
53,14,108,-1088,1445,1258
-68,-59,-100,-739,3199,1427
15,-16,113,-2421,2919,2839
94,53,-25,-2747,2450,4485
-121,121,-62,-2300,1458,4985
-34,-4,-113,-3389,1830,5542
10,-105,-125,-718,1449,4190
-86,87,-125,-1451,1335,4218
120,127,-36,2795,282,3990
-34,-58,10,2934,485,5102
49,-69,68,-1436,-996,4053
-122,-18,5,-2602,-1256,465
-10,68,28,3414,-237,-2368
12,52,40,4416,547,-1098
24,95,33,1681,891,-321
0,76,45,-489,382,-392
3,41,56,-733,-376,-523
46,24,79,-709,-111,-735
80,-14,54,-134,615,-1009
73,-51,42,621,483,-1009
77,-71,30,525,410,-632
85,-48,10,-99,337,-173
82,-44,-5,-220,275,-3
85,-32,-15,14,210,176
91,-14,-22,267,398,377
98,13,-26,47,316,436
91,26,-25,74,212,367
101,41,-27,8,305,296
113,53,-24,-159,273,251
116,53,-27,146,262,240
95,69,-21,106,67,-2
95,70,-23,-173,258,-141
97,66,-21,-212,191,-236
103,55,-24,30,284,-207
-74,67,-54,-3999,-114,-4629
70,14,47,729,-116,-6520
125,-20,102,521,-2211,-6899
-100,9,45,2850,-3263,-8489
-108,32,-107,6269,-5910,-8259
-63,60,-75,5418,-5680,-3238
70,31,86,-1912,-5704,624
-99,71,49,-531,851,-65
-91,42,114,524,812,585
52,-125,0,-137,452,7
53,72,-1,-60,203,-374
102,36,49,-38,80,-149
-99,-8,113,-276,595,39
-66,21,75,-38,460,198
-16,23,100,-462,973,296
117,-95,27,-790,3280,816
13,103,21,-1469,3588,1884
118,-73,54,-3915,4040,3434
-93,-36,-78,-2178,3606,5220
-40,-128,-109,-1046,2248,6281
15,-26,85,-5086,2359,6019
-21,35,-102,-2518,374,3952
55,-5,30,2402,-374,3217
-113,34,73,3108,391,3658
-22,116,4,330,596,1455
-128,42,25,1041,24,1254
57,-30,9,1277,210,108
52,-83,-1,1034,376,-450
4,82,26,1209,240,-447
22,44,23,820,557,-577
26,20,30,472,283,-509
55,-12,36,176,72,-332
57,-9,38,-214,61,-35
51,4,36,-499,-194,-183
49,10,44,-461,-77,-129
57,13,31,-248,216,-103
71,30,16,-132,257,-134
71,41,-5,-142,236,-99
76,39,-11,36,217,-241
68,46,-21,-6,190,-107
80,50,-31,-147,323,-119
99,50,-33,-119,162,-101
98,63,-40,-195,116,-91
97,72,-38,-336,159,-115
94,63,-37,-67,267,-99
99,75,-51,-43,333,-9
108,86,-64,5,365,-23
114,80,-67,204,342,-63
104,72,-66,218,293,36
-128,80,-76,-13,473,159
123,-36,56,2199,-2743,-6567
99,-16,-73,5102,-5084,-8419
119,51,88,5554,-7681,-6068
-96,85,14,3022,-4859,-4543
0,-27,16,979,-4637,1607
-112,12,-9,-2171,83,-79
-128,-4,-95,516,897,872
92,37,64,-185,1070,-80
55,42,-64,356,-19,81
95,20,7,141,175,-141
-108,-16,38,300,328,-130
-77,18,39,-405,-44,411
-22,37,59,203,578,-233
15,60,109,-461,808,21
-127,-5,2,-1903,2395,418
82,-73,68,-3675,5126,554
-67,71,38,-6938,4356,1429
-73,-107,-69,-2381,3029,5469
27,-97,-53,-2784,2332,6505
36,41,-63,-2835,1142,6901
85,35,-39,-2197,-30,4863
-88,-88,-15,1979,632,4486
-66,122,41,-504,-339,3225
37,-47,112,-2209,-1167,2204
101,99,95,727,-576,417
6,-42,69,2977,233,-417
-6,-77,54,2524,78,-793
21,100,27,2022,398,-1140
32,52,57,132,395,-1353
55,-15,47,-191,557,-749
47,-41,53,-186,-35,-392
73,-45,52,-554,78,-344
99,30,6,-2329,567,-602
68,-55,-8,443,59,68
71,-15,0,1141,14,352
88,27,-4,318,290,340
85,61,-18,-355,174,214
81,66,-20,-353,20,61
102,64,-22,-106,367,125
100,87,-30,-210,252,5
73,78,-39,-4,127,-383
86,60,-36,172,373,-224
102,56,-42,103,445,-103
119,63,-62,86,318,-56
111,64,-62,33,217,-94
119,73,-67,-83,283,44
104,83,-67,-79,180,-56
-117,81,-62,-33,309,18
126,102,-69,-187,101,-41
121,92,-61,62,198,-140
-57,70,-45,-5131,144,-4577
65,20,72,-1213,174,-6732
-47,-70,-110,815,-592,-7514
-109,-23,78,2679,-1587,-9654
46,-31,-105,7367,-5433,-7856
126,-5,40,-716,-27,-6272
-48,-112,-108,-1631,-4975,710
53,71,-110,819,1020,-26
94,-83,-36,-514,651,768
100,100,17,10,335,125
59,-109,-2,-168,517,24
90,-124,-44,-259,206,-241
-100,60,19,82,422,7
-54,40,22,5,620,240
13,35,60,-429,881,900
-126,-127,-84,169,914,2442
-3,-126,-109,-10,3198,2790
37,-93,71,-664,3369,3777
-115,53,-124,-1040,4010,4378
-61,67,111,-26,4288,5244
46,104,6,-2678,3804,4185
53,-108,-62,320,1965,4463
-105,82,-31,-1007,1063,3543
42,45,0,-1803,-76,3220
-42,41,19,391,-248,2428
123,-26,72,3094,-483,1685
55,29,20,1769,348,78
-6,-69,42,1556,181,-1033
14,23,41,2494,699,-874
40,41,45,363,553,-667
44,-18,49,141,218,-406
39,-38,68,174,-333,-210
40,-47,74,-130,24,-293
66,-36,66,-374,398,-251
76,-41,59,27,410,-203
58,-29,54,164,172,13
53,-12,38,-59,81,77
59,-4,42,-133,3,180
75,3,11,-71,211,148
78,30,9,-176,312,-1
91,28,-2,-183,41,-96
83,24,-2,-29,190,-142
82,25,-3,-61,399,-281
82,18,-14,95,224,-99
94,30,-17,105,262,-90
97,45,-29,132,177,-39
102,56,-39,-70,505,-228
118,57,-47,14,231,-26
113,54,-46,98,128,-6
112,70,-46,-195,205,-29
102,-32,-17,1677,-1618,-7756
-112,-74,59,7468,-5770,-6290
61,-52,-96,8214,-10511,-5614
-10,60,28,-4683,-5775,-218
-61,57,-93,60,-1110,-635
-41,9,-5,-129,-108,364
117,-96,32,-480,651,167
53,31,80,442,284,432
71,116,-56,-397,634,-261
92,76,-5,35,-39,-89
-116,62,53,40,44,153
-88,77,72,-281,646,-158
-36,60,60,-166,527,122
37,27,96,-516,1492,431
-127,-105,-11,-519,1880,1797
52,45,-20,-157,4211,2296
122,-103,101,-1757,5492,2422
-64,-100,-30,-580,4787,3836
97,84,68,-4270,5353,4034
105,60,-14,-4601,1640,4754
94,-21,-82,-1223,555,4769
-92,28,3,1614,-390,4950
117,2,68,2387,-294,4440
-50,-14,38,-831,197,2330
57,-103,12,184,132,-809
-24,-128,51,3720,61,-937
-36,72,6,3114,552,-1075
-2,74,62,554,738,-1125
-1,-17,81,428,146,-644
7,-38,101,-82,-286,-168
24,-17,110,-1249,-224,-840
62,-44,86,-944,645,-777
70,-55,67,193,440,-12
66,-16,33,273,133,50
61,-9,31,130,35,-61
67,14,27,-315,178,-220
61,-15,19,367,300,-46
93,3,1,191,411,-87
86,2,4,63,-48,206
57,41,13,-547,-200,265
60,48,14,-433,78,93
78,65,-10,-298,385,-38
81,61,-20,206,294,-28
67,77,-42,197,299,-53
78,71,-45,108,317,-152
88,58,-42,107,173,-136
120,56,-41,-23,326,-81
113,61,-46,-141,140,38
102,78,-50,-381,137,-77
104,75,-52,-238,254,-64
-117,22,-20,-4131,414,-4394
19,5,29,-1522,757,-5273
42,-102,62,1159,-90,-6477
1,1,7,3103,-1852,-6434
85,88,47,1158,-4292,-8265
30,-80,-17,7541,-5568,-7552
115,40,-44,937,-54,-2239
-111,-9,82,-1941,-4994,494
-51,96,55,-92,1533,553
66,-23,-58,-376,691,537
57,-116,-52,-62,163,-185
89,85,10,-233,202,-268
-124,21,69,146,296,-16
-69,25,74,40,924,-25
-39,39,91,-426,580,385
24,3,118,-118,1141,706
100,-44,-50,-588,1882,1523
30,65,11,-783,4057,2155
-108,-50,78,-3945,4812,2797
119,11,86,-2011,2393,4541
-35,74,-118,188,1778,6166
19,126,124,-4315,2125,5085
-10,28,-117,-2124,1097,4680
83,103,22,1004,-161,4140
49,-20,31,2994,895,3587
4,-42,10,-80,849,1618
92,13,39,1815,-172,1084
44,-31,23,1106,527,601
2,-43,12,364,200,-563
10,113,35,819,431,-652
36,77,26,78,573,-671
34,-2,25,614,146,-746
25,-11,49,191,-11,-321
42,-33,44,135,296,-226
52,-15,32,-33,111,-220
56,-19,37,41,57,-39
86,5,25,-211,337,75
86,39,8,-312,5,64
60,51,11,-272,-95,43
59,54,9,-193,214,35
78,65,-5,-65,390,56
74,75,-21,117,294,89
85,88,-34,113,278,-10
92,97,-45,-30,262,-195
92,79,-43,48,250,-157
116,71,-42,14,339,-130
124,83,-51,-209,70,-51
99,95,-50,-431,-159,-109
87,93,-38,-269,44,-83
105,85,-44,112,650,24
-31,-109,18,1146,-1956,-5509
-32,67,-43,1938,-3035,-6666
-56,-82,-78,2675,-4346,-6925
5,-26,-29,9043,-12056,-6384
24,-58,-89,-4069,-5338,1025
47,29,-19,-1215,540,57
125,-18,-30,576,718,470
43,-18,-41,-377,1273,-145
-8,105,-60,-184,-38,-344
64,10,110,75,-48,115
120,37,77,-145,413,-322
-99,24,-116,-501,397,276
-35,1,-102,-113,1204,70
73,-59,45,-1007,2029,1335
18,78,33,-1665,4299,2130
94,100,104,-2223,5232,2901
-126,-58,-86,-1912,3586,4275
-19,-116,5,-2119,4319,5505
-61,41,14,-2834,2584,4644
85,-123,109,-2952,1306,5026
53,26,-13,818,287,3664
107,84,27,1123,885,3677
-59,88,79,1161,-267,2110
115,113,43,551,-419,757
27,-4,35,1417,-405,-460
8,84,31,3144,332,-239
14,85,2,1636,489,-740
12,39,32,337,160,-573
28,-5,55,228,15,-167
38,-12,69,33,67,-144
33,-14,63,23,31,-337
34,-19,59,28,101,-299
38,-34,41,241,261,-75
54,-9,25,-79,374,-31
74,16,2,-319,243,-82
68,24,-2,-412,-42,-21
59,34,-2,-474,-50,-138
58,32,4,-255,179,-40
68,45,-11,-73,400,-71
74,61,-30,-33,314,-185
76,58,-47,61,319,-263
77,39,-53,203,351,-266
97,23,-59,359,287,-70
105,38,-63,49,169,35
104,51,-60,-351,17,39
96,53,-47,-340,13,-9
99,59,-41,-133,219,-10
97,55,-47,101,314,118
86,74,-63,-9,355,293
95,115,-84,-79,399,208
91,-92,-98,-5967,-461,-4114
-28,40,17,-2477,969,-5414
-68,107,124,-403,-471,-6449
-77,-114,103,2351,-1044,-10050
-109,-57,-118,5432,-3777,-9120
-88,-3,-66,5955,-5876,-6491
62,124,-93,-801,-2381,-1118
90,73,74,-791,-1795,88
114,-14,77,948,642,834
66,74,-87,-263,703,263
55,-85,0,142,-70,-73
86,98,56,-377,144,0
123,69,54,55,302,-178
-74,25,109,-49,399,301
-36,61,61,-984,728,404
61,-41,-69,-500,2041,1050
-23,92,18,-866,3936,2155
87,-48,103,-3339,3781,3043
-106,-61,-76,-1992,2858,4879
28,98,125,-602,2736,6151
28,23,112,-1728,2891,5232
108,29,77,-3030,539,5141
81,-4,-23,2533,-79,5366
88,-112,-5,515,1168,2629
-31,-85,27,-114,-665,2084
104,98,74,1618,-711,1111
10,-35,48,1675,351,-480
23,-80,10,930,1138,-797
30,92,22,1298,671,-929
25,15,25,780,303,-571
24,19,56,-377,85,-188
31,-16,48,-373,-86,-189
53,-3,73,-372,-122,86
60,12,49,-265,339,-97
53,24,33,-174,218,-108
62,28,7,-100,203,30
63,47,-5,-138,164,96
71,59,-17,-89,241,-3
94,76,-30,-296,106,-182
91,68,-26,-200,91,-167
79,61,-28,-79,220,-177
82,63,-29,-159,254,-127
90,66,-39,-152,240,1
106,80,-48,-72,297,41
105,85,-51,142,306,35
94,94,-59,116,276,-24
103,88,-69,211,370,-15
109,97,-77,52,221,82
120,101,-81,23,168,76
-119,110,-80,-106,76,37
-32,-105,-37,-3548,192,-4973
-86,69,17,73,-847,-6978
-63,86,34,2374,-1649,-8444
-16,-30,82,3310,-4222,-7405
122,94,-83,8008,-7496,-5697
-90,115,85,-316,1071,-2595
26,14,-85,-691,-4367,526
-7,-57,-12,357,615,-195
89,-55,75,-311,1052,231
60,88,12,57,349,-44
47,64,-12,-272,382,-136
116,31,27,-31,79,-35
-96,4,72,-196,634,68
-68,26,90,-10,408,210
26,-37,-69,-610,1144,704
-76,114,49,-634,3613,1265
54,73,19,-1200,4490,1597
-8,12,3,-7295,6864,1257
5,-96,23,-7278,3033,3466
-46,93,-97,-2048,-1841,7429
116,-48,1,-1945,-1077,6584
97,94,28,1234,-108,4263
-84,100,33,-279,1498,4333
57,-51,1,-1374,-231,2859
-74,-96,87,1183,-2402,2219
67,-92,124,781,-512,346
22,-37,46,2880,1400,-1153
11,108,-2,3561,1336,-1561
33,37,-6,2555,371,-1169
52,49,53,-45,-175,-143
60,-9,54,-373,-146,-70
66,-41,69,-230,-214,-285
79,-38,56,-22,198,-308
86,-14,46,-418,142,-229
86,-9,32,-206,-6,-23
75,16,18,-244,-54,-16
79,33,3,-112,246,183
71,51,-14,-290,26,19
87,58,-27,-272,244,-120
89,66,-36,-72,254,-49
92,77,-45,-87,89,-69
97,87,-52,-234,183,-136
94,75,-60,56,315,-150
100,85,-66,-116,212,-20
107,101,-75,-211,164,-126
113,94,-77,89,234,-92
114,100,-77,-76,220,-72
118,106,-84,-110,221,-155
126,95,-84,57,314,-60
-126,99,-83,278,420,-256
-17,73,37,1386,-960,-6316
45,-70,-40,1182,-3093,-6862
-32,111,-100,2860,-4674,-6473
79,-15,-84,6113,-6323,-5443
14,75,-119,1826,-573,-1837
70,83,85,-458,-5190,1472
32,-13,122,-558,888,-294
72,-121,-70,247,633,318
75,33,-48,121,323,-102
100,23,-33,-149,112,-56
-110,14,18,-377,81,211
-88,18,49,53,512,201
-65,83,60,-391,549,53
5,32,96,-188,1286,104
97,-47,-64,-1275,1935,899
31,107,-23,-1436,3230,2325
112,-92,94,-2969,4464,2738
-85,11,-122,-3505,3832,4399
-45,-72,34,-2821,1482,6449
-13,-105,93,-5229,285,5715
-27,0,-102,-438,-429,4998
127,-24,9,2058,1000,3628
120,27,-26,2389,860,3045
49,94,5,1568,25,2577
117,52,43,1060,-649,1304
60,5,56,1006,-130,144
3,-114,66,912,120,-863
9,64,47,767,870,-857
19,8,29,863,1192,-796
25,-11,12,622,661,-400
42,3,29,-176,-167,-326
61,-22,34,-99,-195,-404
74,-46,44,46,91,-329
75,-31,37,-306,158,-211
71,-25,34,-235,-70,-34
65,-15,29,-80,41,139
69,16,6,-244,269,138
65,38,-14,-381,173,161
75,66,-31,-434,92,131
75,64,-39,65,274,30
82,71,-49,199,321,-78
91,85,-62,-54,156,-169
91,77,-64,40,165,-234
98,64,-67,103,235,-214
109,69,-62,-109,152,-169
109,65,-60,-25,177,-162
102,59,-56,91,197,-165
105,63,-60,22,345,-49
106,70,-68,34,327,20
122,70,-79,159,354,49
83,-70,91,-1021,-511,-8363
-5,105,96,6190,-1238,-10678
-33,-28,-91,9484,-7684,-7073
-59,-108,-36,-1886,194,-2582
-59,53,72,-2252,-4559,700
-39,105,-66,981,1904,273
19,52,107,-492,213,446
43,-119,-51,388,32,-286
91,63,54,-595,321,-208
-123,23,82,102,303,213
-85,39,74,-254,707,215
-77,83,4,-231,414,97
-31,52,82,-634,928,427
77,-36,-122,-358,1434,1247
19,-123,-50,-2111,4316,1918
57,-71,60,-2972,3056,3332
-120,13,-91,-1792,2434,5218
-27,-89,-119,-1705,2471,5353
5,-117,-128,-60,2666,4623
-54,3,-77,2784,1523,4977
88,40,-45,709,2320,2984
101,107,-53,-2366,2054,3004
-77,4,2,286,-89,3557
-114,59,46,1770,-1160,2046
63,68,44,80,-85,-216
-19,105,21,1996,771,-674
12,72,23,1340,1089,-993
12,27,24,442,550,-770
32,-23,52,-38,61,-269
29,-35,52,-270,-434,-397
43,-38,75,-355,-163,-254
47,-36,55,-347,307,-139
42,-30,46,-220,101,-173
45,-23,31,-29,74,65
57,4,5,-207,331,50
59,1,1,-4,135,72
55,17,-8,17,70,248
60,24,-18,31,161,182
73,41,-19,-27,328,87
68,44,-20,222,283,23
66,52,-26,26,318,-53
62,54,-18,-68,247,-158
86,29,-22,200,377,-84
88,57,-34,-293,175,-84
71,54,-33,-121,155,-212
77,50,-37,-167,288,-405
81,44,-39,-288,176,-308
89,38,-47,-169,281,-182
100,49,-55,-251,307,-136
112,51,-62,-79,336,-2
-33,54,-60,2641,-4596,-5104
55,72,18,-2756,-3828,-8370
-57,113,19,5012,-6780,-6616
10,-113,-96,7864,-12987,-5015
19,-105,-59,-4729,-4933,1577
117,-101,-42,-1794,2188,148
-16,-15,51,1636,1134,-455
30,94,-50,-445,631,356
26,42,108,120,99,-97
76,16,-70,162,168,19
-112,-26,-50,-90,589,130
-85,-7,-51,-219,812,435
-50,16,-75,-208,1079,453
24,5,-22,-62,1811,550
103,14,-23,-1884,2789,1106
-49,-87,-102,-1209,3409,2033
-18,-39,70,-1853,3868,2925
41,-25,10,-2530,6222,2236
-63,87,-104,-3051,6758,2035
-69,22,-42,-2997,1675,4554
-84,-82,25,-1036,-109,6402
49,25,9,-1218,188,5813
127,-111,9,-2171,399,5089
-46,4,82,-2187,-2522,1552
40,-118,87,4406,-687,1347
24,-19,96,3665,662,1266
-42,-37,8,2833,884,-611
-19,127,59,3208,411,301
-45,-120,51,914,459,-638
-61,8,101,225,146,-782
-9,31,109,-619,253,-430
29,-60,116,5,88,-1110
12,-109,-112,340,433,376
-30,-30,121,-295,119,400
-27,2,92,-242,278,154
-19,33,70,-252,306,237
16,52,56,-117,238,292
32,71,61,-44,2,166
19,91,56,-192,107,-147
6,62,37,72,523,-453
46,41,17,63,678,-391
61,28,1,202,410,-264
59,25,1,80,174,-239
55,36,1,-272,195,-171
54,22,5,82,338,-35
66,56,-3,-219,269,60
80,76,-13,-84,232,54
88,102,-15,-232,196,-148
85,86,-21,156,342,-254
77,85,-31,-31,302,-224
-115,96,32,-7734,-45,-2347
-54,-68,-92,-5098,211,-3224
-49,-3,42,4353,2862,-9534
-52,70,32,2274,1926,-6344
-4,-84,-8,6066,-4961,-6334
-25,22,107,6675,-4357,-8486
-29,41,114,5373,-1254,-2774
-65,-115,71,-5122,-5552,525
102,-36,89,914,1224,491
93,-18,30,-358,1622,-80
57,-126,-31,146,97,-136
69,53,90,-445,-63,395
-99,46,106,292,692,-327
-87,48,-111,-816,767,178
-7,13,-109,-489,1173,346
101,-38,-46,-1079,2243,891
-20,-85,-33,-1037,4707,897
42,-30,-116,-4882,2837,3744
123,-80,-37,-2438,2497,5752
-58,-121,84,-3097,3082,5902
-21,-25,71,-579,1724,5781
114,123,-115,206,1882,5177
-89,82,-2,319,2460,4388
-74,101,28,405,2015,4021
-18,86,113,883,-2032,2303
101,111,95,610,-2335,1012
42,-6,79,1423,-148,-625
-20,95,63,2756,744,-1339
4,62,28,2169,890,-890
30,59,52,435,240,-699
18,17,89,-259,-525,-387
30,-15,110,6,-197,-471
67,-40,107,255,455,-521
64,-30,93,123,219,-360
52,-30,64,-36,73,-166
37,-25,41,-111,-75,116
35,2,28,-248,24,378
74,42,9,-699,484,575
104,101,-27,-1537,917,688
82,61,-54,-241,98,-589
87,69,-44,408,-223,-188
85,87,-51,-204,1,-331
83,82,-57,-558,93,-363
97,84,-58,-572,48,-222
97,90,-61,-386,-33,-209
109,94,-54,-244,133,-97
98,106,-68,45,273,-89
80,114,-75,-12,175,-149
98,110,-77,-6,355,-62
-127,109,-88,136,469,85
74,-10,119,-1065,-1674,-6389
10,-80,-80,1366,-4530,-7534
103,-86,2,4753,-7214,-6469
41,-59,-69,2447,-9463,-3387
25,-69,-93,692,-2636,-3834
22,-32,-10,-176,-4553,377
90,14,-106,-793,1564,-256
-123,98,19,-224,1011,96
42,-19,-76,692,555,813
-20,67,26,-429,819,-193
22,56,46,94,-253,53
124,33,-92,-321,490,-70
-68,0,-43,-1008,590,595
64,-44,27,-2129,1867,1459
-100,87,34,-1316,3512,2296
-34,-103,-47,-3370,3779,2786
16,-38,-29,-2555,2824,4826
118,90,108,-540,3486,5267
-56,-43,42,31,3693,4523
65,-36,68,-1229,1732,4163
-23,113,-73,-127,648,3906
52,-111,35,565,152,4496
-89,38,-69,1179,767,1450
67,-53,-8,2808,83,1602
86,-2,-8,1321,564,1895
57,54,-20,-735,200,1107
-1,-24,-6,814,-621,18
-10,-119,23,1705,287,-892
-5,100,25,1233,924,-1171
9,90,21,-95,489,-1017
37,14,37,-69,-100,-915
34,-29,57,546,-320,-712
34,-48,76,582,-297,-492
44,-60,95,810,-152,-122
52,13,55,-1344,472,-206
43,-10,42,-551,329,133
51,-7,-2,514,608,237
53,43,-14,-39,444,155
68,40,-39,6,534,194
102,59,-42,-40,362,398
68,84,-49,-118,68,253
70,90,-39,-102,11,-42
82,86,-31,-204,266,-42
80,90,-32,-208,95,-74
82,94,-29,-249,131,-67
74,98,-30,-185,218,-187
86,81,-34,110,398,-192
95,90,-54,-98,462,-238
110,75,-76,86,425,-55
-117,88,-83,-136,194,40
-29,-20,66,-5531,-776,2030
114,-15,-89,-5415,11,-5106
-59,21,-6,-1326,2124,-4988
64,40,11,-911,-544,-6466
-23,15,57,1143,-3288,-7719
-47,-42,20,5246,-4690,-9655
-89,-26,114,3657,-5308,-6230
-117,-108,80,-4050,-3277,-4701
66,-123,-23,1820,-2521,-1074
-18,80,65,-586,353,496
95,85,47,-126,988,493
55,118,77,-53,256,264
72,115,52,654,318,-167
87,96,105,-467,-116,-13
-102,15,-110,443,616,-78
-74,47,-111,-340,324,393
-47,101,93,-338,656,202
-39,84,105,390,586,315
-125,-72,44,470,2151,1268
45,51,85,122,2712,2212
-90,71,124,-1287,2635,4427
-59,-108,-88,-690,3637,5516
-87,-126,47,-732,4185,5783
-76,-80,77,-3410,3107,5170
-42,99,-120,-1926,1421,5156
25,113,22,681,315,4042
48,74,47,2556,850,3004
-36,113,17,436,1147,1711
85,-122,76,-1288,204,2
-5,1,58,894,-226,964
-41,-1,76,1341,-647,675
-21,-22,51,923,174,-428
-25,-45,64,-760,-281,-936
2,67,66,583,571,-828
9,15,61,920,391,-560
40,9,44,86,542,-577
45,-4,39,-71,131,-228
50,-1,22,-169,161,-53
32,39,19,-283,29,288
35,64,16,-53,184,248
38,83,-5,125,354,154
44,98,-20,307,300,17
49,103,-16,195,277,103
80,117,-23,-143,321,-20
86,117,-37,-37,113,-343
69,84,-40,68,-7,-549
64,84,-35,-202,-49,-198
77,79,-35,-307,301,144
88,94,-34,-299,91,-43
92,110,-34,-103,201,30
-32,91,-126,1711,195,-8390
-45,26,63,5533,-1476,-8635
109,-68,-58,2705,-7071,-9009
109,77,51,3495,-2994,-6846
13,59,-64,-2997,-4020,-124
-62,-117,41,521,972,-46
79,-43,-97,253,182,706
71,85,38,629,367,390
59,-51,-52,-372,30,-520
109,45,81,13,85,143
-86,53,77,-92,815,78
-51,31,63,-349,480,1187
72,-29,-98,-1172,2653,1033
-40,115,-36,-990,2227,2366
57,-99,65,-1537,2707,4438
-91,40,-123,-1845,3568,5436
-77,107,56,198,3526,5903
0,75,66,-1093,2715,4362
-68,35,-121,2629,3108,4166
109,126,-63,-391,2217,2660
21,-21,7,1089,527,4543
-23,17,-5,1573,495,3119
-123,-82,21,5593,-707,1892
53,-39,19,2720,-464,-773
32,62,65,1186,804,-1383
25,-14,84,-1103,1345,-972
15,10,72,-3443,200,-757
5,-80,63,-1251,-406,-266
21,-102,102,298,-157,10
41,-34,96,-478,197,-112
54,-37,78,-391,275,64
50,-19,66,-241,-45,238
31,13,53,-584,40,107
46,8,40,-205,336,111
80,32,16,-118,476,191
67,51,-2,-22,203,20
48,50,-3,183,167,-239
62,26,-6,285,447,-255
80,23,-12,143,352,-183
74,20,-19,73,88,-89
86,23,-9,-207,194,-53
97,32,-9,-391,196,-40
79,38,-9,-295,30,-32
73,45,-6,-139,304,16
94,53,-21,-197,584,33
97,70,-54,-181,248,208
95,85,-56,-146,262,205
99,103,-64,-148,317,23
88,115,-65,-263,158,-163
-122,107,-64,-228,477,-94
-20,78,-50,-2998,1295,-5100
79,98,-68,-314,-161,-6787
110,-53,23,1037,-3625,-5811
-46,118,43,-500,-4115,-5482
111,-2,-110,3133,-4302,-6099
-71,-17,-97,4234,-4832,-4199
-36,111,39,662,-6246,-2230
-124,-66,75,-325,-1181,-1339
-73,-2,63,-1174,1333,579
84,-55,-108,331,1940,-379
27,-128,-21,-632,-153,155
43,52,5,225,-23,96
118,54,71,-594,543,-221
-105,-7,106,111,376,395
-32,32,52,-327,943,343
28,-57,-94,-327,1383,1441
-107,-80,-13,-1365,3828,1671
9,-74,-110,-2002,4313,2422
66,57,-3,-4617,3654,3693
-128,-34,-106,-129,2253,5178
11,-26,113,-2185,3032,4585
48,-19,-120,-2024,2206,4819
70,81,-77,-1410,439,4204
116,9,-9,1444,134,4032
85,3,5,2932,-242,3167
-19,96,49,1063,-579,2453
95,90,35,-301,-520,440
28,-76,38,1599,185,-166
-5,84,50,2332,368,-326
-23,89,50,1030,364,-609
-12,45,61,231,366,-500
9,-7,65,-62,292,-436
23,-18,69,-162,130,-400
34,-40,63,37,255,-292
47,-13,48,-380,219,-357
31,-38,45,24,200,-266
65,-35,33,21,480,-124
69,-18,13,-108,333,-36
69,-3,-6,-258,221,-129
68,-4,-6,-199,41,-110
75,-5,-3,-211,153,88
67,23,-8,-519,74,70
53,29,-11,-283,145,102
54,49,-16,-280,298,89
68,60,-27,17,359,100
82,68,-41,129,413,72
80,81,-48,83,339,41
84,80,-62,244,492,-57
123,78,-70,195,473,-59
118,72,-76,253,204,-135
-64,-109,-22,-6730,600,-2336
90,10,31,-2992,2910,-6004
73,25,27,1099,-94,-7343
-69,-9,-62,4291,-1936,-11071
43,-109,-111,10015,-5751,-9337
125,94,127,1463,-1316,-3130
27,-87,126,-2734,-3613,301
-19,73,74,1955,-809,280
84,19,25,-670,604,226
76,68,104,234,702,-112
60,-115,8,-201,-98,340
105,106,10,-6,525,-352
-123,53,66,-94,265,249
-47,45,90,-241,806,318
16,37,86,106,1307,317
-117,-108,-14,-311,2506,1693
-8,26,-30,-862,4129,3155
-69,-4,-24,-5013,4423,3588
-97,42,77,-2841,2149,6269
-18,58,46,-1977,41,5951
71,-127,-118,-1615,611,5390
83,70,-80,1342,593,4163
-34,90,-3,2473,181,4199
45,-109,8,1490,-1103,2643
-112,103,15,1107,-862,1305
43,56,24,835,623,-124
2,-53,7,2077,1002,-1013
-25,113,-7,2506,789,-1281
24,51,17,1224,656,-1530
44,-10,43,295,440,-1058
53,-44,71,-91,-109,-528
67,-74,75,-114,-75,-361
71,-67,75,-81,197,-54
103,-46,57,-258,435,29
68,-33,32,-83,89,50
68,-35,24,70,201,269
76,-13,14,-220,261,445
84,24,-5,-421,229,545
67,50,-7,-383,-17,351
60,60,-14,-116,243,176
71,73,-22,-5,412,31
80,67,-38,210,386,10
86,79,-45,98,221,-91
88,73,-50,70,287,-274
111,52,-48,142,318,-311
125,54,-46,-114,138,-281
127,50,-52,-165,138,-418
104,37,-44,-269,-87,-345
99,45,-46,-690,120,-97
98,69,-64,-1003,3,-20
-43,-102,10,-2350,155,-5525
-70,-93,108,-1145,-845,-7020
97,72,-110,-867,-1283,-7374
-15,73,-16,3058,-2663,-9091
43,-74,-92,7170,-5137,-7059
41,111,27,5522,-4244,-4379
82,-56,-50,-1838,-2288,-111
124,-1,-82,154,1276,334
73,7,-27,-145,975,703
47,-77,-11,-411,492,-489
20,45,62,117,115,78
-115,36,82,-394,547,-123
-76,26,60,-192,692,-164
-55,53,62,-166,488,298
36,21,117,-551,1375,328
-127,-55,-42,-1047,2521,1426
19,-99,-43,-2239,3454,2374
67,-6,32,-3087,2569,3844
106,-19,-56,-742,2670,5554
-118,-50,-87,-1565,2151,4976
-24,-6,-113,-1147,2374,4896
-8,125,-105,-2185,1644,4157
50,-116,-8,4348,781,4203
108,46,-6,930,1995,2965
-13,-5,-15,597,1258,2551
-109,-9,54,777,-499,2577
67,26,55,29,-672,1138
8,-37,70,875,-161,-193
-27,126,71,1554,401,-654
-28,53,55,1474,645,-863
-1,43,75,647,257,-668
36,8,78,-90,94,-685
22,-44,103,217,-168,-766
73,-67,98,176,374,-451
62,-56,88,-297,193,-359
57,-66,76,-112,18,-162
47,-61,73,-312,-13,112
50,-13,53,-743,183,331
47,6,33,-410,175,397
38,38,15,-349,203,302
53,63,-5,-211,370,59
64,60,-15,251,371,-74
73,60,-33,267,352,-195
66,47,-38,195,249,-261
102,30,-34,257,376,-114
92,42,-31,12,54,-199
94,33,-23,-152,16,-229
80,28,-12,-422,-16,-56
79,32,-13,-411,110,76
82,66,-26,-579,155,150
-86,-126,125,-4197,-773,-5124
-86,-40,25,-428,-2327,-6239
-118,33,81,1798,-1486,-11053
122,60,-67,5714,-4823,-9590
-89,-110,-100,4311,-7096,-6219
36,-16,-45,-1905,-5277,764
-17,-118,68,574,1118,577
-102,59,-71,106,1043,938
5,-96,29,380,858,17
5,-108,-6,146,148,-476
119,-2,-113,-458,468,186
-43,-33,-113,-672,1016,514
64,-122,-11,-542,2670,1387
-60,-88,-60,-2439,3260,2205
-7,-98,46,-1798,3197,3918
57,7,-33,-2362,3335,4685
-109,-113,79,-1489,2981,4861
8,37,57,-1516,2798,5676
43,-114,-127,-1220,355,5737
62,120,-86,230,-80,4541
109,105,-72,478,1470,3223
0,101,48,1156,890,1590
-118,93,64,1842,-1185,1831
75,93,14,593,-346,272
11,-71,-6,1746,475,-816
5,93,0,2554,252,-973
18,65,9,1220,487,-945
34,19,38,178,59,-611
45,-17,44,-11,-93,-361
82,-37,58,-77,105,-287
83,-35,55,-111,115,-170
49,-30,50,-103,-40,-169
60,-28,40,-237,205,-49
75,-5,17,-514,268,287
66,21,-2,-359,94,275
78,48,-14,-319,217,234
74,60,-22,-106,320,89
59,69,-36,108,249,-53
74,61,-46,241,499,-95
90,66,-58,142,380,-141
-119,51,-64,277,417,-72
92,60,-57,66,-19,-167
84,37,-45,69,164,-307
106,26,-34,-272,316,-65
108,42,-48,-393,91,203
96,66,-44,-393,63,186
111,81,-55,-269,456,104
121,106,-70,-124,332,-1
111,101,-79,138,295,-163
108,96,-86,79,449,-187
95,49,-72,-4454,391,-3454
-5,51,-54,-2737,352,-5073
-35,96,70,-796,-1368,-6717
23,107,42,2965,-1660,-10249
31,-68,-98,7694,-5673,-9835
80,66,-86,3846,-286,-4098
27,-15,85,-3271,-4652,-33
100,-30,34,853,822,210
74,-42,-64,72,1070,378
43,-123,-48,-283,249,102
49,67,-16,154,502,-196
113,49,15,-417,264,-79
-100,28,33,-66,321,247
-45,56,32,-335,891,-32
-20,34,59,-477,576,1031
62,-24,-115,-2401,1694,1486
-9,-102,-122,-1870,3805,1874
7,-35,45,-2910,2256,4572
65,60,-82,-2732,2024,4999
-70,-77,-120,-925,1744,4970
47,-52,-119,170,2442,5198
90,97,-118,-87,1637,4064
-122,-108,-54,-1818,914,4099
75,-7,-28,2053,780,3253
55,-112,113,413,955,2343
-113,94,100,644,-928,1545
72,10,33,1141,-1097,927
35,-68,33,664,582,-356
17,111,19,1276,576,-631
40,51,28,1118,550,-607
97,30,45,161,243,-505
79,-8,58,282,-170,-393
66,-29,73,20,-62,-386
75,-34,66,-236,255,-262
85,-21,51,-433,105,-206
85,-8,43,-329,69,80
80,20,18,-235,201,130
82,31,7,-21,205,84
90,44,-10,141,235,68
104,50,-26,237,374,68
123,58,-36,199,323,-15
125,62,-41,191,162,-53
115,48,-32,161,305,-187
-113,27,-31,117,223,-197
106,26,-24,-132,-67,-5
101,21,-14,-258,224,96
-123,45,-25,-260,373,287
-118,66,-46,-1,277,283
125,93,-61,215,313,62
-122,81,-65,321,532,-101
-100,88,21,-5536,-723,-3293
-91,-40,115,-4616,525,-5065
-20,65,73,3761,1337,-9871
-53,34,51,7690,-2563,-8935
11,62,-117,7886,-4953,-8368
-13,44,31,2879,-2908,-1574
1,-46,-50,-2692,-3066,654
23,66,-11,888,941,866
59,84,101,-534,796,95
57,76,15,420,224,282
77,93,12,-411,246,-279
-107,39,27,1,652,-328
-88,26,84,61,46,421
-3,45,90,-577,1317,-110
32,-25,-95,-649,1047,1743
-61,-92,-52,-1261,3564,1074
56,-76,-98,-2503,3934,1980
126,-78,15,-1528,3103,3971
-42,-6,-85,-1969,4091,4775
-20,66,75,-4798,2717,5431
29,79,-94,-5207,1491,5837
55,48,-50,-262,399,4905
-26,88,106,1835,155,4468
107,91,16,2261,-275,2617
-33,118,77,1230,-1038,1745
69,21,50,891,-187,150
28,-95,28,1765,628,-171
13,84,37,1221,477,-663
38,47,54,284,281,-502
50,-13,83,293,-41,-433
44,-55,85,384,431,-51
24,-57,71,182,307,-220
42,-59,63,208,419,56
60,-20,59,-111,306,384
46,16,48,-152,114,387
58,37,49,-102,117,270
72,48,39,117,247,191
68,42,38,328,335,30
69,42,22,144,321,-204
79,30,18,-42,94,-135
88,27,16,-80,-29,-332
121,57,17,-155,236,69
93,40,19,235,284,-250
66,36,1,158,453,-463
121,23,-16,48,552,-329
-128,31,-32,83,50,-69
117,51,-37,-47,-12,-26
118,71,-44,-117,277,-85
-123,75,-50,-93,129,-45
-125,83,-47,-42,-38,-25
-127,-52,-18,1120,-598,-7867
110,65,16,1839,-3118,-7644
76,-114,35,880,-3558,-8463
-62,-6,-41,10265,-7191,-6787
50,-96,-26,-324,-4417,-122
-43,108,-123,-1093,-1300,415
-101,-40,-29,845,1549,955
56,83,93,-344,747,183
22,-127,-58,-36,34,-20
91,38,18,-212,214,-203
-105,24,45,-111,480,-185
-74,2,56,-444,328,350
-14,8,93,-259,1311,24
47,-11,-81,-1342,2164,1002
-79,-92,-16,-450,3689,1049
49,-18,-80,-1769,4074,1826
80,-28,48,-923,3565,3337
-67,65,-96,-963,3718,3199
23,-124,100,-487,4070,3730
7,-96,69,1052,1725,2319
25,-10,119,-2775,2266,2821
-107,-109,-58,-814,824,2381
-84,89,-10,112,1506,2734
-126,-118,39,-277,1470,2287
-116,-122,20,-1040,1449,1808
-124,-88,-14,-1029,1243,1440
73,-124,9,192,189,416
35,96,24,1047,-121,34
29,70,39,492,410,-169
22,28,51,432,413,-166
32,27,43,357,252,-45
42,24,37,-59,199,-291
51,-1,37,-154,143,-243
65,2,31,-308,116,-245
69,-4,24,-203,158,-174
70,17,4,-386,121,-193
72,23,-6,-232,93,-263
70,15,-10,-37,172,-123
73,28,-23,-165,224,-93
82,37,-26,-212,170,-60
96,46,-33,-102,150,-21
97,54,-34,-77,217,-46
94,53,-35,151,272,-15
94,68,-48,-96,270,-11
96,71,-54,-62,228,6
102,72,-54,22,309,-14
106,91,-64,-104,243,13
115,86,-61,22,307,27
122,102,-70,-204,264,-58
122,93,-67,35,234,-155
-70,-41,-47,-1970,-803,-7282
10,-105,73,2321,-1167,-8602
6,109,44,6549,-7837,-9148
-120,119,38,4686,-7980,-3649
-94,64,-124,-1875,-2936,-905
41,-16,119,1237,357,-793
64,122,6,-964,1233,781
22,24,53,255,755,-324
-4,122,-74,-19,-425,338
84,44,95,-22,387,-149
121,37,114,-218,606,85
-71,1,-90,-391,1212,541
28,-94,-15,-1406,2510,1461
-81,-123,-55,-2451,4569,1572
-16,-122,57,-1695,3367,3477
91,89,101,-2023,2865,4282
-121,-48,31,-1659,2965,5306
-105,82,55,-1945,1684,4262
-8,-51,101,-4627,1480,4066
-25,26,-35,1265,-22,3738
97,70,25,2054,526,3830
3,-82,22,1570,193,2084
-112,69,46,1511,-244,1312
114,3,-16,978,424,208
67,-93,-12,1801,44,-269
38,68,10,1953,438,-266
41,9,19,1051,537,-470
61,13,45,11,222,16
65,5,54,-378,-83,-103
71,-14,67,-178,104,-259
74,-28,76,-68,178,-178
83,-28,58,-101,180,-12
86,12,40,-497,67,-97
88,6,33,-177,377,-157
87,25,1,-292,248,-47
107,47,-15,-470,140,-124
108,42,-22,-150,314,-117
109,57,-38,-349,358,-213
106,67,-52,-316,82,-66
110,69,-55,-280,218,-12
118,83,-59,-240,184,81
-117,109,-75,-269,223,81
-110,116,-75,-178,152,32
126,124,-79,-183,86,-22
115,124,-77,-232,200,-99
120,118,-83,-80,181,-56
-124,123,-88,-163,193,10
-112,-123,-90,-185,200,1
-114,-116,-92,-124,155,-68
-114,-115,-89,-121,189,-77
-110,13,-13,-5099,249,-4748
12,69,106,-1570,185,-5358
32,47,-50,964,-1133,-6573
100,-48,-117,1124,-528,-8482
11,-31,-98,10387,-5987,-7036
58,16,20,5304,-2188,-7656
-70,-128,-19,-3300,-4246,2672
81,120,-20,-666,1542,692
80,-72,117,136,737,220
-8,-121,-55,77,158,112
45,75,32,-180,173,-40
96,42,56,72,246,-83
-90,42,68,-239,516,22
-26,3,118,-624,1093,405
76,-94,-46,-366,2221,1525
5,94,-66,-621,3796,1936
56,-105,62,-2547,4696,3724
97,-22,-102,-2040,3256,4368
-26,-114,48,-2544,3792,4604
-2,-62,61,-1446,2128,4787
118,-92,107,3326,1043,4631
-69,106,-74,623,3246,3218
114,-104,-48,-1430,1227,3782
-80,107,-61,191,-111,1984
92,120,-34,1631,502,-1348
47,-81,-12,2266,706,-988
-1,14,40,1704,367,-139
15,-10,42,1057,244,159
33,1,57,-225,18,-172
52,-24,76,-125,3,-182
70,-37,84,53,-76,-83
82,-14,83,-421,83,-197
66,-15,77,-486,-86,-367
69,-50,62,-77,134,-176
72,-38,44,-246,363,-54
76,-21,27,-335,198,165
86,2,4,-350,228,137
76,13,5,-79,209,137
85,16,-11,101,468,37
92,30,-19,-126,228,35
99,33,-21,-57,329,17
104,30,-23,212,419,-64
103,33,-33,29,336,-112
101,31,-37,-158,224,-62
103,26,-36,-42,311,-28
101,33,-37,-37,275,-45
85,35,-41,-39,311,-76
-68,35,-35,-24,452,23
-122,37,-51,73,67,36
100,49,-40,-242,189,-160
53,74,-95,-3014,949,-6151
-100,-23,65,455,-560,-7150
-93,109,73,1078,-1335,-8330
-46,-63,-95,4629,-3426,-9187
-121,41,60,8114,-3875,-4076
81,-22,-19,-3571,-7416,-1541
-36,-69,-3,1504,840,-286
-121,63,-81,-1026,198,1046
79,-6,-104,-314,747,456
31,-97,-42,-388,43,210
69,94,-11,79,464,-236
99,118,0,-740,147,-111
-90,55,29,-147,612,-57
-44,109,17,-700,505,86
0,124,-23,-409,646,-75
1,-113,-27,-107,628,82
36,-104,-12,-875,916,87
-92,44,92,-150,2524,567
-18,-3,-80,-1821,2074,1130
77,-10,75,-2719,1972,2337
-88,-72,11,-1067,2425,4683
-15,51,-21,-1497,3235,5036
34,96,-38,-698,2461,5231
107,-14,-72,-2701,1447,6989
63,-123,-49,476,425,5408
-58,-9,1,-793,886,3925
-95,27,12,2130,44,2942
-28,89,87,1646,-890,1466
55,17,94,573,431,392
7,99,58,1921,1287,-375
-26,59,56,2320,251,-547
-4,44,69,1568,94,17
-21,38,81,239,251,-370
-5,-5,70,-314,357,-632
22,-41,84,-364,82,-298
29,-60,84,150,-9,-348
17,-64,87,173,-8,-367
16,-50,86,-459,74,-267
24,-64,79,-180,173,7
32,-40,70,-476,66,102
35,1,58,-551,67,173
35,18,38,-419,176,26
37,38,25,-320,286,-80
46,38,4,-96,276,-125
55,48,-7,-190,188,-218
58,43,-24,-188,293,-251
58,40,-30,-238,157,-150
60,47,-34,-360,127,-133
74,47,-32,-223,220,-97
72,59,-42,-300,198,-74
-49,-35,105,2943,-1655,-7921
-117,85,54,8375,-6065,-9333
84,-103,-54,-2190,-3470,-8812
-14,-126,-116,5120,986,-1771
-112,-91,110,-3413,-4119,1725
-43,-123,66,961,1931,838
95,-123,-65,-1030,94,278
63,113,-101,749,215,-78
110,63,20,-439,111,-170
-79,13,41,243,335,214
-50,52,19,-218,381,202
-32,17,47,-78,794,279
62,-30,-99,-790,1609,650
-72,90,-6,-1538,2632,1965
48,115,-97,-3137,2859,3166
120,-43,-43,-2183,2343,5378
-70,111,-114,-1202,2519,6024
-37,53,83,-2890,2596,5142
34,-64,89,-3680,1009,4394
45,83,-5,1108,-589,4099
109,51,-26,2346,2285,3044
3,-40,111,811,46,1663
99,27,61,1611,-1159,1464
79,-29,3,558,564,284
90,-108,0,1637,1060,-289
70,68,-2,2432,300,-265
36,26,37,1317,263,-194
52,-3,61,188,340,-248
68,-20,75,-304,229,-115
58,-33,82,-146,-72,213
62,-8,88,-417,-5,-36
69,-18,78,-114,123,-106
103,-12,61,4,735,-547
101,3,53,-4,621,-205
95,-5,43,-29,65,-50
103,9,33,-298,-46,124
108,6,16,-241,137,-4
110,12,2,-272,342,-67
104,20,-8,-225,201,16
106,25,-19,-257,202,164
111,50,-33,-288,294,104
123,68,-45,-209,426,128
125,85,-47,-222,159,346
-117,109,-53,-323,56,319
-123,118,-54,-232,193,142
125,118,-64,-26,248,-55
120,116,-70,-90,254,-123
-124,106,-74,-68,282,-100
-116,112,-81,-100,225,-139
-109,108,-83,-92,223,-125
107,-17,-28,-5313,-169,-4824
-49,-11,-95,184,66,-8408
-53,6,-80,3102,369,-9917
-12,42,96,11326,-7842,-9134
-19,-44,-31,-2110,-6421,-2119
50,-21,33,55,-1320,-1460
36,-122,-100,870,-129,445
-114,-54,-10,228,729,245
42,126,40,53,463,322
52,-123,16,433,466,-261
70,120,40,-1078,63,133
-116,27,63,320,317,189
-70,71,63,-499,306,623
10,-30,-127,-210,987,1481
-77,-102,-87,-469,3040,1684
-41,-45,79,-1917,3427,2653
12,69,-60,-3462,3459,4378
83,32,118,-370,3104,4460
-103,27,56,-1837,2678,4847
-34,-86,105,-2697,1144,5191
-102,98,-78,-551,-19,3534
50,-108,52,-492,-212,3881
-41,116,20,-1139,-365,2781
-102,96,55,746,-1541,2034
97,-22,38,2710,-366,726
44,-44,17,2695,290,278
27,-54,-5,2134,198,182
13,-90,16,1708,-89,-19
23,-127,11,687,342,-576
30,81,16,204,478,-948
41,26,35,157,311,-1000
70,-24,43,-208,317,-867
81,37,19,-2542,762,-777
47,-90,0,299,342,-290
53,-46,-1,1056,-134,303
74,31,1,-315,-121,310
93,46,-16,-540,356,188
86,50,-26,-150,233,175
84,50,-32,467,264,260
88,78,-41,139,258,122
92,90,-35,-269,280,-70
93,71,-55,-136,500,-72
90,60,-47,350,267,61
109,88,-64,-224,364,-49
111,83,-65,-251,227,-132
114,67,-62,73,344,-56
115,78,-70,-25,308,-65
118,70,-71,32,157,-119
117,91,-76,-177,229,73
127,84,-66,-22,317,33
126,-6,82,-4557,633,-3799
26,-120,-61,-1113,2994,-6575
-87,7,-52,1287,1221,-8613
9,47,127,6712,-2792,-9879
33,21,-16,6258,-7207,-8548
-44,-90,-58,4962,413,-4520
-14,32,-123,-3446,-4292,1317
58,126,31,1172,1919,157
119,34,-95,-917,637,428
28,109,-118,849,218,-203
89,75,-7,-652,402,-360
109,-11,76,69,-82,357
-65,29,41,169,107,272
-41,63,58,-349,975,72
23,9,-110,-753,1226,766
-44,117,21,-784,3413,1151
-128,83,7,-915,5697,799
-15,-60,-117,-3642,4668,3490
30,91,88,-2655,3030,5981
85,-116,71,-48,3431,6211
92,-35,16,-4894,2147,4242
93,-82,-113,-2992,-688,4898
-36,53,-70,-1665,-866,2511
-58,120,39,4024,-186,2661
-86,-34,2,2828,1013,1898
75,43,14,713,632,1137
22,-10,31,747,79,372
-3,97,38,2997,828,-265
-6,59,51,1390,694,-1011
12,22,60,132,779,-991
24,-51,98,95,-142,-438
28,-73,106,-42,-141,-250
44,-57,96,-395,116,-384
51,-62,74,-462,158,-354
43,-69,43,-197,134,-202
49,-44,38,-426,77,51
71,-45,0,-21,320,225
89,3,-5,-287,79,462
55,42,-19,-426,-85,248
39,39,-11,-111,24,199
56,50,-10,-37,207,125
56,64,-29,-124,117,-30
61,74,-26,-308,177,-66
74,70,-38,-170,345,-273
74,51,-46,59,246,-259
79,51,-48,-39,234,-281
87,44,-51,-51,325,-148
87,44,-70,88,452,-112
100,52,-68,-63,398,-141
96,62,-68,-80,153,9
75,-39,-8,-6245,861,-2487
116,36,-127,-4159,-381,-2688
-9,31,52,790,207,-5247
119,18,-70,171,2401,-8509
23,-34,-64,2207,454,-8544
8,29,-118,3841,-761,-8492
69,66,-64,7723,-3153,-5376
-98,4,89,3755,311,-736
-44,32,2,-1126,-2911,558
-90,75,89,504,410,1325
72,120,37,-562,912,-291
65,82,-16,-155,202,-27
-105,32,-8,-410,795,-384
-76,34,-4,-209,244,118
-25,35,2,-46,644,107
-2,61,39,-197,721,414
57,21,106,-76,1879,625
-109,-21,-124,220,1940,2036
-56,-16,-99,-3483,2712,1870
51,127,84,-3424,2753,3453
-118,-9,-48,-4104,2968,5183
-78,55,108,-551,808,5767
77,-110,93,-4293,1510,5499
-5,45,-79,-2647,-964,4262
116,34,6,741,-766,4474
-111,-121,123,5593,-252,4091
-119,79,-28,2411,2052,2573
60,74,49,1355,-712,704
29,-122,48,2976,104,624
22,-99,19,2220,884,156
38,78,48,2150,555,-337
-18,81,78,29,-150,-943
-37,3,-128,-188,-591,-838
4,-94,-81,194,-48,-904
42,-88,-108,-408,564,-584
53,-97,125,-280,649,-217
44,-86,81,-54,106,-220
52,-63,78,-652,-70,-142
54,-58,76,-644,13,-48
67,-49,54,-378,170,-30
63,-13,43,-744,40,119
58,10,18,-647,64,54
60,33,14,-340,95,48
66,45,-9,-106,453,-81
78,54,-29,-78,302,-75
73,66,-47,-177,50,-10
80,63,-43,-18,183,-24
87,85,-48,-223,89,-52
81,71,-47,-64,88,-319
82,57,-44,-38,223,-212
105,-107,-21,-6802,1138,-548
69,-84,-28,-5634,630,-3298
-105,-47,-71,905,-1204,-4915
-44,65,-52,83,-1178,-6904
111,-26,-67,-774,-207,-8718
-16,68,-6,4046,-1224,-8709
-54,94,-91,8834,-2494,-7974
115,-10,0,2738,-5151,911
-86,-98,-64,-890,-1492,-280
-82,-92,70,745,201,1324
126,38,65,-279,419,69
65,77,14,127,52,189
109,81,64,-133,666,-574
-73,14,115,-598,706,5
-22,7,70,-339,705,338
89,-39,-54,-2170,1916,1038
-34,95,-44,-2583,3034,2537
50,100,102,-3544,3435,3849
122,13,-104,-5234,2153,7035
-86,-16,16,-4338,55,6974
61,113,111,-651,-1345,6755
-80,-31,-26,-18,-729,4194
-90,42,1,3174,322,3486
-107,114,55,2717,285,3314
-24,-124,33,1308,-672,2438
115,-90,31,-209,-699,649
28,-9,6,1353,452,-1005
-32,93,21,3688,513,-1203
-4,37,6,3263,843,-916
7,37,37,1186,742,-317
24,19,55,-265,233,-309
44,-5,82,-585,-117,-579
67,-42,93,-216,150,-291
39,-30,90,-158,19,-234
52,-47,61,198,438,-327
-100,-42,41,-87,784,74
60,-6,9,-432,-63,177
52,-8,0,-166,-48,48
90,20,5,-586,297,47
102,21,-5,-320,230,77
77,40,-6,-136,-107,-45
79,37,-4,-226,182,-277
100,28,-12,-134,400,-177
110,40,-14,-182,116,-162
112,47,-20,-234,184,-330
108,40,-29,-257,300,-341
117,15,-42,80,405,12
114,17,-61,370,363,566
102,44,-77,166,254,774
124,100,-89,-431,394,706
75,-24,45,-8019,809,-3564
94,-12,-72,-5700,336,-2838
-58,-115,-13,2956,-956,-5029
-60,66,31,3361,1708,-8483
89,-112,115,2530,876,-8683
73,82,124,1938,-618,-6782
79,-116,-74,4828,-518,-4581
8,-63,61,2457,-4477,237
32,38,-5,-572,41,694
-96,120,-50,733,573,627
66,126,38,139,508,173
58,-120,7,-193,449,-77
127,108,16,-340,496,-113
-38,69,18,-287,643,56
28,-26,119,-429,1168,1021
-102,121,-48,-934,2891,1798
62,117,-107,-2655,4360,2449
94,-38,-19,-3893,2248,4393
-77,-114,53,-2982,1488,6375
-23,52,19,-3196,975,6574
42,42,62,-3224,-959,5444
67,48,-9,1090,179,4896
-67,-61,68,-103,-688,3109
21,109,29,3190,-936,2160
125,37,20,4384,-877,1597
89,25,1,3180,217,104
-6,-61,-47,2931,218,-899
-17,120,43,729,769,-675
-3,27,41,572,719,-724
25,-11,80,474,109,-602
47,-54,106,246,138,-277
36,-21,105,-443,42,-313
46,-57,93,77,373,-317
89,-55,73,48,438,-266
67,-40,51,-239,142,-186
53,-45,45,-316,47,-208
64,-48,39,-237,153,-193
89,-26,29,-440,346,-68
88,-20,0,-188,202,-131
69,-18,-3,27,135,14
85,0,-11,-278,316,-47
100,13,-25,-146,146,-48
98,18,-29,-102,61,-52
95,31,-32,-305,155,15
85,36,-37,-261,223,88
94,47,-53,-189,297,186
105,77,-64,-354,220,296
-113,106,-82,-199,436,269
126,118,-96,2,249,70
84,125,-98,-132,8,-71
125,-78,77,-623,1336,-6815
79,127,100,1072,-958,-8601
-70,-81,-113,3656,-3706,-8894
82,-58,-102,9446,-7973,-8359
81,-70,-73,5017,-5716,-163
120,56,-18,-4393,-1946,398
-35,104,-114,575,1148,881
93,49,-63,-516,1634,-89
20,104,-1,247,142,271
32,68,9,-45,403,-244
86,40,58,131,198,-129
-104,46,92,-484,518,155
-28,2,-109,-276,851,423
78,-97,25,-580,2132,1684
-34,79,3,-1203,3518,2211
46,-81,68,-3717,4093,4402
118,-21,127,-1410,3646,4747
-60,102,97,199,3571,5269
55,-83,67,-3321,2835,4469
0,-81,77,-5695,1565,4575
37,-1,-22,1555,-993,4799
-126,-65,77,2399,-1408,3412
7,-113,25,3136,-523,1391
71,29,48,3133,-76,1026
13,-25,19,1811,551,536
-31,-91,-1,635,609,-354
4,106,35,562,377,-159
12,84,29,316,176,-186
22,68,56,-107,-63,-605
30,24,54,42,72,-770
39,-26,68,161,256,-755
38,-30,65,-180,154,-381
36,-33,45,-74,175,-255
57,-18,30,-212,252,-219
71,-15,24,-390,305,-172
76,-17,19,-200,118,-67
65,-6,6,155,233,22
61,-2,-12,440,490,227
63,14,-28,173,486,389
69,47,-49,-176,200,206
94,60,-48,-227,237,214
90,72,-46,-155,235,50
87,64,-46,297,460,-308
84,62,-39,334,336,-305
86,49,-41,144,269,-74
91,50,-40,-127,150,19
104,48,-47,-135,275,92
105,62,-48,-227,238,73
113,66,-54,-32,377,-23
123,65,-64,60,457,-85
-61,114,-8,-5011,335,-3738
-49,63,-103,-1391,551,-6307
-64,-119,-55,-1467,-880,-10584
-74,101,-25,7617,-843,-13273
-64,83,86,11004,-8980,-5137
7,-94,44,-2409,-6661,-243
34,16,-18,-576,-320,-204
-60,-31,40,189,732,778
106,-30,-16,-536,1328,502
-11,79,-10,9,-273,255
73,64,119,-136,373,-4
-116,16,-97,-222,437,207
-47,-48,-45,-825,1433,573
48,-95,-9,-1188,2519,1432
-76,-121,-22,-1921,4505,1277
-11,-23,25,-3490,3444,2986
34,-17,-45,-944,2739,5067
120,-54,120,-2566,2982,4620
-87,-8,82,-1592,2332,5316
-44,-85,107,-3053,585,4665
-10,-17,-65,1372,-140,5561
55,119,8,927,-931,3721
1,56,-29,1185,-250,2873
-75,-86,29,-170,-354,1735
26,104,24,830,184,-102
-3,-25,14,2545,737,-1386
2,-118,17,2003,1025,-1358
-4,97,30,586,171,-516
-8,61,29,456,-39,-303
22,18,32,-202,82,-707
35,0,25,-298,362,-586
42,-27,3,13,513,-222
44,-2,-11,-256,248,-140
38,7,-15,-298,21,51
55,11,-12,-138,339,194
77,30,-33,-21,423,199
73,50,-45,-39,175,310
65,72,-46,-262,132,260
62,77,-43,-205,148,-7
67,80,-42,-210,27,-222
62,84,-50,15,-3,-251
68,87,-51,-149,405,-60
76,70,-56,-18,333,-334
81,64,-62,54,188,-127
87,70,-64,-206,296,-132
89,62,-66,-143,196,-154
88,69,-70,-286,195,-50
98,68,-69,-230,266,67
98,82,-78,-220,228,89
95,94,-86,-170,333,103
37,16,118,205,-2069,-5818
-89,-78,78,1494,-2048,-7245
63,-109,54,3086,-3200,-7572
36,-16,56,7771,-4012,-6739
88,-67,76,-1050,-5974,-1535
53,11,-89,23,-3167,-910
79,36,-23,14,1214,390
74,-55,63,-383,137,833
59,-127,-18,127,30,434
76,-126,19,202,311,-328
126,52,89,-460,618,276
-41,-5,42,-77,1150,378
-5,-91,124,207,813,2106
-62,-87,-77,-1243,3640,1422
1,-56,54,-1931,4079,2662
67,58,-56,-3493,4199,3977
-70,67,124,-691,3245,4850
43,47,90,-2296,2495,4632
68,-24,-118,-290,1499,4751
-121,-70,-89,-3860,480,4044
40,-14,-51,-375,-453,3595
77,90,31,441,-1081,3515
-43,38,34,1980,-1028,2158
-113,69,26,1373,-197,1370
47,52,-2,733,472,-448
16,-101,0,2105,697,-1042
22,95,-6,1782,764,-882
37,121,16,-829,-27,-925
62,40,42,-643,-128,-1257
69,-53,35,700,301,-999
82,-33,54,-7,155,-758
90,-78,40,844,629,-269
111,-61,-16,266,1010,-243
116,-21,-32,-795,412,8
104,-16,-24,-379,-179,629
116,2,-39,-2,154,616
109,60,-30,-369,8,487
107,70,-40,-329,198,297
105,74,-37,-16,172,171
94,91,-35,-50,181,18
106,84,-43,72,368,-151
118,71,-46,258,301,-179
118,59,-54,380,302,-146
112,58,-54,150,203,-127
127,51,-57,-43,382,-73
-115,62,-66,-222,251,-49
-118,62,-71,-105,50,-116
-117,58,-59,-95,178,-91
-123,68,-61,-447,174,13
121,79,-66,-458,76,12
36,-69,29,-1547,-1479,-5729
54,88,3,-1581,-1015,-6551
125,94,70,2226,-2940,-6257
-106,-81,61,4728,-3764,-6590
15,-98,-77,6776,-4127,-4125
-69,-77,116,-1390,-5132,-801
115,-72,-7,350,72,-315
-123,110,66,-299,1314,-17
109,-20,50,-201,835,235
84,11,-47,65,428,186
122,42,18,-363,778,345
-87,29,82,-261,798,579
42,-64,-43,-726,2562,881
-43,86,-14,-1802,4217,1658
74,-42,53,-4727,4661,2067
112,44,110,-2931,3178,4708
-61,-29,73,-1558,1708,5703
35,-106,80,-4442,1735,5691
-34,100,-127,-1431,-211,3930
114,-127,-30,-1123,606,4377
76,40,3,881,1623,1803
69,-91,58,-1102,1150,2686
-120,46,100,1639,-1244,2516
101,72,34,1294,-1444,1546
80,8,43,1407,-705,23
81,-57,1,1704,589,-826
70,97,20,2055,587,-1040
89,67,13,178,515,-1316
79,14,43,-231,-294,-857
76,-38,49,-116,-393,-806
74,-36,51,-1463,121,-672
79,-12,7,-1172,480,275
121,-9,-28,195,672,107
-103,55,-53,358,453,533
-119,104,-70,-438,143,251
-125,99,-64,11,64,35
-112,52,-68,1174,197,-31
-128,77,-53,205,39,79
109,81,-47,-418,-104,104
97,75,-27,-466,-97,157
114,92,-30,-481,181,79
119,96,-36,-189,324,22
-124,107,-58,21,503,18
-126,110,-77,165,456,-81
-103,106,-89,115,483,-198
-92,125,-97,-785,356,-350
-92,92,-100,-12,409,-115
-93,77,-98,612,191,126
-100,119,-92,-564,-34,87
-109,125,-79,-655,-30,57
-47,89,93,-5439,1484,-3655
38,90,35,2499,2794,-6103
45,-114,28,1934,200,-7019
57,62,-63,2404,-476,-7891
1,38,88,6682,-2712,-7489
36,75,116,7171,-5164,-3633
88,23,-12,5461,-5110,-2936
88,25,34,-4202,1052,808
-110,122,55,-285,-398,747
103,-11,24,-23,969,-12
92,87,-115,-940,25,121
-122,-14,-42,145,551,-151
-71,44,-1,-742,289,159
-3,-6,57,-656,930,436
77,-14,-125,-1400,2059,810
-24,-45,-99,-2137,3244,1806
48,-24,75,-2729,4022,3032
-123,59,-65,-3302,3707,4709
-53,-120,107,-2096,1954,4969
60,-4,31,-1297,2511,4763
96,-8,102,-1006,1918,4593
125,-40,-98,681,1628,3620
-59,-22,-35,-226,2619,3627
17,108,-127,-1097,-917,3061
-67,45,35,209,-1272,1714
118,0,33,1168,-103,364
32,100,32,2694,469,-588
37,48,28,2185,892,-654
47,43,44,979,577,-108
63,18,61,250,-119,61
73,19,66,-568,-434,-660
101,-19,70,-377,-103,-660
101,-56,72,-123,84,-589
84,-49,64,-353,-111,-391
84,-46,52,-602,16,-263
91,-46,36,-453,-15,-84
91,-39,23,-10,88,174
103,-11,-3,-245,506,174
103,7,-25,-90,441,138
116,19,-38,46,522,241
127,42,-40,-181,481,139
126,33,-37,180,173,4
117,47,-41,-215,105,67
116,50,-41,-443,187,18
104,53,-44,-347,145,-57
111,60,-48,-296,297,48
126,76,-52,-97,433,20
119,85,-64,-86,138,-111
124,90,-75,-122,243,-265
-112,60,-82,402,151,-352
-127,67,45,-4004,1193,-3672
76,17,-82,-1609,-59,-4946
121,-98,-71,1054,209,-7627
47,88,106,2716,-187,-8571
71,116,120,2850,-1729,-6767
96,-62,-121,5230,-4846,-5378
21,-99,68,5642,-464,-1849
10,-86,-3,-3444,-2797,795
-82,31,9,286,1296,468
76,101,-20,-351,289,221
64,99,-102,595,398,-291
-122,30,-4,-158,299,6
-57,4,37,194,614,232
0,15,40,-351,997,419
79,-79,-95,-184,2224,1123
-65,-96,-57,-977,3733,1872
34,-35,99,-2596,3186,3144
-106,-20,-67,-1643,3063,4547
-21,21,-95,-1565,3697,4894
64,-5,40,-3028,2889,4524
67,-80,87,-5726,1343,4612
-15,38,-96,-2406,-899,3772
67,16,35,277,-744,3824
48,-83,37,4335,301,3132
42,92,60,1956,-680,2890
-116,-112,5,-84,-419,487
63,-35,17,1774,498,-876
13,99,-7,2872,570,-1062
2,19,31,2355,225,-1190
54,-23,43,1269,469,-826
60,-29,84,42,118,-473
61,-70,83,-343,159,-492
72,-89,85,29,131,-309
85,-93,92,178,250,-136
116,-84,72,21,549,131
107,-65,58,-235,318,385
88,-45,39,-256,269,421
83,-13,19,-456,289,320
85,-8,8,-380,303,301
89,3,-3,-326,295,362
82,28,-14,-379,172,358
76,41,-16,-236,263,261
88,49,-19,-80,400,68
97,44,-33,-31,262,64
118,46,-28,-188,346,-128
-112,34,-30,-143,467,-186
118,23,-40,110,364,-215
84,23,-43,-134,204,-262
102,14,-42,-374,522,-102
-108,33,-49,-373,510,64
-121,-86,-118,1290,1154,-7459
-105,-108,-89,1119,-1964,-7818
104,-77,89,1709,-3221,-7610
109,100,90,4173,-4009,-7231
24,95,-94,8096,-8787,-5680
90,-95,-73,365,-434,45
77,-126,-88,-2258,-2215,590
-48,49,27,288,1433,32
35,72,-123,-1012,687,169
51,42,34,257,-69,105
68,40,107,-516,319,5
125,38,126,-146,421,241
-42,20,-84,-462,1381,104
37,-68,4,-269,1767,1426
-4,85,60,-261,5046,884
56,-71,-88,-3797,5790,2295
-117,-52,53,-6506,3741,1872
-91,72,-104,-1851,3119,5675
-98,90,111,-3391,555,5590
-24,17,-101,-1190,311,6824
32,-41,-44,-1875,-640,3627
90,-104,39,-92,-423,4234
21,-41,46,373,-232,2067
-115,81,113,2656,-1225,1942
50,69,96,2349,-874,19
15,-17,21,1635,857,-1187
8,119,36,1607,1360,-830
15,98,8,555,1149,-820
39,87,14,-680,307,-724
57,-3,36,-36,-229,-371
56,13,37,-273,-104,-563
69,11,34,-266,402,-159
63,-10,27,108,369,-29
64,17,0,-139,204,214
73,42,-3,-303,136,373
94,57,2,-32,356,305
113,63,-6,480,480,40
115,97,0,-32,375,-104
100,89,-8,-76,283,-74
96,71,-21,91,318,-36
103,78,-37,-191,288,-27
109,87,-38,-253,115,-20
116,80,-40,-68,240,-1
116,87,-44,-30,74,28
121,103,-48,-264,188,-11
126,98,-43,-127,244,-196
-119,106,-45,21,362,284
-127,93,-54,231,153,-250
-109,117,-68,-359,474,-6
-111,115,-64,-332,252,27
55,-86,9,-773,-1320,-5987
-81,-73,26,2093,-2383,-6985
-128,67,105,1794,-3573,-6641
64,-84,-27,5757,-5059,-4462
127,112,-118,7298,-4862,-3204
-67,-26,75,-992,-2399,1053
30,120,-67,-1484,866,-31
-128,99,-8,621,617,632
81,80,-100,-577,812,-301
74,11,10,40,-81,454
-117,50,28,-295,576,-21
-31,-3,127,-403,1054,343
36,-17,-73,-1486,1733,1164
-88,-97,-29,-1252,3379,1682
86,-65,-100,-2069,4732,2531
-97,-44,4,-2144,4517,3980
-18,45,113,-1815,4154,4501
101,-51,7,-3254,4121,4992
-121,-8,-100,1271,3111,5309
-107,-21,-88,-488,3024,6409
-21,118,-85,-1174,695,3399
22,11,56,550,-1391,2877
115,29,-19,1171,-424,593
34,-29,35,1675,-222,-198
5,-109,56,1731,13,-467
14,122,57,484,577,-1000
20,36,61,412,396,-1282
10,-74,90,1091,-176,-1028
60,-81,87,41,271,-652
58,-111,104,-72,61,-330
63,-112,102,-136,22,-33
51,-87,100,-280,102,211
60,-40,83,-654,357,178
65,-16,57,-428,428,219
71,17,38,-257,283,375
77,39,25,-234,414,-65
89,48,19,34,718,-360
96,49,1,97,606,-191
91,50,4,-205,12,-125
91,37,0,-183,-59,20
110,37,-8,-306,245,-84
110,35,-16,-98,228,-64
103,32,-19,12,133,-87
107,31,-23,-158,244,-38
114,36,-30,-256,316,121
119,58,-40,-289,200,145
126,77,-48,-326,301,93
-127,90,-58,-338,301,80
-122,106,-72,-282,277,43
-123,111,-82,-298,239,-124
21,-46,-6,-2338,-354,-5430
84,-51,69,1398,-3127,-6510
37,90,35,1210,-4067,-7839
-114,62,67,3870,-6913,-7203
114,-101,70,5487,-7209,-2759
-36,-124,-65,-2498,-4925,-951
-25,-1,97,237,926,-583
63,-110,50,-637,731,679
15,78,-76,213,359,275
24,-120,92,-360,728,-329
36,75,-77,-69,136,139
103,82,-53,-416,972,-58
-87,-4,36,-769,847,1433
67,-62,37,-1671,4592,181
-98,-76,-21,-2954,5146,1304
-50,-89,48,-1321,3024,3714
80,74,-72,-2123,3507,4679
-91,115,-128,-901,2809,4701
-53,86,52,-2260,2681,4143
4,115,89,-1477,2125,5489
4,47,-23,997,1507,4695
-128,45,0,1528,1906,4026
77,54,25,611,1013,2934
-37,-122,51,-446,-1152,2656
107,98,18,266,-1147,619
40,-49,26,2357,76,-843
26,127,22,2268,479,-728
6,114,34,677,-14,-470
31,76,63,-265,-161,-330
34,6,105,292,-150,-562
48,-30,108,265,283,-607
38,-3,87,-536,73,-293
62,-17,55,-222,608,16
81,9,22,-97,413,-22
81,34,0,-139,79,138
83,58,3,-387,127,253
78,82,5,-340,176,111
83,85,12,-162,175,104
84,101,8,-250,233,-68
92,86,0,-9,306,-159
103,78,-3,87,364,-139
109,78,-21,-160,360,-161
117,77,-33,-138,409,48
123,92,-43,-194,232,101
-124,108,-40,-146,190,54
-128,120,-37,-204,262,37
124,121,-37,-97,261,-41
-128,123,-41,-217,260,-31
-115,-127,-45,-261,289,-16
-107,-122,-46,-180,252,-66
-3,-31,40,-3069,1184,-5162
121,-104,95,-835,-451,-6264
103,86,-92,2669,-3076,-6445
-15,-82,79,4658,-4360,-5863
-1,35,-72,2675,-6983,-8007
107,-87,49,3134,-2272,-3108
16,-87,58,-255,-7171,-747
-115,109,52,-358,141,-190
-121,2,97,-413,1219,943
60,-7,-85,-253,1091,225
2,118,-1,358,-267,456
85,124,108,-100,380,-437
105,75,-66,-589,426,2
-44,-3,1,-568,1205,277
59,-85,62,-1080,2377,937
-35,84,62,-2679,4830,1927
46,97,-115,-2883,5157,3412
120,-18,-15,-3562,4667,4475
-59,-113,119,-3070,2545,5900
111,113,-117,-3927,1004,6545
87,-96,-62,-587,530,4751
-53,-82,88,246,-46,4603
102,-99,25,712,-122,3103
6,-127,53,1690,-529,3072
-114,-47,15,479,-337,1013
65,41,-26,2387,193,-720
15,-68,-3,3294,-9,-814
-28,-117,-2,1047,15,-996
5,59,37,267,323,-449
21,13,49,181,64,-230
40,9,62,-413,-135,-357
53,34,71,-742,-55,-415
22,-40,72,300,228,-87
43,35,46,-282,523,247
47,57,23,-290,224,-68
57,58,17,-191,373,163
73,96,-3,-392,353,-60
69,92,-11,-120,261,-124
84,93,-19,-201,307,-233
103,82,-25,-152,387,-194
103,81,-33,-259,223,-219
81,68,-45,-148,304,-155
92,73,-44,-44,343,-131
111,56,-55,238,385,59
123,98,-61,-427,172,110
121,89,-68,-150,245,165
112,107,-66,-233,140,186
121,117,-63,-89,296,247
124,-117,-68,-209,158,203
119,-113,-62,-28,187,153
-7,78,-105,-3089,2128,-5060
48,-21,70,-627,1039,-5461
-55,43,89,1206,-799,-6669
-9,-7,-1,1114,-1606,-9309
-3,-16,-110,2630,-2235,-9286
120,-50,11,10706,-6386,-7431
6,-63,26,3205,-297,-1522
106,12,118,-3183,-2038,1463
-94,-44,-25,828,1386,760
22,-102,11,-632,732,84
28,55,59,580,-32,21
84,82,-126,-637,301,-40
-105,6,-72,355,538,-45
-99,63,-126,-495,247,377
-75,61,96,-85,490,29
20,8,-13,-877,1381,558
-69,-119,126,-1957,2737,1799
106,77,10,-3935,5148,3480
-81,50,-30,-7145,4664,4789
-127,-75,27,-4659,411,7340
8,123,-48,2397,-449,7081
-48,53,-28,-441,1445,6019
111,49,39,1989,810,3516
-101,37,4,1699,1170,3785
76,106,75,145,937,3680
-85,-51,90,-784,-1286,2256
56,-119,76,1161,-1455,116
-36,-97,67,3413,-1285,-1263
-19,106,50,3151,-160,-1063
5,109,59,1009,1054,-859
-5,74,45,-672,1004,-843
2,32,65,-602,-144,-594
22,15,80,-345,-411,-679
50,-3,95,-244,-77,-738
52,-15,86,-185,441,-651
54,-31,66,4,378,-390
49,-15,37,-239,198,33
50,12,24,-532,184,243
56,34,11,-488,198,239
67,52,0,-357,254,339
67,73,-4,-283,277,409
68,93,-22,-216,294,215
85,108,-24,-298,200,157
82,117,-21,-318,126,172
67,123,-23,-129,176,8
85,123,-29,-165,406,-78
97,118,-35,-87,296,22
95,127,-38,-153,57,47
86,-123,-39,-211,251,-98
93,-126,-42,-239,330,-49
