AccX,AccY,AccZ,GyroX,GyroY,GyroZ
126,18,-112,3736,2112,-6252
-110,-43,18,4712,-354,-7416
-111,-88,-121,2146,-2662,-6943
113,45,-103,-1446,-2296,-5242
60,87,-109,1472,-1675,-2044
91,-66,93,-1100,726,2099
-120,26,-126,-330,3258,5763
-105,102,-106,-3123,3642,7644
-86,-113,122,4366,2926,6966
121,-62,65,-4840,-38,1520
-49,113,-53,3118,-1647,-6166
36,75,-68,-1077,-2680,-7674
127,-107,-12,-2061,-2033,-6795
121,3,81,-517,-1237,-4271
107,-126,125,-608,340,-611
-15,-84,-37,-321,1916,3849
-80,53,43,-139,4573,7218
123,-68,78,1260,4403,7575
-24,-21,-84,-3278,2741,1798
-92,-126,118,3885,2138,-2940
114,90,100,1469,1028,-5345
40,120,2,-169,-890,-6813
-103,5,-100,-512,-2141,-6594
50,55,45,-255,-2903,-5683
37,46,32,2613,-2699,-4175
-126,-38,103,3489,-2865,-2326
38,-89,-105,2356,-1066,258
-126,-100,-95,326,1030,982
14,-85,-87,1050,48,3562
-24,22,-76,-1318,1300,4136
7,-8,98,-438,553,-65
9,-2,98,-451,507,-132
8,-7,106,-389,514,-93
4,-7,107,-429,484,-125
5,-10,111,-451,552,-83
11,-3,111,-458,637,-132
5,-6,120,-425,531,-80
8,-8,122,-432,629,-51
11,-3,119,-420,648,-77
19,5,118,-577,730,-153
33,8,-104,-303,398,-43
20,1,-107,-333,439,-40
23,0,-112,-298,543,13
22,4,-120,-325,561,-4
22,3,-124,-207,508,-40
19,1,-124,-198,396,-32
25,5,-125,-252,582,-133
22,-9,-114,15,641,-218
21,-18,-119,-177,636,-111
22,-14,-118,-248,640,-142
57,58,-62,3992,-462,-5402
75,-32,77,2333,-3183,-5812
94,-99,31,-2235,-2721,-5992
-4,-102,114,-617,-1725,-3991
-96,-80,-15,1085,-242,-1162
117,-70,65,-1674,2420,3217
-32,30,62,-2125,3857,6608
90,-67,38,2583,3526,8113
-52,16,50,-3775,124,1445
-75,-82,-18,2779,-2574,-4990
-59,120,125,-555,-3276,-6915
-26,7,54,-2258,-2804,-6556
119,-51,-50,-2,-766,-3750
-79,-21,15,-1973,1478,1099
7,68,91,145,3887,5898
-90,10,115,-411,5183,7446
-102,118,18,143,4210,3272
97,-42,80,1267,1486,-1704
92,-101,20,2588,1256,-5833
-29,-89,85,692,-726,-6324
63,-70,-28,1307,-1368,-5660
-82,-67,69,-1937,-3027,-4222
18,-26,87,1793,-2470,-3000
65,-112,127,2656,-2429,-1328
-127,-9,-126,-567,-1510,-66
59,-56,-56,1343,-223,1691
46,45,-42,-2112,454,3865
-90,-85,6,-1071,32,6866
35,10,-25,-3122,3075,6402
115,50,59,-3776,-730,4070
-58,-59,89,834,-884,-1750
-62,74,-49,2071,229,-1325
-113,109,-117,350,58,-709
80,-11,64,44,-359,727
106,-91,-2,-104,51,1172
-127,-9,-52,-1344,52,1390
119,-11,-78,-66,721,2019
-126,42,-75,262,585,2606
-81,104,-126,-203,1321,2764
-32,-96,-61,-147,621,3407
-26,-117,-41,174,958,2775
-24,-98,-40,-996,747,3099
-16,72,-35,273,391,2672
-48,100,45,-846,293,2402
-91,35,29,404,767,1279
-115,2,58,747,1246,802
125,2,25,-16,998,225
78,-82,19,-90,167,-21
78,-117,37,-850,129,-249
-118,36,-6,12,1157,-447
71,107,16,3862,1613,-4878
73,98,-51,4358,-1744,-5730
-120,60,53,3,-3860,-5609
-125,91,57,-284,-3441,-4637
-16,61,-76,-409,-2453,-2596
107,-70,-127,467,82,-105
75,-105,105,-1310,4076,4981
48,-114,87,-4394,4380,7141
6,-87,58,5471,3817,5899
100,-60,2,-214,-595,-2301
72,95,98,514,-3325,-6200
34,-29,14,-2396,-3340,-5799
-7,-67,-62,173,-2090,-3565
-126,-106,-72,-2025,662,-442
16,-28,9,750,3920,4546
-67,-111,34,-1291,4912,6705
115,-65,-27,1933,3969,3944
64,-8,88,294,1497,-1862
-100,-127,-61,1836,848,-5084
33,125,48,861,-659,-5679
-122,-53,69,-299,-1685,-5586
80,-125,-19,-4096,30,-6754
32,13,-113,-1048,-1912,-4915
112,-7,-3,1769,-1477,-3398
-28,126,66,2930,-1470,-325
-2,-23,7,1072,21,482
-71,-2,109,-55,-482,4234
-14,-122,-93,-1568,933,3423
-62,77,99,-3436,-784,5377
-120,9,-79,-2791,624,4544
-76,-52,40,-3221,-2071,2919
-79,22,-99,2499,907,-1394
79,52,35,1623,-654,-390
70,-73,-66,-499,-1184,417
98,-38,106,-713,311,124
-126,-25,69,-372,225,841
112,-46,23,-759,101,1264
-108,31,28,-857,758,696
-91,-107,63,-729,1935,580
-104,125,-14,-360,472,2485
98,-89,39,-741,152,2988
-42,107,-24,-100,608,3032
9,-112,-5,229,941,3365
-51,-104,1,-691,-254,3255
-22,-106,55,-440,-665,3058
-14,124,59,901,553,2650
-114,92,122,495,-362,2087
121,46,126,-162,657,1377
86,-2,-92,496,303,1300
75,32,85,-1110,391,127
38,82,77,1877,1369,-5723
56,54,71,4525,-2531,-5804
20,-119,-73,2340,-2497,-6993
45,-115,93,-1438,-3311,-6168
-13,-82,60,-378,-2860,-4623
14,-65,37,-942,-702,-689
101,-98,49,-307,3226,3024
2,-18,123,-1186,4494,6338
-34,-3,-59,-640,4372,7738
-73,1,2,4047,5136,2881
-102,-115,115,130,-2504,-2956
65,99,90,-691,-3652,-5319
-65,39,111,-2147,-4571,-5477
27,-48,-4,-778,-2592,-4015
3,59,121,-1331,-111,-832
124,-56,95,527,3802,4026
53,79,-27,-2627,5804,6998
56,-30,-85,4777,5651,4913
-60,-31,87,-3228,1853,-660
1,-90,-121,3631,957,-4701
-84,-47,115,262,-643,-6132
98,116,80,931,-1987,-6030
63,46,53,730,-2648,-5157
119,-52,-75,-649,-3291,-3783
125,-69,-93,2711,-3164,-2315
-13,-102,113,1227,-2318,-264
-4,-103,-68,1323,-437,824
-44,-53,-28,962,1509,3375
-44,76,17,-2860,1802,4144
97,87,29,-2773,839,5422
92,-57,-102,-2971,445,7427
35,59,126,-5427,968,3145
-79,119,-56,52,-1338,-219
-70,42,92,2934,609,-1150
119,-4,30,-346,-328,-291
-111,73,-71,-433,1002,-479
-115,-45,77,-455,-73,304
-119,125,25,126,-264,668
-88,-72,-17,-1094,693,798
-63,-46,-49,-1215,264,1754
-75,-14,-28,-58,292,2368
-29,4,-31,386,262,2876
54,77,-60,-249,849,3075
-10,96,-44,161,371,3784
97,-86,-3,-347,211,2987
52,124,2,1093,353,2817
-46,99,114,808,95,2157
-49,101,78,-769,910,1613
111,2,-115,1102,577,1274
109,-22,85,1025,929,573
-39,-115,-22,1334,1133,-5648
-59,55,77,3557,-1601,-6371
-103,-37,43,2908,-2631,-7033
-69,-113,25,-800,-3201,-6467
-42,26,-14,183,-1841,-3958
114,-108,-128,-1203,334,304
101,19,66,-483,4506,5753
-67,49,41,-962,5793,8742
43,-23,122,-479,5327,7620
-123,-44,-35,-939,853,2267
-109,20,49,2423,-4107,-4921
-34,39,-55,-1869,-3485,-6214
101,-74,92,-1864,-3582,-6877
-42,-39,-53,-220,-1687,-4985
-13,115,-51,-1393,-1265,-1864
9,-128,-62,1635,2633,3854
-46,-113,-63,-919,5219,7305
120,-14,41,-105,5808,7185
-58,42,-42,-1550,2946,1245
36,85,-126,4824,-92,-3882
-98,118,-103,30,-237,-5823
-33,-55,99,-1108,-2324,-7307
-70,82,49,-150,-2286,-7402
41,91,83,-1128,-2512,-5688
-108,-47,29,-277,-2318,-3537
34,74,-88,2849,-1382,-1567
29,125,5,1453,-242,-576
85,64,-18,1015,856,1585
-121,-113,118,68,1352,3516
56,92,104,-1507,642,5066
31,-122,-55,-2695,706,5848
-72,81,71,-3497,-479,7693
10,-126,-103,-1841,-3346,5979
-38,-92,4,-901,1528,-1551
-16,-95,62,4698,-788,-936
-54,24,-81,-1333,592,-1498
-91,-13,-115,463,74,-369
-117,-92,26,-333,-529,522
100,-88,-49,-2102,-39,963
125,-101,-60,-1230,723,1334
-90,-13,-70,-1060,382,2519
127,-10,-50,459,800,2980
-3,74,-61,514,910,3321
47,107,-19,1512,861,3481
51,-103,-15,576,1025,3033
56,116,-1,-362,527,3070
-76,86,81,-684,300,2535
-49,15,-126,601,487,2374
-115,64,93,-657,733,1427
71,39,90,-229,-135,399
-125,-14,22,5023,1079,-4849
-128,-76,44,3773,-1108,-5981
-67,-8,123,1187,-3716,-6663
-110,-79,111,-673,-3241,-6080
-118,-44,85,-1098,-3053,-4839
40,-115,-100,-810,-1606,-2432
-42,-84,119,1128,1512,2023
1,40,10,-427,4531,6734
-27,85,67,-2139,5402,7141
-98,67,-60,1493,4555,4724
24,-91,-44,-96,-841,-452
100,46,31,400,-3429,-6507
17,123,50,-2756,-3849,-6717
-74,-26,110,-819,-2357,-5522
95,-93,-118,-1257,-1127,-2622
-55,101,-53,1457,3379,4741
80,68,118,-304,5328,7431
-56,98,-59,1611,5830,6886
-88,-53,54,-1572,2436,572
-104,86,27,3945,218,-4717
-127,-93,113,-531,-1422,-6968
-92,43,97,-1762,-1677,-7556
-16,110,-40,-56,-2972,-6375
65,-27,-81,693,-3104,-4951
-14,0,-55,727,-3271,-3094
-58,48,-89,2610,-1778,-1128
-93,-112,-67,1533,73,469
62,95,-21,-31,507,3796
-41,-10,-93,-3782,1445,4599
17,-125,9,-3525,459,6426
-121,-51,84,-2905,-2156,8167
26,-121,40,-3000,-3254,3408
-122,97,75,3055,1972,-1473
-110,66,62,1635,-159,-1454
-78,-95,-64,-374,145,-884
-77,-13,47,-551,22,-631
-96,-127,-7,-293,-425,-16
79,-71,-17,-1386,-14,1237
93,17,-48,-1788,441,1658
93,51,-33,713,-68,2394
-91,49,-22,1927,70,2809
-15,-123,-13,1,365,3221
0,60,-20,2123,793,3599
66,-43,46,168,-282,3605
59,-118,74,1477,1263,2857
-111,-85,94,-32,439,2237
-128,95,-99,290,223,2342
125,25,62,651,1743,779
56,-4,67,146,208,497
46,-88,55,-341,118,-23
79,-75,76,758,2519,-6134
-71,-92,-92,3222,301,-6628
-38,-65,87,2414,-1553,-7273
-18,-100,-85,1945,-2826,-7700
61,63,-90,-287,-2800,-4731
-89,-99,10,1746,-271,-302
-33,-120,-82,-1204,3288,6354
-38,115,-59,-3142,4576,7753
-28,-80,5,118,3464,8611
-47,-33,92,-1319,1853,1190
-93,86,-102,1309,-2889,-4914
126,117,-102,-1826,-3129,-6793
108,124,-104,-1523,-2475,-7718
-25,60,-86,279,-1166,-5369
-30,119,-113,-243,-28,-355
58,30,55,985,2691,5833
25,-71,35,264,4693,7579
-25,65,37,259,5491,7886
-27,-65,109,-1825,3845,2122
-57,86,68,4933,-1394,-4702
108,-94,55,-907,-1646,-6838
-97,77,97,-1635,-1960,-7665
-17,110,-52,-267,-2893,-6695
-26,14,83,1196,-3056,-5467
-92,125,-37,787,-2459,-2821
40,3,-65,2144,-1072,35
77,97,-3,167,965,1928
-111,-18,8,-1948,1620,4274
-98,83,21,-2400,1571,5381
-45,113,125,-4503,-63,7719
68,58,-41,-1644,-2102,6490
-103,-77,-81,-2395,-310,-1156
-61,76,-111,4840,301,-1518
-107,54,53,-610,-116,-1091
-75,-63,82,-322,238,-30
-112,-61,62,-228,-1046,798
-102,125,-3,-563,41,1208
-125,-20,6,-1460,131,1597
-82,-54,-40,799,971,2551
119,41,-4,-345,597,3295
35,31,-84,1123,1595,3070
80,111,-94,-618,1559,3484
-72,93,-107,1276,1263,2628
75,114,71,1158,-40,4149
-14,-75,107,-954,848,3162
-69,-105,94,130,308,2758
119,91,127,569,483,1466
61,53,81,220,251,570
19,-46,92,146,-116,-238
36,-117,116,-214,401,-350
68,96,48,5013,-702,-5956
-109,-24,-94,966,-3074,-7138
-65,105,52,-1264,-3353,-6488
124,-82,50,313,-3361,-4829
-44,89,120,1280,-2453,-2885
-128,-97,-20,191,1998,2218
5,79,66,-1706,5512,5925
61,-102,39,-3257,5840,7759
-53,27,-99,1756,5072,6995
101,-118,-122,1097,-354,561
65,48,37,317,-3404,-6070
4,75,9,-2751,-3089,-6917
62,-100,12,-1715,-2773,-6849
-93,44,27,-98,-1410,-4612
-106,-121,113,-591,-240,69
32,-63,32,1602,2480,4646
28,99,68,-422,4896,7511
56,-91,24,1910,4934,7016
-51,-36,19,-4477,2233,2467
15,93,-45,4890,515,-3967
-22,83,82,1354,-147,-6418
122,43,-90,-332,-876,-6747
24,-118,112,-1405,-580,-7424
73,-62,-1,14,-2425,-5039
105,51,-82,99,-3044,-3686
36,-118,19,2423,-2803,-1850
-74,-117,-69,1752,-1639,-524
-107,-62,31,40,-1068,1848
124,23,83,-994,1433,2066
51,-59,-7,126,836,4962
5,120,-108,-3514,2857,4623
-126,-71,50,-4201,500,8103
20,89,-29,-4302,-4818,8375
85,10,43,2383,2497,-2164
-68,113,117,3564,-1574,-1124
-58,-12,-78,-1578,81,-1636
-84,-10,123,-116,643,-988
73,-75,74,-67,-530,137
64,-69,19,-992,829,392
44,-50,14,-907,863,1172
108,13,0,-815,951,2196
-115,48,-18,-193,751,2023
-71,90,-18,-308,532,2313
3,89,-12,30,194,2460
-20,75,-11,-214,563,2423
-20,75,27,578,-68,2585
1,64,45,419,273,2491
-28,95,60,-749,556,1992
-54,-24,67,543,443,1800
-71,-11,63,-135,588,1641
-35,-90,-76,3171,-1852,-4751
9,38,-116,1736,-3213,-5009
69,-50,-60,-1042,-3503,-4970
31,-101,-1,-996,-2010,-3043
-15,-34,-115,1283,295,-488
60,-121,108,-1578,3309,5571
68,-46,38,-2007,5162,7433
66,-68,75,-692,5731,8851
14,-6,100,-3272,162,3726
-53,46,56,5294,-691,-4695
95,14,17,-279,-3301,-6014
-42,61,2,-827,-4361,-7316
114,-118,-39,-1015,-2132,-5558
99,110,-26,146,-1396,-3042
-128,-126,73,17,1162,3160
-19,28,-26,-448,3776,7250
3,102,-80,-2248,5433,8656
-101,54,10,-1915,2637,5011
6,112,-101,2112,1777,693
26,17,115,5104,1098,-4813
84,38,26,739,316,-6393
-45,43,9,615,-333,-7511
101,22,-50,1271,-771,-7455
8,61,-53,121,-2676,-5870
-1,-75,113,578,-2991,-3315
126,-98,-1,3576,-2649,-302
1,23,23,2322,-1103,1049
90,-82,78,-1041,-614,2543
-76,-98,-74,14,745,4180
-80,32,-56,-2117,1159,4715
-120,46,89,-4389,1775,6482
68,-9,89,-6140,726,5697
-54,-113,103,-2868,-139,1562
-52,69,-73,3808,-407,-1685
-86,79,-38,1479,314,-1429
-81,44,48,336,443,-256
-97,-74,49,-1293,-206,728
-60,-128,-8,-1457,712,1263
-97,-61,-42,-2242,-49,1505
-59,-21,-74,-384,-50,2047
0,10,-71,240,66,2093
2,90,-41,-379,210,2572
12,45,-32,1710,385,2747
97,97,-15,984,876,2697
23,57,-25,445,1052,2269
17,23,19,-83,569,2399
22,-25,-8,330,977,2081
-72,-35,62,207,267,1866
-82,-37,81,171,513,1613
123,-66,67,930,600,638
36,-58,-55,3592,-760,-5595
-73,-33,-93,3349,-3531,-5991
-7,-55,-114,-468,-4026,-6087
-48,-126,122,354,-4146,-5060
71,14,-32,-1345,-2503,-3318
-61,59,-78,8,361,686
109,38,111,-760,3344,4597
124,-109,-68,-2952,5192,6876
123,44,-94,2022,3925,8447
85,-78,122,-5213,861,2387
-7,-111,-52,2505,-2817,-5511
80,103,126,-907,-1674,-6111
27,-71,-105,-453,-1234,-6154
-64,-14,115,-11,-1220,-4470
40,85,-35,175,-32,-1524
-17,-36,12,517,1414,2745
-73,31,-85,-201,4282,7343
-54,111,28,-212,5322,8266
-62,-76,74,-1650,3231,4092
-121,102,94,6136,973,-3813
-97,44,110,1235,994,-5962
40,68,127,189,-1193,-6370
-98,0,-9,1309,-2768,-5896
107,57,78,-2182,-3730,-5088
-81,-48,38,413,-3935,-3431
-87,-69,-54,2127,-3733,-1349
30,-91,109,1454,-2050,-638
94,-62,-19,-1084,-556,1420
74,89,67,266,1106,3346
31,-59,75,-1475,3131,3638
-6,21,80,-3023,3043,6069
12,-66,-88,-5261,818,7714
32,-64,75,-2931,-1155,3111
-19,-87,-16,1581,-2175,-1296
-56,-24,-92,152,-445,-1438
-115,100,72,1472,1013,-1256
-81,83,60,-283,-148,-1294
-94,-51,-7,-567,-727,-313
78,84,-59,-1076,202,629
80,-110,-39,-1523,447,995
113,-81,-53,-389,805,2002
-106,-24,-77,-292,1211,2762
-47,61,-72,843,403,3594
65,126,-54,746,1547,3271
96,88,-81,1190,1288,3219
77,112,-13,-122,374,3598
66,89,47,-97,927,3106
-55,121,-73,-301,129,2711
-61,79,-99,324,432,1887
120,41,-76,890,493,1212
-102,124,-17,1564,1435,-5066
16,104,9,4185,532,-5252
-124,36,-123,3642,-3585,-6100
-53,-15,30,-802,-3443,-6297
-91,84,123,972,-2605,-4727
11,-63,-69,-239,-2721,-3576
-119,-29,-99,-140,62,307
-74,-120,86,-648,3203,5388
40,34,-83,-2071,4941,7675
-36,22,-91,123,4826,9069
-47,72,-59,-2453,2578,5759
-88,88,122,2113,-2722,-3034
-92,19,50,3,-2067,-5659
125,67,-47,-827,-3017,-6914
104,-95,4,-2500,-3275,-5994
89,37,-117,-931,-1638,-4134
100,76,32,-380,327,-179
-92,-69,-110,251,1925,4558
-121,-51,99,-871,4652,7054
87,-35,-30,-873,4676,8940
-33,65,-53,-3630,1934,5089
15,124,-112,4605,1204,-917
-103,16,116,2198,368,-5610
79,55,23,707,-1187,-6722
-33,-56,35,-798,-2590,-8066
-107,-14,-94,2230,-2520,-6690
-72,39,-115,-2235,-2405,-4982
24,-122,82,395,-1141,-3425
40,-48,-116,1721,-1343,-632
45,-24,100,2820,-743,-255
78,72,-120,1070,177,1003
98,-21,-47,-478,1535,3716
-102,76,-16,-2480,1952,5798
-25,6,125,-5872,1676,8846
-66,-96,-19,-7126,-479,5540
-59,102,57,3330,630,-2140
99,91,24,3492,-610,-1896
83,-124,88,456,99,-234
30,-78,-110,-1376,-209,1323
56,-15,72,-2003,-416,1489
101,-18,19,-2352,324,1328
89,-20,40,-460,52,2944
-79,22,9,24,690,2477
9,60,-31,431,1726,2538
39,88,-58,559,1164,2894
68,42,-88,801,1442,2619
102,50,-51,443,572,3100
64,79,-34,-194,682,2715
21,64,47,1074,429,2734
9,-7,37,1699,969,2358
-107,-101,-30,1964,-456,-5595
124,-63,3,1764,-458,-5637
0,10,-30,1799,-2101,-7214
-111,-91,-22,78,-2540,-6148
-114,-126,-88,-475,-1877,-5309
-59,-18,-105,214,-1442,-2628
80,42,1,-895,278,439
-115,-93,118,1277,2681,5164
-73,-116,35,-2655,4407,7439
57,80,-94,1183,4923,7922
93,-14,48,-1646,1144,3191
94,53,93,1883,-3053,-3491
39,48,-32,-257,-2546,-5371
66,107,87,12,-3712,-6602
23,102,79,-2341,-2879,-5838
33,-91,107,-160,-1825,-3180
-103,105,-116,0,1968,2935
-26,69,-72,-615,5271,7399
-102,57,27,-758,5184,8621
-106,-40,-90,-3661,3735,4366
-30,103,-83,4145,977,-1790
-115,55,89,1726,978,-4648
-72,70,-74,1186,-262,-5758
46,111,36,478,-2146,-5810
-114,56,-8,-358,-2274,-5456
-3,-84,-59,790,-2751,-4282
32,61,-102,1668,-2882,-2994
77,-84,54,1776,-1980,-1286
14,-106,121,1232,-794,168
49,-92,-104,407,374,1647
82,-57,-7,-363,1634,3780
56,56,16,-2752,2479,4335
16,-66,-113,-5312,1541,6035
-79,20,-76,-4915,-1510,6393
56,101,18,-795,-95,1004
-14,-25,27,3825,73,-1589
123,-2,-35,-367,-727,-858
-123,7,119,305,-26,142
110,0,52,-664,-646,412
102,-65,11,-733,-169,765
125,-5,-39,-1268,657,807
-77,-39,-59,342,739,1899
-127,-10,-95,471,1339,2863
22,20,-104,54,1301,3311
-23,104,-63,-321,53,4714
22,-54,-64,-2552,909,2624
43,11,-2,1227,344,4252
63,42,31,2479,703,3591
20,108,-86,1090,955,3115
-32,107,96,609,1751,2042
-21,-80,-48,4222,902,-6557
77,85,54,1852,-1860,-6480
-14,5,-93,961,-2871,-7151
17,-27,92,-1,-3756,-6745
116,0,-27,-1942,-2971,-6791
63,-70,-76,136,-2838,-3084
-2,-109,-28,731,2497,2454
-63,20,54,-1573,3934,6719
-2,73,-46,-925,4455,7733
17,102,106,1537,4703,7494
-110,-96,-25,-3024,490,2866
-83,74,66,2297,-1896,-4364
41,58,15,-253,-2147,-5428
61,-61,61,309,-2930,-6343
-41,43,115,-153,-2362,-4807
-83,98,-47,-802,-1592,-1499
0,87,-69,988,2432,4293
103,98,-101,-1094,4425,6584
62,-61,28,-2174,5528,7586
-76,-45,42,1452,4527,5020
127,72,95,3815,1244,-1267
-2,36,-5,1901,-172,-4684
57,74,-92,878,-1605,-5180
106,-21,55,1079,-2998,-6312
24,-1,53,-170,-3134,-6177
-3,111,-103,-569,-3301,-5643
-42,90,-100,1303,-2809,-3777
-65,109,110,-91,-3294,-2975
45,126,-106,1631,-1579,-472
88,122,39,-24,123,1696
-10,96,91,-247,1004,3671
36,-58,55,-911,2158,5324
-10,83,38,-2176,1899,6472
-50,-2,123,-5458,1383,8318
22,121,-31,-5591,-561,4680
-67,-105,-125,3076,746,-690
111,4,103,1621,-2171,-2836
-24,-84,37,1501,365,-1208
-124,-89,55,1617,-497,-460
124,-76,20,-1064,94,146
-78,124,-12,-1456,414,263
-115,-116,-54,-1135,615,2083
97,-72,-61,-559,400,2615
-97,1,-29,123,91,3380
-1,-22,-92,52,2042,3492
9,88,-48,628,728,4363
50,83,-26,1558,1007,3577
39,-105,19,-153,1562,3626
26,40,-11,630,1704,3237
-44,71,59,-639,419,3080
52,124,-97,5927,-2265,-3446
11,-16,68,1416,-361,-6196
104,68,-104,3340,-1872,-7211
-113,103,78,-976,-3811,-6923
-44,-56,-51,-1733,-3258,-6166
-88,102,34,-963,-2379,-4428
10,8,-32,-1043,-520,-1272
-57,-114,18,1582,3450,3833
-42,-94,14,-2346,5969,7094
-14,-103,-119,-229,6183,7828
112,121,-93,-910,3840,5557
42,57,-26,2051,-1127,-2487
106,50,-5,-629,-3239,-5037
116,95,10,-1639,-4045,-6089
-23,-36,77,-814,-3495,-5878
36,78,103,-1120,-1892,-3548
77,-12,-80,-271,-419,132
64,-76,-70,1235,3190,4839
85,1,56,-1203,5056,7329
-103,-96,-2,556,5206,7823
56,-106,74,186,2381,3376
59,60,-4,3231,308,-3785
-123,49,-65,1596,395,-5368
15,60,105,-602,-1986,-6251
-47,5,40,730,-2671,-6294
-44,88,-18,-2219,-2737,-5419
-48,2,-102,1231,-2681,-3714
-32,36,-66,658,-2436,-2241
35,-35,55,2141,-2184,-864
-22,37,-91,957,-305,278
-123,33,-55,353,409,2341
-127,53,-40,-1030,690,3920
-120,11,70,-1832,1704,5692
61,36,-98,-7021,1191,6519
-26,31,-7,-3965,-155,4854
-128,-43,-78,2560,724,-476
-52,-90,10,3106,33,-2641
-44,-69,-10,873,-549,-1257
-70,-71,59,-75,-422,-109
116,127,29,-443,-114,1094
-112,-82,-14,-1698,608,1306
110,-71,-73,-1559,269,2360
105,-87,-85,1109,155,3103
31,22,-118,-1,892,3650
26,40,-60,1284,1446,3943
86,-71,-88,164,1893,4220
77,101,-24,1570,1255,4194
5,-30,57,624,894,3368
-17,122,93,540,1246,2454
-104,108,90,-897,1400,1456
-96,109,-35,1886,-1259,-6189
-6,58,-50,2983,1214,-8315
-70,17,88,966,-5369,-7545
66,30,26,-2310,-2890,-6361
-13,-70,102,1187,-2505,-3625
44,61,5,-573,-1235,-439
-116,-24,89,-327,2672,4182
-20,49,-125,-554,5603,7291
125,-75,-99,-2444,4716,9197
-3,1,44,-572,3394,4539
-18,123,56,2427,-2302,-3791
-109,50,-94,-641,-1970,-5554
-41,95,-20,-1716,-3440,-6948
-7,-34,78,-825,-2579,-5428
-8,-63,-97,-242,-1251,-2693
102,-110,122,915,1622,3244
-7,118,-124,-980,4334,7583
-96,103,-42,-2334,3493,9676
-85,-19,-13,2246,1485,5881
-15,34,-89,4715,3025,-1661
-4,3,125,1113,543,-5470
116,49,122,-1076,-69,-6664
67,92,54,470,-1538,-7300
-19,-89,-15,-170,-2559,-6809
114,-61,-103,-614,-2974,-5392
46,-28,-59,2778,-2572,-3380
28,-52,35,2359,-2184,-1437
-45,-89,-92,420,-1116,485
82,-94,57,169,740,1922
-90,-29,29,-599,2061,3341
74,35,30,-2340,2288,5282
46,-119,-106,-4886,2635,6624
-71,-94,123,-9515,-794,8903
-78,-126,53,619,-1369,-208
77,2,6,5017,144,-2885
-57,-52,-28,387,-1912,-1640
-33,-1,102,330,724,-1404
120,-39,84,179,-197,-855
62,-127,11,-773,263,831
77,-57,11,-1899,175,1568
85,-92,-46,411,978,2398
121,21,-11,615,669,3470
-14,60,-85,-538,1576,3500
-19,-102,-15,699,223,4351
14,-72,-1,51,714,3428
12,82,13,1256,576,3317
-52,99,78,-549,968,3079
-20,-33,69,771,1049,3223
-82,48,-123,-456,964,2462
97,84,73,-642,907,1717
20,18,-47,1095,716,-6329
89,4,-60,2587,-2335,-6855
21,-113,106,1078,-2230,-7774
1,117,64,-653,-2894,-6618
-47,76,38,289,-3188,-5176
-56,48,-120,685,-1988,-2779
78,-27,-114,-599,1342,568
-116,-36,43,-1286,3431,6106
-45,-110,14,-2524,5013,7600
77,111,123,-1479,3823,8626
-109,-24,-39,-89,2018,4031
-33,82,-57,1909,-1902,-4721
-99,73,-14,158,-2099,-6180
11,123,60,-434,-3059,-7199
97,9,48,529,-2751,-5512
75,-35,-126,-25,-1854,-2360
-95,-75,-119,487,1503,2579
14,46,-69,-128,5152,7498
24,-53,6,-1513,6349,8389
-93,-49,0,-4975,3213,3480
12,110,96,4838,1401,-1491
-66,71,126,2978,734,-5127
-94,-113,11,999,-1997,-6743
-101,-63,-90,390,-2717,-6990
-56,35,112,553,-3987,-5669
70,40,61,608,-4297,-3565
69,52,-9,2397,-3256,-1128
88,47,30,2168,-819,699
81,111,90,-240,808,2949
22,33,38,-2354,2548,2208
17,71,30,-2125,2426,4991
-24,13,83,-5431,1867,6106
-9,-16,19,-6065,-3360,7792
-41,88,-46,-209,1991,258
0,116,-38,5879,-867,-2892
-29,-55,97,-435,-1323,-1180
-84,-55,55,-280,-635,-29
76,-106,67,-257,-213,967
56,-7,20,-2238,635,1603
-128,-4,35,-1562,417,2496
97,-48,15,301,1307,3300
60,34,-31,509,1436,3998
90,-109,-115,334,2094,4042
-84,120,-126,1175,1273,3373
-107,35,-97,1394,415,3746
61,50,-2,229,255,3313
2,36,79,-475,-466,2925
-56,-59,94,668,1466,2487
120,41,98,1172,302,1998
40,72,85,356,274,358
-65,40,-65,2764,640,-7748
-74,38,-81,2735,-2910,-7089
-22,-29,-56,927,-3267,-6645
6,-42,-106,-72,-3442,-5770
-51,67,-84,806,-2158,-3203
52,-18,86,-711,-19,1797
103,28,104,-97,4779,7325
-43,68,-103,-1497,5456,9359
-35,-63,99,-570,4629,8065
38,-112,-84,1047,-25,984
-119,30,85,1160,-1237,-4855
2,56,21,-1549,-1547,-6050
45,43,22,-126,-2450,-6835
6,105,57,-1323,-1728,-5994
5,54,-96,-277,-905,-3147
17,-90,-58,-1772,7,-60
-18,17,99,1070,1851,4830
4,83,89,-915,3846,6865
27,-123,36,-431,5444,8014
-109,-13,99,658,4991,6768
-37,86,54,2555,1251,-717
79,12,43,2675,-37,-4707
-126,79,75,538,-1389,-6177
43,-51,-23,-31,-3494,-6408
-49,80,-59,-163,-3629,-5856
126,-105,75,351,-3912,-4645
-98,24,-123,2160,-3391,-2611
-93,-9,-58,1956,-2160,-1171
-117,28,118,-957,-941,499
16,-122,-16,823,597,3030
-37,-53,44,-1175,2259,3727
-62,96,10,-4742,3114,6226
8,-29,-36,-2850,-564,6790
-123,71,53,-4803,-3112,1253
-53,10,19,4203,704,-2275
-76,-24,-68,-441,-191,-1598
114,-76,72,-395,-289,-67
86,-85,42,-634,-535,892
44,-32,4,-1951,361,1078
69,-13,38,-197,536,2546
-56,18,-13,551,978,2790
-65,50,-58,322,1121,3778
62,-103,-49,-41,821,3837
-117,76,-76,781,1932,3938
-128,108,-70,1853,301,4030
94,-104,25,-537,-559,3276
14,80,62,300,960,2400
-84,66,110,1125,316,2007
110,41,75,449,842,1127
50,-15,81,952,529,-91
59,-22,61,3555,662,-6249
-81,1,55,5154,-2170,-7171
14,-60,-123,-316,-4301,-7477
92,-43,-107,-293,-3227,-6147
24,105,-74,-343,-2717,-3924
30,83,55,-477,-409,60
16,2,29,1159,4243,5849
100,-120,-75,-4418,5052,8727
14,-54,120,2216,4483,8707
29,-45,1,-850,1303,4038
68,53,-54,3233,-2212,-5054
74,32,-66,-1137,-2647,-6222
101,86,44,-203,-2943,-7042
-40,-11,98,-551,-2460,-6345
-112,-13,111,-144,-1152,-3234
-82,30,49,-621,381,1494
-30,7,75,-50,5021,7967
-65,-12,58,-1612,5555,9255
-115,19,10,-2431,4979,3970
50,-104,34,3228,1779,-1583
7,58,18,2598,639,-4809
56,87,-75,2610,-211,-5568
0,119,-46,1764,-2973,-5840
-126,-25,68,-148,-4688,-5419
-127,-27,42,603,-4380,-4401
123,-13,124,1907,-3288,-2079
-66,-83,88,1002,-1788,-710
-60,79,-7,896,377,1839
91,-107,27,-408,2023,3811
66,10,62,-2247,2284,4970
83,51,93,-5104,1750,6493
-116,-112,93,-2072,-1222,5988
-10,-111,-119,-4992,-628,1075
-78,118,73,2791,215,-1570
-122,-117,-11,2384,190,-953
-112,90,99,-543,69,83
-125,-72,35,-958,-630,926
113,-21,-5,-2405,-110,1751
-92,-49,-42,-928,272,2221
-44,4,-58,11,246,3077
-61,68,-40,-297,829,3248
87,79,-91,795,1093,4107
107,-92,-72,444,693,3785
-124,-124,-126,924,1136,3107
63,122,-10,988,-1013,3736
-13,31,25,516,1280,2918
-62,100,37,649,725,2811
94,108,56,841,573,2619
63,-19,112,1650,760,-441
36,-73,93,1230,466,-1108
-38,-14,-74,3206,-620,-6235
115,-15,-40,3613,-1734,-7753
30,-49,56,412,-3182,-7572
-8,46,90,-577,-3661,-6287
-68,-73,-94,-1057,-2291,-4431
-3,67,-37,-169,-1294,-1488
-111,6,126,-990,1749,3124
15,39,-125,-637,4220,6561
-3,113,127,-1854,4056,8636
-47,-29,-117,-3519,2426,5637
36,-90,-94,1446,-1253,589
70,76,-33,1689,-1181,-5265
-110,71,99,87,-1619,-6104
34,-9,-53,-981,-3047,-6090
11,39,-1,-611,-2236,-4919
124,-55,94,-143,-1502,-2483
-60,82,53,-988,591,1378
34,-10,-17,938,4789,7422
102,100,-64,-1160,3751,9578
-15,-67,51,2410,2761,6840
-62,123,71,-700,969,-16
46,30,-54,3987,1266,-5549
8,37,-41,-515,1120,-6533
-113,102,93,-997,-251,-6662
-83,-119,58,2,-896,-6261
46,-17,17,-1212,-1581,-5340
126,107,-33,-2,-2040,-4061
-115,24,-2,883,-2275,-2665
-19,-46,97,2224,-1697,-1431
-70,-41,-120,1578,-1026,-395
-50,-4,-88,704,246,412
-114,-27,-122,716,760,2759
-128,68,-64,-2603,1736,2627
37,-80,-128,-1549,1979,5980
-33,-39,-68,-5645,1878,7985
124,18,-33,-5318,-2271,4554
13,22,30,2531,1109,-1460
117,-118,-115,3190,-416,-2181
-118,-35,9,-620,68,-1242
-121,-102,88,-484,-9,-48
-127,-104,26,-270,-784,705
112,126,-18,-1125,-682,1026
98,-43,-91,-2238,-119,1752
118,16,-105,-458,-1222,1744
115,-15,-95,1374,973,2951
85,57,-3,1317,-88,3810
23,125,-85,1021,1671,4103
-20,117,-26,1953,1040,4132
36,-13,31,-1486,453,3370
-11,97,106,1510,501,3726
-22,-126,44,3790,1043,-5590
-48,64,48,4827,157,-5565
18,46,-11,3474,-2413,-8205
-128,-121,-59,410,-4114,-6932
-90,20,110,-783,-3243,-6149
-30,67,88,-700,-2494,-3817
-13,52,-33,-1504,-837,-827
109,-62,-59,873,1857,3565
80,94,123,-1792,4691,7609
-31,-88,-74,-1440,3738,8677
-114,-105,-116,-1874,3197,4453
119,110,72,1746,-1154,-1526
-101,55,-45,734,-1307,-5202
28,106,118,194,-2155,-6042
97,30,-5,-435,-3087,-5703
22,-109,45,-453,-1946,-3893
104,83,122,-344,-1302,-737
-10,-80,-97,2107,1938,4099
123,109,55,-2010,6457,8818
72,86,20,3647,6600,7738
-7,30,71,-5677,2525,2114
31,50,42,6258,2161,-3506
124,54,-64,2993,1264,-4914
8,-15,-34,880,-598,-6150
-96,-5,-127,1217,-1984,-5836
-104,-118,38,-1078,-2725,-5346
-22,-99,-78,203,-3053,-4110
81,78,-72,540,-3524,-2739
-101,-122,40,2645,-2819,-892
-31,101,-83,2196,-1216,154
-51,-62,-46,26,-122,1266
-50,-97,11,764,1111,3614
113,23,28,-1957,2210,4762
119,-98,95,-4540,2704,6635
18,1,-118,-4126,-318,8723
107,54,97,-4431,-2429,-1231
105,64,-40,5895,1882,-1974
-117,-29,-62,1969,-70,-1565
-110,27,105,99,-38,-799
120,-29,53,-1530,-291,167
63,127,-1,-1346,348,790
58,-36,4,-1805,836,1780
82,-64,-22,-406,431,2554
-40,44,-28,-310,917,2923
-114,27,-12,589,852,3747
21,-123,-43,42,974,3532
58,98,-44,644,1039,3323
26,-121,12,1439,614,3382
22,71,14,773,1280,2171
-66,36,63,-141,1071,2163
-108,78,-56,4020,624,-7408
-54,-108,33,3630,-1989,-4701
2,-76,-118,509,-2746,-5612
64,-72,36,-860,-3396,-5248
95,21,-48,-1005,-3615,-4946
44,35,26,-1064,-2553,-3782
-114,-101,-19,179,-1178,-1162
123,117,-69,-107,2308,2624
38,88,-19,-579,4125,6260
-54,38,90,-2925,5775,8095
20,72,59,-881,4112,7035
94,-108,117,1505,304,1656
55,48,-11,2342,-1402,-4504
-18,59,-8,-1814,-2533,-5491
-10,45,14,536,-2650,-6070
-7,59,24,-962,-3232,-5079
-49,-58,102,-587,-1933,-3164
-6,1,-4,669,-362,-94
3,-73,-10,2257,3060,5059
-118,-121,23,-1376,6241,7852
124,-11,76,275,6058,7747
7,-57,-90,-2616,1549,3921
59,37,-67,4535,2336,-1342
0,19,-95,2916,1838,-5851
96,77,-120,-60,-74,-6938
104,124,-118,-811,-1123,-6784
-79,77,41,-747,-2142,-6414
81,-48,-47,-42,-2607,-5297
92,37,-45,1058,-2545,-3443
80,-39,-33,3320,-2765,-1443
16,11,90,2753,-1538,202
47,90,-107,750,-703,953
-4,35,78,737,1846,3003
-47,56,79,-2028,2238,4146
-55,51,73,-3147,1166,6912
-18,7,-26,-179,-1288,9054
17,22,117,-5971,516,449
9,-117,20,3781,200,-890
-52,18,-56,604,-338,-1633
-55,0,-118,-704,849,-674
126,-127,51,-855,-127,179
-111,92,17,-145,-167,570
-62,-91,-69,-2046,824,989
-108,-4,-65,-2293,-366,2651
-87,-31,-94,990,-526,3000
30,-127,-73,-542,99,3349
-32,122,-15,626,368,3600
73,-51,37,-400,-296,3829
109,-48,21,-1619,1299,2635
-18,-44,-58,1469,-1093,3054
87,11,29,4407,-167,-4730
-118,-66,96,3371,722,-6086
78,-92,-9,2923,-4008,-5921
-36,79,86,-500,-4460,-6061
42,66,44,-2071,-3656,-5478
-55,62,-68,-358,-2029,-3373
64,-31,-103,-707,345,138
-53,-97,111,-300,5783,6916
119,35,-125,-1808,6969,8386
-7,-55,72,-923,4166,6529
107,109,45,319,1047,1803
-59,37,-19,1643,-2857,-4037
120,52,-56,-988,-3265,-5243
-20,63,28,-823,-4415,-6473
-95,17,103,-1240,-3099,-5272
78,94,-101,-1232,-1887,-3098
40,-55,-64,1738,918,1784
-93,66,98,-350,5136,7053
-5,109,-56,-246,6337,8170
54,-91,-71,-374,6263,4981
-84,90,-120,1503,962,-1547
-56,59,107,3284,605,-4178
-82,120,-54,1089,-301,-6010
58,-108,105,719,-2530,-6179
-95,-91,80,471,-3118,-5760
69,-69,18,-429,-3468,-4426
86,109,28,252,-3085,-3451
-117,-33,62,1685,-2285,-1794
-58,-127,-58,1689,-1101,-244
-21,-100,8,922,572,1352
-107,-117,92,-152,1628,3674
-123,87,6,-2485,3286,3908
-102,-128,98,-4976,3303,6256
111,55,37,-5965,-575,6134
36,97,-100,-1814,-590,1728
123,-126,-79,3757,-328,-1625
99,47,29,49,-2902,-859
-42,9,125,-77,-224,-797
-120,-13,91,-832,-422,-786
90,-104,49,-383,57,666
98,-68,3,-1779,957,795
85,-57,46,-631,507,2188
-74,-11,-58,380,1291,2575
-125,116,9,-946,233,3553
24,100,-65,-24,1549,3698
61,-77,-40,453,148,3629
-35,-19,80,-274,-612,3751
-12,98,49,1103,1338,2908
-86,-80,65,-356,714,2260
-124,41,98,282,329,1830
71,-38,-69,3975,727,-4466
62,16,64,5010,-2405,-6523
-93,50,85,665,-3460,-6883
-112,21,127,483,-3104,-6559
-106,94,-108,-1166,-3003,-5564
-125,24,-106,366,-1520,-3037
67,36,94,-687,564,1196
4,-76,-100,-1676,5483,7724
-124,43,-63,-2286,4121,8994
7,15,-106,-55,3461,5639
-52,-85,-20,2535,-969,-1425
-40,35,75,1390,-1420,-4710
-14,71,-6,-178,-3246,-6123
108,-36,-37,-2523,-3654,-6625
19,-26,107,286,-2174,-4935
-57,-17,-125,-883,-1282,-1178
88,-96,-72,1965,3536,5173
122,-125,-64,-2669,5357,8142
-109,-56,-94,1983,4767,7810
110,-25,122,-1766,1485,736
-90,84,90,4398,1501,-3601
34,103,-29,1773,852,-5140
-65,110,-81,551,-560,-5783
15,-97,63,1109,-1683,-5551
66,112,-127,58,-3127,-5142
-41,-91,-42,364,-3132,-3635
-10,-26,29,2268,-2583,-1864
-30,-65,61,1261,-2293,-922
-56,124,-14,1485,-195,397
1,-127,12,-704,361,2628
102,-100,81,-1891,2591,4249
69,50,58,-5744,904,5656
114,126,78,-1892,-2188,10093
59,73,-85,-3589,572,4353
-46,-15,39,-985,-273,-237
-83,30,43,3347,293,-1874
-102,-73,-29,-286,363,-751
-103,7,80,-258,342,-593
-97,-36,-13,-1062,-561,-95
-106,-115,-36,-415,212,128
-82,-91,-47,-964,516,600
-128,-27,-67,-1372,102,2144
-120,-33,-41,623,607,2891
-19,33,-96,1348,1254,3282
17,-125,-43,1428,631,4254
44,-15,-24,66,1469,3271
35,-59,44,304,960,3478
-48,-110,113,-532,862,2566
-38,44,97,392,906,2436
-118,37,110,-126,573,1923
74,-69,20,5692,525,-5605
8,-28,-61,3893,-2870,-5775
-123,-19,23,-289,-3994,-6509
-84,-94,22,-1332,-3929,-5714
-87,31,17,-47,-3532,-4603
63,55,-96,-794,-2027,-2074
-37,91,-118,136,723,1905
-75,16,101,-2736,5453,8377
-39,24,-2,321,4928,9147
-13,-56,13,-3507,3215,4766
-120,-117,4,2580,-588,-498
92,65,-7,1470,-1806,-4932
-32,120,47,-957,-2757,-6533
111,97,24,-1076,-3032,-6057
35,122,-121,105,-1452,-3716
119,104,-80,-1370,-533,-246
51,-48,-118,1889,2710,4658
92,-84,126,-713,4849,7996
-47,20,27,-223,5409,9239
84,101,-79,-2517,2946,2656
59,91,107,3914,47,-3792
123,50,-45,478,1271,-5373
54,33,-125,207,-30,-7056
-44,63,70,-518,-1496,-7638
-17,109,16,723,-2173,-6438
-34,-66,-73,-916,-2993,-4547
-25,-28,23,2472,-2684,-2256
14,-87,-96,2363,-1285,-1038
-75,-67,-35,838,594,162
108,-117,-56,1426,1369,2140
-6,42,65,-2928,-866,3982
119,74,5,-2403,-568,6635
94,37,103,-3211,-807,7890
-35,68,124,-2940,820,5170
-46,96,56,-2422,-591,348
-26,104,-123,4572,1538,-2365
-87,39,11,581,-371,-1270
127,12,127,-93,236,-690
115,-46,44,-154,-404,-139
125,-77,5,-358,-212,154
120,-80,-40,-1058,1035,545
71,-43,-5,-763,92,1782
-115,-14,-32,-323,533,2579
-126,-127,1,-1084,218,3658
-59,55,-67,1780,1377,3187
38,17,-22,-198,148,4304
9,-95,18,1546,1010,2945
19,-111,39,1473,1565,3786
-84,-72,-94,-234,535,2256
-92,64,-78,502,2170,2137
-40,-122,-16,2963,-927,-6327
-78,-1,-109,2155,-1412,-7579
103,1,73,884,-4423,-7910
122,-34,114,-1530,-3406,-5832
0,100,119,-163,-2276,-3798
-87,30,16,273,-1731,-654
-110,-95,94,932,3627,4954
-111,95,25,-1615,6551,7933
96,27,20,-640,4781,9044
85,110,-77,-2688,965,5981
-37,72,38,2674,263,-1985
78,28,88,31,-2337,-5450
97,66,-92,-1567,-3475,-6455
7,-57,-53,-1641,-3504,-6758
123,-86,58,-64,-2590,-4852
-118,-15,75,-927,-1024,-2297
-113,70,-8,1308,492,1641
121,33,-7,1361,4541,7015
71,17,54,-1662,6638,8694
-37,22,2,1366,4733,9259
-22,-45,118,851,1189,2417
46,13,124,2723,1244,-3502
-122,8,-44,2199,1844,-6400
-107,58,-115,-906,-786,-7647
118,122,85,550,-1399,-7802
-103,117,79,-747,-2367,-6988
-23,-42,-34,280,-2891,-5431
-79,32,21,583,-2627,-3553
57,88,70,4243,-2318,-1345
-41,-67,-63,2163,-1715,-245
-13,49,20,2123,292,1151
-116,103,15,515,1871,2864
-85,50,-24,-2203,2226,4277
-73,96,85,-2946,2879,5754
88,-70,-90,-1879,478,8974
17,-52,31,-3339,-1437,2722
63,-76,-96,1230,1369,-422
113,-104,-24,-657,-939,-1495
-84,35,-78,1108,320,-934
-100,-111,55,-745,-826,-206
-120,111,10,-665,-361,611
-119,83,-58,-1349,841,726
98,-127,-96,-859,772,2241
-86,37,-6,1164,1850,3510
-75,-111,-44,-732,-1710,4768
70,112,-53,1676,1577,4268
120,101,73,-205,767,3803
97,-126,104,1854,1883,3898
-15,-38,125,344,1867,2928
-69,-44,118,1232,786,1611
-38,71,107,2373,993,-5189
68,-47,-16,3566,-3327,-6235
28,-37,74,-1095,-2150,-7202
17,80,44,243,-3433,-6059
-31,-62,41,-977,-2958,-4603
45,-25,-115,-1177,-2350,-2084
-123,-103,-113,-518,981,838
35,24,106,1404,4364,6570
-110,-58,80,-3867,5307,7979
-37,-47,98,1102,4423,7094
26,0,22,795,92,2515
-54,37,58,2398,-2404,-5331
24,69,73,-1527,-2620,-5270
123,-59,60,-916,-3338,-5620
15,-24,-12,-398,-2854,-4892
-120,53,63,-1306,-1790,-2760
116,79,-54,-63,-365,276
-89,-39,-11,2348,3556,4474
105,-90,-90,-735,6158,7571
-52,84,120,-79,4927,8364
-88,-107,53,-1017,3297,4429
-31,52,-72,2429,1155,-2318
-46,29,34,1978,369,-5374
-13,80,-59,-664,-907,-5848
-105,54,125,-679,-1566,-6570
-35,-104,59,-371,-1545,-6996
-128,18,3,-278,-2871,-5467
-128,16,73,517,-2374,-3536
108,-109,-102,2930,-2155,-1084
-52,-95,-42,1594,-909,-400
-28,-58,50,288,789,1286
-82,-53,23,226,2396,2668
-5,-117,47,-3902,4505,2834
-87,11,-66,-5901,-396,6149
45,-75,1,-2565,-712,8839
66,45,40,-4366,-1149,1126
-43,3,12,3593,735,-2205
-119,23,37,1488,-840,-1299
-63,9,-117,128,-4,-605
-125,-73,86,-805,-674,623
109,-89,37,-2033,-520,931
-122,-63,1,-1424,193,1531
79,-49,-30,-1085,304,2612
-84,31,-3,-146,405,2682
-39,71,-40,-329,728,3500
-20,120,25,-195,56,3783
61,-92,-16,-1570,1310,3112
49,58,12,3003,372,3814
-10,-45,73,-879,180,3232
-59,-115,-124,-1006,388,2212
-44,-57,89,6885,3582,-6776
41,105,114,4397,-1255,-5136
46,55,47,5186,-4030,-5366
-91,-83,-116,-1892,-5756,-6063
85,-104,102,398,-3550,-4628
57,-115,118,-1112,-3335,-2913
-116,-84,104,-1030,2205,2384
-102,-21,-114,-1390,5243,7384
-87,40,62,-4100,4371,8576
-117,-77,77,783,4559,6471
-90,-127,-113,1190,-177,406
-60,50,5,920,-1252,-5805
-34,122,-119,-916,-1979,-6525
-49,-36,16,-461,-2970,-6732
-117,104,68,693,-2160,-4891
-85,-99,-118,-122,-1512,-1504
42,51,-110,1258,1818,3875
95,-21,79,-470,5233,8223
117,-80,9,1832,4579,11056
-45,-103,120,-2461,4077,2413
41,83,-96,5185,-1602,-3724
58,71,4,1117,651,-5397
-38,69,-126,-665,-1415,-6234
-36,57,-10,-841,-2906,-6475
24,120,39,-1379,-2171,-5894
43,-81,-21,-846,-2604,-4618
48,25,37,2104,-1866,-2928
-8,56,-5,6992,-1692,-1633
111,-2,-105,-215,-1973,525
-41,-24,-119,173,984,945
35,-64,-112,-411,3003,2191
-38,30,34,-2278,2944,4413
20,-127,111,-4293,4291,4810
-66,-74,-18,-6475,735,9525
-32,114,-1,-8207,-3904,2169
-77,48,117,6018,1814,-1967
84,73,-31,1002,-1522,-253
-111,-91,-120,-1698,-316,-837
105,-77,97,-155,-107,48
112,-56,78,-232,601,580
81,-71,57,-96,540,1104
116,-62,4,-339,1473,1448
-58,5,18,-1194,889,2293
-99,-46,-26,-376,811,3073
-14,65,-12,-1360,1213,3201
-121,5,-65,524,1654,4301
21,52,27,1872,274,4174
74,-90,-13,-561,1801,3255
13,119,36,-1349,729,2724
-49,29,96,-591,401,2776
68,-27,-70,5353,-1420,-4715
-30,70,35,3457,-1629,-7894
-64,-63,-125,545,-3586,-7279
-26,-78,87,-352,-3267,-6771
-23,7,86,-898,-3108,-5371
125,-10,-116,-129,-1998,-2943
-51,-57,-110,-89,790,1339
81,-19,98,-575,4740,7211
81,110,63,-3355,4940,8377
31,-84,-9,-495,4048,7361
33,-114,-9,3221,187,-19
-16,27,17,-109,-2624,-5484
-50,74,3,-1862,-3024,-6397
-82,-115,8,-2003,-2780,-6703
74,-43,85,356,-1557,-4871
127,-75,-86,-278,-960,-1200
12,-86,-124,809,2737,5186
-1,-122,109,-1074,4186,7865
-9,20,6,-584,4842,8882
-82,-111,112,-2135,2515,3836
120,75,-100,3659,1050,-2481
55,44,-81,2912,944,-4973
-96,-47,-27,1861,-557,-5438
49,127,57,-483,-2837,-5737
-48,47,-9,214,-2616,-5255
59,2,-68,-1202,-3052,-4419
98,93,-60,114,-2524,-3183
-127,5,29,1561,-2338,-1681
-23,-7,-114,822,-1592,-839
-59,-100,-37,1326,-51,124
66,-62,-26,-103,719,2040
77,-53,6,-1367,2306,3094
-91,14,69,-2496,2022,5495
-114,32,113,-6024,596,7720
44,23,-72,-2659,-3958,7717
-44,-128,101,-1478,2578,-1899
-128,-107,103,4758,-119,-2764
-83,-6,-14,671,28,-2187
113,-47,96,174,-202,56
80,-35,69,-1323,-917,424
55,108,28,-866,-523,861
71,-24,-48,-2841,960,1519
108,10,-18,-1541,286,2502
77,-7,-38,1389,876,3207
10,84,-78,637,1526,3858
-7,-100,-68,-505,342,4177
46,121,4,557,32,4482
70,113,71,547,-307,4495
38,-87,-121,-1247,1034,4201
66,71,82,1619,1324,4545
-27,-96,53,5095,-1682,-6689
-45,5,-12,3809,-2661,-7403
-15,110,39,-1921,-4227,-7026
56,70,87,-501,-2750,-5735
-88,-36,-99,-722,-2229,-3466
-65,-46,9,-546,-876,-106
-76,-35,-118,1006,3587,5602
84,-120,-94,-2703,6021,7994
-99,-11,103,289,4767,7721
-26,-76,-8,-899,1666,5058
84,70,-56,1780,-1071,-3988
-34,24,-77,6,-2073,-5661
-115,68,0,-10,-2639,-6511
37,-77,33,-2387,-3210,-6589
95,62,123,579,-1691,-3773
-127,63,-4,-456,-313,86
116,41,66,949,3720,6880
-84,-69,-112,-2898,5215,8189
1,109,-67,2698,5340,8233
-122,-91,-88,-1893,1506,991
-25,38,-39,4907,592,-3992
-11,64,14,254,259,-5161
-70,24,105,491,-1526,-6351
74,-39,96,1101,-2537,-6146
-37,70,-32,-682,-2840,-5977
55,-24,-66,-249,-2857,-4780
67,10,23,3041,-2160,-2785
0,-68,77,1971,-1998,-1017
23,60,-78,1482,-544,761
107,-9,14,-389,1500,2327
-65,-23,97,-51,1669,4381
-8,15,63,-2053,2415,5983
56,118,-65,-4567,2071,7822
109,73,-62,-6448,-40,8340
32,4,52,-902,-1823,-545
100,13,84,4343,572,-3331
-79,-81,-20,293,-169,-2075
-75,-2,81,983,653,-911
114,-33,-25,-1755,-563,-385
106,-116,-66,-1982,-174,562
107,-58,-66,-2800,422,985
17,-61,-80,-740,222,2604
-78,-88,-122,1024,466,3267
-50,-79,59,-1568,-3165,5255
35,-79,-113,403,1591,3522
-91,-64,31,2624,1597,5210
96,5,97,1312,588,3747
24,-67,64,427,920,3133
-91,-90,-89,596,-2,2156
113,78,-123,1812,925,1219
-56,-43,8,5324,-1358,-4098
-66,56,119,3857,1483,-6922
-102,23,-109,1846,-4668,-7164
39,75,73,-1298,-2931,-7121
22,80,74,-806,-3111,-5730
-56,81,87,101,-2016,-3463
-7,51,-41,-687,-317,-671
-87,-43,19,-270,2411,4224
-21,96,81,-1540,5949,7843
12,36,-85,1332,5056,9266
-43,2,127,-5118,961,5471
-13,61,-8,4638,-1152,-3799
14,33,-118,-189,-2409,-5536
22,103,62,-441,-2661,-6612
54,105,-11,-1785,-3800,-6449
-116,-82,90,-706,-2010,-4439
99,93,-1,-854,-364,-294
43,-24,-26,1821,3321,5760
10,63,58,-1328,5569,8681
114,-107,-75,1055,5940,7334
115,-39,-98,-2308,1423,3010
-71,74,-21,5160,320,-4593
96,81,-7,215,222,-5768
27,11,-43,1052,-947,-6664
-18,-38,86,279,-2291,-6508
-24,57,11,-581,-2932,-5640
45,-111,14,-1613,-2384,-4272
-58,-108,57,2548,-1511,-2186
-21,-52,-87,1478,-1573,-611
-80,-118,-7,908,17,126
-52,-126,91,-1229,602,2970
-30,-85,39,-1277,2721,3680
66,59,-109,-1536,1473,5650
-54,4,-3,-5238,-4,6356
80,-122,124,-3696,-2136,7093
51,79,103,-3033,-1212,2985
2,121,-39,2236,805,-1904
-67,-99,105,1102,188,-2299
-57,-110,7,617,1712,-1549
119,-62,72,552,-789,-520
-90,-65,20,-1754,-826,-128
101,127,-12,-1727,-658,695
47,83,55,-6140,457,1453
-128,-97,-75,-1311,3487,1913
90,-8,79,2356,-1584,3807
42,-90,-30,635,81,3622
54,-84,-37,612,-342,4002
25,-99,50,1062,-399,3714
22,-80,67,-320,-277,3376
13,122,78,598,113,3012
107,-68,26,4691,-1256,-7013
78,17,-89,1522,-2692,-6232
-34,117,56,-298,-3469,-6614
22,74,69,-991,-3499,-5888
-29,-103,-119,-1493,-2369,-4196
47,-57,43,151,19,-907
95,-87,100,592,3432,6534
-99,-116,-32,-3562,5432,9708
-21,-21,-49,109,4870,9582
-92,-25,-111,216,420,3628
32,61,62,3837,-1508,-5327
37,36,19,-425,-2346,-5968
19,91,12,125,-3485,-7054
119,21,51,-1580,-3157,-6119
-84,-49,93,-364,-1396,-3275
-128,-86,126,603,839,2532
92,60,72,-540,4575,8609
119,-84,111,-1268,6144,8833
-72,27,-83,-4569,1352,4249
13,107,-84,5288,953,-2514
-38,62,-48,1923,1103,-4303
86,-46,75,2022,253,-5568
24,95,114,584,-1617,-5850
-127,21,-37,-829,-2706,-5930
125,36,124,-1207,-2167,-6101
-85,-121,-72,303,-2563,-3748
-50,39,13,2633,-2610,-1887
-11,-29,-122,1915,-1232,-1198
-29,-128,-6,1783,-286,1053
70,-94,1,252,1155,1583
36,-77,4,-931,844,4654
89,29,-44,-3013,1709,5356
51,45,-18,-2853,971,8804
74,-106,86,-3106,-2691,8446
8,-28,98,-4587,1751,1935
-19,-119,-86,3610,853,-2593
-101,-117,124,2313,-339,-2181
-87,104,-67,383,892,-1524
99,-48,79,-82,-444,-565
83,-105,35,-1187,-382,288
88,-87,-35,-2291,1117,41
72,-87,-27,-1118,480,1833
-116,-17,-44,-576,817,2732
99,5,-66,751,299,3373
-15,106,-11,-236,340,3854
12,91,-22,840,1002,4053
9,105,-2,1643,955,4128
19,-125,43,-478,533,4066
-31,-117,113,-1312,-120,3448
-3,-9,118,1084,1138,3424
27,-105,121,1401,-2041,-5681
39,50,-63,3514,-1273,-7716
-73,43,-43,2532,-1418,-8494
19,-102,54,58,-3339,-6926
82,112,1,-2117,-2735,-6274
-59,120,110,259,-2261,-3864
-45,5,-100,-1215,-1414,-1957
-107,39,93,-923,754,1840
37,46,-23,117,4022,7505
73,-87,-29,-1857,4035,8635
-86,-111,-128,-194,3623,7133
-24,-78,101,-1371,-430,4894
0,55,43,3834,-996,-4313
67,22,51,231,-1117,-5959
-86,54,-8,-1098,-2431,-6456
-31,-102,-47,-2364,-2973,-6096
77,60,83,-35,-1201,-4292
91,61,-119,-353,-1070,-1147
63,-65,-43,1421,1987,5139
63,-120,-8,-4116,5530,10290
-99,-98,-100,2834,4047,9728
37,-20,-94,-2473,1346,2947
-108,73,-126,5555,1414,-4341
65,29,-112,1009,165,-5726
0,16,-128,-65,-674,-6241
112,-95,65,-348,-2165,-6290
-121,-90,70,245,-1948,-5243
-87,-76,-26,-2489,-2491,-4408
-15,90,43,-1756,-2261,-3582
84,69,101,448,-1379,-2640
-83,-82,-74,1539,-452,-1327
-62,117,-69,1721,-422,1892
121,-79,-72,409,1387,2395
-89,40,-37,-668,1828,4886
106,-88,44,-4412,1205,5946
37,55,-109,-3825,-1323,8314
96,115,123,-1672,-3164,4466
-96,-36,54,-467,-210,-154
-90,89,-21,3142,1645,-2227
111,-99,-4,-216,870,-1134
-114,-44,78,-925,509,-706
121,121,46,-709,-670,463
104,67,-70,-750,224,1264
-127,-59,-30,-1621,235,1903
123,-66,-85,-1291,105,2634
-29,-61,-27,-3606,-700,2807
-17,81,-5,1894,-724,3957
68,-38,119,1543,-1188,3786
112,-83,77,2150,493,3690
5,-11,122,359,-301,3056
-32,112,75,6224,1497,-6743
-23,67,-7,118,-2207,-8153
-99,80,-35,1057,-2826,-8107
106,-46,-48,-1698,-2778,-6536
-11,60,-33,50,121,-5970
47,5,-48,1203,-1137,-1840
-106,92,-57,-751,-104,1425
46,126,-64,849,3246,7218
-52,-24,82,-3019,4309,9402
-2,6,-76,1228,3931,8609
72,-2,10,-1266,-785,1715
84,40,3,2358,-1335,-5026
-26,38,84,-518,-1514,-5176
-18,-81,-6,-155,-2518,-5865
-103,54,3,-1831,-2637,-5223
-102,-75,85,-968,-1420,-3690
-12,-1,-72,-808,-471,-371
54,-86,-105,2462,2952,5799
-78,97,-112,-1500,5059,8617
-82,-119,106,2639,5036,8982
-74,-94,106,-1879,1526,1953
-14,30,-41,4289,878,-4008
22,37,-17,592,508,-5185
-19,-67,-68,503,-562,-6261
-110,53,45,-993,-1995,-6357
8,49,-71,174,-2576,-5808
56,-83,-48,-1599,-2462,-4399
-13,7,-16,2103,-2445,-3187
19,83,121,850,-2419,-1913
55,-2,-16,1551,-1039,-331
47,-34,-10,2227,396,655
85,-43,25,356,1824,2400
26,-127,46,455,2113,4116
94,29,51,-3642,3285,4755
29,-128,81,-4323,2672,7152
-112,87,58,-1584,-608,7261
-42,-127,12,-3610,-611,-619
-33,-105,62,4724,924,-1710
118,81,-9,41,-774,-680
-110,-29,-124,150,-32,-409
-115,125,100,-14,450,208
101,36,77,304,968,567
-107,65,55,-285,2127,1448
-78,55,19,-321,1914,2757
-58,-115,23,-182,1877,3134
73,126,-44,-1035,2403,2822
-108,-66,-33,-2196,1893,3412
73,-33,-32,-1257,623,3916
119,89,-3,-1259,889,3527
90,63,29,726,1306,2826
51,-49,-55,3147,-1424,-3820
-91,54,-34,3148,390,-5540
95,-69,-106,4285,-1586,-6738
-108,-54,91,-165,-3323,-7481
-57,-25,54,-1158,-3003,-6184
-112,-27,58,288,-2366,-4282
-47,118,102,-1363,-2318,-3349
9,95,-40,357,-1385,-825
4,-94,31,1984,3034,5945
-75,110,-118,-3938,7538,9902
-14,48,74,524,5471,8511
-104,-62,-97,-762,970,3862
-48,49,-45,2383,-734,-3930
-100,35,51,-988,-2677,-6082
28,88,85,-1398,-3892,-7545
-80,48,-15,-567,-3087,-6803
-94,7,86,-717,-1975,-3143
-123,-106,-67,1597,2009,4384
47,43,52,-1476,5091,8271
62,6,-103,-1054,5760,8790
-116,-97,94,3111,4237,6292
36,81,64,587,2018,-1979
84,13,-83,840,-744,-5207
88,62,92,-527,-982,-5724
118,-46,125,130,-2597,-6857
7,-118,-124,359,-2936,-6437
-63,-32,116,-190,-2621,-5267
61,-2,86,2259,-2044,-4112
-104,77,-34,262,-2504,-2531
96,-121,-50,1515,-465,311
-38,6,92,128,1460,3337
7,-83,28,-1517,2257,5465
-7,117,-36,-2892,1092,5886
26,62,-51,-2425,-541,8055
103,37,20,-5789,-140,2915
5,-86,-103,-2052,196,-1809
38,-21,-49,5567,-131,-1339
87,-50,-33,-1016,-478,-1071
86,-94,58,-129,-1173,197
88,122,-24,-809,-695,-56
126,118,-54,-310,1556,544
113,-65,-64,-974,1165,1484
76,35,-25,-897,9,2557
-118,44,-46,94,52,3766
126,66,28,1282,937,3977
103,-17,-37,-718,1907,4200
56,121,42,1588,342,4421
37,-36,41,-745,17,3865
-45,-99,125,-969,-611,3525
-9,36,91,1074,1191,3189
-8,58,58,2207,1601,-4869
46,99,67,3078,-1630,-5645
-102,-75,4,2389,-2075,-6547
-39,56,-104,868,-3036,-6453
-24,9,-126,283,-3921,-6487
-96,58,-105,880,-2638,-4309
-67,53,35,138,-1533,-667
60,-16,106,2,5361,8619
-5,-34,-21,-4898,5529,8684
-16,12,29,-110,4649,9963
-6,11,-89,-1949,-608,3487
-119,113,-29,2952,-759,-3228
100,51,-49,218,-989,-5572
-94,77,-76,1564,-1094,-6953
27,-92,66,272,-2625,-7194
-43,102,96,625,-2112,-4969
-35,-57,-52,-1644,-1689,-942
73,112,114,1554,3692,6645
-128,-109,-30,-4153,5059,9001
-106,-98,-66,1056,5497,6548
90,-29,109,-753,1188,1001
-33,85,125,4761,837,-4528
-24,94,91,535,-536,-5426
-62,-46,-35,472,-2303,-6078
-112,111,-87,47,-2984,-5886
85,-79,-103,430,-3374,-4380
-111,48,-2,975,-2327,-2814
107,-107,92,2524,-2378,-910
9,96,-122,1245,-460,436
58,-51,-109,-684,686,1660
-31,-62,-56,-282,1671,3260
-84,71,-36,-3908,2041,4242
-75,-107,54,-4764,1107,6231
101,-90,-112,-2737,-2777,7644
118,-37,93,-1960,1736,196
-119,-61,-45,3667,363,-1880
102,29,-62,-138,-956,-1435
-127,1,92,-839,298,-361
53,-117,48,-949,-473,581
56,-74,0,-2435,-190,954
89,-24,-23,-2537,-194,1602
110,13,-74,-977,758,2133
-84,30,-13,1228,-43,3276
12,119,-32,400,-134,3637
48,105,-2,1499,1114,4087
45,-103,-39,954,641,4250
72,-55,13,185,324,3611
5,-45,36,-1259,449,2921
-69,124,126,-70,-926,2541
-127,73,-115,487,1000,1957
-39,-43,23,3168,-866,-5765
-107,-124,-4,3564,-1694,-6625
-87,47,99,541,-3942,-7215
-33,-8,-34,-1042,-3285,-6213
12,-1,-77,-651,-3162,-5095
77,-58,-115,-1867,-2382,-2474
-115,-31,3,-422,1724,1967
-43,50,107,-2101,3756,7446
-86,89,-56,-614,4135,9071
72,-21,79,-424,4166,7396
30,1,29,1291,1091,3216
107,45,-96,1436,-1819,-4459
-22,38,116,-32,-1011,-4428
-108,45,68,971,-2040,-5452
127,59,-67,-1671,-3226,-5775
-41,10,46,-479,-2393,-4781
37,103,-106,-921,-1656,-1821
-91,-82,-75,1397,1575,3223
119,69,-46,-992,4362,7303
-46,-108,-66,-1256,4428,8313
-52,123,-114,793,2864,4374
-57,90,61,1918,954,-1921
-30,53,-124,1403,453,-5006
89,61,-18,628,-521,-5614
77,107,124,-476,-1881,-6492
-70,112,50,-1071,-2034,-6009
76,45,-98,-2827,-2163,-5137
67,-55,-47,-126,-1296,-4092
84,70,7,1432,-1793,-1619
-19,20,71,-40,-1467,-390
97,90,26,889,-433,1164
17,-50,-7,-115,664,2578
17,-50,-120,-833,782,4586
-103,-120,-107,-3496,587,4578
116,-62,22,-2901,-340,6043
42,-70,-41,-1804,-2494,6994
-6,52,-18,-5806,-460,652
-58,-7,66,4972,619,-1850
-83,36,-118,-317,438,-1024
94,-74,-106,2655,832,215
-118,-7,88,1053,251,181
-119,85,25,1,334,793
-93,110,-3,-1890,549,1499
-92,125,-47,-2423,-394,2262
-77,-44,-71,-1530,-313,3366
28,-103,-67,786,82,3878
86,125,-11,-978,-242,4235
123,116,28,782,-109,3482
-119,118,82,1038,400,3727
119,111,65,347,689,3274
-86,-27,127,3272,-1638,-6199
-42,-41,125,1294,-2289,-7655
5,27,53,-533,-3696,-6951
-108,73,25,-1766,-2736,-6010
2,22,68,-1812,-1896,-3989
-69,-86,0,-1150,-974,-1128
120,-101,-107,456,3239,5857
-102,-106,127,-2600,4485,7658
47,8,-87,-67,3991,7895
-97,15,-7,157,2020,5284
-13,63,-68,1456,-1077,-2731
-30,21,102,124,-2071,-4970
65,58,78,177,-2722,-6495
-93,116,7,-1210,-3387,-6724
96,-80,64,-386,-2571,-4611
-128,60,-14,-1102,-1066,-799
6,7,85,1415,3694,5936
-101,110,-105,-2371,5254,8489
95,-22,84,-1710,4468,8081
-88,-26,58,-3744,767,4886
-36,87,-63,3127,1301,-1748
101,25,47,2720,1832,-5015
-17,49,-6,1526,356,-6320
-105,-61,-82,93,-639,-7416
22,-80,113,1044,-1747,-7038
-47,34,42,-1538,-1910,-5742
-98,16,-21,1580,-1676,-3480
-81,-61,-6,871,-1950,-1203
7,4,-10,1117,-186,-277
-66,31,-34,1720,550,2234
-74,-76,-103,108,2143,2988
44,101,-98,-2544,1497,5173
73,-22,-8,-3995,-92,5549
-9,37,-90,-4171,-1436,7531
71,-69,82,-3316,1510,28
-76,97,12,3105,-45,-1707
119,15,-33,-141,-1429,-1445
120,-22,-77,175,-118,-43
119,113,51,165,-537,646
107,-89,-33,-2197,-809,890
114,-113,-74,-2219,608,841
96,21,-39,-2543,-167,1865
-98,5,-37,511,314,3015
-68,37,-25,2174,1297,3731
-8,-73,-41,1403,693,4575
81,-48,-39,397,1270,3703
-13,-33,-9,-727,-128,3675
-62,-83,-113,-1263,-394,3031
-48,108,99,-342,741,2455
-118,72,-110,1042,809,2218
31,18,12,-245,2103,-8393
-84,79,-57,4862,-2401,-8012
83,-121,85,1022,-4420,-8503
-109,-74,15,-2045,-2778,-5938
21,-100,-90,372,-1997,-2898
-106,126,123,-553,2275,3302
127,72,69,-1766,4195,8364
49,-88,-84,-2605,4299,9155
-81,14,14,-622,3989,6467
-62,-121,73,1477,326,1040
-81,48,125,1192,-2200,-5468
-116,65,18,-396,-2472,-6219
-109,-22,67,-1032,-3165,-6795
105,-87,59,-522,-2347,-5664
47,-53,104,-100,-1349,-2670
45,-89,-35,1320,1638,4149
127,70,53,-2345,5222,8995
-128,-126,42,-1333,4515,9799
-73,35,-40,-1994,1249,3250
-32,94,-104,2402,350,-2630
-16,63,53,2984,1091,-4569
-49,-78,58,2610,377,-5583
-126,-123,92,-624,-2003,-6302
20,121,-39,-136,-2281,-5816
103,-4,32,-1048,-2157,-4864
-104,-108,24,-1198,-2031,-3607
40,-120,-119,2340,-1231,-1883
127,92,-63,1878,-813,-278
-110,102,-75,86,-13,711
74,52,-96,58,1107,2838
8,-9,84,-1413,548,4521
114,89,-73,-2927,1297,4273
-110,-10,-128,-3925,-700,7347
79,12,-58,-5387,101,4373
126,-24,107,2891,1514,-867
67,28,13,894,-332,-2617
110,-115,59,2488,955,-1664
65,23,-126,639,-877,-323
-128,-23,44,-1009,-1122,132
-101,-85,7,-1913,-151,670
57,-50,-5,-2359,-453,1174
21,-88,-31,-1321,68,2110
104,-39,-28,189,-79,3407
79,1,-79,673,576,3780
-67,92,-23,-23,308,4552
55,-109,-53,-177,1542,3892
20,101,-11,2057,452,4566
38,-64,98,-744,375,4352
53,-73,59,-5,1140,3137
-33,78,106,1244,543,2824
-64,119,-52,5059,215,-6058
-13,-76,-58,2562,-683,-7475
93,93,104,-1017,-4233,-7622
-97,-124,2,-3974,-3203,-6240
42,-56,-44,-1666,-2160,-5950
-23,96,80,-170,-1278,-3063
26,16,28,-529,529,900
31,46,-76,1074,3510,7463
23,122,-60,-2584,4874,8525
29,53,60,3484,4476,7580
-39,6,60,-891,587,2348
-18,33,65,2725,-1699,-5204
83,41,-85,-1397,-2582,-6183
-84,35,114,-2050,-2976,-7405
111,84,-128,-305,-2138,-5600
-16,0,90,-932,-1049,-2911
-12,-21,-29,791,247,1768
-39,82,-83,-145,3898,8318
102,35,81,-1928,4680,9149
97,102,-32,-2162,2530,6256
94,-104,83,436,678,877
16,51,-56,4029,1576,-4636
83,57,36,463,762,-5625
84,95,55,243,-923,-6994
13,-49,21,1667,-1986,-6808
-17,68,16,-606,-2711,-5934
28,-55,42,-1461,-2641,-5138
99,83,69,4771,-1797,-3194
-40,127,-113,803,-1724,-465
-8,11,39,674,828,748
-53,38,7,174,1866,3508
-36,-7,-65,-2175,2920,4619
-45,-112,28,-3717,3185,5615
-86,76,-76,-4472,-713,6947
77,102,28,-5477,-3021,5172
32,-2,84,-238,1671,-1288
98,-27,22,4188,142,-1530
-121,-98,-51,-409,158,-711
120,-61,81,59,-467,172
-120,-65,1,-1648,-179,357
-120,-61,-22,-1832,-142,977
110,-41,-31,-1394,-258,2020
90,-21,-48,67,-86,2975
-76,41,-7,5,621,3475
-70,88,-58,63,559,4170
1,-44,19,-964,-377,3922
60,-128,4,920,550,4003
26,-95,59,1137,101,3460
-51,-81,-121,42,483,2686
-57,95,120,1659,1581,2193
23,37,75,2481,1571,-7455
-109,26,50,3910,-2196,-6763
77,-18,101,-401,-3041,-8084
-97,52,122,1090,-2172,-6506
59,11,-99,619,-2360,-4627
89,123,-8,-343,-2257,-2004
-86,-45,41,-623,2147,3966
-109,99,124,-2242,4611,7918
35,-35,-41,-2447,3405,9581
-90,67,-73,-1772,1442,6498
101,123,-116,3288,-253,-162
-18,53,-71,-831,-1478,-5800
-50,90,-85,-143,-1298,-6686
51,-33,36,-1003,-2813,-7543
-70,-50,121,-385,-1458,-4960
-31,21,112,-835,-1024,-1873
81,-75,-33,1123,2856,6342
-37,76,120,-2906,4173,9381
-7,123,-41,2435,5164,8755
-48,75,1,-3348,987,3147
-85,65,-96,5065,1461,-2879
5,44,-52,1792,756,-4897
-40,83,-12,777,-626,-6602
-68,58,95,689,-2152,-6608
47,-115,26,230,-2292,-6193
-127,-77,-5,-593,-2193,-5084
113,-8,41,1636,-1684,-2921
47,-116,73,1845,-1670,-1374
-86,102,-90,1103,-1010,-293
-32,63,0,294,839,1556
112,71,-9,-515,1047,4075
76,5,-53,-427,2425,5142
-62,-69,-12,-6738,196,6134
-50,-53,85,-983,-1478,7892
-25,91,-103,-4648,-1633,4169
115,-56,97,753,1716,-2172
-117,-2,70,2595,17,-2359
-79,85,-30,328,264,-1038
122,-79,89,-35,-752,276
109,-116,40,-1275,-230,461
101,-64,-2,-2656,269,1320
87,-24,8,-1260,711,2492
-90,-10,-23,1653,728,3022
18,65,-72,381,882,3838
-24,-124,-47,52,483,4094
57,-65,-10,-88,388,4220
59,-81,7,935,161,3493
-1,-40,68,-193,-70,3291
-66,-109,127,37,-40,1937
-115,66,102,1143,1385,1308
124,72,101,3836,-12,-6671
-91,24,8,7031,4141,-6348
-2,11,97,3804,-6354,-5984
-4,-93,7,-3519,-3803,-7114
44,-5,122,324,-3214,-5844
88,-32,-60,-484,-2629,-4267
72,36,80,-2224,-1433,-1841
-73,-9,-89,148,3211,4063
65,-25,22,-3054,5038,9132
-107,97,-62,-563,4334,10074
-65,-61,7,-2723,1924,4992
10,120,-87,3025,-1139,-2334
94,56,-85,220,-2132,-5460
55,108,26,-541,-3097,-6571
110,92,111,-749,-3067,-6950
-105,-13,-64,205,-1719,-4562
-101,30,8,-549,-468,-1108
121,-90,93,170,4153,7479
11,-73,-103,-2581,4786,8835
-116,-84,68,146,4424,10185
-60,118,-123,2852,3023,-810
-83,36,-88,2431,-463,-3387
-18,76,10,4,701,-5346
-14,88,56,871,-1500,-6773
-68,10,18,649,-2289,-6528
-21,-93,17,-587,-2833,-5471
1,43,5,426,-2060,-3778
-78,-32,12,2515,-2148,-2063
-70,118,97,2075,-1814,-327
-50,119,-57,250,-245,664
70,25,-44,554,357,4385
-25,8,122,-2265,2017,3549
-63,10,-3,-3004,2040,6213
115,65,-82,-3804,1483,7101
63,-67,-71,-8878,-4641,3585
90,99,92,1355,2506,-2447
-110,-69,97,5840,-1153,-1937
-42,94,77,-1399,193,-1252
103,-83,71,-688,-626,-103
80,107,7,-1166,-5,583
89,-34,-2,-2915,-323,1729
34,-30,-33,-923,-48,3089
90,2,23,1831,-117,4029
0,83,-65,685,1712,4013
82,-94,-42,919,360,4528
97,-108,1,1185,243,4608
98,-118,56,371,268,4279
51,-50,80,228,407,3352
-41,127,119,710,193,2577
-126,45,42,779,1141,1173
98,67,-50,5369,-961,-2563
19,-85,-18,3357,1332,-6107
13,91,-108,2615,-2906,-6301
1,-97,17,236,-2813,-6806
49,-120,49,-1539,-3797,-6157
60,80,77,248,-2691,-5056
-82,-77,-90,-485,-2562,-3501
-74,-25,84,204,-1095,-546
-107,-3,5,570,4123,6454
108,-90,-65,-2922,6305,8751
107,-122,-124,-3052,4889,9411
-7,-82,27,3683,3715,5704
-114,17,-126,1521,-2275,-4564
127,3,105,-473,-2801,-5702
32,40,51,-1048,-2864,-6811
107,-32,68,-2667,-3504,-7406
-14,-96,-62,-509,-1552,-4539
-68,28,-25,516,-911,-1076
-113,21,6,-608,4501,10107
38,-112,33,-5139,5066,8889
-120,47,-15,4027,4750,7465
10,-73,57,429,958,-1062
-117,35,44,3288,1737,-3959
27,-42,84,3113,801,-4606
-13,98,111,645,-1964,-6130
95,105,94,1634,-2297,-5245
86,56,53,550,-1313,-5082
-30,-62,42,416,-2386,-3375
123,-102,4,707,-2714,-1874
-58,26,13,2276,-1722,-531
99,117,103,2076,-526,1062
-120,96,61,1155,609,2723
-50,-74,124,-1028,-178,3888
-54,112,124,-3200,742,5679
6,111,-14,-6066,1977,8444
36,21,-22,-2922,1747,4825
-66,127,-45,-716,-2902,-4031
-55,-21,-92,2495,-1302,-2028
-106,-18,-111,-108,-541,-541
33,-118,90,-1601,-926,1161
-37,-112,42,-3556,-875,1917
59,91,10,-1170,-1111,3754
-109,57,-6,-1316,-388,4269
19,52,-65,2867,422,4805
-13,-80,127,1797,1336,3936
-46,-58,-110,-176,1122,4376
-54,48,-117,1984,876,4595
-92,-83,117,1021,-1198,4375
63,59,65,2854,518,2953
-73,107,68,2974,719,1782
65,106,11,2626,-373,-5155
-122,-98,-19,2478,1020,-6715
94,74,-45,3130,-2896,-6506
-42,72,85,-529,-3543,-7410
10,62,91,140,-2183,-5892
123,103,-84,-671,-2160,-3691
-87,114,-18,-671,-1612,-1918
-109,-43,-76,680,3110,5333
36,56,105,-2940,5706,10178
76,94,-63,2809,5716,10863
-42,112,95,-1290,-772,2102
-53,58,39,3533,-196,-4433
-92,32,107,-1437,-2597,-5776
73,56,116,-1836,-3476,-6823
93,-11,25,-949,-2819,-6029
-28,65,-81,300,-1563,-2822
-39,-49,36,408,369,1440
87,22,52,308,3967,7727
117,61,68,-1481,5850,8512
83,19,25,-938,2882,5507
75,121,41,2204,1481,811
-21,28,3,2750,1507,-4931
49,3,-17,1024,1052,-4988
39,76,84,173,-612,-5300
116,-59,-41,49,-2515,-5092
75,-23,-51,-1358,-2022,-4843
-99,93,-49,720,-2600,-3770
-1,-67,-49,1255,-2309,-2675
12,-32,-49,2856,-1871,-1153
-3,36,111,158,-1203,-855
93,32,-34,876,-453,3616
-70,4,42,-576,1378,5014
34,-95,28,-2235,3141,5589
-23,-53,36,-5122,2458,8473
53,19,-46,-5313,-850,5168
-53,-110,-60,-1065,611,-1743
-115,96,47,4122,-2328,-2716
-62,-78,-77,-555,-51,-2042
-93,-42,57,-478,-32,-1259
100,-85,37,-1698,-1111,-228
71,-99,-40,-2771,684,17
54,-97,-41,-2083,264,1432
56,-19,-19,-1505,-175,2704
-123,11,0,363,167,3600
14,118,29,1116,47,4751
-66,-53,-11,972,276,4474
-75,31,32,252,-324,4293
102,-49,61,1220,-167,4167
44,4,97,251,-103,2758
-82,95,110,1117,624,2544
-117,-40,-30,2913,-1192,-4394
-15,31,-85,1713,-1658,-4704
-105,108,111,-251,-2170,-5777
-100,120,113,-245,-2737,-5691
76,92,-78,-122,-2233,-4933
-120,-16,40,-1026,-1171,-2778
-16,-126,-115,-630,1112,618
109,7,-44,152,2295,5498
-83,91,-110,-4139,3695,8151
105,-93,-10,-6318,1427,10567
-73,-106,-62,-1155,-5549,5264
66,13,78,6842,2717,-4088
-31,78,7,919,798,-5060
-126,51,79,2619,-537,-6606
43,-36,38,-815,-2314,-6965
-89,-110,64,-250,-2121,-6290
41,-56,-122,595,-1829,-3660
-63,-18,-30,-1633,-284,273
-118,-55,-103,481,1451,4481
42,-47,-109,-2444,3478,7942
19,59,-11,-1182,3442,8647
76,-101,-123,-3352,1220,6639
-50,-57,52,4151,1728,976
21,42,-53,3643,2259,-4421
-14,18,80,2616,2474,-6144
-118,42,-15,2510,-122,-7119
-2,125,-46,1502,-1388,-7111
76,88,93,964,-1440,-6780
-117,108,-66,-1220,-2898,-4690
-119,96,-12,3375,-2038,-1628
35,118,8,3576,-2133,510
-24,-65,32,1532,-932,653
18,-17,104,-284,-269,1879
115,-47,-95,-554,1009,3801
36,20,-41,-1636,1718,3940
1,-4,-118,-5595,1671,6114
31,-28,109,-5461,1246,7008
8,-55,93,-2992,-2345,-578
-109,9,78,4754,-641,-2180
66,-97,-14,-322,-568,-447
42,-34,98,-779,575,267
35,-55,53,-1102,-380,781
24,-116,29,-161,-122,1924
96,-28,-9,-1128,614,1855
-118,51,-20,-792,709,2379
-110,1,-28,1032,797,2703
22,121,-60,-376,1194,2776
39,54,-73,693,960,3157
36,50,-92,644,1084,2723
81,31,-46,532,364,3344
-96,-117,113,1281,-1594,-6198
-52,79,112,253,-2487,-6235
-41,46,-104,933,-2745,-5608
90,-120,0,-510,-1582,-4772
-44,-37,25,-196,-1560,-3782
77,-16,-127,204,132,-580
-117,-85,-23,-728,1871,5009
-19,-120,-74,-1856,3848,8046
98,-101,-80,541,4236,10382
-26,-123,41,-3443,1289,6248
95,93,94,3858,432,-831
-27,20,-39,-582,-1792,-5252
49,36,-42,-574,-1620,-6742
-70,116,2,59,-2614,-6219
76,20,-115,-1252,-2196,-5193
-54,-66,-62,-332,-1343,-2696
59,-45,111,3,176,1743
-109,11,32,-701,3562,7980
22,12,109,-1851,4285,9419
119,79,-85,-2477,2589,7069
-21,-115,41,4110,1569,-567
125,17,111,3781,2419,-4405
-85,34,41,1289,1473,-6191
100,102,24,1004,715,-6342
-54,-28,-25,-447,-756,-6164
-11,104,107,-164,-890,-5546
-20,-49,32,-1229,-1111,-4424
22,90,-43,1228,-1524,-2884
106,7,9,2670,-2128,-1151
5,-71,56,3089,-1783,-126
-46,-104,52,1697,-758,896
-123,-30,-118,-372,-120,2575
-123,-47,-35,-422,955,4019
84,-24,89,-2631,2085,4548
77,-55,114,-5789,1973,6523
-33,37,17,-4767,657,4558
-119,69,88,3094,-81,-1494
4,-75,9,-351,-2336,-1530
48,124,69,457,-972,-174
-3,11,-87,111,-30,-494
51,-22,100,-687,684,-79
7,-106,50,-258,123,1192
45,-101,-7,-747,399,1481
70,-35,-40,-2145,424,1999
45,33,-25,-1749,-374,2796
-74,13,-37,397,846,2696
-11,119,-39,276,672,2826
-28,109,-39,446,583,2730
59,48,-71,853,1078,2826
67,-35,-36,2566,850,2856
68,-108,60,1325,-2451,-4966
-39,7,82,-399,-2293,-5679
-123,73,-34,-420,-2162,-4290
-15,-4,33,390,-2193,-1301
86,36,-45,-486,634,1746
-45,34,11,-769,3397,6951
-121,-88,-8,-1810,5589,8455
20,103,-25,-540,3474,8249
3,4,-98,-896,-364,4596
75,56,-39,2754,-955,-5167
-67,26,12,36,-1488,-6126
-127,69,3,-370,-2753,-7385
-120,78,-110,-2223,-2093,-6371
-90,-2,-112,438,-1045,-4041
92,31,45,-847,376,587
117,67,-58,170,2806,7033
21,10,16,-1163,4627,8317
-120,72,72,-1006,4595,7088
75,-80,-39,1439,2040,1402
-17,46,-18,4113,1988,-3994
-48,59,-97,1272,662,-5453
89,-63,92,2747,-1345,-5396
97,-80,35,1191,-2383,-5509
-100,44,-32,-366,-2967,-4539
70,-112,-49,665,-2460,-3433
89,41,37,971,-2043,-1604
-76,4,-128,891,-1200,-116
38,10,-120,417,-707,538
31,47,-117,-545,76,1539
-102,68,-98,-56,490,2458
94,83,28,-1320,1183,3292
-103,86,-12,-4535,1739,4797
-18,37,-92,-2758,1783,5988
13,75,70,-2313,416,1540
45,-95,-57,1904,-2025,-3018
87,-81,50,67,623,-761
30,-85,-34,603,756,407
62,-26,76,-790,-846,897
123,-55,6,-1604,-325,1436
125,-69,-36,-1576,105,1838
-97,-31,-64,-901,-156,2083
-74,-1,-76,0,-395,2992
-120,64,-101,-158,224,3754
-11,123,-77,198,-436,3593
-28,69,123,1529,1406,2954
14,-78,4,676,1577,2752
2,44,-45,1243,2313,2798
1,-24,-18,1800,2567,2865
-40,-56,51,2243,2119,3349
-57,-3,127,422,1640,3025
-32,122,-67,817,-1647,-5806
99,-8,86,1259,-2794,-5510
15,-24,99,-1131,-3271,-4475
-25,115,-80,-337,-1483,-2657
-64,-2,-70,-534,741,712
-97,47,59,-1143,3994,9084
-96,24,82,-2460,5013,9841
-34,120,-93,-1621,2133,7780
56,-99,-105,3320,628,-220
115,36,18,1184,-1397,-5022
-86,59,61,154,-1722,-6886
-66,49,77,-254,-2796,-7169
-95,46,116,-1082,-2549,-6086
-98,-107,-66,-468,-1174,-3154
-42,-4,-108,81,1180,3346
79,87,15,-1147,3773,9196
-35,-97,0,1001,5444,10333
95,-52,58,-5110,2000,3226
5,-123,73,4901,2004,-1669
-20,41,-95,2650,1638,-5131
9,108,40,17,-1064,-6525
-23,-10,-10,1989,-2036,-5896
108,-64,-104,-1154,-3340,-5961
86,-67,-118,-647,-2706,-4387
41,-47,-61,3131,-2342,-1255
-104,1,-4,593,-1381,-388
77,-33,59,811,-979,1225
-56,30,-119,236,200,2194
118,29,-5,-739,905,3993
28,114,113,-3734,909,4311
50,-125,-86,-3952,1096,7177
-66,59,116,-757,-2,3598
-44,-37,-67,-616,544,-2709
103,-51,-2,2083,-908,-1123
90,114,-76,-1098,-108,28
32,-37,89,-1478,-802,868
59,-75,29,-1195,-354,1198
113,-67,-14,-885,214,1465
-108,46,-53,-1452,139,1893
-68,18,-53,464,270,2359
-9,69,-51,1714,787,2391
6,84,-106,1425,1348,3058
83,116,-81,939,1124,3499
100,99,-69,1514,1174,3335
-26,112,12,521,739,3673
27,90,20,-161,1323,2945
-50,13,48,713,1299,3170
-109,55,81,-388,452,2450
71,57,54,-368,231,1462
8,-29,67,-53,8,-161
5,30,11,2063,-235,-6350
121,93,-101,2195,-1934,-8732
67,-89,-111,530,-1958,-8888
-74,1,-97,-501,-2258,-6928
74,-90,-104,168,-1089,-4773
52,66,8,-1592,-1605,-2673
111,-44,2,627,2718,4423
-25,95,-119,-1924,3740,8740
13,-125,-78,-2208,4291,10319
-106,-104,-25,-3265,1332,6428
-46,-108,-119,4246,27,216
-48,35,32,143,-2101,-6114
-4,69,-2,-1169,-2378,-7042
-59,-53,-112,225,-2396,-6936
89,121,-116,-300,-1974,-5608
-103,115,111,-885,-1028,-3173
-18,-30,-103,-462,-105,-169
35,-20,87,1734,1832,6302
-69,81,95,-1521,4476,8837
-106,-33,51,935,6504,8826
-27,-17,104,-4489,1968,5494
101,76,-119,6785,2941,-1302
13,8,3,1569,757,-5586
63,36,-56,1177,86,-5653
78,-101,-110,1830,-1355,-6363
5,39,63,1091,-2073,-6416
17,113,-78,510,-3408,-5665
76,-97,-12,1035,-2153,-3653
55,-36,-1,3147,-2701,-1472
32,-93,68,1339,-2412,-795
1,90,-34,1459,-754,828
105,45,24,614,949,2306
115,114,27,-826,1715,4122
58,-102,3,-1670,1986,5672
97,-21,56,-3151,2892,7608
-63,-14,-93,-4289,-473,9035
-106,63,-128,-3868,-438,-475
75,37,39,5854,-1553,-3057
125,-123,-59,-1226,-1183,-2187
-103,-21,99,257,385,-844
16,-106,44,-931,-1432,128
31,70,7,-566,585,516
34,109,-5,-1555,876,871
37,-82,-57,-1433,1265,1794
87,-15,-63,-1113,995,2653
-92,-36,-62,1049,1037,3063
9,58,-88,271,1375,3788
53,106,-59,279,1320,3658
86,-103,-47,-448,595,3949
36,-45,9,-968,450,3678
27,64,-83,3153,644,-5733
95,117,-111,2497,-2553,-6662
-63,-88,35,-25,-3258,-6312
-45,-97,62,-1318,-2202,-5515
56,115,-118,-454,-2100,-3834
81,-121,1,2492,-1936,-1524
-98,-15,-90,-1313,4041,6038
-53,47,-45,-2574,6128,9950
69,-22,-99,486,4218,10104
-47,-17,125,-521,-745,529
-57,86,-47,1994,-1476,-5426
13,70,43,-464,-2220,-6733
109,24,62,-298,-2713,-7005
-123,-29,-107,-985,-1896,-5043
-32,63,-67,-2494,-172,-1853
53,-69,21,3270,2409,6020
63,49,120,-4928,6875,10049
27,106,75,902,5441,6895
-49,-76,69,998,2713,2309
12,46,-101,5900,2088,-3935
121,79,-88,-1792,-1951,-6091
-86,-97,-52,469,-2775,-6481
-13,94,-1,1824,-3183,-6844
56,-64,-83,734,-3614,-5968
53,91,-29,738,-2712,-4004
26,-117,106,2819,-1413,-1281
79,93,-69,894,-507,91
116,82,54,-277,1134,1991
84,104,51,-357,2408,4311
114,-30,59,-2374,3957,4719
-64,34,-96,-3800,1711,7887
58,12,55,-9014,-3279,4257
99,-55,-86,2080,652,-570
70,30,-56,4007,191,-1511
-88,108,93,-1369,-268,-307
108,-106,41,-886,-1345,799
112,-58,-14,-2474,315,704
105,-19,-8,-682,-449,2462
65,6,-38,313,883,2813
-91,45,-11,1195,997,3492
-53,49,-79,714,1411,4291
-2,-106,-45,-105,1369,4226
24,108,-50,86,1744,3960
20,-77,-49,-1035,793,3754
-27,-93,77,-378,257,3323
-58,112,8,314,1326,1838
99,104,43,691,154,1196
55,-26,30,1085,664,-94
42,-100,24,633,779,-778
50,61,19,628,578,-801
-36,2,-54,1659,521,-5899
32,-57,-9,3102,-2533,-6429
94,-2,19,-759,-1949,-8054
-121,-52,59,-340,-2448,-7130
126,-106,111,-1393,-2057,-5769
-110,5,-112,316,-1715,-3412
-79,-101,69,-56,518,175
-28,-69,48,-117,3953,6490
-101,-91,-89,-3661,5742,9725
-76,-22,-126,664,4425,10206
-47,-23,-48,-771,681,3984
40,64,-26,2884,-1832,-5660
44,37,-15,-619,-2261,-5654
67,76,29,-230,-2552,-6444
126,121,105,-952,-2977,-6095
91,116,-80,-550,-1354,-3746
98,101,-32,-463,-644,-434
80,-97,12,791,4079,7035
-24,83,-110,-3189,4533,9562
86,120,-9,-1362,999,9232
-121,-119,10,5469,2546,-753
93,19,75,1762,625,-4735
33,39,0,1553,252,-6218
38,107,104,-21,-1061,-6546
-78,-100,-40,-247,-1902,-6281
-123,-1,-103,-1410,-2277,-5468
-63,92,-25,1099,-2174,-3413
-53,87,40,1234,-1878,-2379
-27,-24,107,2560,-2074,73
-41,36,-36,-956,-247,-3
-27,-81,58,304,815,2399
54,-110,-8,174,3093,3455
84,57,89,-4569,2955,5391
68,-59,116,-3719,801,6958
70,79,-39,-5637,-2502,4161
20,-86,10,570,176,-2707
115,3,16,2997,181,-1364
51,-66,-42,-898,-17,-969
59,-24,94,115,-569,568
86,-38,37,-729,-844,808
99,-34,-31,-889,-40,659
99,-2,-27,-1039,246,1132
87,-16,0,199,127,2588
-99,2,-28,498,740,2953
-83,-31,-52,2303,1707,3568
39,117,-24,-79,1890,4211
61,-114,-36,264,1969,3694
39,-88,-10,-408,1342,3576
-14,-117,73,-1176,618,2716
-61,90,66,-821,1267,2483
-35,119,-57,3887,-3375,-5654
-123,87,52,63,-1923,-7701
46,-95,-60,-454,-1911,-5982
-117,-112,-43,-1183,-1194,-4263
-106,-37,-25,-190,-1008,-1870
-58,-97,85,-232,721,1298
64,-23,-49,-172,3041,6660
97,114,68,-3530,4047,7824
41,10,-39,758,3950,8199
-10,40,84,1400,1168,2128
-74,50,-95,672,-1224,-5728
-38,69,70,-821,-1261,-5680
60,8,-111,-399,-1574,-6297
10,88,127,517,-1665,-5301
-43,-87,-91,1325,-1466,-3229
67,-39,-29,-324,-330,-435
75,-100,44,659,3319,7326
81,43,44,-3227,5611,9181
-27,-32,50,-1565,4450,7586
-14,-114,-111,4459,1305,196
88,29,85,1657,532,-4555
44,66,61,287,-51,-5639
48,-122,-43,1476,-858,-5921
-15,27,58,-1669,-2074,-6502
-56,32,-17,1228,-1808,-5217
0,70,-26,-1317,-2310,-4501
-19,115,4,1336,-1657,-2968
57,8,69,1849,-1618,-1410
-73,-15,-93,1151,-1369,-685
-8,-45,48,-338,200,631
116,109,98,-252,1156,2790
-97,121,30,-380,2710,4463
-9,36,-47,-2157,2369,5857
-66,-91,85,-5769,1775,7523
107,40,-53,-3755,-1496,7389
41,67,-7,-3126,-666,70
-68,74,-49,3435,-763,-3724
-4,-70,62,2751,303,-1940
-58,23,54,-239,-9,-1051
-128,9,30,-2505,-2071,-138
57,124,18,-350,-990,467
16,99,-14,682,528,1771
3,-92,4,-547,1603,2643
102,-89,-10,1075,1120,4169
-37,28,-86,432,1885,4733
43,-92,-27,313,883,4445
20,-112,7,57,909,3993
45,-74,41,-723,1215,3117
-32,57,47,505,1069,2905
-57,48,44,-485,1041,2329
23,107,106,2944,-707,-6884
-82,-121,43,1407,-1257,-7332
85,56,-56,1924,-3745,-5796
121,113,120,-1493,-2238,-5049
-4,25,-46,217,-1425,-2362
35,50,-76,-526,-264,445
61,8,6,-1920,4619,9528
53,-116,93,-5184,4541,8957
-54,-1,-64,965,3261,7674
-66,-61,-42,2932,-448,-2069
-114,67,-56,1456,-1845,-6182
72,110,93,-873,-2833,-6949
26,9,64,-471,-2981,-6839
102,-115,116,555,-1954,-4328
62,90,-11,-1377,-291,-463
88,-69,64,902,4132,7343
-71,-27,99,-4626,4735,8474
77,86,74,1102,4908,7085
-101,-34,-3,-3955,637,709
66,-126,-45,6294,4029,-3400
2,97,38,2278,1865,-5895
-83,48,49,1149,-922,-7016
-31,13,-30,2497,-2687,-6646
10,86,-54,-494,-3905,-5413
62,22,-20,2806,-1803,-2830
102,-46,12,2398,-2429,-650
-14,-104,-120,1187,-1527,190
-27,96,36,222,-1,1757
-64,76,77,-340,1549,3828
-69,-78,22,-2052,2450,4103
-110,7,88,-4087,2047,6699
-33,-117,-46,-4913,2998,8631
21,114,-96,-4912,-2221,-10
-39,100,-113,3836,1322,-2962
102,-19,63,1979,-1428,-1707
-110,29,-103,1285,-688,-799
115,-68,9,-549,-1341,508
126,-27,-19,-3016,-1000,145
67,-57,-55,-891,-405,1677
-32,-47,-25,-822,-794,2147
22,-71,-33,571,569,3285
113,21,-62,976,1468,3557
6,-99,-103,-112,1111,4724
0,-103,-10,923,602,4482
96,115,-40,956,2478,4111
76,-46,15,-320,1048,3399
32,87,28,476,1254,3126
0,-62,94,-3193,991,-415
79,1,84,1614,370,746
3,-15,106,1197,84,609
23,4,-55,1639,979,-5391
-55,50,123,6037,89,-8223
-117,63,7,-443,-4397,-6863
77,-117,2,86,-2494,-6912
110,-32,98,-1245,-2746,-6226
9,-56,88,-1471,-2468,-4795
-50,84,-41,1617,-208,127
-128,-50,15,-1526,5330,8727
-71,-91,-9,-2309,5308,11050
-105,117,-116,-3409,3049,7570
-23,-20,-9,3038,236,-440
108,71,-119,1240,-1200,-5428
-113,86,82,1175,-1062,-6340
-113,63,-43,-60,-3528,-7148
-60,48,11,-671,-2999,-6224
-86,-126,118,33,-1550,-3184
112,-57,-4,628,1684,3830
94,68,-36,-3212,5261,8990
-99,34,-22,-816,4811,10185
-121,-9,90,-3387,1562,3894
-10,-125,-65,4633,2391,-2045
-61,75,102,2084,1692,-5139
90,-50,-52,1926,1,-5238
4,111,117,1649,-1375,-5801
101,10,-6,38,-2264,-5657
31,-107,-47,346,-2466,-4900
-115,17,-73,636,-1236,-3167
-9,76,-118,2857,-3510,-585
-113,7,0,1025,-1721,-907
15,116,-45,1005,-712,529
97,1,20,1831,1141,3235
49,94,6,-410,1703,4321
20,-92,65,-2188,2852,4895
86,81,-95,-4334,2599,8035
-47,-107,-117,-2557,769,6757
15,-117,118,-2307,-1474,-932
-124,-82,-93,2787,-1275,-2639
-100,-22,-57,-1384,-2168,-899
58,-104,18,-1047,-553,-561
53,-87,50,-483,393,-21
19,-44,36,-1816,418,533
4,-19,-23,-1332,981,1280
81,-47,-19,1551,853,2798
99,34,-67,902,1081,2870
1,53,122,1575,1783,3726
32,-117,-95,271,1470,3870
13,-27,-56,493,1059,3390
0,-109,-20,964,1419,3293
-77,-118,1,-268,1070,2202
-92,72,55,-1,916,2273
77,-87,-38,1649,-1110,-5369
-22,32,-11,2638,-841,-7145
50,-43,123,267,-2021,-8190
93,81,-90,-196,-2215,-6425
30,11,117,-312,-2481,-5334
100,89,-86,-833,-1543,-2628
-65,-35,89,-541,147,29
25,-95,-25,468,5144,8607
-53,-21,-101,-3393,5341,10498
-83,41,-52,-1588,3199,8122
10,-45,-41,2569,1352,2364
26,10,-1,1659,-1841,-5433
-82,26,67,-1760,-3076,-6109
-21,-47,82,-870,-3268,-6916
-115,-102,-59,-462,-2422,-5733
82,33,-45,-185,-878,-3630
60,20,67,-284,322,542
-90,61,45,-264,3928,8619
89,19,-57,-2758,5374,9007
-24,120,-33,-300,4645,5743
37,116,44,2029,682,-1312
37,41,7,3497,1173,-3876
8,81,-6,959,-204,-5627
9,-95,94,2213,-1786,-5960
-30,-38,-11,-1066,-3317,-6067
-41,-13,-24,-484,-2966,-4955
-25,-117,12,371,-2300,-3607
117,-6,87,1162,-1921,-1780
-71,122,-115,1547,-1098,-372
-89,-109,-121,1213,-312,654
111,49,45,-777,319,4292
-3,-113,54,-1979,2317,4819
19,-38,49,-2956,2465,6913
-73,95,-33,-3790,932,7596
64,18,-39,-6520,-1489,1731
29,50,-51,4046,-315,-1391
-96,100,-48,872,-1472,-2202
-42,-1,99,40,-5,-770
-84,-61,25,-102,-995,-65
102,-98,-31,-780,-626,133
35,-71,-18,-1099,576,1316
51,-56,-23,-566,578,2503
93,-33,-63,1463,650,3488
119,90,3,208,814,4525
35,-19,-61,-1662,1495,3749
-11,92,1,2872,384,4268
26,-94,58,-105,1267,3506
-29,-100,10,-1596,1166,2575
-90,29,105,-92,391,2634
-93,-32,45,1014,1540,1972
-69,-58,26,3598,795,-7670
110,110,-103,2374,-2979,-6612
-64,16,90,-978,-2614,-6896
-37,-72,65,-224,-2549,-5891
-85,107,49,-1874,-2313,-5293
-10,-87,-89,61,-1400,-2151
-87,-101,-8,1814,1948,3698
-54,52,-124,-3007,4951,8623
40,-51,-59,-1109,3875,10345
-79,110,60,-2113,1830,5088
59,-97,77,2554,-1450,-4132
-107,72,32,21,-1156,-5515
48,80,-115,641,-1835,-6031
-54,-73,42,-1495,-2032,-6042
-15,-114,-124,114,-1147,-3533
116,22,-88,-499,-571,-1011
-88,-36,99,411,4496,9070
-74,116,-16,-3415,5026,9955
-5,-111,-92,-448,4045,6008
14,124,-27,2488,907,-1875
71,40,-23,2815,1706,-4501
116,61,-13,-814,11,-5692
55,104,80,951,-1046,-6059
-100,6,35,-136,-1802,-6397
-100,95,-3,-270,-2345,-5578
-39,51,-58,-334,-2375,-4649
-1,-96,12,955,-1562,-3262
-10,89,-93,-326,-1969,-2000
-77,-9,-59,1362,-568,-841
-51,126,-34,1117,488,815
-65,23,-5,772,1492,3827
12,127,-68,-72,2584,4806
122,-86,-93,800,3225,7644
54,-111,42,-7645,1615,8132
86,37,19,-2971,-1381,6492
-114,47,-127,-1039,2153,-14
-118,54,-46,2262,-1184,-1470
-116,37,-11,-279,-348,-1494
-120,-34,123,674,554,-437
-100,-102,-10,-1043,-482,-294
-107,96,-39,-1854,-912,299
-85,106,-93,-1863,773,580
117,-58,-58,-1357,-339,1945
-126,-86,-96,1350,75,3006
-52,11,-45,542,215,3722
-4,6,-89,1842,1196,4080
14,-83,-10,-763,1257,3994
87,118,3,-818,1662,3724
31,127,40,432,559,3586
-7,103,111,990,193,3199
3,-94,-92,1264,1273,-6001
39,111,21,4791,-2916,-6094
-28,-17,103,-1064,-2017,-7799
52,106,64,-834,-2701,-6352
10,79,94,-127,-2484,-5522
119,93,-96,-1314,-1813,-3389
-115,-6,51,-39,-43,598
-6,28,29,93,4076,7076
2,-47,-96,-3768,4374,9294
59,-31,96,1635,3228,10207
-121,-45,34,1626,185,168
105,54,10,727,-1564,-5262
87,66,53,-799,-1781,-6075
68,-98,-6,-254,-2567,-6256
-35,-91,45,-528,-2226,-5062
-100,-74,-105,309,-1462,-2110
-42,118,35,-116,145,671
-69,-48,-84,437,4505,8082
-104,-36,-109,-2819,5873,9517
-10,74,21,-2024,4057,7524
-76,-21,79,-675,351,186
113,59,80,4648,1155,-4285
-94,33,-3,4,521,-6216
-108,-34,-76,979,-161,-6809
-39,-52,103,-74,-1223,-6509
-28,50,19,628,-1715,-5895
30,-40,-33,-240,-2159,-4960
103,-114,28,296,-753,-4628
72,45,46,2475,-772,-2837
-68,123,100,2293,-1750,-202
65,-10,-3,1151,787,800
-49,-56,78,-211,1061,4210
-124,-26,32,-1729,2892,4485
-41,-3,-28,-3000,1370,7790
42,29,121,-3492,1870,9815
103,-28,-45,-7325,-1844,4906
27,-110,-100,1840,-1364,-274
116,-47,-9,872,-576,-2107
-111,104,-85,-150,728,-1638
126,-75,63,667,-122,-706
102,-87,-43,-1413,-682,18
51,-82,-55,-1604,-44,643
38,-112,-67,-118,264,1757
62,33,-42,-518,102,2716
65,9,-81,2403,887,2967
-100,104,-69,930,951,2858
-92,-128,-92,-174,61,3453
-102,95,-41,-28,1092,2957
-52,41,-17,255,1428,3224
-39,89,28,-445,1061,2982
-16,91,-94,3634,-1836,-5982
-74,-37,5,584,-3539,-7569
42,107,-86,-632,-4775,-7474
99,60,-45,-3025,-3581,-6012
84,-92,90,-443,-1568,-4039
110,-50,57,343,-364,-991
104,-37,-39,805,4191,6574
66,-76,-47,-2154,5950,9593
-89,70,-106,-783,4999,10040
-23,28,-79,-1792,554,4513
-124,51,-127,3181,-1371,-5560
-23,20,40,364,-1277,-5153
-19,31,39,1301,-2331,-6109
-59,-31,4,-2618,-3719,-5841
60,-52,-90,-393,-2225,-4366
93,-62,-75,-1531,-1087,-1866
-20,-13,-122,2945,1863,3137
-73,33,-105,-2644,5785,9820
53,-29,-53,-1620,3298,9370
-56,-119,35,3798,4181,4189
-45,72,-124,529,-865,-4664
3,34,-71,214,679,-4674
122,42,-48,-347,-216,-5194
-1,-72,72,382,-1731,-5234
80,-119,-19,-246,-2212,-5202
7,-4,-56,-1697,-2186,-4209
85,-15,-29,767,-2422,-3554
-112,-26,25,1433,-2044,-2835
-3,-42,107,360,-2380,-1776
-36,-73,82,392,69,-791
36,11,127,437,1159,2098
-115,16,-82,-1535,3121,4128
112,-102,69,-2876,2149,6602
107,-72,-77,-3971,3156,9263
80,-103,-74,-5106,-1173,6099
-102,8,-122,1035,255,-663
119,-88,31,2973,-876,-2026
-75,16,-34,-720,-387,-1376
-51,-46,97,362,-258,-383
-102,-11,46,-2527,-1146,-578
-127,-72,-1,-1211,-709,530
56,-126,-16,-182,87,1286
70,0,-8,-1241,1081,2368
74,-85,-49,2072,857,3359
-61,35,-52,617,945,3764
-32,103,-54,273,1449,3968
26,79,-49,1118,1287,3871
37,107,3,-316,999,3175
-32,72,65,-1420,813,3324
-45,25,34,-711,-15,2429
116,17,36,2561,416,-7123
13,53,-58,3096,-1486,-7692
44,100,-89,-883,-3322,-6725
120,72,-79,-62,-1634,-5093
-123,89,-77,1754,-2231,-2410
-58,-80,104,-1287,91,965
-91,-58,-95,-342,3328,6189
31,-72,-7,-2021,5360,7289
72,126,67,-2640,4547,9270
115,-87,91,-2622,564,5065
77,69,49,1552,-1510,-1628
-121,37,85,1140,-977,-5118
81,56,-108,1516,-1754,-5788
-81,67,19,-236,-3468,-6488
-101,-97,-104,-1332,-2585,-5699
9,51,-46,-196,-1391,-3020
2,45,66,-2222,-2,-70
47,-76,111,1459,3583,6941
94,119,-71,-3083,5414,9063
33,-89,-27,-1417,4868,8596
70,38,98,-495,922,3845
-121,36,-73,3879,1751,-1857
108,15,32,1822,1322,-4762
-7,-38,76,1690,530,-5301
-110,-44,-47,560,-709,-6272
32,100,44,574,-2296,-6279
-11,-50,16,-1048,-2471,-5866
63,29,-39,726,-2693,-4578
47,70,72,462,-2406,-2742
108,-125,113,2478,-1643,-688
31,-36,94,3995,-1380,1958
-120,-29,57,-1037,626,2658
6,68,32,-2210,1234,3216
-2,-127,61,-1774,3069,3391
-92,20,42,-3915,775,5160
70,-16,90,-3839,-1046,6271
4,116,-11,-3456,-146,1729
-54,13,114,3586,412,-1840
-121,66,52,955,-721,-1096
-117,-95,-40,-413,-784,-728
101,-32,102,-345,-903,-509
-122,-91,40,166,-243,144
100,-81,-12,-963,-778,671
53,10,-28,-2538,-534,1094
59,-39,-29,-534,608,1841
53,-10,-23,1541,470,2883
-119,57,-35,2147,1198,3688
-10,-114,-64,643,1497,3837
-10,-60,-32,292,1231,3372
6,70,16,1819,1566,4066
80,-48,-31,2015,2383,-4613
-121,118,74,6218,-414,-4134
20,17,-31,1229,-3676,-5609
-52,95,-80,920,-3333,-5447
-14,105,-84,-179,-3033,-5232
-63,-24,-116,115,-2741,-4344
19,-128,119,-996,-2702,-4164
73,106,-18,-1047,-1183,-2125
11,-123,-75,1286,1035,1243
61,-48,-91,-2513,3953,8240
-32,-99,56,-3659,4274,9100
-60,-51,117,-192,3082,9482
95,-54,85,-454,498,4317
24,63,-1,3784,-522,-5466
41,31,27,292,-1507,-6350
-44,101,84,176,-3114,-7823
-14,-87,106,-1055,-3384,-7218
-46,-124,-119,38,-1922,-4511
53,-6,-55,-1443,-843,-1435
16,23,-8,1181,2686,6241
8,11,-9,-2790,4830,9070
71,-96,-43,-1424,4178,10474
-84,-65,-1,-1536,1286,6734
107,96,113,2886,2015,-554
-15,23,-127,3100,2208,-6185
-58,57,-58,426,-301,-6836
-59,45,-85,1052,-1262,-7395
44,46,-110,688,-2326,-6905
48,72,-1,1795,-2447,-5322
12,-62,-44,565,-2701,-4089
30,-24,68,1193,-2237,-1962
30,44,-27,1207,-576,147
-34,49,64,468,569,2118
-62,114,19,-236,2003,3308
-92,6,37,-2315,2240,3921
60,75,-80,-1427,4173,6377
-26,-122,-111,-9432,2170,5546
-56,-118,23,-1562,386,3481
33,30,-31,883,-4125,-4882
-88,-88,48,697,-2075,-1398
108,124,-84,1616,-1088,165
-2,-112,36,-418,-555,694
-42,-50,25,-2527,-418,1164
-4,-25,-2,-2324,-8,1871
40,22,-55,-1296,559,2485
41,25,-37,894,-80,3575
-61,121,0,365,588,4022
-25,-97,-78,515,1238,3536
46,10,-24,409,399,3960
48,109,-5,2490,1120,3068
-93,124,-7,3261,794,-5861
-52,-4,-82,3329,-1890,-6908
24,126,122,-18,-3972,-6625
46,6,120,-831,-3491,-5394
-9,114,-97,-1255,-2308,-4327
74,56,-1,76,-1580,-1672
125,117,121,1298,2757,4980
-118,5,23,-4016,7568,10461
-25,-81,-8,-2648,3366,10304
56,-34,-60,-1047,-653,3923
-16,91,-70,4391,892,-4732
83,15,37,-273,-1287,-6332
89,51,93,1753,-2189,-7029
-75,-32,-107,-1619,-3174,-6881
-7,-95,-98,-1337,-1415,-4495
20,70,-1,-1027,-1060,-1939
34,-68,-36,298,5177,8886
-103,66,-91,-3029,5486,9816
-71,-64,-99,-872,5313,6739
-8,-117,-113,206,296,1928
-34,26,-43,5435,1966,-3676
-6,32,8,618,244,-5000
-107,-119,-17,868,-246,-5603
15,95,-93,-5,-1279,-6122
-91,32,-17,1141,-1598,-5865
113,-62,-48,-342,-2858,-5435
-30,27,-38,2583,-1942,-3854
-51,82,-37,2044,-1955,-2402
109,-92,29,2106,-1112,-41
-96,70,112,1194,956,1253
-92,59,60,-1714,1469,3900
-39,79,-104,-2877,2560,5648
49,-103,-42,-5031,-683,8975
17,-120,110,-5510,-3756,6488
-123,-108,120,-249,1669,-2127
62,-108,97,3777,-997,-1472
98,-61,-97,-835,462,-1203
26,-24,103,-569,-1181,630
69,-34,23,-1167,100,62
51,-1,3,-2009,-49,716
15,2,-38,-1316,-505,1767
89,49,-37,-828,333,2095
68,32,-66,1569,329,3086
-111,-128,-31,56,409,3241
-27,101,-80,1162,1154,4102
4,-47,-14,156,730,3548
32,69,-44,2227,1512,3996
7,-62,28,-245,273,3223
-81,125,103,-362,755,2786
-90,110,58,309,962,1574
121,58,25,2898,1439,-4196
26,-52,24,2626,-78,-6540
-69,-80,-94,3289,-2321,-6911
65,1,-118,564,-2302,-6682
36,-12,-107,430,-2888,-5229
-71,-6,-96,-894,-2645,-4294
7,-51,9,863,-1744,-1573
-92,0,43,-1323,922,1889
-84,8,-26,-1287,5215,8999
110,41,-1,-794,6722,12137
5,86,-43,-4960,2067,6900
57,-86,-42,2891,438,-278
119,28,-21,672,-1901,-5023
4,38,-53,-611,-2237,-6234
124,30,52,179,-2874,-7429
-88,24,-127,-1749,-2406,-6161
86,59,-101,277,-1169,-3747
106,56,18,-334,-515,-674
-91,-53,83,-535,3907,8158
25,64,-84,-1677,4918,9125
28,54,-105,-1793,4172,5227
79,-92,-24,1614,674,-194
-77,75,25,2766,1306,-4282
76,101,-35,1087,693,-5876
-22,-21,109,1588,-1234,-6128
102,-88,70,-226,-1891,-5892
60,-16,-2,-966,-2464,-5098
-93,-125,-99,382,-2109,-3674
-101,-11,-70,3081,-1904,-1952
7,-15,29,2093,-1247,-1194
5,-122,-62,1060,344,888
-47,24,75,540,1922,3941
9,-38,15,-2554,2373,4292
-67,56,83,-4561,542,6128
124,11,91,-1093,-436,9250
89,106,-60,-6958,2558,2586
18,61,-99,2615,-772,-2659
98,-122,35,711,-1342,-1150
-101,-120,94,-142,-1210,-868
-119,23,-3,-648,-639,-139
71,124,-42,-674,465,-415
71,-83,-28,-1475,4,843
58,-19,-61,-2450,800,1797
-5,49,-36,-1128,27,2869
-94,39,-24,1429,450,3549
-71,97,-62,1298,852,4309
-7,-57,-5,-132,1205,3600
24,66,-40,1342,1490,4551
-5,-69,22,-78,618,3462
4,-84,78,-834,760,3205
-86,12,-24,12604,1144,-3065
-67,-48,66,3902,-1316,-7290
32,16,90,-367,-8490,-5090
-24,-21,47,-1927,-5868,-5691
-31,109,-49,-1920,-3836,-4707
99,88,-13,-1068,-2815,-3614
27,31,40,-330,-1120,-845
71,-66,-80,-553,2798,3737
75,-103,-91,-5440,7064,7597
-59,-119,88,-2915,5083,9878
-75,-50,117,-1680,35,5532
-107,-113,-26,4413,-908,-4748
-19,86,29,1876,-1799,-5101
-20,115,-111,1371,-1812,-5730
69,-59,-81,-917,-3881,-5831
61,-80,-18,-308,-1916,-3417
62,31,17,-702,-792,-1034
-43,-92,111,-390,2934,6943
-62,-104,39,-4716,4887,10069
-58,29,-86,2430,4294,11928
-45,67,-106,-3578,1634,135
116,91,-76,4505,414,-3472
107,53,118,3216,1282,-4200
5,-39,39,2094,206,-5900
-99,-113,115,625,-958,-6421
-44,80,26,298,-1331,-5650
66,0,-50,-1854,-1865,-5325
65,19,-61,2924,-1776,-2869
101,42,50,1898,-1858,-1135
19,-18,-117,958,-995,-155
39,37,-44,608,78,1613
-59,39,-69,1277,622,3636
-112,49,-93,147,2402,2510
49,107,-10,-1686,2741,3342
-100,-38,-122,-4862,1353,5220
58,-74,69,-5359,-1576,4870
109,10,118,-6319,-2041,617
-72,-63,-24,4764,-643,-1241
-49,-91,-10,469,-306,-1160
-91,46,-8,-1892,200,-573
42,-76,-42,-1706,-47,683
25,-73,-76,-337,430,2012
100,-44,-75,852,187,3423
-71,-80,-101,1552,463,4125
12,17,23,861,336,6367
-124,114,-88,1908,3776,5076
-18,74,-79,635,1550,4320
113,-45,-24,-748,678,3756
13,113,12,870,666,3367
-116,-69,69,173,-224,1366
126,43,-98,3900,-2934,-5969
-101,33,103,-1061,-3508,-6213
-52,75,-107,-1487,-2752,-5185
122,70,-44,-1660,-2160,-3603
-109,-99,-124,-166,-580,-101
-22,-38,55,-716,3721,7791
96,-39,-115,-4506,3665,8282
-48,11,-47,2354,3777,9032
-2,-33,-23,552,-384,-1664
23,73,-18,1581,-1174,-5201
-85,66,-91,1094,-1341,-6077
54,114,84,-543,-2942,-6393
-1,44,-104,-1005,-1904,-4877
110,92,-57,-1240,-312,-2252
-85,-14,102,517,1106,2982
-41,34,53,-1949,4597,8354
-6,69,-80,-1892,3659,8278
-58,-77,20,-2049,2443,3490
81,-111,74,5569,1979,-2557
76,53,-36,2036,1587,-5227
-128,105,113,735,-794,-5963
21,-35,42,1748,-2172,-6023
59,32,-117,-957,-4173,-5451
42,74,-91,-785,-3095,-4371
-111,93,-8,3014,-2523,-1747
-49,-69,54,1411,-933,-724
-24,-22,-122,-679,250,754
52,-85,-37,410,1273,4043
92,-84,36,-2245,2087,6170
-68,-99,63,-4916,2062,7107
-21,88,67,-3523,-1058,5839
-65,27,95,-2872,-1417,-839
-49,68,-70,3928,-1103,-1535
-63,73,83,1125,-511,-990
-70,-52,9,543,-855,245
118,-65,-11,-1182,-591,1433
72,-48,-39,-1640,-337,2133
48,-71,-41,970,767,3537
-79,-13,-10,1189,1382,3921
57,109,-85,184,2519,4632
89,117,-58,1465,1358,4413
104,109,-26,93,1533,3649
75,53,12,228,2605,4086
34,-103,54,1278,517,3767
-83,-48,-6,21,171,1139
58,4,-13,340,-163,-1101
59,56,21,1768,1244,-1424
70,-1,23,1351,1493,-1131
85,-66,43,1432,663,-740
106,-63,94,441,-295,-490
82,61,-22,2221,-2068,-8319
-126,-14,27,1352,-3426,-5839
27,-5,76,225,-4349,-5937
-112,66,-72,-2827,-3190,-5016
-93,-58,-48,-1904,-1338,-2735
-73,112,-79,1282,1428,2787
-53,-11,100,-3817,4282,9047
96,-7,-72,-1515,3456,9735
84,-51,-23,-4278,312,5008
123,-14,96,5661,462,-3782
77,59,43,1674,-122,-5399
103,57,-1,1395,-1934,-6540
72,-38,29,-348,-3736,-6251
-42,-67,-100,-1827,-2088,-4572
85,2,73,-804,-367,-1133
127,-11,72,1565,4989,8174
-47,63,7,-5189,6734,9803
112,6,-39,-1819,5071,7502
3,-83,-8,2721,1056,942
100,27,77,4788,1171,-3572
-58,17,-44,290,601,-5337
29,-42,-88,1457,-961,-5842
47,-79,-49,372,-1196,-6208
-126,20,26,-851,-2433,-5959
-5,120,-7,-173,-2534,-4451
17,94,-82,90,-2930,-3199
16,-5,-56,3103,-2498,-1639
-85,4,56,1514,-1945,-541
-2,-128,-86,506,563,1428
109,31,-37,954,2063,4993
-70,-100,-43,-2977,3454,5246
126,-6,78,-2231,1562,8311
-104,-18,76,-7823,-1908,2879
-126,78,-77,2616,-341,-47
124,7,-96,1921,-366,-1848
-49,46,21,-1166,379,-324
123,-98,22,187,-1400,847
121,-7,-3,-1315,-632,604
82,-29,-40,-1012,547,1454
37,-15,10,310,113,2795
114,-16,-45,1529,689,3735
-111,100,-25,96,2305,3274
31,106,-76,344,1837,3807
34,7,-23,1197,1772,3995
48,87,-70,-719,1868,3562
-5,76,5,71,490,3383
-18,73,31,-281,1271,2545
-108,15,24,1027,840,1985
87,-19,27,1521,426,1010
31,-56,16,407,548,-456
-16,28,-28,-629,-2036,-6163
-47,-38,-119,1824,-1871,-7159
18,-106,54,-357,-2847,-7044
-121,54,-74,-532,-3177,-6460
77,60,10,-1496,-2914,-5534
98,-31,-74,-766,-1790,-3494
104,48,-95,-376,173,1834
30,-27,-60,40,4450,7879
-35,-66,51,-1876,6351,9538
1,95,127,-2142,2889,8858
62,-70,-20,3012,514,3156
-18,43,107,1563,-1569,-4731
-31,43,-8,-327,-1613,-5798
73,95,-25,-1020,-2336,-6624
-65,58,-30,-2411,-2762,-6155
102,22,70,184,-1596,-3401
95,-54,-91,-919,-1036,-968
6,-77,50,1561,2630,7541
-24,106,-116,-2431,5157,9276
-92,7,126,-610,3979,8744
121,70,122,-173,1238,3179
6,39,-56,6039,2968,-4644
50,31,81,174,193,-5477
-102,-85,15,1079,-354,-5799
39,-34,-93,1078,-1049,-5582
110,-99,-21,626,-2037,-5452
4,17,-79,751,-2870,-4490
-119,-48,-93,-582,-2820,-3719
-95,-102,-13,2870,-2691,-1100
19,-126,123,534,-1562,-240
20,30,-5,397,651,1814
0,-115,41,-582,859,4602
54,13,31,-3688,2200,4974
65,-42,-62,-7092,1582,6588
18,-84,2,-4774,-2887,4709
70,16,-108,1536,-312,-404
63,-45,47,4148,777,-2916
111,107,-69,489,18,-1117
74,-38,94,-202,-1179,497
13,-29,77,-1045,-1429,727
31,-80,47,-860,208,1145
9,-70,9,-12,125,2125
84,-30,-13,-609,472,3002
87,48,-39,-173,-513,4263
-80,109,-1,336,-22,3858
36,-71,-36,44,952,3671
24,-118,-32,2073,251,3530
18,110,9,636,580,3598
8,46,-1,1121,1522,3335
-31,-26,36,2559,1915,3315
-30,-82,117,1832,-1653,-7309
40,21,-14,5943,510,-6968
33,21,90,200,-4553,-5821
106,39,125,-678,-2691,-6232
91,0,-82,-399,-2849,-5582
-106,93,-37,-297,-2013,-3339
-62,-68,54,583,-188,-23
-63,-111,-127,-355,2866,6645
-25,53,-58,-2028,5526,8616
57,-6,-78,117,3731,9682
13,-7,38,-3450,-208,5285
-62,-92,-4,1598,-110,-5773
-32,87,60,1520,-547,-6284
99,89,-127,1970,-1524,-6277
56,-40,78,-1355,-2674,-5653
55,-118,-84,1435,-1983,-3500
23,28,3,-719,-1604,-1374
-64,-121,-113,1876,3057,5281
-73,-12,3,-3367,5745,9955
1,27,36,-4031,3258,11163
-85,50,18,-1648,-1293,4390
34,-99,-97,5309,3292,-3229
59,33,66,1768,2309,-4761
16,35,-59,2364,1487,-5988
65,-86,-85,455,493,-6674
-53,23,57,895,-1155,-6848
-56,-77,-38,-270,-1967,-6311
41,-49,-44,1364,-2679,-4483
49,83,84,-710,-1821,-3093
103,109,-90,2574,-1059,-1358
-67,-105,-66,2019,-1120,-164
-33,-7,40,-1030,-200,318
-116,107,18,556,1951,3065
-72,-68,102,-835,2217,3806
-65,22,-118,-1794,64,6797
106,18,38,-3464,-3012,9847
94,77,47,-7094,2528,4904
115,-58,122,1672,-899,-960
-69,106,31,2666,-235,-1951
110,54,-15,773,552,-1203
91,-41,118,-916,642,111
73,-75,62,-818,-10,447
89,99,9,-289,153,1050
-114,-71,-75,-1078,694,1683
107,-92,-46,-72,-247,3271
-64,39,-59,-379,-394,3645
23,48,-74,1102,740,3633
30,82,-102,1251,176,3757
55,-66,-25,161,232,3323
11,112,-5,1955,856,3064
102,121,-36,2332,305,-6094
115,97,-26,2215,-1752,-6304
16,1,112,-539,-2882,-6324
43,-20,126,-206,-3157,-5641
-77,88,-19,389,-2506,-3550
-78,81,-78,738,2205,2754
-56,5,38,-4021,3820,9113
-70,-80,-123,-3313,3860,10844
94,112,-72,-3013,529,6100
-10,-80,4,2845,132,-629
-34,63,-34,2442,-654,-5736
2,46,108,1256,-1842,-5836
-34,-68,57,-501,-3160,-6756
66,120,127,79,-3404,-5877
-21,-8,-28,-534,-1278,-3116
-45,-63,-78,680,-226,1234
20,25,97,-1656,6487,9909
31,33,-26,-4367,5230,10030
52,-109,22,-1482,2797,5180
39,110,-11,3489,1320,-1530
-54,37,19,1455,350,-4986
-87,67,-27,753,37,-5877
-89,-35,113,749,-1273,-7066
29,125,113,-74,-2098,-6336
-34,80,37,-971,-1786,-5584
-43,-88,23,500,-2023,-4025
-119,51,40,1166,-1824,-1934
0,-37,92,1271,-1541,-1234
-68,-112,-8,515,-628,-130
52,-6,14,1570,1673,1675
-5,34,11,-171,1525,3974
-11,90,89,-2329,2355,4850
64,15,104,-3694,1349,7426
107,18,85,-3228,-364,8363
-115,-87,75,-8731,-302,4031
54,-125,103,4073,1156,-2539
-75,38,67,3024,12,-1699
-89,102,-116,-355,-571,-496
-87,97,4,235,-1230,513
-119,-97,-16,-1507,-1857,974
116,-60,-65,-2198,-775,882
95,-56,-55,-705,422,1753
12,-45,5,1976,-149,3634
-96,20,-41,1824,1589,3170
-56,66,-66,1802,2092,4031
-13,-68,-13,119,1502,3521
-12,57,-21,278,2360,3428
-26,-49,26,-2432,1101,2693
-60,-118,41,-1131,741,1680
113,-4,69,966,799,1352
126,36,57,5319,-336,-5510
-77,6,51,1984,-371,-6973
-106,-56,38,633,-5015,-6503
-74,-57,-1,-1115,-4061,-6496
-66,30,-11,-1367,-3284,-4877
108,36,74,-1327,-2016,-2868
-114,124,-49,2380,570,959
-53,-57,-117,-1173,5944,7990
-114,-25,-69,-1523,8438,9598
-77,105,-7,-3559,3005,7366
-79,-55,86,2019,637,145
-44,25,103,1121,-1784,-5191
30,32,19,-730,-2631,-6145
-44,-65,-53,-1038,-4071,-6645
89,109,109,-2196,-2333,-5472
-4,-7,-98,234,-1242,-3265
-17,-13,51,-303,439,736
52,25,-90,543,5309,9261
70,-90,-66,-1550,6925,9643
-112,6,117,-3699,2352,5848
4,104,40,4051,1849,-1016
15,27,-22,2856,161,-4950
4,60,-106,-634,-516,-5872
-90,48,-110,1348,-1358,-6057
34,122,88,1599,-2234,-5603
-47,73,46,-850,-2519,-5319
-14,-102,54,221,-2334,-3781
-122,57,91,1392,-1619,-2698
-36,-55,-126,1244,-1992,-1151
-72,58,-44,745,-181,-343
21,-35,-23,576,1283,3134
38,94,-25,-1250,1820,3337
92,26,-37,-2744,2108,5169
74,-26,23,-7074,1862,6414
116,89,-61,-3054,-274,6539
115,90,-89,-4623,-3587,1748
-56,2,85,4745,806,-2899
-104,88,46,813,-547,-1905
-97,7,123,-163,-111,-686
123,-20,52,-1423,-1896,183
120,-46,-29,-2917,-604,393
32,-84,-29,-432,-1345,2430
18,-116,-52,2376,-83,3464
109,1,-57,1714,1350,3509
-45,-119,-75,597,1859,4062
-37,-59,-69,375,1899,3909
4,98,-54,782,1335,3636
-20,-117,37,-107,1404,3477
-22,18,27,1234,1484,3384
-47,-9,34,879,780,2748
-47,-80,100,2830,-1962,-5658
121,-62,23,1785,-1615,-6988
-42,-106,127,-3815,-2117,-7686
-28,-41,-87,-1789,-2606,-3598
-32,-30,76,-2043,-82,-1899
-104,124,-61,2817,-858,754
-56,-86,4,-360,4245,3802
76,92,-79,-2121,5860,8888
64,28,49,-700,3390,9204
44,85,19,-3464,-42,4921
-7,114,114,3536,482,-3223
16,39,31,413,-1138,-4923
-23,29,96,1451,-972,-6288
3,38,-18,-1157,-3278,-7081
85,-19,113,-1345,-2000,-5873
-67,-25,-127,967,-1967,-3838
7,74,-60,-1406,-1222,-1080
-67,-61,38,1437,2108,4333
67,98,-5,-1497,4068,8465
108,15,-5,-2224,3375,10216
-89,14,-120,1383,606,6260
-101,93,-29,951,1882,-2234
57,18,-5,5500,2393,-4578
-109,10,-54,67,1025,-6054
85,124,-123,960,-581,-6372
27,97,19,-314,-1476,-7526
-104,-39,59,-283,-2671,-6701
-74,-73,44,152,-2563,-4307
121,42,-105,546,-2632,-3080
21,88,-23,1988,-2041,-860
-31,38,-15,2092,205,206
7,117,-69,1177,187,2660
-74,-88,-119,919,1756,3161
-15,-117,10,-1131,825,6612
45,63,-100,-4811,4325,5317
-51,7,21,-2157,1907,8335
-114,86,25,-4524,-532,-6
108,76,-128,3574,-1172,-2076
100,-15,-38,-524,-987,-1116
-122,-26,-127,65,-369,-9
123,-49,41,-757,-479,931
98,-61,-17,-1774,-535,1274
63,-36,-45,-2432,-257,1138
85,8,-61,-1892,693,1461
84,89,1,-706,560,2670
98,-79,13,-1247,917,2181
-100,14,-118,-2408,-235,3299
-52,91,125,-4068,364,2000
-124,-5,-32,-582,-190,2255
117,20,72,363,-204,1538
-5,-2,34,6130,-359,-1763
-109,-22,-66,912,230,-5724
-90,-31,-87,2888,-627,-6856
19,4,84,2204,-4397,-6397
-72,-50,-52,99,-5172,-6481
-23,-118,79,-1979,-3735,-5481
82,91,-60,-1499,-2809,-3322
-89,-1,12,-157,101,224
-73,-41,-3,88,4437,7224
-67,108,-108,-1887,6023,7848
-7,24,-50,-738,4751,8211
-93,-51,-45,-1722,458,6641
15,53,124,2114,76,-2142
-40,6,-125,512,-1878,-5222
-122,32,-44,151,-2504,-6429
112,-12,-63,-1236,-4534,-7118
-34,34,97,-1649,-2567,-5488
20,-108,-100,104,-1910,-2887
-36,-55,-27,-282,940,2212
117,86,64,-379,4868,7598
-38,114,18,-1211,5123,8315
-39,-46,22,3551,6299,7518
59,90,-63,716,3232,2589
-70,28,120,1672,-1217,-3338
-113,26,126,701,-424,-5149
-119,-29,102,726,-1545,-6132
41,102,10,-223,-3391,-6364
19,92,45,-131,-3249,-5959
-126,-103,-8,505,-3767,-4654
38,95,-8,2399,-2950,-2916
-80,-82,-118,894,-1997,-1158
64,116,-48,871,-772,272
-128,-112,0,130,124,2182
97,89,11,570,2563,4668
-108,-17,126,-1690,4911,4730
95,-122,-6,-6925,1588,5397
-54,58,-31,-6204,18,7284
-3,-69,-99,-1948,2154,-56
31,-89,-78,4765,-2934,-2270
-67,60,-57,-2098,-282,-1299
-127,-65,-61,1498,10,-45
-112,-36,43,-1019,-176,167
-102,-99,42,-1540,-275,585
-119,-65,-11,-2277,-288,1408
-110,-123,-38,-466,608,2466
-121,18,10,-879,-58,3680
-26,7,-61,876,1107,3879
49,-98,-47,291,898,4708
64,-69,-71,979,875,4010
112,-117,-27,4033,560,3818
115,-81,-41,2546,-1403,-5360
-124,-15,-86,1892,-896,-6717
23,-95,80,-688,-3726,-6964
76,68,90,-427,-2495,-6133
-49,67,90,-708,-2383,-5428
25,-65,126,-509,-1987,-3818
70,-78,22,735,-1299,-1345
23,-72,53,-465,1878,3834
112,86,-56,-1105,4453,7661
37,58,58,-1875,4517,9057
37,-52,-83,-2009,3168,8019
63,-90,-60,2641,-374,3331
-28,35,-41,1831,-564,-4423
-65,27,48,-1042,-1482,-5954
20,19,84,-129,-1979,-6045
-17,98,71,-1383,-2134,-5842
-54,122,-119,-36,-1462,-4112
53,-93,-63,307,-1025,-1341
-35,30,108,-1251,309,2358
-83,23,110,972,4044,8211
29,-40,-124,-1570,5954,10078
53,21,-96,-3059,2542,5653
-51,-105,-124,3669,1675,-1222
68,13,-55,2836,1759,-5199
-57,63,-12,362,-189,-6526
-27,113,-64,2585,-353,-7001
56,-50,-58,1200,-2126,-6325
35,23,-87,-770,-2024,-5494
50,-106,-116,20,-1771,-3524
45,-13,120,2315,-1309,-1511
-7,81,127,1726,-1861,264
-37,-96,-35,-481,-323,-255
-113,88,-85,1703,305,1590
-27,-116,-91,753,2245,2844
9,-91,-13,-1366,2147,4832
11,56,73,-4324,1757,5790
18,124,-100,-3096,-1663,9331
-97,-122,29,-9457,-2276,2532
92,-104,-82,-863,3715,-4689
-97,108,18,5206,43,-1118
111,2,-12,576,-1622,-726
-111,-80,-51,-2543,605,-67
23,111,-73,-3400,467,1043
28,-91,-51,-853,-121,2665
95,-74,-33,1553,810,3336
-28,92,36,858,198,4516
2,-80,8,140,1336,4387
106,-121,-11,1389,1109,4526
105,-80,32,773,743,4007
-1,-92,82,-566,1148,3406
-6,-92,-31,1876,140,-6313
91,-2,-34,3091,-961,-7876
127,-65,122,464,-3864,-7320
-79,0,-49,-17,-2044,-5971
-23,-81,-22,-101,-2506,-4159
3,-24,3,159,-1900,-1542
-93,-31,23,-255,950,2245
112,17,-48,-1363,5254,9682
-7,15,34,-3193,4548,9832
-47,-64,-5,-2124,2304,8071
-84,-93,117,4199,526,-753
-73,12,-109,-517,-1918,-5181
107,34,16,-930,-2030,-6684
35,-20,31,-658,-3515,-7328
-101,110,-118,-663,-2273,-6209
-24,125,-65,430,-1072,-3159
-25,-56,-1,-537,-679,135
-55,-62,54,1552,3281,6160
52,114,5,-1582,5322,8931
55,55,-63,1320,6164,9607
-37,-88,-75,-3086,1364,3368
54,63,80,5262,848,-4120
93,18,-41,1876,522,-5928
10,0,34,217,71,-6922
-4,110,115,952,-2160,-6796
73,-120,122,-90,-2278,-6053
-40,2,64,-1609,-2291,-5370
120,77,24,-390,-1626,-3453
102,-119,73,3223,-2040,-650
-35,111,118,1310,-1114,-772
-31,19,4,448,55,1408
-96,78,-37,392,1023,3495
-79,-83,-117,-237,1192,4240
-33,8,7,-2311,2170,5282
-100,-102,-82,-4334,1718,8686
-111,51,-74,-4048,-3111,6000
-56,-99,-81,-1404,-362,-2441
-71,-102,-58,6044,678,-2846
-81,-128,122,1099,134,-1703
-90,-36,19,-1746,-1296,-365
102,-100,-19,-2056,-1293,137
84,106,-48,-1145,96,836
12,90,-39,272,-459,2271
-38,-64,-26,-1143,997,3237
123,112,-61,2647,1980,4082
-65,31,-85,1218,1315,4996
17,-80,-35,-374,2237,4479
89,104,-41,1143,2465,4241
43,-96,37,-294,1392,3977
8,63,47,-894,987,3840
-22,47,-65,5939,987,-5881
-35,15,66,2156,-3039,-5199
-96,11,-52,1343,-4665,-6267
109,93,-22,-1734,-5674,-5863
-41,-8,15,-491,-3019,-5386
28,9,-89,-572,-3449,-4238
-36,0,19,-1005,-2033,-2236
75,50,25,659,1264,1702
62,18,18,-296,5249,7718
0,-6,88,-3062,6502,9058
-23,108,-33,-241,4838,8880
40,-69,4,-1528,-281,4546
12,49,31,2960,-1129,-5674
-44,12,-35,-860,-2266,-5733
108,53,58,358,-2951,-6807
120,-105,-1,-1852,-3081,-6374
-117,95,92,318,-2117,-4187
113,-102,-52,-15,-1584,-952
47,-107,-80,568,3309,5812
-8,11,-46,-2082,6695,8819
-47,92,-98,-3901,4538,11591
-77,-118,-73,-2273,2167,3617
61,67,77,5497,1113,-3067
101,9,-41,2138,1311,-4959
3,-108,-6,259,593,-5549
49,-75,-58,973,168,-5738
23,-126,-124,-135,-1149,-5335
-66,-113,43,-2178,-1647,-5401
82,35,36,1113,-1679,-4765
9,-94,97,2191,-2156,-3486
-41,-37,-110,2915,-2502,-591
-69,-44,35,1013,-1160,45
-28,-87,-36,618,-613,2601
-123,-33,10,-1340,1373,2813
-4,1,46,-2858,2298,4336
42,23,-78,-5873,2279,5720
95,-99,121,-1711,-3213,9464
21,-112,-127,-3230,-428,2982
-61,111,26,2666,284,-3741
-112,-64,-23,485,-688,-1082
126,39,-94,-669,-652,-331
88,-106,47,-1272,-1047,669
103,-79,-6,-2946,179,652
67,-39,-29,-1864,-296,2280
91,-47,-46,881,204,3210
-110,35,20,1745,-60,4070
3,113,-33,882,1324,3909
7,-52,28,-1220,1009,4065
99,-123,-58,2200,1577,4092
109,111,-59,2851,1358,3482
60,7,-30,1908,2175,-7755
-111,42,-46,3033,-3027,-5576
-105,82,-89,2148,-3577,-5480
23,117,-95,453,-2906,-5801
10,8,-121,-51,-2767,-4451
72,12,112,-977,-2608,-3266
-60,56,-66,547,-1344,-1031
70,9,-120,-532,406,1084
6,-109,-53,-333,4175,7096
123,101,-46,-1171,6877,8794
35,51,43,244,5495,10814
124,11,60,-1234,722,5507
41,38,-47,3774,-212,-3279
107,-1,29,-422,-2704,-6306
122,36,-32,-1002,-2765,-7049
-46,27,16,-1287,-4193,-6837
-3,-28,-65,144,-1966,-4349
-28,-14,-41,-647,-1627,-1310
-22,-69,-21,1125,944,3291
-27,8,-103,-531,5349,7978
54,-113,67,-373,5778,9314
44,-44,-96,-3940,3301,5349
104,-117,116,4438,1561,-117
84,2,-85,2012,825,-5611
121,36,-25,268,279,-6104
96,85,-55,61,-432,-6654
-97,99,-89,1066,-1487,-5330
110,14,-122,-906,-1303,-4828
115,-120,40,-373,-1337,-3250
-40,92,4,750,-1825,-1149
-123,51,7,397,-1003,-910
30,-60,-41,-633,-1059,829
77,-13,120,322,529,1621
-41,120,-91,-1188,-874,3210
33,40,41,-1188,684,3945
125,21,-69,-2939,614,4863
122,36,-51,-2723,-400,8384
59,23,-62,-2729,-87,-1937
-20,119,-88,3858,402,-1191
53,-95,-1,552,-981,-427
111,8,107,-1083,350,17
112,-32,50,-1130,-635,325
-122,124,-23,-1595,363,863
-120,-60,-47,-2447,-554,1730
100,-55,-52,-1359,-238,2442
-91,37,-13,-626,-102,3073
-20,-2,-9,1506,64,4032
15,-114,-14,-100,442,3535
101,98,-31,734,674,3470
74,90,11,1162,479,3460
95,5,-25,4097,-131,-6543
-124,-86,42,4510,-1640,-6415
-85,-20,-123,442,-4222,-6377
-20,-81,-99,832,-3242,-5528
-39,-98,125,484,-3507,-4670
89,-34,-43,-1685,-2895,-3556
-85,43,-120,449,-919,-432
-112,-40,-38,39,2786,4879
123,55,90,-1973,5481,8913
13,11,-20,-960,5238,9945
93,-117,-118,-3474,2364,6362
-36,78,-89,5163,35,-1388
-91,-4,-61,-697,-1912,-5308
-82,28,19,-702,-2544,-6973
57,-122,65,-1723,-3878,-7346
-93,-105,-109,-262,-2603,-5211
-85,-71,-74,-1152,-1028,-2002
-34,-55,-52,1360,1120,4353
60,15,118,-605,4557,8515
-38,42,70,-2135,5472,9812
-4,61,-63,-5510,1706,5789
63,-124,-84,4852,1548,2340
-50,-4,-125,6232,2524,-5953
-112,7,-92,-299,-1100,-6924
-116,-12,122,-615,-1115,-7522
27,48,90,529,-2519,-7163
93,-107,22,62,-2554,-6611
98,0,-37,-789,-2887,-5245
55,-27,56,2604,-1735,-2516
70,126,-126,2143,-1593,-1042
23,-21,86,777,106,1373
-38,49,41,278,1863,2904
-94,79,-74,80,1790,4560
-36,65,-40,-2473,2485,5378
-83,-89,97,-2469,2316,8738
-110,49,56,-4972,-892,6231
-46,-89,-17,-1109,-1852,204
-58,84,-33,3312,-667,-1488
-21,-73,106,243,128,-1310
-20,-30,14,-1206,-1055,-164
126,-65,30,-1751,-1932,623
81,-52,-2,-1645,100,831
11,46,0,2186,943,2699
122,-114,-1,2574,1938,3869
-127,0,-24,416,2384,4894
11,-67,-50,-179,2545,4516
6,63,-72,1212,2867,3711
48,-111,-26,441,1393,3660
-8,96,-51,-483,1166,2342
-108,69,37,-448,609,2051
-103,-19,76,3036,-1914,-7200
-42,62,66,-458,-2619,-7484
98,59,21,1471,-1505,-6278
97,105,-112,-1090,-4617,-4265
52,-34,121,-2424,-859,-3196
93,-106,42,93,466,590
-68,-70,-31,-894,4072,6450
-66,-86,68,-4233,4728,9104
84,-16,114,1523,4504,9800
-88,54,45,-1864,-513,1335
-3,72,70,4649,-1420,-5003
-123,26,72,935,-2224,-5753
23,-39,20,1017,-3354,-5988
-12,92,117,-1567,-3956,-5949
28,-93,-11,-245,-1793,-3314
101,-119,54,-239,1641,2278
-80,-18,-104,-2112,5042,7830
-105,3,85,-1384,4961,9417
90,-117,72,-440,5795,4879
-14,-90,76,6644,3096,587
93,-8,-87,2141,-657,-3904
80,-74,-90,138,174,-4535
-69,122,-40,3242,-2489,-4779
118,-81,66,788,-4662,-5710
99,10,-116,2220,-5609,-4716
20,77,19,-890,-4963,-3388
-35,119,96,-57,-3385,-2239
79,16,40,1392,-799,414
32,84,-76,-684,649,1583
27,-86,-38,-2063,2572,2935
42,-10,87,-2157,3196,6489
102,-6,-2,-2693,4462,8235
121,-15,-27,-5894,-3388,2631
-42,-30,-86,1777,-1692,-1316
-90,-95,104,1883,220,-1436
-78,15,45,-1418,-173,-123
121,-122,6,-520,-1494,1133
121,-23,-6,-1842,-624,1934
83,-70,-49,-932,508,1932
113,-59,-55,1130,1176,3141
-128,34,-42,-429,468,3735
-28,73,-59,-29,2281,4010
23,118,-60,-154,1772,4151
45,107,-39,1782,2157,4532
70,95,32,2216,1700,4049
33,-93,-29,-691,2031,1542
-103,-23,49,-437,777,1504
80,-98,73,758,513,1321
73,-108,54,377,1074,434
68,77,46,842,911,-117
53,-30,-106,3693,-297,-4716
0,2,-47,773,1070,-7209
12,-103,-92,1726,-3041,-7798
51,-62,90,-2365,-3026,-8846
75,126,-63,1018,-1957,-5804
106,11,-59,283,-1413,-3408
65,59,-24,85,-1115,-1658
-34,-88,5,-114,2649,4498
-78,110,-92,-336,4120,8128
123,44,-36,-2086,4429,11329
27,-96,-41,-2512,245,6961
42,-106,70,2746,-933,-237
4,43,-87,139,-647,-7373
71,42,91,-2017,-1468,-7295
-34,-35,-14,-1176,-1690,-6981
49,51,39,514,-1192,-5305
52,-75,62,-1033,-665,-1878
91,-26,-99,-413,-424,642
-108,-10,-74,1440,2340,6974
-13,-125,39,-1104,2912,9839
13,-1,8,1601,5387,7292
100,33,-16,-3527,2006,3432
-103,62,54,3954,173,-2606
123,5,-61,1295,1094,-5483
-25,-105,48,850,77,-5858
-26,11,-120,783,-1047,-6159
36,-71,-4,-830,-2063,-5887
-103,-51,-89,98,-2433,-4808
-109,108,-16,-1474,-2319,-4062
-34,-71,64,942,-1930,-2340
-101,92,-72,1590,-1854,-820
-127,-92,-49,617,-147,-250
-39,-104,-50,-8,-18,1969
9,-126,49,-1411,1447,3750
70,94,113,-1681,2778,5647
-52,8,-69,-4215,2247,9435
-45,-69,116,-9930,-181,4560
-62,58,-16,5439,-1645,-3096
109,-24,-40,2411,-2700,-1266
-99,79,-125,-33,-498,-501
106,-128,52,535,853,-828
59,-16,46,-639,-88,558
73,-39,11,-1698,-174,1708
51,-63,-16,-1069,98,2284
66,-60,-15,235,498,3264
-66,11,1,557,406,4064
-2,-103,-48,-856,1900,3616
16,40,-71,2547,1349,3197
61,52,-47,1325,1211,3541
25,50,-42,246,1188,3470
39,-69,118,1918,-866,-6115
-110,-118,86,1475,-3302,-5579
-10,-87,86,-46,-3771,-5522
-9,-120,115,-1023,-2865,-4895
93,-62,-71,-450,-2361,-3698
-34,113,120,895,-808,-961
94,1,127,-774,1642,3422
73,0,29,1322,4418,7395
-28,9,-88,-2085,8699,10061
34,-27,107,-3739,1855,9156
-57,102,79,889,1047,2668
-13,31,35,2204,-1304,-4859
-104,-13,-73,-1471,-1617,-6535
-40,-25,46,-605,-2332,-7098
-68,-82,-84,-2000,-2084,-6166
101,53,-95,-1182,-1252,-4201
-120,-54,-7,-556,-442,-1593
-109,0,-34,1173,1109,4106
-50,29,15,2217,3682,7824
-40,76,15,771,7150,8677
-12,-67,7,-2649,1813,4491
47,40,103,5054,1360,-1854
75,10,-68,1239,302,-5326
-123,52,-71,-258,-394,-6218
90,87,83,640,-1524,-6891
-107,-112,35,-824,-2628,-5404
87,97,-42,48,-2729,-3975
-38,89,-41,-406,-4896,-1395
102,-17,-47,1058,-1429,-1842
114,64,-111,4177,-973,658
-101,21,-41,-1475,591,782
9,-108,21,349,783,3366
61,-121,-101,-2375,2168,3867
22,91,26,-3599,2673,7364
-25,22,-80,-2078,2718,5600
-108,103,121,-500,11,2469
18,99,102,3153,1314,-341
71,-1,115,-592,169,10
100,13,-80,-580,798,355
-123,-72,116,-583,629,1433
-77,75,81,-558,1766,1678
-107,-128,74,-1864,929,1915
-11,-36,59,153,2069,1559
-50,90,74,-1447,1989,2360
-4,13,82,-1039,2186,2292
64,-11,77,-1004,891,2372
-109,42,34,-2338,1647,2331
107,97,2,-2709,667,1861
95,-110,20,-2472,-149,2356
120,112,17,796,359,2840
-20,-51,-4,2040,1672,-5990
31,29,61,4157,2084,-4434
-56,94,-31,3582,-2451,-5529
-74,79,-81,2299,-4882,-5072
-114,115,102,2909,-5127,-4702
111,-50,-121,1167,-2985,-3884
98,-44,67,3172,-2865,-2444
-46,-40,126,-2866,-2687,-2057
-107,-62,9,-578,735,993
111,58,96,-870,3171,5492
-87,27,-80,-1514,4357,6264
56,-122,110,-21,6302,9573
64,94,-65,-3698,2430,7417
101,65,90,4379,-604,-1120
52,3,-98,-348,-1975,-5381
-8,28,-90,-1460,-2530,-6404
-79,23,22,-687,-3081,-5920
77,-63,-111,-877,-2040,-3946
-120,-85,-63,-604,-1724,-1753
72,-25,100,-827,623,1805
-114,5,119,900,4250,7784
-74,-112,-47,-268,5921,10230
68,97,55,-4358,3966,7199
-35,108,66,3313,2721,1505
55,1,46,5828,2453,-4483
84,5,19,683,957,-6162
-12,121,9,1056,462,-6182
95,50,-118,908,-1488,-5777
-44,-110,-28,-616,-1852,-5261
123,-13,-59,1191,-2721,-3818
23,-45,-27,1231,-2252,-3090
123,110,39,2168,-2722,-1315
-4,-87,116,4418,-1250,640
-116,-31,109,-305,-913,1393
-17,-49,38,-673,3,2620
-21,-97,-51,-772,1925,4274
-59,-48,49,-3538,2956,5306
-50,18,-104,-6998,5582,8253
100,9,16,-1795,63,159
90,3,-35,-1539,-4977,-2847
35,-95,90,1615,-161,-539
23,55,15,572,-748,1263
49,102,93,-1889,-570,687
90,-75,-13,-244,579,1043
76,-17,-39,-1110,1,1071
98,14,-70,-1748,386,1279
110,-63,-89,372,222,2115
-96,60,-90,-656,458,2541
-98,5,126,670,644,2532
-32,59,-49,-35,-21,3100
43,-93,28,1733,-4196,-5443
-29,-91,-24,394,-1806,-6366
67,-3,111,1373,-2342,-4264
-63,-128,-83,-1473,-1372,-4505
81,-21,-80,75,-1135,-3202
21,-106,-50,192,-470,-1919
47,-78,-33,1574,-231,548
87,-14,-73,-336,3307,7786
-78,-47,-63,-4190,6849,9226
-82,59,11,-1429,4527,8632
120,-52,-99,-828,493,3276
-103,77,72,3078,-675,-3982
-71,35,-91,-955,-760,-6285
46,65,42,511,-1368,-6777
106,-82,120,-445,-2136,-5825
-29,92,-69,-874,-1434,-4231
-21,25,109,493,96,-640
-62,-60,-55,-620,1519,7487
-18,-7,-85,-2075,6765,11062
-32,-2,-42,-5883,2009,7149
-41,-67,-115,2229,2641,4294
-26,55,-53,2830,373,-2295
-47,0,81,2342,-233,-5665
-106,28,-4,2297,-194,-7014
-25,53,96,1162,-1278,-7230
-48,18,14,453,-624,-5334
-13,-90,66,-590,-2424,-3979
91,-29,-47,1556,-2159,-2063
-61,-9,-29,458,-2001,-1860
75,-105,-25,1767,-1437,-303
125,13,-6,1037,-414,1555
23,-6,-89,-312,-281,4770
78,32,-113,-3212,3537,3926
-73,-8,109,-3991,2328,8417
25,30,-41,-9114,-1804,2400
20,-42,-117,4444,108,-1646
54,33,-54,170,-271,-1578
91,74,-44,-528,332,-839
37,-95,102,198,-864,782
68,-56,28,-1151,-494,961
84,-40,-21,-1095,70,1316
98,-29,-34,-1371,588,2531
-128,-50,-56,393,308,3782
-24,12,-82,371,1574,3777
100,103,-83,1091,1552,4162
118,71,-113,1413,2369,3902
116,102,-50,428,1507,4393
87,78,-34,602,1680,3783
43,86,39,342,1099,2995
-51,-18,49,1223,1095,2567
-92,-16,36,2542,-2101,-5628
106,42,113,32,-2764,-6647
26,-73,106,-708,-2043,-6683
-2,-128,-106,-1310,-1611,-5558
-109,-93,-84,-191,-1216,-3575
-89,-7,43,1098,-1128,452
-86,-42,28,-968,1955,4848
11,118,-95,-238,3817,7471
1,62,-72,-2022,4015,8547
105,-69,-53,-8,3697,8191
-123,-114,103,-1650,-224,2605
29,55,-80,2726,-2012,-4703
61,7,118,-271,-1387,-6575
-115,47,99,-1220,-2460,-7426
-62,-63,-33,-867,-1599,-6284
90,75,-27,-63,-900,-3856
-119,-7,4,-980,-333,-1073
10,124,13,97,1982,6172
88,115,-11,-1724,4787,9065
-4,-18,4,-1071,5826,6893
-3,-56,-34,88,657,1669
110,50,-57,3775,1662,-3760
-3,73,-90,860,788,-6757
-40,33,-75,2379,-1026,-5933
-98,96,-40,951,-1747,-5362
-123,-57,-121,-206,-1560,-4151
-77,-89,-16,968,-1896,-3092
-28,73,-33,1320,-1998,-1553
-125,-35,50,1348,-2008,-557
75,102,-47,519,-504,928
-72,12,-35,1802,1353,2239
7,-47,-115,-1282,925,3398
-12,72,39,-2857,2160,3790
-26,-98,-7,-4926,1526,7531
15,65,-14,-4527,-777,6082
-83,58,123,600,-985,-2090
119,123,34,1245,402,-1494
61,-16,63,-217,-345,390
50,30,80,-1391,-944,1081
91,34,4,-1678,-168,812
77,0,-25,-1236,160,1292
86,15,-50,-581,-454,2037
-128,-6,-107,671,535,2460
117,60,-91,818,284,3200
-85,40,-83,1303,1307,2798
-28,64,-68,297,1307,3338
-39,70,-44,542,1578,3048
23,-45,-38,1649,2434,3099
18,35,0,851,2189,3122
-45,27,53,-545,1135,3068
54,56,-45,2788,-320,-6180
-48,47,-40,2243,-2507,-7003
37,-92,-89,-455,-2625,-6837
95,-58,-53,392,-1347,-5172
-71,30,-26,-404,-2115,-4273
-29,104,76,26,-1019,-1031
-59,-49,20,-550,1837,4093
-56,61,8,-1410,3757,8145
-91,95,-76,-1561,4437,8825
8,78,-31,-3078,1977,7613
-112,119,-63,3175,449,1485
21,27,-27,-3,-1483,-5049
117,40,61,-359,-1270,-6217
90,24,88,106,-1873,-6515
72,-23,99,-732,-2076,-5708
-59,-45,-104,-183,-1414,-3769
16,-20,-27,-459,-501,-1427
-37,24,114,-24,251,3085
-85,-33,-24,-667,3607,7932
18,-123,63,-1255,4716,9614
18,-63,82,2620,5148,8543
118,73,-107,-2634,3992,1649
-4,15,120,4487,-259,-3794
-116,4,-99,268,-122,-6372
67,54,-77,1475,-152,-7368
31,-54,-12,1866,-1407,-7339
91,12,-39,956,-2386,-6535
18,56,36,454,-3691,-4078
-75,2,-20,1784,-2134,-2186
-111,-67,35,2408,-1569,-1209
19,-109,75,1536,-1415,150
30,58,-75,957,-157,1921
2,96,-39,279,1251,3156
0,-69,-14,-854,2058,4091
8,-75,56,-1815,2116,5916
-27,-83,15,-4543,3108,8245
16,48,-19,-6319,598,2398
-77,-39,24,3708,-1630,-1455
-99,52,0,-723,-2371,-489
-120,-111,-116,747,-720,706
-75,5,-42,-1581,-665,745
119,28,-19,-2297,-1008,730
64,-90,-24,-484,-338,1473
83,123,-36,1941,1679,2652
105,-87,-105,2414,2256,3460
-101,88,-37,785,2161,4539
22,94,62,531,4399,3731
53,103,116,694,2021,3348
19,15,0,208,1252,3959
84,-70,54,1063,2603,4355
-52,-116,90,5235,-2479,-3398
-39,79,76,2203,524,-6341
44,-29,14,2731,-3662,-6456
36,84,0,-1868,-5177,-7091
-86,-49,73,-1589,-3051,-5820
78,-93,-38,-565,-2043,-4067
-8,91,111,340,-1517,-1318
25,107,120,-181,1963,2974
85,126,43,-869,4174,4812
60,-66,114,-1552,5363,7934
16,-41,111,-1040,4924,8645
-10,50,7,-3676,2148,6056
24,98,-27,3947,272,-4604
-21,1,-110,-311,-1516,-5915
50,22,16,-1600,-1879,-6674
71,-67,9,-414,-2474,-5876
116,61,107,-644,-2215,-4835
-112,-90,-23,-194,-1435,-1698
-107,-41,97,-1333,71,1594
71,-83,26,1034,2684,5584
-44,-6,-92,-259,4243,7763
103,-119,2,3216,6764,7861
92,63,73,-1744,3469,3629
-107,68,44,3665,876,-1913
1,14,-117,1262,-295,-6489
-94,82,-26,557,-1761,-6725
58,-99,-2,581,-3519,-7466
-87,21,76,1213,-3265,-5717
-48,-70,35,219,-2942,-4294
78,44,-20,1281,-2084,-2399
126,10,86,2074,-1585,-885
111,-16,12,508,-180,611
-6,-112,83,525,1381,3638
-94,-74,60,-390,1844,4356
109,-99,-96,-3962,1596,3791
5,-128,-84,-2299,1893,8038
-75,-62,19,-3378,-230,-597
113,-85,125,2794,-1169,-1355
120,114,-109,191,309,225
83,3,88,-1638,-1033,1071
94,86,61,-1144,-601,1764
112,-18,20,-3629,466,1751
81,9,-6,-1334,-781,2499
-87,-6,-10,1253,781,3661
-46,92,-24,73,705,3794
-48,-121,-54,1123,1347,4495
105,-25,-40,131,1443,3695
62,-113,-25,1685,1486,3432
-11,-101,13,882,1194,3251
-66,120,50,256,675,2181
-112,-5,-63,1383,-1994,-5028
-19,-32,-83,765,-2286,-5506
-77,56,-102,1381,-2136,-5731
29,-66,55,-319,-3284,-6121
10,70,93,-1696,-2930,-4963
30,6,-40,840,-1698,-2857
-79,-24,117,56,21,29
111,-56,115,-757,2205,3418
104,-12,-121,-1343,6022,9048
-107,104,-76,-506,5275,9259
98,57,-31,-2625,307,5895
99,58,-99,3395,-638,-3426
-125,14,75,-546,-2048,-4992
-19,59,117,-295,-1943,-6135
-14,25,100,-1348,-2729,-5995
48,26,126,-716,-2097,-4683
-124,-126,-42,-291,-813,-2193
28,-11,101,165,361,1394
-31,54,-79,-1052,3772,9513
-9,-99,-3,-582,6411,9363
-104,116,54,-4282,2376,6162
-60,-104,43,3099,2339,164
78,14,-2,4158,1343,-4456
-109,39,-55,1031,600,-5951
41,122,0,1640,-723,-5858
-108,-35,-100,791,-1627,-5601
123,-128,-65,-130,-2941,-5029
21,-41,-41,148,-2723,-3925
124,-123,-12,1476,-2279,-2271
-123,47,70,1352,-1853,-909
66,8,107,1569,-612,-137
-115,-96,-40,336,134,2289
117,-125,97,-795,1458,4610
98,102,101,-2066,2209,5595
-66,106,-64,-4199,2743,9113
-110,71,-94,-9099,-107,4004
36,-86,-24,2526,-1564,883
-79,-49,-27,2621,-1526,-2254
-113,-97,-26,58,-568,-521
126,-79,25,468,710,-781
124,-24,13,-188,586,-671
-112,-50,-18,-1572,546,583
63,-104,-52,-611,146,1492
87,-77,-63,-338,676,2356
116,-43,-98,106,1111,3435
115,2,-30,500,1083,3797
39,95,-77,-799,2424,3757
20,88,-37,1555,1454,3929
66,61,14,584,1859,3694
8,70,0,549,1801,2905
-49,0,115,1891,-826,-5543
-5,50,94,1226,-2573,-6665
42,106,96,-1208,-2329,-7584
72,5,-97,356,-1871,-5947
-29,-24,-100,-358,-1611,-4157
16,-62,-52,355,-1163,-1343
73,107,-39,445,1436,2602
112,-13,107,-1465,4623,8696
44,53,58,-3529,4766,9159
84,-101,24,-343,1460,7222
-53,123,75,3026,-431,-2890
0,37,-103,39,-1861,-5434
70,54,51,583,-2358,-5958
-101,97,3,-2025,-3240,-6047
7,124,-117,-1155,-1917,-4179
50,-115,-81,235,-609,-1713
-50,76,34,-794,445,1771
-105,-27,90,1073,4410,7387
-110,-17,-123,-1305,6326,9152
69,-111,-109,-2613,4750,6666
-71,-86,-77,2545,721,-172
52,9,89,3382,540,-4220
93,38,-89,-20,-576,-5882
78,-3,91,448,-1576,-6682
11,124,-8,614,-3165,-6642
44,17,24,-717,-2714,-5889
114,-54,-40,-258,-2802,-4656
120,25,22,1485,-1474,-2920
49,-81,-119,2219,-1585,-807
-36,-42,-60,640,-598,-312
-16,118,64,151,140,1812
63,86,-94,-2008,2719,3050
14,-76,10,-1375,1737,6640
-95,-110,30,-2217,3953,6492
97,-26,-117,-5731,363,6842
-19,-97,-118,-2952,1714,-4280
-38,-21,-19,3420,-304,-590
-78,51,9,-1199,-2606,268
33,-86,-75,1084,-2213,2271
110,-70,72,-311,-1144,1614
98,-42,-1,-1274,171,1269
118,-101,-23,624,885,1502
117,4,-34,-618,280,2549
-92,3,-93,400,1233,3302
122,48,-63,992,1070,3362
-12,46,-85,1025,1477,3509
-8,93,-83,1114,2297,3289
-52,77,-60,658,2088,3213
-37,75,-53,211,1523,2862
-104,35,8,-699,1398,2431
-115,-61,-18,1702,-2313,-5987
11,-102,-39,1001,-2440,-6422
14,-125,-58,348,-2201,-5622
-61,-88,-79,-216,-1891,-4908
9,-15,-52,-1132,-1766,-3508
-68,-120,30,1315,-251,-532
-34,-79,-25,-1493,1783,3770
33,37,0,-229,4097,8838
-16,-7,71,-1241,5074,10201
-29,19,-74,-3591,1096,7073
101,103,-73,1910,238,-270
46,34,49,1436,-806,-4364
127,37,104,51,-866,-6115
105,12,48,-80,-2365,-6596
20,26,97,-717,-2563,-5894
-17,-9,-50,67,-1275,-3177
-124,110,45,-587,-368,284
56,1,54,460,2610,7182
-74,-25,-34,-1589,5625,9630
-11,-62,103,408,6663,6608
-53,-51,-63,1304,2138,1640
-36,20,88,2542,-154,-4925
-27,51,-103,631,-120,-5922
-125,27,-127,550,-2012,-6629
92,1,11,123,-2657,-6291
-1,91,-49,-414,-2617,-5630
-9,97,-20,1199,-2574,-3892
9,63,67,810,-1726,-2632
23,-89,-78,2048,-1891,-603
11,29,12,895,285,553
-110,-11,-15,196,516,3634
-34,-96,-9,-1368,1536,4144
11,36,28,-2943,2487,4269
-100,-73,20,-3828,1511,7252
40,-124,-91,-5662,298,7592
-4,-87,114,1539,-512,-945
42,67,-108,1530,-1329,-966
73,-12,52,337,-1817,-621
-96,-5,74,1417,-280,-849
-127,-69,-4,252,343,-408
64,110,-42,-1578,343,370
60,55,-63,-1255,-61,1405
97,99,-96,-1653,1597,2871
59,-122,-107,727,451,4319
-33,-4,-105,1057,1698,4132
59,124,-113,306,1693,4218
41,-90,-22,162,1298,3982
69,84,-27,435,2070,3612
15,-123,62,1108,1691,2987
-67,107,84,442,1467,2399
87,-98,60,747,-3149,-5870
-31,-8,-5,801,-2711,-5958
-14,78,32,1040,-3172,-5176
-68,-1,-78,-2748,-2865,-4534
17,5,-33,1609,356,28
73,-1,-124,-638,3051,4601
56,73,7,-2148,5063,8809
-2,62,31,-1862,5062,10568
21,5,-127,1297,3703,5487
-94,58,-112,-113,-3684,-4022
100,25,47,-320,-2668,-4913
-73,46,-55,-638,-2250,-6244
-76,-73,61,-2272,-2452,-6150
-46,-1,85,-1707,-1506,-4585
20,77,-97,-1324,-461,-1610
-62,-27,-18,635,719,3403
-106,59,-111,-580,3752,7759
-106,-9,16,-113,4749,9914
-64,-67,-30,-3538,1627,4997
73,-96,49,4809,2175,-2022
34,35,-16,2863,2564,-3999
110,-25,112,1417,1767,-4666
47,7,64,1244,785,-5181
-85,39,-92,-957,57,-5561
77,-49,22,-685,-1126,-5110
0,-126,-123,-641,-2028,-4690
119,-18,-60,1892,-2247,-3053
-6,119,-11,2759,-2030,-1567
83,-103,27,2617,-1742,6
95,-91,98,583,-384,965
-98,85,-98,600,-161,3929
32,-127,20,-1305,2002,3888
-53,90,-92,-3460,1572,7766
-101,21,42,-5470,1203,9481
-85,-16,-82,-5756,-1151,521
-34,-99,-12,4657,588,-4015
-113,-19,89,539,9,-1453
63,-93,-90,904,-830,8
84,14,77,-857,-930,1143
79,-49,8,-598,-60,1210
65,-47,-26,-554,35,1358
125,-32,-63,-1218,171,2561
71,-42,-94,81,312,3426
-53,7,-88,986,514,4305
14,-93,-101,-929,1064,3854
23,-98,-31,917,780,3782
51,-104,-18,253,1653,2994
38,90,15,1058,1528,3046
-41,22,48,980,961,2882
-104,23,78,255,681,2493
-56,-36,-70,2134,455,-5867
70,35,-57,1156,-817,-6811
-76,-8,-93,2097,-3400,-6522
21,12,-108,-54,-2782,-6330
-79,98,-92,-1724,-1684,-5070
33,76,-58,400,-1099,-2572
-33,-88,32,-1113,-23,1352
0,-31,86,-451,1571,6073
-98,-112,113,-1483,3948,9106
91,18,-128,-2915,3279,11625
-94,46,-111,-260,450,3478
-19,-119,22,2320,38,-3202
-104,70,77,91,-1139,-4586
-51,67,44,2271,-1885,-6421
-99,-58,81,-1902,-2329,-6468
-69,-64,-42,-579,-1578,-5031
106,-108,-42,502,-932,-2507
-1,-5,57,-1358,564,1585
-54,31,-9,-359,3904,8252
110,32,63,-3962,4028,9415
-87,110,122,-4007,810,6910
41,-12,77,2961,2421,714
72,66,-29,2865,2268,-4145
52,61,77,2305,1596,-4642
-37,-15,-44,1495,492,-6112
108,-79,104,24,-825,-6513
117,98,69,-184,-1162,-5677
-3,-76,3,1121,-1383,-3886
52,77,-22,1643,-1158,-2129
-116,-37,-28,1148,-1418,-726
90,-123,3,1270,-699,1132
-15,-101,126,214,-29,2839
-86,4,-60,-1467,594,4609
-123,68,32,-3099,1088,5723
-117,74,-51,-4211,-391,6673
-87,82,-53,-5036,-2000,2982
-11,93,17,2447,-189,-893
93,67,-19,902,-533,-1261
109,74,-104,-847,142,-227
47,-92,53,-976,-463,445
79,-119,11,-783,108,1301
66,-62,-4,-1395,119,1970
117,0,-36,-738,176,2502
-60,-4,-50,1680,489,2986
-58,-101,-83,-1370,1055,2909
43,109,-38,1058,103,3443
52,77,-110,560,1755,2711
-2,93,-57,-15,511,2856
46,25,-54,1564,877,2681
-34,29,36,147,1267,2681
2,118,-10,1337,-149,-7250
-2,48,37,3311,-3315,-7107
-71,-26,73,-2568,-2781,-6894
-126,-76,-43,99,-1548,-4342
-54,-92,-23,500,-1434,-2398
-86,-96,-42,-73,2624,3192
-127,31,27,-2450,3458,7961
-1,46,113,-601,3582,8708
107,101,46,-4501,-251,4454
104,-54,27,2776,1048,-866
64,94,-121,599,-808,-5344
-46,91,26,831,-849,-6621
115,22,4,-990,-2057,-7062
-121,27,78,-66,-1440,-5242
10,-34,-113,9,-653,-1655
-87,-123,109,-384,1634,4966
-49,49,-74,-1692,4454,9377
-80,-63,104,378,5583,8688
21,36,-109,-2981,289,3228
15,124,120,4636,2414,-2468
-35,39,88,1651,1239,-4807
115,-42,123,1057,352,-5172
27,-20,118,2241,-1038,-5157
-117,15,5,-167,-2157,-5525
103,43,-39,910,-2079,-4617
-96,-30,-100,42,-2621,-3632
13,13,-80,2729,-2368,-1654
98,126,-29,1771,-1781,-749
77,65,-105,28,-390,846
-65,15,-50,944,918,3613
-99,-103,-52,-1236,1494,3921
-119,-50,61,-3749,1446,5779
-78,-27,120,-3596,1995,8421
32,6,107,-5357,-2544,4865
40,75,35,867,-2539,-387
-88,65,-96,899,722,-1449
127,39,50,-1058,977,-595
73,-42,6,-634,-757,1057
73,-33,-10,-2257,-213,1106
70,3,-55,-1338,428,1952
116,-29,-26,1615,-566,3137
-97,80,-51,547,434,3485
-41,77,-58,1037,1385,3412
72,103,-115,640,1370,3593
35,89,-89,981,1424,3455
35,74,-74,397,1364,3075
13,58,-29,1173,863,2718
-54,26,18,958,1147,2192
108,-36,2,1051,958,1673
86,-43,9,615,633,1024
85,-71,-82,2557,657,-6046
-113,-6,80,1733,-4004,-6333
66,47,-12,-1028,-2689,-6436
12,-29,72,-1357,-2525,-5426
113,-17,110,-148,-1998,-4289
-29,-107,-78,-469,-1089,-2317
108,60,28,322,-240,309
-117,-120,109,709,3356,7884
-15,-62,-89,-2845,5504,8983
123,-76,61,360,4593,8936
-109,69,71,1706,256,3583
-128,45,-20,616,-1419,-4273
36,54,-40,-970,-1774,-6077
21,78,54,-587,-2370,-6623
118,102,64,-720,-2031,-5532
31,-15,127,-311,-1386,-3081
61,-76,-48,-1059,-494,342
-32,-74,-124,1149,1827,5558
-81,-127,-117,-913,4951,8714
121,-17,78,-157,5041,7562
100,-7,-37,-1388,1060,2444
37,76,-108,5490,1830,-3874
17,44,-81,543,405,-5702
-46,-58,-20,1020,-137,-5988
-96,-21,79,-12,-1833,-5920
-90,127,20,-283,-2181,-5511
8,20,-14,-2102,-2199,-5040
-10,-40,-40,620,-1981,-3010
38,110,61,2011,-1974,-1290
-27,-113,-99,589,-943,-679
-6,71,6,1377,595,2058
-36,-100,19,-320,1638,2819
43,-17,-10,-1362,2127,4496
-5,14,30,-2467,2493,6744
33,31,49,-1473,1434,7221
-114,95,-24,-7070,-2518,2317
3,-86,-106,3600,-1173,-193
-46,41,-46,1010,-55,-1030
-74,-6,55,-983,364,21
-96,-63,99,-1114,-1261,1305
120,-101,7,-2172,-232,1597
110,-58,-20,-1706,657,2499
-91,-64,-20,1311,315,4023
9,4,-50,1505,1845,3861
105,104,-60,330,2133,3837
118,50,-26,1188,2363,4588
-53,89,-86,1858,3450,3678
71,-118,-38,1435,1537,3335
-50,-25,-2,-766,520,1749
63,29,43,741,471,799
-49,51,46,736,1899,-6239
9,-89,-98,3430,-3281,-4709
-82,122,28,-730,-2022,-6094
-14,112,61,264,-2808,-5138
33,-43,52,-708,-2905,-5294
-27,111,-78,-1681,-1819,-3546
50,-124,-10,281,-751,-1088
3,-115,-37,794,1912,2604
50,-76,53,-708,4307,7964
-59,2,102,-1113,7131,7467
-76,115,64,-3176,3666,8686
-118,-125,-73,1689,159,-13
75,27,44,736,-2298,-5782
-127,28,63,-1165,-2083,-5825
119,113,-19,-214,-2848,-6064
-5,41,90,-1805,-2434,-5020
103,-15,-76,-505,-925,-2603
-67,38,-14,-878,219,-248
68,-52,-15,1218,3590,6935
116,-87,-102,-2327,4907,7881
7,-18,72,-4,5447,7025
-49,-72,116,288,1309,1915
-118,40,38,3529,1553,-3030
-19,33,13,2292,1211,-4478
-127,54,40,1209,-176,-4949
50,-120,-43,1290,-910,-4622
-12,83,-1,-1350,-1490,-4545
126,-21,61,516,-2935,-4201
108,-87,81,-888,-3850,-3846
13,-46,63,901,-3210,-2315
121,57,-56,2665,-1528,-297
85,60,28,161,277,1048
24,123,82,-552,1419,3319
27,-60,102,-2365,2996,4353
-45,44,-86,-3381,2446,7395
-70,48,-19,-2865,3110,7006
123,82,117,-6824,-1021,-85
-42,40,-96,6544,125,-531
111,47,-120,249,-3139,-501
-27,-21,57,-135,-1529,-417
122,99,0,-2556,-472,464
105,113,-47,-2614,-262,866
90,-102,-60,-1904,-37,2213
67,-86,-48,482,424,3217
96,-30,-56,2003,628,3626
-27,88,-62,-421,1431,3970
-5,-120,-58,677,1332,4093
31,52,-53,1875,1827,3992
61,108,5,-620,1676,3229
36,63,22,134,2690,2157
-87,59,22,577,-1710,-5823
77,-99,-34,38,-1030,-6374
-26,-45,-73,1010,-5299,-6101
26,75,44,-3350,-3143,-5305
70,-122,-50,-771,-1555,-2977
105,46,117,250,504,1056
89,10,-76,416,2978,5054
-110,-65,-36,-558,6219,5950
49,-29,-104,-5747,1827,9481
49,78,-94,-669,2212,4360
-60,-123,120,1500,-2498,-3941
-48,72,90,259,-1002,-5479
43,68,69,470,-1775,-5786
-122,93,-13,-795,-2441,-5480
-107,35,107,420,-1584,-2714
6,19,4,-1183,-231,94
