AccX,AccY,AccZ,GyroX,GyroY,GyroZ
-101,59,-82,5390,-3562,-3539
124,105,-33,6979,-3282,-5135
-23,-76,91,8049,-4424,-4483
79,98,3,3781,-2289,-3849
-55,-87,70,4804,298,-3705
-124,-14,-27,3077,1623,-4234
-100,50,-125,5952,4738,-5290
-43,-72,-37,-2631,5792,-1538
58,67,-48,-1570,-1616,-251
23,38,-77,-1740,-24,1583
3,-110,-57,-562,-514,678
31,-98,-100,-2434,819,649
20,-125,99,-6785,-1440,1749
99,108,-18,-9373,-1459,748
99,93,-117,-9953,-1973,596
17,-16,64,-9586,-1616,171
-64,-33,46,-6150,-718,1493
79,-110,-128,-3859,-376,2511
102,0,-17,-1783,-910,3446
-72,11,4,1826,-296,3950
67,0,52,-1409,214,3988
107,-45,60,-780,-240,3480
-122,-87,-107,-844,-200,3438
-104,93,64,1102,1267,2101
30,41,64,800,44,1665
-59,13,32,-151,485,444
-67,-75,27,539,642,-152
-83,113,0,753,606,-242
-78,73,-12,-207,682,-417
-87,43,-5,-310,711,-224
-77,19,-18,-260,707,-187
-43,23,-14,-492,547,-120
-33,27,-24,-645,634,-173
-34,21,-33,-521,523,-108
-23,33,-34,-706,670,-77
-34,35,-37,-522,515,-32
-32,43,-51,-600,600,-16
-21,70,-61,-926,613,79
-20,66,-67,-517,625,75
-18,84,-67,-512,660,95
-14,101,-74,-652,690,87
-21,97,-75,-476,476,112
-19,115,-75,-670,535,73
-26,116,-75,-599,473,60
-24,120,-75,-615,491,-35
-18,124,-72,-623,454,-66
-19,117,-77,-412,312,-124
-19,-124,-85,-766,530,-47
-20,115,-81,-599,725,-121
-28,120,-83,-536,613,8
63,38,69,-5572,-958,-1847
-97,72,-40,3045,679,-2008
-60,16,31,5601,-1549,-3988
-20,57,-3,6223,-1160,-6530
95,-27,110,6634,-3232,-5434
-92,-109,-51,3164,-1259,-4561
-113,-38,-25,9449,-994,-3924
48,112,-115,2390,971,-3720
-106,-105,90,8124,3105,-6278
-10,52,-70,-4708,7472,-1245
-30,108,28,-2267,-2711,-158
44,-35,-74,-1582,470,1325
8,-116,-55,-1508,-1002,1116
43,-119,-88,-2750,598,440
5,-105,-25,-8188,-1159,891
71,27,-54,-8220,-1165,1419
37,-49,-128,-10480,-1159,497
-14,3,-2,-10242,-53,268
-60,92,62,-6358,-1237,983
-108,-87,-89,-3542,-1411,1967
-115,122,42,-2392,-1850,2794
14,89,101,700,-1289,2306
33,-62,125,-700,-381,2958
103,-113,94,389,-908,2764
-101,-128,77,119,513,2800
93,66,19,110,-13,1963
12,39,96,-37,-634,1979
-12,-31,51,546,798,1145
-49,8,46,696,337,623
-75,-68,13,629,653,18
-91,-121,4,366,677,-139
-93,98,-18,-373,612,-180
-77,75,-21,-531,766,-246
-67,63,-32,-618,680,-259
-51,55,-41,-676,722,-236
-39,52,-57,-598,790,-266
-33,62,-64,-777,591,-130
-23,78,-68,-871,570,-152
-30,75,-76,-567,618,-160
-29,89,-79,-674,656,-135
-21,103,-82,-680,536,12
-18,117,-84,-692,463,-47
-20,119,-78,-400,599,-46
-27,122,-81,-537,582,-18
-11,123,-85,-619,533,108
0,-119,-82,-569,486,134
-31,-114,-74,-365,424,90
-32,-104,-72,-746,638,70
-26,-109,-73,-482,500,202
-15,-78,-76,-661,509,113
-25,-3,79,5883,-2296,-5299
117,-12,-29,5874,-3170,-4570
-127,116,-18,6516,-2590,-4702
98,-107,114,8226,-2329,-4087
47,-4,36,4229,270,-3697
-17,55,68,4206,2909,-5070
-6,103,96,780,4954,-2567
-105,-123,51,-4859,120,84
9,-37,-91,-871,-397,883
21,108,-78,-1274,-980,1351
69,-96,-57,-3007,1268,309
12,125,44,-5164,-168,634
69,-111,-76,-9071,-1199,728
121,64,-125,-7572,-1926,220
20,102,122,-11163,-2030,291
-58,-24,-7,-6679,-267,556
126,-91,-60,-4406,-1722,2241
-113,-101,13,-331,-513,3113
-48,101,40,-924,-1062,3390
31,81,28,-394,263,3445
125,-36,72,-1030,-1325,3798
-82,61,34,1075,714,2905
-118,21,42,565,281,2790
115,40,-25,276,766,2415
-46,12,60,539,-718,1120
-57,-23,20,159,195,16
-99,114,-2,526,923,-519
-109,74,2,423,875,-428
-100,42,-7,172,949,-291
-90,46,-10,-700,552,-483
-55,14,-21,-555,770,-453
-45,17,-26,-793,727,-493
-27,9,-44,-752,718,-394
-32,18,-56,-832,641,-373
-21,19,-65,-781,760,-215
-21,25,-84,-794,677,-72
-13,42,-83,-889,600,86
-9,59,-97,-655,555,173
-29,68,-83,-507,414,242
-26,88,-89,-826,647,284
-19,105,-86,-753,434,297
-19,120,-76,-685,475,305
-26,-127,-72,-780,678,139
-33,122,-71,-487,526,-3
-25,125,-69,-530,687,18
-28,-124,-69,-646,624,41
-24,-123,-75,-581,500,-21
-16,-115,-80,-632,657,-33
-22,-122,-84,-497,682,-41
-11,-115,-93,-582,703,-50
-83,-92,76,5306,1386,-3939
-92,-84,-48,6967,484,-6023
85,-107,51,6109,-1634,-5208
79,-80,118,7119,-2263,-4394
113,-108,49,8806,-1912,-3503
21,-57,125,5619,416,-3440
33,-75,30,5181,3306,-5361
89,-27,117,2728,3286,-3026
30,116,115,-3709,3183,-1017
7,-65,23,-2819,-1447,1643
42,-17,-99,-342,-949,1375
75,-105,-112,-2804,12,1102
75,82,75,-5628,-1101,1555
94,72,7,-9248,-1311,1541
36,93,-103,-8229,-2407,482
12,-70,86,-7947,-1003,524
-106,27,115,-6146,-786,1355
96,71,-60,-3665,-511,2739
123,-113,-50,-855,636,3170
-87,-7,-2,411,-280,4109
52,-62,-40,-1658,397,3616
109,-114,27,-1317,39,3942
-128,-108,77,-471,-528,3650
-104,99,66,797,612,2212
95,31,34,330,680,1907
-57,45,-19,-1130,158,870
-84,-74,-6,499,426,489
-100,-119,-26,382,904,-141
-103,78,-30,441,812,-16
-71,64,-37,-87,1059,-106
-70,38,-38,116,767,-165
-82,23,-32,-478,750,-252
-81,19,-27,-812,553,-303
-52,-8,-33,-553,643,-247
-35,15,-38,-730,590,-96
-40,16,-46,-500,675,-189
-47,14,-56,-431,676,-138
-38,34,-65,-735,626,-44
-31,24,-66,-379,572,92
-26,48,-66,-594,558,91
-37,60,-63,-494,492,35
-31,70,-60,-566,710,88
-31,63,-67,-311,585,45
-32,85,-76,-635,551,41
-29,81,-78,-641,611,131
-27,94,-80,-698,508,86
-31,103,-81,-757,497,49
-31,103,-82,-627,536,-11
-29,107,-86,-555,598,19
-19,115,-92,-560,545,-39
-111,127,83,6631,-1836,-5022
34,22,-32,5780,-1648,-4247
45,-51,-88,6219,-3235,-2632
-127,46,-66,6606,-1996,-3658
-49,104,-128,6699,-1387,-2766
91,99,-65,1777,1959,-4232
85,-44,75,6737,2413,-4632
-84,-37,-24,-4505,5707,-1853
54,-94,15,-2148,-1873,587
41,19,-49,-1455,46,1240
-8,-43,2,-332,38,176
34,-107,113,-667,1694,-358
23,99,8,-5268,-766,1659
72,84,-32,-7660,-750,1172
54,89,-39,-8437,-1801,1106
86,-50,110,-11333,-668,-168
-41,-86,53,-8808,-700,333
-63,119,124,-6446,-1480,1740
-117,-71,-94,-3674,-1041,1979
-68,41,51,-1402,-1760,2911
37,97,60,786,-936,2928
119,-81,106,-147,-630,3355
-113,-101,89,-324,-265,2773
-79,114,78,279,7,2528
59,44,97,81,-622,2148
44,2,102,613,-59,2216
-37,2,24,629,-57,490
-73,-47,23,796,685,-281
-75,-120,-2,407,1288,-544
-85,66,-34,343,1003,-205
-81,81,-31,-519,459,-172
-69,45,-35,-338,526,-233
-40,41,-46,-681,852,-324
-39,29,-51,-492,575,-300
-34,27,-62,-547,583,-229
-31,47,-64,-770,570,-148
-34,40,-70,-506,536,16
-32,63,-73,-661,445,61
-32,78,-74,-578,478,90
-31,89,-77,-695,534,11
-32,91,-80,-569,528,78
-30,98,-87,-504,521,52
-29,111,-89,-674,502,74
-35,111,-90,-528,505,94
-35,121,-88,-531,538,48
-32,-126,-93,-606,565,21
-30,-121,-94,-631,480,16
-29,-122,-94,-515,596,8
-28,-111,-96,-670,560,-37
-29,-117,-93,-540,554,-45
-120,90,-6,6571,-729,-4012
-9,-30,15,6357,-2137,-5956
-121,79,127,7377,-3259,-4375
-87,30,-3,6116,-2554,-3159
-41,60,-123,8844,-2114,-2920
-102,121,81,1294,80,-3261
72,68,110,6479,3229,-5577
79,111,13,-3175,5794,-1586
53,-121,113,-894,-129,-1194
45,51,-104,-2310,315,1124
7,95,-101,-1127,-967,878
62,-97,123,-2302,461,200
66,-128,62,-4789,-1104,2037
-103,112,74,-10062,-1780,1166
114,82,-69,-10849,-1997,1509
36,36,88,-7340,-1240,1443
-75,10,-107,-6991,-551,2513
91,17,-88,-3025,-250,3924
-106,-85,-11,-717,-275,3998
97,-34,6,1710,1210,3503
-72,53,-31,-1780,1206,3416
93,-103,48,-1656,-194,3720
110,94,31,-2097,366,2122
57,15,70,181,-65,2063
19,57,61,-1059,754,619
-63,-89,26,977,596,248
-81,-106,-6,267,758,-205
-69,90,-27,74,1019,-211
-86,69,-45,-327,511,-37
-63,61,-54,-689,589,-254
-45,50,-53,-655,586,-291
-29,69,-66,-948,524,-485
-46,32,-66,-391,602,-308
-39,40,-77,-573,806,-184
-26,52,-95,-620,584,-7
-20,56,-90,-452,498,145
-29,74,-95,-650,573,107
-30,82,-90,-587,492,161
-27,79,-88,-315,511,280
-23,105,-86,-618,464,257
-36,106,-85,-353,499,139
-33,111,-86,-502,656,25
-36,105,-87,-554,506,129
-38,111,-92,-480,512,69
-30,113,-90,-524,641,18
-28,113,-93,-540,525,-31
-24,107,-94,-470,618,-6
-24,114,-101,-519,621,-50
-20,96,-104,-272,646,43
-21,104,-106,-400,641,149
-88,50,35,-7132,585,-4033
14,119,59,-801,3797,-3509
-38,-126,49,9539,-1070,-3549
68,-76,14,6674,-1289,-5293
22,47,-33,5792,-2215,-4376
43,-103,-20,5138,-1609,-3551
-113,-75,53,7799,-389,-3246
31,105,-123,5246,-621,-4172
-90,90,-121,4566,2727,-5178
-102,119,34,2591,5081,-3788
-33,124,-114,-4349,1606,69
47,-16,125,-576,-655,1165
34,-73,-36,-1283,-572,1010
52,-75,119,-1113,1285,-198
41,-110,64,-5325,-579,2117
109,120,20,-7079,-863,1762
108,101,-5,-8626,-1600,1615
74,-57,-116,-11596,-1053,1094
-27,-48,22,-9307,-828,1101
-81,86,107,-5186,-1068,2480
-94,-74,-69,-2586,-949,2787
-61,6,1,201,-1966,3801
70,116,9,680,-930,3184
101,-89,29,-1646,-2,2943
116,70,76,371,-92,2962
-112,58,91,1099,735,2170
75,66,63,1336,223,1778
-22,78,65,-79,456,558
-81,-60,10,443,616,-381
-88,-122,-7,3,861,-505
-67,79,-34,-340,1149,-491
-67,27,-56,-222,568,-388
-46,25,-74,-546,782,-387
-31,8,-72,-702,664,-288
-34,5,-70,-683,400,45
-30,28,-72,-840,575,106
-29,16,-70,-333,506,258
-46,57,-74,-815,447,327
-47,71,-78,-704,363,347
-40,75,-74,-461,603,370
-31,110,-83,-551,516,163
-34,101,-86,-461,638,-46
-36,99,-91,-646,669,-110
-39,82,-89,-539,542,-36
-33,87,-92,-514,578,-6
-37,91,-91,-476,544,-15
-34,94,-94,-474,666,-31
-28,102,-99,-538,586,13
-25,103,-107,-501,600,-3
-26,111,-109,-566,576,4
-116,-58,99,-3706,4631,-4310
52,-18,101,4264,-169,-2580
-126,-51,116,5652,-954,-4654
-122,-111,-97,9870,-1961,-6332
-61,-111,-34,5892,-1753,-3163
81,-73,11,8166,-1062,-2871
66,-40,79,2496,1565,-4752
-26,57,61,5217,987,-3749
88,47,27,4408,2280,-3427
21,-49,82,-4395,5073,-127
17,-60,79,-252,-94,-1480
19,62,10,-2777,-472,1045
74,-124,-42,-1334,102,551
71,-98,101,-3381,-267,1089
-115,-81,-12,-9110,-1578,1505
-81,5,-32,-9289,-1693,1103
-125,-103,-113,-9074,-2202,831
21,-89,86,-6677,-880,1294
-89,35,-105,-5846,-1423,2436
119,-79,-105,-7206,342,2864
-80,19,107,-1267,-2614,4112
75,-68,115,-1974,-1742,3724
-100,-95,-94,267,-1475,3509
-50,-105,-105,769,-707,3232
-67,-111,119,623,-512,2355
4,123,83,357,-383,1226
-76,15,63,863,557,-225
-87,127,-7,2102,1655,-1228
-89,117,-27,535,1542,-685
-60,100,-38,-572,1222,-219
-68,62,-44,-420,419,14
-39,53,-50,-697,606,-97
-36,64,-40,-533,598,-153
-19,51,-56,-459,941,-164
-13,52,-63,-463,613,-51
-22,52,-61,-297,516,30
-9,69,-63,-612,629,40
-20,71,-60,-428,565,21
-19,77,-57,-485,493,36
-28,79,-54,-467,495,50
-19,94,-59,-622,627,149
-23,102,-54,-477,437,158
-20,105,-64,-514,549,94
-35,-125,-57,-742,435,125
-18,92,-61,-166,548,123
-17,127,-77,-797,456,90
-20,118,-76,-734,512,137
1,116,-91,-620,1195,-174
1,122,-60,-319,1087,-165
-25,-126,-73,-596,54,167
-106,-21,-116,6822,1144,-3237
84,91,-45,8247,-2741,-5321
-107,-54,-105,8245,-4189,-5175
-118,-115,50,4533,-2778,-3069
-56,-82,23,6168,-587,-2540
62,-48,64,4764,885,-3339
31,92,-87,3782,2880,-5384
-117,22,52,3314,2496,-2177
-8,0,-24,-4633,3281,-876
-31,-2,-84,-552,-1583,1234
55,-106,-8,-1511,90,421
73,-108,-37,-2850,778,181
64,106,74,-6286,-767,1123
-113,106,47,-9578,-1565,897
-114,120,-30,-10062,-1907,51
76,-75,114,-10687,-1654,349
-38,13,49,-8216,-2954,2312
-121,95,97,-6912,-1396,3868
-95,-106,-33,-2843,-1340,3359
70,38,100,-137,-1560,2956
-99,-48,97,-1671,-1845,2237
-93,36,108,1204,-1201,1925
-112,53,81,1282,-580,2232
100,67,50,458,55,1322
12,-3,41,902,194,1059
2,-6,23,324,1174,345
-61,-49,21,612,1195,125
-62,-104,10,59,715,-169
-66,120,-29,-299,666,-60
-65,97,-33,-470,590,-34
-47,68,-71,-412,898,-243
-37,64,-67,-375,636,-154
-23,72,-77,-651,733,-395
-24,58,-72,-414,687,-173
-19,70,-81,-607,672,-113
-27,70,-76,-471,443,129
-23,92,-84,-729,406,52
-23,94,-71,-545,422,145
-28,104,-75,-503,557,129
-28,127,-80,-654,462,32
-21,-125,-77,-590,527,113
-31,-123,-80,-450,466,63
-26,-105,-81,-724,521,-91
-13,125,-81,-391,685,-6
-26,-112,-85,-550,500,-7
-27,-111,-91,-514,599,46
-19,-109,-97,-587,567,7
-19,-102,-91,-475,463,64
-12,-93,-92,-548,685,1
-14,-92,-93,-717,449,-30
-53,6,-79,9156,-1753,-5335
71,-109,64,9034,-3135,-6884
62,111,3,5053,-3016,-2582
-104,-22,33,5950,-1621,-3120
38,126,20,5690,-1709,-3214
-14,85,75,2245,1037,-5536
58,40,-18,4880,640,-3144
-108,33,-1,-4233,7628,-1996
34,90,54,1164,-833,-629
-2,-111,54,-2338,178,915
9,-53,123,-1205,80,200
38,-102,72,-1539,564,209
53,-72,-22,-7902,-1642,2411
-97,3,-1,-9487,-2509,2103
-97,121,-78,-11492,-2591,1881
26,62,38,-8507,-1638,2271
-118,-68,63,-5014,-1179,3280
98,110,-115,-3170,-1940,4383
114,-18,-31,-2431,-467,3058
36,2,69,-1682,421,3869
44,61,-24,-886,-346,2807
-56,45,112,-152,-848,3509
-57,8,35,958,824,2725
-68,28,42,1185,558,2090
55,57,39,323,-495,1854
-41,-3,58,215,-397,812
-111,125,1,815,746,-373
-109,67,-8,512,1483,-152
-119,56,-16,-213,666,-181
-99,20,-25,-226,637,9
-91,28,-25,-565,598,-350
-70,-7,-53,-500,1033,-409
-65,-9,-54,-645,755,-373
-63,-5,-61,-587,563,-125
-56,35,-59,-847,487,-488
-52,-4,-63,-415,854,-92
-45,40,-72,-699,580,40
-42,65,-79,-731,317,8
-41,81,-80,-760,504,-130
-38,62,-76,-461,647,-13
-43,92,-81,-668,415,-38
-40,84,-78,-578,565,-23
-40,88,-79,-541,523,70
-29,115,-77,-784,504,9
-41,105,-84,-564,551,-12
-48,115,-88,-549,565,22
-40,119,-109,-409,648,-43
-35,126,-108,-542,461,123
-37,-117,-113,-678,322,86
-46,-111,-104,-551,351,150
44,60,-95,2613,1908,-3981
114,38,-10,6804,22,-6249
-115,-61,-120,7900,-3808,-4871
89,97,74,6129,-3707,-3523
110,-83,-7,6142,-2564,-3165
-57,-66,-22,3644,-11,-3667
84,119,-113,3783,1956,-3343
-96,50,76,5493,4176,-3573
-103,18,60,-2188,5212,-1745
4,43,-55,-1884,-34,-1036
-46,53,11,-1835,-724,1010
50,37,21,-1565,-259,-29
11,79,-88,-4637,-1329,891
86,57,94,-7020,-1085,394
24,61,50,-7807,-2487,-43
64,-112,-126,-9947,-1701,833
-15,-56,25,-8968,-813,725
-105,-16,62,-5129,-770,2466
115,91,-65,-2187,-1203,3372
-79,-6,-36,-2429,9,3577
43,119,-67,-3095,181,3461
-86,-93,39,-203,-997,3138
-57,91,48,634,-210,2502
-63,70,31,152,818,2228
-120,-11,-5,800,118,2333
48,53,57,-760,-626,2018
-23,9,79,-273,-533,996
-72,-40,32,521,309,-8
-93,-96,0,-188,965,-604
-86,103,-26,-373,1560,-644
-82,76,-57,162,1056,-235
-66,76,-69,-354,801,-407
-40,63,-83,-706,899,-346
-39,33,-84,-244,722,-270
-26,43,-84,-394,687,-144
-28,64,-85,-807,535,-182
-22,52,-78,-510,513,-26
-23,70,-78,-662,455,83
-31,82,-75,-516,474,31
-31,101,-75,-830,510,31
-30,107,-79,-678,400,60
-28,120,-82,-593,469,114
-28,-120,-87,-735,562,-50
-26,-124,-88,-543,595,-24
-27,-117,-91,-518,511,4
-27,-115,-95,-513,620,-68
-23,-119,-98,-506,606,-21
-20,-114,-103,-546,529,11
-20,-105,-101,-628,581,-51
-20,-112,-96,-441,504,97
-105,-24,78,-7615,51,-3364
98,32,-97,1926,2599,-1758
-87,125,63,5708,-35,-4269
-30,18,-26,7890,243,-7364
72,111,-54,7759,-1956,-4442
125,-38,-54,6246,-1067,-4156
-79,-18,64,7595,-2689,-2587
45,113,58,3660,-188,-3530
-77,122,-57,7273,2249,-4363
-109,126,-21,-1514,4489,-1517
26,35,-100,-2734,679,-748
-20,11,-113,-1958,106,663
-49,34,120,-1403,-652,900
9,82,79,-4096,36,870
36,57,26,-7362,-329,1520
20,67,-37,-10615,-1256,1628
22,-125,44,-11224,-822,1419
-87,-108,16,-7637,309,1825
89,71,117,-6079,-1451,3269
106,-29,104,-5352,-661,3376
-50,48,-1,-881,-1663,2806
66,-115,28,-1450,-1326,2570
94,126,47,-895,-928,2448
-102,127,127,336,-1404,2363
-110,56,104,1439,-463,1579
73,90,104,-118,131,1318
-12,17,77,1025,395,766
-66,-5,39,207,787,126
-93,-73,-4,321,613,-123
-76,-90,-45,-238,1210,-118
-80,-105,-74,-508,838,-469
-57,120,-72,-654,635,-184
-58,93,-89,-122,874,-384
-40,97,-98,-477,891,-580
-26,76,-109,-456,941,-342
-28,87,-110,-458,551,-70
-31,95,-110,-472,340,59
-37,92,-98,-290,341,258
-35,124,-100,-700,308,232
-34,-123,-86,-633,302,222
-43,-126,-93,-178,466,253
-48,-120,-93,3,353,270
-50,-112,-95,-223,421,100
-39,-105,-100,-682,605,-9
-42,-115,-103,-303,479,-54
-40,-128,-102,-248,571,-101
-39,-122,-104,-698,624,-109
-39,121,-108,-483,552,-104
-39,120,-106,-491,581,-64
-30,116,-110,-453,644,14
-71,-13,102,5761,-441,-5040
-30,-4,-58,4639,-2374,-5391
86,-45,-118,7319,-3758,-4536
119,72,-26,5084,-2107,-3708
-119,-83,-24,6218,-1336,-3032
111,0,-13,2396,1194,-4613
28,89,-59,4917,1332,-4039
51,52,-119,3707,2567,-3004
63,-42,55,-5063,5311,-1382
1,10,67,-876,-2475,613
87,62,-50,-1426,-28,1100
55,-78,-35,-1645,569,106
57,104,69,-4853,-799,1728
103,-113,0,-9142,-1511,1199
88,38,-17,-8482,-1850,1265
71,-54,112,-9662,-1227,927
-52,-63,99,-7060,-1221,2204
-62,120,92,-6812,-1089,2867
-95,-96,-93,-3257,-975,2993
-39,-46,-10,-541,-1017,3143
67,49,30,-457,-938,3601
-115,75,-12,-100,-153,2698
-64,88,21,-294,-127,3053
-79,-26,4,1029,739,2634
110,1,-20,335,92,2333
54,11,51,-482,-677,2171
-51,-26,9,-252,-256,454
-98,-92,-9,827,520,-478
-116,107,-18,541,1200,-645
-119,66,-38,-81,976,-689
-108,33,-41,-148,715,-302
-84,41,-54,-869,835,-545
-61,-13,-58,-245,795,-428
-44,12,-79,-809,824,-475
-43,6,-84,-728,719,-350
-32,6,-98,-679,766,-260
-26,14,-103,-664,609,-103
-24,28,-103,-762,494,104
-34,49,-106,-804,411,97
-37,53,-98,-514,482,243
-31,77,-102,-613,552,263
-42,89,-95,-507,395,264
-39,100,-100,-526,528,251
-43,115,-99,-662,462,156
-40,107,-97,-500,615,137
-44,116,-101,-586,517,62
-41,108,-101,-604,629,101
-30,115,-108,-716,643,92
-36,114,-107,-575,493,-52
-31,108,-108,-487,670,-68
-62,40,45,4733,-618,-5203
-18,127,-124,4643,-1997,-5848
90,-119,-116,7066,-3725,-3859
72,96,-68,4753,-2194,-3733
125,-90,-95,5265,-1001,-3144
0,-23,54,2389,979,-3926
-73,53,-61,6053,2754,-4566
-30,46,-115,3023,3985,-2708
-17,-126,-90,-4105,5298,-1962
-43,55,-89,-1466,-1922,48
83,2,-60,-368,642,296
8,-71,-61,-1818,-178,357
53,94,118,-3174,-555,992
87,-120,40,-8424,-2703,1125
-101,32,-25,-9167,-3151,1289
82,-107,107,-10332,-2442,1104
-3,-67,-28,-8632,-1322,1640
104,-27,86,-4884,-1727,3432
92,113,-91,-2626,-1595,4238
-111,-74,-90,-588,-496,4049
36,112,-7,-697,-1090,3818
-122,30,-30,1091,193,3106
-47,36,3,1976,1406,1456
3,-104,23,323,1481,2801
105,79,25,120,692,2486
-14,6,54,354,-550,2015
-86,-30,22,-74,-371,851
-117,-120,-10,235,410,-338
-123,66,-15,636,1173,-747
-112,27,-24,470,1095,-686
-90,-3,-24,-168,651,-632
-73,-58,-11,355,426,-299
-55,-4,-23,-1271,740,-582
-40,-81,-23,-425,635,-378
-47,-67,-38,-635,788,-215
-52,-47,-49,-979,555,-105
-59,-22,-65,-1098,321,155
-63,15,-79,-1255,388,206
-56,51,-90,-1119,382,158
-48,69,-100,-704,392,262
-46,80,-113,-514,697,130
-35,95,-118,-553,781,74
-43,92,122,-475,674,-72
-62,75,-119,-240,537,-56
-57,82,-112,-467,799,30
-30,88,-106,-328,774,63
-15,97,-97,-347,758,-4
17,74,-93,81,1086,33
27,68,-84,-58,815,103
-26,66,-74,-481,525,111
116,-87,-16,7008,105,-4737
-17,118,-35,8651,-2920,-5180
71,-125,87,8694,-4850,-4033
52,59,-15,5665,-3826,-2619
-114,-14,-32,4331,-533,-3852
0,59,-21,1791,1351,-4053
-13,11,121,5545,2797,-4147
-111,-22,-18,698,6817,-3574
-103,114,112,-4061,-499,-1425
45,119,-4,-729,-1086,1935
24,-118,-48,-1175,-542,960
39,-123,119,-2750,-40,1137
35,126,71,-7290,-2294,2120
92,114,11,-9248,-1882,1166
26,-62,109,-11868,-893,1161
-78,-80,8,-9073,-762,2018
-123,-19,73,-5216,-513,2967
127,-59,-69,-3313,-46,3148
-26,30,40,-2258,-671,3499
76,120,11,-576,92,3289
-88,-102,99,-508,-882,3175
-58,116,63,-76,248,3365
-86,30,65,1394,-697,2954
65,49,-113,454,-824,2747
21,-10,95,547,529,1552
-60,11,86,683,-11,677
-104,-119,32,836,453,-643
-105,81,28,336,1006,-670
-114,41,11,-139,780,-424
-91,38,-6,-1013,751,-509
-68,21,-14,-899,556,-478
-53,24,-37,-1155,896,-676
-31,28,-48,-1133,599,-584
-33,18,-54,-570,609,-518
-21,27,-72,-656,798,-565
-23,14,-75,-443,649,-218
-30,39,-76,-765,381,152
-29,45,-69,-833,461,387
-30,86,-76,-920,386,416
-28,96,-65,-618,443,453
-42,-127,-67,-681,382,380
-42,-125,-65,-510,587,156
-36,-121,-64,-419,664,165
-37,-119,-76,-386,510,172
-35,-109,-83,-643,456,-15
-37,-127,-77,-387,647,17
-33,-116,-87,-555,555,-36
-27,-117,-82,-699,490,-120
-28,123,-78,-495,612,31
-34,-117,-80,-622,410,-60
68,-42,3,3787,-2354,-5187
-34,-76,77,6740,-3320,-7250
-13,126,124,5088,-2770,-4557
2,126,-16,7727,-2720,-4183
-70,118,-57,6110,-125,-4653
46,-26,-91,3301,-626,-4246
-18,46,25,6410,-183,-4089
8,52,37,-3653,6469,-1549
-19,91,-89,-1190,-335,-939
29,-39,-81,-1547,1011,528
-44,-49,77,-1681,-1602,2241
49,17,112,-3740,-62,1493
33,50,125,-8475,-1505,2563
25,68,-91,-11972,-1983,1691
-11,83,52,-12300,-2009,1231
-61,-49,-82,-10256,-1261,1720
0,-39,113,-3489,-1846,3217
67,-89,-37,-2642,-244,3005
-114,-6,-4,366,-1551,3859
53,-31,29,-1473,-690,3707
73,-76,69,-788,-877,3381
-115,-111,105,361,-322,3333
-82,-40,107,-346,-580,2771
87,-103,-100,-27,-694,1436
-16,81,-120,435,519,738
-80,38,81,502,1000,-123
-90,-55,-7,145,1477,-549
-91,-107,-12,-52,1091,-411
-79,104,-45,-42,720,-169
-67,112,-45,-780,603,-356
-34,55,-35,-75,1282,-525
-39,95,-32,-528,760,-54
-33,104,-46,-981,269,-34
-35,97,-55,-857,284,176
-25,121,-58,-712,712,-74
-28,127,-59,-323,520,27
-27,-115,-63,-610,408,219
-29,-121,-68,-513,424,188
-34,-97,-67,-639,379,-149
-34,-104,-53,-558,565,122
-31,-107,-55,-331,535,126
-32,-86,-57,-635,439,-57
-21,-103,-56,-502,672,36
-28,-95,-61,-547,415,38
-34,-100,-61,-515,536,117
-33,-83,-66,-700,614,38
-22,-90,-69,-447,535,71
-21,-74,-71,-663,453,108
-27,-73,-70,-635,606,35
-23,-77,-69,-611,526,51
94,-85,85,-4844,-4026,632
69,122,-115,2983,3349,-3534
15,16,110,4090,653,-5952
114,68,75,5670,-3416,-7978
0,112,113,5452,-3898,-5589
87,10,-77,4929,-1985,-5380
-75,93,119,5335,-1337,-4432
-116,-79,-4,2619,119,-4142
-34,-114,-76,4391,-530,-3775
89,-97,90,3287,5622,-3737
-90,-4,104,-5475,2290,-701
-41,-117,-9,-1154,-892,1855
-10,74,98,-992,148,119
-17,-99,-123,-1792,352,549
7,97,4,-5230,-429,1592
58,80,3,-8213,-2028,1637
93,97,-121,-10319,-1363,1559
-18,-86,79,-10222,-1345,1675
-75,-14,8,-7075,-689,2063
102,40,-104,-4006,-946,3152
-128,-52,-30,-3839,-708,3728
-44,-43,-13,-713,-1264,3803
119,122,-7,-669,-1475,3832
-89,1,68,963,-916,3955
4,114,44,-260,411,3041
-61,66,65,1377,-172,2507
109,48,-119,401,-347,1797
-45,81,113,-993,-352,431
-99,-46,87,583,685,-137
-124,124,2,360,1404,-729
-120,90,-13,-190,925,-480
-99,42,-29,-291,976,-367
-89,21,-58,-584,679,-517
-73,22,-62,-640,772,-401
-42,-11,-72,-303,1023,-377
-42,20,-84,-552,569,-347
-49,-1,-84,-390,593,-40
-50,23,-87,-649,644,175
-50,32,-85,-290,285,276
-39,60,-78,-605,446,297
-51,82,-81,-805,498,182
-58,70,-74,-328,436,179
-49,91,-83,-464,564,171
-55,101,-79,-553,441,108
-59,94,-80,-451,617,156
-61,111,-80,-648,416,59
-57,103,-77,-448,546,156
-48,124,-81,-665,556,40
-43,-128,-82,-642,479,-18
-52,125,-81,-583,541,-88
54,-3,58,-5882,-2243,-803
83,31,-120,-1061,2036,52
-118,76,-101,6408,1978,-6503
-69,-99,-20,4379,-541,-6053
-74,-115,103,5129,-1858,-5803
56,36,75,7139,-4241,-4460
-128,93,-42,8008,-2531,-4503
-7,-102,63,6329,-68,-4607
-7,101,93,5440,2225,-5184
-88,-20,102,1153,3979,-1334
83,121,-5,-4113,2145,-1063
-60,125,-116,-1335,106,756
-91,16,-113,-1795,-971,1060
-25,18,-112,-2657,730,546
-15,98,41,-8183,-1062,1276
21,60,-60,-9331,-1113,618
13,40,-85,-9703,-1078,736
-61,9,2,-11133,-1225,1898
84,-43,-33,-5775,-1203,3167
94,-105,-104,-2758,-305,3116
-104,-59,-24,608,-757,3317
66,72,-20,209,-88,4090
121,105,-39,473,-164,3264
-33,87,15,193,756,3567
-78,-25,-11,1694,1157,3136
-97,-77,58,1706,237,3861
65,57,56,-1518,-815,3022
-71,-6,57,-807,-983,132
111,87,28,1210,694,-1628
-128,57,27,434,1517,-1267
111,-24,-2,839,1160,-795
-110,-8,-11,-887,786,-661
-75,-10,-33,-1345,757,-618
-63,-66,-32,-321,596,-569
-45,-33,-42,-981,796,-616
-55,-55,-43,-537,614,-401
-58,-48,-55,-744,651,-212
-61,-7,-63,-1414,538,49
-58,-8,-67,-795,467,178
-45,27,-70,-621,554,235
-45,63,-74,-997,450,234
-45,71,-75,-662,533,179
-57,83,-73,-449,432,238
-51,94,-75,-476,557,183
-44,111,-77,-678,478,97
-48,109,-80,-488,514,-29
-49,106,-79,-596,561,-21
-53,115,-81,-567,549,-54
-40,104,-82,-346,573,-68
-44,107,-87,-573,575,-14
21,-69,3,5327,-1829,-6530
-46,-128,56,7079,-3659,-5877
-91,39,-125,6111,-4343,-3714
-55,39,91,8926,-3396,-3360
26,110,67,1105,1568,-4392
122,52,-21,5903,1043,-4297
-87,-116,87,5886,1942,-4138
114,-86,67,-6180,3778,296
108,-41,-95,-487,-1443,226
-77,-35,-66,-2036,425,857
-66,13,-37,-2541,243,468
-47,-10,-124,-5857,-163,1365
-27,30,52,-10273,-1783,2093
-18,20,-90,-10841,-964,1441
-103,19,65,-9232,-374,1906
85,-93,66,-6841,-416,3334
18,0,124,-3039,-566,4350
122,-94,-95,-2044,190,4096
70,100,-69,-844,-64,4144
-113,-127,-12,-458,23,3028
-72,79,7,437,-149,3124
-64,45,59,1480,388,2549
82,53,66,394,-383,2091
-39,125,90,-923,-688,943
-90,-30,30,893,674,-846
-105,-113,1,786,1412,-1174
-122,63,-54,483,1415,-751
-111,51,-39,-188,782,-438
-87,47,-51,-720,428,-294
-68,24,-47,-761,746,-502
-61,24,-55,-666,682,-355
-57,30,-67,-707,650,-215
-42,43,-75,-888,598,-195
-45,43,-85,-538,484,-89
-52,49,-85,-429,511,26
-48,74,-94,-797,576,24
-44,76,-97,-609,420,192
-57,89,-99,-581,309,203
-56,92,-87,-594,528,250
-46,112,-97,-695,555,312
-53,126,-92,-647,263,215
-52,122,-85,-371,552,211
-50,-111,-94,-632,505,28
-51,-117,-91,-491,491,42
-51,-119,-94,-489,599,-59
-45,-128,-98,-503,599,-65
-47,-122,-106,-658,520,-14
-51,-123,-100,-506,518,-41
-39,-124,-104,-452,723,-15
-40,-112,-112,-618,565,-13
-50,11,1,4518,-2130,-5046
20,-100,-68,5024,-1329,-6961
-119,-46,-93,6092,-3660,-4500
-91,-27,-51,7094,-2468,-3754
60,-105,70,7537,-1472,-4570
10,-11,93,3649,4,-4021
18,-111,60,6589,1223,-4466
-18,93,-59,-1257,5827,-2250
-20,89,52,-3653,1302,-1136
-51,78,50,-1020,66,805
-61,-4,-106,-986,-539,790
-28,35,-79,-1997,-144,604
-23,70,-118,-7521,-1230,1688
-6,8,26,-10235,-1861,1957
-2,-2,-106,-9980,-1412,1864
-110,-122,27,-9839,-131,1826
61,-51,28,-6145,-593,3117
34,71,118,-3102,73,3555
114,0,-64,-2669,-788,3897
-25,67,-73,-1520,-271,3835
110,55,21,2730,-58,2530
-78,102,-60,576,1482,2524
-88,47,20,941,1059,2731
127,40,21,-150,677,2559
31,9,88,244,-1008,2087
-41,37,39,-648,-689,878
-82,-59,18,342,479,-454
-118,65,-6,925,1297,-923
-96,53,-22,-85,1292,-616
-105,32,-14,-387,504,-193
-69,29,-27,-934,575,-255
-69,21,-31,-798,594,-406
-47,17,-51,-769,882,-402
-43,10,-58,-632,674,-328
-46,10,-71,-684,684,-165
-39,28,-80,-814,671,-20
-36,33,-83,-618,569,182
-28,68,-87,-812,547,152
-38,80,-80,-677,397,197
-42,91,-80,-643,521,234
-39,117,-76,-619,475,109
-37,108,-78,-392,516,187
-38,-124,-75,-743,451,82
-40,125,-76,-476,528,41
-38,124,-76,-460,578,0
-37,126,-78,-632,542,91
-38,-126,-83,-621,543,13
-33,126,-79,-508,564,90
-29,-114,-89,-734,549,54
-31,-114,-87,-616,549,25
-83,-20,-124,3460,-2226,-6153
-60,-6,35,5300,-4004,-7087
-72,82,123,5107,-3874,-4192
-27,85,-108,6786,-2051,-4284
-81,-50,119,3888,-158,-3891
83,97,-83,4184,542,-5055
-22,-6,47,7458,3020,-5881
21,-52,16,-8557,2648,1340
-78,-99,-62,685,-253,-29
-73,-20,120,-2350,-980,1313
-55,4,-31,-2748,-22,1137
-52,56,-91,-7864,-227,2224
-56,-9,31,-8666,-763,2757
-90,-15,-54,-9785,218,3323
64,102,58,-10235,955,3890
-75,-105,17,-5428,348,4621
45,-119,127,-4104,377,4587
-106,-38,-114,-1834,828,3303
94,95,-5,-1051,305,2477
87,-30,-48,2265,377,1823
-102,25,19,816,952,2596
-103,9,-11,413,1058,2861
79,37,30,-657,-629,2249
-24,28,57,-695,-909,1544
-91,-50,28,185,-333,27
-106,-127,-2,817,1224,-875
-117,84,-15,612,1229,-770
-121,51,-34,-95,886,-542
-102,45,-27,-534,554,-290
-91,30,-34,-410,598,-306
-71,28,-47,-589,725,-396
-61,29,-59,-828,760,-448
-60,28,-63,-704,665,-260
-50,28,-76,-746,668,-266
-47,46,-80,-819,513,-115
-41,42,-87,-715,727,-55
-42,64,-94,-822,539,13
-42,65,-95,-457,431,143
-40,97,-98,-823,488,160
-44,100,-94,-560,463,183
-43,116,-91,-589,440,192
-48,-124,-92,-582,423,130
-41,-125,-88,-487,548,112
-49,-121,-90,-471,445,97
-52,-126,-85,-442,555,76
-44,-126,-88,-631,607,137
-46,-120,-88,-564,485,107
-41,-125,-92,-387,616,164
-39,-103,-100,-636,562,52
-37,-109,-98,-504,569,124
49,-113,-52,3430,-2345,-4872
-62,58,73,3016,-2720,-7174
82,91,104,5459,-3130,-5731
82,-45,-91,6314,-3108,-4729
-17,29,0,6785,-2281,-3856
-89,-92,-93,1719,840,-5130
20,-10,-23,6126,303,-3365
63,64,104,1749,3183,-2961
-2,122,-96,-3676,3324,-608
-106,6,6,-1118,-275,97
-66,-26,-28,-1295,615,370
126,52,-1,-1859,585,161
-72,-22,-109,-3393,514,740
-71,55,87,-7881,-1163,1784
-31,27,27,-10396,-433,1451
-55,32,-104,-10923,-201,1007
48,100,48,-8986,-330,2615
7,-102,72,-5397,283,4355
25,66,77,-4110,1320,3933
-26,8,-58,-2780,-106,3859
68,48,-22,-969,-272,3053
-45,59,40,472,-316,2737
-44,47,-19,1203,469,2485
-84,65,-2,605,-708,2512
30,16,45,605,-1103,1972
-65,-7,19,203,-620,470
-93,-82,34,621,598,-417
-105,-126,-1,59,1110,-773
126,73,-9,437,819,-543
-126,53,0,-227,754,-468
-115,10,-23,-358,1031,-336
-82,26,-37,-795,878,-343
-69,21,-55,-747,783,-389
-63,28,-72,-676,699,-362
-59,34,-78,-641,621,-223
-54,35,-90,-624,713,-178
-43,59,-86,-896,592,-41
-44,70,-96,-808,412,-11
-47,71,-87,-624,440,36
-44,90,-89,-648,540,14
-44,88,-84,-557,554,99
-47,103,-88,-757,475,149
-44,113,-81,-680,456,185
-47,-126,-84,-635,510,126
-54,-127,-83,-523,497,122
-45,-116,-83,-570,632,165
-43,-107,-91,-579,509,88
-48,-99,-88,-646,467,24
-43,-109,-90,-433,682,61
-41,-102,-98,-529,552,-34
-117,-24,99,3496,-985,-8249
-43,-124,95,5673,-4389,-7094
-123,33,-74,5290,-2328,-6402
-21,70,30,6786,-941,-5927
-62,111,-77,2441,1232,-5476
60,-62,-46,8172,88,-3781
51,-51,94,4279,1977,-2739
-55,15,-11,-2767,5189,-1083
-125,124,-44,-2088,-1866,-98
2,-6,6,-1321,1030,598
-39,55,-46,-2158,-291,926
-26,51,-37,-3616,-113,1216
5,55,-98,-9664,-837,2127
-11,11,-28,-9533,-1869,1779
-75,53,-118,-10419,-799,2178
123,-62,-20,-9770,-781,3071
13,-67,16,-5417,-217,4148
70,-72,-81,-3932,-559,4622
-75,-2,-65,-1700,-443,4260
-127,-126,32,-1643,-760,3710
-36,55,-34,1647,-397,2844
-7,3,65,2623,-232,3524
-6,-99,65,-286,-318,3668
23,-78,101,-1418,-2103,1395
-85,56,53,173,-523,-930
112,99,-5,2230,1726,-1775
127,105,-40,808,1976,-1321
-124,97,-52,-579,1281,-601
-109,47,-42,-442,416,-236
-78,33,-55,-629,559,-515
-74,32,-61,-753,748,-531
-56,24,-85,-717,933,-524
-45,29,-86,-740,794,-307
-45,23,-102,-350,690,-204
-50,48,-101,-599,445,26
-49,64,-103,-1020,524,239
-46,70,-102,-575,447,324
-44,100,-96,-645,380,242
-45,112,-94,-705,437,330
-53,116,-90,-524,394,263
-55,-126,-85,-605,473,257
-58,-119,-86,-620,518,214
-50,-123,-89,-438,571,205
-48,-108,-97,-655,516,59
-54,-122,-90,-457,573,82
-51,-119,-98,-553,651,25
-52,-113,-101,-686,533,45
-44,-121,-107,-511,635,45
-39,-108,-109,-668,546,30
-42,-115,-107,-512,551,14
39,-29,-76,-4782,1882,-1557
73,-59,-117,-5000,828,-1718
88,63,2,-687,-1700,468
-104,57,-19,3621,-1719,-2299
66,-44,-92,6844,-253,-7977
-106,95,20,5343,-3387,-5940
23,-109,61,4081,-3295,-4768
-27,36,66,8065,-3735,-3858
117,-96,-37,5130,-863,-4828
92,-107,-59,4288,1756,-6382
-127,-31,112,6259,96,-2762
0,-116,55,-4710,7812,-696
70,108,-125,-461,-2432,-503
-2,-7,32,-1599,1169,858
-49,107,-8,-883,202,-127
-68,108,-49,-1754,386,485
14,64,-84,-5181,106,1315
23,74,77,-11432,-1709,1557
56,-67,-4,-10529,-1663,1416
-48,64,98,-10202,-1448,2046
116,-96,9,-8093,-771,3221
38,20,53,-5272,-751,4567
-109,-97,-96,-7279,-1168,5056
-106,-41,-3,-370,-3017,3890
-37,-52,99,-878,-1098,2857
118,12,64,2056,-1260,1100
-83,96,73,1830,-865,2350
-117,85,71,291,-109,1329
2,114,100,-364,-285,602
-69,-9,58,929,623,-326
120,-99,-21,1134,1350,-826
-112,107,-67,1082,1511,-450
-114,97,-86,185,503,114
-127,79,-93,-1340,242,-266
-100,39,-94,-432,885,-257
-73,88,-95,-879,684,-211
-61,90,-92,-1040,708,-632
-82,31,-109,113,1041,-341
-66,94,-117,-779,856,80
-65,113,-119,-789,294,103
-48,115,-121,-423,585,120
-45,122,-126,-470,681,-32
-62,117,-114,-407,331,107
-64,-125,-115,-614,418,162
-58,-122,-105,-577,515,97
-57,-126,-100,-452,388,165
-60,-112,-106,-498,441,208
-64,-102,-100,-709,521,159
-56,-96,-102,-640,450,179
-53,-93,-104,-501,498,136
58,8,-21,4827,-2977,-4957
-106,-94,14,3238,-2739,-6646
44,121,-119,3688,-2646,-4171
1,87,13,6526,-2323,-4393
-99,68,96,5860,-1267,-3808
91,3,4,2279,1019,-4632
-58,16,-110,6089,-680,-3694
-40,50,-3,878,3037,-3546
96,-55,5,-4188,1843,941
-26,48,-96,74,328,-358
-24,105,-106,-1261,269,356
-13,-83,11,-1947,1231,-111
8,61,42,-2062,-213,731
46,-72,54,-8685,-880,2461
63,82,36,-8919,-1242,1259
31,-118,-53,-10409,-1994,3071
-61,51,17,-7332,-206,3193
-124,81,114,-4048,534,3654
120,-124,-46,-5329,-216,4847
-37,-105,-86,-2871,692,4126
58,82,-63,-3099,-168,3649
-124,-8,78,-85,-1068,3205
-60,85,-16,-850,405,2773
113,53,52,398,-438,1737
53,-10,97,901,-315,1432
-3,-19,63,749,387,850
-67,-45,13,187,430,-177
-93,124,-14,363,1050,-621
-95,98,-31,-465,1076,-815
-99,-12,-41,540,1097,-323
-81,17,-53,-188,849,-364
-57,-5,-49,-328,739,-103
-56,25,-67,-1095,517,-206
-64,3,-58,-341,312,40
-52,31,-63,-832,674,78
-38,58,-81,-987,549,-32
-35,51,-79,-484,453,79
-48,82,-86,-853,489,7
-44,72,-88,-492,645,57
-45,76,-91,-288,411,96
-47,82,-89,-480,462,120
-53,98,-90,-818,518,125
-50,91,-85,-368,495,167
-43,109,-87,-597,560,83
-43,118,-92,-661,500,59
-44,109,-91,-379,578,147
-42,-118,-96,-723,564,18
-34,120,-98,-324,596,-24
-30,-127,-102,-539,536,22
-37,-123,-105,-681,528,-33
-128,61,-90,2452,-2436,-4740
-70,-103,27,2874,-2834,-6553
-38,65,25,5315,-5182,-5135
-49,-29,-81,4777,-4337,-3880
70,-74,-26,3972,-984,-3608
-20,-28,94,1683,350,-4278
-85,-65,-127,6892,1907,-6314
-85,-107,37,2717,1670,-3915
123,7,126,-3604,4001,-753
-34,-25,58,-258,-2143,847
-30,48,-28,-2563,531,834
-22,52,-85,-1517,1164,-26
-47,76,111,-4483,-403,2083
7,100,-114,-9188,-474,2277
0,53,-23,-10002,-952,2222
-37,64,-104,-9618,-590,2833
-127,105,61,-7495,-107,3637
67,-84,121,-3534,229,4252
114,103,-122,-2864,630,4111
-38,-1,-96,-2924,-43,4785
59,40,-64,-530,-208,3457
-99,52,10,-182,579,3336
-62,33,72,988,1204,2169
115,12,83,851,315,1827
9,22,122,-741,-530,1139
-67,-67,64,756,107,479
-96,-78,20,138,620,-675
-116,85,-21,466,902,-793
-112,37,-34,7,750,-906
-72,1,-50,18,903,-364
-73,14,-49,-637,578,-377
-69,-4,-57,-792,507,-286
-63,1,-55,-731,499,-193
-53,-11,-63,-206,679,-150
-59,6,-70,-274,469,-19
-64,6,-64,-570,496,219
-66,31,-78,-897,596,109
-60,39,-79,-449,403,322
-53,59,-78,-510,449,326
-59,86,-79,-889,442,93
-69,73,-82,-362,508,120
-58,80,-87,-306,561,54
-54,95,-96,-754,520,-34
-61,91,-97,-731,473,-4
-62,84,-90,-529,581,-8
-59,93,-96,-743,586,0
-50,105,-101,-771,545,30
-45,106,-100,-643,564,11
-50,119,-103,-663,555,9
-49,122,-105,-663,566,42
38,18,87,-7064,-1853,-468
-72,30,-62,192,-520,-36
33,-18,88,3382,1091,-4327
88,125,-102,4765,-1006,-6998
-3,124,-119,5444,-1687,-6551
-91,-5,124,7016,-3133,-5198
19,-40,-93,4360,-1182,-4031
69,-28,85,7063,-2989,-2130
-19,-113,-61,4361,-231,-4844
69,-41,-9,5032,312,-3440
89,-69,11,-2684,5169,-1141
-62,1,-1,-1015,796,-677
-62,8,5,-989,954,251
-98,54,-99,-1354,-792,684
-57,96,-20,-1069,1390,-566
-60,40,68,-3661,-207,1219
-21,96,62,-8005,-619,1414
-34,38,61,-8389,-937,1746
-46,83,-63,-9492,-225,1876
-121,-92,83,-10115,473,2728
93,124,18,-6457,-2,3521
120,73,87,-4537,427,3889
-97,-116,126,-1447,-198,2903
61,45,-25,-1832,-539,3568
105,37,-53,-32,-136,2795
126,35,14,368,-175,2368
-97,36,20,479,345,2481
90,0,58,498,493,1879
6,-58,104,763,-28,2006
-49,-28,56,-362,-206,969
-109,-87,37,-2,-307,97
-113,-123,-7,-272,995,-612
127,86,-14,-159,1030,-645
-112,27,-54,32,931,-711
-89,22,-50,-366,802,-617
-76,-15,-61,-443,925,-498
-71,-3,-66,-927,700,-303
-64,-4,-67,-699,464,-148
-54,18,-75,-772,566,-166
-57,28,-77,-777,79,-507
-60,64,-94,-544,125,-162
-63,60,-102,-508,593,173
-69,67,-109,-438,633,152
-64,99,-106,-933,484,202
-59,91,-104,-587,585,189
-62,113,-108,-609,548,227
-58,120,-103,-663,536,160
-59,116,-103,-418,561,168
-61,-120,-104,-624,562,63
-55,-128,-108,-562,600,54
-97,95,119,4935,-3614,-5576
-12,-99,78,4763,-3255,-5641
-8,-65,-110,6001,-2841,-4093
17,-34,24,7183,-4080,-2375
-60,-2,-32,1368,-106,-4039
40,12,-85,5295,873,-4166
39,59,79,3567,1281,-2670
85,-106,-77,-1951,4357,-1707
-67,81,21,-485,-74,-716
-37,16,-7,-2052,-34,1062
-45,16,-13,-941,519,349
-55,80,-40,-3602,-131,1499
-21,76,-40,-8422,15,2056
-10,38,45,-10399,-535,1930
-25,12,-85,-11480,-474,2263
-115,-104,-66,-12307,-161,3316
23,64,-37,-4418,-536,4295
47,49,-110,-3002,-363,3948
-76,-103,-7,1065,-1948,4862
35,97,-82,-1735,768,3734
63,62,120,-818,356,2459
-84,21,-8,1319,-324,3191
-124,85,3,-500,119,1740
56,45,27,-45,-43,1476
-59,-57,37,1178,177,172
-116,-55,-9,84,929,-612
126,86,-38,204,1451,-874
-125,21,-68,511,1382,-740
-107,49,-54,-508,760,-400
-84,41,-64,-1051,449,-274
-84,9,-72,-500,635,-275
-70,19,-92,-512,846,-401
-66,18,-95,-450,703,-217
-57,21,-108,-575,719,-213
-62,38,-105,-683,411,59
-73,48,-97,-562,376,387
-66,87,-93,-751,323,208
-62,89,-84,-473,408,144
-60,103,-92,-489,578,124
-64,124,-91,-767,478,35
-69,98,-89,-387,624,98
-68,124,-98,-699,472,-86
-65,110,-99,-502,605,44
-56,123,-104,-700,616,25
-50,126,-107,-591,492,-47
-58,-128,-104,-628,491,-16
-57,125,-111,-565,739,1
-44,-115,-112,-712,566,11
-46,-109,-116,-628,324,22
-50,-103,-115,-655,496,27
-106,-43,10,3826,-754,-3520
44,-78,-98,4180,-1677,-6749
34,-96,39,5796,-4226,-5673
24,60,71,4096,-3508,-3877
20,61,1,5856,-3648,-2960
-69,-103,-66,4565,-1633,-4008
82,110,123,4996,-903,-5099
111,63,113,4126,1437,-3126
75,-67,1,-3740,4215,-766
-68,7,8,-276,-457,-196
-61,72,48,-1677,1132,-101
-62,12,-68,-1873,207,502
-45,52,-30,-2954,335,720
-28,102,-88,-6065,-757,1487
12,74,64,-9792,-577,2321
-38,-29,-17,-8445,-705,2374
-78,63,-93,-9756,720,3352
2,-126,37,-7520,856,3946
51,19,91,-4369,-197,5535
-125,-62,47,-3812,940,4210
43,87,-58,-1716,-853,3163
85,-36,-62,1506,10,2402
-113,22,-1,554,273,1999
-124,-46,-27,1407,1701,456
-81,28,54,1618,1891,1072
-51,-75,87,-1575,-1246,1318
-122,-91,73,773,-830,526
-100,112,27,283,1127,-182
-100,72,-41,-101,1118,-585
-109,27,-23,57,434,-201
-77,39,-43,-756,720,-222
-71,20,-51,-809,640,-336
-61,-5,-58,-510,730,-397
-48,25,-71,-1044,623,-186
-51,13,-77,-739,558,-35
-50,30,-91,-743,531,-115
-44,39,-92,-660,625,207
-50,60,-102,-782,459,94
-51,75,-92,-691,471,200
-48,75,-95,-461,591,205
-54,105,-96,-721,453,153
-55,98,-92,-595,499,208
-56,107,-91,-544,527,179
-46,120,-96,-705,595,61
-45,115,-102,-567,577,39
-46,123,-100,-512,525,-108
-39,118,-106,-694,702,-45
-41,-126,-106,-816,575,71
-38,119,-101,-445,524,125
-33,-122,-107,-714,588,55
-125,49,-127,4524,-151,-4965
-74,-20,-114,5665,-2670,-7011
31,28,92,5652,-3472,-6058
39,-25,-55,4962,-2861,-4442
-121,45,96,6531,-2086,-3640
0,102,8,5710,-581,-5151
14,-58,26,8576,1779,-5956
122,-94,21,-1832,3312,-628
56,121,-12,-2551,2294,-790
-100,16,-30,-1598,-1015,709
0,-61,-109,-1510,157,1027
-56,84,-69,-5259,-130,1439
-32,36,-120,-9921,89,2426
-49,48,-64,-10054,-784,2186
-101,-39,-122,-8819,-551,3014
105,-92,25,-8401,-338,4041
42,-25,28,-6081,-258,4490
67,-51,78,-4759,25,4497
-80,-28,-79,-1678,-684,3524
75,66,-52,-698,-758,3022
-80,99,-48,314,-640,2425
-70,69,24,647,-638,2496
-112,121,33,281,-448,1693
21,34,77,621,-455,1258
-44,34,46,351,477,172
-103,-32,4,961,700,-467
-127,-121,-71,653,1468,-1068
-114,95,-79,121,1499,-821
-99,71,-71,-113,813,-456
-68,45,-77,-411,697,-289
-68,57,-88,-983,664,-523
-64,14,-87,-391,751,-302
-48,46,-104,-811,770,-225
-59,48,-109,-817,441,-4
-54,74,-101,-890,424,230
-50,99,-109,-641,417,129
-47,103,-101,-386,478,222
-47,-128,-109,-608,484,123
-58,123,-96,-444,375,97
-60,121,-105,-426,658,96
-53,126,-101,-547,503,130
-48,-125,-107,-529,531,140
-47,-115,-106,-590,498,37
-48,-121,-102,-531,579,64
-50,-111,-108,-590,542,31
-47,-108,-109,-648,513,12
-41,-116,-109,-458,571,124
-43,-92,-116,-743,471,-14
-47,-102,-110,-635,606,-7
-40,-103,-115,-587,610,74
85,-99,-110,4803,675,-7253
44,-69,21,5627,-4356,-5913
-34,92,9,3410,-4452,-4177
-65,98,-117,4686,-4739,-4515
72,79,6,3639,-2021,-4930
-7,-94,38,1561,-414,-4064
110,-91,-98,6387,1230,-5670
-103,-116,30,2523,4101,-4245
84,-64,117,-3428,4423,-1136
-33,-57,124,-744,-564,120
-45,54,-21,-1311,56,622
-27,86,-68,-1151,227,139
0,-123,-61,-3514,456,1161
9,104,-83,-6425,-408,1834
37,69,94,-9416,-717,1741
21,-38,26,-8157,-518,2049
-53,75,-58,-8816,-930,2340
-99,127,69,-7356,-79,4201
64,37,43,-6418,45,5021
69,73,46,-3527,-173,4229
25,-18,-81,-1224,-991,3816
92,-9,-55,1124,-235,3514
-91,-23,-73,1000,688,2549
-60,-74,4,2805,448,2740
-112,-31,56,1445,165,3587
-3,104,44,-2185,-942,1393
95,-66,36,-737,-456,-1254
89,25,4,2061,1355,-1441
103,75,-22,140,1937,-1142
-120,28,-55,-666,1249,-896
-95,-12,-51,-510,769,-639
-72,-26,-58,-632,770,-682
-67,-39,-68,-605,769,-720
-58,-47,-78,-513,875,-579
-54,-14,-79,-855,563,-274
-51,-19,-86,-482,516,60
-59,24,-97,-1112,459,24
-55,36,-97,-868,486,247
-55,48,-101,-481,484,139
-53,68,-101,-669,431,205
-57,77,-98,-619,458,225
-47,82,-93,-453,428,292
-66,106,-83,-763,359,339
-62,102,-88,-435,583,223
-65,116,-90,-606,619,169
-62,111,-97,-475,593,144
-52,118,-97,-650,577,85
-53,123,-99,-650,550,40
-56,117,-102,-471,607,-4
-49,122,-106,-612,682,-54
39,43,-4,-8645,-747,-3488
-112,30,-56,-2641,203,-1222
13,79,54,5545,1599,-4639
81,-23,-76,5116,700,-8191
115,-77,93,5596,-849,-6029
-32,70,-64,7480,-2144,-2742
30,-5,21,7738,-1298,-3191
-50,93,-25,5159,-150,-3641
35,-12,82,8252,639,-5216
97,-94,-7,3548,1566,-3498
30,-91,46,-5114,4273,-433
-99,11,-39,-158,-771,13
-52,39,-50,-2004,-260,945
-34,87,-7,-1342,861,-47
-42,90,-94,-3707,-9,1060
-17,115,105,-7768,-694,2007
21,-55,52,-8653,-722,2408
-32,77,-59,-10896,-675,2888
-93,-7,65,-7953,172,2663
25,-127,117,-4886,-93,4582
33,38,103,-4182,720,4738
-52,-27,-126,-3148,817,4354
57,42,-102,122,190,3619
-123,-87,-69,2522,1135,2573
2,51,12,-587,1302,2493
-114,4,11,-577,156,2919
32,6,111,-557,-2036,2630
-75,-32,17,594,-1131,697
123,-91,9,567,182,-1510
118,69,-14,820,1475,-1475
120,15,-16,570,1676,-770
-118,22,-16,-541,816,-392
-103,9,-28,-926,576,-398
-82,-18,-46,-859,643,-529
-75,-12,-57,-1126,710,-552
-69,-24,-67,-500,983,-189
-63,-9,-99,-361,867,-90
-49,21,-104,-745,634,-35
-46,28,-106,-778,450,162
-51,44,-96,-524,380,237
-57,71,-98,-920,426,69
-60,72,-92,-738,445,100
-61,67,-85,-261,470,271
-61,102,-94,-896,459,119
-63,99,-91,-710,447,103
-59,106,-89,-519,510,217
-61,120,-93,-617,533,52
-55,126,-96,-632,572,-11
-48,115,-98,-367,618,14
-50,122,-109,-623,575,-20
-84,27,3,3162,136,-4814
-82,24,57,6256,-3370,-5470
50,-114,70,5999,-3237,-4645
2,-52,-124,6493,-4561,-2730
78,-68,39,4233,-2166,-2434
-111,-113,8,3409,-318,-2817
11,-119,17,4088,705,-4219
91,53,-111,3186,2336,-2821
-98,88,34,-2033,5491,-2392
-111,47,-68,-2602,-1461,373
-25,-25,42,-1290,940,204
-66,54,-49,-2131,-556,735
-25,94,-28,-5614,662,665
-34,62,64,-9770,399,1268
-45,1,-60,-10099,-366,1269
-41,62,55,-11713,533,1003
-96,-79,-53,-10707,457,1574
115,26,9,-6592,-690,2074
-58,-38,-65,-2678,-157,2283
48,43,72,-670,-1851,2445
-104,-105,31,-894,-330,2525
118,-121,69,-324,-1237,1903
-120,103,58,435,-992,2954
95,95,98,607,-1720,2756
37,72,71,1450,-1429,2285
-46,80,52,1009,-1430,864
-106,-24,3,402,654,-1383
-126,127,1,1483,1573,-1243
125,63,-35,1350,1462,-964
-117,116,-33,-1149,894,-692
-102,48,-53,-853,721,-556
-68,71,-67,-1495,857,-686
-50,37,-76,-672,926,-542
-41,64,-94,-929,945,-581
-34,62,-99,-646,829,-577
-18,57,-122,-564,957,-508
-18,60,-121,-561,769,-216
-26,60,124,-591,611,44
-34,74,-127,-694,403,400
-28,87,-123,-716,315,624
-30,103,-112,-539,309,758
-30,-117,-111,-648,212,848
-38,-94,-95,-800,71,786
-44,-80,-86,-665,218,638
-49,-63,-78,-556,372,392
-49,-58,-86,-631,605,73
-55,-66,-81,-412,507,-94
-50,-85,-93,-469,789,-213
-46,-84,-90,-868,686,-303
-42,-107,-101,-654,749,-223
-81,-95,71,4402,-3498,-5500
-1,-92,57,6299,-3831,-5836
-68,-40,88,7021,-4066,-4251
54,80,51,6230,-3671,-3150
6,39,52,1841,1008,-5215
-127,88,35,5432,1438,-4314
-60,-104,93,3857,3236,-3354
18,-63,34,-6474,576,1888
-46,8,25,-628,-861,701
-36,85,49,-2223,270,537
-39,83,3,-5425,586,1281
-18,63,-36,-10605,449,2132
-55,0,-97,-14063,266,3720
120,50,-117,-12398,742,3772
42,84,-111,-6421,132,4556
-82,-90,70,-3935,529,4070
38,90,-32,-3281,-1219,3483
-79,-27,21,3074,-72,3068
44,95,77,1923,-509,3080
-47,112,40,1111,-849,2823
-15,73,64,772,-1876,1891
-68,16,14,360,-320,-136
-103,-9,-15,-610,1258,-1106
123,98,-37,480,1690,-1017
117,94,-39,118,947,-610
-106,90,-61,-899,964,-660
-87,46,-71,-723,838,-695
-57,24,-94,-639,1177,-882
-38,44,-100,-1093,1082,-772
-40,18,-109,-362,749,-434
-32,35,-110,-491,651,-272
-26,48,-120,-822,666,-126
-29,54,-122,-650,492,98
-37,83,-118,-979,314,252
-45,87,-108,-615,397,421
-35,-114,-110,-1076,410,377
-40,-101,-93,-887,143,388
-43,-94,-90,-770,502,324
-47,-79,-80,-594,490,254
-43,-72,-96,-593,593,61
-45,-76,-90,-565,520,16
-44,-76,-101,-688,677,85
-41,-68,-101,-914,531,-18
-37,-81,-93,-563,655,34
-23,-66,-105,-721,671,-102
-35,-83,-108,-489,531,7
-30,-81,-110,-503,659,23
-24,-63,-115,-814,498,101
-25,-62,-112,-649,563,31
-24,-68,-112,-302,556,43
-71,85,-20,3290,1156,-4730
105,-89,-81,4401,-1090,-7363
-35,34,63,7857,-3818,-7511
-64,-61,-116,7146,-3311,-5297
39,-18,119,8276,-2507,-3485
-39,-22,2,2648,-938,-3475
-125,9,-20,7302,1378,-5268
79,114,71,-1065,2797,-890
-43,29,11,-3344,1034,291
-81,-26,-15,-804,432,57
120,84,12,-2218,-228,741
-64,36,3,-2968,1457,145
-86,89,-128,-7475,210,1491
-33,-44,8,-10006,645,2258
-80,19,-126,-11580,-348,2680
110,99,-16,-10498,478,3287
4,-38,-39,-6516,457,3983
82,-126,85,-4042,-156,3717
-76,-36,-82,-1046,-147,3108
91,90,-15,-93,-934,2864
-106,15,-47,1501,232,2739
-99,83,-24,75,262,2457
-107,45,45,245,153,2524
0,44,65,237,-1299,1448
-42,50,51,-133,-355,517
-104,-95,-10,702,1398,-1235
-114,105,-17,731,1318,-906
-127,91,-37,-136,1022,-234
-117,89,-37,-805,646,-431
-75,66,-61,-616,791,-610
-42,36,-82,-370,1176,-711
-44,50,-84,-703,989,-702
-33,34,-95,-693,747,-505
-42,51,-90,-670,553,-55
-32,64,-97,-875,562,-24
-16,83,-97,-1003,557,191
-34,94,-90,-603,248,283
-33,119,-91,-822,491,244
-33,-127,-88,-774,419,196
-41,-110,-87,-694,320,271
-45,-98,-89,-638,419,270
-43,-88,-83,-619,571,205
-37,-87,-84,-562,463,88
-41,-86,-85,-506,435,21
-36,-82,-86,-702,681,-18
-34,-91,-94,-538,606,-12
-29,-89,-97,-708,527,16
-28,-78,-98,-800,518,77
-31,-71,-94,-623,549,-60
-23,-82,-100,-431,765,-72
70,-35,-111,3457,-928,-6492
117,-47,65,6126,-3232,-5289
47,17,39,6222,-3281,-4832
92,13,0,8556,-4519,-2230
15,-42,-111,2862,-1565,-3319
-119,-26,60,5805,361,-5202
-70,-59,26,2663,2834,-2261
44,-70,102,-5725,1743,981
-75,64,30,779,323,-612
-57,37,121,-2445,-473,1258
-21,11,-15,-5540,191,1778
-58,117,-94,-9867,956,2691
-73,-35,7,-10237,997,2683
-100,83,84,-11750,918,3685
65,83,-59,-6634,470,4017
99,24,73,-2775,479,4209
-49,-32,119,-2272,362,3772
80,116,-26,-2659,50,3885
115,4,-64,522,711,2545
-80,-101,5,3201,515,2345
-2,126,4,-981,824,2855
-7,-54,71,-2539,-1778,1099
-68,-52,39,669,33,-533
-104,100,-9,1531,1674,-785
-117,99,-37,591,1037,-385
-97,122,-52,-916,765,-327
-82,37,-45,-234,559,-375
-71,47,-57,-826,852,-535
-62,32,-64,-653,891,-498
-41,32,-79,-701,863,-355
-41,28,-87,-650,748,-378
-38,43,-95,-669,593,-90
-31,57,-98,-689,738,35
-32,70,-103,-633,433,106
-33,90,-100,-867,440,191
-30,105,-88,-560,473,171
-37,109,-88,-558,429,180
-34,-116,-88,-951,479,191
-42,110,-80,-190,411,243
-40,-105,-87,-854,369,253
-40,-100,-88,-746,479,71
-32,-108,-81,-628,803,166
-43,-102,-91,-425,287,20
-32,-97,-92,-860,694,-5
-35,-101,-93,-548,607,10
-28,-105,-95,-426,490,2
-29,-99,-100,-600,579,66
-24,-86,-105,-678,589,-37
-24,-88,-103,-739,499,25
-31,-91,-101,-575,485,71
21,-83,-123,2981,1896,-3873
-120,-75,63,3494,-397,-7285
-31,-7,53,9097,-5126,-6857
25,35,-34,5866,-4416,-3360
95,-98,-42,5669,-1537,-3107
-50,114,56,4838,-693,-2716
-88,-87,-80,4545,1629,-4445
-64,123,38,4809,754,-2857
76,-71,83,-5871,3896,614
-74,-68,-58,-637,-398,109
-85,25,-58,-2322,-5,796
-67,31,-57,-3651,646,841
-67,58,85,-7838,463,1515
-27,-5,7,-9132,457,1647
-53,62,-128,-10534,-3,2063
-74,-101,13,-9735,100,2346
71,-56,11,-5416,123,3214
121,-74,-84,-2454,-421,3613
-27,-24,-75,-269,-148,3257
-113,-41,23,-2434,249,3762
125,77,-60,480,542,2566
-79,111,71,661,-769,3017
103,51,55,581,569,2412
39,43,63,184,-187,1583
-50,20,34,276,-612,724
-95,-78,21,457,239,-288
-125,106,-14,373,943,-532
-114,83,-41,-222,1009,-576
-104,29,-45,-194,598,-577
-72,29,-63,-693,833,-463
-68,31,-72,-1090,833,-549
-56,-3,-87,-544,757,-468
-50,1,-90,-541,733,-314
-50,24,-97,-832,648,-103
-52,28,-102,-758,489,123
-52,51,-101,-729,401,200
-46,73,-106,-778,372,215
-43,80,-92,-532,582,393
-46,110,-104,-834,445,225
-52,115,-94,-585,304,236
-49,101,-92,-47,568,374
-49,-111,-101,-924,482,20
-51,121,-93,-523,489,66
-53,119,-95,-556,616,137
-51,-124,-104,-622,539,59
-54,-115,-99,-728,540,8
-42,-117,-102,-544,650,15
-37,-107,-107,-651,523,-14
-39,-115,-108,-603,607,-42
-42,-115,-112,-587,610,-71
-20,-22,68,3949,1981,-5701
-53,-103,108,4707,-2799,-6080
-28,-62,-17,6148,-5284,-5581
-42,46,-1,4516,-5191,-4370
64,-88,6,1808,-3223,-2528
-113,92,-37,443,-1472,-3587
108,110,-39,4272,2509,-6244
-98,-37,21,6808,2982,-5939
-75,35,-22,-3375,6123,-607
112,90,77,-2552,-2285,431
8,-3,80,-234,1436,342
-75,-115,14,-1957,150,283
-10,18,-38,-2602,710,673
-13,102,-116,-8393,-167,2207
-10,43,92,-10717,-1013,1334
-13,34,-59,-11736,-590,2242
109,-125,-32,-10541,-673,3050
20,104,22,-4522,262,4196
74,-128,-114,-4705,-645,4260
-45,-7,-97,-2788,-482,3907
88,-15,-24,79,-485,3104
-18,24,23,-399,-259,3205
80,-89,-113,-482,-924,3531
-121,-66,-116,179,-1255,1728
-30,-62,108,650,-683,-867
-115,112,5,2659,2040,-1868
-112,71,-31,1062,2301,-979
-85,48,-41,89,790,17
-85,75,-38,-828,68,279
-86,52,-34,-449,316,282
-76,61,-45,-367,880,-7
-60,82,-40,-492,693,-41
-48,63,-56,-369,816,-352
-54,31,-64,-493,915,-349
-43,43,-95,-978,866,-154
-36,44,-92,-491,366,113
-67,52,-100,-440,488,284
-55,97,-93,-935,348,171
-55,83,-89,-482,204,322
-52,90,-72,-206,267,447
-54,116,-68,-713,180,205
-48,111,-69,-675,317,209
-20,118,-72,-494,329,163
-69,124,-82,-502,355,-53
-57,114,-94,-546,593,-70
-55,118,-117,-686,464,-19
-89,-113,125,-1503,194,-66
-118,-99,124,-1829,59,72
-104,-110,-121,-805,481,-53
-31,-87,115,-830,858,-262
-82,28,-111,5189,-886,-4876
58,82,36,5470,-2734,-3958
23,-116,-14,2677,-2823,-4719
-98,-79,-81,5030,-5195,-3581
127,-8,72,2935,-3419,-2412
-127,107,-125,3757,-2457,-2149
-23,85,101,3477,35,-3217
-121,103,-95,3764,1084,-3901
-22,99,33,6466,2385,-4967
55,106,118,-4578,3325,1729
-88,-9,-121,-2122,-800,683
-84,63,-29,-3584,-344,1406
-29,81,-32,-7743,920,1673
-76,24,56,-10751,247,1137
-82,-5,-100,-11816,-348,2040
-108,96,-118,-10531,345,2340
124,-88,-31,-4975,46,3180
-115,-124,83,-3356,-1249,3309
-77,52,-23,-487,-1881,4172
96,-65,19,-1010,-352,3079
-87,50,12,2067,1099,2605
-60,36,-28,2621,990,2288
-28,68,-18,384,1001,2664
50,114,67,-306,-1265,2556
-66,123,29,-827,-1427,537
127,-83,-29,587,657,-1028
-125,112,-55,348,1958,-1341
-127,80,-89,125,1121,-812
-95,49,-84,-828,591,-596
-70,21,-88,-770,481,-560
-51,2,-92,-790,804,-712
-51,-8,-100,-397,672,-354
-48,7,-100,-646,448,-143
-58,28,-106,-1014,464,-13
-62,45,-109,-970,409,237
-54,64,-111,-732,440,362
-49,105,-119,-865,459,322
-57,108,-117,-665,372,210
-63,118,-114,-649,473,235
-58,-125,-124,-677,561,132
-52,-128,-117,-454,494,20
-58,124,-120,-460,514,111
-68,-124,-119,-723,521,-40
-66,115,-124,-406,672,-1
-48,115,124,-375,730,79
-36,126,121,-441,578,134
-37,119,119,-342,676,145
-36,119,123,-421,582,137
-35,-120,117,-1026,395,38
-40,-126,-124,-990,398,97
105,18,-50,4061,-904,-5125
-56,72,66,4854,-3126,-4717
126,-89,20,3803,-4000,-3624
89,-44,115,4003,-3587,-3014
65,-61,-84,7587,-3818,-2890
7,52,72,301,-949,-4031
-101,10,55,7538,-235,-4587
-42,19,-20,-1152,5231,-2378
-65,108,-87,-3463,371,868
-90,-48,-62,-1313,202,700
-91,82,-8,-1286,-49,610
-75,103,-41,-1775,1500,-147
-78,45,109,-6180,1166,1580
-74,91,-23,-11787,615,1798
-48,-128,-115,-9643,-120,2406
-101,-109,-44,-11151,-420,2350
103,120,-101,-7015,-175,2683
68,39,59,-3783,-1138,3287
96,7,-105,-3365,-807,3477
-94,28,-40,-683,-1396,3411
22,57,-34,656,-1043,2837
122,74,-33,1069,187,2176
123,22,6,1860,-212,2478
96,-12,-38,2453,349,1866
21,-33,-15,1953,485,1608
-84,22,-11,-928,-20,9
124,116,-24,604,541,-652
100,29,-33,594,1049,-803
107,9,-55,309,964,-651
-126,2,-50,-612,853,-400
-99,-2,-64,-1210,601,-505
-83,-39,-68,-476,647,-403
-79,-49,-77,-407,678,-173
-88,10,-99,-1214,401,-231
-72,-4,-97,-790,485,-39
-63,4,-111,-453,607,47
-72,47,-118,-831,364,-124
-86,24,-112,-384,412,12
-96,32,-114,-370,483,36
-109,50,-123,-696,520,87
-92,46,-120,-480,630,256
-43,57,118,-434,785,263
-13,74,118,-633,416,462
-68,104,121,-841,163,327
-99,106,-118,-869,330,-124
-88,95,-112,-931,593,-126
-68,84,-117,-632,574,155
-70,107,121,-494,506,274
-90,123,101,-382,623,-55
-84,118,103,-507,645,-108
-120,-26,-114,3894,-1445,-3273
111,-65,-26,4067,-2096,-6080
-87,9,-117,5506,-2879,-5924
85,-49,-66,5006,-2757,-4083
76,-8,98,6879,-2632,-3372
-21,99,100,5213,-1280,-4092
-82,75,28,7572,1067,-6017
-72,-89,7,4669,2538,-5718
-9,38,-48,-5237,447,-161
82,34,72,-45,766,757
-81,-8,75,-2098,-283,1264
28,-116,36,-414,1915,-810
-41,-90,-3,-2817,180,1035
13,-96,-2,-6256,856,1537
-13,-121,-48,-9943,-254,2004
-7,69,-9,-12062,772,1471
-19,57,64,-12737,-559,1332
-82,-30,110,-9560,-1806,3140
124,-34,36,-2861,-1616,3558
-70,33,-91,-4158,-1083,3833
-39,72,-85,-1427,-853,2801
55,116,32,-456,-962,2467
81,95,-64,668,-30,2193
51,41,18,1673,-681,2143
33,82,27,288,-220,1863
-37,36,17,130,66,458
-83,-37,-15,532,807,-211
-124,-114,-61,885,1204,-608
-125,107,-86,143,1104,-435
-123,88,-96,-22,176,179
-118,47,-96,-279,196,-104
-97,51,-106,-899,1089,-370
-93,11,-128,-324,860,-612
-85,12,-119,-349,546,-227
-92,18,-118,-841,355,137
-90,22,122,-679,521,139
-89,40,-124,-615,629,139
-91,65,124,-819,411,245
-86,83,-124,-745,313,342
-80,96,119,-638,485,80
-72,105,118,-627,694,-79
-84,87,114,-347,622,-40
-80,97,108,-688,567,27
-74,99,113,-666,432,2
-68,96,112,-553,590,0
-72,100,113,-632,538,1
-78,101,111,-622,527,121
-68,121,108,-718,517,87
-71,124,108,-577,480,73
-66,-122,107,-736,589,77
106,107,-112,7298,-563,-4953
-79,-24,-78,4136,-1058,-6288
-25,-24,-124,4198,-1977,-5753
-117,-35,124,6196,-3122,-4622
88,-61,2,7587,-3881,-2859
-83,20,-64,5343,-2894,-2784
97,-70,-98,3977,-186,-4880
108,-100,66,7281,-1220,-5446
-90,17,-128,-4585,1298,-362
37,16,-51,-2025,195,1399
-78,97,-73,-1262,1018,450
-60,106,-66,-1795,885,580
-3,53,-60,-3615,1852,1443
-8,-124,-49,-9681,1858,2862
-26,19,54,-11723,1964,2740
-64,-34,-111,-12174,1073,2513
124,109,-63,-9523,49,2912
-98,-35,11,-5275,-113,3077
-85,-52,-112,-4223,-1186,3401
19,23,-54,-904,-367,2991
75,36,-10,743,-583,2365
-102,1,-6,1689,1563,1118
-107,-1,64,2554,569,3242
96,61,56,-219,614,2759
-11,19,51,-178,-910,2271
-101,-77,24,310,-461,741
109,103,-18,542,506,-812
-126,5,-33,1123,1451,-964
-86,16,-38,-285,1295,-676
-99,-43,-48,-332,737,-168
-97,-55,-48,-966,428,-460
-81,-86,-51,-483,782,-400
21,-82,-61,-643,1242,-58
-73,-58,-73,-618,181,62
-94,-36,-63,-920,104,179
-74,-20,-61,-1229,620,66
-57,0,-76,-694,520,187
-57,22,-75,-614,367,194
-62,47,-84,-856,485,-65
-83,29,-84,-533,427,-44
-77,44,-85,-800,562,41
-40,44,-89,-729,652,143
-43,66,-96,-722,316,21
-66,85,-93,-1005,454,39
-54,80,-99,-800,717,-32
-58,86,-109,-420,486,45
-52,106,-111,-739,546,74
-54,105,-117,-598,728,-14
-52,104,-127,-349,560,37
-33,112,124,-613,612,34
10,1,117,3100,-3463,-4379
93,-22,46,5588,-4179,-5020
102,-42,85,5771,-4389,-3812
-124,58,-33,5584,-5399,-2369
22,-127,14,2949,-2701,-2886
-35,70,-128,5695,1391,-6481
-118,2,-106,2020,2617,-2594
88,-18,96,-5098,2299,789
-123,53,84,605,-443,78
-87,98,46,-1709,414,392
-66,102,44,-1215,1406,-470
-88,8,-76,-2339,58,1121
-38,56,-28,-7387,12,1959
-73,79,62,-11288,476,1752
-106,-119,21,-8086,189,1876
125,-78,110,-11842,370,2604
61,-76,-96,-9193,-48,2860
79,-120,18,-6228,-1130,3392
-112,38,-112,-4770,-1293,2730
31,80,-8,-785,-96,2052
56,-70,67,-776,-2084,1907
83,76,13,461,-187,2117
79,106,86,276,-1399,2164
68,34,28,2107,-231,2456
26,51,54,1675,-643,1847
-48,59,2,868,-268,765
-101,-32,-17,1380,302,-388
122,-110,-53,317,1090,-1026
117,82,-45,343,1119,-303
117,66,-56,-531,743,-137
-123,65,-70,-1056,419,-258
-93,34,-54,-103,810,-289
-77,10,-98,-17,1144,-469
-79,26,-96,-720,503,-346
-83,3,-105,-367,706,7
-67,35,-114,-951,629,62
-75,22,-103,-241,379,240
-73,57,-118,-832,481,260
-72,96,-116,-1206,246,59
-72,54,-104,-257,473,211
-79,102,-113,-783,509,223
-79,126,-116,-924,323,58
-63,102,-112,-322,593,-9
-68,116,-118,-594,483,-69
-79,119,-110,-883,369,39
-71,113,-116,-545,627,-126
-55,108,-123,-403,692,-152
-67,109,126,-678,472,-20
-61,108,126,-621,491,54
-61,111,126,-443,579,93
94,-119,-103,-5145,-3294,-1674
0,-70,6,5869,3989,-5956
110,122,125,8795,-3006,-6903
-86,-105,16,5920,-4976,-4896
101,91,28,6381,-2881,-4525
93,-53,-72,10091,-3341,-3483
101,-49,109,559,-855,-3346
-94,20,-31,7648,526,-4405
-56,117,-59,-5439,4131,1465
-118,61,105,-265,-1061,232
-1,68,80,-1479,1326,208
-102,127,43,-2784,287,850
-55,60,-62,-4976,1280,1082
-64,72,-87,-8684,1557,2239
-76,84,22,-10451,1406,1931
-87,50,69,-12213,1391,2695
120,-104,-105,-10864,385,3338
116,9,-53,-6345,-1504,3831
-67,-47,-113,-2579,-1054,3546
52,96,-5,-1700,-1373,2483
92,65,40,534,-523,2422
114,66,3,673,-182,1794
-126,37,-13,1422,217,2348
39,69,15,395,-613,2034
-24,95,25,-360,-276,332
-93,-28,-6,1218,585,-583
-107,-108,-35,1261,1087,-846
-109,-120,-84,-421,1333,-609
-93,86,-62,-288,709,-345
-97,72,-75,-836,627,-387
-67,40,-81,-553,899,-422
-65,56,-97,-792,631,-337
-48,48,-105,-638,773,-108
-47,71,-116,-805,638,-98
-49,71,-110,-608,511,144
-39,103,-122,-846,492,82
-51,98,-108,-497,371,236
-46,113,-115,-564,551,206
-50,-113,-106,-865,383,230
-45,-112,-110,-581,444,168
-52,-110,-102,-370,379,95
-43,-110,-108,-449,658,-52
-48,-122,-112,-629,555,-116
-43,119,-113,-572,618,39
-40,-127,-121,-582,545,115
-36,-119,-122,-643,516,89
-32,-117,-117,-516,543,193
-38,-94,-121,-733,380,100
-40,-107,-113,-473,595,155
-33,-89,-121,-744,535,142
-61,61,58,2010,2333,-4169
-53,46,-88,4157,163,-3865
103,-62,-121,5480,-3945,-4619
-49,-48,71,5116,-3862,-4531
103,-84,-114,7036,-3975,-3837
-115,86,-117,6960,-3386,-3347
112,-50,75,3835,-650,-4077
-29,92,-112,7277,-298,-5341
3,41,23,-3593,5397,-317
-27,102,-38,-1830,-510,-5
-68,-108,90,-1167,82,703
3,126,11,-1227,1054,-96
-46,101,-8,-991,562,207
-2,52,-105,-2451,369,985
40,117,-69,-8403,537,1747
-1,111,118,-12383,339,1789
32,-12,-113,-11928,-958,1318
-109,-125,16,-10344,-1105,3424
-122,-76,-59,-6994,-1081,3684
91,-108,106,-4791,-1002,4083
-59,-14,-80,-3143,-1947,3476
96,79,0,-787,-2203,2947
119,-19,87,1350,-1658,2782
-52,-127,0,-411,-543,2390
-93,48,60,1275,-595,2176
70,108,33,345,61,752
-83,49,1,599,278,-358
115,-125,-48,1240,1417,-854
122,119,-78,183,1474,-496
-126,101,-73,-242,760,-83
-101,100,-86,-553,658,-196
-91,71,-99,-402,846,-434
-77,53,-114,-440,986,-481
-65,40,-111,-456,832,-206
-65,72,-122,-650,525,-261
-58,44,-117,-271,581,-70
-52,93,127,-937,615,-137
-58,76,-120,-453,401,-13
-60,75,-116,-297,484,246
-53,117,-114,-768,422,224
-40,-123,-105,-824,977,572
-50,105,-95,-96,524,101
-54,124,-89,-312,41,194
-50,-113,-93,-827,433,203
-52,-121,-99,-700,834,-105
-47,-120,-97,-537,572,48
-42,-108,-108,-718,588,-65
-38,-113,-114,-571,713,-158
-33,-114,-124,-622,627,-73
-33,-102,-127,-828,488,-62
-60,-37,102,3510,520,-5458
0,-124,79,5087,-1472,-6458
-121,-14,44,5813,-2615,-5920
104,123,69,7756,-4805,-4888
1,23,51,6182,-3100,-5122
-14,-112,-79,4068,-419,-4824
-60,-28,93,6977,-903,-2768
-16,7,11,-5153,6032,-351
-110,29,-50,-186,-2143,594
-15,78,-20,-1313,540,456
-40,113,-19,-1048,942,-77
-61,104,-98,-1363,466,279
-7,89,120,-3009,230,1067
51,-88,-71,-9239,819,1911
98,116,-28,-16250,185,1673
-5,71,-81,-14347,-487,2255
86,-118,7,-5292,-70,4264
-118,65,-104,-6400,-7,4242
-68,5,-116,-6302,-1707,4492
-125,15,90,-1378,-3832,3945
-24,101,78,-949,-3347,2561
-39,-17,108,1393,-1211,1637
-71,10,-127,854,-854,1567
74,80,71,363,-779,1068
-100,-37,59,1173,290,-364
-102,-67,-23,-139,1754,-984
87,106,-64,459,1353,-584
123,73,-115,-231,1233,-507
-105,78,-122,-329,768,-239
-100,59,-107,-331,122,-44
126,44,118,-750,702,-30
-120,74,119,-982,313,178
-107,81,122,-850,520,163
-93,105,121,-487,610,165
-110,105,122,-527,150,80
-117,81,103,-470,712,-73
-95,109,91,-561,1012,-92
-93,101,89,-424,694,75
-86,109,91,-779,523,102
-80,123,98,-539,594,-73
-78,118,117,-408,445,136
-87,-106,123,-719,379,127
-76,-113,124,-404,554,99
-69,-103,121,-394,632,7
-63,-100,116,-454,524,36
-80,-99,120,-576,441,34
-68,-114,109,-356,793,-21
-59,-105,110,-587,520,8
-61,-100,122,-612,352,158
-62,-91,120,-672,506,122
-1,52,47,1013,2655,-6648
61,-71,-74,3660,-760,-6501
27,-114,6,6534,-2397,-7386
23,-105,-95,6810,-2724,-5337
112,-31,58,8526,-3142,-3967
93,-39,43,2899,-798,-4268
-61,45,-56,9231,437,-5035
-109,-61,-86,-5767,2998,1598
-88,40,-20,-2132,358,660
-89,64,-31,-1517,606,431
-84,42,-85,-2577,1186,509
-80,40,111,-5302,584,1471
-57,51,112,-8409,2178,2330
-110,39,-77,-11069,2456,2318
120,-127,8,-12357,2198,2938
98,-40,-128,-9455,1094,3379
-98,115,83,-4590,-969,3209
29,-29,-75,-2449,-114,3018
123,55,3,-1802,-986,2416
-82,-1,-16,873,-237,2385
-67,59,58,254,-1160,2558
-109,23,43,1124,-606,2585
31,27,27,1464,-1073,1627
-54,-5,17,1176,-1029,480
-121,123,4,1918,373,-271
-120,118,6,126,1155,-811
-128,49,5,262,1234,-288
-115,43,-17,-1131,880,-591
-96,-3,-33,-920,786,-492
-76,-16,-57,-928,858,-337
-71,-14,-75,-634,725,-247
-66,0,-89,-642,822,-371
-57,2,-106,-530,915,-343
-46,20,-116,-684,581,-149
-48,27,-117,-879,401,218
-52,62,-112,-1156,284,205
-51,56,-97,-504,415,174
-42,87,-94,-781,316,275
-53,98,-87,-759,334,198
-65,109,-80,-762,370,191
-52,114,-78,-754,488,219
-57,126,-81,-658,421,185
-55,-117,-83,-590,534,84
-49,-117,-93,-487,687,-27
-46,-117,-100,-490,581,22
-39,-118,-113,-572,595,-8
-42,-117,-112,-682,589,-22
-42,-125,-117,-679,565,129
-41,-103,-112,-817,479,167
-30,-94,-113,-672,622,109
-121,94,-125,3692,-2852,-7662
120,57,17,5207,-3783,-7817
-18,-35,-123,5272,-3899,-5320
43,-41,-78,9330,-2363,-5754
34,-18,76,4082,-1451,-3985
0,76,27,8757,923,-5577
109,125,1,-4279,2598,1114
-86,-108,45,-2813,123,829
-89,0,14,-217,581,-33
114,-113,52,-2027,390,522
-71,0,-45,-1647,1445,193
-108,82,-68,-5325,-449,1751
-58,105,-71,-9841,1583,2345
-117,-18,42,-9276,1009,1930
-107,81,82,-11460,1253,2763
68,105,-63,-7877,626,3502
100,-19,21,-5241,-327,4436
-84,-32,81,-3322,-256,4184
42,44,-63,-2605,-697,4066
-108,60,1,-401,-717,2997
-29,37,79,1826,-1276,3264
-38,49,69,1218,-425,3033
41,110,93,474,-1754,1875
-85,43,69,642,-730,-64
106,-105,28,1630,1019,-1347
87,102,-21,425,1850,-1126
96,76,-36,-490,1229,-511
110,50,-46,-755,704,-547
-110,14,-59,-303,866,-476
-83,17,-77,-719,1102,-705
-75,14,-88,-789,818,-745
-67,-5,-99,-356,725,-445
-64,7,-100,-744,713,-232
-67,-5,-103,-665,534,140
-70,32,-103,-929,286,400
-63,67,-96,-1068,319,461
-61,87,-96,-647,395,308
-62,-124,-85,-924,354,368
-68,-112,-92,-963,424,192
-62,-118,-84,-413,464,148
-64,-106,-90,-596,482,79
-69,-115,-89,-571,492,32
-62,-119,-91,-593,552,3
-63,-115,-96,-552,543,-30
-59,-123,-98,-379,657,62
-53,-110,-111,-643,594,25
-42,-117,-111,-465,471,119
-48,-119,-111,-338,525,172
-49,-92,-112,-976,409,136
-71,-87,-94,-792,317,238
75,-20,58,4200,-1614,-6013
-8,28,120,5195,-3015,-6763
21,-112,89,3646,-1357,-5433
-29,-109,-83,7252,-3543,-4177
23,54,14,9117,-2558,-4606
113,-76,-102,5821,1491,-6752
-117,0,-91,7072,815,-3600
-15,11,-16,-11810,1896,3150
-93,14,55,3811,-383,8
103,-2,97,-2596,1157,263
94,-7,-68,-354,232,303
-118,114,-26,-1476,1426,-239
-109,-20,113,-2784,194,1331
-38,116,-107,-9544,225,2195
-61,-24,79,-10780,211,1923
-107,14,-126,-10343,-203,2276
26,-11,43,-6099,955,3299
42,-64,73,-4680,516,4065
95,-66,78,-4650,583,4568
-71,10,98,-2461,-123,4358
38,91,-44,-1632,-949,3500
-124,-3,-14,1841,-504,2500
-61,97,23,656,169,2499
89,65,31,752,13,1771
-41,8,38,590,14,859
-89,-37,2,696,457,91
119,-116,-20,248,914,-664
-128,77,-43,52,1427,-815
-126,56,-48,-212,980,-558
-100,28,-69,-517,880,-385
-88,26,-69,-744,656,-280
-85,15,-69,-504,388,-110
-81,30,-86,-1013,528,-356
-78,18,-83,-789,789,-187
-67,46,-101,-834,661,22
-66,52,-96,-513,395,156
-71,85,-100,-880,410,77
-65,74,-94,-489,640,147
-62,91,-106,-449,559,174
-61,94,-96,-328,271,263
-54,120,-99,-782,440,79
-65,108,-88,-524,535,166
-61,-128,-95,-675,482,101
-64,125,-88,-452,408,132
-53,-123,-95,-539,617,48
-59,-109,-97,-817,463,-11
-58,117,-90,-271,625,80
-49,-104,-103,-773,552,2
-50,-126,-99,-407,539,39
-43,-113,-109,-665,625,62
59,-104,-59,7911,-2674,-5224
-30,-115,50,6313,-3596,-6673
44,-116,-59,3476,-5471,-3816
50,44,79,4333,-2860,-4060
126,19,84,6048,-73,-4342
12,-65,-27,4272,585,-3878
48,89,12,5776,1771,-4376
85,-14,-14,-4018,4467,-517
101,20,-38,-2738,-1628,1396
-51,26,54,-125,422,187
-125,-71,105,-1351,1263,-229
-98,91,-7,-874,799,-288
-70,102,-9,-2499,435,432
-29,113,-54,-5659,191,1266
-8,27,-116,-8269,-203,1263
-15,57,10,-9717,-645,2151
-44,3,-92,-7940,-46,2178
123,-111,93,-7235,267,3081
61,-109,85,-2601,785,3868
-120,-112,-77,-3242,709,4263
-18,27,79,-2890,1904,3346
46,122,-63,-3123,183,3332
75,-12,-50,445,-169,2634
111,-118,77,-2445,650,2136
20,39,57,-665,-376,1633
-21,4,83,464,-507,1329
-65,-20,27,793,76,408
-87,-41,-15,-25,1290,-691
-101,112,-37,604,1309,-820
-83,76,-67,-40,1168,-556
-77,70,-66,-774,679,-341
-68,33,-74,-94,390,-74
-65,53,-73,-824,681,-99
-47,51,-86,-773,708,2
-53,73,-93,-582,250,-14
-52,71,-88,-500,559,171
-50,109,-93,-990,468,30
-58,93,-89,-385,328,189
-48,126,-92,-834,501,92
-45,-128,-97,-807,444,31
-52,-119,-94,-694,416,63
-52,126,-89,-395,571,35
-43,-125,-101,-581,628,25
-44,-118,-105,-737,344,81
-43,-123,-96,-527,554,170
-42,-103,-100,-735,482,102
-47,-106,-97,-552,447,144
-45,-92,-98,-604,603,174
-39,-87,-102,-457,504,91
-32,-86,-107,-535,559,96
64,96,56,-4713,-3430,950
-17,-2,20,-103,3031,-2785
94,3,69,6558,-1883,-7714
83,44,80,6090,-4144,-8262
-38,65,-123,5527,-3651,-6700
35,57,83,7007,-3011,-4628
-46,84,-55,5107,-2192,-5031
24,-65,-24,7382,1711,-6446
-114,-47,48,-383,1723,-70
23,-47,18,-6108,1217,1481
-84,-15,-20,1268,-925,434
-90,-121,23,-2110,1222,116
-90,59,-57,-881,246,72
-70,92,-38,-2070,528,549
-21,68,-75,-5994,1136,1754
-26,62,-94,-8356,964,2112
-43,-5,112,-8790,1289,2187
-70,88,-40,-9730,1055,2650
105,111,39,-7173,1507,3451
96,17,94,-5101,407,4088
-125,62,-124,-1097,-769,4435
59,-8,-42,-869,415,3627
100,-22,-91,-2177,2315,1966
109,-15,12,-1764,503,2740
120,-58,70,-375,125,2709
53,-64,72,546,-380,2153
9,-36,64,645,16,1407
-93,-70,-1,335,91,-343
-118,79,-16,1250,812,-731
-114,66,-31,78,1295,-685
-125,39,-38,-346,490,-239
-95,19,-35,-182,343,-239
-76,11,-45,-718,725,-726
-72,-30,-57,-486,807,-547
-67,-32,-66,-600,538,-354
-61,-31,-64,-531,440,-211
-63,-7,-74,-798,517,-105
-61,-3,-81,-761,627,93
-53,2,-84,-667,456,221
-55,42,-84,-893,372,278
-63,46,-83,-558,434,344
-60,62,-81,-514,530,265
-58,89,-91,-931,426,279
-59,84,-89,-465,403,237
-54,96,-89,-478,620,107
-56,89,-93,-387,520,111
-57,86,-96,-386,441,146
-53,96,-103,-558,590,112
-57,93,-100,-462,464,124
-51,99,-103,-567,524,78
-67,-118,-43,4250,-1984,-5060
-93,4,73,5640,-4025,-3770
83,29,123,4924,-2937,-3574
72,10,-53,6740,-3074,-3033
123,109,102,6976,-2859,-2443
17,47,-119,2433,-649,-3266
-42,109,96,7157,2297,-6724
-108,-28,35,-574,2104,-54
-17,117,62,-4077,818,487
-85,16,64,563,-194,389
-65,104,22,-1858,427,551
-62,106,20,-1649,765,427
-51,96,-41,-4149,876,1267
-29,-115,-46,-8614,439,1513
-1,22,72,-10163,274,1935
-42,28,-78,-10784,-92,1580
-103,95,20,-9369,-212,3216
51,26,-16,-6177,-873,4896
87,-72,94,-3980,-443,4166
4,73,-7,-1714,-380,3603
105,68,31,1388,-934,2957
-117,98,25,263,-286,3105
123,76,1,-624,521,2531
69,96,50,-536,-459,2009
-1,66,66,349,-393,1066
-102,4,3,689,555,-689
-122,103,-50,1398,1708,-1243
-101,70,-78,43,1607,-703
-117,51,-65,16,563,184
-86,52,-62,-616,360,33
-78,74,-71,-880,375,-207
-59,47,-75,-399,830,-313
-69,47,-79,-593,658,-164
-79,45,-81,-494,361,18
-62,69,-88,-979,654,15
-57,68,-99,-666,538,-6
-59,68,-94,-518,491,111
-55,97,-100,-851,517,2
-54,100,-96,-710,467,125
-54,100,-103,-276,450,145
-50,122,-98,-686,434,45
-50,121,-106,-663,574,21
-53,112,-102,-370,471,115
-49,121,-103,-325,405,121
-47,-126,-106,-762,534,7
-48,127,-105,-686,487,94
-52,126,-102,-561,467,107
-43,-111,-103,-703,520,97
-42,-100,-109,-559,511,13
-42,-106,-108,-637,550,190
114,36,-95,4205,-4084,-5193
119,45,32,3327,-3220,-6129
-29,29,109,5368,-3087,-4669
-26,92,10,6293,-1873,-3651
75,2,25,7019,-1286,-2660
-18,-16,-123,2443,1246,-3357
21,-55,-3,9084,-1995,-2846
108,122,-95,-7202,4139,307
76,-62,23,891,-827,9
116,96,55,-2295,473,501
-127,-2,41,-778,1029,-265
110,80,36,-2091,414,348
-78,55,2,-4513,1567,723
-82,83,-62,-9488,310,1893
-53,-8,42,-9585,808,1715
117,13,-62,-9783,669,2624
-127,120,-20,-9781,1309,3203
55,-18,20,-6005,-956,4599
105,99,-118,-2105,-811,5012
-29,-32,75,-1490,1234,3323
72,92,-104,-1685,-1010,2781
-98,75,12,-240,-954,3560
125,76,49,422,192,2116
55,42,36,710,1517,335
-27,9,93,1323,69,376
-76,31,48,-467,8,258
-106,-75,-36,91,748,-616
-108,100,-52,140,1397,-1192
-99,52,-84,283,1583,-890
-80,33,-79,188,757,-395
-61,38,-95,-706,530,-284
-63,32,-87,-908,434,-115
-62,23,-80,-578,493,88
-56,66,-89,-944,386,64
-57,64,-92,-620,418,255
-60,91,-91,-897,349,197
-67,107,-91,-608,320,284
-54,110,-96,-395,464,200
-61,-123,-95,-664,368,68
-61,116,-99,-432,626,59
-59,124,-102,-482,477,32
-58,115,-104,-521,560,-16
-53,115,-103,-593,551,100
-51,119,-104,-561,462,127
-47,124,-109,-426,553,144
-50,-124,-107,-591,415,156
-51,-114,-107,-695,497,184
-51,-108,-105,-572,507,134
-44,-108,-108,-526,609,80
-36,-92,-110,-988,630,186
-54,75,67,6042,885,-5388
30,-24,-80,6070,-2198,-5503
111,-94,34,7388,-4776,-4661
76,-94,126,6884,-4701,-3239
121,-117,-30,5715,-2310,-2425
41,-26,68,2982,520,-4116
96,-72,-2,6986,634,-3617
43,69,-3,-3569,856,1326
-49,44,-109,-2068,1288,388
99,124,71,-805,826,-204
-111,70,24,-1777,434,296
-122,107,41,-3012,935,169
-81,96,-12,-5277,657,676
-19,91,125,-10553,789,2139
-49,-39,-46,-10543,1255,2180
-90,63,59,-9924,-90,4469
103,-44,-2,-6693,543,3919
-126,93,-125,-4518,1866,3825
25,-106,-19,-5148,-163,3510
56,39,6,-1137,-180,3253
-71,5,9,2104,-307,3246
-61,63,24,733,-363,3176
124,86,75,-845,-540,2748
13,61,73,-148,-921,1473
-48,18,74,47,100,-559
-113,125,26,960,979,-977
119,86,8,-154,1404,-589
-117,76,-11,-432,750,-210
-88,67,-19,-497,741,-339
-57,61,-56,-743,956,-603
-50,32,-70,-179,999,-615
-44,30,-77,-281,861,-487
-40,36,-83,-679,716,-431
-34,39,-84,-699,609,-95
-29,45,-82,-589,580,-47
-27,60,-86,-542,456,65
-16,64,-81,-452,485,237
-32,76,-70,-390,261,352
-37,97,-68,-516,422,332
-44,99,-63,-535,400,418
-39,106,-59,-335,415,557
-37,-113,-61,-749,307,378
-51,-125,-56,-398,405,247
-40,122,-68,-368,615,185
-38,-128,-70,-523,562,190
-30,123,-70,-511,462,138
-26,-125,-63,-616,527,159
-39,-125,-76,-542,615,34
-35,-117,-79,-754,564,71
-34,-122,-78,-416,593,42
-48,-76,-63,-3187,-4871,-1389
-101,-68,96,1064,2186,-4225
-20,-113,70,4533,-513,-6769
64,58,-119,4854,-2578,-6286
-58,79,91,5317,-2956,-5293
-19,-112,-101,4509,-2977,-3509
27,-17,-47,5337,-2113,-2962
-95,74,-14,4456,-121,-3827
-48,58,-71,4863,-494,-3139
30,20,25,1509,3708,-3103
119,112,-70,-6001,-1707,2718
-84,-34,46,-74,1674,-83
79,65,-112,-1323,-250,845
116,57,-61,-681,1391,-434
106,42,104,-3249,-77,1248
-101,102,-56,-8008,1589,2288
113,46,57,-8273,813,2217
115,19,-59,-9449,1594,3095
62,-95,-25,-10175,820,3986
6,-118,-8,-5012,626,4466
127,-121,111,-4233,53,4354
-39,-17,112,-1947,215,3466
62,50,-18,-862,-602,3330
114,-3,-76,1076,1229,3077
-70,-37,-8,2997,114,2908
96,24,71,1500,-717,3470
-4,68,35,-1122,-413,1724
-107,23,17,-948,-205,-683
95,111,16,1301,701,-1216
92,76,0,303,1254,-1006
96,23,-19,-93,1042,-569
126,21,-29,-617,738,-416
-116,-5,-40,-499,593,-540
-89,-12,-54,-760,898,-566
-91,-22,-61,-671,743,-459
-94,-15,-67,-327,487,-153
-91,-26,-71,-134,498,2
-80,31,-88,-1418,557,12
-79,28,-89,-1098,464,90
-78,53,-87,-970,430,217
-84,70,-85,-869,437,299
-75,86,-81,-533,443,293
-74,111,-86,-739,424,170
-66,114,-80,-690,532,65
-79,108,-81,-345,552,178
-71,-128,-91,-666,536,-14
-74,113,-93,-552,566,39
-61,118,-103,-628,669,78
-66,117,-101,-470,427,123
-55,-128,-104,-663,619,62
117,-36,-26,-7560,630,-734
-61,7,-42,-2601,-522,-3057
-61,91,109,6847,730,-4012
-7,-3,74,6238,-1975,-6620
32,21,-88,7250,-3199,-5467
-57,81,121,6291,-3301,-4737
-10,41,10,8126,-3432,-3231
-106,-76,21,3011,-731,-3845
99,-39,75,7398,2483,-4709
20,-51,126,1512,4324,-2943
-57,96,124,-5340,1190,1451
112,-11,43,-554,-213,450
99,100,84,-1171,135,444
-126,120,65,-2416,584,121
-111,63,30,-6576,232,829
-51,32,-125,-8687,-748,1085
-65,-76,-2,-8812,-1377,1844
-105,78,102,-10698,-342,2098
25,75,-13,-6610,345,3345
39,86,61,-5261,734,4041
81,-47,108,-3396,178,4051
-22,117,-76,-2665,-46,4015
79,99,-32,-577,-635,3099
-109,51,25,1272,-755,3017
-101,56,12,1678,-81,3249
-121,100,45,-632,188,2333
5,116,68,-419,-796,1531
-89,33,36,702,-130,-78
122,-68,-6,692,1367,-1198
-127,125,-46,417,1611,-990
-114,74,-57,170,947,-840
-77,85,-45,-382,248,-628
-78,32,-65,-562,678,-956
-69,-7,-80,-635,1184,-885
-57,10,-101,-763,1050,-588
-39,24,-95,-579,452,-19
-47,55,-104,-872,270,149
-52,68,-98,-816,507,141
-49,81,-93,-746,399,315
-46,113,-90,-670,394,397
-50,-126,-85,-825,288,300
-54,-121,-77,-684,385,370
-53,-110,-76,-623,505,331
-45,-101,-80,-636,489,293
-48,-97,-84,-472,505,111
-50,-86,-91,-742,567,26
-43,-102,-94,-509,586,32
-46,-99,-99,-597,521,55
-42,-94,-100,-773,466,-38
-39,-110,-98,-430,598,35
-127,65,1,-9891,-850,-137
-105,-81,16,2268,758,-1432
-123,-102,57,7220,1097,-6738
-82,-70,110,5409,-2051,-6766
27,-97,45,6145,-2534,-5553
-77,-111,-118,7578,-3415,-4073
72,44,104,7078,-1248,-3871
-13,66,35,5416,-160,-3964
63,-111,38,7035,106,-3133
-86,-124,-20,-2805,5784,-1417
84,-111,-73,-2571,-1512,1191
-82,42,22,-573,355,366
-97,-121,36,-1655,722,30
-104,87,-11,-1633,592,328
-52,116,-76,-5283,199,1132
-3,50,-75,-9281,476,1727
-30,-9,6,-10397,-511,1649
-33,-79,122,-9292,1005,2024
87,-123,69,-8100,-555,3603
46,-15,39,-4768,-191,4826
70,-120,-122,-3153,-424,5856
-69,41,109,-3078,150,4260
48,32,-79,-905,-621,2802
112,-45,-13,2712,-643,2544
-57,110,-28,-787,944,1647
69,93,23,-926,425,1311
-15,-9,62,976,-205,677
-83,-31,13,795,410,-462
-128,-120,-15,433,1119,-728
-115,75,-48,167,1434,-694
-103,42,-55,23,850,-372
-90,41,-68,-636,491,-205
-84,19,-82,-364,659,-129
-74,25,-81,-549,716,-152
-69,51,-102,-966,661,-96
-66,30,-93,-320,560,107
-62,59,-101,-592,441,16
-64,80,-92,-797,416,59
-58,72,-96,-466,731,128
-55,93,-106,-704,504,23
-64,104,-93,-836,261,160
-52,116,-95,-730,596,89
-51,-123,-94,-727,456,-33
-48,127,-89,-677,506,-11
-52,124,-96,-553,576,17
-53,-126,-106,-675,530,87
-47,-119,-105,-667,431,111
-47,-117,-100,-412,509,170
-42,-99,-108,-687,517,93
-45,-96,-110,-572,428,82
81,-61,-74,5075,-1925,-5166
-12,96,20,4680,-3824,-5694
33,116,46,4578,-4121,-4841
-33,-86,21,5072,-3177,-4157
89,22,-61,7342,-1563,-3917
35,67,107,2748,-215,-4028
112,89,25,7733,-906,-4045
47,120,4,-5684,6231,454
-95,-47,126,267,-2739,891
-49,-28,-112,-2192,1295,658
-58,85,36,-552,895,-357
-94,125,-29,-1485,810,300
-49,60,-82,-3482,1234,1098
-24,-113,-82,-7268,1224,1380
0,65,-78,-10344,1414,1453
-53,22,-10,-11511,1009,1590
-75,-21,83,-9034,1152,2914
109,-116,67,-5903,57,4369
-81,70,114,-4389,-461,4935
-2,-9,-91,-4250,-326,4538
95,35,-42,-2044,-187,2835
-105,-42,29,1235,-710,2460
-67,124,88,-1474,-432,2430
35,49,105,-153,-581,1335
-27,0,65,1365,40,152
-87,-34,8,1021,846,-539
-112,-105,-54,249,1570,-1093
-107,73,-62,615,1213,-527
-95,75,-77,-597,553,-579
-87,24,-75,-74,673,-280
-72,41,-79,-881,730,-378
-69,14,-92,-300,721,-133
-61,42,-94,-731,454,-15
-57,56,-94,-814,474,90
-63,80,-96,-814,408,72
-51,77,-94,-503,550,118
-48,102,-99,-761,374,127
-54,113,-87,-604,312,71
-63,100,-93,-212,537,168
-56,-126,-97,-857,468,99
-51,127,-95,-573,429,169
-49,-113,-96,-649,495,-31
-51,-123,-96,-524,533,43
-43,-112,-106,-590,549,2
-49,-121,-107,-618,479,33
-50,-113,-109,-685,519,130
-44,-104,-107,-553,428,120
-44,-101,-110,-574,537,103
-47,-92,-107,-753,455,46
-42,-100,-108,-497,550,120
112,51,38,3745,-719,-3952
-51,-83,66,4555,-3103,-5019
42,120,87,5946,-3617,-4690
-11,-62,-85,7265,-3248,-3659
50,-91,122,6168,-2025,-3125
-73,-78,-10,3705,154,-4348
99,55,-62,6920,1422,-3976
90,-117,-73,57,1129,-739
119,58,-99,-3286,1376,1042
4,-123,52,-662,580,241
-96,-67,63,-1592,85,838
-28,-111,-12,-794,1550,-46
-63,112,-79,-2804,15,1204
-29,-127,-38,-4759,444,1192
-15,-104,-50,-8838,1404,2405
-39,53,102,-9554,1380,1325
-57,-101,-115,-12284,1539,2102
125,-126,-58,-8580,-16,3383
-117,18,39,-6274,-851,4091
-70,1,118,-4571,-680,3844
26,56,-20,-2491,-959,3114
104,100,29,-1336,-953,2838
119,77,54,495,-1225,2191
71,46,81,1108,-1084,1904
22,43,72,387,-88,1500
-42,7,34,956,269,337
-109,-54,18,1225,583,-311
-108,-104,-20,302,1212,-678
-126,49,-44,602,1367,-522
-105,61,-57,-259,1065,-338
-83,59,-78,-799,736,-250
-75,33,-87,-548,541,-154
-69,33,-85,-510,684,-36
-70,54,-92,-757,517,-94
-52,40,-90,-375,697,2
-56,72,-89,-874,460,-16
-62,58,-83,-412,560,92
-50,75,-83,-570,498,118
-48,94,-86,-806,499,133
-51,86,-86,-413,481,178
-45,104,-85,-598,535,177
-46,105,-82,-479,526,142
-44,118,-90,-753,553,93
-42,114,-87,-584,523,154
-40,-124,-92,-761,491,98
-49,-127,-84,-628,423,112
-40,-125,-90,-539,564,89
-40,-114,-89,-593,466,62
-36,-115,-94,-549,549,42
-36,-112,-93,-595,528,69
-115,-56,-123,4583,808,-3504
-14,-56,-24,6276,-1428,-5063
110,-118,102,4944,-3162,-4096
31,118,59,5271,-3614,-3702
73,-75,104,6271,-3752,-2855
-45,98,33,6177,-2797,-2983
91,48,126,3684,-349,-4097
-10,-28,-2,8502,2921,-6116
31,21,40,-5766,2485,2971
-33,117,103,-1335,-434,-221
-74,114,-128,-90,923,39
-96,-79,29,-2796,-166,796
-23,126,76,-2861,1587,241
-25,-108,-52,-6362,134,1278
54,51,-63,-10102,1070,1926
0,7,27,-10464,511,1826
-70,39,124,-9788,1240,3031
97,-16,21,-8276,21,4602
87,111,64,-5631,-1133,4669
-23,33,-67,-4538,-945,4554
69,32,16,271,-1019,2736
127,87,-40,878,47,1826
-124,127,-14,-367,298,2127
22,57,27,802,-268,1397
-19,-3,4,1132,382,599
-74,-26,-6,418,850,-211
-102,-108,-67,281,1287,-900
-104,104,-58,114,959,-535
-99,60,-89,-142,229,-552
-87,46,-75,-876,655,-134
-81,26,-94,-803,795,-195
-81,24,-89,-466,548,-18
-67,54,-103,-765,580,-7
-69,43,-107,-371,591,213
-68,98,-123,-928,503,190
-66,92,-116,-579,452,253
-60,99,-113,-396,453,238
-65,119,-112,-621,434,94
-60,123,-109,-803,517,25
-55,112,-105,-488,527,89
-60,-128,-104,-647,380,40
-58,-127,-102,-684,590,-38
-57,122,-104,-580,558,13
-54,123,-111,-480,543,48
-52,-122,-114,-652,551,40
-46,-122,-122,-540,584,55
-47,-112,-126,-626,449,111
-49,-106,-119,-659,484,83
-43,-106,-124,-602,647,99
-42,-92,-126,-728,416,76
-86,25,-88,3212,-1044,-4050
13,-113,116,3537,-2465,-4363
88,-39,81,5121,-3527,-4390
19,116,97,5371,-3124,-3890
-5,103,-104,6514,-4310,-2026
-64,118,82,4627,-1340,-3821
66,-47,94,4271,405,-4604
-124,-105,-44,5646,2148,-2501
0,127,-4,-4642,2659,938
-85,98,53,-1482,-258,516
-111,116,123,-1035,462,126
-93,-101,81,-2213,1212,-6
-72,104,13,-2622,463,-191
-65,-107,40,-8230,685,633
-14,55,121,-9308,680,1270
-12,44,-66,-10260,684,1392
-10,-89,29,-11517,1171,2254
-108,-10,-50,-7764,-243,3482
-83,-94,84,-4931,-470,3973
45,84,41,-4583,-1508,3696
-110,-90,66,-2982,197,2350
-115,104,-54,-397,-1960,1791
-98,114,-58,1212,-1509,2385
67,60,112,1748,-783,1147
-12,19,70,1620,-421,471
-84,-61,-24,1472,550,-19
-83,-101,9,810,719,-134
-97,100,-35,737,797,-347
-92,40,-29,599,682,-306
-86,24,-42,223,586,-238
-86,21,-34,-116,552,-162
-70,-5,-56,-238,815,-297
-70,-1,-56,-488,638,-101
-57,4,-69,-459,631,-93
-51,12,-77,-585,390,-64
-51,6,-70,-510,548,55
-49,33,-83,-883,477,-24
-51,18,-84,-304,414,55
-50,23,-79,-273,425,156
-57,52,-83,-906,472,96
-54,50,-83,-621,490,151
-47,58,-85,-507,436,165
-46,66,-85,-498,441,188
-46,74,-86,-574,548,88
-55,65,-83,-403,542,131
-48,72,-95,-579,545,193
-46,90,-99,-765,472,132
-45,85,-99,-560,593,161
-44,101,-102,-633,443,142
-44,100,-104,-558,525,97
69,42,-84,3922,-2992,-4893
-97,-4,56,5429,-2906,-5889
24,44,78,5873,-4272,-3871
21,125,1,6050,-3149,-2961
124,42,-27,6461,-1789,-3192
52,79,-54,3212,1034,-4508
70,-124,65,5276,1617,-2578
8,90,-12,-4775,2639,907
111,48,-127,-1194,-301,21
97,117,-126,-2051,501,512
-103,85,58,-2925,1498,-128
-120,60,-8,-5784,125,948
-77,90,-123,-10891,1893,1303
-102,-15,-55,-10663,1322,1198
-94,117,34,-11423,843,2208
94,-83,-67,-6275,-52,3006
-61,-50,106,-5969,253,3353
-47,18,123,-2954,-185,2801
48,-102,80,-2210,-1291,2764
93,47,3,1221,241,2381
100,99,-11,157,-238,1961
67,35,70,453,-550,2606
51,21,8,727,-293,1637
-46,24,40,801,-897,1198
-59,-45,24,637,378,-118
-101,-116,-33,176,1398,-687
125,95,-40,106,646,-579
-117,63,-58,-149,705,-179
-101,89,-73,-929,635,-186
-77,83,-97,-1174,622,-457
-74,97,-83,-1540,644,-616
-58,29,-96,-101,1075,-423
-52,60,-112,-596,728,-399
-58,62,-111,-685,423,101
-63,79,-108,-800,325,174
-52,103,-106,-827,531,158
-53,116,-105,-663,444,264
-55,127,-103,-593,341,268
-50,-107,-101,-786,405,186
-53,-123,-100,-308,478,211
-53,-108,-102,-520,447,156
-53,-100,-108,-701,482,85
-51,-106,-110,-533,447,138
-48,-112,-103,-379,542,165
-54,-90,-112,-776,426,81
-49,-105,-106,-509,568,81
-45,-104,-114,-486,559,104
-46,-91,-121,-663,518,66
-37,-102,-114,-488,767,63
-40,-83,-112,-764,350,90
110,-3,-27,4662,-1619,-6204
69,65,-107,4000,-2284,-5883
-56,73,115,6900,-3653,-4671
33,-63,-76,6162,-3186,-3053
126,26,53,6736,-2721,-3288
84,6,113,3990,854,-5350
-123,114,-18,8477,807,-4075
106,-47,-14,-6032,4182,964
109,98,29,-368,-1388,192
109,-77,-51,-1974,508,831
-41,76,44,-1483,1386,-414
-106,79,18,-3476,120,913
-45,-73,-35,-7334,694,869
-41,-31,-52,-9595,941,1953
-75,84,-31,-11334,346,1534
-95,36,5,-9516,1149,2147
95,-16,12,-6944,-387,3837
-109,93,74,-4291,-1097,5044
-73,4,-90,-3262,506,3478
38,63,-47,-1413,-457,2929
-127,24,-12,1173,-357,2472
-111,102,-14,-239,-441,2000
80,65,78,108,-338,2034
-13,24,35,241,189,664
-78,-24,5,807,483,389
-104,-41,-36,38,699,34
-107,91,-57,1568,903,-96
-90,102,-70,291,1196,-632
-92,73,-60,-465,846,-553
-87,10,-49,-579,558,-339
-79,4,-41,-491,669,-210
-62,5,-65,-501,786,-223
-49,30,-67,-1091,556,-173
-64,0,-78,-250,620,117
-56,19,-84,-393,625,132
-49,64,-92,-1191,449,139
-51,52,-91,-440,454,382
-46,79,-94,-523,529,232
-46,94,-91,-711,442,213
-48,104,-90,-811,500,147
-51,103,-86,-681,398,40
-44,96,-82,-430,492,104
-43,107,-89,-638,555,42
-46,105,-90,-619,529,35
-42,100,-94,-530,563,95
-48,116,-97,-727,482,150
-42,127,-100,-719,515,123
-36,-121,-98,-617,512,89
-35,-118,-105,-572,474,43
-40,-119,-100,-605,450,80
-74,51,106,5082,-1228,-4424
-17,50,-60,4957,-2834,-5951
99,99,30,4252,-3075,-5465
57,75,86,4732,-3124,-4000
-6,-1,41,7829,-3522,-2880
-71,-94,-79,5809,-320,-3844
127,-26,21,8861,2316,-5741
23,-21,81,-2592,3316,569
110,101,-29,-4190,155,133
89,39,95,375,218,148
107,76,47,-2890,74,642
-116,73,11,-5676,1022,687
-101,64,-31,-8200,594,388
-48,4,-48,-11254,1467,1771
-108,59,24,-10943,1108,1494
116,-76,-66,-7327,1172,3200
124,-57,76,-5012,-235,3707
-20,98,-127,-4962,-589,3766
75,104,-9,-1444,-1095,3109
-104,-110,103,-852,-741,2778
-122,-121,113,-59,-966,2549
116,-116,-106,149,-1101,2114
-2,63,108,1690,-949,1103
-52,21,24,1629,58,337
-102,-26,-4,1134,913,-133
-128,-106,-38,489,929,-492
123,104,-44,70,611,-256
-115,58,-45,-369,950,-371
-56,29,-69,-639,1099,-403
-80,31,-71,-549,487,-251
-94,14,-75,-465,535,-201
-64,44,-87,-1066,712,-259
-65,56,-105,-681,505,128
-54,79,-94,-890,418,40
-53,99,-103,-833,589,-159
-51,89,-108,-611,693,-232
-50,68,-117,-297,723,-121
-59,84,-122,-725,443,178
-47,91,-106,-573,308,284
-32,110,-93,-622,442,206
-32,115,-91,-630,497,135
-41,108,-93,-361,454,210
-57,126,-104,-394,433,265
-44,-126,-106,-517,413,229
-28,-108,-92,-784,421,183
-46,-118,-89,-474,534,166
-45,-101,-94,-719,615,90
-34,-100,-100,-754,490,152
-40,-94,-101,-531,572,58
-31,-97,-107,-466,692,-137
29,53,101,-1418,2423,-4315
41,-124,-117,2080,-266,-4139
-59,-6,26,5197,-482,-5247
92,83,55,6574,-2890,-4726
91,103,66,7836,-3339,-3484
74,112,91,7767,-2300,-2434
-121,-117,99,6546,-1215,-2469
-74,-3,9,6967,4145,-6857
42,3,-12,-3478,2062,983
-86,65,96,-3057,655,-34
77,48,63,-1091,-766,1022
-68,47,27,-1793,957,-4
-84,40,-27,-5692,50,1634
-71,73,-62,-9237,51,1395
-51,-18,-34,-10431,659,2564
61,93,36,-10063,253,2549
58,80,-10,-6338,758,4259
31,126,74,-3848,-196,4689
124,-3,126,-2927,578,4658
1,84,114,-1300,616,3366
-114,115,-11,312,-201,3164
-114,77,-42,749,1175,2496
99,78,14,-267,285,1583
7,-13,33,1675,-682,1935
-37,-6,8,210,104,988
-72,-48,-4,437,105,-11
-122,-122,-9,-223,1033,-917
-128,34,-53,202,1553,-872
-121,35,-57,-257,819,-502
-96,-2,-56,371,416,-51
-95,-29,-39,1197,-79,-293
-53,38,-54,-1652,1120,-796
-55,-6,-78,-1542,1005,-663
-51,-45,-76,-177,356,-46
-53,7,-66,-885,415,175
-50,26,-83,-840,563,72
-53,25,-85,-539,414,79
-55,30,-82,-362,662,469
-49,63,-99,-638,427,465
-56,79,-85,-611,263,496
-44,103,-89,-969,569,375
-51,112,-88,-954,474,251
-61,115,-90,-426,325,273
-58,112,-85,-194,436,148
-50,119,-95,-660,617,-103
-41,115,-100,-801,513,-110
-50,102,-101,-515,450,-101
-48,102,-102,-615,556,-75
-43,103,-103,-666,526,12
-45,107,-102,-537,482,56
59,59,2,-10658,183,450
118,-87,55,-2984,1089,-448
-90,68,-51,7191,449,-2509
18,40,83,6745,516,-7651
103,82,107,7245,-1385,-7006
98,8,-30,7979,-4476,-4631
14,49,-10,8465,-4730,-2628
95,1,-10,8251,-2722,-2855
19,-83,45,5721,1278,-4077
-86,-34,-4,-1407,1492,150
124,117,-70,-2685,1636,210
31,45,98,-283,182,161
18,122,70,-1775,708,96
67,33,13,-1305,1220,-454
48,80,27,-2502,383,424
117,121,39,-6135,990,331
-94,59,-58,-9614,1360,1349
-72,-48,12,-10405,1561,1722
-103,79,34,-11463,1806,2804
67,90,-67,-6251,572,4203
-108,-17,68,-6130,-421,4701
-23,79,-113,-4591,-1035,3776
115,119,75,-1135,-942,2789
-124,77,72,1434,-1281,2200
-110,125,67,768,-850,2051
10,99,70,49,-420,1266
-58,45,68,690,-183,550
-102,9,23,885,398,68
115,-62,-14,765,993,-551
106,-103,-17,140,1024,-556
119,101,-40,-214,1146,-470
-121,91,-75,-714,869,-602
-97,70,-70,-704,992,-322
-71,73,-103,-930,1130,-491
-65,78,-115,-511,601,-392
-60,104,116,-1356,289,-299
-82,69,-123,-546,252,71
-76,90,123,-474,828,129
-68,-127,-122,-796,413,108
-69,104,-105,-153,140,419
-65,-106,-96,-609,213,327
-85,118,-90,258,214,272
-71,-120,-97,-194,543,236
-68,-125,-97,-247,435,204
-66,124,-103,-148,411,40
-67,120,-104,-446,541,94
-71,121,-112,-850,678,42
-70,100,-113,-196,516,91
-65,117,-122,-509,439,225
-63,-124,-115,-717,468,261
84,-118,-82,4565,-2001,-2023
-49,-73,-108,5330,-301,-4505
80,-113,88,4542,-3425,-5471
-71,-16,-13,5241,-4370,-5150
41,-14,108,5400,-3925,-3244
81,111,-122,4933,-2082,-2578
-69,91,46,4294,-376,-2659
60,116,-88,3662,704,-3704
-47,95,39,4233,2312,-3754
-26,-109,85,-5005,686,2261
-67,-4,-18,-647,712,50
-125,68,-70,-1730,-379,962
-66,53,-62,-4992,496,1502
-59,64,-94,-7603,873,1886
-54,-38,32,-9290,1251,2389
-99,65,95,-11461,-394,2347
44,110,-58,-8771,-251,5016
-6,42,19,-4493,1533,4571
-128,68,-62,-3177,263,3940
56,122,-20,-1087,459,3257
-126,-90,0,1274,-727,3081
-122,-125,-6,1572,-203,2466
86,124,36,-73,116,2097
-1,31,6,933,1085,1171
-48,-29,18,921,451,707
-103,-71,-40,501,588,165
-105,-128,-36,-95,624,-404
-92,54,-67,50,1005,-573
-69,10,-66,-342,771,-486
-75,-3,-64,-425,370,-282
-70,-13,-57,-792,440,-232
-63,-8,-67,-905,496,-228
-58,-12,-73,-612,531,18
-53,20,-84,-1004,451,2
-57,27,-82,-679,355,100
-60,39,-86,-669,525,187
-61,68,-95,-811,474,196
-48,89,-102,-805,403,116
-52,96,-90,-590,330,320
-66,95,-89,-325,609,166
-63,121,-102,-856,497,-25
-60,108,-103,-791,599,19
-40,122,-109,-783,495,-67
-48,106,-108,-278,473,-211
-43,95,-120,-491,732,-73
-40,103,-125,-722,485,174
-49,118,-114,-604,317,295
-38,127,-111,-526,594,184
-53,-119,-98,-661,485,232
-47,-90,-105,-884,505,58
-73,-95,-59,-5255,-2894,-64
-30,63,-36,1483,-229,-1930
120,-109,103,2609,1195,-5031
-24,-48,-6,5762,-730,-5336
59,62,54,5501,-2092,-4641
18,66,42,6560,-3567,-3518
40,85,-87,6766,-3283,-2448
-112,-4,-108,6077,-2345,-3309
65,-116,-77,7053,-365,-5390
99,-63,-14,4517,1459,-2521
-37,82,71,-7610,510,2073
-83,-86,44,1290,-103,-16
-123,-91,95,-2362,1273,346
112,-5,-37,-913,213,416
-109,94,3,-4707,1449,1208
-78,71,-99,-9765,1972,2247
-102,-1,-14,-11804,1096,2731
-97,55,44,-12605,1220,2822
24,120,125,-9056,92,3804
32,68,5,-4867,-1098,5306
114,-25,126,-1813,-835,4172
2,-1,-78,1986,-1404,3857
65,-105,-88,-1411,-434,2934
37,-8,-86,-525,474,2044
79,68,-38,-282,-15,1246
62,16,12,489,839,895
-18,43,2,275,455,359
-97,-46,-12,935,286,-168
-127,-125,-48,1137,706,-597
117,119,-71,-228,1041,-463
-119,87,-81,-546,756,-191
-111,52,-86,-239,622,-341
-88,45,-99,-531,750,-352
-96,32,-104,-539,590,-258
-102,25,-117,-337,617,-137
-89,55,-119,-1013,633,-26
-80,58,124,-579,467,192
-85,82,-118,-331,228,238
-96,118,-107,-572,526,190
-60,126,-111,-910,575,29
-55,110,-104,-540,416,-30
-62,101,-118,-579,684,-174
-62,100,-123,-790,547,-132
-81,90,-121,-536,447,75
-72,99,-125,-531,607,224
-61,-126,122,-777,430,182
-58,-128,-124,-491,412,274
-65,-114,-122,-516,454,291
-62,-86,-123,-837,393,218
-57,-93,-117,-675,537,109
-32,-97,-2,5371,-1954,-4373
123,-97,45,4804,-3339,-5138
-23,110,5,6976,-4732,-4064
-19,-8,-99,6613,-3616,-3567
81,122,-108,7531,-2852,-3675
70,104,14,3682,-171,-4405
73,-89,-76,10147,-1794,-5057
127,80,-107,-11287,4100,2399
113,118,33,2156,-1646,615
-83,88,109,-2091,1247,164
-120,80,96,-1505,1153,241
-93,19,-6,-1958,1610,196
-86,85,-69,-6765,603,1992
-60,62,-93,-10377,1917,2221
-110,84,-54,-12184,1695,2097
110,33,-15,-10761,1643,2806
90,12,-71,-8634,23,3669
-107,80,72,-3252,-672,3513
-14,67,-29,-3632,-148,3434
65,63,-17,-852,-260,2491
117,61,20,1222,-1128,3032
-97,76,-9,981,-291,2807
83,67,59,276,-762,2684
8,93,57,-1107,-839,1574
-60,2,54,683,-68,232
-110,-43,18,708,740,-618
116,-104,-17,178,1118,-579
117,99,-46,10,954,-620
-122,60,-67,-413,853,-509
-94,46,-90,-891,956,-623
-88,26,-88,-658,673,-412
-65,26,-105,-910,812,-282
-74,35,-106,-645,575,-145
-66,44,-114,-532,628,-81
-53,73,-114,-687,519,105
-55,103,-111,-710,305,83
-76,91,-95,-199,416,290
-74,-123,-99,-867,484,164
-57,124,-96,-524,402,110
-62,-128,-88,-480,376,162
-63,-117,-98,-769,576,-50
-49,126,-104,-569,617,-85
-58,118,-106,-334,454,81
-58,125,-107,-585,486,192
-58,-106,-116,-736,471,73
-57,-118,-103,-417,490,180
-44,-97,-111,-653,436,127
-42,-97,-107,-679,475,68
-52,-92,-106,-829,478,38
-49,-105,-104,-556,575,120
-124,66,14,-3365,2938,-2968
-17,-88,1,2341,-2920,-1025
-82,23,103,4742,-1799,-3805
-25,69,110,7164,-1773,-7329
88,82,107,7275,-3011,-5233
41,13,27,9183,-2937,-3740
-95,87,-19,8108,-2268,-3362
-98,-37,-53,7157,1743,-6727
-114,11,79,2039,2823,-2861
-50,84,-127,-7469,185,2593
-98,87,-86,1551,-411,234
-41,-126,-97,-1602,2074,-624
-125,114,44,-1776,-88,275
-6,32,22,-1337,1458,181
-38,118,11,-6934,120,1871
1,-9,-43,-8607,786,2452
-24,28,-90,-9385,-639,2186
-81,89,-38,-10888,1609,2582
58,-99,-81,-10598,1607,3046
51,6,-31,-7034,176,4786
98,-113,86,-4616,-910,4635
93,98,40,-1644,-2327,3040
-104,-76,-109,2111,-760,3024
-34,-102,4,-471,786,1770
86,37,127,634,-984,1674
16,-30,86,1411,-165,1304
-88,19,2,298,11,-65
-112,-103,-20,1028,827,-369
-120,115,-32,340,1306,-611
-106,69,-69,90,963,-552
-101,62,-48,-704,673,-447
-81,24,-72,-532,918,-360
-76,33,-84,-562,496,-377
-66,35,-93,-675,588,-286
-52,33,-89,-773,594,-107
-50,59,-99,-706,366,-24
-63,50,-83,-339,228,122
-56,74,-92,-807,765,7
-58,89,-101,-804,186,-193
-51,95,-94,-710,434,305
-45,90,-83,-532,795,270
-56,126,-93,-653,453,81
-53,118,-86,-591,431,120
-45,114,-94,-343,573,273
-46,-114,-95,-610,476,150
-46,-112,-99,-690,419,119
-50,-119,-92,-397,399,139
-43,-110,-101,-573,725,-21
-42,-124,-106,-452,532,2
-41,-109,-111,-755,368,134
5,-56,-115,6689,1618,-6058
76,63,-93,7058,-619,-6857
-62,-63,52,6448,-3055,-4927
9,97,55,8167,-4923,-3734
75,61,5,6955,-4483,-2029
-71,-67,-62,3622,-1657,-3083
26,-34,-27,6470,1648,-4289
-1,39,34,-580,4695,-817
108,114,119,-2565,796,411
-126,-13,90,-320,858,31
54,104,99,-2013,-67,941
-122,42,44,-688,1638,-540
124,81,-28,-2127,278,398
-96,124,26,-5755,776,381
-54,69,21,-12294,1967,1046
-54,11,-119,-15115,715,1988
115,-31,84,-11128,832,2620
122,-31,49,-6957,-2074,4096
119,-80,-86,-3466,-1017,3670
-4,33,-10,-1867,-190,3056
70,-50,8,-3270,-2073,2982
72,53,57,-408,-1944,2879
100,53,84,515,-1137,1730
91,90,63,642,-123,1295
-35,80,56,1082,-702,292
-95,9,-3,1378,711,-374
94,-115,-96,1598,1672,-1070
125,-80,-76,136,1159,-265
127,121,-62,-219,760,-133
-119,83,-79,-193,681,-218
-106,82,-81,-592,753,-207
-92,75,-93,-601,854,-213
-101,53,-97,-8,553,-188
-83,66,-109,-445,832,10
-73,88,-128,-872,668,-171
-75,81,-116,-409,485,113
-59,109,-126,-862,518,-72
-57,100,-112,-630,396,68
-68,105,-109,-578,364,108
-74,121,-98,-686,352,130
-65,-127,-105,-561,495,53
-68,-113,-103,-725,389,94
-64,-119,-100,-494,545,114
-64,-104,-116,-579,535,152
-69,-97,-114,-599,408,28
-60,-104,-116,-489,548,95
-52,-93,-118,-650,559,23
-52,-106,-117,-542,520,24
-48,-105,-118,-511,508,82
-53,-93,-121,-692,456,109
-15,100,-37,4839,308,-3013
-126,26,-50,7343,-824,-7293
-52,-114,55,6481,-3616,-6088
92,-107,-127,6578,-1833,-5104
56,-71,103,9875,-3233,-2746
-36,71,-41,8455,-370,-3754
77,-8,43,7516,832,-5518
117,-104,65,-5153,3632,2571
-51,104,-116,-1410,-393,-341
-89,-113,-72,-662,123,812
-67,-61,-127,-1524,1194,-424
-65,-119,57,-1655,670,43
-48,-70,40,-4133,166,226
-15,-53,49,-8372,1464,9
11,-121,-105,-9927,2056,29
19,104,-98,-13261,2191,-410
12,-113,-65,-12543,653,711
14,10,-13,-8522,-664,2129
39,-60,-85,-4153,-1423,1901
92,-34,95,440,-1597,2397
118,87,19,-1216,-589,2002
85,81,118,-631,-1820,1957
103,-12,41,1004,624,1885
62,7,-27,821,-109,1621
-18,-14,29,-261,-599,1877
-40,-25,31,-942,-234,1136
-77,-82,31,-94,31,396
-91,-99,21,88,696,-93
-92,-125,-16,-411,1032,-352
-115,45,0,837,656,-146
-71,54,-45,191,1062,-222
-64,95,-61,-1365,1041,-566
-48,43,-89,-686,861,-429
-41,62,-85,-750,669,-287
-32,70,-99,-914,716,-168
-35,65,-102,-730,550,-128
-24,85,-99,-992,508,10
-32,99,-91,-936,243,57
-38,94,-75,-552,476,56
-19,121,-76,-909,555,174
-26,-120,-81,-751,400,139
-31,-111,-81,-587,489,210
-29,-112,-89,-554,579,126
-23,-104,-91,-762,511,135
-32,-97,-81,-719,421,259
-29,-91,-83,-642,429,266
-27,-67,-78,-896,298,201
-33,-77,-71,-441,454,214
-26,-62,-77,-703,601,12
-15,-73,-79,-473,789,-50
125,-79,11,-5947,-1634,-494
-120,91,-4,5985,687,-2638
-122,-24,62,5562,-1232,-5278
-32,-105,-123,4021,-2139,-6299
45,115,-104,6251,-2968,-5535
24,-101,-63,8696,-3083,-4098
98,-124,16,8095,-4187,-2939
84,-22,43,3733,-1197,-3993
-96,101,81,6202,1053,-4457
-106,75,36,-3677,3563,347
-92,77,8,-1547,-1981,819
-40,-90,-105,-1451,1072,525
-90,118,2,-1240,778,-209
-75,70,-28,-429,640,-393
-78,118,-41,-2496,502,731
-40,-123,-75,-5903,805,1330
-15,79,-76,-8713,99,2241
67,-3,61,-9470,857,2046
-28,22,0,-9925,-119,2844
83,89,68,-7923,436,4898
72,22,69,-6747,845,4552
-74,-36,-103,-5101,-279,4371
62,41,73,-432,-1234,3946
-114,38,21,2032,273,3176
-93,-73,16,-1727,284,2474
39,76,63,-470,-571,1882
-5,8,61,1060,179,-169
-86,-16,27,754,829,-47
-103,-98,-25,115,1453,-163
127,-118,-33,-247,436,-163
-96,80,-45,-163,540,-82
-93,61,-62,-596,715,-341
-83,58,-62,-708,670,-218
-73,46,-77,-633,577,-188
-74,-10,-71,258,605,-70
-40,55,-100,-1124,774,-105
-75,52,-92,-953,172,125
-71,73,-91,-722,390,333
-66,86,-93,-455,405,214
-66,81,-77,-328,186,494
-65,-106,-93,-1392,53,135
-68,95,-95,-377,646,-58
-65,112,-104,-538,990,-155
-58,112,-104,-550,538,-48
-53,113,-112,-573,431,119
-62,119,-110,-705,440,119
-65,126,-107,-764,457,164
-59,-112,-101,-810,411,186
-53,-111,-98,-442,484,146
-49,-102,-103,-656,602,9
34,-20,-100,1451,2809,-5464
99,56,-4,3940,-584,-5508
-26,59,43,4896,-2448,-5180
-99,14,105,7016,-3000,-4351
-108,-6,38,9924,-2893,-3303
3,80,-60,9430,-3034,-4366
-58,-100,-36,7691,294,-5521
-83,-87,-66,-1781,2579,-1001
-116,8,-97,-5597,-4182,3676
19,-105,-33,878,2130,-1126
-73,106,-8,-2590,522,1241
-67,119,31,-2876,1026,522
4,113,-4,-6524,2332,1712
-51,-102,118,-12531,1075,2604
-14,-1,-86,-13021,1324,2839
-118,60,-115,-11149,122,3390
111,-100,-25,-5033,-1125,4703
-97,-91,100,-4211,-1158,4702
30,50,-47,-1830,-302,3728
-119,-96,-5,-1370,195,2602
114,53,10,914,-890,2251
126,44,52,1761,-98,2204
49,26,16,1882,535,1159
-15,62,29,412,191,950
-99,-35,-5,183,170,-108
-118,-122,-8,64,682,-434
-125,52,-27,-51,1049,-512
-97,57,-48,-767,881,-389
-83,22,-48,-379,892,-304
-66,32,-74,-736,718,-410
-59,25,-75,-960,728,-273
-57,26,-76,-588,562,-89
-43,44,-93,-728,604,-143
-40,58,-94,-859,578,-98
-47,56,-103,-741,444,2
-52,68,-102,-905,489,175
-50,78,-105,-571,404,292
-51,108,-95,-761,195,230
-41,118,-92,-815,594,173
-47,-127,-91,-785,449,153
-49,-125,-86,-649,414,151
-46,-122,-93,-619,586,135
-45,-106,-97,-965,503,74
-44,-113,-94,-764,553,138
-38,-105,-95,-590,447,168
-33,-94,-101,-607,586,17
-33,-91,-106,-680,591,10
-39,-103,-102,-517,460,148
-30,-84,-110,-805,484,47
-27,-85,-108,-812,582,16
122,19,-109,4661,949,-5141
-10,-56,-69,5747,-1103,-5864
124,68,63,5104,-2294,-5466
15,-64,-113,7469,-3368,-4500
85,36,12,9252,-3136,-4036
4,-39,-6,5692,-1661,-4346
-71,2,-75,8596,-544,-5682
-93,-71,-94,-2341,2496,-173
7,-79,26,-2382,453,837
-86,-101,46,-1408,-83,840
-43,118,48,-1180,1331,-206
-78,89,-45,-1751,630,780
-56,110,2,-3398,1292,987
-33,-43,-68,-8251,1623,1222
-14,-70,-17,-17329,1088,1184
-63,-26,22,-13334,-1635,2147
-75,81,22,-4129,-1401,4738
-86,-90,75,-6724,-96,3485
-82,-52,117,-4259,-1258,4114
-33,86,-89,-4704,-1654,3801
86,-101,77,-3245,-1986,3231
-127,85,70,541,-1659,1703
-113,17,-90,2059,-1286,1655
64,102,55,998,-295,1152
-50,28,45,2282,-271,559
-111,-23,-5,1929,314,-318
120,-90,-35,1169,1228,-588
113,101,-39,843,1318,-571
107,27,-44,1907,674,-270
-92,61,-18,-1224,957,-516
-69,27,-71,-1725,1178,-786
-62,-40,-68,-98,871,-528
-51,12,-88,-974,856,-374
-59,12,-98,-817,510,-169
-52,1,-92,-375,473,102
-46,64,-109,-1245,482,91
-61,43,-95,-440,264,247
-48,44,-104,38,457,306
-47,99,-96,-1074,354,210
-58,79,-94,-614,395,264
-56,90,-92,-656,422,246
-62,100,-88,-658,381,400
-65,113,-90,-672,438,270
-59,112,-85,-421,414,305
-47,-120,-90,-633,470,134
-50,-123,-94,-539,537,-46
-48,125,-102,-580,608,-100
-52,116,-105,-419,548,-56
-49,109,-113,-401,534,-36
-45,125,-112,-870,507,25
39,-40,-104,4234,-2455,-4727
-77,12,-13,4963,-3502,-5164
99,60,-3,5324,-4058,-4342
60,-114,-95,5883,-5002,-2928
-96,68,-54,6692,-2490,-4207
58,-19,-103,2828,19,-4186
47,-22,55,4901,-936,-4279
118,-47,-109,-1241,1241,-363
4,90,20,-2034,-62,1408
-28,-117,53,-757,851,245
-98,-75,34,-1762,785,445
-45,102,-21,-965,982,263
-47,-114,-35,-4736,499,1912
-44,-66,-31,-9838,1962,2462
-73,-35,-108,-10466,1736,2641
-79,62,-84,-13560,1240,4419
57,-127,111,-9889,175,4299
125,-7,3,-5302,-167,4243
-35,-11,-93,-3760,-860,3986
45,126,-37,-2932,-1000,3581
40,102,25,4024,-264,2472
10,-41,-63,-667,1716,2305
51,-78,56,-298,-2039,1448
-24,23,97,860,-257,885
-63,9,24,441,969,37
-115,-59,-20,361,871,-527
-123,-111,-12,-89,976,-306
-105,100,-15,87,354,-323
-87,76,-34,-28,956,-405
-68,89,-66,-796,753,-728
-71,34,-65,-339,893,-371
-49,48,-107,-549,1106,-411
-36,50,-117,-463,639,-388
-32,61,-115,-1007,490,-145
-33,52,-113,-667,679,73
-52,66,-97,-699,716,229
-57,95,-89,-526,73,517
-43,125,-88,-964,-25,570
-38,-116,-86,-727,370,462
-39,-109,-92,-353,308,106
-45,-111,-94,-482,494,-10
-48,-110,-85,-620,397,-31
-55,104,-75,-125,537,85
-53,-119,-87,-841,568,88
-43,125,-103,-584,652,-68
-42,118,-101,-521,549,174
-47,-119,-110,-845,486,216
-47,-111,-105,-691,556,176
-28,-109,-117,-528,637,150
-34,-95,-120,-645,341,75
63,73,-4,-4458,-1623,2805
-82,120,-2,6824,1877,-5190
123,-32,30,6529,-1902,-6710
33,102,67,6672,-3204,-6893
-40,66,-37,6440,-4476,-5423
-43,78,-116,8558,-4384,-4086
28,-107,-1,5486,-2413,-2124
94,-26,-11,4080,-550,-3400
101,77,-1,2311,151,-1616
101,86,85,-2740,3686,-258
-60,58,-60,-2705,-1267,1908
-65,76,37,-2030,913,732
-76,103,-11,-4206,832,1254
-84,112,-69,-7577,1939,1811
-65,49,70,-9467,1780,3167
-128,58,-101,-9952,2268,3447
92,112,3,-7991,1799,4464
84,-21,36,-4432,467,4455
-28,-65,46,-4170,1221,3212
20,26,-102,-3689,354,3054
74,19,-77,-992,-210,2557
91,8,-72,552,-500,1926
75,18,60,1491,-465,2380
37,82,3,-265,900,1204
-37,-21,59,1496,555,1139
-65,-48,-6,216,631,115
-119,-73,-13,-239,202,50
-128,55,-28,744,649,-210
-100,77,-52,-1043,973,-655
-86,4,-63,-570,760,-322
-93,-1,-60,-737,366,-163
-66,-6,-70,-841,658,-279
-64,-12,-90,-638,888,-305
-71,2,-96,-878,490,-7
-64,11,-102,-532,375,236
-66,32,-100,-549,418,164
-63,72,-106,-1019,590,81
-63,59,-103,-462,466,171
-60,71,-104,-394,473,78
-60,74,-103,-550,441,88
-63,86,-110,-929,462,111
-64,74,-105,-516,473,143
-45,97,-106,-680,544,189
-54,119,-105,-964,384,58
-62,102,-103,-578,581,129
-61,116,-108,-585,501,134
-57,-127,-116,-790,511,80
-50,-121,-117,-838,573,87
-51,-123,-121,-688,553,25
-40,-112,-125,-863,613,-39
79,9,77,4210,12,-4372
-12,-42,-100,4745,-1070,-5491
-112,-50,58,6898,-2740,-4564
92,-49,33,8006,-4397,-3379
117,71,-7,7227,-4282,-2026
0,-83,-68,4615,-1438,-3851
87,-31,-46,5770,-1210,-4154
103,-40,53,1877,1654,-2030
50,-77,-95,-6503,1588,1792
-93,-106,-91,-753,-56,327
-39,81,91,-1634,1639,-9
-91,91,5,-4249,409,1183
-65,-94,89,-7988,2920,1396
-72,79,113,-8202,2301,621
-52,-18,54,-7750,2367,2247
-34,-17,25,-12488,2032,2097
-114,107,-48,-6107,819,3470
-40,-42,86,-7747,-535,4082
-15,59,25,-5539,485,2860
10,31,18,-1132,-1450,2493
85,34,-3,912,-29,2318
79,126,57,-164,-1007,1635
8,-7,38,2101,27,1570
-40,21,22,1147,139,857
-77,-53,-12,1340,183,316
-112,-74,-10,85,350,-366
126,68,-26,491,981,-422
-110,91,-51,-1138,1078,-599
-96,48,-54,-635,634,-281
-79,24,-79,-643,728,-484
-67,24,-85,-735,900,-387
-42,6,-104,-462,852,-265
-55,14,-98,-483,456,-20
-49,22,-106,-611,564,135
-66,52,-103,-875,286,320
-53,65,-101,-655,474,246
-46,65,-95,-261,344,262
-48,119,-100,-1481,450,40
-65,86,-94,-460,481,168
-50,89,-109,-424,640,137
-49,127,-119,-1291,354,212
-62,112,-109,-440,278,375
-48,-122,-107,-458,534,88
-44,-111,-110,-1010,596,-37
-53,121,-108,-494,393,191
-54,-112,-99,-754,503,-5
-42,125,-113,-453,747,-10
-46,-116,-118,-779,486,80
-47,-115,-117,-718,572,142
-41,-103,-120,-449,552,81
-10,67,108,3036,1497,-4299
31,-94,-87,6798,-2292,-6296
-84,-68,36,6892,-2967,-6258
79,88,-107,7856,-3852,-4174
122,46,122,7865,-2901,-2705
-28,-51,49,4759,-2071,-3096
-93,21,-16,8343,382,-5878
-90,-15,-14,-4203,3026,432
-11,115,78,-910,-522,852
-44,-70,-114,-936,801,543
-98,-83,104,-2274,496,699
-60,119,13,-1154,1189,0
-71,-80,5,-3390,160,1232
-26,7,4,-8704,2039,1628
-61,-44,126,-11375,1397,1137
9,68,-125,-11711,1023,1480
-71,-94,39,-6819,1872,3195
-71,-109,76,-5242,220,4248
-27,84,49,-4712,691,4360
12,17,84,-5373,-428,4184
24,34,-126,-3932,-1665,3729
97,12,2,-1160,-1433,3923
78,47,83,-432,-1311,2570
57,75,33,819,509,666
-59,28,41,1216,257,-555
-116,-48,-30,914,1322,-1045
109,122,-67,758,1532,-1040
125,107,-87,-319,1235,-730
-120,59,-78,135,722,-288
-92,62,-94,-685,773,-422
-95,43,-85,-572,483,-241
-83,46,-100,-792,738,-257
-72,64,-105,-1031,630,-183
-69,52,-114,-428,530,-1
-73,80,-115,-792,438,37
-66,86,-117,-798,497,135
-64,100,-122,-550,301,238
-70,92,-107,-342,414,351
-62,-117,-123,-1188,570,188
-65,-126,-109,-852,402,242
-68,-127,-112,-573,657,173
-57,-109,-109,-899,517,143
-63,-121,-109,-445,394,228
-51,-103,-119,-751,562,27
-46,-113,-112,-509,584,-19
-54,-102,-122,-619,718,-38
-56,-111,-116,-561,622,88
-45,-111,-120,-297,613,147
-43,-75,-122,-823,417,126
-48,-90,-106,-605,432,86
73,-77,-59,5117,-1129,-1966
100,42,-24,5875,-602,-5888
-29,37,32,7215,-3823,-5540
121,22,22,6786,-4441,-4904
95,-55,-105,9219,-3848,-3622
21,-70,17,7447,-1641,-4931
-102,120,-81,8042,-820,-5071
-68,37,24,-5481,3483,803
-20,85,119,-439,-217,805
-71,-17,-66,-1121,1091,150
-72,123,64,-1389,555,348
-65,119,46,-1463,1059,145
-53,-118,-6,-2504,511,841
-42,-23,16,-6704,1474,983
-11,-101,-31,-10257,1860,1956
-41,-118,41,-10856,1475,811
-51,33,-110,-9907,2276,2152
-41,-126,-2,-8824,1945,3748
-58,62,0,-7216,-699,4095
16,3,93,-4958,-185,3408
-128,73,-6,-2417,-1185,2212
101,0,59,592,-1539,2218
111,105,75,-393,-1263,1972
21,70,90,-133,-495,1430
-47,-10,73,902,135,601
-76,19,11,-394,974,-140
-116,-58,8,396,573,-283
-118,-125,-29,132,1101,-357
-105,109,-54,-467,1093,-489
-91,110,-77,-931,831,-325
-67,100,-88,-814,718,-252
-53,90,-99,-89,486,-558
-49,54,-118,-405,974,-472
-68,76,125,-778,711,-85
-60,64,124,-395,383,202
-47,111,-118,-1006,315,214
-56,112,-106,-454,329,323
-53,-103,-100,-939,297,299
-59,-109,-96,-692,399,231
-53,-94,-97,-592,389,217
-58,-102,-92,-105,415,187
-48,-90,-100,-611,592,-82
-46,-101,-114,-841,705,-186
-52,-127,-117,-194,551,55
-48,-113,-123,-603,562,96
-45,-108,-118,-703,453,159
-51,-93,-116,-764,368,171
-47,-92,-107,-654,526,154
-39,-79,-111,-641,507,98
-42,-74,-113,-689,492,-18
61,-12,106,4927,-680,-2927
117,-92,-31,6385,142,-5694
-5,-48,47,6393,-3491,-4450
-64,36,15,5494,-3748,-3817
-108,-22,39,7579,-3446,-2784
-42,24,-59,8045,-3517,-3747
-113,51,125,3721,-553,-5073
-76,56,-108,3929,1458,-3771
37,13,22,-3705,510,2236
-24,-125,6,-776,-65,873
-30,-61,11,-1094,1074,136
-41,-95,-25,-1160,892,269
-47,-83,-43,-2053,454,500
15,-62,3,-3255,1878,905
-21,-24,-34,-7546,1662,1844
38,-82,-28,-12329,3175,3157
-66,-120,-91,-12647,2745,4246
-92,29,33,-9677,1767,4010
-65,-32,80,-6470,-329,4744
27,98,97,-3829,251,3760
125,4,-56,-3432,-285,3362
-117,-31,-41,-410,103,2464
-124,29,66,829,-1163,1617
102,70,69,397,817,503
8,64,90,589,632,652
-108,-27,24,827,92,289
-118,-65,33,-342,79,233
126,115,-9,-501,741,-315
-115,71,-46,-55,1030,-394
-95,54,-61,-54,907,-451
-76,34,-89,-606,752,-476
-59,40,-93,-827,799,-371
-61,1,-97,-260,619,-282
-48,37,-102,-938,509,-77
-51,42,-96,-855,457,-3
-49,41,-99,-583,514,55
-54,72,-103,-805,381,218
-55,75,-89,-504,414,336
-54,98,-98,-681,441,278
-52,123,-96,-868,377,279
-51,109,-93,-440,460,275
-57,-121,-94,-728,416,231
-54,-118,-94,-687,509,189
-47,120,-91,-296,577,163
-49,-101,-103,-981,457,29
-47,125,-100,-596,689,30
-44,126,-114,-629,611,49
-40,-117,-114,-724,478,80
-40,-124,-116,-553,586,94
-35,-111,-120,-662,504,47
98,-73,34,5750,-561,-4137
24,27,80,6778,-1595,-5544
-113,-11,35,9259,-4569,-3527
-122,-85,104,7437,-4662,-2755
-50,58,121,9193,-4475,-2650
-110,121,37,4989,-2363,-3811
-11,-3,62,4609,-357,-2148
0,-68,9,-6896,1601,3012
-76,-114,107,1975,229,-552
-50,-99,115,-1802,1993,-45
-122,-118,45,-1986,290,546
-73,100,46,-633,1153,-163
-70,16,53,-4902,1917,661
-17,-34,68,-8269,2615,612
7,-73,-98,-11120,3098,1470
-14,-44,-108,-10266,3463,1377
-55,61,100,-8639,430,3392
-43,-63,44,-6807,347,3726
-34,-121,81,-6057,1049,3673
-1,4,95,-5267,-66,3131
17,-31,-53,-603,-2006,3081
62,68,63,-1580,-540,2722
37,-67,58,-3453,-208,1146
-62,-2,109,1191,-367,817
-82,58,62,513,529,-209
-125,-35,-14,1332,962,-537
-119,-63,-69,26,1649,-858
-115,122,-90,-6,1129,-468
-102,91,-102,-141,576,-340
-73,85,-114,-597,842,-344
-73,53,121,-303,853,-310
-73,44,122,-242,661,5
-78,105,124,-1304,282,131
-70,88,-127,-475,406,348
-71,-126,-124,-629,254,238
-76,-122,-109,-475,259,243
-66,-107,-118,-603,491,178
-77,-104,-107,-406,269,100
-75,-126,-109,-427,571,118
-67,-95,-115,-951,469,40
-63,-121,-110,-392,511,45
-73,-108,-111,-644,477,31
-64,-115,-116,-686,704,50
-63,-102,-121,-674,469,114
-65,-103,-122,-546,541,116
-58,-85,-127,-672,595,55
-56,-80,122,-738,483,86
-52,-78,127,-690,509,82
-54,-69,123,-644,532,5
-45,-76,123,-622,475,47
24,-14,-15,2916,-1702,-3547
-90,-4,-111,4283,-1751,-5386
79,123,77,5303,-2858,-5091
11,101,47,6042,-3715,-4173
102,98,10,7980,-2298,-3575
-25,78,-125,7727,-2252,-3585
-24,97,-38,3153,464,-5329
-20,-39,-44,4247,832,-1614
-74,3,114,-3908,3099,125
-78,-115,41,-576,-1023,918
-19,-96,55,-2251,851,504
-41,-119,41,-1505,607,370
14,-122,15,-2560,571,1263
23,-36,-44,-8442,905,1984
44,124,-81,-9869,751,1513
-17,45,5,-10788,1253,1834
-61,23,78,-8784,1712,3284
-64,3,-2,-7716,635,4257
-75,-96,18,-6626,-836,4497
-16,-6,-79,-4188,-1160,4017
125,54,36,-1813,753,2471
99,-124,76,-2775,-1407,2196
110,-127,126,-1305,-1033,2025
35,34,-98,2991,-1641,876
-4,49,110,1426,214,205
-95,-10,-11,883,1323,-722
-116,107,-45,796,1705,-591
-99,94,-76,167,838,-257
-90,45,-66,59,464,139
-91,8,-64,1229,-1,137
-79,12,-56,-105,847,-188
-72,24,-64,-915,818,-145
-80,-18,-78,-292,367,107
-71,27,-79,-1299,452,153
-73,7,-85,-451,444,187
-73,46,-88,-823,321,105
-56,41,-98,-581,370,152
-36,60,-97,-754,276,165
-69,73,-89,-640,264,24
-81,55,-110,-592,707,-253
-66,52,-128,-737,621,-109
-79,51,114,-774,173,278
-91,103,112,-1367,196,261
-88,112,118,-839,264,193
-78,-125,118,-1023,330,110
-38,-111,117,-868,608,84
-36,-105,94,-486,614,-20
-73,-101,100,-543,403,-87
-93,-119,99,-433,660,-12
-82,-111,89,-605,650,154
-63,53,71,3901,-254,-4251
-15,93,-128,2681,-2320,-5358
-119,-60,92,7146,-3259,-5221
72,-3,-115,6010,-2764,-3845
-113,4,68,8466,-1835,-3092
-19,122,-40,6106,-1940,-2387
-90,-110,-41,7236,975,-5190
-80,-111,5,911,2848,-2990
71,123,126,-3499,1783,692
-62,92,90,-1011,-629,1286
-78,-60,-119,-1789,457,733
-18,-94,65,-1839,1138,156
-35,-105,38,-3513,359,1433
22,3,-18,-11415,2401,1699
-24,21,67,-14689,163,482
-4,-10,-86,-14348,-647,2117
-105,-12,13,-6858,-534,3925
124,6,85,-4594,-520,3706
-35,75,-76,-3877,-572,3968
96,-73,15,-3895,-1090,3860
104,-110,30,-2077,-988,2875
-110,103,-79,46,-1688,2372
-128,101,-114,-1021,-213,1920
36,119,-111,91,-531,592
-32,-13,69,2962,136,101
-62,54,-21,481,1075,-389
-81,-78,-39,112,1073,-599
-103,94,-91,511,926,-449
-92,88,-80,-386,545,-142
-76,79,-96,-827,534,-130
-74,82,-92,-780,448,-77
-73,67,-101,-122,408,6
-64,116,-109,-840,574,147
-50,123,-111,-800,489,2
-62,103,-107,55,256,111
-54,-121,-103,-762,589,-3
-62,-126,-112,-784,594,-19
-52,110,-113,-155,431,50
-47,-122,-117,-631,435,46
-67,-127,-111,-545,427,96
-62,116,-119,-273,596,110
-49,127,-119,-691,391,185
-53,-117,-110,-804,248,349
-54,-100,-103,-750,357,264
-53,-113,-106,-439,497,257
-52,-90,-116,-530,626,123
-43,-99,-125,-355,656,113
-45,-104,-123,-321,623,142
-48,-86,-117,-789,291,90
-48,-105,-114,-506,444,193
8,5,42,4891,-1042,-4168
-34,34,-107,7097,-955,-4765
110,-26,104,9835,-3871,-3263
126,51,-22,9678,-3503,-2796
36,116,10,9317,-3028,-3914
-93,-16,-79,6046,-968,-4405
-55,-82,6,-3826,3877,454
-73,115,108,-1110,-849,901
-56,-57,-91,-1440,1103,323
-70,96,92,-982,857,-41
-92,-120,60,-1430,1075,93
-56,95,-6,-1443,830,419
-42,-37,60,-4871,968,1048
52,-72,48,-7633,3388,1034
29,11,2,-11433,1045,2209
-31,-21,7,-12019,1636,3848
114,34,-9,-10022,1967,3911
115,21,23,-7937,-35,4700
-86,-83,-108,-3957,177,3688
85,-121,88,-2715,-378,2806
108,-3,48,2524,-338,2433
120,66,81,495,-878,2567
15,-95,61,-1792,-229,1310
-64,3,67,906,559,609
-96,-13,16,371,1129,-544
-99,-75,-35,196,1422,-669
-93,-122,-45,-232,1171,-719
-71,91,-52,-472,1179,-593
-47,114,-55,-1309,998,-683
-10,105,-59,-1376,1265,-650
-30,-127,-28,-1654,800,-259
-11,-91,-62,-2253,1540,-747
13,-37,-61,-2853,1827,-1113
25,2,-14,-2033,1430,-524
9,30,28,-1525,683,-366
11,56,27,-1353,715,-166
5,71,53,-987,467,-53
2,47,67,-51,356,53
4,69,67,-574,542,167
-1,64,54,-515,216,224
3,36,37,120,156,338
-16,-14,11,1684,-338,879
-20,-86,-51,2528,-834,1167
-47,57,-61,4406,-1712,1394
-47,24,-101,3399,-1506,775
-41,-122,-89,-1122,308,656
-67,-122,-90,-3204,973,-32
-75,77,-99,-2127,121,-391
-95,119,-100,-884,-420,515
-115,107,-96,-45,86,509
57,120,-125,6102,-541,-2299
68,39,19,3766,-143,-4638
-21,79,95,4965,-2098,-4924
-69,89,55,5961,-2066,-5292
-96,90,-85,8008,-4047,-2620
-58,0,19,5895,-4205,-1830
104,-84,-126,3360,1179,-3863
36,-120,-64,7149,605,-3273
106,-78,-74,-2535,3602,-936
-86,-100,-117,-933,-185,155
-57,-88,92,-1988,496,979
-40,-106,46,-400,961,-718
-55,-106,17,-1965,86,693
28,-101,7,-1943,1168,-313
0,-40,30,-9184,130,728
96,90,-69,-12781,691,123
51,11,-98,-12670,-934,848
0,14,29,-8364,-382,3474
-34,114,-126,-3707,-801,3440
-18,-48,-88,-4554,-496,4357
19,25,-77,-3608,-747,3939
68,17,-66,-748,-890,3026
-120,19,33,676,-904,3156
110,5,34,843,-315,2646
78,22,-6,497,614,2153
-32,12,12,-146,262,906
-114,-41,6,297,86,-266
116,85,-4,1139,965,-685
125,55,-51,-237,1590,-877
-117,15,-50,-205,868,-542
-103,-3,-65,-834,724,-439
-85,-30,-75,-682,726,-307
-67,-31,-91,-498,874,-307
-62,-8,-99,-824,608,-284
-59,-12,-107,-533,553,-3
-58,12,-110,-772,494,125
-58,36,-115,-980,391,63
-56,42,-106,-551,403,227
-61,64,-110,-601,387,182
-56,73,-102,-560,357,124
-57,75,-109,-707,456,34
-60,85,-102,-781,387,82
-57,82,-110,-579,555,107
-57,88,-107,-587,516,117
-62,94,-107,-694,417,71
-55,95,-111,-710,587,162
-54,109,-117,-622,489,126
-58,111,-117,-518,497,101
-52,111,-125,-626,700,145
-47,-127,121,-768,434,63
99,88,96,4339,-1404,-4100
-104,12,-112,4203,-859,-5980
5,60,2,8799,-3534,-5625
-16,-74,112,6403,-3196,-3419
-37,-7,124,7093,-4156,-948
111,-76,49,4080,-881,-3036
123,17,25,3882,603,-3444
-60,82,18,309,3758,-1722
8,-68,-103,-3348,639,686
-21,89,16,-1166,-293,1124
-29,-81,21,-2535,680,187
-37,119,38,-4098,958,1158
-23,-78,-15,-7663,1875,689
-13,60,-86,-6322,1526,651
15,-92,51,-9151,1780,992
36,-59,108,-12109,2075,799
28,8,-104,-9899,369,2133
-3,-57,-9,-9357,-1634,2705
-35,-16,5,-2906,-2941,3409
108,30,61,1092,-833,1981
102,-104,122,647,-1366,2187
65,87,125,1253,-956,1799
22,33,51,1108,895,1230
-23,-1,0,1177,573,763
-62,-81,-30,851,524,449
-78,-106,-26,5,443,65
-86,71,-39,143,565,-151
-90,61,-43,-824,593,-280
-85,13,-57,-111,648,-96
-63,35,-68,-694,563,-319
-62,29,-74,-891,580,-178
-62,16,-86,-463,486,-112
-49,29,-93,-660,501,-150
-44,38,-103,-781,555,-48
-47,43,-106,-809,437,-12
-56,53,-102,-797,312,130
-57,70,-110,-791,554,120
-49,75,-120,-599,529,122
-46,88,-119,-688,423,160
-38,84,-122,-577,505,162
-48,102,-117,-836,323,229
-48,102,-116,-521,412,172
-51,107,-112,-424,471,174
-50,122,-123,-890,595,106
-55,115,-121,-539,413,197
-48,121,-126,-444,583,154
-51,-119,124,-782,486,150
-42,-116,119,-816,462,5
-50,-124,-121,-705,485,60
-36,-127,-127,-614,617,73
-93,71,-83,5401,-587,-4110
68,-55,-127,5198,-1029,-5967
117,67,-113,8333,-3168,-4078
82,95,-49,8858,-2708,-3841
-30,-7,-76,10392,-1163,-3725
71,-48,25,5914,134,-4270
-12,-32,12,4902,95,-1270
-105,32,-61,-8827,2073,1872
-45,49,-128,1722,-434,78
-38,-86,36,-2456,262,720
-2,62,71,-958,1292,-25
-27,87,15,-3707,548,1070
0,-122,42,-7370,2264,1280
-7,51,-50,-9497,1865,1083
-14,-14,54,-9877,1171,1242
0,97,97,-11227,467,1965
-69,-125,-18,-7437,-105,3065
-67,-114,96,-6463,-1425,4065
-29,-8,-124,-3042,-126,3110
50,54,15,-1197,-429,2493
96,66,-11,-521,-366,2640
126,-92,77,-1650,-297,2297
41,81,84,-74,-694,1360
-10,51,58,1341,-366,727
-64,18,-13,680,881,-174
-83,-56,-70,441,1698,-886
-83,-107,-90,295,1209,-506
-29,99,-118,8,947,-295
-73,81,-91,-348,-127,74
-69,68,-118,-1062,831,-360
-52,36,-118,-465,742,-93
-48,63,120,-664,342,68
-37,63,-123,-797,525,159
-51,99,120,-1059,476,196
-56,105,-124,-847,307,325
-44,112,-124,-573,399,304
-38,-93,-126,-1164,314,215
-50,-112,-121,-502,374,173
-51,-104,127,-586,538,92
-51,-78,125,-885,466,-19
-49,-108,123,-334,501,-31
-55,-86,125,-742,437,44
-44,-88,121,-756,560,-138
-38,-101,123,-376,494,-115
-35,-99,121,-649,519,-121
-44,-97,118,-900,543,-60
-46,-106,122,-574,434,147
-41,-91,119,-538,405,152
-45,-64,120,-1057,508,114
-41,-82,122,-562,626,217
-111,120,-42,6237,-335,-4665
-28,47,100,5467,-2478,-4197
-83,-109,84,6171,-3581,-4000
-96,-17,90,6422,-4008,-3560
-56,90,38,6637,-4048,-2059
75,25,35,3994,239,-4118
108,-76,18,5286,-86,-3387
-83,-7,-27,-2897,1389,659
105,71,-74,-2271,1288,394
-10,-105,37,-1156,361,247
3,-102,25,-1108,349,196
-10,-86,71,-1856,1348,41
26,120,-30,-2650,1376,380
11,-42,-18,-7399,1152,761
21,-62,-83,-9133,2051,619
65,111,-50,-9323,1166,448
76,46,98,-9368,1010,2380
41,-62,55,-8320,-484,3115
-38,40,45,-5010,-1709,3961
3,4,111,-5436,-1027,3488
19,-21,-29,-1592,-1156,2618
81,-50,-21,1190,66,1742
63,-83,35,2458,-380,2252
64,-41,-32,636,1156,1880
-34,-35,18,203,507,1668
-78,-103,17,177,65,218
-104,119,-30,390,388,-583
-120,54,-48,189,708,-622
-111,18,-70,89,1008,-586
-98,-2,-75,-289,910,-488
-79,-20,-94,-901,687,-615
-62,-36,-94,-488,539,-229
-58,-37,-107,-527,662,-404
-50,-45,-108,-484,558,-254
-54,-45,-108,-713,512,-93
-54,-27,-118,-824,408,147
-46,-17,-111,-804,431,360
-54,11,-109,-951,439,353
-58,44,-112,-871,399,346
-54,51,-112,-641,487,274
-54,59,-116,-656,491,311
-60,80,-118,-798,409,251
-67,76,-114,-560,511,156
-62,71,-117,-444,601,97
-56,87,-126,-748,531,42
-58,74,123,-582,568,62
-54,82,119,-723,541,44
-53,83,115,-699,505,86
-57,85,113,-664,493,61
-46,91,115,-763,516,61
31,91,26,-9097,105,-441
-74,-63,53,-321,-351,-1387
13,-7,55,5784,2383,-4700
95,-30,-15,7212,-546,-6819
-124,-76,-14,7481,-2485,-6393
28,86,-100,7833,-2207,-4565
-125,-106,-106,9002,205,-4530
-24,113,124,7076,632,-2961
103,56,-6,8018,2334,-3484
25,-22,30,-6051,3442,1940
-127,94,-126,-845,-1226,-589
-58,80,-107,-1189,488,1563
-76,-109,-92,-1759,1153,-441
-52,76,61,-2026,367,250
-61,97,63,-6971,537,1360
-41,51,20,-9632,827,735
21,-118,59,-10293,1615,273
-47,-87,-68,-8898,123,2808
-84,-86,36,-7758,-56,2754
-94,-98,43,-5835,-135,3124
-41,115,-81,-6473,-316,3637
17,114,-26,-2476,-265,2996
94,39,110,1471,-626,3332
-72,-115,-42,-1161,1657,2543
71,-60,55,-2546,-762,2023
1,102,70,-126,-1124,1606
-42,44,55,2257,-294,431
-63,35,-38,637,1213,-671
-91,-75,-81,512,1577,-810
-87,-118,-100,157,1086,-489
-70,121,-95,-431,694,-318
-38,97,-105,-701,689,-347
-34,82,-104,-478,586,-370
-28,77,-105,-641,690,-353
-26,89,-102,-875,554,-213
-30,84,-102,-490,281,-31
-34,111,-101,-985,371,35
-26,123,-102,-845,494,138
-26,-121,-106,-570,250,235
-46,-97,-102,-785,34,218
-46,-86,-103,-771,403,296
-30,-69,-109,-840,708,125
-17,-68,-111,-745,764,41
-19,-75,-100,-552,1042,-321
-31,-90,-96,-217,417,97
-36,-86,-102,-489,227,154
-24,-87,-106,-502,491,159
-7,-91,-116,-465,692,7
-7,-88,-116,-587,443,197
-17,-90,-116,-613,357,210
-102,102,60,-4449,-5560,1803
-114,123,-65,-898,-1232,-1992
-76,-99,64,5482,3355,-5866
8,-128,8,5899,-2200,-6563
-79,-83,-16,6133,-2117,-6382
65,81,105,6807,-5172,-3047
115,34,110,5910,-3092,-3811
-2,61,32,5219,-852,-4062
98,124,-70,5188,1456,-4289
-120,-67,115,663,3294,-1893
-116,24,-88,-5712,-1570,3461
-38,100,89,247,198,744
-57,-119,72,-549,1385,-571
-111,-116,-8,-1934,89,544
-42,83,36,-1681,1719,129
-32,-113,-8,-6644,613,1396
-8,117,-17,-9138,1400,1523
-10,14,38,-11336,2279,2203
-72,21,73,-8239,826,2659
-72,70,17,-3080,-108,3875
-102,-105,84,-6352,799,3329
-111,-112,-106,-4893,147,4576
-44,-19,102,-4035,530,3567
12,-14,-20,-1358,-643,3200
55,18,-37,686,-581,2400
59,33,-22,1015,160,874
5,104,15,10,78,930
-97,6,-30,-96,644,-245
-125,116,-61,363,1181,-529
-126,87,-89,39,1115,-394
-115,57,-104,-426,977,-297
-97,49,-106,-610,814,-116
-79,38,-104,-686,1227,-621
-93,54,-94,-607,183,127
-79,44,-122,-823,372,149
-72,59,-126,-955,760,150
-65,87,-122,-1315,835,36
-54,79,-117,-539,812,124
-48,101,-115,-735,545,271
-48,109,-101,-683,808,-107
-42,115,-94,-438,403,83
-45,118,-105,-743,180,278
-76,-125,-114,-1038,-683,659
-63,118,110,-902,92,185
-79,-125,125,-744,365,127
-76,-126,103,-108,257,134
-87,-125,97,-332,389,16
-79,-112,103,-883,1012,-84
-78,-120,108,-304,583,49
-69,-92,126,-728,645,49
106,-16,-5,5328,-571,-3338
29,-62,-97,4798,-1921,-3319
-118,23,25,6108,-3903,-4375
24,94,39,6244,-4231,-3896
75,-88,-86,8291,-3938,-3173
-58,-86,-126,5452,-2072,-2757
67,55,83,3232,-750,-2731
-6,-72,-70,4622,3230,-4180
57,-66,-18,-4176,577,1595
-25,113,-102,-972,-194,979
-10,113,-112,-1181,1056,124
-99,-86,108,-1759,-3,490
8,15,25,-1302,846,365
-60,-95,102,-7214,356,2182
7,61,-33,-8552,1034,1439
-28,-7,117,-8264,1565,2441
-70,-92,-64,-11608,1208,2935
-101,16,-70,-7593,1695,4291
77,69,53,-6508,-490,5213
-108,-56,20,-5832,-224,4269
19,7,-57,-3208,-624,3426
104,26,12,-412,-541,2523
-110,47,48,785,-647,2054
92,127,38,-56,-753,1401
-13,24,41,1758,-74,638
-84,33,-7,257,963,-480
-106,-82,-60,550,1320,-700
-110,-128,-86,285,1463,-604
-105,100,-113,-283,1093,-604
-85,81,-114,-636,773,-369
-72,49,-117,-389,613,-236
-56,77,-126,-857,632,-267
-54,60,-116,-624,401,-132
-64,72,-119,-673,512,-62
-68,72,-113,-435,371,188
-62,78,-123,-285,299,150
-57,122,-115,-1388,321,222
-61,119,-116,-842,319,283
-67,109,-106,-71,294,262
-60,-96,-115,-1187,587,-10
-60,-120,-121,-749,496,-39
-72,-125,-124,-440,567,102
-58,-115,120,-608,624,71
-51,-107,120,-735,378,135
-50,-104,124,-743,466,118
-54,-108,-122,-618,512,44
-57,-107,-123,-635,515,57
-62,-126,-127,-198,534,215
-61,-105,118,-426,605,240
-50,-97,112,-516,618,227
-46,-83,120,6460,-2275,-5318
70,103,-108,8413,-2411,-5778
79,-10,-76,9488,-4514,-3467
107,74,-109,9957,-3045,-2572
18,71,46,5683,225,-3471
-102,60,-22,4202,772,-3260
-40,62,71,-1131,1557,-475
111,121,-48,-3912,616,1333
2,-65,-56,-12,470,-248
-41,-70,109,-2544,502,557
-10,123,77,-456,1187,-155
-58,-111,51,-2081,776,115
-19,-124,23,-2145,1366,108
-31,-24,2,-4811,1012,319
-11,-47,-15,-7091,1622,155
11,-110,-110,-9832,2025,-103
83,-101,-54,-12509,2454,-598
41,-26,-2,-11375,-397,708
60,80,37,-7353,-1496,1749
50,-87,-24,-3021,-2207,2424
62,-46,77,-45,-543,2452
93,66,47,-655,-416,1813
67,38,32,-240,-496,1730
16,-13,25,602,-523,1534
2,-67,-18,1243,145,1274
-39,-59,-31,319,459,1184
-49,-84,-55,410,349,707
-88,-102,-24,16,355,436
-90,76,-27,129,805,-24
-101,89,-19,-835,217,65
-81,25,-42,-373,434,10
-82,43,-56,-784,830,-289
-78,31,-72,-807,543,-181
-47,18,-71,-690,584,-45
-56,35,-86,-615,522,-175
-65,42,-108,-979,640,-223
-55,52,-121,-1082,727,-82
-61,48,-117,-502,282,70
-42,54,-110,-715,663,91
-31,83,-106,-1101,469,45
-41,77,-111,-873,466,75
-21,89,-108,-1001,463,144
-60,-124,-113,-1292,77,272
121,-108,-87,-1030,306,199
-91,124,-87,-151,1104,-62
-5,-119,-125,-264,983,-202
14,122,-125,-343,640,217
-6,-125,-125,-579,398,325
-43,-97,-121,-1054,304,178
-42,-108,-106,-761,436,192
-111,-35,-15,-7416,2785,-1260
50,-14,95,-590,3418,-1988
-19,7,95,7489,-1050,-1806
-61,102,85,8951,-1654,-4423
0,116,88,6576,538,-6375
124,-93,-98,11744,-2070,-3809
87,-45,-31,14049,-4120,-2601
92,-72,85,6330,-874,-4352
-20,-60,0,3951,1346,-1862
43,53,-62,-8046,694,2183
