AccX,AccY,AccZ,GyroX,GyroY,GyroZ
67,-109,-75,4979,2752,-1435
81,-66,-60,8602,3980,-4188
125,106,76,9626,1513,-7351
42,-11,-19,5140,3216,-8198
-69,-114,-43,4823,2700,-12044
-36,-76,-16,5474,5360,-10506
-20,-102,3,5550,-1751,-2938
-65,114,84,1014,-3416,-1095
127,13,-87,-3280,-5762,-1050
34,0,-119,-4912,-9966,4384
-18,43,26,-8463,-6153,1184
114,10,-63,-3824,-9133,-1352
24,124,50,4678,2651,1240
59,-42,97,6472,4074,-10718
-121,55,127,3741,-1150,-410
48,-57,63,-2270,-3603,-850
-30,19,28,3388,-3183,-30
42,55,106,4172,-2224,1250
120,-50,51,1894,-1704,1329
0,-120,61,3890,-1177,4480
-6,29,20,2619,-501,4020
-123,13,-18,3629,-160,4819
77,-38,-48,3189,-451,4632
-32,89,31,-1815,1347,2698
66,-2,99,4450,-1788,3753
-42,-73,-10,4207,-2377,2470
90,14,91,2066,174,-2090
-47,44,-91,-1010,285,-1452
47,-126,-82,-2613,575,-1956
31,73,-66,-2307,1071,-1252
34,64,-71,-1490,1114,-636
25,88,-86,-199,692,-411
46,113,-66,136,277,-358
55,-104,-41,-743,284,-466
50,-109,-33,-478,209,-186
59,-106,-20,314,-7,-63
69,-74,-19,511,36,-15
82,-36,-25,172,85,-50
94,-21,-31,-85,366,-175
94,-13,-42,-119,261,-277
69,-30,-115,4815,1898,-2906
87,51,-57,5503,4152,-5296
123,3,30,8343,3977,-4570
-11,14,-63,5705,257,-8185
107,110,-12,4878,-664,-11110
127,-116,5,4745,2659,-12577
-84,-37,0,5682,2064,-6783
54,-60,112,3446,634,-2073
118,-54,104,-3707,-8540,5374
-107,-26,-76,-7767,-13344,5737
-19,28,-16,-15123,-7550,984
107,41,-115,1073,-7156,-420
33,94,5,-1589,-2039,4397
24,-27,16,2604,3064,-4638
86,-105,-39,10085,-1093,-7236
79,74,-70,5360,-4313,-704
87,75,70,-3795,-2775,3798
32,104,67,-1960,-2304,-103
56,-74,62,5121,-3039,1447
-44,69,35,4566,-2684,1481
83,70,4,3703,-991,3008
-19,2,-25,2658,158,4807
-70,97,-111,3873,-466,7268
22,7,19,-47,-1973,5715
-99,35,2,1951,-5568,3579
16,60,80,3923,-236,-4121
34,29,-20,-6371,4360,-5194
27,-106,-23,965,549,-1139
-20,20,82,1951,-341,20
1,106,-121,1226,-137,-152
81,105,-106,706,588,-61
108,-60,-82,-1840,599,-545
84,-48,-7,-2280,430,-1267
90,-86,127,-1967,1335,-944
38,-126,-12,-432,440,-369
57,-103,-33,761,95,-194
91,-46,-19,521,316,-391
91,-37,-42,-29,825,-629
76,-62,-68,64,378,-531
64,-71,-66,34,31,-323
10,25,105,3057,2490,-2438
121,10,-115,4942,3484,-3532
121,32,61,6300,4746,-4554
120,110,-98,6414,3568,-7590
-75,75,53,4839,2103,-6789
100,-32,82,6070,1288,-8435
99,93,-67,7085,2006,-9341
94,97,-128,1335,1818,-3241
-102,96,10,3818,459,-407
-6,-83,-57,598,1434,-1867
-97,-29,-35,-1351,-3781,310
74,23,-107,-6555,-9811,4013
101,-77,-122,-9174,-11573,-212
127,-53,59,-5255,-9247,-2312
-58,105,2,-359,-11914,3985
-53,9,-39,3038,2622,-234
42,72,45,3991,1525,-7042
-10,67,65,5729,-3258,-2018
-81,-104,-115,-6224,-4246,1218
-94,-124,-52,-5420,-2553,-991
125,47,122,3251,-2923,-1030
113,-83,-75,3266,-2339,-1660
89,127,55,5184,-2433,449
-13,56,-44,3965,-598,1480
-73,-59,95,2601,-519,2427
50,-79,99,2477,-649,3578
46,-56,49,3845,-1605,3264
95,-73,-13,2778,-610,2080
31,98,-103,2697,-988,1887
-30,97,-58,3586,-1860,718
-59,69,31,3024,-800,-1104
-107,13,-36,82,899,-703
67,-51,-110,-2288,1272,-865
76,-44,-81,-3088,1204,-1039
90,-56,-70,-2735,1364,-874
79,-62,-61,-1677,1270,-869
87,-47,-34,-1342,978,-1260
97,-68,6,-1427,1100,-1621
89,126,-22,81,1006,-767
68,-87,-8,-972,1052,-1194
49,-9,38,2451,3186,-2651
32,-69,-63,7238,4463,-3425
94,-111,-128,7287,6264,-6765
-58,46,-34,9698,4566,-9569
-47,116,55,4832,2298,-12351
58,-106,84,7658,1684,-12122
-72,-89,-20,1927,2250,-2158
111,-67,-50,2802,3438,-491
-113,17,107,-3951,-7380,1422
45,7,-70,-10489,-17031,6537
24,0,112,-11212,-8883,1017
-110,50,-18,-5398,-12719,-1786
27,85,74,1882,1120,5599
1,11,77,1529,3658,-5702
114,75,50,2582,3154,-8937
-116,-86,-125,12813,-7795,-726
-31,-18,75,-6379,-2622,2901
106,0,81,-7230,-1384,-1636
-68,1,-101,5713,-4697,-964
100,-8,4,4499,-3047,193
-38,13,-93,6060,-849,994
126,52,-124,6013,944,3169
-18,-55,109,3473,1348,4145
-18,63,21,2617,-1582,5901
84,88,87,2485,-9024,4373
-32,-64,-126,3295,-663,-5491
-46,103,-82,-6783,6533,-4929
83,70,125,1065,-788,1154
-36,-128,83,695,15,220
2,-88,-100,-389,138,-905
91,118,-75,-233,1126,-118
99,-91,-105,-620,906,-274
99,-66,-73,-1101,117,-816
87,-46,57,-2026,367,-1325
76,-120,-109,-1418,1401,-616
46,-120,-29,664,-76,-215
59,-92,-42,1482,-365,-111
85,-54,-26,884,-8,16
106,-17,-38,-97,519,-238
104,-13,-50,-593,486,-432
114,-78,-128,4624,3704,-2348
-4,-42,-89,5778,5199,-3142
94,7,74,7044,4270,-4755
67,85,54,7164,2745,-7903
-42,16,-121,8456,-738,-7338
122,115,1,7851,458,-9509
36,21,3,5907,2921,-9005
-109,69,-30,4061,3040,-846
97,42,-28,439,-768,1764
-128,-44,74,-4182,-8299,4082
17,-86,36,-6437,-10226,3189
69,107,-39,-8900,-13302,1119
-39,15,81,-6164,-14171,2484
-13,57,79,-3436,2208,3289
85,-30,-72,5463,460,-3744
38,1,103,6218,-1114,-6546
-99,66,-66,5261,-4924,640
-91,-3,-118,-5846,34,-184
26,102,50,-3020,-552,-1037
-91,-115,60,3686,-2593,-897
-95,-73,-109,4287,-2565,140
31,-41,34,5252,-844,1231
99,39,48,6169,158,3284
-110,-117,-70,2398,1264,4596
-9,14,107,3468,2853,5852
54,-109,-125,1179,2418,6747
-12,-5,-20,-3011,-6490,4122
31,81,-36,-6026,-1475,-745
42,32,-70,-1523,2698,-4884
51,-14,-47,4471,3285,-1801
63,60,93,4367,880,-1100
49,119,-127,949,-373,-176
69,-122,-89,-815,-529,345
82,-79,-81,-1307,439,-248
115,-24,-41,-2324,964,-1225
-122,-51,-28,-2887,1421,-1535
114,-45,-2,-3277,1541,-1213
56,-50,48,-2260,1364,-982
49,-91,20,-68,356,-449
59,-62,19,1441,-343,-185
83,42,96,4844,1569,-3381
-65,-77,88,7327,3700,-6313
-35,19,-62,6085,3217,-7744
40,-2,-29,4069,3311,-9222
36,-59,-83,4271,1838,-8298
-103,-34,-26,4533,4568,-10440
17,109,113,3279,3360,-5707
-5,84,-122,3666,2953,-1581
-82,103,-27,1980,1193,-2284
-83,14,-78,10,-968,3083
69,103,31,-2858,-5282,4489
-48,104,-125,-6236,-10501,3542
52,-104,-115,-5346,-8742,3926
-62,-92,15,-3913,-10569,2826
106,-49,15,-7358,-9581,4608
19,53,25,-5355,-1699,575
-18,29,103,3833,2239,-4760
-125,0,-117,6343,-504,-6407
30,-113,-116,3068,-9076,3863
-102,27,64,-5146,-1078,485
15,9,109,951,-1640,385
126,-66,-125,3541,-4137,945
105,113,-11,2931,-1503,1673
15,-95,6,2832,435,1710
-11,-70,101,2632,2070,2310
29,104,9,3692,-495,1862
0,85,-92,3389,-993,2180
-15,-121,-73,1215,-1445,1028
-46,96,-4,-83,-1040,-87
-69,51,40,-168,-81,-315
116,3,0,614,683,-737
94,-38,-27,931,745,-1318
96,-108,-40,1074,322,-1258
89,99,-59,1201,301,-1279
73,91,-83,631,602,-1402
82,79,-58,-522,332,-1521
75,40,-31,-566,381,-1142
45,39,-60,213,514,-967
28,26,-70,453,162,-666
23,49,-76,104,41,-101
-61,56,-9,7260,2678,-4560
45,5,97,8569,4559,-7810
105,-95,5,6537,2179,-8067
-37,99,37,6382,-321,-11552
-66,-26,94,5268,1196,-11895
73,-100,-22,6777,3178,-7579
-48,6,8,2288,3160,-2783
-75,17,71,1209,9,782
-46,95,13,-2313,-5074,3020
50,43,102,-4783,-7550,3814
-88,32,2,-4922,-11947,5607
102,-80,-86,-9418,-11854,2898
-85,-118,11,-5784,-9814,4267
47,22,-7,63,348,2910
75,42,-47,1054,2093,-4846
43,31,-44,501,-751,-2784
-59,45,-127,1418,-7783,210
-85,-107,-52,-623,-254,-663
-86,61,61,-944,-741,-431
99,-76,5,2317,-2787,-688
-101,23,8,2977,-1807,-570
5,13,4,3856,-1210,490
-41,82,46,3364,646,1449
-12,51,53,4975,340,3261
-15,-90,0,3476,-903,3301
115,41,-69,302,-2180,1588
114,-117,-48,7392,-5821,-1354
-40,10,-26,-1230,4925,-2845
47,-22,18,-2034,1003,-2002
42,-4,77,-1022,1400,-262
-25,26,82,-121,428,-193
64,5,88,909,427,350
117,59,52,140,918,320
64,-67,87,-2303,-864,-485
81,-126,-111,4674,-3828,809
-127,26,70,1212,2570,-471
64,-125,37,-116,-96,-173
80,-58,-111,-2625,620,-1113
84,118,121,-1323,829,-575
57,121,-114,303,-443,30
13,-113,-106,-5379,6893,-451
126,-59,-41,2202,-1038,-277
81,-31,-7,821,-166,-180
123,16,0,208,524,-283
112,7,-3,-60,356,-414
109,-5,3,27,326,-239
97,0,7,150,226,-338
109,-2,6,98,299,-328
113,7,6,13,166,-248
109,6,9,22,209,-293
107,8,11,116,315,-368
106,-4,8,243,224,-331
110,-9,3,196,142,-276
116,4,17,59,247,-339
117,15,27,87,363,-391
115,15,12,7,169,-735
110,-15,12,1029,-312,-768
-128,9,70,1514,152,-1542
-13,23,-106,1494,1642,-2241
-117,12,-98,6272,3058,-4017
24,105,-91,7257,2659,-4664
123,120,-15,5672,3574,-8001
91,13,116,6550,604,-6370
114,-68,14,4858,-53,-9039
32,-96,19,4370,1663,-9074
46,27,68,4769,4364,-6399
-49,22,112,528,3240,-724
-120,42,-29,549,-1265,2969
-31,13,53,-2071,-5352,2518
-46,-121,85,-3614,-7121,1663
67,-51,-57,-5087,-9972,1043
-105,-20,-33,-4278,-12295,2993
-17,-95,-67,-6983,-11928,4126
75,28,-103,-9795,-5429,6888
-5,-2,-59,-1252,1893,-3843
-87,92,71,9334,-429,-10530
-53,-102,84,1731,3830,-4237
120,112,70,-2837,-4364,3555
13,5,105,-966,-3191,1293
-34,19,83,2253,-2391,420
23,-9,-27,6639,-1411,176
-26,-104,-46,4438,295,1867
-83,-111,62,4477,81,1844
115,31,-73,4658,1453,3864
-121,-35,-6,2728,-2278,1265
-113,-36,68,1026,-4701,597
126,104,13,1769,2379,-2195
104,-76,-88,-1507,1369,-911
0,68,2,-1549,576,-709
-1,82,-116,-1223,258,-534
17,106,3,-383,649,-364
38,116,-29,-67,265,-184
70,-105,-39,-436,211,-170
83,-40,-27,-1168,496,-386
79,-35,-32,-1298,695,-695
64,-74,-54,-414,618,-674
60,-67,-51,-216,424,-547
52,-46,-30,-353,310,-414
78,-50,-19,17,387,-260
83,-29,-30,-37,355,-355
79,-26,-29,-54,21,-339
70,-26,-9,148,-56,-244
74,-17,1,154,145,-225
79,-2,2,-31,278,-159
69,18,0,-147,208,-240
104,8,16,-35,518,-275
119,15,3,-189,761,-483
104,8,-11,-152,457,-671
80,-22,-11,323,202,-590
70,-24,3,301,225,-574
66,-42,-1,409,303,-376
67,-39,-11,438,243,-218
74,-32,-25,463,55,-177
81,-21,-21,457,-65,-98
89,-12,-10,484,-73,-107
93,-8,-5,530,24,-158
93,-5,-6,357,141,-244
93,-9,-3,201,265,-223
95,-12,-5,279,349,-315
89,-27,-20,422,319,-310
108,77,-54,4498,1225,-3435
-41,20,-81,7182,1047,-3953
-88,126,-56,3974,4929,-9623
-31,-61,-103,9705,2097,-10529
-86,-6,62,4739,-479,-12242
76,-86,66,5097,2582,-13297
-24,-102,-45,5795,3077,-6486
43,-16,-123,1181,5865,4290
-24,-21,93,1168,-3466,4455
-109,46,-67,-2733,-13758,8211
-52,-92,-96,-5690,-10468,6704
-117,35,87,-5435,-10400,7031
-59,-21,118,-6964,-3925,5142
-83,101,-84,-9877,-3711,5012
-123,-97,-115,3768,1709,-2172
47,90,80,1847,1380,-8682
-97,76,41,10457,-5847,-2842
-17,122,-93,-420,-1941,1631
-22,60,33,-895,-668,1620
-40,55,75,920,-339,1725
-42,12,111,3087,-3438,2200
-58,-106,116,3301,-1347,2576
-48,-93,108,1627,-1580,2122
-73,-31,122,1976,-898,1686
-6,-55,108,1884,-1322,422
-83,81,14,2050,-959,-79
-119,-84,28,3552,-1069,-1521
-108,-2,35,156,989,-719
17,-107,125,-643,483,-880
-30,85,-108,426,134,-527
-20,80,-21,801,358,-199
5,113,-53,734,77,-155
47,-53,-57,-977,-186,-514
67,-60,-33,-1112,807,-407
41,-99,-75,-700,735,-396
16,-101,-75,-936,944,-476
10,-106,-74,-348,250,-350
18,-98,-42,-95,487,-421
32,-91,-29,-10,303,-369
37,-79,-31,171,220,-308
74,32,78,4472,-91,-3816
-49,10,-83,4726,2378,-6465
29,-116,-75,5033,1624,-10844
-73,-21,37,3556,99,-16630
79,-28,-15,-388,3507,-16701
-34,-25,46,5180,7015,-7536
24,-48,-105,3096,1074,3167
-42,-69,-15,1745,-558,1954
-45,-83,38,147,-5043,3405
-82,116,84,-4493,-6946,4442
0,118,-90,-5031,-10252,6448
38,-38,-100,-13274,-11229,4420
91,98,-45,-7363,-7664,1734
107,120,-3,7165,-6196,2137
17,70,-88,-3082,3426,-6028
101,26,109,4422,3453,-8516
-39,73,123,5667,-4613,-2207
-20,101,34,1294,-7772,2439
-98,95,-39,53,-1957,1038
37,41,-44,2219,286,261
10,-8,110,3292,-2995,2021
10,98,-93,2817,-2660,2415
-54,101,50,5064,-2264,2556
-58,-80,98,366,-2182,767
69,64,42,17128,-7525,-5731
80,6,-15,-6879,6267,-13
-46,121,47,-2198,1528,805
-41,-126,123,-760,1435,502
-41,-111,111,262,647,313
28,-101,106,1045,777,152
31,-42,121,-410,-148,-394
39,-20,-56,-1435,-1425,-748
99,-78,-54,-230,2105,-420
31,-62,9,-1249,1780,-335
-3,-108,-53,278,510,-313
5,-79,-48,626,-93,-299
57,-61,-16,455,171,-321
66,-44,-19,-63,582,-372
57,-48,-26,-187,474,-495
44,-67,-32,207,234,-529
84,122,-71,5828,485,-3444
122,44,-16,4726,1220,-4962
-50,106,-40,2341,3420,-6051
80,116,95,1293,4521,-6731
108,127,-17,-81,5221,-9693
85,52,-76,5044,4191,-9697
-15,-121,-55,3561,3768,-8422
-90,-54,112,4156,1953,-5994
-86,-6,75,3404,-1649,968
-2,-23,-17,-705,-2533,2831
-81,-22,104,-1130,-1602,383
-62,96,-102,-2768,-7580,4569
-70,99,108,-3575,-7287,4922
-34,28,-16,-6378,-5509,3556
36,-91,1,-7479,-10933,994
-64,6,38,591,-1543,1763
103,-76,-37,1358,1376,-4602
81,-57,-51,4704,-760,-5202
-85,99,21,1050,-5847,1373
67,87,-63,-1248,-1923,1355
40,72,-52,1286,-1522,1197
95,115,-41,2635,-1580,412
-102,91,-101,3692,-875,704
23,30,46,5561,-1573,2559
-66,6,-16,2562,317,3903
-86,10,79,4460,315,2973
18,25,27,736,-1580,1351
-59,-82,-122,-1786,-668,872
-70,56,-18,8335,894,-254
-85,-85,52,-2900,397,-53
116,13,117,-5137,618,-1458
-110,-79,-103,-4708,1727,-1910
-125,84,126,-1187,2148,-536
97,70,75,2107,1382,-292
15,-110,38,2326,-863,-894
20,-102,127,598,-1494,-674
71,-105,-15,-830,-676,-272
66,-98,-5,-893,517,56
74,-59,15,-475,923,-519
81,-83,7,512,253,-60
89,-20,-85,2970,1326,-2893
-56,-65,-55,7138,786,-4225
-65,-50,-2,8951,2667,-7920
11,55,-64,5052,1338,-8692
102,121,-51,1004,1492,-12081
-16,53,125,3794,1286,-11766
-34,93,0,4697,2424,-8651
107,-88,122,3251,3319,-379
56,-7,-56,2212,951,1150
-53,116,114,-1406,-1046,1946
-63,127,-68,-4147,-3614,3325
126,-11,-100,-6261,-8551,3887
72,109,-45,-5644,-10692,4820
-113,-65,36,-7289,-11423,3275
-107,-13,36,-2626,-1788,1759
60,-35,-106,-127,833,353
34,-119,71,-1931,2514,-6023
78,29,-44,6035,-2292,-1625
-64,-13,80,1050,-4486,852
-83,43,-80,-932,-3397,684
33,-111,-70,3740,-3337,1642
-62,90,-103,4047,-2353,1858
-19,119,99,3962,-2366,2081
32,-112,-88,2961,-1647,2864
-104,-57,-12,5128,-1182,1967
104,-21,-108,3610,-1535,948
-10,6,-78,-943,-634,-302
-81,89,-114,3543,1353,-2107
-119,-27,-90,-447,1061,-510
14,-59,-52,-2463,-310,-417
74,-31,7,-3104,1008,-787
83,-45,-24,-2385,1451,-928
78,120,-88,451,1142,-481
72,-118,-101,2091,479,-662
78,-96,-98,1055,-219,-1071
71,124,-84,560,-143,-830
34,122,-81,28,8,-582
22,-93,-47,-1192,192,-323
38,-76,-22,-1302,325,-256
36,-103,-19,104,-28,-221
-120,115,99,10078,3323,-3165
49,73,-96,8836,3637,-7509
-78,1,112,6372,2476,-9218
117,-8,72,4640,2711,-11440
5,60,47,5715,1426,-11809
52,22,-73,3890,1950,-8421
-97,107,100,2973,973,-1735
44,-7,-30,2135,-3092,2183
34,81,-99,-2601,-4314,2865
28,79,-126,-1591,-4659,3376
5,103,-63,-3361,-9040,5667
115,110,-74,-6968,-8017,5729
-27,-57,-93,-6014,-8285,3798
-44,64,-127,-2149,547,5376
-84,-44,-76,3040,1947,-3941
-45,72,-120,1817,-2502,-3776
-96,-57,-29,652,-3023,-673
-87,63,-35,-1385,-1289,-39
-82,117,-60,-1965,-421,-379
-112,21,74,891,-2275,-874
34,-58,-24,4954,-3724,-141
20,124,14,3717,-3762,1404
-40,-54,-58,1511,-1201,1992
-95,-90,-126,2779,841,1443
-77,-91,-11,2859,767,2434
111,-28,-99,1375,732,2236
78,105,117,-3297,-1681,86
-38,-50,33,-1261,-6013,-2155
-80,-81,-50,-1261,4130,-2753
83,-86,73,-44,397,-6
74,-60,-93,-1574,1116,-648
40,-112,-113,-135,1163,-50
53,-110,-128,1281,1060,334
101,-49,100,1082,729,232
122,-28,88,303,155,-202
113,-35,126,-144,-465,-431
109,-53,-88,41,-301,-397
110,-36,-65,-607,207,-575
82,-29,-30,-1572,-241,-880
71,125,-18,1069,785,-113
-68,20,-15,6571,1201,-3284
-1,90,65,5970,3034,-5925
21,-66,32,3843,1849,-7808
-62,127,-1,5307,3834,-9653
77,120,11,4400,3689,-10491
-61,5,33,2570,3240,-11468
-15,37,-57,3860,2084,-6736
-64,34,-56,863,514,-848
76,32,-123,1716,666,268
-102,95,-30,510,-1869,808
-27,70,-121,-2830,-5490,2579
-116,90,7,-2906,-3137,1100
-117,107,-82,-4503,-4178,1010
-77,-115,-40,-6206,-6865,1179
43,105,53,-3237,-10369,-144
65,-110,-87,-1722,-6512,5995
81,36,-6,2042,-320,-402
15,-30,-34,1596,2178,-7991
-65,71,22,5270,-40,-2283
-35,-108,76,-89,-4035,1983
17,62,-75,-1266,-3813,2059
36,74,81,919,-3854,2244
-114,80,118,2917,-3809,2340
-91,-33,-22,1286,-2268,3351
-118,33,-97,2117,744,2268
29,-37,81,1931,-1242,2280
-115,1,-92,2318,-1478,1715
7,-126,-119,-1873,-2902,-1567
117,-71,-4,3105,3271,-2277
-108,-118,63,111,278,-448
-32,61,-78,226,-595,-837
-41,115,-121,-1477,1140,-778
0,75,127,708,177,-446
83,-120,-36,896,476,-109
87,-78,-43,-218,321,-340
80,-101,-74,-272,574,-855
70,93,-96,424,600,-1111
25,88,-90,156,116,-777
8,86,-103,85,-131,-165
49,127,-121,864,-51,534
-29,30,-82,5004,3148,-4437
126,47,-71,8128,2613,-5718
-16,78,90,8477,3548,-8647
112,-27,-61,4581,713,-9598
-119,48,-49,3077,-120,-9157
85,-57,-78,6517,-726,-8770
8,-104,0,3234,1272,-7453
-7,-75,-99,2875,1442,-1155
45,-2,-69,409,-2385,2106
-100,-21,104,-632,-5076,4673
45,-50,35,-4543,-8336,4571
-103,-54,62,-5345,-10050,4804
39,109,105,-2501,-7743,3155
-57,-77,36,-4416,-8366,3421
-31,-25,56,1025,3875,-806
-67,-68,2,969,857,-4824
62,71,-35,4395,-4126,-1542
112,42,47,27,-4603,589
-108,-120,-22,-428,-729,-177
-80,10,17,2696,-1689,-459
19,-7,-88,3341,-2722,567
-67,125,-57,2531,-688,1670
-87,-49,-14,637,-967,1964
99,-63,123,2221,-754,1842
-77,-50,75,3418,439,1500
-123,-57,-116,3519,-179,1386
-9,-125,-91,1769,200,1479
-49,64,51,2542,-401,1599
-109,104,110,974,-599,653
120,-57,-116,1574,-597,597
113,-27,-108,520,-422,321
97,-15,-117,331,-955,-89
-106,-15,-115,1239,1911,-1815
71,27,-71,-559,163,-262
-16,12,-110,217,451,-23
19,81,-106,871,-336,-138
41,-113,-93,568,195,-496
57,-128,-59,-316,452,-233
51,123,-113,-225,353,-306
49,120,-117,-97,266,-423
37,1,66,2797,1535,-2781
99,-24,78,4322,2413,-3874
-64,-14,90,6436,3202,-4589
-116,-38,-72,3110,4772,-7082
45,71,86,5688,3210,-8592
56,71,36,4296,2638,-8735
-66,32,50,4695,2345,-8936
56,-83,99,5365,1184,-5506
-62,-126,-95,3982,277,24
-15,-4,-113,3672,-424,965
37,81,-7,-49,-2417,2561
121,8,-98,-1468,-4343,3028
82,-64,21,-1416,-4733,2505
69,110,-90,-1814,-5567,4004
-96,94,96,-4361,-5885,3648
-98,85,-103,-4699,-10203,2214
-39,-37,114,-3914,-4593,3883
-32,87,36,627,55,-2384
59,-26,-1,-1372,2018,-6755
-35,-103,-117,4223,-4004,-1639
-40,-62,-44,582,-6392,1835
-12,96,96,1417,-3864,778
61,-93,82,2978,-667,-309
-28,-124,-31,4432,-2153,1205
-77,-6,-27,2672,-1201,1822
53,-3,-113,2295,185,1459
15,-104,-117,2947,-984,907
-87,77,1,3849,-374,981
-97,-37,-64,1405,-823,577
107,-51,20,3636,74,-1384
60,43,-123,1747,-154,-449
38,-30,-127,-99,-964,-177
-5,-93,-83,-489,-53,-157
-35,126,-53,-648,1046,-668
-9,73,-70,-63,895,-215
-32,54,-102,802,-713,-74
17,117,-67,579,460,-427
18,109,125,394,-1,-104
25,-84,-91,34,258,-473
10,-95,-82,31,245,-486
36,104,-53,4452,1981,-4554
-57,-116,-43,4233,3247,-6693
20,93,-116,2298,5094,-9076
-114,59,72,2547,5993,-10635
-19,-117,12,4106,6341,-11262
-25,-48,-75,4517,3255,-8166
-42,-27,-25,1292,1566,-2852
37,-103,-109,1971,1736,206
-16,87,104,-260,-375,1165
-63,-123,-80,-70,-2732,2511
70,-118,-21,-3241,-5405,1546
103,53,69,-4906,-9032,2187
22,-120,-30,-9449,-12716,1240
-99,-126,-19,-3434,-12775,-1278
122,-125,-34,4556,-1223,4701
-114,-86,30,-4438,4221,-4498
67,-128,-83,3661,-7062,-3656
-29,-55,120,-1003,-3168,-1473
82,98,-38,719,-1593,-1245
49,-101,-31,1205,-1987,-278
94,-77,29,3242,-2019,451
31,96,-15,5361,-1632,1044
-67,-27,-100,4190,-138,2570
-89,-82,-24,2008,849,2497
-39,-111,-94,-1068,-3888,121
8,-91,-42,-1056,2717,-3412
81,54,-126,64,72,-170
109,48,-22,-520,15,-469
-113,-106,99,-1039,943,-370
-46,-80,-112,-199,1150,-769
87,120,25,1723,894,-303
103,-81,42,1452,-296,-81
41,-37,-58,1613,368,-361
25,-71,-69,268,808,-540
22,-96,-67,-584,642,-465
10,-111,-95,-237,752,-306
31,-117,-93,571,444,59
41,-93,-102,702,415,108
63,-68,-107,608,69,52
89,-37,-72,396,-359,-408
80,2,-110,4204,2009,-2308
-12,-45,-120,8507,1736,-4653
-125,-42,11,6489,2965,-6205
51,-48,-27,4716,2624,-8267
104,-117,-104,5145,1011,-9322
-1,121,-17,4369,129,-10956
-12,-23,49,4942,1360,-8610
-119,11,-95,1932,1273,-1568
43,99,-46,2061,419,1337
-12,56,-117,-1422,-4295,5053
119,-47,-98,-4132,-8832,6170
-78,74,112,-9285,-11847,5994
124,-67,77,-6559,-9720,1458
-13,1,-50,-8763,1287,1141
-14,-50,-39,6250,-1582,-1001
-50,-80,107,1753,998,-4650
-72,34,-88,4158,-5172,-1807
-75,7,-30,-266,-2853,1653
29,8,95,-2144,644,-504
124,-1,-22,3605,-1861,-390
92,109,-45,3006,-2258,-21
-63,-47,-36,1819,83,355
107,-107,93,2025,-241,693
85,-111,30,1911,-656,782
55,97,-9,2007,-1191,756
57,86,0,1950,-395,1134
93,116,-10,1171,-200,906
110,56,-13,1082,276,1148
115,75,-57,152,389,886
101,30,-50,112,-34,773
108,0,-42,181,330,407
101,-18,-49,-276,364,73
100,-58,-34,-95,84,-43
80,-55,-53,202,335,-222
62,-55,-72,215,57,-534
67,-89,-75,549,37,-306
58,-77,-83,349,223,-379
51,-79,-92,550,160,-400
56,-75,-88,475,262,-330
65,-68,-84,215,270,-396
20,-12,52,2487,1855,-3075
6,5,42,2178,2634,-3516
22,-18,4,2682,3589,-3927
-11,-96,-32,3340,2672,-4144
95,-24,-12,1984,3418,-4787
126,9,-39,1610,2589,-5450
112,-89,-45,2724,2431,-6355
-112,11,-41,1595,3096,-6426
-25,77,-43,2931,2599,-6910
-122,-106,118,1978,5076,-5071
-120,-104,73,1749,1705,-316
-78,-49,-82,-817,-1166,3673
14,-4,25,-5125,-9742,3420
58,-56,-10,-5035,-9034,64
44,-82,91,-2396,-9811,4320
24,-15,64,-12436,-6502,1633
3,-93,-79,-2207,-2658,-1162
79,-126,-118,1947,-253,-2866
-102,-54,-127,3359,-3088,-6099
71,113,42,2089,-4090,16
65,81,-114,-1128,-2289,-92
85,26,34,933,-2034,-492
-48,-39,-56,4338,-2274,-311
-75,-98,35,3822,-604,53
-79,-95,-106,3892,630,623
78,-16,66,1553,-325,1111
-118,-95,103,1207,623,1154
104,65,-38,2724,700,1272
-122,91,-103,2304,171,1018
-100,72,-98,808,528,684
-121,34,-101,430,126,623
115,-1,-105,192,-155,301
105,-19,-88,-306,-658,185
122,-59,-29,582,-308,-25
124,-49,28,1347,628,-573
101,-57,-63,-476,517,-708
75,-109,-104,-34,325,-538
65,-126,-95,259,440,-466
60,-117,-106,118,239,-359
64,-116,-93,195,144,-224
118,-33,77,1842,2043,-3379
12,-110,-123,6080,2865,-4643
-102,116,-97,10240,1799,-5223
0,-4,-108,5744,6068,-7630
-20,-109,-1,5566,3651,-11204
83,-11,100,5993,1708,-14001
9,-89,-36,3967,3980,-8738
85,33,-79,3488,2403,2249
7,88,127,348,-416,3279
-15,-101,13,-1828,-6715,6171
-39,-87,50,-1297,-8710,-1702
85,4,125,-4941,-9572,4853
8,-82,-90,-6552,-10243,3721
73,89,-110,-13764,-8654,-646
-7,7,122,5086,-132,1404
15,108,94,4253,1250,-6397
-13,-83,20,9126,-4829,-4247
-29,17,-60,-979,-3563,2330
-117,-109,88,-1669,640,-703
68,-93,-82,4204,-1153,472
67,-20,86,4708,-2586,1056
114,-86,115,3289,-1700,1872
-52,-85,-114,3125,29,2544
0,68,76,489,524,2424
110,0,-20,2105,-863,2521
-103,-15,-32,1492,130,1112
6,-115,-91,623,535,1409
-73,96,114,316,-424,693
-106,-6,-74,554,-733,503
112,-28,-42,196,243,-204
72,-44,-75,-1,-249,-639
45,80,48,4524,-1080,-393
81,-68,81,-1197,238,-460
40,-101,-122,-185,123,-198
46,-89,-100,-705,508,-366
24,-107,117,-375,255,-341
29,-110,-99,209,201,-264
36,-80,-40,-181,401,-456
40,-92,-70,-8,262,-375
56,-88,-89,-196,244,-265
127,-68,-3,5049,3894,-4825
-33,-44,9,7229,4160,-4795
-114,90,-67,1115,8457,-9256
-63,-100,-42,8222,8326,-9039
71,-72,127,3035,4968,-10932
-75,45,103,5231,4446,-9232
-5,3,9,3589,2059,-1690
63,-79,50,2260,1552,1329
-42,97,-115,2094,-1385,3587
-23,-37,-56,706,-2957,1874
82,-82,-92,-1283,-6002,3520
-59,-25,-7,-2960,-6354,2188
-93,-52,55,-5078,-11714,3489
81,-42,-118,-16811,-8308,-2783
69,-68,96,4917,2926,1365
-109,-48,15,4170,-5311,-3250
102,-68,-11,904,-3003,-1655
-18,45,-107,-2045,-2832,-1133
-79,-67,30,2360,-2926,-348
50,-49,110,-545,-2123,-386
98,-23,40,4407,-2995,-530
99,8,24,4288,-1318,500
-119,21,95,5599,-40,915
-5,124,92,4872,-936,2358
121,107,-72,794,530,1828
-19,-60,-59,1197,-104,1811
-17,-77,-94,345,-1322,1917
-73,-24,-52,-2092,-2762,439
43,-2,32,-2391,4174,-3681
88,127,116,405,-840,465
-10,99,122,81,350,-370
-40,-111,110,403,443,-445
0,-89,-104,995,93,-373
85,-54,-16,104,407,-552
50,-84,-56,52,320,-312
22,-98,-92,317,143,-348
41,-83,-68,257,257,-350
44,-81,-70,155,218,-417
48,-68,-69,39,273,-426
40,-65,-80,-3,183,-391
29,-27,-120,3861,1871,-2336
106,-80,112,4660,3063,-2745
24,-86,-8,4534,2223,-2922
84,-42,-64,3795,5520,-5229
115,35,-32,7674,3157,-6943
19,33,15,5504,1542,-10185
55,1,-10,5076,2196,-10260
104,88,-37,4158,3439,-9469
-21,87,-35,1657,1330,-2245
67,-83,-21,3164,52,2771
-111,-31,30,-711,-3195,1889
35,23,3,-4862,-6315,2853
-72,-92,-116,-4343,-8419,1134
-31,-57,-83,-7835,-8431,-3614
-40,74,-106,-9366,-7352,-2919
12,-45,84,4369,-5652,1859
-121,38,108,4935,1337,-2570
-91,-97,-94,494,-2937,-1786
-99,0,8,1390,-6962,-1496
-61,20,-45,4570,-3232,-783
37,123,-126,1204,-1157,-232
-22,60,-43,2505,-985,991
-31,-126,91,3134,-2285,1434
31,-20,49,1923,-2029,2013
-118,-29,-34,1221,-1928,1638
14,-68,-82,1196,-895,1428
16,-121,-123,381,-2452,1671
63,83,1,6117,1963,-4065
-24,-102,113,-1061,10,-265
-45,-66,42,-1145,756,-191
126,-127,44,1183,306,-114
-4,-42,-65,1371,-8,-407
65,7,-58,465,647,-655
57,-29,-54,-31,816,-495
23,-77,-47,-122,642,-244
13,-68,-77,-295,527,-146
15,-67,-87,-104,365,-210
26,-73,-88,-6,360,-151
33,-68,-78,381,138,-292
49,-54,-70,427,133,-364
26,43,-87,4180,2310,-3036
-109,-28,-18,7240,3647,-5551
-100,93,52,6013,4040,-7061
-119,-92,-67,4007,2033,-9886
-80,-26,-95,2001,2822,-11464
104,-125,-90,5138,-1666,-6087
-120,-65,-49,2240,-2818,-1931
69,-126,18,1364,-2121,423
-47,90,-31,109,-1896,307
-124,20,-44,-3129,-2196,2144
-55,-54,-115,-3994,-3391,3289
50,-11,-96,-12903,-8466,390
-115,62,81,-10711,-9568,-6747
-62,20,-38,2241,-3102,2066
5,20,72,4757,2289,-5771
7,8,-10,12542,-6087,-3748
-71,35,-123,-2494,-5329,2325
-46,103,17,-2582,-1944,650
-73,-36,106,2879,-2077,649
115,94,58,3971,-2342,1360
-119,-56,-61,2980,-765,1677
-109,-22,6,1578,525,2474
116,-118,116,-1382,-3182,1074
92,62,-5,27508,-11032,-30
59,39,14,-9762,6907,-3482
83,89,-28,-337,1099,-92
-42,-98,59,-1390,835,-669
-47,-127,89,449,859,-424
-6,-116,126,643,486,116
67,-70,-46,244,699,10
77,-54,-18,174,334,77
94,-20,-25,-99,416,-77
115,-1,-38,-1235,1012,-384
87,-29,-54,-1018,1020,-668
54,-67,-63,-112,456,-516
54,-69,-53,327,24,-218
64,-20,-33,-65,158,-178
79,-5,-23,-355,474,-339
90,-20,-33,-125,405,-333
82,-16,-34,-114,106,-356
52,-4,111,4960,3200,-3462
7,-66,-70,8380,6151,-5015
36,56,-108,7298,7520,-4024
68,113,54,5932,94,-3785
-30,-99,-93,5065,-2417,-6903
-25,-47,-28,4496,-2647,-7766
-106,-15,-107,3012,-2019,-5395
24,72,78,2899,-2337,-905
97,-108,13,2547,-2545,49
22,-65,81,-1260,-2973,314
-3,104,-117,-1565,-2444,1999
-35,-112,102,-1274,-4467,2167
-61,56,78,-2643,-6406,2753
-23,83,2,-2246,-9285,4884
-91,-107,112,-8736,-2282,1569
-113,12,81,1533,-1019,-793
-118,-47,-36,2771,-1971,-2139
71,104,-92,-690,-2522,-2562
-16,-86,-49,2008,-3473,403
109,-52,-14,-1384,114,-779
61,86,-51,789,-1653,-282
21,42,-76,2401,-2137,-111
36,105,-111,2955,-1803,713
114,-126,63,3059,-258,894
74,104,-28,3119,-584,1732
-17,-60,-23,1494,-328,2605
65,-72,5,1120,-329,2652
127,-43,37,1401,-585,2342
48,-76,41,513,-858,871
-66,95,71,227,-306,194
-116,37,-2,732,-537,-454
124,-11,86,3921,83,-1083
72,-85,-49,1558,-441,-119
69,-58,-85,-714,187,-572
62,-95,-119,-1360,1384,-431
60,-116,126,-777,1148,-390
71,-119,-119,-408,695,-53
86,-88,-109,-106,325,-104
86,-68,-94,14,55,-183
79,-59,-73,259,17,-361
-57,-44,-111,4441,3329,-3067
53,100,-81,7411,3171,-4760
-16,-70,-47,9412,6098,-6883
-3,-23,-76,8588,942,-8383
-40,-12,-107,6210,-52,-11460
-89,-108,-84,7353,-104,-14169
-118,-123,-109,3920,5041,-2126
32,-45,-46,4420,2481,2828
-125,34,-86,-5410,-6554,4175
18,34,-69,-3264,-8430,3087
90,97,-91,-1935,-8163,6946
75,104,70,-8514,-10534,5185
-57,32,109,-10652,-3683,1813
0,-43,-58,4202,4126,-104
48,99,29,-1509,770,-5488
24,-2,29,4321,-5432,-1300
-41,66,-87,-1297,-3144,-890
-16,0,-32,-310,-2677,-1538
-91,-108,-25,3991,-1360,-1414
-7,-48,-103,3207,-2014,162
-41,-30,-110,3702,-799,1239
27,34,-16,3493,-606,1966
-51,77,-82,3203,-376,3571
-5,15,95,2010,-706,3376
-84,39,-16,1206,-1281,3419
71,-40,-69,2397,-1115,2513
108,-42,-41,973,-462,1808
37,-85,22,-519,520,249
-55,77,-37,-518,-674,-427
-108,-2,22,1339,-1237,-696
-108,42,82,-2086,2737,-1560
-44,1,35,1103,-952,-40
-16,-105,-54,345,299,-402
27,-78,-90,72,-64,-375
29,-52,-73,-436,245,-374
18,-101,-55,366,108,-261
46,-101,-63,920,148,-506
88,-108,-59,1045,366,-276
8,-16,-33,-275,350,-369
5,-47,-61,-53,215,-469
116,103,116,4736,146,-3119
51,43,96,9985,2914,-4793
50,103,-15,6580,3895,-6502
-89,-70,15,4549,1382,-6455
113,-98,-108,4694,-2254,-9312
-5,-98,-112,4367,-3613,-12348
-5,118,6,2953,-2271,-8806
-91,76,43,2071,2869,-3816
-128,-80,-124,3019,1014,-484
-57,-123,-9,-313,-1438,2642
-64,29,-2,-769,-3481,3318
94,-48,40,-2731,-6651,6215
58,30,-62,-6400,-8591,6602
-6,-60,-56,-4755,-7356,3270
38,-11,121,-8340,-1995,3141
82,21,115,582,-1221,-1747
32,11,126,2020,376,-6000
-55,-86,-3,7438,-5996,-1626
-103,-4,-128,482,-3350,1645
-97,-87,-12,-934,992,818
114,-15,86,4630,-572,1381
-80,125,-18,4016,-1272,2160
-120,-22,-15,2869,-261,2321
111,-75,1,2231,-327,2316
82,-128,-18,2033,-43,2415
18,104,-76,2189,-75,2085
-27,-119,-51,550,-303,1020
-119,68,-60,686,77,354
-114,-19,-44,1052,-47,554
-88,-46,-23,782,222,430
-85,-22,-61,-114,495,-373
99,-70,-44,140,65,-1235
61,50,-74,1818,264,-1011
51,59,-75,1176,130,-987
46,43,-76,531,260,-749
37,27,-104,369,429,-337
47,42,-109,-32,232,-63
62,98,-91,-312,-205,24
70,113,-59,92,198,-70
79,-112,-59,28,353,-293
19,116,-41,6979,2429,-4138
-53,41,-31,4783,484,-3078
-71,-16,7,1266,4260,-6037
-14,-13,-15,9485,2525,-5499
-30,109,-80,3914,4092,-10450
-74,118,-20,6372,1589,-13079
-38,-53,50,5281,2214,-7360
21,-80,94,6377,937,347
-127,-24,-107,-1174,-4946,2719
-5,117,-42,-1781,-5477,4314
-107,124,72,-3486,-7794,6161
-128,-91,-112,-7356,-11057,5708
54,30,38,1796,-6879,3482
-61,6,9,-2623,1389,1177
-68,-13,-80,-1947,-1279,-2902
-52,-51,-106,1550,-3591,-2237
87,41,-102,-607,-5303,-749
-3,-17,24,2410,-2657,-243
50,94,-64,2033,-1658,-750
108,31,-90,3632,-1504,1680
5,-19,127,2277,-568,2173
39,51,42,3512,-26,2383
56,-66,22,3558,-1349,2786
87,16,70,2277,-412,2386
-31,101,8,1836,792,2011
-44,14,-81,1817,-81,2623
12,78,-51,1867,-162,1032
7,96,-82,1110,-59,-765
-48,-42,-41,35,217,-1751
60,-103,-63,-358,725,-1426
30,89,-102,23,913,-1510
45,-19,110,751,707,-711
42,29,-122,20,-367,126
72,106,-80,-804,38,150
106,-77,-36,-1477,726,-417
75,-121,-80,-102,724,-762
72,77,-83,1006,-84,-339
58,-102,-59,16,-322,11
60,-55,-44,-480,517,-404
80,-109,-51,316,549,-170
42,-120,-79,5358,1067,-3983
18,84,-89,6670,4260,-8822
98,23,49,3615,5243,-10025
-46,101,-111,5143,4223,-10196
1,-88,32,5361,5121,-10843
77,-48,-31,3651,2625,-6604
67,-30,87,3973,2798,147
-28,80,-80,2721,-873,1659
-4,-76,-60,-106,-1997,2861
-7,-79,-87,-2099,-7525,5137
19,-21,65,-7419,-10681,4658
114,13,-12,-7918,-9995,513
-30,105,-87,-3482,-4870,4689
-68,-5,-77,-383,811,-2258
62,-101,-76,1370,-25,-4795
125,25,-5,4232,-4225,-2771
56,114,126,1696,-3966,-159
-117,69,38,-692,-1267,132
-14,-41,25,3415,-1998,295
83,83,39,3511,-2082,1778
-118,0,-15,2845,429,1470
-72,-28,97,3268,673,1998
-117,-39,-3,2005,170,2371
-108,-55,49,1881,-175,2065
-81,27,-22,3300,750,2176
-13,49,-92,1589,1366,2179
-42,-22,-92,885,248,1790
-74,-94,-52,656,-1087,1366
-92,-83,-57,978,-584,844
-109,-63,-22,666,-81,290
123,-57,-47,636,634,-148
114,-121,-84,1431,367,-476
105,81,-94,1696,-197,-253
96,115,-100,879,118,-289
52,-113,-104,-3,172,-716
36,89,-73,449,-51,-787
66,32,-57,824,110,-377
77,90,-32,-407,7,-356
53,114,-30,-321,169,-783
39,70,-31,231,323,-720
123,-53,-24,8086,838,-3363
-55,-22,64,15088,2265,-6888
126,-38,-92,999,5306,-8726
-127,58,-57,8774,1022,-8345
-111,-79,-60,5146,-690,-11716
-65,10,24,4546,141,-10678
-14,-99,88,4785,1246,-3738
-57,-6,24,1828,2618,1463
66,-83,52,1614,-1076,2515
-64,48,8,-401,-1641,3045
-32,92,33,688,-6334,4757
14,12,6,-3270,-8327,4577
-85,26,84,-1651,-11095,5245
-92,-72,12,-4456,-5233,5267
78,123,-82,-10767,-2634,220
-51,119,-74,6540,1723,-4488
-105,-101,52,4247,-6153,-2860
98,-6,-88,762,-4887,1307
60,-19,54,-5350,-1097,-446
107,-123,105,2015,-2646,-185
-128,5,-20,3587,-2772,381
-69,69,-60,4659,-742,643
85,-115,-76,5066,1090,744
20,-19,-4,2325,1555,1877
106,-73,-12,2324,-51,1504
113,68,-19,2965,-714,2167
-77,-120,-42,1148,356,1500
-43,111,-38,1327,-411,1545
-89,79,-17,402,334,403
105,-44,15,-483,-394,-504
26,79,13,1192,-1157,190
42,118,3,3071,-416,573
94,-34,100,1645,564,-799
62,-114,-91,-88,27,-271
76,114,-84,-1080,778,-79
54,-107,-67,-1542,972,-42
52,-87,-57,-1465,1045,-83
65,-88,-69,-453,756,-300
71,-91,-45,313,318,-646
98,120,-50,1112,189,-589
76,-103,100,6129,986,-3040
23,67,-53,5729,2115,-4254
69,-63,46,-332,2405,-6564
-47,58,-54,6230,3734,-9723
86,37,67,252,5472,-12520
92,91,-18,4994,4862,-12506
40,45,107,3494,4057,-3704
39,-128,-46,3902,862,-314
-14,90,-92,2383,-4616,2687
-23,-61,81,-852,-4884,3107
-18,82,-88,-4106,-9340,3467
-69,79,-119,-986,-7883,4259
123,-73,-69,-3930,-6274,5211
75,-60,-125,-5717,-56,3448
36,-107,81,1372,-848,-2651
36,93,-69,1941,-2284,-3365
20,-90,115,854,-2517,-1339
-96,6,-49,-1031,-2404,-152
73,-5,67,1636,-1792,22
27,1,12,4390,-1488,948
38,44,85,3167,-984,1535
-30,31,85,2946,-553,1993
-71,88,81,1926,-817,1761
-73,1,97,1755,-581,1881
-102,106,82,2607,-311,1732
-69,80,-27,2158,464,1847
-54,96,-67,679,700,1222
-91,-7,-68,361,196,1114
-112,-77,-55,393,-346,945
-103,-61,-31,325,-164,378
-102,-57,-34,514,-5,-218
-123,-119,-34,1483,356,-617
100,120,-90,1481,328,-584
66,113,-91,131,426,-695
82,85,-107,-13,529,-239
100,127,-76,-911,449,-193
104,-112,-73,-358,758,-330
104,-114,-96,385,674,-751
83,94,-121,1132,54,-704
69,101,-96,572,-283,-491
112,51,-74,4947,1678,-3336
114,-93,83,7271,2614,-5201
-39,8,79,7859,3359,-7354
-30,36,-40,5558,749,-8999
58,16,15,3443,392,-10499
44,-1,-1,6789,248,-10484
-61,118,114,3680,-488,-6287
117,-30,121,1178,3096,-399
9,-113,120,3039,-432,1826
69,125,-54,165,-1776,2244
77,44,-97,912,-3393,2290
-125,-63,-120,179,-4604,3041
18,-117,76,-4896,-6212,4761
-112,36,50,-9257,-6378,2226
51,83,-50,-3205,-8222,866
-125,68,52,-1939,-1373,2932
-14,-69,-18,4987,-2710,-2372
-19,59,30,-1609,-1537,-4776
-103,-99,-2,4385,-5257,-1470
51,-21,-80,-675,-4562,1198
33,63,-80,-175,-1570,-93
-11,-20,-87,3713,-2468,391
-45,-37,-114,2931,-1756,1108
98,9,48,2558,1902,726
108,-51,-91,1985,-274,1186
119,-61,107,968,-402,1459
48,-43,23,492,44,1016
68,63,52,1114,-390,1147
-126,19,-6,2301,585,1074
-110,-2,-84,2724,645,672
-96,-56,125,2439,37,843
-94,-9,-52,192,-980,662
-104,8,10,-1084,-140,-309
70,-70,-6,407,49,-955
57,105,21,1938,30,-467
58,-106,15,751,580,-335
48,-99,-53,222,18,-359
75,-102,-24,-68,360,-392
82,-96,-54,-365,467,-403
81,-100,-71,-305,545,-489
-120,-121,-43,8394,-295,-981
55,106,0,9953,2602,-3279
45,82,51,8579,1909,-2565
37,-53,124,4000,-201,-6072
-86,4,103,5073,-3941,-7101
111,124,-17,4257,-4167,-9485
-84,11,123,5092,-4456,-9408
-22,-36,76,3524,-1470,-9852
118,-52,43,3348,3190,-1264
68,-23,38,1621,1721,4737
32,36,-44,-1049,-5441,2000
-67,-125,84,-3929,-8006,4300
-49,104,65,-6240,-12425,4899
-107,-105,-123,-8446,-10107,2802
19,94,57,-2763,-2188,4253
-62,100,54,3137,-518,-1041
-2,-116,-54,-4770,2203,-6151
-3,115,0,5433,-3077,-2932
-27,-83,93,650,-3006,-291
-58,56,36,-1237,-2871,-582
28,115,44,3826,-2618,248
-49,-33,-113,5602,-3001,1177
-86,-52,119,3698,-220,2148
-70,-125,-90,696,892,2899
16,0,-127,2006,22,2374
10,-75,-6,3067,-68,2465
40,-38,3,720,-899,1432
14,-48,110,-1829,-353,281
-92,76,60,733,-830,-760
-124,-17,-49,940,1155,-1394
68,-106,67,-353,408,-682
10,101,115,689,-856,48
15,-82,-80,-21,316,-353
34,-65,-29,553,783,-482
60,-91,-42,934,1003,-370
49,-99,-85,925,-563,-220
54,-89,-30,1300,58,-157
76,-65,-39,863,247,-106
89,-49,-45,-259,537,-277
92,-58,-53,-709,458,-439
