AccX,AccY,AccZ,GyroX,GyroY,GyroZ
-116,59,-56,-4265,1301,-4322
-38,120,66,1883,7532,-11976
-77,-28,65,12719,1457,-10449
127,-89,113,3147,12411,-5701
-15,-100,-70,12514,6629,8501
14,99,73,-4952,22061,575
26,39,40,-21721,10470,17087
-78,-52,90,-3064,-13772,-6531
7,-114,22,-7693,-10792,-18406
31,56,82,-11633,15698,-12028
-36,47,77,12530,8759,13039
-108,0,89,-7281,8559,14410
-92,-58,108,-3839,15663,12524
8,19,64,-5340,-13955,-18630
-112,-5,88,764,-18290,2381
-127,98,57,-5696,-10597,-13019
90,-53,101,-5281,-5548,-6318
3,-19,125,-1215,-9326,5830
96,36,45,-6017,-2351,-3041
7,86,70,-3009,-2108,-6339
61,98,-70,-496,270,-292
-16,-117,6,698,-875,1286
5,-1,-118,-70,812,4079
-33,65,-112,4830,1802,7695
-44,-27,-33,1452,3408,8540
-3,13,64,-4179,4581,7837
-65,43,49,3994,-2098,4414
-72,-116,-101,-4304,-2421,6338
62,-124,58,3619,-4074,1557
77,-103,84,2756,1143,-3576
118,4,64,-4047,2753,-3771
-76,29,-24,-2510,953,-2616
83,-49,34,-1157,497,-980
66,-32,14,571,-57,-69
98,8,8,931,-23,141
-116,70,35,-14,95,-141
-109,90,70,-891,239,-501
-118,70,-109,-260,788,-598
107,28,88,528,-136,-132
119,56,52,235,81,57
0,123,-33,6754,5694,-9471
-4,-9,78,17604,2229,-10990
15,74,-89,-3123,18786,-2988
-64,5,117,3946,21740,9177
53,-20,116,27972,-9686,14983
-19,-97,-73,-5184,-6378,-28104
61,-10,-58,-9516,13262,-352
17,21,122,10516,6018,8570
-57,-118,-82,-3408,9979,10582
82,-50,-77,3807,6958,17240
-116,5,-98,-7642,1342,-5759
78,-65,82,-4625,-7298,321
-15,-61,114,-2616,-7636,-9605
-3,-54,11,-572,-10423,-9774
-2,89,87,-3250,-4989,-2654
-125,-77,-40,-2507,-6583,-2491
-18,-80,-84,-3413,-1294,-1054
-119,-80,-59,-3884,903,-604
107,-66,63,2659,-144,300
77,-83,-86,-1866,740,124
-88,-103,25,80,-370,1106
-89,-34,-59,-1119,663,-79
36,118,-63,-2281,2394,1708
88,107,21,-1053,1639,3201
66,34,87,-1763,1792,4084
36,-74,104,-1032,1093,3709
-126,3,-36,-3731,547,4246
69,-71,-29,1171,-814,6554
-115,-104,77,-175,-262,2999
25,-80,44,-1677,-613,1176
65,66,97,-1514,-1257,-227
-91,-37,74,382,-544,-847
40,125,35,2066,-519,-981
12,87,-113,2010,1477,-602
-55,87,-16,-131,-564,-128
-46,62,-34,-591,-127,-418
-29,43,-51,-804,1041,-817
-9,-1,-74,-405,1479,-784
-81,11,-126,-345,603,-865
120,21,-66,-816,-374,-973
16,-112,23,3292,3820,-3818
15,-128,92,12109,2093,-9055
39,36,121,3907,3349,-9514
-110,-27,106,-7486,12815,-6664
-17,22,73,920,17784,8266
-52,-5,-65,-26769,8131,9683
63,-59,77,-4210,-20144,-2341
17,36,13,12,-4307,-11000
28,-82,42,1632,-3688,-12476
7,-5,-72,5159,11511,-5566
-102,31,29,-6428,16937,2151
-42,52,-8,-9857,2930,8136
15,-15,-116,-8106,3077,15028
108,-94,-97,-229,4649,-75
-99,103,24,-4679,-7993,-8728
110,-43,23,-226,-8742,-4328
-52,119,111,-967,-9676,-8366
-109,-93,116,-2435,-7708,-7807
-57,-66,-83,-1579,-4181,-9098
-25,-56,47,-5321,2040,-5989
110,29,114,-2843,-5946,398
27,-23,-21,-92,-1612,3015
-23,4,-85,-3021,-3504,463
-33,125,-112,-5596,-1260,-2922
99,70,-110,-724,-1035,1662
22,-51,-26,1795,-3057,3343
26,-47,5,1431,-1119,5593
81,-124,-37,-466,891,5701
-29,114,52,1527,-563,5607
-54,-58,-111,1739,-1863,5300
-126,21,-7,900,-5198,4106
-106,51,-97,-7025,1684,2599
17,48,123,7473,-1397,-959
-94,127,-104,7894,-2161,-2747
-23,-100,-1,-1434,-451,-66
-127,110,-68,-3079,-129,-1618
123,14,-49,-961,1104,-1036
-126,-41,-76,437,1452,257
-97,49,-98,-88,928,159
-83,108,-45,-1471,187,-962
-104,-88,27,-5757,3097,-6582
-33,98,3,14943,2831,-6585
103,-47,-79,9472,-3238,-10065
-22,90,-55,-897,10166,-5521
-47,-111,36,8756,11385,125
-33,120,-113,-5457,18796,5028
-31,77,-119,-16368,-16260,1746
-34,-118,81,-5219,-10113,-8417
80,-23,-117,1874,-1792,-13134
-31,10,-70,4690,6606,-3999
123,58,45,3025,10027,2509
-113,-14,-16,-7396,10120,5632
-128,40,-122,-6125,1938,11242
44,-34,33,-666,4818,10030
-125,63,8,-4797,1607,-2808
-45,5,-77,-871,-5470,-10957
64,-78,120,336,-11811,-3792
-68,-67,88,-3945,-7184,-6998
-78,-32,85,-3489,-4929,-8963
64,50,4,-4133,310,-8336
-60,31,58,-3571,-404,-255
52,-126,-126,-4709,-1432,-2555
60,-24,-14,-2373,-1909,-2997
-62,101,-106,-3098,-2278,-1843
-54,37,-8,694,60,-231
-73,-21,45,-813,-794,-148
113,63,-42,-803,-1784,303
-100,-36,-20,1842,-2688,3620
85,59,-23,3012,-2617,5568
88,42,-32,3731,-664,9686
-58,-44,-42,-795,1422,9563
10,10,-59,-1179,-2604,4625
1,-57,101,1248,865,2927
69,-25,82,-1506,-1757,-681
42,-36,-18,1159,-4069,-3402
61,60,45,1738,-1624,-1769
16,69,122,-63,5006,-1022
72,16,63,1620,-2484,1642
-77,102,-8,-45,-297,187
-51,109,-16,-1115,1097,-1049
-14,-56,-106,-2445,103,-4569
-65,-71,46,7269,2049,-6195
-117,-64,-105,11712,753,-9115
44,62,-35,3612,10633,-9909
-76,-89,-52,170,18754,2249
-36,-15,14,-12755,-805,7228
-104,-67,-29,-9878,-13583,9397
-47,57,-23,2959,-6078,-13377
5,74,15,-2862,-2168,-8358
13,-126,-53,2478,3349,-8224
118,121,124,4210,6754,-273
-56,-15,88,258,14637,2541
127,38,-33,-10388,10158,6537
80,19,102,-8749,-2013,12304
-124,20,109,6087,-2755,12246
-84,-42,10,-7695,1253,-15103
-27,-26,99,1792,-11135,-7716
9,37,-55,-433,-9115,-8199
-52,-40,36,646,-5558,-9545
73,-48,19,-6460,1797,-11673
-88,29,-22,-4389,-3705,-2080
21,28,56,-3250,-5650,-1148
-29,-127,-121,-464,-2544,-2186
105,-80,41,-3021,-1971,-2569
59,91,23,-253,-1699,-3425
-97,-8,-27,-280,-1433,-911
70,79,89,99,-3134,-4
-41,127,-115,377,-2099,1595
76,6,-22,2398,-2005,3585
80,-73,-58,3382,-594,4241
72,62,-34,1685,168,4016
-5,104,-18,910,-696,3963
-72,118,-48,2393,-2984,4148
82,-14,-124,-1770,294,1692
-4,-74,-110,2899,-168,3675
-127,-126,2,3872,-996,4376
-9,-85,33,1302,-2826,4161
-21,89,-70,-3455,-1070,581
104,63,-89,-3275,1001,-2035
-76,53,-114,500,1088,-1793
-24,-17,-115,9210,4208,-9063
26,54,65,9410,1904,-6793
-117,-117,126,1122,13875,-3528
-6,-13,-8,-3587,14777,7808
1,-11,101,-18329,-6767,7558
91,121,-92,2859,-11285,-3018
-13,99,14,-2004,-8192,-12181
-16,-109,-16,2228,3191,-7188
81,97,-120,6309,8521,-1708
54,-44,65,-2895,16294,680
1,51,100,-4757,8743,6718
75,23,95,-8918,-1300,12026
110,-22,72,-33,1120,8456
-47,71,82,-4217,-688,-12159
-31,108,-98,40,-12679,-9861
-10,-12,38,-658,-5113,-12757
63,36,-29,-1909,-7999,-12701
-23,-96,-47,-4712,4685,-7444
77,-90,-48,-4851,-5858,492
-59,49,-121,-616,-4385,-481
90,85,45,2182,-4763,-1448
121,-69,-97,-788,-302,-2778
4,94,-88,-2383,-2379,-1396
68,-36,0,752,-3285,1939
13,12,70,4225,-2562,4784
-107,103,-7,5272,1500,7914
77,78,-33,3312,3189,10119
95,-48,-89,-1665,-1860,4638
24,-21,69,-867,-122,5059
36,45,-14,2119,-4273,4088
50,-37,-111,14608,-12049,73
41,38,53,-2865,4329,-2986
-12,-67,-115,-2652,4521,-1672
-93,-71,75,-3148,2600,-1984
-100,101,40,372,673,-551
-105,102,82,1642,-818,263
-117,-38,-117,735,-1223,-56
-108,-12,-43,-779,-497,-647
-109,7,-8,-1602,357,-862
126,3,1,-1731,920,-939
-32,-64,-51,5235,1858,-6970
-68,1,-83,3736,2292,-10612
39,-104,-105,4236,3781,-10165
23,-115,62,6171,10583,-5213
-71,-66,-95,-1113,6215,2375
-102,-24,-75,-6721,14993,5862
-56,-90,37,-14210,-5685,15123
89,-35,-43,1585,-6718,-3386
-23,-58,-121,-4740,-14395,-15597
49,78,59,-1701,7534,-7647
-31,-49,-99,9607,6051,2808
-64,-24,-38,-7505,17971,3308
0,-95,-28,-8714,2397,12853
-79,73,116,7293,-280,2936
-102,-16,80,-3833,-3872,-3757
-119,91,97,-1268,-4582,-7525
-77,-19,-53,-691,-9054,-7866
64,119,22,856,-4054,-4547
97,79,-46,-3019,-4936,-10891
-90,124,-4,-2619,-2805,-7871
76,-13,10,1167,-8368,-2240
52,30,-10,-3475,-1794,516
53,105,109,-176,-2083,-523
-38,52,-123,-812,-1357,-1464
-128,12,-97,-687,-1482,1063
64,88,24,-1654,-290,1328
-64,71,24,4589,-580,6905
102,78,-118,-1402,2906,8512
-96,-39,-111,-3452,-1485,4024
-86,123,-40,2516,-3174,7306
-124,80,-21,1074,-480,4421
111,-111,1,1730,-4058,1619
21,123,-101,7290,-3360,2084
40,0,-72,4257,-1720,886
89,-29,-102,-3052,4445,-2058
10,24,99,-3414,3307,-2811
-37,-118,70,-512,1366,-1523
-106,-117,113,810,-486,-345
-108,-61,-95,1076,-1287,-293
-95,21,-4,-664,-267,-1129
-97,-112,7,17744,-298,-11606
-79,-65,42,1339,7421,-9665
71,82,-78,2255,19510,317
-73,104,-53,-8638,18906,3051
-4,-84,114,7572,12016,-5021
51,49,-102,-5035,-8431,-8373
-104,125,-117,790,5546,-4392
126,-55,-21,4822,3792,-5438
-35,46,-16,6820,11683,-1309
108,-61,34,-1453,14415,3391
-52,-23,120,-7924,3907,10048
-4,17,-59,456,4905,6320
124,-86,-18,-1978,-263,-5362
-95,-122,-38,620,-13484,-6469
30,-1,-63,-4250,-8445,-10623
93,-1,67,-1313,-8632,-6805
66,127,54,-4268,-3417,-2530
90,81,35,-7464,-2446,-3117
-51,-18,-3,-4115,1680,-2994
48,-119,-20,-673,-3093,191
82,27,87,-871,-532,-2684
101,-51,-70,-3632,-2740,-3740
66,-29,101,-395,-1939,517
103,125,-46,2046,-1510,2167
68,-22,-90,2044,-1470,5767
-105,78,57,2772,21,6801
-73,29,-119,1114,1099,4742
18,-118,36,-3691,1692,3620
81,-127,25,1549,-3297,3060
-72,101,-91,-628,-1212,2048
119,-60,33,705,74,1973
77,92,41,-566,-1893,1758
-15,-9,25,1555,-222,2322
-9,97,25,-615,-403,1936
-113,-104,10,-654,-1164,329
50,112,69,-43,-1311,-595
4,64,79,872,-693,-700
-31,38,34,1608,333,-577
-44,30,-19,1046,450,-828
-75,2,-53,787,153,-967
-101,107,-24,3171,3329,-9135
-57,-93,-52,2563,5053,-9629
117,126,-103,8106,10524,-1963
-48,-67,63,-7228,13193,7777
43,-29,104,-15209,-11097,8239
-128,-98,5,4538,-9689,-4155
-62,-6,10,-1157,630,-11174
99,-31,-24,6461,3691,-4098
-22,-55,51,4600,12846,-938
-31,-60,-66,-3066,18507,7997
115,4,-13,-12064,-7933,11305
5,102,-75,-7137,1846,-3950
-46,56,88,-1560,-10667,-8058
-18,19,122,-2435,-4649,-14308
-78,64,50,-1014,-2363,-8637
-90,-26,30,-1049,-3400,-3181
42,126,14,-5010,-6762,-1029
-96,-34,-83,-2536,-977,-2678
-28,64,-24,-2341,-509,-4581
9,-117,91,-357,-2274,-1041
10,49,-121,679,-2918,-1177
-26,50,-103,-402,-2198,2671
-24,39,-27,2994,-3829,5337
-87,-45,-26,3531,-533,7267
10,-1,-35,-2446,2340,6676
-25,109,66,2635,-1139,5126
-54,-68,111,158,-35,2986
51,122,-21,1643,-460,3265
-95,87,29,518,-533,3036
-101,-13,-118,-2638,-628,1109
-26,-42,100,-331,-1303,-395
79,81,64,2899,-1760,-807
-17,18,8,3520,-996,-642
-68,64,-38,1495,-201,-474
-119,101,-41,-735,327,-931
-102,40,14,-1626,1023,-1393
-68,-70,25,-84,1373,-1267
-99,-112,-16,1134,521,-1265
109,-106,-50,1471,-154,-1507
76,104,-40,1051,-149,-1205
-32,-113,-62,888,907,-10046
-107,-89,-28,11169,-274,-10478
-54,-59,-61,3193,13153,-5348
54,76,23,2737,14336,1303
95,7,2,-24092,7927,10672
3,106,-101,-3430,-23667,-3510
-125,-39,25,-1403,650,-10832
-118,-103,27,8647,-1800,-7370
83,-93,-22,4883,7993,-3576
3,-81,-120,5125,12110,785
-52,-33,-27,-1701,9514,5243
-97,22,89,-5478,3274,13584
-28,-123,75,-4407,868,-1112
-61,-125,-82,-2252,-5264,-4833
-55,-75,-76,-4539,-8097,-12267
-58,-19,79,1944,-13498,-8358
-75,97,0,-1675,-7702,-7965
-125,-40,9,-8351,491,-3301
2,57,9,1598,-2739,-816
-6,0,-71,-3701,-1801,-17
-48,-60,124,-808,-6375,-289
-73,-85,-69,-4637,762,1418
73,36,-79,-2454,-1080,3733
-97,94,-91,1490,-3183,7143
1,18,126,-1764,1128,6879
93,-80,32,155,-3164,2687
106,11,-16,4636,-3470,8151
-42,97,62,3201,-709,6784
15,31,29,-4870,3433,1902
0,-2,91,-1148,-1956,-3898
6,2,60,4046,-2911,-3767
-26,-16,21,3662,-1357,-67
-83,99,-36,558,907,-375
-70,-124,-27,-2727,1571,-626
-57,103,-17,-2842,1494,-1123
9,71,-64,-4366,3425,-1632
-86,-10,112,-2531,909,-1726
48,70,111,2563,-1063,-892
49,-45,60,1489,-97,-563
48,-22,42,2224,475,-689
-64,106,-26,1514,2994,-9873
-81,78,-75,5388,-1805,-9777
111,-67,-21,2541,9480,-11138
-115,-93,-109,5052,11436,3382
107,-81,110,-8368,21900,6134
81,27,84,-15120,-10865,17523
-69,-12,108,-2999,-6859,-8352
-52,43,-36,2405,-10287,-9369
31,54,45,-3530,7994,-8661
30,67,-114,6858,4875,3066
70,-108,70,3002,10081,4426
107,-79,-57,3920,9320,7662
25,-61,93,-9008,10457,6524
50,-32,19,-5969,-10560,-147
-34,70,-127,-6495,-6338,-9426
-63,-101,92,-4735,-7892,-10697
-43,-126,9,-1959,-3892,-5072
-33,124,31,-2532,-4035,-5542
-106,-20,89,-4613,-1379,-6734
-64,48,96,-1864,-1010,-1357
122,-99,-51,-1468,-3955,2202
-110,15,-11,-988,-1696,908
101,-105,113,-1900,-753,2631
-35,-11,69,1546,-1145,4034
28,83,-122,1531,-834,7345
-59,68,19,-364,5543,6486
-61,68,87,3558,-6438,5991
43,-11,-54,2119,-3257,672
-105,-5,-12,582,3747,916
8,127,118,649,3604,1843
119,85,75,1296,-216,1040
91,4,-110,781,-2217,1264
-127,41,-78,630,-1388,887
122,124,-28,-722,395,-149
59,95,-53,-300,1617,-998
52,31,-88,636,800,-823
6,10,119,1460,-120,-1344
-36,25,-95,-235,-10,-1795
-67,-34,-68,-703,464,-1448
117,-90,-71,66,265,-1059
-66,-102,42,-470,4386,-8135
-119,16,72,6934,-1304,-9094
-101,21,38,1454,6463,-7816
-37,-98,-99,12117,7143,-2483
48,115,50,-1360,23158,1935
67,-107,12,-18483,-4792,10843
20,20,-49,106,-14172,-3962
-34,90,-63,-6217,-6854,-7174
46,88,35,5271,7504,-4891
-53,79,-39,10161,11724,-369
-7,-13,-80,-10391,16322,5780
99,39,-62,4190,-6705,20796
120,-70,7,-9830,7152,-6549
-58,88,31,-6222,-10133,-4932
-8,-58,-25,-2178,-6214,-12705
-61,68,107,-468,-15345,-8457
-90,-50,-78,-9464,-5627,-10742
-36,29,-96,522,691,-910
-37,107,101,-4503,-1876,1617
82,-112,22,-1407,2676,-159
-115,-1,103,-3385,2043,-1334
-8,65,119,-1172,-287,-627
-121,-113,25,1199,-2512,1591
76,109,94,-1915,-1109,3601
-110,-83,-87,977,-3157,6019
-83,92,119,-999,648,5862
-62,-97,-84,770,-676,4321
101,-74,56,1759,-2866,4764
43,123,20,-50,-1465,4102
122,71,67,123,-920,1969
34,-73,41,672,354,1495
-25,-34,59,-1947,960,496
92,-88,58,-41,-2364,-961
71,46,120,6033,-531,-330
-21,-117,-58,-1209,107,-974
-61,29,-92,-1795,753,-1220
-102,-35,-99,-735,985,-904
-113,-36,-83,-413,637,-625
-111,-18,-54,-696,236,-431
-90,24,62,-874,1110,-738
-124,-45,24,-2508,-4112,-3647
-98,53,-115,7616,5853,-11413
-100,-36,-68,17593,-117,-9126
93,-119,-92,-8920,-28929,-6835
-104,95,-115,27331,17439,12145
-90,-115,114,10166,-32679,-3478
98,-20,123,-26109,5903,-3339
67,-37,-20,17015,3202,-6638
-60,13,109,6180,6866,-4927
45,51,72,3319,14126,-891
-17,-18,-117,2135,9659,4147
51,-25,26,-8493,13589,7091
-7,-72,16,-1242,-5485,13670
33,-94,39,-2057,-60,111
-104,41,46,-6276,-9948,-10728
68,15,-17,-3615,-7463,-8321
-14,54,-108,-3227,-11677,-6661
-79,52,66,-1217,-7413,-5915
-124,65,58,-1409,-1066,-3778
-109,-72,-25,-4353,230,-3543
-118,-95,16,-1734,-3163,-1368
11,-44,101,-3160,-1518,-1372
-88,-100,57,-2289,-2296,-969
23,-104,-108,350,-2726,2459
-57,-106,9,-617,-330,4119
-79,52,112,1243,975,6763
-97,-4,71,2097,1703,6996
-14,-24,-77,-411,406,4506
49,16,14,2635,-182,5541
93,82,-40,761,-278,1968
101,87,-128,1744,-504,3367
-84,-24,66,1858,-1585,1500
-78,-127,-92,-216,201,1014
-69,116,-50,-2129,852,949
-126,-72,-6,-3103,30,-374
67,-124,34,-454,-166,-1113
47,65,59,37,3259,-2156
-88,24,81,-737,422,-825
-109,4,16,15,-643,-509
-105,23,51,97,-403,-473
-52,17,118,4987,-1453,-7110
-73,14,-26,2296,2605,-6956
86,-14,-102,10072,2975,-5773
-104,34,-31,8304,14548,-5460
66,111,82,-5794,23631,4574
21,-9,49,-13473,-18400,15795
87,-42,-21,-8467,-1920,-6950
118,79,-38,650,-7915,-6647
-63,54,20,-4708,-1213,-11606
5,47,-9,11248,9237,-1994
65,114,-25,-3295,16344,1830
26,-31,69,-2435,7702,9340
43,-44,-19,-2493,-430,6522
-80,38,-108,-4338,-2162,-3963
51,-21,-27,-4358,-11467,-7084
-26,114,91,-2443,-8152,-7968
-100,-47,-116,-2001,-10263,-1820
120,54,-37,-12486,-3884,-7951
57,68,48,-2223,3621,364
-28,-113,-8,-1993,-1056,-1272
-124,-77,46,-3374,-3729,2964
100,16,116,-29,-431,854
95,27,-95,-6894,431,3705
29,4,54,1214,-6000,4775
-79,43,-51,-1009,-659,5808
-112,24,-11,-1240,-1400,3623
-93,-52,-58,867,-1673,3917
3,-114,25,2420,-1056,1256
-2,-30,-119,3163,316,1516
-33,-34,3,2370,417,1470
-106,-90,-6,1095,-1200,1106
125,-87,37,147,-1531,389
87,-99,59,-13,-398,-776
-11,82,52,726,355,-1259
-60,19,27,1531,289,-1214
-95,-32,-33,1648,235,-1209
-94,-63,-43,1122,133,-1180
-109,-98,-53,759,113,-1064
97,-78,-39,-239,14,-877
83,-97,-26,-85,369,-887
-71,-10,81,973,-3449,-5898
117,112,-47,6923,1439,-8993
-64,55,38,2586,3188,-11079
-73,60,26,6861,8661,-2417
62,-86,-68,-2943,15236,1471
-10,4,3,-13147,4649,10951
-92,-23,36,541,-15783,-901
-49,-113,-116,-5077,-10850,-12161
-74,-92,84,-970,2365,-8712
-30,61,-56,7974,10114,-3420
-25,87,-46,-2182,16436,1097
108,-36,-22,-2343,8478,6873
70,65,93,-9153,-961,5634
-113,-26,17,-3339,1433,5568
-81,-35,118,-5900,-3568,-8115
124,-107,31,-2408,-11590,-10301
90,15,114,-3330,-7206,-7762
83,80,96,-1577,-3821,-8160
-115,5,-112,586,-4736,-2982
65,119,60,-4461,-4414,-6794
-95,-44,-17,-7681,3020,-7279
47,85,62,-2683,-2131,-2565
31,80,-94,1929,-2239,216
-29,-123,86,1259,-2122,755
-93,-16,-67,-3176,-1075,626
81,-33,-27,-4699,116,1979
-18,81,80,400,-2404,5834
-97,82,52,5613,-3503,8791
-19,81,-59,-1385,2967,6296
-31,-29,115,-552,-1412,4893
66,-15,-41,1274,-1411,7762
-85,-104,95,7817,-2416,6719
115,-80,-2,4472,-3492,4234
-21,37,-71,-3330,1948,523
-86,84,2,463,-1287,135
-26,19,40,1986,-3198,-1433
-37,65,-90,-1708,158,-1931
-81,22,42,-1454,2606,-2143
87,63,53,-1224,834,-1079
120,-14,-12,-1739,572,-932
103,31,16,-6734,1651,-1346
-17,114,117,6249,1218,-8154
-89,91,-108,13184,4384,-10147
33,-92,1,13915,1809,-2523
27,107,-40,5681,13222,-2618
91,125,66,-13021,19320,4168
55,65,-80,6232,-32674,-6635
25,-55,-63,-5015,-10328,-6423
108,122,71,-422,6438,-4171
32,-29,-25,6644,8452,-2795
117,85,-20,1785,11938,-16
106,-85,39,-363,9487,4180
118,-90,-88,-5909,9881,6966
113,-60,27,-6093,-4863,7664
-9,114,66,-10474,978,-2580
82,-90,52,-2870,-8491,-10382
-63,-58,-99,-2325,-10352,-9559
-98,-53,-114,253,-7968,-6140
-81,63,-90,-5364,-2518,-4358
18,7,-103,-3352,-2313,-3391
-15,67,-79,-3964,-713,-2527
-89,6,50,-1674,-2870,-1937
-110,-44,-122,-1952,817,-2324
-93,59,113,-648,-1325,-1158
-5,-62,-118,1695,-2291,2358
33,-28,-39,1695,-1350,3261
-18,19,45,1003,979,7205
1,84,0,562,5595,9853
-69,-42,56,-3187,-1114,6750
122,-87,28,1799,-845,7050
-40,-109,-78,-5076,-2658,4973
-59,77,110,17077,-9275,3545
-39,25,58,2309,-740,-5643
-13,-95,69,-4513,1526,-3125
-95,46,28,-2264,2797,-1149
111,101,3,-1265,2435,-1357
106,92,18,76,1351,-732
-117,124,31,271,16,388
-73,-14,72,-1296,-630,124
-44,27,-121,-2280,5,-879
-47,-23,98,6204,448,-8927
-90,102,-81,10899,1432,-12653
70,-117,-2,13945,544,-10814
111,67,122,-7844,22350,-5665
-38,-60,-87,-4268,12313,9039
-123,-116,91,-19585,-815,16952
-75,15,-110,-7614,-9238,-12097
-34,95,85,-2950,-7050,-9962
78,-57,47,1293,3728,-8803
-7,56,18,9369,7427,-1815
83,-114,-93,-2227,12606,3785
-126,-96,-108,-1004,10328,6747
29,-56,89,-5830,6099,9817
1,-60,-60,-4271,-4082,-1810
56,-9,-77,-4723,-10192,-8987
-14,13,-45,-1503,-10454,-5052
24,40,-51,-7561,-4854,-7748
89,87,-10,-3840,-5469,-5458
125,63,-83,-1218,-5498,-2071
35,71,93,-2651,-804,-513
52,108,88,-3100,-1150,-781
-89,-99,99,-1283,-424,-1270
-109,-94,-104,-112,-2402,-294
-42,13,11,-1151,-1121,1035
-97,-40,-54,-4622,-722,1661
127,49,-108,934,-2089,5258
30,48,-96,5400,-2742,8205
-103,-41,64,708,2894,6363
-20,-124,70,4042,-3485,7638
-85,11,-105,-3244,-1465,3743
-119,-13,115,-5570,-3151,800
115,2,43,16004,-4728,-671
-108,-78,-87,-3208,2125,-2545
121,123,-79,-3229,325,-75
-121,-48,57,-1699,1872,-312
-98,-49,97,-160,1483,-1122
-60,-74,111,564,1286,-794
-85,-26,107,-676,587,-948
-107,-9,-112,-1407,-253,-896
-126,-21,2,-892,-448,-740
-45,110,43,15,2869,-5448
6,34,114,11044,5365,-12221
102,1,115,9199,1917,-11093
87,48,-12,2276,12424,-5142
-106,-89,71,1498,11516,4565
-46,-15,66,30543,10681,15896
-8,-50,50,15261,29069,2886
121,115,-55,-11431,9813,-13017
-24,-103,20,5841,863,-8734
-1,-39,-63,7756,10818,-6783
88,17,-85,5708,7904,-295
14,-97,-112,-4204,11123,6546
-97,-117,56,-4130,4662,9129
9,-33,108,-5296,1825,7252
-30,27,-78,-4190,-1981,-3593
36,-123,-28,-2737,-11366,-14309
61,60,29,2045,-12053,-2524
6,-97,63,-7356,-8769,-3417
31,-116,5,-10275,-323,-4022
-71,96,66,-3732,-2491,-2009
-16,-9,-56,-275,-2165,175
-24,-77,-24,3438,-1138,-475
-92,-42,20,-6919,4599,-2622
-23,-19,67,-2261,-2250,872
-99,-6,-112,1224,-1912,4905
-125,17,-81,1530,-2527,6223
-78,-65,23,-1332,884,9835
-46,51,-25,-4099,-1537,7176
-18,52,-41,-1818,-5481,3400
-29,-83,65,22083,-18425,433
-78,-117,-54,2058,6114,-7006
-36,68,127,-1965,2310,-1514
-115,13,-44,-353,2757,-296
72,-73,-66,-1299,2485,-1077
109,-110,-20,-732,452,468
-37,-86,68,-612,-885,1806
81,94,-82,-1714,-884,1467
95,-89,-22,-1181,-77,-204
99,93,37,1912,1954,-1805
-33,58,-26,-186,-211,-1099
34,28,-90,-3555,2306,-2549
24,-29,-2,10585,1883,-6999
-37,-117,114,8862,-408,-10734
-107,43,-58,5614,7323,-9463
87,94,4,5939,11374,-5906
-80,-76,-70,-9710,14676,4356
55,-125,-21,-6027,-15755,16866
-93,45,121,-17342,456,-7489
73,117,-106,659,442,-11905
17,88,-5,14495,4303,-1331
114,38,86,-2316,14429,872
-98,-111,-29,931,10800,6451
-5,-88,94,-653,424,13124
1,-83,63,-13936,4962,-6262
88,9,-6,-2807,-10597,-8097
51,-51,-51,-3742,-9362,-8434
46,7,123,-4350,-10032,-6438
31,-19,-5,-9677,1754,-8713
-30,126,17,1586,-4738,-6091
57,-126,-27,411,-2375,1182
-14,-95,-50,-1365,-688,-2373
-1,-103,-42,-3161,-256,-2050
3,48,1,-1500,-2930,620
106,78,-22,-1561,170,1449
33,-51,-18,-2074,-556,2562
70,-103,-107,3793,-1210,4858
32,-94,11,4294,-1079,7705
-113,69,-72,-1609,2497,3415
16,3,-115,1091,-3393,5018
-115,-26,54,668,-482,3046
-90,104,-7,1793,-2080,2623
-19,97,58,-1292,626,1752
109,-98,-52,781,-208,1877
-116,-88,15,527,-1505,1309
-124,-90,27,-192,-433,254
24,85,-3,509,336,-1057
-96,1,-35,1732,-202,-942
-121,-28,-70,1012,310,-668
-103,-31,-75,-195,621,-451
-97,-22,-76,-907,784,-203
-29,-6,116,7308,-3488,-2012
-56,49,-91,-23,4743,-11573
-21,45,-46,14223,-8279,-13291
-65,31,-47,10429,-3154,-17392
6,89,4,-10695,19306,-910
51,-89,65,-6580,10863,12366
-4,-67,86,-15169,1090,19585
-26,-42,62,-9667,-449,-19190
102,64,-18,2270,-6031,-8300
-3,-51,-10,8301,6760,-5894
-87,17,71,1996,9727,2640
112,-68,69,-4231,12960,3986
-23,-19,-69,-8657,5745,18799
125,-103,-110,-7327,-137,-6192
125,-67,-68,-3126,-13702,-5977
25,-110,29,-3968,-7750,-9657
51,-46,-87,-1318,-5101,-5573
32,-114,-1,-4695,-2916,-4786
58,-128,-8,-1851,-1261,-5181
-125,80,-109,-2362,-1145,-3046
23,46,115,-783,-802,-1540
-23,-105,77,-1422,-2382,-1159
-87,-64,-96,-1697,-2617,-312
26,124,39,-1688,-2966,553
44,-64,-54,-1612,-1189,4037
92,-92,46,-187,-943,5237
-39,15,85,247,290,6341
38,-28,31,2466,-838,4018
-123,-5,-32,211,-1354,4712
121,122,126,2616,-1351,2829
57,72,-31,1819,-850,3204
42,-38,-57,-646,699,2665
-114,-46,76,-2610,187,2770
16,-11,99,-1042,-220,-407
127,116,75,620,-2576,-1742
3,35,26,2450,-1203,-1806
1,1,-106,41,2352,-1368
-118,24,-63,-330,-819,-657
117,16,-56,674,-414,-43
-43,65,49,-675,459,286
-124,-107,56,6477,-1577,-2019
-22,36,-43,7164,11102,-10568
-127,95,-26,3990,-397,-9942
74,59,-63,16001,-6261,-5364
62,107,75,-6695,12796,310
-115,-43,89,-1423,16369,5160
-15,-84,-74,-9379,15966,16066
-125,-8,-10,1202,-30988,-4031
15,-90,-93,-6238,-20180,-9188
121,-34,-118,-13473,10392,-13608
-86,-4,-95,17096,4545,-1231
-7,58,61,-9005,21169,-1914
-128,41,79,-6158,6562,14391
-121,45,-13,-514,-854,2019
75,77,25,-7815,-5119,-2527
-11,20,-78,-3084,-12527,-6955
30,-56,36,-4785,-8838,-12571
2,107,5,227,-4690,-5679
-35,-103,23,-793,-9083,-3568
-114,46,-9,-1828,-3255,-983
-45,-83,-62,-3021,-2545,-1618
46,-95,-108,-4313,260,-947
17,-18,-84,-5513,942,-2336
-50,84,-53,-3008,-1084,1042
-102,-81,-54,6152,-5945,7867
17,124,53,4125,-272,8342
-48,-19,-73,-1113,5820,6287
120,-44,-14,-1057,-588,5041
-1,16,77,1826,-650,4153
48,-102,-111,1960,-1937,4730
71,61,-128,727,-1703,1879
-38,121,-121,1781,-81,1212
-71,60,-100,1036,595,751
-128,53,-126,-318,75,441
74,57,-113,-590,-772,25
42,57,-114,-499,-756,-602
7,72,-39,1198,-47,-1660
23,50,104,-1034,2484,-1321
-116,-68,121,700,-900,195
-72,-4,-94,-120,258,-564
-19,-36,-88,-9568,985,-2257
110,-122,30,11526,2889,-14896
60,54,79,14768,-1353,-11180
25,-124,-110,1483,22376,-12602
-82,93,-110,3751,24269,-989
-35,-61,29,24999,-5558,15443
-85,-26,13,-18936,-5556,-5473
115,22,39,-508,-2872,-10547
72,-31,52,8382,4704,-6152
-43,69,5,12220,7361,-5216
14,98,-69,8514,10159,-4096
-48,116,-112,-2879,14809,6802
89,-45,-68,-3192,4588,8700
-67,14,-17,-7595,-2973,-5225
-63,-45,56,-4656,-15694,-5107
122,-13,15,-8610,-10761,-3905
-82,-88,-118,-11748,-7413,-9001
91,-108,-62,-6697,2590,-11965
65,-53,74,4966,-4846,3013
-86,-42,-33,-5440,1418,536
-124,69,121,-5283,1064,-4267
-37,39,-38,464,-1292,-2983
53,33,-69,2037,-2705,1090
81,117,115,-2452,-556,762
76,-121,89,-1161,-1587,2281
105,111,54,3387,-1159,4023
78,31,-5,3165,-193,4693
-49,-121,-109,391,2569,5042
82,-61,70,-75,1327,5312
-42,-1,-114,-161,-1689,5223
-60,-32,-27,1421,-1695,6757
-61,-121,-79,5744,-4121,5087
31,108,-32,176,-418,2182
16,-14,44,-590,-521,723
-104,-122,70,1582,882,-451
-100,-8,-91,2637,-530,-1222
-109,-35,-111,480,-304,-917
-121,-63,-94,-791,464,-759
88,-104,-72,-1525,932,-980
61,119,-93,-512,684,-616
-58,-73,101,-4143,-2461,-1085
-81,40,-125,8441,4303,-12008
-22,-108,120,13870,-4362,-14913
-128,39,-36,525,20584,-14920
-116,-94,-69,-14522,-29047,1794
84,-105,-92,3731,8965,-5260
-20,-54,12,-15162,1964,-4644
-106,-33,62,7215,4228,-7167
-64,33,-87,8766,1771,-4273
94,-111,-78,2610,13693,-2325
72,-18,-62,1929,11478,5881
125,-71,-59,-6583,11931,7914
-91,-9,0,-2774,-1949,5543
75,54,-109,-6119,-5098,-2164
25,83,-57,-5555,-15818,-4235
79,45,72,-8569,-6499,-8032
-112,52,-112,-8440,-8507,-6796
-92,1,120,-3376,1465,-5737
-126,96,-70,-1464,1254,-2902
73,-90,-32,-4009,186,-4055
48,9,109,-1980,-44,-1663
-122,104,81,-154,-1311,743
18,-115,-63,-763,-1165,35
3,-29,0,-1750,-802,1534
18,53,-9,223,-528,3181
-116,-32,-61,2055,-1568,4922
85,20,-90,222,-103,5128
124,-83,-101,-454,-376,3771
-113,-107,8,-1083,-32,4941
77,111,17,-30,-2820,4601
-126,93,-92,-3289,-3220,4676
54,-33,-122,24,-1247,1433
-105,20,-103,2439,-1335,2257
-106,-54,103,248,572,1017
-55,-65,110,3833,1092,-2319
-10,49,-12,3089,-1424,-1365
-57,13,-47,100,82,87
-114,-10,-115,-442,495,-597
-89,-16,-93,-974,476,-540
-60,-22,-66,-686,847,-440
