AccX,AccY,AccZ,GyroX,GyroY,GyroZ
89,-37,-7,-10261,4250,1098
-120,-127,-2,6395,-2404,-4619
-10,-72,-104,-643,-1625,262
27,2,-67,-1894,871,-569
-33,-83,126,-454,1874,-835
-68,97,95,1108,944,-215
124,111,35,1722,-336,240
-106,124,36,1780,-938,917
-5,-69,74,803,-29,1531
96,-55,85,798,1472,529
-74,-89,-114,5201,1219,594
-80,30,39,4699,-735,2408
114,-89,45,2713,-1581,2551
-87,-68,121,1180,-311,1199
121,-80,123,704,550,1042
123,-111,103,838,19,1636
-81,-68,-121,70,-700,1930
-66,21,-54,-1308,-860,1484
-63,93,83,-1984,-772,927
-92,118,118,-335,-389,688
123,-80,74,173,13,-436
23,-32,50,1291,904,-2471
54,-71,46,584,876,-1350
-49,-38,-71,346,1180,-2855
-118,71,-74,-248,466,-4066
112,-25,-86,-615,-827,-3517
69,-77,-21,-177,347,-3453
49,-83,38,24,535,-2618
8,-37,30,-11,601,-2297
-114,-12,-28,1357,-67,-1485
78,108,-31,1093,-19,-1427
100,127,-26,1155,827,-944
103,85,-46,1443,1512,242
-59,97,-24,286,1889,-209
-82,-46,-66,1745,2680,1811
118,-36,-87,-922,2455,1224
-91,10,-58,-2110,1645,253
-107,-21,-47,-2746,1221,-891
127,-63,-23,-2637,-145,145
-116,-35,49,-2247,-796,-94
-119,-66,90,-4885,-648,2115
-96,-3,61,-4635,2925,-768
54,-50,-53,5018,2436,-960
-5,70,80,3265,1645,-3043
-20,-38,-13,1412,-498,-2907
69,-3,-61,1147,-168,-2367
-1,-127,-124,-2663,1335,-2214
-77,115,-31,-1855,1452,-3308
-62,93,-20,-891,-604,-2290
123,-84,81,-748,-1097,-1011
122,15,-87,-1172,-684,-424
87,82,-53,-1062,822,-1192
-86,56,-53,-376,697,-2022
-108,-3,4,-453,-779,-1795
30,-46,36,-400,-1294,-2398
-54,-115,109,-804,-1100,-2244
112,103,-39,-1113,-466,-1349
22,-28,-21,-51,1308,87
29,-1,-61,-1497,1593,-33
6,-40,83,536,508,-480
39,79,55,210,630,-875
62,88,25,-410,980,638
41,33,-37,-2104,823,2752
107,-50,67,2850,-2352,80
-45,-13,24,-1996,2751,-1968
39,-68,-79,-736,1452,-1853
99,60,119,376,-418,-1052
43,28,103,-703,-400,-488
65,58,-92,-1708,8,185
107,99,-84,-1439,-275,-435
50,-8,-14,53,-966,-215
102,-11,-113,-1580,2963,156
69,14,98,-2626,7183,-15
-99,60,69,1148,1383,537
-77,94,-32,579,-4766,732
66,-97,-77,649,756,-1715
-54,-125,89,-3681,5007,-1313
-33,-77,-2,1693,-1060,-164
-45,-51,-20,-1516,628,-657
42,64,-117,-114,-95,-496
-5,-84,102,2846,2746,-4657
-40,-34,-101,4404,1732,-3119
-94,-15,111,2619,-468,-2534
-95,-37,-92,928,-885,-2189
-6,-60,-115,871,-544,-2285
-114,-70,-78,47,-939,-1563
107,-39,7,-1539,-699,8
113,8,28,-1968,310,959
-103,47,27,-786,971,1751
-5,100,21,-256,1310,2070
-103,-91,49,-1013,1109,2412
-96,102,51,748,1740,1983
94,-112,-60,1858,-77,2100
-65,91,6,1,-3164,1483
-32,95,95,-7,-1660,52
-62,25,73,1976,584,-885
122,-49,-35,2922,820,-795
88,-53,-106,2061,-299,-143
68,-23,-100,540,-890,249
54,4,-16,-529,-734,-42
72,-28,61,-467,-511,-74
85,-38,85,23,-14,46
74,1,86,-140,221,-386
68,-15,68,256,333,-814
124,-101,23,988,606,-869
124,-52,-3,-176,543,-379
-79,-41,-1,-443,820,-1125
-100,-100,-49,998,554,-1285
108,-113,-63,1260,74,-2175
91,49,-71,1595,42,-1931
69,21,-72,839,202,-1405
20,22,-89,232,352,-1094
-35,-15,-113,632,123,-499
-51,6,-106,502,-187,245
-33,33,-78,136,28,796
37,80,-45,-334,548,1380
104,122,-27,-599,677,1635
-82,-96,-19,-297,750,1774
-10,-35,-26,-17,488,1493
46,-44,-21,804,233,822
-103,11,92,1523,2859,-2750
-117,-41,-13,1295,3106,-2705
55,-110,-112,1407,1263,-2883
19,64,-86,1741,-282,-3937
-45,-65,-68,2039,-167,-4318
94,-118,-84,1214,-142,-3479
-42,125,-77,-278,-40,-1729
-111,-112,-104,-209,252,-250
115,-54,-122,-295,364,184
112,22,-84,-1352,-21,1144
-41,-18,7,-1185,-227,2467
-55,36,102,-401,900,4403
49,-33,20,-359,1198,4113
-111,34,23,-1229,-227,2541
101,75,-42,-152,3797,-2355
75,97,-65,282,5319,-3104
31,-56,54,-129,3956,-2951
90,117,93,1245,320,-2490
-12,17,-49,-1274,371,-755
0,64,-109,-2033,2224,-2306
-99,18,-87,-764,1013,-2968
-123,89,-31,1557,-166,-2719
101,66,42,948,-1002,-2858
6,12,64,935,-905,-2649
120,-29,59,569,-617,-2111
55,-15,83,-1095,-164,-1173
81,107,117,-989,122,842
-41,77,-121,-2526,-640,443
21,-88,-32,-1585,2399,-20
18,-86,-117,-1910,4869,-963
14,27,-45,-1602,5775,-1843
-26,-50,28,-1608,4043,-2331
-16,90,-3,-344,1936,-2001
60,-109,11,679,355,-1925
7,104,0,1372,819,-3330
-113,-20,-20,1505,32,-2621
57,-104,56,-37,-396,291
84,5,88,-1517,25,449
-109,23,-115,-1037,-33,491
-35,97,-75,-1879,535,959
-31,-125,56,1395,2575,-3324
38,57,-67,-9525,4659,-4196
119,-40,60,-1984,1999,-6
-2,-109,-31,8783,-166,-1296
-72,105,122,5918,-2196,-4274
-29,-70,-33,3553,-2594,-1033
-33,-64,31,1768,-37,12
-31,-109,52,667,1815,-333
-23,-73,27,229,2209,1179
0,24,-50,925,1870,1427
-2,-27,24,-691,1647,1401
-52,-71,-46,11641,-5247,-1937
24,-86,67,1789,-2507,1446
53,25,27,-5791,3023,-2518
-94,91,102,-4068,3718,-1337
-1,84,12,-2133,1780,987
19,-87,35,444,-683,2043
40,-65,80,-1900,598,1160
-38,-36,68,-5609,2630,-2726
-54,89,-84,-1445,1600,-2754
23,63,-72,3835,-650,-2711
29,-74,-81,3715,-1923,-2448
78,-50,-84,1545,-1683,-918
-98,-2,-60,-795,-1017,-917
-9,88,-29,-2746,-544,-670
-24,70,-1,-2725,147,-684
-8,39,86,-1570,1065,308
111,-13,-81,480,2072,2560
-56,-56,0,-317,4220,1870
-14,12,56,3854,-661,3109
121,-51,-32,476,-1527,2005
-47,34,-91,-2735,356,-332
16,-66,-101,-997,-87,160
-47,-53,-118,-219,142,1157
-18,41,-110,-1207,40,352
-75,54,16,-1137,732,-530
-118,-128,28,915,2491,-830
24,51,-45,769,2707,-2623
18,-113,-103,990,-505,-4863
-31,-29,-82,1090,-2237,-3791
-76,62,-111,-456,4470,2777
5,25,100,-1965,2409,2728
11,127,27,1480,-2647,2998
-86,-46,82,-182,-1494,3774
-88,107,35,-901,-110,3383
38,64,27,-2447,429,1075
-117,102,72,-1646,479,-48
-86,20,84,755,445,-60
9,32,99,76,709,-1185
5,54,-93,353,1743,-2168
53,102,62,3071,2268,-2394
68,114,-110,3724,-263,-3063
-103,88,-80,1972,-2119,-4186
74,-34,-45,1555,-1962,-3265
-34,-66,8,158,-621,-2064
-90,-96,22,-407,-18,-1098
105,-102,21,-149,289,-179
77,-59,4,497,480,892
83,14,-12,632,804,1326
7,-60,5,2018,1526,2291
-72,-69,-83,3109,2264,3320
9,-60,69,3758,2401,3830
-122,-80,7,821,-129,4243
79,31,32,265,-2753,-126
-109,-128,108,1423,-2484,-2803
109,89,-91,1193,-354,-654
-5,-102,-101,236,542,1015
-41,-3,-78,-1350,1017,-219
19,-104,-43,-613,853,-698
83,8,-18,1638,94,-25
80,58,-23,2473,-670,-141
55,-109,-19,2901,-1026,-458
60,-100,12,2349,-369,-1277
-113,109,28,761,992,-1062
-79,91,12,-277,1444,-1480
116,81,-42,-438,731,-1281
32,90,-56,-518,-171,-892
20,-106,-49,-803,461,-1031
-5,-122,-107,-69,490,-1064
46,-56,-109,-1526,73,-1240
-42,105,-95,-4877,2916,-1139
73,38,-125,-4154,2915,-2347
97,-30,-102,-2286,2017,-2137
-112,104,70,-942,2294,-3746
7,-106,118,-3134,1099,-3713
15,71,111,-1288,1313,-4033
5,-18,92,185,96,-4047
44,103,-80,70,-2054,-2268
-62,-107,-50,86,-282,-1257
-1,-51,-65,-1154,1458,-1359
-32,-88,-86,-1755,951,-863
-48,119,-87,-860,372,-826
-103,-99,-63,-853,31,-648
118,-90,-80,-670,39,-400
118,-51,-42,-968,35,-253
-67,-33,3,-1069,473,-198
-57,-94,31,-593,389,-323
-32,-92,8,-803,629,24
-126,-87,-30,94,597,-173
-105,-53,-36,-497,411,168
-82,-6,-57,-705,557,6
-12,2,1,-727,647,-360
-37,-53,-12,630,379,-607
-92,-47,-82,576,345,-431
-105,-32,-102,402,-91,-94
-7,31,-83,15,449,-336
14,13,-80,-390,547,-689
-85,-63,-114,661,-136,-403
91,-21,88,65,-205,-126
-101,-10,105,-289,466,-43
-126,56,108,-1633,1519,-599
49,-41,79,-391,873,-1533
-67,57,40,1313,-361,-894
-128,80,92,879,-1139,320
68,125,90,1350,-389,475
75,118,119,968,365,936
8,74,45,1269,1681,2592
-8,-92,-20,111,2384,2572
46,121,-38,1180,-115,2560
-39,1,-36,281,-1401,2245
-82,88,20,-4041,3162,-806
18,90,-49,-2234,1270,-1362
12,93,8,77,-318,-373
62,-100,47,810,-39,169
29,93,-3,-297,351,477
21,90,-17,-406,594,-250
95,23,13,-137,386,234
-85,33,30,-175,698,16
-106,38,20,29,425,-451
-110,16,31,16,27,-496
115,60,64,-770,-16,-547
111,61,101,-1127,610,-841
97,33,-128,-1247,1019,-911
80,-7,126,-623,1008,-983
65,-43,93,-111,779,-828
83,-20,91,-958,714,-769
78,-10,107,-1773,1095,-959
27,-36,122,-1403,1243,-1021
-23,-34,126,-1039,820,-822
-52,-36,126,-344,419,-569
-18,-56,127,226,420,-366
8,-33,121,-565,238,308
63,21,-92,-1579,518,336
99,34,-30,-1681,594,119
115,27,-2,-1250,1040,-142
91,35,-15,-791,984,-228
60,50,-34,-400,679,-420
38,58,-53,-157,725,-532
46,74,-77,-411,1047,-740
42,68,-113,-336,1077,-1063
50,3,122,124,670,-1234
43,-33,111,745,512,-1469
55,-59,94,753,744,-1630
82,80,65,1162,696,-1307
99,32,23,1628,569,-156
54,92,-41,1313,169,305
-17,-77,-72,742,-198,402
-35,-87,-60,1112,-249,633
-48,-51,-63,1176,-100,902
-44,13,-69,864,159,611
100,-78,-104,-4144,738,-2196
-76,90,72,-2548,831,-1336
2,123,28,-1210,-4,-1250
13,-122,32,-889,79,-1047
31,-114,12,24,272,-434
-16,-118,15,175,214,559
-117,-82,51,1018,767,1738
16,-17,10,1468,1384,1542
-27,-47,-79,2480,651,1664
66,-12,119,2931,-118,1912
-41,99,109,1410,-4,186
83,-29,81,1803,225,123
45,-41,6,2224,518,1198
-19,76,6,-87,1611,448
20,-28,114,2083,-543,-1856
72,-30,51,1964,-3207,-1204
-126,80,80,-3487,1653,-3141
-77,94,125,-1478,1093,-3194
-84,39,-44,-1239,-1854,-3084
95,26,44,-2437,-575,-3050
3,-128,63,-153,-112,-1877
36,-65,45,-1435,442,1159
-71,29,113,638,1482,2293
34,98,-44,3547,983,1839
38,121,-43,2310,455,3667
-45,-83,-50,1007,2040,3156
-120,-108,-117,2111,990,3748
49,-118,49,3260,268,2472
-98,121,-48,3632,-19,1296
-24,95,-72,2866,-330,304
54,-11,-64,2660,482,119
76,-47,-63,-1761,684,-1367
22,76,102,-619,-1249,-3311
-22,40,71,-501,-2001,10
100,-99,-71,-3292,-1197,-2766
-2,4,105,-54,17,-1275
56,67,49,-313,-1076,-937
52,107,87,-406,-755,-973
26,-112,-76,-1338,1573,-704
-101,113,-85,-1530,1750,-640
107,-24,-43,-2984,2916,-1764
111,81,-78,-1224,1654,-1795
-34,53,-67,823,-90,-938
79,-70,-39,360,-694,-1115
19,-23,-40,-936,-255,-1171
-74,58,-23,-2934,278,-1891
121,37,-3,-3415,732,-2256
96,-52,18,-2443,385,-1946
-56,14,86,-3198,1013,-2554
35,-69,-97,-2210,-177,-2662
121,58,41,-1718,-790,-1640
-54,61,93,-2904,33,-899
121,125,25,-3811,-22,-1526
-61,119,-65,-3746,149,-2455
77,97,-85,-3679,-167,-2850
32,-29,-50,-2783,-204,-3016
118,59,-7,-1162,77,-1292
-2,94,9,-685,972,-949
63,120,-77,324,1085,-344
33,-83,-121,221,-419,487
13,99,103,-1272,171,-212
-111,-113,92,-2013,-256,-582
71,-65,114,-2335,33,-785
-15,-50,-125,-2287,180,-1184
52,-110,-94,-1656,325,-747
-66,-37,-90,-1614,310,-733
19,-14,-23,-1975,-562,-1984
107,55,57,-1214,162,-889
-85,22,45,-1866,508,-493
35,109,-18,-2720,508,-1764
-58,13,-62,-1752,602,-1905
100,-38,-96,-1676,180,-1371
54,-35,-75,-978,-44,-1039
48,-40,-59,-162,147,77
91,42,-41,-454,365,336
-98,20,-46,23,572,997
29,58,-36,361,701,1298
55,66,-71,2304,821,1714
58,117,106,4145,220,1598
-36,82,-33,5493,601,1885
86,114,125,4514,1312,1367
39,90,20,4185,703,885
-127,-51,-15,4886,-886,1100
74,-38,31,3652,-625,920
45,-50,55,2913,-292,812
-30,-102,52,3539,-1338,671
28,127,125,2833,-261,78
-6,87,124,1792,77,87
-80,39,-125,1882,215,1162
-22,7,-85,1554,1080,2291
87,0,-91,-135,1286,4764
-20,4,-4,-1712,456,1737
110,-68,-99,-6129,3999,-1116
125,101,-115,-2936,3050,-2837
-94,9,121,769,1645,-3451
-69,26,58,207,1512,-3262
27,-71,42,-742,1906,-3216
-57,117,-42,-60,1511,-3065
121,82,-61,344,633,-2776
33,81,-90,1221,116,-2262
-38,84,-115,1374,-258,-1889
-124,82,-125,1130,-427,-1182
125,-20,114,1976,-420,597
-73,16,-114,1197,-48,2889
-15,109,-101,680,451,3735
-67,78,-76,1633,775,4856
46,-97,-6,1627,1114,5703
-106,44,-25,570,1255,4781
122,-42,-47,-1078,822,3287
-38,108,-53,-1464,-482,1152
65,4,-74,2004,-1144,-920
-27,-88,114,4450,-987,-947
-48,-61,41,3581,-243,-802
-79,-80,6,1563,588,-1993
-93,19,-15,346,729,-2412
-125,-42,0,-118,-884,-1030
113,45,-118,-1709,-1966,-895
-70,-35,-98,-4639,312,-3284
-43,118,7,-3243,1971,-4294
103,-103,-10,-897,1180,-4032
100,10,-30,-2220,2113,3007
92,74,38,-1077,259,1486
68,29,94,258,-210,1820
37,88,24,437,-339,896
0,119,-50,542,-201,672
-46,-81,-31,133,220,375
-36,-69,-2,322,797,464
-58,-36,-32,515,759,-500
-43,-76,-4,1069,652,-483
-74,-93,28,1305,795,-961
-87,-42,9,-96,728,-1246
-113,-65,-16,-400,527,-1528
-124,106,-87,-493,-307,-1458
120,72,-81,-1182,-1197,-1161
-73,0,-64,178,212,-396
-98,125,-51,-1022,545,-340
-69,56,-75,661,910,-330
127,8,0,-1769,987,-468
48,23,-45,-1657,-1329,90
102,-29,1,-209,-1930,1381
-8,31,59,180,240,596
37,31,16,42,1883,-808
17,-32,-72,946,1764,-945
-23,-66,-99,1364,483,-899
-68,-90,-127,1642,-296,-1075
118,-122,116,1801,-757,-787
59,-103,122,1250,-585,-559
-49,-43,115,369,-148,-537
-69,-34,115,80,-169,-243
84,-8,-55,-890,-169,60
-58,-7,58,-210,1304,-1071
-81,-11,53,196,691,-25
-96,35,52,-645,187,-551
-118,54,77,-1060,564,-853
69,19,83,-885,194,-1013
19,-35,83,-76,156,-694
-23,-41,102,107,201,-753
3,-81,121,214,533,-575
48,-107,91,-317,574,186
60,-84,78,-542,437,754
-57,81,91,-1622,3610,-2056
4,-58,111,-2318,-717,-1054
10,-51,-65,-2544,300,-691
-86,-42,-110,-1296,-243,-1085
-66,-49,-63,-1076,504,-711
-3,-81,27,-979,739,191
49,-107,41,1317,154,649
77,-45,-126,3102,-1283,1013
71,88,-36,3689,-2019,742
-78,-84,88,2110,-930,-343
-36,-72,-92,-3787,1950,-1415
-128,70,101,-4203,796,-1357
118,115,-70,-975,1367,-1263
62,-41,52,6083,641,-1299
-81,104,-124,5899,-763,-796
120,-14,103,1553,-966,526
-81,9,-105,-1105,-247,2202
-115,-91,18,-3196,462,1966
58,-39,111,-3623,2141,56
-97,108,-22,-2046,3120,-1562
-98,91,66,4363,394,-2513
-44,10,-58,6396,-2331,-2862
13,-90,-80,5072,-1571,-1324
61,-58,-68,1756,1351,1382
-34,56,-97,-761,949,2565
-74,-91,-119,-1452,158,2938
85,-3,-25,-2168,273,3209
65,-108,69,-3801,1212,3058
-4,-76,-93,-5102,2183,1372
-36,-124,-36,-2739,1961,-94
87,48,-3,3105,-2188,-1909
39,83,-112,5118,-2083,-3724
101,114,74,875,1175,-3881
-50,36,-72,-7647,5573,-1777
-116,-35,56,-8807,3597,1605
12,96,64,55,663,1100
78,-99,119,7001,-255,-1264
-105,-31,-45,5802,-882,-3383
-90,-119,-42,2983,-1447,-760
71,-67,-44,635,-428,-228
72,88,-88,-2577,1989,-2798
-15,82,-74,-2356,763,-2008
-92,77,-23,-1328,-314,-796
106,-93,83,-504,-1274,401
-39,-127,-116,1294,-1070,828
81,-66,-75,1370,-464,272
-105,-52,-13,100,-68,-384
126,123,-87,1499,255,-472
70,-83,71,1200,142,86
18,10,33,-481,-513,620
-40,84,63,-1444,-841,466
-55,56,-113,-370,-741,362
8,24,-57,2627,-119,-114
-87,-77,93,4580,-529,353
61,-80,-13,2032,1538,903
98,-84,-68,440,2466,858
-24,-57,95,1155,1032,953
-111,-16,60,1431,-187,-10
37,-4,60,1570,-939,-513
63,-70,70,1922,-311,-241
-80,-126,75,1105,890,168
20,-104,57,-952,1865,387
75,14,60,-3123,1665,92
-5,95,100,-3421,859,-1216
-100,54,-103,-1265,387,-2358
34,32,13,-591,-803,-2498
46,18,107,-1102,-410,-2226
-86,-68,-107,-1578,1878,-1933
37,-67,-104,-6007,5116,-1113
-80,-71,17,-6798,3169,-1615
11,76,97,-2050,-106,-3727
-62,40,-51,1354,-2764,-3555
-14,99,29,-144,-1415,-2913
-30,20,47,-1561,592,-2957
-124,-75,11,-2086,846,-1608
37,-62,-34,-1973,339,323
68,16,-30,-1867,511,541
-64,24,11,-2147,957,797
117,50,64,-2800,1488,1190
91,81,25,-1447,989,914
-38,-116,-9,-2077,2248,2988
94,-33,-22,-3019,1140,-934
-10,-89,62,-1851,311,-2504
55,19,122,536,-337,-2450
109,-31,-114,304,861,-1792
-44,-112,-78,433,2355,-2310
-46,24,82,1675,2254,-2171
122,-74,-1,3835,508,-1876
-35,-103,-108,5479,-1088,-1426
-88,-61,-106,4169,-802,-1619
104,-102,-78,2375,417,-1444
80,75,-97,1621,1369,-278
97,-34,105,2296,1606,1458
-8,-4,57,1543,2210,3859
1,-102,110,-1094,2062,6910
105,-25,0,-6172,915,7716
-29,110,-64,-10445,2398,33
-39,37,-13,-4695,1793,-1730
12,103,92,4464,2695,-1853
34,-71,83,5414,5575,-6013
115,61,121,5557,4440,-6032
-36,-6,-120,4600,-725,-1887
67,51,102,3556,-2107,-538
96,33,93,3623,-1821,-1195
-78,49,-106,1863,-902,-201
111,52,-71,-117,1857,3067
70,68,76,365,3565,6563
-26,-72,121,-3065,3371,7745
-33,58,-14,-17961,590,9037
-94,118,-112,-11440,2529,3960
-75,-73,81,7939,85,379
-37,-60,-105,9557,5666,-12156
34,-43,15,11227,449,-12633
-86,127,-70,2705,971,-758
-8,42,-98,-1910,1540,2973
-10,-19,-82,127,-285,-2215
-92,121,124,2216,129,-3656
-64,-120,112,6448,558,-506
-39,83,39,7683,845,1650
8,116,42,6750,1590,2660
-116,-82,117,3127,3753,3521
-8,62,-80,-3161,5736,4716
4,77,-75,-14348,4864,6493
-65,-8,-40,-16190,3997,4398
51,80,-115,-2768,-958,2121
72,10,109,7124,3750,168
11,-10,40,6245,5269,-7268
-127,-45,11,11060,-998,-5597
119,-15,-48,9581,-6767,1266
59,76,101,3128,-2261,322
-49,-30,33,-313,-1301,-3794
-33,-120,104,-2960,-302,-4487
-94,-119,-37,-9478,781,-8577
-1,23,22,-6643,-4185,-6082
67,-67,21,5246,6616,6065
47,110,-55,11261,1184,3923
-26,-88,-3,6795,-896,5558
-13,-60,-18,3733,3404,4033
-20,67,113,5233,4609,2599
59,116,6,4539,1348,4388
10,-118,-105,447,-202,4759
-15,64,-59,-2937,367,1919
-47,-116,-114,-3288,2182,-407
122,21,35,-508,2960,-1264
124,-43,20,823,1452,133
84,99,0,-574,-643,1384
-121,-35,83,-2696,-1100,810
-69,78,-64,-4410,-208,-159
-30,122,89,-5557,1043,-2182
-25,-26,-113,-3234,2373,-2778
-16,27,-118,-244,4414,-3763
59,-40,54,-10678,7730,-3118
-65,-34,-113,-1266,3582,2270
-123,-45,75,12870,-6911,-696
-11,-109,104,8465,-7361,-1491
20,40,93,-813,-1850,1730
-70,119,23,-5049,5451,126
72,107,63,-5797,6527,-1629
70,5,-43,-4041,4225,-1178
54,-10,115,-1585,275,-1499
-51,11,-31,-6453,1345,1995
68,107,-59,8504,-2813,-1343
-4,-103,115,-2700,3621,-3405
106,-50,-50,663,-2007,1305
-87,-88,-37,-7253,-317,764
76,-109,81,-9258,2702,991
-34,-48,-100,-11458,4755,2269
-6,-110,-48,-10614,5571,3357
-121,15,66,-2529,4575,2476
99,44,3,7199,4823,-152
-60,61,-96,11884,546,-5637
34,108,-70,13899,-9840,-4458
109,91,1,6266,-7688,1178
-127,57,-90,-1562,-547,-674
73,-47,-11,-7630,2909,-1816
-62,-80,10,-4198,1828,1841
-111,-37,-77,15717,-4623,1669
17,113,70,13628,-7350,837
52,-31,108,-4112,8076,-6320
47,44,-73,-2712,14026,-3264
-90,-120,62,-5692,8654,2853
-57,20,-44,-4955,-1379,3092
-9,-78,-65,-190,-3520,954
86,10,72,1360,-2555,423
107,51,5,1953,1608,-154
-49,116,105,1026,2520,12
111,-6,102,-2482,443,239
-105,39,23,-4813,-1704,-959
-52,-57,-9,-2798,-817,-3906
-5,120,102,2278,1534,-4305
-32,120,58,263,3619,-3657
70,-11,103,-16471,8167,-975
36,-112,28,2877,786,-1123
-20,57,106,14940,-3561,-1552
94,126,-112,11266,-7493,-221
21,-19,-28,3936,-2875,1248
-15,29,-78,-1227,2825,-1735
-11,-5,-13,-2397,5680,-1743
49,-86,84,-1907,3853,1034
110,-29,109,-1070,880,1877
72,3,-94,-10609,-2048,-4957
-63,38,107,-10415,1125,-9078
-21,79,82,-3793,-151,-3835
101,49,-111,-9121,5815,2350
88,96,122,8950,-2371,35
-87,-59,5,11471,-4209,3120
-124,-90,-42,6282,-171,3158
35,29,-74,-3348,6528,1637
-96,-36,88,392,4715,3598
-119,-53,-126,3715,-2084,4932
123,88,-86,2629,-3594,3207
70,41,-54,80,-756,1150
24,8,-7,7380,-4331,-2503
31,-22,-84,2191,-1526,137
99,51,2,1235,656,-516
28,-78,-4,617,5088,564
-113,-127,-14,1274,5159,1848
70,-47,-79,1851,1192,2578
-111,23,-91,2698,-2942,1848
-128,114,-31,742,-2097,-141
52,-104,76,-1728,-1116,-1604
95,109,-125,-2523,384,-1096
79,60,-127,-1211,332,-653
67,29,125,1287,-452,-288
60,83,100,1857,-1181,-358
98,-125,124,387,-1817,-661
77,44,125,-3920,-2264,-189
-12,-73,-80,-1374,-666,-499
-72,122,54,-2216,6679,-2387
-102,-105,77,-1152,38,-34
-52,103,-41,-566,34,-462
87,92,28,-671,747,-549
-125,-107,-120,-1010,377,-573
94,-86,-94,-9,-107,-89
102,-3,47,-1404,1671,-570
62,12,-95,-2095,1302,-58
-15,68,30,-2656,272,112
-35,102,69,-2121,503,-169
-14,116,109,-1977,1489,-622
-106,-32,-128,-600,2977,-1876
25,20,27,2380,3493,-1994
9,59,-28,1919,1023,-871
88,-105,-61,893,-2121,-365
-32,4,-41,-635,-2321,-1109
66,41,65,-1859,-2504,-1691
-13,-25,99,-322,-1564,-1166
65,90,-106,1681,483,-1365
-73,-25,89,2286,1894,-101
25,93,75,-1021,1772,3964
99,110,9,-1239,1047,4066
32,-71,-47,353,992,1334
-86,-12,-46,-58,-213,602
-127,-51,-27,216,-680,-221
112,112,15,1566,-1093,-938
-100,55,19,2166,-909,-260
-45,85,50,525,339,-163
-49,86,16,-970,1491,-632
-18,91,20,-2593,2162,-775
-88,111,8,-2932,2424,-1071
102,91,8,-2005,2268,-1450
74,-4,16,16,1735,-1636
84,-61,-21,1562,921,-1332
107,-84,-71,1462,311,-1347
88,-71,-54,471,-217,-993
78,-92,-67,122,-86,-1300
-23,-4,103,-2583,-1375,-1752
-14,-54,-20,-2966,145,-1500
-6,107,17,-1305,1991,-264
-72,-93,-59,-1626,634,13
-89,-76,-70,-882,-675,954
-10,6,-46,-324,-47,1004
45,47,-50,-634,667,399
63,40,-81,-441,528,533
77,63,-84,-492,-242,593
98,81,-37,-291,-505,616
-107,86,-31,408,40,236
-93,77,-111,1408,611,-677
-114,43,69,1897,214,-1064
55,44,12,1437,-643,-813
59,23,25,741,-509,-748
-109,33,63,-4212,1566,2189
-51,-120,74,-4232,2355,1290
-22,79,-33,-1210,2484,561
-47,65,-49,369,795,-816
-68,38,-15,605,-529,-828
-66,115,43,-1227,-405,-273
-62,-78,97,-2645,1258,-782
-94,-102,106,-2612,2214,-1080
116,126,89,-1764,2131,-1320
-123,82,88,-1159,2111,-1803
-35,-20,127,-1071,1830,-1808
-13,-62,-104,-632,1722,-1824
-117,-127,68,953,1545,-1618
59,-78,-11,708,1203,-937
-2,-18,-67,-232,661,-169
89,-122,-47,-2236,1229,80
121,-77,-48,-3100,2229,-869
103,113,-69,-1788,1950,-1277
78,52,-75,-560,319,-842
76,93,-20,-912,-1236,-1112
-115,28,103,-1287,-1208,-1759
-91,-10,-82,-2099,-480,-1715
-73,-71,-15,-2727,183,-2389
123,70,12,-2552,206,-2749
94,-7,41,-2475,85,-3098
52,-104,67,-2427,142,-2876
-27,116,49,-1971,44,-2284
112,91,31,-1306,-157,-1720
47,91,21,-691,-428,-851
2,120,45,-884,-380,83
17,-66,53,-1633,780,1419
110,-44,28,-1923,1717,2336
0,-30,-44,-629,199,3539
69,16,-87,23527,-5722,1861
96,48,-110,2451,832,912
63,-98,-14,-6686,1655,-63
-15,94,-11,-9536,3626,-3094
9,-49,-121,-7477,4414,-1058
-77,114,-90,-2762,2247,1057
-75,-41,28,-254,-41,-61
6,12,-42,-4447,3192,-1590
92,-120,78,-797,3241,-1665
-50,119,21,1478,1252,-1455
-66,118,0,2636,-884,-1198
16,121,35,1628,-382,-1010
9,113,40,884,272,-892
-37,95,14,653,436,-822
-72,75,-22,876,172,-546
-88,54,-30,802,-217,-266
-81,63,4,232,-369,582
-40,-124,57,-706,-90,1209
46,-119,114,-568,276,1330
-59,26,110,1908,511,1955
-12,126,-18,3328,-602,3032
-87,97,-10,1149,-1832,1836
106,-105,34,472,-1299,-395
85,-63,29,2838,119,-2361
49,39,-60,5163,169,-1411
-6,33,112,4206,-654,-117
-67,98,-118,1258,-1001,213
-91,-127,-48,-582,-493,101
-65,96,40,-39,305,334
12,44,-105,2334,-14,319
57,83,15,1280,-53,347
114,49,-18,572,696,20
116,17,-33,1238,440,235
35,57,-114,1834,6,71
-1,73,-90,1382,-486,-130
21,54,-56,1276,127,107
59,37,-58,1321,750,64
89,1,-88,1816,408,204
69,17,-123,2098,54,-97
45,-41,-123,2781,-372,-505
71,-113,-109,3181,-198,-67
-10,-82,108,2341,-25,251
-56,-51,114,905,-337,544
-81,-3,-45,-480,-1059,1054
-16,93,113,-2365,-957,1288
17,113,-84,-1098,-109,467
4,1,55,7902,-518,-1246
93,106,127,-2002,6469,-3440
-79,34,68,4703,-2145,882
87,15,98,3724,-1518,395
76,34,-84,3642,-1399,1742
-68,101,-23,3489,1231,1602
93,91,-37,2231,3450,1763
18,-123,-89,335,3413,2966
-43,89,73,-1631,1208,2729
55,-114,76,-1077,-1511,450
57,62,-88,802,-2201,-722
50,110,-6,735,-1013,177
92,-85,32,-724,1291,259
-107,-82,4,-1250,2114,-260
119,113,-79,882,895,-157
23,94,119,3089,-1122,-404
-32,110,126,3426,-2356,-927
3,95,-54,2045,-1405,-1153
46,54,32,108,229,-1397
38,-4,44,-744,824,-1313
-19,-56,-8,195,339,-1011
-59,-76,-39,962,-392,-838
-56,-54,-27,243,-401,-548
-28,-89,11,4257,653,-401
-118,114,-53,4923,-2725,2462
5,-51,51,-213,-469,1848
-62,4,32,-6729,1928,44
-101,106,-79,-4242,3206,-2221
119,-6,96,-5101,3578,67
-92,-76,-75,-10744,4291,68
-114,120,-112,-7923,3849,-1212
-114,29,79,429,3193,-216
-96,24,46,6273,2376,-1488
104,39,116,7743,-461,-3373
31,-109,75,7510,-3796,-3348
4,106,-21,4088,-3430,-1780
-125,-52,-51,-920,-864,-691
7,-9,-7,-4325,1394,-312
-8,84,27,742,460,2984
33,-110,-108,6067,4737,2670
26,87,29,6840,5532,2859
-124,62,-44,4273,3768,5529
84,61,-79,5725,861,5768
43,100,-87,5498,-2180,2318
-105,78,111,3125,-2358,251
-65,50,-50,1498,695,-156
-38,64,-24,-696,3075,-17
-99,-117,101,-2585,2887,394
50,-113,4,-771,959,677
87,39,5,2530,-485,1495
-125,43,-69,4461,-1210,3765
-90,-2,-36,1447,-1648,4029
1,82,23,-5879,-1965,2702
-9,36,-69,-11992,-450,-1791
-118,92,-91,-5484,1142,-4676
-68,76,-54,12907,-6961,-324
-67,-25,-123,-856,3264,-583
97,124,127,-5076,9315,-47
-10,-90,106,-2251,5551,-554
-47,8,67,2317,-176,799
6,58,63,5865,-3464,897
32,-107,58,4527,-3904,-675
85,43,-28,2584,-3424,-1520
92,90,-97,-1630,-211,-1376
-2,-62,110,-11710,8590,-375
4,-1,-35,2744,3680,1844
-23,-64,-23,6756,-2427,632
-108,-124,126,1259,-6413,-570
-21,-8,-22,4714,-4020,197
-63,58,10,4658,-989,-750
-80,28,58,3518,932,-1209
-60,-66,-27,2796,2175,-731
-109,-105,-95,1242,1524,-208
-105,-89,-73,-209,104,1179
-9,-80,-57,-132,681,1417
-27,-53,21,-1290,1651,1082
-25,22,-31,-2928,1558,1847
-76,87,45,-7197,-815,1990
-20,103,70,-12247,-741,-438
-96,-33,86,-2401,-3525,-3187
94,82,-39,8655,5328,-772
65,-84,-81,-4030,8124,3347
-61,-37,-115,359,-816,1406
40,-82,93,3528,482,-3068
116,-104,-79,2265,-1,-4274
-105,10,-12,-184,2902,-2683
94,-44,-108,-1500,1800,-2625
-82,77,-45,162,1927,-4199
-14,-86,3,601,-57,-2180
-79,27,0,-773,1114,-2106
25,-60,-59,-107,881,-1853
-38,-70,-69,90,537,-1016
-84,-55,-64,-164,427,-659
-98,-14,-50,-783,-150,176
-20,75,-21,-1121,-942,921
18,-61,118,1121,-285,-483
85,-31,124,1941,309,1000
-103,-99,126,-1535,1264,300
87,22,21,830,1402,380
20,17,-14,1083,-387,700
39,49,55,428,928,354
77,9,-16,128,1213,397
82,32,-55,-929,1551,-407
84,25,-15,-1542,601,-689
46,34,76,-151,645,-793
44,-12,82,857,161,98
43,55,81,860,-136,-180
109,57,56,396,317,-605
-96,-11,-32,768,-132,-1389
-111,-58,-57,264,-905,-1082
91,-35,-90,-266,-1260,-1083
92,-26,-45,-1089,-1414,-1048
-128,19,37,-963,-317,-591
46,6,6,-2559,-2019,326
8,-13,-40,-1245,-774,-508
-21,109,-47,-441,-689,-378
38,-72,40,-659,90,-672
62,-92,106,336,709,-760
-14,-47,10,-540,672,-1051
-50,-97,-27,-562,641,-1041
-64,-102,-40,-805,992,-622
-20,-109,-70,-2914,2020,-4583
-50,-22,83,-4239,4040,899
-109,109,8,-5726,2213,4223
60,-14,-109,1096,-1792,372
-99,-105,116,2458,582,-3830
17,-94,-125,5441,1181,-1750
72,75,28,4328,2912,-2241
57,54,-96,496,3528,-3316
23,-87,68,1167,2275,-826
-125,-89,22,1920,51,-1118
48,-91,49,1579,-1196,-1825
0,98,88,1075,-1754,-1270
-29,62,-53,-420,-1717,-574
-46,101,15,-2371,-867,-47
-7,-74,109,-4450,359,-84
20,-55,127,-5338,868,-654
42,-88,-59,-5293,357,-1126
90,111,47,-5136,-466,-1771
-54,42,3,7971,-15964,238
-44,-109,42,-4689,15156,-1988
-71,73,-2,396,3919,-1757
-107,-112,-24,3143,500,2101
-44,22,-87,6368,-998,2372
119,11,-73,3395,344,1045
80,45,-109,1412,-273,541
-15,53,-101,283,-1922,353
-36,116,-5,-1592,-1012,-256
-37,68,-12,-2232,1147,-631
-1,18,-34,-3145,2279,-421
100,66,55,-6132,1639,-1025
-34,-19,-22,-6581,1161,-1757
-122,73,-67,-667,2124,-750
92,-31,98,4552,1660,-614
-54,-90,-32,3662,-786,89
-60,5,-23,1033,-1728,833
0,79,37,-1397,74,788
69,93,72,-2401,1576,-84
-98,28,81,-2430,2089,-123
-117,48,74,-1908,1008,189
80,81,73,-888,-30,-415
-8,-117,12,-4515,4269,-705
-67,-125,106,-1887,2447,-521
-98,117,76,2962,-1431,36
-47,-39,-114,4059,-1951,-604
37,-6,-121,2695,44,-472
61,10,95,645,1501,-336
35,-3,29,-610,1173,-378
-11,-16,28,896,-945,-116
18,-23,34,3431,-1364,-958
77,-66,43,2822,-464,-1314
103,88,38,1579,38,-198
-15,-86,9,506,-468,248
-60,-82,-40,2041,-299,-648
-60,-118,-41,2190,-1108,-382
-34,-109,-17,1667,-157,-141
1,-72,-61,868,792,-622
95,21,-102,3420,1104,-456
115,5,117,3950,184,-1111
73,23,123,2770,661,-976
32,35,-19,-79,2534,-1698
6,-2,-88,-1360,1968,-1267
-47,-2,-65,490,-860,-346
-80,106,-89,1284,-1060,62
28,-116,27,-1306,-318,257
7,-42,-86,-2992,-442,843
-93,118,67,-5377,51,-810
-111,-44,105,-7387,1651,-2694
20,46,44,-5416,1413,-1373
-29,-87,97,-2343,393,-4
120,-74,93,627,962,697
-88,69,-87,-414,-55,-245
98,-41,-65,379,965,246
51,-2,61,703,2741,249
36,111,85,1497,-981,868
-70,94,114,138,-1632,352
-2,-27,73,901,-37,-416
113,74,70,3654,716,953
-96,-88,127,3411,-1049,2887
-108,64,-74,590,-79,677
-87,38,-17,-2431,1537,-361
-78,-126,-127,-1696,2723,-2622
-118,-98,-72,1682,284,-2230
-125,73,-60,913,1352,-1950
41,39,-123,-928,-448,-873
-44,-114,-68,669,945,-2075
-31,-97,-77,-1152,1141,-311
-17,-45,-84,-349,432,-579
64,50,-17,-924,1136,-762
41,56,53,-267,138,37
67,97,103,-511,1370,-471
76,56,-3,-904,1251,79
96,38,32,-16,4032,-154
-122,35,87,128,2375,60
115,66,73,0,-1048,658
124,95,-118,-1689,512,-214
23,-113,-76,-1625,271,-1045
78,-112,-27,-2859,936,-1344
77,10,-30,-1035,868,-462
-112,77,-107,-784,-620,-235
-21,-51,-112,-849,459,-1912
19,-60,118,-2236,-525,-2593
-31,-93,-94,-1758,-559,-2641
101,23,86,-2167,1703,-1900
41,20,-42,-945,753,-1484
29,35,-25,-2070,1199,-1087
-108,-68,-118,1760,-232,724
-70,21,60,5013,-1985,130
56,39,-5,-2005,3014,-1408
12,-53,116,4546,18,1069
92,43,122,3458,-1514,1628
-5,-87,-68,-253,-962,-105
63,78,-40,1796,-196,78
-24,60,19,1269,-78,77
-51,80,0,-405,97,-22
-37,29,-46,-935,91,400
24,-100,-45,507,895,893
32,81,-38,843,1882,1791
-121,-52,-39,-983,1902,2013
42,-45,-60,-3761,730,42
-2,116,-18,87,609,-526
-103,-95,-12,-2039,5308,378
30,-49,-96,4408,-5261,1559
-72,-115,-21,2656,-2880,751
55,-86,-13,-2753,2422,-747
33,-20,90,-1072,610,586
60,-75,72,2366,-1187,1227
-24,27,117,1201,-745,1309
-103,33,-1,573,2155,82
127,-57,67,295,504,376
-118,-123,-64,951,-1579,994
-16,-116,15,861,-1252,1197
24,-44,42,89,1,722
-17,31,93,-1488,-499,350
-63,-1,-99,458,-436,-184
-56,-61,100,1460,-537,-95
-124,26,-119,265,-428,-379
114,14,-24,237,1291,-579
79,2,-79,252,662,-720
99,-58,124,796,-276,-690
-125,-48,122,257,175,-1219
-111,-77,63,-428,-431,-1240
-102,-74,72,342,239,-1746
93,-86,24,-773,-1131,-1143
-96,-6,45,377,1182,-2032
-48,-109,-30,1518,472,-1432
121,21,-4,-1630,731,-1517
-1,-106,-29,-185,-469,-912
55,-75,63,-795,541,-631
-9,-66,52,156,-961,-334
-44,92,34,166,-45,-326
77,125,49,-386,575,-738
109,60,20,-410,-54,-134
-25,88,86,222,1905,-1266
36,-13,13,-165,665,-542
100,-3,24,-197,1266,-62
-116,-42,45,70,1077,-370
-95,123,58,-104,588,1255
65,-74,-31,-45,-353,-311
68,103,28,-630,291,-483
-97,112,51,-2004,1727,-669
-22,58,78,1333,4706,1105
-45,1,37,1539,-454,1206
44,-24,21,1424,507,3161
86,-94,-33,-440,133,2428
87,-38,-65,-1747,-2014,2793
-76,20,79,-1906,686,1209
35,38,9,182,778,-237
122,-33,-48,4139,-1412,1680
56,54,-25,2173,-564,1045
-75,-92,34,-49,97,661
77,-49,2,1389,-166,407
103,105,-2,2853,582,731
51,-119,123,1773,-160,-208
-91,-72,-69,1348,556,433
-10,-19,107,-914,-447,-884
50,-86,-8,1616,-1877,1027
-61,-52,23,2707,-102,1478
28,88,-122,1500,-398,1192
10,95,56,2063,-698,806
51,126,-103,-140,203,197
95,67,105,841,327,129
65,40,66,1670,-146,258
90,39,38,1550,354,328
91,85,20,1108,466,0
4,96,-19,639,-1764,-308
-13,114,-90,29,-1970,-421
-39,43,2,36,-486,150
107,-18,73,-3138,798,-749
18,-61,-38,-551,2086,-952
-66,-44,-1,-334,-68,-2510
-115,115,41,1758,-701,-1110
-65,-118,51,-111,908,-1855
-75,72,9,-1072,1650,-1317
-125,68,1,-529,871,-1143
82,-66,-72,-1892,-287,-1970
3,-107,112,-2336,-3369,-1683
1,15,52,-917,-1621,506
-43,-62,107,-1692,981,378
-15,-109,-21,-244,2906,1256
66,-29,122,-11,3030,989
52,105,-42,5753,479,-1770
-103,-119,-62,3778,-2251,439
120,-75,-88,-4734,2666,-2300
78,110,-45,2019,1723,190
-100,-50,63,725,2434,-769
-53,-71,-57,1391,2004,-1257
-121,-110,24,-573,1569,-545
118,75,-40,1021,536,592
-104,89,-37,823,274,1067
95,-54,15,-308,474,1292
111,34,61,593,-961,1424
-76,41,34,413,514,478
-50,-3,-34,1226,39,945
-124,29,-7,-64,-191,241
-127,-15,29,-5,1912,-295
-48,-80,-41,-180,-723,-249
37,-126,-45,2247,71,323
-51,-27,-27,817,-1374,10
-10,112,-16,-60,502,918
106,2,-26,-1344,-31,809
123,-83,-123,794,344,-578
-21,58,-4,1171,207,-116
97,-65,-104,769,490,46
100,80,71,741,814,409
94,-33,31,-1999,-331,298
-49,22,-98,-2470,-560,-1
-16,109,-62,-5487,-2133,-218
-89,68,91,2725,1435,866
-8,-11,32,-71,371,1050
32,-42,-40,1353,836,1492
-22,78,-94,-520,-24,1347
-82,45,-111,1375,-1963,1658
58,-122,-45,885,904,741
73,-1,-62,1717,-707,842
-115,107,-71,3055,-1563,481
-66,99,54,182,1021,-729
114,-123,-106,-4992,-334,-2515
-47,-90,111,-533,3079,-1937
-92,111,-68,363,1171,-1467
-55,-77,-63,-1350,1469,-1759
73,-21,-13,-2816,2099,-2930
14,20,-38,-256,1444,-2990
19,-89,-40,913,1006,-2627
-29,78,-92,2023,540,-2504
-69,-121,124,378,486,-2346
116,-115,86,-1143,1105,-2197
66,119,21,-1228,773,-1261
36,-120,34,-1770,279,-279
73,-22,-41,-1377,722,750
-82,89,-47,640,-774,1941
23,51,-50,492,-786,1570
41,0,-106,1474,-357,1755
92,-78,84,2775,-787,2436
-67,-88,26,3678,-366,2506
7,-14,-2,2165,165,2308
-35,95,-16,559,119,637
-80,-5,-34,692,-298,64
-85,-52,-46,828,-541,529
-86,-29,-37,238,86,526
-99,14,-43,-280,551,216
-128,54,-42,-689,313,-81
110,42,-32,-203,22,-246
76,40,-37,580,-544,-354
67,31,-4,996,-1062,-344
-86,34,71,111,-106,-515
-50,84,81,-1648,1785,-1341
-1,-42,68,-1780,2305,-1709
-71,-64,15,-780,1554,-736
89,-17,-3,611,1233,-1926
78,69,127,3054,788,-1714
-34,110,-63,860,-2131,-2222
-20,34,6,-3197,-2567,-2358
-121,-54,-103,-4866,-131,-3624
-41,29,-21,-1217,1849,-3875
-109,-7,-106,1042,-932,-1894
-6,-77,-109,347,-1727,-1257
-80,-15,-19,-823,-1521,-1354
-68,121,-18,939,-181,-222
-27,-38,15,-213,4131,1908
29,-47,-34,-5293,5753,1886
81,-24,-14,6261,-2434,2276
110,-9,20,5214,298,3238
126,-85,-19,634,1729,1104
59,103,-59,1597,368,1336
23,-77,-59,6704,-1268,1501
-127,-1,-105,4125,-1338,1360
-110,-55,74,-840,1094,-1634
-13,91,43,-2591,1311,-980
64,27,3,25,1518,-1544
124,-128,77,-1591,1389,-359
108,-45,73,1015,-1518,1263
-124,72,88,1366,682,283
-52,26,7,2716,-978,-938
-120,16,59,721,-1344,-362
95,35,113,-1247,-347,719
76,-118,-120,-2469,246,776
91,-47,-88,-2554,727,-195
-128,-82,-10,-1162,1389,-1178
115,-114,100,1060,1797,452
-43,15,101,9114,3463,83
-54,-5,48,-660,-3001,2310
-65,5,-58,-2994,-215,-641
-91,51,-98,-3169,545,-1159
87,62,-90,-3257,647,-220
40,91,-78,-2010,601,-685
42,64,-57,-275,172,-531
-91,89,7,-868,806,-1299
5,-2,43,-895,850,-1140
-29,-2,57,-739,196,-1448
-45,-53,71,133,315,-1343
111,-40,38,745,456,-1396
68,-128,-1,1720,60,-659
54,-100,-20,1152,164,369
73,-84,-56,761,631,484
104,-86,-82,455,659,991
125,-57,-84,103,548,1057
124,-8,-81,-109,284,1001
-120,47,-56,517,154,927
-59,-80,81,1221,529,-189
-38,4,105,22,516,-328
-14,-1,14,-2462,-1666,-2872
-37,-95,97,-2444,-1068,-2281
-74,45,-102,-683,-196,-987
-101,65,-119,428,162,-561
-90,101,-71,-300,-300,-152
-107,-66,-33,86,630,870
88,34,0,-216,1804,2272
25,103,-126,1190,1672,2114
50,95,68,2065,-72,2613
-29,-52,-13,2048,-270,1647
-102,-6,-85,1906,-36,296
-106,-35,-74,1254,274,-63
-28,-52,-75,1048,873,-427
-2,-95,-118,1819,911,-1344
44,108,-124,545,1209,-2237
-90,-65,112,581,919,-1674
-91,125,91,927,705,-1621
-122,107,74,298,546,-971
121,-81,17,163,-620,-1065
-67,-48,26,-115,-893,-1699
-94,-118,87,20,-665,-1842
-6,-90,-23,-1750,-1319,-1292
-45,-54,-36,-1494,-947,-1996
78,25,110,413,-877,2006
-89,28,-81,-2448,1025,-778
-66,-35,62,-1441,705,315
25,-23,-119,-331,1009,824
38,51,95,-583,1385,1371
66,-87,100,518,914,1463
-43,-3,-127,1073,-26,274
-87,16,-72,-335,788,-670
66,-86,83,487,359,-280
-71,-50,-85,1512,-872,-1089
-103,-48,101,1111,560,-1071
-69,-35,-90,-463,1232,-966
-29,-118,-97,1684,-1321,-1420
31,51,31,250,-1173,-1355
-34,-39,-5,-345,100,-788
27,-119,-67,-544,-162,-126
-118,-105,-66,-1159,-51,359
-126,-31,-108,-4770,1973,-1961
72,80,-72,-1588,2189,-2328
76,50,-27,-1546,1925,-1857
23,8,-95,-515,1030,-1017
36,17,-68,-164,557,-991
0,6,-99,315,236,-1141
-30,-14,-71,-51,-5,-1032
-38,10,-34,-615,489,-1005
-82,29,-5,-535,167,-1146
-86,90,119,-2623,2205,-1391
63,-59,-47,2353,-469,-1127
-106,11,0,1566,-934,-666
-99,63,27,-749,315,-1036
103,10,-91,-245,715,-487
103,57,52,-550,233,-16
-13,91,80,-695,-67,-463
-102,61,-96,-124,194,-632
-94,41,-102,-373,589,-896
35,-8,55,294,0,-155
-52,55,38,421,-69,-423
-69,30,20,224,617,-460
-69,19,-33,-327,890,-355
-49,-15,-43,-104,434,-55
15,11,1,399,440,-70
127,-27,18,566,454,487
-89,54,36,-43,135,327
-72,75,113,232,36,18
-68,46,110,751,623,537
-4,-119,-3,539,-273,-97
-22,121,60,601,-56,-794
-11,44,68,-129,-261,-599
19,37,-124,-2377,-130,-1475
-34,-46,108,-1846,48,-1607
-112,126,103,-655,-249,-1100
-112,86,101,-89,-91,-63
-63,-71,114,-1044,247,-327
-64,-55,112,-928,228,-588
-117,-31,108,-581,-61,-210
118,42,123,-426,153,-651
112,46,121,68,431,-318
52,101,52,2984,378,3818
7,10,-79,145,-2405,3809
50,111,-112,-2344,-2965,494
-128,-107,-106,-1692,279,-2129
111,41,-71,2959,1033,-148
-64,-121,85,3051,-24,157
-121,-18,68,845,-655,-256
93,-36,10,833,-271,-117
-96,-117,0,939,11,-315
34,-80,-12,388,-163,430
-121,-90,41,-124,4612,2938
48,94,-21,1604,1950,-366
-57,-54,-6,738,-4784,-4981
5,79,-72,1180,-3908,-6024
125,-7,20,-15442,14209,1299
-87,51,-48,4170,-1228,114
-111,-92,-28,7905,-3052,3314
-79,34,-89,3630,-2114,2946
63,118,-65,-4283,5419,-1958
71,-128,-70,-11620,4214,-6476
-21,-7,-88,-6704,1827,-3726
-57,56,-32,4413,-1831,876
112,-8,-32,7729,-1678,-4007
-80,120,-98,6574,-3311,-2973
113,63,80,1208,-874,1472
-78,-54,-107,-3493,3614,556
74,-27,-83,-4568,4075,-621
-8,100,-125,-545,745,229
54,-90,-69,4595,-1390,2108
-11,90,-75,3626,200,2884
22,4,40,-41,568,1585
16,58,119,11384,-1524,2019
19,116,-105,6522,-3492,2076
-3,101,98,1197,40,1023
-125,98,-90,-2965,2772,-1643
-125,89,33,-5881,3402,-345
-114,-53,-36,-6166,2165,108
47,95,108,4038,-2079,44
98,-45,-4,-762,1029,-92
-1,32,94,-665,1473,216
-24,100,53,-5208,3642,-2554
-71,-30,-1,-2655,2832,-1146
105,-22,36,-2449,1521,-1422
99,-54,94,-1801,1056,-1842
114,-93,-114,-829,-300,-2051
126,92,68,2441,-1744,-1530
-87,61,60,5829,-3337,-700
-60,95,97,-1111,-429,-22
-59,-78,-47,-7125,3540,-317
0,-111,36,1769,1697,1207
59,19,20,2262,875,305
-56,41,3,1608,-269,992
12,82,-12,850,77,988
-12,125,-54,470,441,-342
-56,43,-69,679,-318,-1283
124,39,-58,33,-1088,-791
84,92,8,-1685,-603,-1261
88,75,113,-3045,413,-1614
99,-26,-102,-1837,831,-877
53,-32,2,-1738,165,-795
71,-98,98,-185,984,607
67,46,127,513,56,227
29,123,-109,284,-171,-882
38,56,110,1244,1099,-1693
36,-49,11,-1348,3474,-2270
1,23,121,-2618,-257,1499
-21,-6,108,-52,1143,913
-104,-112,119,-1215,428,-505
64,92,125,214,-1083,-917
60,37,-113,927,-541,-1299
-38,112,-105,1001,-168,-1415
65,-104,42,-1710,1833,1329
125,39,123,34,401,465
102,-5,1,1473,41,-620
57,-20,95,574,-357,-539
92,-57,94,-420,734,-775
5,-121,117,2202,-1009,-1173
0,121,82,1811,-670,18
51,114,93,3163,390,930
114,-42,40,2250,1859,358
