AccX,AccY,AccZ,GyroX,GyroY,GyroZ
108,25,29,7360,844,1067
-88,106,104,3537,-93,-2802
-21,-90,-47,3830,5388,-6566
-11,-13,24,5569,2842,-6444
-47,-9,-90,2659,3921,-7118
-84,43,59,1648,7725,-5692
-110,-110,98,2766,3379,-5123
-51,29,5,943,5704,-5523
-72,-34,-4,162,-3069,-7275
87,85,-27,9847,-8679,-8815
107,-45,-41,-1018,344,-1481
102,-18,-101,-10105,3599,5847
-66,47,45,-2143,-326,5541
15,32,34,-3248,-2034,4026
-26,-110,-23,1472,1127,-1022
-86,83,126,8693,-4630,-8494
-16,-121,-46,578,2602,-9969
-42,53,-45,-2029,6609,2138
-105,-58,72,-9311,-987,7582
74,-94,-116,-2899,-1778,4831
1,80,-75,27,-2481,2874
15,-32,-23,1390,-3146,5613
-25,101,45,-4663,-1779,5053
-114,-5,-42,-5218,-3896,5275
71,107,57,-4352,-4711,3875
94,-25,38,-4614,-7653,3737
-45,52,125,587,-5818,5195
-71,-55,0,-518,496,2640
-41,-98,52,-1673,-1738,2703
-12,-107,-119,-2582,-2234,3996
-65,8,-79,-3823,-3511,-1457
-71,73,49,-8541,10581,-3994
116,-115,95,4897,-2241,-939
28,-75,98,-2436,-481,-1178
22,-95,99,-1378,301,-559
97,-102,-110,-820,878,911
41,26,-83,-2417,1887,1694
104,-111,-98,-3729,1907,1105
117,108,-109,-1155,1612,45
44,34,-106,1403,-546,-1498
-6,82,36,6351,-239,-2703
-40,47,-69,2952,2755,-5411
74,17,-100,963,4221,-6911
39,76,20,2137,5857,-7087
58,5,67,3749,5486,-6507
98,-76,-92,394,5221,-4323
-14,31,9,-3952,7927,-3102
-102,-107,53,6096,2248,-4880
-68,110,-59,10230,-6341,-9487
55,-30,53,-424,-350,-4725
-125,-82,-110,-5396,598,6573
-93,80,104,-5118,-1362,7396
-7,-83,-102,4374,-1890,1616
64,-54,-31,-374,543,-5611
-68,41,-108,4057,-2691,-3947
67,74,80,2807,2815,-4923
68,16,85,-7080,8725,1662
-67,-3,53,-8172,185,5997
-47,-95,9,-3606,-2902,5406
-62,67,-109,1053,-4379,4449
-121,98,-95,-1956,-4799,3024
-34,29,-58,-3119,-4042,2696
36,-32,27,-2788,-4236,3421
-17,110,66,-4893,-5761,3048
69,-31,31,2657,-7854,4846
-16,90,-26,-834,-4077,5835
-13,35,-63,-399,139,6057
92,-113,-116,-6277,-527,4476
16,-80,14,-4417,-8635,-3556
-3,47,115,-6379,7181,-3099
6,10,-120,3727,849,-4939
-90,77,-73,-1200,663,-272
-114,59,65,292,1012,1769
-93,-75,53,-85,1010,488
-44,-50,48,-901,587,587
27,28,72,-2044,407,808
16,41,85,-1459,198,-214
-19,-12,104,-36,-264,-999
-28,-37,-124,43,-527,-490
-18,-20,-110,-628,-153,-149
94,3,63,4805,857,-3512
-12,105,26,1763,2325,-4349
-47,-95,29,1014,2483,-6992
22,59,-12,-356,4374,-8266
-48,93,-115,1382,3873,-7556
-14,-4,-124,-2216,5378,-5369
-30,-50,122,896,2179,-3616
8,55,-2,2437,421,-5859
-53,20,-60,1844,-3919,-8854
-76,90,58,3900,-5316,-3549
106,50,103,-4026,3622,4812
28,-35,-127,-7686,2589,6048
114,-3,-77,2222,-2408,1446
-114,25,-84,782,-250,-7300
13,4,23,5074,-1935,-6023
115,-128,-29,782,4698,754
62,40,32,-12459,6208,7096
-73,8,-3,-1435,-3078,7064
-93,-28,-127,2202,-1520,2206
6,-92,61,-1376,-2487,3532
47,126,49,2451,-5677,6402
-75,64,96,-129,-3402,7903
80,-9,-34,-3653,-4077,8945
-64,-17,-105,-1113,-1945,6480
98,1,-120,-6403,-325,4938
109,-14,44,-5489,-2536,4734
-81,98,76,-1058,-4514,3076
-116,125,83,11408,-3189,-250
34,-109,60,-7303,6163,-4232
-64,37,114,1317,-1308,-1525
-119,-88,-15,-1651,-669,324
-71,-58,-72,-1027,2137,751
-24,25,88,-1226,2811,439
21,62,78,-1735,1613,288
55,81,101,-1719,718,-775
29,-30,109,932,-283,-963
-18,-59,86,2081,-764,-718
-59,-71,71,1368,-1203,-801
-78,-71,127,-229,-1070,-135
-35,-93,-88,-856,-56,309
87,9,78,4177,1640,-4482
33,-47,127,741,4419,-7088
-107,-82,-123,1366,5827,-7288
-96,53,-5,754,9250,-6511
-116,69,-34,-130,7216,-4283
79,2,19,-936,6955,-1204
-24,18,121,2623,14,-3830
-34,-15,58,5780,-3312,-9445
-12,42,-48,5171,-10682,-6235
72,-84,-41,-2581,2708,4856
30,53,-35,-10835,4439,8365
76,-128,-53,488,-1457,573
70,102,1,6461,-3241,-9161
-55,-66,96,-1188,2111,-8387
-75,55,59,3761,4474,3207
69,109,16,-11820,4483,7164
96,-5,-97,-5016,-3469,6717
-103,16,-128,6997,-4787,804
14,-86,-84,3769,2126,-13732
-99,-55,25,-2064,5517,-6212
121,9,118,3644,-1737,10375
84,109,73,-7468,502,7920
2,-70,-25,-4417,-1074,5891
-127,76,-116,804,-3636,5409
-25,-5,-61,-2117,-4886,6589
-25,49,-25,-1856,-2194,4057
63,-29,115,-5970,-4508,7997
-16,50,80,364,-6129,1531
74,110,-41,2384,-4562,9399
89,-16,-1,-4577,1258,4549
-40,10,-73,-6307,1854,2809
126,25,93,-1978,-359,-832
76,42,-124,-2421,3735,-2691
-78,-61,-29,927,3002,-3269
-23,-87,-112,-2712,2775,-843
-85,-109,0,-258,730,857
-119,-61,36,1248,-680,207
-74,-58,71,1493,-783,-29
-31,-65,78,740,-105,258
-25,-17,83,-1049,246,291
-94,-123,-27,6101,-610,-2385
85,-122,94,2334,2773,-4387
26,-59,-128,464,3604,-6781
-62,-54,-122,-235,5718,-7890
74,-117,15,1110,7091,-6268
-84,106,81,-701,7711,-3970
-112,-124,99,-1798,8165,-3257
69,68,-76,3717,790,-7812
104,100,21,7395,-4208,-8967
-70,-86,98,548,-788,-3583
51,-126,-65,-9713,4688,5391
-48,59,26,-4248,-3038,7555
104,-80,-2,-114,-2850,1062
118,-106,47,4284,-2512,-6520
-69,15,93,1434,1483,-9451
48,55,13,2986,6659,-4863
-29,50,60,-4404,2675,4978
19,-99,-1,-13303,-17,7213
-43,106,2,-1419,-4863,6653
-62,-56,54,2101,1725,5373
-105,55,-45,-3527,-3763,4078
116,0,-45,-3065,-4235,1905
-127,-50,106,-3314,-5244,3520
-94,-102,-101,-2850,-7324,5236
8,47,90,-195,-5278,3641
8,75,-102,997,-5089,6146
66,30,68,-3547,-1813,7821
1,-72,41,-9847,2498,3979
-50,5,-80,27988,-15585,-1492
-67,-51,-53,-12661,9772,-4456
50,-5,-12,-7490,3644,284
108,-63,38,-1694,2712,1669
-123,95,-89,-614,1436,587
-34,104,-55,991,163,72
98,98,122,1639,854,105
61,119,59,951,53,-772
-29,74,95,70,-1115,-1490
3,-26,80,461,-285,-1234
-9,-31,126,-1295,-297,-1211
-66,69,23,-5658,364,-1737
-13,21,-33,3917,2404,-3418
69,93,86,2324,3359,-5861
87,26,110,-40,5205,-7600
93,-116,0,-3787,7899,-6376
21,42,91,-575,7888,-3091
81,-111,33,823,6607,-1023
-109,-97,-97,-5090,7001,125
-93,-85,52,5318,2511,-4825
-117,-25,-30,6518,-1565,-10132
-22,-51,37,-1354,-4163,-5741
66,-109,56,-2342,2828,7227
-105,-65,114,-8119,1792,7762
-127,-39,41,1767,-2240,928
-112,-88,-69,5175,-1116,-7982
-93,86,57,1628,-1298,-9456
-11,-25,4,-838,7200,1019
22,107,-107,-8560,1703,7037
12,44,40,-8186,1192,5814
125,-119,40,2051,-1053,4068
54,108,-10,1671,-2337,4307
25,-97,-11,732,-4224,3558
-56,94,10,1463,-7132,6233
-65,-124,-127,-3571,-6085,6663
90,-12,119,-966,-5714,7670
-79,-42,77,-3773,-2328,4226
-125,73,116,904,-1718,3641
89,-49,-124,3950,1032,6523
-27,-94,-60,-6966,-1268,4937
21,88,110,-11492,-1105,1320
-73,-57,-31,-2126,7473,-4284
112,-94,87,2125,1437,-5129
109,-21,-124,-798,1390,-1429
54,-3,54,948,-262,815
22,76,94,1401,-857,454
97,103,115,153,268,475
-77,-119,122,-1529,964,858
-33,-80,83,-1894,740,886
-18,-31,90,-2223,326,372
-14,-3,121,-2164,0,-74
-49,-9,-108,-1338,-596,-424
-19,125,105,4830,2903,-3202
117,66,-85,4058,3069,-5243
92,13,-44,428,5531,-6007
-68,-2,-32,2092,6435,-6448
-116,109,-36,1234,7099,-6293
-109,117,112,427,7041,-6694
21,-74,23,4313,1826,-9649
127,-22,-77,5033,-4992,-9672
17,-38,-116,582,2720,-2323
-17,-12,-43,-8767,3263,7144
-108,-88,32,-7430,-2807,10081
-101,0,-55,-1730,-2225,5415
12,103,40,5776,-3814,-8445
-109,36,-16,5286,-818,-11882
90,-44,58,-3747,8018,-6314
-49,75,-70,1487,3129,6982
116,109,112,-10008,-2371,7556
-116,-124,80,-1777,-808,6185
-64,65,-98,72,-338,4527
1,116,-4,-2622,-2928,5660
107,123,24,-1588,-2733,4340
47,-107,40,-3519,-2984,2417
-36,60,124,-4725,-5628,2638
-63,-8,-122,-2017,-6719,3057
109,10,7,-1046,-6217,4734
27,64,-93,-1037,-2084,5667
112,-37,-67,-4250,207,3217
-126,-98,4,-3664,-1095,1432
81,-37,42,26070,-17111,5003
-107,116,80,-7962,12116,-6224
118,-105,69,-3259,1121,-1331
-127,77,89,-580,1579,1423
-128,-100,47,1898,179,1068
-108,-51,41,1643,-334,-45
-16,-44,72,-299,121,-110
-2,-69,64,-860,219,130
-27,-69,65,-934,38,-389
-41,-82,94,-1154,-233,-179
-81,-66,-125,-1105,-911,137
-45,-74,-95,10,-742,611
-3,123,-93,3529,1942,-2829
109,49,111,1545,3374,-4288
-102,59,-66,1804,4985,-5845
35,-36,-43,-349,8042,-6491
-5,14,86,439,9693,-4596
-33,22,-120,-2243,8152,-3249
38,-28,104,2810,6565,-3206
-85,13,95,1903,-795,-7265
-16,50,114,8933,-5061,-11391
72,-78,-36,541,-879,-4569
-3,-116,99,-6809,3839,7825
-47,27,127,-7038,81,7819
-121,-39,62,-593,-2868,4556
121,-36,11,3745,-1483,-2398
-63,-3,-52,3473,567,-12575
-114,-128,-23,5421,785,-2691
4,25,-125,-10798,6970,6153
92,42,-106,-6071,-1014,5410
2,-24,-98,2000,-1719,3417
106,-71,-44,470,-788,4725
-27,75,-126,-1093,-2582,2821
99,97,-105,-2606,-4916,5266
-28,78,28,-2859,-5901,8430
-80,22,23,-4108,-8570,8601
42,-120,82,141,-6219,3129
46,66,127,-10824,5161,3846
107,-66,-8,-4290,-2303,2241
-16,115,-15,-7450,-4112,1684
-128,14,-99,-194,16132,-1732
83,-81,106,4442,1783,-2066
-3,-60,-73,492,104,-2163
75,90,-55,741,226,-14
86,44,79,3280,-869,1997
95,-123,61,2770,-580,1173
-54,-85,81,115,502,1351
14,-53,48,-1821,1333,1686
34,63,49,-3648,679,1086
38,109,106,-4132,71,-16
25,78,-97,-2493,-65,-776
-11,5,-37,-48,-504,-1157
-107,8,113,2553,3475,-4478
-83,63,100,1049,5210,-5926
-43,-71,52,1551,6609,-6316
45,-54,-59,3469,6382,-5727
100,41,125,75,5393,-3862
-83,-9,85,-2300,8801,-3630
32,1,39,1705,1601,-4866
63,-63,25,7499,-3290,-9899
-98,-34,31,2609,-4854,-9201
-2,-124,50,-1148,5040,3962
-53,91,-80,-13208,-1781,9390
-72,-70,-12,369,-2151,6858
-35,-37,16,4254,-4440,-973
-42,126,-6,4223,162,-12871
55,-49,-72,-3900,5884,-10649
-24,-12,31,4782,2511,7210
59,59,-51,-14175,920,7029
7,-92,56,-1348,-1492,5573
104,71,-59,-629,-5115,5475
98,103,-48,258,-5471,6725
93,18,-43,-4989,-3382,5349
3,-118,-13,-2677,-7934,5101
117,-11,-37,-3041,-7180,6073
104,-89,95,-2641,-2532,5688
-15,118,52,1213,-2703,2524
-79,-79,12,-2329,-3482,4674
59,-18,113,-5331,78,3032
69,18,65,-4441,7430,-5297
-64,63,26,921,3065,-4060
-86,2,-29,-1609,2017,-651
59,-51,17,-3163,69,-295
-113,-127,77,-149,-447,166
-6,109,48,1871,56,1044
-73,88,-112,-2516,-1450,835
-54,-84,-12,-4273,-452,214
34,-30,124,-18,2213,-1050
-36,-27,0,-1239,-160,-1381
-109,71,65,2333,-1221,1454
-21,98,-109,519,464,540
57,30,60,145,1792,-639
93,64,73,4169,2883,-2624
-68,-83,99,6748,-588,-8459
-27,104,120,-682,6386,-8178
4,34,88,253,8938,-6983
17,-125,-16,-3467,13035,-6460
48,12,88,-1844,8515,-6078
92,109,92,4475,3546,-6957
80,44,9,9125,-4276,-11669
110,104,-3,-7283,4007,4992
-55,90,-31,-9093,-1828,8542
-41,48,-22,4092,-1060,4944
-98,-116,6,2843,-1550,-6501
109,-91,120,152,3137,-8618
-58,83,85,3654,4381,-1150
-86,108,14,-9880,3076,4748
-125,-25,-57,-6098,-2900,6201
70,69,-103,4360,-4931,4291
76,61,-37,1589,-6661,4713
-52,-73,71,1483,-7415,5615
-30,-19,54,-1262,-3813,7294
-24,-35,-12,-1398,-3372,8204
-83,-17,-38,-3511,-3616,4607
85,105,22,588,-3698,6470
7,-110,-39,-4443,-1628,4952
11,83,94,-3741,230,1571
56,87,-114,-4702,2290,2
89,59,-66,-2179,9025,-4122
60,47,6,3336,282,-2299
-70,37,87,-1613,1515,-1589
64,-45,-18,-472,-222,330
27,71,112,-150,-1449,1992
-70,96,51,708,973,1304
-16,51,78,-3212,1094,514
-2,22,-118,-3247,377,141
75,-124,38,1022,857,520
12,74,123,-1468,-524,-808
-33,86,-62,-3495,32,-1703
-6,49,-21,1560,975,339
-28,-63,-14,-897,573,221
20,-8,85,455,225,395
-60,-77,8,5264,610,-1614
31,48,-55,3544,2205,-3469
-10,29,-16,197,6077,-6704
111,26,110,1667,5557,-7283
-97,-21,33,4356,4187,-7533
109,-100,-58,1218,3826,-6790
-115,-54,-42,685,3109,-3777
-38,29,-91,-616,2454,-3854
86,-52,82,2108,-788,-7405
-18,61,120,5943,-4655,-8688
99,-30,-21,730,100,321
-106,-43,127,-10079,3071,9216
-109,-77,16,-2436,-366,6772
-15,67,112,3148,-2672,-1436
91,-59,-13,1929,-851,-13350
12,-123,-88,-2972,6750,-4728
-95,-37,111,-1255,601,7415
29,-25,-17,-10386,-459,8039
-108,-37,-48,1406,-4745,3580
-53,-126,-80,4753,-670,-9609
-86,-87,-60,-2263,2216,-9475
-38,-89,11,2889,3655,5409
-94,116,-119,-6314,462,7103
-63,-13,-5,-4583,-746,5275
-58,65,45,-76,-704,4460
38,28,-48,-3856,-4903,3283
-112,-64,-27,183,-6275,1228
36,-119,-61,-1900,-5569,5358
34,-87,56,-1244,-8873,5518
-54,90,66,-2831,-7627,4885
29,-43,-4,-583,-2262,4553
-88,47,-3,979,-1675,4473
14,120,-52,-4879,438,2300
-60,54,93,-4625,1155,-1053
101,125,-116,3626,-1221,-963
96,64,51,3060,3981,-2645
11,-116,-84,311,-1466,-1401
-77,115,-104,-672,1991,1105
-120,-121,34,394,1562,885
109,-44,68,-575,-277,267
-54,23,69,-614,3317,-4048
29,-42,-78,-167,3563,-4732
84,65,-87,1995,2868,-4634
39,-60,-31,-1423,4875,-3224
-44,79,-16,-2053,7533,-2459
51,-120,73,-1533,6794,-1956
-95,28,-18,1273,5099,-1023
-76,-96,40,1003,4221,-1773
21,125,8,-193,3994,-4840
-78,-90,-102,7492,-1059,-7964
81,111,81,7679,-5212,-7167
89,-51,36,-2378,5109,-1575
-54,100,-10,-7280,2994,8617
-110,47,-51,-4118,-1346,6637
-26,-101,-84,4923,-3622,-1091
-24,-60,44,2218,-1334,-12352
-70,-125,105,-368,1475,-7231
-52,49,-108,2282,2250,4176
-128,-62,87,-10235,2539,7206
102,-17,59,-7118,1099,7226
12,111,92,-2176,-756,6810
97,-120,-32,1454,-3269,2936
-41,36,-103,-555,-2270,697
-12,-20,70,2071,-2900,477
39,16,55,-648,-5576,3797
42,-14,-95,-3067,-4325,4850
-86,19,-65,-1543,-3868,4375
-56,-88,-68,-3606,-2321,4437
-45,-6,54,-3248,-4258,4566
19,41,-88,-689,-2587,2662
-111,-26,-127,583,400,4182
68,115,119,-3480,-1392,2500
33,-9,116,-6329,227,1548
-12,-50,84,12440,-5653,-964
-81,-41,50,-1451,6430,-3491
95,114,102,-1071,-227,-1017
-95,-92,-110,-1322,796,1190
-92,-78,71,495,859,723
-55,-36,66,186,566,101
9,-22,75,-805,373,252
105,-24,-22,-6984,1671,-1346
-61,-86,-15,2282,670,878
75,100,-65,-1366,1464,-388
77,11,120,1523,-704,-72
101,23,123,1503,-243,-537
74,-13,80,1221,155,-680
33,-43,46,447,0,-400
30,-60,46,-308,145,-302
20,-92,46,-216,-9,-5
33,-82,67,-557,-232,227
62,-79,111,-314,-360,369
83,-77,123,288,-251,334
100,-51,116,190,173,-55
117,-69,93,-97,691,-507
86,125,43,70,553,-450
68,98,26,278,8,-81
62,98,25,132,-192,305
78,127,36,-285,53,384
104,-125,41,-355,140,411
126,-121,36,-352,135,357
-115,-113,34,-265,90,117
-114,-117,43,-268,92,-65
-121,123,48,-43,170,-147
126,113,43,-189,181,-194
125,99,40,-92,237,-223
-125,82,30,-20,194,-204
-120,78,27,-71,175,-178
-122,79,27,-254,239,-235
-126,71,31,-242,315,-159
-128,69,27,-156,284,-134
-127,67,20,-101,177,-18
-111,74,16,-139,367,-10
-82,69,9,-204,269,59
-46,53,12,-109,11,166
-60,91,15,-253,97,-175
-93,78,20,-164,157,-359
-94,62,38,-419,130,-150
-95,50,52,-128,87,47
-85,51,51,319,123,162
-74,72,34,51,212,36
67,-88,76,5443,187,-3269
-13,-106,-72,1507,3593,-5524
-96,88,-59,955,4850,-6930
-96,120,-84,2038,5264,-6787
72,-36,6,2250,7217,-5318
108,-126,76,-1496,7618,-3367
-75,-14,104,905,1863,-1971
109,-39,-109,1885,406,-3496
-67,-81,-82,2431,-3334,-7276
41,-27,95,5782,-5749,-10165
55,127,-38,-2150,-641,-2122
122,-83,-78,-3825,4066,8540
59,10,-121,-6565,4128,6729
-35,123,-92,-240,-1904,1954
-10,114,23,5982,-2376,-8195
-22,53,-80,2865,-2892,-9916
26,50,36,-494,7534,-550
35,94,32,-2856,222,6529
84,-124,59,-4963,1021,5758
-117,-51,48,-823,844,3885
106,77,-94,-2196,-1269,3196
-52,91,-63,-3409,-227,2678
-89,-29,30,-1531,-1483,2263
-124,-76,-5,-795,-2530,1947
-62,-113,-52,-1618,-2713,1571
-84,46,-112,-2136,-3755,2488
111,79,92,-3111,-5291,3164
-37,-25,42,-4647,-4855,1687
88,-95,34,-404,-6126,2636
29,-51,-70,-457,-3314,3110
-42,-54,-85,240,-2036,2959
9,118,27,1249,-779,4093
-113,-50,91,-5164,-5,2724
-33,-90,17,-5553,-16160,-773
91,-20,-42,-2066,11744,-4220
20,-63,97,1363,3150,-4209
-39,68,120,-2919,1539,316
94,31,48,1236,-1384,2834
121,-47,79,1668,-1163,1364
-74,-36,85,829,-198,134
-113,-71,107,4126,3034,-919
4,-54,-32,4834,4678,-4260
-13,-33,53,2781,5178,-5538
-123,-38,109,1149,7369,-6452
83,-50,17,4243,4256,-7041
-57,21,-109,2578,5342,-6508
38,5,113,606,5604,-4572
122,53,-36,3666,1245,-8970
-113,42,-94,9589,-4274,-11377
-10,-64,124,-2066,4636,1872
85,0,-9,-11268,-3354,11012
97,-126,-60,2799,-5015,9828
49,-124,-123,-361,1384,-6132
-4,96,57,3448,-47,-10264
-106,-116,14,1788,1016,-7346
-118,-2,97,-1029,5766,4379
126,25,-62,-9092,284,8654
27,24,28,-1890,-3399,8253
96,-82,-53,2888,-4187,3676
-78,5,-71,-1757,795,-130
63,-48,69,-3413,149,1451
-52,107,-83,-2544,-1014,2460
-117,-123,42,-4086,-4732,2840
-112,-80,-10,-5770,-6592,1991
-68,-14,102,2522,-5612,2380
-121,-102,31,-1484,-1261,3552
28,106,48,-1833,312,1810
-71,-24,-120,-1735,-3919,3036
18,-124,-67,-51,-3301,2733
20,9,119,-2245,-2241,2480
-48,11,-85,-3329,1747,1427
-27,19,-50,-6782,-20007,978
-109,52,122,-2306,16087,-4420
27,-23,25,5178,-541,-2175
-61,-121,-121,-2740,2038,650
-40,50,-58,1303,102,2786
-40,-91,-4,1431,-1047,1612
-21,51,96,-2088,-636,-217
24,-43,98,-1579,110,-193
43,-73,-122,-797,292,454
124,-40,-35,5873,1035,-4161
37,-19,-84,1458,3582,-5534
103,-10,-64,1962,2719,-7831
-76,122,-84,2159,5579,-7493
-74,96,-128,1661,6562,-5136
117,88,124,-2241,5360,-2445
104,71,-74,2951,432,-3547
-105,110,99,5404,-5289,-10656
71,72,94,3121,-5358,-10881
57,-105,-97,158,2123,1872
-78,19,46,-8593,2734,8067
-105,-24,58,-3890,-828,6229
47,-71,-35,5977,-5026,-1184
-100,-94,-111,-2950,4294,-16452
38,40,-124,3627,1957,-2471
-65,85,-112,-6133,1414,8318
-79,50,-54,-5757,-1634,7700
91,88,55,2757,-2652,4842
-16,55,-114,-798,2098,4321
5,-28,101,-1186,363,5732
-67,-127,-58,-1125,-1602,4878
46,59,-68,-3015,-5456,5886
45,73,107,-2948,-4622,4809
-12,106,77,-451,-1306,4177
54,49,68,-3649,57,3336
-41,-63,-53,-856,-698,4721
47,84,9,-3060,-3804,2958
-104,-51,120,-5964,-585,2118
-20,-8,-79,-8360,1176,-1254
-4,50,118,-1961,7392,-1829
-14,79,67,4051,1258,-1361
56,-79,78,-1246,-1689,4
-91,-91,-106,5,341,940
-14,-89,81,1505,1545,1010
59,-53,15,916,1299,902
99,4,22,-929,216,594
65,-17,39,-1048,-756,-91
40,-33,67,-617,-764,-2
36,-2,113,-1238,-247,-56
40,12,127,-1752,203,5
-55,-113,9,3901,1564,-2474
83,45,97,2265,3034,-3740
-105,-98,103,1309,5722,-7147
-80,25,-88,4301,4429,-6426
-51,-117,-72,3515,4850,-6862
87,45,39,1812,6116,-3557
6,97,-28,-1371,6165,-2155
124,-50,-31,-2344,6283,-3613
-128,-103,-74,7224,-2198,-7983
-57,-24,-48,7877,-6360,-10994
-124,-31,24,-4327,7745,-4873
-25,-94,78,-7275,-508,11380
-81,-28,-46,474,-5830,12000
51,83,-114,-1624,665,-10250
54,34,117,4188,-1809,-9716
-49,45,-40,1178,1492,-3552
127,45,22,-1472,5877,1508
62,-96,47,-8925,1063,7405
-13,-91,32,-2318,-1721,7113
100,-50,-85,-61,-951,3519
-98,-69,56,2030,-1253,3812
11,10,-65,-1899,2,4404
-7,-115,104,-1612,-561,4554
85,37,-27,-2553,-3331,4459
108,-109,-32,-5945,-5130,3195
93,-60,-85,-6696,-5782,2056
23,-94,124,-1608,-2321,2354
108,80,-51,892,-2892,4215
16,94,-113,-2599,-5631,3771
-77,70,-16,91,698,3551
-58,-81,-115,-899,222,1822
13,-96,80,-8099,-2086,494
82,34,124,-604,8986,-3092
104,36,44,-1429,2240,-927
-117,10,126,-3834,1178,-532
-73,-12,-110,-729,1464,550
-53,24,-102,894,536,812
29,93,109,1093,582,311
72,80,62,894,543,-100
50,18,8,1173,-337,-691
-7,-104,113,5498,2107,-2484
-74,75,93,2433,4112,-4679
-52,-39,-115,3578,4370,-6870
85,-83,-20,2793,6287,-6450
-90,0,74,1649,8886,-4362
-34,65,-52,889,6396,-1894
125,-93,114,-155,4203,582
-58,-113,74,3740,4,-4904
-16,56,-3,3974,-68,-8919
-82,-68,-92,7044,-6290,-10793
123,-16,-93,1601,-138,-1978
84,114,-46,-7802,2572,7991
-103,74,-54,-6861,584,8872
-59,36,36,-167,-1997,4129
105,-66,-73,5668,-7190,-5042
-65,-49,-99,2901,-179,-8265
6,-58,-14,-69,-604,-11090
62,53,-28,-5690,20800,-963
-112,-116,-72,-843,-10535,11494
60,-36,-99,-4764,2998,5562
91,-65,-71,-2849,2277,3930
-108,63,122,-454,-1127,4782
104,14,-92,391,-3139,6199
99,37,-66,-6883,790,5324
-88,-103,29,-3044,-7828,5818
124,-35,-49,-5797,-7250,7092
73,-97,98,-1627,-3179,7632
-60,-43,-124,-1621,-1009,5351
-1,-21,8,-3858,1762,2804
-70,74,-3,-13353,1785,-618
77,-38,-39,-6139,8483,-2441
-94,-83,10,2732,724,-4476
-74,-89,-8,-3325,1967,-90
112,-122,46,1222,-85,1842
81,-24,65,2704,-1115,277
-85,15,108,604,-642,-33
-17,-9,-119,-994,145,855
2,36,-100,-1987,222,520
6,92,-62,-3066,342,-188
-10,77,-27,-2602,176,-467
5,89,-72,6489,94,-2150
98,-125,-45,4218,1649,-5364
53,-117,-34,1515,6405,-7590
-71,16,8,4593,2293,-7222
-37,-113,77,-19,5922,-8361
-2,118,-44,1647,3756,-5990
30,77,-82,1596,3157,-3977
-109,-120,81,-167,1494,-3734
-60,-2,-72,2627,-387,-6376
60,-45,-1,5908,-7319,-8513
-73,-43,-101,-217,6028,2401
-32,91,-6,-9775,-2406,8317
44,-33,-115,-454,23,3474
-74,-124,-86,-2023,-2456,-1234
-56,-69,-59,5348,-1176,-9664
5,-34,-18,3752,-2730,-6878
-66,-7,106,-2834,10005,2676
-69,-56,-105,-5357,960,9463
2,47,-63,-2924,649,5691
124,105,-1,2117,176,4552
-51,109,50,-948,-185,5305
114,20,119,-4831,-814,6656
-106,-122,34,-3627,-3110,4996
-97,-28,32,-4081,-2737,4202
63,-106,71,-4617,-2226,3284
60,-27,94,-4515,-2288,3324
55,-69,-114,-3003,-3401,3902
97,-71,-37,747,-394,1925
-4,10,57,-718,-2203,1912
32,-64,-43,-1100,307,1921
16,92,-44,-5313,666,815
-105,-128,94,-5822,-19512,-1609
-3,-61,86,1668,14054,-3383
-98,21,38,2575,-258,-1333
-70,1,-84,-3611,279,432
-72,-126,0,411,388,1131
-29,-30,27,910,147,511
27,36,82,-1603,334,-182
69,11,85,-1796,802,49
75,5,87,-1158,499,-37
-34,-55,86,8107,-1244,-2631
41,-112,47,1707,1926,-5277
-63,44,106,1135,4043,-6713
-82,67,35,2817,4387,-7963
111,99,-41,2279,5083,-7641
52,88,117,627,5960,-4599
61,111,95,-1017,5460,-2767
-32,-55,-11,1690,1330,-6786
49,118,2,4372,-2517,-11013
81,119,92,6716,-11266,-10933
126,-93,98,-6297,13410,6648
41,51,71,-6763,-4644,13158
107,-116,126,1181,-1435,3698
-87,-103,-32,-1630,1485,-7667
-120,-87,29,6771,-4218,-10476
24,92,-113,-3426,8543,-4579
-102,-67,97,-2382,3000,6807
95,111,120,-5740,-155,8490
9,-87,-6,-2281,520,4366
96,3,88,675,-252,3844
91,-110,-80,-3728,-2008,3530
39,12,37,668,-3350,3588
105,42,58,-2001,-2072,4509
83,-82,-4,-768,-529,3893
-12,86,-6,-3363,-2894,4265
19,16,-72,-2695,-3269,4733
8,-115,-21,-3786,-4248,4209
-90,-110,97,-2663,-3000,3966
-49,32,104,-3968,-1918,2995
95,29,94,269,-72,2170
33,-49,-111,-3253,-221,370
-103,-14,-59,7231,-6725,-301
-127,100,-80,-3471,8038,-3477
107,94,-83,592,-489,-1628
-64,103,-109,114,930,1008
-95,-103,9,1339,925,427
-65,-70,5,426,412,105
-12,-65,25,-963,438,360
-3,-54,22,-1039,296,333
27,-45,68,-946,-31,154
-51,-59,106,3683,-1400,-4392
-105,39,-4,3720,-493,-6044
120,13,111,-2096,2524,-7372
60,32,0,-617,3504,-6979
-47,-123,-38,-173,5044,-6793
49,27,-14,-2774,6527,-3911
-61,-84,-61,-2238,5926,-5587
7,121,-46,5326,-2330,-11131
-51,83,-4,3360,-3125,-6947
36,-108,-51,-6135,6443,5826
-46,-79,-106,-3387,-4478,12796
112,-107,-126,1899,148,-7041
38,24,-16,-204,-2844,-17319
7,31,68,3151,6759,2359
-65,104,-51,-4818,-89,11426
-123,12,-4,-4108,2124,7685
99,-36,38,2138,1678,3335
-84,35,22,-5388,-162,4161
-52,-125,97,-198,-2388,1244
-91,-37,-46,-2566,-2448,4013
6,78,-42,-3138,-3419,4526
23,-23,-55,-308,-3367,4782
-14,56,-38,-1871,-3829,5312
-125,-35,10,-3510,-263,3229
38,-61,87,-3324,-2668,2796
74,-110,56,-1242,-2608,3425
-6,18,124,-739,-1039,1965
67,-40,-59,73,798,1460
-16,94,30,-3867,565,277
76,-31,-124,-1187,462,-346
-35,97,49,-2896,-2940,-1187
105,-30,-13,-724,3778,-512
-47,-128,125,3200,-126,-600
-11,-34,48,-1867,638,-530
-35,-112,20,-494,521,105
-11,-124,15,376,304,199
20,-75,37,-638,150,246
56,-68,79,-900,98,302
79,-58,105,-666,174,526
98,-28,86,-531,514,-56
43,-99,49,2739,944,-3855
110,-93,76,3709,716,-3529
-53,112,61,1121,1606,-5898
11,68,5,1431,1707,-7063
-18,105,74,2048,1270,-7600
-21,-26,99,1474,3306,-4071
-79,65,95,-1337,4184,-2318
100,86,124,507,-2570,-8983
-105,-9,117,1261,-6344,-11860
41,-114,-86,-4690,5948,-5524
96,-90,13,-3365,-1155,9617
-18,80,8,-253,-2335,11493
114,29,9,-909,806,-2345
72,125,-124,534,627,-14675
23,-62,-29,1318,1006,-3349
0,12,48,-2728,1311,8571
62,-21,56,-1973,-360,10596
114,-40,-94,-794,443,4776
64,-70,-99,707,-2806,4425
85,9,-97,-6335,-2274,4633
28,-31,20,-3077,-4272,3918
-99,74,91,-3770,-2397,5641
-40,-80,0,-1891,-4043,4520
-14,103,16,-3074,-1389,2827
67,-88,104,263,-2642,3036
-109,-104,-120,82,-1109,2600
-122,-24,70,199,-15,2726
90,122,-96,-1768,776,1378
-68,-82,-63,-3985,609,-1218
104,-6,-32,-1172,1178,-1848
-6,-116,76,-381,1088,-626
-67,120,-114,1630,-914,96
4,-85,95,1104,-401,-255
29,-95,58,423,393,-178
36,-83,31,-449,653,-184
35,-83,54,-891,154,98
50,-91,59,-131,274,75
70,-74,61,-216,289,-197
74,-85,58,-191,206,-134
80,-87,56,-190,207,-248
108,106,17,6174,352,-2589
7,-84,-94,8107,-1534,-3714
5,104,109,714,1644,-7473
53,-115,-34,1000,3289,-9592
30,-7,-110,2251,2597,-10246
108,-113,-121,-20,2871,-8911
-103,-74,-82,-2700,5446,-6058
-100,-52,-32,4249,-8440,-9145
41,87,50,-2313,-463,-8136
-96,83,71,-3667,5198,7734
-57,-96,30,-4899,-1636,12572
-16,-32,105,1443,-2447,810
79,6,-86,-3527,1829,-12852
-71,-118,-74,8383,-3156,-6694
43,-88,35,-605,2347,3060
80,94,42,-3451,1237,9838
-58,-64,-77,-212,-138,7825
116,104,-30,-751,308,3893
76,-29,-1,-3488,-1210,3892
100,-93,-51,-150,-3188,3352
-120,-70,-43,-2879,-2414,5085
117,-122,126,-3628,-3603,3537
27,11,-114,-2219,-3095,4015
47,-11,-26,-1574,-3260,5337
-61,-110,14,-2453,-2572,4999
-119,3,22,-70,-1476,2989
32,-12,-113,-4873,1566,1856
57,50,18,-6248,2064,-404
73,60,-31,-1698,-2197,-2013
102,53,-60,-3985,4747,-570
-65,119,-40,5541,-1180,-1146
-44,-32,65,771,-458,-666
-20,-63,63,-383,670,-49
-15,-83,23,-227,933,177
-22,-59,19,-422,140,274
10,-90,40,-122,-322,643
-123,-48,95,-1238,142,1196
-102,37,126,-1933,349,597
77,53,116,-417,360,-683
59,5,113,7,455,-873
76,28,-56,5719,-803,-1661
-37,41,51,7180,1312,-5905
5,4,53,141,2038,-8365
-14,-56,80,3525,-319,-9800
-121,117,87,2003,2558,-9787
-128,-75,-123,-1469,5479,-7219
-34,-85,-33,630,-251,-10260
-18,39,58,4950,-8200,-10979
-19,46,-42,-1770,3545,-6633
60,-83,36,-7065,881,12134
-18,19,-102,1029,-5804,11356
-49,28,57,-4754,5243,-8725
80,28,21,6279,-1970,-9804
63,124,66,717,4363,2035
-10,69,31,-5703,1924,6428
3,26,66,-1694,-701,6377
43,85,-19,-989,-502,3062
-73,-14,-33,-1391,-1191,4289
49,97,-30,-3321,-1825,4184
39,-116,-67,-2391,-4409,5593
11,-20,-53,-5186,-3050,5902
38,-88,105,1699,-7455,4857
70,20,84,4035,-6568,4133
-100,-113,79,-4523,2566,5885
89,-57,8,-13910,-1464,4271
-49,-65,-96,-59,-8086,-1778
-71,91,-36,-4790,10876,-4918
75,84,1,3185,-1118,-1335
-65,113,111,35,1369,-660
-61,61,-52,1737,349,152
-7,103,-69,999,-445,1011
-22,34,-35,-2612,-2444,376
25,-16,-13,-1245,-1655,669
-10,17,65,-179,-559,257
22,3,95,4069,-312,-465
28,60,-85,-1043,1058,-642
-68,-25,113,-1955,282,138
-57,-47,10,-1125,1109,77
-41,-66,11,-340,1322,121
-3,-43,15,-365,1125,429
45,-3,0,8363,-200,-2046
-76,99,37,5168,-624,-5632
77,-76,21,4498,-1859,-5931
12,12,-84,5940,-3693,-6095
55,11,82,1490,-819,-8617
29,-50,73,-299,5298,-7378
49,29,-17,-3229,-2080,-12857
-86,106,-110,-3641,-1013,-13610
-8,46,44,8127,-3833,-8574
16,-78,-110,-8941,4871,4496
0,-8,126,-1870,-4626,16407
-70,96,-95,-3099,4199,-2790
-100,-34,120,5392,-3530,-15718
87,56,76,945,4627,-3063
57,-11,-26,-2093,514,7044
-126,-124,-2,-3283,1906,7820
-104,17,-94,-425,-1890,2635
87,-111,103,-415,463,-3038
-49,-33,17,245,-397,1044
-71,-88,-9,-273,-146,1704
-12,-73,19,294,586,2614
103,110,1,385,-123,3892
-123,-77,86,144,-318,5143
-12,125,62,-2204,-723,4592
78,63,122,-3888,-1544,5046
-87,118,-78,-3062,-1987,5742
-109,30,-46,-2824,-3255,4664
71,-86,-3,-2369,-1685,4837
119,-112,27,-468,-3614,3847
26,111,95,-5976,1659,2952
48,77,36,-4457,-826,1406
-30,-10,50,-806,-1236,1044
-49,-84,125,-2589,-3804,-1018
5,110,0,-4481,6218,-1541
-82,125,-23,2197,-1717,-508
-36,-56,79,861,-832,-1331
-8,-26,-109,-1039,776,-47
-32,-76,70,184,1338,228
12,-48,61,-109,652,379
31,31,104,-963,16,274
100,58,-34,5470,-1315,-942
-61,64,44,4206,913,-3626
-62,116,-85,-301,321,-7333
-48,8,20,-375,1262,-10327
55,52,12,2664,-1636,-11349
-50,73,-111,2240,2207,-5339
75,-70,-72,7554,-2618,1273
94,44,52,-12500,8119,-19917
-26,75,63,6776,-8940,-6157
-31,85,-66,3708,1638,881
125,-55,-8,-11446,3889,7521
31,59,116,-928,-482,5546
63,-34,-88,-320,1115,-4475
-4,-43,-23,2398,-1015,-12029
43,-100,-27,6033,-1342,-915
-73,8,-102,-7061,4659,9205
78,17,-55,613,1801,9290
58,122,-119,-814,1671,6161
125,40,-71,-3944,1484,3004
77,15,-5,-2355,-2812,4692
-60,-62,-17,-2377,-1980,5892
-87,-18,20,-4412,-2770,6563
-105,53,-49,2314,-4337,4101
83,23,-18,-6885,926,4933
121,30,-11,-171,-1749,2958
-123,98,59,-3144,-2330,3011
-21,84,-22,-3643,583,1355
-69,-69,22,-1217,-674,1549
-104,41,102,-2776,-3423,1678
-78,-123,106,3414,-1563,-1053
-120,-115,-54,25,-460,-422
115,79,37,-1000,649,629
-63,-62,-45,-526,802,16
27,23,11,-459,-64,34
31,76,110,-731,277,-244
-13,10,61,-1481,181,-51
-11,-86,114,366,355,240
28,-52,10,-145,-18,7
55,-42,-31,-434,347,-335
-8,-43,-3,-303,-290,-305
-36,-124,-69,6715,-1454,-2505
-45,-122,-13,3743,-178,-4415
-48,-30,-11,1728,1605,-7041
41,-4,-90,-2066,5131,-9886
-9,-97,-35,-1140,7964,-9211
-53,23,78,7158,1817,-5605
90,-63,1,3553,-770,-2272
-84,-123,-31,-2352,2644,-3690
-120,-56,119,2615,-2827,-13772
67,-35,-57,514,-2898,-9186
-41,80,-55,-2837,740,9995
125,29,-85,-7836,655,10366
101,-110,-117,4722,-3252,510
90,-44,37,1257,-579,-17210
34,-106,55,3411,-2645,-7184
-28,75,-40,-1837,3995,7596
13,41,70,-5730,2324,10642
60,64,-125,-1486,2401,5468
-21,-112,-66,-220,1556,4907
68,105,-2,-4661,-834,4881
37,103,-109,-7336,-5675,4856
-36,18,41,-8275,-7603,1218
73,-125,-104,8535,-4772,4906
93,77,-53,-3238,-539,4658
-66,-120,83,-1700,-10,2854
-93,-20,110,-5079,-2927,3069
-63,66,47,-5488,-3070,2212
-43,1,-128,-1139,-352,1869
-124,85,-124,-32548,-21203,1124
-103,105,46,-9594,10477,-3023
122,31,28,-3274,-2083,-127
-13,39,-56,-4736,2314,340
-9,-82,44,347,2980,1176
95,11,16,1378,2627,216
101,45,10,292,593,-13
45,19,-11,666,-1507,-200
40,-16,18,744,-1583,-534
66,-8,70,-683,-619,-436
84,11,100,-2109,669,-483
50,1,80,-1899,711,-654
-74,-39,126,7001,-2436,-705
-67,-65,78,8253,-854,-1709
100,10,125,-1084,4340,-5986
97,67,89,-2122,7447,-9917
-49,18,2,7347,-3178,-8782
7,-67,47,995,3593,-8020
-42,58,-125,214,6176,-3140
-4,-106,-103,944,2380,-4560
11,27,-28,1220,1076,-5990
88,-118,-127,793,-561,-4724
7,-110,89,665,-1564,-9826
46,35,-58,3797,-3190,-4618
55,-114,-93,-7424,2900,8473
-105,99,27,-6126,-558,6339
-105,-110,-106,4561,-3183,1393
100,-51,-81,123,-814,-8025
65,70,-14,6127,-3278,-10438
-38,-120,85,-1964,10361,-4523
-78,6,104,-6418,442,10584
-97,-55,38,-7981,1685,8621
60,-38,37,1646,-403,5492
-121,41,-25,1076,-1057,6114
77,22,27,-4074,-1400,4693
-59,-126,84,-6074,-1974,5450
64,33,-22,-1826,-2489,4495
103,80,27,-6586,-4274,5203
72,13,-37,948,-4797,3831
104,-8,-102,-4597,-655,3985
59,83,-88,-4625,-1721,4069
-19,77,101,-877,-1625,1903
86,-68,-18,-3468,-1329,399
52,-4,-23,9671,-6556,-511
90,87,67,-3303,7109,-3298
-123,33,-2,-4015,466,-1586
7,16,-99,-3105,1527,1309
40,-31,-125,901,1288,1154
63,59,22,2424,1067,7
54,45,8,1583,-725,-658
70,-24,32,744,-1325,-456
55,-54,42,249,-622,-477
