AccX,AccY,AccZ,GyroX,GyroY,GyroZ
46,17,-16,26,3231,-4437
-18,82,30,517,2763,-6710
70,-27,17,-1614,4273,-9102
-101,-102,-70,1324,299,-11445
-35,97,43,-3433,4977,-8343
99,15,-24,-3788,4986,5118
117,-16,120,-2178,4805,5274
48,8,101,-6025,4625,2995
5,-122,-4,2274,-8707,-559
64,2,-57,10071,-6933,-2982
-6,-126,5,-3824,-10,-7110
2,17,-87,2444,5100,-3704
-105,81,-40,-1082,7451,-2066
53,6,80,-9093,5470,4051
-60,-100,-41,1404,1632,5886
29,-10,-61,-5784,3145,536
124,29,-36,-2780,-352,1310
-58,-13,4,-5769,-6034,1776
-117,75,-73,-6018,-9904,3986
98,-61,-104,-4332,-13511,7583
53,111,-99,-1518,-6129,725
108,-97,-119,6286,-2516,5092
93,-109,119,-5182,1180,7715
57,42,-26,446,-7172,-3627
-41,75,-24,-4252,4951,-5497
49,-39,-68,1469,1588,-2223
-34,70,125,-3414,1608,-1201
-83,65,-2,-312,816,823
-59,109,8,609,274,742
16,-78,53,-172,-253,197
70,-82,77,-564,135,-42
62,-80,61,-524,222,-676
59,-121,82,-798,55,-1260
10,120,125,-1594,-664,-1079
-62,109,17,-1668,-1074,-399
-2,70,30,881,1486,849
36,120,94,1213,623,496
97,-54,65,-510,798,74
93,-73,40,-969,796,-167
71,-106,21,-214,212,67
110,-85,38,-1959,4575,-1429
-3,-30,-2,4707,3720,-6020
-32,18,86,951,2844,-8090
-7,98,97,303,3808,-11948
-120,-47,70,-4674,7271,-8220
46,61,4,-2722,5824,-383
-125,-33,-4,-7112,-200,4777
-98,39,25,-2299,-1818,7183
20,-27,-44,2723,-386,1840
-47,2,-13,-1071,1068,-6805
-5,27,-82,3446,-6792,-3897
-74,113,-39,-204,5251,-6370
-117,46,91,-1315,11612,-1689
-38,2,-14,-1822,-764,7601
51,113,5,-3563,-401,6097
-61,-95,10,190,157,1259
-127,-81,88,-807,-2258,-2156
50,-2,-33,-1880,-2446,51
-38,-125,-67,-1978,-6934,2939
-44,-105,-104,-3749,-8553,7356
114,-76,34,-1514,-10099,6904
86,-51,63,125,-4098,4496
-23,9,71,-325,-2198,3762
38,-75,107,-2785,-1737,1823
-127,-5,85,7252,-5193,3170
-51,-66,-103,-5308,6793,-5563
-101,86,-44,-760,1658,-2179
-119,-36,98,-242,618,-300
114,14,75,1069,380,678
-103,49,56,1261,141,425
-44,62,76,181,-42,649
-6,113,109,-1356,-25,298
5,110,-128,-1527,97,-145
-8,95,-119,-1056,-11,-454
-88,63,-60,27,-1253,-70
-49,35,81,1626,665,148
-16,78,127,964,254,576
17,-116,110,-1575,992,-187
32,112,71,-1639,1236,-185
28,72,47,-470,490,-55
-121,123,101,-440,5268,-4151
-82,-101,-17,2943,5328,-7271
-59,-1,47,2429,1658,-9862
-49,-36,56,-2422,5981,-10042
13,99,111,-1859,6555,-3539
-16,22,-128,-993,4546,3174
54,2,-89,317,1293,9647
-106,-28,-114,158,511,5662
-49,-31,-24,-4095,3367,1376
104,-3,-57,2670,-7206,-4135
-27,-86,124,856,-4508,-8315
-86,-16,-53,483,955,-10450
24,-128,-18,-1224,5229,144
-92,23,5,-3321,4068,5441
25,-123,121,-3644,2586,6021
-48,-81,-23,-1549,-205,2311
-103,56,44,-1676,-3573,-6231
-73,-97,34,-2348,-4231,1114
35,-65,76,-1152,-6631,6477
57,-54,66,-1519,-3821,7309
34,84,-48,-3958,-5223,4573
100,-104,-100,-2122,-6582,3637
114,0,36,1651,-5895,5679
88,17,-124,609,-2656,3005
54,-65,-107,635,-882,-859
108,77,91,5783,515,-1236
-17,0,31,-533,296,-1623
-43,90,-65,-1979,1089,-729
-106,3,57,-559,528,-273
-98,66,88,-1018,460,-275
-47,82,-124,-1489,687,-258
-23,109,-65,-1906,875,-357
-13,66,-93,-342,255,-289
-5,60,-124,718,60,-248
-1,80,-125,569,48,-354
10,77,-125,-193,367,-369
16,72,120,-405,488,-203
36,69,107,-284,482,-60
52,81,104,-229,447,-127
78,73,101,-120,465,-94
22,-50,35,11360,3634,-1270
-97,-35,-47,-3386,3625,-3498
86,19,74,-1570,2069,-2101
65,-49,-105,-44,-1037,-3108
-13,8,124,891,-1417,-5846
3,86,122,2644,-2001,-9158
-113,82,-117,-416,852,-13548
-22,14,-99,-7075,10119,-8007
-108,51,66,-4302,4659,7747
-88,45,17,-441,1181,8213
106,21,-70,-8988,-37,320
-27,17,31,2646,-6843,-6627
-24,74,53,2468,-8723,-2743
-123,-110,106,292,6206,-11148
24,106,-48,-10790,8509,948
-9,56,-43,2445,2895,10524
104,-27,21,-759,3352,5976
73,-2,33,49,1751,-2812
5,-72,-91,-1149,-2754,-3177
-119,102,-30,-2733,-4968,1992
76,103,62,-4482,-6292,5121
22,60,-79,495,-6842,6959
107,-46,89,-6744,-4628,5468
-30,111,17,-3347,-6272,3420
116,-31,-22,4273,-6894,6189
-36,91,9,129,-3045,5254
-100,-67,-70,-197,-435,-1205
6,-69,-16,2364,950,-3703
-62,-104,-34,-1375,530,-1568
-108,36,-95,-1860,667,-542
-81,86,-103,-1790,1512,-475
-24,42,113,-257,1578,49
32,54,70,913,824,164
24,93,63,156,-211,-121
61,123,-105,-1495,-631,-648
60,-125,-67,-2171,334,-1013
15,110,-93,-1432,1058,-789
-25,114,-125,-564,1015,-422
-62,-125,88,95,697,-361
-51,109,58,795,400,-113
-23,29,-84,-2232,3609,-1795
108,71,-72,-3441,3117,-2676
-25,7,27,1488,2580,-6221
84,76,63,3513,3581,-7164
35,-101,68,-3994,7709,-9757
114,25,61,41,6356,-8278
3,70,29,1431,4995,-4787
-60,-98,120,-6770,4999,3383
-112,61,48,242,-145,9578
-13,-128,101,-2963,4559,4753
123,-120,-110,-1734,-2237,-3598
-52,4,-18,518,-7734,-903
30,-11,92,2333,-4194,-1322
-16,-120,-63,-600,3389,-7960
-126,116,-27,-6927,6441,-4026
-47,39,-87,-692,4380,5136
44,-124,-75,-1336,-314,5163
29,-1,30,-3611,3754,1310
-114,112,58,-1979,-2500,1727
74,54,-112,-2320,-3018,878
-41,-70,2,-1770,-3921,500
-76,24,88,-2051,-5183,542
55,-128,48,2325,-6661,1794
65,-108,25,-4823,-6997,1139
-41,-89,32,636,-4238,6591
42,12,113,3198,-6084,7351
-51,27,103,2022,-1912,3437
59,19,23,941,-2462,2229
-10,-127,-117,-642,-3688,411
52,-24,35,-426,3755,-3297
107,36,-46,541,-724,-1321
60,0,-35,-557,296,-175
78,27,-66,-392,1593,702
-116,73,-74,-1263,1466,-78
-18,93,-115,-1775,2095,335
5,122,108,-1883,1741,141
-14,-108,102,-1538,576,-144
5,114,124,-202,-146,-10
11,-110,-86,-284,-216,83
10,-77,-86,-596,349,-191
-92,61,10,-485,2568,-6636
-52,90,73,523,4808,-9001
-3,100,-37,-2470,6971,-9809
-76,1,-103,695,6214,-7876
-33,49,54,313,2552,-1866
-89,43,-45,-4854,4428,6105
-66,107,-3,-5099,2841,7801
18,56,-79,-1466,2058,1110
48,-84,14,630,-4001,-5380
-14,41,42,2818,-5750,-1127
-54,-118,-63,377,1995,-6346
-125,27,16,-3565,8668,-2887
-14,-18,28,-1756,3978,4238
27,-77,-45,-1975,1594,4965
-3,51,-42,-1942,814,2312
-47,111,61,-2501,-2921,-4369
-76,-89,7,2228,-7105,-794
-111,-54,26,-3562,-2883,3587
60,-67,-118,-2138,-4888,5115
-50,-55,104,-1735,-4265,3624
125,-23,-33,-2744,-5678,3092
-16,48,-52,-2466,-6925,8025
82,124,-84,413,-7001,6760
68,-102,74,-1322,-3106,3407
96,82,-10,137,-4778,-2786
45,-25,38,-2687,3805,-4096
124,96,-15,1945,581,-2232
-58,75,-46,-2445,942,269
-90,-127,122,-2139,2036,-107
-68,110,62,777,1446,-191
-36,107,72,991,-133,-14
-27,-122,112,40,-842,-326
-24,100,-124,78,-327,-287
-18,96,-107,-434,255,-248
-14,109,-123,-1140,556,-73
-22,120,117,-1211,116,-42
0,-104,-86,-1468,-266,156
56,-92,-29,-1229,199,83
29,-89,-62,-497,1300,-425
17,125,118,430,979,-351
75,53,43,-1052,4228,-2560
-123,-58,-106,-1174,6971,-4378
-55,-82,47,1574,4006,-6562
-108,-3,107,3029,2627,-6591
13,-84,76,1205,4630,-9811
94,-126,83,-2456,6681,-6810
-66,-122,11,-2264,4296,-1415
7,42,-115,-5234,2450,4763
107,75,94,-3271,-175,7581
-99,-87,16,-3632,-763,2319
36,61,-116,-2249,-4454,-3380
50,85,83,6866,-11803,-1925
118,-28,127,1235,-789,-5720
5,-50,-81,-1323,9462,-8937
-79,50,58,-1503,6285,839
112,83,-6,-3863,3511,5683
2,-98,123,-3508,1556,4667
-40,-110,-43,-4828,1078,988
83,57,34,40,-5203,-2142
-77,-26,41,4643,-8415,-3122
54,-127,-85,-8727,-4804,3276
-71,2,78,1203,-7527,6529
-82,18,10,-4641,-3713,5683
-54,-71,8,-547,-7428,4088
-11,24,-19,2623,-11114,5682
20,85,25,333,-1327,4776
92,-38,-79,-3418,3858,-2024
82,97,-100,202,3947,-2455
-67,-114,122,1573,2670,-2444
117,8,92,2946,-1056,-710
-118,50,109,2078,-2354,550
-69,76,-55,294,-731,88
-46,90,-37,-1726,978,-541
-44,99,-28,-3370,1152,-919
-29,2,-49,-1085,462,125
-25,30,-64,444,427,48
-12,64,-101,656,339,32
11,87,-124,175,320,-9
18,94,114,-256,306,-40
38,88,113,-344,356,-38
94,16,-128,-1667,4800,-1865
118,-92,85,466,7648,-5642
-89,-52,87,4328,3614,-6576
124,103,100,615,5476,-7929
-22,-57,-78,-456,8348,-7002
-21,-80,98,-1911,7073,-1012
78,-23,-73,-2193,3708,2517
65,105,-88,-3781,4079,5876
107,-77,-127,-1227,264,3563
-123,-114,113,-7443,-2270,-1
82,-121,22,4714,-8526,-2483
-88,-32,91,1759,-8847,-516
112,-71,-57,-599,1756,-5409
-21,55,-58,305,5668,-7489
-110,-123,40,-3055,7071,-1966
79,66,45,696,4190,2288
62,7,113,-4106,2654,4548
3,37,-119,-3498,968,4466
-35,110,-67,-4607,-260,958
-121,24,-53,-1776,-4399,-2051
18,1,-109,1049,-7514,-1433
-122,48,-74,1658,-5176,-1806
18,21,-117,2541,-1304,-4156
-127,100,-102,724,2254,-5679
-34,82,-36,-462,5321,-1997
-77,-1,-99,1828,3395,181
37,116,-8,-1018,2493,1200
125,-106,62,-907,1859,1406
-76,-56,81,-1840,1477,1795
-60,4,47,-2770,652,1811
20,-1,18,-2825,-1152,2303
126,-4,37,-1897,-3472,2682
-100,124,56,-4061,-3991,3128
-119,25,-64,-3107,-6086,3659
-72,77,11,-2730,-8620,6122
47,-56,-40,-1608,-6181,5180
3,-65,123,2792,-3475,5325
-87,-21,71,2442,-2069,2156
69,-128,95,1067,3073,-4078
-56,-17,85,-913,-29,-3042
54,-59,-3,-2392,3656,-2396
127,102,-69,6216,4924,-5548
111,-111,-2,2192,-571,-10434
-48,-40,-56,-819,1213,-10583
-85,-82,57,-4694,6109,-10501
-48,-48,-32,-4549,5594,-3160
-85,45,-13,-3834,2426,4109
91,-38,4,-2503,5727,7588
31,26,17,-5529,4443,2674
-6,127,-105,-5791,-3377,265
101,51,84,6339,-5786,-1709
-118,13,-95,-2452,-9039,-843
-109,-28,-93,-50,2570,-6493
-19,22,-69,2794,5668,-6124
15,7,17,-208,6901,-1890
-123,-109,-3,-505,3634,2310
-115,-101,82,-5180,922,3806
-60,72,28,-2334,673,2847
-61,-51,34,-4633,-1310,1662
-83,76,106,-993,-2553,673
-91,-36,-18,-1568,-4906,457
-25,116,-43,168,-4814,-1553
87,-108,93,213,-3591,-470
-61,-57,69,1457,-3854,-610
-31,5,72,1067,-1909,-580
-109,59,72,-1911,-1414,445
87,90,45,-1021,434,754
116,57,-120,-1837,-1157,1320
-66,-4,69,-1252,-858,3383
-1,61,30,-2289,-2151,3680
92,52,15,-1208,-2835,3122
-86,49,-37,-828,-3607,2437
23,36,-74,1228,-3027,2959
-33,-95,-24,1276,-2649,2393
-114,35,-61,1122,-623,663
46,30,-89,446,-128,-976
4,-76,-59,288,1,-808
-58,116,-53,159,387,-237
-58,127,-59,-396,687,-447
-53,126,-70,-1290,1161,-987
-107,-86,58,457,3430,-7633
67,-25,93,1964,4668,-10424
81,115,74,-1647,5262,-10933
124,10,69,-2217,5773,-7377
32,-116,116,-2496,4723,182
63,-80,-65,-5436,2327,5053
74,-17,-52,-3752,-228,6315
78,-81,1,-2053,1561,390
-62,79,-71,-5199,-1889,-1990
-67,-44,-67,9633,-9466,-1926
-15,-60,-21,-2622,-4784,-3619
47,-6,-75,523,5275,-6211
-124,6,14,-2195,5747,-1636
102,-86,20,-692,7509,2886
99,-80,91,-386,1236,2896
68,109,-66,-2617,1188,3787
-74,16,69,-1887,1205,2802
37,121,29,-3735,-511,828
-28,-73,-1,830,-4039,-986
32,83,-39,-372,-5135,-569
-37,83,72,2747,-5353,278
23,29,-97,577,-3705,513
-18,8,-105,1011,-1127,-2822
-71,-124,-93,1441,1194,-4632
67,-122,-60,-938,4996,-2822
44,0,-92,723,3598,-813
-69,91,-59,-51,3134,244
10,-103,95,-1218,2285,642
75,-122,-11,-731,1176,1984
18,-74,-3,-2014,172,2805
-98,-44,-49,-3755,-1530,3211
-89,-107,4,-5052,-2472,5086
-81,-30,30,-4951,-5558,5582
-17,72,109,-2290,-4477,5202
61,2,-19,-2770,-3442,4430
71,-21,47,1071,-4809,4062
23,-17,117,-4095,-1091,1884
-49,118,-46,-1313,-1595,738
-92,-108,-28,271,3215,-1948
-66,40,68,6525,-740,-354
29,-75,77,-3308,4999,-2347
-84,44,100,4922,2367,-6039
-118,123,-93,1662,1263,-8771
-109,-31,-123,-1041,2520,-9885
-92,-122,-63,451,3451,-8354
-56,-39,13,-6280,6663,-4387
-72,-2,-52,-623,1833,4592
-1,-38,-122,1923,2975,4917
102,-69,77,-4023,2705,2910
3,-123,-20,-3021,2961,2923
-95,121,-81,-2362,-2459,1707
42,-30,-29,4034,-8212,-695
-121,101,-92,886,-8010,-2481
-84,70,119,625,-158,-8183
-121,53,118,-3941,5222,-7193
-17,-101,-75,-309,4526,289
2,22,127,-2422,3964,2885
-26,-21,78,-2118,3351,2236
-49,35,-21,-1804,1878,2637
68,-23,-74,-2571,1351,4051
17,-82,78,-106,-4338,2754
-101,-56,-37,-1122,-3822,917
75,-17,-87,1916,-5572,-1102
35,-75,88,1334,-4210,-2553
20,-54,-39,1637,-1067,-5919
-35,-51,-58,-3256,4083,-5014
39,-77,-42,-444,3516,-1553
39,-44,94,-3662,3369,239
-41,-30,44,276,1720,1434
-28,58,40,-897,1293,1070
-66,125,-23,-2764,-225,1066
-97,55,-96,-2774,-1621,2387
-61,70,-88,-3000,-2871,3451
-58,118,-72,-3063,-4702,3657
101,-109,31,-2699,-2992,4083
-31,-64,-120,-1490,-6171,3781
-49,61,74,-4351,-3421,2995
-68,-73,3,2995,-5936,3938
112,45,12,-226,-2931,3389
10,-116,63,-1821,-1922,2737
-32,95,4,-1907,3879,-1457
-98,57,-90,-1962,3748,-2890
-31,19,72,6932,2437,-4822
119,58,58,122,2241,-9938
-108,22,54,-682,5115,-7800
-29,60,-11,-3149,4591,-8568
47,108,48,-4082,5153,-2683
-85,-34,0,-1167,2291,3961
-69,115,-53,-3192,2006,5189
62,-79,90,-3925,1409,4941
-69,-102,18,-2256,-2565,-293
-126,126,-127,5043,-10334,-2093
117,-44,116,1164,-4607,-2073
26,-20,-101,-2894,7303,-8808
-109,56,-11,-552,4215,-1039
-87,-9,-53,475,3862,3248
-105,-72,-65,-2724,4607,2313
41,-60,25,-2109,712,2942
24,9,-12,-1201,-171,3133
40,-100,-49,-3579,-1940,790
-19,120,-59,-663,-5223,1004
-27,58,37,3977,-7092,-457
-60,15,-59,-727,-2407,-3626
29,24,-104,345,995,-3943
-66,-112,-105,-741,2237,-2578
-86,-87,-96,-313,3832,284
19,-122,104,515,2262,1545
63,-42,25,-637,1532,1499
113,-33,33,-2135,1210,2260
-61,-42,-26,-2141,107,3419
3,-17,-11,-2304,-1885,4014
101,-16,-3,-3199,-3058,4264
80,8,-110,-1857,-4635,4178
78,-50,74,-3861,-4786,3879
111,-98,96,-3131,-3296,4246
122,70,-16,-3521,-3370,3477
-87,-51,23,1336,-5623,4869
51,123,19,13559,-6027,5493
-7,64,-114,-642,328,-6755
13,87,-126,-8497,6157,-3613
-108,21,14,-1743,3568,-2477
124,-91,-50,95,560,862
113,29,41,588,-1642,891
-88,97,-107,550,-873,270
-29,122,-53,-672,640,-321
-56,98,-69,-1966,1044,-820
-80,33,-85,-1104,796,-288
-90,-17,-117,1062,-125,210
-61,47,112,1017,-536,372
-24,72,-121,758,-294,410
-6,101,-113,-177,395,6
8,98,126,-700,548,-134
2,77,104,-325,299,-134
3,63,92,41,80,-142
16,60,102,-246,139,-148
24,62,104,-519,466,-253
11,58,82,-624,387,-306
39,35,98,-375,214,-70
58,46,103,-38,424,-101
42,62,61,-203,318,-198
56,41,62,23,-54,99
91,55,95,-42,139,67
98,83,86,-299,529,-276
77,67,63,-270,181,-189
100,47,80,-23,184,-116
-125,44,90,38,453,-207
109,55,62,-67,359,-310
101,37,69,-22,58,-156
109,52,81,-215,299,-55
123,61,80,-364,410,-111
-115,60,75,-350,335,-13
-99,69,69,-296,368,-148
-91,68,72,-379,265,-132
-90,76,79,-495,359,-165
-91,75,86,-371,505,-121
-80,77,84,-466,403,-154
-66,78,85,-366,528,-318
-47,90,105,-791,888,-257
-43,88,82,-859,803,-240
-66,68,59,90,-20,-234
67,86,4,2005,3448,-2957
-87,98,59,2521,2290,-3486
-26,121,69,1830,4737,-7356
-106,-85,23,2890,1273,-8866
45,5,-21,319,2891,-10429
58,63,123,-1564,3773,-7507
-68,-96,-65,-5014,3900,1311
86,-64,-126,-2324,1753,4492
17,-7,-71,-7758,2549,5849
-45,85,34,2460,1957,1592
119,107,-18,-4717,-1107,-5079
-90,86,113,6733,-10620,1531
75,-59,107,-2649,-2079,-2977
5,98,-121,-7,4959,-5422
94,-10,-58,1026,4217,-1516
-87,-18,24,-1985,6074,1754
66,50,-46,-1226,2441,4470
122,-69,107,-2857,1360,2212
14,23,-95,-1682,918,2448
37,-5,-93,-2678,-1817,1193
12,55,73,-184,-4366,65
-61,75,-120,453,-3997,-1227
4,83,70,3383,-3268,-2658
54,-10,-64,579,-1796,-4206
-100,-59,-97,-60,2409,-2135
-79,-58,-67,-24,2410,-446
-93,-100,-5,-392,2298,534
109,-87,1,-1023,764,1633
-120,-75,-35,-835,405,2446
89,-27,-85,-1627,-2,2684
62,-1,103,-2817,-1700,3634
45,-27,43,-2661,-5781,4720
-48,-117,-126,955,-4345,5541
-100,-84,-6,-618,-4214,6539
-57,-121,108,-2441,-2537,3482
64,-58,96,-1972,-3461,3335
14,-127,-127,-6564,-1871,2727
-24,26,19,330,-3078,619
41,2,37,14833,-3678,-3782
-118,-117,-99,-4249,2038,-768
-115,105,65,818,3505,-4507
41,15,-80,1672,2354,-7825
107,-50,-87,3317,1301,-8596
-54,-22,-85,-2616,3665,-9121
-115,77,71,-4855,7074,-6521
4,110,91,-6234,3311,352
-98,41,-86,-4243,553,6509
110,81,126,-2150,-187,5187
-95,-78,-91,-4638,-353,-666
70,3,34,4217,-5278,-1836
45,-48,-99,2837,-7993,1985
-114,-18,-107,-3156,3130,-6043
29,117,-95,2718,3100,-4905
105,-86,-45,376,5471,-3859
-48,-43,45,883,6762,1849
37,-74,-60,25,1884,3533
-48,-95,86,-745,1304,3084
-65,94,-60,-445,984,2069
-112,50,-111,-2731,-228,937
38,-70,80,-1423,-2647,422
24,0,49,1265,-4237,-442
-62,-98,55,-1951,-1412,-1255
101,6,-121,-2395,-51,1349
21,-47,64,-3172,-2791,4456
99,48,-83,-602,-2107,4546
-82,-24,11,-3751,-1657,2852
94,19,-7,-4292,-4097,2525
-101,-104,-41,-1480,-5924,3046
-35,112,-101,404,-7698,3453
74,-97,105,1075,-3517,2445
73,64,119,-270,837,2016
-66,94,41,-6,1653,1013
4,26,-71,1013,-1059,-739
-79,-92,-19,2026,-2543,-1156
-71,110,80,1154,-1018,-789
-65,110,-122,-1329,2412,-488
-88,78,-66,-980,1228,-876
-99,9,-124,-664,825,-364
-85,8,126,-240,121,173
-63,36,-113,355,82,112
117,116,93,2345,2796,-3544
127,-19,-13,3392,1612,-7362
-86,-113,52,-608,822,-12571
-80,92,-8,-1687,4183,-12793
98,-33,-112,-6500,6486,-6084
101,-120,-108,-3432,-1104,743
82,55,43,-2165,1113,4726
77,-45,122,-2925,1700,5191
-119,92,-120,-1858,205,5515
81,-50,-70,-6216,-528,1268
-56,-128,27,9536,-11615,-3481
-17,123,62,1191,-7676,-3045
-73,-114,51,-572,2114,-8881
59,-95,73,-3172,8173,-5135
-84,113,-83,-1455,7675,-2455
-62,-29,-45,-2417,3331,4420
120,4,-47,-2228,1091,3686
-125,120,-39,-1215,2291,2658
-45,0,56,-1538,-525,1249
-37,-9,42,-575,-2638,1313
14,9,16,1222,-3892,619
26,72,102,924,-4491,-1982
-44,18,5,1357,-4134,-2732
36,78,-66,545,-796,-2543
14,125,-105,-1111,3403,-1696
106,106,-109,303,3094,-163
-33,-128,-85,-1403,3259,1226
53,-111,-8,-1622,2619,1955
-119,-55,-79,-3195,969,2940
-111,-36,-77,-3856,-885,3532
10,3,84,-3782,-1856,3774
-72,-100,-37,-4117,-1346,3166
74,38,-21,-4413,-4103,2727
9,87,1,-364,-5126,3233
-41,-97,37,-2828,-5802,2385
56,-36,84,250,-7490,4236
60,-3,-28,1019,-3598,2851
109,-22,-37,-781,-3029,1283
103,9,-13,370,4746,-2819
93,109,76,191,-191,-1570
-127,33,-3,-2166,3537,-2423
38,49,56,-1268,5584,-3057
-107,125,-125,3175,3412,-3188
-1,82,93,2874,1131,-4485
-28,-73,82,1457,883,-7702
-29,-102,88,413,2536,-10800
-127,-95,-127,-3549,7177,-7537
67,40,-24,-2422,2741,1256
-1,-31,111,-1052,2487,3075
104,-99,63,-3036,3723,4873
-124,-77,116,-1908,1227,4366
-34,-80,47,-6558,2839,816
-36,36,-69,2401,-8542,-4012
-65,-14,18,10070,-12103,-1077
-80,116,-76,-1319,-877,-6277
-14,72,117,-1235,5801,-8193
-111,26,-54,-241,5649,-4114
-75,73,49,-1316,5283,5731
-93,31,17,-1220,1311,3221
-49,59,39,-2762,2340,1862
3,92,31,-549,335,1529
-98,-112,45,-3034,71,931
65,70,17,-1999,-2663,1090
98,-118,-117,-3324,-2535,1974
27,-66,99,-1474,-4099,1187
-36,82,-118,-2799,-4066,2361
52,-74,70,-1698,-2393,3390
120,11,41,-686,-4366,1548
35,112,41,-1477,-3667,1709
76,88,33,-2301,-4342,2660
-112,-4,-47,-1829,-1252,2716
73,-36,98,-1290,-3305,3059
76,25,-117,-2411,-3816,2507
82,91,-73,7871,1025,240
41,9,101,-3207,3064,-3150
1,84,94,-1874,1611,-1235
-43,75,124,-1007,1064,278
-71,116,99,352,16,492
-36,122,106,1141,-338,229
21,-123,-113,292,-115,58
-80,-95,-71,-3461,8331,-7267
94,36,42,6215,-2075,-7278
-121,-86,38,-2751,6366,-11068
-44,3,81,-2792,7556,-7545
-37,73,95,-3080,5235,-155
-116,-35,-94,-433,4027,4535
6,6,17,-7573,8380,3109
-61,37,111,-5056,-2091,4064
112,-60,-25,2198,-6870,-277
-101,67,-88,3258,-8611,-2206
-32,-20,-84,-1393,-10027,-2301
112,-32,38,-365,4048,-7479
-118,-89,91,-2284,6047,-4909
-47,74,-58,494,6178,921
5,-13,21,-5490,4482,2667
-76,33,85,-394,3951,3351
-11,18,20,-1311,1998,3546
54,54,48,-3796,269,2008
12,-70,11,-1082,-2394,481
-103,-126,25,618,-5238,-810
-49,-46,19,2205,-6090,-315
23,19,31,3217,-5235,-955
-37,0,-53,-2444,-249,-4676
2,-28,-119,158,1785,-4562
6,16,-99,-163,3054,-2584
-67,94,-72,-1679,3811,99
-49,-66,-45,-1636,2220,1505
-13,-50,37,-319,1267,1858
-109,-5,4,-1342,771,2352
102,0,14,-2395,801,3162
90,35,22,-3136,-361,3569
-75,39,92,-2423,-1524,4055
49,126,-33,-2608,-976,3956
-119,-108,72,-1949,-1775,3399
72,64,75,-3983,-2650,2404
25,-12,76,-2456,-5884,5144
-84,-34,-99,-758,-7501,4590
-74,-19,-59,-2300,-2906,2883
-84,8,69,-3338,1000,1955
91,-10,-118,-2061,3228,-1653
-68,104,80,-1072,3667,-3607
-123,3,97,78,4328,-3568
-15,100,124,1074,1566,-5523
64,-91,100,637,2504,-7914
-104,1,104,201,4740,-8353
55,103,-122,-1311,4247,-7339
-113,84,-79,-4913,4724,-2934
-19,-41,48,-980,4829,3783
50,77,-70,-2530,4472,2219
-24,15,21,-5489,3082,6259
13,114,-107,-6138,-1907,2444
-42,96,-120,3810,-8290,-4384
-83,-46,-65,6884,-12464,-1528
40,-100,-102,-2380,154,-5375
95,47,-99,-2033,5236,-6149
117,90,-40,-1556,5605,-762
72,0,78,-3175,5526,2092
-128,15,16,-949,3543,4033
-23,-11,-44,-1814,2417,3751
-60,44,22,-3182,789,1434
-26,31,10,-2575,-2703,179
-60,75,-39,1565,-6717,-1456
16,13,-121,-765,-7133,-1505
75,-111,29,2278,-7045,-2644
109,107,104,306,-1949,-3087
11,-99,111,-1368,6052,-4595
-58,-43,-91,835,5234,-2000
8,-36,-10,-4431,5649,194
-76,-128,47,160,1591,2197
-93,-86,107,-506,719,1974
-91,-37,99,-1862,1438,1854
-82,-46,81,-2802,-188,2686
16,-87,35,-1170,-2043,3863
7,15,66,-3217,-1662,2760
73,11,85,-4534,-1336,2826
-106,-73,52,-2668,-5006,4792
124,127,50,-2713,-4708,2943
-97,-5,61,-1811,-4450,2939
-115,-113,-22,3489,-4782,4851
13,-25,-80,-2720,-5283,2755
117,-16,-10,21439,-3000,4365
-48,105,112,-10657,5957,-5063
-78,-81,-43,-4215,-286,67
-78,121,-84,-3908,1617,273
-79,-104,-112,-2205,2947,-525
-64,111,-118,-425,2271,-770
-66,77,104,1192,388,-416
-86,76,114,1390,-1089,-205
-64,92,-86,469,-878,-43
-40,115,-60,-1027,298,-221
-37,-123,-56,-1942,776,-280
-23,106,-88,-1310,691,-43
-18,117,-95,-540,221,1
-11,-124,-88,-299,-9,-99
8,-123,-67,-257,-57,-35
15,-118,-74,-263,297,35
27,-112,-83,-247,338,-36
39,-120,-102,-103,203,-122
56,113,-101,139,222,-117
62,113,-112,-58,155,-139
59,98,-124,169,324,-165
60,75,109,202,205,-42
77,73,114,-284,65,202
73,95,116,-328,70,128
74,87,125,28,92,129
96,78,124,89,76,145
106,77,127,-5,67,123
110,78,124,0,202,20
121,68,109,-75,225,-45
119,63,106,-231,75,-63
100,58,113,-46,128,-70
115,49,113,40,276,-43
-124,37,98,-2,47,-101
-124,35,109,-98,90,-147
-124,41,113,-390,393,-161
-128,30,98,-330,282,-32
-117,42,101,-395,170,-35
-105,50,111,-240,294,-167
-117,32,102,247,207,-136
-117,43,95,-105,69,-61
-65,67,22,-2901,4328,-2758
-65,-75,-53,-1127,5819,-7350
-21,14,72,5277,1601,-8867
-84,89,1,-1285,3856,-12370
-79,-76,-13,-4002,5701,-7900
108,0,69,-1027,5892,-3115
85,-93,-17,-2560,2437,2452
-89,-14,126,-3509,3504,4780
-12,-21,-59,-5966,2351,3298
96,-58,99,-3341,-6906,2449
-82,90,66,10985,-7638,1053
-15,-118,-57,-2046,-4141,-4443
93,89,126,476,4009,-6568
96,63,-70,-2099,5124,-3647
-16,46,45,-834,4656,2705
-46,-91,20,-1124,3206,3475
104,53,-124,-1104,1963,2826
22,71,49,-2224,1434,2878
87,-113,94,-2084,199,1709
-113,-127,112,-1370,-4446,418
-88,61,-118,2575,-4895,-394
-103,27,102,1142,-4955,-2368
81,-71,-42,-210,1064,-2310
74,96,-64,438,1157,-2483
60,-8,-52,-1317,3763,-788
-48,-24,-51,-653,2407,148
60,-24,88,-1609,2057,1015
-110,-2,-52,-1725,919,1682
-25,11,-83,-2169,-282,2330
0,16,-73,-2328,-1991,2422
96,58,53,-3116,-2669,3055
-125,125,87,-2106,-3209,3963
11,30,-116,-2475,-5157,3753
78,105,3,-6014,-5879,4441
105,22,97,-1371,-5181,2536
-57,73,-104,1306,-1736,2104
1,76,-110,2681,-4890,2177
124,-66,-78,137,-3331,787
-36,44,10,2416,4029,-2589
-103,-114,-44,-1450,110,-279
37,120,-117,638,3261,-6138
90,3,-17,2040,569,-9822
53,-74,-71,1999,1403,-9643
-113,127,36,-624,4186,-8034
-50,-22,11,-4073,4054,-4659
95,112,-28,-2862,2468,-413
-29,-3,-11,-6441,-878,1721
44,-77,-121,-2176,91,6200
81,-29,49,-2936,-2530,5339
41,99,-122,-1466,-2302,-1446
-70,88,-25,3921,-7224,-3118
71,-81,44,475,-1137,-6111
34,-29,65,1063,5461,-7792
0,-96,-124,-1758,7920,-2085
54,-9,38,-85,5463,3829
-93,125,95,-2835,1309,4403
-37,31,48,-1812,1844,2978
-61,99,-20,-3513,1466,1300
124,-43,-3,-2217,-4108,620
-85,91,-51,4621,-5658,-779
66,111,-96,913,-4276,-1901
-45,50,-68,-52,-1232,-3151
65,-32,-100,798,752,-3124
92,86,-88,55,3448,-1754
8,113,-124,-1088,3552,-275
-42,-96,-58,-1939,2365,1334
50,-43,43,-1609,1278,1820
-91,6,12,-2344,491,1847
34,21,28,-2140,-449,2330
122,87,81,-2259,-1693,1806
-42,-93,-127,-2674,-1214,948
-38,-76,33,-1329,-1387,868
-43,-90,-99,1303,-1006,-359
13,-74,46,-2009,-4492,1195
114,38,37,-1230,-5155,3020
-29,-14,43,-2091,-4188,3671
113,-23,-5,2158,-8417,8245
1,33,31,-1453,-6732,6924
113,-83,22,-5848,-2280,20
53,78,70,6268,3790,-2685
-6,-21,20,-2756,3091,-1637
-87,44,-122,-42,1697,723
94,127,-47,-482,74,49
-83,64,-54,1264,304,-493
-49,-7,-109,2538,579,-202
-30,24,-103,523,209,-2
85,94,88,-730,-525,0
-87,60,-22,-2165,-536,-75
47,81,0,-2609,1330,534
16,95,-118,-748,1677,32
-63,89,91,445,-32,-471
-27,96,-102,-311,-1010,99
19,-128,-44,-893,-345,96
57,121,-25,-697,806,-331
85,36,-100,1053,1341,-532
-56,110,39,459,-51,-359
-26,126,-97,-1794,-955,-147
99,95,-64,-1412,830,289
-123,100,108,-79,1820,-128
67,121,64,-30,1,-477
73,112,91,-437,-681,-256
102,-123,-91,-1111,-265,-135
112,-122,-88,-651,509,-167
115,-124,-105,201,710,-311
-128,117,106,554,532,-657
-126,85,89,202,184,-629
-122,78,97,-458,197,-376
-119,73,100,-548,387,-246
118,71,95,-206,225,-67
-121,75,89,-320,197,310
-28,6,127,-2081,394,-355
-41,-55,-79,-490,358,-900
-83,111,-125,1346,393,-285
-112,-114,106,76,199,-607
120,89,83,-109,-175,5
125,51,74,13,86,485
-113,68,80,-652,86,737
-87,82,88,-945,19,853
-61,114,113,-1044,8,665
-57,121,126,-564,94,408
-6,-65,-113,917,1521,-5011
89,35,-56,248,1793,-8243
-40,81,-124,290,3746,-7384
80,-1,61,-5032,5858,-6391
84,-72,-114,-1556,4158,-1795
-57,-103,-79,-2326,4667,4495
-70,-62,-27,-4334,1884,3839
-128,108,-110,-4900,3184,6595
19,-92,-97,726,-9082,-3597
54,34,24,9293,-13467,-1238
62,-120,-81,318,906,-4053
52,-87,-75,-751,6049,-8799
-48,-42,62,327,5797,220
113,-78,93,-316,3943,2234
49,-76,9,-2550,3770,1055
-59,-5,79,-1459,1514,2325
87,121,82,-1817,536,2757
-28,88,55,-3083,313,1623
99,-119,-36,-1652,-3633,333
-86,29,-96,3338,-6838,-1244
-38,24,81,-1347,-5007,-3745
72,-79,-66,2771,-3234,-3403
76,-29,-88,-3260,3295,-4005
-52,-104,-51,-905,3685,601
-47,-103,73,-895,3572,1050
-105,13,108,-3841,2248,1220
-55,-15,-49,-1529,1306,1684
-10,-21,-1,-1909,-20,2495
85,8,79,-2086,-437,2697
-103,11,29,2317,710,2894
-90,85,-48,-5413,1413,1349
81,49,-73,-2350,-2249,2948
-38,-72,-71,-1478,-2284,2442
-60,115,9,-3986,-4747,2669
-29,-68,12,-1863,-5905,5284
-116,-113,49,-3172,-7560,6837
86,0,-17,-2712,-5483,3738
-33,-76,30,-1118,-1040,-328
-106,77,98,-5216,7659,-5243
-76,81,-33,1500,-88,-1194
-16,-10,63,-1932,2949,-3139
-97,-108,-14,2058,3297,-8310
56,97,103,4245,694,-6241
-35,-81,-18,-2591,4213,-8332
-103,120,-120,-337,4235,-5528
15,-4,-15,-3344,4693,-2579
-35,89,-85,-1850,2140,110
-56,-116,7,475,2266,1595
33,65,66,-4685,1619,3650
-105,-128,-113,-3000,-1114,4282
25,-21,1,-1272,-2958,1500
78,16,80,6330,-7291,415
-124,-101,-105,-989,-3673,-4898
26,-83,122,-141,3834,-8145
15,-124,-60,-2501,7012,-4669
82,21,46,-6033,1959,787
-32,-55,68,-14,4326,4294
58,-14,105,-5630,4563,1897
88,-27,2,-4843,-1159,3454
112,-42,14,1067,-6003,-99
46,54,98,671,-6621,-45
-12,45,-104,3141,-6464,-285
-123,5,-104,-170,-971,-2486
60,91,-100,948,2485,-4829
-16,77,-55,1001,4562,-1813
101,18,19,-1934,5137,-1118
106,25,52,-4881,4329,50
-52,-15,9,-1337,1408,1720
-9,-25,49,-1189,16,1660
-119,29,55,-2381,-102,1742
54,71,43,-2629,-1674,1484
51,88,59,-3037,-3020,2460
25,41,13,-1403,-5564,3907
11,-118,-108,-3226,-5660,5086
90,82,-71,-4247,-4742,4258
-34,59,-49,1205,-6893,2889
-83,-88,-76,-2469,-706,2314
-60,-20,35,2634,-1269,2080
-84,5,108,1309,-1538,1497
72,85,117,-2100,-1394,-72
-26,-26,122,2494,2033,-7398
70,-6,10,312,2552,-9515
-125,-10,72,2062,1708,-10360
41,20,125,-7597,6063,-8986
106,19,-32,-2846,4796,-2982
-87,36,91,-4064,-235,-2416
24,-50,-64,-1301,3066,1011
98,-67,67,-4944,3950,5162
-123,92,17,-1245,-574,5292
-86,107,52,-8190,1739,-166
40,-119,116,4174,-9947,-3056
-80,-32,-21,3458,-11936,723
57,61,46,-1441,4376,-7672
-27,-4,106,584,6946,-4577
-80,76,-6,-3124,8100,1013
-9,33,68,-475,5076,5777
-83,-29,-41,-2319,3209,3114
-128,36,74,-1639,954,1445
127,30,35,-4290,-829,-1144
-17,104,-69,2112,-6724,-374
98,83,91,2276,-6388,-974
-79,104,100,283,-5291,-3836
-42,-65,-119,814,-2264,-3385
14,63,113,-263,4242,-3819
-116,8,-79,-1675,5960,-1673
-81,35,-48,-911,4418,1258
-52,-69,-77,-1728,2880,2283
76,-9,61,-1453,861,2194
69,-44,29,-793,-5,2023
-9,20,19,-2774,271,1826
-56,-37,-114,-2599,-1792,1856
-8,-53,-34,-3331,-3500,2549
-110,-7,-110,-3220,-4810,4099
-23,127,-52,-1252,-4113,4380
-44,-98,61,-3826,-1888,3290
39,-1,59,-1268,-4340,2965
25,-42,97,-1647,-2382,2259
5,-14,35,2410,-6685,3377
-63,-112,-55,-631,-3728,1427
92,-98,-62,-2766,-30,-419
96,118,-35,6811,897,-684
-100,-3,47,-1616,1761,-746
127,57,-86,392,-191,191
-104,-112,2,-1977,1340,-619
-66,91,-69,-1329,1989,-357
-41,73,102,278,1128,284
-35,103,113,253,4,-100
-27,96,-122,95,-499,-207
-22,72,-67,68,-427,-178
-17,72,-48,-172,181,-38
1,84,-58,-703,677,-61
-11,93,-82,-776,587,-29
-19,100,-115,-460,478,56
25,101,-109,-775,438,135
86,123,-70,-1300,397,535
96,-60,-46,-1603,515,270
96,-66,-90,-425,907,-371
85,-120,-120,805,830,-876
70,84,115,993,193,-695
81,40,116,691,-54,-329
91,46,113,59,237,-259
81,43,107,-145,273,-292
93,51,101,-455,190,-102
114,75,109,-881,220,-15
-120,96,119,-1058,-191,-82
-128,113,104,-686,-180,-140
127,83,114,344,-166,-92
-127,86,-126,38,-132,-155
109,82,-125,-7,-805,-148
-111,119,80,246,1436,-389
127,12,-87,1686,-243,506
-111,48,97,-16,160,64
-105,35,82,-321,151,142
-99,33,80,-435,313,91
-111,27,69,106,-271,214
-98,49,-110,175,254,-175
-92,42,-87,135,289,62
-109,30,91,-321,75,-173
-105,27,99,-528,272,-150
-104,22,93,-446,346,-184
49,-20,-98,-2682,2092,-3757
-27,31,71,-821,-20,-7844
-124,-33,80,-1670,2043,-11437
-97,68,44,-3212,9499,-11291
46,116,-7,-6386,9734,-3053
1,62,-36,-414,4723,3077
-39,118,94,-4955,12708,3812
83,-10,105,-1156,-2155,1776
113,-10,36,-5036,-1163,2528
32,2,-10,-1148,-6180,-1098
-61,11,46,7236,-9658,759
31,94,-56,-1059,-2431,-4170
12,88,117,2569,1957,-6312
120,-49,-84,-1652,6757,-6073
-50,-98,34,839,6086,-105
43,-5,-4,-960,1776,2686
-116,95,45,-3058,2386,2360
-67,5,-87,-1709,645,1949
-36,-105,63,-1764,-1,956
-12,44,2,-2631,-1318,598
-57,76,0,-1870,-2793,838
-117,81,54,-2250,-4789,324
-71,90,45,-1772,-5788,2033
-53,-123,103,-2468,-2806,2428
126,126,47,-2200,-2566,2289
-25,-95,24,-2081,-3291,4513
-81,-115,-45,-2117,-6514,5749
-57,125,92,446,-6915,3946
18,-86,-61,-451,-4093,2312
89,105,-35,-2741,-494,35
-59,6,33,4818,1142,-657
-93,61,-17,2151,-348,-2543
-59,-113,-11,-535,611,-607
-91,97,-87,298,799,641
-91,-117,-100,-616,1124,-435
-45,76,-126,-348,851,-177
-23,60,118,-455,802,-286
-27,39,108,237,-267,-422
-28,20,-114,217,-534,-371
-21,21,-80,-141,-56,-286
53,-1,2,1950,2651,-4560
55,90,-29,2940,-1229,-9856
-28,48,125,-2984,4199,-9966
-106,73,23,674,3155,-7943
-80,49,-45,-4769,3926,-4787
72,123,21,-7215,7226,-3862
77,-65,-55,8404,-1916,-3106
-120,91,87,-8242,5078,4884
-44,65,-128,-6271,1457,6199
-99,-74,14,1170,-1503,4600
71,-75,54,-7071,697,-1762
-67,-17,79,5060,-11471,-3045
-99,-3,9,-627,-11692,-2933
106,36,39,1990,1114,-6820
46,57,51,-1224,8559,-4357
14,92,-120,-1740,8861,1360
-46,-121,-81,-5733,6542,2881
117,96,113,-1721,2644,3739
-47,-65,76,-1830,539,3462
-69,-17,36,-2001,184,1028
-112,43,0,-3058,-2225,-757
-105,21,-63,2124,-7329,-732
34,-66,-7,749,-6030,844
41,92,-110,2346,-4570,-2398
-33,-13,107,358,-996,-3726
-29,127,113,990,2650,-3609
71,93,-111,-337,4152,-2718
-62,-79,-99,-1090,4523,-1241
58,-71,-70,-1443,3777,167
-97,-50,-117,-2990,2423,1982
-112,-86,121,-1766,1347,2685
-19,2,-84,-3964,2515,2269
-40,41,117,-2487,1409,1999
-49,-126,121,-2094,385,1421
-70,-30,122,-1565,697,1733
-128,108,4,-3398,-1175,1815
85,-120,-94,-2088,-1479,382
28,90,83,-2292,-3084,737
-18,102,-54,-3468,-4014,894
-90,120,6,-3686,-10691,1808
42,-69,68,-2052,-9028,6172
126,43,60,1542,-4381,1532
101,-87,106,-1733,-2360,1195
117,45,120,10524,-408,2702
-43,7,20,-3830,3134,-3574
104,81,-75,99,-306,-1826
94,91,35,-2058,1170,-1506
99,37,-95,-395,1654,616
-128,103,116,2,890,809
-92,-113,112,-116,-77,563
-49,-97,-128,-293,-271,276
-13,-86,-110,-595,-235,-24
-5,-77,-80,-1317,37,-541
-22,-107,-75,-1113,111,-666
-73,118,8,-1502,-697,-701
-54,-3,-67,957,951,687
-55,-120,-89,1037,-136,310
-16,-112,-109,342,157,-73
26,-115,-107,-804,777,-165
24,122,110,-893,702,9
15,115,87,-10,176,3
28,117,90,200,-50,-27
45,126,98,-184,80,-149
46,120,102,-455,141,-210
42,108,127,-483,-147,-254
47,95,-105,-135,-45,-152
66,78,-97,172,249,-138
76,66,-117,332,394,-73
80,70,113,18,316,-27
64,93,87,-506,172,-174
65,77,93,-276,294,-102
104,63,97,-333,464,104
114,74,76,-187,260,119
116,85,65,-53,11,-95
116,84,84,-315,61,-157
106,77,98,-264,33,-73
119,68,109,84,124,-30
-113,75,105,-57,324,-117
-112,75,84,-278,386,-291
-119,60,76,-361,332,-293
