AccX,AccY,AccZ,GyroX,GyroY,GyroZ
-48,79,-81,-1150,-5010,-6973
123,79,-37,-2141,-11177,-7642
84,-66,-93,-2532,-9540,-7580
-4,-38,14,1586,-9503,-5596
-93,-4,-6,-1249,-3618,-511
-60,57,-95,619,1693,-394
-113,-5,-118,-143,1023,-104
2,-112,-44,-385,-144,372
115,-35,-44,-1122,374,143
-89,-14,61,533,655,775
-4,-45,-56,1236,3064,2803
103,30,-69,323,5928,3353
-36,61,8,287,5916,4197
-95,62,53,2527,6363,5945
121,-115,-47,-3350,7146,6016
103,-61,-93,-1533,-371,5298
-3,-40,75,-6093,1779,4463
77,-38,59,1092,-1714,3041
78,-47,30,10014,-3897,2693
-118,-102,13,6540,-2770,1334
-80,107,-1,-3305,1312,-1546
-19,-19,101,-1537,331,-2405
-37,101,-118,-835,316,-960
-95,122,-124,-721,-26,34
-76,-91,126,-243,317,242
-7,-31,101,-476,601,148
37,-19,90,-682,468,-264
51,-43,83,-132,254,-311
53,-43,89,-293,346,-500
52,-40,110,-694,625,-442
41,-47,-120,28,198,-255
45,-54,114,360,-277,109
65,-29,101,78,-76,39
83,-12,91,-7,-37,-103
84,-24,74,63,19,-134
89,-25,72,-46,67,-178
99,-22,84,-144,230,-220
99,-21,89,-357,290,-253
105,-26,91,-422,247,-211
111,-27,85,-425,221,-154
-34,103,100,-1777,3670,-2814
45,11,112,4616,-2488,-7875
-118,90,-52,-3375,-5542,-10835
74,-85,-1,2112,-10544,-9449
-120,65,61,-2501,-7021,-6779
-62,-69,79,-225,-5132,-3934
114,37,-110,-367,-2269,-1648
75,69,54,5908,408,838
66,-20,112,-1794,138,1228
9,126,75,421,-639,195
95,38,117,-231,63,-144
-15,-83,122,-631,-16,42
-21,-125,92,-208,123,-104
35,126,93,5,124,20
30,-113,84,54,75,102
70,-94,76,129,198,138
119,-79,44,415,588,-453
-47,-122,110,426,1004,525
25,87,56,1051,992,12
-6,116,15,893,3072,-310
-92,-116,42,3352,3024,-876
-37,20,9,1342,8863,26
30,-10,-34,-1334,9002,3171
34,27,44,111,9045,6336
7,125,-92,-4672,7487,8504
-92,-37,70,-8874,1216,5844
-54,-108,93,-1211,-3601,5231
24,118,-83,2803,-2901,2488
11,-85,1,6687,-1699,-1711
45,105,58,1417,-782,-3781
-118,-39,125,-2351,919,-1784
20,108,117,-1144,892,-665
53,97,58,-445,313,322
124,-63,11,-357,-17,40
-92,-27,19,-836,248,-517
-94,-56,-10,-635,205,-508
-106,-73,-42,-105,92,-204
-97,-67,-53,32,25,-79
-79,-46,-55,260,-11,56
-51,-21,-44,3,80,-156
-19,98,4,-4329,6605,-4776
-9,48,62,5472,-1792,-4880
-2,78,70,2557,-4825,-10372
-39,6,-27,562,-9996,-11277
61,115,23,-965,-7892,-6652
39,-19,-25,2858,-7302,-3944
-3,82,21,-586,-3974,-1718
-122,59,-22,-6760,8660,-277
-118,-88,-61,2904,-2062,1778
-28,119,-88,1270,-1349,393
88,-49,13,-1078,-470,-764
38,-122,-76,-2226,409,64
34,-121,100,1676,-130,302
104,-60,116,334,520,411
-93,-15,-32,1822,587,1516
-44,9,-12,3655,2362,1367
74,-105,3,3587,5703,448
34,-60,69,-1673,9813,2019
106,101,-74,1105,8716,6209
-98,59,105,-1031,8632,7353
91,20,94,-8281,4258,7672
-116,89,27,480,-2560,4623
-28,29,95,27,-3046,2830
-94,-75,35,1286,-2760,2445
63,68,-68,2359,-2493,-1819
-89,121,-17,2161,-1124,-2826
-119,0,-2,531,259,-1746
115,-56,20,-2306,833,-668
112,-43,34,-2726,1863,-531
-106,43,-14,-3801,1009,-643
-77,-53,-74,-1358,531,147
-78,-25,127,-530,752,-445
-85,-53,91,1157,282,-482
-52,-24,97,357,72,-279
-43,-24,98,140,-453,276
-32,-7,124,657,-386,56
-9,7,-98,578,-26,-16
-2,8,-98,244,15,-128
-2,1,-117,108,32,-189
1,-18,114,101,129,-245
37,50,8,3461,663,-4252
21,-81,43,6677,-5824,-5564
9,95,-1,-2561,-5030,-7749
-78,92,-8,422,-6481,-6937
-33,-56,-106,-2164,-10487,-5562
-54,83,101,-2153,-7462,-3119
-68,22,78,-678,-3986,-1308
-14,-3,89,1883,-1649,-379
-31,125,-13,-3245,-1194,306
-2,-38,89,3537,128,1047
-1,64,-70,-488,-962,218
-44,-31,44,159,-847,-92
68,-33,88,-89,132,51
95,-75,116,-757,-4,116
-1,-35,-82,-834,756,-571
-60,-114,-50,3248,2549,328
61,126,-54,2659,6921,2192
-70,-36,-74,1248,10274,2214
-23,-71,125,2158,10456,6559
-90,-14,50,-1811,7912,5373
-67,-49,-119,-5588,4159,9044
73,76,-117,-681,-2070,4583
57,-15,-101,-3883,-1517,315
69,-75,-56,-925,907,21
28,-86,-77,45,-255,-1611
-53,85,-10,-888,-729,-2234
-28,78,4,-2511,-383,-1205
-86,47,35,-2037,998,71
114,19,-101,357,995,-991
-104,-29,114,921,445,-756
4,-21,117,-1149,762,-29
3,-29,47,1335,215,134
68,-32,100,1236,-560,-133
47,34,-108,-432,-680,103
16,23,-110,-285,-44,-398
7,1,-112,-100,218,-175
3,-3,111,113,267,23
14,23,99,-293,-97,57
52,1,112,74,96,-141
88,-34,111,531,62,63
-119,-30,-123,2267,1218,-4663
-50,-18,-85,4738,-6189,-6152
-75,-105,-125,-2297,-7792,-8384
-113,-13,-61,-703,-8585,-6744
116,44,-27,-2726,-8629,-3299
-117,-37,-57,-1447,-4195,-1937
-8,-121,118,-2159,-1480,-224
-81,-74,-6,1909,4534,732
40,-128,-83,-798,-631,210
15,121,-77,254,-607,52
-46,-36,69,-90,-103,-97
-34,-59,-99,253,1360,384
-93,-117,61,2835,3591,623
6,-36,83,1867,6633,2164
-97,-75,107,-220,7923,3200
126,-23,-126,497,7747,5136
-45,-100,74,-2521,6358,7677
-98,105,26,-57,2122,8107
89,-63,52,-2327,353,4827
31,-124,-117,-1470,-236,3030
113,80,-23,372,-1312,1716
-107,-91,-111,6425,-2471,-1557
62,-93,-99,-2854,1684,-3743
-31,106,16,-2035,717,-2126
-84,47,-22,-964,216,-466
-76,82,-99,183,-343,381
-20,-96,-83,-527,423,194
22,-39,-109,-860,589,-206
37,-35,-113,-873,445,-454
89,-43,-67,-921,345,-538
70,-39,-85,-468,404,-421
44,-33,-115,-525,98,-457
53,-44,-123,-363,212,-80
83,-11,-123,-315,171,-16
110,22,-117,-630,341,-227
114,39,-122,-658,289,-373
107,23,121,-507,238,-364
105,15,110,-334,226,-305
104,-7,98,199,28,-147
113,-26,114,687,-157,72
-18,-11,50,4638,-4333,-5403
-93,-107,-67,2722,-5743,-9516
-3,15,-40,-4164,-12420,-5953
92,-106,-16,-5123,-9272,-3323
119,-77,-21,2233,-9062,-1528
-43,112,-75,132,2275,-193
-42,-31,113,-11384,12707,4136
104,6,-42,7227,-4292,-2031
3,101,75,-189,3974,777
91,25,49,400,4737,237
79,-121,-84,4799,4500,1583
26,15,-119,1797,6729,2404
78,25,112,780,8772,4452
-105,76,-124,1234,8382,7074
-118,-95,96,-6067,3758,3463
67,93,124,6029,-2092,4363
73,-106,0,-1302,531,-461
-70,-48,-46,-2669,1968,-544
74,-122,91,-2501,731,91
18,108,42,-1246,-1192,1055
10,-53,94,-1427,-1051,640
46,80,111,-1650,-1450,-1175
-87,68,-123,2063,1613,-858
23,-70,-76,383,-708,-641
32,-110,70,39,-200,-641
11,-94,126,-1208,125,-576
40,-112,76,-539,1114,-147
47,-79,49,-464,477,56
68,-31,71,-939,-222,48
85,-36,73,-85,-141,70
-125,13,-73,-202,1193,-671
114,12,-87,-818,200,-302
122,-26,-103,-179,43,-193
91,-26,97,-62,-272,150
120,38,127,-818,288,-219
125,54,82,-999,205,-399
-120,9,62,-236,179,-367
-119,-11,62,267,-45,-7
-112,21,93,60,298,-250
-106,5,85,-75,407,-204
-74,106,111,-3571,961,-6013
-9,-70,-84,3061,-1783,-6849
-86,66,75,2712,-5425,-9505
-82,125,-60,1626,-9171,-10864
46,75,86,544,-12087,-3071
-5,-116,110,-4545,-3107,1611
94,-7,-86,590,3605,276
70,-124,-16,1083,674,1849
6,72,127,3176,2602,-248
-109,-1,112,3296,6066,1175
64,98,103,2920,6625,2189
-52,-121,69,-1736,8911,4782
-10,4,-34,8,6442,8809
106,1,17,-548,4784,5667
124,23,93,-5253,3276,7579
-120,90,-55,-4794,-2425,2398
88,58,6,6778,-3521,-417
-67,-23,45,1726,303,-4448
108,-34,34,-3270,1019,-3206
-26,-1,-41,-2127,498,-1771
-27,0,-99,-305,202,-78
2,54,98,587,-434,755
52,-103,-117,-239,83,176
82,-73,-55,-106,274,-226
99,-93,-58,204,-30,-158
93,-102,-88,21,38,-129
77,-98,-99,173,19,-129
76,-95,-102,254,3,-15
91,-73,-99,-45,69,-27
105,-69,-116,-105,162,-247
117,-89,-115,-280,287,-135
109,-60,-104,-489,232,-149
118,-45,-105,-579,239,-224
120,-45,-125,-647,245,-310
125,-60,116,-334,223,-233
124,-50,112,-160,148,-152
-124,-46,113,-59,121,-225
-113,-59,121,-9,118,-85
-112,-42,-116,110,-63,94
-95,-2,-110,-277,49,-108
-113,-110,-6,3091,-4436,-6329
67,45,9,-1559,-5342,-8473
51,-107,126,-3436,-10642,-8460
-34,14,24,740,-9541,-7192
-115,-33,28,-2629,-5215,-2054
-103,-38,-31,-5286,15331,-1126
-24,5,-11,939,-6123,2740
67,123,-121,1049,-552,-1253
109,9,46,-1220,1019,222
-94,-39,-22,-40,-268,47
11,-111,1,345,-45,-159
93,-86,43,98,501,302
-13,111,87,1244,1305,470
70,60,-84,4915,1922,273
-128,11,-59,2621,4168,1228
92,-73,94,-3486,9055,2587
-18,23,10,-1874,12287,4670
43,5,33,-3543,10719,9348
-66,83,51,3548,26,6992
119,-17,-38,-3848,458,1908
64,105,-68,-3155,-1036,2172
-14,-16,49,-1319,-2817,4883
96,68,-95,-4184,-2020,2112
30,-115,-48,-1944,1293,-3914
2,67,-98,1527,1789,-4053
-59,108,0,2083,1128,295
36,-123,-36,-1891,280,1298
-67,120,110,-347,-409,-822
33,93,126,-1079,-600,-104
40,-121,-66,-2671,919,-792
60,92,-127,-3043,2827,-960
73,107,44,-2398,2147,-912
74,117,38,-1500,987,-630
75,-124,29,-426,-231,-240
95,-117,81,-262,-107,-16
109,-128,-117,159,66,35
113,-113,-120,340,24,-90
109,-115,106,412,-247,-94
113,-120,111,471,-320,-16
-120,-108,127,49,-36,-152
-58,96,113,-3918,4431,-2516
-27,7,-5,3949,2414,-1777
-11,-95,-23,9094,-4278,-3678
76,-99,-21,-814,-1137,-10188
57,8,-24,5135,-8903,-9256
58,-32,104,742,-8007,-6199
-49,-127,29,-1072,-6096,-3630
-59,13,48,-243,-4165,-1507
-128,-60,8,9332,7667,1909
-15,-118,111,-3000,-1732,1260
-38,-12,86,1289,-862,29
17,71,-9,-1048,913,263
-74,-9,4,-2288,1146,-834
84,-55,109,2293,3248,-23
17,126,-47,1379,7385,1035
-13,-16,-67,1933,7397,2410
71,61,-116,-992,7753,4287
-111,-73,65,1619,4604,5134
98,64,23,-2120,8259,6015
-18,115,65,-3409,1571,6309
-113,-91,-57,-2083,103,6800
60,76,19,-277,663,2440
-57,-31,-70,240,-1065,-911
-82,0,-67,4566,-3243,-1925
-93,-54,4,464,1259,-616
96,-92,75,-513,-497,-840
-101,99,32,-1287,438,-809
-64,99,-20,-1574,793,-464
-57,117,-47,-1175,711,-618
-52,-123,-12,-940,466,-548
-48,-118,-19,-646,221,-288
-42,-90,-74,-610,-215,-157
11,-29,-59,-1393,62,-203
63,19,-27,-2181,468,-492
73,15,-108,-1365,711,-830
66,-28,87,-465,717,-793
52,-21,85,-810,304,-411
52,-9,71,-665,150,-97
68,5,69,111,50,-189
80,11,74,336,66,-373
-53,69,-95,-3400,7130,-1163
-54,-67,-105,7604,-1048,-5901
-41,36,87,2568,-12495,-14015
111,49,-119,-3020,-11193,-9509
-31,-20,109,848,-10399,-3931
-41,111,-84,-2675,-5030,-2350
-19,-21,-13,-1594,-1719,1654
-20,-72,-85,-34,-867,1685
21,88,-106,1885,965,378
3,100,118,-978,-501,112
-70,98,-9,-766,793,-456
86,-62,93,582,244,-778
-65,27,75,1775,3426,-660
73,36,-85,3342,6836,90
-1,42,-29,3077,8746,1683
23,-84,109,3531,10102,4813
-62,68,59,-1718,10152,6007
88,-50,23,-9181,5486,6622
-53,120,-80,1442,-2270,6251
-110,-81,-67,761,-2483,1068
-86,-112,115,-2102,1659,687
110,-101,-75,-1272,1045,-1316
-3,-5,24,1149,299,-2202
7,-38,-106,-826,1145,-1673
-41,113,-36,-258,-518,-292
-30,114,-84,226,-142,-10
-13,-99,-66,-78,-95,15
12,-71,-54,-172,231,-85
36,-71,-63,73,-29,-91
51,-64,-61,14,-51,-34
51,-47,-82,-146,137,-216
56,-53,-90,-239,180,-229
57,-47,-90,-381,226,-193
67,-39,-91,-319,119,-220
81,-41,-97,-243,149,-213
88,-34,-97,-402,247,-315
96,-37,-98,-442,312,-320
97,-41,-111,-228,156,-224
99,-39,-117,-89,62,-97
107,-20,-120,-144,74,-111
26,-6,-4,-2127,4022,-3111
-111,-111,-99,2490,-752,-5099
-119,115,-65,2037,-8127,-8709
-128,-116,-91,537,-11586,-10205
-24,38,32,161,-12247,-6753
124,21,-58,-66,-7699,-2007
-77,-24,111,-9727,11214,2049
88,-51,121,4889,-4142,399
4,7,-102,-2124,1099,-147
102,120,50,-424,-713,441
-47,57,-77,962,1552,-63
-89,31,100,4651,4688,-141
2,-93,-57,144,9761,816
119,-16,115,-881,9739,5018
-90,4,-57,-4256,10363,8902
-84,4,-122,-5967,2058,12506
37,-16,65,-2489,407,2200
50,-81,-53,1840,-5872,6385
48,52,63,9108,-4583,-1424
63,8,-68,-6706,5431,-6170
-50,-101,92,-1220,-45,-2173
106,5,-97,-613,-202,-1211
-69,37,-100,102,10,510
-2,-122,-107,-26,463,699
43,-52,-81,-682,260,-98
49,-54,-75,114,-343,-42
67,-36,-26,217,-27,-178
57,-17,-53,-757,309,-264
33,-27,-112,-427,25,-229
47,-35,-116,-237,-13,-4
84,-27,-114,-234,237,-17
97,-18,-124,-250,217,-186
102,-18,-127,-234,152,-305
99,-27,-124,-240,28,-396
97,-38,-117,-226,106,-251
93,-39,-125,-10,109,-106
95,-27,-123,-8,47,-42
103,-21,-125,50,131,4
115,-12,124,44,123,-29
124,-11,120,-20,183,-34
68,115,45,1516,610,-5327
-50,108,102,3606,-4779,-9540
75,-18,-82,2807,-7951,-9911
-19,120,25,928,-7417,-6115
-87,26,-79,-2035,-2144,-4100
-21,-5,122,-3105,-3214,681
119,-118,97,-1057,4702,573
-28,-64,82,1981,-2276,375
-86,-61,-57,-929,624,509
37,63,-39,-421,583,-189
-48,-81,9,1163,1231,-159
-75,3,-5,1634,2966,-186
113,-60,101,2510,6024,1293
46,-16,-70,-609,7808,3936
87,-69,-13,-416,6152,6524
82,126,-87,-2981,4583,9253
-73,90,-82,-1606,5445,6359
-109,-79,-91,-3573,2015,7384
27,111,-56,662,-3271,-771
-69,-61,73,173,-244,995
-126,77,24,1540,-1295,-155
14,72,-56,1473,923,-3205
-11,-74,48,-1439,112,-2118
-61,52,-26,-666,-294,-457
-66,83,-37,217,-266,473
-29,-126,-62,290,-138,512
38,-62,-67,-226,427,201
55,-28,-73,-935,316,-615
70,-61,-30,-613,598,-837
51,-90,-53,-502,261,-525
36,-101,-76,-89,118,-232
41,-93,-79,115,-11,-15
58,-79,-80,238,-38,138
79,-56,-78,152,32,16
92,-43,-82,50,48,-84
96,-40,-81,-78,108,-178
94,-40,-85,-164,166,-247
97,-50,-87,-181,147,-210
101,-53,-98,-139,149,-159
108,-47,-101,-158,146,-167
-62,13,105,4621,-3385,-5040
-5,-67,35,799,-7380,-8002
20,-47,-100,-2667,-9654,-10438
120,-98,123,-1276,-10085,-6230
14,61,-99,-3746,-2669,-1828
-32,17,79,-3240,432,-478
-116,-90,48,2578,-1425,777
117,0,-87,-187,699,49
-126,-128,66,-778,-39,150
46,-74,40,-118,443,-521
10,-39,-55,2911,2240,-69
-75,67,-13,1541,6652,344
101,-50,-25,-40,8847,2925
35,-64,-19,135,7156,6344
26,-107,66,2688,7663,6158
-113,-103,38,-6729,6555,4426
-19,36,59,-9138,237,3108
-52,-30,127,425,-1891,2622
98,-8,-79,3935,-2211,1587
0,113,1,-145,-562,870
113,108,-69,-1534,358,-166
83,33,-92,1313,823,-575
21,-24,-9,1455,1380,-1560
-3,-65,45,95,-832,325
11,-86,-7,185,-604,283
38,-39,-37,-760,-285,-620
73,-72,-68,-786,633,-679
71,-85,125,-564,391,-188
62,-38,-91,-987,375,-560
81,-49,-69,-450,419,-347
97,-57,-86,76,-46,-142
107,-48,-67,87,261,-129
109,-38,-66,-107,372,-230
111,-53,-59,67,181,-67
122,-46,-59,84,-74,110
119,-11,-60,-289,-100,-104
-124,-15,-80,-268,-30,-95
-119,-10,-93,-196,30,-129
-107,-7,-100,-241,271,-205
-105,-10,-102,-304,332,-254
-119,116,-47,5698,-5603,-6303
-86,25,42,887,-6086,-9589
-76,16,1,-646,-8288,-9456
-88,-91,-97,-949,-8212,-4905
-10,7,-4,-2661,-3089,-1520
-46,124,4,496,6793,2040
-118,78,41,232,-2109,1074
10,90,123,949,157,-106
-74,-48,58,-1885,765,105
24,3,-80,134,854,16
20,22,-120,-1274,2126,-377
8,31,-68,1017,4834,-404
33,83,34,646,5858,3229
-86,115,57,589,4413,4397
9,-116,97,-640,4548,5966
87,0,36,-446,3815,6782
-36,98,-34,-1718,3776,4252
48,24,96,-4587,1387,2955
-16,-126,-90,498,-1441,1654
-97,-49,30,1239,-1301,1692
-10,55,100,-837,-198,1268
49,22,38,-706,-332,9
49,-26,27,-354,-385,147
25,-47,11,-41,-71,366
17,-39,-3,131,-165,385
14,-38,-13,587,-88,19
13,-42,-18,292,75,-159
22,-61,-29,-68,330,-285
16,-91,-32,-68,331,-289
14,-111,-69,245,405,-152
27,-103,-76,70,67,-64
32,-92,-73,-127,2,-44
44,-84,-74,-99,201,-121
57,-81,-83,-316,270,-122
60,-75,-97,-387,94,-140
63,-77,-95,-180,39,-113
75,-67,-88,-276,147,-139
81,-55,-93,-424,154,-218
85,-64,-100,-142,115,-233
88,-63,-93,-144,-20,-184
-96,84,-80,3650,-6824,-7807
-111,-60,101,-1825,-7430,-10584
24,67,-81,-2257,-15031,-11430
-55,46,-20,-2890,-5399,-2207
54,-17,-103,-3686,-3595,-585
-122,-81,93,1566,-192,1267
-63,48,-8,508,1325,1088
-79,64,6,-965,1079,-2
68,9,2,-865,1016,201
-5,56,-44,488,3495,1002
-34,126,6,1749,5366,1937
40,-109,-107,3258,4877,3741
124,-26,79,1792,4492,5412
-18,51,66,2930,6200,7918
97,-68,46,-1787,7719,5424
-11,-113,-16,-6980,2068,5613
-120,84,-87,728,-4196,5526
47,-117,63,-3011,62,-362
80,32,-118,740,-432,-3739
-94,9,50,6770,-142,-1066
-95,-62,-109,724,403,-13
-127,-74,-29,496,-1071,505
-27,-22,76,-1319,419,-455
17,-30,14,-2039,797,-1164
60,-79,-68,-1821,1058,-1405
80,119,-101,-639,890,-1110
57,107,111,-232,462,-397
-19,-104,84,59,-729,-663
-3,-95,-120,-615,-210,-386
23,-84,-98,-349,35,208
62,-60,-77,498,158,337
92,0,-79,-217,-149,230
124,49,-92,-777,345,-460
127,29,-125,-1133,682,-757
121,-4,108,-820,459,-552
114,-6,89,-229,341,-452
112,-6,86,-154,21,-337
118,16,119,-704,431,-227
125,14,-110,-80,493,-141
-124,24,-124,-11,-28,-40
-82,82,36,-3786,2107,-2816
78,-88,-108,-7048,1428,-4384
-71,78,-105,2068,-25,-3798
-111,1,-29,1010,-2306,-11012
63,-106,-45,-1644,-2889,-10654
-85,114,-6,3181,-10401,-8374
100,-79,-84,-2983,-5933,-1951
-33,74,-58,-7258,5699,2614
82,111,-39,1784,-797,1640
-60,-2,88,1365,1878,3
-113,123,-35,1196,3844,22
111,-93,42,2529,3089,-435
126,33,-26,3196,4831,1018
57,-26,50,1575,6469,2889
-38,28,-65,-146,7343,5432
121,117,101,-1111,7917,7101
-45,-44,17,-113,5755,7742
117,-103,38,-5126,-1547,998
-39,-23,-60,-3431,292,2842
107,26,-60,-1778,-726,2087
-4,-7,119,12459,-5721,2049
-61,115,118,-5896,3074,-3282
49,-26,-119,-4714,1276,-3486
45,113,102,-2235,518,-1988
28,64,107,725,261,483
38,-95,96,1619,79,648
55,-38,103,722,-46,-124
71,-75,-120,21,-598,-95
89,-110,0,1652,146,391
61,-66,-27,1451,-899,640
51,-44,-50,41,-81,-66
67,-81,-85,-392,178,-141
68,-105,118,237,50,114
65,-102,108,126,-16,-31
105,-106,-127,469,-151,221
109,-61,-91,697,-58,-161
98,-23,-66,-673,318,-710
88,-88,-92,-622,401,-574
99,-113,-121,-710,516,-428
124,-111,118,-543,805,-97
108,102,9,-3055,1406,-2686
113,105,13,-4405,3366,-3138
-79,96,116,3146,707,-4782
-35,102,3,277,-2183,-8800
-93,-107,-71,5045,-5454,-6974
-2,-35,58,6948,-11494,-8638
-56,-44,15,-3515,-4254,-3774
-74,66,54,-5404,-1346,-2220
-56,-26,21,653,4548,2023
77,112,42,-427,-2220,328
-60,42,-2,950,-736,819
27,2,-8,-1263,877,-9
-3,-106,-35,536,-53,-264
-56,-40,104,-281,1348,201
98,84,-104,565,1539,177
-109,101,66,-5844,5930,3514
-43,-89,-38,-787,4968,6275
-33,-65,103,2083,501,6784
-91,94,-31,289,2204,6723
-56,35,33,-13,3238,6251
32,114,-91,-3295,3856,5664
-81,85,8,-10945,-669,268
19,-9,-116,-2868,-4016,-1869
-23,-122,78,5160,-4587,935
-74,-67,-83,1644,5122,-1695
37,6,-66,2217,63,-1993
-66,47,103,3247,-1432,653
-78,120,-99,2372,-1255,1117
-32,-60,-87,1582,-682,804
24,-67,-87,1238,-191,321
42,-78,-11,891,-71,340
44,-23,89,181,404,-175
43,-29,43,-1132,334,-778
31,-71,10,-1337,419,-710
29,-90,-56,-1294,350,-692
49,-93,-96,-1117,446,-441
60,-76,-120,-753,339,-356
65,-65,-92,-454,267,-263
84,-57,-75,-298,170,-196
93,-46,-84,-69,1,-114
15,120,114,8887,-2349,-5447
24,61,29,-2182,-4980,-12610
-120,109,85,6171,-14377,-8950
-36,65,104,-3075,-8996,-3261
28,45,-69,1481,-13867,517
63,42,95,80,4436,800
-96,-20,-14,-1066,1026,1057
-95,-83,-60,616,-498,-172
29,43,-128,-42,1002,-95
-37,-94,48,309,1200,360
-103,-77,69,1149,3316,-1306
89,-82,40,4443,2587,300
66,100,79,2957,7050,2364
29,-35,-68,151,9992,4184
13,25,-73,-5076,7938,6374
112,-29,-78,-7723,3898,5252
86,-34,-121,-4570,2088,4465
-66,-117,94,-471,-1480,3918
-90,35,-89,2336,-4945,3018
94,103,120,3287,1137,-3593
56,84,24,-2813,1615,-3731
-39,-108,77,-1743,-1360,-2811
43,90,-97,-1870,-753,-488
22,-120,-123,86,1153,985
13,-63,71,1124,577,95
68,-49,115,88,-428,-32
94,-3,-47,-1406,-83,-452
107,-15,33,-101,628,-550
90,-65,-68,608,-80,-44
77,-43,-115,83,96,-248
73,-44,-126,-249,144,-129
97,-47,122,-165,308,242
112,-37,110,192,101,309
122,-33,125,1256,-236,235
-120,-8,-61,636,203,-84
125,-19,-70,35,133,-195
121,-43,-83,-203,202,-246
122,-48,-89,-322,231,-244
125,-53,-101,-261,220,-251
-123,-60,-102,-126,168,-202
-30,-82,88,2506,-2451,-3702
55,22,-47,2027,-2129,-7383
1,107,-45,702,-7086,-7398
54,-13,77,-4057,-3748,-4946
-126,-102,-110,-2553,-3773,-4925
-76,101,-87,-1073,-2556,-2577
61,-3,100,-2692,-1358,-816
-82,-96,-77,396,-3929,37
98,98,-120,227,1083,512
97,-60,-38,-500,604,-232
75,-106,0,-123,223,-62
-52,114,-34,51,711,-413
-119,-78,118,1102,1653,-338
18,-89,118,731,4272,1461
56,23,-106,1694,4126,3827
-108,-71,63,2292,5516,4385
81,-40,0,1815,7401,6674
54,87,-104,-3606,7849,6040
-63,62,-111,-4876,3690,5655
-107,101,78,-2446,-2849,2418
-118,38,-95,-3030,-4246,1664
23,-105,119,-1742,-1776,-137
-116,35,-8,6187,1960,-2385
10,-22,-13,-926,-840,-675
-63,126,21,-672,-133,-527
-51,95,4,492,83,87
-11,106,-56,590,-104,469
2,-109,-55,292,-38,123
30,-80,-15,-229,301,-352
40,-110,-12,-31,168,-237
32,-103,-10,-90,181,-219
32,-105,-36,-100,78,-181
46,-109,-46,-44,78,-168
55,-109,-58,20,173,-152
60,-102,-64,60,165,-161
69,-85,-47,-51,137,-165
80,-81,-39,22,96,-159
89,-75,-58,-129,103,-209
95,-75,-71,-180,187,-279
96,-78,-80,-187,178,-278
118,-50,-123,-5534,2067,-2541
105,-10,-11,-3601,3291,-3647
16,20,-33,4459,1514,-5316
-81,-89,-64,3746,-7538,-11137
44,-57,-71,6123,-11288,-9370
12,80,63,-1093,-9437,-6082
95,67,73,-2894,-4610,-770
46,-9,20,-1740,4916,472
-85,-67,-123,890,-112,1063
73,24,-92,66,-293,94
4,-118,-82,-470,-695,-444
65,7,-63,-785,446,1
31,-120,-53,-100,200,-95
-15,-21,0,-802,1314,130
115,12,102,345,1831,710
-88,81,44,5222,2436,1909
-40,93,125,3433,4141,1637
-54,36,106,-2615,8253,3723
-34,-40,-51,-1520,8503,7123
77,-102,64,-5605,5272,7491
105,-93,103,-1828,259,7871
6,56,32,685,-2568,2598
81,-108,-48,-4850,-513,1627
-30,-9,108,10664,-5177,1593
-112,85,-123,27,-45,-3688
51,-14,101,-3646,3108,-2754
-72,58,87,-2918,2128,-909
-108,122,44,-1635,84,21
-66,-113,99,234,-1082,534
37,-52,123,1402,969,434
51,29,34,-1124,278,-579
98,-47,-18,-821,653,-359
77,-23,-3,-1460,775,-1062
71,-62,-84,-738,370,-744
54,-53,-117,-66,-227,-366
55,-30,-63,-195,-119,-174
64,-52,-69,572,-219,495
106,-5,-93,-25,49,343
-119,45,-58,-716,262,-152
-119,51,-46,-847,261,-547
-42,-101,24,-255,5051,-3116
44,-25,-23,5145,-3590,-4483
-33,82,-34,-122,-3951,-9346
-80,-53,106,8435,-8558,-8784
-41,46,-65,-4884,-11456,-7540
80,-29,71,945,-6692,-644
95,-89,-18,-10790,18852,1038
-105,42,25,693,-3955,2617
43,-26,29,1463,-869,-68
-41,91,-53,-650,999,-695
-5,81,-16,174,-509,411
-32,120,-22,-180,1457,-308
-49,74,90,-48,1061,1182
-5,109,48,1419,2759,42
-31,61,102,4047,3702,1106
122,-112,44,1047,6209,2782
103,44,106,-2418,8257,4566
73,35,24,-710,5908,8271
117,102,-55,-672,4006,6086
96,-42,54,-4237,1191,6032
30,-109,49,-5706,-1656,658
-41,-84,-50,-5198,-18,1624
-62,73,18,9610,-2692,-1773
-68,126,-19,-1380,1101,-4458
-8,-23,42,-1117,-574,-583
98,7,-119,1453,-382,678
90,-102,-78,181,959,-28
-58,93,-127,80,730,992
26,-87,-117,159,-456,1135
92,81,93,1595,-871,-361
97,59,37,-1739,1172,-1314
43,-92,-93,-1424,808,-1258
17,77,122,-455,445,-637
0,104,123,144,-141,96
21,-94,-96,522,-88,142
60,-74,-62,638,188,-50
88,-99,-87,553,-36,27
79,-103,-85,822,-142,70
61,-90,-70,634,-66,-27
57,-95,-69,364,28,0
126,-91,77,2486,-6565,-6407
67,-47,-89,-1757,-4672,-8531
18,-54,88,147,-9688,-7845
-98,-87,117,-3781,-6397,-4955
-116,23,16,-2949,-5226,-1655
-22,70,114,146,-1856,-3138
-44,5,-104,1194,2582,2341
-43,46,84,-1266,156,304
-121,-65,-126,-759,17,-444
-7,17,2,-1338,963,-480
112,-90,12,-609,955,382
125,76,-106,-891,1679,44
-123,54,-78,2020,2975,1129
24,-106,30,3667,5232,3416
-63,8,-52,-308,6127,4962
42,96,-40,-1431,4497,6794
-10,-17,-60,-533,5978,7438
98,-106,91,1134,1675,7064
76,127,123,-5175,-91,2846
-36,-103,99,-4238,-49,1985
-92,-89,22,-1561,-3482,254
47,-30,-47,8119,-2235,-3211
70,67,-127,-349,1504,-2213
100,29,70,364,-416,25
95,54,-84,1210,718,4
-120,76,-68,1725,-857,574
-47,-104,30,1435,-82,339
8,-33,77,-243,727,-40
-28,-110,-25,-757,1034,-309
-35,86,-55,-390,955,-411
-60,69,-70,25,221,-331
-41,82,-28,-108,144,-192
-29,92,-23,87,114,-13
-2,107,-50,133,96,-46
5,124,-59,-92,130,-140
11,-128,-60,-112,175,-285
11,116,-72,-188,174,-189
18,121,-75,-151,159,-148
31,-122,-80,-199,171,-228
39,-122,-89,-265,176,-232
-54,-69,43,-4130,1968,-2863
-9,54,77,-2202,-661,-5766
-98,-66,-74,-1145,-5594,-9034
3,69,-6,2724,-7278,-12741
-93,71,-62,-1681,-6288,-6365
-64,74,118,-4318,-4263,-1821
110,-37,112,-3740,7928,2171
-122,65,-14,1210,-3110,2150
-36,-112,98,376,488,299
-57,53,21,-1136,814,-362
-46,34,-93,335,-153,29
54,34,19,-1125,746,274
46,-41,28,1339,1694,154
-98,-11,-35,1949,4062,670
-25,-97,-78,3028,6784,1954
61,-39,-128,1500,8205,5346
121,-71,-25,-1683,4583,7096
28,-97,53,-2238,7377,8760
-72,123,-118,-8574,-159,4830
-18,-90,-127,-827,-2035,393
-32,20,-26,-1624,-2189,-999
-87,57,105,6848,-510,-1724
41,5,-113,79,803,-1810
-35,72,104,1277,-694,-806
-55,63,-99,579,-168,-217
-2,90,-80,-399,605,569
22,-86,-95,-677,169,389
43,-52,97,1264,88,-316
58,-72,42,359,-122,195
48,-95,-76,56,-32,28
42,-85,-78,-168,43,-185
46,-91,-68,514,-143,-32
67,-59,-62,-145,9,-261
75,-67,-68,-598,257,-417
87,-86,-64,-716,369,-379
74,-71,-79,-605,113,-214
92,-46,-81,-881,195,-319
107,-42,-106,-883,286,-460
121,-47,-121,-730,351,-442
123,-33,-127,-808,346,-420
-90,-31,105,-4188,1499,-4498
3,62,-43,116,-928,-5834
103,-119,-128,944,-8774,-10634
-10,54,15,-1493,-9309,-10452
126,31,-126,-2024,-6026,-4882
-117,79,-122,214,-4667,-1566
0,51,29,-4097,5636,1039
-59,76,-56,670,-793,696
-96,-54,60,-72,980,100
-22,-2,66,-219,876,102
-106,-2,25,1739,1820,-273
82,47,-81,3956,2759,722
34,-20,-110,-272,7735,2573
-41,-115,112,1112,7792,4847
80,-25,0,756,6396,5731
-117,-8,-72,-1408,7896,7011
-51,-57,83,-12625,1875,4209
17,-18,-39,-593,-1280,3938
-34,-74,70,-3191,-5183,2410
60,80,90,4717,1347,-1370
105,-72,-36,1790,2471,-5004
22,79,53,1501,-1616,-685
-57,86,-125,434,-1614,653
-44,-55,-51,-1049,587,20
15,-76,127,-392,1122,-104
51,-71,106,-156,139,111
60,-33,-120,-637,-513,-67
84,-36,-55,417,410,-244
73,-30,-67,386,94,-207
61,-22,-88,-200,-67,-245
64,-22,-85,-354,124,-212
81,-33,-110,-296,412,-258
117,-66,95,-390,380,21
116,-37,87,-480,-185,149
105,25,109,-707,-81,-250
121,36,-58,-651,832,-629
123,-2,-111,-485,271,-431
126,-42,94,425,-193,-42
126,-22,98,547,-45,-30
126,2,96,-208,194,-171
46,-60,-19,-3846,3613,-2897
-49,84,107,2672,1191,-4400
1,-103,-35,3661,-5553,-10683
-67,109,-99,474,-3752,-10533
39,112,98,1934,-8692,-7788
102,21,-86,-2295,-6286,-2507
126,73,-117,-2982,4523,1898
7,-54,-69,1703,-1981,1124
15,-100,65,-740,34,419
-92,-56,-85,-298,785,-137
85,71,-34,740,855,-896
2,97,28,1040,992,556
80,120,22,2409,1868,-75
-120,-122,55,3349,3495,79
60,-4,6,204,7233,2975
120,-70,125,-641,5735,5499
-42,-48,38,-333,5553,6794
73,69,124,-1928,4570,7084
13,-9,68,-6356,4011,6677
119,-71,68,490,14,2833
24,-125,64,-3090,-3199,944
111,46,-1,12628,-3601,592
58,15,109,-1642,1359,-4593
10,-87,-24,-2870,-185,-2231
-53,70,-112,-1792,-82,-611
-65,81,-113,712,265,515
-24,-116,-110,978,286,101
33,-68,-87,-250,7,-275
55,-52,-60,-1555,-36,-799
74,-75,-40,-1364,688,-1028
66,-74,-23,-1144,1290,-909
25,-109,-75,196,-256,-198
39,-108,-73,1104,-460,411
65,-67,-83,680,-346,264
95,-44,-103,140,71,134
104,-34,-102,-5,94,-43
113,-27,-92,1,108,-198
114,-37,-93,33,183,-238
111,-27,-95,-480,328,-323
115,-32,-91,-519,311,-347
-90,-68,50,2276,1345,-3835
43,-68,3,5619,-2894,-7695
-47,-118,-51,1743,-1904,-10361
-78,-117,-111,1801,-8836,-9077
86,115,1,-1805,-6226,-4954
43,85,-112,-8490,5820,-641
-116,100,6,3915,-3187,1925
-10,-31,98,-152,1568,177
29,66,-31,-582,358,-100
90,63,-41,797,915,-354
49,-52,16,339,1804,544
-120,-126,7,1922,1453,528
-94,-78,-3,4324,2257,776
32,-58,54,-884,5717,2026
-72,7,93,-367,5465,5455
-121,51,32,-2523,4934,5496
60,69,-82,731,2598,6046
-66,120,-115,726,3181,5472
76,98,-50,-671,1732,5589
-19,-15,-84,-6003,1261,6911
115,-23,124,1852,-4283,-299
-24,-113,-69,8442,-2090,-1365
82,-55,62,-2995,3384,-4040
126,34,-24,-2273,618,-1625
118,45,-32,-760,-399,366
-74,-107,-9,-566,-536,557
28,-47,-21,-1034,564,158
82,-10,-66,-1162,1121,-700
90,7,-67,-1937,1232,-1650
72,-36,-46,-1983,1214,-1734
64,-83,-79,-983,594,-924
53,-82,-104,-22,-82,-132
63,-59,-90,519,-256,314
84,-42,-86,1224,-615,619
97,-27,-71,1370,-711,674
107,-7,-53,971,-424,385
110,3,-55,220,-2,-168
108,-22,-65,64,121,-225
103,-30,-63,-215,256,-244
104,-25,-65,-496,267,-342
89,-103,-37,-6253,6458,-5968
-24,59,-78,8234,-4800,-5302
76,56,-52,7140,-10124,-11248
-124,-20,-59,-2410,-8164,-6993
113,58,-20,-1,-4014,-4337
-62,25,-72,-3533,-6026,700
80,-18,37,-1773,3979,444
-105,-16,82,963,-1578,1209
110,-80,70,-706,-119,242
83,122,-107,131,362,222
74,10,15,956,898,-255
-53,117,74,3125,1889,-176
-39,88,115,-469,5199,656
17,-1,-87,1870,5394,3543
6,-76,65,1917,6622,5032
-102,-29,25,-729,7115,6343
88,-19,54,-6432,5489,6554
88,25,-71,-3267,-2468,6634
-69,37,-99,-4389,-2553,660
78,-125,125,-6747,1968,1411
-84,-6,71,11986,-1631,-1507
13,118,-116,1092,-1723,-2953
-10,41,33,1282,-97,237
-103,88,-71,-483,-340,-414
-27,57,-94,-186,1433,574
-24,74,81,304,241,1465
35,-62,-125,739,-1017,2347
-80,-28,-49,-2046,2345,-2026
-122,42,-63,-2655,1324,-3022
95,88,91,-1149,-28,-1970
41,86,110,312,-646,-748
54,-93,-76,-1009,293,-141
66,-73,-95,-79,374,331
78,-46,-104,852,-319,404
123,3,-82,261,-99,151
-117,2,-92,-121,171,-160
-121,0,-109,-216,193,-310
-126,-7,-120,-361,190,-333
127,-13,-128,-224,222,-138
-126,7,120,-426,263,-340
33,95,-102,-5713,3096,-3487
-58,-63,-88,3724,-461,-6699
53,57,38,2099,-6140,-10073
92,82,-51,1322,-10779,-11222
-16,-79,51,-2319,-7405,-4273
79,97,48,-29,-4892,-1280
-18,38,-27,-2110,3169,2235
90,-79,80,-785,507,412
34,-125,-36,39,-610,-890
-33,-114,-54,-336,1040,345
-108,-21,-44,429,378,766
89,118,44,2833,1522,-580
112,-5,3,5890,1880,274
-60,-117,-106,2353,6460,1641
50,116,31,-940,9909,4446
-126,-59,-78,-7495,8338,8326
50,-66,-49,-4681,2678,7647
46,-4,81,-4044,-46,7560
-17,58,-68,2211,-3287,3434
-98,0,36,7822,-9888,4962
-17,-65,74,854,798,-6687
124,-58,-71,-1458,2910,-4602
-117,-37,-94,-1337,289,-537
114,85,-79,-1112,362,-346
-75,102,-88,-476,619,-275
15,115,-116,-206,460,225
51,-52,-84,-1797,598,-428
104,6,4,-3224,1446,-1430
121,-21,-47,-2672,1466,-1578
98,-51,112,-1015,400,-1001
63,-71,94,674,-555,-8
70,-24,120,349,-231,152
93,-13,-126,897,-264,479
114,-1,-112,1115,-383,506
-128,15,-82,786,-124,204
-128,15,-83,229,-41,-161
123,0,-100,-131,97,-292
119,-13,-101,-363,255,-276
115,-20,-118,-295,153,-198
124,-17,-117,-316,185,-205
83,-12,-84,-8121,3791,-1835
89,33,63,-6491,5166,-5711
-47,32,-125,10478,342,-3285
-56,30,-34,8514,-3834,-10387
110,101,60,6244,-7691,-11060
-33,-94,-72,-2977,-5893,-4779
50,37,-109,-887,-10799,-43
76,-125,-16,1451,1606,3087
-72,87,9,-2055,1685,240
-78,-11,118,-837,683,-253
122,1,-123,793,2,-371
29,-96,-68,1824,170,76
-83,10,35,3498,1664,29
-91,-116,60,3667,3960,463
-78,77,82,-8744,9387,2442
73,118,60,2273,4027,7704
103,-62,34,672,3457,8477
-2,-114,64,-1834,4952,5536
44,7,39,-6010,1929,6296
-37,92,105,2922,-3383,2917
23,55,82,-1591,-2579,1299
-34,26,-6,6466,-2701,-1565
-100,41,-71,-4850,2396,-5578
39,-69,-58,-1688,1122,-683
-61,62,-127,-724,544,-292
-80,99,89,238,49,-70
-32,101,93,1121,-259,604
22,-110,-26,772,143,341
41,-110,8,1227,-430,591
62,-81,-3,704,-163,357
55,-66,-41,-116,91,-149
56,-74,-55,-620,336,-510
57,-95,-83,-643,361,-297
74,-67,-79,-866,513,-503
85,-62,-90,-1062,746,-633
96,-75,-113,-990,641,-615
97,-80,-105,-530,301,-478
105,-83,-80,-161,316,-292
101,-94,-94,416,-14,45
106,-88,-97,921,-264,382
-86,100,-43,-3419,2425,-3076
23,-48,30,-3103,3816,-4545
-118,68,-48,7834,-5357,-4972
56,-113,-48,1111,-5478,-11876
80,109,55,2057,-8144,-8971
-83,-60,11,519,-8919,-3818
66,65,73,-16768,23106,3375
102,120,34,3799,-6424,2060
-72,72,-23,-14,-136,-523
-14,67,-73,-1327,1169,-649
-36,121,-42,409,13,239
-71,-68,-15,648,1588,-581
82,14,-80,2313,1147,-597
72,26,7,1588,5151,977
125,-68,17,-768,9215,3162
110,39,-12,384,5142,6170
-20,-14,-38,-1850,5226,6920
113,-100,-30,-4075,5495,8263
-12,-69,73,-6831,1674,3479
17,120,-17,-3607,-2725,-1827
-19,50,-10,2560,-3334,-1458
100,8,90,6436,904,-1470
37,76,103,-2165,2304,-1490
-64,-88,94,813,-968,330
-36,-86,-76,1150,-300,439
-6,-85,-86,1253,-672,401
27,-78,-86,691,-282,153
51,-65,-64,-89,-47,-170
39,-83,-65,187,-34,-179
39,-84,-76,68,161,-122
40,-79,-104,-235,329,-109
47,-86,-115,-85,154,-142
46,-86,-119,57,0,-132
63,-77,-90,-81,225,-182
64,-75,-93,-73,169,-173
70,-78,-99,-93,141,-181
75,-77,-106,-153,164,-169
81,-80,-113,-109,138,-169
87,-76,-119,-128,122,-143
91,-69,-117,-145,131,-152
77,48,-91,-5782,3506,-3595
-106,-111,29,-1583,3143,-5217
123,43,-41,5621,-2310,-11311
-118,64,-95,2996,-7365,-12132
-18,62,-101,2493,-9798,-7212
106,-128,-54,-2662,-6405,-2090
-95,-10,94,-4365,7696,3249
106,-86,80,1113,-1083,1551
-6,-41,45,389,-784,-89
-63,-51,-68,-178,1260,-375
19,-95,5,833,440,300
-110,-84,-44,-315,2889,-1806
102,49,123,2702,4183,12
-53,-47,38,4509,6102,2195
80,-62,-40,-2486,9380,4775
40,57,-32,-4258,7663,7608
73,9,2,-2031,4582,9149
-25,-88,-74,-7034,957,2250
10,-62,-89,-3549,-3645,2549
-109,42,21,1840,-1202,1321
-3,77,-11,5563,-937,94
108,-99,53,1191,222,-2131
46,-16,21,-1571,1088,-1681
-18,87,-64,185,122,-408
-59,116,-105,472,-335,192
-23,-98,-86,107,-188,249
20,-84,-77,152,23,186
62,-62,-75,-70,134,-114
69,-65,-79,-168,160,-323
62,-69,-82,-316,315,-446
46,-94,-100,-273,227,-310
50,-95,-97,-117,132,-123
58,-79,-101,-71,52,-99
83,-67,-102,-65,118,-122
89,-57,-111,-186,166,-252
93,-65,-115,-120,168,-214
93,-62,-115,-174,163,-208
100,-60,-113,-179,188,-167
107,-49,-118,-176,145,-208
119,-51,-123,-228,177,-205
45,-3,-87,-5277,3092,-2296
-74,117,-53,-5475,5321,-5686
62,90,57,7742,-3164,-6702
97,-38,-85,1535,-6091,-11671
-70,-86,-27,4524,-11848,-8597
105,-7,-36,-4692,-5783,-2084
51,91,-8,-1691,5694,2040
-89,-11,48,-927,-933,2041
116,19,49,679,-1661,-635
16,111,-35,-1355,1980,-88
89,26,19,1358,1739,687
42,-82,124,3477,1674,-509
63,88,-100,1278,4646,952
-63,88,-68,3316,7443,3220
94,-11,-22,-1184,7880,7061
-93,-24,-92,327,4014,6720
-40,113,-118,-915,2644,6176
68,82,-126,-1888,1473,3253
123,-104,-69,-2597,2392,1503
121,-61,6,458,664,-767
66,-119,49,337,-1855,-4251
50,-85,-125,1050,-2716,-3345
52,61,-46,1260,-45,-358
57,4,-56,-3877,3978,-417
-99,117,121,1878,-1755,792
22,-120,-115,1745,-887,962
66,-84,-111,1424,-1219,843
100,-54,-77,356,376,-219
89,-52,104,-989,960,-367
54,-89,87,-6,-104,-252
71,-100,-64,1138,70,-11
82,-56,-77,-188,122,-248
96,-101,-94,-132,308,-196
91,-77,-92,-512,267,-271
78,-74,-106,-443,264,-476
87,-101,-119,-323,127,-149
97,-88,-119,115,124,0
115,-73,-120,145,101,-107
-127,-65,-119,-71,216,-181
126,-62,-110,-155,232,-261
45,-117,-108,3529,6287,-5563
-67,-50,-109,8072,-4615,-13900
-47,-100,69,8899,-12789,-12337
-122,88,-21,-7177,-7802,-3195
-70,111,74,-178,-6900,300
-38,-60,-14,-3496,3032,1994
41,-32,68,5178,-2078,1699
98,115,72,264,419,-1134
15,-123,-75,-758,831,-171
57,32,4,-390,80,-161
16,-107,70,128,1420,-707
-2,-105,87,3248,1327,537
-112,74,-115,1099,4983,1182
-63,116,-59,3575,6030,2892
-99,127,100,4926,6002,5067
-88,20,7,2274,8894,9758
-54,43,33,-11583,7473,3596
31,77,-54,379,-1198,4105
-65,56,0,-3857,18,2849
60,15,63,9877,-4374,1257
-36,12,17,-2510,1528,-4110
-2,-80,81,-3966,732,-2063
61,43,108,-2455,-613,-1424
101,33,-104,-247,587,810
-47,-92,120,-162,663,540
-28,15,-116,-1220,404,-108
61,-30,-111,-351,1068,-175
16,-36,76,750,258,-305
7,-28,81,241,-190,-210
-7,0,104,-285,-262,-192
49,2,127,-82,409,-105
72,5,105,-117,399,-298
70,8,101,-468,171,-363
47,0,102,-417,23,-336
64,2,118,-265,336,-377
78,-17,101,-74,433,-270
70,-21,79,-84,198,-140
81,-3,75,-324,213,-160
94,-12,82,-147,197,-130
103,-15,73,-63,303,-71
-66,86,-67,-2804,2406,-2971
-110,-53,31,-820,3754,-3034
72,-93,26,1201,213,-3641
-22,39,4,5055,-7950,-8583
11,-9,-6,1464,-12366,-12134
127,-47,-76,-4202,-8117,-6674
22,-63,-63,-588,-5994,-2153
2,-99,120,-3562,3697,400
85,65,124,3312,-925,3167
73,79,24,-8,996,-56
103,28,-91,183,1083,-772
-73,-82,13,-458,-238,46
-77,-18,28,-231,-126,53
-3,5,119,648,2241,-9
65,-54,-88,3435,4502,833
112,2,41,-1308,9458,3325
7,-83,-41,645,7897,5676
-3,103,-118,-1974,5617,8738
-102,-12,118,2274,722,6098
59,-66,85,-505,608,5547
-108,-92,98,-72,684,6758
-64,-20,0,2809,-4178,4398
73,-92,99,1237,-2143,-1231
-37,-71,40,671,1338,-3567
-105,123,73,588,1578,-2280
71,60,74,-1054,958,-714
96,79,100,-1705,1389,-509
-94,79,-18,-689,743,-135
-72,111,-27,-482,-13,-135
-18,-120,4,-646,104,-417
-9,104,-23,483,54,-442
-37,109,-39,356,14,-548
-43,-123,-61,-565,250,-350
3,102,-20,2,-53,81
-3,-128,-69,436,29,162
28,-91,-41,-240,328,-198
29,-111,-32,-69,185,-29
31,-104,-48,171,-60,-30
50,-82,-36,-79,124,-184
51,-85,-58,-237,351,-268
28,125,-55,-10247,9138,-5046
90,-82,107,7514,920,-2166
43,70,52,6537,-8422,-10161
-92,-99,-126,1639,-6764,-12225
-87,-85,57,4807,-12447,-6747
56,-17,-118,-4051,-6527,-2739
88,-109,-41,-13920,20490,3287
66,87,-31,5083,-5267,1086
-75,-35,116,-376,373,120
104,5,-48,-447,1269,-524
41,-53,16,-108,1010,206
-23,-66,70,-234,1159,-10
-122,41,20,1647,2024,302
-77,-123,-76,807,6508,135
77,-117,21,1166,9107,2244
31,57,112,-37,8619,4876
-93,88,20,-3136,8913,7892
-53,22,-108,-2862,3336,7359
-26,-90,77,-5147,-587,3691
54,36,11,-2941,-1915,4914
66,86,13,7379,-5939,193
-37,-78,16,1349,2026,-4244
28,32,42,-2038,1113,-3036
-79,18,75,-1198,-762,-999
-62,91,-31,-1150,866,-207
-32,-126,-16,-766,571,216
17,-83,-57,299,75,462
52,7,11,-1016,415,-476
64,-19,-2,-947,372,-702
56,-56,-84,-471,102,-409
56,-51,-106,-274,193,-270
64,-28,-90,-202,357,-206
71,-19,-82,-100,205,-160
86,-18,-61,4,159,-132
98,-6,-70,-144,131,-211
106,-11,-72,-175,179,-191
109,-5,-81,-220,156,-205
117,0,-81,-276,213,-225
122,0,-82,-216,166,-240
-121,-3,-83,-251,191,-240
