AccX,AccY,AccZ,GyroX,GyroY,GyroZ
42,59,18,3925,-217,-7725
12,121,70,2066,-324,-9968
-86,-55,17,2176,887,-11570
100,-47,5,-1056,2749,-8583
71,-26,87,6116,-4375,1091
-98,11,114,-570,2897,5759
17,-84,18,-5506,1842,8128
70,36,-33,4267,2336,10213
45,14,-59,-2046,-2590,-12025
0,20,-36,5371,-1172,-8634
-71,37,80,-550,-1009,-7308
-40,-107,-38,6750,-1660,-858
79,-63,119,-686,5543,7621
17,-90,-89,-6653,2420,7939
78,102,89,-137,5003,3535
22,98,-17,6333,-9087,-8405
-70,-38,19,-317,-1057,-10847
1,-56,47,-531,-1811,-13039
91,-23,119,2063,-520,-10552
45,-40,-52,1386,1429,-5884
-82,13,-69,781,59,-1164
-8,89,13,5567,-3206,5596
-97,47,-93,-1126,7378,9418
-66,9,-118,-4964,6271,11456
58,50,-57,738,-2265,-615
2,-97,-104,-609,1242,-2232
64,-98,-53,6692,-4207,2358
62,15,119,-1812,1196,-1295
12,-75,-83,-2600,1792,807
102,-55,-93,-681,847,1761
-56,76,99,2987,1803,4565
40,-1,-123,-2052,4833,2901
-40,-54,-90,-900,2035,4617
50,-40,14,-539,-391,2866
118,-113,-124,-2176,-414,2545
-60,94,-125,2444,-1466,1641
-89,115,-12,-1067,1817,2279
60,-46,-91,-3030,914,83
-125,75,118,-869,-213,-1698
-126,-13,-87,2646,302,-1776
114,-98,-68,2184,3442,-4464
22,-105,11,8505,-1319,-10191
-22,46,25,1648,-120,-12877
-58,-28,1,3067,-718,-11919
-104,-51,121,7827,-3120,-5296
-2,-24,110,-5681,4267,8458
-35,-66,27,-4607,1860,9034
-82,22,48,6915,-2050,6039
-39,-98,32,672,-2621,-10016
22,-3,-111,3802,227,-8856
51,-28,-123,-1172,-1585,-8133
45,106,-68,6041,50,-1024
102,11,-55,-3696,4845,10946
-31,-81,-43,-3735,3729,7468
-85,-13,-108,2836,702,10415
-54,-112,-54,453,-792,-8781
6,-94,37,5156,-5171,-10407
-117,-109,-62,-982,-4067,-14261
45,-48,-68,1659,556,-13094
-95,90,-49,3160,292,-7095
96,41,-44,1915,-415,-3468
-27,92,46,415,768,2851
15,76,-7,-2060,625,11337
-126,-46,-93,1215,406,13130
12,79,97,3139,3338,4158
110,100,85,-13024,5625,-3430
16,-83,85,3283,-6633,-1510
-13,102,91,4763,-5497,-643
-44,127,2,-3101,1933,-1245
26,-61,-120,-4463,1718,-202
-40,26,2,104,-720,2125
97,123,100,-758,-1213,5018
6,-66,-45,3324,-1456,6896
-119,-35,33,1352,1090,3974
-2,-85,65,-3954,1500,2656
-98,97,110,2391,-1485,3844
5,-40,-118,4949,-2231,5422
46,41,121,-129,1944,2335
7,125,47,-3764,1598,-2907
95,58,41,-226,-1556,-3822
-69,87,71,-3196,4736,-3666
-23,99,-16,-2066,-137,-1047
104,47,58,-349,42,-1458
-126,45,66,781,404,-788
90,104,-5,-146,1136,-1333
105,78,-11,107,1034,-1454
118,20,4,3619,-309,-1671
120,41,56,1896,-1036,-1074
-123,69,72,-1644,561,-1028
109,63,72,-1105,794,-1241
112,50,84,180,453,-914
-109,107,-76,265,822,-1155
-111,89,-112,1064,-100,-579
-99,101,95,288,322,-808
-92,99,75,130,509,-825
-68,88,62,486,777,-805
-66,84,47,770,378,-882
-82,65,32,1165,45,-907
-82,28,31,1285,-8,-769
-81,25,34,960,93,-676
-75,16,42,935,-56,-528
-48,13,-89,2347,695,-955
-79,-17,115,1910,-434,-606
-90,-34,88,495,219,-721
-87,-47,78,296,293,-734
-67,-45,60,-70,522,-586
-62,-32,49,223,404,-703
-58,-34,49,704,298,-791
-52,-27,61,763,313,-915
-50,-27,66,218,540,-1018
-51,-35,75,80,593,-1100
-48,-45,89,118,484,-1012
-46,-50,82,444,326,-887
-41,-47,74,546,303,-867
-43,-44,65,693,305,-874
-41,-49,66,823,238,-808
-38,-43,78,848,251,-803
-31,-46,76,777,238,-811
-28,-45,76,601,295,-819
-28,-33,77,335,353,-887
-93,-28,119,3522,2590,-4788
75,-116,88,9193,335,-12480
-54,25,90,2749,51,-13452
12,59,30,3274,3337,-14545
-83,-108,7,-5067,7624,5601
17,-125,19,-5510,388,12721
-33,-123,62,-552,1271,16985
120,-127,-109,-1102,670,-14618
8,-64,-17,6334,-1761,-9649
-86,118,-75,636,-1926,-10407
55,85,-115,-5062,6230,11252
-107,68,-91,-4781,1059,11980
-87,32,91,1507,7827,196
66,-120,-50,3000,-8912,-15694
47,5,-87,6465,-5668,-13518
-13,106,21,-1921,-758,-14880
-43,-100,-31,7638,998,-9404
-116,-70,64,-2071,795,-421
70,-122,28,-2415,-92,9764
51,-74,33,180,-869,16881
9,24,-127,1821,5859,4458
-76,68,110,-9815,13306,-8027
43,-47,82,12915,-16057,1387
-46,74,-96,-612,-809,-121
-56,44,-5,-1297,-783,456
65,12,-111,-704,-216,5215
-90,101,96,-621,2312,5963
15,102,86,-834,1703,5807
59,-120,113,1603,-630,5218
-107,-108,-40,-1192,1511,3928
-52,110,70,-56,-1436,1596
71,-75,117,1554,-3652,346
106,117,-38,2250,6316,-5150
-35,99,-76,1542,-2824,160
90,74,-26,-3289,1358,-2103
63,-95,42,-1360,135,-1791
68,-87,66,179,783,-1213
109,-67,40,908,954,-499
118,-7,31,526,368,-694
-124,4,47,251,163,-1167
116,-104,-89,4657,1017,-4537
118,42,-8,6949,-840,-11696
-26,-87,83,2769,39,-12984
-124,-106,-45,1788,858,-13088
21,107,114,6114,-5141,415
119,64,-55,-5854,4560,10413
-5,-41,111,-3007,2594,12093
-73,124,120,10724,3251,596
104,82,-73,-4853,-5520,-9508
67,-102,75,2675,4637,-9487
78,-82,112,2756,-4247,-9752
-90,115,-109,2942,4458,-1447
-31,70,83,-9264,-516,13837
-93,-12,-127,115,1645,8634
115,66,-12,-2639,2915,-1027
-102,96,1,6276,-4025,-9395
-72,-79,2,4056,-4071,-10648
-58,-96,102,509,-1781,-14984
-96,-63,-59,3563,654,-10733
23,-85,-112,3758,-903,-4455
116,-84,-76,-246,1412,-3223
46,-14,-114,87,-829,2725
-98,-77,-3,-2051,2544,6212
-28,104,-119,-819,-2313,17533
12,-122,-122,8582,6719,3541
-44,-25,115,-10515,11702,-278
105,-120,27,6868,-9514,-807
-5,-27,-98,3324,-5169,368
-89,-38,-96,-4586,880,1051
21,120,74,949,845,2781
85,68,78,-1142,1519,3232
54,96,10,-652,1879,4764
-14,-96,30,-650,1706,5009
-32,-116,111,-1776,778,3453
9,14,21,-1857,437,2849
29,-41,-72,1568,-997,2043
-103,32,-10,-2039,159,-461
13,111,123,6943,996,-2079
-85,81,117,3123,-2877,-228
117,60,49,-2225,1208,-2104
-51,-49,-55,4326,-1413,-5172
-16,112,-20,-736,3015,-12378
-80,-5,23,3890,-244,-12388
93,-118,96,-4279,6207,-10552
34,119,106,9069,-4309,2366
-70,59,-3,-10546,4856,9079
-86,-61,82,260,-1512,9541
-96,19,96,11449,-11171,3852
37,11,110,7737,-8841,-11295
0,65,-32,-274,2139,-9979
41,-50,110,-779,4448,-9398
-116,-61,72,314,-1962,10415
-41,3,-75,-8122,6816,8909
15,-92,-104,13035,-12568,3628
-53,2,68,2346,-1799,-9223
94,-54,15,3039,-1652,-10561
94,-37,65,-1355,-2706,-15154
-44,24,-79,3781,5,-12008
7,-40,58,1133,967,-6727
3,-119,-104,1960,-906,-590
-7,58,35,782,719,6854
-65,36,92,-2608,-403,13070
-88,14,-63,-637,2178,9371
-5,102,18,-8162,7332,-3616
-100,87,70,14140,-12286,-1481
-70,-64,-16,-518,461,1978
-106,12,-13,1485,139,447
30,-36,46,204,-1121,2343
-10,88,68,-565,1194,4154
17,115,106,190,1204,4656
24,118,67,-1230,3824,4707
114,-61,44,-54,457,3520
17,88,-114,52,-367,2341
73,-65,-66,2221,-642,1820
56,-103,-59,540,1903,619
6,112,-121,-1582,1675,-310
-87,74,98,88,16,-864
96,-18,100,2120,-1112,-1004
86,-32,-124,2288,-534,-1195
92,-33,127,959,652,-1456
24,8,105,3985,-542,-4210
33,-109,-126,2913,-1043,-7472
-16,39,30,-2915,961,-12613
-125,-41,-118,2089,-528,-13029
-91,-61,-50,-870,8602,-7892
54,-44,66,4776,-4390,7079
32,65,-64,-10001,3210,8985
0,-111,-48,-3159,-4879,10083
-31,-21,89,-6859,5807,-660
56,-32,89,13559,-7367,-10773
8,-94,56,-763,9152,-10480
31,-32,-128,4036,-3251,-7218
-115,110,-42,-2452,4468,6663
-45,65,-3,-5831,59,9914
-47,-48,68,9723,-9215,9019
-101,-55,39,-4932,6282,-10364
-81,74,92,4641,-3119,-12278
-30,-23,-107,-2529,-574,-14911
-118,5,94,5206,-169,-10902
30,5,122,-1525,881,-4551
51,-119,115,1278,925,-2541
-29,37,112,2884,55,4679
95,74,-80,-5623,3310,10502
125,5,120,2309,-4264,14784
-125,52,118,-11369,7884,2266
-13,52,60,13068,-10950,-2411
-23,10,42,5306,-5512,409
-119,83,57,-3704,2079,-2208
-28,-2,-119,1926,-607,1736
64,16,-120,1490,-474,2527
67,121,-36,-2292,1986,2693
78,-101,126,-991,1296,3214
116,-100,109,2158,-2,4492
-119,29,-76,-1587,1355,1519
-54,-51,-123,1377,-279,2519
-31,-35,-106,-1025,110,1593
67,-114,-125,-1363,35,1467
-15,-113,-115,-1128,-422,423
-76,59,-77,45,-119,613
-81,93,-106,1481,565,-231
63,21,-126,5958,-1005,-6221
42,-106,82,-127,106,-11043
4,84,-100,1792,1418,-14497
88,89,85,-1255,5078,-10619
80,60,-111,6104,-3500,1369
47,116,-59,-9519,4583,9390
103,35,-117,-1826,-458,8990
-42,36,-83,20347,-14351,7825
68,-76,-12,-1079,459,-9461
55,5,88,647,-293,-10404
-24,116,70,1273,-2778,-10264
-101,-114,3,8225,-436,721
-28,-18,122,-10017,2181,11565
24,12,-65,-3743,2014,10126
25,-78,100,14373,-9773,2001
83,27,-38,1506,-6849,-10298
23,12,-28,687,1092,-10463
-20,-7,35,-261,-913,-13874
57,17,-80,2156,-940,-14280
52,74,83,3465,-1057,-5876
109,-86,-62,302,243,-2899
-59,73,-113,5038,-96,3299
67,-97,46,-4538,3081,7523
-43,-42,-78,2441,-327,12036
-89,110,58,-2471,8879,7347
-53,-112,-51,-3446,3900,-2851
22,80,92,4820,-6144,-794
27,100,79,-89,-5776,1006
99,69,-128,-2767,1299,-642
67,13,-85,-3584,1045,3582
48,-101,66,2277,-2485,6532
-45,32,-9,-2241,1338,5059
-43,-120,7,-3425,1800,3158
-20,37,9,1991,-2840,1363
-40,67,65,1904,-1020,3262
95,38,54,7741,1864,-378
-20,-29,-73,15298,-6524,2318
112,42,79,1842,594,929
116,126,18,-7185,5523,-1899
96,-41,-36,-6282,3663,-3278
-47,-50,-115,2380,-31,-5482
-31,15,37,2714,1366,-10498
2,-86,-49,381,537,-12248
-127,-124,-68,1456,3368,-12350
-25,-114,-103,6548,-1137,-4073
-111,16,34,-6629,2636,9322
36,-92,-20,-4012,302,9885
8,78,-114,11033,-7354,5409
13,-15,-107,1778,-2283,-9896
80,38,121,2100,907,-7598
38,-49,-61,1455,-1420,-10882
-122,52,84,4912,-1413,2600
-29,0,-117,-4573,2412,10645
101,81,15,-4017,4277,9747
-41,-33,-71,10481,-7940,-1053
124,-43,-56,7263,-13150,-9074
-90,-32,21,1557,-305,-11852
21,-73,-89,-4143,-73,-15789
18,65,-79,3566,1847,-13115
-21,-47,68,4143,-1384,-5683
-35,-124,66,-575,1849,-2970
-18,96,-11,3002,-1420,5364
-83,39,-95,-43,2346,8482
82,-75,53,788,3079,9756
27,119,73,-2767,7365,5580
-111,13,57,-5160,5797,64
-95,4,62,6470,-8491,-335
27,-15,-62,595,-1460,-281
10,55,63,-5217,1153,-64
58,-92,27,-386,523,1720
115,-120,92,-747,561,5040
32,-76,-111,1428,893,6308
26,-21,-99,957,1945,4814
-2,86,-21,-4187,2458,2068
-83,49,16,1849,-2888,3108
-70,44,-45,1986,-2473,2638
-111,109,-10,7503,-5000,-1520
-42,-127,-88,206,641,315
-73,51,-84,-3809,6247,-853
-60,80,-74,-4538,6554,-2245
86,76,14,5654,-2904,-555
91,-87,-88,2217,-1797,-663
93,-66,-33,-793,877,-1596
87,-110,-98,-1395,1713,-1505
95,-126,89,-1308,779,-838
98,-93,100,-475,22,-561
124,-72,116,845,-5,-478
-116,-47,-126,1051,119,-635
-112,-34,107,873,229,-769
-114,-41,97,644,240,-832
-115,-43,99,622,281,-801
-107,-33,99,208,357,-865
-104,-30,89,51,477,-878
-95,-32,70,226,436,-922
-83,-25,68,125,531,-971
-76,-23,67,18,493,-1054
-77,-24,67,120,490,-1076
-75,-30,69,279,403,-977
-72,-23,71,284,338,-915
-62,-6,83,210,357,-931
-55,-12,83,423,460,-898
-60,0,80,340,293,-903
-52,-15,85,655,355,-805
-50,1,78,413,367,-840
-41,-2,76,381,357,-827
-37,-5,80,520,380,-813
-33,0,75,362,370,-837
-35,-4,75,542,275,-843
-25,-5,76,440,429,-825
-25,0,69,517,468,-1149
-5,2,84,437,692,-1140
-20,-7,66,452,86,-723
-22,0,81,306,42,-635
-18,9,88,236,296,-746
-18,8,80,370,407,-981
-17,1,79,339,403,-960
-17,-3,83,321,411,-913
-16,-7,86,422,350,-850
-17,0,82,422,328,-887
-13,-5,75,469,339,-852
123,76,108,3385,1685,-6990
4,-42,-54,4792,-366,-12150
-128,-4,-119,3383,-162,-13949
-118,-51,117,-655,5683,-9842
-14,-67,-38,11982,-6265,-612
96,68,33,-13654,5089,12323
-33,-33,-90,-2795,-859,10925
47,107,43,-1303,8837,-7349
-122,-53,-3,3780,-5197,-11396
28,-83,-22,2744,2047,-7876
46,49,25,5217,-1996,-6968
-95,13,-92,-5240,6000,12127
93,0,12,-4922,612,13448
-122,90,68,715,14340,-5081
-26,36,-120,-362,-13777,-15433
9,44,-90,5517,-6121,-14788
-87,87,-90,-273,-1304,-15006
-46,-72,123,4449,5818,-6325
-2,-17,-31,-8641,4909,4729
-24,-123,-82,-1469,-4972,15416
-113,90,-127,2331,-146,12967
73,-124,119,-16674,20786,-4268
79,-29,1,16745,-20117,-5256
-61,28,102,-5727,-1285,4688
-84,110,67,-1261,-1822,1234
61,0,-59,22,39,4699
-21,-66,108,1477,1517,6161
-53,-101,88,983,3443,6069
-64,2,122,-624,-2059,5847
121,-64,-87,-1646,1317,2172
-2,46,-122,2354,-2503,2165
76,112,5,5488,-1087,3204
-37,35,108,6254,-2075,568
-72,39,61,-3155,223,-3989
-60,48,-58,-5459,2680,-4277
-110,106,21,-3024,2318,-3272
109,84,12,837,878,-1227
74,126,42,2718,-470,-1084
101,-101,65,2116,-387,-1163
123,-96,91,751,225,-1200
-22,51,65,3230,-1452,-2989
-86,-31,-35,3916,-1877,-8507
43,-2,76,1376,2059,-11341
-78,-114,-78,-1317,-741,-13912
4,72,-32,-1479,5931,-11196
0,-116,56,10226,-4675,1580
-10,9,31,-14907,3236,10081
100,-54,99,183,-4056,10066
-38,7,-18,-24786,23202,-6528
75,78,-35,12318,-1726,-11393
-42,-90,-96,2667,-436,-7128
-83,40,2,4172,-4255,6548
84,-101,19,-10702,7787,7804
60,-50,-58,614,-2976,9644
-52,-56,94,-6088,10372,-3717
-122,49,78,8352,-10291,-4246
44,-27,99,3517,3336,-4063
91,-86,2,-1476,-360,-9001
-102,-85,62,1671,-1375,-9335
48,-98,-19,617,1372,-10313
9,29,11,172,-214,-9898
6,-80,21,2722,16,-5922
-122,-15,22,2245,1565,-2300
-26,-106,72,1322,71,1737
97,120,4,2176,932,9946
37,-105,-82,-103,2944,11412
106,101,-111,2179,4592,7544
63,101,-63,-13505,12569,-4215
-95,-33,-77,9320,-9797,-763
70,32,-9,-2000,-3049,-2049
-43,127,94,-1747,681,-1595
65,-62,-38,-1172,101,-854
-108,-69,-14,551,-1827,42
48,-68,-65,-903,-687,1715
115,-22,25,-2102,1051,3037
-20,-54,-60,2649,-111,5214
28,-5,-52,1069,-1120,4113
-55,72,-10,-319,2171,2892
7,45,26,3964,-2120,3887
-113,55,-83,897,-505,3781
29,-109,76,5824,-1283,-250
83,-103,10,3741,-116,-3158
10,-57,-52,-472,-1613,-3261
17,72,-28,-879,699,-2023
-39,21,-118,413,1475,-1145
-39,53,96,697,1048,-800
-5,84,77,65,497,-452
47,-118,92,-458,423,-488
67,-96,100,-392,507,-759
68,-67,108,-278,484,-937
77,-85,99,437,403,-1004
60,-88,89,638,6,-775
71,-45,118,-12,137,-803
101,-51,-126,24,490,-916
100,-61,111,525,504,-870
94,-49,98,526,341,-912
102,-50,93,415,367,-809
118,-22,97,-119,538,-846
-120,-25,90,211,577,-956
-112,-33,77,569,388,-998
-116,-30,69,594,341,-1029
-104,-37,72,430,344,-989
-100,-40,68,420,384,-888
-92,-28,66,315,326,-921
-88,-26,66,350,259,-916
-76,-24,74,321,355,-921
-76,-15,75,196,308,-940
-78,-15,75,344,308,-941
-75,-16,74,394,286,-926
-71,-15,67,326,273,-912
-68,-6,63,394,77,-934
-14,10,85,311,574,-837
-7,90,-125,-412,1351,-1490
-36,13,90,861,479,-1392
55,99,110,746,639,-2215
-58,-111,-87,3293,-733,-2710
-117,-23,-10,2688,-208,-5963
-33,45,-6,4016,-1985,-7513
56,-21,-66,-2107,825,-8582
93,-122,-54,-714,2323,-8719
-122,47,-34,2033,-166,-9051
-110,36,-70,2036,1571,-1932
114,47,80,-6289,2633,6179
-53,-28,-119,-211,-452,8848
104,-7,-28,9768,-3651,10484
83,-18,55,-7184,1661,-9722
1,-90,-40,5618,842,-9140
86,-111,105,-447,-921,-5990
106,76,73,1688,3676,7835
-39,106,3,-7980,2821,9544
2,87,-125,-77,920,11165
-88,124,27,-2943,1535,-8684
-86,54,-78,6385,-2807,-8075
-51,-91,-124,-1182,302,-10785
-65,-108,-20,-8,2057,-11045
-85,-9,-99,2912,33,-10932
-126,-79,34,-1347,-1156,-4287
-4,-105,-43,2830,-157,-2350
-27,-14,93,-692,586,907
56,-122,124,3734,652,3580
-113,-92,82,803,130,10979
19,55,91,3540,6751,10658
122,-125,96,-15441,10155,925
84,-50,-122,4144,-1706,-8466
-70,17,-87,5399,-7905,-273
99,-112,38,-672,-2737,-1268
-77,-101,113,-3089,972,-309
35,-80,-63,-531,-1262,153
-76,-102,-59,2310,-1744,1897
-4,-59,-74,803,-1373,3416
46,-37,5,2826,-379,4520
-31,-97,-70,1256,1988,3759
102,100,-67,-802,-1272,2828
-110,102,-93,149,479,3786
8,-76,-51,-1505,-1055,3441
81,-43,18,-1545,-1446,669
-82,-66,-117,5350,960,-3309
-113,48,23,1277,329,-2651
18,-85,127,543,-1049,-1796
-10,125,-79,900,-203,-1294
73,24,-83,352,3197,-5309
-50,-115,65,2839,-4502,-9227
-123,-120,37,-1325,976,-12519
15,0,123,-398,4345,-10429
-4,-34,46,6184,2077,-3333
-23,-5,-63,-12975,7649,6406
55,85,56,-3461,-5006,7027
82,-6,12,18498,-16504,10650
1,60,-89,-591,-5741,-14556
63,5,-26,1812,4322,-8693
24,-72,-43,1744,-1069,-6830
0,-93,55,5760,-3760,5493
77,56,-30,-8674,2360,10493
37,-12,-32,-1950,-791,12042
72,-114,-65,-6315,3325,-2722
-44,86,105,2254,-4596,-3631
85,-93,90,2540,3323,-6952
102,45,-116,657,723,-10166
77,65,-74,1101,1095,-12231
37,97,90,-110,6085,-13483
93,-86,-105,2769,-1108,-12571
-97,-72,-32,902,1685,-5249
-20,59,-44,4158,-980,-199
-25,-97,-118,2885,2781,2244
79,89,76,-2216,1049,9463
85,-85,-108,-6166,5757,12226
55,52,-15,4120,201,6597
65,63,-36,-4765,9055,-5271
-56,28,88,6773,-13615,1870
80,71,-31,-2267,-2417,-746
-63,55,69,-3316,-1561,346
89,23,13,-39,1243,1657
53,112,113,716,-240,4852
-15,21,-29,-1830,1358,3841
6,99,28,-250,529,3540
-7,17,32,989,254,2423
20,41,-59,3196,-1199,2858
-5,-55,-104,746,126,1960
-106,87,124,162,-459,1514
-82,-63,-119,2420,-1475,1701
-66,-110,-66,-3169,2526,-1628
75,33,65,-1967,568,-2018
21,-75,97,1953,-633,-2280
22,-121,-123,3501,-128,-1923
45,-96,-115,1527,368,-1392
56,-85,-122,-169,839,-1363
58,-112,95,-308,624,-1143
68,-127,88,518,601,-1071
78,123,79,776,334,-802
89,-103,76,233,304,-660
100,-84,79,84,486,-604
101,-73,65,162,227,-385
123,-52,71,36,221,-319
-107,-17,86,-303,297,-430
-84,9,97,-80,604,-848
-72,-10,104,440,589,-1032
-95,-9,93,685,288,-1152
-109,-40,84,1001,202,-1010
-105,-7,92,161,406,-1048
-90,-29,79,178,448,-1137
-110,-30,75,142,336,-897
-87,-10,98,-43,580,-806
-77,-6,82,428,655,-787
-51,-16,75,678,497,-781
-24,-19,62,825,199,-893
-30,-17,65,815,165,-1113
-47,-27,77,410,236,-1144
-69,-32,70,366,392,-1100
-100,-32,54,310,114,-917
-94,-33,76,266,85,-687
-49,-24,93,357,415,-593
-45,-9,83,399,149,-629
-22,-7,99,813,505,-832
-23,-1,81,502,285,-738
-40,-6,75,518,313,-940
-38,-21,82,578,356,-890
-49,-18,85,563,600,-1021
-52,-32,86,524,306,-910
-15,-69,87,680,311,-656
10,-55,90,424,367,-635
-9,43,-3,3992,-1765,-2274
36,18,75,1065,109,-963
5,-18,-5,485,149,-1288
-12,-3,6,-347,894,-856
-2,68,71,-1176,1421,-759
28,46,39,510,1578,-1116
54,23,79,1950,1145,-632
35,41,126,-512,-179,6
21,43,61,-434,-264,-803
32,-22,65,384,569,-517
18,12,48,654,306,-479
12,54,40,186,149,-832
3,64,68,-646,-73,-981
23,32,88,-371,308,-847
36,24,87,355,520,-785
37,25,62,1323,1100,-997
37,2,96,846,958,-1480
30,-2,47,362,-175,-592
21,14,77,362,293,-937
30,28,65,483,127,-1216
77,15,56,405,118,-1512
37,19,-44,922,-306,-1388
0,110,74,1530,-612,-1673
-116,37,121,108,322,-2509
-24,-12,-7,-4933,3682,-4854
48,35,69,5790,935,-12417
-10,29,123,2743,751,-14868
-30,62,66,6069,12961,-13390
78,96,-122,-12142,-1299,13223
23,97,-121,-3509,-1438,12426
-105,69,-43,8283,-4052,11796
52,-9,-20,-176,-993,-17352
19,78,46,2419,2950,-11634
-48,-96,18,5303,-2925,-12832
-117,30,-119,-392,4328,11650
53,17,7,-6671,2458,15461
-47,-114,-62,6442,1702,-1138
-17,93,-37,2830,-11054,-12927
-94,-55,107,3287,-4979,-12645
-6,51,41,-2862,-2103,-16914
57,40,52,7390,315,-10021
70,50,32,-2238,1876,-4218
-91,107,5,-413,788,1649
48,23,-56,5809,45,15850
64,-45,-63,3940,4857,8860
-110,36,46,-22606,18335,1078
104,-127,-18,13533,-16772,-3375
77,108,43,4236,-4625,646
41,45,20,-7972,2631,296
108,83,-127,1268,751,737
48,99,77,228,-93,3709
-66,90,-94,1272,2501,5276
64,-92,54,2543,3064,5674
-28,-40,-17,-657,630,3203
-111,-106,75,-2423,1987,1455
-14,82,111,-795,361,907
-46,-12,-81,560,-1314,2216
10,-10,-20,-535,-54,2295
3,-37,-82,776,311,1692
-10,50,-83,376,-30,408
-82,99,-84,-48,-207,-1257
90,-15,-58,1556,-684,-2310
50,-92,-66,1772,440,-1641
31,-118,-118,1571,493,-1364
30,-111,113,460,535,-1079
85,-87,106,-743,596,-1165
-122,-97,84,-714,1086,-1337
125,-116,58,351,751,-1337
109,120,31,2018,-114,-1497
102,121,72,1756,-780,-1136
104,-116,127,663,-147,-1209
-119,116,-124,497,955,-1311
100,72,65,807,113,-773
-127,48,92,669,-24,-132
76,-35,102,-1069,-171,444
-92,9,-101,-1544,937,-673
-49,-61,110,1298,779,-885
-95,-33,41,1269,-64,-1086
-110,9,90,-856,286,-1080
-90,-34,93,-157,1089,-1460
-87,-84,0,2772,429,-4695
32,121,50,-226,1364,-10205
-85,59,-76,1771,-712,-11957
-57,-128,103,-51,4903,-12868
95,93,5,6699,3492,-4168
-80,56,-114,-3904,1278,11045
-108,-106,55,-4877,1277,9363
-80,15,-35,13057,-7105,15167
111,-39,-3,-20593,28108,-5688
-24,-14,-109,4201,-4323,-12434
106,-89,94,3195,-7353,-13484
106,-50,-24,4599,5382,-4783
-44,-124,89,-6173,4040,12815
115,119,72,-6237,696,9941
-5,-64,109,8552,-6796,1487
-76,-27,6,2509,-5152,-13432
-58,3,42,2939,-2646,-13818
65,-72,85,-1390,2891,-15097
5,84,-106,4251,1550,-8454
-116,28,67,1197,1140,-3329
-50,-116,-78,-307,-495,6195
102,70,21,1425,786,14980
74,-104,-43,-957,1802,11907
-27,-26,-35,-6385,9469,2077
47,-41,-9,-1043,2528,-9294
71,-54,44,10743,-11525,1585
-111,-89,-94,-4030,-32,847
40,-82,-35,-3008,1358,-169
22,77,14,1786,-2836,5620
54,0,82,3310,861,6749
-6,-67,39,2384,5520,5707
-92,85,-69,2018,630,3470
9,94,-87,-6342,2640,1471
35,-122,114,-3456,-1432,-292
-128,-61,-54,7800,-1045,-1235
-52,-12,36,6398,-688,2764
32,115,105,-406,-614,-1374
99,-40,-87,-1576,1136,-5000
91,11,94,1344,1220,-2982
46,-37,79,1741,-20,-205
-56,86,-85,5035,2794,-11033
79,-80,-95,-5479,-6417,-10637
-99,6,-20,5399,3518,-13691
49,85,-82,6916,6364,-12511
-13,-20,104,-10808,9194,8738
0,-42,100,-8363,-3963,12252
116,40,78,12225,-15683,9515
-121,87,-108,-3839,5794,-12765
85,-73,37,5662,3758,-9755
-79,35,-25,2431,-1278,-8281
74,30,16,8629,-3359,7229
124,-117,-111,-8840,8665,10889
-64,-100,10,1326,1760,8527
37,-68,100,-8643,10003,-5052
-120,74,-95,3748,-6910,-10704
99,-39,-72,911,-3503,-11856
17,-42,30,-422,199,-13631
-100,103,78,5690,-3004,-6813
-50,55,-27,-1539,469,-4254
-57,106,-69,2050,555,553
-112,17,101,297,2321,9624
18,5,-74,-1723,4817,11048
-7,-108,120,1864,3282,4731
88,35,-11,-8653,3042,-1897
-28,-29,12,5324,-4718,-830
100,43,68,2130,-5904,-567
122,56,81,-4308,2996,317
-99,-30,29,2848,-1508,3358
112,-119,78,2450,1215,4105
-124,-103,-55,-3282,2230,4358
-105,51,-32,942,4425,1200
103,-27,41,5666,-4007,1500
-76,-2,-80,-2983,3701,1433
8,67,64,-1690,1041,1909
-124,-20,107,127,709,3030
6,126,-121,-943,1111,1316
-17,57,-76,-550,-1031,1163
-27,69,-113,1366,-118,507
-109,53,-92,4500,-738,-1280
120,19,-92,2349,-237,-1601
84,46,83,-583,6934,-6578
-89,-100,43,9625,-4757,-10948
-80,-6,-89,-3085,1032,-15356
-49,-59,-30,4114,437,-12870
-25,-17,38,11007,-1450,-3800
-90,-2,-99,-13362,6501,12673
82,-23,14,-2555,484,12181
18,-67,15,11872,-6833,1421
62,47,-90,8474,-17119,-10529
-122,11,37,-3452,7421,-10351
-108,101,-111,1019,-5937,-8594
-50,-49,-98,9512,-2585,8166
52,54,-115,-6370,9580,7651
-127,14,-35,2028,800,9250
91,-100,39,-2415,392,-5881
37,-74,68,-5518,-842,-8840
-49,-50,-61,643,-2909,-13628
-89,68,103,-1370,1513,-12949
-80,79,13,2449,-695,-7577
-60,25,-76,-1041,-817,-731
-51,97,68,999,1739,6452
-22,43,111,5755,1011,12099
83,103,87,2314,4716,8212
96,-128,-10,-11424,9208,1101
117,-101,-50,-2230,-366,-3421
-5,90,76,6888,-6425,-897
-43,37,101,-163,-3449,-2325
-51,123,126,-1627,-1796,-258
-14,-85,-3,612,679,5247
-33,-23,20,2988,4021,6371
-104,89,93,3902,1485,4805
24,29,1,-5074,5547,2449
-15,-102,-127,5198,-2623,5188
96,59,108,-299,460,1518
-58,-13,70,-578,341,867
65,8,-77,-3254,-748,2348
15,58,-10,10230,-1923,-1216
-77,-87,-11,-1262,722,-2599
79,-121,112,-2785,1475,-1604
26,89,110,-1628,1018,-1771
-46,97,53,1001,990,-6123
-26,89,-48,3793,-1430,-10835
-62,-34,5,-348,-680,-14836
110,-114,77,-1732,8165,-8948
-61,-116,25,9723,-13285,5471
58,110,17,-11453,11149,8475
-26,121,80,4017,-4422,12116
-68,-111,2,-16039,22851,-5741
-21,-48,-43,5435,-2474,-13757
1,87,-55,2216,-1062,-7137
23,-73,-73,5645,-1979,567
-1,40,119,-5533,3987,10793
7,82,122,-3507,2844,6122
98,-95,74,-4136,5832,-6092
22,105,88,10229,-13269,-9764
-49,-53,-60,3221,-5739,-12888
-96,10,75,-2011,2738,-14559
74,9,40,2935,-2281,-6995
56,102,-53,345,616,-1302
1,98,71,-2216,3395,5570
127,14,122,2189,-961,19183
28,17,-92,3305,7566,867
-41,-35,40,-18992,12810,-4778
-35,24,-10,13690,-16121,1106
44,31,-83,5146,-4851,1394
-94,-54,20,-8554,3136,-1516
-16,106,82,-173,1440,2748
-58,-13,95,3290,-825,5380
0,-5,-94,1311,2182,5942
49,23,111,1145,3835,5040
85,-44,6,-1934,1969,2098
-60,110,-22,6746,-2760,3021
-6,-72,13,-3482,2362,1795
-54,11,-124,-1980,-606,1648
110,82,4,1081,-826,2503
108,82,-13,-1198,1328,1019
-75,-77,-98,-969,1142,-1852
112,-18,126,2568,-262,-2384
77,-106,-114,3705,-769,-2032
92,112,-103,2724,-254,-1715
-89,-120,80,-5562,1892,-1229
37,-92,60,4418,1281,-1433
-54,-20,19,1248,-57,-966
-37,44,89,46,1657,-1428
-1,5,-25,-1954,728,-166
-37,83,27,-655,447,-861
-9,40,114,269,1594,-724
19,82,69,547,921,-1040
38,16,83,1318,688,-879
-25,121,44,4491,-2626,444
-12,64,-127,549,-658,-233
-28,-81,120,2474,1488,-598
-43,-121,111,711,666,-1300
-67,96,64,1126,-801,-686
-41,117,121,527,-92,-627
-71,-122,94,1074,-370,-1293
-65,-122,33,396,-357,-789
27,-89,96,948,1123,-1713
29,-29,40,-167,998,-2513
75,-89,76,386,1088,-2328
4,-41,93,855,-1015,-2050
26,38,90,437,-1194,-1807
-96,126,95,517,574,-5013
37,-63,-78,-688,-1494,-9099
46,38,51,2876,-6640,-11033
40,25,81,-1621,-1957,-10642
32,22,-11,2094,2061,-1981
106,-92,-99,-2080,3536,7498
-27,-76,14,-5192,4161,8781
-48,-78,-108,6107,-7843,6616
-108,-110,93,-4801,4500,-8089
33,-69,44,4753,2148,-11336
-53,-26,115,7078,-6975,-5263
-27,-117,-114,-3369,4976,7582
-62,13,-38,-5571,4760,7771
75,-90,100,3302,-5971,4087
-88,34,59,-3116,4039,-5597
-83,72,-44,2698,-1728,-9990
9,-54,10,-458,1113,-12601
-87,-17,69,1698,1568,-12452
50,-84,-120,368,636,-9335
99,-108,38,2707,1052,-4102
-23,98,38,1494,1353,4916
86,102,97,2699,-1871,9759
26,-97,126,-3676,4748,10516
54,118,64,1153,4770,5650
-104,-67,-101,-13933,7853,-2599
-104,-75,-37,7466,-3746,-3447
-124,-125,69,3318,-8668,-294
105,-44,-111,-773,-5740,2519
66,-120,6,-3126,-366,3216
-101,48,1,1141,409,4403
-43,-109,-54,4317,735,5827
-46,-46,116,-1817,253,3936
87,65,-10,-1495,2459,1394
-117,4,-13,1796,-1022,2379
-8,109,103,3578,-1547,1439
-33,75,-127,6327,-2370,634
29,-101,49,1856,-600,-596
-97,90,-120,-2480,1465,-2524
94,-26,118,-2273,1281,-3109
92,125,121,-1226,1358,-2465
75,93,91,1477,750,-1125
30,96,62,2934,-105,-1136
41,81,76,2528,-505,-836
90,96,113,838,214,-473
97,126,110,-313,661,-749
93,-109,104,-937,532,-627
126,-95,-121,-748,543,-446
-115,-94,110,415,577,-466
-124,-65,110,749,-20,-521
-128,-33,121,395,64,-580
-121,-23,-126,497,407,-850
-91,-38,109,430,763,-863
-69,-37,90,-20,572,-1066
-84,-29,68,-80,355,-1141
-76,-30,78,92,436,-1186
-96,-9,70,90,349,-1279
-74,-39,76,570,424,-1302
-74,-29,76,132,161,-1043
-31,-107,38,-8032,2608,-2286
23,30,122,2495,6435,-5420
-13,102,-75,17055,1325,-13056
29,85,81,6645,-1349,-17324
-117,68,-41,7999,2892,-10368
113,-54,-60,-7324,1350,15649
-94,14,-24,-4611,3648,9440
83,-31,80,-2884,-371,11107
-18,-39,89,-6057,16324,-2911
-10,16,-91,16375,-26047,-11389
23,-4,1,-3639,7497,-11679
-50,24,-22,3883,-4123,-10154
-117,106,95,14930,-12869,2799
45,-37,-41,-7325,16875,10668
116,74,5,-9882,10718,15006
61,47,115,1669,-8388,-6297
56,-4,-66,-105,-4323,-10957
-78,-46,-88,1390,-3862,-14307
-76,-44,59,-330,1217,-15399
42,-20,85,3470,-107,-10500
-119,6,46,1504,-4059,-5281
103,11,-85,1652,3996,5850
9,93,86,-2392,2828,13050
-36,10,-104,5080,2511,12331
106,-96,-78,22004,32229,1336
86,115,-10,26773,-16802,-1767
83,-38,80,5743,-13719,1566
93,107,-83,-7336,1110,810
19,-27,-70,-2070,-994,1034
-56,-37,43,2384,554,5994
-35,-46,116,3097,3716,7326
64,-115,78,-401,5807,5567
-95,-59,-16,-1114,1254,5591
17,51,-87,-2816,-2217,783
10,2,-12,18073,-8000,3827
-7,-5,54,-2776,351,-3629
-70,-6,-84,-5366,2162,-2378
92,-97,78,-4587,3576,-3350
-113,-117,0,-1613,3067,-2127
126,3,-42,4232,130,172
-117,97,99,4980,4869,-9129
59,-120,117,6781,-1929,-10088
-7,-90,-59,895,2697,-15084
59,13,43,3667,-1158,-9817
-106,-28,-77,8460,-6806,1009
-70,4,-82,-5753,8165,10956
-35,-78,127,-4530,4496,9078
121,109,80,16446,-4624,1869
20,54,-9,4931,-9531,-10805
90,100,47,687,2789,-9921
-62,38,-36,3717,-4759,-8294
107,-100,-127,8713,-4681,-2579
18,-72,-27,-4936,7846,15896
125,-1,51,-6320,5272,8091
-21,-121,21,-4524,7879,-7763
118,-3,-11,7462,-13832,-11694
-40,-35,121,4955,-6318,-12784
75,106,-97,-3394,1341,-16056
30,101,-108,4790,-484,-6426
-4,-16,-100,1427,-2280,-3040
-47,65,-41,239,4181,3522
-1,8,-24,1639,996,14440
27,-115,27,6015,6039,9467
75,-71,-79,-4540,11594,4565
112,-120,-9,-11975,5648,-3349
-85,68,-104,5229,-6886,-3136
101,124,-106,1983,-6203,1585
44,7,-80,-3550,1282,1755
-28,-117,123,111,154,4379
-123,-125,-42,-508,1389,6606
-33,64,-65,-862,1220,4899
-30,86,32,1049,-397,3420
106,-7,80,-1673,-447,1996
-115,68,-113,1853,-685,669
-40,-106,98,2784,-773,1104
-83,90,-59,863,-160,871
120,-72,105,7035,-3417,498
-83,26,-67,2995,-926,-410
124,35,17,-2590,2580,-2569
88,-111,-82,-2465,2416,-2633
69,97,32,1082,2169,-6728
18,7,55,3401,587,-13392
-57,34,-82,7445,-4503,-14061
-49,-126,84,-1895,3227,-12025
123,-4,50,5061,-2186,3718
1,33,44,-6862,6437,8610
14,-56,45,-2508,-1027,9781
-58,69,121,7537,-2030,10385
88,80,64,-15742,12223,-8005
-105,32,-114,5205,-2968,-11703
105,-20,6,3739,-6608,-10845
46,28,66,7423,1412,327
-33,119,-65,-8834,6613,15349
-118,-70,81,97,1994,13666
104,118,79,-5943,6167,-7987
96,53,-65,3580,-6262,-12487
100,-65,-25,-289,-5241,-14834
-4,8,4,-805,2216,-14340
104,-7,81,4797,1583,-6817
105,-14,-29,-2149,1850,2782
8,45,-97,-739,270,9866
-10,83,60,3987,714,13538
-78,48,-98,-1493,7934,3696
-69,-11,-72,-21319,9753,498
-91,56,126,9534,-4634,-3257
96,-128,50,5272,-8782,-907
100,-103,-81,-5926,-2482,2330
74,78,19,-1654,-856,4018
-67,-6,-75,2724,964,6991
-83,-40,52,-313,1697,7706
-98,111,41,-3887,1247,1048
-77,77,-100,2475,-3193,982
89,-75,-30,10987,-3001,227
-74,-72,83,11942,-4665,434
-34,-99,-17,-2787,5302,-963
88,25,98,-6927,4936,-3250
-119,-42,-69,-4376,2624,-3644
124,27,-52,971,233,-542
80,63,17,4494,-2056,703
87,-24,-112,2065,-2041,-282
-16,117,-22,2538,-41,-4792
-48,-125,50,2395,889,-10250
-55,-38,-55,2823,-1820,-11037
-109,-14,-87,2105,1972,-14556
-89,115,94,238,1385,-9522
-18,-18,-95,7135,-3167,-1295
-65,121,119,-9416,7220,12148
-115,-14,85,-5109,-1459,9118
44,55,-57,101,-3868,13460
13,-98,84,-14499,11297,-5086
0,36,-38,15785,-12427,-9240
-52,82,121,-3380,6980,-10637
-34,-46,-104,2417,-408,-10257
-19,-59,-61,9988,-236,-2799
94,-87,-120,-10609,7082,13091
-110,-63,-69,-6096,835,11392
-15,103,-23,12119,-11680,6547
44,125,-68,-15520,12644,-10463
-26,112,114,7698,-6542,-11152
-64,20,21,-2913,2519,-12110
-14,8,-104,-191,2148,-12217
-111,-83,73,5426,-2480,-8635
-58,-102,-94,-1762,2177,-3370
-32,-84,-21,12152,-4699,2114
21,-108,92,-4073,5717,803
78,-95,14,-936,1494,9535
-49,-90,66,1541,8066,8150
-29,-11,-95,1770,4165,1209
-102,44,-45,1397,-3721,-3496
-80,-95,40,2514,-9435,3885
-17,-45,26,-5837,948,-1938
110,105,-44,-6045,1853,-617
81,46,56,2026,-3090,6274
124,-105,121,4770,6332,4864
58,51,-72,5560,-79,6576
-81,-54,93,-3310,8673,4078
0,110,-1,-1792,-2179,2091
-116,41,-104,-1776,-466,1732
69,114,-65,13604,-3832,3630
-110,50,-79,1542,1969,-609
94,55,99,-4080,4171,-4232
11,88,72,-3687,1312,-4191
97,87,42,-3276,1956,-3128
77,79,-2,-662,961,-1155
53,88,18,2460,-251,-733
80,-122,60,2190,-564,-925
110,-103,88,966,-218,-851
102,-84,89,-436,261,-1297
101,-82,88,-1241,404,-1309
95,-65,82,-1599,437,-975
102,1,111,-1994,34,-875
64,-17,37,2701,-2547,-527
-124,-18,120,4654,1626,-139
97,-45,39,2437,42,-1178
-127,-47,99,-705,1258,-1021
-108,-88,46,-793,1394,-607
-108,-77,23,-192,617,-384
-98,-65,34,602,235,-388
-84,-55,42,1019,196,-519
-89,-34,52,397,139,-659
-91,-36,51,217,337,-697
-82,-42,70,83,261,-666
-67,-15,75,-176,411,-666
-57,5,86,2,310,-1014
-60,-19,84,820,277,-1240
-75,-34,70,840,205,-1267
-89,-19,99,-205,302,-1112
-88,-23,104,-181,695,-1079
-76,-35,87,375,486,-977
-65,-34,69,719,182,-894
-60,-33,78,872,303,-986
-64,-48,55,1015,201,-817
-57,-39,60,545,185,-816
-51,-44,54,434,273,-720
-44,-36,66,428,225,-723
-46,-26,67,602,298,-826
-47,-30,69,627,259,-883
-42,-35,69,493,331,-785
-44,-24,62,394,359,-888
-40,-29,62,398,388,-952
-77,-55,-48,-2042,3251,-5890
40,22,24,6776,939,-10598
-122,35,118,1974,706,-11627
-64,75,-76,1956,2127,-11773
112,-64,126,6082,994,-2520
33,-28,66,-5465,2482,4675
99,-14,91,-5260,1036,8069
-11,-13,126,5958,-6524,12972
100,-100,82,-17439,16661,-6374
14,-80,-116,7429,-2448,-10995
18,-2,-81,1239,-1842,-7518
-2,58,-97,3604,3172,-6889
-127,-94,112,-3639,1430,10542
-44,-32,-90,-6346,-395,11736
-74,88,-67,2225,-731,7582
-124,81,123,-4477,3846,-7526
56,87,65,5481,-3133,-7488
56,-6,-38,866,-1318,-11970
29,-44,-125,379,-282,-14193
2,54,57,3834,2859,-13953
-97,-92,-64,4417,-5941,-8403
-81,-6,-60,-2975,3363,-3343
-66,-104,86,4861,-1550,1786
-100,51,95,93,2147,7599
74,-29,76,1902,-675,12641
77,86,-100,2429,6825,8954
48,-27,-10,-6678,7193,-873
43,-69,50,2131,-4621,-4966
32,-126,-20,2511,-2677,-7
20,-58,15,-1744,-1757,-2914
-124,89,6,-1248,741,-1430
-25,-74,61,-660,-413,3394
-43,-22,123,-112,1345,4031
101,83,-114,4591,-3252,5336
-95,33,47,-3651,4040,1697
-116,19,111,3805,-2257,1735
22,26,-34,-753,1506,1440
-98,24,114,-397,1424,2120
83,-70,61,-593,-1654,3524
24,-105,-111,309,-1776,4329
-81,-119,2,-4914,2916,-543
113,126,-90,7402,-1597,-4226
49,-60,-78,3765,-31,-3536
10,104,-86,887,265,-339
-46,125,113,233,887,-103
38,-87,92,-41,1371,-152
-114,-71,-128,-703,1194,-273
-125,-43,79,56,779,-1127
98,-96,70,1497,-7,-1739
106,109,114,1483,-260,-1055
101,-118,118,757,314,-610
89,-71,109,-176,548,-937
108,-88,102,28,552,-869
-115,-105,97,423,329,-702
-119,-72,116,151,29,-626
-99,-40,-121,7,293,-796
-100,-26,-124,110,464,-1048
-114,-21,115,245,513,-1292
-115,-58,95,841,315,-1139
-115,-67,89,770,102,-822
-99,-45,84,513,241,-888
-82,-50,97,435,248,-922
-80,-55,81,631,374,-1096
-58,-125,65,1338,-37,-703
-87,-69,72,238,-280,-334
-100,14,126,-651,328,-936
-71,-39,121,477,898,-1020
-67,-81,61,1335,410,-877
-60,-68,56,853,-100,-770
-51,-45,61,255,509,-1058
-76,-61,56,101,201,-969
-75,-61,85,94,267,-731
-61,-40,84,499,563,-953
-63,-63,62,770,153,-707
-51,-29,77,317,286,-795
-30,-35,78,394,536,-1044
-45,-53,65,548,208,-947
-64,-40,77,401,308,-1028
-55,-62,82,435,437,-834
-37,-62,73,368,373,-522
-49,-63,44,2591,-840,-6626
15,22,-112,509,2388,-10019
91,-4,59,2592,976,-13823
-13,109,46,8618,-2061,-3942
46,127,-36,-5628,3772,8471
-75,-49,27,-3038,1572,9397
22,-99,5,6769,-7455,11228
117,23,89,-5882,6218,-7419
-17,-26,-90,-623,3456,-10532
57,68,21,3849,-813,-7113
-20,45,-112,8227,817,-4472
-89,-99,-4,-7488,2161,11029
66,-90,-82,-5377,1558,10366
-57,59,122,7428,-2136,2862
63,-37,50,2442,-4953,-9720
-92,-42,-95,144,892,-12497
-113,-59,-117,603,45,-15664
-62,58,-122,5595,-3319,-11912
46,-8,96,-2797,1849,-8069
12,-28,61,2600,-86,-1988
-33,87,-118,8740,-4798,1736
-33,-73,91,268,7197,3481
-48,-81,31,3919,952,9389
34,95,-102,1532,7145,6474
58,17,-77,-10359,5934,374
92,-66,114,2757,-2404,141
8,101,-64,4161,-2882,3096
89,85,31,-4480,795,-520
52,31,-101,-1694,1002,2502
87,-124,-96,2804,1773,4538
-59,-22,17,1476,3321,4177
-98,-69,-123,-2407,2072,3251
-69,-41,-124,2028,-46,2716
25,-72,-106,-432,682,1685
103,-33,44,806,-707,1305
93,8,103,1483,-1511,1401
-47,-21,-77,219,491,1057
124,57,105,-415,1234,-9
84,76,84,-686,676,-1304
69,1,118,100,125,-2139
92,-39,-25,-4372,3687,-2537
50,-126,-45,6254,2365,-8229
-28,40,-59,3023,333,-11398
15,-108,0,6317,135,-11157
-24,-73,-20,5996,170,-7211
104,-57,41,53,2169,3450
116,-110,-67,-4780,5329,10632
-27,6,125,-2524,1968,10382
123,114,77,-5968,10357,-7605
-7,-97,99,3622,-14641,-8696
-127,-110,42,-1471,3455,-8136
40,32,59,3693,-4439,-8193
-13,112,-83,1558,6448,7846
-122,-122,-99,-6108,6186,11594
-99,-37,65,-2264,-388,12013
-51,6,75,4087,4034,-5643
-114,-11,-44,5075,-8833,-10778
-53,-49,40,719,-4954,-17711
13,55,9,-201,1814,-17212
7,-41,10,6066,-1629,-9075
-104,-111,99,1999,962,-4605
83,73,-79,3489,-2522,2169
-82,34,94,1641,2532,9203
61,119,64,6220,2801,12544
-110,0,-5,785,8098,2150
-91,76,24,-13786,10068,-1432
44,-31,-38,8528,-8610,-455
62,-16,-57,3030,-5733,3055
-125,23,-33,-7018,2693,-748
-38,-78,111,-223,1164,3904
89,-34,127,236,2721,5473
117,63,71,-2201,3259,5005
-21,-44,-61,3747,-1696,3425
55,-89,-78,-919,899,3830
55,-4,-7,5577,-633,2738
-94,-128,61,2288,-1403,1165
-33,-90,-50,-3080,2787,709
-37,19,76,-1259,1791,1399
-23,-114,70,-1648,284,277
124,66,80,2969,-1655,-2328
-13,-121,-115,3445,449,-9462
0,-68,6,186,991,-12516
-30,-8,-20,2696,3031,-11777
-8,66,123,5036,-478,-6752
77,8,-20,3007,-3299,5491
105,-53,93,-5570,7032,8928
54,48,119,-397,584,10862
123,-122,48,6465,-1111,1164
62,110,-53,-6556,4723,-8755
-70,-18,24,-2092,4831,-11186
39,30,49,4126,-3821,-9741
65,-37,-75,8263,386,-352
-50,-84,-55,-7161,6226,12905
105,-42,91,-3802,3028,10548
-85,-12,-57,119,-3984,9691
113,-49,6,3690,1907,3584
77,-5,29,5920,-11976,-10602
-24,-86,114,-4807,1843,-10280
-39,124,-42,-2820,-1822,-14259
-48,-51,-128,345,1251,-15670
13,100,-17,1913,350,-14924
0,25,60,3073,-347,-6832
-42,58,-24,4204,-1138,-1525
20,68,67,61,3554,6343
-33,-84,118,2216,3575,11468
-111,38,105,2891,2737,8420
126,73,115,-2689,7778,2798
69,113,19,-5856,6761,275
-60,-5,-37,3751,-3448,-206
-71,106,-126,-2308,-4072,1564
-113,-23,82,-3989,-434,879
-66,87,-93,115,2906,6062
68,108,14,-55,1039,5439
56,-70,-49,-2846,1696,4663
106,94,-127,1679,-963,3622
-18,78,99,-2538,2087,-723
-33,-22,-48,914,271,739
-86,-1,-84,2513,-1494,2332
-31,-57,122,10415,-4646,2209
44,-82,105,2944,-607,159
-109,-99,-37,-4940,3388,-3166
-121,-8,108,-4854,2825,-3508
111,-102,7,-389,1114,-1734
63,99,61,2642,-396,-205
100,-77,105,2611,-509,-937
-123,-71,-111,846,247,-1325
-114,-98,-111,92,694,-1350
106,-118,-113,174,232,-1153
102,112,125,1194,226,-632
107,-115,-123,805,343,-628
-124,-92,-124,-46,500,-559
-103,-87,-124,-82,623,-501
-96,-67,115,234,377,-488
-89,-58,118,549,332,-588
-77,-48,114,484,349,-724
-65,-51,111,439,367,-862
-70,-54,115,372,183,-884
-78,-58,118,675,328,-875
-75,-53,118,509,322,-984
-74,-65,113,536,233,-986
-78,-70,114,573,270,-937
-72,-63,124,262,324,-964
-67,-69,125,429,343,-912
-70,-69,126,630,310,-909
-59,-65,123,518,383,-900
-59,-67,119,479,370,-891
-57,-70,113,449,372,-793
-49,-53,113,356,420,-833
-44,-56,108,492,408,-819
-35,-51,100,399,348,-823
-36,-43,97,369,307,-889
-34,-41,106,385,319,-909
-34,-38,108,396,308,-960
-32,-45,111,499,296,-936
-29,-40,112,390,335,-967
-33,-41,111,467,320,-951
-26,-39,113,424,394,-959
-21,-37,106,330,360,-946
-19,-33,107,376,389,-987
-21,-37,105,450,387,-939
-61,-109,39,3892,-79,-7042
103,23,-104,2283,-1741,-7666
-100,23,39,-868,559,-10656
-63,121,56,1055,284,-10321
-9,65,-13,5848,-2999,-8478
-101,84,-34,4153,-1042,2968
-72,51,-92,-3611,8032,6243
-113,-51,-74,-1634,5969,8309
-46,37,19,-2219,1679,11684
43,-106,-63,1316,3214,-4905
108,-25,71,4483,-14772,-8833
32,-53,-92,-3316,7410,-7838
-88,83,86,8819,-4508,-11079
11,-44,118,5089,1245,-10099
5,125,-35,-5893,5894,10841
18,-25,33,-6249,3408,10278
116,72,-108,-2973,110,11391
-3,29,-117,1173,-5366,-3642
1,51,-102,8422,-7802,-8918
19,-104,2,-8110,6401,-10816
-6,65,-51,757,2234,-14221
-89,-58,105,2909,1855,-13706
33,18,50,894,1437,-9985
17,-121,97,2525,-365,-3118
-57,-110,-4,3914,-759,1132
-26,-117,0,3617,830,4080
79,54,111,2740,1204,8479
72,54,17,-740,9141,9376
40,48,38,-5147,3167,6812
-76,-73,-66,-6562,9886,-6026
54,49,-27,11395,-9181,2084
82,34,-49,-566,-3296,831
-63,-19,50,-2252,1382,557
-1,21,-102,-66,1487,4851
107,-77,-67,1569,1228,6458
85,63,13,-1579,1593,4105
-110,6,111,337,458,2700
11,-65,-80,-1090,3,2399
113,103,-116,-1831,845,815
97,-116,62,-1256,-566,740
125,115,124,6507,-2905,-1900
-82,-82,-95,120,932,-1736
117,49,-78,-1645,2869,-2242
51,-71,81,507,1819,-1563
32,-95,25,666,-513,-942
43,-52,44,1308,266,-1870
80,-96,73,1240,677,-1268
114,-72,108,1064,1579,-1637
-107,-82,-124,680,1613,-1172
-48,5,119,-28,1179,-1828
-66,-66,115,1663,-348,-1210
-62,-84,-98,2155,640,-432
-41,-48,-68,792,876,-320
-80,-108,116,1891,55,-742
-39,-53,-44,512,632,-1209
-98,109,-108,2157,-1327,-653
-59,-87,-57,764,-99,-591
-81,124,-80,1551,-345,-675
-95,-124,-89,1040,-406,-576
-91,116,-92,-109,966,-506
-85,-113,-100,-399,591,-574
-75,-122,-113,797,179,-654
-64,-91,-103,530,300,-735
-77,-107,-120,358,229,-626
-77,-103,-112,384,464,-992
-73,-118,119,331,313,-706
-63,-118,124,350,382,-790
-65,-101,109,212,315,-912
-66,-116,120,525,304,-801
-57,-98,113,471,386,-972
-60,-110,106,481,221,-887
-55,-103,113,334,368,-833
-59,-92,101,434,276,-950
-56,-92,103,279,256,-812
-47,-83,105,443,374,-954
-52,-85,93,291,226,-714
-42,-77,94,391,426,-924
-55,-83,83,7,108,-588
-33,-59,93,38,517,-834
-41,-61,85,259,359,-837
-39,-3,5,7330,-5445,-9487
53,78,-29,-2786,4925,-11026
-19,79,-28,549,4083,-13221
2,-118,-78,4135,1861,-11806
-101,73,-9,9518,-6490,6204
-13,-8,-67,-10465,9347,10782
-38,-118,-42,-2966,-1049,12232
-46,-10,87,21606,-10545,-887
-71,-78,-82,-10701,6014,-10046
41,-8,92,1103,3874,-10648
110,-106,63,5188,-3414,-12571
-18,10,62,2997,11538,-12946
16,80,-75,-2502,-1040,10870
112,-73,67,-7551,2253,9249
85,51,-93,-2253,90,11397
-76,-64,-45,16179,-7047,10762
-32,33,64,-10903,5003,-10965
-16,53,-125,4190,-5488,-9308
108,-111,-30,-4341,-4985,-14841
-1,-115,-113,-964,2010,-16842
53,-69,-71,1515,-2136,-15285
31,123,14,3161,230,-7954
41,-64,81,4433,-360,2712
44,100,127,883,3444,7662
-17,-46,54,159,4996,10387
94,103,109,1535,4639,8011
-79,-104,-119,-14304,7493,3382
66,70,49,-201,961,-1690
36,23,-101,7161,-6519,-1659
124,-124,86,-1634,-4859,1669
67,16,-4,-4213,3312,4244
-114,-56,0,-241,1174,6124
94,108,77,705,-460,5855
-43,40,108,-7,118,2518
62,-26,-113,680,862,2496
88,44,-26,74,-1410,-107
-16,9,-63,1133,662,159
-106,87,124,3779,-1509,1410
-58,44,37,6435,-3307,1064
-36,-119,-29,-758,2415,-1425
121,-59,-103,4363,-1078,-5174
25,65,-121,1217,1121,-11623
-50,-25,53,2010,2580,-14612
83,4,-30,2577,544,-13598
-83,25,-79,2461,3265,-3718
33,-12,13,5175,-3988,5618
125,40,-3,-7948,3665,9416
121,108,-111,-1140,1117,11134
-8,-71,-90,3616,-3481,-975
-50,110,-40,6296,-11055,-8399
119,12,-46,-2483,8096,-11191
37,75,-69,3027,-1141,-10706
-63,-51,-121,3195,2649,-5549
51,2,-109,-1490,975,7049
27,76,-85,-6833,2457,7494
122,-60,98,-1986,-3408,12677
7,-119,60,5501,939,7677
68,-12,33,-17476,10665,-3015
13,85,26,8269,-5923,-7091
56,-60,-71,-208,-1370,-10344
101,-113,66,562,1299,-13895
-41,-119,-80,2265,100,-13615
32,69,61,3820,-1616,-10622
33,50,-102,3223,-352,-3898
-88,52,44,1010,2757,1884
-87,25,61,772,1984,7395
114,97,8,-407,-671,11602
37,85,-70,-3081,9027,7300
-86,48,-72,-16554,2167,-2662
-22,6,-101,13218,-14114,559
127,125,-89,3701,401,2094
-29,-44,76,-2810,-565,519
-34,124,-12,-1080,1724,3193
-103,32,-106,2083,2302,5801
-89,-86,-5,2066,2341,4895
-119,-115,-31,-3699,2870,3652
-85,-83,-54,958,553,2993
15,82,111,358,559,2784
40,-79,-28,1357,383,766
19,86,-76,611,638,725
-66,18,-83,4587,-160,-8971
-34,-31,-93,706,11,-13265
-37,46,13,2119,1351,-13662
-95,-44,-96,2264,779,-10287
-104,-50,95,8983,-3175,2056
59,4,-92,-7425,5867,13303
64,109,-52,-4526,4498,10718
5,22,-45,2835,2063,-4689
70,-79,-3,5607,-18529,-11238
18,120,-75,-792,4534,-8576
-10,-97,-30,-1086,675,-8538
-60,-83,91,3394,4427,-5202
-94,-24,-33,-3220,2019,9494
-4,-20,111,-3502,3292,9791
-128,43,-55,1186,1079,12970
19,-68,96,16702,-3738,5212
-10,-19,-91,-2056,-10638,-9479
116,-34,-77,3061,697,-7552
117,114,104,-2477,-6056,-12007
-23,-56,-96,-1624,1946,-15646
-4,-95,44,4185,-2488,-13853
-12,-39,38,1305,-1017,-8876
87,55,69,3706,-1226,-2408
-92,-106,-87,-100,3498,3735
-9,102,24,4424,-2327,7826
-38,66,-74,5656,3386,11385
-121,-94,53,-464,11786,7945
65,-10,-11,-13905,15862,-2404
119,35,44,6729,-15946,-2817
45,75,-48,-137,-2087,-805
3,-51,85,-3503,-437,-392
7,-114,-103,-2063,-406,1358
23,48,120,376,-1586,6560
-114,10,-127,1034,1055,7332
-115,-5,-81,689,3526,5373
-80,-100,-51,605,1944,4834
-113,45,-47,1454,-858,4724
-126,-64,49,-3586,-561,1909
-117,116,32,-1783,-2773,720
9,-52,16,3302,-1350,-745
24,119,-75,-1324,3513,-4729
-120,103,83,9202,-549,-10750
-119,114,-44,1465,-2022,-12171
-87,33,114,3004,3582,-14913
41,36,-82,5701,-2244,-11530
45,-47,115,-1521,1797,6343
-63,118,-126,-4651,5959,11205
-75,38,-71,-2282,1287,14089
-72,-29,-5,7062,8348,-4133
-3,-23,-35,4472,-19056,-11360
-45,-70,101,-1140,1973,-11110
41,91,-115,997,-1175,-7517
-1,109,89,2787,1651,3198
-121,82,43,-8147,6430,9095
84,45,-76,-1381,-192,11553
0,2,2,7407,-3547,8053
-90,87,-95,-2581,540,-1794
-36,-126,116,-5378,-3049,-11464
21,127,12,3520,-7609,-14681
-2,7,-61,-2574,120,-16998
-111,22,-15,4715,-2850,-12741
110,-33,89,-114,-123,-3525
-57,-104,-92,5611,608,-554
21,11,127,-545,1800,12697
-38,95,76,2248,5100,14836
89,-35,-27,3594,7123,4052
-103,-77,-56,-17420,13881,-2844
55,-85,15,11069,-13377,328
-52,-85,-75,3433,-8520,3201
-36,73,-77,-6604,1632,-1193
-31,17,-67,-2499,2191,2075
78,-84,-8,6493,998,5990
40,115,-32,-792,4473,4922
-5,55,114,377,1073,6230
-69,-49,-39,4403,-956,3826
66,-30,5,-15,296,1401
42,8,-50,-3147,1534,637
-41,-31,-122,5724,-5004,1344
70,90,-88,3509,124,-663
-99,75,-93,-2320,4104,-3814
-124,-110,72,-2039,1748,-4350
75,-1,35,-96,143,-2303
34,-18,66,2574,-1321,-310
72,99,-103,1145,-415,-619
107,-87,-67,-602,774,-1167
104,-116,-113,-418,923,-779
119,-107,118,260,297,-319
-123,-87,119,896,67,-306
-95,-56,-123,511,417,-486
-80,-32,117,-3,753,-778
-89,-52,97,494,196,-856
-91,-67,97,945,133,-716
-89,-47,119,583,245,-940
-97,-59,102,627,349,-952
-90,-67,99,431,352,-1084
-83,-84,101,370,343,-1011
-83,-85,107,250,433,-887
-87,-72,106,382,344,-809
-80,-64,107,616,297,-783
-70,-57,106,551,332,-787
-58,-45,103,311,376,-864
-55,-35,111,171,503,-977
-53,-40,105,227,424,-1028
-47,-43,103,195,468,-1079
-45,-54,98,316,478,-993
-49,-50,96,295,408,-927
-43,-50,98,380,370,-868
-25,-49,110,394,391,-810
-23,-41,113,470,445,-810
-38,-32,93,476,281,-831
-53,-30,88,353,227,-681
-32,-13,105,130,301,-662
-42,0,91,506,112,-720
-4,15,127,303,451,-924
8,4,97,362,866,-1298
-22,-20,53,237,280,-1024
-17,3,91,-23,179,-1120
-9,0,119,462,627,-1197
-16,-39,75,935,497,-1003
-22,-21,59,309,-92,-719
