AccX,AccY,AccZ,GyroX,GyroY,GyroZ
57,-49,31,-3775,7586,-4795
10,95,59,3934,-217,-8803
34,-27,-14,3811,-2555,-9222
-39,47,33,13504,-12950,-7884
-18,-57,94,16834,-15470,-4349
-124,86,35,-6014,12383,-2417
-89,-126,-67,7965,9701,-4132
-75,53,12,9471,6361,-2075
-60,-28,-58,-6359,-3785,540
-98,119,29,-2988,-367,123
-101,-5,-18,-4138,-2070,94
106,102,-1,-14003,-1389,-3397
-89,27,120,-9123,-2333,-2237
-119,76,-25,-5270,-5274,1639
-39,-113,73,-2280,-2778,5520
24,-32,21,-845,792,7332
-9,6,3,-638,2739,6608
25,-43,40,-1303,408,6625
62,-63,116,-2945,1257,5595
88,96,80,1563,-1561,3653
70,28,47,9496,-7311,7092
80,-77,64,913,-3332,3367
-124,4,9,-5917,6131,-7016
-110,31,20,1085,2842,-3361
14,15,18,1401,-666,-789
-14,65,30,1304,-1622,1162
44,-70,76,-377,92,562
92,-43,54,-1013,745,-231
-121,-9,101,-2306,494,-616
-116,-16,-85,-2246,1265,-880
99,-77,67,-67,238,-445
105,-74,56,1011,-92,-259
118,-35,49,760,-33,-13
-126,-28,31,458,147,-84
-117,-26,24,-228,-45,-163
-126,-29,47,-512,-410,105
-116,-13,97,2,286,-169
-101,-5,-128,-134,444,-287
-120,-27,57,-104,-22,-233
-115,-29,55,-169,183,-228
-80,-104,-74,-2919,3374,-2797
23,60,-94,-3199,4308,-5046
108,56,36,4104,409,-7843
65,28,-20,6359,-3137,-12853
-54,-22,-113,11031,-10073,-8762
-4,-72,-71,7470,-4442,-3530
60,127,81,-1148,6092,-3776
-46,118,-27,11336,7629,-6213
-73,17,39,860,4844,-3858
26,-19,-63,-5087,38,723
-98,106,112,-6,-2311,1732
31,-81,-113,-6034,2245,-503
61,94,97,-4885,-4112,279
28,36,125,-10473,-795,127
83,126,7,-10615,-513,-1285
-123,-17,-24,-9040,-860,1779
-43,51,68,-1637,-2582,6793
-82,-7,-79,3783,-883,6519
-65,74,-98,-1925,2216,4917
-23,-101,110,-5228,977,6102
27,47,-51,-229,-3094,4640
72,-89,-46,3650,-3360,5670
6,-87,24,-2252,-1375,5554
-29,-127,7,-2,-3246,-2265
64,-123,-97,3412,2493,-4890
109,-118,94,398,3237,-6674
-33,15,55,-2251,354,858
24,103,-32,-381,-1845,1805
22,-54,54,1401,-1389,440
80,-40,57,1390,216,-268
-104,-4,81,-1034,1048,-768
-111,-13,98,-3446,781,-1470
-118,-98,126,-2150,1272,-535
67,-116,74,687,269,-309
78,-89,51,1672,-469,-25
105,-76,49,1773,-818,227
-104,-40,68,532,-284,394
-92,-2,70,-902,673,-144
-96,-9,41,-1123,710,-399
-120,-41,34,-125,-76,-384
109,85,110,-10389,10701,-4140
-72,-79,-66,5147,3601,-3724
77,-116,96,4255,-1019,-5203
-18,117,-64,12782,-3108,-6499
-50,-88,-52,18926,-20716,-6059
106,103,-101,5018,-4879,-2072
-48,-49,-51,1780,689,-3452
72,-30,48,2162,6110,-6208
114,-2,-63,6411,7277,-6684
18,117,-106,-2005,-391,885
116,-19,91,-2837,-2186,2706
-123,-47,80,-2581,-134,1354
-81,-127,-118,-8327,560,108
-69,10,97,-8574,-1142,-1543
58,-16,67,-12151,2477,-2964
-82,-55,1,-12902,3158,-5055
-13,82,-56,-8785,-3175,-3575
125,105,-98,3801,-9070,4627
-122,95,-128,5683,-4531,4294
96,41,-54,-984,-1838,5617
37,114,-122,-262,-1924,5804
62,60,0,3968,1358,7013
9,-96,90,2038,-1060,3685
25,59,-42,4048,-342,4661
5,-116,1,-3143,-3161,1393
-40,-61,-123,590,801,-2727
24,110,27,-1472,3501,-3734
108,107,-71,2004,-329,110
-68,79,0,620,-406,238
11,-63,75,-2110,898,-677
67,-86,49,-2236,1428,-670
93,-73,29,-1815,908,-834
56,-83,42,-539,-40,-624
41,-92,71,264,-31,-180
66,-94,59,880,101,115
81,-72,27,1121,-137,98
95,-55,23,642,-218,80
98,-43,43,-40,-71,3
109,-37,55,-372,234,-77
110,-29,46,-367,320,-288
-1,27,-14,-3496,4982,-1441
100,32,-85,-2920,4551,-3189
80,-119,124,4354,-444,-3814
63,70,43,6053,-6129,-8439
-94,-19,52,11123,-13401,-13085
-39,-103,-77,16408,-17697,-5780
-36,-30,-108,-7167,9640,-3842
-20,6,-118,4358,8497,-6206
52,-77,-117,13215,9814,-6673
-18,-21,61,-8163,-619,421
-74,-111,-118,-3371,-3081,1616
-92,-64,34,-9317,-224,50
14,-97,-105,-13427,-1445,-2495
116,106,-53,-13208,-452,-115
113,-103,17,-5454,683,6143
-29,-50,-35,-1385,526,6417
5,73,53,-1207,-2308,5940
-91,-25,-83,-5544,-1968,6317
46,-116,-54,-1998,-1968,1930
-80,70,68,12937,-12015,3206
0,110,35,9675,-1996,-1282
-48,63,-65,-6294,4939,-5476
49,55,106,183,1037,-653
-99,-16,57,-1212,682,-644
-63,7,53,-787,368,178
2,49,84,221,-313,491
82,-118,-77,-439,332,84
119,-101,-63,-638,431,-222
102,123,112,-437,334,-464
81,112,103,-454,369,-406
61,110,85,16,196,-134
76,-123,68,162,204,-255
99,-127,63,212,44,-115
108,-105,81,-233,9,-198
112,-94,102,-145,128,-344
116,-122,98,141,294,-345
106,121,84,165,-2,-111
113,-113,88,301,-50,-63
-127,-82,98,-143,272,-276
-125,-100,81,-31,267,-297
91,92,-101,-5245,1831,-1909
-41,-24,23,-53,1987,-5980
-52,84,7,3932,-486,-7500
-39,10,109,2218,-2507,-8506
-19,-44,-37,9961,-10464,-9205
30,85,34,6649,-9442,-3699
43,-42,56,1642,360,-1201
58,-78,51,5277,5155,-6226
120,61,45,10224,6891,-7527
-90,-2,72,-638,3522,-2868
-77,23,58,-3118,-1824,4206
0,127,10,-6655,-1641,3012
-117,-114,-83,-14667,217,610
-1,84,-39,-15452,2025,-704
126,36,39,-9451,25,3209
-29,46,84,-1771,-1744,7037
-72,-37,79,-232,68,5076
-122,64,91,-4022,1036,3280
-56,-7,-4,812,-6297,4006
125,-2,21,1056,670,2939
52,116,-107,2000,-3963,1034
124,-93,-2,13912,-9799,4066
55,-117,93,-5681,7952,-4724
55,-125,-93,-2323,453,-1490
-10,-24,40,33,216,-696
-80,24,87,122,-277,203
-25,65,74,896,167,894
35,-122,85,-220,1246,997
95,-60,26,-1378,1719,748
113,-32,16,-1975,866,-30
-91,-71,19,-1148,19,-935
-95,-95,64,-145,-749,-868
109,-79,-123,-651,-104,-1002
97,-98,2,-1667,1756,-578
54,106,60,1306,-214,-104
90,-102,25,1625,-650,-69
-122,-61,60,560,-358,226
-97,-24,61,-1055,829,-139
-105,-10,18,-1226,834,-336
-107,-48,6,-104,142,-356
-127,-122,60,-7693,7552,-3149
126,-60,52,523,4470,-6146
86,-45,-11,7638,-503,-7605
115,-60,66,9847,-8119,-10330
-3,102,-59,18018,-18903,-7550
-14,87,28,-1075,4705,-3783
-119,96,-46,4134,8090,-6270
-38,-18,114,9597,4405,-7411
-48,55,75,-1122,4709,-2908
-43,-17,33,-2842,-6476,4235
-105,-55,4,-6182,2030,1565
-48,-115,-108,-11459,-195,32
-87,-33,46,-15148,2078,-3438
105,-23,24,-13146,1846,-1750
87,24,-85,-6675,-366,4144
-86,-64,-101,1803,-3602,6549
-112,-16,-119,-110,-1194,5132
-6,-28,-11,-8748,-2635,4823
-72,-69,79,908,-1937,3681
95,68,116,5559,-5547,2322
125,41,97,225,-2850,1997
66,100,78,3687,-861,-634
-120,67,-60,250,4186,-4054
-56,-93,22,2568,-1018,-361
-56,23,99,-739,-544,463
-7,79,124,-1014,682,460
49,104,61,-1092,973,536
74,-103,73,-1411,56,218
101,-63,-75,-727,378,-694
101,-102,-80,-613,715,-787
71,109,80,205,206,-634
71,99,76,556,138,-413
72,126,62,156,161,-308
86,-117,63,-507,173,-158
102,-102,81,-733,100,-66
125,-89,110,-477,60,42
115,-61,91,96,445,-383
108,-96,57,517,59,-419
108,-91,59,-101,-108,-33
125,-63,68,-350,152,-153
-102,-28,-47,-7518,3228,-1431
-53,4,9,1508,381,-6718
30,124,-19,3910,730,-11142
18,-63,120,4578,-1399,-10648
89,96,-34,17939,-17146,-10975
-112,-104,25,4070,-9543,-627
69,115,102,-1438,12690,-8524
-127,-127,-104,10207,2779,-10139
59,-99,-15,-5545,6248,-2112
0,71,29,-755,-2263,3374
84,90,61,-4887,884,1530
106,101,78,-8061,-904,1464
-26,54,-36,-13484,659,-981
78,34,-102,-12722,476,-2673
-46,27,-91,-8545,715,1465
-3,-40,-104,-1298,-2998,5471
-59,-112,-55,533,-2666,5387
-1,-32,-128,527,-284,5110
83,87,-57,-2843,575,5791
53,50,73,-1136,1269,5571
-25,-100,59,1258,-653,3315
75,-51,92,463,-4071,4069
-22,-81,72,-2227,-1683,1127
-79,-95,-21,9679,-1699,-1459
44,16,119,-1353,3296,-3506
-33,-1,-5,1290,-303,-383
-30,70,72,-59,-319,694
28,-102,100,-1176,973,215
66,-104,27,-369,982,-43
106,-72,2,-866,451,-137
97,-70,49,-1204,-46,-761
71,-112,108,-671,-71,-716
96,-112,-87,-970,1059,-283
68,-116,93,333,16,-24
85,-91,55,745,-361,-24
113,-63,64,117,77,-75
122,-55,53,-199,447,-267
119,-60,32,-248,185,-256
116,-66,38,-50,-87,-163
126,-54,58,-196,164,-305
70,-123,-32,2149,3534,-2931
82,-19,124,928,768,-5031
-32,126,-90,5357,311,-3344
-118,-29,-74,4202,-9019,-8658
81,-7,-39,2250,-7965,-6283
48,3,43,14566,-14328,-4864
-15,-106,127,229,3005,-3006
-88,43,54,3785,5289,-5503
-61,30,-124,10219,5305,-6860
120,-19,-42,-2739,3053,-1616
-40,54,127,-3360,-1011,2223
28,-95,67,-2740,-3385,2526
64,-92,-23,-11536,695,-98
47,82,-35,-12654,646,-2999
36,105,-45,-12864,2462,-516
117,32,-73,-8092,916,4177
-80,18,-86,-926,-4482,6796
-57,-112,-128,1721,-4196,7352
-104,-7,-41,-440,-1407,4496
-55,127,109,-572,-22,3237
86,-81,54,1701,-2195,3024
0,-118,61,-2255,-2623,1309
-11,-22,4,11020,-3439,-2306
82,48,4,-3053,4606,-3085
8,-6,-7,-190,69,165
-1,113,58,-1639,679,98
41,113,15,-315,883,84
79,114,-9,648,268,266
127,-82,25,-207,-231,47
-126,-70,54,-850,-112,-371
111,-87,87,-757,-208,-543
-122,-65,10,-1098,1300,-795
82,-124,124,556,-265,135
86,-100,59,699,-314,-57
-126,-75,64,136,248,-161
-110,-68,47,-632,783,-266
121,-70,8,-452,21,-164
121,-68,34,-108,-364,-113
-110,-48,82,-142,263,-210
-98,-39,105,-265,496,-304
-109,-92,-118,113,3341,-4599
-68,108,40,3362,3795,-4746
-36,56,-62,4161,-3453,-6638
-119,47,-52,4703,-8732,-7084
-112,59,39,-967,-5542,-7254
-117,79,-31,3377,-5662,-1819
49,-21,-125,12555,-4461,-1804
-105,-37,70,3777,6344,-6325
-118,-88,11,7899,6147,-6916
115,-122,-45,1539,6464,-7323
23,38,98,-2891,-1826,2758
-39,-100,-98,-1424,-1200,2862
-127,-23,31,-6877,-2115,2882
33,-84,110,-14284,-540,-890
47,-80,-87,-11372,403,-1417
-96,118,58,-8745,1682,748
-10,-43,-110,-5983,1097,3182
91,-12,-88,-3965,-1136,4536
26,-51,58,748,-4041,5303
61,58,107,10044,-9048,7157
99,-57,-82,2229,1322,2248
22,-104,3,-957,2655,3379
-114,-118,-28,598,-92,2433
40,123,-67,-508,-440,2398
52,5,12,1629,179,-1590
-65,17,70,-1244,3634,-2235
-27,-101,-35,1250,-319,-1124
-52,24,93,-537,147,-772
12,16,49,524,510,426
62,65,58,81,390,596
93,108,72,-700,16,412
127,120,75,-522,-61,167
-91,123,-80,1635,105,-782
118,-105,13,157,152,-500
31,98,-120,-167,-428,-156
56,108,-119,-452,284,-219
101,106,117,-522,611,18
114,-124,59,-315,397,-37
115,-98,56,-436,61,-299
119,-100,87,-541,172,-347
32,-112,-41,-2470,3021,-3780
64,83,89,-3118,4459,-5946
106,37,-102,2204,-1006,-6656
58,-86,67,6950,-4262,-7857
-25,-44,-128,16399,-15087,-8045
-127,9,-114,5973,-7153,-2050
49,-57,-105,-653,7624,-7623
22,-68,86,12189,4245,-9604
90,-4,-104,-143,8608,-3333
-85,102,13,-4633,-4939,5725
122,-7,-103,-2142,-2403,1667
-117,-28,-58,-6267,2817,403
94,48,18,-10843,2258,-812
-79,-54,91,-15401,5520,-1886
97,-28,-61,-14608,3238,86
-53,-41,1,-8639,-2102,2965
43,62,-61,1997,-5859,4850
48,26,-78,4473,-5307,4890
-23,-84,51,-891,-658,3768
38,-106,-75,155,-2038,2640
37,-49,80,2824,-2516,1416
-37,-97,-86,5516,-6525,1234
79,-78,-53,-4933,5785,-3570
84,109,-55,-1628,2080,-1073
16,46,-7,-1071,925,-327
16,90,-7,-27,366,183
10,-113,19,-23,-66,-293
53,-110,40,-61,141,-43
87,-104,52,-134,-33,-69
87,-76,70,-883,-176,-560
124,-78,-59,-1076,985,-617
83,-105,-111,-357,341,-141
62,-118,62,806,-322,-47
109,-90,59,667,-57,-39
120,-62,45,-199,495,-258
117,-65,25,-502,305,-183
115,-68,36,-378,-202,16
119,-47,66,-108,20,3
-99,-3,111,-536,660,-533
-113,-36,69,-702,335,-461
-101,-5,111,-12468,7465,-2446
-114,127,-15,192,4326,-2180
-23,-36,-53,8210,55,-6309
-104,35,-64,8696,-2975,-9199
106,127,-72,16567,-14977,-7937
69,12,34,12291,-13328,-3778
48,27,-103,-1451,7493,-9178
-128,-74,64,12884,-25,-8264
-116,26,28,-1871,3110,-578
-19,86,64,-4493,-195,2820
-3,100,-56,-4808,-688,1975
-50,112,118,-9542,1378,1894
22,-48,91,-11162,-553,785
-42,-5,-104,-11965,892,1150
-114,100,-59,-11043,1319,4447
71,22,76,-2023,-1205,8201
43,-16,-1,123,512,5605
15,120,-39,-2330,-250,6207
86,77,-114,926,-2035,4810
32,43,-38,-105,-3817,3535
3,24,-119,890,-4008,832
107,-8,51,11453,-3,487
-88,-120,56,-5762,3762,-3073
47,55,15,-82,76,-1372
34,43,17,-722,234,52
34,90,26,127,-347,668
104,-118,51,363,-24,670
-113,-75,43,-351,227,198
-110,-60,46,-1032,-198,-423
-124,-110,121,-831,-35,-604
-113,124,-41,-403,794,86
84,106,62,1125,-604,339
117,-113,54,726,-481,319
-114,-92,62,-13,25,266
-101,-82,47,-497,172,64
-115,-96,53,-213,-180,14
-103,-87,-117,-313,317,-64
-124,-107,92,2,-108,109
-109,-106,75,-81,-42,75
-101,-97,65,-232,81,73
-64,114,-56,-4770,2574,-1455
25,107,37,-1975,1865,-2296
11,20,120,3310,2089,-8577
-98,65,92,5061,-1684,-11741
-111,82,-40,15976,-13320,-10166
-101,-76,-39,14628,-19575,-1488
89,-15,100,-8721,19858,-10345
-68,1,94,12966,-2217,-7192
110,47,-2,-9105,-1983,5659
-78,-41,-46,-3103,1281,1405
52,115,-25,-4654,-821,1236
59,61,-49,-10644,3503,1862
-4,47,70,-11376,4327,1134
-75,-123,-53,-10648,2379,3595
-119,91,-92,-5012,981,6853
34,8,101,-3206,-634,5767
77,82,-101,-2526,-1311,5959
-124,-78,-56,897,-2699,4365
42,-61,-31,612,-2813,3235
-7,74,74,-175,-3311,1590
61,68,-37,12244,-3397,1589
-55,82,108,-6363,7204,-4688
100,-29,-120,-709,708,-2057
98,60,-19,-2243,461,194
24,71,-4,989,-885,778
71,124,33,1639,-789,618
123,-89,54,602,-133,85
-100,-95,55,-600,50,-236
-127,-109,75,-1513,-385,-635
-100,-107,-14,-2128,1310,-436
98,102,-113,-205,76,356
101,122,65,866,-394,250
-100,-84,67,353,-81,409
-87,-43,56,-844,582,23
-82,-44,35,-833,393,6
-92,-64,25,-193,-147,49
-86,-57,45,-48,-252,-2
-84,-33,76,-725,69,-167
-84,-54,94,-635,121,-102
-81,-67,102,-283,262,81
-6,70,52,6540,-7026,-6591
-107,126,-13,2846,-9228,-9244
-111,-3,83,13728,-19076,-5425
-69,-119,107,2272,3309,-5681
68,42,82,5391,8692,-5794
-72,-28,21,475,4361,-4099
-107,114,21,-4618,-1598,3075
-31,32,112,-9507,2368,2207
83,45,49,-11568,2026,1637
22,-104,70,-9570,4860,3504
-68,-103,-5,-4720,2486,6875
-12,-5,7,-3751,3386,6914
89,110,1,-5256,1799,6306
100,6,-90,-3650,-2095,2956
54,88,81,25356,-24538,8302
37,126,-15,-4326,9102,-4663
-94,89,31,-8993,6551,-5485
-2,-48,79,-2938,2080,-639
99,-5,-74,645,-1210,800
41,45,-3,3357,-2761,722
95,87,53,2437,-1712,657
124,126,110,129,71,65
-99,117,103,-1726,864,-329
-102,100,66,-2111,134,-442
-88,-89,70,-2597,781,-1327
-122,33,11,517,343,665
96,52,31,2249,-800,256
-120,107,69,1025,-666,541
-94,-108,93,-691,504,270
-79,-100,50,-1459,901,271
-92,-101,24,-955,108,291
-93,-105,26,-65,-345,167
-101,-96,72,285,-949,136
-56,-61,-20,-212,1013,-196
-93,-102,-117,43,-302,295
-93,-78,64,-667,-70,60
-78,-79,68,-531,346,-31
-72,-87,48,-314,400,-107
-80,-83,37,-492,-124,28
-82,-78,63,-415,-143,-25
-95,123,114,-3236,3536,-2522
98,27,99,2477,2150,-5788
-69,68,-106,4498,-1904,-9920
121,8,46,10776,-8291,-11646
49,-21,-33,21054,-21685,-3333
-36,8,14,-6743,14822,-9210
56,109,89,14249,1849,-7238
126,-93,-93,-3796,3342,752
92,9,-46,-7818,-1443,3791
25,126,-56,-2908,-1468,1147
-49,-38,-76,-12928,3994,-234
35,-76,-71,-13655,2526,-2818
108,4,109,-13306,4661,429
-84,-55,-86,-7558,-980,5724
96,50,-100,-64,-6976,7863
123,-87,57,-719,-5893,7196
71,-117,31,681,-1795,2619
-17,121,33,-78,-2205,2928
-114,-70,47,3087,-3367,2099
86,5,95,1040,-2636,1862
24,-2,83,4496,-4202,36
73,109,84,-5361,4237,-3749
40,34,25,-308,1225,-596
6,0,99,-161,288,160
3,53,45,-454,424,-100
19,43,36,608,200,116
62,79,66,-30,33,23
72,81,79,-405,34,-244
67,52,80,-22,-378,-52
77,82,-97,-539,-201,-71
98,79,-17,352,410,203
64,66,121,1003,-591,404
88,111,106,-3,-183,189
107,106,104,-507,383,46
106,99,72,-516,317,202
95,116,66,-325,-230,218
111,-123,97,-153,-14,64
-127,-118,122,-262,285,-102
123,124,95,-409,53,-5
119,122,88,-408,88,19
75,51,-93,-5765,3117,-682
127,106,54,-2707,3174,-2661
27,-121,-60,6252,-145,-6072
-16,9,-101,7695,-4360,-8937
-46,56,-11,11036,-11008,-6700
13,-72,66,3240,-8989,-1340
-16,5,123,1838,-7296,1265
-55,90,-42,-1610,-42,-2307
68,-56,127,5528,5213,-6364
-89,-32,110,11127,3912,-8407
77,35,0,-6689,3123,-1012
84,18,4,947,-1345,1834
-91,-117,89,-3362,-1773,1547
4,-44,-42,-7491,1264,429
-54,-28,44,-11046,435,-1510
100,24,-95,-15829,2245,-2519
40,-100,112,-15122,2544,-1838
89,87,72,-4407,3,3703
-102,123,-96,6727,-7232,6976
57,-79,3,5248,-2707,6215
-18,38,-121,-8709,114,2772
48,66,18,2613,-1975,2329
-86,86,63,2043,-1531,3637
107,50,-90,1376,-1039,1341
45,66,84,3108,-1755,1321
13,15,-113,2665,-2110,1938
-18,-85,-38,-1274,-261,1460
86,11,123,-2663,-500,-494
77,97,20,1611,1268,-802
-46,66,8,38,-475,-701
2,70,67,-688,-479,101
60,114,-115,-1421,1205,455
38,95,67,-53,1727,270
79,75,31,994,1449,-29
102,85,61,437,185,-116
119,91,100,-615,-762,159
102,121,117,-923,-879,114
87,-120,-110,-1165,-947,-252
78,85,-104,796,-659,283
85,84,7,1402,31,185
-54,-93,8,-1649,3641,-5239
106,113,-90,4970,180,-5469
16,42,110,7783,-5217,-6917
-97,66,91,5650,-10419,-5902
-12,101,-92,6902,-11971,-2559
91,-99,24,8124,-9652,1272
-95,21,64,-2381,13548,-6523
35,-67,69,23908,6878,-10612
95,-117,36,-15187,-3157,5198
-91,-10,62,-519,-4027,3304
-27,-8,-24,-5906,-932,1586
95,86,38,-10298,3998,-601
-10,-16,-74,-11101,2402,-605
-96,99,-57,-9403,1951,1621
83,99,-3,-5711,1855,5640
-110,-109,114,-2687,417,6424
85,-108,107,744,-1019,6235
-60,-53,-103,944,-3133,4232
-121,-77,-62,1065,-686,3035
100,-21,-115,1908,-611,1614
-99,-54,106,-584,438,1387
-74,-44,61,-1322,-1208,589
70,-92,123,171,-2769,356
-88,-52,46,2272,1350,-1764
22,40,-123,1436,535,-10
29,23,106,-643,568,-652
53,0,64,-77,222,779
47,58,85,-129,231,286
63,64,85,-317,57,-23
86,71,113,-715,-67,229
84,88,111,-536,69,28
93,95,111,-344,123,-98
90,92,106,-269,-25,-87
86,98,104,-295,-46,-50
99,110,126,-496,327,-78
110,103,105,-285,148,37
120,102,78,82,3,-9
127,113,78,-136,23,-15
126,114,73,-165,54,-80
127,109,72,-214,-1,57
-115,101,-67,-3061,2258,-2675
-15,100,68,-334,1678,-3160
81,54,-61,2416,-315,-4910
-112,14,38,3928,-3009,-6342
55,83,-83,10419,-9662,-6468
-72,67,-78,7427,-13124,-5872
20,-43,2,12789,-9916,-4372
-49,27,118,-6677,11529,-9342
-97,-52,88,13112,4135,-7747
-90,-77,36,-3140,6425,-1517
49,113,14,-5713,-4808,6343
-105,-81,25,-60,-2546,1326
-74,-91,123,-7044,1484,1081
-29,-49,26,-9141,-798,447
68,-68,-51,-13373,4923,703
-38,-57,-126,-11544,5273,2950
-100,-81,-119,-5409,551,5776
105,-47,101,551,-3637,6026
-71,113,-68,1444,-1599,4765
-111,-128,-41,-1370,-1204,3782
-115,-83,92,1561,-2000,2711
-93,90,91,2399,-2601,3306
62,79,-98,-745,-1904,1732
-117,33,-16,3993,333,-1911
91,-113,9,-2813,2560,-2656
27,-6,93,-339,900,-1037
21,-19,52,-134,-160,397
13,50,31,-229,96,198
45,61,48,619,-89,-230
88,75,75,66,-135,-236
99,79,83,-1140,30,-120
85,71,72,-799,-51,-118
85,93,120,-662,26,-252
-125,125,-16,-525,683,49
92,90,89,534,-574,366
127,125,87,-61,-27,212
-123,-112,73,-299,456,-23
-124,-120,43,-639,342,72
124,-125,32,-221,-271,255
-123,-105,56,-14,-291,158
99,30,-63,-7983,3522,-1935
88,-28,-116,-4980,5983,-3330
-72,-78,-15,6666,165,-6840
105,-119,-59,12328,-9355,-8882
-84,8,38,17364,-17401,-8585
51,-41,-26,6096,1181,-15279
2,76,-127,6351,-1224,-6995
-111,-7,32,-1391,342,1359
-104,-31,116,-1126,1148,927
34,-34,-30,-2962,1338,1172
70,-62,-71,-4407,896,1287
-84,40,-123,-11281,2310,1065
-102,50,-62,-13520,3055,-389
74,24,123,-10873,2738,885
-61,84,-67,-7441,839,3852
-50,87,63,-2872,-2007,5737
-117,-35,-93,-172,-2333,5608
-70,-95,-67,-1527,-921,4926
-51,-123,-4,-754,-313,3702
117,-31,-122,493,-979,2022
-8,-111,73,1983,-2567,2615
66,-40,45,876,-3402,1457
-95,41,-3,-630,-2283,-646
-89,-20,-113,-2625,4361,-2910
7,61,-54,-737,106,-561
-4,11,50,747,177,31
-8,35,53,1040,414,249
34,53,37,961,721,103
69,58,35,-276,273,316
87,63,59,-601,-470,125
97,58,88,-526,-486,4
103,75,114,-565,-69,-140
126,116,-16,-1059,1006,-472
75,51,-119,355,-320,349
85,63,94,457,-300,276
117,90,84,185,28,232
124,114,76,-454,434,-36
109,88,47,-127,-37,79
108,89,61,37,-229,189
122,115,80,-265,-42,61
63,-53,-57,-5306,2293,140
49,54,-33,-5525,4382,-671
-118,60,-24,-131,3253,-1734
-48,-99,-114,5062,-3765,-6639
-69,-52,49,9718,-9658,-14193
-111,112,-21,11615,-20378,-11280
113,-16,-25,8985,-6556,-3846
104,-5,6,-660,28933,-10826
-30,10,-86,1806,-1888,-3738
-6,-73,-10,-6991,-519,6831
-26,119,-5,-1639,-1667,756
-26,22,-8,-4456,275,1316
26,-59,-16,-6964,882,394
64,17,-76,-13808,5223,-256
-3,-128,-3,-11362,5607,-155
-55,111,7,-7165,2597,4065
-80,-68,-81,-738,-5294,7636
118,-86,53,-524,-3144,5693
-89,-53,-88,-2841,159,3876
47,120,-86,-1870,131,2144
100,47,96,-137,-1785,952
-39,-12,31,1608,-2551,-96
-30,56,51,10867,-4283,683
0,-85,-121,-4728,4372,-1514
74,89,-88,-407,714,-172
65,79,2,-40,17,327
73,116,26,-64,131,197
94,-128,28,-137,-65,-61
121,122,47,-497,-22,-112
116,114,53,-491,-36,-152
116,124,90,-959,276,-245
119,127,-122,-837,579,-76
103,86,68,875,-372,264
-128,119,61,538,-244,243
-102,-108,57,12,151,53
-102,-111,42,-252,265,-49
-117,-120,37,-174,-124,128
-119,-103,52,-79,-89,76
-104,-101,59,-199,18,6
-86,-103,72,-342,26,-61
13,93,1,-713,567,-6785
124,20,-109,2760,-3416,-7287
-90,69,82,5716,-9341,-6904
-68,-94,49,9296,-16280,-5183
39,36,-104,5070,916,-5971
50,110,89,-1428,13115,-7598
80,55,-16,10520,2595,-9536
-96,23,51,-8808,-1798,5074
-55,-32,-93,-1099,-2624,2898
120,46,56,-6718,977,635
65,-86,-125,-9231,-154,464
16,118,-111,-11524,2211,551
-49,-115,-10,-11234,3391,2728
94,25,-71,-4861,314,5724
13,82,98,-194,-739,7001
-72,92,-100,-2690,-849,5414
53,2,-87,-4728,214,4954
-69,36,-104,1419,-1897,2525
-75,21,109,1422,-2566,418
31,-28,50,1425,-2495,773
-87,35,98,-672,-2107,-537
57,4,85,499,2858,-1240
31,105,10,-254,287,-250
20,73,10,360,6,-150
42,102,23,-678,517,172
71,106,-14,-457,480,200
87,105,-22,616,-598,263
-99,-100,-57,-202,584,-125
119,103,-118,760,-125,238
113,97,87,231,-128,67
108,97,74,-32,-30,90
116,95,75,3,75,17
121,101,79,-137,50,7
-121,109,102,-284,161,-18
-125,103,93,-271,72,0
-123,93,81,-196,33,42
-120,99,78,-98,41,56
-113,111,79,-56,11,35
-109,115,80,-122,47,42
-106,115,80,-56,19,17
45,-88,50,6255,-1927,-4074
-89,66,-46,1857,-4190,-6036
-116,100,-61,210,-3828,-7303
-110,-73,-95,4867,-12104,-1766
-128,26,-108,-260,-11633,-841
63,-53,44,7270,-6487,-1886
-96,96,-89,4321,9313,-15062
83,63,-93,15020,1899,-10772
-102,4,-15,-12080,1369,5420
92,118,-82,-871,-3185,3646
-61,-83,87,-2483,61,969
14,57,19,-6075,2099,997
-36,87,-90,-11592,2965,1118
78,-59,16,-14556,6042,2
19,49,86,-12714,4423,2746
-87,-6,-22,-6793,-674,4922
79,-102,-119,879,-4925,4985
111,-110,29,-625,-5062,2500
-121,-62,27,658,-291,3189
-79,-53,-107,-1031,918,1651
-89,99,-79,-1009,-606,1147
46,-14,80,1171,-2100,1302
-92,44,51,525,-4720,-1407
-73,57,105,12895,-1865,1355
93,-36,-106,-1893,2125,-1067
69,44,76,13,-586,-167
73,94,113,-2252,846,175
61,35,41,-29,634,93
60,26,33,317,-489,273
63,81,87,-145,-1099,455
115,114,-39,-266,558,-305
121,89,14,-94,589,-186
72,44,123,-33,-491,118
82,61,121,-279,-141,209
96,82,101,-226,145,157
102,97,75,-397,56,69
127,104,97,-407,134,-47
-124,109,117,-506,361,-104
116,105,99,-455,97,-60
113,105,108,-326,79,5
-77,-54,-102,-4855,1968,-314
95,39,5,-4338,1819,-251
-58,-25,-45,-69,2410,-2197
-125,115,-108,5925,3949,-6421
103,-49,22,5260,-1866,-9314
106,12,-20,10263,-7560,-10131
107,-55,-45,13399,-13744,-6261
122,94,94,9290,2144,-3616
94,-49,-111,3517,5876,-5789
-57,46,75,7106,2045,-4498
-4,-34,-61,-8467,-1387,4576
-21,89,10,-3883,-1619,2927
-63,-11,-75,-7976,383,365
88,-33,-76,-12766,4365,-1588
85,16,-36,-12690,4491,-1837
120,13,15,-10840,3425,1349
-22,70,-116,-8508,-2010,5084
-73,102,-76,-745,-8492,4555
115,114,-52,-734,-2792,3724
94,101,88,2033,-1946,2711
108,-79,56,-158,-408,1547
20,12,-119,2514,-1559,1794
62,-47,125,1622,-1609,2097
-52,30,-55,-333,-141,1917
-33,23,78,-1395,-445,-292
9,-11,29,-1570,-2220,-2710
99,15,-114,1413,2785,60
-7,120,-52,1554,-1770,540
61,98,30,135,-176,397
93,-97,-84,-645,991,-119
85,97,-80,-504,539,-200
65,40,-86,-122,48,-76
46,14,-104,580,-321,210
58,38,125,850,-460,303
110,94,-76,-150,76,27
109,81,-113,-691,333,-419
77,28,107,212,-109,102
82,64,-128,101,-62,380
100,106,-113,-237,90,207
119,107,-121,-340,167,84
83,-103,-71,4569,-992,-7202
-1,-72,-103,5305,-6544,-7832
3,15,88,6355,-12697,-4566
-28,-3,9,9740,-12610,-3114
-50,-47,15,391,9162,-7875
0,42,55,15484,3846,-11206
111,-6,-58,-3278,-352,-699
-128,-30,98,-5299,-1491,6246
92,3,18,-9096,2363,728
1,-87,7,-12687,2414,46
60,-18,-57,-14488,5104,-649
-21,-43,-123,-11669,2243,2482
-115,40,-74,-3031,-3631,6058
-6,-83,-77,3511,-4710,6981
-84,29,-44,-1541,1564,2816
-18,-99,20,216,-257,2500
-11,87,-108,-3572,-6125,3902
-16,4,34,168,8120,-5109
-1,40,62,-328,2211,-1881
41,17,-78,-2473,1633,-296
32,61,-23,-460,-229,854
55,115,30,135,-742,991
91,-124,33,789,-292,895
127,-80,45,48,65,515
-124,-66,57,-325,-447,-99
-99,-81,-52,902,26,-534
-121,-95,18,-248,309,44
84,119,95,-168,-337,207
99,-119,83,-498,-169,247
124,-89,68,-852,626,-12
-122,-102,42,-403,191,124
-121,-78,56,-358,-315,-63
-105,-82,115,-255,313,-196
-112,-102,106,-212,55,-3
-116,-94,100,-339,-4,93
-108,-88,93,-163,47,102
-98,-83,72,-14,-15,111
-93,-75,62,-52,-33,36
-94,-74,63,-108,27,-47
-94,-89,78,-69,76,22
