AccX,AccY,AccZ,GyroX,GyroY,GyroZ
-23,42,-114,-1884,-2168,-4329
-23,-14,62,-2626,-1783,-4496
-124,-45,122,-1420,-1051,-2695
-19,24,34,-1175,-325,-995
126,-68,-123,-1496,-276,551
25,83,-42,495,-485,2419
20,7,-2,-960,1026,3905
-24,63,1,167,-179,-705
-3,64,87,-30,-767,-1188
118,9,-7,82,-74,17
-92,101,-57,901,697,-237
-56,76,108,1729,488,237
8,-89,-77,414,-769,-47
-40,91,-44,101,-1724,390
-62,24,-83,364,-653,507
-67,102,-85,-106,-434,1448
-125,114,126,-527,-362,1980
-21,-107,-10,799,-1483,2631
0,-109,-66,698,255,2208
44,-58,-3,967,-441,3046
115,-72,-60,629,-1077,2554
84,-6,66,-1397,-1508,2140
-103,75,-6,1273,470,2211
-123,9,37,1243,-832,2372
-53,-43,17,1174,921,2315
-23,-114,23,2158,636,2407
-64,-95,12,1698,-25,1904
-83,-91,-11,499,147,733
-103,121,-38,310,277,-146
-115,50,-64,708,289,-243
-103,33,-69,611,231,-226
-86,23,-86,303,99,-318
-69,18,-97,-103,-144,-513
-50,13,-105,-315,-217,-504
-61,13,-103,-179,-254,-480
-50,10,-111,-36,-65,-460
-61,22,-117,-174,-251,-306
-60,26,-114,-72,14,-139
-67,40,-119,18,82,70
-60,58,-123,-116,62,231
-54,83,-127,-246,208,254
-51,112,-112,-54,235,406
-46,-128,-112,49,323,527
-40,-110,-111,69,200,313
-31,-79,-113,-49,131,230
-34,-75,-119,42,109,106
-36,-79,-123,186,58,-8
-27,-86,125,157,75,-33
-21,-88,122,144,5,-92
-20,-90,118,82,-3,-185
-20,56,33,3276,2200,-3318
-51,-62,-26,1272,-2186,-3099
90,-66,-89,-1299,-271,-4349
77,-65,-92,1242,-1355,-3163
120,74,-46,-2967,-1683,-5915
10,-122,77,-2008,-1237,-4374
35,4,-104,-1315,-181,-1475
117,-40,-106,-495,170,1449
55,54,-81,632,472,5163
65,-7,-17,-2028,408,5202
-128,-58,-26,264,-1134,-1300
-68,-125,-88,94,-617,-1475
-39,60,-64,-362,8,-824
-56,-25,-26,1229,818,-350
-4,62,80,2036,150,100
-2,-95,-40,-109,-2066,-203
-3,83,-32,917,-1860,1021
-83,113,-43,13,-1081,1646
-95,73,-65,1200,50,1730
-55,-88,-105,-320,-1156,2285
-16,111,1,1026,-524,2577
118,46,-124,2030,1452,2949
107,-109,-101,251,-708,3100
-49,53,-56,304,-591,3457
34,-37,-54,1859,819,3706
87,-81,4,3035,330,3939
32,-27,74,641,-343,3392
-46,17,52,-143,99,1535
105,9,-23,-172,77,-529
92,-123,-37,405,124,-689
103,45,-53,919,354,-477
-120,7,-90,711,211,-731
-92,12,-98,-57,-194,-1084
-59,-26,-100,205,66,-951
-57,-41,-106,157,-78,-886
-58,-35,-109,-148,-208,-689
-60,-35,-117,-171,-129,-393
-64,-24,-120,-67,-81,-128
-65,-5,125,-160,52,208
-63,21,120,-220,-12,386
-76,46,107,-131,-51,527
-69,60,110,-63,145,701
-58,85,113,-82,89,834
-48,109,99,134,158,835
-40,-120,101,-77,106,740
-46,-97,110,-93,-51,585
-52,-85,99,115,120,242
-50,-78,96,14,127,-116
-42,-100,99,318,61,-203
-51,-103,88,167,112,-463
21,63,-71,-2639,-1186,-4566
122,-11,-79,-2881,-816,-3706
-11,-116,95,-628,404,-1248
112,64,-46,-1575,677,968
50,68,81,1022,133,4870
16,44,22,-5124,1201,4614
58,-31,-96,1459,-1526,-3904
-39,-81,-27,-184,-90,-682
118,4,-31,-398,-66,102
-21,-122,-85,1418,630,-960
4,81,55,1819,-36,-574
-8,106,16,561,-1039,149
-33,44,-21,519,-1558,874
-63,50,-55,1412,-1358,1755
-14,107,-108,996,313,1576
-47,-121,-109,681,-455,2064
-4,-105,4,332,-1490,3116
103,-123,-91,324,104,2427
122,-107,18,-1199,-2647,3472
-20,21,6,970,-219,3389
38,-18,-47,2581,267,3683
89,-51,-25,2216,371,4083
105,-56,-57,2379,337,3757
-42,76,-18,638,-903,1323
96,17,-1,294,-344,-645
74,91,6,1562,398,-57
69,74,-32,784,441,-156
102,45,-74,263,262,-880
-111,12,-87,296,193,-914
-68,-16,-103,82,29,-1221
-51,-41,-113,236,-121,-1221
-24,-42,-118,-2,-152,-1214
-44,-54,-119,-14,-381,-1059
-63,-62,-120,-28,-73,-526
-84,-35,-127,-118,-148,-82
-77,16,118,-229,-21,163
-72,66,110,-325,-52,159
-77,95,117,-82,-105,468
-82,-128,118,-157,-18,292
-75,-100,113,-140,128,279
-74,-95,112,318,79,285
-69,-76,105,-5,134,73
-78,-87,99,117,76,96
-71,-94,93,58,130,92
-65,-92,92,82,79,89
-57,-99,87,113,138,51
-53,-101,86,37,103,85
-28,-109,86,182,164,179
-24,-90,81,0,54,224
-39,-89,81,60,45,87
-6,-40,23,-2456,-525,-5186
-58,75,-90,-2780,-641,-4504
-50,-27,-110,-2045,-4,-2176
23,-105,51,-863,84,-308
-41,104,-29,184,273,1402
-17,-98,-20,-2243,1441,6420
-1,14,98,1793,-414,130
112,122,6,-590,-494,-2336
-56,21,-50,-470,-202,80
-65,30,-51,763,324,66
45,-125,52,754,164,-122
54,126,-16,-145,-814,38
49,11,-30,1143,-1138,794
50,65,-29,52,-936,1345
37,57,-55,676,-394,2250
108,115,-38,778,-940,2417
-93,110,-101,731,-852,2985
-55,-36,-4,-279,-1145,3005
-7,-99,-98,1408,-281,2973
-32,-76,-40,-40,-731,2466
36,-14,-115,2663,629,2298
13,-13,-11,2533,136,3098
66,-20,-87,1860,1649,1975
-43,-50,-56,1249,276,1327
-117,81,-12,1975,44,937
-100,58,-12,1492,490,380
-118,48,-23,421,158,86
-98,16,-50,-763,-30,-475
-76,-11,-60,-1103,-392,-765
-53,0,-79,-1527,79,-661
-95,111,-49,428,-287,-606
-55,-60,-100,277,247,-110
-39,-16,-120,-82,-20,-583
-44,-30,114,339,-23,-204
-45,-21,119,307,57,-134
-52,-13,107,163,-63,45
-54,22,107,-294,-164,130
-48,31,119,-50,14,141
-46,52,121,117,180,184
-55,75,125,89,-10,335
-52,110,-121,-414,-45,-53
-41,102,-114,-27,196,151
-51,114,-120,232,229,286
-40,118,115,255,365,195
-33,125,99,89,220,216
-17,123,84,231,248,57
-16,-127,83,90,233,-35
-11,126,85,243,185,-79
-14,-125,91,150,-30,28
-18,-122,96,69,4,-106
-50,58,102,-3001,-1323,-4624
93,90,98,-2280,-574,-2202
-90,83,90,-979,96,2253
35,-88,-74,-3252,1247,2281
-60,96,118,1062,471,6850
38,39,37,-126,-1287,-3769
108,-19,-81,223,39,-1360
62,126,-88,-551,-105,787
-65,-28,121,541,343,-585
11,-97,90,1133,1021,-959
36,-120,1,1148,-485,-711
0,92,-7,178,-1990,118
-82,-16,-15,323,-1355,1546
-106,29,-83,1138,-614,2232
-8,-46,-20,308,-523,2246
5,104,-92,1974,311,1819
99,-127,-21,359,476,2605
85,95,-91,804,-364,3116
-44,-78,-34,-3,-145,2581
-75,31,-44,1628,-105,3016
-10,23,-36,300,471,2696
-7,-54,-64,1264,553,2547
12,-88,-8,1562,6,2972
-5,-82,-9,1093,391,2023
-60,-63,-9,479,-17,950
-116,-91,-45,211,-107,54
-120,81,-53,444,-233,-231
-117,21,-71,903,-45,-357
-104,0,-97,536,179,-607
-81,-35,-108,233,58,-775
-59,-50,-110,60,-120,-691
-65,-48,-113,-92,-194,-637
-66,-51,-115,-48,-117,-473
-67,-45,-119,9,-64,-273
-70,-29,-122,-111,32,-76
-78,0,-123,-211,-22,253
-69,21,124,-127,109,295
-57,51,122,-161,183,353
-52,84,121,-138,106,369
-51,95,117,-16,160,388
-50,112,116,-24,129,294
-43,127,108,34,171,202
-43,-125,108,82,93,112
-41,-122,102,126,115,-19
-28,127,101,179,89,-50
-37,127,96,154,90,-99
-37,116,95,277,135,-67
-26,122,89,173,108,-67
-21,120,92,189,51,-42
-26,125,94,162,109,-78
76,-94,-46,-5018,1593,3349
72,92,125,742,-275,4801
13,19,-62,1349,-1170,-3042
-90,-27,-75,-397,30,-1105
64,-120,-120,197,-192,665
-57,56,105,-479,-52,-606
-73,-128,103,213,441,-411
19,-42,71,251,929,-1410
-55,44,74,1262,-793,-555
-62,48,15,511,-1611,870
-42,13,-40,917,-1301,1590
-41,52,-53,932,-1245,2026
-5,79,-124,223,-558,1764
52,-114,-8,314,-1202,2871
94,110,-17,1601,-84,3026
-72,-92,-95,1423,455,2959
-37,-99,-83,744,-333,3040
-68,86,-34,747,-212,2777
6,-53,-19,2629,445,3240
18,-68,-35,1700,375,3093
7,-63,-15,806,10,2265
-81,35,-3,-1017,-503,545
-124,-120,-37,717,111,-712
113,74,-32,1010,28,-584
118,24,-65,770,315,-493
-122,2,-89,246,68,-708
-100,-12,-107,-47,-121,-613
-84,-20,-101,-118,-42,-576
-79,-26,-111,96,60,-492
-70,-22,-117,55,-5,-464
-71,-23,-119,82,-100,-254
-88,1,-121,-148,28,-32
-82,6,-122,39,203,77
-81,32,-122,-80,-56,447
-70,60,-122,-26,100,442
-63,85,-114,25,98,373
-67,108,-120,46,123,332
-56,115,-124,126,263,229
-48,127,-128,25,82,228
-48,-117,113,-4,37,67
-52,-116,115,45,-36,-19
-52,124,101,210,142,-114
-49,122,96,128,57,-107
-43,125,91,52,24,-82
-32,120,85,208,122,-20
-33,126,75,137,-59,-36
-45,-116,69,-199,-154,-47
-66,-101,71,-357,-275,-43
-72,-89,77,-238,-103,38
-64,-76,68,-21,12,-130
-9,-122,91,-2042,-2388,-5100
-56,-57,31,-2225,-1292,-4769
-37,9,-94,-2057,-580,-1455
41,-108,-75,-1440,472,1081
15,-52,25,-1656,1764,5415
73,104,-91,149,9,4245
91,-2,93,-427,-484,-3482
-123,-85,-93,643,-259,-160
-112,-42,89,-365,540,486
-55,-47,60,531,-201,214
-33,119,91,707,565,-272
23,81,26,1841,484,-573
18,99,-6,634,-735,377
-18,21,-69,282,-1886,1588
-13,49,-81,-684,-1460,1065
48,-81,-60,-780,-7,1841
60,91,-86,1953,-784,2386
95,-38,-32,-735,-982,2957
80,83,-89,2537,-6,2773
-50,-96,-47,575,26,3096
-45,86,-58,1619,323,2989
7,15,-73,1635,746,2702
-2,0,-73,1564,89,2652
-7,-117,-2,1488,624,2617
-10,123,-17,1486,693,2241
-77,-101,15,365,-235,1375
-100,-109,-30,-463,-266,-2
121,97,-60,-651,-409,-569
120,6,-77,210,117,-549
-125,12,-96,13,-62,-587
-82,-5,-116,121,111,-809
-69,-30,-125,450,65,-869
-63,-34,127,317,-109,-823
-60,-46,123,143,-193,-623
-68,-29,125,-244,-254,-495
-86,-33,-117,-12,-121,-219
-80,-18,-128,182,301,272
-70,52,105,-267,21,245
-78,101,105,-343,-139,123
-74,-113,109,-327,110,29
-62,-122,101,329,335,-125
-53,-111,87,143,254,-156
-52,-121,75,314,162,-188
-54,-92,82,-315,-355,-341
-65,-65,-115,-586,-113,-361
-26,-76,117,292,745,-436
-23,-70,116,439,283,-503
1,-80,81,164,431,-479
-31,-48,59,-467,-314,-330
-27,-53,63,-533,-679,-215
74,-13,102,-1478,-3176,-3466
97,59,-79,-492,-2321,-4671
50,2,-123,-1506,-1374,-5707
63,-112,30,-3718,-2396,-4172
-76,-17,92,-1373,-1135,-940
-115,42,84,-162,794,1679
-71,120,49,-3900,716,5673
113,75,-22,1647,317,272
-68,-9,-116,-1,-1610,-2441
-124,78,-17,97,-194,-238
111,-127,-77,206,41,1360
-3,-109,31,999,217,-164
-2,-82,41,1203,-389,595
26,53,-17,2303,-985,1062
28,122,-47,186,-600,1809
53,72,-125,666,-126,1932
39,98,-87,1011,-1547,2840
95,-88,-122,-919,-375,2967
-97,76,85,1993,470,2925
-6,-122,123,463,-414,3135
24,58,113,1306,599,2935
77,-61,-108,3744,615,3211
113,119,81,3619,1553,2653
38,-123,-58,2283,28,3205
-73,-81,-24,798,-572,1583
-98,-81,-37,-246,-157,-173
62,35,-10,641,-26,-436
109,38,-28,-458,271,-815
-120,-53,-42,271,206,-1116
-48,-87,-64,177,291,-774
-42,-101,-106,391,138,-1023
-40,-118,-109,470,48,-650
-30,121,-112,299,-74,-667
-44,114,-123,388,-97,-343
-50,-128,-116,70,-113,-124
-36,-94,-115,-217,99,130
-61,-54,-122,-235,-73,95
-58,-12,-114,-312,52,462
-65,32,123,-429,105,384
-58,57,105,-130,136,441
-39,93,98,-96,210,261
-49,96,96,316,-9,56
-41,88,95,331,282,-48
-30,73,81,354,139,-33
-30,85,80,-176,-41,108
-41,108,80,-370,-8,35
-43,105,79,-14,-36,-217
-29,95,73,133,97,-214
-23,95,64,-84,-10,3
-35,122,59,-325,-106,-48
5,-122,16,-3743,-2390,-5967
-20,-36,-51,-3312,-781,-5773
-118,-107,-87,-1301,459,-1761
-117,12,-22,540,806,2162
-128,84,123,-1732,1041,3518
38,8,54,-205,-230,1703
94,-72,29,480,-463,-1570
78,94,-127,-191,-236,-599
-21,-2,-82,-202,313,714
124,-50,125,906,1429,-482
-87,-88,36,570,46,-57
-47,82,-46,1204,-1921,233
-58,33,-58,114,-1685,1225
-47,-56,-70,1240,-1260,2560
2,74,-85,78,-485,2402
56,-117,-93,624,-106,2717
106,-121,110,1311,-11,2687
-89,-84,-120,197,-637,3330
-32,-126,118,1295,299,3184
58,60,114,2305,719,3376
46,83,90,2816,-310,3185
23,41,-29,1712,208,2027
-34,-43,-41,1809,890,1478
-100,-112,-64,2026,592,981
-114,102,-71,1279,395,775
-88,62,-59,790,404,296
116,19,-67,869,121,-315
-72,-10,-38,-302,130,-714
-84,-26,-53,-937,-429,-659
-67,-48,-72,-1080,-170,-717
-72,-85,-105,102,175,-882
-70,-108,-116,661,-89,-570
-74,-89,123,258,26,-563
-83,-96,119,16,-114,-159
-98,-42,119,-776,-234,-78
-81,-5,-121,-872,-352,165
16,41,117,-199,548,257
-33,61,111,289,-238,563
-55,121,121,-1020,-112,267
-57,106,99,-178,102,78
-58,125,98,208,54,94
-54,116,89,443,213,32
-73,116,79,349,-16,194
-56,-114,83,-206,112,166
-30,-104,90,71,105,27
-36,-103,86,145,12,-209
-46,-109,89,188,98,-281
-36,104,89,465,189,-198
-36,106,86,273,103,7
-48,113,78,179,106,113
-47,78,-97,-3452,-2649,-5932
88,-112,-51,-4374,-1350,-6402
34,30,1,-700,855,436
-57,68,74,-2135,2244,3610
-68,50,54,-783,-253,4408
-80,-23,-114,2226,-1328,-1717
-49,-61,105,-1057,-704,-1101
18,-56,34,-196,-76,512
101,-71,-69,-31,328,116
-43,-21,73,-90,1257,-606
-48,-52,49,376,-592,-339
-55,99,18,949,-1637,424
-43,44,-66,823,-1888,1743
-69,93,-37,247,-1006,2013
7,-117,-68,439,-248,1898
24,-118,-107,1396,-420,2115
88,4,-44,-326,-1088,2662
-113,114,-115,2804,-225,2549
-66,-74,-85,1641,-177,2587
-56,102,-81,1884,-155,2606
-66,77,-46,597,588,2125
-33,-49,-67,2536,771,2409
-19,-106,-97,1988,774,1974
-61,-91,-35,535,-128,1563
-75,-83,-29,162,141,534
-113,121,-57,177,11,-161
-117,52,-76,170,-111,-434
-111,11,-92,177,-102,-403
-93,-31,-126,250,284,-347
-82,-25,118,60,12,-418
-75,-22,111,-34,-50,-372
-69,-22,114,-44,0,-331
-71,-26,114,147,-74,-203
-70,-9,112,66,44,-92
-73,2,112,-39,-43,20
-63,10,105,9,105,111
-57,37,108,-50,187,150
-55,45,111,164,176,226
-59,83,107,-104,97,335
-53,87,104,23,204,326
-45,102,95,27,176,242
-43,119,87,-17,113,165
-43,123,81,39,147,77
-37,121,75,202,165,-45
-27,124,71,215,155,-159
-26,117,69,169,31,-171
-28,114,67,137,53,-174
-35,112,72,117,35,-129
-34,111,75,113,34,-24
-22,120,78,119,133,80
120,67,-76,1796,2434,-4953
123,33,72,-1139,-2388,-2428
-120,98,-97,-179,-1647,-3140
110,-42,104,-2387,-2366,-5441
107,-18,-69,-4034,-2560,-5025
65,67,-111,-2844,-4,-2433
-5,44,-128,398,1099,2043
-17,-105,-46,-2024,1212,5009
77,110,120,1703,1258,3705
87,-125,-21,-593,-1719,-3282
-108,-121,64,-50,-374,78
-118,-62,-67,214,-78,-1083
-73,-79,-94,173,1192,-1630
-54,-64,95,716,524,-1391
-125,92,16,755,-1369,-510
-112,82,19,412,-737,412
-46,10,-35,1413,961,1129
-123,-126,-19,257,-1635,2418
-20,103,124,811,292,1509
2,-112,-100,1018,-1033,2600
41,94,90,149,-268,2678
120,125,-77,888,-272,3200
-71,97,-108,2157,-196,3481
-48,-56,-16,-499,-230,3249
-24,81,-30,1039,288,3046
-1,45,-44,1013,370,2821
0,-47,-33,1883,503,2642
-42,-65,9,1812,85,2580
-87,-60,-26,1121,213,1262
123,-53,-53,-386,-347,-283
121,104,-64,-329,-255,-711
126,10,-84,349,66,-786
-109,-11,-102,621,165,-940
-77,-20,-114,249,88,-905
-58,-47,127,175,84,-926
-60,-54,-126,220,-247,-792
-66,-53,125,17,-55,-499
-67,-53,126,-41,-67,-208
-77,-32,123,-184,-116,152
-79,-15,120,-111,88,337
-71,14,120,-16,160,554
-69,44,114,-165,126,701
-61,74,111,-205,124,699
-54,102,111,112,184,575
-51,117,98,252,280,401
-48,125,90,172,152,196
-43,116,84,338,189,80
-55,122,82,178,42,-85
-35,99,77,375,195,-159
-22,98,77,167,19,-97
60,-5,-54,3096,2515,-3458
-73,-123,-109,-2174,-1599,-4342
103,2,-52,748,-1475,-4011
15,120,2,-1427,-2350,-5869
-47,-128,124,-3236,-2431,-6409
-61,61,-71,-1423,-464,-1047
12,39,-59,-2087,1063,2725
106,46,50,-1990,692,4281
-24,108,-112,3027,-346,-2094
-44,-16,-6,-745,-653,-1624
78,-115,-89,-124,-126,120
125,-85,103,501,-20,-388
-108,-113,82,720,724,-445
-108,-105,75,1383,-670,-294
-86,-115,16,619,-1024,136
-105,-7,-23,553,-1037,1620
-108,9,-31,834,-780,2125
2,93,-66,46,87,1992
9,124,-102,-523,-231,1830
-119,-89,-56,798,-861,2273
105,-124,-96,1684,-113,2238
124,116,-96,1088,283,1991
109,124,-96,-688,-390,2673
-73,11,-84,1800,257,2521
-21,3,-116,1370,389,2594
-54,-22,-110,2126,-8,2519
-13,-41,-33,1262,127,2174
-33,-97,-46,533,529,1355
-72,126,-13,588,225,1386
-112,-95,-51,-177,-228,583
110,114,-59,445,-225,165
-127,42,-85,1048,623,11
-124,2,-100,999,112,-182
-94,-22,-118,732,254,-232
-82,-27,-124,105,-2,-417
-66,-40,126,-304,-245,-562
-76,-44,122,-410,-342,-443
-81,-43,111,-545,-247,-372
-80,-22,106,-568,-205,-28
-84,-9,97,-181,0,-8
-72,4,92,228,109,24
-74,29,81,-78,47,77
-70,39,82,-11,79,168
-68,59,85,77,163,263
-70,78,76,120,166,234
-64,96,75,-19,164,220
-62,97,72,208,232,212
-56,117,69,-106,183,188
-44,118,63,84,157,90
-40,123,62,152,152,-98
46,44,-93,-3190,-1697,-4143
25,-69,107,-3720,-1023,-4766
37,-103,75,-3128,660,-2206
-62,-100,24,1230,1054,2312
-127,-75,28,-2413,1734,5210
8,17,-104,3266,-122,3383
-33,-27,12,-401,-2174,-2433
-48,56,36,-289,7,-1266
124,66,62,65,-397,-49
-123,-104,-10,183,291,-164
-56,-59,-33,-345,364,-10
52,46,112,-429,664,-1840
18,56,73,500,-135,-1610
-6,-12,7,763,-916,-312
-35,-45,-61,1903,-1595,1070
-42,99,-81,245,-722,2768
2,113,-127,1128,-102,2107
33,-71,116,744,15,2772
104,-113,-93,2172,-279,3148
-51,-91,-113,1496,12,3589
-77,-105,-118,1259,268,3205
16,-92,-5,542,-439,3398
43,12,-74,3136,1090,2604
-15,-3,-35,1433,297,2439
-72,69,15,-251,-380,963
-127,-67,71,1676,571,926
81,127,44,1581,375,511
81,109,12,239,-55,39
121,86,-21,-754,-220,-397
-94,-1,-77,-285,-96,-698
-49,-30,-107,100,126,-1189
-50,-45,-128,-84,-55,-1140
-62,-77,-120,-7,-221,-820
-67,-70,-121,-71,-280,-571
-74,-50,-109,-182,-192,-185
-83,-10,-115,-292,-177,48
-87,39,-116,-576,-246,191
-90,77,126,-373,-145,285
-87,122,116,-378,-52,298
-84,-105,98,-55,15,234
-92,-84,99,184,-91,151
-85,-97,92,546,509,48
-63,-77,58,-110,251,-138
-62,-91,67,-90,-74,-61
-56,-119,52,565,390,-147
-60,-122,53,260,204,36
-39,123,54,329,214,208
-30,-123,66,152,106,326
-52,-104,67,13,-104,262
-43,-112,93,-7,31,253
-2,-80,-23,4574,2228,-3345
44,102,-86,-1237,-827,-3695
-62,-24,46,451,-8,-2877
111,-46,-60,-36,-1339,-3056
-27,-4,104,-780,-2556,-3269
-45,53,6,-2261,-2018,-4909
-126,84,39,-3287,-1986,-2895
-119,-25,-70,-1504,-557,117
-121,-20,-86,-1044,1016,2166
52,66,-48,-4115,1262,9146
14,-1,41,-412,-1783,-4188
35,59,13,644,-215,-1057
95,-12,54,293,-605,-245
-55,-86,-15,612,243,-491
-23,-91,-70,424,-56,-977
-14,49,-83,973,163,-296
-9,39,77,931,-502,-478
-22,56,23,401,-1435,580
-26,31,-9,501,-1138,1126
-34,91,-18,799,-1122,1577
-15,-85,-22,651,-835,1986
-24,-120,-81,1928,-442,1965
25,-119,2,1258,-549,2568
93,8,-123,2815,1356,3311
-80,82,48,2243,1189,3201
-33,36,110,1926,161,3825
53,9,-68,1499,334,3154
58,-83,-40,2302,721,3251
49,-103,-45,1510,1117,2805
-26,-58,-7,460,39,2200
122,-18,7,-565,-281,653
50,125,-43,-16,-230,-910
97,-15,-32,908,214,-939
-119,-51,-58,180,294,-1049
127,-98,-83,85,-319,-1162
-102,-123,-94,287,99,-627
-102,-99,-98,-259,-154,-674
-88,-105,-110,-121,-239,-428
-82,-85,-107,-164,-72,-347
-87,-78,-111,1,-82,-244
-92,-50,-128,-338,-68,-35
-90,-35,-125,-146,19,233
-91,-5,123,-116,109,343
-79,31,110,-291,189,491
-73,44,106,-99,140,439
-69,77,99,0,290,432
-68,87,97,45,190,348
-71,109,89,38,153,280
-65,116,90,134,199,148
-56,105,84,313,205,21
113,-13,-51,1909,2803,-4045
-24,-39,18,3191,1674,-3472
-97,45,-99,-434,-834,-2344
70,-53,-40,-393,-905,-3108
-8,-48,7,-958,-2046,-4008
-30,40,-118,-3910,-2619,-4363
-86,109,15,-2402,-1552,-3908
66,-54,81,-1816,-431,-138
47,47,7,-1017,234,1749
-85,69,110,-2316,1236,6207
-79,-90,93,3181,-974,-3001
-86,0,-82,-1221,-293,-507
100,-16,-63,515,-226,-96
-125,-99,-124,-182,415,-169
-72,-38,114,42,333,-609
-50,114,-102,804,196,-590
-12,109,62,518,-643,-394
-21,46,15,1006,-1363,664
-68,-12,-34,1272,-1534,2118
-57,41,-80,267,-412,1992
-15,106,104,-97,-272,2147
57,-98,-13,1748,-1287,3337
121,-115,-44,2046,52,3431
-57,10,-94,1207,-28,3115
-40,-85,-60,1518,-2,2925
-58,111,-36,903,476,2467
-19,-45,-39,2147,559,2673
-45,-43,-56,1468,641,2164
-56,-60,-13,854,-96,1904
-91,-29,-25,-150,-148,583
-120,-70,-1,-662,-204,-124
113,38,-32,675,233,-43
119,54,-45,133,10,-322
-112,6,-83,111,67,-467
-107,-15,-97,373,-140,-499
-99,-29,-128,515,-38,-264
-102,-31,112,166,-35,-201
-89,-12,119,-390,-25,-149
-82,-5,111,-207,-48,-59
-77,16,119,-190,30,40
-81,41,116,-351,-134,46
-81,62,112,-291,-86,33
-85,78,106,-181,35,-15
-84,82,102,1,106,20
-69,93,90,45,198,33
-70,103,88,93,83,84
-73,111,82,60,120,113
-68,119,86,101,141,145
-63,-126,86,132,197,164
-57,-118,84,133,125,141
-26,-83,-12,3738,2272,-3450
-21,-17,-90,-1102,-780,-3203
97,92,-20,580,493,-2412
-44,83,-116,-220,-979,-2431
85,-60,18,-1936,-2429,-3445
15,10,10,-2727,-2348,-4044
109,26,111,-1994,-1126,-2307
46,26,50,197,189,731
-78,-5,31,-3892,2355,4770
94,-48,85,1478,-642,-633
117,33,124,-903,-553,-664
-70,79,-48,-389,-12,-28
-92,-53,-87,373,210,78
-67,-36,100,543,25,-32
10,-16,97,1035,354,-543
-15,92,94,1102,13,159
0,39,-16,1141,-1272,446
13,35,-40,513,-651,1231
9,37,-62,1049,-637,1566
87,66,122,1955,-291,1848
117,51,76,1465,-244,2057
54,-26,68,1941,247,2862
-107,37,106,797,387,3062
-26,4,81,1500,1132,3450
43,63,-69,342,649,3287
25,-22,-117,804,1256,3219
71,-92,-98,1364,1352,3009
81,-115,-18,1214,168,3073
22,44,-47,-1210,380,1536
-120,-35,108,-162,-482,-757
-127,47,-75,506,-625,-788
107,-40,-69,1081,96,-454
-122,-82,-105,1507,420,-407
-99,-71,-116,834,103,-391
-75,-59,-120,-164,-236,-486
-59,-70,-120,-353,-74,-476
-75,-80,-119,9,-181,-449
-75,-59,-116,-325,-86,-192
-55,-45,-120,-287,204,-362
-26,-47,123,333,194,-40
-89,-12,97,-91,35,-165
-97,-33,94,70,-43,-144
-89,-10,100,-327,103,280
-81,3,82,25,176,420
-52,42,83,-87,338,622
-21,61,71,26,406,609
-11,104,75,-19,142,424
-27,122,69,-152,93,90
-43,112,80,282,-50,-32
-39,116,75,105,229,-99
-32,76,66,-3089,-527,-4439
-112,56,-93,-2759,-1025,-1601
26,-87,97,-440,342,40
121,100,54,207,155,2803
114,-59,113,-2891,2017,5260
-3,60,-42,1541,-1587,-1097
-62,14,-47,221,-409,-1210
-125,83,5,249,-174,-228
117,-121,-56,379,-392,-96
-42,-18,-97,10,434,-1095
-30,89,106,1396,298,-648
-44,21,30,1460,-728,-307
-44,73,-44,145,-1141,-436
-82,11,-24,539,-1097,1297
-28,104,-37,557,-638,1938
-58,96,-72,1594,-192,2449
50,-110,-66,1903,-277,2652
45,-64,-63,527,-551,3090
-110,53,-119,2336,1047,2516
-51,88,-124,540,345,2989
5,91,-58,962,708,2927
33,3,-70,2624,698,3053
-21,76,8,-496,311,2856
-56,-19,-18,864,-199,2349
-125,-8,-3,518,-315,1696
116,-113,-11,580,-150,207
94,97,-40,136,86,-650
123,32,-45,309,372,-483
-109,-11,-86,461,324,-497
-102,-16,-106,64,98,-641
-90,-49,-113,457,111,-438
-80,-57,-122,499,93,-154
-80,-28,120,-193,-9,-431
-74,-39,126,-27,-228,-189
-75,-12,123,-188,-38,-107
-69,-13,-127,107,-44,135
-65,17,127,-139,-59,166
-74,46,124,-164,-60,218
-77,69,-128,-361,-85,262
-83,84,122,-204,26,219
-91,104,106,-152,10,69
-98,113,99,-249,-6,16
-42,115,95,-36,214,33
-51,-125,83,-123,40,84
-50,-116,74,-94,140,-69
-69,-117,72,75,40,-35
-69,-110,75,-19,115,71
-53,-109,70,181,204,69
-45,-93,68,-7,38,140
-50,-82,70,-48,137,26
20,121,57,-2262,1260,5109
111,25,87,-655,250,-47
-57,-10,-79,1270,-1234,-3131
118,84,-68,-141,-46,46
127,68,-115,651,6,-395
-60,-96,76,155,83,-459
-55,35,51,956,-57,229
-6,61,-17,547,-780,-154
-33,-23,-31,194,-1215,1058
-2,1,-23,571,-714,1633
7,86,8,602,-854,2357
96,119,-35,943,564,2165
89,-43,19,266,-780,3174
-104,-73,7,1239,540,2657
-52,-95,21,1671,636,3022
-68,-112,19,554,841,2640
-43,-79,40,-771,706,2011
-37,-67,113,-114,551,1242
-38,121,89,420,810,449
-63,69,60,-123,441,-228
-55,-20,49,371,541,-219
-38,-124,38,1059,700,-305
-47,92,56,1111,760,282
-40,-117,48,740,690,440
-27,127,66,1968,621,520
-6,50,96,4024,822,701
29,33,88,3602,836,307
27,43,70,2222,675,-131
18,-31,11,1648,219,-495
11,-86,94,1579,-958,266
46,-42,66,734,412,-17
-2,-79,62,2130,-125,309
6,-72,33,1267,481,533
10,-77,33,1098,285,577
15,-96,41,1620,66,747
22,-59,60,306,413,208
-9,-7,57,-2,68,360
10,-66,43,624,419,-356
30,-122,36,301,616,-84
16,-127,44,-108,403,142
48,-35,1,-2964,183,-1085
105,-39,-105,-5305,134,-1880
66,-88,117,-1925,-751,-28
81,72,102,-3343,-638,-268
22,13,115,-5069,-2496,-543
-3,55,123,-3247,-1560,-22
-4,125,-80,-1478,-547,-283
124,-73,6,-1784,-1901,288
-88,-89,57,-654,-232,277
106,17,-118,-1171,-826,162
-88,73,73,-2633,-1886,-4204
8,-30,-111,-3023,-1757,-1677
72,-85,68,-1243,138,-750
32,14,-38,-853,56,1121
61,126,126,-2200,2021,6689
20,104,-76,-512,206,-743
103,-50,-91,2028,-1310,-3369
-117,26,6,-460,-387,605
-97,42,-73,621,-292,166
-51,-102,117,742,-352,-248
-35,42,79,888,-353,176
-9,87,-19,371,-472,-232
3,29,-18,937,-841,516
-1,54,-39,48,-593,1550
-4,78,-59,-22,-236,2017
35,-110,-34,1033,-1163,2056
65,-95,-66,6,-705,2737
106,-84,22,1286,-834,3078
-2,59,-116,2385,1129,2640
-56,57,-100,1416,200,2650
36,29,-19,539,596,2924
25,-3,-17,1568,254,3112
39,-48,33,2173,237,3244
-45,-37,-41,1093,10,2037
-104,-54,-24,649,-418,959
122,-99,-36,305,-1,-161
111,50,-41,678,178,-217
117,32,-52,485,31,-497
-115,9,-71,103,-23,-748
-94,-9,-87,-630,-71,-979
-86,-51,-103,-142,30,-968
-68,-69,-108,99,32,-797
-61,-71,-126,17,104,-564
-67,-53,-118,-56,-21,-271
-66,-40,121,-103,22,-158
-67,-3,121,-379,-87,237
-72,18,119,-226,-24,295
-80,49,115,-160,52,412
-63,81,116,-54,138,517
-69,98,108,61,34,403
-62,114,107,119,197,356
-61,118,101,183,141,268
-60,123,95,138,121,252
-53,-122,92,94,134,127
-52,-122,92,187,123,3
-47,124,89,319,197,-60
-38,116,81,309,95,-25
-38,120,82,67,83,-103
-40,113,88,176,91,-68
-33,113,83,159,175,16
58,-9,-113,2040,2284,-4739
-27,-98,-82,2240,1959,-4402
91,-38,-29,1351,838,-4349
-40,-35,23,-1230,-503,-2875
-7,126,-61,2617,393,-1778
4,122,63,-2719,-2335,-2962
-28,-123,-30,-1502,-3061,-3000
-54,-118,-2,-2582,-2874,-3805
-76,-27,-45,-1104,-1583,-1265
-77,-82,-102,-235,-247,1963
-113,114,-11,-1504,1835,6409
5,-41,98,1005,67,1307
-108,-42,-89,-223,-1231,-1708
-18,46,-72,1089,-351,-1016
-120,22,-78,-80,-89,339
-57,-66,89,560,-8,-697
-36,90,70,719,99,-503
-18,125,20,22,-779,-322
-33,-1,10,1133,-1033,1269
-72,40,-38,-887,-1473,1311
-58,43,-39,-89,-737,1701
13,102,-32,887,-962,2512
4,-32,-19,478,-641,2274
71,-90,12,1639,146,2386
-106,-106,-87,1365,1220,2353
-78,-110,-116,1729,-358,2648
-15,66,-110,1416,400,2344
-68,39,-88,802,-79,2658
-11,-68,-31,2116,460,2360
-26,-115,-75,2170,803,2264
-67,-60,-6,933,230,1777
-99,-96,-1,595,198,1065
122,-106,1,66,-23,605
111,97,-33,-260,-97,152
-128,42,-62,35,223,-144
-81,-16,-93,253,372,-773
-64,-37,-109,258,48,-1315
-54,-59,-96,250,-10,-922
-59,-95,-115,435,15,-661
-65,-74,-122,86,2,-287
-59,-55,123,-305,-26,-20
-37,-11,112,-379,-76,62
-48,15,103,-272,-300,-2
-77,24,115,-50,-36,190
-78,47,123,79,113,385
-78,70,118,-73,15,365
-75,110,123,-185,110,432
-54,117,117,34,220,227
-56,119,108,188,107,216
-51,-124,90,-105,248,110
-5,-63,0,3393,1549,-4006
-76,-73,8,3716,569,-3138
9,22,-122,-1844,-451,-3501
-114,32,-4,737,836,-2295
105,60,-37,-1172,-542,-2599
123,-85,-110,-1642,-1148,-2683
-2,111,-88,-2207,-1875,-3539
-10,-82,-68,-2503,-735,-3342
22,47,41,-1469,-638,-1761
-24,53,-92,-639,-231,840
76,-10,114,-1311,177,3509
-20,107,-111,-3106,1888,5449
1,26,71,4098,-1503,-4122
-32,125,-31,-374,-1,-334
-126,12,-72,110,-447,207
-92,-106,-98,302,-258,-329
-74,123,-99,-464,-24,53
-37,-109,114,715,-469,-27
-36,43,61,1529,-1065,433
-24,53,35,2429,-494,15
-50,2,31,3386,-510,1645
-32,-48,-53,5330,99,2316
7,-49,116,5535,432,2119
28,26,79,2555,-445,1682
-16,-2,50,3760,909,1175
100,111,51,152,1357,443
24,-78,88,2199,1358,842
88,-24,104,-250,1627,512
-119,121,-126,1479,1770,861
-117,-35,114,-204,1807,954
-67,-85,-88,81,2048,663
-29,65,-76,2338,1732,1575
-20,-56,-46,-392,1659,889
-21,77,-41,-1113,2413,663
-39,85,-30,-1133,1797,1134
-16,-93,-47,-3374,1603,924
0,78,64,-6633,1536,-191
-4,65,89,-4239,-461,-538
-54,54,-61,-786,-786,-57
-58,59,-60,136,-144,131
-44,106,-96,-257,75,-369
-52,74,-100,381,-371,-96
-83,75,-95,19,-497,-122
-79,77,-104,155,-156,-109
-60,85,-103,-43,116,-209
-58,93,-90,76,-120,-22
-37,98,-104,205,290,-173
-62,109,-125,115,68,-184
-71,104,114,169,30,-15
-69,120,99,109,160,150
126,72,56,2224,1760,-4056
122,-96,122,-114,-463,-3219
-24,31,59,864,1442,-3016
-54,-105,-33,1241,1106,-2466
77,82,67,-1204,48,-3773
-50,-79,-7,-3027,-834,-4152
24,-63,-76,-2783,-742,-4304
-77,-66,-114,-3654,313,-2710
19,47,70,-256,568,102
-97,55,20,-1303,718,4181
34,80,-95,993,1220,5389
-17,-69,41,1007,-731,-4057
-116,1,-56,101,-250,495
-87,-53,-49,417,-66,-834
-114,-117,-53,328,-326,-141
-104,-66,-40,-218,-151,-345
-36,-124,-107,678,-81,-664
-5,88,28,222,-1121,-562
-8,44,25,552,-1970,-258
-12,6,-23,1418,-1600,395
-23,74,-66,887,-849,1215
117,41,17,1199,-1024,2495
11,-117,-5,1863,-718,2638
12,105,-52,2086,-52,3234
-86,-64,-41,1964,-1020,3463
0,67,-51,3204,1140,3016
-22,-27,3,-414,672,2818
-46,29,92,1764,-2,2310
-53,-37,42,1302,1894,1974
-106,-48,60,1835,986,1770
125,-45,29,1132,576,1153
103,-75,15,437,-221,775
117,98,-34,98,-566,511
119,62,-59,-520,-178,-314
-111,0,-81,-61,378,-563
-88,-45,-89,226,157,-821
-79,-45,-86,-10,-163,-730
-84,-52,-84,52,-217,-517
-84,-50,-76,-7,-100,-295
-93,-36,-80,-221,152,-111
-87,-19,-81,102,-114,228
-87,20,-93,61,-51,102
-86,36,-95,130,290,197
-72,53,-100,125,305,389
-67,84,-110,57,25,358
-64,103,-116,30,165,342
-58,109,-120,89,176,255
-57,112,-121,211,126,53
-54,114,125,241,170,1
-50,112,127,180,260,-178
-31,-59,108,-2384,-1702,-4364
-52,-18,115,-2665,-1846,-5365
2,-16,-74,-2499,-794,-3617
-22,-4,100,-1955,784,84
-9,-48,92,2723,588,4550
5,3,-59,-2908,2557,8030
91,-63,61,83,-2845,-6604
-13,45,80,1166,710,32
77,66,-124,-590,-680,70
-72,111,-92,1035,233,-110
-68,-73,102,-664,-173,-389
-8,120,105,288,-18,-59
-19,71,54,843,-533,-161
14,63,7,998,-1256,464
15,109,-4,-87,-1313,485
-3,53,7,1070,-656,1109
15,79,-20,1416,-1031,1928
-17,-126,-58,318,-1317,2662
78,122,-6,1076,-366,2470
-102,36,-92,2091,744,3200
-97,-108,-64,1070,-555,3159
3,65,-34,1192,370,2900
12,93,-15,384,411,2480
12,-40,-23,2225,351,2747
-26,56,-55,77,-105,1519
-114,-28,2,942,-145,1154
112,101,-15,2510,530,925
115,-127,-38,567,371,127
126,98,-66,-422,159,-58
-103,-10,-63,201,-296,-504
-108,-25,-87,405,78,-616
-75,-42,-102,151,328,-824
-76,-62,-112,173,-58,-601
-83,-57,-122,-221,-64,-423
-90,-48,127,-250,-132,-257
-50,-33,117,33,77,24
-61,-2,105,-224,-22,92
-67,17,98,-44,29,129
-67,44,98,399,41,246
-79,45,82,607,156,-23
-75,48,99,226,234,158
-53,41,91,442,436,466
-53,75,84,110,33,628
-50,113,80,-549,2,556
-67,124,88,-487,-161,339
-62,-126,97,-218,18,146
-39,120,74,576,114,-23
-44,103,71,754,67,-227
-52,102,52,-132,184,-375
-50,81,62,-57,66,-31
-8,34,45,3462,1356,-4190
116,75,37,1506,-1071,-3317
82,-29,-84,173,292,-3382
-58,-74,105,1445,1182,-2008
52,-102,6,-83,283,-1425
119,65,-55,504,331,-311
99,7,-118,-1156,-1389,-1265
6,17,-100,-659,-2192,-3537
-8,28,68,-2310,-2515,-4615
-53,104,-83,-1606,-1715,-2924
49,-26,42,-1770,-33,58
-98,-125,-75,1120,-241,4618
28,66,111,-5726,1254,5989
-95,91,-28,2818,-479,-3005
37,43,79,555,-891,-469
-127,80,-35,317,-593,-682
-112,106,3,305,-137,-232
-115,112,25,279,140,-57
-32,-30,119,813,-664,-1220
-13,58,114,904,-585,-578
-32,50,5,543,-1725,-419
-62,-41,-18,1188,-1246,1091
-101,-4,-61,154,-291,1632
-112,0,-55,1266,-1032,2428
-4,105,-81,1078,-235,2573
24,81,-58,1758,156,3339
-91,-115,-100,1453,617,3039
-60,-127,113,2102,493,3333
-68,-78,-37,471,-174,3061
-45,0,-38,1900,983,2859
-85,-16,-49,1207,601,2557
-42,56,-33,-159,427,2020
-111,-57,26,1602,-192,1705
124,-95,6,1338,256,1041
83,-126,-23,600,186,390
102,67,-28,23,-99,-269
117,14,-47,-7,-81,-537
-104,-50,-76,211,63,-760
-99,-35,-86,-397,-157,-869
-104,-76,-107,-65,-10,-573
-96,-68,-111,18,5,-564
-86,-58,-117,-103,49,-215
-93,-32,-123,-127,-20,-122
-93,-21,-127,-22,23,65
-94,15,-128,-265,25,258
-87,38,-121,-112,85,315
-85,61,-127,47,238,405
-79,86,124,-24,149,383
-69,100,120,95,250,234
-70,110,108,147,279,213
-8,-54,-10,4320,883,-3318
52,-31,-12,1125,-1460,-2475
14,127,127,344,574,-2735
83,-65,83,305,355,-1787
-40,-70,10,-123,173,-1294
-27,90,29,48,-46,-1394
-13,82,4,666,-284,-743
60,-17,-108,339,-1131,-945
27,-17,-111,-1591,-3085,-3188
-38,15,73,-1590,-3004,-5399
-73,119,111,-1298,-1757,-2670
-25,-103,57,-16,897,634
116,-80,-68,-2798,2575,5992
12,-51,-49,288,-36,977
75,125,78,638,-1052,-1106
10,-99,25,-96,-992,-1550
106,-97,-79,553,-277,28
81,39,127,950,-473,587
94,-81,102,-719,-429,102
-119,-81,78,-63,-433,36
-77,-96,35,927,-1132,-356
-69,71,-15,362,-860,290
-74,-17,-52,611,-1201,1541
-88,-39,-50,837,-1058,1945
-4,76,-82,-152,-687,2231
27,84,-124,746,-153,2067
83,-110,-49,114,-628,2236
127,92,-113,1074,-12,2817
106,-57,-38,-41,-468,2389
-67,82,-93,1719,363,2550
-49,33,-117,2357,456,2335
-56,-15,-88,1461,1081,2212
-26,-112,81,2040,1242,2162
-60,-85,-71,1273,-32,2912
-41,-117,-54,1315,137,1954
-77,75,-50,2577,639,1475
-119,74,-46,1938,779,843
116,82,-59,92,297,-110
124,17,-57,45,-32,-416
-102,-57,-33,241,-30,-770
-113,-101,-37,360,15,-1016
-99,-120,-52,37,117,-751
-80,125,-71,30,84,-530
-67,-115,-82,-58,10,-331
-65,-101,-88,-82,147,-187
-65,-82,-105,-16,30,-58
-68,-60,-110,-126,10,128
-68,-42,-124,-158,132,219
-62,-6,120,-272,-69,231
-61,14,111,-127,-43,239
-103,9,48,-2072,-1879,-4108
119,-112,48,-2796,-2303,-2283
-92,-88,54,-1509,505,757
83,-56,89,-1405,788,3953
-124,43,-102,-1566,2185,5159
-102,-68,37,98,-1467,-3185
30,27,-106,430,-275,-944
-126,-49,-37,-247,33,290
-80,-49,-116,221,150,-487
-40,-21,112,657,531,-1105
-23,-118,79,1439,-386,-517
-42,114,16,782,-1380,-322
-12,10,-29,1241,-1125,423
-20,47,-55,-91,-953,921
-101,29,-85,226,-1285,1654
-38,-113,14,203,-2284,2646
9,112,-70,1769,147,2411
25,-122,-32,1000,432,2566
-120,-109,-33,1246,-653,3534
-69,127,-50,1720,805,2728
13,83,-54,2135,674,3008
-37,-116,-47,949,-52,2272
-40,47,-40,680,188,1538
-114,-25,-43,933,180,1007
113,99,-24,1856,552,863
-102,88,-63,959,626,614
-93,73,-55,505,300,720
-91,27,-50,764,346,459
-93,26,-56,427,188,94
-87,16,-80,-186,171,-166
-88,-15,-104,-140,45,-466
-68,-27,-118,-41,57,-427
-57,-52,-121,201,11,-495
-62,-59,-128,288,229,-144
-47,-39,120,83,154,-6
-56,-17,123,47,-203,30
-55,-9,118,-82,91,21
-63,2,120,59,56,119
-70,26,118,-196,-67,151
-58,38,120,-64,92,289
-60,41,113,298,123,203
-43,61,107,162,179,312
-41,68,94,88,61,289
-41,93,91,-193,9,173
-44,99,89,-87,113,125
-48,97,85,156,158,9
-49,106,83,798,67,204
-33,109,61,497,198,-250
-38,-128,49,-706,19,-370
-42,80,61,213,-69,-105
19,-77,-47,3714,2876,-4830
1,-17,-13,3005,-1404,-2752
-38,-42,58,-757,568,-3282
34,-68,46,1494,203,-1629
2,-2,-102,-383,-1407,-1238
3,-21,66,-1819,-2144,-2728
-67,-124,-78,-1714,-3516,-3943
-91,20,-36,-3065,-2104,-4615
-74,118,-97,-1620,-1098,-345
-20,-95,-78,-920,400,2934
-80,-112,103,-3513,1909,7058
71,74,6,2291,-1058,-3763
-16,-8,-104,531,-601,-914
62,-18,-10,-116,-393,-263
14,117,-28,18,-76,249
62,-63,-71,79,-137,-61
117,-19,-86,31,75,-399
-104,83,76,804,-713,-67
-90,-127,29,168,-1871,116
-77,80,-12,169,-1213,-363
-98,-7,18,633,-521,763
-92,28,-17,989,-465,1722
-100,92,-31,222,-642,1976
-46,72,-49,1716,4,1843
27,127,-61,1057,-77,2923
8,-100,-87,-709,-385,2958
-70,-28,-38,83,-273,2826
-80,49,-45,3103,-243,2772
-35,111,-25,458,-332,2452
-57,15,13,1507,-706,2937
-11,13,47,1399,153,1952
-84,27,16,1373,-162,1510
-120,-93,40,1815,491,1100
117,115,-7,1910,958,732
83,-88,17,-145,377,228
91,81,-5,321,-43,53
117,39,-24,754,246,34
-119,37,-69,-272,273,-456
-85,34,-77,-798,512,-814
-87,-7,-55,433,189,-557
-54,14,-86,160,433,-784
-39,-1,-86,307,192,-614
-33,0,-96,20,135,-642
-23,3,-98,12,323,-590
-27,22,-95,-15,-87,-57
-27,49,-96,-292,91,-90
-53,57,-92,9,-199,301
-50,86,-99,-126,-214,540
-38,103,-109,-141,21,379
-43,112,-110,37,-41,512
22,-62,78,5058,1326,-3366
-77,44,33,1475,-1451,-4076
24,-112,-12,-1555,-862,-2919
-106,-118,-68,1321,907,-1844
-72,-113,81,-2662,-3064,-1915
-39,57,-121,-2407,-2194,-4951
-54,34,87,-3224,-2584,-2310
-92,97,127,-1960,-844,-404
-13,109,-91,693,-376,2171
-46,0,14,-6115,452,6426
71,-7,61,2200,490,-1284
-65,102,35,1163,-930,-2145
-87,119,14,-470,-276,230
120,-125,15,585,101,-403
-56,-64,-98,115,427,-953
7,-110,94,697,243,-1470
-39,69,11,1477,-1954,-804
-58,-38,-58,2160,-2166,509
-116,46,-78,-289,-942,1740
-111,72,-19,815,-843,2341
-45,-111,-3,1948,-527,2922
-57,-85,-35,1481,486,2685
64,-30,-11,1047,-275,3433
-121,-101,-51,2529,1006,1906
-28,-106,-54,1503,1786,1710
118,32,-127,1449,969,2573
-110,-43,-60,1045,435,2545
-90,-64,-44,1328,675,2492
-66,-91,14,1190,443,2082
-93,-37,-10,-62,205,1436
-128,-84,27,181,-334,937
117,85,9,561,-111,119
-122,39,-8,607,479,-415
-125,0,-36,434,142,-583
-121,-15,-58,-452,-143,-571
-95,-46,-75,-82,113,-602
-84,-53,-86,378,240,-298
-64,-28,-102,-116,-66,-195
-62,-21,-117,-332,-72,-237
-63,-13,-109,-72,-41,-58
-64,5,-120,-134,103,72
-65,17,-115,29,28,190
-68,42,-121,-70,55,289
-67,66,127,-22,115,283
-60,75,-127,128,192,310
-62,84,115,150,117,257
-59,105,104,-90,111,162
-52,101,111,136,164,144
-56,112,103,127,91,19
-52,112,104,121,179,48
101,30,36,3597,2281,-4370
-19,46,-3,640,-481,-3951
124,16,-110,600,1254,-2883
-117,67,66,1070,665,-1341
-35,17,-4,-357,635,-864
104,-107,-7,-132,191,77
-47,45,-55,88,-1733,-377
22,108,-51,-1750,-2297,-3403
-8,108,-93,-2279,-2745,-4811
-36,3,84,-2002,-2134,-3779
-5,-54,-10,-2097,-68,-1591
-31,-54,69,-2124,867,3845
-50,-75,-67,-1865,3664,6522
43,28,-57,-379,-2956,-5518
5,-27,-113,1603,579,419
79,83,-30,-445,-591,-353
101,85,-3,1181,284,417
-126,-42,-111,-692,-324,58
-77,-14,-106,206,-213,-439
-44,113,93,314,-928,476
6,81,-13,-104,-1156,-717
-7,20,14,833,-868,368
-29,30,-4,968,-979,1690
-78,61,-15,604,-1072,2141
-10,-111,-20,1177,-1815,2978
4,-124,-16,2255,-308,2271
69,124,9,1841,448,2694
114,97,-57,1943,541,2737
-69,20,-27,851,965,2584
-19,4,1,758,442,3304
-42,9,50,1230,269,3236
-46,0,-39,754,79,2839
-65,-1,-26,144,-101,2173
-106,-56,-29,1146,-187,1656
89,-50,-38,1057,-650,530
95,118,-26,602,-98,-846
110,15,-28,134,528,-847
105,-21,-37,454,-129,-811
127,-36,-50,-156,-138,-719
-99,-46,-90,-269,-9,-657
-98,-52,-98,-210,-99,-414
-112,-50,-107,-43,-108,-147
-115,-25,-120,-142,144,-37
-105,-4,127,-150,71,124
-87,22,120,-70,115,162
-88,60,116,-199,-24,152
-89,67,113,37,101,227
-85,87,104,69,253,153
-87,95,103,96,85,93
-83,99,97,37,179,158
121,22,-102,1083,3887,-5327
53,116,-127,6682,3083,-6012
-19,-17,41,-200,-1955,-2661
102,21,80,1005,905,-1531
-85,-8,22,-642,307,-995
53,106,-22,208,-452,56
43,-74,-122,-1347,-1935,-2067
37,125,118,-1049,-2863,-3504
7,-64,-90,-3841,-3181,-5369
-24,49,-89,-1389,-1362,-796
89,-38,63,159,784,701
-28,80,3,-6023,2078,8443
85,-7,105,2091,-527,-1715
101,69,-121,2285,-1052,-1379
-102,-60,45,-1125,-432,40
112,113,40,993,44,-114
-87,-67,-49,-124,249,-179
-22,-83,-116,642,-194,-331
8,102,8,285,-2145,808
4,51,-54,-693,-2219,426
-75,-94,-72,919,-1392,191
-58,29,-62,1060,-385,1746
22,95,106,823,677,2839
66,-55,-15,517,-1558,2965
-105,69,-100,2825,82,3466
-123,-11,-23,443,-897,3399
15,-71,-44,1112,50,3029
-16,67,37,2179,512,3224
62,11,-78,1506,1752,3485
-6,-35,18,1178,-861,3034
-42,1,-9,68,-604,1281
124,-40,22,722,-124,322
100,75,-23,2071,323,45
73,68,-49,634,-396,-398
98,37,-76,-358,77,-598
127,-4,-100,-558,178,-801
-102,-41,-110,164,101,-799
-87,-34,-124,5,1,-794
-87,-43,-117,39,-179,-786
-90,-45,-124,15,-124,-572
-92,-26,-128,-349,-40,-323
-107,-8,-121,-425,-249,-87
-105,14,-128,-173,261,177
-89,57,114,-241,241,162
-95,85,101,-35,-2,263
-94,95,99,-46,363,333
-90,110,95,88,186,311
-73,-123,74,-14,168,300
-70,-114,81,-95,166,228
-67,-114,86,104,108,111
76,74,33,3082,2130,-4012
-87,29,71,649,450,-3820
112,-98,-16,1381,892,-2995
50,79,-72,1071,1133,-2541
-105,111,38,642,1008,-1903
-32,27,-47,-78,464,-634
95,-128,-45,-85,-143,57
-95,-117,-61,-574,-1899,-767
50,67,-22,-1513,-2060,-3240
2,103,-33,-1883,-1902,-4508
-28,-116,4,-1800,-1461,-2679
-26,44,-41,-877,1443,563
1,-71,-5,-2028,1271,6949
-85,-10,0,-380,2020,3674
-51,-75,-127,1990,-2256,-4661
-45,74,-34,-1297,-407,-275
113,-97,50,713,189,726
-62,84,122,-451,-32,-857
-38,-63,-111,-489,-73,-191
-25,-65,109,-126,-784,-311
-3,77,78,666,-807,-194
-25,94,17,-370,-1059,513
-48,-26,6,1411,-1177,1768
6,64,-24,441,15,1317
51,62,-58,1863,-889,2444
80,49,-97,1866,-412,2267
101,62,-101,1496,1080,2424
-115,98,-102,781,344,3140
12,-103,-63,80,207,2703
-41,24,-73,1909,196,2653
-3,23,-30,331,472,2344
-18,-87,-54,1792,752,2693
-18,-66,11,766,23,2539
-54,34,17,-321,32,1186
-123,-74,34,560,-574,906
113,-120,5,199,24,590
107,105,-62,-444,46,-225
-128,49,-73,-14,-329,-590
-98,-13,-120,438,306,-621
-91,-33,118,326,71,-695
-82,-41,118,117,2,-536
-74,-14,113,-509,-81,-491
-78,-38,116,-67,-191,-406
-95,-11,-127,-261,-208,-20
-98,17,-121,-466,27,181
-60,64,113,-228,210,-62
-70,78,104,-58,87,93
-81,90,90,-21,199,140
-78,109,79,142,156,192
-72,119,66,110,161,136
-71,-10,-13,3481,-2365,-2379
78,-82,103,-858,528,-5037
-89,-80,-42,2261,921,-3503
-20,61,-57,897,1097,-3381
78,-19,83,610,1249,-1948
-30,-17,10,-710,682,-825
-51,-127,-21,36,295,415
116,14,-60,-334,-249,-567
-88,66,-82,-380,-2021,-1709
34,-21,-70,-2085,-2489,-4775
-25,-49,99,-1597,-2920,-3854
-57,-67,112,-1172,-775,-3133
-1,-60,-100,-878,430,1545
82,-23,87,-1471,1661,8603
-63,1,22,-1121,196,-728
-56,121,25,2681,-1023,-1948
-121,43,-16,-228,-155,90
107,107,-50,202,-493,-137
-95,113,-88,348,340,-182
-84,-15,70,-194,-875,-482
-93,117,89,-306,-1227,39
-75,51,12,382,-909,311
-52,36,19,552,-873,1412
-75,92,-16,-114,-271,1133
-41,-126,13,864,-911,1756
46,-114,-38,1451,-592,2243
-33,-112,-66,626,-143,1986
88,-111,23,161,-1007,2658
97,26,-46,2359,740,2599
-67,83,-106,1445,732,2412
-93,-106,-4,-962,-1942,3112
-51,8,51,1011,325,2627
10,-39,-37,2603,690,2693
-31,17,-49,890,-58,1481
-105,-53,-6,858,-439,1506
-125,-116,-6,1086,167,769
116,104,-18,1080,194,322
83,85,-21,312,-440,-24
103,16,-36,113,238,-145
-105,9,-61,-92,360,-408
-109,11,-90,-332,114,-626
-76,-41,-126,217,342,-643
-82,-37,118,152,235,-406
-78,-36,116,-125,-120,-157
-86,-14,124,-150,-127,205
-56,3,-124,-137,-25,159
-83,28,-111,-78,-52,162
-69,35,-111,157,359,364
-92,61,123,-3,102,297
-60,62,111,278,332,265
-117,-46,10,4201,5106,-6503
75,71,107,4108,-1522,-1698
-85,7,-83,-1744,-949,-5587
72,74,126,1204,8,-2982
125,-94,27,446,280,-1426
-91,-40,-41,-655,-344,-342
-2,78,-51,484,-631,756
-31,-62,-114,-1293,-2135,-1735
-11,36,127,-1805,-3295,-4009
-52,-126,92,-3024,-2419,-3513
-89,-45,-101,-120,326,627
90,100,127,-1937,1344,6380
-38,-73,51,-3038,582,4305
0,-103,94,3108,-1351,-4097
15,-31,-70,494,-22,-400
-124,29,-117,-328,-447,-681
82,8,-6,-97,16,681
-112,-39,-85,-32,288,-211
-84,5,-116,295,211,-521
-70,-88,88,752,-605,-214
-42,-115,29,260,-956,-446
-66,44,23,632,-952,949
-56,-3,-40,870,-309,1266
-51,103,-35,-147,-979,2088
-88,49,-87,481,-254,1827
6,-124,65,1201,-1382,2744
25,125,42,694,1328,2302
125,45,-71,2451,733,2611
-54,85,-85,2040,-93,2861
-98,82,-51,259,356,2301
-45,20,-19,909,435,2067
-82,27,-1,644,390,1848
-68,-59,6,1260,263,2211
-104,-18,26,79,-238,1405
-109,-97,11,549,67,1116
100,119,20,25,-357,680
108,68,-3,568,194,695
117,52,-25,578,181,431
-118,21,-57,414,194,-99
-99,-9,-78,432,357,-246
-97,-12,-94,41,-44,-387
-57,-21,-101,-85,126,-386
-72,-34,-106,151,-6,-316
-85,-21,-119,-112,-90,-219
-78,-17,-115,-163,16,-130
-68,-9,-110,101,137,43
-60,17,-127,40,135,63
-58,39,125,-37,86,93
-60,50,123,92,52,118
-73,62,116,134,187,76
5,-101,-83,-2150,-2658,-3561
-59,-25,98,-1609,-1194,-884
-19,-29,-112,-261,1026,3274
-29,-77,-100,-1926,3266,8443
104,63,30,-4566,-1150,-1008
-90,125,38,3614,-24,-4326
-120,-11,-37,-1051,-875,792
126,71,-16,1197,-221,75
-82,-74,-93,-168,-52,-107
-5,-40,101,9,-119,-651
3,-111,52,234,-1446,-880
10,81,57,-102,-1220,341
-49,48,43,206,-1854,1067
-34,58,14,906,-928,1388
-54,126,37,362,-1158,2134
8,-120,-34,1833,-339,1742
83,-87,9,1238,-910,2537
27,81,-20,1792,457,2400
-106,-117,-11,929,-501,2812
-69,69,-49,2026,759,2248
-66,-8,-33,1589,240,2408
-30,-37,-66,561,719,2247
-26,-111,-42,1590,636,2442
-44,-3,-31,-648,-393,1528
-103,-108,16,520,-262,1371
-113,-108,-9,455,87,660
127,127,-46,375,25,175
114,82,-74,132,96,-126
-109,54,-108,-24,279,-528
-93,30,-118,68,130,-449
-64,24,110,-112,-57,-643
-97,6,124,41,-207,-810
-86,-19,-126,167,272,-486
-91,7,121,-204,-155,-318
-83,7,119,-94,8,-69
-76,28,-128,-121,163,-94
-52,53,-128,6,64,170
-79,90,125,-256,-121,239
-80,103,-117,2,395,217
-69,113,-126,251,170,428
-66,-117,115,-124,-14,309
-73,-108,111,-200,121,175
-66,-99,97,-158,66,61
-60,-86,83,-277,14,-83
-61,-102,90,100,11,-85
-46,-94,72,30,157,-52
-52,-90,65,-125,-51,-40
-38,-88,71,-12,114,-21
-40,-83,68,263,158,51
-46,-80,58,295,190,-35
104,31,115,-2990,-2366,-3336
58,-3,-104,-1261,-2288,-4547
-73,36,-55,-4753,-2379,-3106
-39,-68,-101,-242,517,-1356
-110,-121,-82,-2578,1960,4750
-87,-84,62,-4376,993,6709
111,-100,-90,2642,-755,-2857
39,-90,95,933,-167,-1318
-104,-64,-18,-900,-415,423
-43,-86,-20,809,-117,-470
-8,-75,-99,496,41,-972
19,-99,77,1182,-562,-963
-1,-127,34,601,-2215,-436
-31,45,-11,1367,-1910,676
-94,59,-24,-58,-1127,1231
-34,76,-45,574,-167,2070
-75,66,-22,1764,-442,2737
40,-78,-29,865,-607,2989
87,-82,-47,452,444,2686
-61,-101,31,1456,63,2538
3,36,-86,3171,1419,2346
-46,88,-86,1123,-485,2514
-41,-34,-9,1132,-115,2428
-57,-57,-38,1218,383,1987
-70,-100,1,1741,281,1747
-94,102,-10,1376,438,1353
-115,109,-3,758,349,947
114,66,5,290,-38,533
99,21,-10,10,-126,264
121,-16,-34,59,139,-119
-114,-22,-58,-220,177,-484
-106,-31,-84,-318,70,-508
-89,-44,-97,-174,-69,-746
-76,-39,-115,-160,17,-601
-72,-46,-123,-44,100,-566
-81,-51,123,285,36,-326
-74,-27,120,94,220,-50
-70,-9,107,56,116,64
-70,21,103,-163,-77,141
-72,34,111,42,88,148
-68,47,114,188,254,303
-59,60,108,112,127,326
-50,78,99,121,206,382
-56,96,100,-98,21,344
-59,110,108,-302,49,194
-59,120,111,-135,115,119
-52,109,103,269,320,-61
-46,110,93,212,235,-104
-39,95,79,328,314,-32
-37,89,69,339,194,-55
-97,24,34,4467,3503,-4057
-110,-33,28,2143,-1630,-2938
26,92,-99,-9,27,-2763
68,79,80,392,318,-1087
-15,-15,27,-216,50,-896
69,0,-49,182,-860,-1017
-114,-125,-59,-2135,-2259,-3721
-24,-30,-70,-1851,-2492,-5027
-54,-62,-127,-4873,-881,-5660
-63,11,53,-868,-26,97
61,27,48,-4634,2402,6739
-127,69,-74,1351,26,1209
50,64,-19,1421,-1311,-1523
-46,-112,-112,-605,-196,-1207
-99,3,-42,-14,-263,-154
97,106,16,14,-27,466
-83,74,-49,-203,300,-583
-53,-24,-79,630,956,-821
-41,-17,75,796,-431,-1183
-47,101,40,254,-816,-16
-88,7,18,861,-965,1194
-66,17,-8,596,-936,1647
-14,-127,-28,-406,-997,2039
-15,91,-3,1665,-1354,2469
105,-102,-40,801,124,2007
32,68,-90,2153,-393,2684
-85,-59,35,-678,-404,2590
-84,3,-46,3089,1055,2833
-42,0,-27,2331,418,2990
5,9,-63,544,770,2786
-13,-68,-32,1780,714,2543
-39,-60,32,1225,-57,2529
-75,-35,37,604,160,1297
109,-46,39,-319,-801,567
87,109,4,-115,150,-87
90,72,-22,23,-194,-236
122,32,-52,-84,-374,-523
-94,24,-85,-485,106,-961
-95,-27,-105,93,234,-1103
-94,-44,-124,77,91,-901
-78,-54,-128,273,115,-506
-63,-47,116,269,248,-275
-70,-32,111,100,-12,-57
-76,-17,113,-61,-124,263
-81,17,122,-202,-24,450
-80,51,126,-201,40,461
-81,74,-127,-94,195,565
-55,101,124,-59,812,-448
-48,-126,126,337,230,343
-73,-111,-113,-46,-179,533
-53,29,6,-3202,-3015,-4699
-97,33,-120,-2689,-1397,-3930
-58,-20,-18,-674,1369,2398
-64,102,66,-3400,1305,4239
95,6,0,-1833,-43,2536
-43,-83,102,3317,-561,-3876
-93,-92,-14,-1262,-222,-107
126,38,-49,817,-7,-149
84,-84,-76,-701,-137,476
-110,-39,-117,297,-447,98
-94,-17,82,-554,-1186,244
-60,107,20,-8,-2354,399
-67,28,-2,647,-824,351
-72,1,-4,1481,-99,1068
-57,96,-21,9,-41,1633
23,95,-45,1224,209,1899
42,-119,-17,1469,-519,2635
110,80,-82,2572,1005,2461
-70,28,-20,7,-270,2374
-61,115,-1,1296,486,2396
-68,70,41,1335,802,2317
-44,31,9,1398,284,2550
-45,26,-15,430,530,1527
-76,-30,22,1203,-85,1353
-106,-66,26,730,413,932
-128,-96,32,800,-71,426
-111,104,21,644,423,238
-107,91,23,119,101,288
-108,65,10,-33,-13,118
-111,37,20,293,86,-39
-61,21,-18,169,417,-83
-49,21,-51,-149,-12,-174
-41,18,-67,-199,145,-222
-47,7,-91,65,149,-25
-47,17,-95,30,-23,22
-39,23,-95,155,182,135
-43,43,-98,96,14,272
-39,62,-93,-101,29,267
-49,76,-98,-16,-10,256
-40,93,-97,-66,-16,171
-42,92,-104,78,87,179
-48,111,-100,91,-6,143
-31,104,-114,296,240,-79
-44,101,-119,85,24,7
-37,106,-120,-3,218,38
-32,117,-127,70,106,-3
-23,122,-128,73,154,-32
-26,118,126,162,190,17
-24,124,122,-3,76,70
-28,-122,121,-83,46,70
-12,-94,-105,-3218,-2700,-3972
-42,114,102,-666,-602,-84
14,119,14,-1956,1919,4531
-102,-74,-89,-5235,482,7353
-99,-67,-16,1315,-633,-5746
14,75,-35,1845,308,-15
-66,-13,86,-557,-694,-1021
-96,-56,-18,441,219,345
-102,-88,-59,421,-586,44
-55,101,-58,703,-444,328
-23,-101,122,671,-1039,182
12,68,41,1439,-493,132
34,78,2,1260,-77,332
-5,125,-6,606,-990,849
30,112,-10,1278,-212,1079
-13,78,-22,657,-461,1992
-39,32,-1,1042,-78,2034
62,42,-32,1384,-46,3006
103,36,-19,1972,576,2957
-27,113,-29,555,810,2542
-72,22,-9,1665,50,3016
-35,36,15,-67,434,2496
-52,-108,-4,1185,836,2731
-33,-65,33,653,-106,2582
-77,49,-5,-827,-331,922
94,-60,14,66,-662,412
98,86,0,816,158,232
99,99,-39,-483,121,-510
122,51,-65,-629,-129,-557
-124,24,-83,-235,-104,-609
-107,-1,-98,190,258,-500
-84,7,-105,138,55,-412
-78,24,-118,-60,136,-339
-73,21,-118,5,162,-223
-77,26,-128,1,-33,-53
-75,42,121,-193,105,96
-80,65,125,-258,30,166
-72,71,124,228,327,351
-67,103,-128,102,135,365
-66,-123,121,-36,100,285
-66,-119,125,-15,157,198
-71,-110,124,26,61,133
-60,-111,111,131,308,152
-52,-109,112,115,70,-24
-42,-115,107,97,107,-42
-41,123,112,215,211,-79
-48,-120,103,99,69,-15
-43,-113,103,-10,201,40
-33,-125,105,251,103,38
-28,-105,101,-22,162,18
44,75,-26,2320,1485,-5217
4,-46,12,2903,1738,-4328
-127,-7,-5,848,-461,-5375
19,-75,124,55,-244,-3224
-119,-17,14,220,173,-1414
-92,-64,-42,594,-263,-38
69,126,-107,-1112,-2190,-104
-1,57,-60,-195,-2412,-2390
-12,-74,88,-2878,-3527,-2938
-76,59,38,-4912,-1580,-3572
-82,71,86,526,1151,2345
-53,123,-6,-4617,1246,5624
31,112,112,-516,2405,7339
-92,44,-60,2046,-2313,-7147
6,-67,109,1244,916,2258
-121,55,50,-563,-877,-1146
-94,54,28,1087,545,872
-74,29,83,-260,-585,-72
-14,-10,67,429,-611,-358
42,100,-2,667,-967,-81
47,10,-65,-105,-1307,35
-22,-96,-70,753,-1465,1226
31,40,-36,-635,207,1131
36,19,-59,1738,-866,2634
55,-126,1,1037,-535,2570
74,19,-91,1850,76,3353
-58,-102,-51,1453,861,3124
24,-112,-85,1595,475,2826
-10,106,-58,756,276,2761
-18,53,-18,832,7,2146
-46,-91,-20,1784,447,2336
-67,-97,19,537,82,2117
-107,116,5,606,-11,1536
-128,-124,-6,-290,-39,483
110,99,-36,-356,103,215
97,88,-46,-79,-20,-48
112,39,-82,261,74,-412
-127,25,-98,64,157,-739
-68,2,-112,100,329,-870
-77,-51,-125,808,-225,-1056
-79,-44,-123,-142,32,-852
-81,-45,-128,-248,21,-464
-87,-45,113,103,67,-13
-77,-5,109,-174,173,124
-72,7,107,64,41,227
-66,49,97,-244,169,423
-68,62,92,-87,-3,388
-63,90,96,-126,175,308
-60,107,97,-56,107,279
-68,119,96,25,8,135
-48,76,-28,1668,1627,-4836
-64,-76,-8,1715,1083,-4740
-124,0,-95,955,1572,-4706
-112,47,116,982,-1018,-2388
-23,111,-44,-263,121,-1008
14,-32,-50,-96,-612,569
40,-81,123,-1030,-2028,-375
-50,80,-80,-1130,-3111,-2966
-68,-77,-100,-2494,-2886,-3628
-110,-99,17,-1907,-1736,-1822
-52,-22,-125,-1651,1423,3223
49,127,113,-874,1460,9666
-63,19,37,-5798,4,898
-80,-86,-113,6017,-818,-3989
-73,49,-79,-1744,-31,868
-107,-42,-83,389,-340,-290
-107,-100,-4,298,279,307
-39,-78,-113,752,280,-125
-8,-76,106,419,590,-471
-37,15,45,2894,-806,1078
18,40,-45,1231,-1053,403
29,-72,-38,2136,-554,2182
57,-78,-87,1909,-34,1876
-89,-11,127,2005,550,1240
-100,-83,116,981,522,2509
-87,-60,99,-161,1289,2140
-38,8,-112,-1616,-257,3652
13,57,-85,-1743,418,2696
32,-19,-128,83,437,3225
47,91,-82,-1261,-489,2491
33,-17,-109,2070,-323,2561
-34,-52,-10,1686,-665,1985
-65,-99,23,1400,-143,1549
110,-120,38,1489,-92,1082
99,-108,13,174,52,110
84,79,-13,-129,79,-446
111,93,-61,-1806,415,-1089
-119,-24,-82,-143,161,-605
-78,-9,-113,-385,508,-966
-62,-14,123,224,385,-623
-49,10,106,-153,275,-930
-50,1,105,194,33,-554
-64,12,96,34,78,-282
-79,27,109,-70,-142,-169
-68,47,95,-29,243,-45
-21,71,117,-70,92,234
-12,97,98,8,-10,333
-103,-118,102,-261,-286,154
-91,-119,125,-225,62,64
-60,-123,118,169,128,291
-22,-13,29,4769,2414,-4490
23,-76,17,3519,-1186,-3515
-127,-17,114,-30,-298,-2530
-39,9,-32,-494,-112,-1266
61,-8,-109,-261,-1194,-932
58,44,94,362,-1931,-1685
-13,-15,77,-1238,-3116,-4144
-29,89,76,-2735,-3591,-3374
-86,-16,81,-1374,-450,-1852
-77,-106,-75,-1493,2170,5565
87,-81,91,-2768,1973,6211
44,-55,-95,-2476,-1450,-374
119,-43,72,2973,191,-3406
-85,127,125,-900,-356,34
123,73,-118,-380,171,227
-61,-70,120,214,709,-95
-31,-100,107,631,-21,591
16,-109,-34,395,-1411,139
55,38,-44,1008,-653,763
17,62,-54,-37,-878,1370
2,46,-77,213,-486,1790
68,67,-58,1146,-1384,2934
58,59,111,782,302,2662
-116,-87,-19,-689,-1049,3393
-6,47,-100,2211,1346,3080
6,69,115,1214,444,3105
31,90,-54,259,-955,3216
41,-99,-95,2596,810,3178
50,-13,-31,2288,352,2887
-52,-15,-18,1297,-266,1808
126,-22,9,206,-306,434
97,-101,-4,125,110,-238
101,53,-35,-164,65,-687
124,8,-33,69,87,-789
-98,-53,-89,428,508,-936
-89,-52,-92,-119,-24,-907
-71,-64,-117,-154,69,-685
-66,-49,117,-323,114,-651
-60,-38,123,-150,-14,-375
-57,-8,108,-268,-5,-331
-60,14,115,-163,8,-183
-59,28,106,-145,39,-185
-60,42,109,-250,26,108
-67,57,107,-125,12,202
-70,80,105,-114,139,319
-72,98,103,-129,138,360
-58,126,101,-85,173,410
-55,-114,105,-111,65,447
-60,-97,99,-66,125,236
-45,-92,100,191,301,113
71,10,-35,3331,1989,-3715
-122,-41,-25,3105,-145,-3595
123,107,78,-1273,-576,-4657
-74,-103,23,876,-609,-2507
-121,120,-42,734,-182,-1444
-89,110,-91,-331,-1175,-1014
-24,-13,-95,-2142,-1694,-2237
-77,-16,61,-2352,-3461,-3533
-108,-115,-76,-4706,-938,-3218
-102,76,33,-944,461,1530
-42,-44,65,467,1659,6981
25,75,50,-6291,1624,3596
-19,-62,125,1640,-2246,-3874
41,103,2,2165,892,-1767
68,-81,-92,-1318,-203,548
-127,-95,-70,32,-247,206
-84,-100,-64,-145,-21,415
-27,-70,117,-115,-122,171
6,-98,41,365,-1234,218
7,76,20,344,-1287,942
7,74,-23,330,-715,410
55,82,-13,1248,-186,1241
56,-107,-25,753,-1292,2318
67,124,-8,1772,-51,2055
-127,-109,-13,831,-1170,2796
-104,126,3,1412,369,2588
-57,94,-46,1822,661,2521
-52,79,-22,754,-383,2597
-38,63,-13,197,757,1984
-62,-76,-26,2118,8,2442
-72,-97,9,1460,-49,2082
-71,117,38,1175,216,1933
-88,122,-7,-92,99,1054
-109,-128,-22,-579,-53,647
99,103,-53,-543,-412,194
121,47,-76,141,31,-146
-122,25,-90,19,144,-560
-108,-44,-109,621,323,-422
-95,-7,122,-421,42,-557
-86,-3,117,-411,-146,-703
-79,-14,113,317,124,-621
-87,-20,122,223,8,-397
-90,8,113,-94,-3,-73
-85,16,111,-83,137,4
-78,40,112,-91,88,54
-73,57,103,-105,45,230
-78,87,113,-322,48,245
-75,96,109,112,225,333
-64,127,106,-109,210,260
-58,-123,101,60,106,130
99,-94,26,-3402,-1716,-3429
79,-16,81,766,1210,-5493
35,-15,101,4796,1466,-4935
28,-16,-39,-198,-505,-4710
-43,-2,37,-1612,161,-2898
-124,75,-115,1995,-125,-1590
-54,108,-93,-829,-111,-386
20,-78,-71,-1175,-1500,-696
100,-39,44,-2793,-2431,-3508
123,-121,16,-4262,-1802,-4076
107,109,-65,-3135,154,-1635
61,-57,-4,-1777,1712,2959
120,39,62,-5850,701,9377
47,28,-103,1668,582,-608
-9,-25,-127,2064,-355,-4033
97,36,-74,-1208,-230,851
113,65,-55,231,-303,-118
-105,123,-13,433,150,785
-55,0,-115,371,-573,593
-41,-25,-119,2685,-250,1128
68,97,-34,1091,-322,-252
62,71,-45,-636,-708,75
39,-74,-68,304,-587,1955
54,-7,-72,-1097,-1193,2179
93,92,-70,-1754,-894,2966
-74,89,37,1800,-1997,3156
48,5,57,-686,-1210,2854
12,-124,76,3089,-866,2837
72,86,-101,2486,370,2497
0,-127,-10,513,-1153,1119
-36,-32,56,1955,818,1886
-81,-79,8,2032,172,2113
-112,-80,18,870,-339,2158
-122,-96,16,377,-129,1550
96,-109,14,126,-272,509
92,94,10,270,80,-363
117,47,-9,53,347,-742
-108,0,-45,-3,320,-931
-98,-35,-65,236,212,-918
-100,-89,-81,771,412,-697
-95,-57,-110,82,290,-621
-86,-54,-124,-33,199,-181
-59,-21,118,-316,248,91
-83,10,127,-190,-337,-100
-49,36,-125,-240,353,162
-72,58,-124,-185,-148,238
-68,71,118,6,165,265
-62,108,119,-271,125,111
-60,101,114,142,48,47
-52,104,110,220,90,3
-2,-25,89,-4070,-1739,-6056
58,-94,-70,7042,4558,-5117
-17,-41,20,1147,-2544,-5219
-116,-13,-33,-1446,330,-3447
106,-7,-18,2260,72,-1514
-80,-71,-97,-1356,-555,-941
64,94,-104,-1221,-1622,-844
-87,-18,-43,-2216,-2274,-3060
-127,-51,19,-3354,-2209,-2558
-128,-87,-50,-1030,-76,-1021
-113,-71,-107,923,5961,9390
-107,-73,-100,1851,3253,3173
-115,-113,-111,-5416,-3641,-3480
-32,-47,87,2984,779,-785
-56,32,52,-600,-607,418
-34,-109,123,627,106,82
8,-64,40,-381,-306,30
46,113,21,77,-107,-49
54,8,-4,-418,-240,-14
50,-19,-29,-949,-915,691
66,-15,-75,-1134,-224,1671
69,126,-6,-1181,-2166,3359
-66,-68,-44,806,-613,2089
-9,59,44,-1643,-1967,2266
6,-119,50,1999,-712,2607
53,97,-5,2630,-187,2369
90,47,-15,3308,-31,2647
8,83,-81,873,289,2264
3,32,0,1253,-389,2404
-14,-81,-71,2163,666,1888
-61,-28,-42,163,-16,1353
-100,-104,-20,334,26,1099
-121,-63,2,-2410,-5,-1485
-89,-73,-23,-1584,917,-1054
-98,73,8,1095,75,-307
-79,76,-39,966,-82,-70
-60,44,-57,732,138,31
-42,2,-123,302,320,-928
-25,10,-119,-112,254,-457
-19,4,-106,-203,-176,-435
-29,10,123,78,281,-268
-39,38,-117,-112,119,76
-25,69,-127,-14,1,18
-33,94,-125,-79,-6,202
-35,106,-118,-80,61,192
-39,126,-122,14,3,147
-39,-116,-118,-109,76,205
-39,-117,-115,119,88,180
-31,-112,-123,132,124,222
-33,-108,124,73,85,129
88,45,-78,6813,5577,-6014
-90,-77,-11,-1790,-2632,-6425
28,-62,25,1049,927,-1870
-1,30,-3,-546,341,-840
38,-67,-102,310,-432,-234
108,-70,-106,-672,-2005,-252
-69,-49,0,-912,-2119,-3352
-71,-66,120,-3899,-3387,-4047
-108,-84,-120,-4088,219,-3503
28,-109,20,-950,484,5052
-24,17,115,-5023,1034,7478
87,-93,49,1114,1299,567
65,-25,94,1753,-688,-3323
118,-96,-109,-424,-509,551
-103,-118,-59,1206,-4,-147
-116,-58,-74,176,-264,406
-35,119,126,1152,153,384
0,-128,35,1398,-1109,273
54,40,-24,1301,-1529,-113
38,-51,-51,1398,-1327,1089
51,10,-59,-1717,-1283,1362
-13,-104,-74,541,-660,2288
37,-56,-76,3021,-93,3723
119,-99,-94,532,727,3134
-34,-40,-96,1094,72,3579
11,20,-86,-2488,1012,1723
-58,71,92,1379,369,2734
12,120,38,-54,-299,2585
-43,36,3,717,-1208,2161
-86,-53,68,1038,-638,1641
-88,-104,17,1914,345,1285
99,-76,-20,1040,-559,674
104,-119,-23,-48,-102,-89
118,87,-52,-265,187,-452
-122,12,-61,291,-11,-650
-97,33,-82,-715,82,-758
-97,-1,-104,-283,19,-623
-89,2,-102,-34,249,-400
-78,25,-119,-231,204,-453
-74,26,123,123,108,-294
-71,33,124,105,490,-152
-59,64,112,173,491,-68
-63,80,121,129,102,109
-61,95,115,-32,202,320
-53,104,125,322,-192,840
-69,118,119,-241,-653,731
-66,-111,103,-844,-347,301
-73,-109,110,-269,-23,370
-78,-117,107,351,-348,421
-67,-99,88,-112,178,69
-74,53,-2,2823,3402,-5650
115,36,-103,6626,-828,-4657
96,-124,74,-1784,-649,-3465
60,-107,15,1472,365,-1696
3,-85,-27,-1367,-1115,-1195
-102,107,-91,-850,-2102,-2818
-43,101,-102,-2573,-2605,-5244
118,-91,-26,-3197,-1831,-3990
110,-72,-17,-611,380,-1102
122,8,-65,-370,2736,6331
67,-58,57,-2185,951,4604
-22,27,-10,-1626,-2202,-2324
-59,77,-13,1802,578,-1554
99,23,-124,-645,-410,269
90,93,-52,-324,60,356
-115,-25,-69,-159,341,189
-50,-17,100,634,494,-627
-11,-93,40,482,-214,-313
10,62,-33,-115,-965,156
-18,-13,-46,921,-1565,1006
-33,-21,-59,236,-1121,2279
16,117,-90,460,-921,2721
116,-81,-84,1029,-1278,2592
110,-108,-48,1280,-15,2255
-65,-125,-53,2119,498,2606
-40,84,-92,2475,821,3161
-45,68,-106,2163,582,2728
-25,53,-5,1274,-533,2634
-45,-9,-5,259,1111,1984
-79,-75,14,1252,343,1986
-99,-68,6,658,404,928
-118,-70,-26,-673,-243,381
88,-117,-12,-742,-883,82
127,45,-63,622,543,-5
108,23,-71,609,132,-278
-118,-2,-105,-19,0,-428
-93,1,-118,-493,-49,-484
-80,-32,-119,287,180,-492
-85,-20,123,55,107,-475
-81,-30,-127,173,55,-276
-66,-33,-121,313,-17,-75
-88,-2,122,-416,217,25
-79,6,109,-146,184,312
-72,31,91,-151,130,373
-63,57,89,-61,144,427
-60,80,85,-185,124,361
-61,97,85,-205,15,304
-58,117,84,-256,31,57
-59,124,91,-289,-38,80
-54,107,90,402,246,130
-111,-30,29,-2640,3516,-3197
30,16,22,7106,1475,-4041
3,-62,51,1945,-1836,-4084
-73,27,-101,-673,71,-4724
-41,-57,-101,1163,138,-2618
32,-108,121,517,724,-1333
-124,47,-71,-1398,141,-702
6,-99,74,1160,-1438,-500
66,126,55,-1976,-2721,-3666
-91,-9,106,-2663,-3443,-4362
-102,-69,-45,-3838,-1437,-3622
-88,97,4,-3571,1115,2519
81,53,109,-1211,1164,5858
33,-67,-83,3573,1930,3875
42,-65,-125,-1073,-2067,-3748
-45,-4,-85,756,243,77
-128,90,112,-636,-336,-253
105,80,-59,247,156,635
-94,68,114,-766,-730,-116
-69,103,126,336,-713,209
31,-78,-23,-376,-1017,-738
-3,20,-33,-113,-881,206
-12,-26,-60,1375,-1624,1186
16,115,-56,-859,-1148,2501
7,111,-50,470,-1275,3430
116,-115,-80,1774,-218,2071
-115,-80,-64,896,-741,3113
-35,-90,-83,1937,521,2530
5,84,-42,2655,-412,2832
3,74,-77,1760,777,2123
-22,-55,-41,3007,221,2462
-36,-54,-28,937,585,2171
-43,-111,-11,1443,415,2012
-119,-25,18,-91,-842,846
98,121,51,523,-315,-156
94,58,22,261,312,-432
110,19,-7,-294,56,-556
-123,-27,-62,-354,27,-565
-104,-58,-86,60,266,-632
-84,-60,-117,195,326,-522
-84,-70,115,413,105,-335
-74,-44,106,-222,69,-291
-94,-40,102,-281,-198,-29
-97,-23,98,0,66,74
-87,24,96,-342,-1,304
-86,37,95,-98,15,426
-37,76,97,148,335,321
-63,99,87,135,-11,142
-80,126,104,-627,-89,37
-99,102,88,-117,175,-231
-106,38,74,-3544,745,-3732
-77,41,34,5705,4817,-5717
-15,-49,111,1747,-1805,-3320
-45,-34,-101,-272,33,-3046
38,-23,4,539,-26,-1868
44,-106,118,173,156,-724
-49,-39,110,-1232,-1639,65
-96,41,-112,-461,-1513,-1444
5,-107,-30,-1915,-2607,-2901
-73,-101,6,-2919,-1913,-3722
-112,-68,-46,-2343,-429,-208
17,5,-88,-220,4672,6156
-26,37,87,-2518,1379,6577
98,-38,40,-257,-1864,-2458
-5,120,-119,1219,-339,-1520
-79,-4,-79,-698,-305,213
-13,-88,-76,730,81,-363
-5,-25,-113,-339,33,-510
29,115,-116,216,1322,-813
46,-108,56,513,-611,-878
67,91,-7,152,-1260,-236
36,-3,-24,593,-928,1502
39,39,-55,170,-1624,2771
18,75,-89,-133,-811,2318
-126,100,-89,1505,-101,2807
-74,-125,-81,1700,-121,3074
-55,108,125,2245,234,3391
42,93,-116,1295,134,3281
81,-81,53,1576,1562,2726
80,-41,-63,1302,-388,3863
69,-90,-89,1023,313,2689
-50,18,-3,325,-1273,2137
124,-81,-23,881,-467,20
74,103,12,1147,238,-32
60,31,-22,964,628,-109
80,86,-49,-878,-169,-766
-117,1,-78,-211,56,-1172
-68,-44,-111,-114,89,-1228
-95,-39,-117,-684,-149,-1269
-73,-63,116,-445,227,-1108
-70,-53,107,-288,-2,-791
-45,-46,98,31,230,-462
-19,-42,97,448,380,-348
-61,-40,75,479,87,-107
-70,-35,90,102,117,295
-78,-24,92,90,145,672
-69,-1,108,335,442,704
-28,24,107,469,721,1225
-30,103,102,-259,-144,993
-45,-109,109,-488,118,517
70,34,-88,4597,1274,-4209
-112,118,-80,272,-1963,-3636
-89,-62,8,-760,-469,-3451
93,-31,-25,1078,-285,-2006
61,-51,-120,-873,-2859,-2671
43,-90,-65,-1872,-3284,-5542
69,-41,10,-3774,-2751,-5382
55,7,-96,-1268,212,429
27,-93,99,1412,3499,7148
-44,-86,101,-1352,75,3384
-123,101,-117,-1978,-1803,-2363
-51,31,127,1262,-65,-1910
70,93,-109,460,-563,890
80,-122,64,758,-466,533
-107,-52,62,198,-102,21
-107,-71,40,655,-932,695
-42,74,-39,211,-565,739
-37,73,-81,-361,-460,1421
5,42,-101,482,-706,2150
37,99,-125,540,-1475,2803
84,-92,-95,149,-546,2786
121,100,-126,1515,94,2769
-24,-83,-84,2298,-55,2997
-3,-121,-117,1433,695,2442
2,107,125,987,816,2436
20,-71,-96,2789,391,2796
48,-100,109,1703,1197,1968
-25,-88,-54,1248,214,2295
-77,-69,-13,381,-380,882
-119,-93,-10,306,-143,55
127,58,-28,587,289,-392
-124,25,-62,-116,107,-663
-91,-12,-89,-313,141,-710
-67,-53,-120,-74,216,-839
-51,-63,124,71,128,-695
-49,-59,114,37,-9,-519
-64,-59,109,-50,-69,-371
-58,-32,104,-279,58,-103
-60,-10,93,-362,-106,114
-45,19,92,-405,-110,138
-34,42,87,-302,-40,-45
-52,59,95,-300,-211,-1
-58,70,115,-107,77,25
-50,70,110,341,366,-50
-53,94,115,150,217,151
-55,97,101,102,211,236
-36,98,90,369,386,304
-48,120,78,28,192,261
-44,126,72,-9,328,135
-23,118,61,304,267,86
-114,30,-54,5103,4046,-6911
64,-99,77,4819,-1520,-3805
104,25,-126,-608,-682,-4892
110,47,101,1085,-267,-2064
123,-104,-18,-432,-832,-737
15,-80,78,35,-2078,-1145
-25,15,-27,-1925,-4188,-4452
-52,52,-100,-1190,-4183,-5264
113,118,108,-4606,-1916,-877
31,96,-114,123,3943,10675
-65,118,-96,-4430,1046,2693
-56,-52,-116,275,-1791,-1414
10,119,-116,1714,-243,-1521
-115,-66,-74,-332,-253,152
-125,56,-102,960,-376,637
-58,-6,82,-832,-3,-533
-34,52,117,1021,-65,427
-10,92,-36,368,-1432,143
37,38,-44,-62,-642,1283
9,-1,-97,288,-791,2110
74,60,-100,350,-1696,2847
86,100,96,978,-764,2563
-97,106,-84,1769,383,3157
-65,-108,110,864,-751,4111
-5,-48,-25,969,-267,3907
-117,-23,113,4161,1149,3388
-118,0,110,2135,1379,3399
77,25,-83,1118,-41,3404
-102,98,-5,-288,-1524,1843
102,43,-18,-209,-586,-265
83,93,-47,1051,565,-1008
83,-2,-68,1102,786,-1112
103,-32,-73,838,306,-913
-117,-50,-87,28,222,-1040
-86,-54,-98,-612,-229,-1052
-74,-95,-102,89,-79,-808
-74,-83,-112,-40,-23,-838
-68,-68,-128,-248,-47,-515
-83,-56,122,-383,-82,-134
-93,-33,116,-219,-62,108
-90,20,96,-482,164,312
-76,36,90,-129,129,385
-66,68,82,-159,159,352
-74,96,78,-346,127,302
-71,103,86,-121,174,323
-63,116,76,-29,204,259
-59,-115,79,-183,400,12
-60,-126,80,287,91,62
-57,-116,71,22,34,-17
-54,-120,67,-52,-74,-117
93,92,107,3467,1611,-5028
-12,-112,0,6176,-1428,-5295
99,16,39,-1460,-1514,-5934
92,56,5,-973,-615,-3263
1,-126,-29,1189,-647,-1147
-58,-33,-100,-752,-2731,-658
-118,-39,-122,-2768,-3772,-4859
120,106,-13,-4323,-3110,-3786
99,55,20,-1383,1606,215
102,49,37,-2065,4194,4885
-93,113,-59,845,-79,2871
-33,25,-68,233,-1740,-1645
-69,-51,121,-127,-409,-1360
103,-73,-120,-130,-546,875
106,-30,76,483,-330,1690
-66,56,-14,-265,-1452,2626
26,-106,-53,-1380,-984,2141
110,116,-90,-236,-812,2209
-97,-73,-110,-23,-983,2799
-106,-94,-117,558,-1485,2552
-3,-66,117,-2,-724,2398
-3,-117,-101,2192,-405,2928
65,-111,122,1816,183,2670
62,67,91,3210,-178,2953
48,13,-121,2331,499,2668
37,-10,-102,3005,784,2002
-28,-66,-101,2225,1067,1141
-123,-41,-48,109,-419,578
102,117,-24,195,-236,-97
-121,41,-53,-54,234,-546
-111,7,-79,-296,65,-766
-88,-22,-106,-391,113,-835
-60,-68,-126,-84,108,-920
-51,-64,122,-38,74,-807
-47,-73,107,-26,182,-657
-50,-71,89,141,25,-539
-45,-56,91,-85,-31,-133
-54,-38,87,-227,-9,-41
-58,-6,97,-132,133,257
-49,27,97,-155,234,324
-49,58,94,-114,-94,461
-37,90,86,-167,84,310
-49,106,78,-185,71,83
-50,106,79,-98,39,124
-52,105,72,70,185,159
-48,117,66,-5,209,14
-45,-127,65,-122,103,39
-32,122,67,122,111,-59
-35,-124,63,-40,89,-99
-41,125,63,6,142,-92
-13,11,-32,4046,1323,-3729
90,0,-66,1960,-1531,-3690
28,-93,84,-597,-625,-3463
103,-102,85,1395,547,-881
22,11,50,-866,404,-267
31,-88,29,121,789,196
22,2,-82,-115,-112,156
60,54,50,536,-1745,-1334
-11,-36,42,-1168,-3407,-3137
-41,103,77,-1205,-5040,-5192
-7,-20,104,-5024,-4120,-6345
98,77,-37,-1167,392,440
83,33,54,-2427,4053,7732
15,4,-37,-765,-644,343
-38,90,18,75,-1244,-474
-107,75,-66,1294,-468,-1154
58,-58,25,-417,38,953
106,-12,-100,236,-504,38
-102,-98,124,825,-189,324
-44,45,-5,748,-1109,143
0,9,-119,-475,-1621,274
13,16,-122,183,-1546,1224
16,33,-92,-14,-875,2279
17,-106,-79,424,-1547,2591
90,-66,-95,2086,71,2097
29,-60,-36,1959,-515,2964
-116,-60,-76,1696,654,3011
-84,-102,-106,2968,-60,2962
-78,-113,-38,730,763,2515
2,-77,127,3137,1650,2520
-23,-59,126,1971,793,2242
-88,12,-13,48,-731,1724
122,-106,13,656,-41,747
93,-123,7,562,206,216
98,82,-44,199,72,-158
113,54,-79,-820,68,-577
-116,-23,126,98,357,-635
-109,-14,-116,-57,-87,-802
-77,-45,100,102,313,-647
-77,-38,93,-54,-136,-683
-74,-28,103,-364,-326,-446
-73,-30,96,-178,60,-363
-83,-17,95,-196,-115,-164
-86,2,87,-498,-165,48
-94,24,100,-305,-40,76
-83,35,105,251,485,250
-81,61,112,266,535,282
-65,98,107,118,337,566
-64,-125,108,-158,-4,643
-70,-111,88,-226,103,441
-33,-39,-58,3108,1898,-3692
-127,-80,-34,3829,1337,-4096
83,-41,-117,-98,-695,-3523
126,11,-13,-2648,-231,-3729
-127,-40,-29,1922,276,-1602
-103,80,-44,-904,438,-299
12,69,13,-559,-247,705
117,-115,-92,-136,-1454,-822
19,-106,107,-1155,-3465,-3328
-25,-38,35,-3538,-4450,-4080
-118,-19,126,-2857,-2041,-1512
-108,54,-29,-692,2814,3542
-64,9,-117,-6573,1861,8280
100,127,126,1720,27,-2170
97,106,74,2613,-604,-1210
-61,39,-90,-1623,-780,-429
-60,60,-1,732,257,-101
-51,126,-61,370,253,171
10,-54,82,199,-887,-242
22,19,71,-116,-487,-304
39,68,6,-61,-1488,370
35,-62,-11,873,-805,1616
26,50,-20,349,-1398,2426
-122,-93,-79,134,-870,2254
95,-66,-64,1493,-1646,2741
-64,-10,20,526,-1427,2712
-102,120,-38,2684,-127,2898
-31,-112,-25,1979,-155,2883
-5,20,-92,2929,133,2450
-60,81,-8,409,387,2275
-29,-64,0,2052,166,2209
-66,-54,-42,1421,244,1197
105,-61,-5,251,-423,389
84,54,-9,1567,152,-39
78,49,-21,576,256,-220
105,19,-58,-261,-3,-540
-116,-16,-83,-36,36,-581
-103,-30,-110,-128,86,-703
-91,-34,108,-449,86,-786
-84,-58,120,71,-178,-643
-85,-62,111,195,139,-397
-88,-36,106,-257,-100,-212
-89,-20,106,-284,-78,171
-82,21,111,-250,54,56
-90,41,103,21,68,247
-93,72,98,-255,29,302
-92,94,87,-64,101,255
-89,120,76,-287,95,207
-79,124,75,-326,104,214
-76,126,74,-141,149,142
75,-7,-56,4144,2393,-4364
83,113,-36,3559,1220,-5676
-126,-62,-74,1260,-1312,-4871
-2,-11,109,988,-276,-2887
77,-41,79,-454,834,-1521
62,-92,-73,7,-974,1296
-84,81,62,544,-1458,90
30,97,-101,-1035,-4260,-2640
-26,-19,99,-2238,-5195,-4664
-99,-59,-79,-3719,-2046,-2993
-61,-9,-14,2430,2050,6540
97,-82,-49,-5882,4040,5830
24,-104,-113,1636,-2622,-2022
31,64,-117,505,-468,-216
83,5,-13,-65,-249,71
114,-96,-96,190,-152,742
-71,-39,75,656,-189,565
-27,-33,40,771,72,606
-25,87,33,1474,-388,1096
5,66,-31,1754,173,593
-6,8,2,618,1323,1535
95,-5,-73,2879,264,2164
109,16,-115,1447,-658,1960
116,-75,-117,1956,619,1869
-80,112,85,2088,1195,1542
-34,-102,65,1598,278,1846
-88,51,82,2623,1120,1740
-45,30,61,1509,1892,824
-27,0,81,1173,1668,1284
-10,-69,127,959,1935,1063
32,106,-58,825,2138,1606
39,-74,-105,-578,1504,1812
27,-25,-120,-1756,529,1082
-11,-92,-73,-1396,634,905
-59,-77,-82,-1684,502,655
-50,-52,-110,-2459,640,497
-87,-4,110,-3335,-335,168
-83,5,81,-2115,167,313
-90,60,112,-978,17,283
-83,88,125,407,219,157
-60,105,123,17,33,-607
-66,115,97,-830,122,-858
-54,91,97,-776,188,-679
-44,68,101,-27,317,-577
-43,73,88,33,297,-370
-41,105,74,-397,4,-261
-37,109,71,-680,-384,230
-48,-119,78,-625,-315,-25
-58,-110,69,-187,19,37
-64,-93,68,-269,202,-20
93,-7,-105,4335,1885,-4596
-116,94,-62,3941,2171,-5459
6,-105,-78,1801,-2352,-5096
16,-88,30,-1635,-951,-3121
3,2,27,1386,77,-995
-15,-56,-95,-490,-1005,-91
-49,-92,64,-436,-2723,-1128
-57,5,11,-1526,-4248,-3292
-103,-30,-8,-4248,-3579,-4509
106,54,28,-273,2023,1469
82,-26,122,-77,4149,5226
-94,-9,89,-3144,-256,2234
19,-97,-52,257,-1134,-2173
-6,16,127,574,268,-946
100,27,125,-367,-360,500
-81,-109,96,195,144,418
-46,-67,20,388,-697,813
25,88,-8,96,-597,882
41,64,-75,-411,-1460,942
59,26,-107,-447,-1040,1020
106,50,125,-579,-18,1831
110,55,-128,983,-958,3245
-69,123,-110,798,-710,3762
96,101,110,1608,-66,3937
-60,-107,90,486,599,4063
-52,29,112,1559,94,4434
51,26,-73,1912,-330,4289
-12,19,-43,2865,-38,4258
21,-66,-10,-81,-2074,1072
67,-31,44,385,-2056,-142
43,88,20,1063,389,-196
61,101,-40,-5,1289,-861
-128,32,-70,60,1132,-1601
-73,-43,-87,620,957,-1608
-43,-71,-99,290,627,-1759
-3,-98,-105,57,283,-1686
5,-106,-97,206,13,-1071
-27,-124,121,420,47,-731
-31,-80,-116,-274,-104,-357
-41,-77,106,-336,78,102
-26,-48,108,-513,-41,342
-25,-13,112,-327,-87,770
-34,21,115,-462,164,405
-40,69,-117,-532,201,980
-41,-126,-93,-519,-104,1094
-22,-102,-100,-312,159,918
-33,-60,-103,-345,100,769
-23,-52,116,-54,290,344
-14,-66,104,204,335,-332
-17,-90,91,325,284,-524
45,-31,-60,3128,1810,-3954
58,102,18,2856,2066,-5775
-30,63,-67,542,-1979,-3485
-29,-52,44,534,-876,-2228
60,6,-7,714,-4,-1690
110,65,106,574,-2104,-1325
-53,-50,-115,-719,-3893,-4442
-116,96,-83,-4459,-5116,-5132
93,-71,26,-1187,325,-860
10,46,-127,1990,4282,10432
24,40,100,-1428,79,1179
120,90,75,-21,-579,-1806
-70,-68,111,-174,-109,-142
111,58,84,129,36,89
-101,-97,84,167,70,409
-66,-30,36,-247,-541,-13
-25,51,56,710,-231,578
-15,62,-23,553,-1254,662
-15,75,-53,-529,-1162,837
5,25,-27,493,-95,1834
72,54,-105,1689,602,1634
46,-108,-85,790,-388,3145
-122,110,-123,1387,356,2681
-54,99,-89,1096,152,3664
-14,86,116,941,1336,3122
15,31,-97,1391,466,3598
51,0,-97,1315,871,3314
111,-111,-90,2941,1089,3185
20,-51,12,728,-472,3004
-109,23,-6,-1593,-761,864
90,-68,-40,-857,-332,-409
103,73,-76,255,601,-832
102,52,-109,-343,1,-1128
-91,-39,122,406,319,-1010
-104,-18,-128,-139,-351,-614
-81,24,110,-969,-146,-1040
-55,-8,102,-606,-171,-842
-44,-9,95,-75,-87,-803
-67,-3,88,-17,-183,-657
-88,-1,84,-50,-139,-469
-96,2,87,-31,-110,-9
-97,14,87,-68,-2,369
-96,44,102,68,176,434
-85,72,104,189,483,753
-77,102,106,87,252,972
-57,-123,93,-41,212,910
-61,-100,87,-16,163,735
-48,-105,70,215,440,413
-52,-81,61,94,281,174
-45,-96,48,386,297,-187
28,21,-61,4666,2600,-3947
52,-104,-54,5081,-717,-4312
112,-38,88,-609,-1549,-4973
39,49,84,379,-70,-2388
68,-38,-15,441,-174,-976
-40,107,55,-109,-2595,-1449
-122,121,23,-3178,-4876,-5880
112,-80,-14,-5279,-3208,-5181
72,11,-26,-381,1290,3381
23,-67,18,-2692,2692,7593
-27,60,66,-658,-592,-86
-26,-34,104,1502,-1428,-1730
30,73,24,-190,58,-166
54,-101,-114,239,-493,-426
46,83,-40,-173,284,712
-123,71,54,-473,236,-587
-100,-127,86,1125,-66,-87
-65,-93,-15,506,-1578,53
-30,-11,-93,830,-1037,781
-34,21,-70,318,-1218,1977
-73,73,-91,-809,-800,2143
37,104,-98,1796,-471,2179
24,-104,-94,911,-809,3004
109,-111,-62,1532,678,2848
-39,-92,-82,1265,318,3338
-13,-113,127,2224,850,3027
64,0,-102,2932,926,3265
39,-47,121,1895,947,3163
24,-72,-50,1454,154,3099
-81,99,29,-939,-559,1597
109,-27,50,1214,-253,708
85,-84,-2,964,421,-140
86,78,-55,321,396,-640
-125,36,-82,-200,245,-1046
-97,-38,-100,304,344,-1036
-50,-73,-116,196,265,-1203
-48,-79,-114,108,3,-936
-41,-97,-125,243,71,-861
-53,-83,-118,-48,-203,-419
-77,-91,127,-54,-60,29
-77,-60,-116,-108,98,430
-52,-17,-127,16,238,638
-39,20,-125,50,70,413
-54,56,-114,103,41,498
-68,73,-117,185,139,287
-66,73,-127,309,276,241
-54,69,102,550,365,237
-51,101,96,-145,86,186
-47,102,77,-392,16,-118
-48,103,84,-254,-4,-239
-14,75,-114,1254,2358,-4856
12,35,44,6169,1787,-3456
121,8,-6,1794,-1414,-4988
-32,-125,75,-999,-983,-3185
58,127,20,1412,408,-984
-55,50,66,390,-1342,58
-27,-37,-45,-966,-3171,-2490
-53,-41,-54,-559,-4229,-4226
-97,13,96,-4381,-2965,-3986
127,-41,35,-224,899,2558
116,43,96,-4667,3135,7188
28,-89,-119,-699,-906,545
43,-18,4,983,-1270,-2899
70,1,-68,-419,-82,145
79,15,-83,-264,-17,685
124,-75,-88,67,67,224
-62,2,112,-344,574,150
-72,-95,72,861,-761,454
-11,107,18,756,-549,492
16,114,-58,-277,-584,848
-9,49,-63,413,-611,1799
78,110,-80,956,-1212,2329
-1,87,127,435,-520,2674
-126,-120,-71,662,133,2582
-108,89,-109,2013,-338,3241
-41,-71,-36,341,188,3103
25,-42,-124,3535,1858,2873
26,109,-106,125,-3,3047
3,0,-58,723,-221,2693
-12,125,-42,2188,-170,2704
-76,-91,-12,1112,76,2147
-127,-46,-44,-308,-66,654
118,-77,-62,-649,11,-573
115,20,-62,853,309,-809
123,-1,-83,755,47,-821
-96,-10,-99,-112,325,-1226
-28,-55,-124,-339,354,-1142
-50,-58,-99,-264,-249,-586
-78,-69,109,-79,62,-763
-95,-73,114,66,-156,-728
-58,-89,110,338,364,-190
-52,-66,99,25,250,371
-89,-7,97,-501,-15,1007
-91,75,118,-1013,138,942
-42,90,102,-53,270,622
-38,-119,97,77,-55,323
-43,-118,94,125,132,13
-67,121,81,227,79,-260
-63,92,74,303,295,-202
-59,103,73,-157,73,10
-70,65,-4,-1403,-3404,-4201
-118,1,-122,-5439,-2596,-4134
-119,45,-80,350,2062,1532
-77,1,-82,-2384,3050,5797
-23,-31,24,1662,-1933,-2932
66,-1,-8,-2362,-1605,715
-83,66,-59,522,-614,-7
76,126,-42,91,-160,1184
-124,-59,49,232,327,343
-67,7,7,401,-212,425
-69,74,28,912,-504,1394
6,110,-82,-548,-826,1116
56,72,-109,-9,-108,1455
87,69,-120,75,-439,1836
-92,62,103,970,-138,1943
120,118,125,-340,-1240,2995
-55,50,115,1853,-123,3511
-15,113,126,1644,207,3179
98,-124,89,1635,1059,3017
93,31,-57,2494,101,3250
30,51,-47,-346,194,2497
-9,-52,14,1426,-40,2551
-60,-30,-11,1262,-51,1464
-101,-48,-56,783,308,13
-125,63,-83,1277,309,-518
-116,2,-99,807,247,-703
-95,-22,-121,14,392,-782
-81,-37,125,-785,-203,-866
-52,-66,118,-85,32,-710
-28,-77,111,89,18,-791
-59,-59,111,-76,-459,-810
-53,-76,115,-170,-119,-477
-63,-51,-123,-521,-275,45
-65,-8,123,-631,-99,340
-62,27,106,-560,381,79
-62,32,94,216,340,167
-51,50,79,148,385,457
-50,101,78,-710,549,482
-38,-117,72,-855,229,488
-33,-87,86,-329,245,340
-25,-86,88,431,343,28
-34,-69,84,109,276,-155
-28,-80,74,-82,-40,-44
-22,-78,76,-155,233,-358
-26,-84,78,-62,18,-358
-28,-88,77,-256,-206,-249
-23,-95,72,-314,-178,-199
-35,-70,81,-419,-53,-177
-58,-79,87,18,-206,-147
-42,-72,79,192,425,-308
-90,25,23,5984,2770,-4517
-45,127,58,2369,-2806,-4007
108,69,-128,-1043,-133,-3886
119,-66,76,644,236,-1742
69,125,-64,-627,-264,-482
-90,-39,-99,43,-1583,-165
9,42,53,-943,-2743,-3111
-42,-30,-63,-2022,-4499,-4247
-100,-123,-64,-2906,-1913,-3404
-118,-9,-112,-1694,1841,2111
-71,-123,26,-2163,2825,6323
24,107,-125,-456,-291,438
46,-16,64,105,-1856,-2575
116,-56,70,679,345,450
-124,-123,119,-46,-446,413
-107,-71,113,-638,-3,487
-64,-48,97,606,-415,444
-17,-110,76,445,170,512
28,-87,-35,63,-1007,10
24,0,-62,1253,-786,563
94,40,-104,596,-22,1252
-4,36,-104,-16,-302,2105
89,92,-123,327,-1381,3039
34,66,114,547,46,3216
-56,-67,-75,702,-619,4096
9,42,-127,3997,748,2784
47,-74,-93,-122,464,2775
21,-17,-101,1947,516,2844
41,-109,-82,1587,500,2791
-46,54,-1,-146,-785,2340
-125,-32,52,1024,-422,807
117,-91,-10,986,423,-194
125,96,-49,-215,336,-769
118,12,-118,-547,277,-785
-121,-62,-104,360,120,-516
-89,-60,123,305,568,-619
-58,-58,107,51,262,-604
-63,-48,118,-263,-120,-310
-78,-40,119,-383,8,-290
-64,-18,126,-219,148,-153
-63,-11,114,31,48,42
-62,22,104,-214,29,-53
-65,37,99,-160,73,92
-67,64,97,-29,40,143
-63,80,89,-82,169,57
-67,98,91,-55,75,84
-63,104,81,68,242,54
-55,114,82,32,160,52
-51,119,74,48,138,-50
-51,118,76,24,138,-38
-95,127,-106,-3199,-4719,-5086
122,123,98,-4086,-2829,-5012
101,-94,90,-853,1108,2380
-14,91,23,557,3763,6586
66,-37,100,-1398,-714,-1825
24,93,114,-502,-1905,-320
-48,29,-108,137,-37,-336
60,11,-88,378,-179,1059
-114,-41,57,-623,320,358
-83,-40,23,246,385,447
-80,-64,10,383,-931,1006
-33,97,7,-375,-502,1244
44,-121,-83,350,-621,1308
66,95,-100,683,-606,2278
80,83,-111,-106,-851,1929
-89,-127,-126,-583,-613,2545
-103,114,120,503,-540,2181
-1,121,-97,961,-185,2741
19,86,117,1364,108,2955
3,11,-98,1482,286,3131
102,-117,110,2934,1062,3693
-96,-5,127,1503,477,3669
60,105,-27,-310,-659,1863
-49,-5,-21,1451,-305,661
115,-98,-17,1059,-97,-352
116,95,-58,-164,310,-673
123,38,-55,30,277,-772
-69,-38,-97,773,677,-908
-39,-31,124,67,482,-1416
-41,-50,127,-80,-215,-1063
-39,-72,110,55,85,-774
-7,-45,115,-160,31,-637
-26,-51,102,-7,-3,-392
-28,-21,119,-351,-165,-167
-48,-12,108,-282,24,143
-46,30,110,-488,21,264
-53,63,104,-145,74,423
-45,106,99,-161,171,404
-41,-116,98,-233,168,367
-48,-96,88,-195,27,206
-42,-105,83,176,304,8
-36,-103,70,79,150,-14
-47,-101,70,-297,-63,14
-37,-105,69,32,219,-12
-20,-86,66,-194,-27,-87
-49,-85,69,-268,-20,-68
-45,-86,78,34,155,-166
-38,-86,73,8,137,-24
-28,-78,70,-28,126,-6
-36,-81,69,-18,152,2
-14,63,-110,1928,1621,-4693
-53,-37,-57,4022,1541,-4681
105,20,-94,410,-1424,-4079
-67,56,30,-101,-70,-2174
-78,108,-1,258,-27,-383
99,99,124,193,-1843,787
-107,-32,77,-2370,-2944,-3189
-86,21,39,-3159,-3753,-4406
-120,-122,43,-2782,231,-3942
-55,-20,-116,1535,5272,6148
-25,-79,108,-3207,-19,3268
-21,85,-128,-1284,-1516,-456
41,-33,113,1362,-777,-2368
-121,-112,-23,-317,342,498
119,53,117,46,105,717
-62,-25,27,-62,312,430
-58,62,69,506,282,1344
13,-117,-30,32,-919,727
33,53,-39,-477,-381,1645
79,92,-81,-314,-556,2139
-123,-91,-89,-330,-1273,2636
-106,100,-118,532,-1080,2467
-18,-108,-115,283,-101,2267
-9,69,91,1485,-290,2542
-8,89,-118,976,-122,2738
59,41,-111,1673,-371,3039
24,21,-97,1426,301,2447
44,19,-60,1127,150,2227
-21,17,-68,1453,-187,1235
-78,-92,-20,2040,287,443
-121,86,-18,1802,480,286
-125,55,-30,918,467,229
-115,53,-63,-595,177,-77
-97,28,-103,-1146,-1,-466
-69,13,-121,-957,-78,-568
-26,-3,109,-521,-17,-900
-65,-13,100,68,142,-1055
-43,-32,85,71,215,-1113
-42,-49,82,42,58,-618
-48,-13,76,-308,-214,-173
-71,32,96,-860,-183,-225
-67,49,104,-693,303,190
-73,81,92,152,304,507
-60,102,78,232,337,527
-29,-114,69,-50,572,371
-30,-115,87,345,402,343
-14,-105,87,235,590,49
-11,-105,99,287,178,72
-36,-107,96,-70,-267,94
-34,-110,108,-319,-22,204
57,58,12,4526,1034,-3740
-6,112,-74,1332,-1370,-4642
87,45,116,-1026,-86,-3296
107,-78,28,859,-55,-1520
60,44,-96,-965,-534,-814
53,-95,-114,-399,-2281,-1360
-73,124,-70,-1996,-2683,-4193
-94,126,-22,-4398,-3573,-5087
-125,64,43,-2290,-126,-1927
110,-65,-126,514,3233,4740
-91,110,16,-5029,789,5432
53,-70,-24,2411,-1191,-2886
-1,63,30,774,-1082,-1345
32,-125,44,-528,305,534
90,-44,-89,197,-471,235
117,-110,-50,-31,498,195
-69,-94,100,667,521,-105
-35,-116,43,494,-792,567
-9,60,-39,-311,-1029,450
-3,12,-26,460,-813,1313
70,94,-71,-335,-358,1536
35,-128,-64,446,-520,2613
119,-98,-58,1316,-646,1970
99,-116,-107,846,-1136,3100
-118,-108,-57,1185,-294,2974
-73,-78,-79,515,-1255,3021
-65,95,-29,2036,402,2682
-22,-24,-109,2943,820,2381
-15,42,-94,373,142,2714
-16,-53,-56,-685,460,1857
105,-37,74,-97,-1359,1369
121,35,15,2732,837,674
92,111,-28,1899,-22,390
115,110,-43,-28,-36,-177
114,58,-73,-325,105,-588
-125,-19,-99,147,100,-756
-111,-34,-125,246,124,-878
-94,-29,123,-432,101,-809
-81,-15,117,-997,-155,-824
-111,-15,105,-670,-145,-867
-88,-24,113,-10,181,-211
-69,-28,71,799,732,178
-49,-19,75,1175,473,264
-63,15,54,-69,298,328
-67,69,107,-710,-203,416
-57,74,113,-253,-86,458
-66,95,122,15,236,319
-102,100,77,124,278,96
-80,96,67,200,366,-11
-41,81,72,549,383,137
49,47,-53,3385,1522,-4473
-76,23,-59,2127,-1107,-3526
77,-5,101,-1162,-179,-3495
35,126,62,611,242,-1530
-49,117,-85,-650,-886,-539
-64,-18,99,-526,-2640,-2804
-86,-85,-59,-3681,-3930,-5747
-115,-21,104,-3210,-2578,-4326
93,-99,111,-120,1375,1178
41,11,-94,-4717,4763,8530
28,49,-24,2144,-881,-3
-66,111,-86,-430,-1286,-1718
-72,-99,-41,490,-121,-726
-91,23,-77,-416,-388,754
-77,-114,118,57,340,598
-20,-65,72,993,143,385
-15,-10,26,-150,-1193,397
34,63,-35,1263,-412,1032
64,44,-81,-425,-395,1642
25,96,-87,-504,-1654,2847
116,120,-95,-120,-358,2083
-60,-113,-84,117,-1058,2882
-78,-115,-86,912,-157,2874
56,92,-97,1504,-60,2617
53,76,-92,2118,123,3500
107,-22,-111,2965,106,2998
86,2,-71,1140,593,2327
17,-63,-54,2271,36,1952
-84,-44,-42,833,-529,847
116,123,3,874,173,108
102,86,7,745,79,-96
112,58,-40,23,195,-538
-100,23,-72,-726,-128,-785
-85,-14,-106,-338,26,-704
-71,-12,-122,-487,-47,-923
-53,-20,114,-397,44,-790
-48,-17,105,-226,-36,-821
-59,-17,100,-33,-21,-666
-49,-21,88,212,337,-474
-61,-9,82,11,7,-140
-73,13,87,-259,211,82
-57,46,109,-185,291,538
-46,48,101,244,485,453
-51,97,99,-187,317,682
-43,113,93,-98,84,839
-52,-101,91,-567,-106,752
-45,-104,85,-203,207,460
-38,-48,81,-383,128,202
-40,-55,80,115,134,-293
-32,-66,76,176,163,-681
-81,48,-121,-2114,-4579,-6406
-115,-29,121,-4025,-2901,-4978
109,42,4,-2752,2027,2185
20,31,109,-3328,3879,7844
-8,108,20,884,-1214,-1838
-109,-112,87,1328,-460,-123
-116,69,-105,-281,-376,-1021
98,48,-1,353,234,664
101,-108,118,-324,-84,339
35,-19,50,1135,-366,46
-9,15,85,-79,-471,893
68,80,-11,110,-1045,1020
20,13,-67,1025,-205,1553
-115,45,120,1117,571,1345
56,-107,-45,11,-2192,3563
-106,67,-126,1313,913,2491
-72,-105,-9,1765,-282,4033
33,-121,105,902,1687,2575
21,56,-42,982,90,3854
64,-4,-113,1225,716,3691
120,87,-55,448,233,3047
-21,-119,20,950,-842,1582
-80,-29,9,1813,546,561
87,-72,-19,652,232,231
99,83,-75,567,361,-407
-115,36,-103,291,803,-578
-104,23,-98,-46,-208,-233
-56,-13,125,134,-138,-624
-84,-9,-100,-650,-552,-675
-67,6,-96,-1563,-568,-575
-65,-14,-107,-718,-167,-515
-100,31,-112,-815,-251,-327
-83,72,126,-755,213,-632
3,19,64,691,799,-653
-96,28,60,598,-369,72
-108,79,81,-772,57,349
-94,70,65,326,361,149
25,70,77,903,680,512
-24,-109,96,-323,-324,956
-68,-54,110,-1035,-78,219
-95,-81,114,121,-35,53
-101,-67,93,-522,-24,223
-41,-44,96,-415,296,19
-58,-65,63,486,460,-615
13,-114,32,870,396,-601
-90,-97,75,-474,-404,103
-86,-92,77,-486,92,-109
-58,-100,69,428,447,-392
37,127,51,721,546,-103
-60,-99,65,-379,-480,503
-20,-32,2,4365,2286,-3656
-25,31,-30,1094,-2155,-3133
87,3,21,246,-374,-2166
-125,43,32,477,-90,-1324
54,-108,-103,-441,-2007,-1797
-58,-72,-107,-3004,-2934,-4087
-62,70,-82,-2960,-2458,-3144
-96,-43,83,-3449,-55,-858
-44,-123,-51,60,1540,4030
-103,-75,114,-4738,3326,7896
66,74,124,3233,-2325,-6077
-3,-4,-38,-259,-133,-129
117,-37,-31,-101,24,383
-80,-79,-98,497,204,141
-41,-100,-126,-56,274,487
0,-62,65,588,-347,-57
0,-33,91,1562,405,1107
69,27,-56,1027,-428,21
72,-36,-61,292,-522,1744
85,-65,-75,1513,-307,2313
-83,-11,-99,2277,-350,2566
-62,7,-124,1039,-485,3167
-71,49,124,1165,257,2913
11,-51,-94,1039,354,3018
-35,-112,-120,2931,1709,880
-18,71,96,2409,2406,191
-72,-75,-117,1836,943,1119
-71,95,-98,325,1032,1137
-59,102,-54,-1396,224,755
-54,23,-39,-600,304,735
-65,60,-28,-308,-309,311
-35,61,-35,-256,498,247
-59,12,-38,512,211,366
-48,27,-69,-110,462,218
-52,-4,-58,454,232,79
-36,-5,-67,295,377,20
-20,-19,-67,315,624,-71
-11,-24,-90,72,377,-88
-29,-32,-79,154,142,57
-16,-29,-77,36,71,161
-40,-21,-78,309,-321,248
-7,23,-110,-65,865,83
3,-3,-126,380,490,226
-10,24,-111,118,26,184
52,7,-96,620,410,-91
-25,-15,-77,-275,-183,-14
-37,36,-100,-327,-177,356
7,29,124,31,635,-252
13,63,109,-666,-149,-120
-4,81,125,-842,-539,87
119,47,-64,2499,1546,-4485
-1,-6,-127,2655,-792,-3774
93,-76,42,-223,-962,-2600
-55,-115,-14,262,-110,-1173
-90,-44,-72,479,-759,144
-24,-113,86,-770,-2348,-880
-82,-91,77,-1512,-2888,-2944
-112,-84,89,-3006,-3196,-3056
-107,75,13,-2088,-785,-1993
124,36,-115,-2068,911,2582
22,44,75,-2782,2326,5821
-87,-125,26,-1996,2818,4815
-115,65,124,3346,-2995,-5704
103,59,95,-108,668,1442
111,-45,95,-45,-419,-349
-114,-100,-67,578,173,137
-39,-55,60,-398,-95,25
-8,-128,60,285,-98,-153
16,26,-2,254,-300,488
42,67,-73,-648,-1922,167
28,67,-61,-698,-1424,754
-15,59,-56,477,-223,1350
38,104,-19,1640,-1412,2740
-14,-107,-100,1100,-347,2491
89,-44,61,517,-1384,2957
-110,-127,-16,1274,864,2871
-63,-88,-28,1689,364,2764
-39,99,0,1081,-801,2749
-24,80,-8,578,786,2097
-20,-53,-15,2209,174,1942
-80,-70,-24,263,-104,1367
-111,-118,-21,281,37,1200
125,127,-19,129,-65,657
123,112,-50,79,118,-6
-113,81,-67,274,240,-201
-126,39,-101,331,162,-230
-119,49,-112,-342,-182,-499
-99,36,-121,-310,70,-582
-70,20,116,151,222,-639
-70,8,108,328,151,-698
-77,-14,102,388,39,-504
-90,1,103,47,110,-76
-81,1,95,-84,156,71
-82,21,96,-133,65,380
-66,55,104,-192,431,255
-63,82,110,73,239,371
-58,99,107,7,191,471
-55,119,110,46,211,291
-57,116,101,361,438,253
-50,-127,101,133,195,130
119,-85,22,-1989,-3668,-4964
102,125,-95,-4378,-2489,-3140
78,-37,-16,-976,1183,699
-107,-104,14,-2260,2020,6749
-128,-53,-70,-2352,1483,3838
-8,-76,-40,2012,-1179,-3490
-91,-15,-68,222,98,-430
67,-23,120,-272,-218,231
89,-90,80,-639,-313,575
-96,97,108,359,858,287
-33,-102,23,767,11,-3
-57,106,-10,-270,-1051,586
-6,46,-41,639,-937,1181
32,124,-74,17,-955,1676
14,-124,-63,-132,-631,2143
90,112,-54,2164,-1121,2491
101,-72,-69,775,-475,2336
84,119,-14,2399,-261,2689
-102,-124,-30,728,331,2380
-95,-13,-99,2168,1659,2663
-29,4,-124,934,612,3071
1,0,-85,519,14,2600
-5,-32,14,1096,547,2937
31,-31,19,852,344,2284
-92,62,-18,-747,-264,653
53,-49,-62,-629,-370,-520
76,80,-64,3,-73,-632
120,3,-97,737,494,-658
-91,17,119,-144,328,-753
-100,-10,118,-63,-201,-526
-82,-21,-128,-108,27,-536
-90,-27,127,100,32,-365
-81,4,-124,-259,200,-194
-82,15,-123,73,53,-18
-85,61,115,-237,179,-3
-78,68,111,-139,159,107
-79,83,104,-193,-24,108
-84,102,92,12,238,148
-81,107,92,101,145,130
-70,120,85,-116,153,255
-68,-101,89,-424,55,86
-52,-111,88,179,238,-136
-53,-114,83,154,175,-201
-55,-123,75,69,145,-159
-63,-127,74,79,155,-100
-59,126,72,115,273,-12
-57,-125,72,116,106,233
-53,-100,72,-164,160,249
-42,-90,79,18,149,142
-39,-78,77,3,225,104
-12,-93,93,-242,3000,-5768
2,111,60,8044,3292,-5656
-97,2,35,1185,-2542,-5096
4,-113,-82,294,-642,-2540
87,-10,123,504,718,-1206
60,-70,-25,-962,-95,191
-96,-66,125,407,-1465,-711
-22,-104,93,-2189,-2740,-3357
-55,39,96,-2222,-3424,-4404
-91,44,-77,-3494,-1911,-3321
-111,71,-24,-1977,881,-176
119,42,-36,36,1676,7227
19,64,-99,-5892,875,4550
-55,52,102,3640,-406,-6956
84,-85,112,-48,-472,2221
106,-44,-43,242,-97,-170
120,-94,-3,55,147,208
-88,-67,-61,1187,91,328
-55,120,93,1369,-578,1161
-2,28,-6,-203,-1177,1465
50,47,-8,891,-835,513
42,-22,-54,1014,-943,1422
87,-58,122,-3,267,2658
-104,82,-38,290,-1353,3562
-43,65,-75,2746,446,3054
20,-109,-75,334,625,2253
38,28,-73,1210,890,3343
13,14,-76,1695,-375,3504
88,92,-37,1896,356,2269
0,29,-30,2502,486,1773
-46,-45,-54,1617,415,1015
-76,-115,-22,886,423,377
125,43,-15,1173,518,474
-114,-22,7,699,242,257
-105,-25,-14,-132,278,251
-92,-54,-13,-159,153,-7
-92,-93,-18,470,15,261
-83,-76,-24,59,422,-90
-70,-92,-35,369,733,-105
-59,-83,-40,219,581,-77
-70,-84,-50,358,343,18
-71,-83,-42,143,237,-45
-38,-72,-50,-541,715,-357
-43,-53,-55,-106,628,-110
-27,-26,-66,-446,782,-42
-8,-2,-63,118,284,238
-25,38,-46,-69,-180,14
0,64,-72,-983,377,-437
-10,38,-49,-404,-277,-116
-33,18,-25,1000,332,556
22,-45,97,-2336,1169,-6810
-128,-1,-92,9082,174,-3342
28,-62,-86,-87,-1630,-4858
-29,33,99,955,30,-2063
13,-111,40,-412,70,-1138
116,-65,-76,329,-1381,-277
-68,-5,58,-1721,-2676,-3219
62,-37,23,-3047,-4060,-4562
83,98,39,-4107,-630,-5292
85,11,64,-2977,956,2539
-46,4,123,-1284,1952,5897
-3,31,45,1750,1653,2307
27,6,78,-742,-1859,-2725
-75,3,-35,832,468,-611
72,-89,119,98,-611,-694
32,-6,-13,-243,455,612
106,40,68,-439,-393,-294
-84,-56,81,157,21,-290
-31,-93,-33,410,-630,-857
-43,31,-53,-461,-795,-114
-77,-23,-58,406,-1455,1341
-104,36,-59,-543,-783,2255
-79,14,-32,1198,-919,2474
24,-94,15,1329,-703,3069
2,-111,64,1307,508,2944
-59,-46,0,871,1018,2952
-63,104,-70,3570,337,3383
-18,107,-77,1374,716,2703
-29,26,-110,1629,455,2813
-34,-18,-58,1127,305,2476
-88,4,-54,81,-407,1779
118,-95,37,797,-204,1743
107,-88,17,328,-14,816
105,126,10,494,697,29
111,82,-25,-4,791,-298
116,65,-57,-620,-373,-616
-112,80,-61,-2053,-635,-822
-94,-40,-83,236,671,-779
-74,-56,-108,1445,410,-255
-94,-35,123,447,139,-240
-49,-31,119,-113,247,-226
-80,-35,103,-162,-72,-78
-48,-16,-112,-138,28,430
-68,52,-121,-415,-168,557
-93,93,-106,-552,-103,239
-110,74,-122,346,121,181
-82,72,102,523,470,152
-61,83,98,478,332,222
-52,83,76,577,598,-49
-49,111,100,75,132,-182
14,44,0,3356,1530,-4040
-126,4,-37,1362,-624,-4351
-25,88,107,192,-245,-2282
25,66,27,1158,1178,-1072
106,55,-39,-963,444,-462
-26,117,-72,1186,-696,176
41,-46,-124,-972,-2282,-2142
-6,0,-39,-2033,-2791,-3617
-35,89,104,-1722,-2044,-3556
3,8,-38,-917,242,-170
93,86,-34,-405,2853,6824
-56,0,48,-542,1393,1573
23,65,2,-1482,-1492,-2119
-9,-43,-108,598,-220,-228
-122,76,-122,-155,-119,309
-67,-103,114,350,405,359
-60,-7,48,-413,8,334
-8,74,99,-16,141,1339
31,115,20,-652,-322,1089
71,-5,14,826,147,860
105,-33,8,-477,-424,2015
95,-112,26,-1425,-159,3599
42,0,-4,-490,389,3648
-92,-43,49,-509,-1488,3771
-92,-72,-5,919,-1153,2530
-90,-120,-32,942,-725,1641
112,14,-72,2078,-437,1937
16,-1,-54,474,-1489,1465
5,1,-22,-719,-590,1490
-8,121,-40,3046,556,1534
-55,126,-96,2854,200,1749
-107,-112,-59,772,-243,661
-123,-98,-18,-314,-152,362
110,95,-8,56,11,7
109,90,-24,-784,-108,-566
-125,25,-44,-219,105,-456
-105,23,-92,-148,413,-504
-86,-20,114,1613,-110,-364
-63,-27,-125,785,72,-436
-46,28,99,-1770,366,-1299
-77,-59,93,-88,-212,-357
-64,3,86,-706,214,-530
-74,-19,89,102,156,15
-67,16,75,7,174,196
-59,59,80,-505,58,261
-57,83,79,-393,350,319
-46,109,89,18,161,443
-47,-116,84,-142,66,329
-54,-96,95,-137,258,200
-51,-101,95,307,189,282
-115,-15,-66,4378,739,-3752
116,37,-84,3388,-1290,-4916
88,83,-49,-985,-2761,-5619
76,-111,-104,1435,247,-1399
-101,7,74,-1907,108,-224
-19,44,-28,82,299,478
-109,123,79,7,-406,-264
-35,8,42,-848,-2409,-1209
-61,69,76,-1436,-3214,-2973
-81,-58,123,-1579,-1697,-3434
-78,29,126,-1517,241,1442
121,-56,93,-4278,3892,6288
-58,21,47,1172,695,-651
26,51,-14,-1232,-1551,-1092
-126,-5,-96,443,-192,-330
98,1,106,6,-277,815
-104,-66,34,674,100,-114
-122,-100,38,-38,-396,1465
-72,-88,13,717,-23,849
-7,-9,20,749,409,956
8,-50,-12,-1054,-672,1249
77,-103,-39,1544,498,3226
-107,101,-106,-388,-265,2474
-103,83,-126,1201,-770,2578
-46,36,-112,1741,-405,2043
-59,16,-112,1851,627,1918
-47,24,118,905,1308,2567
-19,103,-91,-33,355,2894
-20,-36,-106,1474,1246,1902
12,-8,-85,69,1680,1795
-15,-63,-40,-573,987,1226
23,103,-41,492,1764,846
1,83,-40,-377,1333,265
-18,104,-32,-1267,493,13
-11,43,6,790,438,563
-14,39,4,405,403,326
-15,-33,14,511,138,818
-8,6,14,-92,42,490
15,53,-26,-294,631,6
-19,32,-4,-667,280,-338
-25,-7,21,291,-455,365
15,-11,-19,323,426,221
-6,76,-34,1,249,-351
-21,81,-9,-531,-5,-208
-25,33,4,-32,87,93
12,71,-32,432,565,-149
30,113,-31,-60,445,-706
33,52,-61,-109,344,-584
-77,-63,6,-1676,-1712,-238
-14,86,5,815,108,349
15,-14,-99,2653,1314,-4558
-8,-65,-88,5158,-534,-5406
-105,14,110,1894,-1816,-5164
114,127,95,-1302,-512,-2234
-114,-113,42,801,755,-599
-17,-127,-14,-186,374,39
64,-109,33,-224,-1821,-229
-39,-13,-98,-1124,-3229,-2441
-90,-84,-93,-2778,-3632,-3630
-104,49,-112,-2004,-2162,-1801
-76,27,-117,-2058,1145,844
4,-100,-42,-2210,3120,6274
1,-118,-77,-5780,1040,2458
104,-18,28,3133,-1829,-4497
-123,-104,8,478,-40,597
103,69,122,-65,-98,502
-100,-94,-117,376,274,516
-1,-17,39,390,516,-411
-5,88,78,302,434,430
34,59,-24,624,-713,283
82,82,-96,130,-416,930
55,48,-96,-164,-139,1244
102,26,-125,641,148,1566
122,5,70,1160,-805,2936
86,14,41,1137,164,2991
-66,97,-100,-102,868,3611
-4,-113,106,1033,851,3781
28,-11,-7,-134,-488,3227
59,16,-28,3031,1104,2944
63,-91,-45,1439,1586,2416
41,31,-36,-1089,-30,2161
-74,-23,-19,-41,-960,827
-122,-113,-22,1065,-212,-560
-108,33,-42,1004,276,-741
-90,-19,-72,-35,-133,-1154
-95,-54,-84,383,-398,-651
-77,-70,-106,177,128,-411
-77,-50,-117,-236,106,-211
-65,-54,-117,-164,29,-115
-66,-19,-122,-375,-8,23
-62,0,119,-269,69,-34
-69,14,120,-171,76,107
-67,31,113,-185,183,166
-72,55,103,-196,98,128
-64,63,102,46,277,170
-56,79,89,-11,293,93
-53,85,77,76,211,105
-56,95,76,10,193,67
-50,91,74,196,303,49
-46,103,66,144,170,25
35,-15,-86,2752,1909,-4740
114,-122,-108,2849,-1243,-3469
75,-91,-13,-834,2,-1864
91,-5,-10,1168,53,-756
-95,-23,-30,1080,-297,-170
-36,-26,84,-710,-2370,-2582
-68,-86,-87,-2214,-4229,-4389
-122,63,-61,-5068,-3593,-4705
99,96,108,-2170,270,556
113,-111,-75,386,2719,5069
12,31,75,-6154,1698,4263
-23,48,-57,700,-1076,-3598
-73,63,-40,2313,-47,279
101,96,-73,-51,-138,186
126,-89,-80,789,171,407
-71,-38,120,-34,-213,442
-4,-107,89,387,273,350
9,111,31,282,-573,-122
55,86,-10,292,-1034,328
37,67,-42,-232,-291,1150
59,106,-61,45,-629,1675
123,-107,-44,-163,-115,2192
88,-62,23,857,-770,2570
114,-66,13,1212,-856,3100
115,-72,-68,738,190,2893
-79,3,58,-358,-1730,3109
-29,57,-54,3224,563,2874
-17,6,-4,3442,166,3292
-44,69,-32,-920,-236,1817
-42,-105,-12,1173,257,1528
-99,-121,-7,1295,129,808
-113,107,0,1007,29,380
126,72,-6,738,-91,-44
118,34,-52,23,33,-400
-124,11,-70,-446,22,-460
-111,-3,-109,-490,57,-472
-91,-13,124,-156,128,-629
-76,-8,116,-112,69,-643
-71,-14,105,20,42,-660
-76,-15,99,38,-1,-452
-82,-6,102,-92,-16,-197
-82,1,112,-42,25,-63
-68,21,124,201,467,-77
-74,44,124,66,234,336
-66,66,125,-71,203,403
-60,93,114,-174,224,405
-65,106,101,-142,193,476
-64,113,98,60,203,479
-45,125,82,103,386,283
-46,-128,70,193,223,170
8,5,-73,2746,1910,-4296
-51,-31,-71,3233,217,-4187
-125,-31,84,-239,-24,-4573
-127,15,17,1597,4,-2102
-79,-81,2,-378,346,-1002
52,50,-30,92,256,-502
44,-72,-115,195,-2135,362
-56,-89,-119,-2279,-2285,-3786
-69,-58,92,-2733,-3293,-4227
-100,118,-115,-4243,-948,-4018
16,28,1,-961,1242,927
-25,-19,89,1343,2294,6041
55,-118,103,-3692,-591,1756
13,-26,13,1403,-607,-1085
-38,-3,114,1198,-282,-1078
109,111,-117,164,-306,5
96,113,-64,-244,17,294
-85,-92,-121,-100,487,224
-18,-110,23,-360,-73,131
3,74,15,454,-771,415
27,55,-75,-532,-1171,615
46,82,-55,-5,-1821,1757
61,95,-73,289,-684,1651
-22,-100,-37,757,-994,2323
117,-88,-53,1767,178,2062
62,-98,-62,2026,-332,3058
-99,-95,-62,2038,621,2958
-89,-112,-63,958,133,2877
-52,50,-42,2321,1017,2653
-12,-67,-35,2046,1274,2480
-31,-92,-76,1314,808,2097
-74,-87,43,668,-270,2258
-96,-74,9,-58,-120,1306
-103,-110,-4,-314,-49,697
122,66,-67,-204,136,-252
125,-9,-75,312,440,-712
-116,-56,-100,501,526,-821
-89,-56,-107,174,140,-534
-58,-115,119,452,604,-477
-85,-2,-51,-1841,-396,-255
-109,-17,-95,-350,304,-177
-57,25,-123,45,248,-400
-29,8,121,-50,-25,-365
-45,6,109,128,31,-209
-55,-7,122,251,311,-3
-50,29,127,29,26,319
-66,69,123,-129,-26,323
-61,71,120,217,324,245
-69,82,110,202,234,299
-56,103,100,-67,99,316
-108,39,-65,-2606,-3540,-3839
109,61,113,-3277,-1655,-3273
-93,87,-47,-777,3466,1070
40,-20,-77,-2746,4068,5578
-27,53,-52,-5597,-1994,2089
12,-124,-51,3154,-841,-3624
-80,-30,-63,366,-296,654
93,59,-59,-258,-134,375
-122,-10,-85,454,-324,193
-57,109,-125,727,-39,653
-17,-77,0,-331,-966,428
-5,40,-2,411,-1228,864
7,63,-48,-205,-223,816
-1,106,-11,-179,-478,1291
90,88,-66,1015,324,1537
33,-75,-27,-199,-1300,2332
-121,88,-35,1859,-18,2120
-114,-103,-4,334,-940,3044
-80,97,-21,2595,610,3024
0,-103,-83,1978,263,2628
-59,116,-73,612,250,2299
-71,-10,-22,1188,-25,2209
-89,-86,-55,1798,288,1536
-89,106,-60,1266,445,1490
-82,50,-53,687,382,1587
-107,42,-44,978,-407,1385
-99,60,-42,238,399,531
-100,30,-44,113,420,1
120,28,-48,-111,-179,-203
114,26,-80,-644,454,-810
-74,-56,-91,648,488,-881
-31,-35,-122,-112,440,-1279
-50,-32,118,-487,65,-1139
-100,-63,-128,-193,-353,-519
-91,-24,127,-545,37,-95
-64,-23,107,138,389,125
-56,37,103,-16,-24,74
-46,48,97,-170,-20,287
-60,67,119,-206,64,364
-62,109,114,-186,113,187
-56,105,110,34,70,122
-55,114,113,118,62,190
-67,125,104,-92,124,143
-61,127,107,-1,146,63
-51,-126,92,148,268,8
-41,-125,84,126,160,-19
-42,-124,82,105,188,-44
-41,126,75,254,175,-69
-50,122,70,327,172,-47
-38,122,63,237,251,43
72,-60,-63,2276,2717,-4328
5,-107,-16,5702,2899,-4514
39,-80,-58,1100,-1608,-3290
90,125,29,-245,507,-2092
126,-46,5,65,160,-741
33,-104,-71,-842,-666,-391
-111,122,101,-567,-2242,-836
-35,-106,-117,-2125,-3030,-3389
120,29,43,-4384,-3069,-4851
93,29,119,-3314,-1320,-3450
66,3,-117,-3194,-27,-565
113,60,-29,-1106,-198,3173
57,-76,96,64,268,2182
64,-99,-58,-261,-1110,-3968
-88,-42,123,1609,-101,-354
-20,-50,80,-179,-197,-224
7,3,46,363,157,528
79,103,-3,-37,527,453
-110,-92,-72,265,137,181
-61,-88,66,-81,-1109,-448
-7,43,33,207,-399,265
-65,34,-37,893,-851,1709
-57,-124,-15,1095,-966,2092
-57,-1,45,685,-631,1579
-45,-120,52,3124,32,2409
49,-47,12,1659,1091,2235
15,125,-9,1958,1041,2905
-86,-95,-96,1802,1970,2253
120,38,97,2412,640,2486
-93,-11,-74,713,454,2704
-102,115,-82,2337,675,2572
-65,-93,-3,1164,133,2629
-78,124,28,856,-126,2213
-101,113,105,735,-243,2291
113,120,87,357,-83,1108
85,126,61,-417,-7,-185
104,42,21,-1046,924,-1130
102,-60,-5,858,387,-521
115,-50,-16,685,-80,-570
-90,-66,-58,131,315,-785
-80,-71,-77,-32,393,-894
-65,-91,-93,24,140,-780
-77,-97,-94,59,20,-283
-87,-84,-91,-17,73,77
-86,9,-101,-533,14,272
-93,46,-82,-586,-122,81
-53,113,-97,-726,404,-270
-69,70,-121,515,128,-461
-71,76,-125,-83,253,-109
-72,64,111,124,119,64
112,61,-31,2528,1881,-4723
24,55,36,1783,2418,-5504
56,21,35,-957,2524,-3727
13,79,68,391,240,-929
-91,-128,-49,-537,-1164,-1189
-7,56,-113,573,-1963,-1244
0,118,-117,-1125,-2885,-4219
-77,6,-14,-1887,-2910,-5361
-125,1,120,-3297,-1858,-2381
18,-108,62,-964,1945,592
-86,-101,75,-2600,-36,6410
54,-70,11,1733,1788,2814
-51,-23,78,1508,-253,-4115
-105,-16,-123,-532,-528,243
59,-7,-89,415,102,227
45,-70,-81,-386,-164,467
-90,-3,-111,86,524,-305
-72,103,117,468,-525,130
-34,105,29,258,-1538,23
-33,85,18,189,-1406,788
-46,62,24,-436,-813,879
-71,83,65,1293,-1681,1857
2,77,0,2255,-282,1525
22,118,-4,1581,157,1807
42,76,-37,632,-931,2811
-117,72,-8,1374,126,2852
-80,99,-51,1523,-89,3157
-49,78,-59,2747,98,2905
-60,45,-95,2162,290,2379
-125,46,-16,617,-158,1859
-100,-61,-7,1343,437,1682
-118,-116,-18,1196,642,1176
104,91,0,953,466,870
102,59,-17,228,420,545
79,46,-45,-491,-504,171
103,-23,-83,586,-453,-93
107,-47,-68,1578,-157,-251
121,-30,-77,400,705,-596
-120,-79,-106,374,392,-698
-120,-72,-112,-305,-18,-408
-109,-67,-117,-622,-84,-288
-100,-72,123,-164,135,-285
-97,-68,114,142,191,-166
-89,-51,113,-28,192,-84
-93,-37,98,-180,353,-71
-88,1,111,-641,431,44
-82,22,109,-457,440,307
-82,67,123,-303,62,521
-68,83,107,-46,177,353
-61,117,111,-74,132,207
-19,82,118,2088,1402,-5433
18,74,-6,5310,2132,-4998
3,-71,-49,139,-1766,-3919
109,-32,34,-66,352,-2055
-64,-109,26,481,124,-677
4,91,-88,361,-998,353
-30,-71,-27,-1323,-2068,-2538
-29,-48,-6,-1542,-3851,-3849
-62,-64,18,-2987,-2607,-3878
-103,-41,-38,-2868,-348,95
25,-2,-66,-1927,-603,4224
84,116,-117,-3662,667,4320
52,111,104,3091,-884,-4168
-39,-44,-100,1431,101,-863
57,-11,-126,-1158,-741,-211
-5,-7,36,16,-364,757
72,-46,-19,267,229,-122
94,-120,-66,579,742,197
-103,-74,53,554,-632,-210
-90,36,50,594,-671,389
-59,17,-15,1433,-684,1115
-48,74,-50,357,-508,1310
-65,40,-23,345,-500,1832
7,51,-75,749,1374,894
46,-87,-22,1401,-151,2803
57,-119,-46,160,-453,3045
-107,55,-74,1540,-540,3473
-108,-110,-80,-367,-1007,2945
-59,89,-41,798,-398,3107
-35,22,-18,1802,-276,3116
-37,-6,-49,1325,1077,2446
-51,-64,21,2126,-141,2696
-103,98,6,3096,151,2955
-121,-118,33,1599,-129,1635
80,-108,3,16,145,195
88,75,-18,-1088,422,-779
67,-18,-17,238,80,-558
88,-59,-42,945,434,-584
-122,-55,-82,35,688,-1155
-62,-10,-89,-1946,1081,-2745
-62,-50,-93,-95,401,-1079
-76,-65,-78,987,-449,-266
-70,-16,-87,-461,-349,-232
-88,-18,-106,-503,-140,-77
-90,-9,-113,-54,120,-58
-66,23,-100,57,249,302
-77,49,-107,63,93,468
-71,73,-118,-2,283,433
-67,91,-113,-88,154,577
-56,112,-118,8,173,711
-39,33,-80,-1945,1849,4628
-31,-84,67,-257,-465,-1825
4,124,52,2110,-210,-1073
-98,40,55,-842,-441,-460
91,-4,-20,-75,-72,578
-127,-123,-49,355,329,261
-60,-85,-126,598,777,-135
-64,-126,83,-67,-557,373
-23,51,33,514,-794,217
8,47,-14,24,-969,1070
25,78,-24,1256,-864,1695
-30,55,-42,549,-647,1713
37,5,-70,1563,-262,2247
42,-98,-10,26,-933,2571
106,61,-49,1086,482,2115
-85,-115,22,-494,-637,3093
-38,10,-94,2559,326,2944
-7,-14,-31,2167,-213,3248
-13,-1,-75,642,28,2793
-46,33,4,1309,-366,2268
-99,37,36,1480,-257,893
85,-53,32,1416,537,117
98,80,-17,1254,488,-359
116,18,-34,698,349,-242
-108,6,-65,-516,196,-438
-118,-27,-67,-524,-566,-552
113,-58,-99,-546,1,-618
-93,-34,-105,-874,-188,-501
-96,-29,-107,-362,-353,6
123,13,-98,-765,0,239
126,7,105,115,675,22
-96,28,85,321,475,73
-79,33,87,501,313,316
-55,17,70,922,619,105
-58,54,93,218,280,36
-79,49,105,132,63,250
-82,68,117,-26,165,8
-74,75,121,76,322,124
-65,76,108,123,110,208
-57,86,109,30,77,164
-55,91,99,162,-16,25
-40,87,84,-13,481,18
-55,85,91,105,65,-47
-48,99,72,-3,360,75
-40,100,73,114,326,-12
-30,102,67,118,178,-54
-27,98,66,142,231,-39
-37,106,68,-33,101,-83
-31,102,73,104,197,43
-34,117,78,0,202,89
107,-19,-52,5587,2579,-5404
-38,60,4,2128,-1963,-3744
26,53,104,-100,-26,-2974
-49,-54,49,651,521,-1440
-5,99,-81,-644,-1047,-338
-118,-124,-93,188,-1760,-1584
-39,88,25,-1679,-3281,-3589
-74,-124,5,-2806,-3333,-5174
-113,34,83,-3224,-1523,-3629
-1,103,42,-1042,592,2218
-20,-65,-2,-1487,1086,6394
27,-123,-39,-325,-1409,-1229
-26,50,-26,-205,-501,-2089
-125,66,-63,739,89,151
60,70,104,-708,-527,288
107,-126,-100,-104,266,342
-79,-28,81,-148,-107,-389
-79,105,82,-203,-595,358
-40,122,11,-324,-1145,597
-31,52,7,-63,-410,976
-32,53,-9,275,-893,2022
7,-85,-36,-233,-1393,3016
71,-117,-66,1996,-675,2380
115,-12,-55,539,-629,2574
-110,-73,-60,2486,-406,2633
-51,-15,-20,705,-200,2398
-61,79,-52,2265,705,2376
-64,-19,-51,3149,626,2539
-31,-4,-66,2335,590,2378
-66,-77,-59,2053,860,1808
125,-89,14,1344,-190,1445
91,114,18,1117,3,1006
81,-123,35,-389,-446,250
-125,44,-17,135,101,-402
-105,-16,-41,5,380,-786
-108,-46,-64,106,231,-954
-99,-70,-75,10,79,-767
-84,-63,-91,-452,2,-631
-99,-63,-91,-218,200,-398
-62,-58,123,175,383,-335
-34,-34,-124,-141,-37,-5
-49,-28,111,-183,-60,13
-77,0,119,-501,-159,257
-52,16,-124,-440,93,467
-81,61,124,-207,178,479
-98,94,122,-173,190,452
-87,-121,100,-1047,271,60
-56,-73,88,-1180,228,-174
-58,111,91,1155,135,62
-57,-116,84,672,326,-69
98,-52,9,1632,2252,-5373
-60,52,-8,1332,1754,-4278
-15,115,-70,-133,264,-3691
83,37,57,485,-55,-1704
100,42,-40,347,15,-496
-75,6,-25,-505,-1301,-766
-22,-88,-22,-2071,-2004,-2467
-59,30,-24,-779,-2374,-4077
-81,-3,0,-4753,-1079,-3163
25,97,-57,816,459,1855
123,-63,109,-1802,1389,5076
-40,-125,-38,-2293,-1193,-1344
-93,75,-95,2085,144,-1120
-107,-51,-94,244,-384,-1075
56,-45,-49,296,-93,538
92,87,-64,119,280,427
-120,-27,120,-32,26,24
-101,95,-100,549,714,739
-68,116,82,533,-733,827
-19,46,55,182,-181,1164
47,45,-30,267,78,640
29,12,-21,320,-533,1826
48,124,-47,-671,-1253,2525
73,123,-41,432,-1239,2251
-96,-124,-61,1697,192,1657
120,-118,-60,804,-555,2248
-81,32,-47,2973,1098,2228
-55,60,-49,1723,459,2564
-33,20,-51,2420,324,2834
-89,-16,-46,467,-131,2509
-84,-45,-12,-109,-334,2285
-79,105,-38,1772,836,1955
-73,70,-9,2487,927,1621
-89,-88,46,686,1451,902
82,127,21,-13,-517,176
61,69,6,-1188,-1260,-509
113,-29,-60,-1225,-156,-862
-110,-24,-71,-763,-29,-716
-102,-22,-100,-121,256,-518
-94,-20,-126,218,-12,-852
-87,-12,123,-111,10,-739
-92,-25,114,-161,-89,-644
-101,-26,122,69,-97,-192
-96,1,112,-181,120,65
-98,18,108,-178,42,149
-91,42,108,-73,187,-32
-68,67,113,358,940,-760
-71,94,119,258,494,422
-78,117,107,-58,-129,637
-72,120,98,-196,-16,536
47,-27,-27,3500,833,-3977
-20,37,-42,1689,-576,-4566
49,-49,101,-1944,-1515,-3628
10,-92,32,1169,-164,-1157
120,-39,11,-1075,411,-670
7,-35,-34,10,-614,433
127,-8,-71,-1071,-2105,-1817
-71,-50,17,-2404,-2414,-3926
-123,93,-81,-4222,-1928,-4564
-126,9,-31,-2046,-875,-1078
-36,-44,-95,-740,829,1064
-109,-104,93,-1008,2969,7301
122,-107,116,558,-2565,-3916
39,47,48,458,508,-338
94,-46,-9,109,-330,460
-114,-90,-36,491,500,437
-77,-8,118,-150,345,58
-31,3,91,343,767,-245
-47,109,95,418,-31,533
22,-84,7,-974,-685,-526
43,36,21,593,158,413
14,3,-15,696,244,1640
105,47,-52,218,-1423,1998
-105,23,119,1316,-127,2306
-108,71,-128,1088,-766,2638
-78,-61,-45,-437,-1440,3235
-25,93,-24,2213,92,3416
-8,121,-28,1721,-149,3320
44,12,-46,2312,268,3176
33,-49,-72,2701,796,3352
-23,23,-50,7917,-786,4089
-88,-1,-52,353,628,824
103,102,-46,-526,490,124
65,-3,-20,163,123,-71
55,-39,-13,-119,39,-549
68,-110,-30,386,445,-793
84,-127,-32,105,38,-646
-108,117,-63,-1028,149,-1049
-92,44,-68,-247,241,-700
-111,64,-67,202,-16,-216
-113,79,-81,413,286,-138
-79,112,-91,-191,305,-51
-98,-79,-104,-1095,-163,91
-115,-39,125,-1112,42,-140
-111,-23,118,-433,256,59
-95,-1,101,132,249,61
-87,30,103,53,116,78
-105,46,100,-250,128,-44
-107,51,91,-111,143,-75
-90,57,90,-106,180,20
-65,-89,-56,4787,2719,-4155
0,27,-45,2075,2825,-4828
-116,-1,21,-44,-1812,-791
53,82,-49,556,-1396,-991
48,78,-118,-416,-2705,-2922
-72,-62,74,-956,-3771,-2997
-93,-15,-102,-3414,-3327,-5583
113,-58,10,-4170,-3196,938
-80,99,70,-280,1099,2659
-59,-102,-81,-4405,-88,3675
13,-34,-36,-185,-502,-3386
-50,-28,-71,2743,323,-2007
19,-14,-125,-1807,-685,-100
-13,-54,19,752,445,159
45,-61,-66,-193,-3,-64
90,-120,-60,12,723,204
-125,-79,-121,1317,-288,-411
-110,50,102,1352,-469,762
-85,89,6,1135,-124,668
-40,-9,-37,1887,46,1295
-48,91,-55,-448,212,1823
-10,-16,-58,2544,744,2020
82,87,-85,1577,280,2953
69,59,-83,1188,842,2906
-23,-15,100,1388,2610,2468
-18,45,123,-386,-602,3715
34,28,-120,1086,253,3095
82,-64,116,2994,1287,2809
6,-47,-125,1949,-592,1882
-80,-88,-66,26,-9,1775
-122,20,-35,1364,1182,1735
127,78,-3,1242,504,1467
124,105,28,247,44,1000
93,100,30,-271,-155,85
103,53,0,-590,59,-613
124,54,-63,-1681,-125,-1113
-107,-49,-82,-1034,-138,-1205
-102,-63,-100,-1042,650,-976
-104,-75,-117,-364,462,-728
-90,-45,-123,-226,171,-367
-75,-18,120,-198,208,-77
-81,10,-128,4,-27,-62
-83,46,117,175,323,120
-62,89,111,-308,232,64
-65,105,114,-911,-12,-184
-70,-94,97,-1803,246,-395
-89,103,-97,786,-71,122
-75,-119,-107,845,597,396
-54,-101,-112,769,175,429
-49,-109,-127,682,50,288
-111,-98,-109,3778,-30,-5193
-126,84,84,7409,1494,-3850
-23,-61,74,755,-3100,-2208
61,27,86,222,-787,-2075
98,-91,96,2257,-912,-536
103,31,-37,-2139,-2424,-1537
107,-10,-81,-2392,-1613,-2385
-24,36,-19,-1827,-1418,-2877
1,2,41,-1296,1538,-1513
123,-16,-53,926,3591,776
121,-45,-59,-2308,5308,1614
44,-4,17,786,-175,107
-105,16,-8,-405,-1945,-1226
64,110,-88,603,1056,463
34,78,70,138,-282,225
65,78,-116,-19,165,355
-125,42,94,644,63,121
-111,-85,106,779,-1761,366
-118,-109,92,-541,-1526,1479
-81,-103,42,-2078,577,969
-96,39,11,-2705,724,1895
-102,45,-7,1041,-391,2510
-13,-108,24,218,-7,1941
-47,-121,71,-405,270,2643
1,66,81,297,1073,2280
82,124,-122,-1302,218,3098
35,103,-115,87,381,2780
-126,-30,-48,2241,813,2529
97,-85,124,946,1129,1784
56,-73,-63,398,663,1393
15,126,-58,920,290,899
-12,105,-47,577,-109,155
-13,46,-86,-212,-31,-200
-32,34,-102,-1159,-400,-547
-15,-35,114,93,362,-536
-3,-11,110,-119,113,-779
11,-42,100,519,214,-509
5,-36,98,448,14,-490
4,-42,119,478,224,-122
-3,-15,104,-96,169,40
6,20,110,-562,-77,-41
7,27,107,-424,46,-72
5,35,99,6,294,19
11,46,91,196,278,91
7,64,73,-36,216,118
9,68,77,37,229,199
2,80,73,82,221,238
9,89,67,92,243,189
8,101,76,95,188,256
6,113,71,47,257,187
79,15,34,4354,717,-4618
-62,34,122,2770,-2545,-3401
-57,72,71,-1875,-1396,-3249
-95,71,68,906,-183,-1267
42,-55,29,-956,-272,-337
7,-68,122,775,-866,-78
85,-22,44,-3082,-1900,-2040
-86,71,19,-442,-1832,-3658
-99,118,-71,-5129,-2375,-4090
124,-103,-42,-206,757,-493
100,-14,-34,665,4062,3974
-128,-126,5,-378,4234,5247
18,-49,-18,-687,-3650,-4566
73,-52,-32,1756,582,-352
-115,-78,18,120,-439,568
-100,109,-56,-972,-198,606
-74,63,18,-260,-380,1203
14,82,-71,-287,141,568
3,96,-30,-195,-648,1144
43,71,-51,571,-582,1562
111,-84,-100,-403,-385,284
-69,63,115,860,800,1137
-77,53,78,474,248,2384
-22,83,11,-296,508,3036
6,94,123,-105,-940,3226
33,83,102,771,1390,3101
69,-123,-115,1324,-55,3298
-120,89,-86,1437,460,2712
63,23,-87,555,1151,2107
40,-11,-78,700,33,1792
-29,-50,-57,448,59,1152
-68,-94,-59,113,-262,404
-108,85,-59,360,-506,-74
-102,-8,-48,1091,161,-151
-84,-28,-80,730,515,-260
-41,-28,-93,216,97,-595
-28,-65,-108,67,153,-616
-31,-52,-122,-438,-25,-820
-38,-79,121,109,100,-541
-31,-81,112,339,328,-362
-25,-66,108,156,107,-147
-30,-34,96,-103,76,5
-29,-20,100,-81,125,154
-30,0,101,137,207,194
-28,31,91,92,203,242
-29,45,84,80,190,183
-20,57,82,240,181,109
-22,74,76,-96,39,54
-28,76,81,85,110,77
-32,86,82,259,254,-33
44,-60,-91,-716,1029,-6622
-30,-25,-110,-1228,2439,-5552
-72,72,92,-1814,2244,-104
56,8,-32,-1036,3777,2188
-32,-35,66,-891,-4983,786
-58,46,58,315,-2756,7316
123,-57,-79,3525,2029,-5738
18,7,-30,-1247,2753,-2716
-113,-19,119,2700,-1745,-735
6,-97,102,658,-905,-716
-2,47,-19,2288,-1482,642
-40,23,-7,1901,-3207,3779
-125,-61,74,-1678,-2067,3876
-82,23,-89,-948,-1471,3004
44,29,-124,-187,-3342,3710
-89,-33,-5,1136,-2164,2854
-88,13,-41,577,-743,2237
99,-35,-58,118,-1052,4772
-49,-5,87,2909,-2394,4351
99,-98,-94,1825,-836,888
-32,102,71,-553,182,-3263
-78,68,-105,54,1139,-3244
-72,20,102,-61,1081,-1627
19,63,91,-480,-741,562
-31,114,85,-275,-1163,1835
82,-97,93,-536,31,1224
-89,-54,86,-547,791,526
-111,-62,78,279,232,-364
126,-94,85,643,-502,-1216
124,-100,106,-422,-441,-1332
112,-101,103,-848,69,-846
110,-104,91,-790,341,-452
115,-97,84,-396,214,-51
113,-83,75,-66,24,248
119,-60,76,168,-133,437
-122,-48,79,254,-21,455
-120,-41,73,254,2,365
-103,-31,67,-40,122,267
-102,-27,64,-139,33,207
-102,-26,67,17,-3,170
-90,-22,67,4,92,7
-87,-22,66,-59,65,-30
-89,-18,63,-129,20,-95
-87,-14,63,-244,91,-216
-80,-19,67,-111,94,-278
-78,-21,65,-15,43,-313
-74,-25,65,-73,80,-334
-68,-27,67,-185,104,-276
-71,-25,65,-245,91,-242
-66,-18,70,-370,137,-306
19,64,-69,-396,3122,-4878
11,-111,-68,-3050,2930,-1021
103,-89,-69,-1847,2545,1638
-49,-58,-65,-5087,-2132,4758
-20,-86,97,-497,-2422,301
70,-63,27,2801,-471,3280
-127,7,3,4451,1027,-4448
114,18,118,-3613,1354,-2010
22,9,6,2461,-162,15
61,-126,94,535,-2588,-1281
43,-122,-123,1629,-3107,110
92,49,126,2591,-3089,2713
19,119,13,74,-605,4285
57,-4,-80,-357,-2414,3574
-109,47,-44,-1840,-2709,2148
-72,-37,-106,-1993,-3729,3007
39,-128,-56,506,-2630,3184
62,-43,79,4186,-2079,2907
38,121,-39,1244,-543,1843
81,66,-125,1788,356,-485
65,-31,90,-130,967,-2067
87,83,111,-244,677,-1699
52,49,114,-939,-13,-434
36,93,115,-824,-398,910
80,-122,112,-193,-139,537
114,-94,111,200,25,232
106,-77,109,-94,-25,34
106,-76,106,8,237,-103
124,-95,93,3,294,-177
117,-96,83,-288,118,47
106,-92,86,-117,34,97
-125,-76,86,-121,85,6
-115,-76,76,21,38,-30
-118,-76,84,-42,-44,44
-121,-67,93,-24,-29,86
-124,-58,87,153,37,-27
-97,-64,75,151,76,-47
-93,-60,85,-64,-47,77
-101,-44,91,-251,135,-50
-96,-47,87,-229,169,-84
-87,-52,75,-189,110,-37
-85,-50,73,-101,54,-27
-80,-41,73,-80,86,-63
-86,-43,75,-13,10,10
-77,-37,80,-33,61,25
-69,-28,84,-43,40,-29
-70,-27,77,-89,92,-96
-70,-37,80,61,22,-33
-63,-33,84,8,16,8
-59,-28,82,40,60,-14
110,-84,-84,2047,910,-5151
98,0,65,1098,1233,-6043
16,27,5,107,323,-3396
27,-58,-115,-3131,2023,-672
95,-51,33,-763,1368,1854
-58,56,-7,-7489,1787,3283
58,-8,43,-784,-5039,982
104,-8,51,6803,433,1508
-59,122,-102,1376,853,-2868
-11,-74,103,-984,826,-1801
-38,-78,-120,2387,-227,143
22,-125,29,137,-2081,653
-72,0,82,1357,-5000,2290
116,66,-8,495,-3962,3829
-35,44,-46,-2021,-2243,3539
107,33,57,319,-2793,1758
123,65,50,178,-4180,2878
-125,19,53,4409,-2736,4422
62,42,-73,8054,-357,5810
-28,117,51,5833,1794,3805
-58,83,38,-2108,1231,-229
9,-15,39,-3636,-550,-3373
93,13,122,-1501,-312,-3255
106,-7,119,7,340,-1383
60,22,107,60,-31,-320
25,48,102,-90,-365,132
53,74,106,-487,-7,160
96,93,114,-483,110,265
94,101,120,119,-134,480
94,115,115,469,-104,467
98,-121,100,527,37,310
105,-120,90,202,154,114
106,-113,78,-135,99,19
114,-112,73,-213,41,-148
122,-114,72,-262,114,-237
123,-119,75,-166,56,-183
123,-118,75,-90,59,-84
125,-113,79,18,8,78
-122,-101,76,26,95,46
-113,-89,67,13,69,28
-108,-83,60,-136,56,-91
-107,-82,61,-161,48,-91
-104,-80,63,-170,66,-97
-100,-79,64,-85,65,-51
-94,-76,65,-46,47,-7
-95,-69,62,34,33,22
-90,-64,61,109,51,12
-83,-57,58,10,50,1
-79,-52,56,-22,49,-43
-81,-50,55,-108,49,-80
8,5,-65,2898,5071,-3309
112,-114,-76,587,1083,-2590
39,-26,27,435,-1460,-1589
83,7,-99,-1121,-226,-3359
-57,-33,-69,-134,877,-5460
92,-47,-9,-48,2120,-5169
-50,-17,80,-2662,3317,-1378
40,51,-57,-249,4320,1880
-70,41,40,-5373,1964,5227
1,-15,37,-695,-6400,5188
-91,-78,71,-462,-2238,2933
-38,0,-63,2179,3109,-5927
49,51,-121,-553,1807,-3749
-128,-58,40,2153,186,-1083
-113,-23,6,2526,-1374,-1079
-19,-120,-90,2604,-3685,-1157
43,14,117,2807,-1413,1545
66,-120,1,383,-2329,3768
-63,-124,-40,-1203,-2649,4213
-81,-42,-127,851,-2515,2628
-30,65,-91,-1197,-3147,4500
66,-20,55,4361,-3771,7338
4,-91,-35,5538,-984,5761
43,58,25,5100,1752,557
62,26,92,-3208,1949,-120
90,35,-126,-4906,-503,-13
22,98,94,234,-269,-2421
49,13,113,2099,476,-2553
52,60,101,-40,289,-1148
35,96,100,-1217,-148,445
35,96,109,-441,-460,865
61,-127,125,-118,-271,758
95,-92,125,161,77,555
101,-90,109,473,223,2
94,-105,93,752,118,-171
94,-115,69,338,163,-132
95,-112,62,-146,90,24
102,-113,68,-24,-70,75
108,-99,76,-259,18,-72
115,-102,83,-10,40,-103
119,-101,82,33,66,-71
124,-96,71,19,86,-30
123,-89,61,-76,20,-22
-126,-86,61,-99,11,-38
-120,-79,67,-110,33,-58
-117,-77,70,0,13,-60
-111,-75,69,-32,65,-62
-109,-75,62,55,78,-29
-107,-71,58,-25,13,3
-100,-68,59,38,39,0
-91,111,37,-2754,4358,-2465
60,74,-113,1072,3442,-2618
-72,77,57,1453,3262,-4325
-76,-63,-6,1456,41,-3637
104,82,126,1762,2883,-5538
41,122,62,-680,2431,-4118
-34,-18,-91,-2146,2072,-1086
68,-104,77,-308,2702,632
-111,94,124,-6851,-5195,2723
-2,-109,-18,1278,-3583,2147
84,-66,41,1259,-319,4677
-43,65,-40,4085,4531,-5678
11,-54,51,-253,2583,-1447
-11,12,-59,307,1074,-319
16,86,99,909,-946,-375
39,115,83,1551,-4640,830
97,22,109,1979,-3727,1880
119,77,113,33,-3216,3671
78,71,-101,-1774,-1853,4018
64,80,-108,-335,-1374,2359
-120,33,125,-514,-3039,3193
-83,-68,20,607,-1654,2443
-21,-75,24,188,-1702,2391
126,-68,-40,2922,-2462,1362
-93,-38,-120,1618,-595,926
-126,-27,-127,1353,38,650
74,-53,105,1209,227,233
40,-96,82,1112,221,-67
49,-125,85,441,393,167
58,-124,66,-531,566,68
70,-122,65,-829,381,15
81,118,84,-634,53,-196
77,120,90,-540,31,-282
67,126,98,-837,126,-275
90,119,96,-321,313,-47
112,-121,90,161,250,-30
117,-93,74,-39,73,-32
115,-76,69,-70,-70,76
122,-65,69,-121,108,-60
-124,-57,64,-358,157,-167
-122,-65,64,-363,84,-173
-121,-72,73,-177,72,-68
-117,-74,76,53,37,40
-112,-59,77,130,68,61
-105,-49,70,180,43,27
-98,-43,60,71,-3,-20
-94,-39,60,-130,31,-20
-98,-39,62,-133,41,-43
-93,-40,68,-100,47,-38
-83,-39,65,-77,74,-59
-38,29,95,-5084,-135,4680
96,-17,66,-140,-2520,1264
-112,-13,48,478,-120,363
-102,-95,-66,4310,3311,-4600
4,-105,-76,-485,1841,-2464
37,122,10,5091,468,205
18,-100,105,827,-1281,265
-115,-128,22,880,-3155,1165
-114,-13,105,-151,-3867,3240
-76,33,-27,-1094,-4559,5022
-102,-44,-118,-1548,-6632,5625
-41,48,113,-251,-3823,3305
-116,-56,126,1252,-2298,3776
-47,121,-47,2209,778,2050
-95,43,89,2354,1612,272
-92,-34,59,492,1005,184
-101,125,-58,459,-2022,928
-56,-103,-58,1190,-1142,2353
-107,-28,81,843,1245,-704
88,-109,95,1102,1417,-2644
98,75,-123,635,94,-936
82,59,-122,-245,-552,-324
58,75,117,-1088,-213,203
72,78,122,18,137,739
112,106,110,220,198,711
125,-113,101,-57,-163,572
115,-114,101,180,-225,182
107,-127,95,414,-23,-112
113,127,85,82,177,-41
114,-123,74,-306,61,17
121,-120,72,-334,42,-92
-119,-118,78,-257,80,-135
-119,-124,85,93,27,-79
-121,126,82,399,129,52
-113,-123,72,213,51,175
-118,-109,66,69,-48,183
-104,-96,68,-36,77,62
-94,-91,69,-122,89,-63
-97,-94,71,44,5,-125
-90,-93,74,-78,88,-105
-91,-89,71,-147,106,-89
-89,-86,64,-103,109,-52
-87,-76,60,-155,80,-59
-77,-72,63,-135,71,-34
-74,-64,62,-96,67,-81
-76,-59,62,-85,35,-97
-70,-57,64,-170,87,-100
-70,-53,66,-191,63,-93
-64,-50,65,-188,103,-97
-63,-50,64,-52,53,-42
-67,75,-1,-9202,460,5210
-36,-63,38,1298,-5817,1566
7,15,119,735,361,4319
-86,93,-112,5020,1421,-3792
118,75,-42,222,728,-2037
-114,-70,-1,149,2419,-689
-77,-123,-86,3266,-1770,600
5,-81,21,674,-2338,278
-68,40,68,1019,-3894,2342
18,48,-104,691,-3939,3807
38,-94,-107,-1350,-4179,4926
-115,-37,-66,-665,-2580,3198
-92,97,-125,836,-1589,2885
86,89,21,1288,-1475,3551
5,-32,-86,2477,-890,2076
-4,-113,-70,3642,-958,2415
-52,-21,-69,2350,167,2397
62,15,90,765,498,-727
10,-98,126,340,-317,-1683
57,52,-119,-511,345,-1256
49,38,113,-1031,499,-640
25,51,100,-1126,49,-10
39,89,94,-1029,-106,115
70,116,101,-970,48,-298
93,121,102,-717,232,-639
78,114,107,-227,102,-406
67,111,106,267,-14,75
80,126,98,344,16,450
100,-105,80,383,-23,483
109,-91,74,126,-15,203
122,-84,78,-101,38,-85
117,-87,86,-128,74,-218
114,-97,86,-80,190,-199
121,-105,75,11,164,-33
127,-101,68,60,47,93
126,-92,68,140,9,88
-118,-87,75,223,46,90
-112,-84,75,179,47,76
-108,-80,73,99,76,30
-104,-80,68,40,111,-14
-101,-79,63,-44,77,-17
-97,-78,63,-70,62,-20
-96,-76,67,-49,70,-3
-90,-72,67,-46,74,11
-84,-67,63,-86,66,-27
-84,-63,63,-97,95,-75
-79,-64,64,-91,67,-36
-74,-62,64,-30,69,-26
-74,-58,64,-66,58,-22
-71,-56,65,-8,91,-4
8,124,19,938,4066,-3665
-25,87,-18,3001,1548,-3268
49,103,-28,353,1189,-6151
44,-74,-68,1699,2642,-6025
117,-111,102,624,2093,-5177
5,-65,-119,-3438,2691,-1120
79,-47,101,-1262,23,2922
-74,-113,-89,-8186,-3742,8195
9,-81,38,4127,104,983
-67,61,76,-3307,-2140,1072
-77,-107,-87,4228,3273,-4262
-46,-35,-114,582,-26,-1826
5,-99,29,3106,-1426,-252
-55,-30,3,390,-478,6
88,45,39,1718,-2877,1752
-60,14,-113,726,-4520,3534
-18,-68,115,-974,-2744,5325
-95,-78,-46,-1724,-1447,3618
-97,-100,105,-207,-1614,1203
25,-30,97,-896,-4163,1757
-128,-92,-71,-726,-1246,3073
-64,66,-119,1114,204,2611
-92,-23,-122,3280,-1097,980
-62,-103,115,3951,-912,1617
-123,-22,-128,1340,-661,859
73,-52,108,633,238,-467
63,-125,85,486,850,-1077
65,69,58,24,1016,-815
68,75,63,-524,435,-118
68,82,76,-658,-203,101
89,93,84,-356,-158,62
100,98,93,142,50,60
99,105,101,370,2,222
99,121,90,509,75,310
114,127,74,201,183,78
122,-125,64,-42,195,34
120,-127,61,-33,1,-42
126,-125,67,-117,55,-154
126,-127,71,-76,94,-106
-126,127,66,4,95,-32
-123,-124,59,22,50,-14
-114,-119,60,28,20,22
-114,-106,61,-38,27,0
-107,-107,62,45,67,-31
-102,-104,60,33,68,-2
-98,-98,56,16,70,-15
-99,-94,51,-25,86,-50
-93,-95,52,-43,77,-5
-90,-90,50,-25,78,-8
-89,-87,49,16,61,-16
18,-75,14,-1315,6169,-1629
60,21,-88,-218,4319,-4538
107,59,-113,2019,2366,-3864
-52,117,-107,1034,588,-1715
-99,16,-58,1321,711,-2702
12,-40,29,1188,-704,-3635
100,-112,-65,1501,1220,-6061
-87,55,82,-696,1911,-3909
17,-110,-26,-2581,3154,-238
-115,90,-21,-4864,-102,5224
97,-122,-102,-1140,-1485,3565
-98,49,119,-5872,-1030,-542
110,-97,31,3351,381,247
9,115,-125,3939,1564,-3594
-87,-119,-103,-100,1023,-3147
20,76,-78,4057,-1477,-474
31,-77,-22,1139,-1544,-852
8,95,6,1647,-3607,791
3,-57,79,2099,-4666,2949
96,92,39,-1282,-3130,5364
61,41,-32,-1766,-2544,4344
122,64,126,-1629,-2895,4346
22,-5,70,-268,-2548,4675
103,103,-61,2414,-1159,2297
27,69,15,1904,-1997,1067
-27,-30,-57,3400,-39,1409
-123,39,103,967,747,2
48,-91,114,1531,-282,-1160
37,108,112,866,-224,-1046
50,90,93,-145,338,-285
50,104,93,-601,138,412
60,111,91,-351,-29,244
85,-122,97,-215,83,60
83,-121,95,103,46,-180
82,127,92,219,77,-142
92,127,79,85,92,68
88,-114,73,-84,23,69
104,-108,76,-100,189,63
121,-93,82,-430,519,312
117,-109,83,73,176,60
115,-100,72,199,-163,-129
-128,-98,65,148,-161,-178
-119,-91,68,-124,-19,-97
-126,-85,77,-147,81,15
-123,-85,75,67,96,-2
-109,-80,65,-59,102,-17
-110,-77,58,-11,23,-58
-105,-75,62,-80,79,-65
-102,-76,62,-9,98,-45
-99,-69,60,-77,55,-12
-28,59,122,-3841,5096,-3244
-23,47,78,989,3939,-5419
55,-113,-57,2005,637,-4538
25,81,79,-468,-273,-4175
87,47,31,1003,-1918,-3289
101,-24,-62,-678,-736,-4850
-73,-105,122,-770,-228,-4510
-5,33,-114,-1582,1042,-4091
-38,59,97,-1676,2887,-2703
-115,-113,-64,-2421,358,1120
-11,58,-27,-4545,872,3000
-92,-69,69,-708,-7156,4384
119,-57,78,-4855,-220,6174
98,46,-50,6170,4531,-7024
-39,67,126,2676,411,-1749
-88,-93,94,-453,1613,-959
57,42,30,5422,-4001,636
-43,-78,-59,3449,-3801,2281
-43,106,12,2066,-6040,5763
-121,100,-120,-957,-2832,7610
-25,-114,72,-2497,-870,6059
21,-33,60,2509,-631,3797
-8,57,-102,3218,202,1277
82,-12,-128,3045,642,2160
95,102,-113,533,589,3285
-119,10,104,2118,-791,596
40,-93,84,3594,-973,-669
37,69,-128,2711,-804,-655
48,21,-88,1509,-264,-16
3,28,-83,326,166,805
-12,56,-105,-635,546,992
23,89,-125,-1041,564,609
39,108,115,-822,357,-14
40,65,111,695,18,-638
16,48,114,962,-381,-626
32,39,113,519,-98,-232
49,49,108,-333,145,23
54,65,108,-748,84,92
76,83,110,-796,47,-81
84,111,110,-1012,112,-491
81,112,111,-989,173,-702
82,117,99,-922,310,-555
82,122,87,-311,227,-156
88,-124,78,227,62,62
102,-114,76,418,-18,192
111,-99,74,521,-67,326
106,-91,76,506,-69,191
-126,124,70,1243,280,243
-118,-114,51,186,-3,79
