AccX,AccY,AccZ,GyroX,GyroY,GyroZ
-100,-125,-25,4028,-2306,-1757
-43,-22,51,2109,-4459,-2120
-31,15,-111,2152,-5470,-2674
-25,-43,-127,3470,-5547,-1565
22,47,-79,-236,-4347,-352
5,19,-79,-705,-2039,-367
62,-96,5,379,765,-610
57,-56,48,1113,1685,-257
-18,-16,-119,-1072,-92,3211
-125,-42,-31,521,-3724,7380
-33,-84,-116,-3190,1383,7332
-68,108,124,2177,233,4936
-93,-69,85,1909,1137,-1873
-93,-125,-128,-673,-372,-5523
13,45,-32,2272,-130,-7297
25,47,4,1517,-857,-6875
-122,-64,-97,-151,161,-2747
-106,-63,68,198,963,-544
34,21,64,-3130,-1148,680
-123,-112,116,398,-134,-181
-29,35,-108,3,877,116
114,122,121,-6063,2128,-873
69,-6,121,-6950,2042,1328
87,14,80,-6222,-78,3094
-52,15,-83,-2720,-656,4199
-126,100,40,-1796,134,3608
31,-110,74,-977,1032,3193
-119,-79,-94,-369,743,2168
82,127,-118,122,343,1516
29,85,-103,596,-88,1076
5,-52,92,2398,117,307
-15,116,22,2493,-4,-460
-34,89,-5,1105,7,-320
-63,26,-6,539,-77,-352
-61,-46,14,545,-10,-151
-56,-78,23,832,-46,-168
-43,-76,20,439,-20,-301
-45,-91,20,134,25,-440
-48,-105,14,377,103,-429
-45,-120,7,495,115,-333
-36,-98,-7,76,27,-262
-39,-97,-5,-1,-16,-306
-37,-96,0,154,-12,-367
-18,-114,-8,341,66,-305
-37,-93,6,-88,-251,7
-50,-45,5,-487,35,-229
-26,-66,14,328,119,-362
-32,-70,6,474,-113,-248
-32,-61,0,44,21,-394
-12,-84,6,234,51,-137
65,60,65,4018,-1898,-2415
71,119,33,5453,-2965,-2475
26,-124,-92,5423,-3995,-621
43,-81,-12,3591,-1983,587
-45,27,79,-639,-253,228
-45,117,-86,1283,21,266
-8,-46,8,701,-807,1407
-109,17,-31,-538,-1020,4939
76,-60,-28,-110,-1077,6167
-115,111,-39,-1316,220,5520
75,0,-28,-472,-1692,3741
-18,26,11,-1487,-501,2192
-103,-108,-108,-614,524,-2889
101,30,73,224,3116,-4359
113,51,-111,-1287,1460,-5013
18,-86,-61,2561,2228,-6558
-90,-32,-61,4272,3776,-6559
-107,97,32,-1259,-1288,-334
52,-16,-76,161,-1180,-408
-72,114,-8,-739,-1315,206
111,-47,85,-720,-381,63
-6,-46,74,-2871,780,-527
62,-111,15,-5611,697,-549
-16,-57,-45,-5290,175,1552
-48,-73,-126,-4345,517,2697
47,126,119,-1437,1206,4761
-25,-56,-71,-1376,217,5293
-51,-31,-21,-1595,138,4105
-40,95,61,1180,432,1818
126,-53,35,3186,646,787
5,86,-7,2478,272,-335
-40,35,-25,364,607,-647
-85,-43,-10,-186,393,-390
-80,-119,1,538,289,-301
-38,116,1,935,340,-740
-20,73,0,1096,215,-1028
-8,49,16,843,-63,-864
-25,46,20,442,-216,-666
-24,49,31,-58,-385,-472
-19,101,43,-796,-146,-439
-34,80,15,38,140,-626
-14,62,8,453,-161,-151
-24,-121,-1,-697,-287,90
-26,-106,-7,-754,-128,-91
-34,-89,-2,-481,-217,-84
-26,-61,-4,-410,-156,-267
-19,-53,-8,-321,-164,-382
-27,-51,-15,-224,-125,-437
-40,-43,-13,-311,-173,-375
-51,-43,-18,-72,-43,-318
-43,113,-14,3095,-2607,-2758
42,55,-49,6645,-5287,-1962
52,-115,-101,7682,-7264,934
-62,-16,-86,-2325,-3542,497
-77,108,3,-1106,-1784,-650
30,83,-37,-264,-1424,36
-29,-79,-105,433,519,581
14,-29,0,773,2265,2602
-114,-97,2,-536,-265,5111
-96,-26,99,-1188,-257,8562
48,72,-112,-3182,-3119,4869
-91,-47,-127,209,997,2414
78,-12,-106,1026,2212,-3220
10,-127,77,1662,2394,-6524
108,16,-6,711,-102,-6322
-81,-128,-17,2944,-361,-7437
-83,122,-89,3413,1272,-3515
31,13,-36,-2689,-648,-215
45,-37,112,-2930,-833,-144
47,84,-127,-3710,-181,-1031
-112,-81,7,-6527,1426,-1386
62,-56,-109,-4873,1161,805
39,65,-121,-2956,570,3038
110,-119,-94,-2967,320,4039
99,58,-76,-4356,-323,4686
-79,39,-110,-4775,-998,2849
41,-103,-86,-1635,-1711,1987
-14,-31,-39,7089,-1344,766
7,97,68,2518,1199,374
16,61,63,221,1840,178
-52,-123,40,2018,112,489
-10,107,0,1330,-243,5
-4,105,0,-61,-69,-61
-59,111,-3,-878,27,-303
-59,74,-4,61,105,-592
-45,54,-2,572,82,-736
-37,53,-10,825,86,-682
-34,52,2,453,-76,-560
-23,35,1,378,124,-664
-7,25,17,344,-197,-382
-22,41,27,-23,-270,-47
-50,69,23,-361,-160,-42
-45,91,10,-317,30,-23
-26,102,-11,-59,501,-20
-3,116,-22,-162,827,-264
1,104,7,-6,37,-208
-3,119,15,322,-275,-58
-5,-111,14,30,-66,-290
-8,-105,8,-24,104,-487
-5,-125,5,383,-52,-439
-44,-22,64,5225,-2427,1471
-100,102,-122,7394,-2848,7
63,63,43,123,-483,-4054
70,92,28,4280,-2946,-2671
0,110,93,4328,-5510,-1346
119,-56,103,1266,-4762,-649
-53,50,-72,-314,-2334,-317
-34,-101,-44,-268,-2663,312
53,9,-2,-1073,-151,-120
-7,35,-128,572,800,185
63,-20,-126,387,1461,1546
-57,27,53,-1105,-3789,7792
-70,-11,118,-1742,-531,7327
85,40,-97,565,439,4993
-40,-2,10,252,1067,2669
28,4,67,-497,-844,-2581
33,-103,-9,370,937,-6273
-4,95,8,820,2350,-6107
0,-64,-26,3979,1716,-6770
-65,0,11,3095,-147,-3946
58,47,-113,665,170,-1256
-84,106,100,-2388,510,-125
-100,39,-63,-1287,-731,219
-60,-119,-6,-509,-25,-354
105,57,-65,-5985,988,-1645
-55,-112,6,-7672,897,-1197
99,3,-74,-6735,941,1709
59,-83,-54,-2571,158,4350
-7,-6,45,522,216,5693
60,-58,-104,-1015,2538,3573
24,4,58,-1715,-462,3340
10,-104,56,-645,378,2120
-122,120,115,-109,-556,708
31,46,121,1215,-357,59
-8,-99,73,2779,415,-551
-35,118,43,1704,126,-897
-35,76,36,520,46,-542
-40,16,28,-107,25,-648
-39,-8,37,280,-45,-469
-33,8,36,-22,6,-403
-17,53,16,-764,9,-816
-22,67,24,-935,-97,-1040
-22,46,28,238,-116,-465
-38,59,39,517,-232,-127
-32,114,28,-506,-45,-347
-30,112,34,-72,-86,-179
-28,-128,32,162,-44,-213
-27,126,23,431,-48,-176
-26,-119,13,235,-47,-212
-26,-111,10,59,-56,-268
-10,82,92,3779,-633,-4127
-11,122,93,4554,-3201,-4048
-47,-67,-108,4556,-4290,-2166
80,-13,36,5992,-4890,-214
123,-8,-1,2569,-3084,154
15,43,43,-789,-1336,14
-91,-11,13,60,-1040,433
118,-107,-37,1137,-55,352
-114,7,105,-37,651,872
-100,20,10,-807,411,3127
-93,-80,20,-118,-3060,5064
-127,-82,38,-225,-956,4604
-65,-80,-27,24,-950,3117
120,43,75,-1939,-366,3350
-90,-64,119,-492,-751,2253
-83,-27,118,-1337,-845,-868
75,75,29,1014,3936,-3322
-125,-98,73,-1597,3797,-4205
95,53,42,2223,3213,-6385
112,-68,-46,7792,1104,-7132
-109,61,-42,1478,-2631,-1808
-87,56,68,-2346,-860,-807
-112,123,-51,-1198,-1194,568
126,62,-12,-509,-36,154
-30,-42,-44,-2896,1265,-299
67,117,51,-6434,1897,-115
35,55,-45,-5131,1615,1614
25,-47,105,-5557,1453,3576
62,7,-70,-3162,312,5968
82,71,40,-2477,-446,5776
127,-96,-106,-1938,1507,3578
76,74,11,797,873,1839
113,-74,-7,3427,-1114,672
8,102,93,1680,-528,-776
-21,-20,16,346,612,-1635
-78,66,14,1419,167,-804
-70,52,10,371,-29,-93
-54,51,19,159,-1,-130
-36,68,21,26,200,-404
-29,86,35,-34,-1,-640
-50,75,49,273,-250,-259
-52,80,47,18,-26,-256
-43,108,48,-117,-102,-154
-40,102,53,469,-143,-179
-29,118,47,285,-8,-130
-38,-124,45,-6,-77,-202
-36,-127,39,254,91,-237
-34,111,35,515,3,-200
-18,127,18,184,-12,-226
-26,126,19,135,-51,-220
-9,50,85,2981,-1859,-3535
-2,68,89,4400,-3446,-2898
-111,61,-86,6912,-5527,-668
35,-9,85,2992,-4889,712
46,38,-72,-1273,-1916,33
-85,-23,-96,-230,581,-625
99,1,40,-101,-80,-59
-128,80,58,1229,947,571
-71,-51,-46,-44,-722,2053
-53,13,57,143,8,3087
83,95,122,-2744,107,5775
36,-5,-101,-1458,-2066,6776
11,44,-103,-2076,-1436,3877
47,100,-125,-1164,763,1866
104,-93,-97,769,1835,-3861
108,40,87,3757,2391,-6653
-39,21,107,2156,1702,-7031
62,65,-87,5225,-477,-6834
11,105,-26,2405,-1037,-2991
127,-106,-81,-4738,839,-1122
-124,113,77,-8293,-349,-1410
-83,-104,88,-7480,1338,-1379
104,62,49,-5758,1561,913
96,-36,-114,-4276,1225,2677
-43,62,8,-1464,-702,4889
35,60,85,-583,-553,5972
-68,-64,-119,-1557,-1368,4297
-50,-99,-112,375,-183,3034
80,-26,-52,1597,893,969
23,11,-74,1063,-1250,-373
-69,78,-94,1002,-743,-1298
-52,93,121,903,45,-637
-21,29,80,538,201,-455
-37,-12,56,-231,-149,-542
-47,-29,35,-23,-116,-217
-48,-2,4,-69,-260,-301
-40,23,-3,-324,-282,-115
-43,60,-18,-342,-253,-235
-25,93,0,-305,-200,-187
-29,97,9,51,-463,-147
-8,100,4,281,142,-120
-7,102,-1,251,-163,-130
-35,100,-12,220,0,-106
-49,116,0,90,166,-36
-28,120,-3,542,308,-99
-4,-117,14,165,655,-238
33,90,49,672,158,-77
-40,91,32,35,-164,-217
-18,64,32,422,244,-49
-35,58,49,557,-227,70
-47,116,118,3163,-1254,-3664
-27,-73,72,4083,-2600,-4038
117,-106,-123,6353,-4643,-2677
124,-40,-127,4194,-4226,-42
-45,-31,55,1704,-1731,1011
-107,-2,34,-331,-432,-98
84,-106,-23,1402,-676,1115
-127,60,-107,-67,-547,1049
-63,-54,45,1935,173,4179
-79,-92,-1,-647,330,7311
4,99,-98,-2095,-70,6390
-16,-69,-30,-630,-1616,2902
-123,28,100,430,2159,-540
47,78,-32,782,1361,-5565
5,77,-93,416,1055,-5974
42,0,74,935,479,-6904
-24,37,-16,6345,964,-6479
-32,-85,-89,-303,-1369,-295
13,78,-71,-2405,-281,114
26,45,-9,-1304,-1458,683
125,-12,-13,-4722,1268,-385
7,-30,55,-7926,3059,-1523
-9,-38,103,-8746,2451,18
25,-80,22,-5778,379,3145
73,-120,72,522,-3375,6336
-36,28,110,1036,-1401,5485
79,107,34,-554,1372,2183
-60,1,109,805,131,2200
70,-69,90,738,-114,1486
8,120,19,1188,163,391
-38,45,-5,1543,151,-305
-70,-44,-26,1332,176,-945
-74,-84,-20,651,220,-895
-75,99,6,661,30,-378
-83,81,13,811,-62,-100
-91,76,13,548,-103,-366
-57,46,22,525,22,-393
-84,42,30,295,-164,-287
-70,24,7,425,195,-308
-49,23,21,413,-305,92
-55,85,10,-441,-32,-108
75,-58,3,3933,-527,-4486
63,72,-16,6242,-3434,-4552
32,59,55,3190,-4774,-2212
92,91,1,459,-4943,-1094
-110,-80,118,1277,-4860,507
-26,4,-125,806,-1701,889
-84,12,-69,1441,1525,838
-53,-79,30,-1126,252,2307
82,116,80,-1070,-1707,5656
-106,39,101,-1159,-1453,8940
44,69,71,-2941,-1845,4307
115,-13,-118,217,410,2038
89,78,-86,553,1494,-2685
-31,87,-12,1226,2391,-5179
69,96,46,801,1502,-4938
110,-30,60,4285,562,-7301
115,-10,26,4044,335,-6174
-72,30,106,-1281,-860,804
-39,-122,37,-2950,221,-379
75,-109,99,-6311,-917,-665
-76,-79,-103,-7164,2158,-52
-27,121,-13,-7304,2366,1971
23,106,87,-3575,-99,3184
22,-106,66,860,-1553,5617
-22,-105,76,-665,-1428,4257
26,113,58,43,212,2504
-23,54,-67,348,57,2289
-96,-57,78,1578,577,1354
102,-38,40,302,179,567
21,107,-30,640,222,-92
-14,53,-27,1197,-208,-448
-11,13,-32,897,-124,-764
-34,-53,-8,1093,-293,-531
-44,-86,8,1206,-223,-397
-24,-100,13,693,9,-765
-8,99,25,586,56,-968
-36,61,28,572,-48,-864
-25,48,30,443,24,-488
-9,80,10,-181,69,-420
0,89,8,-191,-21,-337
-15,117,-3,-189,33,-341
-36,-125,-8,-16,-101,-164
-18,-100,-13,-206,46,15
-17,-83,-18,-33,-101,-52
-10,-60,-21,-40,-114,-169
-7,-58,-15,88,-119,-283
-12,-59,-10,207,-186,-320
-21,-65,-5,157,-169,-351
-22,-71,-1,157,-105,-325
-23,-77,-2,211,-122,-298
-12,-71,1,34,-55,-193
-24,-62,0,81,-83,-196
-27,-52,-2,121,38,-251
-18,-51,-9,208,-15,-226
-12,-48,-16,184,-3,-270
-20,-50,-19,157,-51,-237
-16,-45,-22,60,-45,-248
-15,-44,-17,171,-102,-236
-16,-38,-16,143,-69,-255
24,-61,93,2442,-1994,-3908
-12,-66,-126,4683,-3773,-3282
91,45,-69,4604,-5109,-1425
-95,22,86,2632,-5492,-281
-90,-55,13,2224,-3134,614
-103,-6,49,612,624,-245
114,45,-15,1938,1104,269
-96,54,-39,-146,1331,2406
65,84,93,-1366,-1304,5622
-45,5,-37,-1370,-2030,5641
-43,-105,70,-2785,-1114,4760
2,68,-12,-457,286,4235
-23,26,119,-1246,1194,2175
-102,35,-21,1894,730,-6241
-4,-122,36,313,4696,-5356
33,-122,-83,1091,2799,-5790
81,-108,10,5344,2681,-6208
-85,-40,-7,7242,1731,-3471
-11,49,81,-643,-1727,877
3,122,5,-5403,-867,-473
-19,-46,-38,-6150,-405,-1258
79,31,77,-7044,573,-1031
63,98,66,-4318,190,842
57,-87,110,-792,248,2811
-119,-102,-58,-2394,710,2184
73,1,35,-737,486,3923
-19,4,99,-1276,57,6523
-120,-110,93,-1864,606,3464
-15,64,-123,-227,89,2137
71,-58,-97,1408,-850,459
13,66,84,2100,-241,-730
-3,-33,1,1623,384,-1055
-33,-83,-7,1048,37,-926
-45,-124,10,599,-303,-533
-25,103,23,246,-125,-651
9,64,47,813,165,-867
13,32,53,1029,15,-1045
-3,24,73,418,-320,-716
-12,28,56,-75,-190,-291
-18,61,47,-375,-223,-62
-12,110,21,-418,-116,-248
-23,121,23,-74,-264,-227
-13,-119,17,50,-90,-214
-17,-99,9,109,-159,-169
-20,-70,3,-484,-103,-432
-16,-70,8,-310,-65,-421
-28,-76,15,229,-140,-375
-41,-92,0,763,-87,-453
-37,-101,-13,589,-183,-204
-30,-78,-15,-259,-346,282
36,-73,-15,3778,-1216,-3753
87,105,30,4870,-4210,-3740
61,-17,-101,5382,-6129,-1909
52,-26,-32,897,-5333,-538
91,-84,-109,1264,-1689,-688
-50,-86,-44,160,-883,73
-77,35,31,636,1517,236
61,102,12,1999,1361,2201
-81,105,-36,-1195,-1910,6426
111,-90,-32,-2692,-2239,6786
56,123,-16,-2427,448,6342
-32,37,105,946,-6,3593
-77,-121,-37,645,585,-1795
-2,53,-48,1279,890,-6686
22,7,-96,1810,1602,-6125
-120,-40,74,3902,1033,-6151
123,60,-26,1826,-736,-5579
-65,-42,-97,597,155,-1645
26,110,-25,-2169,-753,350
-99,-17,-103,-1651,-680,520
127,-52,-74,-5027,-157,-55
41,-100,-62,-7120,1847,-659
7,59,110,-6848,538,1776
17,-18,73,-2428,-17,4235
-68,59,-9,-3090,-1454,6231
-88,-64,43,-3093,-517,4704
65,-119,95,-649,335,3136
-8,93,-30,2176,-775,1558
119,83,89,1869,-58,-911
14,-53,5,1341,785,-1244
-66,-34,15,2782,665,-692
-66,-99,-26,3071,661,-41
-45,-103,-44,1201,414,-222
-17,-112,-33,-156,-18,-193
-1,121,-11,-139,-83,-535
0,82,0,813,62,-446
-18,68,10,875,-108,-480
-19,91,19,68,-13,-340
-11,91,24,139,116,-391
-6,72,21,659,91,-436
-11,69,10,638,84,-249
-10,91,8,257,-62,2
-5,-125,3,-170,-122,138
-8,-125,0,-84,-247,12
-14,126,-1,262,-78,-249
-17,-128,-4,291,103,-252
-17,-117,-10,-49,-42,-251
-15,-116,-12,-99,-68,-250
-17,-117,-8,72,-92,-200
-15,-119,-7,105,-73,-178
71,4,65,3826,-1360,-3117
-112,25,-65,5852,-1548,-4390
83,-110,66,8831,-5570,-834
55,45,-23,2378,-4448,-178
-6,-55,-89,-752,-2249,-448
65,-123,51,-558,-2255,492
98,-95,-14,-100,122,354
34,116,-69,563,650,7
-88,68,-104,2302,1731,538
-127,95,36,-2204,-2157,5273
-14,-127,43,-2151,-1758,8844
2,-20,55,-2239,104,5370
68,-105,109,665,529,3576
-30,105,2,1247,2236,-3247
71,79,58,1976,572,-7462
127,-126,117,3618,492,-6965
-110,2,-26,4393,-1166,-6195
-42,70,-63,-157,-1701,-2822
-88,26,77,-2566,-95,-1309
-20,27,-9,-1049,-57,922
51,29,-1,-1328,-561,231
-29,-24,-121,-5353,2267,-1108
84,101,-27,-7356,3701,-947
48,12,-112,-7880,1776,1343
110,-32,-87,-2785,-130,4629
75,83,50,-631,-424,6643
86,62,16,-2568,787,3791
110,-4,74,-1560,894,2126
-14,37,-54,-2017,-605,1405
104,3,0,801,-779,1198
32,-101,121,2458,169,-958
-8,45,33,1939,256,-1928
-40,-91,3,1700,-104,-1016
-60,71,-3,1503,40,-62
-46,72,0,834,-22,-378
-30,79,12,86,-188,-575
-29,45,34,232,-158,-466
-36,46,39,354,-133,-216
-44,75,35,-143,-99,-142
-34,105,28,-173,8,-254
-29,116,22,-121,-26,-328
-34,-111,18,-487,-29,-290
-36,-115,16,106,2,-237
-29,-117,9,556,84,-167
-26,-95,0,165,-68,-256
-24,-95,0,73,10,-278
-26,-99,2,222,-46,-290
-26,-96,4,250,-60,-307
-24,-91,6,141,-11,-311
-27,-92,6,218,-45,-321
6,-45,-86,2803,-810,-4723
19,-49,126,5538,-2287,-4991
-69,85,90,9363,-5167,-4114
34,-102,-5,8566,-7863,-832
-68,-100,105,-674,-3167,89
-128,-124,-13,-854,804,-530
-30,-55,-31,682,97,835
44,19,-50,1682,2821,1232
-23,-71,-42,-1993,-707,6920
-11,-26,74,-1022,515,7894
41,89,-10,-3339,-1700,5310
69,28,-50,-572,-24,3352
-85,13,-52,781,1493,-2936
10,-46,15,1819,3216,-7144
114,-15,104,662,1303,-6776
19,-99,-121,4424,773,-7404
-5,-118,47,1677,-1107,-3971
11,26,8,-873,-992,766
62,123,-58,-2823,-176,-157
-116,2,12,-862,9,1073
14,-57,-50,-5363,1375,-786
65,-28,0,-7599,2072,-416
78,-1,124,-5428,2298,2032
46,-113,-38,-1080,80,5677
-3,-20,32,-2376,402,6091
-100,-17,54,-3247,845,4500
-53,-40,-107,-945,-266,3532
26,118,-79,3439,-1831,1724
70,-86,-2,1793,-235,-735
-8,35,-50,742,1019,-1547
-69,-125,-38,1149,443,-1351
-106,20,-3,1531,-164,-57
-81,50,-5,489,62,-502
-51,10,14,1126,518,-849
-38,-7,41,908,85,-692
-66,-4,63,-83,-506,-699
-58,2,57,-92,-29,-315
-49,20,46,-158,137,-487
-43,30,35,-15,-13,-385
-44,33,27,193,36,-318
-43,60,14,98,15,-203
-39,64,11,302,-46,-141
-33,84,8,136,-26,-191
-32,88,4,178,-72,-168
-39,100,6,61,-70,-206
-36,101,6,111,-88,-153
-35,111,8,107,-76,-134
-39,-128,4,-70,-93,-119
-37,-118,5,23,-71,-251
-33,-116,4,169,-22,-302
77,34,119,1907,-1365,-4871
-48,-28,-71,6408,-3378,-3445
-62,-4,54,7209,-4780,-1879
66,71,-117,1067,-2456,-1519
-42,-19,29,-783,-551,-371
-95,-80,-64,709,815,70
-40,79,-17,2759,1119,902
104,-18,73,4845,-1194,2867
-120,-119,-16,5,-1976,7403
-109,86,-34,-3333,-738,6385
123,61,82,-4821,-952,5597
98,-58,76,49,2181,3844
-37,38,89,38,-738,-2180
112,-61,-92,2009,1902,-6984
94,-97,35,1053,4293,-7240
94,-67,-41,3615,1889,-6665
-107,102,27,5407,1706,-5225
117,35,44,-1639,-1197,407
103,121,28,-1794,-1190,586
-71,103,95,-1050,-1319,231
23,71,99,-6649,315,-797
111,-123,-100,-5610,2456,-62
72,70,-120,-5531,973,3093
104,50,111,-3527,285,4188
-1,93,-32,-2349,-587,5506
-26,28,38,-2069,-151,4007
62,7,94,-1193,-422,2938
-40,-26,-49,32,-1324,1994
96,105,-77,2306,-457,977
39,77,35,2212,1038,-325
-17,55,-21,1073,624,-927
-45,-47,-14,988,-6,-874
-37,122,-5,1200,-1,-1123
-51,39,3,1597,-6,-661
-54,60,13,522,-59,-222
-38,67,9,-108,-78,-611
-22,65,26,-201,-65,-556
-27,55,30,-226,-90,-633
-20,57,29,120,67,-298
-30,68,19,215,-50,-276
-30,101,3,-67,14,-140
-27,120,-1,-137,5,-146
-20,-120,-9,-52,-1,-227
-21,-113,-10,83,-61,-232
-32,-115,-5,312,-276,-168
-26,-104,-16,-4,-13,-194
-20,-98,-13,22,101,-258
-19,-102,-10,122,-41,-325
-22,-93,-8,-50,-70,-213
-23,-85,-3,1,-65,-251
39,-122,25,1890,1594,-4518
66,57,-45,7107,16,-6305
-30,1,-123,9958,-3960,-4871
-86,53,-73,7877,-4383,-3196
86,-108,87,2237,-3247,-385
123,-114,52,-1462,1145,-353
74,80,-30,1827,1504,1655
-91,-16,81,1537,50,4549
-116,63,52,-2408,-3241,7540
-35,83,103,-2556,-1031,6382
-26,55,47,-1763,-1886,5163
-48,102,-98,-526,1250,1058
-93,-42,97,1133,739,-4154
-18,-118,70,1327,2089,-6284
106,-2,-45,648,2723,-5567
114,-116,120,5007,641,-6040
91,3,-5,2208,916,-3907
24,2,28,-4448,-1321,-279
113,-74,7,-3542,216,-780
101,-70,-115,-8798,1991,-975
40,-89,14,-7125,2245,772
86,118,8,-4854,889,2057
-82,-48,-83,-1949,-1026,2917
81,63,4,-169,-1536,3796
-66,21,91,-1575,-1712,3400
-16,-42,89,440,-927,2337
-75,-48,-114,1085,-1293,1580
84,-105,121,1274,-538,442
32,-2,37,2002,1058,-199
-12,-89,-1,2538,828,-219
-41,-94,-3,1305,-133,246
-33,-107,-16,-159,-86,55
-21,106,-7,65,9,-293
-24,74,-4,488,-6,-414
-27,64,-4,400,-17,-493
-46,64,-12,72,-70,-509
-53,54,-6,-44,-74,-394
-37,75,-16,-508,45,-342
-35,87,-30,-462,10,-414
-32,102,-23,-467,-177,-340
-31,-128,-32,-689,-22,-463
-23,-127,-26,-421,-72,-418
-29,-115,-31,-328,-102,-387
-32,-82,-32,-522,-92,-302
-34,-65,-31,-338,-93,-316
-34,-57,-36,43,-74,-415
-32,-50,-39,69,-202,-398
-35,-47,-38,-137,-235,-324
-44,-34,-24,-132,-155,-213
-37,-28,-23,78,-11,-322
67,104,-29,4282,-1961,2037
-11,44,47,-46,645,-3808
69,-85,-4,3533,-3235,-6762
36,59,117,9810,-6264,-2524
122,-61,15,5622,-6310,-467
-29,-44,74,1541,-2898,261
112,3,-74,-282,-1539,-476
-13,-94,-87,-1130,-858,-301
-69,-3,-22,354,557,24
-46,8,89,1287,2185,1521
-2,111,-16,-461,-625,6109
109,60,9,-1238,984,7027
41,25,73,-2508,-164,5382
-84,25,-113,1311,54,1114
53,-79,-93,393,1105,-5207
41,-70,81,1413,1159,-8382
-81,108,-43,4425,-802,-7282
-73,60,7,3920,-1526,-4909
56,14,70,-4071,-695,-754
71,114,60,-3611,-579,369
3,104,-107,-8784,510,-1038
22,95,-111,-8620,1556,-866
17,28,14,-6410,859,459
-2,-20,106,-2193,-808,3230
116,-58,-50,-1068,-860,4060
30,-6,11,-2839,-747,4024
71,-33,39,-515,-859,3474
-111,-38,-57,669,-841,2694
-71,-125,91,1111,1056,1550
73,-70,-115,-12,-497,1542
10,39,120,2288,-794,955
-10,-27,50,2750,-5,-154
-33,-51,12,1679,567,-813
-53,-97,5,1136,278,-650
-62,-121,13,280,-209,-850
-38,88,27,493,-202,-1214
-23,57,40,569,-85,-1320
-24,40,40,388,-69,-1173
-34,45,36,-17,-173,-941
-44,53,25,-298,-161,-699
-46,60,20,-323,-146,-383
-50,81,15,-330,-141,-85
-48,105,12,-264,-49,-35
-41,124,7,21,-74,93
-28,-110,0,-152,-99,54
-24,-97,-7,-252,-179,34
-34,-69,0,-500,-237,41
-47,-55,10,-287,-95,-74
-38,-65,13,345,6,-75
-26,-48,-3,119,-65,-97
39,-73,27,3879,-935,-3851
103,91,86,5330,-4222,-3662
72,67,-53,4152,-5707,-2344
125,-98,-41,4203,-5319,-547
111,115,-8,1638,-1244,-684
69,-6,28,597,1639,-32
70,61,112,-364,1285,1769
80,37,100,2298,-964,4519
-9,57,-55,-2235,-914,7905
91,36,118,-1174,3121,6445
-8,120,-122,-768,-230,4053
-106,-52,106,-1310,-1353,-3584
88,5,106,1423,1121,-7141
111,22,-19,2096,1620,-7928
119,-93,84,3764,262,-6345
-38,-90,-37,1467,17,-2522
98,108,-71,-4503,-404,-410
120,89,-23,-9060,-1388,-1425
121,116,66,-7502,-491,-1457
103,-70,19,-6829,131,364
14,7,120,-2473,-610,2513
64,-98,-14,677,-848,4387
8,98,47,918,-683,4746
-78,-21,-8,-1072,526,3757
-5,-20,-14,-591,901,3141
-62,-39,97,-838,-306,2313
124,-22,92,-932,-981,1487
57,-97,105,359,-143,-17
34,-18,42,2215,1108,-1143
23,-110,3,2868,941,-1529
5,91,6,2679,267,-814
-14,47,10,1507,-66,-269
-23,29,22,489,-118,-75
-25,20,49,285,-76,195
-13,37,64,56,-5,158
-7,54,74,-52,-190,15
3,60,75,112,-107,-165
-2,63,66,175,46,-287
-14,60,51,248,34,-202
-14,72,33,64,-2,-191
-6,91,18,-158,-43,-286
2,91,14,39,-54,-360
-3,100,6,-71,-180,-435
-5,106,8,-76,-170,-433
-14,107,7,66,-183,-438
-11,115,7,-29,-166,-425
-7,116,0,92,-115,-387
-16,121,-4,73,-264,-313
-13,-126,5,67,-150,-204
-16,-124,-1,279,-67,-239
-103,-81,121,3536,-1084,-3576
-15,30,79,3637,-1696,-3979
-22,-42,91,5921,-4020,-2615
62,-8,-66,6706,-6219,-547
-66,-118,-63,5100,-6339,1496
64,91,-97,-2497,-1287,1001
-80,61,-102,89,1476,179
-77,110,37,1839,1025,1632
-11,-24,-12,-1178,-261,4249
43,75,89,-660,790,6578
-91,115,98,-1556,1106,6175
-7,87,67,-1664,-3351,3897
92,-86,99,-473,1939,35
109,27,97,1545,1682,-3338
124,-29,102,784,1551,-4847
-102,-88,0,298,-466,-5370
10,-8,-18,2980,-1121,-5503
-44,18,108,5438,812,-5615
-106,18,16,-468,-620,365
-58,-118,111,-2520,-428,6
-37,-17,-33,451,-1487,711
38,-35,-34,-825,-70,285
-117,-21,17,-4502,661,-587
-56,85,96,-7743,2335,-580
127,63,124,-9470,1314,2680
92,-19,98,-4989,-835,4775
-21,-34,-23,-137,-90,5080
-118,-6,72,433,1557,3720
22,44,-20,237,2016,2190
-43,-75,39,2397,92,2028
91,-63,50,1715,-523,1342
5,123,9,1154,640,125
-51,14,-4,1745,656,-376
-41,-125,-7,2356,271,-744
-25,88,-13,2195,196,-386
-53,75,-4,1228,-5,-239
-76,53,9,387,-155,-315
-65,48,38,113,-183,-416
-49,40,50,187,-163,-515
-45,47,63,31,-337,-676
-43,47,66,-137,-185,-882
-22,25,56,207,75,-633
-63,34,47,203,-280,-445
-68,61,57,-146,-347,-303
-72,79,55,-312,-326,-261
-42,75,20,57,-22,-340
-24,53,0,695,402,-327
-38,62,-8,608,206,12
-57,107,-14,-62,18,234
-48,117,-12,-126,75,190
33,-58,-33,3991,-2365,-2613
-21,-101,89,5787,-5325,-1223
92,-15,58,2454,-5701,-259
48,-73,80,1576,-3882,551
-71,23,-96,726,-2174,729
84,16,90,-303,-776,374
0,62,-38,484,-590,1298
98,75,118,-990,1087,1771
-122,-27,-112,-2758,-150,4791
-39,110,16,-2878,-946,4478
-25,-26,8,-2532,-1434,4373
-47,126,-50,216,93,-114
-52,-46,-50,876,2054,-4000
70,98,89,2143,2659,-4884
-86,-85,2,2093,1214,-4073
55,81,-58,3339,1998,-5164
67,4,0,5569,3506,-4447
-27,-91,53,-2619,-910,360
47,30,-71,-3305,-490,-934
119,-38,-24,-3740,-1037,-1232
-15,-82,93,-8849,1520,-2620
56,-59,-38,-7827,2079,-1953
7,112,74,-4053,-113,1088
32,-43,74,615,-3113,4694
-20,114,116,851,-2031,5182
4,90,70,-1584,315,3247
7,28,-116,807,-996,2622
-61,80,-74,649,-1437,2686
108,54,84,206,447,505
43,-44,53,759,601,-454
-15,96,54,1727,-125,-683
-27,-47,44,2461,-286,-608
-33,-92,25,1768,-220,-565
-55,-103,2,560,154,-330
-60,-109,-7,-442,349,-287
-41,-111,0,-244,139,-217
-28,-111,4,374,70,-333
-2,-121,16,825,16,-592
-3,117,40,1091,39,-638
-7,102,56,1010,47,-741
13,76,71,828,248,-775
9,61,71,751,217,-594
1,48,65,639,131,-397
-14,56,66,221,-94,-122
-28,55,66,269,2,40
-45,50,59,532,-7,310
-44,57,42,422,-40,605
-13,93,61,-302,-299,1094
-49,-126,30,-491,-80,794
-21,-106,53,-158,-94,619
-43,-30,-4,3458,-577,-4190
-27,120,-28,7148,-3721,-4467
-72,44,102,5280,-6107,-1312
-13,120,-18,1427,-5917,214
-40,93,34,-192,-1537,337
-84,41,-42,1424,1713,147
-42,-107,-70,2248,2471,1240
101,60,-15,114,-3608,6074
125,-3,-27,-631,-343,6948
26,-93,-57,-385,776,5524
-53,43,-71,-1470,-1299,3769
-18,56,66,-506,317,-1355
-119,-77,-94,1933,1865,-6398
-45,-20,120,1969,3178,-7594
-21,82,76,1581,-749,-6180
47,36,94,4864,-1070,-4631
-82,-71,86,-831,-1042,-1983
-80,101,-4,-5025,145,206
20,79,118,-9343,-456,-2175
89,49,51,-8086,1158,-507
43,51,10,-7581,35,1438
-17,75,89,-5008,-1162,3002
98,29,92,19,-2561,6011
-102,1,-127,1211,-2134,6637
108,-76,-75,-1038,-911,3962
77,28,-109,1708,40,1984
-76,-3,106,2027,-57,880
21,-76,58,1701,-524,-110
-73,37,18,1934,-151,-854
-70,-48,11,2056,253,-1129
-71,-122,10,1764,284,-1134
-79,92,7,937,136,-742
-82,89,13,-54,-97,-570
-71,72,22,-78,-48,-405
-61,62,29,307,43,-429
-50,74,25,232,41,-528
-28,73,20,141,90,-526
-31,69,4,241,28,-518
-41,79,0,112,-93,-491
-31,92,-6,-80,-29,-423
-45,98,-13,81,-157,-292
-51,114,-23,-161,-166,-258
-43,-125,-22,-329,-238,-60
-34,-91,-4,-320,-359,-47
-29,-73,2,-155,-94,-414
-30,-88,6,392,-143,-462
-48,-96,0,367,-248,-394
-55,-85,0,-93,-82,-276
-62,-89,4,188,7,-203
-45,-98,-3,670,180,-110
65,107,105,3811,-86,-4194
61,-104,25,5872,-2794,-4317
-37,25,51,8751,-7134,-2816
17,83,-128,6059,-8730,992
-15,-113,-26,-1990,-4927,634
36,1,15,1809,362,-1567
-82,-58,-10,2690,838,-1412
54,-112,22,1427,359,573
23,63,101,-1456,2660,2130
75,-91,56,-1272,1313,5336
60,-8,1,-2133,-1174,7609
99,112,127,-3366,-1863,4243
87,106,92,-662,-251,2906
106,-118,-54,406,1342,-1528
-37,120,-35,147,481,-5199
-36,38,-82,563,2197,-5342
-89,-81,122,2915,768,-5518
19,-87,-41,3447,-488,-6616
127,98,-36,4149,-122,-2290
34,35,114,-1545,-1041,379
-21,-5,4,-4605,544,452
-59,-108,-106,-8516,946,-490
-16,112,52,-9036,2120,-211
-33,87,19,-6127,1264,1962
-38,-15,-71,-224,-508,3926
-7,80,72,2313,-619,5622
-30,6,-105,-204,2032,3663
-13,47,3,-387,607,2652
-121,-68,49,22,-172,1930
64,-110,53,-100,34,834
1,15,37,1574,338,-137
-36,-111,6,2914,351,-707
-26,100,-11,2237,405,-905
-39,67,-12,1285,312,-330
-75,37,-5,499,-28,99
-79,47,4,-32,-211,78
-54,60,24,-170,-148,-183
-37,66,42,45,-172,-559
-43,51,55,450,-378,-746
-38,53,56,158,-192,-866
-42,46,45,-25,-90,-836
-46,41,37,108,-28,-658
-47,43,21,180,28,-542
-41,56,0,19,7,-412
-32,65,0,23,-89,-274
-25,72,-4,134,-61,-201
-33,92,-6,25,-188,-118
-39,104,-1,7,-141,-69
-40,118,1,-43,-87,-30
-39,-124,0,48,-51,3
65,26,-108,3333,-265,-4551
60,107,-58,5137,-3682,-3932
-41,19,-3,7879,-6377,-1246
14,-53,127,4307,-5583,-158
94,-12,111,1644,-3408,656
-103,-76,16,1958,-911,-172
-67,-37,74,1403,1585,187
29,-28,-56,-782,-288,3016
52,121,-106,-993,1225,4480
75,66,-13,-322,1510,6586
-96,-80,69,-2296,-2458,4345
-103,-16,19,-3710,-1059,3157
-128,-8,-38,716,920,1732
110,-93,88,604,1376,-5314
61,22,30,1869,2310,-4018
-56,20,-86,1906,1497,-4846
28,5,-36,1968,337,-5305
-119,-107,31,3921,681,-5201
-26,44,-44,946,-43,-1135
82,-35,88,-2179,3,-180
-94,-3,-93,-1567,-1410,-334
-27,-3,-120,-7447,-828,-1719
78,110,-76,-7621,1282,-1742
6,-13,111,-6676,823,749
-58,-113,114,-1965,1325,2653
-116,-81,14,-164,644,6130
-116,16,114,-3128,-948,6179
-94,77,73,-1739,-220,4594
111,82,68,-1919,-2,1661
-113,20,-65,-5231,-1726,620
-53,-100,68,2187,-1294,-628
-54,61,-90,3969,1360,-2439
-28,30,54,1948,2095,-2749
-1,-51,21,709,1285,-1885
-46,-86,35,998,-439,-613
-62,-108,10,773,-632,-422
-78,-68,-11,-645,-186,-235
-81,-82,7,56,-127,347
-53,-75,17,499,-166,387
-24,-47,12,375,-247,287
-25,-40,18,160,-285,4
-33,-42,21,232,-194,-141
-49,-69,29,961,-257,-21
-54,-85,23,1270,-254,2
-49,-60,8,124,33,-232
-43,-58,-2,-438,114,-340
-41,-70,0,10,-10,-331
-36,-72,0,308,10,-385
-32,-74,-6,310,17,-401
-34,-76,-10,244,-66,-379
-1,82,-50,3221,-1028,-4056
-95,81,-117,3851,-1824,-4692
-74,-108,93,7172,-3571,-4329
30,-30,8,4796,-5700,-1349
38,109,-2,982,-4515,-333
-88,63,127,69,-1779,582
40,-92,-104,1633,1173,987
-26,57,50,3193,2612,2381
-117,111,90,-1518,-2932,8737
-125,-102,86,-2170,-1237,7748
-127,-39,-92,-1721,2179,5838
98,-53,-49,-619,-1888,2140
49,-28,-54,153,1605,-4591
102,72,50,2188,3044,-7693
81,-125,110,2957,3679,-7804
-122,-44,-22,4739,-407,-6496
119,-27,-11,2396,-2220,-1201
71,83,-98,-616,703,82
-15,-22,-117,-2277,-966,291
-76,117,-101,-2115,-1277,-144
119,36,22,-8929,764,-1498
-54,-61,99,-8503,1357,-631
19,-103,102,-7874,-567,2102
116,-33,-102,-2343,-317,6355
-107,-2,-25,1104,-3728,8019
-18,108,112,-1208,545,5459
22,51,-98,-297,-596,2133
36,-43,-38,2461,-1104,1291
57,-54,103,1200,232,-1012
-14,64,54,1510,888,-1624
-37,-24,50,1466,235,-1071
-34,110,32,961,-161,-1195
-15,45,42,943,-52,-914
-15,23,40,674,47,-888
-22,-8,44,757,16,-620
-24,-19,28,608,93,-353
-10,13,25,110,-63,-25
-6,37,9,20,-17,-14
-8,42,9,381,-66,144
-4,60,14,470,-137,216
-2,84,20,315,-147,205
0,91,26,128,-89,154
0,99,33,220,-38,89
16,99,36,256,-143,95
-57,123,23,-216,-276,-166
-50,-125,33,-407,19,-334
-19,116,35,287,414,-438
-15,95,24,1200,326,-573
-5,63,4,1295,234,-617
-4,57,-6,614,129,-513
-90,-20,53,3391,-1835,-2946
-98,15,22,4646,-3904,-3422
96,52,114,3603,-5424,-1909
-49,-40,76,2010,-5727,-721
57,122,47,699,-1797,-453
-18,27,83,901,776,164
-23,85,-55,1741,510,2076
42,41,54,-461,-731,5549
-30,21,-24,-274,-1207,6338
71,28,-69,-3571,-994,6628
-1,-97,83,-932,-542,3793
127,89,-83,212,600,-662
65,-92,-104,890,2190,-4963
-9,31,-6,926,3320,-6338
-104,127,113,2535,2116,-6058
1,-1,-74,4489,530,-6151
-43,90,96,1732,104,-2851
-37,81,57,-2688,464,-694
57,-62,-85,-9455,-633,-1882
104,-7,-92,-8930,314,-2079
102,-69,-42,-6206,-422,260
-17,39,-128,-1044,-1464,2234
1,-3,19,1429,-1522,4204
-69,61,-40,1538,304,3681
119,-63,-97,469,1420,3500
-11,-16,-3,-477,107,3557
-75,11,70,-1888,-1128,3069
-124,-38,80,-1464,-388,1678
54,112,82,345,-31,139
14,26,85,2029,-66,-409
-27,-10,37,2184,31,-154
-77,-26,-6,1045,63,-381
-35,-77,5,771,164,-504
-56,-93,38,661,-130,-305
-45,-106,29,439,332,-952
0,87,29,1116,467,-1379
5,10,26,1685,244,-1182
-31,58,27,460,-182,-687
-16,80,17,-610,39,-960
2,48,17,174,132,-787
18,25,21,956,-89,-288
-4,66,21,89,-243,26
-42,96,19,-403,-125,131
-43,98,26,-59,-47,313
-19,115,30,16,60,443
11,-122,15,47,25,469
-1,-97,9,-239,-232,352
-19,-75,7,-399,-116,81
-32,-70,9,-96,-5,-106
-10,-83,3,516,51,-159
-18,-103,-61,3558,-2275,-2485
15,125,19,3146,-6134,-1588
21,-68,-84,174,-6452,-1215
-125,97,-117,218,-5536,-743
33,8,-120,2344,-4894,-1311
84,119,-12,1422,1170,101
16,73,-102,2868,1945,1380
72,29,-71,-1333,951,4137
123,-110,59,-1111,-769,7344
-43,73,-3,-1385,-230,7976
71,53,96,-982,-224,5467
-86,-25,-46,-1966,-1845,2815
-64,101,120,-694,-94,-5153
-10,17,-35,2082,4534,-7027
39,-105,-26,4111,3445,-7321
71,-20,-17,2321,714,-6711
30,67,108,-2163,-736,-1549
83,-71,88,-4092,1412,-2028
56,57,125,-6133,801,-952
-24,-46,67,-5300,-604,244
-18,105,82,-4115,-1232,1603
107,55,116,-3789,-1151,2732
10,47,-82,-789,-1359,5180
-75,125,124,1350,981,3709
-119,12,127,-1184,1537,3038
31,96,-59,-3536,932,3384
87,109,42,-1969,-853,2934
36,-72,-81,3056,-2024,422
-67,59,-120,6045,-2526,-1148
-86,-100,-22,1394,621,-1628
60,31,-63,-661,2723,-2507
38,-124,22,355,193,-1017
77,-89,53,591,-1829,146
-124,-45,-28,-529,334,-696
-5,-45,-55,-917,1555,-1506
21,126,-25,1470,688,-1202
-58,81,-19,2673,-585,-583
-81,114,-34,1244,-192,-513
-24,115,-21,39,547,-372
-19,103,-3,242,197,164
-53,109,7,558,-332,336
-28,-108,18,-281,17,299
-11,-105,20,-184,192,210
-30,104,8,1313,160,296
-10,108,7,1300,-18,553
-35,-106,0,29,48,463
-28,-97,2,-225,371,150
21,126,-2,819,483,51
24,108,-24,1321,-75,-44
-4,123,-20,526,-478,-238
29,91,-116,2965,-973,-4117
3,56,-61,6833,-3677,-3807
-53,108,-51,7412,-5310,-2098
35,96,2,11134,-7432,1141
62,-86,65,-1950,-2836,1255
-63,-93,50,-330,1748,-483
-76,-53,107,2047,991,-56
-118,-113,98,-1582,-800,3825
117,-61,30,-1888,-3429,8404
-114,-86,-58,-3302,-32,6526
76,-34,18,1749,233,3924
-6,-95,115,-985,-106,830
15,-116,101,1327,1705,-3838
-87,-115,33,1331,2711,-7146
8,123,-51,3109,1544,-5880
-115,-33,27,3888,-963,-5961
-29,-75,-64,139,-916,-1860
-119,119,-25,-2321,-51,-166
-94,-3,-31,-3958,-1225,391
-59,-81,105,-8588,557,-956
75,32,-110,-8293,2940,-1187
1,105,73,-5845,1861,1179
-65,-38,-65,-2704,-834,4942
127,-70,53,468,-1574,7126
19,30,-28,-2077,687,5038
-106,-66,95,-4639,270,2728
6,42,-1,-1394,-1562,1163
42,60,89,3859,-1381,-76
-70,87,-112,3077,602,-908
-85,50,49,1778,1003,-1060
-77,-9,35,1468,530,-414
-67,-73,9,682,116,-679
-62,-107,20,662,-108,-649
-56,114,24,954,-61,-728
-43,93,35,737,38,-873
-37,85,27,394,-22,-871
-35,86,33,-11,-141,-761
-41,80,32,-45,-140,-541
-54,88,40,92,-95,-320
-47,98,28,142,69,-318
-37,108,22,114,-37,-163
-36,115,17,209,-33,-25
-36,125,13,271,-71,49
-31,-117,15,207,-113,142
-33,-106,16,113,-129,139
-32,-98,23,121,-130,126
-30,-87,25,137,-99,50
-28,-81,24,174,-45,-92
-26,-79,23,194,-34,-205
-25,-82,14,231,-43,-316
-70,47,-107,4241,-677,-3289
-7,73,-127,4062,-4447,-2874
-122,-97,-38,4423,-6521,-2112
-43,-66,-51,1485,-6557,-339
78,73,82,298,-4881,660
123,-118,-12,-722,582,-460
-36,14,97,1319,1080,242
8,36,-87,2090,1110,2452
-77,-87,83,-2912,-2756,7193
-18,75,37,-1454,1582,7706
-124,-85,126,-528,-2356,4164
-65,-102,-15,-155,748,1791
92,-42,-110,-1971,-714,-366
19,2,-127,1948,3668,-6621
52,40,-52,2562,3402,-6935
98,-69,72,3045,-189,-7454
-108,-40,97,3501,-1471,-3307
55,-32,-56,-2402,-1400,206
37,48,-59,-8223,-861,-315
80,75,-79,-8765,1884,-2012
81,39,89,-4921,1825,382
-40,49,-75,-2215,-492,4265
99,101,-19,-298,-183,6317
39,9,-27,-2165,205,5350
-89,93,23,-855,-616,5092
61,-40,80,-438,1236,2995
111,-124,77,1305,1203,1958
-53,-95,112,514,-523,787
12,51,70,1308,-839,-636
-23,-37,32,1202,334,-1701
-56,-121,28,840,330,-1560
-94,-14,68,1746,-9,212
-58,15,32,1073,-35,0
-29,52,27,151,-151,-586
-30,39,38,-386,-36,-863
-49,8,46,261,-8,-424
-52,31,37,212,-50,-312
-43,75,22,-450,49,-340
-34,97,28,-548,111,-285
-28,115,38,-33,-92,-249
-26,120,39,424,-80,-291
-27,-124,32,132,-44,-390
-30,-121,33,49,-55,-322
-27,-117,33,171,-44,-349
-23,-113,36,161,-56,-279
-28,-109,34,193,-100,-258
-27,-102,33,161,-65,-276
-25,-100,31,190,-49,-256
-21,-88,32,128,-64,-239
-23,-84,31,239,-57,-284
114,115,78,2750,-1609,-3822
-109,-39,-67,3741,-2414,-4279
-18,33,-62,6262,-3771,-4002
-127,-77,116,4973,-5855,-977
-60,-88,-109,2421,-3437,-384
39,-80,65,995,-888,-166
-24,-108,-9,2632,2524,418
116,-34,-8,302,1704,4071
49,61,-56,-4748,-3116,8041
95,127,11,-4157,1069,7067
-74,-28,45,1602,-2203,3181
-102,47,107,-1932,1547,-1221
-44,-19,127,1502,1613,-4661
-115,-13,-9,1531,2886,-5914
89,3,-52,2927,1058,-5771
74,22,-6,5149,138,-6803
-98,31,-63,126,-893,-1440
127,-69,-34,-4094,-491,-1035
14,30,-97,-2004,210,-260
26,-113,108,-3375,1770,-636
126,-114,-57,-6524,2730,-330
-117,-39,124,-6643,885,1094
122,-25,110,-3589,-230,3810
-16,45,-37,-2367,-361,5782
-108,80,55,-3449,-1150,4597
11,63,-105,-1806,-239,2622
-41,-116,-90,3746,-2350,-2090
-44,37,-10,4216,-1779,-2928
35,-86,115,5809,-2293,-3080
116,-20,16,7002,-4322,-927
-88,-65,-42,-146,-5047,122
-21,89,126,-266,-2978,792
111,71,-65,-260,-557,237
28,-87,-88,-21,1443,488
105,-24,80,1802,2826,2459
33,55,-21,-975,-908,7297
9,-6,-30,-3072,-756,8518
-98,80,98,-2777,-2057,5161
85,-54,48,218,1059,1882
-108,9,-22,-162,368,-5686
26,111,-92,1578,2408,-6427
42,8,-112,1097,1327,-6926
0,-119,-31,3833,340,-5707
-111,-39,98,2565,-294,-2413
-64,25,-39,-910,-1242,-804
-68,-68,-76,-2369,-1700,409
-106,71,-68,-1600,-561,85
-22,5,-83,-5598,1234,-1485
86,50,4,-5276,1984,-1206
63,97,-42,-4484,2125,2028
26,-103,-87,-4508,442,4709
-13,49,-97,-1994,-238,6723
-49,118,-121,-2117,-25,4786
-69,114,8,-2022,339,2389
-54,-23,81,-829,1789,1388
78,107,84,1721,650,558
6,99,77,1280,-1045,406
-9,72,17,-123,-390,-452
-46,-39,33,1169,253,-874
-75,-115,29,2122,158,-597
-73,108,13,1894,124,-430
-45,86,7,1224,274,-612
-34,75,14,564,39,-598
-23,75,26,-106,-167,-622
-25,53,31,187,-90,-679
-29,47,30,407,64,-506
-28,53,22,334,58,-455
-20,61,13,257,57,-316
-17,72,4,172,-41,-232
-18,91,0,-19,-109,-121
-16,107,4,18,-126,-149
-19,118,9,141,-143,-101
-21,-122,11,57,-144,-121
-20,-111,12,52,-107,-188
-21,-106,14,179,-118,-196
-21,-102,13,174,-92,-246
-23,-99,12,185,-78,-250
-19,-99,12,172,-48,-254
-18,-100,8,225,-44,-303
-14,-100,5,190,-36,-293
-19,-101,2,184,-59,-297
-16,-101,0,162,-41,-278
-16,-96,0,91,-59,-240
-12,-92,-2,156,-65,-238
-14,-85,-3,65,-92,-206
-14,-77,0,101,-73,-239
16,5,-125,3535,-1821,-2816
62,-117,-41,3373,-1628,-4209
54,-115,1,3949,-3202,-2804
59,84,123,2826,-2854,-1678
-15,-19,68,1011,-2552,-376
74,-100,-18,648,-1582,-59
41,-85,-51,307,-55,-186
-59,-5,-76,-700,-540,299
-99,111,116,1305,432,43
-30,80,-10,2345,886,1555
-61,103,89,1241,76,4138
46,42,-118,-1237,-1643,8085
-92,-23,30,-3021,-65,4743
58,6,118,-469,-1011,2636
-110,123,-82,1058,1892,-6085
82,-114,106,2373,1134,-7833
-30,31,0,4047,239,-5098
102,20,91,-1481,-787,-50
-85,-107,10,-2487,-769,-559
-19,78,94,-2774,-1681,-546
95,-76,14,-5397,1541,-523
-98,-51,-109,-7146,2811,-274
107,85,105,-5334,1288,1941
-124,85,-45,-1452,-120,4805
89,112,10,-1977,-182,5398
-6,21,77,-2392,-768,4203
84,-88,-98,-1817,510,2710
67,-111,-29,-1465,118,2277
-60,108,-43,453,-730,953
64,30,113,2475,-380,-637
33,-18,49,1771,596,-1572
8,-97,49,1306,198,-1216
-25,87,57,1128,-269,-155
-23,79,45,654,-82,-296
-4,80,48,209,-54,-286
7,89,58,-78,-155,-549
6,82,64,175,16,-582
1,75,61,287,7,-563
6,79,48,279,19,-449
11,98,42,99,-28,-410
10,106,40,156,-116,-418
1,109,43,219,-114,-266
0,119,43,143,-92,-206
4,-116,42,86,-141,-210
2,-110,47,123,-110,-201
2,-103,48,191,-85,-232
-2,-100,44,266,-101,-180
-1,-91,40,113,-81,-158
1,-85,40,157,-103,-189
1,-80,43,217,-144,-214
0,-78,45,225,-71,-304
-1,-78,46,223,-69,-289
-4,-79,45,273,-59,-331
0,-78,39,286,-46,-314
0,-76,36,229,-94,-328
-2,-78,34,277,-68,-307
-4,-76,38,377,-105,-311
8,-86,34,462,-22,-357
8,88,92,3909,-1444,-2977
-7,-72,-12,4457,-2204,-2874
-39,-76,42,4579,-3546,-1792
-86,-57,-90,4202,-3664,-949
-95,-28,-61,-155,-2707,-407
83,-86,71,292,-1108,334
79,-31,91,-1354,-1881,7002
19,68,119,-4079,476,7480
-8,-54,-124,193,-2609,3373
65,32,-80,503,2970,1137
11,-86,51,-373,2093,-591
5,-108,116,963,832,-2972
17,54,-117,391,843,-5304
-106,-69,-68,2010,1911,-5918
-78,-72,-24,4735,1228,-5670
70,-49,103,3027,559,-3121
106,74,74,-423,-70,-577
80,-35,127,-1319,-1789,213
67,-29,-112,-5149,-1582,-1072
-46,42,29,-8948,849,-2743
-19,-116,83,-7124,2816,-929
104,-112,-128,-6242,448,2227
90,-127,30,-2708,-2798,5968
-120,84,-49,-3213,-4236,7414
92,91,114,-3109,-427,2602
39,-62,56,1391,-339,1295
-126,40,3,5701,-762,1389
69,-100,77,1177,364,-28
21,102,43,-688,765,-446
-30,-89,76,1520,-1,-220
-36,-100,61,1429,-146,-402
-31,-118,62,115,76,-812
-32,67,89,425,354,-611
-25,48,83,871,57,-539
-6,80,86,-151,-38,-674
0,91,76,-596,111,-721
-2,90,74,-144,63,-597
-6,106,70,349,-55,-471
-5,117,60,762,-257,-480
-3,-113,45,151,-160,-511
-8,-108,41,162,-108,-283
-11,-110,45,366,-164,-181
0,-105,46,360,-204,-194
-1,-98,48,167,-257,-197
-20,-92,62,79,-373,-228
-20,-99,66,365,-92,-207
-15,-112,60,711,25,-85
-11,-102,39,450,-240,-10
-24,-90,39,82,-250,-76
-20,-85,43,-75,-92,-144
-25,-94,42,351,-212,0
-25,-72,33,-24,-194,-50
-28,-58,27,-9,-161,-119
-13,-57,37,185,-141,-206
2,-36,41,-86,-16,-475
-11,-55,40,226,-44,-646
43,18,-76,3420,-1722,-3101
97,64,40,4305,-2230,-3617
69,52,28,3983,-3437,-2142
-4,14,-95,4013,-3877,-538
-78,-72,76,3546,-3370,620
81,-60,-5,2560,-2072,609
57,38,46,731,-655,-114
38,-26,13,973,262,114
96,12,-126,3580,1499,1686
113,20,11,-2300,4,5392
112,-36,-86,-2202,1724,6884
-98,81,110,-2187,-1652,5540
13,-23,0,-1199,-1464,2553
113,-97,-48,-916,-313,-1750
30,98,-90,2027,2590,-5424
-30,117,82,469,2523,-5898
-27,-53,-79,4756,2357,-6801
16,-98,31,4699,-789,-6139
8,75,53,-1244,-1225,-326
20,-114,-40,-4488,-756,125
32,-9,24,-2230,-1780,261
-120,5,-95,-7069,1733,-1233
-93,-99,11,-6874,2957,-976
-124,-10,-70,-5286,2746,1362
-17,-32,44,-2590,1385,4147
-73,-108,72,-4840,366,5367
-63,34,21,-3087,-2896,5042
49,-50,-13,-899,-1661,3809
-52,-124,-38,-471,-114,1150
67,-12,-98,1743,1031,-485
-15,-74,121,1706,627,-685
-59,-112,-128,982,-590,-25
-63,94,119,1150,-437,138
-65,56,107,1111,-36,-454
-44,26,111,1103,143,-255
-23,33,127,696,27,-339
-13,15,119,887,217,-714
-13,-13,96,827,270,-728
-43,12,88,-305,-103,-651
-70,36,95,-870,-289,-398
-59,36,109,23,-288,-56
-23,69,108,104,-271,-52
-13,108,94,-219,-140,-284
-16,118,86,-4,45,-505
-25,106,77,382,-17,-494
-21,110,67,370,-106,-376
-17,120,55,287,-132,-376
-12,127,56,171,-102,-454
-13,123,60,329,-171,-465
-15,120,64,397,-274,-534
6,77,89,4598,-2328,-1285
-116,-65,55,5788,-962,-4067
106,42,-97,6684,-4344,-2864
-67,95,-14,2878,-5292,-2525
124,113,109,386,-4587,-442
-71,24,-84,-157,-4117,292
97,2,-41,349,138,187
46,25,-29,1920,893,1644
-115,107,-108,2377,-26,4581
-48,-98,-60,-4246,-3921,8337
102,-14,-115,1026,4435,3984
-127,92,53,-300,-2915,4498
24,119,-67,-3152,-116,1343
11,58,74,413,-2265,-2404
-21,-112,34,506,4323,-5977
10,63,41,373,5197,-6084
91,15,28,2407,3272,-6330
-39,57,41,6596,-1431,-4364
-55,39,56,1909,295,-1841
68,-15,-43,-3523,-1465,334
6,16,-61,-1911,-455,-156
26,-40,1,-4904,601,-315
-110,-48,27,-8174,2830,-911
-111,-45,-112,-5904,1891,1096
-45,-12,-17,-1132,-1708,4742
81,-3,17,-1515,-685,5024
-91,-81,-51,-2327,206,4458
-39,-27,49,-1713,129,3913
1,109,70,847,493,2128
-120,-84,89,84,-719,674
0,77,110,474,-417,-182
-42,-52,76,2311,254,-836
-60,-98,40,2382,55,-988
-65,112,37,1493,-419,-674
-78,62,35,740,-116,-426
-92,25,35,471,147,-391
-70,11,46,407,46,-285
-41,25,27,110,111,-581
-36,15,25,202,37,-646
-38,17,20,170,-6,-501
-40,26,16,91,-45,-321
-32,43,11,33,-65,-352
-34,53,11,133,-133,-237
-35,77,10,-90,-138,-278
-33,89,12,-27,-147,-275
-32,100,17,135,-189,-238
-41,111,16,86,-187,-159
-44,124,16,57,-134,-176
-34,-113,11,39,-46,-250
-32,-112,9,258,-116,-263
-64,-51,-103,3682,-1269,-3852
-63,-21,85,5880,-2874,-4120
-71,-80,67,8676,-3627,-2763
125,121,-33,8408,-4077,-389
-118,59,-47,-1528,-4067,1418
-55,-111,70,-1113,545,209
-33,55,-36,773,1980,-346
10,69,-5,888,1749,1642
26,51,4,-2638,523,4214
-114,46,-70,-1252,-2626,8182
118,9,27,-4208,-973,3891
23,97,-34,-2823,-1006,3757
-8,28,72,724,416,486
-27,-59,-48,-159,-363,-2718
-94,-106,-52,353,1461,-4275
-68,-76,-94,675,1312,-5089
7,-35,-53,3603,867,-6013
68,62,54,3666,927,-6062
-106,2,95,2711,733,-897
39,67,77,-1567,-584,304
-42,-24,4,-739,-1126,198
-112,103,86,-1019,-1297,49
64,95,79,-6419,145,-2076
-106,-60,-1,-6163,2056,-1579
58,82,-61,-6145,1404,1223
55,-24,-55,-834,921,5114
91,-109,-90,-2224,777,5837
-81,-108,109,-4433,968,2991
-47,-99,-25,60,659,2250
-43,-38,87,-563,-486,2149
123,118,106,982,-1008,1423
58,36,47,2013,-134,605
39,4,9,1410,817,-548
10,-56,27,756,289,-852
-17,126,37,559,-467,-748
-30,67,35,1159,-514,-418
-27,56,22,808,-165,-319
-9,46,15,283,45,-549
-8,39,21,114,-115,-483
-4,29,24,201,-108,-541
-7,35,15,176,-158,-407
-11,58,8,-99,-164,-369
-12,73,5,-94,-134,-325
-9,91,2,95,-120,-271
-11,101,0,162,-151,-182
-12,123,0,-22,-160,-200
-9,-120,1,14,-146,-214
-9,-113,4,138,-160,-234
-13,-107,6,188,-146,-245
-10,-99,4,157,-79,-287
-113,64,84,3482,-1848,-3338
-126,-30,-110,7327,-3004,-1452
18,13,24,4657,-2895,42
-107,3,-89,470,-2170,57
71,-3,-43,-262,-1290,23
-4,-69,-64,1351,-476,440
-40,-20,-120,2361,104,1989
-93,-4,-69,517,1504,4690
49,-65,102,-4056,-2756,8992
69,115,52,-2810,-1429,5864
-99,116,24,-1315,-1618,3261
13,58,-17,844,-439,1516
-51,110,95,830,849,-4838
-91,5,-94,1576,1726,-4563
7,19,92,1801,574,-6062
-57,-116,107,2977,494,-6105
-47,-33,-75,3998,-806,-4470
125,-66,111,1773,-1247,-1859
-125,-87,84,-1947,-45,-882
-116,-44,-3,-1685,-1385,-38
-12,-111,-56,-6161,738,-976
116,-119,-15,-8804,2501,-1493
65,-30,33,-8401,1604,1059
98,-55,113,-3867,-1506,3830
-48,102,-4,-757,-1443,5811
-20,-82,77,-582,-521,4166
-20,67,117,205,-866,4187
-11,-18,-127,132,2,3350
-62,125,93,1339,-140,1656
71,-93,59,711,-527,343
2,41,23,1739,93,-849
-34,-108,-3,2650,391,-1452
-18,111,-6,1716,362,-1323
-29,63,9,966,-72,-749
-49,23,19,434,-357,-363
-47,39,18,-257,-292,-390
-31,60,22,-498,-325,-485
-27,59,28,-60,-525,-385
-29,43,16,377,-527,-751
-30,59,-2,399,-50,-801
-29,87,-6,-116,169,-902
-22,80,0,256,-29,-525
-31,82,0,352,-261,-329
-35,99,-12,147,-179,-132
-38,117,-17,-45,-192,-17
-42,-124,-15,49,-186,56
-24,-109,-21,264,79,61
-18,-112,-23,509,27,-56
-5,-106,-23,546,-56,-56
-10,-108,-26,388,-73,-107
-49,5,-77,4060,-925,-3271
-81,-38,-114,7705,-1729,-1651
104,-67,-67,6766,-2402,-242
55,27,127,4859,-2015,1486
-93,-33,79,2149,-844,844
77,-78,118,-13,-59,13
-128,-39,67,449,1136,645
29,50,-72,-69,872,3074
111,44,94,-1479,-151,6467
-22,-1,-117,384,591,5971
-125,-112,121,-2298,-858,4451
79,91,-120,-2278,-1116,1848
59,22,82,-33,-371,-772
-110,-109,-12,1283,755,-4233
115,-42,-51,-1253,408,-4386
-66,-71,13,1840,1436,-4459
25,85,27,2525,2190,-6543
108,81,24,2695,440,-4763
3,24,-69,1190,75,7
29,44,59,-4073,-1302,117
-69,-106,-114,-4011,-1739,-1049
91,-21,-15,-8345,1377,-1777
60,-121,65,-7885,2103,-686
-33,-106,67,-5900,-438,2241
-11,-121,0,-1772,-2730,4880
-4,-11,96,-704,-2759,6288
-66,66,-121,-1526,-546,3885
28,2,-70,-170,554,2235
-60,-96,-43,2614,-411,1674
63,-82,116,1588,-829,362
-21,-128,34,712,164,-553
-62,-43,39,2095,448,-784
-40,-72,22,1758,283,-720
-46,-64,17,365,84,-449
-75,-118,23,631,-316,-290
-48,115,24,930,-16,-363
-51,-128,14,306,-154,-553
-50,125,26,-93,-354,-510
-45,120,40,-17,-275,-582
-49,115,38,134,-201,-712
-48,126,34,-319,-173,-725
-57,-125,37,-245,-216,-474
-60,-120,33,42,-203,-354
-54,-91,27,-28,-39,-278
-25,-83,19,110,95,-325
-12,-84,1,343,2,-415
-16,-83,-11,188,-147,-397
-37,-74,-5,-137,-313,-244
-64,-69,7,-39,-291,-121
-42,-65,14,277,-34,-3
-108,99,-62,2428,680,-5270
-110,62,-36,5757,-3043,-4966
85,85,50,5864,-5727,-2939
-47,-59,59,3794,-3800,-1795
-83,-24,-29,3074,218,1132
34,-113,18,-729,664,2505
27,114,-64,-418,-1356,4506
-114,48,-92,-3885,-2651,6355
-12,-18,122,-3815,-429,3625
-8,91,-35,53,225,3318
-122,-123,73,605,-326,-775
98,-43,49,917,1292,-4601
-17,59,44,1210,2840,-5200
-67,-67,-64,2575,3362,-6342
73,-123,-113,3465,2846,-4472
106,-105,36,3354,2126,-3589
-103,12,-5,-3718,-1327,-325
-107,-87,-8,-769,-1727,1009
-2,-12,98,-2501,-1295,82
-97,-99,11,-7489,1375,-2008
-65,54,80,-6336,1810,-1073
-44,25,90,-3690,-812,1909
-27,81,-3,-904,-2561,4658
100,23,-16,-2832,-1413,3555
115,20,115,-2292,-1333,3046
-92,-111,-67,518,-576,2849
-69,120,-128,2066,-109,2101
-102,-117,-70,1244,-786,2360
-107,-33,50,-536,318,1894
67,-74,-3,-78,309,-1041
12,10,-4,1876,242,-2827
11,124,-1,2456,352,-3117
44,112,13,795,379,-2231
-39,49,51,316,-370,-905
-28,-105,35,-1365,-230,334
41,-97,20,-1154,41,-710
59,-105,14,44,67,-579
8,-57,3,-149,-400,-541
-20,-41,-6,-222,-337,-477
-22,-32,-6,-155,-268,-296
-16,-10,1,-196,-452,-4
-17,5,4,-102,-319,-32
-32,19,15,-95,-456,20
-32,39,24,-223,-282,48
-9,41,22,-39,-230,-49
-13,50,17,-42,-389,-325
-21,37,10,39,-331,-586
-29,28,10,-107,-439,-604
-40,7,9,197,-145,-906
-51,11,30,379,-66,-466
38,-70,-91,4487,-2202,-2852
53,-41,-32,9385,-3021,-6225
0,-64,-59,7974,-5441,-4094
-72,-80,-23,2340,-3556,876
-73,-93,-58,-1125,1608,-334
-17,121,-21,68,-69,1143
48,32,78,-680,1946,2423
99,-93,-11,733,434,5079
-4,49,-77,-395,-1786,7824
99,33,-47,-4995,-1835,4443
-56,-73,126,2488,505,2279
-19,-77,55,-1864,803,-3641
-56,27,18,2333,2491,-6424
49,-93,-40,1583,1368,-6689
-66,99,51,3710,135,-4915
-18,-55,-92,1997,-687,-2115
-71,113,-95,-366,-873,183
-21,34,-58,-3327,-1867,569
34,-96,-38,-5786,118,-406
96,64,44,-7022,2795,-395
-6,-73,-68,-6964,2739,847
6,108,-124,-1687,1281,4188
10,-53,-102,331,808,5836
-82,52,-125,-4238,644,3576
-64,-15,-15,-2120,-591,3024
-104,-110,-107,-763,-591,1939
114,62,100,772,511,956
3,39,98,1465,-415,257
-41,-29,60,1972,-366,-525
-63,-91,17,1806,202,-1122
-75,110,-10,1150,242,-1091
-66,109,0,115,-4,-514
-45,104,-1,-214,-70,-470
-26,103,-2,-24,-138,-555
-40,119,-3,72,-225,-830
-36,114,-3,197,-183,-1056
-31,94,-8,447,-141,-1086
-42,84,-12,554,-281,-970
-37,84,-2,394,-271,-599
-49,95,11,258,-364,-279
-47,100,20,289,-107,-152
-46,112,10,199,37,-24
-54,-110,0,-240,-95,329
-29,-69,0,-644,-29,204
4,-65,1,-151,116,74
-1,-55,-10,311,-104,-132
-10,-56,-9,336,-82,-444
-17,-78,-16,400,-44,-428
-28,-82,-16,152,-121,-263
-12,-88,-16,233,13,-144
118,113,-29,4252,364,-3709
-82,92,56,8460,1458,-3947
68,76,46,7977,-9191,1014
-106,59,44,-3169,-5484,2501
-10,-14,-24,-243,-506,-1248
-40,69,85,1596,-888,577
19,-32,-36,1622,1076,674
-82,15,-36,979,1181,2458
-87,14,74,-2643,-2278,5891
-3,44,-23,-3440,-516,7523
115,-61,-36,-1455,-1590,3666
-60,124,-54,440,921,775
-105,81,117,-304,48,-4680
-94,29,-39,940,388,-5378
34,-92,29,875,-284,-4754
-60,121,39,3768,1518,-5643
-8,84,-38,2502,-325,-2283
-60,-117,24,-1651,-706,605
8,-103,-12,-3619,-1706,163
-87,-39,-79,-3083,-900,-1038
88,14,23,-8358,2471,-1864
105,7,-115,-8936,2108,-599
79,45,51,-8341,307,1937
90,-82,33,-1332,-3310,5781
127,-74,-113,858,-3551,6566
51,71,63,-575,-1099,2736
34,-75,127,1401,161,2695
-50,-47,-116,519,-204,1822
87,51,61,1694,313,931
36,-12,30,2161,431,285
16,-73,45,1414,461,19
-6,96,63,1527,311,169
-45,63,69,1580,-284,116
-58,43,81,1376,-443,-27
-18,43,89,643,-52,-176
3,4,92,623,-98,-617
-40,-29,89,484,-435,-739
-46,5,83,-629,-365,-651
-43,14,69,-547,-216,-553
-24,22,58,85,-132,-419
-5,74,42,-107,-152,-537
-12,82,29,-141,-137,-672
-17,93,24,-68,-281,-694
-1,114,15,-14,-207,-875
-1,122,13,281,-274,-925
-15,114,6,682,-369,-991
-13,94,-1,756,-285,-738
-45,111,-18,267,-212,-47
-60,-122,-31,-166,-174,182
-54,-109,-36,-62,-186,170
12,23,-17,2674,-1736,-4469
-4,-19,-125,3828,-5550,-3454
-68,92,2,2239,-5055,-2700
22,50,-14,3921,-2060,-1982
126,-22,-82,1776,54,-286
110,-53,100,-857,1373,122
40,44,66,300,2258,1745
39,105,7,2813,-3545,8475
-72,67,-86,-4125,-46,5630
21,75,-94,-3028,-251,6678
-128,-82,12,-591,-731,2226
85,-91,-110,-267,269,-1164
29,-61,-55,-171,559,-4989
55,-49,-22,998,1926,-6069
64,96,-30,3629,590,-5270
-33,18,-6,5813,1261,-5168
120,-72,110,419,-59,-1623
-105,65,-61,-1660,-1185,-153
102,77,-115,-6854,126,-1253
-86,-74,-101,-9079,1661,-1738
-111,40,32,-7945,1054,312
118,-61,95,-2819,-698,3372
-9,19,35,38,-1534,6017
-22,40,-40,-1395,-1466,5033
30,104,-55,-1799,-603,2432
-75,-65,61,-173,-763,1316
102,103,111,1064,-256,1175
55,12,43,1775,477,571
17,-47,51,1927,-21,788
-2,-117,22,2632,-73,683
-20,119,15,1817,-181,1
-39,105,41,532,-93,-398
-49,58,35,678,94,-656
-48,51,40,237,-67,-792
-26,58,34,-227,-7,-768
-9,47,22,-10,18,-1006
5,48,17,147,-11,-1120
36,36,-6,240,126,-1386
19,26,-9,355,-116,-1166
-1,38,-9,143,-295,-725
-11,52,-16,-123,-212,-459
-6,57,-11,32,-173,-101
0,69,-10,368,-153,147
-8,95,-1,537,-245,347
-11,121,6,259,-92,325
2,116,5,526,87,244
8,120,0,515,-73,193
-1,127,-6,164,-94,67
-3,125,-4,139,-10,38
-9,115,-5,405,-74,124
-39,-118,17,4893,480,-3410
-10,20,111,6546,-3536,-4585
75,67,68,4918,-6337,-1112
73,-122,-64,1746,-5428,483
121,124,122,349,-1705,-759
-20,-78,-65,912,-1889,580
-111,37,74,1639,-117,23
-80,30,-19,-742,945,2405
66,-12,106,-2131,429,6011
-31,86,95,-2005,-155,8731
13,-127,-96,-231,-1758,3531
-20,22,-79,-2891,-1562,2565
-92,-38,114,1401,1573,-4612
-48,77,-100,2075,2604,-6581
64,-11,34,4514,619,-7179
-122,11,23,3824,-1911,-6133
-59,-96,-6,1645,189,-1462
-115,72,-35,-2458,714,72
120,37,-38,-3619,-2738,605
116,-57,-61,-5572,-495,-835
13,-72,-46,-8449,3167,-1463
-33,-119,57,-6270,2989,440
-98,-21,-59,-2459,-629,5643
-89,-107,87,-1128,-1825,8504
-84,42,-59,-2955,928,4670
-73,-103,118,981,534,2427
54,41,120,2655,343,1463
-101,-8,40,1651,250,201
44,75,40,1973,-299,-554
11,-63,17,2313,19,-1363
1,113,-7,1759,267,-1503
-10,57,-14,930,8,-904
-28,57,-11,279,-176,-333
-53,72,-3,-183,-382,-95
-45,102,13,-595,-463,-91
-9,127,30,-737,-303,-184
7,-99,41,-504,-149,-275
7,-101,39,326,-66,-553
0,-108,33,540,-75,-562
-5,-99,19,172,37,-538
-1,-109,14,240,80,-448
-7,-116,8,475,-29,-302
-12,-107,4,274,-40,-235
-12,-109,17,406,-41,-66
-5,-114,28,793,55,38
3,-110,33,761,-7,4
12,-122,44,813,217,-43
9,-114,34,256,67,-122
3,-106,32,-116,-99,-173
59,-114,75,68,83,-57
121,-65,113,4058,-1519,-2674
-128,-9,59,6363,-3677,-2655
-112,95,118,9419,-6264,-766
15,78,-37,958,-5121,782
126,50,91,-2100,-1655,-385
-54,-51,-82,458,-741,20
-68,75,68,1744,972,-130
-6,90,-83,2313,1743,1371
76,-1,-123,-3804,210,4820
-25,46,-37,-1296,194,7781
68,108,109,-2748,-1363,6803
100,96,-48,-1215,-909,2136
11,20,28,-260,948,-819
98,-18,13,1701,1998,-6690
81,25,-87,1439,2914,-6750
-113,84,-86,3897,1648,-7120
58,-69,-108,3726,-301,-3534
92,29,-126,-859,-954,399
16,-48,116,-2123,-2320,718
-68,-17,-104,-4886,-1304,-1627
104,-33,-5,-8488,1165,-2363
73,12,69,-8587,1673,-348
-63,-29,88,-3687,-866,3964
25,-101,55,1653,-2201,6760
-1,88,99,144,-409,5561
65,51,-7,-574,2314,2232
27,16,93,175,699,2519
116,-89,-93,434,-349,1304
101,44,83,2187,815,613
76,-45,30,2785,255,158
-21,-91,16,1650,-839,126
-18,-108,44,363,-559,-234
-28,79,58,1147,-204,-496
-81,50,81,1191,-210,-653
-47,72,95,-167,-3,-787
28,30,92,242,274,-1019
44,-1,94,757,-220,-1102
16,24,82,140,-239,-813
-6,45,75,-207,-131,-680
4,41,63,20,-107,-416
-30,69,64,-121,-395,-23
-29,99,67,-389,-279,82
-8,-118,62,-477,-7,-54
-15,-127,60,257,-217,101
2,-92,55,-247,-211,37
-15,-63,51,-422,-250,-77
-28,-64,56,109,-112,-142
13,-72,50,685,146,-196
10,-57,34,362,-371,-471
-15,-60,40,-1,-322,-691
-117,21,115,3476,-1215,-3489
86,115,80,4231,-2567,-3347
28,-99,-127,5768,-4462,-2137
-113,98,5,4368,-5160,-785
-5,104,-54,1699,-3450,-116
-99,19,66,1156,-1587,383
-97,81,20,2048,870,209
7,-87,58,2070,1433,2990
-53,104,-101,-2600,-1656,7059
64,-19,-76,-1230,2090,5419
4,-117,28,-996,-481,4617
1,48,120,-1118,-1478,2496
56,30,34,-117,2456,246
124,122,-7,1700,2148,-5716
90,4,102,1169,2409,-6700
29,-89,52,3732,503,-6527
114,-94,22,5034,-315,-4637
-6,-75,-97,267,-2174,-1004
71,-99,-21,-755,-27,-1124
56,47,-20,-10704,1559,-2446
-118,-50,-40,-11293,1549,-2589
-106,110,-119,-9518,328,-815
10,-68,-62,-3655,-3043,2867
72,-59,-91,4286,-4734,6310
-90,-114,58,3563,-1598,5260
66,-98,-6,-1353,785,1735
-85,-93,68,1807,226,2197
105,-100,-115,757,-680,2283
63,72,119,238,145,1053
44,-11,97,1698,313,412
-13,-67,73,1998,-232,-193
-37,126,56,1650,-163,-488
-51,102,54,941,-47,-405
-71,86,62,432,-22,-261
-53,71,66,201,62,-358
-38,55,80,156,52,-343
-20,31,71,361,140,-728
-26,9,51,809,60,-895
-24,-9,39,849,-28,-900
-24,-9,39,580,-280,-366
-15,18,43,-90,-372,299
-19,82,55,-826,-377,289
-29,109,58,-465,-346,164
-41,-116,74,26,-378,105
-43,-101,59,286,-71,-269
-23,-92,41,66,79,-746
-11,-112,28,319,-59,-806
-9,122,14,680,-51,-938
-24,103,18,781,-160,-745
-17,75,21,521,-4,-440
-63,2,-25,5471,-1898,-691
-126,73,29,6221,-2521,-1785
-11,91,-97,5051,-2604,-3102
49,-61,87,2459,-4367,-955
55,-53,-109,-730,-3137,-881
-93,36,-9,478,-1860,-443
39,116,11,832,-181,1042
73,-7,-91,1095,943,2903
116,99,86,1168,-1294,6401
19,-16,-40,-787,-2311,8056
71,-94,28,-1495,-2107,3792
71,59,-4,-2839,-2097,1891
39,-75,-81,414,1443,-3517
-57,-17,72,2356,4111,-6853
101,-20,-80,4135,2852,-8185
-96,-118,-40,5076,-159,-6549
27,-89,-68,117,-2092,617
-52,-3,23,-3045,59,-38
50,-21,48,-702,-1603,491
-64,55,-15,-4465,71,-896
-100,-5,74,-8597,1639,-2559
-61,-85,-110,-7676,2193,-147
94,-32,116,-5480,-384,3564
90,-36,84,-1120,-2000,6935
-90,-47,97,-1607,1180,4874
92,36,-59,-20,4843,1865
-59,70,34,2143,818,3846
-112,110,-17,-373,-2509,1770
43,-47,88,-1185,-1442,-794
0,1,126,1644,-648,-657
-12,121,100,2651,-69,-159
-58,96,71,1208,-60,-111
-47,83,83,598,-335,-183
-30,58,103,706,-468,-316
-18,48,97,370,-153,-444
-43,58,102,-171,-425,-512
-44,64,94,-287,-340,-416
-25,84,96,-244,-199,-423
-11,86,87,161,-19,-420
-34,83,70,519,-166,-393
-11,71,62,1000,108,-312
-8,70,43,1067,-124,-219
0,87,39,186,-195,-354
-11,96,40,-384,-221,-410
-27,98,44,-207,-301,-205
-31,122,52,-103,-236,-172
-17,-113,50,216,-74,-264
-11,-115,49,390,-191,-235
-18,-99,49,86,-234,-223
-30,-100,52,263,-120,-251
85,-19,-14,3751,-1772,-2624
119,-28,110,4436,-3583,-2988
-110,-120,-23,3966,-5260,-1401
10,-109,121,1853,-5860,130
71,-71,99,-535,-2993,-40
126,-39,-123,-229,-1009,218
116,-66,9,674,-582,399
100,56,-107,2148,306,488
112,8,50,765,149,3691
-114,48,-73,-1704,-1013,6278
30,109,84,878,-2103,6487
101,-83,-118,-900,444,3192
65,-67,82,865,473,1522
50,-72,-70,-429,1721,-5347
-80,-122,-89,1493,1653,-5900
90,-33,66,928,529,-6928
-77,-98,-78,2124,-1507,-5669
33,126,50,2622,-894,-2632
64,93,-47,-1510,-584,-487
111,-60,-115,-2283,22,385
36,82,-47,-1048,-697,598
-91,7,-75,-5182,1371,-214
14,-69,-72,-6971,3505,848
-39,71,93,-7199,1984,2482
44,109,89,-4781,580,4413
-49,-116,60,-799,-783,5702
-2,0,-117,232,842,4363
-120,42,-63,823,885,2844
-38,-106,-45,-2340,-1364,967
60,-57,4,2177,-295,-316
-41,-105,-106,1806,107,-1253
-52,111,69,-330,-359,-400
-80,-74,62,1996,-523,-499
-74,79,43,2657,16,-231
-74,51,48,2055,89,-160
-47,72,46,382,-102,-454
-27,74,62,-743,-264,-782
-44,59,64,-109,-110,-460
-45,53,71,616,-124,-162
-44,93,45,330,-123,-78
-39,115,44,-159,-229,-35
-37,-123,45,-159,-178,18
-41,-105,44,74,-221,-15
-39,-81,44,-174,-180,-173
-34,-72,44,-363,-38,-425
-20,-43,35,-941,156,-730
-32,-87,55,427,-128,-395
-31,-78,53,501,-232,-272
-22,-59,41,97,-22,-402
-22,-71,40,395,-58,-395
58,-3,-100,4295,-614,-3797
89,-106,101,7881,-3358,-3556
-44,32,-9,7541,-6852,-750
-123,-100,89,3633,-4939,1223
-81,107,-124,-775,856,-962
20,99,122,2667,-669,717
80,-91,-122,-298,369,1723
82,12,-58,-1753,-2501,5229
17,-36,-16,32,653,6285
-25,-30,70,-1196,-2061,5161
31,20,-48,-2166,-1180,3081
66,-90,73,-1104,-22,2572
58,-100,77,1380,1374,-3792
-44,-1,-26,996,2410,-5577
39,95,-112,853,2874,-5965
-28,71,111,3298,2269,-6041
-36,-107,5,2038,990,-4906
101,-124,42,1018,2290,-3068
-96,54,-7,-2391,-297,808
2,-91,48,-1374,-3018,-54
-112,70,-16,-5959,-240,-1912
28,67,-12,-8497,1713,-2510
-68,-122,82,-5474,-67,34
51,90,-36,-2613,-2280,4299
-85,95,-104,-547,-3816,6935
-28,-48,-74,-1424,-1102,5684
-61,-114,-71,1387,1184,3568
-29,123,-71,3230,902,3021
-53,-38,-112,78,-1968,1334
41,-114,98,-117,-1275,-843
-8,-99,79,3013,551,-1104
-28,106,35,2653,682,-1481
-21,57,51,1332,-52,-644
-29,28,83,358,-526,91
-17,-22,90,1022,-274,-519
-26,-33,83,683,-138,-569
-53,-25,86,-28,-441,-211
-51,-9,78,18,-306,9
-25,30,70,-251,-305,-68
-3,73,65,-428,-361,-134
-58,80,52,4,-256,-246
-81,86,30,343,-23,-440
-13,88,19,372,-94,-456
-19,93,15,209,-374,-486
-41,97,10,62,-187,-514
-21,94,8,136,-153,-393
11,115,23,8,-307,-237
-59,118,3,324,-148,-497
-29,99,-1,587,-27,-366
-21,113,-4,133,-392,-110
46,92,-71,5921,-1616,-952
116,115,125,5865,-2006,-4340
-72,63,-18,9512,-4579,-2494
-81,-9,7,3153,-7308,987
93,117,50,-1267,-5628,1786
-57,-121,-44,251,-1310,327
-89,-18,51,-905,-1408,646
65,106,-75,896,402,-400
-116,84,-19,994,1305,1684
101,-87,-46,-1497,-1475,5202
-91,71,-38,1777,3463,6079
-115,45,14,-3183,-1993,6233
-12,83,-93,-1759,-2276,4117
77,84,-93,-209,-1064,54
-111,-32,87,373,1231,-5212
-23,46,119,-862,-41,-3630
-126,-80,58,1839,3293,-4831
-12,-87,-23,2876,934,-5416
-125,-79,-89,2786,425,-5530
86,-110,-76,-387,-1239,-1027
-36,-45,-84,-1960,18,-860
41,0,13,-2414,-465,-483
-90,-101,-74,-7149,696,-1254
-50,-4,31,-5604,1031,-329
94,-18,-72,-5912,917,2419
96,-98,100,-3985,1452,3722
46,101,-59,-4130,124,5560
-2,12,-57,-2851,-3592,5523
-22,103,-30,1355,-1488,4442
119,73,-11,2404,-32,2397
-120,98,104,1762,-382,376
-67,-36,78,2132,-845,-1061
112,74,29,2003,304,-1561
103,-27,14,1002,754,-1070
108,-98,33,1291,169,-361
126,112,25,1452,-489,-383
-102,84,-5,768,229,-760
-95,85,-9,6,429,-757
-98,75,-5,174,-28,-619
-79,95,-4,175,-92,-541
-73,108,-2,-44,-143,-392
-77,-128,-7,-101,-102,-304
-96,-108,-8,-37,-275,-324
-66,-87,-5,-206,-59,-412
-35,-93,1,321,-67,-251
-92,-97,-12,776,-334,-254
-88,-80,-4,119,-204,-280
-71,-85,0,169,-32,-208
-71,-100,0,683,-154,-113
-67,-80,-6,187,-107,-78
59,-105,51,3573,-1040,-3479
42,-123,3,6244,-2076,-2286
90,-128,20,4809,-2424,-744
-109,-57,109,1974,-3526,541
12,-32,11,-136,-1781,410
-70,-42,49,271,-531,76
102,-54,-4,945,-576,-78
123,-6,120,2269,-184,835
-53,-119,18,105,-3357,5321
-20,-83,-81,-2724,1462,6960
21,89,31,542,-1345,5278
111,-70,3,-164,-1575,2229
108,64,-58,-421,-35,951
-35,47,21,-476,742,-1151
88,40,73,-778,740,-3476
-102,-122,33,-2186,2954,-4453
51,114,-79,664,1884,-4433
9,-38,42,5351,4791,-7432
82,20,-102,442,-1141,-3079
-29,50,-93,-41,350,-221
30,-108,100,-5155,-119,399
-9,-76,84,-5930,595,-389
-124,-128,-114,-9471,1979,-415
100,-82,-69,-6386,390,559
35,45,-69,-1142,-2152,4219
6,-50,119,3890,-3853,7710
-16,-56,-98,-828,-2828,6712
28,-128,77,420,-1168,2347
102,-108,-75,3692,-670,1847
-120,-6,2,51,697,200
-44,-107,16,-8,-189,-344
-120,-21,0,1584,-42,-803
-106,-103,-28,1805,194,-1197
-112,64,-30,1993,-151,-1064
-101,-9,-27,2016,-300,-887
-72,-21,-33,1122,-553,-836
-66,-12,0,135,-465,-623
-99,-39,0,71,-105,-445
-90,-19,-9,101,85,-483
-57,3,-23,-20,235,-667
-42,40,-38,-25,612,-1108
-75,44,-10,669,-119,-186
-55,71,-21,98,-143,-214
-24,84,-28,218,58,-264
-15,83,-26,470,-49,-355
-36,100,-13,360,-275,-206
-55,111,-12,103,-142,-293
-42,110,-9,239,-28,-223
-32,117,-14,348,-71,-190
-22,-126,-20,331,-83,-279
92,70,13,2691,-809,-4529
54,-121,24,3502,-3152,-5497
-49,-119,116,7029,-6108,-2666
26,12,49,5763,-7366,-638
81,-107,3,181,-3307,-411
-77,-114,116,-299,-770,-662
68,15,49,1258,319,-244
73,124,106,4535,1424,669
-29,80,-4,558,960,3870
25,-100,-125,-1016,807,4782
63,-4,-121,-1460,-1221,6341
-55,-22,55,-336,-539,3585
125,-88,-9,-1293,-1322,1887
-107,53,-126,-789,-67,1243
50,-119,-66,34,-150,-2580
70,99,-67,293,2615,-3539
-117,-32,33,-1105,3139,-4110
-58,-29,76,1004,3500,-6096
121,-59,26,6626,1786,-4927
83,-55,-1,2472,-525,-2467
-97,-90,67,-2170,-789,-1211
34,13,-106,-2456,-900,-240
90,-105,1,-6299,1212,-528
108,-105,-117,-5948,883,765
10,-97,102,-6025,97,1723
89,9,59,-7464,-442,2639
-127,65,57,-4738,-5325,5379
50,96,-20,195,-3583,4756
1,-29,125,4486,-1080,1155
-76,31,-90,2691,1207,645
25,-57,41,2513,817,541
-64,111,-9,1178,-303,266
-76,90,-1,-130,-646,400
-79,39,11,30,-388,26
-99,-10,23,822,-137,-604
-84,-42,17,834,397,-1219
-66,-62,-25,-772,1003,-1635
-37,-101,-13,-675,396,-919
-47,99,15,1086,-142,-347
-39,-113,-2,710,46,-583
-34,-98,-8,547,86,-474
-29,-98,-19,275,11,-304
-34,-79,-7,46,-286,-25
-25,-72,6,315,-195,-246
-14,-63,12,364,-86,-132
-21,-58,10,449,-235,-115
-23,-53,8,309,-254,-223
-30,-56,12,296,-210,-243
-36,-66,13,388,-185,-202
-36,-63,10,373,-235,-231
-72,-106,32,4574,-2395,1394
-20,68,98,3588,-1932,-698
-79,103,-30,-1041,974,-4578
-44,-41,12,2592,-2498,-4076
-78,-101,-98,5809,-5694,-2567
-70,84,64,3380,-5935,-1889
124,-8,115,1313,-5050,-768
-96,109,-18,911,-1865,-10
21,-10,59,800,1121,765
10,59,76,2231,3080,1967
31,-32,-30,1434,-229,6605
-90,47,64,-3728,-1763,9359
-74,-73,47,-2293,-656,4265
-35,46,67,942,-633,1715
14,-11,17,17,459,-4352
-118,28,22,809,1454,-5176
-54,36,-42,1924,1844,-5946
-43,-20,-90,3718,768,-7301
-48,2,-103,1083,-1983,-3985
39,-42,-66,-682,-1439,24
-15,-17,13,-4680,-1655,199
-10,85,-49,-7120,916,-265
12,90,-102,-8341,3111,402
-40,58,14,-9355,1572,1608
49,18,0,-5396,141,3352
-63,104,-116,235,-4553,6437
-17,-76,105,782,-3530,6504
53,-13,59,982,-152,1763
-11,-126,-108,1876,29,1547
94,33,-126,1009,-555,353
3,-119,70,1628,-332,-217
-91,8,96,2107,-268,-209
-99,-54,55,2063,440,-519
-105,-86,37,1306,395,-818
-80,119,36,686,356,-766
-62,103,34,58,316,-881
-48,59,28,536,239,-855
-36,36,20,796,179,-657
-40,57,3,256,33,-660
-38,67,-3,10,-84,-687
-17,81,-6,45,-26,-566
14,101,-8,27,-23,-412
-34,112,-16,398,-383,-382
-30,-127,-2,271,-351,-313
-24,-112,5,140,-243,-175
-42,-120,12,648,-347,-82
-44,-94,21,273,-311,-48
-42,-83,19,81,-200,-92
-39,-84,20,297,-224,-169
-43,-85,3,286,-165,-274
-78,40,58,4598,-2502,2402
-61,-109,-116,10494,-2987,1059
-78,108,116,-380,1712,-6038
98,-32,-102,3133,-3691,-3399
89,72,-64,4283,-7238,-2641
70,-13,82,481,-5750,-1890
7,19,72,1315,-3780,-794
67,95,-26,1620,-79,-569
120,51,90,1808,3605,2354
-4,114,-1,706,-646,5650
57,77,-44,-1911,-3732,7369
-102,41,-116,-3580,93,5484
78,48,-110,1638,-791,3041
35,-15,13,-852,1629,1625
97,27,10,677,-797,-3219
-118,28,67,395,670,-5514
105,8,-40,2365,2994,-5439
127,-34,92,3730,1725,-6860
-104,-61,-5,3214,-1778,-4709
-82,-71,-87,-161,478,-863
65,-105,-123,-3349,-1522,369
-36,20,-74,-2068,-1395,60
-79,28,50,-8258,1376,-1419
-61,-96,118,-7842,1691,-504
126,47,79,-6767,460,1887
119,25,-73,-978,-572,6501
-69,64,-32,-2218,-1120,6604
-33,80,-16,-1972,-1271,4920
112,-50,51,-605,-2000,2972
-67,7,-101,1733,66,234
41,-117,95,2266,303,-655
-64,32,45,926,121,-714
-83,-53,35,858,-125,-501
-55,-122,23,1408,26,-197
-13,76,21,1217,871,444
-31,112,66,-467,440,-25
-10,120,108,-694,-229,-468
28,70,110,853,267,-783
19,60,84,946,264,-763
1,70,81,809,-193,-486
1,45,61,1825,-17,-664
28,122,39,156,-70,-1136
9,119,16,-331,-169,-1364
3,109,38,163,-333,-572
-15,104,61,873,-395,-109
-12,111,49,1336,-109,-8
-3,127,41,676,-169,-249
8,-127,42,252,-171,-279
12,116,45,278,-234,-280
-6,113,50,348,-313,-115
0,9,86,3668,137,-4281
7,-120,-33,5624,-918,-4726
-9,-51,104,6445,-3060,-4832
117,62,73,8357,-5503,-3261
-36,71,62,2708,-6089,318
-6,9,80,-237,-2274,-51
-92,119,-74,446,3465,-639
-62,111,25,2600,2241,1947
-110,-28,13,891,-1577,6981
68,-80,113,-2910,-1816,8113
56,75,-7,-3374,-2046,4387
-39,-109,64,410,-406,2095
42,-42,61,-273,866,-50
-112,-103,39,-305,641,-3079
-127,-61,-3,-631,1664,-5136
38,-49,-97,636,2530,-5728
-83,77,-126,5339,2526,-7096
72,67,-11,1998,713,-4404
55,-127,-23,-1345,164,-859
51,21,-56,-3329,-813,-710
48,-22,-64,-7072,-1196,-1818
-96,-11,79,-6560,524,-634
104,55,32,-4441,1104,1482
55,-39,116,-1744,-462,5418
-70,115,49,-2551,-3363,8516
116,93,-81,-3032,-3754,7289
10,44,33,-920,-1395,1440
62,36,19,3708,1064,214
-3,-8,113,2743,786,-866
-60,-69,56,56,160,-1166
-63,80,41,-295,29,-374
-66,-50,6,548,164,-677
-59,-92,-15,1483,350,-823
-46,-102,-42,1289,244,-702
-33,-115,-46,726,-126,-597
-41,121,-36,431,-312,-321
-46,-120,-22,-10,-296,-107
-39,-87,-7,-119,-222,-362
-38,-81,6,207,-216,-344
-38,-69,12,320,-181,-297
-40,-47,8,174,-190,-241
-39,-35,4,-94,-198,-269
-37,-31,12,-120,-190,-202
-42,-23,19,99,-12,-258
-40,-33,14,591,-3,-353
-27,-33,2,463,-51,-343
-28,-35,-8,330,-38,-435
-29,-61,-9,611,-44,-358
-26,-61,-15,373,-128,-231
-29,-42,-15,-83,-229,-185
106,-48,72,3924,-2253,-2363
-92,56,-21,4553,-4055,-2601
-26,36,3,4839,-5126,-2432
87,65,46,1984,-5654,-647
-41,-61,-12,1277,-3246,-462
49,-120,-54,1107,-834,-239
-8,-93,122,2068,1572,151
-126,1,116,1574,1337,3264
53,-111,-128,-2487,-3500,7187
18,29,-118,831,786,5857
93,71,-26,-2282,-2434,5168
-97,-86,99,340,1061,1506
-21,-93,37,-519,-107,-1054
-80,-17,41,723,1595,-5353
-67,-48,-20,-457,2477,-6471
-107,70,-95,1521,1911,-5995
43,40,-54,4228,82,-5576
-85,-93,103,1126,615,-2690
-23,-113,61,-2830,-330,-57
36,-13,110,-1684,-1444,-298
109,-64,62,-6721,561,-951
-78,-102,-117,-7514,1704,-812
109,-56,107,-5479,1113,1927
80,-59,-107,-3200,21,5262
46,47,66,-504,-1822,7735
-126,41,106,-1020,-1115,6274
23,60,115,893,452,3524
22,-91,96,3584,-643,1214
27,-105,57,1064,-927,-750
-36,31,16,812,493,-947
-98,125,13,981,514,-1466
-94,3,44,1877,-103,-1046
-73,20,39,537,-86,-512
-53,3,29,-108,88,-773
-54,-13,23,223,13,-973
-40,-19,27,489,-17,-544
-37,14,13,156,-119,-438
-31,24,5,254,-217,-409
-31,48,14,133,-392,-344
-54,62,23,36,-358,-183
-54,85,24,-75,-199,-168
-44,94,25,125,-184,-145
-34,-117,10,-258,-197,-423
-38,-100,7,-506,-165,-561
-47,-124,14,283,-128,-293
-48,-104,13,465,-141,-120
-35,-81,1,188,-44,-323
-34,-86,1,258,-127,-348
-33,-88,-1,226,-100,-365
-34,-92,-2,320,-103,-333
115,100,97,4994,-1392,-1797
-101,73,-32,5314,-2956,-3589
87,-18,127,9740,-5140,-516
-117,-21,-89,6513,-6315,-285
106,125,-80,-1537,-1684,46
32,43,-47,-2460,-2716,1203
-36,-74,65,-749,215,838
61,-104,32,-912,1375,1062
-88,47,-19,2002,3278,1916
-63,66,-104,-172,-2400,7441
72,-125,17,-2324,593,8572
15,15,99,18,-174,4110
-33,101,-9,148,628,838
-73,-86,38,-1960,-677,-5491
-45,-95,102,2357,1788,-7268
-39,-99,96,1998,2695,-9723
2,-75,90,1433,-1667,-3227
80,101,5,1171,1834,-612
82,-20,82,-10966,-859,-668
120,-22,-89,-6466,108,-997
-62,54,83,-4614,645,787
-12,59,-127,-3165,-5,3392
-25,-15,-126,-1199,781,5379
120,101,-66,-335,344,7613
-45,-87,-90,-1270,2009,4909
-86,-117,-99,-3117,3095,3085
53,7,-41,-3507,-987,2965
-23,14,71,1749,-1944,-699
-38,107,-105,3437,1191,-2290
-92,108,0,4494,1977,-2024
-90,115,-41,1348,608,1075
-34,94,-29,270,-446,95
20,105,-32,331,393,-278
-70,42,-40,641,343,-696
-73,14,-25,617,65,-11
-52,36,-29,175,118,79
-42,60,-15,217,30,103
-38,83,-1,161,110,85
-46,92,-3,240,192,-8
-38,98,1,378,170,70
-12,117,0,186,129,37
-32,125,3,153,71,119
-37,-117,-3,151,251,-105
-37,126,-4,449,252,-48
-32,-124,-15,271,266,-75
-30,-122,-33,159,244,-95
-23,-120,-24,126,51,-10
-5,-106,-12,160,229,-12
-20,-115,-19,591,241,-213
-17,-126,-25,477,205,-234
-24,-63,-57,3967,-1200,-2855
-9,-24,-118,4303,-2543,-2133
0,33,1,3073,-3849,-1274
-49,22,-107,3820,-2749,-501
-106,-99,-121,1835,-1652,131
122,-56,36,-316,-784,760
20,-44,10,-719,-8,719
-14,-26,10,2111,1039,307
92,14,-107,1336,-1048,4055
52,68,24,316,-971,6956
-68,-52,-50,-433,151,6960
1,-108,54,-529,-652,4122
-3,99,67,1547,-6,874
-8,-16,47,-1230,128,-3670
-34,10,-70,-599,2757,-7036
-6,-95,-67,345,1334,-7241
21,28,-26,2419,469,-4408
-14,-128,-53,2501,1591,-2351
-121,90,66,-3408,-1800,439
-63,35,-99,-2119,-876,157
50,-69,-112,-6261,1924,-322
53,-83,-40,-8090,2864,108
-13,3,6,-6516,1626,2512
58,-76,75,-2843,419,6276
-46,-126,-17,-2471,-1543,7051
99,-121,83,251,132,5518
-90,-10,68,2462,1631,2295
53,-9,88,2122,97,2078
37,-59,51,742,-1231,867
-35,67,7,811,90,-750
-87,-59,-6,1524,833,-735
-111,-120,9,1615,153,-386
-108,92,24,1023,31,-174
-56,48,17,745,445,-826
-57,-7,33,1484,175,-1169
-89,-89,27,2076,-410,-906
-41,-7,5,448,155,-345
-35,-27,-18,-12,491,-690
-53,-23,-14,203,40,-139
-67,25,-16,-190,-165,-25
-41,75,-10,-432,97,-174
0,74,-16,-12,368,-1
-45,79,-28,294,-81,180
-68,-113,-30,-841,-218,199
-63,-83,-28,-1111,29,62
-57,-62,-24,-588,180,-119
-56,-70,-31,275,289,-191
-57,-62,-47,246,247,-259
-46,-48,-60,-173,311,-365
-34,-64,-64,238,374,-329
40,82,13,5866,-617,1913
-87,-125,57,4516,524,-2239
105,-62,71,2035,-2239,-4772
-107,115,-60,4597,-5467,-2644
-90,73,12,4859,-5676,-1958
2,-11,-101,2965,-5163,-950
-18,106,-62,1732,-3356,1042
-60,54,-89,514,1340,-614
-118,-125,102,1405,545,2107
43,8,-63,215,1417,3999
123,112,112,-676,1728,6827
-34,-45,114,-2977,-87,8529
-45,102,64,-1130,-3139,4052
37,-6,64,-1275,-642,727
-39,55,-31,1039,2549,-5694
-35,53,0,2319,2971,-6814
0,-51,-64,3660,791,-6307
-5,77,123,3048,429,-4789
14,83,-35,-2075,1369,-2351
-92,84,-64,-1995,-1769,50
57,9,10,-3717,-925,600
28,-23,-58,-8474,1504,-551
122,51,94,-6991,5118,711
11,-17,-8,-8378,3611,1984
105,97,91,-9180,-2197,2636
-37,-24,-92,-797,-6127,5964
4,88,28,7255,-3160,6827
63,60,117,-5,442,2788
-121,0,97,338,422,-780
-16,-117,-108,6147,-241,-26
-97,-33,12,2594,444,-328
-97,95,3,511,740,-1110
-56,5,35,772,331,-17
-71,-31,37,981,-79,-29
-97,-45,45,1092,-3,-133
-102,-23,49,105,115,-535
-90,-42,50,-33,182,-429
-82,-37,54,78,60,-290
-62,-29,33,45,263,-462
-67,-26,28,-27,92,-365
-67,4,10,-264,140,-246
-66,20,1,-255,149,-231
-61,44,-14,-257,193,-221
-60,75,-30,-378,124,-263
-65,102,-29,-480,96,-263
-39,107,-31,-70,308,-243
-2,120,-35,197,238,-161
-23,-110,-46,-49,140,-233
-54,-117,-48,295,222,-358
-33,121,-56,449,287,-258
98,-126,-108,3751,-1107,-3648
58,122,31,5990,-2852,-5673
4,-93,73,4168,-5351,-4284
-120,-16,11,3031,-5687,-2176
126,-93,-3,534,-2021,-1508
73,25,3,492,377,270
57,49,72,3359,1032,2745
-86,25,-105,1545,256,4777
123,105,-58,-357,905,6051
-97,-124,52,301,2474,5469
-3,70,-72,-157,-1314,3014
113,72,-76,-1036,-111,-1227
46,-49,-90,-79,834,-5483
-126,-83,-128,2830,3752,-7052
-11,67,-59,5099,697,-5648
36,80,-74,2742,-1067,-3424
-121,-73,12,-1853,610,-216
-67,44,-128,-7961,-443,-430
-20,110,-111,-9412,504,-1382
-86,-30,-22,-7382,-324,798
82,-53,14,-3489,-238,3937
123,96,0,3118,-2196,6474
20,88,-54,6271,-69,4933
120,-81,77,1044,3275,1500
16,111,105,-983,2453,1753
26,-6,14,-1454,-13,1401
1,-100,-15,-1151,673,555
-28,-101,2,-320,979,505
-17,101,10,1382,583,383
4,102,10,1510,145,410
-17,97,4,815,-147,353
-51,79,-13,237,-85,-211
-53,57,-1,286,211,-507
-39,53,3,105,-18,-406
-31,71,-1,-532,-160,-627
-19,84,-4,-806,172,-886
-5,78,-14,-421,378,-1066
-12,66,-20,318,185,-934
-21,73,-28,353,135,-810
-9,68,-50,243,351,-763
7,62,-60,225,296,-420
-35,90,-61,-130,-187,65
-46,125,-53,-638,-96,143
-21,-111,-29,-493,89,278
-10,-115,-29,379,223,484
-14,-103,-30,582,59,519
-30,126,-20,1766,-813,736
-19,-65,-28,440,261,881
-35,-19,-62,-904,1046,160
-14,-55,-48,-377,619,-113
-46,-11,-104,5566,753,-2515
-87,-57,49,9637,-3078,-3246
-99,54,57,4159,-5732,-651
117,107,-9,248,-5164,-1606
55,52,-52,1285,-2010,-1566
67,4,-32,1250,1212,-1143
98,-36,-12,3228,612,2393
-62,96,-3,-3367,-510,5978
0,-69,3,-2108,-1392,8493
-99,-111,-40,-2557,1207,8045
18,47,121,-2078,-3248,2163
-56,-120,74,-137,-348,-2542
106,71,-57,1700,2978,-5122
70,37,-77,1766,3413,-6110
102,56,-46,3373,1619,-6867
-21,13,-18,4498,2659,-3178
-75,-35,110,-1170,-610,-296
-86,-65,100,-4694,-1471,341
58,119,126,-6417,-272,-1301
-43,105,-103,-6583,3361,-1302
-77,-39,82,-6985,2565,577
-114,-1,-112,-4753,-463,3658
114,124,60,-2822,-2257,6297
69,3,75,-1084,-1741,4020
41,-54,-118,-291,-337,1918
-15,-48,-63,-103,-87,1876
-111,113,-102,367,47,396
92,51,85,1708,480,705
-15,-20,31,2149,-22,-132
5,-61,15,1806,498,-152
9,-86,3,952,630,-368
-6,124,3,678,369,-609
-3,117,10,349,259,-593
11,107,8,137,413,-809
32,76,14,548,391,-918
33,59,16,1133,318,-839
40,46,3,1055,374,-802
46,50,7,405,283,-598
29,38,9,431,227,-133
5,39,5,375,145,219
-2,59,18,221,135,623
10,67,11,435,383,784
25,73,12,528,295,882
51,82,13,490,243,896
59,92,14,347,186,826
23,105,10,260,14,601
-1,120,17,85,126,335
0,119,20,185,246,172
2,108,25,568,359,113
25,103,21,630,284,-5
-34,123,32,4305,-637,-3268
14,112,74,5662,-3634,-2730
-18,-38,74,3735,-4496,-3338
30,68,-89,1376,-3523,-1592
-58,-101,85,1488,-726,-335
-34,22,121,3501,515,1630
96,-113,84,-345,408,5617
49,-20,37,-512,-21,8267
-85,-74,114,-1217,961,7266
48,-104,127,-1761,-1270,3209
-122,36,-30,9,566,-2167
-6,-18,-123,-93,1362,-5865
-46,-56,91,713,1153,-5306
-117,32,-115,3025,53,-6148
-32,-60,12,3682,337,-2897
-44,31,67,-2725,-1150,-188
-44,-43,102,-3884,-201,-254
-40,47,58,-5925,940,-896
48,-94,-73,-8543,2258,-1042
7,31,-40,-7996,1517,1173
-57,35,56,-4073,-805,4152
71,33,-79,2618,-4310,8833
65,-114,39,-937,-289,5658
-55,-49,68,-3570,1554,2501
88,56,-17,-655,376,2605
117,-7,-22,2459,-1424,588
30,-98,99,3378,57,-786
-46,40,-42,2333,698,-1555
-72,-29,-61,724,231,-581
-86,-87,-60,247,185,37
-60,-101,-68,148,376,-285
-34,-97,-58,353,309,-464
-31,-113,-42,425,110,-564
-39,125,-28,535,119,-455
-42,112,-30,490,248,-398
-43,-125,-36,98,159,-262
-38,-112,-28,-12,58,-117
-39,-101,-31,107,246,-45
-35,-88,-24,172,227,68
-29,-69,-32,146,196,69
-23,-54,-31,98,192,29
-22,-51,-34,272,248,-57
-20,-55,-41,409,250,-95
-19,-48,-45,169,213,-83
-18,-52,-43,303,161,-6
-16,-52,-44,428,102,-142
-11,-55,-42,414,173,-177
-12,-62,-44,432,151,-249
-13,-67,-46,329,84,-216
-15,-63,-40,162,96,-117
4,-53,20,4854,-742,-3039
87,86,-31,7297,-4236,-3559
57,-22,114,7007,-7732,-837
21,104,85,-1245,-5441,-23
30,101,119,769,-2195,-841
-74,-100,-12,794,357,-665
79,21,-5,-37,1135,560
-82,1,-19,134,2016,2928
-63,-71,93,-967,-1778,7094
-28,-87,-97,-4551,-482,7295
74,-58,110,130,1336,5495
-96,-119,-113,1212,-48,1474
7,102,55,-869,337,-1868
124,97,-96,796,1823,-5988
-17,94,70,2303,2177,-7460
36,102,-88,3707,644,-7556
-84,-12,-84,-1790,862,-4993
111,109,-107,-348,2155,-1202
-103,40,79,-5683,1178,-714
-96,-30,86,-9675,611,-828
-90,9,16,-6799,-849,939
101,102,82,-2251,-1720,5071
53,-12,56,-1550,-3430,7427
45,66,-119,-3650,-2526,6402
-7,13,-57,-767,500,2730
95,115,-11,3041,1008,1311
110,123,-106,2128,-471,49
-7,16,93,1232,-110,-687
-52,-123,33,1819,966,-64
-61,110,21,636,615,-416
-57,76,30,303,51,97
-36,64,10,91,177,-199
-14,61,4,259,448,-449
-10,44,-3,575,360,-527
-5,33,-8,780,175,-481
-3,21,-13,687,228,-301
-4,33,-16,136,108,-265
-9,45,-8,-189,23,-38
-4,70,-4,-170,134,-170
-5,75,1,177,129,-31
-7,98,0,96,117,-7
-11,112,1,120,130,-88
-10,116,17,386,127,-109
22,98,0,969,645,-136
9,68,-18,1208,276,-1
0,97,-19,108,58,178
2,107,7,-30,161,104
10,95,19,901,344,150
17,94,0,821,395,45
8,105,-14,-18,5,368
-63,-40,-83,2946,-1615,-3645
60,-79,119,4582,-3197,-5020
35,-124,29,4824,-6234,-2195
-127,-3,45,294,-4653,-1087
-28,116,-53,1002,-926,-1723
92,-21,113,3382,121,639
65,70,-39,256,1499,2693
88,113,-88,-3178,-245,4168
-49,17,36,2410,794,6361
-61,-19,-107,-4061,-1417,8235
123,41,91,-663,-1860,3555
-85,49,-1,-979,-669,-977
103,70,105,1184,2838,-5067
15,41,87,552,3738,-7408
7,-3,118,4566,444,-6761
-22,32,112,4723,-239,-4785
40,113,-20,-3109,378,-2357
31,83,102,-4913,939,-722
-41,77,-65,-9484,832,-499
-12,-113,-70,-7684,886,906
124,48,16,-3323,-900,4834
-120,-62,-71,-1962,-2111,6664
2,73,1,-1546,-749,5840
-123,-83,92,-921,-313,3039
65,29,-99,946,468,2167
117,-68,127,1913,98,1048
33,-122,59,1417,391,145
-26,48,-3,1067,467,-423
-81,-57,-14,758,133,-483
-68,122,-18,1269,405,-121
-50,89,-33,1009,377,-182
-35,82,-27,396,81,-202
-29,57,-10,747,116,-224
-31,52,-14,691,116,-220
-23,72,-33,92,373,-666
-10,69,-22,2,252,-294
-25,85,-22,-164,-33,-103
-21,83,-28,177,123,-166
-23,103,-27,39,161,-44
-24,111,-32,120,142,-117
-2,110,-40,233,211,-80
-5,127,-37,-29,-34,93
-32,-113,-41,-129,64,-21
-21,-102,-32,-52,217,18
-20,-93,-33,293,71,22
-29,-83,-44,343,234,-61
-11,-89,-49,426,303,-89
17,-117,-52,845,-183,165
-26,-56,-56,-504,-143,28
-48,-42,-48,-679,0,-394
-121,-30,126,2901,-936,-4695
-127,106,14,7889,-1919,-6017
31,0,62,6817,-2765,-3758
60,38,11,477,1095,-4621
125,-91,-83,647,254,-1512
126,124,-58,4278,-6,3580
-74,-100,-57,833,1650,7279
44,83,-70,276,2533,9000
122,-67,111,-6023,-2189,7737
124,-72,-4,-1140,-1197,3947
-127,12,68,-1768,-1302,-123
43,10,-36,1520,2551,-8019
-32,-91,-56,1993,3042,-7334
110,-19,-93,4517,1269,-6422
-32,52,-56,3257,59,-2217
118,104,88,-1676,-1852,-584
106,2,62,-5125,-953,-90
70,-94,-80,-9162,144,-1650
86,-19,-21,-8511,1514,-455
26,54,-62,-7667,928,1514
59,-35,126,-1449,-1193,4883
-37,105,102,3614,-3625,6743
36,79,45,802,-972,4688
59,6,-47,-332,1533,2077
-50,-51,96,755,260,2456
-125,27,-1,3482,588,2341
34,93,-41,2057,114,1295
0,48,-59,382,444,-402
-10,-119,-41,1094,789,-1086
-19,32,-37,2037,694,-1226
1,-24,-18,2046,357,-629
10,-33,0,907,115,-166
-12,-52,9,502,47,-145
-15,-62,24,578,65,4
-4,-50,47,425,100,134
-3,-35,47,354,128,80
-3,-16,49,57,87,103
-12,7,38,-196,255,59
-14,4,25,271,318,105
-7,6,15,537,302,166
1,30,0,217,275,174
1,40,-8,77,271,51
0,34,-9,331,225,39
1,57,-19,66,171,-122
-5,41,-12,312,149,-14
-7,56,-16,80,111,-78
-1,63,-14,88,116,-58
-6,70,-11,131,90,-81
-1,80,-10,115,189,-160
0,77,-13,217,164,-96
-109,16,117,2671,-3668,2974
-38,29,77,1034,289,-1492
125,-20,48,5265,296,-8113
53,24,-82,9321,-5315,-4136
-111,-86,46,1584,-4933,-2727
-124,-110,-12,1356,-3459,47
-100,-57,-101,936,466,-379
76,90,-118,1566,214,1880
-89,-34,-13,4362,2440,5344
99,-10,-51,-5263,-4314,9395
45,48,2,-2609,1407,5691
13,-43,125,1170,391,4923
-90,79,-74,3,2435,-1757
81,-109,52,1934,1375,-6271
124,-108,58,2219,1233,-6995
-30,-2,97,3605,-263,-6070
73,-97,108,4722,-849,-4928
104,-72,118,-2793,74,987
-2,-117,-100,-904,-1111,794
30,-125,23,-1361,-1198,1944
108,7,4,-6884,1636,-276
-86,-69,-29,-8109,4478,702
-42,-76,-92,-10040,4034,2999
-74,-41,-79,-3540,-2028,7287
78,-1,21,417,-2789,7373
-22,-98,75,1887,1074,3362
-101,-105,91,2354,-609,1034
108,-9,32,1755,-286,-347
-30,100,-66,1355,1164,-892
-34,-1,-66,1491,825,-837
-23,-56,-32,1110,-38,-165
-1,-77,-31,-30,-188,-472
-41,-105,-25,1,15,-761
-40,-120,-27,202,329,-691
-8,-128,-33,444,509,-553
-3,101,-37,1022,471,-327
2,119,-51,496,381,-180
2,119,-47,198,242,-150
4,125,-37,221,228,-46
-3,111,-28,610,304,-46
4,114,-30,643,346,68
0,117,0,671,183,168
14,106,7,1332,573,184
-6,74,10,1831,449,193
15,83,-5,750,595,93
30,80,-3,434,473,163
11,70,23,770,390,91
19,92,40,133,331,95
83,-115,60,-827,520,80
35,107,37,373,360,1
5,24,-116,5314,-2011,-1119
-50,-97,-102,6329,-849,-4634
81,-85,-21,7803,-4416,-1517
-15,-100,33,1511,-5736,-515
88,66,51,-302,-2841,-529
-89,94,-56,-420,-862,718
-92,41,118,-2631,1197,2707
-46,-34,-111,1054,-415,6434
-103,24,18,-2248,-776,7714
120,-65,-88,-2216,-1011,6424
-111,-36,-35,1116,557,1313
115,1,-45,-845,1157,-3101
-10,-47,61,1700,3344,-8351
-36,-64,26,4637,1923,-7576
90,7,1,4186,-466,-3198
-36,116,-48,-379,-922,-1950
-60,11,72,-1708,-305,1600
-92,-98,106,-5396,-1106,81
-58,38,-43,-7712,1903,-490
1,60,-3,-7816,2997,905
56,-125,-39,-7192,1010,2391
-64,-104,50,-1891,-3112,4854
-94,43,122,-107,-1805,4611
31,110,87,-1532,522,2073
7,109,61,-775,-1725,2296
-73,-2,-5,1051,-312,1981
53,29,-101,-281,-390,902
-19,-54,-111,585,580,277
9,29,18,5044,1603,212
2,-12,-82,5409,696,-245
12,-51,-82,2902,-65,-446
5,-64,-45,-127,-144,-687
-4,-104,-20,-685,-83,-959
10,74,15,578,-51,-812
22,63,35,1419,-182,-478
31,79,40,884,-152,-451
-8,111,50,87,-68,-524
-21,98,17,83,477,-902
43,53,17,685,549,-533
36,77,23,398,201,334
-25,91,-29,289,499,269
-14,94,-45,262,454,484
28,109,-22,257,440,844
38,104,-14,1025,643,847
29,93,-40,1490,552,519
41,104,-33,617,-4,408
53,-126,-31,-639,119,232
24,121,-24,-224,43,62
7,102,-9,761,81,112
18,116,-11,647,26,-96
79,-19,11,2693,-1062,-5279
-92,45,-46,7717,-2511,-6694
97,-19,-125,7372,-7272,-2285
20,74,-17,2130,-5474,926
-97,-3,-111,-1928,338,-597
18,-49,98,2126,3682,1652
-119,-39,-127,-1378,441,4140
36,-11,67,-2756,-3163,9088
-128,37,21,-6947,-4330,6915
47,7,-26,-901,-1556,3613
-111,48,57,1155,2938,-4141
98,79,113,2184,2600,-6428
35,38,-112,3223,2744,-7967
-45,-11,84,7302,1667,-7092
72,-96,118,3275,-1068,-1969
-116,7,-51,-4287,-734,854
-44,24,81,-8268,-760,744
-30,-47,64,-7654,2316,2725
-103,-67,-41,-8393,2169,3806
-82,88,-72,-5712,676,4776
-105,105,-18,-249,-2320,5513
-50,96,92,1082,-1477,3475
40,69,31,3203,633,1020
115,-42,-36,4100,759,376
-1,-127,-87,3071,1019,513
-56,17,121,1667,1287,114
-87,-17,-120,455,659,439
-43,-84,-114,218,231,-48
-12,-90,-64,-442,28,-108
-66,-66,-95,-912,405,-481
-54,-99,-98,-15,505,-945
-6,97,-96,1307,388,-935
1,109,-94,956,138,-757
-12,121,-89,-43,7,-846
-12,125,-73,-445,79,-728
-16,103,-80,308,225,-826
-27,82,-76,869,75,-554
-32,97,-73,381,26,-199
-42,116,-66,-183,100,210
-35,-128,-62,-28,293,300
-8,-128,-66,579,458,555
39,-118,-66,576,132,840
-88,-92,-89,332,-126,336
-20,-79,-58,-324,340,318
12,-78,-64,-210,470,435
6,-98,-74,973,220,407
7,-74,-90,596,237,155
-2,-61,-85,-131,11,-61
-26,-59,-77,-15,152,-300
-5,-102,-81,788,375,-420
45,107,15,4263,1756,-2409
-67,6,116,8449,-2730,-2914
-32,-11,35,3207,-6491,-967
13,-36,106,901,-5284,133
60,-42,-28,2432,-1816,333
122,-12,-14,1187,1158,1091
85,75,58,-2886,1278,2507
-66,40,-85,-2612,-1461,5349
56,112,-6,-1795,-1023,7506
-107,-38,125,-1862,-902,4466
41,-113,-56,-378,351,1801
43,-71,-60,2283,3245,-4198
55,-85,-113,2249,1776,-6374
-83,-108,-3,3441,-504,-6922
-80,-55,-94,2430,-1298,-4046
67,106,-47,3301,2532,-1778
-23,51,-103,-4119,-1281,903
76,13,-119,-2738,-1283,259
98,-73,-124,-6216,716,-1375
-81,-72,68,-8462,3409,-1434
-101,118,-7,-8884,1032,1543
-72,-119,-96,-3245,-3149,5723
-22,-64,-24,1446,-3453,8012
50,-46,45,-2570,1490,2768
-89,125,-83,-496,475,2355
-32,-30,-91,2445,-1120,1877
-119,31,29,-49,-173,95
30,-38,-5,-1530,652,-1199
-32,42,54,536,647,-747
-37,-24,61,1870,479,-73
36,-38,-15,1529,1019,-669
86,-38,-54,-90,1140,-1346
78,-21,-47,-1554,629,-1426
9,126,-16,658,-17,-706
2,-119,-28,1057,146,187
11,-38,-36,-293,24,30
34,-34,20,227,-4,158
68,-28,15,639,179,201
21,-24,11,559,-199,27
-1,5,8,-400,-127,-92
1,15,14,-763,1,-58
-6,7,10,-140,-306,359
-3,11,-22,9,-145,155
17,17,-48,118,455,-292
10,-8,-50,585,256,-251
-2,-1,-61,229,49,-258
3,-12,-41,279,108,-183
32,-10,-29,480,137,-29
-4,-12,-18,488,-157,-118
-2,-12,-19,364,231,-40
120,-15,-48,2873,1189,-4044
40,-117,28,8451,369,-6450
6,-12,-29,8719,-4167,-4056
-56,84,111,5674,-3793,-1526
96,-44,11,1504,-1413,507
48,-31,116,602,175,1896
26,-119,50,935,227,5203
99,-101,-19,-2166,-1815,7058
-83,55,-26,-2847,-550,7058
28,60,-88,-943,-836,2677
-98,95,-14,1556,1532,-3713
125,117,-53,3006,2835,-8614
43,101,77,5153,1686,-7170
112,17,121,2786,-2129,-3426
-121,-84,42,-3213,-141,280
-121,-76,-79,-1546,-966,1422
6,35,-99,-8631,431,-1366
112,-92,-101,-8995,3351,-21
-56,-19,-55,-9282,2737,1465
26,94,96,-8659,-3160,2463
93,-92,-66,-93,-5452,4249
20,-126,59,5008,-4305,4930
115,107,96,742,205,1134
-21,25,-104,-263,943,1345
58,-74,-66,1317,-948,1548
9,78,99,2346,-135,277
-10,17,-21,2435,1129,-878
1,-18,-52,907,894,-1000
-4,-115,-58,617,582,-693
-48,97,-44,906,43,-82
-54,97,-46,320,211,-22
-4,104,-44,182,482,-242
25,63,-38,1145,336,-367
25,59,-36,909,159,-359
-12,55,-37,360,71,-456
-17,62,-27,-57,180,-154
0,82,-28,-45,221,-125
12,82,-25,587,209,13
6,93,-33,510,155,70
-2,105,-31,184,169,72
2,110,-23,244,265,132
4,111,-26,451,274,94
3,118,-33,355,225,130
1,124,-34,271,178,121
-3,127,-31,298,218,108
10,124,-29,409,250,110
0,-128,-34,400,171,14
3,126,-33,397,184,-55
11,125,-35,323,175,-62
-4,124,-42,251,89,-154
-59,-71,-96,5630,-228,-2966
-26,-33,-8,5776,-1945,-3896
15,-83,-35,4047,-3070,-2378
-78,-81,-82,1431,-4214,-1054
76,37,-18,921,-2909,147
-89,-55,-110,421,-1606,730
-60,120,-88,531,1507,1097
71,82,-111,2534,1199,2925
-60,-42,-124,1105,-1611,7938
97,38,-35,-3931,-107,7751
-73,19,-108,-1052,-271,4730
73,78,121,110,122,815
-35,36,-95,438,166,-4585
-75,-109,-64,1887,1979,-4445
26,75,68,420,420,-4176
86,-2,70,2549,-259,-5181
55,-4,3,4232,821,-5118
106,52,-115,-826,-5,297
-111,89,42,-2710,296,132
-101,6,-91,-786,-1553,708
78,1,108,-6492,1385,-982
-55,-89,46,-9913,3582,-1679
-89,-114,-29,-7670,1562,179
-106,-52,114,-5051,-2138,4414
33,-46,-53,1606,-5489,8018
-18,-114,57,2309,223,5380
5,95,-16,-989,1820,2039
-22,-75,45,462,560,1661
70,-117,64,524,-638,818
25,53,29,1788,49,200
-20,-78,-14,3036,521,-631
-53,-95,-48,1482,361,-937
-71,100,-51,197,129,-871
-57,8,-52,342,314,-597
-31,-3,-60,569,439,-443
-16,5,-65,406,259,-439
-8,4,-54,476,-47,-348
-10,0,-43,665,91,-264
-27,17,-39,439,4,-231
-36,39,-33,-84,14,-131
-37,54,-36,-249,111,-82
-33,62,-35,-87,199,1
1,103,-40,-125,233,72
5,110,-43,33,34,47
-37,-128,-50,-47,3,-99
-24,-128,-51,-78,277,-157
-12,-118,-52,-16,199,3
-30,-112,-62,315,181,-92
-8,-102,-68,224,415,-115
-17,-98,-73,324,240,22
68,-73,31,3797,-781,-4181
88,103,23,6451,-3738,-3595
36,36,87,5527,-6161,-1663
-108,-101,85,3269,-5853,326
78,-106,-58,742,-2144,326
20,95,-75,552,-5,460
-14,-85,47,1469,253,1831
126,-3,-100,-7,383,4457
96,-76,-113,-896,-753,6483
93,-115,-37,-2356,236,6477
-61,117,99,-284,56,3781
121,-44,-21,449,722,368
-113,39,-1,551,2532,-3120
19,-60,-124,1550,1597,-4095
-12,86,-92,-482,-347,-5087
94,-6,7,5065,11,-5949
-52,72,-107,4212,1494,-6370
-98,-22,22,-3445,212,1270
-50,-113,-106,-1439,-898,817
42,124,-24,-490,-1143,155
-106,109,-96,-8889,1439,-2351
55,-112,37,-9312,3744,-1536
3,-67,-68,-10935,350,919
45,-105,100,-3975,-3272,3807
-61,85,-34,3270,-4564,7155
98,89,-90,2044,-550,4926
120,-60,67,-1162,1520,2127
-24,107,-120,422,77,2352
58,36,117,577,-957,343
9,-83,20,1678,376,-766
-61,74,-12,2565,327,-458
-111,-31,-44,2259,-18,-318
-72,-58,-56,1185,374,24
-51,-91,-57,753,392,-142
-54,110,-51,731,41,-362
-59,80,-43,779,23,-315
-66,75,-43,470,161,-375
-51,69,-47,251,334,-311
-46,68,-51,298,167,-116
-47,86,-48,116,32,-140
-42,98,-43,107,199,-74
-38,111,-40,93,147,-84
-38,109,-42,316,185,-86
-39,123,-44,224,201,30
-37,-122,-46,71,157,9
-33,-113,-49,93,239,0
-29,-99,-54,167,237,-43
-26,-101,-55,287,161,-42
-22,-92,-57,164,184,-74
-21,-96,-57,302,158,-71
44,-70,7,3605,-644,-4232
-106,-26,-30,7127,-3182,-4758
-12,-68,-98,8675,-6114,-338
-6,76,52,395,-3123,673
-95,74,-44,-258,-1236,924
73,-80,-68,1304,358,1221
-127,-41,-26,436,1097,3125
30,-29,-116,-1896,263,6164
-44,6,-52,-2754,308,9371
-119,56,-100,-958,-3155,3958
-3,5,-61,575,1858,2264
20,11,-90,-289,1423,-3283
-102,51,51,1819,1578,-5583
64,25,28,1493,1372,-5330
93,114,-63,3119,-206,-6435
-33,-103,-11,3744,1166,-5370
26,-21,-92,342,-472,1048
94,4,62,-3505,-497,-259
-109,-111,-112,-3352,-1096,-1115
-109,25,-65,-9997,1963,-2542
112,-113,18,-8137,1577,-1000
-111,77,51,-5015,333,3741
-6,79,-53,49,-2162,7565
-11,28,-66,-528,-4151,9390
-111,32,20,-3514,874,4084
-12,-113,-126,-736,532,1838
-89,66,-1,2380,-2028,360
-7,-124,65,3347,-363,-1835
-46,51,-48,2491,1723,-1632
-69,-57,-57,1887,1035,-833
-60,100,-44,1549,-31,-55
-39,74,-51,917,28,-162
-18,82,-55,17,389,-481
-29,32,-35,452,152,-365
-27,41,-39,350,176,-349
-25,52,-42,73,236,-209
-23,68,-50,-40,213,-149
-11,94,-53,-131,216,-131
-13,104,-47,-17,119,-5
-17,126,-47,73,112,-203
-17,115,-38,449,141,63
-16,-120,-45,127,66,-25
-20,-107,-42,-17,143,-42
-21,-113,-35,165,199,-39
15,124,-43,501,241,102
-15,-78,-38,-159,-90,290
-24,-56,-45,-293,348,-262
-10,-97,-36,756,252,-130
-10,-96,-55,533,89,-252
-2,-116,-61,343,242,-113
-78,13,47,3802,-1755,-2864
0,-99,91,6369,-4688,-1587
-64,36,94,7769,-8430,2683
-107,50,46,-1669,-4034,2952
-88,-75,38,-739,161,-227
12,-36,-34,-573,-689,556
84,-32,-94,-456,90,180
34,96,-107,212,1213,-176
86,-114,-123,-2437,2359,658
-19,9,98,-1009,-4210,7957
3,71,-35,-1734,-962,9491
-104,-6,-93,1657,264,3315
-111,27,94,-77,-446,2059
-83,-103,17,-1675,1055,-786
62,-59,105,1510,2480,-5272
12,-64,-42,288,3078,-7198
-26,-74,93,3151,865,-7489
-124,55,47,5023,-699,-4215
14,50,12,-2747,-1212,453
-111,69,51,-1094,-372,-952
14,53,5,-2312,-1022,680
120,63,-87,-8986,2671,84
-108,40,9,-9186,5745,554
-23,-60,115,-8201,2729,2082
111,78,9,-6076,-1344,2569
70,4,85,921,-4268,4273
-43,-95,-3,5193,-4858,6286
116,31,-122,-76,946,2412
123,84,69,1568,2241,597
-25,5,106,1280,-312,1018
-72,-57,27,248,194,106
-69,36,-18,1027,722,-952
-78,-82,-18,2035,498,-961
-109,100,-31,1809,204,-396
-99,94,-50,591,270,-169
-101,64,-42,414,237,-235
-81,66,-44,226,259,-167
-76,77,-26,-24,10,-32
-54,97,-26,120,218,-110
-86,62,-23,1269,-337,-99
-60,93,-50,233,194,-201
-61,92,-46,52,193,22
-68,110,-51,-146,158,18
-68,125,-42,-62,125,21
-66,-125,-41,227,101,-3
-69,-117,-44,473,21,-134
-46,-95,-69,-51,-70,-266
-61,-85,-78,-132,-13,-201
-63,-108,-67,313,226,-212
-58,-112,-59,293,194,-131
-2,-76,36,4731,-2377,1547
99,80,64,6864,-2617,-4291
-85,-43,11,4102,-3344,-4312
-1,29,88,4456,-4109,-1011
-99,38,120,1953,-3481,1096
92,64,-123,-300,-914,-480
52,37,-3,1144,-2461,1097
-2,54,-40,-1301,-133,1209
112,-79,-15,-36,947,2397
104,-29,95,-1007,3985,778
-82,-103,-76,-484,-4249,11161
21,72,84,-4426,-36,4495
83,71,39,593,-2281,4285
113,-98,91,-69,1692,-2878
-45,-47,84,2316,3019,-5699
74,94,-96,2306,2938,-6809
-108,-55,-15,3489,-569,-5760
49,-74,-80,5471,-306,-4486
43,10,-2,-1006,1055,480
-108,-42,-89,-2911,-1457,674
29,17,31,-1197,-1167,631
-94,43,-91,-9463,1893,-1430
-34,-14,-93,-7732,3715,-1202
-77,-91,126,-7709,1510,1804
-106,-4,-62,-3222,-1742,5997
-10,-41,83,-209,-1415,7208
-29,101,61,-3329,209,3945
95,-14,-90,1848,-492,1922
-75,-68,-87,3196,-90,714
26,101,29,1682,974,-985
-61,-88,19,1574,384,-734
-48,91,19,888,-116,-405
-38,2,15,847,311,-507
-44,-8,-8,443,443,-156
-37,0,-2,84,122,-231
-27,-17,-10,538,264,-90
-11,10,-14,331,258,-135
-26,7,-17,345,66,-138
-25,27,-16,48,107,-53
-6,42,-13,65,135,-156
-12,36,-9,372,146,-82
-21,53,-13,78,105,-13
-20,68,-14,-38,119,31
-16,83,-18,66,147,-27
-11,89,-20,223,177,5
-7,100,-28,247,137,-118
-12,93,-28,294,72,-59
-15,101,-31,118,156,-67
-8,111,-33,150,135,-71
-8,105,-30,326,89,-23
74,-111,-72,4519,-588,-3091
-25,120,127,6018,-2573,-2316
-97,100,-23,3246,-8837,-727
37,-101,96,1628,-6329,911
-30,106,60,2145,-350,-459
-18,-82,35,434,-1015,1335
2,-78,118,953,522,1295
-62,-107,86,-277,-93,4624
106,-84,-123,-2273,-2185,8382
-122,-127,18,-2511,-83,8390
-121,96,48,1368,-1048,2862
39,48,-61,521,2107,-1194
115,78,111,584,1094,-5708
44,-33,102,1205,1872,-5960
-92,93,-89,2532,80,-6366
116,51,-24,5172,1298,-6279
111,-46,-65,366,264,-186
48,-73,88,-2910,-526,116
116,-4,-74,-1262,-1301,207
-1,5,-125,-8192,1454,-1273
36,40,-103,-8157,3339,-733
9,123,32,-6843,2175,2539
100,52,46,-4571,-820,4881
25,-19,53,1454,-2774,6445
124,-39,-11,937,564,4479
-85,88,-2,-1140,1442,2179
-78,-31,106,-138,-590,1745
63,116,91,2065,14,1032
2,63,0,1974,733,33
-42,42,-14,745,-6,-489
-63,-28,-23,712,-46,-898
-60,108,-22,1494,129,-867
-48,76,-32,1537,348,-527
-44,47,-37,1198,185,-495
-37,36,-32,464,-4,-450
-39,30,-28,-63,67,-487
-39,18,-24,163,90,-335
-40,35,-27,82,86,-42
-38,66,-36,-256,126,-166
-34,75,-37,-40,206,-51
-33,98,-40,97,105,28
-30,110,-42,116,172,66
-36,119,-43,144,144,125
-34,-113,-48,-18,121,57
-28,-111,-45,88,178,27
-27,-109,-45,214,140,46
-24,-91,-50,73,129,-16
-26,-97,-47,271,124,-41
-23,-97,-47,276,123,-89
-11,-106,-47,328,120,-100
-28,0,80,3339,-900,-4092
-28,-47,85,4853,-5223,-4942
52,110,-3,6287,-6812,-1778
-20,-33,79,3523,-4670,2
-73,-37,-63,1225,-992,22
-17,-41,27,646,153,1079
-10,-6,118,106,1776,1347
113,16,19,-2939,1795,4178
80,85,-44,629,-3769,8358
-58,43,-71,-4002,-682,6666
-80,-71,-98,917,-237,5098
61,77,-99,-1048,875,1492
27,56,44,-176,-2461,-3053
119,27,-69,110,3622,-4650
-71,-33,20,1024,4322,-5431
-95,-67,74,1805,3030,-5413
88,93,70,4604,392,-5142
-69,12,100,2123,244,-1924
6,-93,51,-624,-1812,249
-108,29,-120,-2524,-360,377
100,-19,6,-6290,343,-204
-23,-60,-61,-8656,4075,422
2,-70,101,-12099,3644,1115
86,88,-112,-6374,-1953,4813
55,61,11,848,-4856,5631
-101,-95,54,3926,-1727,3970
-91,77,37,659,-703,2420
15,55,-85,757,-1064,2441
84,-29,-116,1223,-338,559
9,-4,61,-1104,1461,-1027
-28,-105,28,-961,1461,-1034
-128,-9,76,1674,-335,-21
-82,-34,24,1856,85,-384
-22,-69,-21,1193,875,-896
-12,-128,-44,730,895,-850
-26,125,-38,355,425,-362
-25,123,-42,188,470,-304
-3,114,-40,874,817,-444
-1,73,-11,1927,478,-229
1,-104,-24,-220,143,153
-14,-100,-4,-370,-408,411
-15,-121,4,612,-402,499
-11,-89,-6,174,-93,305
-7,-90,-11,89,146,4
0,-89,-3,302,662,-121
-8,-78,9,312,388,-133
-4,-70,13,143,175,22
0,-83,8,432,67,111
-1,-79,-4,375,15,24
14,-86,-22,318,132,-238
10,82,26,3206,-1653,-4202
66,-75,-96,6185,-5822,-3224
85,-31,-128,2940,-6794,-594
89,124,27,848,-3765,303
85,75,-20,588,329,-222
-25,55,-95,643,452,819
19,88,-114,1745,1342,1630
-118,78,53,24,-1597,6674
36,54,38,-3445,215,7749
89,-80,-63,-1401,1118,6070
-54,-76,-35,771,-1652,1378
-115,-40,18,1097,1897,-4498
-15,62,17,2378,2320,-6244
-121,102,107,3650,1302,-5836
-14,-90,-18,3686,-1100,-5339
-41,29,-82,315,4,-3178
-35,116,-66,-4108,1802,-1316
117,-126,-44,-10383,2058,-2196
-78,-73,103,-11034,2687,-1497
-38,-102,42,-7562,129,600
-43,112,80,-2471,-2238,2010
4,-62,4,2387,-3136,5066
-47,-83,79,3534,-2201,6350
113,-43,34,-703,445,3213
34,100,57,1046,656,1741
60,-66,68,2448,-286,890
-14,-120,0,901,225,-438
-38,-7,-8,928,730,-666
-56,-124,-30,1199,504,-280
-43,98,-43,1191,334,-362
-34,64,-60,1065,319,-269
-23,76,-42,153,-54,-422
-29,56,-19,133,-69,-372
-34,22,-11,629,151,-338
-24,56,-19,-68,99,-287
-18,65,-27,-276,125,-336
-22,68,-34,21,133,-70
-33,96,-50,-154,87,-68
-19,120,-60,-272,152,-134
-22,116,-57,252,66,-86
-29,118,-70,653,98,-111
-34,111,-67,614,20,-37
-13,107,-63,654,60,122
-3,109,-42,614,-106,269
-23,124,-38,245,-44,86
-30,122,-32,-5,57,175
-27,-105,-45,-395,48,244
-15,-72,-45,-500,70,31
-25,-67,-58,-243,120,-101
-46,-58,-65,-197,120,-29
33,59,24,3659,-465,-4974
-110,-10,21,7791,-3108,-4712
-65,-57,30,5519,-4387,-3469
-65,-86,13,2806,-5321,458
-104,-85,-91,-1846,-1029,1039
29,13,35,64,1708,242
-6,-104,60,3408,1421,1859
25,46,-19,1527,-1950,4049
99,-73,-95,-2756,-4487,9498
16,-81,111,-4713,1291,6467
-8,-60,-4,-956,-1549,2846
-47,-25,18,630,489,-250
-50,78,-34,1782,4190,-5540
97,95,-66,4876,3730,-6186
-40,69,-91,4877,2048,-6998
-31,48,-28,1187,434,-1904
-6,-29,-88,-1930,-1659,524
-72,-16,6,-1450,-706,-50
-39,-34,91,-6208,1767,-1960
-104,-37,59,-8763,4060,-882
125,111,-55,-7325,1588,237
-82,-73,-99,-3409,-2192,3225
22,12,13,1252,-2585,4264
-94,-63,-1,1198,-1093,3690
29,-10,-23,1260,15,3113
-10,-8,-39,617,831,2244
120,-91,-45,442,-185,840
13,73,-3,1225,-108,744
-1,77,17,553,350,-186
-39,-23,7,968,560,-1002
-36,-109,-21,968,937,-950
-8,118,-41,404,809,-596
4,87,-47,298,497,-383
12,72,-57,341,376,-171
8,78,-42,313,334,-113
22,70,-24,570,345,-97
41,38,-19,1168,312,39
8,61,-13,504,-58,235
7,79,-11,-10,251,85
15,63,-5,289,242,160
18,58,-2,561,96,320
9,75,5,402,-38,360
3,75,-2,718,159,314
9,70,-20,588,323,311
8,89,-28,105,301,225
15,98,-26,-119,327,40
16,94,-20,364,146,20
15,98,-17,477,3,-199
8,103,-16,214,144,-265
17,91,-12,262,154,-231
-14,19,89,2384,-2619,-3488
90,66,-83,2142,-4837,-3441
38,63,74,3326,-5363,-1359
52,-35,-128,1695,-4363,-61
95,-74,9,1744,-2172,217
3,-33,56,2046,-173,188
-39,88,34,4037,147,291
-28,-31,86,1594,1529,1551
1,48,101,-2473,304,4219
-17,16,-5,-2182,1509,5922
-112,-30,24,-1308,-1250,7885
-114,126,-75,-1426,-1047,3790
86,-108,110,-502,2307,571
-111,-73,74,501,549,-4527
-22,-47,-124,1625,3959,-6754
-118,40,48,3023,1226,-6509
-73,-25,-24,5258,-1561,-4356
1,124,105,-128,370,-523
-43,-120,99,-2990,-1090,286
-122,65,124,-4640,-1414,-228
2,-79,-9,-8590,737,-1078
-73,71,52,-6408,1675,564
44,-124,66,-5608,159,3749
-124,-24,-36,-613,-1354,6359
33,45,28,475,-165,5885
17,-65,-39,-1065,1780,2853
40,34,74,2032,653,2255
125,-21,89,1611,-592,1959
31,-74,42,610,202,788
-4,76,-10,2028,987,-83
-30,-14,-48,2625,705,-631
-17,-69,-68,1684,371,-833
-20,-109,-63,791,186,-657
-46,110,-44,468,18,-416
-55,83,-33,391,9,-184
-37,92,-14,217,-32,-271
-32,83,-5,373,19,-267
-27,86,-2,210,-6,-327
-31,79,4,215,25,-164
-30,94,-3,-50,110,-62
-38,125,-14,-362,135,-32
-36,-112,-27,-416,178,-34
-38,-96,-32,-260,129,9
-23,-82,-41,-13,221,-27
-16,-78,-44,130,66,7
-26,-63,-42,19,47,-26
-27,-56,-39,155,105,-201
-23,-66,-40,288,97,-188
-17,-64,-44,188,76,-246
-19,-72,-44,205,84,-169
48,-41,58,3986,-832,-3890
-118,102,-45,7794,-3572,-4326
67,2,22,6708,-7056,-1092
111,28,-83,561,-6323,1241
114,-8,88,-974,199,-1166
-53,-40,122,670,-761,70
-90,47,-33,1174,955,510
-52,116,87,1735,1603,2022
-95,-123,-58,302,610,5842
106,-32,-60,-3810,-1255,8987
91,-85,2,-2083,-287,5695
-108,68,-17,-1084,-1443,2818
-56,83,-92,1108,2067,-3035
57,-95,-103,2132,3325,-6377
32,17,-5,1134,1385,-6604
-33,60,110,4124,291,-5881
71,51,70,3861,1103,-4161
113,14,93,-796,-283,154
27,-76,107,-3149,-604,-73
53,-99,-35,-9289,-142,-2116
-123,111,45,-7789,263,-1836
-26,-70,33,-6119,-767,2393
-125,119,122,-1274,-1413,5391
117,-71,18,-952,-897,6432
67,-82,15,-6286,370,4111
-36,91,27,1097,-1419,1677
-91,-76,-12,5896,-1255,2166
85,40,38,2135,-428,1010
31,-51,-14,371,723,294
-18,26,-14,2475,407,130
-47,-115,-24,3728,59,-163
-32,106,-57,3005,484,-225
-23,114,-46,874,503,-338
-23,95,2,-569,-86,-554
2,51,-2,-234,351,-690
-7,31,-9,168,568,-866
1,56,-21,-151,792,-833
-12,84,-9,-495,-177,-435
-2,102,-19,-541,-351,-284
6,118,-29,-347,-63,-250
-4,-118,-21,-191,-9,-118
0,-98,-28,-139,308,-174
0,-92,-25,65,90,-84
-11,-67,-23,-190,-199,59
-14,-47,-24,-273,-98,-85
0,-37,-13,-50,110,-71
2,-44,-13,496,114,5
-1,-42,-23,443,282,-143
5,-29,-27,-1,392,-211
-1,-54,-23,517,98,-74
-32,70,48,4096,-1059,-3321
49,-10,2,7460,-4098,-2518
116,-82,78,6351,-6014,-980
-30,30,-101,3252,-5667,962
-35,-3,-75,1086,-1494,-145
48,6,-7,418,560,88
-64,95,-109,337,474,282
52,-15,-14,2077,2113,1844
-20,47,62,-1258,-362,5734
62,-119,88,-2522,-1507,9090
92,92,-86,-2507,322,3277
3,39,41,2142,2139,3687
-102,-67,7,-1241,239,-1850
27,-104,104,2328,1734,-5857
35,-56,-54,1375,1990,-6673
-106,-104,51,4736,1308,-5436
25,20,-125,2983,-157,-2759
69,71,-59,-1261,-96,-550
-116,69,53,-6222,332,-1340
75,-50,-121,-9169,244,-2205
126,27,-16,-7916,917,-497
-128,-53,-28,-4457,435,1664
-101,83,-97,-1050,-1398,3515
-27,10,-32,-669,-813,3641
106,95,-56,-128,-367,3272
-118,-117,46,-1312,-746,3277
-93,-120,82,-1047,-808,3149
-45,113,-119,1155,-308,2655
69,98,93,2181,-571,1487
14,111,27,1211,545,397
-16,7,0,1549,247,-217
-73,-34,-7,1292,-147,-523
-79,-85,-12,693,144,-1043
-18,38,-23,1198,777,-1153
-48,35,-8,973,164,-457
-64,32,-10,406,-17,-436
-8,7,-18,245,526,-570
-21,11,-8,504,-31,-321
-60,19,-11,524,-46,-19
-24,38,-29,248,396,-194
-21,39,-15,242,-203,301
-58,87,-20,-171,-122,130
-25,72,-27,529,433,3
6,82,-22,348,-208,257
-44,123,-29,-204,-158,205
-33,111,-38,311,449,-125
21,97,-24,655,-188,355
-59,-87,-31,-526,-344,126
-59,-102,-62,-75,652,-490
-11,-126,-40,236,-187,-90
21,90,-20,4559,-235,-3659
-87,20,-81,7004,-2359,-3782
-67,-57,-5,7541,-5595,-1596
-33,13,18,3803,-5739,644
-50,-44,-85,-956,14,288
101,119,-115,-161,899,256
77,-34,-6,1250,300,1137
-75,-47,89,220,3735,3560
62,-20,-105,-1856,-6699,9407
46,70,0,-2592,324,7430
53,77,53,-413,-102,5641
-97,-84,-63,1007,2336,-869
89,100,-107,673,1217,-6002
32,-111,-121,2261,3676,-8038
111,-74,105,4721,1540,-7237
-88,71,23,3786,410,-3784
4,9,-41,-2170,-853,448
-32,-85,-111,-4368,-841,-618
-70,-65,-22,-8906,-354,-1722
-24,119,-32,-5187,623,91
126,-8,101,-5202,-1306,2680
77,-23,-71,-3611,-1825,4335
-20,94,87,-187,-1299,5688
38,-42,-121,514,293,5168
-34,90,-108,-611,205,3632
-127,-56,-85,1618,-357,2353
-120,122,81,3103,-1313,559
21,21,36,2712,-261,-833
-28,-88,6,1982,965,-700
-24,-126,15,700,758,-605
-36,28,24,890,142,-227
-41,-24,13,1355,76,-26
-27,-19,5,568,247,-102
-16,-3,-6,19,368,-135
0,-9,-1,414,187,-213
0,-21,12,808,133,-33
-6,28,12,-72,104,-29
-6,33,12,-227,93,-181
0,24,19,343,254,-50
0,36,15,459,230,-53
12,46,8,423,277,-102
-2,42,15,610,105,-57
-6,53,5,284,199,-69
13,84,2,-553,100,-10
4,85,-1,-108,74,-151
4,62,-8,622,131,5
0,99,-17,-58,-20,48
-15,113,-12,-95,-19,123
-4,-103,0,-233,17,-55
35,-90,17,-315,78,-46
16,123,106,3240,1106,-3670
-5,7,49,5016,-1613,-3727
-96,16,63,8061,-5807,-3668
42,43,21,7362,-8072,-1013
121,-123,-69,14,-4732,1535
15,76,-22,-729,1419,64
-121,-35,80,1221,2180,-1372
-97,-52,-73,4908,-81,323
117,-9,-120,63,-1031,4215
-96,24,13,-2589,-3043,10107
63,-9,-30,-3134,799,6881
104,-18,104,-1337,-2031,5056
-79,-106,28,1527,1103,-1929
-7,-108,-98,1504,4154,-6166
112,-82,-38,2668,4948,-7739
29,-91,-28,3691,2088,-6983
11,-15,-85,5685,-424,-3564
35,1,75,-1922,-1556,498
23,-106,27,-3059,-503,150
-83,-70,110,-7019,-1507,-766
77,-107,-109,-7194,683,-1169
79,125,27,-7305,1589,287
1,-100,40,-2200,1457,3663
59,77,10,1871,-954,7680
42,9,74,70,-275,8450
87,107,-76,-2922,2684,4735
25,-40,-106,254,-129,3776
-99,14,127,1153,-2568,960
19,127,49,2329,-1055,-2059
-39,-41,-2,3295,847,-2037
-86,50,16,2719,554,-1175
-64,21,31,695,85,-422
-46,-11,17,8,409,-335
-47,-14,18,-115,375,-402
-60,-41,1,690,428,-33
-59,4,-5,-27,273,-41
-34,22,-31,-69,358,-14
-36,25,-24,448,25,-112
-36,25,-20,645,-16,-17
-54,22,-10,478,42,9
-28,67,2,-403,89,273
-21,93,15,-534,-75,283
-26,118,21,-280,107,83
-62,111,11,132,238,-81
-43,115,-5,62,340,98
1,-104,-36,-298,428,-11
-25,-112,-50,427,153,-335
-58,96,-67,1237,227,-437
4,75,-71,910,315,-407
11,98,-59,-40,-35,-171
118,-117,-109,3711,1617,-4160
39,-90,22,11013,-2133,-4509
-68,-99,-103,7641,-6196,-1599
-30,-123,30,1082,-5756,545
35,102,70,337,-1463,739
-40,78,-121,2328,1281,-507
102,-90,-45,79,356,2887
68,21,-90,-2859,-947,3800
-56,117,83,-221,-3100,7598
-108,-113,-53,-592,1061,7685
123,-125,-23,-775,-859,3922
30,126,17,568,2122,-1643
-56,104,-104,2010,2985,-6618
14,-68,-23,1849,1848,-7609
-69,75,122,3678,-3,-5679
10,29,-30,3304,1342,-4716
-18,-14,72,-41,-847,1153
-107,5,1,-3211,-655,257
79,-116,16,-5146,-883,-662
-70,-18,-97,-7510,487,-669
65,73,120,-7739,631,158
-104,-51,101,-1388,4003,3978
-64,-80,76,-2966,-788,8366
53,-2,-57,-2287,-1687,8221
20,76,99,-2887,553,4305
-128,-30,-27,-1740,-1349,1488
92,65,-63,4480,296,-2283
9,-24,48,4026,961,-904
6,90,-26,2197,325,-87
-14,23,13,-8,-454,-272
-33,-96,-14,1530,138,-309
-30,118,-36,1139,581,-727
-4,121,-42,460,691,-458
5,97,-44,892,369,-224
8,119,-49,400,250,-451
-19,106,-38,733,277,17
2,95,-40,1442,552,25
55,47,-27,2518,1233,244
37,89,3,1192,147,261
17,98,52,-230,-157,178
24,94,61,-440,368,167
17,52,43,817,654,144
47,66,30,635,387,327
13,84,18,289,34,402
-11,78,7,645,363,345
2,94,-2,399,274,234
18,102,8,403,-143,169
30,89,20,675,-326,59
28,88,40,544,-404,155
-47,67,16,908,-168,41
-41,-106,-57,4490,-776,-3024
45,9,-66,6206,-4542,-2959
126,-126,105,3372,-6007,-1360
40,-70,-12,979,-5143,-110
86,73,108,-253,-932,-748
-39,-9,119,1048,207,705
-99,-127,-118,1947,652,1472
69,33,-68,253,-1311,5962
73,-59,86,-1800,-1354,8478
89,-87,-91,-4247,2093,6448
89,-89,-35,2417,-269,2879
-117,-120,124,-1730,-786,-906
66,-46,66,1447,1615,-4791
-41,-42,-104,1145,3392,-6744
-84,65,39,4419,1127,-6304
117,101,-77,4264,-694,-4593
-111,66,-4,938,268,-592
-128,102,110,-2637,-1932,1589
32,112,-86,-978,-477,-688
-93,8,-59,-4875,1315,-1540
33,-101,-24,-7619,2518,-1642
45,-89,62,-7120,2236,1169
-43,18,34,-7238,-98,4785
-80,23,94,778,-4021,10798
-123,-121,-115,-822,-985,7103
1,76,76,-1116,719,-486
33,-60,-106,985,834,1574
36,73,39,1412,298,-650
-81,104,-10,2149,345,-1534
-91,-2,-30,2264,404,-130
-78,1,-72,354,187,12
-48,-65,-66,528,243,-44
-37,-92,-75,898,298,-225
-30,-85,-72,395,123,-158
-30,-107,-74,601,199,-374
-25,-124,-79,967,232,-486
-37,115,-83,879,56,-385
-37,121,-75,286,-60,8
-30,-118,-75,-199,-19,90
-35,-121,-73,6,-431,-44
-44,-78,-85,105,-139,8
-56,-76,-81,123,209,1
-56,-70,-80,-43,210,44
-38,-51,-72,-133,181,-41
-28,-52,-68,196,292,-142
-34,-58,-68,461,225,-101
-35,-64,-74,582,99,-215
-32,-62,-86,612,105,-161
-46,-57,-92,355,186,-204
-39,-73,-98,370,390,-121
81,31,0,1865,2834,-3904
43,86,88,9566,37,-6111
-26,-65,-125,10557,-6124,-1624
108,47,97,5921,-5429,1254
67,31,-105,-189,-426,-1173
-10,-57,-123,1664,-513,661
0,27,-1,2887,-597,894
16,-93,-52,2077,164,4030
7,-31,82,-4331,1278,5877
-109,-74,88,-330,-2273,8717
12,-110,-58,-3188,-1798,4763
2,-14,-74,781,546,1905
-55,-72,-124,939,2399,-4515
79,3,-127,2029,3211,-5976
48,70,-9,1531,2881,-7186
-57,39,-108,5593,1886,-5368
-51,-28,5,2414,95,-2826
100,30,29,-1040,-453,299
65,17,96,-2920,-1746,79
-127,92,9,-9123,880,-1968
110,56,-57,-10220,3400,-3010
62,-107,-90,-6169,686,-716
-108,-87,24,-136,-4130,5080
-3,121,109,1894,-5149,8911
115,-101,111,-755,-1797,5464
-50,55,60,3193,2651,1797
-5,-81,-39,4430,2301,2374
50,-70,17,218,-740,1879
-24,-8,17,-24,-1055,531
-1,-106,36,1759,45,331
-32,103,15,1892,416,-95
-68,44,0,1285,367,-601
-67,2,23,930,124,-613
-29,-56,6,925,509,-501
-6,-57,14,201,234,-495
-22,-54,14,144,-60,-441
-34,-63,22,755,13,-414
-42,-73,27,975,68,-252
-15,-30,2,-155,293,-368
19,21,-4,-995,265,-597
0,13,-16,-463,120,-686
-21,5,-23,77,209,-230
-15,41,-37,-261,380,108
11,87,-53,-280,357,29
12,93,-56,140,-22,-210
-4,83,-39,158,-155,-10
-41,118,-33,-536,-93,-101
-29,-124,-20,-512,96,-186
-24,-115,-20,-157,174,-211
14,127,-17,358,304,-37
-63,-27,-93,3940,-1461,-3919
-8,-88,98,6587,-4009,-4297
-7,-96,-42,4455,-5415,-1625
96,-74,87,2548,-4970,641
-88,4,68,610,-1924,107
39,-2,0,27,12,-195
-82,-12,-20,290,-395,350
-102,12,-104,1308,1850,764
-118,127,-125,-342,1290,3494
-103,-24,38,-975,-3538,9600
-71,-55,81,-3245,911,5346
-83,-78,13,1575,-1681,4354
-110,52,55,1093,498,-54
-44,90,-10,9,1074,-4856
80,-10,-28,1082,1388,-4624
-106,11,17,528,1110,-4781
66,53,81,1849,2138,-5330
57,-34,-114,5065,295,-4157
34,-69,-19,-225,-712,-1361
84,-48,34,-3960,-343,133
-81,-35,-79,-1404,-815,307
0,-53,106,-7465,1655,-832
51,93,-101,-7963,2407,-625
79,-64,42,-6338,2044,838
104,-42,90,-2772,-381,5387
82,-56,106,-130,-1836,7479
-117,-52,35,-966,203,4651
108,-122,-51,656,879,3370
-1,54,88,1469,631,2609
23,-90,53,-1577,-1112,-387
-42,125,34,870,-53,-1276
-116,98,31,3035,179,-793
-102,78,0,2335,167,-283
-57,47,-23,1366,585,-437
-38,35,-30,399,472,-330
-51,56,-23,-190,36,-323
-47,54,-27,120,123,-329
-35,46,-33,506,200,-196
-34,62,-38,289,81,-76
-44,75,-38,78,6,-62
-43,93,-35,44,87,-1
-36,104,-28,182,32,-27
-42,117,-28,126,33,-94
-42,125,-24,72,108,-86
-44,-125,-24,169,175,12
-41,-108,-33,189,237,-118
-34,-109,-41,257,210,-193
-25,-111,-45,224,183,-82
-23,-104,-49,124,176,15
-31,-88,-50,8,146,77
-31,121,80,2654,-1689,-3754
0,-95,50,8011,-3943,-4847
-126,-46,-58,14254,-8110,-3636
-73,-7,105,1193,-6133,925
-18,-121,-109,-4116,-83,275
10,-92,104,-1287,1148,-363
-107,110,-11,2039,1129,-503
-87,-110,-58,4746,199,1340
52,-47,-47,-513,1198,2646
-45,108,-98,-2795,1953,5869
71,97,29,-2035,288,8477
91,-120,60,-2523,-1011,4555
124,101,-12,-1959,116,2584
-15,-22,23,1197,1188,-5306
-64,73,-17,1470,2636,-6949
52,45,-88,2931,1840,-7109
-110,58,25,2017,1212,-5768
23,27,70,2778,332,-1043
83,88,-125,-4695,-2068,1097
-16,87,106,-6428,-1541,-1061
114,-82,-60,-7943,864,-1625
116,-60,59,-6079,1809,246
20,114,106,-3464,598,3564
-59,60,-3,2888,-352,7811
22,91,-18,-613,216,6895
33,-99,-127,-1323,953,2465
30,-33,-11,1598,1027,2781
122,-78,0,1122,293,1147
-31,120,-22,-691,77,-281
-39,44,-41,-446,429,-513
-81,-67,-3,1212,117,-873
-91,65,-29,3033,612,-644
-71,25,-36,2866,707,-245
-62,32,-24,913,275,-20
-43,64,5,-1098,-110,-117
-27,73,-6,-1330,128,-666
-10,68,-16,39,144,-561
-8,65,-13,1269,-271,-664
-17,38,-27,2108,589,-1192
-16,80,-6,540,874,-1379
-51,114,-8,-919,-503,-790
-26,-112,-27,-1667,-211,-160
-12,-103,-13,-495,-223,639
-16,-110,13,1415,-558,1144
-58,-110,-27,972,-408,120
-61,-40,-42,-1258,196,-96
-25,-56,-72,-1238,602,-20
-44,-62,-54,-68,154,264
-34,-53,-73,372,418,145
-32,-71,-81,904,300,151
-114,8,12,4386,-2499,-1244
-23,-112,92,6164,-3197,-2881
-2,86,27,7636,-5388,-2634
-49,-63,41,500,-5568,-926
-120,-54,112,872,-3029,-205
38,122,-100,889,700,-1325
-56,-117,113,2765,738,928
34,-29,-87,1073,1152,3282
12,49,49,-3983,-2045,8474
37,40,-70,-1680,716,7915
-117,-36,127,-2521,-2291,3919
-65,105,-68,835,710,-1361
-122,-119,-95,1704,2158,-5396
86,53,-74,1914,2379,-7099
85,10,-75,4536,756,-6461
-18,-28,23,2238,2,-4808
-71,24,21,-2206,-491,-2016
77,-3,24,-8581,2741,-1430
-62,82,-44,-10671,2156,-954
-93,16,96,-7738,-360,635
126,-38,-1,-145,-1952,5326
-73,23,-4,1058,-2760,6429
30,-124,-119,-977,-340,4162
7,17,-67,1223,-1043,2185
-75,-26,15,565,-671,2486
49,-89,-8,-25,1077,1153
-15,39,24,1541,1166,-11
-54,-28,13,2386,409,-220
-69,-20,-30,966,-49,-153
-52,-52,-50,-253,299,-329
-73,-118,-46,393,288,-262
-83,79,-46,1346,295,-411
-61,65,-63,1533,438,-509
-53,36,-59,1278,88,-394
-42,31,-51,462,90,-201
-45,38,-50,-81,190,-158
-22,53,-51,-263,213,-182
-24,103,-60,-585,94,-226
-36,-118,-58,-565,-125,-162
-49,-123,-52,-34,-182,-81
-43,-109,-54,216,72,-167
-31,-89,-60,1,62,-238
-24,-81,-66,-176,-5,-366
-31,-73,-59,-184,-30,-299
-41,-67,-59,-155,42,-286
-43,-56,-59,-153,156,-193
-39,-51,-69,22,181,-208
-42,-48,-76,57,125,-115
-42,-36,-82,-108,152,-128
-21,-35,-84,94,243,-34
90,-64,-14,3989,-639,-4184
122,43,-9,7160,-4264,-4613
-87,23,76,4002,-5762,-1894
-83,-119,-3,-1215,-4447,1059
4,-37,-30,530,-471,1522
-43,85,113,370,1843,-723
-109,-59,-75,3186,1571,733
66,44,-111,1513,489,2602
-111,-40,92,-3232,-4235,7495
-69,14,-83,-3219,363,6846
-115,-111,-117,1207,-442,4955
-108,-23,-46,-2816,951,634
51,-126,36,1374,1476,-3151
100,41,-125,1042,3249,-7218
26,-52,71,4471,1592,-6224
22,121,-95,3004,246,-5561
56,111,-22,1849,-638,136
123,-108,-18,-3695,-1287,566
3,29,-26,-4160,-461,-386
103,-55,-120,-7479,987,-1529
91,-79,39,-6248,1083,99
4,-33,52,-6514,-610,2736
-1,-82,-96,-1877,-1916,5597
-27,41,83,-1229,-3656,7346
53,-8,104,-2502,-1390,4080
-113,14,-55,48,1202,2192
27,-101,-102,3202,1036,1649
-112,-93,103,3318,-1035,1527
39,110,-13,1672,-474,-289
-7,-17,-34,1928,581,-1371
-43,121,-43,2565,509,-904
-46,85,-41,1674,204,-364
-26,72,-38,765,273,-247
-20,42,-41,515,272,-265
-10,62,-37,-169,31,-329
14,106,-41,-1467,189,-852
29,122,-45,-1114,214,-665
6,110,-27,518,-111,-486
-19,127,-34,776,-187,-359
-36,-117,-37,372,-71,-88
-27,-96,-47,-273,84,71
-22,-86,-41,-249,37,202
-22,-76,-45,75,136,123
-11,-66,-53,223,141,42
-8,-57,-57,75,69,47
-10,-48,-59,-26,115,-39
-11,-46,-59,126,129,-65
-8,-48,-56,247,120,-60
-7,-45,-60,219,148,-65
-11,-47,-63,264,117,-45
-106,61,85,3312,-438,-4443
-70,52,-86,5874,-3179,-3189
121,110,32,5200,-4890,-1411
77,24,6,226,-2861,-1017
-20,-36,3,-1,-770,-1270
-18,87,-102,3480,-371,48
-7,-34,13,3614,-87,2348
-46,30,-16,2683,-211,5125
47,-59,126,-4530,-1370,8470
-43,-62,-58,-2621,1471,6820
49,127,-44,907,-996,4740
-69,127,-83,66,848,-2101
-29,-83,-36,487,1001,-4717
88,43,-127,-615,2512,-5249
52,43,-85,1980,846,-5027
-125,-85,-104,6424,3269,-6349
103,-48,-27,-1718,-1999,-886
106,67,-30,-577,325,374
57,-71,52,-2377,-952,957
-112,-75,96,-2220,345,76
6,-11,20,-7812,2001,-1006
-89,-57,-117,-7558,1311,2551
-45,20,57,-8869,-120,3718
20,-110,-33,-2894,-2790,6055
125,36,-58,1837,-2553,6261
63,-95,120,126,619,3554
-103,-64,-112,151,-427,2240
104,46,-84,3152,-984,827
19,-8,54,3272,720,-168
-25,-25,-5,1710,1039,-497
-68,-104,5,935,122,-319
-41,72,21,909,-120,-884
-19,-14,22,1434,291,-1164
-19,-91,25,1677,359,-981
-10,-66,30,548,99,-586
-12,-76,36,109,-40,-276
-7,-61,23,17,23,-206
-7,-45,28,84,-1,-73
-8,-32,23,132,102,40
-8,1,11,-20,36,83
-18,17,6,-158,47,178
-20,46,-1,-304,145,171
-16,77,-12,-222,170,94
-17,85,-19,62,160,66
-15,90,-24,272,192,67
-14,98,-33,331,170,34
-12,101,-37,264,127,22
-12,99,-32,317,117,45
-9,97,-28,333,162,42
-10,102,-27,186,152,7
49,43,93,3499,-944,-3609
-9,18,44,5941,-3122,-3907
-86,104,90,4330,-4804,-2312
57,54,-14,487,-3281,-1574
121,-34,105,-133,-2136,-753
36,-77,-103,1971,-899,129
-30,67,98,2754,-116,399
24,38,-112,4022,779,2392
-51,72,123,-918,1834,4878
122,-7,54,-1762,2638,5973
75,56,33,-1161,-1789,7758
-52,-59,78,-1974,-1293,2207
-109,-67,-64,1881,455,324
-6,105,-122,-768,22,-3469
-28,-28,-125,-332,1085,-3698
60,-118,83,-1493,842,-4427
-115,73,62,1378,1297,-5549
-44,94,-97,7869,2502,-6889
-36,-69,12,549,149,-1149
-24,-77,-65,-2458,-223,168
38,85,-17,-1476,-1395,271
72,-77,3,-1685,-47,-73
-68,72,-26,-7805,1828,-1562
-77,-67,126,-7620,1793,645
-111,112,-93,-8333,-139,2719
78,86,-62,-3176,-1142,6548
90,61,-62,1016,-3028,7951
-113,-115,77,1352,-512,5892
-74,-113,118,-2474,-1303,1670
-111,-85,-50,1303,-598,-551
2,6,-126,3837,696,-678
-29,-64,20,3003,1081,-1484
-21,-102,11,1585,735,-898
-31,97,23,-232,200,-1192
-22,-54,15,1629,163,-388
0,-34,14,1240,290,-266
-11,-41,-1,775,307,-145
-5,-9,0,-172,177,234
-7,10,-10,-397,93,102
-1,21,-7,-107,108,197
7,51,-12,-51,181,78
8,69,3,450,388,57
-20,37,8,1544,81,423
-21,82,1,443,18,311
-1,110,0,-801,181,-63
-5,93,-1,-239,201,-215
2,74,-4,454,320,-399
11,83,-9,421,642,-706
13,89,-9,438,427,-485
10,95,1,313,-6,-312
-120,13,98,-696,-1832,5604
-105,32,78,291,-318,7252
76,-109,-16,-3954,-447,4839
-92,-77,118,2261,1986,1307
112,-24,-59,-395,768,-704
109,51,-53,716,88,-3530
62,118,-25,1140,4757,-5973
-85,97,-89,3507,1853,-6610
-11,16,24,4111,-350,-2908
36,111,36,-2089,346,-567
-26,-98,37,-492,-1442,-26
96,93,73,-189,-491,389
-119,-95,86,-412,196,-232
39,122,65,-6995,1807,-689
123,-29,-127,-8174,2251,-303
76,78,46,-7134,619,1136
47,90,-90,-2289,-1869,3714
55,22,-7,3408,230,2929
-91,38,42,1867,1639,1857
49,49,2,90,1520,1733
-1,-105,1,1723,1318,2015
-15,106,-21,989,1394,1421
-2,29,-56,-14,1330,1012
-23,-23,-9,-152,312,987
-11,-95,19,-315,413,806
16,118,55,-164,1325,406
26,59,88,1213,1362,347
-1,39,-128,1813,-153,704
-15,73,105,500,-345,255
-13,55,90,119,-221,-325
12,22,77,636,609,-460
43,2,86,1131,1768,-608
44,-7,-128,1398,554,15
0,40,-102,487,-428,381
-23,34,-111,58,-902,32
-11,10,123,349,-714,7
-10,3,96,455,-656,330
-7,26,64,-75,501,166
-26,28,62,140,556,197
-18,41,62,315,160,392
-10,60,63,109,46,299
-10,68,63,155,173,176
-20,68,56,165,31,217
-20,82,51,-122,19,301
-22,98,48,-77,48,245
-42,116,30,-47,-115,131
-35,126,25,-175,-151,65
-27,-120,15,-206,-77,-71
-21,-114,11,-57,19,-185
-20,-108,3,-2,80,-316
90,-15,112,4032,126,-3910
84,-127,16,8074,-2898,-4620
32,56,18,7986,-5158,-2499
99,33,108,2137,-5020,-348
115,-76,117,-194,-1442,-436
15,102,76,2266,633,235
20,-99,-67,3045,1302,1026
-61,59,46,316,-317,4613
-44,7,-100,-1762,-1094,7957
55,-2,-21,-1373,2160,6888
74,16,-48,-1037,-1776,4647
-124,25,82,-1149,-937,-501
-27,-124,69,999,2222,-4533
-114,97,-65,-197,2820,-5555
87,5,100,1460,594,-4195
-60,39,-127,4669,4578,-6567
56,-31,-67,-780,-877,-1247
23,-45,-90,419,387,571
-58,118,-37,-1415,-1657,632
-83,-64,30,473,86,77
0,25,98,-4009,610,-1502
88,-21,-47,-7923,2211,-1430
67,74,43,-9151,1522,577
85,26,44,-5964,-490,4092
-61,-52,72,-84,-3028,6804
-119,0,-101,123,-1061,5788
-50,-77,100,-3616,681,2176
71,10,-118,97,-188,1778
107,-22,-82,2298,-1273,877
45,-110,61,2917,340,-823
-12,6,-6,3258,907,-1170
-55,-97,-40,2011,469,-438
-68,-118,-29,347,-227,375
-35,-103,-34,-478,-11,-20
-12,126,-28,312,422,-429
-4,108,-20,953,223,-527
-8,98,-27,806,202,-580
2,84,-43,503,315,-672
2,111,-50,-166,105,-640
-6,123,-48,-221,-175,-530
-26,-125,-42,10,-112,-466
0,-128,-35,249,179,-154
-5,-113,-35,214,119,58
-30,-100,-40,399,75,48
-26,-87,-36,229,155,-64
-11,-102,-44,511,279,-59
-1,-118,-53,619,128,172
0,-110,-50,312,54,392
-6,-103,-39,366,172,474
-14,-104,-35,687,221,501
-71,92,23,4053,-2938,2343
38,121,-125,4201,-3268,1082
102,-123,-53,-1724,1075,-7478
18,-89,-125,10117,-5198,-3640
42,-123,37,3218,-4320,-2160
114,-112,123,662,-3583,-600
-75,-5,-101,77,-1455,284
62,-83,98,982,817,795
8,-3,91,665,1487,1793
-53,93,-83,570,-2027,5702
120,-51,21,-1675,-1683,7569
43,87,11,-2306,-697,5174
106,99,24,2477,444,2906
111,-19,-122,-376,883,-3491
21,-17,117,685,1860,-6186
-121,-19,123,1438,1128,-6025
-42,84,-73,4875,1709,-7144
-104,-97,57,1074,-296,-2676
98,-25,65,-764,599,1006
-46,55,74,-3246,-2145,-246
78,-102,26,-7567,1323,-579
-120,98,3,-8806,2320,-110
101,68,-79,-8390,-394,480
58,31,8,-4694,-1922,2472
97,-48,36,1818,-3778,6418
-59,-44,-88,5312,-2341,6082
-89,-102,-76,1603,2641,2422
25,30,122,1550,1883,2250
49,-121,-36,1635,-401,1774
25,39,-73,1033,319,203
-83,-75,-58,1910,112,-589
-83,122,-49,1467,287,-943
-56,77,-51,360,771,-740
-75,82,-74,-985,479,-252
-55,102,-82,-1109,409,-651
16,71,-85,-135,618,-1332
55,-13,-52,2095,200,-1140
18,-25,-32,2086,-535,-35
-66,64,-49,-705,-642,136
-68,113,-57,-2341,-4,-68
-20,126,-54,-1554,294,-38
-6,-102,-34,-209,-22,140
-33,-79,-42,397,-281,91
-29,-62,-56,-271,-138,-17
-20,-61,-61,-603,172,135
-58,-38,-68,-484,-99,254
-60,0,-64,-862,32,-36
-53,27,-54,-648,268,-116
-39,15,-47,414,265,-98
-24,6,-61,853,219,-106
3,-38,-10,3821,-488,-3911
28,30,-118,8150,-3813,-5174
24,-16,-40,5553,-7247,-1563
71,-116,-75,-366,-5303,635
-56,71,62,912,-297,-1134
57,48,125,2909,-264,582
97,-90,-50,1741,2599,1710
28,87,43,-1995,662,5138
-25,95,-76,-2825,-1928,9083
102,-83,14,-3088,388,7171
14,98,-95,676,92,3675
-76,56,-121,1377,2294,-5061
42,-105,16,1098,1867,-6969
103,30,79,591,101,-4990
47,-6,-118,3549,649,-5933
83,54,-40,3489,1959,-3811
-66,127,0,-2564,-703,966
-10,0,-26,-846,-1619,7
-52,-106,73,-2282,-956,579
59,59,-20,-9116,1722,-1250
-5,-56,11,-7780,2508,1230
-23,19,-56,-8105,1064,2801
107,40,0,-1431,-2787,5989
-96,-72,-128,2200,-2405,5930
-118,-124,20,516,1006,3437
47,-25,101,3020,-318,1445
-98,62,-15,4950,104,721
90,80,-9,4449,1191,-2691
-27,126,-63,-1310,1815,2497
-93,-42,-18,-2618,-33,-223
-42,-92,-24,-646,114,91
-7,-101,-21,808,-83,211
0,127,-18,1142,-127,-282
-24,97,-29,1004,-36,-377
-21,56,-9,803,58,-475
-15,58,1,304,-9,-174
-12,51,0,111,87,-237
-17,75,-2,-250,45,-307
-16,92,-6,-294,71,-292
-24,96,-13,117,199,-332
-2,92,-28,548,223,-330
5,123,-25,43,11,-155
-7,124,-21,125,114,-14
-11,123,-19,425,237,160
-9,-108,-23,133,127,100
-7,-96,-24,-27,126,33
-7,-96,-19,103,142,158
-14,-84,-22,97,121,116
-9,-73,-32,150,193,43
-3,-74,-34,248,132,-6
67,-110,4,4713,677,-3204
119,-1,-51,7312,-3870,-3609
0,-8,1,1479,-5889,-2749
-124,9,83,246,-6045,-1798
21,-22,4,2392,-3060,-73
103,-11,62,2135,12,-597
30,-123,44,2502,-272,1083
-43,27,66,1269,1917,1678
-117,-125,82,-3804,-3072,7476
-85,-106,106,17,-1009,8929
-108,-71,-94,-1198,-1644,5203
27,-92,-51,1194,-35,1326
61,-47,-68,-384,395,-1141
-112,-62,116,331,1425,-4753
-105,47,-39,-716,1733,-5350
-82,71,-110,1884,2159,-4866
9,83,-33,4368,1340,-4569
27,32,-68,816,-1233,-894
49,-99,-15,-1841,-1102,303
101,78,90,-2276,-697,538
-64,62,115,-8570,1266,-577
-9,103,-25,-6630,3482,1006
115,-23,55,-5410,4415,3154
28,88,84,-3405,-649,5651
2,75,99,-4399,-3408,7114
-29,-88,-78,-2827,-1141,3799
120,-105,56,3543,502,1186
-62,55,-69,6117,332,1035
84,88,-8,2378,631,148
32,94,-57,-1368,658,800
-37,37,-47,-669,-212,921
-19,-52,-34,1268,-58,234
-9,-76,-27,2318,-51,27
-50,80,3,3456,-404,-218
-47,2,28,2957,-337,-337
-15,42,58,-219,-34,-879
-28,-14,75,-445,48,-665
-57,-58,74,359,66,-311
-53,-38,63,563,236,-288
-35,-18,45,291,387,-162
-13,14,29,58,213,-261
-22,14,17,399,163,-210
-14,10,8,659,159,-280
-37,-4,5,670,31,108
-18,48,-4,-356,66,227
-19,76,-3,-426,-106,130
-27,92,-4,-67,-126,56
6,118,11,-253,-205,97
-22,-95,10,-479,-94,-127
-60,125,-12,650,223,-483
-31,-16,-17,3430,-3324,-1709
41,-70,121,4397,-3472,-1943
-84,93,64,3174,-5273,-802
-82,-91,-91,2171,-5462,1283
-50,-46,35,-319,-3253,468
34,-50,-111,-25,-1288,-37
-48,-93,-56,-320,-653,639
88,12,-77,-655,889,929
-117,-14,-91,-2026,435,4069
125,56,-39,1840,-3473,7611
-11,-115,-120,-1709,951,6498
-68,75,30,1986,405,4058
-53,4,-104,1475,169,1278
-10,11,-54,-568,126,-1961
-23,-85,50,-623,879,-3690
67,-38,-32,-2691,2659,-4297
41,-34,25,2794,2733,-4189
78,-32,-91,842,1953,-5815
101,28,-103,6594,2724,-3858
125,-40,79,-3627,-2132,955
107,65,63,-2438,643,246
4,-41,-30,-4231,1304,442
-102,-77,124,-9587,4820,-643
-83,7,-51,-9764,1865,2229
32,0,-32,-9671,-2308,3025
-44,-125,1,-905,-6116,5182
0,19,104,7528,-3666,4341
-63,57,93,4085,499,2124
-62,107,120,-3628,375,1392
53,23,-46,-722,623,1026
-30,-67,119,2324,602,676
-93,-24,3,2270,-203,-266
-83,-83,-18,1719,-63,-677
-77,77,-43,1238,611,-1161
-116,-85,-10,2477,157,-538
-108,-127,-11,2381,164,-166
-94,-118,-12,721,196,-471
-60,120,2,-167,230,-597
-66,73,7,629,269,-295
-76,62,-24,833,383,-168
-60,94,-38,327,179,25
-56,106,-55,233,144,-44
-54,102,-52,415,20,111
-65,108,-51,516,-112,206
-59,117,-49,256,-50,295
-66,-106,-52,-214,-111,1
-50,-116,-32,109,-55,-172
-58,117,-24,618,-46,166
-68,-123,-28,244,-27,298
-58,-84,-33,-214,172,207
-5,-125,6,3484,-1345,-3180
-3,-104,16,6767,-5083,-3582
-28,-93,60,7372,-7363,-1532
-95,-12,-50,5781,-8137,1354
115,-36,82,-2211,703,-799
3,-3,-116,-1973,2524,-1243
4,-93,56,2135,261,234
-111,25,111,649,1075,1352
99,95,39,-2109,-977,6817
43,63,61,-4392,-2290,10294
86,-13,101,-2887,-462,4719
-80,-4,-97,248,404,4264
-59,71,-32,-1220,-686,-1126
112,32,121,1451,1252,-4138
90,-44,124,288,4456,-6549
