AccX,AccY,AccZ,GyroX,GyroY,GyroZ
33,-88,-29,-166,-1812,-6896
-50,83,11,2900,-4796,-7121
29,57,-77,2395,-4785,-5356
-104,29,111,1737,-5141,-4278
74,82,-62,3073,-3384,-309
62,106,36,-1087,33,-97
-124,112,-69,822,2054,848
-113,51,-53,-227,1216,198
-53,-103,-102,-1591,2548,902
84,26,-13,-264,2601,2484
-71,71,31,-1702,4071,3291
-12,-119,117,150,3917,3004
83,-45,-61,-3430,3846,3968
-117,-76,-90,-3157,2074,4257
-61,-127,51,913,891,3828
29,-16,-67,-722,875,3743
37,-122,-51,1577,889,3128
20,-119,-36,1114,501,2918
-48,-80,-69,657,87,1020
-105,53,-70,1578,149,44
83,-43,-37,631,-214,-334
81,119,-4,285,51,-335
88,76,0,578,75,-268
111,41,0,849,21,-361
118,19,0,303,-141,-497
112,-2,11,-370,-184,-350
100,-6,16,-431,-220,-107
116,13,10,-186,93,-75
124,25,-3,-58,112,-87
127,44,-25,-175,69,-101
117,47,-32,-130,-66,-145
120,47,-33,-162,5,-50
116,57,-30,-116,-12,-3
122,82,-34,-378,18,-81
119,85,-33,-271,-80,-56
121,87,-32,56,-231,-206
112,102,-47,-115,-89,-252
115,88,-40,-110,101,-143
121,93,-42,-120,125,-1
121,108,-55,-247,120,0
117,117,-55,-164,31,-44
-123,124,-56,-177,123,-61
124,-125,-58,-156,-24,-84
126,-125,-60,-121,131,-137
-126,123,-61,51,17,-97
-123,-121,-59,-174,14,-156
-123,125,-54,-81,78,-78
-119,-121,-56,-116,56,-41
-126,-112,-63,-127,62,-67
-119,-100,-66,-223,48,-104
51,40,118,712,-2389,-5742
-105,115,-86,1917,-3243,-6940
-5,-3,11,2259,-4775,-5770
-128,-127,-122,1581,-4446,-5482
-42,-112,28,-263,-3622,-2654
113,47,101,2668,-2670,-945
-123,54,-49,-1372,873,736
67,63,-114,1101,1098,514
47,-5,94,-439,1184,450
-31,-119,-8,-532,2947,1175
73,-126,66,-3486,3421,1751
-22,-26,72,148,3719,3663
102,36,94,-3178,4329,4021
-84,-23,-97,-2537,2363,3938
20,113,27,-1405,1790,5618
41,-56,122,-568,652,3065
107,-12,-73,-198,38,4520
40,-74,-29,1426,-80,2615
-17,-85,6,486,-43,2315
-83,-113,-17,1054,84,1217
-123,85,-6,1210,2,183
107,-29,-4,1632,158,-356
77,-101,-18,851,150,-572
80,84,6,109,-188,-405
98,58,12,56,-180,-326
106,31,25,109,-48,-437
109,15,16,85,42,-416
105,14,11,-96,31,-212
111,24,0,-191,-7,-145
111,31,-4,-151,54,-5
116,60,-14,-231,63,-20
114,75,-19,-199,-15,-7
119,89,-20,-139,54,-66
114,93,-24,-101,54,-99
127,95,-37,-176,37,-138
115,104,-30,-369,-87,-7
118,111,-34,-116,85,-168
126,107,-36,-150,21,-145
126,115,-40,-300,-31,-55
125,124,-36,-304,-18,-95
124,-127,-41,-201,38,-111
122,-121,-44,-181,-2,-71
-125,-111,-49,-296,-5,-117
125,-113,-46,-217,-54,-86
-120,-103,-42,-296,4,-68
125,-93,-42,-212,-8,-79
-121,-88,-47,-165,118,-155
-119,-96,-55,-60,-8,-110
-115,-85,-55,-259,-13,-109
-121,-89,-51,-194,-11,-54
90,-50,-3,719,-3421,-6611
22,-111,95,919,-4725,-6478
109,-30,-9,1551,-4444,-4813
-57,29,-58,1670,-4578,-4791
3,-70,123,1815,-3222,-915
3,19,-21,-1209,-181,74
119,-109,29,-147,1602,1175
99,55,-82,12,344,165
-117,-90,-77,-811,1921,390
25,54,115,-774,2687,2459
101,83,-41,-1542,3932,2294
-45,-106,-54,-704,4070,2819
61,-72,65,-2963,3163,3738
70,112,74,-633,2862,4708
-101,37,81,675,1498,3660
24,76,102,800,1936,4660
3,-62,-91,-1896,251,2558
-30,94,-85,-272,155,2619
-59,-127,4,102,-288,1794
-116,78,-36,513,560,670
94,36,-38,927,62,-11
79,-55,-32,1138,19,-263
66,-100,-27,31,-46,-380
64,102,-15,55,-248,-363
73,92,8,-218,-262,-269
81,57,17,-136,-48,-300
80,60,22,-203,-73,-294
86,58,19,-164,77,-73
90,87,-2,-175,94,-208
94,85,-11,-30,98,-134
91,91,-23,-56,130,-75
97,102,-39,-92,121,-28
99,110,-37,-159,44,-44
102,113,-41,-43,63,-36
105,111,-42,52,73,-5
99,118,-39,-96,13,6
112,-128,-36,-170,41,15
121,-121,-29,-110,-21,-52
104,-118,-31,-165,21,-65
113,-115,-37,-184,164,-81
121,-119,-44,-1,42,-36
121,-111,-47,-80,63,-90
125,-117,-50,-53,88,-100
123,-118,-49,-136,24,-15
127,-109,-49,-169,54,-34
-126,-105,-48,-71,80,-10
-128,-99,-51,-140,64,10
-124,-89,-55,-103,74,-91
-117,-90,-52,-169,23,-37
-117,-80,-52,-207,18,-71
17,111,-17,1516,-3712,-5529
110,17,22,-1080,-4661,-6792
-13,-81,23,3150,-5446,-5196
-21,-100,122,2401,-4872,-3251
122,43,-82,-57,-2943,-1421
-73,12,-55,-137,543,-85
102,-25,-34,-1045,1112,688
59,-40,-106,735,904,464
91,-21,51,-1406,1317,408
18,19,123,129,2919,1955
127,83,-67,-1975,4308,2223
-38,25,-108,-5002,3935,4016
0,35,99,-2039,2300,5073
-77,8,106,289,1469,4253
41,-97,-121,-1255,1753,4148
58,38,-36,1729,1053,4546
-90,-98,-26,345,779,4029
-80,-127,-36,-287,928,3216
50,-69,-70,262,-480,1628
-81,-100,-48,1141,-1256,-484
125,-36,-15,1871,-242,-869
92,101,-18,1916,523,-838
100,47,-24,1804,142,-635
108,71,-2,-360,-266,-347
98,1,19,-385,-556,-233
102,-1,34,-130,-325,-140
109,0,39,-206,-58,-306
109,22,26,-377,9,-111
104,21,22,-177,14,-19
109,45,0,-223,107,-19
104,54,-10,-24,127,94
112,88,-32,-359,99,0
110,91,-34,-202,-77,-90
118,98,-33,-130,27,-175
117,89,-37,-25,23,-158
119,97,-46,-245,-78,-181
116,95,-39,-264,-109,-102
114,99,-41,-350,-84,-113
111,122,-49,-639,-188,-52
111,-117,-54,-772,-130,-64
103,-94,-69,-846,-248,-1
110,-77,-61,-484,-203,-89
120,-70,-51,-244,3,-262
-127,-84,-57,-45,28,-206
111,-91,-64,134,-54,-93
101,-84,-65,-70,110,-110
96,-72,-67,-40,66,-85
-113,-78,-71,321,404,-110
-94,-70,-76,46,155,39
-111,-67,-77,-64,-1,98
56,-72,42,1345,-2734,-6698
71,-20,96,1227,-4224,-6660
-98,-12,25,2482,-5027,-5419
-9,-93,24,4364,-6127,-3575
-12,-26,-66,385,-2193,-1092
-69,99,-98,-2216,1260,125
76,-109,-123,196,2541,1045
79,-103,74,-395,1178,265
-81,-62,91,-1146,2942,740
32,-88,-6,-2088,2630,1887
118,-117,69,-239,3151,2809
-78,-90,-22,97,4556,3354
9,-101,51,-1808,3495,3182
-111,-50,-23,-160,2919,3221
6,110,15,-1790,2362,3741
-31,33,87,1638,268,2224
-17,31,-81,-1325,1127,2820
-56,-82,-79,669,1136,2639
-2,-57,-75,963,910,2915
12,45,-93,167,171,2120
-86,65,-75,-132,-939,166
92,-78,0,669,-1018,-557
65,82,5,1023,102,-260
54,92,-3,-38,197,-228
70,79,-11,-37,-129,-96
88,96,0,-316,-349,-354
90,59,9,5,-118,-666
92,51,3,-293,42,-579
98,40,-1,-264,-49,-606
99,27,-10,-275,-33,-399
93,39,-21,-452,-56,-363
90,37,-20,-342,29,-134
95,31,-33,55,146,-38
88,55,-49,-78,79,63
96,61,-51,-129,93,218
102,98,-40,-239,-27,269
107,108,-49,-26,170,244
109,-117,-58,-340,37,44
114,-125,-50,-157,-8,152
113,-106,-57,-228,-4,-49
103,-104,-55,-232,-55,-155
107,-116,-55,15,77,-210
109,-126,-59,23,55,-202
111,124,-60,-12,11,-146
120,119,-60,19,48,-91
122,-120,-59,-330,-52,-54
120,-119,-55,-237,29,-32
117,-101,-58,-342,-31,-40
112,-93,-58,-290,-3,-92
124,-99,-56,34,131,-98
-126,-57,-85,-5325,558,-2239
-111,63,-24,1517,859,-5985
16,-90,38,1660,-3126,-7154
75,-34,-8,1621,-3146,-8570
24,30,41,2742,-5077,-6072
-61,41,25,4272,-6430,-4270
11,7,-117,-1399,-3278,-3609
-61,12,5,-359,1551,60
81,-65,69,-941,1894,1487
89,-69,-7,472,1105,774
-9,65,-110,-247,3788,937
49,-118,-2,-2775,3139,2511
-86,-92,-14,-925,3049,4047
7,-116,86,-2824,3317,4670
72,-18,23,841,1909,5017
-37,-6,59,-3313,2160,4628
-20,-19,-101,-159,-296,3136
50,5,-22,-193,96,3775
8,-62,-17,1608,201,2517
-51,-70,-37,1395,301,1726
-95,-104,-68,1610,53,732
103,48,-68,1276,-21,-220
96,-48,-40,1144,228,-260
105,-105,-50,562,-67,-460
82,127,-24,-72,-489,-349
96,107,0,-464,-250,-522
89,37,-3,377,-73,-331
93,57,2,29,-158,-247
110,46,-11,22,162,-178
109,60,-18,-214,-2,-80
115,70,-31,-191,95,-56
100,93,-41,-232,-60,-107
96,89,-45,-82,139,35
110,105,-55,-62,107,56
117,116,-64,-26,-30,-24
113,-127,-63,-249,-30,-143
113,111,-56,-24,-4,-85
110,120,-54,-217,-25,0
111,-128,-55,-244,-3,-5
115,-115,-55,-144,38,-85
115,-116,-61,-35,59,-112
115,-113,-65,-70,70,-106
123,-118,-68,-25,63,-122
124,-117,-71,-149,0,-134
121,-128,-66,-20,54,-47
127,-113,-70,-224,33,-6
125,-103,-70,-173,-28,-33
126,-100,-64,-157,66,5
-126,-82,-71,-166,39,-93
-128,-89,-66,-101,76,-54
115,-14,73,-1161,-4847,-4407
-105,-101,-96,-1010,-3206,-7314
-90,18,95,3393,-6724,-5851
-31,-102,-111,-218,-6176,-4392
-101,-103,38,1788,-5192,-1989
127,-60,-69,-740,-205,-429
-113,79,43,-738,1797,551
88,-4,60,-475,1565,496
-123,-35,50,-476,2159,208
2,-114,28,-1414,3405,1513
17,81,-92,-1479,2604,2485
121,2,-35,-2705,3121,3712
-95,-20,-109,77,3243,4918
27,36,49,-1180,2858,4807
-71,-52,65,-216,1239,3936
62,-53,-74,-854,1042,4299
105,-114,-67,1625,766,3630
126,-63,-49,1053,438,3030
-42,-6,-110,194,-265,757
118,81,-86,1218,-369,-424
69,-74,-24,1405,112,-365
76,-113,-60,1294,638,-22
86,120,-75,977,78,-155
108,106,-47,-98,-539,-413
103,61,-24,-191,-504,-579
69,44,16,-354,-568,-414
69,46,8,-578,-102,-395
94,47,5,-397,-13,-326
84,49,-18,-141,23,-15
83,76,-31,-145,23,-131
88,75,-39,12,125,-46
97,87,-50,-77,110,49
96,103,-57,-223,-4,128
95,-123,-60,-467,12,94
90,-107,-59,-361,6,-31
95,-100,-60,-96,31,-140
103,-105,-62,72,176,-125
100,-112,-77,141,91,-264
112,-125,-83,-18,20,-214
92,122,-78,-201,-98,-97
103,117,-75,-112,-6,-130
109,125,-65,-296,-75,3
99,-120,-55,-115,-60,11
97,-90,-54,-373,142,15
110,-92,-65,103,137,-102
117,-104,-84,224,174,-162
110,-96,-88,-137,68,-82
115,-120,-92,393,47,-122
115,-114,-77,-29,133,-10
-128,-103,-86,-156,149,46
22,-119,-74,-3795,-2041,-4650
106,66,4,-52,-2623,-4664
-59,46,58,715,-3968,-6464
-42,32,-72,674,-4689,-6046
-4,-68,84,2311,-6094,-5693
36,42,-111,3031,-5978,-2712
36,-93,9,-992,-2092,-1387
-57,-96,108,51,1425,687
85,83,58,-514,1544,655
-124,-4,-125,-894,2289,518
-23,122,120,-1380,3820,636
23,29,16,-673,2504,2881
120,24,-17,-2659,3301,3629
-73,99,-111,-1815,3308,4474
-91,-73,97,1606,2004,3694
-113,110,63,-1632,3475,3627
-61,-65,80,-1369,1449,3892
-62,-61,-98,-488,400,2526
20,127,-17,607,686,3587
-24,-31,-47,546,269,1978
-92,-65,-70,1015,-307,932
94,95,-43,1016,-117,-427
75,3,-44,920,327,-655
73,-90,-59,1157,433,-530
67,-127,-38,402,-487,31
70,-112,-14,-671,-490,-137
84,102,-15,-144,-73,-591
94,69,-9,353,-191,-491
83,42,3,162,-34,57
78,108,-9,-658,-64,41
86,97,-11,-88,12,-81
105,117,-30,-219,108,-51
87,-122,-34,-342,-83,110
90,-109,-45,-208,79,-149
88,-125,-47,20,82,-95
91,-117,-60,-57,67,-24
103,-112,-66,-28,39,-92
95,-124,-63,83,-1,-13
97,-102,-67,-343,-64,-77
97,-106,-59,-210,-41,-24
100,-91,-59,-204,16,-91
100,-91,-60,-80,-10,-147
107,-93,-64,-120,39,-147
97,-90,-64,-140,-6,-112
108,-93,-68,-140,51,-137
107,-88,-67,-237,-47,-64
111,-88,-66,-81,89,-143
111,-89,-65,-128,56,-69
114,-88,-67,-146,64,3
110,-69,-68,-221,99,6
9,42,-22,-5739,1007,-2823
87,-37,-122,2303,-1931,-4594
-84,66,44,41,-2335,-6066
73,83,48,-49,-4042,-7118
50,-46,-70,1824,-4455,-6318
117,79,89,2354,-5344,-4780
82,-59,-5,3238,-5850,-2053
-114,-37,-28,-1444,152,-193
-120,104,32,-17,2071,37
40,-39,29,-654,1282,811
81,-20,-54,-1095,1481,36
-27,20,-99,-464,4127,834
33,62,1,-3182,3172,2517
-128,107,-4,-1689,2286,3293
2,97,-125,-2955,3311,4303
3,-91,120,-440,1443,4290
-123,-98,107,-2539,1355,4085
-72,32,-60,379,1371,3717
26,-57,-51,679,573,3573
49,-122,-31,801,691,3212
-24,3,-39,-620,38,1687
-113,-121,-22,1525,-210,954
106,72,-41,1455,415,117
81,-56,-55,1494,429,-352
80,-118,-56,1215,106,-190
79,-125,-44,226,-192,-220
89,94,-22,-302,-312,-335
88,59,7,-96,-345,-340
93,57,7,-241,-110,-310
94,56,11,-392,-124,-223
94,49,4,-191,-88,-111
91,81,-7,-332,-27,-91
95,87,-17,-199,40,-136
97,86,-21,-118,75,19
92,101,-32,-148,-4,-21
95,121,-40,-308,49,14
101,124,-37,-130,33,-66
99,-122,-40,-170,31,-44
97,-117,-42,-178,59,-82
104,-115,-49,-105,47,-106
109,-112,-51,-169,36,-108
108,-112,-54,-165,14,-78
106,-106,-53,-246,4,-130
112,-110,-52,-90,63,-93
115,-107,-53,-138,50,-94
113,-109,-55,-98,42,-63
120,-100,-60,-169,59,-57
119,-97,-59,-103,39,2
120,-89,-60,-99,48,-25
120,-87,-60,-105,24,-6
4,-59,126,-5806,1826,-1368
51,-15,-98,-435,-240,-3477
-128,-2,-86,982,-1127,-4463
-56,-64,90,-363,-2315,-6053
93,-84,74,-3530,-1793,-7565
-102,71,-19,2339,-2894,-5531
-125,-97,1,2386,-4260,-4610
56,15,-101,2098,-4498,-3619
81,-4,-111,3466,-3017,-1661
-9,92,-51,-2119,1985,213
119,-10,60,-431,2395,1094
79,32,-103,-516,1262,385
-41,48,-121,-692,3857,1245
52,98,6,-2211,3503,2458
-64,-102,-9,-380,2976,3731
89,-41,57,-2577,3380,3992
122,17,67,-1198,2458,4541
-91,114,2,-4953,-611,2306
-124,114,-116,-1585,-521,4269
-125,-121,12,1651,-876,2423
-64,29,11,3023,712,3000
-16,-97,-16,1352,415,2506
-44,-110,-17,885,-168,1973
-89,-113,-13,997,-59,796
98,35,-18,1555,63,-704
92,-42,-4,1112,179,-669
93,120,-37,541,496,-933
87,102,-11,-73,-213,-716
104,48,0,58,-207,-445
110,42,13,-366,-72,-434
109,40,7,-270,-94,-369
110,38,7,-113,-78,-234
112,55,-3,-331,52,-41
112,77,-15,-250,55,-40
112,82,-27,-91,86,55
112,115,-44,-182,-6,-17
118,123,-44,-155,10,-20
121,127,-46,-59,54,-28
121,-122,-41,-167,-48,-143
116,-123,-42,-61,-53,-158
116,-124,-37,-158,49,-139
115,121,-37,-14,24,-118
121,-126,-44,-105,57,-57
127,-116,-48,-231,-7,-13
125,-109,-47,-170,3,-68
-127,-101,-48,-140,96,-65
126,-103,-52,-93,17,-63
-126,-96,-58,-160,39,-86
-125,-98,-58,-55,58,-15
-119,-79,-63,-244,38,-75
105,-7,65,-3552,774,-3822
-76,-79,126,-66,-1464,-4511
-29,-108,107,1250,-1812,-6034
-73,-8,98,1018,-3171,-5900
64,-114,-124,2138,-4026,-5078
13,31,-25,894,-4969,-4603
11,-91,45,2893,-5718,-2885
-83,69,-95,-1421,-1237,-752
-58,12,-1,137,1101,370
117,-100,58,-644,1849,814
-128,-57,-46,-710,1884,595
56,58,42,-573,3619,2027
93,-69,-123,-2333,3220,2976
-32,-112,-44,480,3490,3442
124,14,-46,-3394,3330,4085
110,-83,71,-461,1851,4153
80,-95,65,-2757,1643,3714
82,-67,102,-1941,229,3727
86,-29,1,216,-1026,3145
-1,-21,33,-509,-156,1784
-67,-113,8,1944,-52,1012
-111,89,1,1939,-67,247
104,-26,-9,1786,179,5
107,-67,-30,884,437,-265
106,-111,-31,247,-139,-223
105,97,-18,303,-299,-274
121,97,4,-131,-159,-519
-127,36,13,152,-58,-426
121,31,15,-152,-1,-221
123,39,14,-317,-107,-117
127,52,3,-245,38,-6
-124,70,-9,-178,115,46
-122,96,-26,-251,22,22
-127,114,-40,-163,16,-147
-123,108,-45,-80,132,-92
-123,113,-50,-81,-17,-109
-120,118,-48,-193,-25,-125
-120,115,-51,-158,-21,-222
-126,103,-42,-85,5,-66
-123,116,-50,-248,-1,-49
-111,125,-48,-160,-24,-54
-113,-121,-55,-48,-69,-72
-116,-111,-59,-138,72,-7
-125,-107,-65,-51,57,-15
-121,-110,-64,-31,86,8
-107,-102,-68,-89,60,-23
-99,-96,-69,-55,22,-25
-105,-94,-66,-89,-23,-117
-116,-100,-60,-115,-7,-104
-117,-102,-57,-134,24,-83
84,-4,-85,-1788,-1714,-4706
90,-67,-76,-335,-3472,-4287
-51,-73,-82,-137,-2880,-6079
-82,-102,41,-819,-4453,-5961
-58,-95,-83,2694,-5203,-4797
84,-113,-78,316,-5375,-4419
62,-126,-124,888,-2431,-1620
102,-77,-71,-1078,27,16
-95,-98,27,-240,1867,973
-48,113,105,-575,2162,1254
6,-61,-56,-2332,2540,2308
115,-114,80,-73,3728,2126
-95,-40,-4,-375,2809,3685
2,125,104,-1108,3216,3832
67,-47,58,471,2735,4074
-66,88,88,-1160,3142,3901
-52,64,115,363,1344,3472
44,-92,-81,-1217,660,3543
48,28,-61,734,1313,3126
34,115,-53,-64,655,2590
-39,-124,-62,945,-130,887
-115,70,-42,400,-37,-336
116,-81,-28,1364,344,-580
79,58,-7,1190,39,-419
102,39,0,148,197,-162
118,20,33,222,-172,-101
124,21,41,-26,-155,-206
122,21,54,-12,51,-249
-125,11,39,156,308,-78
-126,56,13,-375,118,-258
-117,29,26,139,134,-141
-108,55,18,-191,263,-122
123,58,18,-51,-62,-42
-114,63,13,-62,140,62
-128,86,-2,-132,-75,79
-109,109,-6,-395,-106,32
-99,117,8,-290,-253,-15
114,115,3,-256,-116,-286
-123,97,-1,-138,109,-349
-95,84,-17,62,17,-214
-108,100,-27,-265,-222,-163
-117,100,-16,-197,-110,-127
-118,104,-18,-191,6,-102
-105,-127,-29,-258,-54,-97
-95,-126,-32,-203,-10,-88
-112,-122,-44,-197,-95,-183
-107,-124,-43,-112,6,-153
-102,-123,-49,-59,-3,-45
-105,-108,-56,-208,-78,-57
-116,-105,-53,-148,-139,-91
-71,-3,-68,-3769,-1343,-3102
76,46,-85,-2086,-934,-4511
-101,21,-78,158,-2703,-5353
82,-30,-53,-1137,-4242,-7236
123,63,94,126,-4232,-6366
51,5,7,937,-5933,-6002
67,42,-31,2914,-4662,-2737
18,78,94,-1423,-669,-754
127,-109,45,-245,1652,1777
-73,-108,116,-716,2449,963
-11,-15,33,-1102,3245,1339
45,-83,-98,222,3463,2636
107,24,25,-997,3144,2664
-84,43,118,-469,3398,3359
15,-10,52,-1556,3004,3546
78,7,9,481,3053,3944
77,-128,67,382,891,2425
-87,70,117,-649,1754,2935
-104,-49,-90,10,1476,2945
7,105,-98,-927,448,2832
-38,76,-43,839,-363,2029
-87,92,-40,503,157,569
108,4,-35,908,151,-376
84,-117,-28,1063,261,-338
95,116,-35,341,296,-360
90,91,-33,-60,-110,-313
96,58,-11,-138,-306,-302
109,53,-3,-192,-118,-277
110,50,-1,-286,-173,-345
99,41,3,-258,-194,-192
106,42,-3,-140,130,-104
106,49,-13,-169,-4,-11
109,72,-29,-274,-32,80
109,87,-33,-290,-30,95
106,114,-43,-332,-31,26
107,124,-48,-164,-49,-117
104,-128,-52,-134,-32,-154
109,-124,-52,-201,-103,-133
112,-120,-50,-230,-118,-216
103,-125,-36,-138,-127,-240
112,-128,-34,-128,-4,-320
104,125,-29,-212,-30,-240
103,115,-35,-69,97,-232
106,118,-45,-210,106,-39
114,-128,-55,-205,77,83
117,-108,-59,-156,111,32
119,-103,-67,4,124,51
118,-91,-76,-133,96,47
125,-82,-77,-141,17,7
124,-81,-74,-57,35,-24
-47,63,19,996,-2975,-5717
-110,9,107,-255,-4247,-5644
31,-63,-13,3812,-5162,-3896
90,-90,20,687,-5470,-3492
80,-74,17,478,-1397,-1433
43,41,-54,-938,589,-352
-122,52,-35,-616,2522,1461
117,42,107,-530,1381,518
-54,-122,27,-841,3000,793
68,86,-44,429,2912,2095
125,-54,59,-1789,3152,2822
-106,-15,-88,173,2333,2782
6,-85,113,-1259,3582,3670
-42,99,-109,1138,2848,3314
-119,78,43,-1457,2871,2757
-106,36,-100,-1716,1608,3171
-92,3,114,-465,1097,2728
-44,-11,-36,505,154,3821
-11,113,-25,-266,432,2387
-58,72,-88,708,683,813
123,25,-93,1317,6,159
77,-88,-33,1454,-222,-190
65,-127,-36,1002,188,-351
71,111,-21,191,-45,-424
77,77,1,-339,-471,-406
82,53,24,-210,-373,-539
71,29,34,-69,-278,-516
78,23,32,-212,12,-345
77,32,16,-323,-58,-328
72,31,14,-247,-53,-107
87,47,-10,-134,206,-131
88,59,-15,-195,34,-28
87,68,-25,-179,78,-29
91,78,-33,-39,95,12
93,86,-38,-31,110,33
91,96,-42,-152,17,40
92,111,-41,-130,5,9
95,118,-41,-164,30,-43
97,121,-40,-117,-34,-67
94,122,-34,-107,-29,-120
99,122,-32,-126,98,-131
107,114,-39,22,103,-144
120,114,-46,-98,118,-55
98,122,-56,-68,-30,-122
106,117,-47,-10,168,-70
114,122,-58,-75,101,36
118,-110,-65,-251,-30,-3
111,-110,-60,-17,-6,-99
108,-105,-59,-155,106,-108
-123,-104,-63,-116,41,-31
64,44,24,-4068,2146,-3131
100,-100,-109,2870,-2316,-4870
-44,-17,20,-2972,-2086,-5364
70,-95,13,-634,-3771,-6445
69,-119,-97,-485,-3689,-6179
-49,82,-20,1996,-3933,-5819
-9,15,-126,3648,-5396,-4565
-14,3,-81,-540,-3338,-2120
61,60,-59,-556,595,175
-124,-108,103,-661,2742,1510
117,-32,-60,818,1889,636
-41,-65,43,-1134,3827,408
62,62,-45,-1002,3115,2568
-57,-11,-13,-1978,3002,3997
-64,-27,-85,-697,2454,3725
65,34,52,-2087,2209,4203
-106,82,124,-1288,2419,4260
-122,28,-92,1080,1144,3548
-103,39,-98,-1373,1722,4515
42,-119,-99,2368,80,2573
1,-107,-18,917,-441,2731
-110,-111,-57,119,-361,772
103,44,-22,1159,37,-198
87,-53,-33,1355,532,-515
87,118,-33,1002,314,-517
75,87,-21,531,-232,-189
82,79,-15,-221,-255,-248
97,58,15,-352,-276,-386
102,39,17,-91,-109,-365
99,39,15,-293,-45,-321
98,43,6,-480,-120,-223
94,37,0,-185,-23,-66
95,63,-12,-258,66,-3
102,75,-29,-149,78,-9
105,93,-34,-213,-22,21
106,111,-41,-265,-11,-101
97,98,-33,-79,-28,-79
101,105,-38,-107,55,-91
105,116,-38,-232,-40,-58
105,119,-40,-215,18,-67
100,-128,-44,-202,16,-61
123,-125,-46,-193,60,-16
121,-113,-52,-109,-2,-98
112,-110,-53,-166,-12,-196
107,-118,-51,-203,42,-141
118,-116,-53,-171,60,-48
122,-104,-58,-151,27,-110
119,-105,-58,-78,4,-132
119,-106,-53,-148,112,-49
118,-97,-59,-93,9,-70
75,-17,-40,193,-3370,-4765
-69,51,49,-1443,-3855,-6311
0,-43,115,3398,-4238,-4610
-124,55,-3,3640,-4201,-3530
-83,-95,87,1131,-3421,-1954
56,3,-108,-2788,1200,-41
124,124,2,332,1563,957
115,-55,-44,-387,1093,769
-80,-70,-5,-1077,2728,104
20,31,57,-263,2764,2139
95,105,-55,-1855,2844,2795
-76,-60,-35,-1284,3130,3513
26,101,116,-1123,3403,4004
63,45,80,-1479,2491,4044
-97,11,86,2304,1546,3164
-36,24,31,-3281,1599,2477
69,3,-78,299,-229,2395
-123,-27,-41,-217,1176,2570
-101,4,-48,176,1363,2303
-71,-18,-57,1423,897,2276
-76,38,-62,1417,-99,1246
-118,11,-54,1327,-369,-332
87,125,-17,1426,-49,-520
72,50,-6,1159,-47,-237
68,64,-3,-297,-214,-186
78,36,24,-802,-514,-390
89,17,21,-146,-199,-255
97,27,12,-345,-59,-345
79,12,25,-254,-148,-245
84,35,7,-301,42,-241
89,28,4,-79,34,-158
91,44,-14,-178,93,-67
87,53,-24,-199,42,35
94,63,-30,-191,78,33
94,78,-37,-33,6,18
97,88,-37,-142,88,-6
99,91,-36,-92,-36,-76
98,96,-35,-110,18,-23
94,109,-41,-184,13,-67
100,109,-35,-147,40,-63
101,116,-43,-178,2,-98
105,118,-45,-136,28,-113
105,112,-47,-37,53,-94
107,121,-51,-213,7,-103
113,126,-49,-147,-2,-78
112,125,-51,-33,88,-75
108,-122,-55,-158,-4,-91
112,-116,-57,-136,71,-89
113,-115,-60,-108,58,-55
125,-106,-62,-207,60,-49
11,120,32,-3556,566,-4100
102,-9,3,677,-794,-5068
-101,-97,-32,-358,-2687,-6197
-120,-101,19,-295,-3371,-5709
83,105,-94,1624,-3766,-5462
-89,43,-113,3086,-5458,-3496
116,-43,-98,190,-4408,-2318
47,71,11,-709,384,273
-108,120,-34,-786,2048,826
115,-94,23,732,2621,752
-61,9,32,-1921,2815,825
26,105,1,-284,2664,2713
-105,15,37,-1384,3051,2764
-38,65,-84,-1198,3835,3545
-4,92,111,1571,2761,3816
-95,-12,38,-4289,2604,3768
-106,86,109,-1195,1124,3907
-1,-109,-98,-240,400,3782
45,-101,-37,867,576,3382
22,-69,-40,1123,279,2125
-80,-55,-20,164,-558,979
124,68,-19,1502,54,422
102,-10,-22,1468,94,-102
79,-99,-41,1154,26,-214
85,127,-24,483,-171,-246
92,78,-18,351,-244,-271
97,57,5,-9,-238,-310
100,42,2,10,-166,-255
103,50,3,-111,-259,-231
97,45,2,-90,-144,-139
99,56,-12,-70,-69,-23
93,84,-14,-412,-302,-64
80,100,-20,-569,-196,-300
91,81,-27,-200,37,-248
99,80,-46,129,-70,-345
101,85,-56,211,-144,-207
108,83,-62,83,85,-172
87,79,-55,-145,-195,-13
62,113,-27,-696,-207,-174
59,103,-22,-292,71,-25
80,118,-37,-317,222,274
89,-100,-68,-486,45,229
91,-75,-77,-559,-35,142
106,-70,-81,-307,150,-62
120,-70,-78,-258,25,-79
118,-71,-76,-267,23,-238
106,-97,-74,10,101,-279
88,-114,-75,71,137,-111
98,-120,-77,156,268,74
124,-101,-77,-77,104,130
123,38,-86,-2566,-3483,-5608
-5,123,-14,446,-4181,-6087
59,97,102,1001,-4740,-6356
-41,-14,32,1668,-6115,-5860
64,-60,-58,686,-3955,-2980
90,-83,-102,-1290,-937,411
-35,23,-107,-727,2003,1203
-98,76,60,747,1627,1372
-66,-10,0,-123,1895,1447
18,123,-19,598,3107,2103
116,-22,95,-606,3313,2564
-82,5,-33,93,3640,3209
24,-99,106,-777,3711,3418
113,-102,41,162,3689,3828
-91,122,16,-2444,2132,4062
37,-117,79,-1280,1417,4894
67,-85,-104,1166,515,3303
62,-33,-36,-31,565,2444
-26,-40,-91,683,559,220
106,123,-54,1026,-284,-545
90,-63,-39,1468,261,-543
86,117,-36,775,244,-385
86,73,-21,-59,-327,-272
111,58,-5,-191,-222,-284
108,66,12,-223,-342,-337
106,46,19,-88,-166,-271
101,46,10,-123,-12,-99
99,54,1,-68,-43,-34
105,80,-12,-268,45,77
106,102,-23,-279,-204,-22
113,107,-34,-287,-293,104
106,115,-27,-74,152,-98
100,116,-23,73,-100,-4
109,-122,-30,-351,-45,-119
102,117,-23,18,88,-91
108,-122,-42,-165,191,-131
109,-118,-50,-110,80,-84
113,-111,-59,-44,73,-104
112,-106,-63,-166,4,-145
117,-118,-58,-107,64,-96
-126,-108,-61,-128,-48,-95
127,-112,-54,-156,-10,-73
127,-113,-49,-52,67,-66
122,-105,-51,-223,-28,-21
126,-101,-47,-157,85,17
-119,-88,-57,-75,120,-66
-124,-87,-60,-122,16,-21
-125,-86,-63,-124,141,-15
-122,-81,-72,-75,32,-45
-119,-74,-71,-135,29,-46
-60,-13,-95,-1408,-2957,-5483
41,20,-37,2620,-4985,-5199
45,55,79,-217,-5213,-6114
123,58,125,3786,-6202,-3849
104,-72,7,-22,-4804,-1534
112,31,-47,-297,-1095,-665
-85,107,-83,-293,375,487
61,121,41,88,898,543
36,42,77,119,-68,250
21,73,88,-80,-61,-29
53,-15,-56,-63,-37,33
108,8,-60,65,-117,-31
-118,-5,-29,-326,220,-147
-92,-18,-47,-143,170,-15
-35,-44,-6,-290,705,-34
68,114,-39,-1930,3491,7
-88,-86,8,-1442,3802,2036
75,101,-102,-5497,4773,2407
127,59,-87,-3820,3771,3912
-27,-84,-3,-4618,845,5724
-56,-96,-54,-444,-1304,3536
15,87,104,943,-458,4831
20,-116,119,682,325,3354
0,50,97,2595,190,3252
-22,52,44,2949,609,2166
-104,75,-28,1883,514,623
53,-30,-22,1046,414,-188
46,-99,-9,559,330,-353
26,86,0,341,-85,-433
44,56,35,-273,-160,-226
45,4,60,125,-310,-196
60,2,61,-317,-81,-368
61,-12,68,-61,-159,-272
59,-18,67,-105,-105,-77
62,22,56,-388,-58,-127
65,21,51,-118,13,-64
68,56,34,-277,-41,-179
63,55,32,-125,-18,-90
67,67,18,-163,75,-142
73,72,13,-246,-8,-161
70,78,10,-255,-77,-130
74,86,5,-201,22,-173
76,90,0,-361,8,-158
76,98,-5,-362,-117,-141
77,94,0,-39,65,-42
88,119,-15,-189,86,-146
87,118,-20,-181,-55,-86
85,126,-22,-212,26,-124
86,126,-19,-179,-9,-64
90,-126,-23,-36,-2,-78
-23,-115,126,848,-3195,-4308
-82,67,-82,-1204,-3888,-3912
-120,92,-10,844,-2834,-4241
19,-8,89,2289,-4782,-2790
-82,124,71,-164,-3733,-2953
47,52,90,-369,-1339,-1145
-67,49,-111,-639,1149,70
99,76,17,411,1401,879
63,-108,-36,13,-383,-250
32,-76,-33,16,411,421
-112,-63,-73,374,578,326
-54,-113,-18,832,845,714
-27,0,-93,-126,1002,325
57,102,78,-211,2363,1430
-122,94,98,-1142,3421,1306
-44,-124,-128,-1732,3093,2119
17,-34,-79,-2135,3472,3477
38,-51,-88,919,3591,4402
-43,58,-68,2589,2997,3282
41,26,-15,-1521,-294,1798
80,5,125,-3578,1759,1633
27,42,-12,133,1006,2102
88,-128,-9,103,1160,2378
-112,-52,-6,-201,1018,2014
-120,-72,-30,2081,316,1558
98,-15,-51,1683,-347,57
55,-81,-18,997,-316,-598
2,41,34,1202,-270,-475
-1,37,31,116,23,-344
3,33,40,-520,-317,-451
26,1,64,-274,-209,-379
35,5,60,-454,-19,-505
29,-19,59,-83,-163,-350
28,-14,50,-270,90,-62
19,0,37,-385,-11,-106
27,15,23,-340,169,56
31,40,7,-168,111,-12
38,54,-2,-103,223,78
46,80,-13,-330,192,-73
49,92,-24,-408,20,-223
39,82,-19,-230,-20,-47
38,91,-16,-256,54,-90
42,96,-16,-130,18,-142
51,92,-18,-31,69,-76
50,102,-21,-164,19,-77
55,101,-21,-92,19,-70
53,104,-22,-64,44,-18
57,120,-30,-209,87,-51
57,122,-32,-215,32,-29
65,-118,-38,-439,141,-107
-26,21,83,-3176,-891,-4223
-36,-43,-15,-1359,-3837,-4379
106,-85,-5,-1307,-2764,-5662
-96,-105,121,-188,-3839,-5873
-21,52,-41,818,-3309,-4678
124,-17,-9,-322,-3531,-4210
-124,110,-55,1977,-3608,-3740
-13,118,19,1239,-2808,-2280
104,29,115,-1789,342,-318
-60,-106,-47,49,536,615
-89,-25,-20,30,115,47
108,-17,-18,58,440,41
98,-92,-32,193,189,81
-91,-23,-53,-108,-34,-69
-12,-50,-26,-104,334,-64
45,122,82,-92,941,508
-83,52,-124,-728,1488,1285
-29,38,55,-1442,2166,2505
-28,108,-94,-298,2109,3297
1,-46,71,-1329,3611,3515
-38,-86,14,1756,3322,3635
87,-56,-62,-2702,2928,3048
66,-119,-43,-666,1676,3943
79,-73,-8,-143,1285,3677
-101,66,-4,-826,1173,3109
-94,14,47,213,1011,3281
-121,54,19,628,691,1777
82,-1,38,1294,194,1643
24,38,28,331,-73,328
-6,-56,50,749,-64,-155
-17,-116,59,538,47,-327
3,79,67,752,120,-389
13,55,65,720,-13,-539
-3,19,85,396,-299,-698
-3,-12,104,-322,-253,-509
-5,-15,105,-589,-331,-187
2,-3,99,-268,-510,-255
14,33,73,-438,-76,-56
7,47,63,-559,55,3
2,50,52,-119,16,-52
12,61,42,291,285,-50
18,75,14,31,272,-74
16,87,10,-338,-133,-132
20,68,11,-121,56,-116
19,83,10,-237,-10,-76
19,84,4,-89,59,-69
24,93,4,-139,29,-53
27,102,0,-284,-2,-100
25,105,-7,-122,-19,12
21,116,-10,-171,42,-12
-120,-28,1,-319,-5126,-5272
-116,-23,87,945,-4134,-4941
81,-43,-23,3136,-4552,-4385
-93,62,-7,704,-5802,-2622
11,85,64,-488,-2227,-1015
11,69,-116,-405,-77,-188
-45,54,90,176,1046,-63
113,127,-15,-124,959,295
108,11,24,81,248,-64
-91,120,19,-597,1362,525
64,68,84,-501,2536,748
-70,77,-8,-2258,2565,1882
-24,-127,77,-2011,2836,3180
13,109,21,-979,3553,3550
118,-51,111,-1647,2756,1774
-126,115,-76,-402,2636,4712
-97,-1,127,-355,1726,2896
-4,106,-117,-1730,1302,3205
-86,42,-83,-419,566,2413
-95,-8,-20,588,454,2736
-121,55,-32,54,605,1169
95,20,-33,234,204,21
59,-57,-24,421,107,-314
47,102,-2,935,192,-138
49,60,-3,603,-62,87
47,94,31,-1281,-481,165
56,66,45,-1228,-404,-216
71,28,54,-74,-149,-346
61,16,46,591,-12,-192
66,46,30,-55,-15,-99
60,61,19,-417,-146,-97
64,68,22,-582,1,53
77,70,15,-490,165,12
79,86,0,-20,32,-104
75,87,-4,-16,72,-13
71,104,-18,-180,89,-90
78,108,-22,-163,8,-27
83,110,-20,-87,38,-28
88,117,-23,-197,38,-40
90,118,-20,-177,-27,-30
92,122,-21,-96,51,-76
88,124,-22,-149,35,-30
93,-126,-24,-111,58,3
98,-119,-25,-181,59,-22
99,-115,-30,-145,65,-31
101,-107,-34,-153,73,-15
97,-102,-41,-154,18,-55
105,-96,-40,-229,21,-75
113,-93,-37,-219,-2,-141
116,-105,-30,-29,73,-171
-11,-61,26,-2337,-2359,-4241
4,-113,50,-892,-2500,-4029
71,92,39,-97,-2688,-5468
79,-40,64,-4105,-3002,-6388
45,-126,-94,3780,-2819,-6884
86,121,-123,1666,-3325,-3423
-48,-119,-82,2285,-4422,-2351
46,-81,-93,-1128,-756,-18
-115,-98,-18,540,1542,399
89,86,87,-611,336,-115
48,30,60,512,-121,-178
117,-34,-67,-228,523,-46
-84,-101,-14,5,1064,340
40,38,119,-984,3064,629
-104,94,-75,-1284,2329,1841
-38,119,91,-1421,3556,2872
25,-123,19,-309,3233,3416
118,-64,95,-3985,3159,3433
115,125,125,-1612,1638,4197
-67,-42,125,1128,797,3430
36,-113,-84,-1408,1155,3475
-69,45,-46,286,311,2534
-39,19,-21,431,422,2591
-103,18,-13,389,129,1783
114,-7,-28,755,420,889
82,-36,-41,939,274,56
64,-93,-34,633,62,-296
57,101,-43,204,54,-509
65,79,-30,-248,-457,-774
56,6,22,35,-589,-597
70,-6,26,27,-116,-375
56,-7,36,-113,-278,-279
61,10,46,-484,-200,-173
69,22,39,-443,-26,-140
69,21,33,-161,40,68
72,37,22,203,-33,69
72,59,5,-55,220,143
77,77,-13,-521,285,-60
73,71,-44,-156,180,59
82,88,-54,-198,236,-17
79,79,-63,100,102,-83
70,102,-55,-335,-108,3
83,99,-31,-44,164,6
96,107,-44,153,266,-111
92,105,-56,71,-194,-385
88,89,-46,222,-326,-157
100,94,-45,-243,273,-56
78,89,-44,-207,-50,-55
102,88,-54,6,86,-8
85,89,-43,149,-267,223
89,59,-21,-511,-2302,-5347
-105,-33,40,468,-3424,-5675
65,57,0,1802,-3093,-5262
-66,115,-120,2760,-5307,-3880
59,91,68,-155,-1722,-4070
19,-121,8,-217,-668,92
125,113,31,-970,871,1442
105,79,105,-243,-87,-192
52,-66,-40,422,460,402
117,-47,-85,-476,394,-319
14,55,65,-209,2674,-264
91,57,-89,-1563,2522,590
-65,59,-21,-1813,2126,2963
-14,120,79,-1597,2446,3973
20,-76,-30,-596,2713,4041
71,-23,-51,823,3128,4130
16,45,60,981,4353,2626
-93,-42,-77,1222,2563,3261
22,15,79,-1524,2734,2831
-56,-72,-120,-570,908,2922
-83,-48,-43,-990,522,2939
-87,-2,-84,-1230,1154,1981
84,-4,-51,-309,-44,528
60,-37,-13,346,-439,-284
34,-92,16,282,-185,-378
31,106,27,-210,111,-1000
19,11,40,998,-19,-72
45,56,44,-305,-177,-294
52,40,48,-275,-271,-206
56,36,48,-203,-6,-388
64,35,32,-150,116,-316
60,50,12,-290,-86,-206
54,55,10,-116,-88,-141
58,68,-2,-43,65,-165
56,64,-5,-342,-6,-134
69,89,-8,-1103,36,-108
69,91,-3,-156,-257,1
68,92,18,344,-132,4
73,117,20,-354,192,-71
65,-104,-3,-1106,-2,-212
69,-118,0,-257,-71,127
82,-91,0,32,158,7
91,-78,-22,91,213,-91
87,-85,-32,7,26,-131
86,-91,-34,-45,49,-118
90,-85,-39,-238,15,-192
96,-87,-32,-187,24,-160
102,-89,-30,-114,19,-236
97,-98,-27,-88,7,-141
102,-93,-27,-146,102,-145
18,113,23,-4413,-798,-4325
30,-89,56,863,-1556,-4118
98,34,-60,-679,-2984,-5578
81,-20,107,1829,-5711,-5985
83,70,107,-608,-6740,-7057
72,13,54,736,-3794,-5197
95,-4,78,-311,-2201,-998
86,-119,-100,813,147,609
114,-110,-105,-557,693,759
68,18,-68,927,629,114
5,102,107,-560,21,-280
86,-27,-24,-180,-73,90
-100,-87,21,96,492,165
-16,86,64,345,880,1035
83,27,-118,-1535,2020,1674
-103,45,-8,-2204,3351,2288
-58,-105,53,-2300,3685,3435
-115,45,123,-1452,2536,4030
33,-36,-70,-1170,1139,4341
41,-44,-86,-160,1417,3713
110,86,-54,-1115,831,3072
-119,-12,18,970,618,4252
-30,-65,7,-144,359,2403
-49,36,7,2138,770,2428
-120,-124,42,1031,-441,1037
57,63,-8,470,73,-116
26,-50,19,1102,494,-528
17,100,-15,1524,637,-523
16,83,-11,628,-85,-419
41,46,8,92,-193,-226
55,28,25,-347,-153,-359
50,10,37,-193,-190,-138
51,19,41,-317,-117,-145
57,30,36,-186,12,-28
58,44,26,-229,26,33
58,77,6,-429,-31,62
51,92,3,-362,-54,3
58,92,5,26,147,-85
66,104,-19,37,185,-71
69,101,-19,-21,56,-74
65,98,-21,-76,20,-44
73,105,-19,-211,122,-53
73,101,-20,19,55,-77
74,103,-19,-58,153,-72
90,100,-30,67,206,24
85,116,-41,-130,9,35
99,121,-38,-111,149,11
98,114,-36,74,85,5
89,123,-39,-188,-23,-30
100,120,-36,-164,30,-82
67,73,-34,-3636,-335,-5061
-118,110,-17,346,-427,-5760
103,-46,-9,2930,-4285,-5385
-72,-51,-44,-1925,-5939,-6582
-112,104,41,803,-2204,-5190
-128,-88,58,1321,-4466,-3841
-7,-50,110,276,-962,-1277
25,7,-114,-256,707,128
104,-98,36,-1244,755,348
82,-34,91,741,66,-91
77,-30,83,-619,-187,-21
-106,127,-53,122,-75,206
-79,-82,-61,144,273,53
-58,-60,-56,-49,153,313
7,-89,-27,18,907,218
95,95,63,-432,2011,569
-89,91,68,-2173,2052,1537
-17,42,-104,-1026,2263,3155
6,-104,37,-723,2762,3456
19,-42,-16,-410,3081,3774
62,-122,-57,-3254,3191,3599
98,-77,-109,-1477,1261,3801
-97,-48,-1,-82,650,4274
-48,22,6,381,811,3065
-27,31,44,20,747,3355
-99,110,19,72,-63,1416
83,14,60,1301,-154,980
38,-15,45,813,428,7
-8,-115,37,1120,375,-430
8,77,31,1463,123,-546
11,38,52,925,-116,-527
14,12,89,-348,-225,-574
19,-42,93,-263,-106,-538
35,-42,92,-1421,177,-267
38,-54,66,-471,-194,200
33,-11,69,98,-231,233
40,45,63,-332,-20,-18
33,51,43,28,10,83
32,77,30,-170,7,1
29,79,26,-188,-53,-37
38,96,13,-365,-11,-173
42,85,8,-157,-19,-154
43,93,-1,-260,-42,-179
44,94,-4,-323,-30,-99
53,112,-15,-349,-41,-180
51,114,-14,-249,-83,-94
38,120,-10,-206,-12,-158
45,-126,-17,-253,81,-141
64,-126,-33,-32,68,-217
64,121,-39,80,42,-243
105,64,3,266,-3015,-5036
-123,-66,58,-530,-3362,-5637
-99,-37,110,2791,-4213,-5307
17,-61,108,3157,-6813,-4531
-99,-127,9,-1765,-3359,-2364
112,37,0,-361,166,-350
-96,-59,-116,-432,1136,672
95,-43,81,515,627,179
23,62,44,-69,-348,70
94,-42,-68,-71,409,-68
-82,-110,-11,207,637,337
39,52,78,-510,2112,794
-124,11,67,-1925,2777,1615
-51,115,93,-1898,2586,2805
-4,-74,-41,-148,2854,3664
46,-98,-121,-3079,3105,3390
39,107,-105,-1576,1955,3997
104,-19,-90,-1180,781,3341
-19,39,-40,962,743,3590
-59,53,3,73,1050,2862
-80,41,-3,534,471,2310
-89,-43,18,857,1061,2290
-114,94,-28,120,43,991
84,-5,-4,973,-345,-186
71,-98,-2,778,380,-602
47,38,14,1109,357,-730
47,11,15,939,-19,-197
51,18,29,-56,-187,-176
69,-2,47,-426,-228,-210
72,-11,59,-141,-227,-33
79,11,46,-318,-124,-83
75,18,39,-299,-83,-80
68,23,34,-100,-42,-13
71,35,18,-183,115,14
77,59,8,-331,-33,19
76,63,-1,-182,-16,-50
73,71,-7,-213,72,-46
80,73,-18,-102,76,-92
87,83,-26,-255,13,-122
86,88,-27,-248,-25,-161
81,88,-26,-162,-83,-227
82,83,-27,-116,-13,-216
86,85,-31,-233,7,-155
89,87,-31,-231,-34,-64
90,96,-36,-145,-18,-91
83,108,-35,-205,-40,-79
88,106,-35,-111,70,-67
92,108,-37,-62,63,-30
101,122,-45,-143,62,-21
97,123,-43,-96,-7,-27
38,-36,-39,-2227,-1779,-4152
-80,-38,-33,-3077,-1475,-5219
25,91,35,-3121,-1914,-6413
-60,-24,-77,4273,-2130,-6459
-74,-48,23,4144,-4046,-4576
86,98,-114,4015,-5660,-4398
-50,43,-39,-2173,-950,-827
-17,2,-116,-435,464,-91
111,-89,-40,-709,1239,53
57,-53,81,417,-45,201
74,-2,77,-97,14,-51
-119,-77,-61,-50,657,194
-63,-58,-83,299,523,193
61,67,-127,-710,2275,783
114,-128,-26,-1158,1889,1671
-45,116,117,-1508,3924,2210
-17,-79,-32,-555,3037,2626
47,54,-125,-1693,3135,3154
25,64,-96,-1632,2206,3272
-117,-42,-86,-678,312,3814
122,-75,-46,-1432,2032,3196
-75,-67,-74,195,1579,3085
-3,55,-60,-354,765,2986
-52,-16,-65,1064,480,1925
-120,-38,-4,780,178,1668
106,-27,-13,350,84,732
64,-83,-2,1027,-39,65
50,97,29,1029,42,-426
49,38,26,898,167,-512
49,16,40,210,-83,-416
47,-3,52,-335,-383,-305
56,-18,64,-294,-244,-256
64,-12,63,-262,-59,-259
62,-3,43,-181,-53,-214
60,1,33,-378,-53,-93
59,22,22,-433,-29,-58
63,36,15,-214,-3,-149
64,44,8,-261,9,-134
71,53,-4,-265,34,-179
66,53,-8,-194,-19,-167
69,54,-12,-163,81,-118
71,65,-21,-227,35,-93
78,72,-24,-111,-7,-82
73,83,-26,-192,-6,-94
72,87,-20,-226,-39,-56
73,93,-21,-202,35,-36
75,104,-23,-223,37,-61
73,110,-30,-70,49,-95
79,112,-34,-125,128,-57
93,119,-46,-131,23,-99
-78,107,25,-1522,-3006,-6051
-69,-65,112,-4312,-1831,-5692
-123,51,-70,1047,-1733,-6334
25,35,61,8996,-4356,-5623
-77,-93,-70,124,-3797,-2010
-2,28,-57,-649,976,231
117,47,-116,-86,943,-18
49,63,29,30,18,-97
42,-55,-80,-269,440,125
112,-8,120,190,-36,-112
-95,-87,-11,-66,373,294
17,86,85,-178,1715,714
89,62,72,-1053,1840,2007
-69,89,-101,-1871,3193,2527
-13,86,57,-651,4048,3042
61,-41,-87,370,3765,3244
-85,-40,104,-2776,3830,4192
-111,-105,106,1020,1974,3284
9,34,-116,-2042,2049,2206
-92,86,-54,-3024,-355,3252
-75,-44,-13,934,-407,4150
-52,75,72,399,-354,2784
-84,101,-6,-573,612,940
109,73,-21,532,56,-210
50,-45,8,1972,-350,-1297
33,104,28,1506,212,-860
11,33,36,237,348,-535
25,36,42,-770,-207,117
57,23,51,-31,-357,-61
74,46,63,-530,-115,-469
73,12,59,45,264,-289
72,30,35,375,421,-288
76,67,24,-37,-43,-40
72,71,14,-250,-142,104
86,92,-5,-463,74,-104
84,90,-17,-239,-48,-246
81,83,-17,-48,64,-178
85,67,-20,220,103,-138
83,80,-29,-28,-40,-45
88,91,-24,-378,-57,-71
93,88,-19,-58,2,16
100,98,-17,-113,-25,15
84,109,-14,-58,-27,13
89,116,-17,-215,82,18
92,126,-21,-126,-33,43
96,-116,-26,-201,73,60
96,-106,-29,-232,9,-40
104,-109,-29,-114,42,-136
104,-111,-31,-129,98,-81
108,-106,-39,-242,58,-122
-32,80,84,-1109,-1824,-5963
-18,-89,96,710,-2439,-6349
64,-64,-75,2728,-3716,-5990
-95,-109,75,4397,-4960,-4825
55,-52,-14,-760,-4085,-2039
122,113,1,-931,633,-417
-70,-89,-61,-497,1601,688
23,-1,48,-258,60,103
55,12,41,-157,163,-5
95,-86,-111,-42,173,71
-84,-107,-45,-60,707,376
-4,-109,-9,-346,1553,494
64,-126,52,-1478,2401,854
-95,-98,-105,-1917,2545,1765
-11,-109,20,-1521,3466,2700
-9,-60,-38,-681,2832,3236
57,51,-79,-1507,2657,3689
-106,115,-89,-1781,2202,3773
-101,-6,-99,-2825,703,3865
-5,-7,-35,-354,78,4559
43,-10,19,875,404,3480
53,-109,4,-812,47,2784
-77,-88,4,-361,-748,1129
69,32,26,1537,39,-340
43,-108,-1,2369,746,-663
34,99,-17,1490,580,-466
42,70,-14,744,-174,-290
52,38,4,104,-396,-341
57,14,31,-423,-362,-392
59,6,30,-348,-254,-409
67,-8,36,-166,-283,-392
74,-3,39,-196,-170,-296
53,-12,25,40,-54,-91
56,14,23,-230,-51,-21
60,19,11,-210,27,147
63,48,2,-349,6,177
56,63,-9,-307,-32,101
57,85,-13,-284,53,92
70,95,-20,-157,132,53
63,104,-31,-188,18,-61
73,108,-34,-250,80,-204
67,79,-28,143,-199,-364
70,87,-39,82,122,-137
80,85,-45,-106,232,-68
62,87,-46,-211,-71,-142
56,91,-44,-224,76,-60
88,101,-43,-86,216,-53
110,99,-49,132,146,0
90,100,-52,26,27,-39
71,100,-46,-348,-2,-4
-100,-15,122,-8,-2875,-5913
69,-22,-109,1700,-3800,-5428
-33,31,-32,3544,-4691,-5978
127,36,-51,3110,-1959,-2204
74,91,-31,-2188,-2459,156
-77,105,99,930,1682,282
96,77,85,-1139,-665,54
75,-68,-68,372,528,210
87,4,-76,8,284,-57
-125,-16,-54,-446,352,-65
-51,-100,30,-352,848,540
58,66,109,-791,2544,431
-84,58,33,-2332,2926,1441
-38,68,122,-2110,3472,2963
-13,-101,-14,-934,3068,2486
69,-122,-123,-1906,2820,3905
62,11,112,-4126,1857,4498
82,74,-121,-545,-153,4097
-51,93,-12,378,676,3801
-57,92,-4,984,794,2918
-41,100,0,592,576,2576
-126,-108,-12,378,-68,1320
66,85,-11,746,-124,-118
38,-33,1,1136,239,-712
18,105,-3,1255,294,-625
27,92,9,424,-15,-326
44,69,16,-232,-260,-475
57,29,34,22,-198,-364
58,29,36,-150,-172,-396
55,15,43,-131,-151,-247
55,24,37,-268,-21,-23
57,39,21,-201,-23,-45
60,68,8,-375,-19,97
55,84,3,-268,-48,21
59,97,1,-288,51,14
62,113,-15,-173,19,-82
66,114,-21,-226,24,-139
68,106,-23,-92,23,-132
69,117,-32,-266,-21,-186
66,113,-32,-182,-61,-181
68,102,-29,-81,70,-102
72,116,-36,-210,-23,-95
78,117,-34,-214,-35,-71
80,-126,-37,-173,23,-90
78,-126,-36,-168,15,-57
79,-119,-39,-168,41,-76
83,-113,-45,-183,35,-58
86,-111,-49,-171,22,-64
86,-109,-52,-172,55,-24
88,-100,-56,-150,-24,-43
-83,-122,-38,1561,-1019,-5864
-120,-71,-34,2983,-2258,-6191
63,-88,-60,4439,-3754,-5917
-42,76,75,4214,-5129,-4684
39,82,111,-1889,-3721,-878
53,-106,-54,-611,1049,83
-117,77,3,-433,249,772
68,-82,-117,260,659,2
90,91,39,-328,-227,-18
105,122,-10,43,871,69
-51,-49,-97,-314,336,189
24,59,37,-430,1389,1318
114,-126,7,-1915,2840,1068
-100,102,121,-1075,2304,2479
-53,-6,-54,-1909,2517,2592
-44,-56,-21,-633,2919,3263
31,109,-89,-1228,2452,3080
114,-104,-60,-690,1984,3858
-125,78,-35,1134,1665,3719
-20,24,-64,-1467,1756,2875
-55,-89,-4,139,1030,3174
-26,-12,-6,-207,593,2357
-78,-54,0,329,309,2070
-127,-41,8,101,262,1145
89,-41,-3,492,100,273
57,-104,4,777,-22,-398
49,73,13,819,127,-574
48,26,18,637,-51,-430
48,26,28,-288,-327,-456
60,0,42,-202,-366,-441
59,-29,55,19,-254,-391
70,-7,48,-420,-194,-384
65,-15,45,-344,-210,-251
59,0,43,-331,-167,-104
55,11,33,-172,-5,39
59,42,19,-376,-31,17
59,54,16,-272,-64,39
64,72,12,-228,77,6
62,80,0,-142,49,-47
61,89,-5,-228,59,-51
64,88,-15,-131,95,-111
65,94,-21,-192,59,-87
75,100,-28,-176,57,-172
76,92,-30,-65,40,-155
74,94,-31,-236,49,-70
78,101,-34,-154,-14,-98
82,102,-32,-172,39,-54
82,118,-39,-193,-17,-70
85,120,-37,-181,26,-24
86,-126,-39,-140,-18,-72
83,51,51,-2650,-2056,-7163
-91,40,125,-692,-2550,-7769
-53,-76,-71,4321,-4651,-7969
38,-39,122,4346,-3279,-4227
6,77,115,-77,-2631,165
-50,84,61,528,1192,-115
77,-59,-22,-837,-143,614
69,-42,-124,467,424,-211
73,-10,-114,-349,23,94
-124,-45,-94,68,-50,62
-88,-51,-64,236,352,71
-43,-82,18,-320,729,295
59,85,91,-855,2462,459
-110,106,-9,-1922,2292,1695
-67,62,109,-783,2537,2532
13,-52,-36,-2223,3510,3414
-7,-77,-23,-204,2570,3676
96,-103,-101,-1896,2109,3243
-112,-124,-74,-295,1810,4161
-85,17,-55,-537,749,3009
-49,-57,-11,717,1004,3592
-47,-25,10,745,958,3026
-56,0,-5,427,953,2459
122,40,-28,421,161,1458
56,3,-17,989,-231,192
30,-71,-3,723,301,-303
5,95,1,577,209,-654
8,51,9,458,-280,-494
17,28,28,166,-387,-579
35,-5,52,-169,-206,-499
36,-22,59,-73,-280,-459
38,-29,64,-163,-243,-358
36,-23,64,-295,-145,-208
37,-17,56,-193,-13,-62
34,17,39,-386,-10,17
39,27,29,-207,-8,-65
37,46,18,-238,84,9
37,60,8,-179,78,-13
37,73,-3,-243,98,-58
44,79,-12,-116,108,-97
46,84,-23,-134,79,-144
47,73,-23,-107,44,-97
50,83,-27,-228,-1,-117
50,79,-22,-121,2,-99
53,76,-18,-93,93,-37
53,91,-26,-194,14,-44
60,93,-25,-108,62,-1
61,100,-29,-123,149,66
63,120,-39,-194,40,18
67,122,-38,-153,88,-4
-58,41,108,-1105,-1735,-6512
-102,78,-76,-377,-2033,-5564
41,112,9,2455,-2760,-6025
-65,-109,83,5815,-3576,-4343
-6,25,113,2042,-5362,-3016
44,127,-102,-2585,218,819
-95,-104,-70,346,1161,280
96,10,59,-478,139,-87
51,-88,123,31,250,258
114,-15,91,-101,-124,-4
-74,-119,0,-201,574,383
-18,-101,6,-1028,1227,466
46,111,4,-216,1499,1508
89,-27,116,-3357,1754,1643
-114,107,21,-1406,2073,2615
-66,-48,-15,-1421,2325,3131
-35,30,-26,-633,1472,3337
33,-95,-68,-1432,1549,3423
76,108,-47,714,1255,3517
-118,13,-40,-302,691,2992
-86,-122,11,981,1046,3863
-8,29,-10,115,1119,2765
-50,1,-25,472,573,2322
-119,54,-22,-4,-76,1530
62,-16,-55,1255,4,157
42,-91,-14,1754,42,-574
26,90,-9,1387,238,-512
2,51,18,677,-225,-367
10,50,38,-229,-501,-224
27,58,68,-818,-491,-567
41,20,71,-406,4,-639
48,8,61,-207,45,-638
43,-3,52,-151,-64,-402
42,-3,33,-280,94,-264
46,8,27,-405,90,-97
55,10,12,-236,184,43
58,26,-7,-224,258,108
58,33,-12,-112,-157,-41
46,22,-12,846,-295,336
53,96,-20,-637,264,284
46,86,-31,-670,157,163
48,88,-25,-193,-13,226
62,118,-26,-235,15,154
59,-127,-21,-370,-59,-78
61,-124,-18,-351,-43,-126
62,-125,-19,-228,-133,-204
67,124,-26,-123,146,-291
68,116,-33,-52,220,-340
86,105,-41,-91,122,-224
74,102,-47,-94,-41,-168
-20,-68,-111,-1536,-1474,-6330
-55,-119,-51,1512,-1360,-7144
-39,-95,7,6318,-4209,-6525
-114,99,60,1904,-4681,-3345
26,70,-37,-1136,-5110,-3005
123,-121,63,-26,-281,645
-39,-29,37,-801,1032,550
72,1,-60,-198,-48,280
44,-8,-86,229,479,-128
77,11,-93,-23,-253,-92
-89,126,38,300,725,137
-51,-20,-66,-134,269,184
34,83,122,320,2245,325
-108,-103,93,-1893,3252,722
-68,81,-120,-741,2497,1994
-37,-76,15,-2631,2872,2834
-34,120,12,-1420,3187,3970
-2,27,-71,-837,1936,3449
-103,63,-49,-216,2465,5382
-65,121,-109,-1232,969,2405
-18,9,-36,12,632,3841
-74,21,-10,504,495,2687
-107,-24,14,1064,469,2575
112,33,-9,456,332,1448
45,47,-3,641,-211,661
7,-17,4,640,48,-535
-4,-104,23,494,232,-685
1,103,26,253,12,-626
8,54,26,158,-176,-608
20,36,31,-124,-253,-681
30,4,51,-116,-243,-576
32,-9,56,-189,-244,-519
29,-6,58,-306,-171,-333
28,-16,55,-143,26,-143
32,12,33,-279,36,10
38,39,16,-294,-18,74
27,68,9,-346,-27,113
31,78,7,-229,42,2
28,85,1,-70,89,-4
35,94,-9,-135,139,-22
33,101,-20,-100,26,-20
37,107,-26,-151,33,-91
42,102,-20,-51,63,-110
50,95,-23,40,56,-109
51,100,-25,-137,11,-50
45,99,-28,-41,-46,-92
43,106,-22,-298,-10,-30
50,104,-20,-125,36,5
53,120,-25,-208,35,-6
56,-127,-32,-165,86,-77
-118,57,30,-267,-2212,-5702
106,-126,56,1738,-3584,-5738
56,-74,105,1320,-4737,-5238
-44,82,84,3686,-5745,-5441
113,14,-44,-2751,-2278,346
33,-70,-126,986,-667,298
-73,-125,82,-961,793,625
46,31,114,556,200,-71
80,24,-64,-342,593,25
126,-52,-36,144,639,98
-4,96,71,-139,1912,398
88,114,0,-1543,2383,1523
122,118,112,-874,2406,2365
-100,-47,-28,-1326,2579,2438
-33,78,-93,-1727,2910,3337
-42,-8,-81,972,2595,3285
87,-49,112,-1011,2428,3194
116,-60,-97,-627,1396,4282
-108,2,-101,-79,1138,2960
-26,17,-64,260,1254,3671
-76,23,-41,13,205,2375
-95,18,-12,-8,-110,2394
96,27,-23,511,-199,943
49,0,8,916,-387,-102
33,-87,18,1282,150,-553
16,105,20,857,164,-760
17,62,29,509,-130,-661
36,33,39,-276,-160,-743
41,-8,48,-138,-206,-617
50,-20,46,-236,5,-474
56,-26,35,-200,61,-393
53,-33,29,-79,135,-98
58,-11,4,-141,179,-55
64,9,-6,-220,116,144
61,39,-17,-350,33,73
60,54,-13,-96,54,152
60,76,-16,-251,50,57
53,69,-3,-80,-60,237
69,101,-20,-511,117,128
70,119,-29,-341,-24,-188
70,98,-19,-20,188,-119
71,100,-33,-85,130,-141
77,104,-41,-213,-6,-131
78,97,-38,-153,-47,-121
79,98,-33,-191,23,-41
81,105,-34,-139,-7,-38
83,115,-31,-206,41,-10
86,123,-38,-116,50,-18
87,-122,-37,-200,31,-19
92,-118,-41,-132,79,-31
43,-102,72,-1953,-2023,-5064
96,34,87,-9,-2312,-5219
94,123,-80,252,-3660,-6040
4,58,22,3482,-3943,-6032
113,121,-111,3677,-4685,-4833
-28,117,38,-739,-2015,-445
47,31,-47,-76,-892,239
-92,78,-62,-658,1289,241
45,17,-99,-102,-85,265
48,18,117,-212,-282,-112
112,-87,-4,-251,308,40
125,-40,-62,196,-84,-27
-33,-98,83,-155,813,132
41,121,-117,-859,1517,953
-109,50,84,-710,2683,1279
-83,100,-95,-1126,2855,2690
-79,-98,63,-1304,3138,3034
-61,-42,-22,-755,3249,3496
15,-122,-80,-2391,3365,3946
16,-112,-95,-210,1413,3375
-87,-47,-92,-3175,740,3981
41,-12,3,359,47,2804
-113,-27,1,1892,1157,2778
114,7,-1,1673,735,2000
120,3,1,1041,425,1924
86,38,-9,225,74,993
55,18,0,27,-94,25
35,-46,11,285,215,-630
15,110,9,768,145,-1009
15,66,20,737,-189,-956
22,46,28,189,-325,-747
37,33,44,-490,-382,-688
35,13,50,-286,-486,-573
36,15,66,-317,-291,-398
32,13,60,-277,-5,-216
30,22,44,-267,-109,-112
27,34,37,-357,-6,158
31,61,26,-277,64,226
37,77,15,-186,154,308
40,108,-7,-304,215,369
40,122,-11,-203,46,261
51,-115,-20,-148,154,198
54,-98,-27,-162,25,51
55,-98,-26,-125,34,-92
57,-105,-25,-14,23,-180
55,-109,-27,-117,-17,-198
64,-116,-29,-130,-5,-271
65,-126,-24,-112,-18,-224
65,124,-22,-128,-6,-221
64,124,-27,-128,13,-126
74,118,-60,921,-2288,-6441
29,-121,-30,2295,-3091,-5927
40,80,100,4615,-4684,-5958
-62,19,18,3238,-2667,-2676
57,-101,-40,-941,-1933,299
-3,-99,84,-538,1255,-137
113,-99,-85,-840,954,369
47,10,8,563,-746,-11
114,-94,-13,-767,701,345
-117,-7,79,369,-212,-131
-58,-88,3,-126,806,172
31,-108,30,-26,1129,501
100,122,45,-1469,2195,1465
-118,127,-61,-1650,2527,1963
-79,-128,56,-388,2849,2336
-38,-55,36,-2315,3741,3246
6,33,-111,-1763,2432,2966
125,105,-108,-259,2254,4608
99,-109,-65,1214,1058,2580
-46,64,-68,-2975,1636,3266
125,-94,-38,-401,648,2387
-78,-90,-32,804,1134,3010
-91,-72,-13,1822,210,2620
119,59,25,-553,-452,1587
69,3,9,-502,-420,-7
25,-82,45,879,-252,-251
10,107,40,1143,399,-490
15,72,34,734,99,-840
24,34,53,438,-253,-557
22,-20,67,241,-173,-432
33,-7,58,-360,-65,-451
33,-28,54,-293,-141,-401
20,-16,40,-353,-167,-100
29,-6,25,-306,-87,-97
35,4,18,-304,-52,153
46,46,-3,-471,42,86
63,46,-6,-131,2,28
61,71,-9,-128,-23,53
26,87,-5,-384,-135,-58
19,106,4,-557,8,-90
40,88,-12,235,301,15
71,106,-34,-64,168,-56
77,118,-22,-291,179,-214
71,98,-16,-23,310,-188
66,107,-16,-315,182,-155
70,107,-26,-209,282,-180
105,102,-27,-12,374,-85
99,107,-29,12,113,-23
62,120,-31,-267,107,-73
88,114,-22,-117,452,-88
63,108,48,-1058,-2588,-4771
-102,47,-127,-1531,-2896,-6154
-98,85,-35,2038,-3892,-6178
58,108,30,3264,-4132,-5699
36,-89,91,5364,-7433,-3687
21,112,25,-3091,-2815,1409
26,69,46,-7,2091,-12
123,34,-44,-71,-51,53
65,-5,2,-220,918,-28
59,28,-41,69,-85,-137
124,-10,2,-494,527,-243
-123,-47,-12,279,54,-67
-63,-23,-12,-383,466,-110
-19,-97,54,232,987,-50
103,78,-79,-806,1910,1243
-31,11,-98,-839,3217,1440
60,-21,33,-712,5032,2315
59,-16,-87,-3267,4134,3963
59,115,121,-2235,1927,4442
66,-97,-92,853,1158,3473
-77,70,-42,-2458,2211,3226
-121,48,-16,-953,1055,3193
-95,-43,27,2412,1052,2950
-103,76,17,393,633,2496
79,22,10,1236,65,1872
42,0,35,723,86,791
9,-52,38,784,388,441
6,-121,47,429,388,-41
-6,87,70,656,-315,-179
19,71,81,14,40,-380
23,29,87,-171,50,-614
26,13,83,0,-8,-206
37,35,73,-256,-116,-275
45,39,80,-396,-136,-349
43,22,71,-49,18,-293
56,29,67,-258,11,-208
49,41,51,-199,-128,-306
47,35,57,-25,94,-125
51,33,41,1,228,-20
59,74,20,-416,-98,-53
67,90,18,-378,-28,-133
45,75,24,-17,12,-15
54,98,10,-290,110,34
52,104,7,-117,-31,53
63,-118,0,-407,-31,-40
69,-126,5,-207,6,-47
67,-120,4,-222,-102,-108
79,-100,-2,-868,50,-347
99,-117,4,-425,-200,-314
72,120,4,-64,15,-200
94,-38,38,-2177,-1323,-4694
-23,119,109,-1232,-2453,-6360
-34,88,-57,3463,-3193,-6287
34,50,43,2976,-4874,-5285
-124,91,-46,1988,-5113,-4577
80,18,-54,1666,-1396,-839
-96,108,30,-400,-1364,358
-97,64,-48,-879,2185,105
59,79,0,297,-717,17
95,-3,123,-221,342,-114
112,-44,-88,249,-173,173
-86,-31,-48,125,256,37
-79,12,117,73,94,-212
-74,-17,-127,-110,-205,50
-46,-13,-81,-197,169,-32
-1,9,-94,-425,254,-41
12,-5,-77,52,-77,83
66,-43,-32,-466,449,350
-75,124,-122,-756,2343,326
53,11,-48,-843,2814,2241
-87,-120,-72,-3498,4226,2994
-67,28,26,44,3982,4038
-3,18,-111,-1165,4062,3649
-10,83,-111,-57,2442,3551
41,-66,-110,2215,2810,2831
43,88,-17,-2057,2741,1730
114,-69,21,532,301,2195
93,-126,77,-469,79,2884
84,-123,85,-545,29,2185
69,-127,78,309,105,1430
51,-104,77,505,-101,434
23,117,68,699,-365,-143
-14,27,100,1025,-497,-138
-21,11,103,342,-176,-352
-11,-23,90,-200,-14,-439
-12,-13,99,-622,-540,-365
-2,-8,100,-649,-335,-556
19,-6,89,-547,-160,-750
7,-37,83,-178,-350,-509
-4,-7,74,-737,-415,-448
6,7,60,-827,-216,-569
21,-3,54,-432,-198,-427
32,1,49,-123,-184,-259
14,14,57,-94,-39,-48
-5,18,42,101,212,-57
-16,36,36,-32,84,2
16,46,35,57,374,30
25,57,25,150,506,133
18,69,15,174,8,195
27,90,3,-287,41,172
-14,83,20,-1340,-2725,-4525
36,-66,76,-983,-3253,-4956
118,96,-91,623,-4396,-5407
57,124,39,1912,-3098,-5914
-126,-28,-4,3677,-3539,-5791
94,67,47,296,-3288,193
116,-1,107,-160,34,198
-79,98,-93,-611,501,633
122,-8,-102,-24,236,-127
113,-17,-69,-368,35,16
-87,-81,-8,-79,431,60
-24,-57,-4,-669,684,134
102,96,116,-1691,1846,779
-61,34,48,-994,2793,1169
-47,-100,-80,-2058,2573,2074
-15,-108,33,-985,3043,3191
-6,-30,-41,-523,3001,3168
30,76,-66,-1937,2724,3827
29,-97,-99,-1136,738,3789
81,-30,-69,-1629,630,3807
122,-51,9,-977,634,3602
-99,91,10,-1145,82,2680
127,-40,74,2002,-98,2541
96,81,71,-65,207,1421
43,61,47,107,73,448
19,-22,52,904,134,-343
-1,-109,40,1005,305,-755
0,106,31,505,184,-576
5,64,53,265,-278,-506
17,27,52,-121,-80,-494
27,14,57,-246,22,-464
17,9,52,-63,-124,-154
17,27,40,-264,-72,-137
17,26,33,-87,55,35
35,48,19,-67,20,57
39,67,13,-1,-91,112
41,87,14,-261,-63,-40
26,92,0,-217,-33,-208
26,79,3,-62,12,-130
29,80,-1,-123,-4,-17
40,97,-15,-251,-80,-84
43,107,-14,-297,-226,-51
33,110,-6,-377,-159,-139
31,103,-9,-115,121,-176
38,108,-24,-113,111,-157
39,109,-30,-113,-111,-126
40,113,-29,-254,1,-91
40,115,-32,-182,35,-61
41,121,-38,-181,4,-20
45,-126,-38,-184,0,-22
89,79,5,-677,-2339,-5576
-78,-63,32,769,-2844,-5938
115,105,-76,2381,-4401,-6450
127,125,-96,4962,-5151,-4469
-64,114,111,-249,-1092,-1691
44,-2,-44,-332,-973,1071
-35,31,120,173,822,287
98,27,54,-650,161,44
99,-56,100,216,16,-151
-125,-52,114,26,-94,-252
-69,-83,-89,-398,23,145
-41,-70,-119,27,106,-85
-27,-56,-113,-174,76,76
12,-38,-118,-322,198,-116
60,-80,-33,-548,309,331
-94,-88,18,-1315,1192,723
61,-29,-108,-1566,3272,1564
-115,-47,-32,-1597,3683,3458
-99,43,-1,-1261,4197,3779
-31,-124,-65,-3543,4142,4563
86,-41,-110,-978,-659,3402
-72,-25,18,-1898,532,3937
111,-86,54,-263,656,3383
-51,19,78,305,773,3121
-86,-38,71,1467,651,2836
-121,6,66,575,233,1831
64,3,57,414,-174,974
-6,-90,87,765,-481,-175
-6,82,94,875,67,-231
-10,70,75,105,440,-674
-7,-13,69,431,423,-761
4,-15,71,-159,-13,-485
15,-29,73,-328,-155,-247
20,-26,67,-219,-101,-263
24,-4,57,-348,-55,-328
19,-6,52,-193,-133,-236
28,-7,48,177,92,-217
15,10,34,-299,-211,-303
26,15,61,-684,-265,-161
36,27,55,-521,109,-185
33,29,39,-49,25,-95
31,61,20,-572,21,-135
27,58,13,-365,-81,-97
31,63,15,-153,136,-80
37,76,-3,-77,131,-88
36,80,-9,-157,-17,-48
37,85,-2,-155,27,-7
39,88,-6,-10,145,-7
43,102,-12,-174,29,17
42,101,-6,-50,101,48
9,-64,-37,-2325,-2203,-4959
124,78,8,878,-889,-6604
41,126,62,3494,-919,-6865
112,-9,107,3839,-3313,-5937
-44,28,-58,2506,-4886,-1848
-84,105,99,-1545,-114,-577
-41,-123,-28,-679,1476,646
-112,-11,-14,-395,-370,195
104,10,29,-132,-432,209
-108,-45,113,-198,-118,-60
-47,-39,-83,-569,147,23
-49,-8,109,-6,-81,-187
-23,-39,-109,-287,305,-35
-3,29,60,-429,-31,-250
38,-23,118,-259,93,36
50,-19,105,-79,252,-62
60,8,111,-226,272,-89
109,-23,-62,62,810,-40
-58,-56,28,-504,2061,-31
101,99,40,593,3608,156
-71,113,-37,1110,3665,876
-89,-67,-122,-4,3396,1870
-69,-51,23,249,3014,2217
-89,-32,67,46,2917,2456
-81,-31,26,227,2520,2031
-78,-22,47,367,3145,2098
114,25,109,-648,2479,1734
124,5,106,-1071,1960,1523
106,-57,-93,-130,2423,1916
108,76,65,-1572,1986,977
17,-12,-86,-147,1063,1353
20,35,-104,-1249,1277,580
-38,8,-83,352,223,504
-39,-11,-64,889,143,-166
-52,-4,-56,177,-193,-383
-44,-55,-32,-343,18,-463
-50,-83,-4,261,-33,-175
-49,-89,-3,543,-74,-73
-39,-73,-13,72,59,-128
-37,-87,-10,520,-3,88
-41,-82,-11,776,137,160
-47,-53,-33,693,72,27
-42,-46,-40,591,79,-252
-53,-55,-38,164,-2,-49
-49,-37,-62,-386,165,-129
-56,-51,-67,-59,-24,-11
-57,-24,-92,-419,101,-124
-58,-29,-95,-716,63,-179
-42,10,119,-2418,360,-458
-42,33,66,-3997,-3,-589
-98,-124,63,-2061,-1948,-4182
10,-28,30,112,-2551,-5419
25,72,95,-166,-3953,-5121
13,93,-85,-106,-4606,-5328
-40,-115,48,1773,-4445,-4392
-104,-65,114,545,-4539,-2905
-45,-98,-76,466,-700,453
28,30,51,326,329,-10
-42,-73,126,-595,696,-148
-105,-29,-32,370,-142,-22
-75,-26,11,-117,300,135
-52,12,-33,-183,-195,46
8,-24,39,-17,188,123
17,-41,65,-121,555,176
89,-71,93,-341,1062,322
-79,110,-115,-208,2295,1090
-80,-96,73,-1586,2306,1442
-67,117,-66,-587,2185,2424
-41,-65,-118,-2940,3039,2612
-31,77,76,290,2301,2812
57,62,23,-1844,3429,3687
-35,-72,104,545,1361,3223
-112,-1,28,-1070,321,3829
113,113,91,993,1161,3558
-81,9,85,117,1121,2782
124,-52,87,1429,694,2691
71,32,82,164,186,1736
5,20,69,578,24,834
-48,-35,104,699,-236,-441
-54,-103,109,960,219,-517
-58,97,109,795,299,-521
-51,76,98,110,-54,-650
-38,57,105,-338,-295,-577
-40,16,117,-132,-214,-623
-27,-6,114,-106,-1,-535
12,-9,102,-153,221,-327
-3,-1,92,-222,-297,-154
-58,18,97,-483,-389,-62
-42,31,102,-794,100,-23
-31,34,83,-235,14,137
-10,68,67,-296,51,220
-18,88,53,-252,77,176
-23,106,44,-118,69,74
-19,115,37,-124,50,-1
-14,119,27,-192,-32,-10
-13,124,28,-280,-63,-69
-8,125,31,-281,-45,-105
-10,120,34,-114,-10,-166
-1,120,31,-135,30,-204
0,113,20,-109,46,-121
29,-125,18,-1269,-1801,-5050
-51,78,32,-1214,-2975,-5703
44,-101,80,1976,-4941,-6500
-81,33,0,1907,-5449,-6961
107,126,76,4180,-5098,-2704
-28,-21,22,-2660,41,155
-51,54,106,1361,28,50
118,-17,25,-1078,616,155
105,12,-103,195,-102,-167
90,10,-10,-429,-214,144
-100,-67,4,116,302,-104
-96,-38,-40,-195,-10,14
-70,-49,-46,-47,48,72
-49,-32,-66,-226,-258,104
-17,-62,10,223,192,172
12,0,-65,-111,196,-73
33,-39,3,214,644,-292
109,-79,121,-336,1335,79
-16,95,-104,-1683,2803,771
31,39,56,-2582,3122,1736
65,-102,-66,303,3195,3981
-122,3,61,-4123,3090,3173
-105,38,-56,-2042,1981,4070
-96,-85,0,-692,865,4330
-73,-28,50,1229,807,3452
-71,48,80,-1776,1411,3189
121,-75,51,1193,209,2694
99,-60,102,995,225,2433
70,-34,79,830,669,1688
14,-34,24,1708,377,789
-20,-28,50,862,-427,-359
-13,111,110,987,-93,-512
-45,22,-106,726,3,-598
-52,13,-107,24,-143,-410
-45,-9,-105,-329,-47,-284
-20,-15,-114,-396,-70,-316
-13,-16,127,-131,-28,-255
-9,-18,119,-109,97,-253
-15,-15,109,-224,-48,-207
-24,-7,97,-228,-17,-111
-15,5,85,-312,128,-18
-17,16,73,-267,-78,5
-17,34,68,-431,-99,60
-19,57,62,-447,-90,-31
-1,59,60,-360,82,7
26,76,42,-350,15,63
-8,93,19,-245,-130,-37
-24,94,27,-379,-195,-180
-19,86,27,-329,-11,-14
-2,98,15,-125,-14,-28
-108,-105,67,-1114,-1588,-6640
-54,-50,93,-410,-2026,-6745
-104,0,-44,3273,-3494,-6958
-47,-86,-92,4571,-5530,-5039
-76,-112,95,1902,-3721,-1798
-127,-57,-108,-388,-338,728
-26,-44,-115,-471,1847,221
-122,20,-58,-487,597,-15
80,6,92,415,-229,-75
-106,-53,-41,-482,384,-90
-59,-90,-43,77,178,119
-30,-77,-14,-259,331,287
7,-96,11,466,782,230
103,-67,94,-1008,1373,441
-93,113,68,-1771,2175,1554
-41,81,-40,-1625,2976,2334
-26,82,-119,-1324,2772,2759
47,-55,15,-1479,3441,3756
39,28,10,-1939,2685,3869
112,91,-46,172,1284,3680
-62,-24,-28,-2198,1667,4027
-115,-94,-4,773,274,3306
-17,-67,54,783,811,3778
-36,-15,27,769,942,3085
113,124,12,220,-556,1759
29,82,37,212,-710,66
-9,-105,76,2024,-218,-903
-39,48,78,2682,656,-592
-28,56,77,1125,373,-708
-33,56,95,-402,-332,-476
-18,16,124,-1094,-621,-319
13,-35,-126,-358,-25,-472
14,-52,114,152,208,-239
-7,-25,89,-259,-132,-156
-8,-22,76,-302,-38,-86
-3,-18,61,-90,27,-10
-15,0,62,-94,-7,13
-1,5,45,122,261,51
2,24,47,37,-130,8
24,40,39,-58,182,187
7,61,33,-239,22,85
7,75,21,-333,-127,-19
5,81,29,-719,-77,113
0,95,29,-478,-9,7
20,102,14,-23,136,-258
20,103,5,-119,43,-304
25,82,1,-3,63,-366
23,63,-2,-160,-27,-202
8,68,-5,-321,-52,-192
18,60,-9,-69,64,-76
-80,125,-124,-2371,-1448,-6663
-77,4,-64,778,-1822,-6689
0,123,52,6392,-3700,-7071
40,-103,-31,7165,-5086,-4618
13,-34,76,-3459,-2289,84
84,-114,-121,-827,475,-644
-63,1,-54,13,447,166
127,-15,-37,-1146,472,245
122,-53,-77,300,651,-390
-98,-76,-44,48,208,-235
-40,-49,-70,-559,-104,-50
28,76,94,-711,1274,165
99,-114,61,-593,1338,303
-110,-119,31,-2351,1408,1823
-65,103,-74,-1692,2484,1588
-62,-62,82,-1625,2492,2296
29,-71,96,-1273,2986,3322
-23,-102,93,506,1903,4217
67,-71,-18,-2914,1824,3898
49,76,14,-1208,1137,3974
-115,67,-25,-1074,-297,3537
-99,94,57,2163,800,3660
-70,55,62,-18,679,2731
-127,2,31,827,261,2059
62,40,53,384,-251,901
-8,-48,59,806,136,-134
-24,-122,63,1141,391,-439
-25,86,62,831,58,-493
-15,51,77,339,-151,-482
-2,28,86,-246,-64,-391
0,0,71,-172,-116,-388
0,-3,78,-238,-154,-200
10,-10,72,-261,-72,-185
9,7,61,-315,-174,-121
10,10,64,-254,-92,-94
8,18,52,-164,41,-29
7,41,39,-249,-59,-40
8,45,37,-143,-17,-48
10,52,31,-130,5,-79
12,58,25,-209,-3,-5
10,74,19,-318,-56,-53
8,73,19,-212,-22,-59
13,88,5,-215,42,-90
20,96,-3,-262,-20,-114
15,93,-5,-241,-124,-180
15,88,5,-240,-6,-136
24,90,-1,-112,64,-133
25,96,-10,-218,-17,-113
22,95,-9,-223,-38,-57
23,101,-13,-233,50,-46
-37,126,33,-2267,-1278,-5812
-52,-76,79,132,-2161,-6280
-101,20,-114,1790,-3351,-6202
-75,29,49,7349,-5808,-6594
126,-105,-92,1324,-4029,-1502
-69,-86,-64,-537,-2928,-297
16,85,43,-810,2777,292
-90,-43,-101,-480,88,9
58,-16,81,137,42,11
96,-53,-75,-60,-97,36
-86,-55,-69,-144,-30,-6
-47,-69,-25,138,171,10
-14,-69,10,-290,525,246
66,95,117,-534,1419,860
-48,61,113,-1648,3016,1369
-24,75,-36,-2740,3803,2402
14,82,70,-1189,3510,3440
62,-1,-34,-1297,2524,3995
107,-2,-49,232,2670,3687
-70,-92,-106,-1089,3018,4091
-116,-124,-19,641,1583,3561
-26,-53,-16,-589,1545,3528
-4,-66,4,-86,1194,3261
-30,33,8,-514,454,2613
115,113,7,-658,-815,1304
33,43,40,588,-882,-317
-6,126,70,1913,163,-906
-2,74,55,1580,724,-958
-2,48,49,791,296,-705
-9,1,74,61,-510,-446
7,-11,87,-430,-474,-374
20,-23,89,-359,-162,-275
21,-31,87,-76,-87,-284
13,-5,70,-301,-79,-53
8,4,63,-325,-86,-19
18,26,47,-199,51,37
34,44,36,-150,39,3
29,63,24,-243,-1,15
13,59,23,-45,-118,-68
7,76,17,-390,-4,-76
30,70,18,-203,-41,-45
28,72,14,-83,-11,-18
21,91,2,-303,-36,-112
25,82,9,-206,-38,-16
30,88,5,-206,-2,-73
35,104,-2,-362,-13,-59
39,97,-2,-189,14,-27
36,106,-13,-234,5,-98
38,109,-14,-281,-25,11
44,122,-19,-179,57,-65
33,-48,-9,-3032,-1332,-4704
113,-127,29,-1408,-2612,-5126
-77,-7,96,-775,-3192,-6761
117,47,18,2999,-3854,-6824
-75,34,-88,3795,-5009,-5288
-7,22,61,1488,-2330,-2095
93,38,55,356,-665,587
-34,72,24,-978,1046,-94
89,-43,-37,-21,750,172
51,-10,-98,68,-366,129
109,-19,-48,-270,348,-254
-119,-50,-28,-112,-41,-36
-63,-92,33,-55,216,167
7,-99,51,-143,733,190
85,85,-118,-564,1464,1128
-98,50,121,-1680,2583,1880
-75,51,-53,-1171,2702,2783
-25,98,63,48,2824,3132
-30,-44,36,-1257,3211,3638
13,69,-88,-286,2679,4134
73,-107,-45,-1040,2780,3716
-127,-46,-76,77,2122,3569
15,-21,1,533,2594,4330
-3,-88,-31,-1848,1724,2362
-113,1,37,1830,-512,2501
58,62,74,774,-1475,1458
16,39,55,497,-820,77
-1,-46,55,975,402,-480
-13,-113,58,716,787,-943
-17,79,56,1059,53,-747
-15,16,70,1138,-58,-492
0,-9,92,571,-157,25
18,17,75,-370,120,-406
35,11,64,-671,-161,-514
21,-25,66,-19,-231,-254
7,-5,57,-304,-117,-125
9,25,44,-588,-45,23
3,36,39,-394,-237,-3
11,61,33,-264,48,74
20,72,19,2,132,-92
23,78,18,12,-79,-71
21,80,12,-20,93,-24
55,83,7,-57,188,-4
17,87,5,-88,-396,14
1,108,12,-572,-79,-51
19,99,17,-408,-99,-82
26,119,-7,-646,-116,160
49,-118,-6,-477,24,-110
35,124,-12,140,21,-93
30,-105,-15,-474,30,-182
47,-31,24,-1904,-1645,-4817
83,118,48,-940,-2550,-5687
-104,-45,114,982,-3170,-6206
-59,-80,-3,2329,-4701,-7004
-98,122,58,5811,-8218,-5764
-56,16,105,-2682,-300,-60
54,-9,107,1417,-748,366
-23,66,9,-943,1639,241
89,-16,-91,251,-22,21
45,15,-35,-351,-33,79
112,-49,34,153,90,-195
-70,-36,19,-39,243,-39
-79,-41,26,-267,97,95
-27,-50,23,-254,397,13
21,-72,71,19,489,100
119,82,-29,-460,1525,1227
-46,79,-99,-2281,2421,2111
10,-42,9,-1530,3898,3018
19,-29,-109,61,3794,3474
106,-111,17,-303,4787,3668
122,-118,-105,-522,3250,3877
-92,34,-85,-749,2117,3969
-100,-5,7,-1392,1683,3304
-61,25,0,412,719,3186
-89,10,63,1375,615,2661
89,117,35,-377,460,1297
16,58,20,596,167,189
-20,-30,58,1424,-30,-424
-36,114,54,1439,317,-598
-29,83,55,634,253,-446
-43,31,56,672,-555,-34
-17,34,93,-490,-355,-238
-17,20,98,-593,-70,-215
-13,19,113,-364,-228,-150
-6,18,102,-83,-39,-71
-9,41,90,-240,-11,-73
-7,52,74,-412,-20,56
-11,73,67,-251,-89,-29
-7,80,58,-210,132,-52
-7,93,46,-299,-36,-66
5,89,33,-84,-25,-97
7,95,28,-247,79,-137
8,97,18,-204,-25,-136
4,96,20,-188,-106,-120
8,99,21,-261,11,-32
5,111,21,-302,-78,-16
11,123,17,-253,40,20
24,-120,11,-219,38,-72
26,-121,3,-64,51,-50
16,-109,-3,-302,-56,-111
-83,-128,54,-1426,-2002,-6386
-119,-15,78,1132,-2359,-5963
89,-100,-124,1645,-5138,-5569
108,54,-112,4341,-6058,-5145
62,29,-127,2801,-859,-726
19,49,4,-1396,-2383,161
-5,-38,81,-9,1236,-165
-116,-35,-122,-859,106,229
85,-79,-75,513,-104,106
104,-38,28,-408,50,324
-100,-8,-54,259,-304,-14
-79,-15,22,-321,194,37
-49,-11,-36,-34,-168,-15
-31,-42,13,-2,318,-96
5,-34,0,-497,320,57
87,-121,109,-8,841,540
-29,68,2,-1322,3126,507
38,-24,95,-1074,3347,2034
86,102,95,-2331,4041,3118
26,61,60,1045,2771,4156
125,-104,-37,-3640,3290,3603
88,77,-69,-142,1871,4283
-110,-52,23,-334,1350,3365
-89,34,19,-403,1030,3599
-120,-11,62,1088,617,2821
117,12,62,10,907,2103
52,9,16,807,490,1074
2,-2,23,1190,-115,216
-11,-86,38,1567,185,-419
-31,66,58,1420,137,-721
-55,34,80,813,-93,-289
-43,19,109,58,-169,-195
-18,7,124,-282,-194,-206
-10,1,121,-215,135,-160
-13,-3,115,-148,-69,-139
-18,3,111,-71,98,22
-6,22,92,-223,275,110
-1,49,89,-330,49,78
16,56,73,-67,352,32
27,57,69,5,138,-58
-14,58,61,-62,15,-13
-21,66,62,-416,305,-123
16,53,42,-40,385,-40
23,73,22,-164,110,-81
15,62,28,142,94,-208
7,56,37,55,125,-168
3,62,50,-159,197,-182
35,76,33,-364,151,-70
45,83,29,-300,107,-11
86,113,28,-381,31,63
107,110,-11,-1513,-3408,-4951
5,11,91,-576,-3680,-6731
-80,-52,-5,3758,-6016,-6463
104,-76,-15,2152,-5507,-4570
67,-76,-11,-646,-3849,-934
88,-122,79,-17,716,75
-105,42,-52,296,728,302
40,58,-101,34,-297,-36
80,-5,16,-54,95,96
85,3,-15,98,-413,139
-115,26,11,-490,-52,-13
-85,10,-2,-463,-53,-73
-65,-41,17,-44,70,-74
-49,-19,-12,-313,-93,131
-20,-15,4,-111,82,-5
14,-38,52,-19,382,86
38,-45,35,-329,654,193
-127,-95,123,-984,1535,668
-66,-121,34,-369,1449,1259
-15,102,21,-1332,2707,2149
4,90,-89,-337,3243,2420
33,-100,75,257,3574,2876
45,-6,56,-802,3146,3456
94,90,-20,-783,2696,3709
68,96,42,-1250,1714,3713
-108,-77,21,-727,1478,3768
-109,127,92,907,1316,3557
-29,21,47,346,1481,2581
121,60,63,286,-95,1436
0,-16,103,950,-707,602
-13,-123,102,1767,380,78
-39,-90,85,-43,336,-417
-38,38,114,718,-36,-202
-19,28,122,746,-63,-117
-25,14,122,322,-128,-352
-26,-6,-120,-108,-19,-106
-26,-3,-117,-435,-119,-83
-8,8,-119,-276,-87,-96
-10,1,-128,30,148,-51
-10,10,112,-72,201,23
-7,43,88,-393,-119,94
-12,49,84,-249,-123,10
-5,62,75,-152,199,-84
-1,68,64,-26,103,-104
1,66,58,-143,-19,-76
0,71,60,-212,-88,-28
7,88,50,-230,35,-107
8,89,52,-205,15,-79
13,92,44,-160,24,-101
17,100,34,-242,-6,-83
59,50,91,-2103,-1430,-5163
-126,-23,127,-932,-1871,-4971
57,-111,-113,-194,-2588,-6890
61,-65,-42,-72,-4070,-7432
-124,-75,69,2270,-5101,-6757
42,14,56,5204,-7557,-4602
91,-33,-18,-2682,-279,186
-53,119,124,214,1556,401
90,78,38,255,-104,-114
69,32,-45,-243,86,87
67,-82,66,16,249,159
107,-33,49,97,155,252
-113,16,62,-239,284,234
-122,19,23,452,-8,27
-63,27,72,-344,541,-34
-17,-63,85,547,644,184
82,-111,-75,-432,1832,279
-55,12,-112,-354,3100,1445
-54,124,-3,-1923,3520,1811
-35,-124,108,-2220,4010,3186
-40,-40,29,-856,3030,4006
48,115,-10,-2098,2852,4621
50,-9,-71,-2268,945,3692
-94,-10,48,-937,146,4435
-80,24,100,887,276,3427
40,-28,58,3057,1554,3881
0,-59,11,-183,558,2694
78,18,-21,-1093,-1207,608
-10,20,48,893,-739,-2296
-2,-122,63,3347,1212,-1227
0,108,17,2447,851,-689
-15,76,22,645,-383,-847
-32,54,61,-728,-1251,-376
11,37,85,-1485,-743,-587
36,-4,80,-610,-187,-512
25,-10,71,233,12,-208
23,19,59,-160,-88,-204
-1,23,39,-53,-77,-43
-14,31,31,-4,93,8
10,43,14,2,238,68
18,40,-2,397,139,191
12,46,-10,403,-46,516
35,105,6,-381,109,530
46,125,-16,-451,63,491
10,-101,0,-735,-580,20
21,-113,17,-513,-31,-211
30,114,10,146,298,-277
33,104,-15,407,225,-131
22,119,-23,-130,-137,-152
21,120,-14,-457,-8,-249
-70,-17,96,-189,-3042,-6543
-102,57,-66,3251,-3837,-7065
98,-114,-111,7222,-7956,-4022
-101,-48,-127,-11,-1406,-1208
53,-77,-112,-791,-881,504
-27,10,89,314,1955,-253
123,16,-110,-1405,468,-18
51,-46,-127,214,-282,29
-128,-68,-8,-278,254,-40
-71,-79,-20,781,339,-148
-82,18,-87,-1003,-193,148
-51,-60,-35,172,169,-94
-3,-23,-31,-384,113,12
10,-53,2,-328,286,78
112,74,-72,-240,1826,392
17,6,-14,-1510,2948,1310
94,-47,107,-2305,4308,3200
-99,37,115,-2671,4400,4133
-43,29,-97,-916,2486,4873
-36,-57,-75,-2931,2080,4577
-76,-81,-27,-443,1000,3901
-6,83,2,-7,294,3803
-86,-18,58,2064,317,2587
-92,33,56,804,1547,1756
97,43,19,139,1192,915
19,-25,27,1417,-167,1053
-18,-60,60,1340,-409,556
-6,117,52,1365,392,-234
-21,93,86,887,202,-297
-20,23,106,449,-352,-557
-2,0,114,141,-345,-324
-2,-25,127,-191,-258,-433
2,-24,125,-346,-153,-274
4,-25,120,-337,-90,-213
-5,-23,114,-236,-45,6
6,9,87,-326,142,6
9,15,80,-186,46,2
5,34,58,-267,100,110
11,60,44,-334,-41,-91
11,56,44,-137,-5,11
13,74,33,-250,72,-79
14,75,27,-221,-112,-161
19,77,29,-354,-109,-90
24,81,32,-299,-7,-144
25,73,38,-135,-11,-135
23,81,25,-272,46,-79
29,88,21,-280,-52,-113
34,86,19,-31,106,-64
41,96,5,-84,158,-23
36,101,-2,-226,71,47
123,52,-108,-2400,-1175,-4927
-19,-119,-68,220,-1059,-6714
48,-49,-24,817,-2214,-7200
-32,42,40,3312,-4370,-8519
105,-54,99,6209,-5891,-4439
-6,-114,-112,-3569,-1685,-924
75,90,32,1631,420,827
-62,118,-12,-1145,745,138
105,52,-118,167,-56,149
70,8,-26,444,-46,-309
-110,-63,33,-439,129,-110
-66,-52,-17,-47,-145,-53
-43,-87,44,102,303,116
-36,-21,-22,-56,293,-10
-15,-35,-29,-194,149,33
-3,6,-2,-329,52,32
30,-7,1,-22,196,-23
56,8,-20,-196,202,-33
-118,-82,95,-170,933,341
-22,-120,-103,-1973,1852,1388
44,43,5,-869,2273,2517
45,97,-44,-1641,2966,2808
68,111,-127,-274,3029,3450
118,7,52,-1255,3507,3325
92,59,42,-2232,2857,4021
-115,20,62,2555,1401,4199
-10,-60,56,576,2419,3974
-81,-24,75,-1140,1215,2374
-88,118,74,-190,1090,3495
-117,-14,112,522,-154,2959
70,93,97,-412,-506,987
-39,-21,-115,1001,-781,-461
-52,108,-102,2129,113,-627
-60,72,-119,1511,589,-776
-42,25,124,869,464,-653
-30,19,-110,87,-453,-469
-36,-21,-88,-143,-574,-278
-41,-30,-71,-606,-214,-256
-44,-33,-89,-286,108,-105
-32,-23,-106,-308,188,13
-25,6,123,-348,-29,18
-27,7,108,-76,92,61
-28,33,97,-344,23,43
-21,36,90,-179,69,110
-21,59,81,-342,-39,-10
-23,55,82,-261,-26,-9
-16,72,71,-432,-6,-96
-15,73,71,-357,-99,-64
-18,73,70,-199,24,-136
-14,77,61,-239,56,-154
43,114,90,-1609,-1347,-5148
118,-88,109,54,-2576,-5738
-74,122,-108,-802,-3964,-6101
98,25,29,2764,-3696,-6993
-84,35,-91,5986,-2496,-3636
-76,96,60,41,-3286,71
38,-90,67,375,-210,135
-70,85,-94,-813,1279,-29
119,-27,-82,138,-293,397
115,1,-55,-20,267,-121
-86,8,-35,-354,-127,-163
-49,-61,25,-171,108,29
-29,-31,-28,-492,137,8
-7,-43,-52,254,17,-41
8,-43,-19,-285,224,19
47,-26,-31,-167,184,25
75,1,-12,-149,438,-89
113,-46,61,-798,664,481
-45,-117,119,-1547,2221,539
-17,102,36,-595,2301,1286
3,-36,-70,-3299,2312,2057
2,83,-111,-1556,2280,2810
72,122,104,-190,2778,3976
95,-1,116,-2448,2627,3518
120,36,14,-854,948,3858
-44,-70,45,-1996,758,4233
-76,-93,80,1067,101,3332
-73,-109,-106,1068,1042,3270
-94,6,90,-290,1006,2567
78,78,86,23,-544,1541
-9,7,-126,1276,-712,-467
-29,-125,-128,1743,300,-821
-54,23,125,1852,377,-764
-46,11,-121,975,153,-190
-36,-1,123,178,116,-221
-25,-6,127,-332,-188,-266
-18,-28,-114,-195,-247,-83
-19,-18,-114,-239,-92,-65
-16,-9,-128,-210,27,-92
-17,-12,122,-160,-61,-7
-14,5,112,-319,-25,-14
-17,11,95,-201,74,-6
-20,37,74,-615,-24,12
-6,37,74,-143,-6,-36
-10,42,64,36,-29,-174
-7,47,68,-349,-72,-161
-10,36,65,-163,-33,-54
-7,50,62,-318,-10,-36
-8,57,55,-269,3,14
1,73,48,-284,-7,-85
-44,53,-55,-4548,-575,-3684
64,-106,107,205,-1575,-5130
-30,-117,40,-1111,-2088,-6326
96,-46,79,1281,-4239,-7209
38,43,-123,3275,-5941,-7147
111,-58,122,8697,-10041,-3654
59,106,104,-5808,-598,1550
96,56,-17,805,1269,-239
-49,3,24,-288,100,206
101,-19,-45,251,-192,-22
-117,-41,61,298,167,-3
-95,-5,-33,284,-366,-293
-40,-56,60,-351,162,99
-23,-3,-22,-249,61,-152
0,-43,19,-221,115,-49
16,-19,0,3,-95,-56
51,-34,24,-424,474,-64
65,-17,5,-109,243,7
-111,-26,90,-681,1133,-83
-11,-120,-80,-1089,2189,807
23,119,65,-2222,2374,1112
66,-17,-30,402,2364,2569
127,82,-42,-1600,3646,2652
88,112,72,-1123,3233,4218
-109,26,18,-2399,3949,4809
110,-119,0,-2854,2044,4161
-13,11,53,-1973,823,5111
-42,70,90,-341,105,3693
-69,55,-60,2462,-839,2326
33,112,-91,1184,-73,169
-27,12,-97,533,485,-452
-67,113,-118,1889,477,-472
-66,72,-122,1534,160,-367
-49,36,-125,929,228,-432
-48,14,-114,459,-20,-185
-35,-5,-105,56,-116,-181
-40,-12,-96,-33,-170,-214
-38,-24,-96,-95,-24,-103
-33,-17,-105,-265,48,137
-31,16,-123,-335,-39,87
-30,22,121,-105,18,7
-44,3,126,99,104,311
-27,45,98,-370,259,160
-16,72,78,-339,-134,-118
-21,56,85,-71,-15,-57
-24,64,77,-182,84,-139
-26,64,69,-273,-102,-63
-18,72,67,-310,-55,-180
-16,58,70,-94,6,-103
-14,71,60,-248,-15,-126
-35,117,-86,-3176,-758,-5986
-111,-103,-47,-891,-139,-8700
-30,-88,49,6556,-240,-8335
-35,-107,-60,7987,-4575,-7334
-125,-36,59,-1969,-177,-2024
-67,46,64,437,-4726,663
113,80,-91,-868,1621,-36
-111,-127,102,-722,605,164
110,5,94,155,102,-685
-18,116,-30,-504,215,169
-28,-103,122,410,-53,116
4,29,-122,-1003,-177,-36
9,88,84,37,903,230
20,110,55,-399,-368,-54
34,-21,-61,-343,183,1
77,4,-80,-114,69,-115
110,-15,-52,-280,366,54
106,-18,-84,-193,289,200
-60,-70,7,-586,1038,592
-97,32,-61,-1345,2756,1533
8,-17,75,-259,3160,3299
18,110,-125,-2398,3363,4335
-13,-60,-29,-1314,2234,5301
6,-89,-71,-1672,2178,5451
-14,-119,24,-976,1818,4604
-12,7,21,1163,158,3839
-9,-97,-126,1029,1303,3341
-49,-119,105,1448,2027,3214
-94,60,84,1112,475,2636
17,102,69,1370,-595,-76
-46,-87,-97,912,58,-1037
-65,19,-99,1513,603,-529
-76,33,-106,515,79,-331
-47,-7,-84,-227,-332,-375
-28,-63,-63,-1,-96,-394
-32,-63,-68,-241,-99,-401
-29,-81,-63,-236,-90,38
-25,-55,-76,-260,-8,57
-21,-21,-99,-223,25,-57
-25,-12,-117,-145,77,3
-28,1,127,-149,-46,-78
-29,7,121,-265,-81,-62
-30,3,125,-201,-53,-16
-23,14,115,-168,17,-107
-23,17,108,-110,14,-94
-20,15,99,-38,52,-144
-19,14,94,41,43,-57
-9,22,92,-51,65,-116
-8,20,86,9,108,-62
-6,30,80,-27,117,-56
-101,-19,98,2910,-2834,-3537
-88,80,-59,4765,-6216,-3655
126,18,-25,1023,-6449,-5449
-30,14,-89,305,-7011,-4253
6,61,116,-2643,-5466,-2702
123,83,111,-69,-3994,-1547
2,-106,85,-605,-2154,-1201
-72,-44,79,-180,114,-312
67,-9,-16,382,1170,333
-31,50,-114,-1014,207,278
109,105,115,-1123,311,146
-48,-11,-25,64,755,-180
32,-66,45,-642,1308,776
31,-50,-102,1534,2277,2406
-16,102,108,619,3399,3250
62,1,76,-1131,4990,4062
27,-107,-68,1914,3430,6689
-24,115,-117,276,3709,6615
25,-6,82,-1201,2370,6876
-33,-111,-12,2559,2344,3751
-28,-12,110,2743,1546,1589
-8,-79,-88,-290,751,979
104,123,-64,608,-276,1376
7,65,-25,1698,-841,256
-15,-26,61,1941,-772,-597
25,-46,59,776,238,-552
23,-85,56,309,144,-570
28,125,60,373,-111,5
25,-109,49,154,-80,123
32,-89,38,-171,-23,-104
48,-93,19,-219,79,-133
52,-90,3,-76,-5,-26
56,-74,-12,-40,4,17
57,-58,-26,-226,18,-140
68,-48,-40,-255,49,-105
72,-39,-59,-75,29,-146
85,-36,-66,104,24,-127
82,-30,-74,179,-16,-37
90,-15,-82,7,103,45
98,-5,-93,-37,124,54
107,2,-109,-23,128,9
114,15,-127,-182,80,-56
114,14,125,-6,-6,-21
119,18,123,96,-8,40
127,42,120,-112,14,-16
-122,47,120,-42,38,-71
-122,53,115,-58,10,-69
-112,55,112,49,65,-78
-109,58,108,69,64,-32
-105,66,98,83,42,-15
-25,-39,-119,1172,-4920,-4571
-13,-45,-101,1735,-5489,-4901
51,12,-108,616,-7287,-4217
82,-63,119,-119,-6655,-3755
-66,11,-23,-469,-5800,-2693
69,-67,95,-1964,-2563,-2399
54,57,98,-376,-1726,-505
13,110,-9,655,-354,120
-99,-2,-113,511,232,299
99,-52,91,131,319,235
100,-42,29,368,48,-272
-98,-82,21,-81,-155,29
-19,124,51,-29,223,188
7,-88,-9,142,125,48
22,-85,9,-118,230,13
85,-93,9,75,428,59
-90,105,93,153,1032,605
96,12,-75,-430,2793,1569
-34,-120,-121,-873,3695,4014
57,-32,-23,-733,4515,4836
-109,57,98,-718,4599,4940
-34,-64,56,-540,3956,4311
-1,9,114,-1752,2290,5671
65,-128,-123,-955,-279,5709
-109,-70,-38,3328,536,5661
-104,79,63,4219,54,5240
-31,-73,-28,1483,459,2613
-18,23,-33,-1900,-787,119
-119,-125,-5,-541,-1082,-1921
-81,-86,57,2238,-341,-2182
-41,-57,29,1519,750,-1013
-46,-29,16,-273,576,-224
-63,-44,6,-757,-379,151
-42,-36,-4,-571,-333,74
-22,-34,-4,-281,-57,-204
-14,-32,-28,-200,129,-103
-18,-21,-51,-143,44,-49
-15,-8,-57,25,-125,-1
6,11,-59,166,30,45
11,33,-71,-56,47,-76
19,43,-84,-95,49,-32
29,54,-96,-172,67,-213
35,47,-107,-114,107,-160
50,49,-123,-43,75,-48
52,66,126,-176,16,-102
64,69,124,-48,45,-101
72,79,120,16,14,-60
79,90,118,-44,31,-44
84,97,114,-15,56,-91
94,101,107,-5,101,18
-84,-45,-126,1146,-3696,-3719
-67,73,-15,2139,-7293,-4211
115,-4,-79,2095,-7040,-3897
-65,-43,54,22,-7231,-3785
71,-102,90,474,-6114,-2996
-115,-62,-50,-814,-3884,-2624
-54,-121,101,-2994,-1196,-1645
-67,46,48,-233,213,-816
28,122,-66,-463,113,824
120,-82,24,-73,542,134
99,-78,-26,199,267,-158
-86,-116,32,28,95,177
4,-72,-32,102,295,-339
7,-127,-7,194,143,157
59,-87,-10,231,353,-35
113,-118,27,385,549,451
-24,88,-122,560,1611,668
-115,-1,-75,-88,3683,1398
22,68,46,-1706,4497,2321
103,49,-51,-1842,4712,3186
-75,115,-116,-2573,3472,4046
-3,4,116,-3889,2191,6041
-45,-109,119,-4478,380,5463
22,124,5,-85,-965,5247
116,53,101,3521,-340,3633
64,-54,37,-581,143,2148
-80,55,-32,-333,370,1297
63,-22,-32,314,-409,1378
11,-105,-38,904,-280,-75
25,79,-44,1158,-168,-427
3,-3,-17,1329,-316,-157
10,18,-21,189,32,180
24,81,-42,-1723,206,69
23,64,-77,-985,-75,-88
16,43,-68,119,-74,111
77,58,-70,165,382,22
59,43,-93,403,284,108
55,28,-100,625,109,131
111,24,-97,409,291,168
73,24,-96,632,-84,361
74,27,-94,285,-19,227
91,55,-89,-342,181,-106
90,26,-105,320,138,160
99,47,-96,457,-2,-9
123,44,-101,383,156,-107
117,40,-93,252,111,-7
117,71,-98,-557,-247,374
88,57,-102,-415,-813,9
99,-24,-79,816,263,447
-107,110,-125,-675,801,503
-14,46,-4,3784,-4156,-3772
87,125,29,2111,-8888,-4379
-116,-76,-65,-115,-9189,-4225
55,53,-24,-612,-7741,-3917
123,-49,-53,284,-5262,-899
-113,-52,71,-794,-2138,317
86,-49,-48,-161,-25,624
-2,63,-51,814,949,-64
-33,123,-47,479,1175,422
24,-69,120,227,754,295
124,-97,107,81,354,-354
-52,123,-125,-883,370,730
111,-97,125,-276,931,180
-63,91,123,-136,1600,1050
14,47,74,-672,2556,1749
-119,71,-10,-1435,3140,1042
-48,112,-52,-2001,3360,3064
-6,-121,-107,-1387,3613,3450
75,3,105,-332,3181,6212
50,57,-23,-283,1779,7283
106,-13,-36,-3724,167,6582
-75,59,-46,-718,-268,5197
-15,24,-56,256,300,4313
-73,-124,-99,2411,-351,1814
-41,-113,-29,1259,-925,1646
-126,-77,30,573,-1102,1981
-44,-81,-35,1389,-326,-222
-84,98,-22,1726,-332,-1496
-44,0,-17,1757,193,-1281
-36,4,-15,751,185,-152
-45,15,-17,114,-102,235
-22,9,-8,231,-319,55
-3,8,1,384,-113,-167
7,12,-18,31,149,-470
3,14,-34,-511,17,-453
16,2,-48,-458,75,-236
25,17,-71,-422,138,-122
35,32,-90,-333,153,-117
37,46,-109,-158,131,-213
53,34,-124,420,119,-191
78,38,127,310,168,-34
53,52,127,370,-289,169
65,74,-114,13,-145,86
107,85,-109,-249,119,-180
119,66,-121,71,78,-218
85,83,-126,-319,-181,106
80,104,122,-516,203,66
104,101,107,-35,321,69
119,107,88,146,182,227
-126,125,78,20,21,162
19,106,11,3989,-2943,-4880
30,84,117,4151,-7723,-8635
56,-112,-92,2819,-10063,-7381
15,53,88,-447,-9505,-4318
-5,-64,-65,455,-5258,-1026
-101,52,-95,-1130,-716,142
113,-12,99,-103,1555,-442
-45,-79,2,1286,232,-50
83,-102,90,-52,255,51
116,-64,-108,-610,307,220
-76,-123,-17,-145,194,103
31,100,71,397,844,-347
-115,93,-126,983,2024,58
81,-87,-24,347,3830,2082
47,69,-107,216,5176,4389
-118,53,-104,-2923,6426,3035
-91,18,49,-1618,5430,5785
70,9,55,-1062,4863,6451
-128,-79,100,-1987,3605,4432
-103,54,-42,1398,912,4477
-26,-11,-20,1290,1250,2758
100,55,-41,164,-207,2909
105,2,-61,-653,-1282,1439
-8,-117,-53,-499,-917,184
-7,55,-24,526,-225,-542
-12,15,-15,946,136,-629
-12,-12,-15,817,16,-513
9,-23,-13,481,-42,-293
8,-36,-21,368,-142,-269
15,-31,-6,-30,-252,-87
27,-22,-12,-323,31,-66
37,-21,-26,-66,229,36
43,-20,-57,372,149,175
52,7,-71,75,26,126
67,20,-81,-90,130,-25
70,20,-90,-78,118,3
72,28,-101,-66,19,-43
82,42,-117,-97,99,-270
95,47,-124,-74,104,-249
102,44,120,21,-35,-109
100,55,127,51,-105,24
105,61,-126,33,32,-9
110,67,-128,61,83,31
120,81,118,-31,-26,75
124,87,115,103,-101,-97
-127,95,103,114,-43,-161
-127,96,97,26,-13,-200
-121,93,88,105,0,-136
-112,104,76,-100,70,4
-116,108,78,-16,-13,-33
105,-7,-7,2998,-1687,-3382
-114,-124,47,1183,-2236,-5432
-113,124,-46,2433,-7587,-5865
60,-60,-116,1576,-12748,-3397
89,-118,121,11,-8275,-2153
49,11,-11,-1540,-3250,-722
-63,10,-104,-1118,-700,-269
82,-84,17,1149,180,45
-114,69,-94,-42,415,215
50,-3,-126,-432,662,137
109,-97,112,92,883,-246
-20,89,123,-247,1253,662
-84,-65,-97,1040,2246,1125
91,96,-46,1359,4521,2403
-17,-29,-14,-334,5624,3950
24,-92,-69,-1455,5982,4496
103,120,-109,-2098,5450,5772
-40,37,-126,-2862,3861,7289
114,41,75,1397,1659,6052
59,-64,-70,1084,227,523
18,-1,56,2998,-555,2662
-13,-15,26,1646,1075,5369
120,62,-122,447,791,-1339
-27,-113,-104,-132,-604,-1475
44,30,-39,185,-1031,-732
41,-20,-32,521,-496,-464
19,-37,-32,779,-90,-246
26,-28,-28,722,-180,-394
60,-29,-15,367,-288,-304
58,-24,-7,-103,-497,-466
64,-21,-3,-396,-277,-461
57,-23,-16,-332,-64,-131
69,-18,-34,-14,271,280
77,5,-70,302,225,417
98,25,-87,95,321,223
104,39,-104,-213,217,189
107,45,-123,-217,192,197
111,54,126,-119,82,227
125,79,-127,-103,-55,95
116,90,-123,-1,-8,-293
-125,66,-128,350,-10,-566
-110,49,-117,149,-22,-135
121,71,-127,-126,59,141
-122,81,119,-37,176,27
-102,90,112,-71,106,145
-98,106,101,-177,22,25
-93,122,102,-252,-11,-7
-89,126,103,-37,85,-70
-85,-113,102,-121,8,-206
-80,-113,103,2,-3,-311
-51,28,-86,2451,-750,-6250
-80,-55,-81,3569,-8449,-5954
-22,-118,125,2153,-12377,-4502
-26,81,48,-1077,-7909,-3808
-20,55,46,1380,-5147,-842
-98,-60,-52,-925,-1763,-77
45,-66,-70,-44,726,25
-79,13,-100,658,647,332
87,-107,64,304,332,151
112,-52,115,-353,394,-55
-88,-127,77,-124,440,-272
-18,84,60,-4,543,42
68,62,93,184,1471,323
-76,-27,-116,254,2754,1264
43,-36,106,-1136,3879,2734
96,-20,8,-1055,4229,3405
-30,-23,-72,-1398,4510,4259
-118,63,70,-290,4247,5979
-61,-56,87,1214,3289,7014
101,122,-124,-1283,4174,5138
-8,69,-63,-332,53,1058
56,-79,-16,197,548,2342
-36,-115,-73,6,668,1881
-117,61,-76,289,156,1558
-116,-125,-71,-880,243,1621
100,-121,-121,-665,168,280
-12,94,-113,332,-1191,-1096
-7,43,-68,1153,-1349,-840
2,28,-40,974,-647,-453
13,63,-47,-477,328,-236
11,68,-74,-1111,470,-411
31,68,-91,-869,64,-286
56,74,-91,-384,56,-276
57,89,-101,-271,178,-272
63,82,-120,373,159,-48
73,98,123,281,77,36
87,108,113,82,97,-19
93,113,110,98,4,43
95,118,111,157,-10,21
106,123,109,39,64,-12
114,-127,104,-19,34,-51
118,-123,106,-40,-51,-77
127,-119,112,-37,62,-102
-128,-118,108,7,81,-101
-122,-118,105,98,60,-44
-114,-112,98,85,35,-28
-107,-111,97,144,54,-18
-108,-104,94,59,40,-2
-98,-101,94,54,66,-20
-92,-101,91,100,74,-20
49,80,107,5124,-433,-4540
26,-48,-58,3334,-4445,-4942
98,38,-117,-255,-6480,-6844
-106,86,-94,1545,-8173,-5933
9,77,14,711,-7971,-4523
122,34,99,2007,-6827,-2266
-91,33,72,-1932,-2895,-593
113,103,84,-599,-347,75
-74,111,75,515,193,783
127,114,86,247,388,361
109,-22,108,544,412,-432
-99,-91,91,-300,456,33
-37,114,6,343,277,-125
-5,103,23,380,458,-41
73,98,94,360,899,262
-57,76,93,225,1819,623
21,8,108,755,2903,1343
-101,-33,68,-356,4631,2158
-37,-97,13,203,5185,4257
101,92,-118,-3795,5912,4878
72,-49,13,-5446,3354,5501
-123,-11,89,-4833,1292,4487
114,104,-5,-1145,-1650,2556
-47,-99,84,5821,-254,5029
-32,35,54,2760,422,5184
-64,74,-27,740,319,1787
14,19,-70,-307,-305,680
-55,124,-34,-156,-1290,-583
-20,35,-7,853,-752,-887
-25,7,-4,1128,47,-468
-26,-4,-23,960,296,-326
-18,-12,-31,656,-68,-375
0,-19,-30,212,-162,-339
19,-7,-29,-669,-145,-406
26,-9,-36,-876,15,-394
26,-9,-52,-632,53,-209
30,-4,-65,108,48,123
45,16,-78,443,129,196
49,37,-98,300,92,169
63,53,-114,15,126,8
85,46,-119,134,150,16
82,47,-126,156,-39,112
74,82,-128,-341,-1,-25
96,76,124,-128,155,-295
99,66,122,134,-11,-63
105,81,114,-97,-1,-93
108,91,114,-246,82,-103
108,90,111,88,71,-47
-128,97,106,24,100,-3
-125,108,99,-45,23,28
-45,13,97,3775,-4434,-6018
-48,-108,67,5589,-8823,-6931
69,125,39,442,-7755,-6226
-84,-116,-54,127,-5455,-2952
-39,-87,-122,-1124,-314,-799
-24,-111,57,-1316,507,197
88,94,-113,-143,1636,1180
118,-72,-94,-192,1156,365
-28,38,-102,317,631,-189
45,-102,-13,180,972,610
108,-99,70,1234,1674,2413
-7,20,49,524,2507,6006
-100,-68,-95,-59,3471,5253
42,108,-20,-1960,5101,6513
126,-8,-96,-3124,3959,5625
-47,47,-11,606,992,5729
-53,-12,-90,3396,-1286,4601
117,42,-87,522,-389,1546
-9,-1,124,7126,-1538,-980
-52,-9,106,5074,2231,78
-116,-4,-37,877,3224,714
23,-31,-10,-1855,1345,-345
-18,126,7,165,-1370,372
-1,97,45,2200,-1371,1161
35,-53,46,396,131,17
25,-33,21,-1419,569,-722
7,121,1,542,-50,-190
7,-81,2,-288,-316,-157
29,-67,-7,-749,57,-431
39,-87,-21,-104,142,-412
52,-85,-42,159,100,-205
52,-48,-58,-578,47,-184
51,-60,-64,120,-15,20
68,-41,-78,170,125,9
79,-31,-88,148,93,70
80,-13,-99,-28,34,101
93,8,-110,-164,124,-69
96,19,-118,-298,65,-147
104,31,-126,-383,23,-195
109,34,126,-300,100,-206
113,41,117,-206,94,-158
121,46,107,4,67,-90
123,56,102,55,10,-32
-119,62,101,131,61,-7
-117,83,95,-49,-9,18
-111,97,96,-132,39,-86
-100,108,92,-388,64,-130
-102,121,90,-407,56,-121
-99,122,88,-16,129,-169
-88,125,79,-64,117,-140
120,114,-54,3631,3422,-4745
-26,46,80,7390,-6335,-6707
-117,-113,-75,3181,-13721,-5412
-84,0,5,-3468,-11228,-5169
47,-119,-110,-24,-9222,-2886
-128,-16,80,2597,-5283,453
112,-55,52,921,-504,515
-78,82,78,-516,1078,-200
-111,-119,91,-300,111,306
76,-126,1,-14,1087,-79
-5,22,-119,-324,2626,913
93,29,71,716,4184,2320
-28,12,-59,1817,5979,3219
-104,86,-24,744,7359,3466
52,96,116,-2440,8201,5010
-7,99,71,-1605,4706,6574
-27,116,-86,-3837,-914,1366
-88,-33,-40,5218,-1014,162
-100,89,85,2958,2640,2014
-31,22,25,1488,2181,968
92,-65,40,-379,188,672
89,126,63,-809,-674,448
85,50,107,-233,-1029,-7
74,37,120,256,-425,20
65,30,-128,611,-31,-24
76,25,-121,699,161,-45
81,25,-113,694,-87,24
92,39,-84,720,157,-761
118,2,-82,1284,845,-513
121,19,-85,356,247,-137
-125,19,-86,-16,-227,-93
-125,17,-97,-207,-230,-35
-106,23,-85,55,63,-520
-95,31,-91,114,418,-268
-100,56,-102,-58,348,-286
-78,57,-108,-8,239,-66
-82,74,-120,-199,-27,128
-76,82,125,-240,-28,210
-70,88,122,-327,-31,434
-91,91,105,-554,-208,818
-101,105,102,-822,-228,617
-82,111,91,-618,176,149
-76,-122,80,-451,190,-163
-70,-120,82,-43,15,-123
-66,-117,82,116,-68,-165
-70,-105,84,-36,-41,-258
-73,-109,84,-45,5,-253
-75,-116,80,110,53,-190
-65,-118,69,99,105,-82
-53,-110,66,-59,60,33
-42,-111,-69,841,-5436,-6656
-88,15,-122,2270,-7692,-7711
-69,-21,-20,3180,-7295,-5112
-52,19,-50,1644,-5091,-3077
-35,78,76,-2513,-1244,-1773
-61,-78,13,42,-556,859
-115,125,-95,-186,-343,208
-58,-96,87,546,385,-61
-32,84,123,277,1073,290
37,-1,101,1066,1945,880
-40,-49,-92,511,4133,2416
13,7,3,-1128,4398,4149
-86,33,98,-3033,5346,4901
32,121,-26,-2726,4504,6928
115,-65,22,-1829,2141,6637
113,81,82,-574,1189,6468
8,-102,-119,-243,-266,4201
113,-93,-105,3472,-1230,1329
103,-111,-107,807,205,205
54,-45,120,-1109,1683,2073
-107,-6,83,-1888,488,1530
29,-57,78,-954,-851,-971
61,-127,126,1193,-720,-1322
70,95,-125,1959,-165,-735
77,98,126,1012,-90,-582
66,94,-125,-29,-333,-742
76,90,-119,-903,-183,-743
81,82,-127,-945,82,-667
81,88,121,-682,135,-381
85,101,108,-208,113,9
99,119,103,20,45,225
112,-116,97,-3,48,268
-128,-99,95,102,64,216
-117,-96,89,112,148,67
-118,-87,83,-30,68,78
-112,-87,82,77,71,-31
-106,-84,82,-22,95,-124
-102,-84,79,-108,87,-134
-101,-89,81,48,32,-107
-99,-87,83,73,46,-54
-97,-85,80,95,93,-50
-90,-85,74,160,27,0
-82,-81,75,171,35,-5
-78,-80,70,139,62,-23
-75,-77,71,16,39,-55
-68,-78,73,32,42,-58
-67,-73,73,-94,50,-79
-66,-75,74,-16,45,-53
-63,-70,74,-21,78,-33
-59,-67,68,18,75,-59
-64,63,19,3715,-4274,-5016
-105,-51,7,3260,-8120,-6549
-126,-96,-55,-1318,-6247,-6593
87,-109,-51,-2554,-4807,-6379
73,83,-18,-864,-2086,-3246
3,-38,-14,-1384,-577,-551
39,97,16,-30,81,856
-98,-53,-65,128,503,1224
-60,116,-30,595,844,-78
-14,-29,-23,618,1033,464
-120,-105,14,1862,2391,2069
46,-46,-46,-1043,3554,4192
-59,119,-104,-2661,3586,4947
89,-53,110,-2912,1837,6383
-113,93,94,-2445,-341,6785
-30,-72,-111,-1033,-238,5730
77,-91,-42,134,-882,4081
-79,118,-60,2886,822,3480
117,-63,-84,4030,600,3228
107,72,-114,4398,1168,3793
1,110,-120,2304,937,2154
99,-75,-119,-1718,223,25
8,79,-92,-2451,-969,-1606
49,-13,-57,-300,-887,-1145
45,-32,-52,1141,-238,-91
30,-6,-61,1158,32,18
46,18,-71,-95,-102,-554
55,9,-75,-668,-106,-697
57,-3,-69,-650,-121,-428
68,-4,-72,-162,141,-123
76,13,-88,192,108,185
86,27,-101,413,44,201
97,34,-109,560,100,241
103,45,-123,374,130,165
106,56,125,5,138,94
120,69,115,-307,170,4
126,70,111,-96,110,-63
126,75,105,-9,23,-161
-119,77,104,56,54,-175
-118,81,100,-21,-7,-150
-112,93,102,-194,7,-199
-109,99,104,-249,65,-196
-103,100,103,-99,72,-133
-102,107,96,59,40,-10
-94,118,92,15,86,-42
-86,125,87,68,72,-11
-85,-128,83,108,32,-33
-77,-123,83,66,74,-17
-76,-116,84,-27,24,42
-72,-107,85,-43,98,-33
22,21,66,4621,-2941,-3874
95,-59,24,1350,-6758,-4886
7,116,104,817,-8604,-5067
-64,73,-69,-1307,-9722,-5390
76,-126,90,2288,-7947,-4215
-56,-90,10,161,-3585,-1175
-118,-32,-40,-532,-947,227
-36,-84,-19,375,581,294
-83,-26,-115,745,1060,243
-117,79,-117,250,1042,84
20,20,-75,528,1695,325
-32,-106,-52,99,3016,2056
39,67,-116,120,3965,3392
-114,-86,-110,-1480,5572,4803
-29,46,23,-1026,3561,5814
-35,68,-65,-1652,2544,6110
21,126,-20,818,213,5912
-77,-63,40,-1138,1942,4054
-96,-70,-59,248,712,1635
14,-1,-15,1537,2561,3523
65,25,67,1970,2525,2803
70,37,50,1736,36,1816
-8,-12,66,282,-198,871
103,74,-49,1268,-884,344
-15,-49,24,2907,-1382,162
-77,-14,-23,1760,356,177
16,45,-19,-997,1039,-455
72,8,-48,-1431,476,-705
55,-60,-49,-68,-497,-656
23,-53,-40,928,-671,6
40,-22,-37,364,-179,-177
68,9,-49,-741,231,-199
51,13,-79,-954,26,-37
56,24,-97,-682,-29,-100
79,42,-104,-424,30,-94
84,47,-113,-110,16,133
80,65,-110,147,30,261
93,77,-117,502,156,217
106,76,127,615,213,122
109,81,118,330,8,106
107,71,121,499,111,82
108,73,118,419,174,30
120,77,108,53,178,-10
-114,77,104,51,136,-107
-99,68,101,291,116,-286
-101,63,96,292,24,-226
-107,57,102,314,-91,-133
-104,61,105,163,116,-197
-107,57,99,69,184,-11
-92,65,98,-69,138,299
38,23,-7,1466,-5773,-5844
-60,-8,115,-475,-6851,-5672
39,-111,10,-580,-6740,-5862
67,108,92,1055,-6503,-3694
-43,100,104,-1435,-3342,-1530
84,-106,99,-1596,-1184,-534
16,-16,-99,608,-236,173
-67,72,121,845,376,-149
-119,-60,-120,54,443,-25
-117,-82,117,38,409,-107
-73,-87,89,13,400,6
60,84,-88,337,1079,624
-51,-3,-69,395,2331,1614
26,-80,106,-89,3537,3738
-115,-28,-55,-970,4523,4837
-48,111,59,-3693,4241,6406
-42,91,-25,-5207,2410,6559
79,-123,83,-1611,-564,4678
45,70,18,4326,-2564,4643
113,21,-23,6659,-742,3693
-115,18,-89,3820,1564,3181
-21,10,-114,1073,1544,1070
79,106,-98,1377,434,989
7,125,-62,-1337,-201,662
-10,103,-60,-1304,-227,288
-16,42,-56,138,40,-57
-18,45,-49,737,-102,-367
1,25,-53,660,-60,-525
5,29,-50,-147,-150,-480
0,20,-53,-432,-22,-451
7,21,-56,-468,56,-388
19,19,-65,-135,100,-171
37,34,-79,-186,181,-84
51,47,-96,-160,138,26
53,62,-116,48,97,78
65,73,-126,102,140,38
74,79,115,84,102,9
82,95,108,-142,11,-31
87,94,111,-16,-19,-39
96,96,113,109,35,-58
100,115,111,-248,-6,-142
111,108,114,-150,76,-123
113,118,111,-203,58,-20
114,-126,105,-155,97,-86
125,-123,99,-39,120,-96
-122,-117,88,5,86,-92
-122,-115,82,19,26,-94
-115,-114,87,26,57,-36
-108,-109,91,99,30,52
-100,-101,90,133,57,38
-63,82,80,3464,-1159,-5585
99,109,29,1398,-6800,-7723
-61,-101,9,924,-8009,-8435
-44,-53,61,-627,-6663,-7083
71,-86,108,712,-4183,-4823
84,32,110,-941,-1124,-1259
16,-40,-5,-793,374,951
-93,39,-128,531,-199,634
-78,-2,83,895,604,-321
-45,-74,-96,109,1060,48
29,43,-116,830,1782,919
-12,-74,123,-145,3926,2837
60,26,-56,-1684,3807,4749
108,54,124,-1917,3190,6223
60,-7,24,-5061,3241,6906
77,-48,26,-4627,1504,5179
-115,-9,-2,-1387,-2076,3647
27,-123,64,2896,-2322,3503
15,-92,-30,682,-778,3030
-22,77,-75,-664,-239,2561
-35,22,-96,415,-145,1987
-119,-104,124,3301,-568,1083
-122,91,-119,4256,-1073,1378
103,-90,-89,1661,-760,1399
33,-86,-98,170,104,-587
7,18,-60,1365,155,-1204
7,-30,-54,2073,-80,-655
15,-37,-41,1388,-137,-420
24,-23,-42,53,24,-174
42,-16,-54,-969,160,-340
54,-34,-71,-589,140,-276
59,-25,-79,-245,-40,-80
65,-5,-86,-148,50,-45
74,8,-98,-65,117,-66
84,22,-114,-17,72,-33
88,34,-122,-96,44,-47
88,41,-125,58,76,-57
102,46,117,189,131,-129
108,48,113,136,-43,19
117,57,120,202,95,50
121,72,110,46,99,-14
121,80,105,-39,70,-85
-120,76,100,56,86,-168
-118,85,95,-199,98,-43
-116,92,85,-84,64,-92
-103,99,78,-219,110,-119
-95,114,69,-457,29,-28
-102,-116,64,-600,-98,-139
-97,-124,80,-67,72,-150
-93,-108,74,-173,23,-133
-72,60,109,3029,-964,-4102
-106,-58,-118,4861,-6674,-4171
106,-32,110,4240,-9377,-5875
-82,-84,76,936,-8800,-4713
-76,30,20,-118,-7208,-2294
47,-116,28,1151,-4353,567
-18,-49,79,-498,-838,681
76,85,83,491,-150,304
-5,115,-83,630,1049,-387
28,48,94,114,2614,780
3,78,-98,2153,5773,2546
85,96,-115,3818,8954,5183
-82,77,-78,3435,9029,4258
92,114,115,-4311,10329,5415
16,-36,96,-6431,4660,6520
-64,-100,-7,266,-2029,3937
88,-63,45,241,-2494,398
112,105,57,-1310,3000,1243
81,25,52,893,611,503
20,-96,-99,2165,-1732,-176
38,101,-86,2072,-1076,-222
50,113,-91,407,327,-259
57,92,-111,-319,581,-516
71,38,121,-17,94,-768
57,12,-109,215,-787,-1106
61,-9,-85,55,-621,-693
81,26,-90,-1048,69,-594
95,36,-100,-1192,359,-417
95,52,-125,-706,319,-109
95,67,120,297,36,193
118,88,120,489,68,312
124,106,117,439,79,285
-125,111,110,554,105,179
-124,116,113,385,103,86
-128,114,103,236,160,68
-118,121,93,-72,180,-28
-106,119,87,-12,167,-66
-101,116,82,72,47,-147
-90,112,89,108,-74,-200
-85,105,92,190,3,-135
-105,107,92,154,28,-37
-98,121,85,-166,67,-12
-88,125,84,-76,27,47
-78,-120,89,69,23,-11
-69,-110,89,0,122,-94
-66,-111,90,39,59,-69
-66,-115,86,323,103,-126
-67,-114,79,255,56,-222
-66,-117,78,123,20,-211
-63,-128,82,156,101,-88
118,-40,-99,3015,804,-4658
-112,-37,18,2987,-2798,-6444
-34,34,37,1895,-5175,-8042
117,-49,116,1100,-6940,-8076
22,85,97,2139,-4891,-6245
-90,14,-28,129,-1383,-2545
-113,-123,-58,-389,-866,171
-54,-16,103,976,-858,503
-21,-86,5,774,174,143
-14,-80,78,240,697,9
-6,89,-10,561,794,409
108,-34,44,1191,1806,1258
66,-17,-79,1154,4256,3339
83,12,-44,-3620,4644,6239
-1,31,37,-5502,2484,6106
-18,34,58,-1590,995,6818
-2,74,-87,4463,1946,7014
-51,-14,119,34,3378,6478
95,37,-127,897,380,4697
85,59,122,2270,90,2211
41,110,-110,62,585,1110
-60,-43,-95,-2320,642,1562
23,-82,83,-1116,408,-654
15,86,-117,1177,-464,-1402
37,41,-105,2174,-376,-524
25,51,-111,1570,-358,-30
19,50,-93,475,-428,-386
41,36,-76,-20,-230,-431
41,26,-75,-275,-128,-370
50,49,-71,-852,-216,-454
73,56,-82,-930,119,-556
73,54,-98,-511,237,-436
73,60,-117,-128,153,-207
82,71,119,201,99,31
98,82,108,246,119,200
97,100,100,111,4,272
115,121,96,-115,123,140
122,-122,96,-265,113,112
122,-115,94,-69,79,-46
-124,-107,87,-189,120,-174
-115,-90,85,-623,87,-282
-111,-90,88,-501,63,-383
-116,-91,94,-225,42,-271
-107,-88,95,-81,149,-174
-106,-82,87,1,120,-34
-98,-78,82,191,68,49
-90,-70,79,211,61,69
-86,-63,74,175,63,50
-81,-59,75,63,45,-17
-74,-55,76,-56,95,-102
108,-80,116,5061,-2541,-5640
101,69,-104,4288,-9619,-5654
18,119,-48,2833,-10318,-3708
-125,9,75,3285,-8737,-188
-4,54,-105,2565,-5458,1267
33,74,30,-1749,-827,779
61,14,-86,-292,-631,579
-90,12,-106,1037,-262,-585
-85,37,-11,-182,350,71
-38,89,52,184,615,32
-56,86,-104,0,671,-323
57,-3,-40,644,1303,-350
-73,122,8,1178,2265,526
89,-29,-30,-314,4322,152
-97,-71,-85,292,5728,945
-32,-11,13,-1713,6833,1944
24,16,41,-3936,7898,2992
102,-14,84,-7343,7631,3452
-67,74,-63,-3622,2456,5164
8,29,30,2208,-533,3410
66,44,33,706,-8,3286
-37,-87,21,940,-25,2595
-87,114,-15,1460,443,2901
64,-80,-66,104,-87,1497
-20,-94,-87,-1393,-444,-81
-14,82,-63,-680,-321,-600
-12,29,-55,692,118,-440
-1,12,-68,1292,212,-414
7,18,-77,754,-161,-337
4,23,-68,123,-470,-382
8,2,-56,-8,-209,-399
5,8,-57,-401,-47,-290
20,17,-64,-523,170,-59
39,35,-84,-375,188,63
53,47,-96,-9,85,79
58,63,-105,126,87,-83
71,63,-119,261,66,-121
68,67,-127,186,-98,-89
77,75,121,0,126,-68
83,77,110,-25,105,-69
91,77,104,117,115,-77
100,89,102,-44,102,-147
104,90,103,28,68,-146
109,93,103,43,62,-105
118,100,103,39,193,-143
124,100,100,203,65,40
-121,106,95,177,56,42
-122,115,88,193,49,22
-115,117,89,210,98,2
-106,119,85,190,95,-16
46,82,-30,2869,4318,-5881
107,-119,87,4397,-1155,-2316
62,-51,-74,4641,-4457,-4500
-114,118,40,2061,-7898,-4640
-83,-58,-101,2765,-10854,-4248
72,-49,-6,612,-9482,-2255
109,-90,42,928,-6582,-733
-122,-109,49,-1471,-2045,-162
-43,-33,-45,-795,-153,360
-59,31,-115,430,1171,-185
103,-40,4,-159,327,-135
-107,-66,-113,-927,1081,-337
-69,13,-117,518,1061,191
-94,-48,2,1140,3661,240
118,127,79,1309,6448,908
-127,-70,28,-1861,7899,3077
-79,11,67,-3054,6231,4830
56,-45,-51,-5523,5333,7699
24,-127,-27,-4910,777,6916
-95,118,-92,-1429,-446,4056
-60,-72,20,4270,-564,1114
-61,-41,-33,1684,439,3219
75,-6,-97,-366,1601,3285
114,-30,-128,-141,199,1107
38,-101,-124,834,-864,-905
37,68,-81,1617,-1071,-814
29,14,-54,1610,-729,-503
25,9,-57,895,-55,-209
23,18,-46,-72,-113,-344
35,2,-50,-465,-27,-416
53,9,-59,-716,-35,-558
64,6,-76,-591,-38,-484
74,11,-82,-325,5,-340
77,27,-92,-320,42,-133
83,64,-118,-630,140,-58
88,75,125,-450,82,15
102,82,118,19,134,51
112,110,104,-102,101,-29
113,119,102,-133,-12,-37
116,125,108,-76,23,-84
-124,-125,107,-120,128,-156
-126,-120,106,-81,77,-125
-121,-121,101,13,91,-124
-120,-120,98,121,84,0
-116,-118,91,248,66,91
-105,-110,85,291,66,137
-97,-103,80,247,39,46
-94,-96,79,19,63,-90
-87,-93,79,-224,55,-163
-85,-91,80,-338,79,-177
-28,84,-110,-366,4619,-4732
74,95,-27,5114,-309,-3948
121,-60,99,2970,-1781,-5073
59,-7,74,4332,-6098,-4776
17,55,-9,961,-6578,-4976
-81,-75,110,1564,-6044,-4828
26,10,-104,458,-4503,-3191
-115,94,114,1304,-2208,-1778
-43,-54,-100,-797,-1063,-816
107,-78,127,36,-50,183
40,-62,59,582,869,835
9,-109,-13,64,980,896
40,82,30,678,1980,1393
-73,78,-9,-1359,2736,3117
-13,31,-72,-1410,2570,3806
-89,42,-126,-1813,3075,5329
37,-127,82,-2006,2641,6469
-121,40,57,-2229,1904,6522
47,-103,114,-1664,780,4517
109,0,-90,2196,-532,5050
47,81,-5,5176,750,5604
-20,41,-43,3972,370,3764
-104,105,-96,697,1383,2032
65,-26,125,-2858,-138,79
-4,75,-113,-600,-1405,-2036
32,5,-60,1009,-1112,-1897
64,-2,-65,888,102,-974
47,11,-80,-312,370,-737
21,-1,-97,-594,-8,-399
46,24,-103,-891,-107,34
65,63,-112,-1462,11,-395
72,94,-97,-1543,116,-488
81,98,-76,-637,236,-271
90,107,-98,-62,212,-71
98,123,122,122,115,2
120,-108,92,74,154,-103
-128,-105,86,-116,68,-137
115,-99,93,-173,-35,-90
-125,-92,123,-77,71,-55
-119,-85,-128,19,142,-62
-118,-81,121,60,121,-61
-106,-85,104,146,124,-42
-103,-83,93,163,87,-32
-101,-79,93,166,46,-42
-94,-75,102,121,44,-28
-90,-73,107,93,87,-23
-84,-69,103,60,87,-35
-78,-69,95,20,103,-85
-77,-66,90,-91,74,-111
-75,-67,92,-101,75,-109
77,67,-41,1726,3650,-4665
-78,122,-125,4080,-573,-3299
-5,-62,-11,5813,-5713,-3580
65,-24,47,3301,-8121,-4891
-76,122,32,1253,-7857,-3879
-15,119,57,-124,-6390,-2987
-42,34,-6,247,-2887,-389
-83,-104,54,-743,-1797,-583
40,-47,-69,-1143,142,-23
-36,-15,49,877,1157,564
-3,-124,-63,179,1371,927
53,59,15,327,2211,1513
-24,40,-41,-1053,2475,2932
109,92,118,-1761,3695,4199
-18,-79,23,-1682,3606,4907
-90,-115,-34,-3193,3408,4914
-80,-114,40,-2191,1379,4703
57,-111,-102,-214,-418,4398
-65,60,-61,1750,221,3465
-90,-77,-76,5057,632,3188
39,38,-110,5414,-30,2440
-19,20,-92,1939,509,1336
-99,-16,-25,-101,233,707
-124,-15,-15,-1692,351,359
74,-104,-36,1504,-141,495
39,89,-9,4007,-700,448
42,-72,22,1196,-465,-377
56,-74,27,-1149,225,-866
60,-100,3,-1365,330,-531
53,127,-17,-404,-53,-198
69,-99,-26,-228,-41,-221
83,-71,-37,-538,27,-435
98,-64,-62,-558,111,-463
92,-49,-67,-535,-34,-279
98,-45,-80,-91,87,-77
115,-25,-94,116,170,-7
117,-9,-107,135,64,65
121,1,-118,165,72,60
-128,17,-124,131,86,-23
-122,23,-127,66,57,-42
-120,30,126,6,82,-100
-110,35,119,-21,122,-120
-108,41,112,-47,77,-70
-102,48,108,-3,88,-97
-97,56,104,-41,106,-77
-94,61,101,14,64,-28
-96,71,99,76,85,-44
-90,77,91,109,102,-96
-80,80,88,-11,46,-42
-80,85,88,31,61,-21
-106,94,47,-2471,1857,-4338
-43,-121,51,390,1257,-4678
105,7,84,2839,-2283,-4754
-55,-69,-61,3278,-3637,-5217
49,91,69,4281,-7802,-5949
-85,-81,-119,3288,-6986,-4651
33,-109,61,1556,-5816,-2609
-118,49,-110,-803,-2796,-1240
-56,123,-79,-3567,-278,-834
-95,-30,-95,997,258,923
-57,89,-108,-450,40,618
-67,108,-76,1316,105,49
-68,-104,70,-61,682,-23
-25,-112,-75,31,385,-176
4,123,-114,382,135,35
65,31,46,619,837,447
-21,-75,-43,916,3154,1129
-89,101,-22,-1044,5062,2216
103,-93,55,-3354,5154,4428
-90,3,-103,-1213,4355,7657
-55,-48,21,-4384,6875,8434
-1,-38,59,-2449,1322,3204
30,78,-39,-1381,-2483,1843
40,-36,-72,-433,-194,558
58,-14,-58,282,553,3434
-72,-78,-97,911,80,1811
87,121,-114,688,-356,357
108,117,-104,165,-99,511
86,-125,-106,2,-23,559
45,78,-100,1808,-677,147
40,61,-79,1749,-693,-598
52,62,-79,239,34,-806
60,51,-86,-940,451,-707
62,47,-92,-1016,270,-448
66,40,-104,-411,225,-345
84,58,-113,-209,145,-144
95,65,-119,178,70,74
101,78,-127,278,106,99
107,99,116,80,86,87
110,101,113,238,-44,127
125,115,113,-124,-42,-124
-125,126,120,-383,153,-196
-126,124,120,-200,126,-154
-120,-125,115,-220,153,-129
-108,-116,103,-158,162,-162
-103,-111,99,-115,108,-136
-99,-107,94,-56,81,-94
-98,-101,99,11,57,-33
-90,-94,103,46,98,-13
-86,-84,100,47,84,-46
91,25,73,2860,-3319,-5987
8,42,13,2033,-10341,-5599
-65,70,122,1121,-9526,-4273
19,113,115,-225,-6423,-2384
47,-100,-67,2459,-5851,-723
68,16,42,-1217,-1424,-715
101,-80,-117,96,-570,403
27,-74,39,1037,1242,524
41,17,18,830,2944,610
91,-42,6,109,4370,1187
48,98,87,323,5497,3524
-92,16,58,-638,5799,3973
31,37,43,-5267,5511,4321
-127,111,64,-4384,4078,5696
-49,-3,-17,718,1146,4328
-35,121,-58,10569,-287,5705
35,121,-59,3138,3057,4409
111,76,-3,-5168,5204,-637
-128,-120,-68,-1415,-209,143
45,-19,93,4224,-2835,1536
72,39,123,1852,-2234,-207
78,16,-97,-439,-212,-1634
60,-58,-107,-246,1053,-1135
43,-90,-115,637,539,-100
65,-63,-103,914,-288,389
86,-38,-93,502,-591,250
101,10,-75,-404,-684,-149
106,21,-84,-1308,-475,-841
114,16,-98,-1706,-257,-1216
116,20,-127,-1939,-47,-1247
100,46,107,-1934,17,-845
88,77,94,-1503,43,-368
84,118,94,-667,-71,252
110,-116,105,124,-29,512
120,-95,107,442,97,683
-115,-61,91,186,322,627
-103,-49,80,-159,368,376
-98,-40,72,-316,277,106
-93,-51,66,-6,205,-112
-92,-74,58,560,228,-91
-106,-77,46,532,128,-27
-75,-84,39,342,133,-88
-55,-93,48,181,-35,-33
-95,-82,57,-18,-185,119
-79,-87,67,320,28,-69
-78,-95,67,429,-2,4
-63,-91,65,48,7,-14
-68,-88,66,3,28,-13
-68,-92,65,164,59,-65
-68,-90,54,97,135,-154
101,9,3,2711,-613,-7172
85,23,-63,4439,-5520,-6041
104,-57,-83,1481,-6374,-4275
69,-95,-16,1053,-8088,-4597
-6,-49,-124,140,-8300,-3356
-28,10,1,-537,-5818,-1948
-21,70,-94,1244,-2944,160
39,69,109,-402,133,1275
37,80,-49,1285,561,10
46,-28,37,-336,616,-14
59,103,104,-669,275,-50
-75,44,-120,-510,1108,138
-71,109,-45,540,2864,809
-103,-61,47,2147,5704,1671
79,63,-107,-734,7427,4289
-57,-125,22,-2248,8629,7224
33,-123,70,-2859,7552,6820
-28,77,-55,860,3301,4176
-92,-99,-106,9983,-571,396
110,51,75,3907,197,4491
-34,72,-23,-4072,6469,-2033
40,30,52,-1047,423,-53
-10,-85,-34,916,-2534,1180
67,-35,10,-661,-1499,719
43,-23,-10,-1120,158,-373
27,-43,-48,-152,1262,286
27,-20,-62,683,262,443
47,-23,-60,1449,-410,15
56,-16,-36,1045,-589,-262
69,-19,-28,20,-552,-507
71,-28,-20,-952,-733,-448
57,-31,-20,-1131,-617,-118
53,-5,-46,-1410,-148,-31
46,-5,-68,-479,32,107
57,6,-81,261,226,145
69,40,-108,-186,344,-54
79,35,122,198,274,57
86,41,105,85,341,-123
91,54,92,-195,210,-119
105,48,91,105,73,-20
121,56,101,302,60,67
127,80,102,101,142,13
119,93,101,-156,337,-319
119,79,96,-61,293,-159
-115,84,74,-197,194,151
-100,94,63,-134,153,44
-93,110,57,-146,-23,-12
-107,-118,69,-353,-30,-205
-112,-116,87,-31,3,-379
-86,115,84,388,158,-272
42,0,-87,3770,-1306,-3752
32,62,-7,4658,-4300,-3422
47,35,-9,2253,-10397,-2914
81,-15,-35,-307,-10165,-3031
5,-6,-39,922,-7473,-2152
66,-66,87,1540,-4491,-971
-116,44,117,844,-448,-972
-32,-74,97,409,201,176
-97,81,-47,-114,771,562
46,123,106,-1113,748,495
-6,-3,-44,-310,2612,602
-68,32,28,412,4197,3353
1,108,86,-939,4934,5234
-118,20,85,-2550,4920,6706
-19,-41,-114,-4067,3501,7320
-109,-46,-61,-2307,1609,5643
79,-37,123,352,-892,4051
-113,4,121,1919,-169,2654
-88,76,113,3493,-846,659
-26,104,51,169,1533,354
116,35,41,-1839,1606,1259
59,-106,74,833,-122,553
95,56,-126,3542,-1049,1216
110,70,-119,3643,-780,1542
88,77,-112,1884,-39,170
68,91,-101,-840,542,-819
47,16,-101,-228,157,-370
48,-8,-102,673,-166,13
74,16,-93,12,-55,-514
89,-4,-99,66,269,-612
73,-16,-107,409,50,-345
82,-10,-121,304,72,-194
74,5,-126,-107,0,-43
98,9,127,-9,251,84
125,13,115,232,241,80
113,29,108,177,-10,286
114,56,118,39,-73,152
-128,55,117,351,196,-279
-120,58,114,-37,74,-303
-108,52,110,-172,72,-229
-121,50,113,172,73,-45
-121,59,102,252,217,8
-107,77,82,10,131,-3
-86,88,80,-230,115,-132
-86,87,88,1,7,-71
-94,103,95,-56,125,-125
-83,109,83,-205,252,-227
-87,106,71,-94,95,-89
-90,114,64,116,-6,-47
-79,120,62,181,-52,-170
5,-91,-53,2125,796,-5673
40,50,23,4446,-6500,-6915
2,46,23,2676,-13126,-5219
-124,-5,-79,656,-8905,-3598
-70,7,-16,-205,-6278,-1597
-113,-93,84,768,-4513,485
-22,-69,27,-943,360,-879
-58,-46,43,6,534,658
26,-113,-5,935,-195,48
114,-100,-12,175,789,-312
-61,102,7,-480,1496,394
124,47,14,-1284,3741,209
2,100,3,218,5583,1322
111,-67,-19,-1958,5592,3574
-39,96,-40,-3153,4452,4795
2,-99,-71,-1314,3426,5936
-92,87,8,-826,2796,5488
0,22,11,-2148,-412,3358
0,-98,111,-43,460,3001
-48,12,-125,1522,301,3535
-84,-26,-126,1315,345,2387
-99,-102,115,1097,591,1495
-87,-111,111,100,574,1469
123,-59,98,-1136,125,591
77,-89,108,-424,-244,-578
25,88,-114,1188,-513,-855
23,55,-111,1734,-440,-790
38,51,-85,849,-291,-495
57,66,-91,-276,271,-30
68,73,-91,-975,184,-474
75,72,-99,-864,326,-373
74,60,-122,188,196,-182
84,53,119,1009,62,-53
96,72,112,561,-24,13
107,81,101,78,178,-96
109,80,92,-37,113,-185
118,77,94,3,11,-103
115,88,95,-98,13,-29
118,94,102,125,7,23
-127,100,117,387,-16,67
-106,112,127,254,153,68
-99,118,104,-18,361,-209
-103,113,84,-112,196,-126
-100,109,70,36,166,-121
-95,106,66,149,85,-44
-88,120,62,-72,52,-1
-90,-127,68,-196,-57,44
-85,-119,83,-50,24,89
-73,-103,83,12,153,-82
-72,-95,79,-158,33,-114
-29,97,110,3329,1186,-4848
-20,112,-43,4668,-2892,-4698
-120,-16,23,3721,-11876,-5031
90,-57,91,-3397,-11049,-6359
-68,-11,-40,-59,-6837,-4589
124,57,47,1558,-4527,-1869
47,-70,106,-722,-749,295
24,32,65,542,-403,-265
-50,50,72,1617,551,-558
-107,123,-35,-158,1060,397
57,25,79,179,3227,972
-15,124,9,709,5273,2526
92,13,123,648,5368,5089
4,11,-96,240,5306,6094
-23,-68,-75,-2201,6429,6597
16,-103,-49,-3584,6851,7589
36,-28,-10,-3186,-1341,6003
-41,-80,-75,3719,-2918,514
-65,-58,-57,4756,-318,157
-25,70,41,590,3173,887
88,-42,35,329,1356,200
9,45,109,1596,-964,102
32,35,-97,1030,-1261,292
49,65,-79,-339,-333,-134
58,42,-85,-357,433,-409
73,21,-86,108,165,-366
72,23,-87,228,-136,-275
65,35,-76,209,-227,-424
77,33,-78,-85,107,-557
84,24,-91,-236,207,-485
90,16,-123,-91,192,-171
104,24,123,39,81,8
112,35,110,118,103,50
123,52,101,-10,100,-134
-126,62,104,77,87,-669
-112,73,98,325,11,-978
-91,117,109,149,48,-323
-106,-119,112,-299,-178,-535
-121,-114,-122,-244,-140,-206
-104,-121,120,125,409,-29
-89,115,98,464,257,196
-89,127,75,212,95,153
-75,125,73,148,195,-83
-73,124,69,120,60,89
-85,-119,65,-64,-103,209
-73,-102,72,-134,14,103
-62,-97,71,41,13,46
-72,-74,70,-238,-4,-192
-76,-75,77,-521,-68,-354
-70,-82,83,-309,78,-297
-56,-39,-107,1660,-1793,-4836
-68,48,-14,1564,-5699,-5614
121,-86,88,3262,-8931,-4987
-17,-20,125,-363,-6075,-4578
124,-27,-86,584,-3618,-3651
92,46,-103,-1021,-50,-870
-15,-50,-18,-287,-848,240
-17,93,0,489,-551,430
-116,-105,45,746,402,457
-54,-87,105,-1074,1500,920
5,-8,65,-1246,2159,3681
-47,99,-18,1203,2379,5499
-102,-106,97,-2574,4196,5611
-15,56,-55,-2701,3776,4655
-114,-38,14,1507,2426,4325
58,113,73,-643,1961,5272
-104,-124,121,-1088,1166,3721
123,45,-119,-1531,307,2337
-98,60,-89,3988,72,3396
-26,84,114,3301,1375,3578
41,-71,101,-35,583,1694
119,-100,80,-685,-567,-1030
101,33,-100,726,-1386,-1593
112,-9,-80,1875,-830,-383
89,-10,-87,1612,0,-89
84,-6,-80,478,-7,-496
95,-21,-76,4,-142,-419
102,-30,-74,-190,-232,-249
101,-16,-66,-241,-247,-307
112,-16,-76,-81,31,-349
118,-8,-80,-159,58,-78
112,18,-101,-409,169,0
-125,37,-127,-510,294,-141
-108,52,107,-657,259,-124
-120,73,92,-655,-62,-194
-111,58,113,397,62,18
-102,76,100,363,263,70
-106,98,90,-111,4,77
-95,109,94,-190,72,38
-80,108,94,33,191,-14
-82,118,87,91,-4,4
-79,-124,91,-228,-20,-159
-78,-120,102,-190,159,-129
-79,-124,86,67,256,-199
-77,-125,69,100,153,-146
-67,-114,63,-110,102,-174
-67,-119,62,10,32,-139
-65,-113,66,-89,58,-13
-56,-105,69,-132,111,94
-52,-82,72,-162,45,51
30,-16,69,3677,-351,-6205
-111,-60,-115,7384,-8478,-5562
31,-1,26,1269,-7631,-5023
-89,127,120,-1616,-6511,-4200
35,-29,18,765,-5200,-2046
8,7,122,-737,-3194,915
-86,-26,40,288,-162,-152
-4,18,-119,674,405,230
98,95,56,455,1028,216
-103,-90,25,276,1387,167
27,115,95,147,2511,167
-62,-90,113,170,3512,1789
75,-44,-30,-2176,4918,3584
-55,112,-1,-3941,4119,4745
26,-40,-83,-3358,2697,5971
-114,-121,-47,-1424,476,5059
6,-59,66,-1559,786,4120
59,108,-83,3098,-357,3053
120,99,-107,2970,82,2496
-42,96,-120,5179,-325,2231
-21,-63,125,-306,1199,1484
-90,101,116,-286,1124,857
103,35,125,86,338,609
81,50,-126,-303,-46,-5
63,18,-121,219,-84,-421
55,-24,-97,837,-189,-459
61,-13,-88,445,-180,-227
71,1,-83,-92,-69,-252
84,-13,-84,67,20,-431
87,-26,-92,370,39,-415
87,-21,-93,185,-47,-302
95,-18,-98,51,58,-170
102,-8,-105,-139,164,-109
106,-7,-118,95,210,6
114,-2,119,346,152,123
122,15,110,105,169,124
-128,27,107,-34,121,186
-121,42,104,5,145,128
-118,50,102,64,71,6
-109,57,101,52,117,-103
-107,60,97,19,108,-130
-104,61,90,-7,128,-130
-101,69,79,-163,135,-137
-97,71,76,-58,93,-114
-97,73,73,67,51,-94
-83,85,74,-110,69,-92
-81,91,76,-118,40,22
-85,106,78,-85,134,-53
-69,114,72,-33,181,-122
-65,118,63,-98,99,-113
-18,-124,2,356,1958,-6307
-60,-39,64,4917,2073,-6953
-2,47,-125,6509,-4742,-4547
77,44,107,3035,-10704,-5136
-7,-26,78,3576,-10502,-3202
54,27,78,-646,-7255,-516
-29,-41,52,221,-3492,-525
-51,-61,47,-125,-97,-468
-97,-49,-12,-631,798,551
-96,15,-55,544,1010,259
-38,25,116,395,1501,1191
-119,82,53,841,3658,3056
60,102,-66,-504,5379,4323
51,69,51,-3568,6576,5472
-84,107,1,-7041,4414,4886
114,123,99,522,1381,5312
-1,-128,97,7949,-501,1560
-20,-54,13,-1161,2505,3422
59,-100,30,985,2216,2392
-54,-113,61,1566,1377,2314
-91,-115,94,-393,422,2143
-124,-125,87,-1555,197,1155
102,92,113,-1221,-260,124
99,26,-125,978,-231,-344
95,28,-115,1218,-136,-76
92,52,-119,243,-31,-472
106,62,-117,-253,136,-1114
127,71,-108,-529,-73,-855
125,59,-86,-292,-419,-618
-125,113,-91,-2059,-42,-626
-118,-117,122,-2424,307,-406
-122,123,98,-662,-30,269
-117,-99,97,-154,-162,419
-104,-63,85,-440,58,111
-92,-50,75,-515,233,-328
-92,-57,76,-240,117,-242
-100,-58,85,32,-53,-98
-99,-50,101,221,74,-41
-91,-44,98,222,111,1
-82,-36,89,150,65,107
-66,-33,80,125,101,-41
-78,-36,77,64,116,-111
-69,-43,75,24,89,-27
-66,-37,76,-55,106,-61
-67,-35,75,-85,110,-144
-62,-44,74,16,88,-139
-57,-49,76,111,66,-96
-57,-47,80,141,84,-52
-56,-37,81,73,74,-3
-47,-34,79,22,110,-46
54,89,93,1349,1940,-5880
127,-23,-75,2733,-2184,-5563
100,115,-22,2029,-6497,-6855
-7,-36,-50,1684,-7444,-6102
-15,23,-58,32,-7147,-4150
117,-35,-69,-1068,-4042,-4255
76,-22,-98,720,-3338,-1703
83,96,-37,-1407,-511,-116
57,-98,66,1025,522,744
-5,-77,-83,772,390,597
-12,-56,45,1282,1502,329
106,5,-100,758,3126,2189
7,-96,-118,-771,4718,3672
-2,59,118,-3369,5226,5921
-85,15,-48,-3652,4310,7773
49,-62,-34,-3491,1870,7198
-115,77,125,298,-747,4304
-51,126,-44,6400,-1992,3708
27,-27,-101,6641,-416,4477
-17,60,-97,3121,2527,2558
41,-49,94,-3342,3509,-178
55,-116,17,-4528,792,-617
35,59,101,-769,-1566,-192
59,32,-105,1599,-1286,-190
63,42,-102,1586,-286,-739
54,32,-114,683,241,-943
52,-3,-113,605,15,-657
54,-10,-87,420,-631,-289
62,9,-69,-772,-549,-694
79,85,-57,-3609,93,-1161
97,12,-80,-820,813,43
87,35,-116,478,216,119
100,82,90,206,70,261
121,117,70,40,169,261
-125,-121,68,-373,115,-10
-120,-115,71,-337,0,-185
-123,-106,99,-407,16,-295
-117,-102,116,-549,219,-307
-103,-104,118,-208,216,-121
-111,-104,98,180,101,-30
-106,-97,84,194,77,38
-94,-90,75,288,55,70
-90,-81,66,163,52,15
-87,-75,76,-27,56,18
-77,-67,84,-98,138,-104
-81,-66,83,-214,119,-148
-83,-69,78,-232,98,-112
-69,-66,73,-180,127,-117
-67,-59,69,-189,109,-133
-59,-57,72,-117,115,-150
111,-56,15,4702,-2942,-4180
52,98,108,4172,-10580,-5087
98,-72,120,-464,-8340,-6461
-72,81,-66,-218,-7256,-4758
-19,76,101,856,-4898,-2644
125,-81,-4,-199,-820,-1556
-74,19,20,-660,2535,1059
73,-50,41,-107,4337,3452
38,11,-66,-1504,5847,5628
-16,-79,112,1713,4967,5697
118,92,115,-2493,5885,5299
-11,-35,-67,-3768,2827,6027
102,-6,102,-418,447,4913
-7,33,-119,511,-505,2400
-66,-33,-102,1681,-789,2382
86,87,-99,2790,189,2015
74,59,74,2384,2150,1323
-28,57,87,1558,861,1041
122,-15,-124,2202,-1025,89
115,-13,-45,1045,-1320,-63
-119,8,-20,-339,-590,-196
126,6,15,-1061,-464,-468
120,-6,28,-1553,38,-967
103,-40,-29,-845,627,-1176
115,-57,-82,-138,328,-423
127,-46,126,439,-155,364
-105,-10,124,254,-32,380
-102,18,107,-306,170,-7
-92,44,113,-687,-71,-124
-89,48,-104,34,-163,-399
-107,57,-80,199,12,-345
-96,63,-98,319,247,251
-94,76,118,99,151,191
-75,88,85,-176,97,-62
-75,85,78,-279,18,-330
-77,90,85,-335,-5,-152
-78,100,99,-175,86,-105
-74,114,103,-166,125,-114
-71,122,105,-102,79,-120
-66,127,101,49,95,-103
-57,125,88,179,135,-102
-52,-128,78,65,62,28
-52,-110,81,4,32,85
-51,-96,89,-24,131,-57
-42,-77,92,-339,176,-335
-40,-85,87,-489,218,-438
-53,-86,80,-423,98,-197
-44,-75,74,-228,126,-64
-42,-56,64,-217,161,-96
-40,-39,55,-261,60,-126
50,107,96,6188,5387,-2725
56,95,-51,5575,-4062,-2542
-122,-94,117,2334,-9014,-7862
101,-17,25,-913,-10670,-5477
126,6,82,-3835,-8362,-5141
14,-116,-108,752,-5535,-3658
-35,-75,11,733,-3745,-1417
-50,102,-115,-1636,-802,-280
-38,-5,50,362,1014,879
-62,-58,36,506,1813,545
10,-112,106,-474,3709,1779
-24,-117,-108,554,5543,3039
-75,-27,-90,-932,5625,4971
-51,58,41,-2099,5288,5776
-21,-127,-79,-3476,4475,6897
121,-74,-24,-2970,-1323,7210
35,39,-116,859,-2538,4207
-28,47,-59,-499,-952,1547
40,-62,113,2401,858,1446
-80,108,62,3553,1153,1077
-109,-90,108,212,109,431
115,-123,103,-703,-93,-171
86,56,121,37,-358,-814
82,31,-125,690,-296,-912
89,40,-122,328,-193,-542
103,48,-112,-268,-220,-766
108,26,-116,-373,22,-992
102,30,-120,-338,107,-465
99,39,116,-130,223,-47
108,58,111,-121,96,135
126,70,100,6,161,75
-110,84,92,70,107,33
-115,94,90,13,32,19
-115,101,90,-12,90,-15
-104,112,89,-104,133,-80
-102,118,87,-160,75,-104
-94,127,92,-276,176,-196
-93,124,94,-121,174,-132
-92,124,87,72,149,-47
-87,-124,78,247,91,-33
-78,-117,71,185,128,-46
-76,-113,69,83,59,-40
-74,-104,71,-123,113,-78
-65,-102,72,-143,135,-98
-67,-98,76,-23,58,-101
-58,-92,77,-134,157,-175
-60,-97,75,-42,133,-118
-58,-94,69,-12,89,-71
-51,-88,65,16,108,-40
-51,-82,66,40,63,-65
-85,-67,-65,2311,489,-7608
104,-2,48,4529,-5485,-9771
115,-110,-73,3905,-8787,-7497
-40,7,-85,-532,-5701,-5486
102,-53,82,-225,-3520,-3858
-55,93,-27,-1750,-608,-575
91,76,-69,267,932,1044
54,-114,-28,708,596,995
-12,0,63,1485,2004,1663
-102,115,68,759,4074,3025
102,122,-13,-752,5090,5558
27,-63,75,-3746,3612,7895
-87,47,40,-5151,1947,6876
25,47,75,-1915,-323,7553
-33,-63,3,2424,-894,5417
-103,48,-92,4977,-974,2175
31,-94,104,4083,-613,1359
14,100,112,2032,1656,1476
-31,-84,71,-1951,2815,880
114,112,71,-1248,507,573
43,59,117,572,-1570,193
62,45,-110,1659,-1511,39
60,47,-103,1313,-580,-315
49,28,-90,748,146,-627
44,22,-75,45,-107,-587
53,11,-64,-265,-200,-637
52,19,-55,-919,-101,-807
78,-2,-78,-227,462,-419
81,-10,-114,780,389,98
90,12,125,669,210,36
107,12,111,603,272,52
118,22,105,230,137,19
120,24,104,56,13,37
117,36,109,-164,-37,48
120,48,113,-132,43,63
-127,59,114,-73,96,46
-120,69,111,-48,111,-18
-115,90,106,-113,172,-402
-103,89,106,-63,266,-415
-100,95,92,-284,164,-256
-100,93,88,-48,47,-108
-92,104,87,-120,61,-96
-88,111,83,-193,115,-117
-85,119,81,-160,78,-73
-81,120,83,28,106,-19
-79,-119,80,22,129,-33
-77,-113,78,14,103,-16
-68,-106,77,-29,136,-36
-65,-99,76,-34,105,-95
-61,-98,74,-43,137,-157
-6,-98,109,-330,-745,-8582
-103,58,50,3664,-1779,-9518
92,-62,79,5011,-3825,-6950
-99,118,69,3629,-4492,-4121
-121,-1,-83,-3491,-1706,-2067
-53,90,-94,1604,-891,1247
-15,-126,22,-220,-504,849
-28,-18,-120,459,1211,602
1,-122,125,-75,2277,2095
-72,77,-119,-919,3433,4653
64,66,-68,-507,3611,4153
-22,-9,-10,-3620,4970,5710
44,5,-84,-3467,3187,5789
7,90,52,-741,-629,6277
61,12,-90,431,-2609,4489
-90,21,-109,882,-1761,3704
-93,-4,115,1031,-279,2702
35,62,112,5316,-636,1950
-33,18,107,4312,367,789
1,-92,-126,-1060,2324,1159
103,-101,88,-775,835,820
-69,82,-46,6695,-2738,186
15,-46,-41,3707,-1914,-238
48,46,16,-1475,229,-1317
86,4,-47,-4766,1524,-2042
89,-60,120,-3840,994,-1756
85,-69,113,-944,-51,-810
78,-54,-113,1693,-758,-8
89,-6,-110,1249,-651,-16
100,35,-122,-470,-133,-236
95,87,121,-2219,56,-338
99,77,121,-1364,57,-134
98,91,-127,-275,-43,65
115,127,125,18,77,31
123,-116,114,33,247,3
-128,-124,94,413,234,-10
-127,-128,79,535,114,20
-120,123,72,463,142,80
-116,122,68,308,129,83
-107,125,65,26,114,85
-104,-123,66,-128,63,89
-105,-125,73,271,-4,106
-101,-123,81,471,-13,14
-95,-114,83,97,121,-111
-90,-118,77,-48,166,-152
-84,-123,65,-163,166,-167
-82,-119,58,-246,139,-154
-81,-114,55,-236,122,-152
-71,-111,63,-29,116,-109
-72,-103,66,-35,117,-56
-60,-19,112,416,4406,-4237
-95,13,-118,4150,1069,-3990
-92,32,28,1470,-389,-4930
100,47,-69,3843,-4994,-4230
-103,-38,5,3802,-8701,-4217
45,-46,58,1530,-10476,-5129
-36,-19,-113,-2093,-7801,-4789
-64,-93,-34,1301,-3794,-3515
100,-99,5,-984,-562,-199
-82,54,9,606,1317,485
104,21,-58,642,2402,2516
-87,-70,121,-1094,3539,4311
19,-27,-62,496,4031,6890
-110,-11,-3,-2455,4399,8915
60,29,-125,-2816,2641,5892
-30,34,-29,-2296,207,6444
90,59,-103,255,-988,3569
-118,-39,-67,1682,-600,2395
35,72,-75,3118,-589,1926
9,20,96,2696,873,1827
-70,-70,83,3017,508,1552
127,-89,101,2362,-207,1146
72,91,108,1685,-292,-100
62,53,-103,575,-243,-561
73,4,-100,329,273,-462
60,-28,-101,576,253,-58
69,-7,-116,143,-6,116
82,36,-111,-862,-275,-302
100,34,-110,-1038,-158,-822
108,16,-112,-498,13,-793
98,13,-121,-41,-19,-494
88,36,-127,-97,-169,-189
100,47,124,-134,132,-90
116,68,111,-399,198,-99
124,77,99,-241,106,41
-123,91,97,-111,99,34
-119,100,94,81,145,-8
-113,110,88,138,140,-46
-110,113,87,101,141,-59
-104,116,81,33,151,-48
-101,124,78,-36,116,-80
-96,124,77,37,152,-97
-93,127,73,27,109,-73
-90,-123,71,15,95,-66
-79,-122,71,41,150,-61
-80,-114,67,0,64,-41
-73,-110,69,-16,141,-73
-70,-105,66,-40,90,-70
-69,-97,67,-95,81,-97
-63,-94,65,-133,131,-142
119,47,-67,2804,-1734,-4105
-125,11,21,1741,-7196,-4773
58,21,-87,1451,-7509,-4376
69,-113,-32,-2358,-5860,-3934
-72,102,40,-2765,-3068,-3396
-59,99,-23,1434,-2168,-1814
49,-66,107,-1376,924,-60
-44,63,97,975,1526,1026
-101,16,67,-916,1233,686
3,-86,-32,-509,2210,1403
95,-81,46,-149,2684,4734
40,-122,-31,-611,3150,5836
96,72,49,-1686,3354,6581
32,98,-27,-3448,3153,6380
-74,-74,-18,-2486,1424,5395
40,114,-57,1257,-1821,4537
-31,-39,-76,2348,-1420,2098
-17,116,-104,3283,237,3865
91,-50,26,934,2607,2220
-110,-57,31,-843,427,-519
74,105,84,-109,-1556,-1358
91,52,-107,898,-1709,-481
85,66,-107,936,-406,376
71,82,-118,425,451,-193
73,42,109,568,628,-904
94,10,106,320,234,-1119
88,-3,-122,-60,-424,-530
99,19,-107,-565,-328,-130
111,68,-105,-1688,150,-377
-123,60,-120,-558,481,-107
120,81,99,188,236,-122
-116,91,87,482,166,-30
-116,118,63,15,179,-65
-104,-118,64,-768,107,-71
-82,-110,70,-757,208,-220
-89,-94,75,-909,135,-383
-93,-84,89,-793,101,-215
-88,-69,98,-605,140,-175
-76,-55,95,-310,157,-89
-76,-47,84,-76,96,-58
-71,-39,80,19,83,-32
-67,-31,76,145,58,-61
-64,-27,77,63,68,-99
-58,-26,80,-2,114,-82
-58,-20,82,-153,108,-94
-53,-18,80,-221,152,-127
-51,-18,78,-218,137,-117
-47,-17,76,-184,110,-98
-46,-16,81,-84,126,-86
-45,-12,83,-47,114,-83
53,-96,95,2234,-863,-6216
-36,-81,25,3071,-5536,-9972
62,-52,25,927,-4342,-9338
58,-50,-17,-317,-3372,-6024
-72,58,-55,-1750,-1568,-1390
-104,-50,-58,-692,321,1906
9,-68,-71,631,458,1863
9,-73,-11,1098,2086,2387
-52,65,36,263,3925,3818
-53,68,59,-2632,4208,6654
-110,-2,25,-3446,1242,6797
40,40,111,-2135,-511,5306
-106,11,-38,449,-1916,5739
-24,125,-5,-94,-853,3221
115,-79,-11,424,-974,3271
-22,-103,-32,6013,-1865,3337
-51,-4,102,7713,-1442,2980
-29,82,71,3422,1146,1284
-103,-76,112,-3059,3052,-993
59,32,90,-2315,1264,-1649
34,-98,-74,575,-1350,-1374
59,-97,-54,2095,-1439,-257
61,-69,-42,1465,-561,23
64,-43,-37,138,267,-318
70,-65,-50,-53,357,-197
66,-55,-58,-17,-176,45
78,-33,-58,-289,-196,-276
92,-23,-58,-643,265,-475
92,-25,-86,-438,344,-175
79,-24,-116,223,58,-42
89,-13,125,281,182,-30
123,-5,120,4,115,122
112,22,119,-261,146,340
-125,29,115,113,257,119
-121,42,109,293,148,27
-105,50,109,40,137,-143
-100,57,111,-281,157,-90
-124,70,101,-317,283,-75
-104,85,89,-384,305,-149
-85,91,71,-242,234,-286
-77,104,67,-334,-3,-438
-76,93,78,139,9,-337
-66,102,82,75,-20,-346
-106,-124,110,-509,-261,-70
-90,-92,117,-909,388,36
-56,-78,87,-620,687,-190
-39,-81,56,49,267,-489
-50,-90,59,449,-241,-462
-63,-96,70,487,-106,-334
-62,-92,82,89,106,-231
114,-125,22,-3530,1431,-4086
111,119,123,1391,650,-4031
-103,-36,107,-1401,-106,-5916
-33,-118,-81,5780,-3311,-7368
104,-20,-28,1249,-4987,-8136
-69,111,-22,1671,-4947,-7210
88,40,-113,-453,-4766,-4686
-10,-3,-85,-1608,-573,-1499
-2,-17,-64,240,2269,3275
-2,-120,-75,-1153,3397,5341
106,-92,-80,-1773,3785,6763
25,20,35,-2736,2651,5366
96,-25,-6,-2202,562,6836
-47,108,-94,-1465,-1069,2882
-68,127,-102,972,-93,2989
-34,19,-65,838,-678,2687
-42,-83,-80,341,-215,2723
-28,61,-114,1133,300,2883
50,118,-114,3859,575,2828
61,124,-117,3515,126,3364
-36,-98,-91,1596,-312,2219
89,122,-101,677,-329,-298
76,-22,-81,2539,-360,-652
95,-69,-61,2156,-2,-496
89,-41,-55,60,94,-404
91,-30,-68,-1188,-71,-384
105,-47,-78,-994,-274,-682
110,-48,-74,-323,-326,-758
116,-45,-46,263,-584,-789
115,-56,-42,669,-242,-536
106,-37,-60,192,335,-196
114,-22,-99,-327,713,145
-108,-7,-126,-480,591,284
-82,23,116,-509,208,369
-101,41,121,-206,-129,203
-100,57,-117,65,15,290
-124,104,121,-299,468,103
-106,112,92,-606,585,-639
-56,90,100,-244,375,-493
-41,91,97,40,66,-160
-44,101,103,79,-29,-259
-48,109,109,-67,106,-200
-54,119,117,-119,107,-90
-69,121,110,105,313,95
-71,-118,90,32,304,-18
-55,-117,75,74,123,-45
-46,-106,79,-139,-182,-194
-46,-110,89,41,-123,-263
-37,-103,97,-164,-78,-336
-59,-95,105,-317,-106,-173
116,-76,48,-1330,-1727,-6068
-40,-119,65,1009,-2751,-8937
91,87,75,712,-2766,-9459
-52,-63,-62,3313,-3671,-6228
-78,-36,-128,541,-2249,-2215
-37,40,44,356,-129,926
24,17,65,483,1238,1695
-9,-31,22,1407,1567,2735
-96,77,107,1414,2915,6607
102,-36,-36,-70,3388,5505
53,-87,73,-1583,5026,4168
-22,53,-54,-1723,3859,3920
-41,-100,85,1176,1008,5884
20,15,111,-537,579,3782
15,-62,-24,3369,211,5097
-17,-45,-32,2739,2272,5491
-68,95,46,-355,2675,936
83,13,-29,30,-660,-611
9,-121,92,639,-2110,-228
98,125,-116,-413,-593,-771
83,73,-125,-412,425,-914
33,-16,-90,1501,-88,-222
64,-97,-79,4470,187,263
67,-111,-85,4391,106,201
41,-5,22,696,-746,303
72,38,29,-2794,-138,-129
71,6,-29,-3059,221,-249
92,-12,-106,-2079,453,-31
89,49,118,-1826,164,57
101,69,104,-1013,383,-160
107,75,80,11,400,-407
109,75,94,434,-47,-457
109,71,93,485,-82,-42
117,100,98,-166,53,-13
121,105,96,-266,89,39
-126,111,95,-116,70,43
-114,-126,93,-190,157,62
-105,-116,83,-223,226,-7
-92,-123,79,171,117,29
-110,-110,70,20,93,-23
-107,-110,72,123,144,-84
-101,-119,68,290,148,9
-91,-110,68,47,136,27
