AccX,AccY,AccZ,GyroX,GyroY,GyroZ
-59,38,72,3803,3194,-6461
-16,39,72,4485,3037,-8214
84,84,86,4037,1804,-5837
58,-7,68,863,-902,-5719
-92,-38,-33,901,-1077,-6522
-26,-96,-125,1796,-2496,-7392
-51,-121,-87,1378,-1046,-8199
124,-63,43,1128,982,-6934
33,54,-64,-1220,1042,-1024
-69,-113,19,2014,308,2300
-18,104,2,-1911,-3515,7027
-29,-124,-101,-3754,-6263,8747
55,102,50,-3243,-5557,6941
-57,48,-80,-7874,-4164,5102
113,6,-97,-1541,-26,883
-90,-34,123,2038,-471,-1959
37,29,105,-1121,-551,-419
66,85,94,706,826,-820
21,77,18,934,-608,-668
-108,63,-76,-178,754,-2499
8,-32,108,345,1134,-2915
-123,75,70,784,1181,-1962
-8,91,-42,-367,531,-1555
-115,-2,-41,880,-342,-29
61,-16,-56,2061,-1824,2174
78,-94,-92,-43,-3146,6028
102,-106,57,-715,-4488,6151
-95,-89,68,-754,-3885,5090
-90,84,79,905,-4254,3580
1,0,-126,1063,-4231,3071
-70,-83,42,643,-2511,4154
-110,47,-99,2046,-2354,4498
-43,108,84,2784,-657,1643
99,-6,50,1368,-98,-2314
-95,4,13,247,1143,-1115
-79,-99,-32,645,843,-749
-84,112,-31,731,-20,-993
-66,90,-23,299,-282,-293
-39,97,-31,-102,13,145
-28,100,-41,-550,147,-110
-15,80,-77,262,170,-27
-15,97,-68,-179,-34,-82
6,115,-83,-285,118,146
6,109,-94,125,56,27
13,114,-100,104,21,-93
25,-120,-105,-448,70,-68
36,105,-116,154,78,20
41,91,-118,458,31,31
62,123,-113,-150,76,310
59,127,-120,-408,-47,27
-7,76,-71,3267,1474,-3426
-108,-39,45,2877,1453,-5468
103,92,89,859,1750,-6917
95,-23,30,718,2219,-6798
9,-96,88,-826,2218,-7199
-81,-121,-83,-2111,2297,-7107
-3,-77,-125,-3491,2590,-5104
-66,107,118,-4052,2059,-2849
14,118,101,-2796,1194,-1416
89,-89,22,-402,871,-1909
-99,-105,-97,1190,-329,-2523
-125,115,111,4103,865,-2992
127,-42,-25,4439,503,143
55,54,-119,2362,-693,3021
113,-77,5,934,-1613,4829
-7,78,71,365,-5135,7159
86,57,-68,316,-5183,4757
-67,46,-107,-2993,-4881,6290
117,43,-123,-428,-388,2075
-122,109,77,2199,-1012,-2355
-4,86,59,-1553,-184,-607
19,99,60,598,477,-453
30,112,50,789,-107,-479
-107,-61,-56,263,196,-2543
92,83,39,606,420,-2753
-124,-68,-51,424,-403,-1637
-107,-100,-101,-71,-573,-925
60,127,-61,614,-286,958
-3,122,-4,2080,-1866,4307
107,-62,111,802,-1835,6491
-114,23,50,2538,-2349,6644
66,-3,113,487,205,5851
-4,-10,46,-470,-1683,5466
69,-111,3,363,-2208,3048
86,-49,-76,1679,-1658,2547
26,123,122,1218,-785,1396
16,61,82,1486,272,1284
-50,-8,44,1772,109,586
-81,-95,37,2125,-431,-283
-89,-128,62,-292,-463,-1005
-55,109,56,-2046,-66,-568
-56,67,5,-1607,-21,-125
-64,52,-18,-605,-257,35
-44,82,-20,-484,-79,61
-32,108,-36,-549,83,57
-15,114,-52,-288,79,146
-1,122,-71,24,91,163
-14,-116,-82,-33,50,50
10,-117,-95,-152,113,-91
15,-118,-108,-189,-23,1
12,-32,43,1876,2215,-5619
-61,13,87,1332,2450,-6146
-34,-85,49,-198,3276,-7181
-109,30,124,-1085,3657,-7209
35,13,-97,-1553,3418,-7073
-100,-52,-35,-4673,4310,-5799
-122,92,-84,-4302,4293,-3104
28,56,-71,-2634,2268,-1149
61,-73,62,735,236,-385
-76,107,-34,1985,-579,-594
-57,103,20,3607,339,-1662
-70,-82,63,3774,-202,-1027
12,-10,-3,2336,-1876,2573
7,-116,-102,1547,-2750,3391
-29,63,-91,-875,-3628,5999
-51,60,-6,-3614,-5097,8280
84,92,-119,-3813,-4820,5659
-120,-18,-100,791,-642,1657
-66,-96,93,3156,-1230,-4060
-117,-102,62,-2534,410,-1968
-102,-58,-28,654,-560,-1505
61,-2,-37,1920,122,-2367
-6,-55,-84,1940,-1214,-1848
126,-93,-78,780,-1462,279
13,27,16,175,-2847,4762
-40,-71,-103,1220,-4123,6136
-55,11,64,2924,-3899,4683
122,-64,-122,-35,-2747,5163
92,120,-101,-1258,-3255,2658
-53,-60,19,2271,-1965,2799
-17,62,-120,1252,6,2753
12,-11,95,685,-507,820
-104,83,58,2254,-462,-470
-93,-7,2,1642,320,-1314
-70,-22,8,-72,601,-923
-58,-124,-39,261,660,-456
-69,115,-59,757,227,-178
-67,120,-45,413,-331,-90
-34,119,-46,-156,-205,-79
-33,126,-40,-719,-52,9
-19,108,-59,-440,96,-39
-10,119,-66,-521,28,8
5,-125,-78,-636,27,91
3,-117,-81,-462,-50,198
14,-108,-89,-261,19,158
26,-94,-95,-226,53,144
31,-85,-107,-188,0,86
45,-82,-112,-230,53,64
57,-77,-121,-282,64,88
53,-75,-127,-263,-22,83
40,-25,-114,3545,704,-3767
71,-100,-15,1518,2002,-5916
-65,69,-7,2016,2035,-6641
-73,-12,109,140,2931,-7891
100,81,-53,-781,3582,-7639
-84,81,76,-1936,4256,-7292
16,-30,-81,-3237,5855,-8250
64,-74,-42,-4640,3483,-2832
-3,16,33,-3360,1348,-1363
22,2,61,296,780,-1340
89,-92,86,2489,217,-869
-125,-26,78,4835,1123,-1390
-123,93,-119,5291,820,-714
15,95,27,3715,-456,2334
10,-121,-91,917,-1516,2854
95,70,124,-2170,-4620,6403
110,-71,-103,-2123,-6278,8174
-74,-27,89,-3190,-8129,7168
-21,-33,-57,-3156,-3389,3191
100,22,109,452,-1740,-1078
35,-87,60,2236,141,-1861
-125,-69,49,108,-195,-2065
-29,89,53,1309,55,-3122
126,-83,-115,1802,528,-2744
-45,-111,-107,137,-1068,-690
69,85,-103,551,-1426,181
-13,125,13,2050,-2782,3772
-45,10,-14,2673,-2541,8819
-73,43,-103,1053,-1918,5434
113,-12,-108,-193,-2549,5009
-6,6,116,1277,-1463,5859
-114,-78,-26,1825,-1618,4239
-32,-127,-125,333,-974,1432
-126,-107,26,1725,-298,-1206
-105,-45,11,2465,-96,-1464
-75,-56,15,512,330,-628
-69,114,-10,331,224,-186
-62,81,-24,654,37,-153
-72,100,-17,-188,-366,-189
-48,88,-4,-490,-423,57
-28,97,-10,-638,-74,-15
-19,106,-27,-918,159,-13
-24,117,-45,-709,3,102
-12,-123,-57,-616,55,-21
4,-106,-75,-613,192,-31
15,-104,-93,-313,149,-25
24,-99,-106,-24,-9,3
30,-93,-110,-246,13,205
41,-75,-115,-424,36,204
51,-59,-122,-595,84,-28
111,120,-107,4914,2491,-5874
16,50,-52,1249,1515,-5848
-111,68,118,602,2742,-7232
92,-7,44,1926,3324,-7902
0,-29,44,-712,3822,-8238
-25,-57,-10,-1453,4233,-6862
77,-19,-89,-1892,4414,-6085
114,-93,-17,-1893,2871,-3156
-75,42,11,-1791,929,-285
-102,64,33,561,-498,-1250
-57,57,98,1998,-650,-833
-51,12,98,3589,-1220,-1749
-35,37,-21,4990,-1115,-693
-89,73,122,4249,-536,2508
110,71,19,220,-1646,4698
-117,23,111,-4925,-4031,7144
-114,103,121,-5219,-8265,9835
-123,-11,-100,-4232,-5432,5567
-6,-35,-57,1553,-2155,3083
23,-49,101,-2,-1693,-181
14,45,59,1912,163,-1361
8,112,52,-301,-697,-2553
-57,-41,96,1816,-69,-2062
-41,-39,-103,2044,405,-3501
45,-45,-114,843,-323,-2368
18,-6,-63,-843,-1071,123
-71,43,-33,-1001,-1105,1287
104,-51,97,933,-2606,3934
-24,-96,70,2293,-1618,5634
88,78,80,2713,-2392,4544
-7,6,70,1255,-2955,3155
25,77,-43,1550,-2170,4094
122,-78,87,3352,299,4571
52,-122,-55,2283,1060,1950
115,-127,-58,-1974,-252,-8
127,51,-62,-2280,-893,-132
-62,-93,-79,506,304,-900
-35,120,-75,1160,888,-1398
-64,89,-73,960,718,-1116
-28,85,-75,408,447,-350
-27,76,-77,-19,103,66
-9,89,-80,-790,-191,143
2,105,-92,-1190,-336,49
19,127,-101,-1341,-175,-6
24,-123,-112,-1161,87,-49
23,-124,-121,-519,72,-38
32,-119,-124,127,-54,154
41,-84,-115,-386,33,238
59,-81,-127,-110,101,249
63,-82,122,132,76,151
9,68,88,2225,1369,-4890
30,1,-121,909,1255,-5953
-36,-45,108,977,2300,-7142
-13,-53,37,-659,3144,-7885
-46,74,-39,-1489,3816,-7899
83,-1,117,-3011,4133,-6941
-32,10,103,-3123,4913,-6313
-103,117,-24,-4539,4274,-3548
-102,-85,-93,-3137,2215,-960
84,52,-100,-2508,-181,195
-108,-56,100,2322,-943,842
-39,97,-115,3130,-463,-1395
-42,2,-79,5229,-327,-1889
-47,-28,68,4974,-961,225
-50,-66,86,3120,-2397,3074
53,28,-68,-1201,-3833,5968
28,3,62,-1833,-6363,6755
35,102,9,-4260,-7344,7586
81,22,37,-4839,-5043,6447
88,-122,-16,657,-132,-1626
89,86,84,3186,369,-4020
-73,-122,-15,1075,-289,-3546
9,-99,-24,-1266,-2790,-526
88,-127,-19,3416,-3021,551
69,-41,-43,2939,-1244,2082
105,41,57,-523,-1286,1984
-28,98,10,-766,-1676,3480
113,-41,-121,297,-2638,4662
101,-82,72,1125,-2364,2008
124,115,-83,1444,-856,2813
16,44,-103,2846,-197,1700
37,58,54,626,220,1018
-61,-41,-4,-307,-57,302
-95,-12,-30,2001,-553,-537
2,-16,-3,696,-66,-393
24,-9,-43,-1212,745,-50
-68,-68,-71,-590,-170,-140
-26,117,-64,752,-539,-463
35,-120,-27,240,-92,-168
5,-117,-39,-319,243,-32
14,127,-63,-281,-105,-66
18,-98,-67,-1206,-210,300
60,-104,-101,-927,-101,749
39,-58,-86,-314,167,792
13,-55,121,518,213,-212
83,-62,-101,398,-148,-63
89,-78,-115,190,151,170
54,-56,-90,-358,-26,202
91,-52,-116,-650,61,-10
103,-87,-112,25,-83,240
-51,-10,-96,4798,1489,-5041
-12,-81,-86,1666,1488,-6056
4,-7,-83,2785,2433,-6335
111,9,-72,2162,2735,-7579
-120,-64,6,1033,2496,-8471
-20,3,-120,-1162,5178,-8251
101,-109,-128,-3031,6030,-5338
-14,102,60,-4371,3295,-961
-95,67,-104,-525,1850,215
-94,-67,61,2140,-1475,-1003
-49,62,13,4225,-2075,-985
-44,85,-25,7378,-1433,-188
36,-44,78,5011,-2169,3653
-40,-65,28,-397,-3653,4381
120,-123,14,-5692,-4499,6521
50,0,35,-4292,-10597,12154
-6,-70,-119,-3588,-6758,10954
76,49,-95,-327,4720,-938
-45,-82,-120,3447,-4573,-4130
-128,88,80,-2799,274,-201
99,-113,-103,817,722,-3649
9,-119,46,-480,-262,-4561
-17,70,-3,3245,451,-1960
59,-5,84,550,-1636,4136
-29,-33,59,1444,-4612,6909
29,24,67,1287,-1870,5014
14,104,94,-1177,-3248,2363
38,-101,3,1783,-3687,3464
56,117,-101,999,214,2253
-18,65,24,-447,976,754
-102,-56,-36,-263,538,-43
-85,17,-52,2613,-168,-629
10,-49,-59,2262,108,-933
6,6,38,-433,-267,209
-13,-78,-33,-137,511,-236
-6,-94,-30,-667,-114,-663
78,-77,-52,-755,-3,63
86,-86,-68,379,232,528
0,-94,-82,447,304,-374
71,-85,-82,-266,34,91
76,-69,-61,-722,-314,573
65,-69,-65,-262,135,-158
84,-71,-81,-9,251,-8
87,-71,-94,-407,229,175
112,-83,-106,-187,150,283
99,-46,-118,-887,49,-30
103,-81,-114,83,-344,140
-98,-70,-100,211,-77,39
123,-35,-76,-581,16,302
-123,-61,-88,-175,-109,86
-48,79,35,5231,938,-4148
117,-37,1,3763,-699,-6846
89,79,-79,-195,1127,-8367
49,-49,84,3020,2858,-9899
53,-86,-49,-3382,3863,-9251
75,-33,-46,-1298,5619,-8001
-116,68,-62,-745,4490,-1554
27,72,61,-231,1999,-1365
120,98,39,-1637,630,-808
18,31,48,648,567,-959
19,62,75,2649,-322,-1243
12,-23,-81,5357,-131,-2678
58,96,95,5499,-314,-795
-119,41,-42,3845,-709,2090
118,-36,45,-1169,-2928,4875
107,52,20,-8902,-6735,8962
-29,114,-44,-2360,-12702,12222
-53,104,52,7627,-5588,6666
-83,-127,60,-4205,5012,-3438
35,-18,-67,1218,-1467,-5145
-86,-97,-74,207,-1853,-2898
-91,-75,-86,1309,-2653,-214
53,16,-64,522,-2993,4240
20,-42,122,943,-3470,7500
-123,127,104,638,-3600,6209
55,-47,-125,289,-3720,2395
78,1,-29,4220,-1962,2391
15,26,89,2145,2384,4182
83,-25,-38,666,1510,2938
-121,31,-92,-469,-652,1317
-92,98,-104,-86,-786,-1405
-33,-81,-110,1513,-15,-2555
-11,-101,-99,1613,376,-1758
5,-118,-91,567,406,-890
-14,109,-82,-168,33,70
-16,103,-90,-350,-155,257
5,121,-96,-672,-70,438
15,-115,-103,-773,33,539
24,-100,-110,-602,56,574
32,-75,-124,-550,129,597
40,-49,124,-629,123,598
47,-35,110,-583,159,346
57,-32,99,-432,103,-17
62,-48,93,-59,-33,-319
65,-52,91,-22,-82,-253
93,-53,85,-128,148,-96
90,-55,85,-191,32,-148
107,-67,84,-49,-89,-256
111,-62,90,-257,-111,-141
98,-52,108,-684,-225,85
-21,28,-84,3746,561,-8482
-128,100,-64,-204,1865,-9728
111,-46,-13,-1953,2323,-8872
90,-15,-120,-3048,5113,-8624
53,-56,-119,-4702,7750,-6533
77,-76,-92,-3719,5553,-3418
-1,10,-30,-547,882,-1613
99,79,-67,1788,-2428,-1351
-80,48,114,3257,-774,-2759
-118,50,83,3708,-201,-2571
-37,-118,-32,3094,-1440,2122
127,-124,85,707,-4082,5691
103,29,-84,-1367,-6916,9810
-14,-20,-96,-6008,-8344,8449
110,-57,4,-14468,-5367,4874
31,-97,86,9838,1371,-3082
-25,65,107,4256,-1150,-3230
-113,-108,-16,-2449,1427,-2833
-46,25,-50,2449,1262,-2704
-72,32,-49,1859,-1537,-788
-31,-114,58,1671,-1894,2458
-32,-59,119,2745,-1545,7245
26,85,85,-179,-1998,6722
101,15,78,-3329,-2398,4251
72,52,78,2471,-2223,3422
47,-123,9,2150,-2562,3176
97,59,98,213,216,1963
-8,119,1,2753,470,1795
9,120,-36,5610,-1032,-210
-44,-127,21,3466,-1639,399
-3,-109,72,47,-112,896
-5,114,8,-1741,940,193
-38,99,-13,-1904,314,5
-32,25,-65,277,145,-258
0,-2,-57,1739,166,-473
33,24,-33,1340,-74,-267
35,21,-26,427,-22,-252
46,28,-20,-546,-55,-228
60,16,-39,-851,-161,-151
62,9,-45,-602,-156,-113
56,22,-58,-441,30,127
60,49,-65,-656,56,259
72,64,-89,-645,132,258
86,92,-100,-651,50,263
85,99,-114,-391,4,139
96,106,-117,-220,-1,85
98,124,-113,-305,-26,135
106,-126,-121,-377,101,94
110,-106,127,-626,18,154
-128,-102,108,-663,58,111
-29,117,-68,2822,-1442,-4197
-120,6,-95,-90,189,-6522
113,80,-79,1536,1106,-7457
-124,-1,-122,-1350,1674,-7765
-60,-55,-60,-1385,2635,-7571
-62,111,60,-1819,3911,-7306
-68,-83,-4,-2817,4637,-7070
121,82,-62,-4585,4307,-5219
115,3,-19,-2247,1797,-476
89,88,-46,1668,-261,-420
-94,42,-117,3378,-283,-693
-69,-55,-127,4607,248,-1585
104,97,13,5079,222,1343
-45,-59,65,600,-1577,3221
-93,6,3,-1700,-2215,4129
-88,32,-87,-4142,-4938,7203
112,18,-82,261,-7434,8069
-70,-77,59,-12517,-6755,8765
98,69,-83,5111,1392,19
-80,87,-26,7337,-3759,-2148
-29,-59,57,-4314,741,-1097
36,87,-35,1500,-630,-2390
-84,-100,-74,-1611,992,-4019
-71,-63,-97,572,-961,-2439
-2,1,80,4570,-932,-1417
-122,106,-31,1141,-147,3715
22,-113,11,-723,-2336,9177
-81,-124,-127,-67,-2853,7561
95,-100,-127,320,-3531,6067
51,58,-125,2469,-2401,4087
33,-103,107,4003,-742,6100
55,25,-67,2502,788,3594
125,101,-66,336,-121,-1765
113,-51,-82,232,-586,-3655
-11,-126,-79,1059,116,-1916
-38,124,-60,952,73,136
-88,-128,-1,253,-847,764
-42,-127,-12,-510,-480,158
-30,-113,-14,-1348,-98,-348
-29,-125,-37,-1805,176,-677
-17,-127,-60,-1949,254,-497
-10,-124,-91,-1003,111,91
-21,-109,-96,-120,-201,332
3,-79,-94,14,-52,414
30,-53,-103,-31,78,440
18,-28,-102,-468,-67,445
14,-22,-113,-493,126,264
21,-37,112,-183,319,-202
36,-47,102,73,164,-294
64,-60,94,205,-16,-210
-119,-62,-34,-671,1398,-6076
75,15,8,-2678,2646,-6537
1,115,113,-2477,4120,-6474
-33,72,-18,-2258,4124,-5662
-3,86,47,-175,4411,-6787
-106,44,-109,-3888,4273,-5205
69,11,58,-3521,4512,-2563
41,-102,-108,-2324,3272,-561
106,117,103,594,650,-24
-75,86,-123,2956,-764,-176
-33,-4,-54,4702,-610,-469
-19,54,42,3742,-1764,612
-113,-80,96,1537,-1970,1666
-6,-92,-103,-4656,-2945,5263
6,-110,-20,-3501,-6081,5985
-75,122,83,-2706,-7263,7632
2,92,-86,-6469,-4711,6581
-62,-44,-100,-1593,258,-841
1,82,105,5132,-2667,-2381
38,114,52,-1186,427,-2887
-22,104,-103,3124,-716,-2824
108,114,17,2817,-1206,-969
42,16,18,209,-1472,-276
-24,-5,8,-781,-2450,-238
30,-62,110,1121,-2204,2861
-36,-79,68,1132,-4663,2624
-43,-48,83,-1156,-2709,4883
41,18,-111,1052,-2854,4758
105,-41,96,1713,-1647,4314
53,-60,9,1039,-1939,4951
41,-20,-118,1819,-1067,3441
29,-69,52,1467,5,1539
-10,-117,6,731,281,9
-72,11,-33,879,-165,-1512
-66,-40,-9,551,-344,-1599
-48,-106,-23,672,107,-698
-36,-71,-26,-578,314,65
-47,-51,-45,-1935,89,-87
-23,-58,-56,-1919,55,-55
-4,-69,-62,-1130,134,147
0,-34,-75,-661,117,115
-1,-44,-90,170,126,-212
26,-22,-101,343,129,-84
25,4,-97,-462,76,196
32,-15,-109,21,97,72
53,-11,-113,56,11,-127
71,-12,-107,-34,13,-71
78,-15,-109,-48,58,-109
69,-53,-112,877,-131,-100
73,-50,-104,529,-122,-267
-26,-108,19,2528,616,-5363
57,-112,8,1509,1181,-6032
53,121,-56,461,2326,-7070
5,43,55,458,2468,-7538
-125,-39,-23,-670,2617,-7510
-3,-88,-96,-1511,2772,-6388
114,-114,-102,-642,2798,-5307
115,82,95,-3123,4812,-3526
26,111,18,-4775,3072,-1895
-56,113,119,-2688,1606,-997
-90,-99,-76,-55,-97,-521
-62,-31,-50,1647,-987,-1728
-60,100,-64,3832,-1114,-1759
104,-7,120,5206,-870,-441
70,-116,96,3766,-1014,2194
14,43,47,-121,-1943,4462
34,1,11,-2551,-2397,5389
-123,-38,-125,-4397,-5918,10920
33,124,83,-6684,-7165,7951
11,66,-58,3507,-634,2293
-104,75,77,3142,-2801,-1783
-2,66,50,-2204,73,-2433
59,-22,111,1433,-579,-1491
126,8,-3,307,-988,-1201
89,8,-110,-64,-1555,467
-95,-106,46,418,-3163,2490
111,108,27,2301,-5871,6718
-68,-50,123,640,-4777,6658
14,-39,31,1870,-4299,4822
97,-32,-119,3068,25,4833
-115,78,119,-403,-32,2506
-81,13,7,581,-59,17
-86,61,-9,2532,-672,-2211
-34,-50,-63,2645,25,-2262
-38,-82,-63,2414,509,-860
-73,-104,-47,1130,424,-193
-85,-128,-32,-414,-16,-105
-39,86,-56,-245,67,-244
-37,70,-68,-35,50,-425
-12,60,-70,-161,-7,-575
10,42,-79,216,-46,-382
3,39,-85,-44,-9,-202
18,56,-91,-550,43,176
15,96,-96,-1198,-107,528
34,110,-113,-1047,90,311
34,118,-124,-553,105,35
50,-128,122,-226,70,-49
52,-117,123,-286,1,95
56,-108,120,-320,39,124
74,-98,113,-404,96,146
20,-40,-103,1868,-114,-6799
-127,-11,-108,-347,-530,-7863
109,31,113,-578,621,-8934
1,-104,95,-1279,1308,-8433
-57,-115,65,-3273,1672,-7755
-88,95,37,-2882,4416,-7255
-52,-68,61,-3793,3845,-4995
57,94,-100,-3883,2492,-1803
-73,28,-109,-661,1076,-302
120,42,91,405,-344,-334
-87,126,119,3079,-783,-1326
-79,-77,116,4179,-592,-1603
109,104,-9,5064,118,280
127,-46,-31,406,-320,3058
51,-114,-107,-892,-2864,3913
-10,-29,-67,-3427,-5695,5284
-59,-108,-111,-3807,-9192,8358
-7,31,-52,-5759,-8359,5421
38,-92,63,4637,-1254,2368
117,127,118,4306,-3509,-785
110,-112,55,-1095,770,-1764
-107,-52,-8,1533,-383,-2197
3,56,43,2687,-1501,-2074
20,37,-13,396,-1843,-621
72,-78,-63,1574,-2130,826
-20,-97,99,1739,-2080,3342
-72,-23,118,-1756,-3096,6256
121,95,-99,-264,-2341,5256
-127,-18,-68,1880,-3728,4237
-46,-98,98,1819,-3888,4953
-69,-88,-81,1072,-2068,5221
44,13,82,1625,-365,1018
-119,121,-7,2086,588,-3229
-109,-37,-119,3428,1718,-4756
-27,-76,117,3102,1495,-2749
-20,-115,-86,1546,491,-246
-36,85,-43,634,-942,285
-47,50,-29,109,-1164,-27
-25,57,-19,-805,-705,-10
-20,77,-22,-1530,-288,165
-22,84,-37,-1209,-45,370
-11,87,-58,-186,106,332
0,108,-65,179,215,259
19,-114,-83,-381,303,162
19,-113,-109,-676,307,172
38,-115,127,-473,256,166
38,-111,110,-199,81,169
39,-94,114,-361,32,97
61,-98,109,-155,105,-4
60,-107,111,294,105,-8
-41,8,90,486,2263,-5965
103,15,32,114,2348,-6803
81,-89,-99,-1053,2630,-7304
17,56,35,-1097,3210,-7377
-72,18,9,-2677,3510,-7291
-79,-15,29,-2708,4785,-6088
-70,-13,59,-3953,4741,-4807
-63,-37,-20,-5363,2284,-1639
84,-39,56,-1700,814,-455
85,-77,53,-66,122,-855
-125,-40,34,1580,-441,-965
-123,-64,-73,3240,-214,-2688
-45,-23,-92,7209,911,-533
122,-113,22,5070,-1279,3196
-107,69,42,971,-1105,4020
-101,-100,-44,-3704,-3759,6588
-24,-9,-63,-2418,-5760,8863
68,-15,-26,-5829,-7443,6903
-123,-67,11,146,-3781,3072
-47,12,-127,561,-1511,-200
-70,-116,68,2944,-1085,-930
-75,-113,46,-369,355,-2088
-18,-102,-90,795,1028,-4055
63,28,-84,1838,-1359,-2933
-1,25,121,275,-2297,-1496
-43,-17,-74,634,-2503,1408
10,120,-34,1008,-3484,5047
95,120,122,2437,-1301,4492
117,58,-126,-445,-1388,3859
-33,-16,-119,-497,-1775,3625
-77,-9,79,2272,-3498,3937
23,101,-92,3891,-3339,4339
105,120,58,4218,-326,2727
-77,-123,-46,1167,915,-414
-93,32,-60,-1398,1847,-2755
-35,-119,-92,-148,1393,-2564
-29,82,-75,830,198,-669
-60,107,-53,570,-722,664
-43,118,-39,3,-689,879
-30,-127,-55,-408,-88,483
-23,116,-79,-226,291,-114
-15,125,-73,-317,23,-228
-9,116,-79,-55,-172,-46
-2,119,-69,-76,-174,-105
14,122,-76,-224,111,-115
16,125,-87,-385,119,-87
29,126,-101,-379,61,91
42,-122,-110,-359,95,106
51,-114,-116,-299,49,127
58,-101,-121,-295,34,44
-77,16,-78,3490,-746,-5946
30,99,23,-299,66,-6635
8,-80,20,-77,918,-7277
-39,-74,-89,-697,1277,-7504
88,-126,59,-1094,1678,-7793
-49,127,9,-1289,742,-6427
94,-101,-42,-1725,2134,-6907
-52,46,6,-5171,2070,-5515
77,-60,-17,-2490,3156,-5299
-112,40,116,-3848,-65,1022
29,-26,16,-429,364,47
73,-81,119,1324,-1186,-1126
109,-54,109,3061,-359,-1433
111,-22,89,5023,152,-655
-59,119,-22,3555,792,2408
-4,81,68,2154,-107,2553
-124,-39,73,-1669,-244,1979
-66,-86,-121,-6276,-6704,8427
-41,-98,70,-2267,-11678,13441
82,-9,-27,-10017,-8046,4847
0,115,-70,1452,-32,1075
11,14,119,4838,-2624,-2517
38,-55,58,-1970,2009,-1932
-89,-61,62,3430,1014,-3454
44,-115,111,2855,79,-3333
104,120,64,-1189,-921,-1629
-94,106,-60,503,-960,-202
65,26,12,1039,240,3125
-6,-21,-45,-306,-2550,7509
-25,18,100,-1346,-2886,5373
80,-104,82,-1496,-3672,3789
42,94,125,2569,-4076,2922
74,-48,10,4477,-3909,3895
-110,9,56,2586,-1788,3774
-115,-86,-48,808,-294,10
92,43,-25,357,187,-1801
-82,-86,-76,1155,1314,-1987
-75,-104,-71,835,944,-1315
-70,-118,-18,-124,48,-212
-56,103,-15,-254,-386,222
-44,83,-28,-35,106,97
-38,97,-44,-421,209,27
-28,108,-55,-834,57,17
-3,102,-82,-311,24,66
-4,113,-84,-42,19,104
-3,-113,-88,-399,58,145
10,-112,-105,-239,-279,202
-12,-94,-94,-459,-670,475
15,-85,-93,-170,-288,659
56,-76,120,-30,615,84
-124,-64,-126,6403,613,-5634
64,106,67,9187,-2957,-9024
98,-67,27,187,-2986,-8478
31,-121,48,-1835,-2566,-8737
49,-126,-29,-2071,-1739,-9022
103,-111,-109,-734,890,-9814
64,99,-19,-1957,3140,-10361
-77,45,-74,-7034,-484,-5566
36,-116,-114,-5476,141,-1297
107,-90,-68,2462,279,1239
70,-126,86,2792,-1703,-1560
-111,11,43,4563,651,-1751
3,43,1,4842,1532,202
14,101,-97,2626,616,2324
30,6,60,-1882,-1586,5314
-41,-80,113,-2954,-3833,8007
-103,80,-9,-5372,-7504,10900
-36,-15,89,-5362,-5137,8537
62,-119,-31,-6175,-4654,2446
127,-128,-82,2736,-484,270
-110,-11,96,1777,-1689,-418
-42,68,68,-2213,-1954,350
4,60,-62,2034,-1219,184
3,6,-122,-1457,-2862,93
-28,-101,100,657,-3338,-185
-22,-28,-53,-546,-4920,421
34,77,-4,233,-6392,2531
-3,-121,4,2701,-1960,3553
-14,-103,-15,3774,-466,2613
-124,-90,-101,3186,-865,2590
81,122,123,1315,-923,1782
-6,95,-113,-1124,-723,775
-2,-118,14,1027,787,-512
-47,102,-50,627,1369,-676
-78,32,-80,-774,454,-1350
-10,-21,-83,-341,-160,-832
2,-65,-99,406,33,-467
-3,-101,-112,902,254,-160
-4,-84,-110,304,150,276
3,-58,-93,-382,-220,622
28,-61,-90,-182,-111,505
43,-43,-93,-541,183,155
48,-46,-118,-626,260,-241
47,-55,123,-535,89,-169
56,-59,110,-330,10,-47
61,-55,110,-270,-16,-14
64,-52,-125,-84,-158,39
101,-66,127,510,174,87
96,-51,119,122,229,5
107,-53,102,-146,141,24
-67,-73,-55,2857,1970,-5047
28,13,73,3568,2129,-6470
-48,29,27,3301,2282,-7979
56,90,-63,1655,1991,-8076
118,68,78,8,2478,-8625
93,-111,-66,-487,3914,-8613
64,23,-121,-3605,3944,-6617
52,-96,18,-3731,1699,-3328
-61,118,40,-1856,86,-295
-15,14,-69,1231,-529,1953
-70,43,47,3023,-1119,233
-5,50,-18,4400,-1375,-836
-1,-102,98,3231,-986,-780
46,-124,-41,2079,-1527,1387
81,-23,67,-62,-1372,2042
-2,44,-116,-2747,-3987,5409
17,-4,98,-3403,-6150,5533
2,-126,7,-2164,-4707,6654
-68,88,37,-4766,-3522,4019
2,27,-109,512,-108,1059
116,103,98,3036,-1231,964
18,49,73,-1037,-259,-1991
120,-64,73,2469,332,-1828
34,-75,-118,1847,-82,-3799
4,95,-57,407,-538,-3513
111,-58,-34,395,-1237,-1769
64,84,-86,1827,-1929,412
103,71,-11,2240,-2900,3393
-13,-107,-72,2957,-6200,4529
87,-113,-27,1650,-3410,4289
-73,-56,88,1412,-1626,7327
-61,-87,43,3266,-1693,4367
66,76,-58,2090,-468,2541
96,-68,96,4321,624,935
31,18,-21,1318,1265,313
-121,71,-14,1327,293,147
-120,-53,-8,1462,222,-119
-95,121,2,39,576,-792
-80,67,-20,-131,531,-401
-50,56,-28,-278,425,271
-39,68,-42,-623,341,638
-31,79,-60,-727,344,632
-43,95,-65,-789,27,515
-44,99,-62,-387,-399,304
-23,103,-51,10,-372,161
15,108,-62,82,127,-66
5,119,-67,-298,83,-122
15,110,-80,-302,14,-78
18,108,-82,-242,-56,45
36,110,-93,-163,129,44
59,127,43,5081,240,-5252
94,99,-22,3155,79,-7626
125,25,-62,1960,-89,-8730
75,116,63,-575,494,-8880
0,-90,36,-1652,493,-9084
101,125,119,-1797,1166,-6904
85,65,-29,-392,2370,-6573
82,-53,-122,-3167,2631,-4442
-87,98,100,-4489,1697,-912
66,64,97,-2522,904,-1207
87,20,35,1438,-995,-1047
-98,-81,91,3313,-1347,-2060
-80,-127,72,4429,-618,-215
97,-23,11,1545,-784,4186
77,-8,120,-729,-1876,4788
31,-91,-19,-3603,-6132,8500
-23,-30,38,-6816,-10763,10539
-89,-69,-54,-2830,-6148,4885
15,-18,17,2003,1325,3123
-34,123,-107,3914,-1685,-5214
16,77,53,-161,2826,-3928
33,93,8,-224,839,-5235
101,-9,31,3550,-854,-3116
47,42,-32,986,-1045,-1393
-96,-70,-108,602,-443,723
-30,2,-14,496,-1344,3879
122,-27,26,715,-2234,6068
-82,-9,93,274,-2348,5812
59,56,74,-656,-2451,3621
-116,-44,89,508,-2690,3489
99,70,42,3042,1452,2759
-6,120,-36,587,1323,406
-12,125,47,773,357,417
-20,-39,7,1449,-926,322
-39,101,11,2487,-2116,1092
83,102,-8,2806,-970,2524
60,109,4,2463,-199,1967
-2,42,21,2075,186,329
-35,48,42,91,81,-540
-6,14,27,-256,390,-215
4,-49,-9,148,342,-145
8,-22,-2,-599,100,1
35,-35,-28,-313,165,172
34,-45,-40,255,149,73
32,-13,-25,-329,59,148
55,8,-39,-927,229,248
57,11,-57,-895,206,256
75,10,-82,-90,162,266
63,2,-79,915,27,124
77,31,-68,314,31,74
68,14,39,-329,-2249,-6695
-125,80,99,671,-1430,-7870
-127,-91,69,-44,-818,-7803
-106,16,55,-1940,-790,-7998
-91,36,75,-902,1690,-7524
-78,-52,87,-4446,1593,-6032
-85,50,-36,-6987,441,-3070
119,33,-126,-2751,458,-1603
-89,46,110,-548,118,-290
-62,1,-96,856,-999,-2043
-124,-48,-54,1799,645,-1309
-34,37,52,4390,1155,-259
74,34,-95,4275,498,2280
-23,-71,-35,1347,-1374,5693
-126,14,-17,-1897,-3492,6543
-19,-67,105,-4852,-6515,10700
-71,-3,-73,-8107,-10308,8333
111,-74,3,2283,-298,906
67,111,-128,3189,-2030,-842
2,-11,60,-2808,-130,-1749
104,-22,70,3565,572,-3441
42,-45,117,1038,-1042,-4389
83,36,-1,1381,-1013,-1523
115,99,-72,1899,-384,357
-103,99,85,492,-840,4384
-107,-53,81,90,-2602,5846
12,-28,100,-565,-2357,4515
-62,55,118,942,-2012,5116
-2,-89,78,2730,-2650,4528
37,71,-121,2576,-1889,3533
-32,16,70,403,-827,269
-40,27,6,-2628,893,-1285
-57,83,-60,-255,1066,-186
-83,-3,-75,2180,177,138
-63,9,-44,1491,-158,144
-40,-30,-14,790,88,-123
-30,-68,-19,576,295,78
-8,-113,-36,464,261,271
7,-123,-39,314,-52,433
10,-128,-33,-42,-181,325
22,118,-49,-166,34,121
26,-127,-51,-501,-36,103
44,120,-76,-315,29,29
60,106,-96,324,247,8
63,106,-107,427,141,31
57,-127,-101,-196,-78,114
72,-125,-100,-513,67,-234
90,123,-111,-268,125,-153
96,123,-111,-120,-79,16
97,127,-107,-85,-25,188
-62,24,31,4086,1780,-5123
-28,-22,60,650,1970,-6654
-10,6,-91,2878,2827,-8393
-112,-72,43,789,2721,-8394
64,4,99,-1433,3525,-9458
24,-81,60,-4386,4700,-7593
2,-36,-56,-2909,5014,-4346
90,-53,65,-3406,3814,-1178
-30,29,-1,-2216,1873,-1423
113,38,-73,1214,-930,-1108
-89,124,19,4329,571,-1929
121,111,73,5429,479,-742
30,-87,59,3476,438,1326
14,-112,-76,-3300,-918,4337
-40,69,-14,-6477,-5796,5847
26,-73,-35,-1496,-11733,7681
100,4,11,-5663,-7422,3500
-71,2,6,-3401,-3950,2287
52,-104,-104,3487,304,-1222
96,98,65,2301,-380,-2563
55,51,28,-162,637,-4109
-120,19,4,1729,-556,-2742
-45,13,-45,792,-2721,-1723
49,-78,-17,1699,-1730,1215
-67,-106,-64,3562,-2354,4222
-118,-64,100,-118,-3735,6076
89,109,117,481,-1472,3559
-92,46,122,868,-1365,2907
113,-51,126,86,-2152,2071
-92,45,-24,136,-1271,1584
-73,-48,-119,878,-113,502
-37,-97,27,810,779,247
-86,107,20,430,152,243
-51,53,34,270,-88,340
-20,9,9,587,121,581
-22,14,3,208,139,408
-14,-7,-5,111,-38,479
4,-92,-27,1746,43,962
3,-103,-27,2024,-280,1368
15,-115,-20,954,-188,960
4,94,-38,434,-80,144
18,83,-49,-13,300,-234
33,75,-68,-225,278,-131
40,66,-81,-337,7,-31
44,63,-80,-156,-142,63
55,64,-76,30,31,42
62,81,-74,-262,6,67
70,79,-78,-140,13,95
82,89,-79,-119,39,149
86,102,-86,-262,51,151
102,-56,9,1472,1096,-7337
53,62,-64,742,1118,-8167
-8,-84,106,-962,1905,-8534
-47,-16,-10,-958,2389,-8476
8,16,-103,-1695,5372,-10517
125,-15,57,-3502,3690,-7911
32,109,112,-4141,1252,-3199
-47,-3,-34,-916,469,-504
-111,-9,-94,1433,-1032,-56
-95,-82,-63,3601,-137,-141
50,27,71,4529,317,349
37,56,-106,2808,-325,2315
-63,23,43,-2568,-3765,5683
-53,-29,41,-5275,-5504,6305
-97,-11,103,-5343,-11659,11574
-87,-104,117,-5648,-4553,2560
-92,93,-60,6869,-180,135
82,11,65,2901,-1321,-2903
6,124,47,-2053,-166,-2666
95,10,-28,2896,-140,-1483
114,-53,65,2081,-1787,-640
-28,126,-6,2585,-1474,600
-103,-24,117,1833,-929,3958
-49,37,-14,-479,-1351,5368
116,38,88,-1018,-1270,4710
-33,-100,98,-1215,-725,938
-55,-46,92,1208,39,1563
112,-35,46,-80,9,846
114,39,-120,745,-415,664
-116,-56,59,1529,-796,1353
-81,61,3,2127,-1146,3099
-18,1,5,1759,-545,2724
-5,-42,8,760,180,418
-2,-66,-29,193,584,-421
5,-78,-29,39,430,286
12,-106,-31,87,91,169
32,121,-42,195,125,350
31,-128,-45,-4,196,241
36,-105,-40,-569,-93,-45
59,-114,-42,-602,-215,-56
79,121,-50,-189,-146,117
63,115,-52,-150,-285,573
65,117,-58,-443,-114,492
69,121,-77,-652,37,189
82,122,-94,-439,114,153
90,-126,-100,-275,-26,237
93,-122,-98,-128,-46,228
97,-114,-99,-111,27,234
103,-107,-100,-240,82,230
107,-99,-110,-332,124,136
-52,-14,96,1739,714,-6176
61,-123,47,2375,423,-6692
85,55,25,626,1000,-8191
-119,-11,-68,1098,1212,-9872
-5,90,107,-3222,2853,-13470
-55,-112,-87,-5142,3571,-8002
63,17,123,-4756,1077,-2209
17,107,-128,-1268,1401,-946
-57,-18,126,117,-478,-516
77,-37,53,1709,-7,-2071
-14,-84,-61,3132,408,-2271
60,-28,6,4694,880,990
-106,49,-111,2843,-894,5202
-46,42,18,-3227,-4526,7206
19,18,-47,-3335,-6869,12214
-17,25,-99,-3326,-8799,13260
3,19,-119,-3957,-133,-1179
44,-40,88,3707,-3024,-2402
-19,7,31,-647,-1282,-2753
-125,59,-110,-1692,-1293,-939
-112,-65,-8,2553,-1144,241
78,-126,-105,774,-1497,2527
40,-3,-38,125,-2929,4412
15,-76,63,-1314,-3761,3314
-34,76,58,-765,-3722,1613
86,-64,71,2520,-984,2146
122,-123,-77,3217,2341,1270
-39,24,1,2772,1652,1462
-41,45,-8,4003,393,1961
35,26,-28,3030,989,1468
39,31,-4,-105,1029,-65
46,-43,-34,-972,995,-616
63,-125,-59,189,671,127
79,72,-38,969,64,485
72,77,-6,448,-348,257
95,56,-16,-102,-117,-100
108,54,-21,-352,6,-302
108,45,-23,-143,-178,-118
120,45,-15,0,-254,114
117,64,-10,-201,-39,122
-118,59,-17,177,187,333
-117,57,-38,374,291,469
104,97,-19,-483,-23,292
-123,94,-57,-499,402,-101
-116,73,-69,160,231,-247
-68,77,-69,212,112,-39
-81,89,-49,37,-42,-150
-65,79,-52,145,245,-291
-75,95,-43,-445,-10,-18
-93,100,-56,-610,134,193
71,53,-111,-843,918,-7100
101,-128,27,-1448,1371,-7377
-75,-22,18,-1937,2727,-7703
-29,-99,29,-3181,4105,-6055
-113,-32,77,-4651,4519,-3389
6,-39,106,-601,2951,323
95,106,-56,-79,1280,-75
62,-77,13,2988,-1778,-1635
82,79,-81,3182,-1769,-2248
-117,-18,-103,4876,-16,-1255
8,63,-58,4429,-426,766
-95,-81,44,-2831,-956,4597
-74,21,73,-4211,-3422,5924
-59,100,-80,-5025,-8873,8152
-110,-123,15,-5117,-8683,9124
36,-119,25,172,-1591,4178
-85,7,106,994,-386,-2976
-10,23,44,2379,-549,-3425
-78,124,-26,-1318,660,-3848
60,61,-119,-799,-1853,-2161
83,-55,89,3054,-2757,1094
-58,85,7,2449,-2640,4662
16,46,82,1010,-2640,3992
43,-11,107,-698,-3387,2182
-117,53,120,-1498,-3773,2169
-73,-93,85,2048,-2575,2814
12,-67,4,1385,-8,3766
-9,87,94,1459,1308,1975
-60,-98,15,3541,425,902
-42,92,-57,3744,280,1230
-38,40,-52,2657,322,376
-36,-91,-35,1750,18,-465
-15,107,-12,999,52,-503
-2,67,3,402,9,-567
14,13,-1,234,92,-502
-2,7,7,125,79,-363
14,17,-6,-438,167,-119
67,38,-24,-937,-43,350
36,24,-32,-311,-327,189
48,30,-48,270,-33,204
77,61,-51,-101,318,414
86,85,-51,-298,298,465
64,95,-67,-341,116,358
65,113,-80,-629,33,174
100,120,-85,-884,-126,16
108,71,-81,237,246,-195
106,97,-73,107,205,-74
119,126,-85,-826,-52,69
-126,-110,-106,-1409,-234,124
112,117,-120,-567,-92,157
83,104,75,5460,346,-3719
1,-84,-24,1809,-2075,-4385
10,-32,11,296,-1816,-7053
49,-113,83,1106,-687,-8421
27,96,38,-674,-267,-8082
102,121,83,-79,610,-8298
-32,80,63,684,2139,-7253
-28,-48,-57,-4326,3613,-5542
0,112,69,-3817,4144,-2665
-4,62,105,-650,2174,-234
-5,-124,27,2277,-2477,-1146
-75,-62,75,2448,-2939,-1327
107,-96,-1,4614,-1947,-99
115,-19,83,2997,-1318,2221
-123,90,96,736,-1642,5857
-20,81,15,-2967,-4396,8539
-99,80,17,-6637,-10714,11105
101,120,68,-8312,-7549,6058
60,80,47,8313,1338,-400
-92,86,105,2230,-2312,-2407
7,58,26,-1569,-814,-1436
36,78,52,1706,-779,-650
15,123,124,1956,-1950,690
44,-30,39,-366,-3131,966
-96,47,84,177,-424,2302
-79,-95,94,1343,-100,2710
-121,-10,55,236,-2095,2226
-39,-52,-29,-250,-1140,2909
-124,68,4,1267,-2446,3128
101,74,-67,1306,845,4172
103,-84,61,2647,1623,742
47,118,-33,2752,347,252
15,-51,-62,2995,-535,49
50,-105,-29,1456,-737,-216
44,119,-9,-100,-510,99
37,92,-19,-962,-259,314
41,79,-47,-679,-1,337
44,77,-59,-288,-134,225
44,81,-58,-97,-211,262
57,76,-65,87,-11,79
65,79,-61,151,53,-28
73,72,-65,327,134,8
75,71,-70,155,172,51
89,75,-76,-59,124,68
96,68,-87,95,110,158
99,83,-94,-349,130,172
117,122,-105,-1186,-94,193
119,111,-107,-712,-168,67
122,92,-114,220,64,40
120,-123,-98,-212,-21,132
9,-33,-53,2832,374,-8232
-110,21,90,1873,714,-9048
93,-14,-66,840,1714,-9609
-77,90,89,-1429,4075,-9661
126,-48,118,-2123,4526,-8702
10,-104,67,-3973,3172,-4363
-37,-23,-52,-3107,1395,-1892
-5,-43,-86,-106,-745,-853
-79,75,55,1622,-2798,-2067
107,-81,-10,1426,-3056,-2696
71,71,84,5610,-190,-522
-117,23,-98,3353,436,464
-108,44,-70,1707,295,2629
-88,-106,-15,-1808,-3660,7400
-111,-26,-107,-2621,-8305,11989
-8,-79,126,-6479,-11007,10734
86,82,32,-4496,-1006,562
45,81,-79,5153,-676,-1863
-83,6,74,1854,-1914,-1817
3,-4,39,-130,845,-2525
96,76,102,2483,1426,-1849
-62,-123,102,680,-2063,199
-22,111,-112,443,-2904,1574
64,61,118,1112,-2183,6031
-91,-54,105,3475,-1368,4839
-34,-85,99,646,-1462,3368
-108,-74,71,1729,-3768,4053
17,74,-66,2062,-754,1250
-43,-95,1,2329,978,-1194
-103,-30,125,1296,1780,-1099
-81,-105,-81,618,605,150
-22,85,-52,1508,-200,1512
22,68,-67,2581,207,1160
-16,43,-49,2278,124,-136
-12,2,-7,1394,99,-606
30,19,7,196,207,-24
12,-25,18,-99,-91,72
19,-29,-2,-540,31,-2
36,-31,-16,-613,182,128
35,-42,-39,-80,76,146
37,-30,-43,-58,-9,104
57,-13,-44,-314,83,126
60,-2,-49,-463,70,225
63,4,-66,-307,134,195
71,14,-80,-198,114,126
74,21,-90,-120,46,79
83,21,-100,-72,37,7
93,28,-97,-300,31,89
95,27,-108,-344,178,129
98,44,-114,-519,28,190
-102,-83,38,1711,-1218,-6766
-109,-17,21,1185,-932,-8391
-53,-74,-18,292,-142,-9693
-34,-82,-78,-3537,1887,-10049
112,66,-35,-1568,4389,-9955
29,7,-6,-3908,4689,-5898
-89,1,-75,-6461,3943,-3151
56,6,25,-2338,1216,236
-56,16,-1,2187,-772,-70
111,43,98,4492,-446,-1838
48,-7,-67,6140,587,-249
-35,-109,-64,4813,240,1916
-41,106,92,165,-2533,6454
83,71,46,-7272,-6858,8397
-30,93,-28,-7799,-13054,12775
58,96,-102,-6450,-6407,4152
7,94,45,4397,506,958
-100,-72,120,7108,-2245,-5130
-78,-71,57,-3503,765,-4334
-8,50,17,1433,-547,-70
-25,-30,110,5620,-447,-190
122,-49,6,-1129,-2834,1525
43,-91,88,-435,-3252,4439
115,-57,113,3200,-6670,5956
99,-125,71,-63,-4868,4867
-25,43,-23,1168,-146,3111
-98,86,117,2998,1586,1939
-7,86,-28,1241,466,1522
-44,11,-72,901,21,1125
-64,-85,-81,891,-61,-54
-74,-5,-84,1778,-94,-1215
-67,-43,-67,1462,-17,-973
-28,-55,-65,-198,274,-336
-17,-30,-51,-1522,-108,-90
-12,-76,-79,-1078,-33,-81
-9,-56,-72,-733,-147,97
9,-28,-68,-821,-41,54
21,-14,-84,-850,192,-272
27,-33,-109,-502,181,-307
27,-29,-109,-333,-12,70
23,-18,-108,-208,9,229
47,-19,-122,85,207,66
56,-8,121,-74,-2,87
71,-7,124,-171,-105,139
85,-3,-127,-292,17,124
91,0,127,-310,70,161
84,2,122,-356,33,-26
105,0,125,-476,52,-24
108,-5,123,-391,74,116
107,-5,121,-219,77,83
-36,-72,3,2456,608,-6220
-41,40,5,1637,1600,-8378
116,80,121,1766,1670,-9194
112,-98,-81,-760,1686,-9223
-71,-68,32,710,2495,-10686
109,-40,-32,-2990,3429,-11493
-89,-18,-65,-7780,851,-3479
119,18,-98,-2308,-158,2100
-113,-17,-70,1663,355,839
89,-24,106,2558,-1943,-1741
-72,-122,-60,4217,1568,-936
-33,-106,13,5791,2153,3106
-61,-67,100,1360,-635,5088
-117,-60,-63,-3093,-4051,6520
-90,54,39,-7728,-9068,8273
-124,-32,72,-2217,-8210,10280
93,40,88,-7683,-4761,5731
-74,54,-107,10085,-322,-598
41,120,43,1264,-1177,-3746
-6,29,-85,-2785,486,-3106
47,55,-102,-799,-937,-849
113,-64,-10,2773,-2357,283
107,81,112,2137,-868,3579
4,-5,43,502,-2320,4202
-61,-47,60,-701,-1991,4689
-102,13,-53,659,-1380,3555
-122,-99,120,1513,-613,1981
56,3,62,1861,-505,2042
51,-95,-17,1355,483,1669
55,97,-44,1325,349,1396
14,42,-55,1105,-94,986
8,-8,-40,998,-293,216
25,-59,-50,615,124,-239
19,-120,-51,254,-96,-412
16,91,-54,452,-170,-389
37,55,-49,465,1,-352
47,61,-48,-21,-61,-271
53,44,-52,-133,-108,-290
64,38,-57,-190,-80,-186
75,39,-71,-360,161,-70
77,53,-78,-500,-96,178
82,52,-100,-76,133,244
84,69,-92,-118,67,212
106,84,-112,-146,169,313
97,105,-112,-540,-83,250
110,118,-115,-725,-33,133
120,126,-125,-837,14,29
116,-113,-127,-856,-169,115
121,115,125,258,140,-27
127,-123,120,205,203,67
36,-98,98,2518,-88,-6380
117,108,12,1155,1408,-8965
46,39,94,1597,1180,-10020
-38,68,21,1850,-78,-9759
-107,103,53,-1062,-114,-10186
-95,94,-19,-7388,4002,-7448
30,-8,17,-2406,2801,-5524
-84,-70,58,-414,534,-149
-91,-43,64,1389,-1831,720
-50,38,-60,2104,-1835,-1177
106,83,-87,4917,-1394,-722
-49,-77,39,4191,-665,1653
12,28,-25,1867,-1353,4592
-18,-94,-79,-983,-2807,7552
-80,88,-46,-5815,-4892,10175
-99,8,114,-6199,-7218,8808
53,12,-27,-4919,-5050,4735
-113,25,-49,4222,551,2248
55,121,102,3886,-3238,-3344
76,84,30,-1890,734,-2211
40,15,27,2435,392,-3054
48,45,-46,159,-1076,-2205
-54,-15,56,2281,-1380,1199
73,122,92,2264,771,3461
84,-41,69,-612,-1094,5368
-16,101,77,-255,-468,4420
70,37,44,-523,-557,2305
-26,39,-81,810,-1854,2093
4,-28,83,704,-2026,2282
53,-82,31,1187,-829,2655
97,-60,-2,480,1484,2626
13,16,-17,2377,814,687
14,-41,-32,2098,-374,326
34,-64,-26,1131,-248,97
27,114,-9,756,-424,-423
16,79,-15,532,-985,-366
9,59,-9,427,-1139,-389
54,78,-12,-605,64,-389
51,77,-28,-1031,61,-345
43,52,-60,-587,-316,-211
55,57,-63,-285,-382,-144
60,71,-73,-425,-160,-53
58,85,-87,-621,40,42
66,91,-102,-509,97,167
73,105,-111,-387,68,247
81,125,-119,-392,33,256
86,-121,-120,-356,-9,207
88,-117,-126,-207,91,87
107,-114,124,-77,149,76
109,-106,121,-161,2,186
-98,-10,-17,626,371,-7493
90,-104,-59,-777,930,-8076
21,109,54,-358,936,-8881
26,-27,-11,109,1687,-9556
88,-55,0,-2247,2614,-7675
-16,-104,-55,-5509,3575,-5366
113,-80,-23,-1520,2462,-595
117,-93,-125,1710,-688,1717
-23,12,-37,3307,-1400,149
21,-76,-48,2552,-864,-1024
56,112,77,1170,-850,2568
-80,-21,100,-3427,-2779,6466
-27,59,107,-7708,-7739,11062
41,-109,-61,-6450,-8862,9459
32,-87,73,-10960,-4757,5018
-40,-7,-37,8131,2859,-1451
-87,113,105,3647,-4354,-2154
106,66,47,-4251,2534,-4088
85,-76,-62,1678,-974,-4185
94,-10,17,3484,-1371,-3171
99,30,-7,725,-2816,141
4,-24,54,941,-1487,2942
-80,120,47,1770,-2480,5847
59,-21,106,665,-1852,5093
11,-125,117,-922,-1833,4216
70,-16,42,2276,-2057,4519
100,-128,-104,2536,-1263,2587
14,-22,-1,1453,-527,685
-39,-125,8,1168,-308,438
-7,32,-29,1156,335,424
-17,-20,-53,1044,324,-7
-39,-68,-59,506,62,-357
-40,-110,-57,-175,-227,-524
-12,123,-66,-287,40,-382
-3,89,-82,-94,41,-349
23,85,-79,41,105,116
32,-123,-72,-426,122,708
37,-101,-85,-583,208,506
25,-100,-102,-452,128,-101
37,116,-119,197,71,-765
52,104,-121,342,54,-433
69,112,-114,101,-126,101
87,124,-110,-168,-68,149
85,106,-121,56,71,-69
109,115,-112,-142,-55,398
106,-109,-106,-669,-37,705
85,-89,-112,-770,4,357
105,-111,122,-193,245,24
116,-100,120,-123,138,209
-127,-79,113,-474,78,207
48,-95,2,1227,73,-7536
-128,114,45,835,-44,-8710
71,101,2,-1617,1115,-9169
112,-83,98,-1744,2470,-9434
55,18,-55,-888,1978,-7731
-33,5,-54,-2560,3423,-7716
-66,79,-50,-5872,3643,-5407
-6,89,-114,-3832,2188,-727
92,-45,64,177,-391,-129
97,-19,-31,3008,-1477,-292
88,-67,-17,4364,25,-451
-6,-41,-95,4124,1170,31
-118,-61,-34,1566,220,4847
-106,-105,-89,-3752,-4445,10022
-112,106,-116,-5469,-7129,9643
12,66,-70,-5972,-9095,11773
112,23,-96,-6998,-3106,3629
-112,-16,122,3109,-927,-4081
-32,43,-8,1281,-1275,-3737
-38,-64,119,-2422,-3167,-1559
103,-71,99,3892,-2790,1784
103,-108,69,1810,-2048,3615
69,112,103,-45,-2446,3670
-61,26,120,-369,-2257,3447
119,31,50,1080,-1466,2162
78,127,-113,2550,-1092,1733
19,44,73,1853,-309,1931
32,-34,18,1247,616,1469
33,91,-75,1843,707,769
-3,33,-98,1898,98,600
-29,-37,-68,1016,-531,399
-8,-92,-49,130,-298,-148
7,115,-56,-33,189,-455
10,85,-73,0,307,-108
37,55,-84,545,326,140
54,84,-82,178,61,529
42,98,-71,-197,47,390
43,102,-75,-213,66,140
62,108,-82,-634,82,-264
62,93,-89,-237,-59,-218
74,83,-95,-13,28,-259
96,100,-108,-303,118,-171
87,96,-118,-69,-104,-68
94,100,-113,-78,17,-88
122,118,-126,-391,239,105
115,124,115,-247,-14,82
122,127,113,-53,-131,-15
-126,124,117,37,-16,48
126,-107,-126,-268,-131,152
-125,-105,125,-334,-33,-86
-90,66,-127,1126,497,-7901
116,-107,123,633,1231,-8836
30,-59,12,-230,1792,-9167
-66,68,88,-614,1748,-9659
-100,11,-120,-103,2374,-11683
-106,43,-118,-7151,2064,-6701
-77,57,-7,-6714,1572,-3452
-4,-106,-86,627,895,1843
-7,-12,-9,1305,-2292,1819
-105,1,107,2730,-711,-934
110,86,-105,2491,549,-1470
116,76,58,2426,1336,1652
-99,64,124,-51,-1689,7948
124,-89,74,-454,-4522,9519
111,-42,-88,-4788,-5771,8441
91,109,-126,-7476,-7650,9097
-4,-77,-99,-1643,-2027,3046
-1,-4,98,3301,-611,-3668
-107,-94,46,839,248,-3320
43,-75,-56,-328,-583,-1880
110,-33,-22,1992,-29,-1540
-98,-28,-66,813,-2436,439
-83,-65,-14,125,-2892,2448
100,20,-94,2644,-4913,5418
-70,91,-107,1313,-7838,5546
114,-59,-38,-290,-1516,4608
-98,-11,-24,3319,6,2825
72,-88,-108,1953,426,1774
-14,28,-28,1384,1141,1351
-44,126,-73,3110,560,852
-25,54,-99,2946,595,954
-46,7,-87,1927,214,26
-60,-59,-76,1020,88,-598
-41,116,-67,475,198,-810
-21,70,-68,471,122,-707
-14,36,-51,397,-94,-421
-1,40,-48,-50,-169,-140
15,51,-45,-643,-112,-114
24,41,-63,-578,-72,-103
25,40,-64,-332,-68,-18
35,47,-74,-223,90,106
43,77,-85,-566,81,194
51,72,-108,-282,215,164
63,86,-119,-232,92,122
62,93,-126,-179,62,164
72,98,-128,-173,108,89
82,100,118,-21,114,145
89,113,118,-231,-5,82
93,112,113,-160,22,3
102,107,114,-88,21,-49
122,119,23,941,-1509,-6712
-51,54,-36,-2009,-392,-7946
-87,54,-29,-2875,866,-8599
-118,-82,-56,-636,2106,-8950
94,67,-19,-2979,2152,-7993
90,-75,-68,-4223,3209,-6647
45,-59,87,-6074,3256,-4121
-16,-34,112,-3829,2484,-3362
68,11,-122,-1476,1360,-2469
-79,-128,52,1948,-284,56
-110,-95,75,2066,-844,-1063
-125,92,4,4941,702,-85
-75,-109,-18,4714,967,1502
125,125,24,4999,2819,3261
-51,117,-43,-1557,-670,5407
-56,-75,94,-3081,-3110,6595
51,-38,-9,-5902,-7750,10563
-51,-28,43,-8160,-12021,8518
-40,50,-111,-1206,-142,2260
-8,-123,114,3810,-4157,1029
-48,-12,42,848,3797,-6006
117,-12,-42,1811,-1087,-3809
-53,117,-26,2964,897,-2186
-84,33,-103,2296,-1504,-827
-85,-6,-87,1178,-2862,1283
74,-100,86,233,-3155,7317
-56,-18,15,1624,-2774,8986
114,-34,-93,1587,-1424,7486
-39,0,8,3439,-1550,5113
51,98,46,9289,727,4624
96,-26,-22,2935,4156,3869
-116,-28,33,-4726,1034,548
23,-70,-105,-1752,-2080,-3396
-15,65,-77,2373,-1320,-2983
50,105,-116,2595,410,-475
-24,111,-50,1178,135,197
-70,41,-7,288,-740,-626
-5,53,-22,-493,-202,-283
-7,15,-15,-379,-365,-278
7,10,-31,11,-165,-172
17,41,-30,-385,-138,38
6,75,-41,-876,-156,275
5,97,-59,-968,-44,296
13,119,-75,-703,9,266
41,-110,-99,-629,75,49
34,-93,-101,-922,22,-162
45,-94,-126,-754,209,-107
47,-82,118,-653,88,-2
54,-74,106,-454,-70,-142
57,-101,108,100,-144,-218
17,7,-86,3751,-1894,-5127
-17,99,-123,-129,-1366,-8307
42,87,-109,-170,249,-9126
116,119,-75,-1458,910,-9481
116,4,122,-434,2064,-9229
-105,109,127,-5438,3176,-7825
43,13,92,-4421,4328,-5053
-114,-78,17,-4467,2781,-2797
10,25,109,878,218,174
-83,-102,-28,2317,-1409,-790
-1,20,114,4515,60,-484
-32,-24,40,6051,1769,3150
-39,-54,19,3374,-212,6813
-88,-111,-81,-5454,-1746,6207
-12,-4,-29,-12771,-5934,6989
-52,-34,-69,-7242,-17655,11052
119,26,-57,-6844,1257,2689
65,-6,-73,2275,-1171,-4060
39,-22,80,4579,281,-3491
-116,4,45,-2015,760,-2711
14,18,-26,3651,-798,-668
121,-127,93,2296,-1420,-1238
-6,116,-114,1039,-1570,258
86,-118,-39,649,-2510,3205
-48,25,12,687,-946,4888
21,18,86,-481,-1516,4317
36,-49,11,1083,-2787,3480
-25,52,-111,4408,-2690,6575
-3,95,-70,654,-2320,1872
121,69,115,1765,-749,-174
-33,-75,113,2710,2490,-607
-99,-38,-120,134,1849,-1498
-41,-105,125,-281,1283,-803
26,61,-93,594,787,432
0,22,-49,1229,-163,15
15,43,-28,257,-164,-68
-5,48,-49,-390,-465,-373
30,39,-73,-149,-249,-35
28,46,-88,38,103,350
31,57,-89,-80,407,363
38,68,-98,-319,465,474
44,99,-126,-789,199,524
42,122,117,-745,-269,426
63,-124,-125,-464,-259,130
59,109,-127,-138,-44,-591
65,90,-118,50,-71,-776
101,88,122,-225,80,-546
91,93,115,-540,12,-163
103,89,99,-453,-112,28
117,95,106,-388,-131,129
-26,-94,-109,3171,139,-6853
27,51,-97,-105,472,-8293
38,-21,86,844,1474,-9937
-48,26,-28,513,1647,-10099
-14,109,80,-331,2299,-9478
-65,102,36,-1735,3893,-8956
64,82,48,-7701,2628,-7892
17,-124,78,-4054,184,-3813
108,-45,70,1103,-366,-284
40,-8,-59,2598,-912,816
-106,-113,6,4522,1191,1314
46,79,85,2775,15,1927
82,-121,72,1209,-1334,5603
90,-15,-29,-7052,-6483,6639
99,29,-120,-5866,-8134,7057
-127,41,-92,-4005,-11429,10330
-31,-56,-2,-6004,-4449,5533
-9,104,-47,1025,-1976,-1681
26,62,92,2933,802,-4974
10,121,85,1056,2848,-6636
73,-84,40,1421,1886,-5083
-99,81,-122,2554,866,-2772
-124,-88,12,1555,-1200,-840
-116,-110,52,1521,-1134,3853
12,-120,3,1158,-2969,6752
-84,-31,90,63,-1509,6233
-19,-127,47,1273,-2650,5860
-106,52,-24,1617,-2406,5768
-47,-84,99,2122,-1589,4473
42,-122,-16,1043,801,2376
104,-29,-86,2526,-491,776
-8,-104,-42,250,-29,1912
24,57,-64,-81,-606,-202
-104,119,-28,683,-335,-1947
-69,54,-28,1360,419,-1672
-30,59,-39,427,877,-721
11,81,-43,-995,584,239
15,94,-45,-1569,-309,498
28,75,-69,-788,-358,200
35,77,-65,-33,-137,38
35,94,-64,-108,130,-54
42,113,-69,-291,67,247
45,119,-81,-321,110,275
55,-126,-87,-281,59,195
81,-112,-94,-422,97,46
80,-105,-96,-577,17,-38
84,-108,-105,-482,91,0
85,-117,-113,-61,101,1
85,-105,-122,-164,85,29
102,-98,-128,-395,63,101
112,37,94,662,2287,-7168
-7,80,-57,2,3525,-8728
-41,-101,-76,1476,3901,-10810
84,62,119,1432,2966,-9416
82,-47,-25,-1917,3295,-7574
-128,11,-33,-4170,3894,-5280
10,-63,-27,-2114,2394,-2236
85,-84,-109,289,839,1565
13,26,67,2057,-2045,-1141
-12,-97,-98,3000,-196,-964
97,110,86,3593,230,2477
77,17,-4,148,-2533,6567
-101,87,21,-4425,-7564,7437
8,118,-66,-1745,-7439,7689
93,-31,-47,-5750,-8454,8490
-43,-61,-56,-8645,-5074,2445
92,21,-59,3530,1158,-1650
-38,-30,99,2950,-408,-4282
22,123,75,-637,2284,-4052
-119,116,56,2677,1189,-3293
-28,-109,105,3944,366,-3382
-104,7,60,3083,-1243,-2524
-102,-9,41,-85,1339,133
34,-51,114,-824,1393,3644
61,54,107,466,149,5169
20,124,85,-101,-274,5204
89,18,71,-1446,-423,5224
-22,117,9,1391,87,3552
42,-30,119,-105,-1206,4406
123,-11,24,381,-1728,4042
-44,-25,38,262,-1504,2096
35,78,24,1489,-1071,3945
48,43,68,2173,-140,2771
-50,-4,12,1674,634,1188
-85,-79,-10,1115,693,-476
-89,91,-10,887,194,-1770
-32,43,-5,782,-63,-1351
-8,28,9,513,-196,-394
-13,0,4,279,-167,-290
0,21,-2,-747,-64,-227
7,28,-29,-1274,-41,-120
19,25,-53,-979,-111,39
24,30,-67,-321,54,162
26,47,-74,-160,37,175
40,88,-79,-559,16,374
39,102,-91,-662,63,385
46,105,-104,-371,101,244
57,115,-117,-151,132,106
60,125,-118,-191,-67,5
78,123,-121,-27,85,-115
33,-6,-94,-833,1529,-5836
2,-126,78,-1650,2362,-6142
-23,119,-37,-2158,2853,-6340
-77,-41,-83,-2613,2960,-5911
84,-77,-1,-992,3280,-6517
-42,104,47,-485,4056,-7295
126,-35,90,386,4016,-7927
-102,-41,53,-20,3939,-7332
-7,91,-79,-2036,2769,-4191
28,71,-100,-2625,1555,-1633
-19,30,-104,-1119,719,1946
84,-65,-33,105,-124,3253
-35,52,13,882,-1896,4445
26,37,-90,-412,-4392,8282
14,-76,-103,-3777,-6224,11634
93,68,-56,-8211,-7469,6775
84,-45,8,-11603,-7618,4285
74,57,-17,5511,-2497,3967
114,55,-113,1659,-2851,-1384
118,125,125,-2291,1408,-1760
-33,102,119,2404,25,-2882
16,94,114,2625,2038,-4693
106,72,-114,-22,250,-3501
56,118,-19,2072,-226,-1918
-9,49,1,1342,1051,816
-47,113,23,1633,202,3707
-82,103,-126,-2119,-4543,10078
-119,-32,-102,-771,-3330,6946
0,109,113,-802,-2415,5082
95,-32,32,4885,-7093,4425
-96,-81,21,5978,-3326,4864
-60,-8,-39,-434,1581,2399
-116,81,-32,-4202,1275,-2429
93,16,-68,-218,2186,-3489
-34,-40,-50,845,1972,-2513
-5,-73,-32,1644,595,-726
-24,-20,8,799,-587,545
-38,-14,41,-254,-1229,534
-26,-43,30,-575,-761,-187
6,-32,15,-679,156,-82
1,-22,-19,-712,465,-6
-1,-3,-43,-627,126,92
1,-26,-69,315,-72,142
7,32,-56,-57,-173,390
6,69,-53,-923,-83,247
17,67,-77,-701,174,30
35,41,-97,34,231,-110
41,61,-108,-96,198,34
46,72,-113,-307,28,46
54,73,-122,-282,-36,10
-100,100,70,289,1785,-6874
0,-80,-54,-1226,3041,-8054
86,-28,-7,-442,3634,-8329
123,-7,-111,-339,3813,-8669
-75,-119,86,-128,3915,-8879
-65,-122,82,-2390,3524,-7189
100,49,-32,-3144,3314,-5761
11,93,22,-3036,2100,1220
48,-91,-31,2566,1144,2825
108,91,-118,-701,-895,2448
-24,-8,-74,-975,-6262,8952
-5,88,-100,-1846,-15090,17851
-88,47,-113,-6014,-9833,13999
-90,-106,31,-5459,-3374,3269
102,89,-3,4362,2618,-4487
40,115,-102,-939,-709,-3290
-9,0,-126,-96,2052,-2277
-115,-66,-67,2115,-194,-1670
55,114,87,1521,-978,-1502
62,-14,51,1439,-1838,225
77,-61,-106,2637,-2375,3111
-39,93,-127,2015,764,4900
75,20,-36,1384,1059,5313
-17,13,-28,-374,-892,6508
-27,37,91,2376,786,5436
-124,110,29,5206,1901,3245
-49,-70,116,2221,-567,2647
-43,-88,-9,-1478,-1667,494
-103,-116,-96,530,-421,-2431
-1,62,-75,1840,377,-2640
46,104,-22,761,300,-623
-20,46,-32,654,-526,-234
-20,47,20,-263,-1011,-537
35,74,-8,-1595,118,-301
40,53,-52,-1533,296,-98
92,52,-76,-415,-301,232
58,45,-68,1051,-318,198
-18,59,-66,946,-130,-181
67,69,-58,-153,280,-329
-124,64,-87,-368,426,446
53,107,-75,-755,-387,850
63,94,-89,-358,-179,236
113,103,-99,-279,374,-35
109,110,-120,-271,321,-107
94,101,122,-138,109,-64
92,101,122,-59,-31,56
95,108,-126,-154,-116,57
-93,107,-118,-134,125,306
-118,-96,-120,-722,-22,770
102,-86,120,-867,-176,183
52,30,2,-1045,1708,-6898
-50,97,101,-1631,1955,-6608
41,-117,-113,-802,1524,-5729
-100,-2,-1,-5699,2242,-5470
108,112,32,-2853,3288,-5073
-83,-79,10,-4182,4508,-4385
-87,120,55,-3245,3930,-1035
-11,-31,-34,-1780,1330,-263
-97,-22,88,1968,194,-232
-28,32,118,2340,-719,-1049
-31,87,85,4096,-131,-1176
-17,-72,-57,4372,348,-515
126,-60,-122,5179,657,1687
58,-4,95,2861,209,3277
69,97,-74,-952,-1183,5467
-45,-80,-4,-3952,-4151,7396
57,12,-74,-2601,-7779,9009
52,-58,55,-7109,-9164,7794
-118,-87,53,6687,2358,-351
88,3,100,1320,-2758,-4463
-37,-66,92,-2827,2048,-4944
125,-28,24,1239,-52,-2868
-124,50,92,4824,-1234,-1799
125,105,-106,1985,-3329,144
-110,-72,-98,205,-669,3955
-126,-94,-15,-221,-891,5921
98,-41,14,1450,-720,3772
54,-19,84,2502,111,4219
-122,-104,-10,-879,950,3421
49,-116,-113,949,-144,1611
6,112,97,2060,-5,2243
25,-125,67,1340,-628,1334
68,-125,26,-1036,-119,710
-16,-71,-30,1935,-382,-110
8,-55,-40,375,470,246
-37,-119,-47,176,28,-70
6,122,-44,444,-42,539
1,84,-54,1086,-563,687
-18,82,-46,910,-882,437
15,71,-33,930,-469,409
12,78,-6,358,105,101
-7,60,-10,174,229,-195
1,50,-21,-115,223,-67
19,52,-51,-444,433,50
23,56,-64,-526,281,56
27,54,-87,-258,193,60
52,56,-89,39,131,3
66,67,-94,14,71,-99
64,56,-93,131,-152,-487
67,55,-95,125,-129,-396
-83,-38,106,-1206,-1046,-6927
43,46,97,-732,-887,-7584
4,120,109,-3231,620,-7257
-101,42,-73,-2808,1816,-6447
6,104,105,-3592,2216,-5666
121,-66,-128,-4013,3107,-5038
117,-40,-46,-4898,3193,-3845
100,2,85,-1913,2691,-1877
-49,38,12,-549,707,186
-95,-12,102,12,-1107,-422
-55,63,-97,2922,-403,-2448
-3,-4,-36,4428,-276,-1187
-127,-6,-104,5439,-239,432
-17,32,54,2597,-619,1794
-38,-81,-117,1551,-1385,4929
113,-80,-40,-2329,-5041,8563
-99,37,-31,-2135,-6243,7477
-117,122,-40,-3458,-8290,8548
-7,-98,-86,1051,-3525,3894
-71,-35,-112,2845,-159,-3712
67,69,87,-2719,599,-3736
-108,-89,82,1336,643,-2987
50,-32,-112,2946,1084,-2052
23,-98,59,2010,-1190,-620
20,60,-122,2183,-3753,-450
127,-76,-52,1676,-313,-70
-1,-74,15,-345,2585,4091
-2,54,-108,588,3076,4483
-45,122,-118,622,409,2358
53,47,85,-385,375,3302
97,-44,69,725,-505,3046
-63,-116,85,1438,-1094,3348
-23,-127,-122,647,-2084,4676
21,38,98,534,-641,2315
-36,-57,3,628,338,394
-54,-126,-11,2046,404,746
-71,109,-12,1875,217,297
-52,79,12,1116,193,-106
-28,45,21,381,296,-519
-4,2,32,-75,-161,-740
5,-17,42,66,-378,-372
5,-24,40,75,-173,-182
18,-14,29,-443,151,-122
26,-5,8,-740,119,103
41,-10,-24,-470,166,141
51,4,-45,-224,75,188
50,16,-53,-234,100,77
80,28,-61,-283,153,69
68,26,-76,-76,110,113
66,43,-74,-301,36,146
77,119,-43,221,358,-7776
106,-29,-78,-896,833,-8262
47,65,53,-3134,1956,-8680
124,2,52,-531,2271,-9019
-31,87,92,-780,1505,-7624
106,-28,-43,-5818,1714,-5950
-101,-98,21,-6149,2066,-4524
77,-44,12,-2520,3122,-2968
33,-39,45,298,23,1857
-95,41,-85,1376,-719,-230
11,-98,-70,4209,912,-1164
-64,-71,69,4974,1274,-147
-74,6,83,3928,1282,3271
-104,-28,3,5864,1042,5098
48,-9,-125,-938,-1481,7392
20,2,-1,-4503,-5898,11135
-56,119,-121,-7243,-8893,13470
74,5,79,-7062,-5597,4746
19,-100,-63,7597,2981,-6566
116,-47,76,1842,1079,-4308
116,-46,68,-154,1135,-2967
87,-93,80,3457,-76,-1095
-99,77,94,3557,-2324,-368
-97,120,-119,165,-14,1956
-64,-15,-115,-603,1016,3899
-49,62,-9,-14,592,5191
-52,-126,-106,-1834,1139,4291
-63,21,117,2642,-23,2715
78,-102,-99,-221,509,2247
-122,43,101,-412,148,2789
-122,33,72,-480,-871,1567
-108,-109,55,618,-1369,1537
-86,15,56,637,-799,776
-47,-18,38,139,99,1222
-15,-70,1,1019,289,1493
27,-105,-16,1523,435,750
9,115,-7,1464,-60,-483
20,102,5,821,-42,-746
57,92,9,-155,-59,-429
58,72,2,-579,-169,-264
62,52,-14,-452,-161,-122
62,68,-18,-691,-166,245
56,81,-35,-812,-108,325
57,91,-60,-758,-112,510
75,101,-78,-599,104,481
76,117,-89,-446,188,264
82,-128,-100,-190,232,69
93,127,-102,64,163,171
102,-123,-104,-37,90,292
100,-107,-97,-266,57,162
-113,103,49,-867,785,-7725
93,115,121,-1730,1843,-7852
58,-59,-109,-1882,3074,-8105
-109,64,-99,-601,2946,-7261
-54,104,75,-1199,2232,-7225
-117,-21,-98,-4382,3267,-6065
102,75,-80,-4984,2173,-2891
-74,-68,-85,59,673,1493
-61,-26,-51,2463,-203,3139
-15,-119,-117,1602,-1944,-450
-16,40,34,4156,-1171,-2577
107,-43,-24,2544,-569,129
-67,-1,127,2393,765,2898
91,19,-122,245,-829,7579
93,87,104,-5092,-6695,10023
-71,-79,3,-6488,-9289,10635
-48,102,89,-3867,-6744,7626
65,112,-20,3998,4157,-2977
80,-93,81,3425,-4070,-4168
66,15,57,-3448,3383,-5291
-17,26,25,3526,259,-3765
122,19,105,3386,1797,-3783
-62,-112,20,741,-1453,-1503
118,27,31,1478,-1666,-693
-126,58,-53,-2452,690,3163
124,67,-72,861,2466,5688
-92,105,23,845,2715,4344
-61,-88,-108,-684,1959,4200
0,45,-85,815,1057,3469
-103,-14,121,752,1362,4596
75,46,76,3682,2447,4264
120,-119,-109,947,2465,3162
99,68,-120,931,2268,1510
53,113,70,3018,1438,96
5,114,-37,1707,-490,-57
44,-84,69,-2310,-1794,-650
113,-63,-57,-4751,-1804,-894
121,86,76,-1716,-1709,-1061
-109,114,79,-762,-554,-520
124,-92,85,-1142,-363,-306
104,-78,64,-992,-556,8
103,-32,48,-1316,-473,247
97,-9,37,-1141,-464,247
79,49,31,-1396,-635,217
101,62,27,-871,-564,45
106,23,-3,326,-210,812
85,4,14,344,-142,517
60,9,23,-248,-559,1042
101,-57,5,-671,-611,-207
60,-1,22,-1395,-1030,862
29,-14,102,-1348,2516,-6116
102,79,68,-726,3164,-6319
91,51,89,-602,4849,-7941
113,126,-118,-759,4789,-8678
12,33,-69,-2062,4576,-8039
-121,111,-124,-4189,3796,-5969
-24,-119,121,-6140,3767,-3618
-105,74,95,-3906,5189,-2068
-22,-104,55,-1118,2201,988
4,43,96,663,-1256,1379
118,32,20,3292,-1369,-531
-9,-105,-31,4815,-1318,-269
83,-78,-56,4294,-1217,1221
-8,-93,-100,3377,-1693,4455
-48,-124,-93,-529,-3108,5563
49,-102,-89,-1634,-5997,6714
10,47,74,-4824,-6374,7335
0,121,-101,-2768,-8323,7025
-22,-32,83,-2621,-5227,4849
-17,109,126,2484,4178,-4052
-28,-1,69,585,-491,-4299
-1,-112,51,1237,2554,-2907
10,0,-44,2596,614,-2002
86,93,80,2668,-1340,-1576
22,117,51,843,-542,871
17,-81,96,-469,1487,3320
22,44,94,728,778,3383
-119,-4,120,565,958,5051
-102,-81,-120,159,-326,4942
-81,108,-71,917,-213,3284
5,78,-69,892,214,2364
5,-4,-87,746,-168,1650
42,-45,-115,-189,628,2056
34,54,104,1665,765,1630
12,-30,111,2494,796,1179
-10,-38,-113,930,-307,546
34,-113,-119,-598,-1220,995
49,49,115,-710,-1723,213
66,24,106,-795,-971,-407
86,11,56,-579,780,-1208
94,42,23,-378,1013,-192
87,45,21,259,206,81
116,36,6,951,166,419
123,79,38,194,172,413
84,86,26,-209,287,345
102,60,-1,215,339,433
-118,68,-2,345,191,422
-100,93,18,94,115,395
126,79,37,590,305,12
-116,58,18,990,862,-242
99,-34,-55,2150,193,-6023
41,36,-2,2377,272,-7429
-124,-121,118,1529,-724,-9093
50,21,-59,-1675,485,-9476
13,59,-29,-657,1919,-8557
-60,82,-55,656,1630,-7484
-89,-14,-42,-2597,1669,-6592
-31,101,27,-3706,1539,-4924
34,-84,114,-1596,2357,-1870
42,-76,-86,1191,1287,2208
-104,-68,30,1674,-1828,229
-105,18,-4,2864,-229,-419
-96,22,96,4497,466,1284
60,-77,90,1697,-379,4018
-72,-81,-43,-1105,-3117,4641
53,90,59,-3110,-5301,6614
117,-57,-62,-2473,-8432,10126
-117,-13,-59,-6321,-8982,8498
-59,88,8,822,-648,-913
36,-11,114,6108,1011,-5059
24,118,71,-1218,785,-3351
29,41,62,2073,1809,-1898
5,-120,-61,4287,359,-908
-114,105,-125,1374,124,-1579
-43,81,84,178,2428,599
96,6,90,1408,1279,2322
-73,67,78,-1101,1862,4722
-59,-90,-126,-2944,-956,6797
-44,-65,125,790,-1483,4131
-112,-24,-115,1765,-697,5792
-98,93,106,-63,-650,4670
-67,-12,2,743,-357,2102
-17,-46,-12,1781,-827,-613
6,-16,65,467,-341,404
-57,45,120,408,84,1263
-68,-107,49,2077,647,530
-30,109,60,2223,624,941
11,83,83,1364,540,909
3,49,100,281,-59,905
-6,19,92,-625,-300,165
9,-1,54,-1049,-176,-160
32,-18,22,-515,198,-66
28,-18,-3,-227,150,-54
33,-4,-16,-338,109,13
45,7,-26,-362,38,179
49,8,-47,-127,239,159
50,29,-46,-326,29,262
64,33,-58,-189,129,292
65,44,-63,-185,89,262
73,56,-67,-269,38,224
-98,33,52,-1565,1181,-7083
-124,-91,-35,-592,2540,-7714
-20,-67,-86,-1224,3727,-7853
119,89,54,-775,3829,-7397
75,-98,43,-1543,4403,-7111
-100,-10,61,-3224,4311,-5144
94,32,-106,-3040,2939,-2380
96,-56,-79,-384,1965,289
-82,37,-39,-773,-1156,800
-11,-77,-10,-725,-2326,-1350
41,110,125,3431,-324,-1609
-37,-40,106,4708,22,509
64,-11,112,4781,509,1906
-30,-16,116,4213,102,3529
-127,16,-74,1068,-2072,5224
-38,-70,-10,-3275,-5923,7454
-106,-28,-44,-3619,-7916,10603
-107,-125,-18,-4773,-7814,7418
19,108,-59,7569,2448,-2155
28,21,81,2516,-1294,-3808
-77,1,97,-1044,1900,-5307
-37,-4,107,105,3471,-3133
98,43,22,3693,5,-2084
-76,122,72,528,1845,282
66,-109,-99,-1618,566,2507
71,5,92,-1605,-41,4794
41,-116,-111,-2606,249,4206
70,-39,-123,-2197,-648,526
92,105,102,-985,-1172,2984
-47,48,-62,425,-464,1906
-38,10,-96,-984,-1161,2815
107,-99,-121,612,-1018,2968
-38,105,-111,1137,-1003,4322
47,-106,-117,647,375,2091
3,100,113,1389,283,2521
8,-8,70,2347,-16,1247
23,-38,89,1185,65,363
-5,-87,92,-217,-1398,521
21,-112,116,-1457,-1287,-1539
94,103,33,-713,-27,145
63,73,10,353,139,1145
42,76,20,238,-152,34
66,106,3,-730,90,-44
108,103,-32,-832,302,173
65,86,-49,-160,-263,706
34,115,-36,-514,-649,1248
61,-87,-44,-1382,-530,1588
70,-89,-85,-1155,77,1233
57,-83,-112,-585,330,574
46,-91,-120,145,145,-239
-114,81,72,-384,1735,-7599
18,-119,-120,-1275,2422,-7888
-112,126,-32,-441,3476,-8589
92,-22,-128,-473,2853,-8147
-101,98,-78,-2117,3354,-8286
60,-78,24,-3261,3880,-6578
-53,119,-34,-5291,3675,-3706
118,69,73,-733,2487,-1547
-76,-53,112,1468,-115,1356
-92,-11,115,3117,-1197,452
-96,78,95,5192,674,-224
-21,22,109,4420,835,2438
-49,-32,19,-211,-802,5258
-82,-2,-84,-3294,-4589,7588
87,31,-100,-5323,-10628,12445
-2,99,-122,-6477,-10892,8821
-59,-32,76,4711,-3,-307
62,-103,100,1283,-37,-4793
-49,109,67,1807,2405,-5415
119,-52,45,1519,2586,-3261
-46,-10,-62,2720,3631,-2967
53,66,-16,1968,1027,-1633
1,-19,-58,-1181,1737,-275
79,-51,-21,-4560,1371,6189
-82,-67,-35,-672,-715,10242
-21,17,114,-1327,-584,4504
94,11,-99,-1654,-1407,3236
-35,98,-64,359,-1964,2534
110,67,-63,-435,-476,2172
-11,118,104,226,-773,2229
11,99,74,-28,-885,2778
48,62,40,114,-659,1853
27,47,98,311,-602,190
41,13,52,622,571,-15
66,-120,37,2502,356,418
59,-125,79,1331,-100,-156
35,-111,78,-1054,-143,-175
67,-122,48,-1579,-426,176
69,-122,6,-1211,-466,345
78,-95,0,-828,-260,416
-125,-64,-10,-626,83,455
-6,-87,-56,48,-89,438
42,123,-66,462,-367,316
-125,-121,-35,-349,-269,-83
119,-54,-36,-1580,-113,684
67,-42,-80,-1289,117,272
69,-86,-103,208,203,-536
-118,-92,-102,651,242,-294
-85,-92,-105,470,214,-49
-118,-94,-101,57,-92,106
-82,-51,-34,-2634,863,-5274
109,32,121,-1418,-343,-6542
103,67,46,-583,1646,-8281
40,64,3,-1325,2681,-8556
6,-106,-125,-236,3389,-8479
-120,-26,-82,-1798,2622,-7061
-60,65,-72,-4110,3887,-6271
-66,10,120,-4809,3424,-3259
54,5,22,-3967,3307,-2763
-49,-48,-101,427,1060,314
-86,43,85,2953,-458,166
-21,-113,39,3413,-1485,475
-100,-92,-27,4758,-486,-914
-70,-19,81,3583,49,2579
-32,-16,43,1363,692,3121
-114,-43,77,-183,-2064,5041
-56,-8,-49,-4130,-8823,9527
-84,36,-123,-4903,-10660,10478
37,26,-54,-7174,-7682,4578
123,18,-91,14948,4314,-8194
-17,-47,78,-1089,-2228,-571
-35,23,97,-3368,1799,-3059
11,11,77,3295,4082,-3817
85,10,-28,2222,3019,-4292
33,-115,-6,-2132,2532,-636
10,-65,118,-2644,2352,5753
37,8,24,-1291,-1910,8321
-97,-40,107,-2584,-541,5476
111,-51,-65,-1090,-3371,3567
-83,-89,-45,158,-603,4673
13,-80,-13,1412,151,4798
6,-117,116,701,826,3383
124,-40,43,1384,-872,3769
-97,20,28,2051,-2017,2660
25,32,108,3539,420,-477
26,25,105,2627,912,-520
0,60,96,627,-124,-71
-7,30,113,-525,-1325,225
11,8,83,-1262,-697,-168
21,-19,37,-1195,-178,-208
29,-32,5,-269,118,-74
24,-16,-3,-22,39,35
30,12,-2,-376,-38,207
40,28,-16,-591,42,276
46,35,-36,-441,131,279
49,52,-52,-469,104,323
55,61,-60,-262,115,293
63,70,-78,-45,141,188
69,82,-73,-128,2,102
78,86,-79,-144,48,-42
70,106,99,2060,-228,-6142
102,-67,-1,-1781,940,-8141
106,69,116,1956,694,-11371
-75,31,81,-675,1563,-9463
41,37,54,-963,984,-10162
34,-81,33,-3048,2285,-7040
101,119,-52,-4155,2867,-5809
-106,84,28,-6653,1903,-3129
-3,-35,-124,371,1368,-658
121,-38,34,2782,-1053,1517
-97,-80,-112,3131,-1162,-390
-27,-47,-18,5145,583,-1352
-79,-69,70,2564,-124,1993
19,112,69,-407,-1428,5415
-108,45,87,-2221,-5671,6906
-2,-95,12,-5840,-8720,9448
-77,-86,76,-3947,-7069,6724
41,39,-18,465,-5635,4154
104,106,-34,3449,914,-1551
82,-50,89,2289,1490,-5722
37,-116,52,1485,4125,-6255
58,41,-31,4,2304,-2966
69,-126,9,2736,1125,-1628
-31,120,-32,1591,445,483
-75,0,22,-1058,230,4536
45,92,-103,-887,-2509,5783
-59,-88,-68,-1216,-1122,6016
101,4,-85,1458,-3762,9409
56,-90,-49,2375,-3409,5989
26,85,-122,2120,-2575,5725
84,2,44,-108,264,3621
-44,47,-18,703,326,47
-75,-2,-54,1133,883,-1334
-120,-99,-49,1178,262,-2071
-58,98,-5,304,-97,-1705
-20,127,-10,-1448,-76,-626
-32,-128,-32,-2186,-288,-500
-54,111,-58,-1624,-425,-306
-42,-113,-60,-1348,-273,72
-25,-93,-71,-1000,-8,176
-4,-84,-96,-188,216,180
-10,-71,-103,39,102,62
-8,-51,-104,-373,-50,137
11,-45,-105,-415,-102,300
18,-51,-97,121,-42,296
31,-39,-100,80,163,240
39,-33,-108,-125,170,234
48,-33,-121,-113,92,190
60,-48,-120,65,174,-22
72,-46,125,-153,292,27
-123,-19,-87,-3074,2746,-5735
-67,15,23,-2184,4603,-6349
23,-24,-33,759,4311,-6780
-79,65,-104,827,4638,-7445
-12,71,86,545,4735,-7109
63,16,97,-468,3904,-6625
-104,100,68,-5751,2651,-4881
-109,41,-11,-1771,2359,-2625
112,18,124,583,41,727
-78,-2,21,2165,-902,565
85,-98,-36,4144,401,461
-9,75,-13,4213,-170,1832
-63,100,-31,2800,-1843,3842
99,25,-68,-571,-3656,6550
-43,-39,36,-2754,-7526,6247
-48,-109,63,-5653,-9506,8439
69,120,23,-3459,-8761,5631
80,-62,119,4561,94,318
-10,56,-128,1992,-541,-2961
95,42,86,141,2530,-3806
-118,-89,53,217,2165,-2825
28,-67,111,4011,2438,-1978
-127,-74,-46,3287,1010,-923
-56,110,-60,1464,-606,-411
25,-121,-43,-36,1067,2531
-42,-39,100,-1266,-803,7730
-73,-64,17,300,-2103,5753
12,80,64,-875,-1270,4449
-90,68,-19,2096,-1082,4164
-33,25,-127,586,-1646,4671
-5,-87,51,-820,-1458,2948
28,83,43,176,-881,1317
7,-78,24,4036,518,26
-57,-106,-11,3807,897,-1459
-25,82,50,2493,297,-1162
-3,42,80,913,73,-390
-7,-18,72,-32,149,24
0,-31,50,-641,101,-8
26,-52,25,-407,128,82
29,-50,-2,114,59,474
37,-26,3,72,-89,572
47,13,19,-430,-282,555
47,47,18,-1003,-294,377
41,40,9,-786,-166,42
67,31,-30,-567,471,-336
66,41,-63,-583,395,-158
64,53,-87,-563,58,63
68,77,-82,-628,-280,56
80,80,-82,-432,-44,13
107,103,-85,-699,146,-55
-77,-82,-48,-1068,415,-7152
0,71,-82,-1718,1390,-8001
-102,82,102,-607,2076,-8295
-109,-10,34,-1258,1256,-7074
57,71,-25,-3322,1502,-6073
-31,81,4,-4161,1726,-5352
117,47,5,-2055,3716,-4689
-128,-113,37,-661,378,-246
92,20,-55,1067,283,1800
-106,118,2,3059,80,1156
90,-58,-85,3236,31,16
26,69,-121,3299,474,1464
110,-46,-51,2563,-694,5068
83,90,37,4432,-722,3920
-91,-53,-71,-352,-2751,5887
27,87,-101,-3365,-3676,8156
54,111,59,-7086,-6469,10878
-48,43,-118,-6829,-8432,5893
74,-2,-32,5997,2111,-1112
62,111,108,2102,-1757,-3545
125,14,86,-270,2041,-3992
71,3,-7,1933,1834,-2565
121,-117,54,2732,1822,-2007
-21,-111,58,773,484,104
-64,-108,12,490,1090,841
-102,100,-116,-467,-198,3633
-52,61,117,-936,-643,6910
-7,22,-100,1431,-310,4866
55,-50,-83,269,-775,6293
-100,105,-121,220,-1640,5688
65,11,70,-37,-2175,8077
-50,75,11,408,-1926,998
-18,-32,-18,1037,-695,-742
26,-33,-10,2043,526,334
-74,-26,-17,423,488,-926
-105,86,9,-106,-163,-2357
-21,57,1,-162,268,-1259
5,73,-9,-934,370,-203
-14,97,-17,-1535,-203,219
-8,104,-32,-1581,-241,43
16,109,-61,-741,82,24
28,112,-80,87,226,-44
20,-115,-78,67,33,111
28,-112,-98,252,200,175
30,-91,-90,-156,-86,295
57,-76,-86,-446,-80,290
68,-72,-87,-506,62,166
66,-64,-89,-644,70,20
77,-51,-105,-922,119,-76
79,-54,-115,-887,-9,-93
-32,-2,81,5081,4097,-6062
-18,26,84,667,3114,-5966
114,-112,119,2297,3779,-7536
3,124,68,-984,4160,-7803
33,70,35,-1073,5156,-6308
11,103,126,-455,4476,-6340
64,-38,-80,-3292,4312,-5650
84,-127,-104,-4199,4702,-4481
-123,-1,-71,-3483,3671,-2464
14,13,-59,-1024,756,-377
69,-83,110,2504,-757,869
-32,77,30,3963,-13,2
-42,-40,26,4230,171,1155
-110,18,-36,3729,-783,3791
107,-80,10,881,-3081,4825
88,55,35,-3463,-6158,6683
-86,95,120,-7030,-8141,7297
114,76,107,-3326,-9754,4641
16,-86,-67,-12107,-6765,3127
33,-20,47,10130,-531,-845
-56,28,100,2388,-412,-4098
-64,-29,80,800,4158,-3976
-105,68,49,3691,1848,-2653
56,3,119,2539,2412,-2894
-42,-92,-80,1327,1971,-1338
91,35,96,1214,958,-6
-117,-46,102,-915,-80,4976
-47,-86,98,733,-2945,8996
28,-108,35,72,-3005,5311
127,64,87,-1772,-2640,5221
106,-38,-22,2667,-1755,3914
-56,-111,-89,553,194,3783
-5,-18,104,953,461,2132
-112,-102,64,80,-40,-218
-75,-51,36,859,-469,-1077
-24,106,24,836,-281,-491
-11,105,32,330,-198,152
-17,63,19,485,-227,159
3,81,29,-815,-52,-23
11,100,-4,-1848,79,-2
9,80,-42,-824,-80,165
24,92,-46,-150,-45,191
20,-123,-48,-362,-13,273
26,-98,-67,-482,59,186
32,-97,-80,-468,83,27
49,-86,-95,-479,38,-2
53,-84,-93,-573,-61,-81
64,-76,-96,-680,-66,-30
74,-70,-98,-640,-56,-12
76,-69,-102,-489,-67,-22
57,-68,85,3630,782,-5716
-8,103,85,1622,-377,-6918
-99,-116,1,-771,-325,-8067
-89,-61,-89,-2497,759,-8571
-76,-26,-97,-2139,1073,-7295
-20,26,79,-3282,1604,-6859
85,112,13,-2734,3292,-6124
-55,114,52,-2332,2365,-4440
22,-50,85,-3125,3028,-3119
32,-99,-125,-2589,1832,-344
65,-126,-8,-312,189,822
-126,104,17,2150,217,-449
-17,101,-67,3922,292,-272
-16,-47,37,4276,-452,1930
-56,89,71,3367,-1383,4507
113,35,-97,88,-3174,6396
38,54,-11,-2811,-5311,7749
-73,-83,-13,-4745,-6696,8194
-62,125,-28,-6720,-9864,9996
-31,3,-23,5987,26,-490
-54,-88,108,2928,-460,-5986
95,-36,55,729,2662,-4729
81,-21,-8,1856,2087,-2370
69,-85,-113,3021,735,-2850
8,-36,67,552,678,-618
-126,-50,94,-666,-107,2354
-121,49,-89,-685,-367,4695
63,53,-2,316,-2140,3820
-120,15,-20,-1275,-421,4858
-70,67,-103,1273,-1137,4085
18,40,-87,1026,-2056,6056
-34,-73,103,1898,-308,2313
34,90,63,3429,-143,6323
-115,32,43,3881,1747,4605
-40,-56,49,2204,300,193
-93,-120,57,-406,-650,-1074
-31,113,52,-2036,-681,-730
-22,47,14,-1336,-415,-662
-20,15,-3,-336,-276,-411
-15,25,2,85,-163,-250
-5,43,-1,-185,-100,-188
14,54,-6,-507,-153,-141
18,54,-17,-583,-94,26
13,65,-27,-550,-122,181
16,80,-34,-515,-49,202
30,97,-46,-444,51,243
39,110,-59,-433,96,218
47,124,-76,-500,129,139
59,-126,-97,-455,128,63
64,-126,-110,-308,70,53
44,106,30,2746,1300,-4259
6,-19,74,263,2307,-5926
-63,-93,-43,896,2640,-7300
-90,-111,64,218,2683,-8060
102,66,-112,-195,3075,-8387
-57,117,60,-453,3248,-9505
106,-54,-108,-6288,3628,-6904
33,71,2,-4324,4068,-3656
-70,20,-4,-2181,2305,-1841
66,-114,1,-79,-181,254
69,47,-95,2554,-970,481
-14,-21,5,4748,-313,-563
-36,-57,22,5875,752,1930
16,44,-121,2635,-2974,4431
-51,116,-125,-83,-3828,5100
108,-96,-23,-3759,-6726,5595
62,39,74,-4541,-11335,7632
58,-77,26,-2308,-11612,6475
83,-23,-22,7677,-3053,431
78,-64,-77,-2784,4501,-7667
54,-12,109,1772,3246,-4196
73,17,56,1855,2833,-2648
23,-20,101,2291,1430,-2371
13,96,58,1904,499,-2037
-27,-104,54,-280,-182,1097
122,56,-14,-902,-312,5746
-117,-6,7,464,-291,5494
121,31,-27,-1119,-67,4808
-120,-70,-74,-747,-2869,3884
46,58,-84,513,-2217,3222
-76,-19,-121,1353,-1724,4046
9,-34,-102,542,222,939
-34,-127,115,1288,861,1322
-7,43,69,1716,1128,-770
-31,-27,96,794,-60,-88
29,-48,111,-984,8,-273
-2,-115,49,-50,-14,81
38,-121,67,29,-402,272
40,-88,53,-597,-239,669
49,127,13,301,-143,1194
52,-127,2,56,-601,1464
41,117,20,152,-450,966
70,120,-24,133,691,-928
112,-128,-23,-66,1040,-1924
113,-125,-13,334,491,549
102,97,-11,455,-333,472
106,-124,12,-604,-143,-99
121,-101,-9,-1044,233,-534
-122,125,-29,-178,195,10
-89,-128,-33,276,232,137
37,8,-29,-1203,905,-6250
84,-108,-57,-662,1822,-7266
64,6,116,-2648,3226,-7164
-17,107,-51,-2107,4262,-7611
88,30,124,-2050,4140,-6483
26,110,-39,-3381,8078,-6834
-41,89,53,-8555,3980,-3119
-25,-127,34,-3685,2025,-785
-128,102,-79,1599,1463,428
-81,-95,-101,2122,-2809,-482
-36,51,25,4640,-1073,-2063
20,-74,-53,5783,-195,-1142
127,-37,-63,3898,-844,1948
59,-126,-10,3230,-750,2338
-7,67,15,-1216,-4272,5799
-80,-64,-90,-4166,-9227,9226
-16,-95,93,-4984,-10389,9534
-44,-7,-111,-2540,-5581,5022
-21,97,-44,5429,3262,-4859
77,42,94,3420,40,-4790
88,47,47,-2063,4619,-4724
-128,115,-41,2237,1334,-2295
124,-4,106,3125,946,-1829
-16,-4,56,685,1209,-77
92,-19,-111,-517,-109,3011
113,63,-118,154,-334,4854
110,52,-53,-907,-1021,4775
126,-59,-40,-1411,-1619,3359
-64,-117,-24,-675,-1620,2628
57,7,-57,530,-531,2650
-109,-60,-93,659,-322,2505
-80,-104,-127,607,-812,3052
-2,107,114,362,-212,1766
6,46,113,763,-479,2425
0,-15,66,1873,-172,3402
4,88,55,3241,-743,2496
-58,65,63,1532,-1048,3
-50,42,67,-346,-377,-1133
20,30,35,-718,701,-427
14,22,12,-754,379,-15
-5,10,-9,-301,-236,55
15,30,-10,-411,-94,14
34,39,-25,-476,140,-146
39,31,-36,-169,98,-71
42,48,-42,-400,-1,83
55,56,-54,-268,7,181
57,68,-53,-156,-15,146
73,78,-60,-147,77,90
74,84,-68,-165,48,209
78,93,-80,-239,27,193
-73,24,49,-7423,2770,466
-12,-17,59,1063,1927,-3238
76,72,104,1949,3670,-4689
-91,-62,64,1381,4933,-5717
85,109,-17,1858,4987,-6375
-1,-7,-49,758,6005,-8040
-3,22,110,-1512,4834,-7108
-106,-100,82,-2986,5463,-5996
75,-45,125,-4064,4628,-3866
12,85,10,-2789,3813,-2215
30,-37,119,-2973,-182,-490
-117,-46,-65,560,-1009,31
-70,53,-78,3166,9,-1401
122,126,103,4758,406,-886
-16,-58,-33,5188,1133,341
126,35,100,4281,131,1936
-4,-53,-4,3114,-1326,4749
100,-103,-90,816,-3704,5444
-90,63,-17,-6552,-7051,9168
-110,64,83,-2960,-11265,11820
12,109,50,-6820,-5199,3636
-58,-116,-46,9464,1160,-4868
100,93,64,4271,3243,-5548
-73,13,50,-1561,1988,-4639
96,3,94,1869,4197,-2609
27,-119,32,1851,729,-1688
-27,121,12,-151,592,1340
31,-73,-76,-1338,-2457,4588
50,-120,-10,417,-1153,7201
-10,122,9,257,-2328,6176
64,99,1,1663,-3171,4155
39,105,-66,-878,-2115,3310
115,-1,-106,-464,-1048,2194
-92,42,34,1355,-70,1040
-40,73,67,-49,422,915
-18,12,50,504,873,-528
16,-16,40,1321,973,1710
-17,9,41,465,604,1045
-9,-46,17,439,110,214
5,-83,32,-106,-292,-128
24,-102,19,-333,-73,-101
39,-107,5,-426,75,-106
35,-114,-2,-269,-123,60
51,-114,-3,-462,-233,237
57,-108,-7,-791,-320,509
63,-119,-30,-537,-84,388
67,-115,-52,-234,104,530
70,-109,-63,-112,141,273
77,-99,-63,-198,70,112
91,-93,-69,-155,43,258
121,-56,123,6387,4550,-6890
53,15,-103,3099,2300,-5835
77,54,-66,1055,2936,-7923
-66,-83,6,431,3480,-8948
7,112,55,2194,3774,-8545
123,-39,-18,75,3929,-7947
-60,-4,3,-3824,2765,-5876
-122,-87,68,-4327,2181,-3718
-26,-122,-102,-1808,564,269
74,-85,-89,508,-152,1250
-3,72,115,3093,233,439
56,54,-76,3896,131,-530
100,70,75,4890,780,-767
-92,72,83,4210,1062,743
-35,-98,-57,1767,1858,2550
-115,92,-103,-1977,-1841,6070
87,62,-35,-7635,-8128,7581
-121,32,75,-1355,-11768,11481
109,-128,71,-7734,-7177,6011
125,-24,-14,3928,811,-188
-86,26,85,4807,2149,-3891
-62,-115,34,1446,3271,-7031
-9,-35,43,1609,2013,-2404
-52,-20,39,3898,964,-1560
-20,-71,31,728,-1742,113
-88,-95,42,-322,-2467,3055
90,-13,-115,-2238,1086,5240
76,104,51,-469,-1782,5164
109,-63,99,-1654,-1211,2726
-113,17,74,1193,-1799,4068
-85,-23,117,208,-3838,4232
84,-39,67,764,-4105,5232
-21,104,-31,879,-1136,5410
-92,104,13,-1234,12,454
-45,18,-1,34,327,-1047
13,-14,-42,1090,512,571
-21,-14,-25,528,141,1026
-40,-32,-34,27,-16,685
-28,-50,-35,-401,-98,237
-15,-61,-52,-340,-36,119
-19,-66,-52,-90,-283,206
10,-72,-36,354,-358,152
44,-60,-41,-131,176,-313
39,-80,-57,-338,245,-514
16,-90,-63,-431,91,-353
40,-95,-82,-645,263,-272
48,-96,-91,-389,152,40
61,-96,-101,-92,144,22
82,-84,-100,-138,111,83
77,-76,-102,-336,99,198
108,120,-11,3266,1455,-5030
25,10,62,-62,1985,-6495
102,-106,-6,335,2888,-7039
14,-55,97,536,3429,-7562
-48,0,-6,-1360,3383,-6561
123,81,-82,-1005,3954,-6403
5,-78,-53,-1802,4528,-6085
-37,-32,-20,-4118,3002,-3727
38,-37,64,-4113,2792,-2242
122,-120,43,-1124,759,1983
-31,-95,99,468,-27,2140
-55,-44,125,3155,-932,-1234
-13,88,-38,4365,-660,-2079
118,-61,76,5298,-170,-962
26,-5,114,4016,-354,2057
105,-93,-122,2000,-1058,3391
108,27,-104,-3737,-6954,6891
103,24,-68,-3681,-6999,5859
125,-55,-61,-3254,-10048,10965
-48,-50,88,-9061,-6544,6957
92,-56,-70,12137,3240,-3893
72,80,42,2470,-3270,-2746
35,24,48,-6883,2656,-4320
-119,-57,-6,2803,273,-2347
-23,-50,110,3989,604,-485
19,25,-122,1911,-1232,596
-39,-116,63,3415,-1960,-1402
-46,108,63,2702,-854,1704
-10,-15,-74,-2910,3293,7332
67,-33,-56,397,-1790,4176
59,-24,-109,-1572,-2081,4049
-114,122,126,-1009,-1857,4156
2,56,-94,-365,41,1585
-62,-36,95,1562,1055,282
-112,119,55,1953,101,544
-58,75,54,-150,-556,1620
-25,-47,14,-292,-758,1115
-18,69,-14,1426,-217,57
13,90,-12,1252,295,-466
39,113,-6,201,341,353
24,111,-15,-834,-77,324
21,103,-35,-1077,-294,171
29,105,-54,-858,-277,227
43,101,-66,-344,46,41
76,113,-83,-266,238,-65
89,119,-99,-170,194,235
78,127,-105,-69,-7,296
62,124,-105,215,-96,-46
71,122,-96,325,-115,-130
72,123,-96,136,-8,-26
