AccX,AccY,AccZ,GyroX,GyroY,GyroZ
-50,-52,5,4368,1885,-5960
-109,123,-36,2174,5701,-5023
104,53,-90,280,7321,777
55,-17,78,1625,6469,5118
85,105,94,-3084,-2190,10992
41,7,-85,-3912,-8538,3915
-105,-96,83,-1761,-6999,-2003
-108,-42,-61,-5901,-3442,-3817
-29,93,11,-2594,1207,-6424
-33,43,-97,-3602,2603,-4885
71,101,54,405,2523,-4609
85,99,89,-2310,5625,-1271
9,42,-44,4529,5082,-2463
-112,56,-120,4048,7929,607
-29,48,16,6053,7704,3513
-86,-85,-23,-1696,1565,10914
79,-113,60,6684,-9920,4750
-100,-63,80,141,-1764,5640
67,-64,88,326,-2186,-1298
9,84,10,-127,-1948,3909
-44,-26,33,-3451,183,2484
-29,28,1,-2610,2217,2824
-124,-98,-1,-7539,4683,4410
-110,-28,-99,-6171,3505,4391
-87,-73,20,-2802,4833,5394
9,-53,5,-722,2952,5445
30,-111,124,-969,3583,5831
44,-25,33,485,749,2618
102,61,75,929,-260,2582
1,-26,127,210,-1220,1341
17,108,94,1780,-378,909
-91,106,113,1251,88,185
-110,38,-119,1078,-97,-810
-105,-100,-86,1815,-432,-1389
-69,119,-36,1235,-570,-1092
-57,-111,-32,-306,-726,-906
-31,-103,-42,-439,-522,-412
-12,101,-105,358,296,-808
-21,-109,-72,-145,-448,-595
-1,-106,-83,-366,-392,-195
-8,-97,-105,-499,-201,-59
-21,-71,-124,-678,-239,128
-31,-70,100,-201,-77,171
-35,-47,94,-38,-42,273
-35,-20,78,-120,117,344
-39,4,67,-418,-106,146
-35,15,59,-393,-113,144
-42,19,52,-187,-173,-239
-44,19,51,54,-105,-224
-31,35,43,-129,66,-43
102,-79,12,-1157,-3220,-3868
-119,-42,4,-277,-2213,-6453
96,1,35,-1035,-1861,-5870
-58,-114,99,4123,54,-6289
-68,0,-16,3259,3522,-4540
-40,-85,84,980,6612,-256
-38,44,86,1755,4794,7542
112,5,27,-71,-2378,8414
-115,-125,5,-1870,-5770,2793
117,-100,-92,-2128,-5463,-3106
-106,126,-99,-4854,-1451,-6385
0,80,-29,-2957,422,-5578
-122,73,-112,-3793,2111,-3212
-80,119,51,-1275,3333,-2309
-69,92,23,498,4236,-1699
-128,87,-84,3896,5536,-1937
-93,104,-121,3782,8548,3945
67,68,113,-2030,4244,12691
20,-9,11,13021,-11430,3894
-120,-31,66,-1978,-1866,5278
-58,-99,-65,1142,-4662,889
90,-123,108,-841,-3684,3225
73,-74,-19,-3369,-1207,1363
-33,8,-61,-1772,-146,1489
44,-47,-60,-2853,970,1216
-30,34,-114,-4147,1527,3497
-120,-128,-42,-4620,3346,5154
-91,-110,79,-4192,5955,6924
74,-59,-114,-2063,5243,7913
107,-77,-17,-570,1653,5490
24,-4,123,2621,1144,4651
-32,-121,-77,1904,1184,1873
-29,41,63,-20,-46,704
-85,127,95,839,-17,12
-83,-3,-127,2098,174,-469
-60,-72,-99,1908,165,-1067
-54,-81,-77,676,-49,-929
-30,120,-41,-176,-570,-655
-3,91,-50,-236,-571,-498
31,93,-68,8,-232,-270
23,95,-87,17,-14,-442
14,116,-75,-116,-226,-46
9,124,-73,-145,-338,0
1,114,-75,16,-224,-282
4,-121,-64,29,-333,-366
35,-113,-102,61,298,-268
7,-79,-119,-327,-54,-256
-8,-50,113,-397,-482,121
0,-31,103,-195,-288,188
1,-9,93,-97,52,-9
-96,113,30,-4375,1827,-4368
39,114,-29,1252,-910,-4439
-123,76,-117,-3521,-2340,-5098
-88,117,-59,-779,2,-4619
66,-120,21,2840,374,-5696
19,38,92,2610,4358,-5735
-51,-67,7,2354,7626,-3213
77,-6,62,1750,5650,6295
100,-85,-26,-2982,-2543,13141
94,-36,-100,-4113,-5798,5351
93,41,82,-2725,-7880,-1863
-89,-3,-33,-4824,-5294,-4260
-67,0,93,-3738,-1230,-6355
-58,-30,-18,-3416,1811,-5655
31,61,-57,-3356,3827,-4258
-78,122,70,-2907,6045,-1172
-77,-113,17,-614,7392,312
45,-125,36,3730,8077,-1659
-47,-92,36,3619,8511,4728
15,-97,-56,-3787,4148,17257
-64,74,16,9669,-8202,-4123
3,54,40,9597,-12133,6119
70,-125,124,-380,-2227,7464
57,9,-98,-3109,1124,182
-70,91,-89,1544,427,-2397
-67,-50,-100,-1656,-1490,1539
79,39,11,-711,-1110,881
47,49,-99,-1283,-722,1231
91,56,43,-2957,633,2309
27,80,-10,-5776,2458,3214
-64,-73,39,-6852,4175,4646
-36,106,-26,-5080,6217,6127
63,11,18,-3055,4324,7825
-93,74,104,-1257,2086,6745
57,-21,-47,-430,528,2791
61,127,84,3840,-711,1060
22,-113,-74,66,-748,1122
-32,-55,-115,631,253,-306
-70,18,-101,1370,370,-452
-47,16,-93,298,485,128
-50,-44,-74,-231,-511,-418
-31,-100,-79,-177,-572,-565
-24,-108,-91,33,-416,-446
0,-112,-104,241,162,-182
-15,-88,-101,-82,-70,92
-19,-69,-111,-351,-241,74
-4,-56,-122,-381,-60,224
-13,-69,114,136,83,-57
-3,-45,106,175,316,-76
-16,-30,120,143,-147,-314
-99,-2,-12,-2193,-1374,-5591
-31,-15,24,-1001,-977,-6356
-7,40,-17,1730,2004,-6155
66,-120,-13,5982,2265,-6573
-90,-82,-54,3277,3302,-6284
105,-31,26,1756,9143,-4085
15,58,-13,-4056,5999,10184
79,-71,-81,-2614,-4067,12599
119,-114,52,-2635,-7809,2461
117,-63,-128,-2743,-6263,-2100
-109,-23,114,-3890,-2674,-5202
62,-6,95,-3112,-494,-6858
85,-102,-58,-4083,645,-4018
-104,-90,-123,-2314,1934,-3187
78,-52,-97,-1513,3964,-823
-125,-127,104,-1205,6320,1601
78,-116,96,2545,7717,2855
68,101,17,3571,9323,5855
-60,36,-59,-3091,422,11923
-37,78,30,9161,-6597,726
50,110,94,-96,-4787,6420
113,71,46,4277,-9090,1299
46,-115,-17,1265,-5468,2906
-96,74,-89,143,-2549,1399
-67,-89,77,-1258,-315,1027
71,80,87,-2502,694,2042
-80,-48,-31,-2613,3080,830
-89,68,49,-6887,4261,3301
43,-112,-30,-8105,4913,4732
-5,94,46,-3659,5465,6780
-119,93,100,-1142,3853,7346
-20,-60,40,-2153,2141,4105
119,-43,-30,1543,1723,3287
70,65,-59,2231,937,1520
105,-43,-64,1480,1588,1424
6,-124,-43,205,972,1440
-55,22,-46,1117,-114,914
-104,106,25,2873,-1392,-28
-69,80,51,2687,-973,-603
-57,107,99,991,-187,-841
-60,96,-120,-174,-209,-780
-33,79,124,-666,-555,-655
19,69,85,-962,-574,-545
17,58,45,-741,-369,-507
13,62,21,-518,-245,-430
6,75,-9,-179,-165,3
0,95,-20,-162,-12,107
13,116,-44,-251,151,249
-6,-115,-66,-305,-59,329
-3,-92,-75,-411,-27,103
52,14,-106,2361,667,-5754
-56,-35,-40,6646,74,-7735
-97,89,-35,3074,3230,-7614
-97,-41,121,-2802,9664,767
122,-125,-116,-5647,4543,12230
-28,-41,117,-9426,-8079,14179
1,122,-4,-2544,-8867,-830
103,60,106,-3676,-4298,-3418
124,14,122,-1902,-124,-6096
104,119,28,-1131,1578,-6429
53,-119,74,-2340,3200,-5746
63,-73,39,-980,4771,-4980
120,107,49,-571,7027,-3505
-87,64,6,1472,9135,-3800
-60,-34,-32,-3059,13127,480
115,-37,73,-2945,-2934,19277
-37,7,-39,7613,-12758,5867
-61,-93,114,7006,-8093,960
-26,-44,88,37,-3894,3082
-30,-127,-22,1614,-4735,3446
-61,-95,42,258,-1724,1935
29,115,73,-2506,1565,1291
-109,-89,-96,-1237,2870,1847
-62,-11,-44,-4299,1802,2123
-63,35,5,-5519,3862,2843
-99,82,68,-5454,4133,3328
-86,82,46,-1783,6512,5162
96,-9,-117,-2550,6915,7571
-125,-23,-44,-227,5574,9103
-42,59,-111,-1102,928,1460
35,114,96,-1078,-1338,-560
72,-44,-115,302,-602,2862
-51,104,-127,2281,-774,1878
114,43,-81,1129,-1642,136
-76,1,-107,-102,-983,-195
-77,44,123,-1493,218,408
97,14,86,-1762,372,-620
99,-27,92,-801,-221,-1565
126,-56,98,690,-452,-1406
-115,-60,96,1508,-235,-836
-112,-33,106,597,-144,-389
-114,-9,108,-661,-270,-104
-98,12,82,-1410,-156,190
-103,7,82,-541,-299,149
-115,7,88,571,-180,85
-104,37,78,689,236,225
-95,45,70,707,284,207
-84,47,50,457,390,-60
-97,52,57,-91,4,-249
-79,40,53,-104,-164,-318
-23,90,63,1284,974,-5991
-19,94,-25,7767,1318,-6702
-29,69,92,307,5952,-3830
102,-21,99,3501,7885,-460
12,-100,64,-3083,7167,8845
-71,19,-74,-4646,-4646,12185
-19,-16,-31,-3970,-6247,2757
-72,-37,-79,-3184,-6376,-2669
118,-54,-68,-3521,-4924,-5901
79,-26,66,-2333,-1001,-7548
18,-42,-36,-2067,472,-5889
-55,-81,-42,-2336,4052,-3848
-117,-69,53,1744,5465,-1642
-70,106,-92,2207,6130,-2064
38,92,14,3420,7049,-2441
-103,-25,90,-1505,11772,29
73,9,68,-4834,-398,20521
-81,-40,112,4329,-8085,5494
-6,46,121,4317,-5990,221
72,121,103,2001,-5396,1821
-120,-59,71,-1801,-3685,4450
-31,-102,-104,-727,-968,800
-20,3,75,282,-1314,-708
-59,-64,116,-1854,-214,1605
-82,-84,-124,-2128,1687,1886
-103,-117,-75,-1867,3794,1042
-60,-122,44,-7137,7845,4038
95,120,30,-6652,9838,3889
46,124,-127,-7108,7114,6206
18,-44,-62,-3844,-868,5464
87,13,49,-4573,2103,3811
46,-69,114,1328,1294,1952
17,30,-68,4795,2350,1239
15,95,-119,5791,2357,981
-80,-37,29,4464,60,1761
-104,-17,-64,351,-1722,2325
125,-124,-102,-1670,-984,880
-94,-125,24,-2216,1123,382
125,126,-6,-1870,171,-431
-102,69,-24,-477,-798,-1427
-85,48,-7,930,-1064,-1453
-60,46,19,1501,-860,-1378
-35,88,32,372,-318,-844
-9,109,23,-728,-33,-339
-21,114,-9,-990,-209,161
-33,97,-53,-250,148,146
-44,115,-71,374,156,450
-54,-116,-83,785,-21,471
-42,-55,-61,-438,-56,421
-36,-42,-97,-893,178,228
66,-114,-18,-4519,2441,-1808
-16,-63,8,-4592,-1118,-2150
-101,-103,-97,-466,-1210,-4969
-65,14,-82,-69,49,-6754
48,44,121,-3069,1899,-6401
-125,-34,28,-1838,4576,-4589
15,98,-41,1158,5087,-3417
34,93,34,131,7436,-1065
65,-96,-74,-756,4996,6832
122,17,101,-2906,791,12152
48,24,91,-737,-1398,7827
-12,-118,-126,-450,-4909,2892
-4,-46,-95,-4245,-6932,-439
-98,22,13,-2899,-6581,-5410
105,51,104,-1282,-2125,-8982
122,-48,-68,-3879,47,-7847
-72,63,-124,-3552,2311,-5283
20,34,50,-4791,3862,-2530
5,40,62,-1544,5123,1138
-80,67,-56,-1712,5330,2658
99,-68,-110,-346,7366,3453
92,112,-38,1298,7563,7832
95,-28,-26,-4370,3301,10323
-63,17,34,588,-3360,6579
52,-91,103,8201,-12223,7188
-38,-36,-66,12181,-13209,6978
-122,113,-20,-4402,-6514,6910
81,77,7,-1000,-2347,2444
-97,-12,-125,-545,-698,-240
-65,2,-96,-428,-786,-51
-72,30,-36,-1921,-471,803
108,-92,-49,-1192,1767,-251
89,15,113,-4691,2880,2888
-34,-7,-109,-6273,5529,3601
52,62,-12,-6139,7238,5274
110,114,-98,-2904,6093,6908
-104,-102,125,205,4820,7646
-126,-3,55,-985,3268,4626
-1,8,55,1371,-1362,1589
1,43,-106,-313,-948,1555
-66,30,43,-808,176,1518
40,124,50,1153,405,5
47,-9,68,3001,47,-1695
94,-78,-118,2152,-430,-1847
123,-92,-58,892,-775,-926
109,126,-27,523,-604,23
95,-85,-21,-525,-94,790
100,-83,-62,-493,-28,240
-118,-97,-105,38,225,-342
-121,-77,-107,-250,-16,-371
-107,8,43,-5694,3737,-2776
-60,63,-9,-3318,3139,-3906
-64,118,-28,-2686,240,-4975
40,52,-77,-1544,-2059,-5369
-44,-106,-53,-2966,2330,-6776
21,-67,-57,-1683,2751,-5288
-17,-42,26,-501,3326,-2608
39,39,76,106,6444,245
-45,86,-1,-29,6726,4106
-60,62,2,-1933,2224,8711
10,28,70,-4181,-3187,11283
-11,84,16,-2403,-5833,5086
51,-10,-87,-742,-6895,-460
34,-85,88,-2988,-6345,-5112
65,-70,-68,-845,-2726,-7490
-73,1,-118,-2818,860,-7252
-28,-7,97,-2003,3546,-5292
21,-108,23,-3912,4040,-3728
-111,-91,-50,-4828,4127,-1699
68,-20,-83,-3032,3708,1142
-28,14,114,772,3774,1795
-95,-119,0,660,4213,5963
-33,68,28,1591,3682,11510
49,-6,54,1659,2160,12809
103,78,-116,-593,-9323,8206
-69,-99,36,15556,-12160,2590
-80,-109,-125,9099,-3569,4154
-47,-30,102,-2511,-5855,5430
30,45,-56,556,-2584,2010
64,25,-27,-862,-1222,1449
60,-89,69,32,-1177,537
6,-57,-91,-1347,1132,324
-87,-89,74,-3114,2543,1385
-121,108,-109,-6020,6157,1815
3,71,-88,-8624,6995,4254
-50,-24,-100,-9034,6829,6292
-65,54,-106,-4528,3055,7351
-51,90,104,1486,2814,5291
101,62,-65,653,1133,4578
26,54,-62,1045,-114,1228
-94,-110,112,187,727,2412
118,15,77,2065,119,2804
41,-14,110,1338,-445,1411
-38,-106,-117,274,-993,-877
-6,53,-106,409,-569,-1195
1,-23,-82,636,-344,-908
3,-21,-79,184,-93,-211
16,17,-84,-921,-258,46
14,41,-83,-1648,-612,80
24,10,-97,-712,-382,-232
-54,42,-49,-4921,4524,-3000
73,101,94,-3397,-868,-4448
13,49,51,-3202,-25,-5600
-126,-115,-44,-1731,1559,-5898
-116,55,-70,-440,3630,-4955
-101,112,111,1604,4466,-2936
45,-42,56,3924,7068,-513
33,125,-92,21,5214,4387
-112,64,-90,-1917,12,9220
-108,-9,-88,-3919,-4747,9340
-127,48,116,-1234,-5901,1791
-104,-50,-33,-1173,-5333,-3525
-59,-41,79,-3734,-4525,-5349
4,-128,-111,-2131,-542,-6965
67,-76,122,-1993,1862,-6064
109,-34,45,-765,3925,-4576
-32,-118,-8,-1014,5265,-3258
-29,42,53,319,4989,-1791
-10,21,81,91,6512,1036
35,-25,-107,-2305,6501,5107
-1,72,51,586,5679,10779
-26,-70,95,2796,2952,10436
59,-68,1,-2861,-2934,9275
-126,-15,35,7375,-11036,2935
-7,-41,34,1901,-6952,5463
79,100,22,2289,-8769,312
59,-76,-60,-884,-3644,5231
25,55,-47,-1697,-219,-868
-38,-75,-25,-876,176,33
55,114,-48,-1961,999,209
-69,25,-11,-5563,4854,1714
46,29,42,-8437,5891,3217
-109,51,11,-5121,5843,4595
-13,120,12,-1942,7332,4522
-5,12,-26,-2679,6955,5716
101,55,75,-1375,4492,4771
76,-104,69,581,1352,1581
83,13,-69,1721,-604,1917
36,25,-89,-111,451,2231
-78,126,103,330,511,1044
97,5,-127,770,-726,53
49,-60,-80,443,-2068,-956
57,-98,-50,1072,-2183,-980
91,88,-40,2298,-864,-1201
-118,102,-11,1895,34,-1252
-91,-103,43,-2,-363,-597
-82,-103,33,-1376,-714,-76
-101,-109,-4,-1711,-726,28
-126,-119,-50,-1286,-265,-202
-122,-127,-106,-380,257,-194
-95,7,75,-3683,3886,-513
57,38,94,-2706,1152,-2764
76,6,46,-3242,-615,-5099
26,-102,-114,-2549,802,-7318
-80,-51,-48,-755,3071,-6696
89,-39,-83,451,4198,-5606
115,114,115,4079,4299,-3927
61,33,-124,3218,6821,-1914
14,83,78,-2262,9166,4955
-28,58,67,-3140,3302,11674
-110,-115,-123,-5735,-6153,10023
-82,-26,125,-2322,-6221,1463
45,108,53,-2560,-6309,-4278
53,-121,-70,-2662,-3818,-6807
16,64,-51,-2443,-1252,-8317
3,-98,-106,-1421,2293,-6774
17,-7,-78,-2766,3776,-4323
-14,-69,27,-2517,5216,-1352
53,48,-37,-681,5785,1388
39,-90,-4,247,8366,2690
-94,98,-105,32,10862,8489
46,-61,-102,-7220,-2457,14903
-18,-3,-71,4942,-6478,3312
2,70,46,8370,-15349,7475
29,26,-16,-2631,-9451,4557
48,-116,-26,-3996,-5143,1437
24,-19,109,1141,-4796,2166
-118,127,35,-47,-862,-1012
-125,26,39,-912,854,-74
-25,23,-76,-2686,2325,725
25,39,111,-5452,4376,3013
-126,-118,-2,-7228,5983,3993
-12,17,-71,-5980,6765,6340
-74,62,-104,-2876,6255,8052
120,-102,-78,294,3576,5949
-72,-12,-31,1799,2132,4028
-121,-53,48,3728,-596,1470
106,-99,72,778,-266,1581
-77,56,62,-2617,-677,1092
124,-103,35,-2060,-891,106
118,26,29,-161,-156,-892
113,16,50,1063,129,-883
117,33,92,1143,-313,-421
-120,43,106,506,-272,-286
-124,38,118,69,-417,-543
-120,16,120,-88,-180,-520
-111,18,105,-181,122,-257
-92,13,83,-158,310,-163
-92,42,77,-299,-30,425
-90,69,73,-484,-182,436
101,-107,107,-3574,2906,-2167
126,4,-59,-5488,1036,-3796
-34,49,-3,-3626,-565,-5348
39,52,-46,-3512,-900,-7009
-3,106,-40,-1678,2220,-6794
5,67,-103,-37,3928,-5052
-14,8,-76,1299,7371,-2283
71,103,-42,1107,8037,2765
42,-14,18,-767,6326,6872
1,72,-104,-1629,-476,10251
61,8,-68,-4573,-8055,7765
-95,-61,-13,-2359,-6611,-236
120,-102,42,-3642,-5359,-4903
-82,-85,-67,-1298,-1702,-7037
36,-49,-94,-1708,1283,-7952
-43,-113,-111,-2528,2191,-6680
-18,-40,90,-4431,3838,-4499
60,77,-122,-2823,5618,605
-1,-24,-29,1284,5090,2404
24,71,-112,-883,5669,5807
107,-58,68,601,5408,10263
31,126,54,2763,-1743,11949
24,-84,97,4737,-8865,7664
107,-26,74,5879,-8529,4629
80,-114,-75,-7352,-6008,3175
26,-115,73,479,-6023,855
105,-128,-79,-1193,-2249,989
-6,88,23,442,-361,-2206
106,99,-4,-717,144,-962
80,53,-59,-3179,1588,-22
-13,40,18,-3384,1265,2007
-83,-103,55,-5620,4376,3364
100,-48,-78,-5008,5630,4278
-74,42,-1,-2547,7317,6418
-119,102,33,-844,6108,6430
30,28,107,387,1721,5033
-127,-79,-31,573,142,2792
47,12,50,-1031,-783,1601
37,-120,-14,-361,912,2152
-103,94,5,1210,-102,1456
75,67,71,1864,-1029,171
53,6,127,1912,-1170,-768
45,-31,-85,1218,-1171,-1794
99,-104,-61,1108,-626,-2181
-92,106,-31,917,-555,-1921
-74,-128,-23,119,-415,-886
-56,-113,-32,-810,-442,-208
-87,-127,-68,-836,-323,-415
-78,-121,-107,-468,-76,-249
-74,-103,-121,-239,85,-4
-63,99,-39,-2472,-999,-5581
103,9,34,-3594,-3100,-5785
85,89,68,-2288,-1194,-6361
96,-95,-25,-1576,867,-5729
-33,98,-68,3803,4961,-3885
116,-72,-41,-327,9343,-2273
62,91,39,365,7600,3479
-77,-110,7,-2594,6490,9304
90,68,-106,-5233,-3636,11648
-24,27,65,-5709,-7919,1899
-44,107,-64,619,-5207,-3756
-10,110,40,-6206,-6215,-4503
32,109,-118,-1528,-1262,-7495
-6,-57,-85,-3045,2449,-6578
11,-93,-112,-2417,4053,-4989
-110,-90,-61,-3367,5047,-2488
-16,16,113,-712,5960,-786
22,120,-115,2056,6063,998
-10,100,-121,1695,7402,5986
-76,51,9,-1390,3772,13435
-77,-32,-110,1576,-2022,6879
-125,100,-15,8653,-9993,7477
54,-94,-57,-1410,-7488,12270
68,-65,-96,-2070,-7900,4692
94,93,107,1228,-5662,-394
96,-122,-57,859,-667,-2552
120,-16,96,-612,-358,-53
-38,-120,78,-2573,1148,1189
81,45,-29,-4661,3591,2863
-118,18,-33,-7430,5882,3383
-121,70,-97,-6578,7056,4787
-41,119,-97,-4116,6619,8358
3,-119,-6,-997,5917,8667
-43,68,-101,1159,1806,3775
110,-73,9,953,54,2309
-15,-58,66,-471,-1128,1029
-12,44,65,633,-649,1228
-88,115,71,2838,-1035,852
-102,115,78,2163,-470,371
111,76,92,728,-185,-722
94,-24,109,152,-154,-1368
-113,-84,114,520,7,-1292
-100,-128,127,1194,46,-1001
-90,114,-104,1371,-40,-472
-92,117,-91,979,-156,-236
-58,-126,-60,441,28,274
-99,-117,-63,-121,-116,470
-101,-107,-82,-322,35,362
-87,-90,-119,-393,278,592
-99,-83,119,-307,-2,380
115,104,-6,-3801,3581,-5062
-96,-55,-74,-1650,-136,-6823
16,-15,-7,-1239,1772,-5778
-4,100,33,942,3282,-4346
-37,-110,115,3965,6881,-5169
72,-63,96,4269,10706,-3301
80,91,13,-3688,8490,7061
76,9,32,-770,-1389,12449
16,34,-82,-4448,-6913,7082
81,-89,35,-2814,-5203,10
-43,-52,67,-5524,-5899,-2866
-111,-57,-67,-1682,-448,-5997
-46,-28,-105,-1777,1748,-6617
-116,-123,54,-2839,3095,-5567
-118,40,7,-2438,4703,-3621
126,-23,-104,-516,6466,-1777
123,-31,1,-342,7732,1303
-84,-73,109,383,10436,3772
-21,70,12,691,7470,9424
-114,83,21,2519,782,12735
-39,62,-125,2370,-3699,8447
7,97,0,3659,-15627,12517
71,104,-125,-4250,-1336,6812
96,-37,-40,-887,-5580,2862
-98,-81,-106,-454,-1207,1025
-75,-91,100,-1467,-956,-20
81,119,-113,-1775,214,-700
46,48,77,-2549,1536,-379
38,72,-61,-5400,2671,2605
114,41,101,-7310,4725,4229
-77,-7,-98,-3537,5673,5989
14,-74,30,-2309,7642,6099
29,126,4,1738,6141,5681
99,-30,-4,1915,2651,2021
-50,125,-91,-1600,2121,2804
33,120,-93,-2806,514,2540
-104,-5,-17,-213,-981,994
-85,105,30,1592,-787,-271
-128,104,42,1467,-401,132
79,59,102,1718,-855,259
94,28,87,1674,-288,-278
94,9,127,1038,-692,-767
87,-1,-53,68,-1647,-743
121,-20,-55,-434,-1384,-1023
-113,-70,-83,-457,-306,-1460
-126,-73,-108,-441,411,-1128
-128,-57,120,-732,456,-703
-116,-31,91,-888,144,-228
-103,-22,72,-540,-82,146
-120,11,77,-454,-350,346
101,103,-72,-4406,2463,-4624
-12,14,-94,-2583,-502,-5747
96,-122,9,-3233,-2437,-7445
43,-68,-58,-3186,1343,-6794
126,-62,-120,-2311,4111,-4423
9,107,76,1854,5454,-3076
30,58,98,774,7951,1775
-91,103,71,-2043,5652,7498
-114,-82,-117,36,2561,10256
83,24,-56,-1975,-2771,9337
-101,101,-98,-1743,-6244,1954
31,30,-54,-2310,-6440,-278
101,68,-29,-2405,-4723,-3892
-79,82,7,-2530,-2416,-6269
-107,8,118,-1871,-188,-6819
-103,-8,-12,-1337,482,-5358
-18,40,18,-3192,1680,-3550
-74,126,48,-1380,2770,-2235
69,26,99,-957,4561,-881
-119,53,84,-2052,6799,1275
9,-102,-14,-771,7219,3582
-116,-106,-8,1491,7944,8484
-31,-96,-89,159,5343,11034
92,-76,91,-1955,-593,7020
92,-58,-120,8927,-8411,1601
91,96,44,7000,-8579,7540
-106,112,76,-6917,-5099,9719
118,-80,-48,-950,-5484,3032
77,-99,-65,988,-6515,2891
73,-101,-115,-936,-2183,-384
122,-114,87,-529,-1317,8
37,82,52,-1831,623,236
-66,34,-32,-3294,1423,1204
112,-30,117,-2920,2674,2365
-7,-10,-32,-4213,4790,3612
122,70,-125,-4559,7018,5299
74,-82,-66,-3137,8100,6093
-66,-83,-86,-1565,5638,6651
93,17,-56,-1434,2408,4328
-30,-70,59,339,1746,4536
21,-102,-47,-1048,-1309,629
74,-55,-84,632,-1591,214
113,68,-75,1275,-726,717
75,43,-64,1598,-292,73
36,54,-43,201,-388,-231
34,21,-34,-778,-477,-207
29,-35,-58,-128,-280,-277
52,-58,-90,416,324,-225
41,-32,-101,-3,81,-223
49,-15,-111,-377,-105,135
121,40,13,-4528,2941,-3392
-43,-106,26,-1770,2813,-5371
107,75,-41,-3037,-234,-6865
-83,-117,-103,-533,707,-6807
54,99,122,-473,2979,-6225
-54,-20,43,6943,6632,-3218
-40,-5,-48,-915,9528,234
-4,113,12,-821,7186,8030
107,-110,16,-4199,680,11873
-98,-41,13,-4209,-5602,5037
-93,41,9,-2007,-5550,-389
-49,-10,-77,-4510,-6913,-3499
-60,82,-46,-4049,-4987,-6996
60,-37,83,-2898,-1661,-7222
-82,-108,112,-439,2629,-6289
-91,-127,96,-988,6202,-4544
-79,-2,-82,-1618,7976,-2598
1,-73,-7,1238,7809,267
112,78,-128,-1592,9599,3860
43,84,-109,1559,5318,7938
45,-58,26,-13224,-3193,12714
98,-30,54,4166,-5910,-799
59,125,-120,7550,-17805,4339
-48,3,80,-1934,-8682,6096
-117,79,-44,696,-6288,248
67,-15,26,1398,-3975,2194
9,4,19,-1378,-1563,574
-15,66,7,-1663,196,1091
91,-26,7,-3057,2225,1100
-15,-35,32,-4555,4698,2559
-29,-37,33,-5751,8048,4854
12,-51,-18,-6130,12146,9309
-3,81,-96,-5194,6136,9669
-64,-34,100,129,-757,4739
69,96,-46,912,448,3468
43,-21,-42,14,509,1280
57,17,126,1462,-599,379
-50,-102,91,3208,-1391,-180
-109,31,-123,3248,-2084,-819
-78,-14,-93,1547,-1402,-360
-126,5,-70,-595,-511,485
64,-34,-77,-1130,-349,124
112,-47,-116,-947,277,-500
-117,-53,123,-364,188,-693
-108,-71,116,708,-328,-806
-113,-62,-123,684,-519,-683
-101,-48,-118,115,-205,-557
-94,-43,125,-417,84,-302
-96,-42,104,-485,20,-47
-100,-36,87,-246,-303,145
-37,16,85,-4502,3531,-3904
71,-109,-99,-1197,-800,-4198
31,-48,72,-2560,-2232,-4776
-128,-100,-61,-1944,-1318,-6861
123,13,-108,224,423,-6714
-38,78,-125,-384,3102,-5140
-86,-77,74,5374,2091,-5438
-52,-34,110,-406,6699,-1907
31,98,-48,-2482,8404,7990
124,104,36,-672,6576,10251
11,21,126,-1644,-3355,9720
91,17,-55,-1361,-6418,1222
3,-74,-27,-7714,-8768,-313
-102,60,93,-6363,-5688,-4685
-42,81,16,-4703,197,-6167
114,32,109,-2717,1248,-5387
116,106,10,-580,1836,-5053
16,-114,68,-599,3926,-4232
61,31,-33,344,6510,-3844
46,-22,-34,-5413,12716,2729
-66,-88,73,94,10138,6693
-88,23,-56,-1449,8991,6491
-86,54,-86,-273,-4742,8808
-28,74,89,3935,-12220,12673
-13,113,-32,-5305,-8297,8637
-99,30,-127,2999,-6281,-1403
-18,6,83,3646,-5263,1303
-71,-107,83,-1984,-1022,1435
13,71,-40,-741,-1426,922
-74,58,20,-2020,420,174
-74,18,-14,-3438,2894,2111
47,-76,38,-6388,4828,3451
3,55,-64,-4654,8996,5359
-103,-121,-93,-7121,7697,8912
-1,-72,-46,-4597,2544,6758
22,-65,11,4119,-440,1932
84,-53,69,2320,2551,2189
-109,68,90,-958,1489,1567
107,21,125,1413,-779,1679
116,-82,-116,1440,-910,1646
-127,-104,-111,149,-808,966
119,76,119,48,-450,385
73,-27,106,200,-214,-768
64,-26,116,-88,-246,-731
78,-4,124,-884,-389,-299
96,4,117,-1008,-536,-66
103,6,108,-577,-354,-285
117,1,90,168,47,-414
115,10,86,372,110,-440
119,30,83,-119,39,-281
116,88,67,-4054,3206,-1716
-81,-44,-91,-3239,3527,-2940
65,-113,88,-2788,1578,-3906
-102,-112,-87,-1989,14,-4564
77,48,-70,-816,1256,-5726
105,-112,-90,-1708,2202,-5377
-120,-22,109,-65,2150,-4025
-13,-125,124,1925,5497,-2490
76,39,-115,7915,7346,-1345
27,118,91,-3254,10168,1297
-96,-94,-95,-2193,7478,8357
-14,-3,-67,-2964,-1034,10255
73,35,-102,-2218,-6485,4036
-120,115,25,-2463,-7480,9
-101,-118,121,-7380,-8771,-767
86,-46,-62,-3228,-4976,-4439
-2,59,-39,-3415,-2254,-4733
89,-35,83,-778,583,-5510
-122,-69,-17,-1475,1445,-4614
93,70,-81,-260,2431,-4353
-91,-22,-92,-2747,6067,-2823
95,-79,-112,-2321,7899,-601
-22,-93,-105,-744,9959,-337
-49,-79,-103,3453,10670,323
40,56,-120,-4842,7959,8878
-88,15,23,-2180,-2559,10735
-68,48,-17,17020,-12335,5966
34,72,-1,-5119,-3346,10881
-28,-115,-77,691,-6193,2316
40,-93,120,486,-4263,1412
-88,-71,-73,958,-2710,446
-85,74,115,-1511,568,359
42,-90,86,-2440,2430,1077
111,97,-120,-5331,5120,1919
122,48,-46,-8419,6521,4096
-32,48,59,-5788,8863,5596
-62,116,-8,-4574,6420,5853
-21,-29,-118,-2964,5701,7218
66,76,3,2794,2812,2472
-60,100,-108,-1056,-416,1482
124,92,-64,-1182,-2003,1386
78,100,-43,1738,-2962,1684
-123,-64,-67,3651,-1105,1667
57,-38,-62,2056,-358,-516
20,15,-8,-714,314,-826
51,-31,-28,-1845,587,-427
55,-114,-79,-763,493,-613
69,117,-90,481,56,-671
95,-126,-85,685,-141,-635
112,105,-67,1254,-289,-585
63,-107,-105,-1599,1966,-4577
-104,122,-8,-2999,-728,-5175
-4,40,-88,-2334,-858,-5513
75,-60,-121,-2893,876,-6469
98,36,118,-2946,2648,-5011
56,119,-54,3054,5632,-2673
-6,66,-112,4015,7390,-305
-128,18,-21,-1958,7810,3622
-77,-60,91,23,3301,8165
-46,58,-9,-1670,-1185,9541
1,107,26,-2457,-4949,4202
85,-86,11,-1068,-6246,-162
18,-72,-128,-4268,-7202,-2543
-87,-4,-22,-3142,-4123,-6094
27,-1,120,-2565,-1779,-6402
-78,-61,85,-543,699,-6364
-63,-122,110,-1725,1288,-5615
15,63,107,-1677,3481,-4284
-21,112,-104,-2012,5553,-2038
93,-88,-95,-3067,8050,1507
69,120,110,-3125,10300,5855
-42,-51,-3,3327,8242,5941
0,-5,-76,-4602,3928,9196
26,-70,-105,-2661,-4344,5792
-105,-72,-97,4655,-14424,7078
23,32,1,1239,-4909,3714
-29,120,-10,456,-6851,2488
-12,-53,123,2498,-6681,3697
-112,-39,-41,-2177,-2268,2659
-60,-125,83,-53,-279,-692
122,126,41,-777,555,-351
38,65,-63,-2841,3622,74
-53,-20,14,-4046,4882,1566
119,94,-35,-7610,8135,4230
-113,-100,37,-4948,9056,4552
-10,11,-52,-3153,4305,3881
42,-9,28,738,2071,3467
-89,97,122,-3178,4375,2901
74,119,-4,726,1417,2278
112,-84,-20,1664,813,690
-80,87,-65,563,1424,861
-121,6,-39,22,187,649
-126,-24,-37,218,-523,570
115,-59,-12,712,-764,308
111,-114,30,1468,-697,-148
-114,119,39,1776,-89,81
114,99,66,1504,60,243
107,-102,90,-284,-292,422
120,-82,70,-1626,-307,181
118,-110,-5,-1918,-318,-295
96,54,98,-3038,3564,-1668
89,-102,-122,-1865,2823,-3244
-115,-42,77,-2334,-1230,-4184
-79,10,-123,-1683,-2278,-4725
-64,58,43,-2359,-927,-6603
-26,121,-102,-896,509,-5377
75,12,58,1450,3093,-3804
78,45,-35,6395,3894,-3780
34,-22,-106,748,6358,-1310
-75,-1,-72,-3055,7953,4331
-105,116,98,-785,4482,9275
15,-21,93,-4019,-4449,7574
5,93,-105,-496,-6917,672
-125,-49,-13,-2405,-6160,-402
71,-3,-5,-3269,-5882,-3487
-94,14,-33,-4317,-3083,-5698
63,-72,105,-4116,-519,-5864
127,-1,-18,-3117,2119,-4964
-56,39,45,-4023,4064,-2721
-60,18,-116,-914,5200,-1308
-47,-104,-51,-456,7319,572
-47,124,13,-1603,10194,1695
18,51,-25,-5980,10696,4990
-73,125,88,-1223,1016,8920
-66,-64,123,428,-4051,7140
59,123,-127,7404,-11082,7242
-35,-74,-36,4116,-9734,9144
-98,73,-81,1933,-7901,4090
69,-10,-19,-202,-5255,3844
-117,-76,-18,-38,-1499,927
-44,-102,-7,-593,-214,-813
-72,94,30,-1567,1432,-824
110,81,-57,-3516,4884,-440
54,54,-38,-6767,6647,838
-10,7,65,-7188,8454,2098
-89,78,-56,-6268,6160,5374
111,46,-45,-4595,3329,3887
72,32,-19,1579,1422,2163
-128,54,-70,-528,2408,2426
58,-85,12,-2957,2429,1841
41,116,-114,-2125,575,-144
123,40,-82,-441,-773,542
-51,40,-82,462,-513,1745
-60,20,-45,1918,-317,1328
-66,34,-40,1622,416,78
-101,35,-8,675,-5,35
127,-1,25,-342,-615,-659
-82,-28,-1,-591,-354,-464
-64,-36,-52,-486,-209,-57
-81,-35,-65,-294,-589,-100
121,-89,-81,-4018,2994,-1726
112,-48,82,-3297,2263,-4626
-122,110,-36,-356,-3793,-4636
93,-62,126,-2677,503,-7314
-111,-33,-124,14,1570,-5919
-102,-18,25,1884,3451,-4179
46,109,8,6366,4694,-3459
-49,-26,110,-1273,9369,674
-6,-95,-118,-1302,8802,7240
30,59,-34,-1557,4811,9284
-94,-4,-29,-7624,-6886,8646
-8,-86,-82,-1684,-6141,-1187
-83,-57,8,-4040,-7507,-3258
64,2,0,-4501,-6924,-5794
45,-68,96,-1353,-1873,-7833
77,92,89,-2650,675,-6783
39,-68,76,-1992,2366,-4598
-25,74,15,101,3985,-3657
-82,-11,-33,-2664,7457,-867
-92,44,38,-2165,11358,3199
-8,42,38,-460,16135,4216
-2,-69,70,3206,-821,7655
-34,67,-95,-10001,-5218,13259
-112,94,10,10856,-13393,6187
-81,67,124,-4415,-4372,1736
-93,127,-95,1547,-9059,3756
54,-93,65,-41,-2684,-169
61,-28,-128,445,-220,-232
-69,0,60,-3210,2208,-83
-6,50,-14,-2939,3031,61
114,26,78,-5510,4209,2450
-35,26,-122,-5966,6220,3706
82,-84,-52,-3793,5517,5883
69,-91,-125,-2360,5031,4355
-83,-95,-89,-2824,1239,3565
90,-21,54,493,1214,2191
79,-3,61,-26,-328,1523
95,53,59,1783,-171,-95
111,-93,107,1575,-66,-23
-127,113,97,995,161,106
-111,63,73,79,415,112
-117,23,94,-239,-360,223
-103,-10,75,-215,-97,-109
-107,-37,70,153,86,-738
-67,-43,70,671,258,-503
-60,-35,83,671,-396,-149
-61,-12,97,-158,-412,40
-62,-1,85,-676,-267,100
-71,-9,69,-253,-192,-33
-81,8,66,-394,34,145
54,11,-44,-6000,2749,-2134
-8,38,97,-4994,613,-3429
-36,99,53,-4064,-1716,-5026
59,-39,111,-3642,41,-6613
-73,-42,12,-663,2595,-5937
35,-43,-85,956,3790,-4264
82,-75,87,5003,8983,-2193
19,-8,-38,-1284,8926,874
-114,31,75,-2802,7343,7913
-69,-6,-41,-2565,-614,12610
-79,-97,15,-7357,-7991,5831
28,78,-12,233,-6607,545
122,52,49,-5302,-5694,-3846
-5,-90,-20,-3228,-2957,-7227
37,61,31,-3155,-222,-7668
-67,126,55,-2571,2587,-6887
-61,-26,35,-1434,4066,-5442
-96,-123,-99,-5787,6760,-144
-109,64,-116,-893,8403,2722
-78,-59,-78,-1764,11470,4272
98,-12,-71,-4932,14839,12361
25,85,-67,-9358,-8581,9444
-53,29,30,3008,-12486,6269
3,-37,126,7455,-9474,3518
-50,-108,-74,-2428,-9006,4276
85,30,-111,-359,-8152,3015
-125,89,-122,-675,-4412,3313
60,86,-31,-495,3,-954
-53,24,82,-716,3144,-2164
98,-64,-67,-2502,4850,-146
14,56,18,-8614,9140,1822
-104,-40,58,-6366,10483,1819
-26,110,-55,-4570,7396,6111
90,108,59,-4822,1505,3693
34,87,61,-6943,1337,3977
78,-60,47,-2077,-1573,2323
-46,82,106,3477,976,2327
-103,-106,7,2199,164,-396
89,-47,76,1734,-1399,-833
-49,4,-124,2027,-1327,-2294
-18,-13,-94,1356,-400,-1042
-36,-11,-58,-58,63,117
-57,-15,-68,-1127,-54,467
-56,-32,-105,-1192,-97,330
-64,-48,-120,-350,-351,-143
-46,-36,119,200,-40,-263
-50,-9,124,192,-28,-42
-52,9,125,131,9,122
-46,21,117,44,188,167
-37,24,94,-165,256,117
7,20,-5,-3640,-2007,-3848
-8,-22,122,-3771,-530,-6461
21,-82,66,-1696,533,-5938
67,118,83,-1152,2466,-4215
40,83,-37,2951,4923,-2952
-28,92,-4,1695,6330,-1339
-20,102,-68,-1388,7761,3272
-34,-90,13,-793,6198,7367
83,-128,27,-2370,1483,10255
-86,70,46,-5892,-5961,7581
-49,-41,-39,-1984,-5272,1019
-90,7,-18,-4803,-5626,-2981
3,86,-85,-3600,-4459,-5917
-93,-71,122,-2270,-2158,-6970
-20,-60,82,-2529,609,-6055
-2,36,64,-1464,2066,-4982
120,-96,72,-1679,5527,-3841
44,-52,79,-4408,8071,-710
7,-10,32,-4489,8012,3288
-77,-28,69,1730,8682,5389
-30,-6,-25,-1801,5896,6870
42,61,70,-2646,-1309,10675
49,-34,-111,3199,-3595,4899
107,-9,-85,8412,-11732,8183
-118,-35,83,-2014,-7794,11419
-101,89,-3,-1631,-7311,6001
9,9,19,554,-5046,4395
-71,-81,-79,-316,-2377,497
84,69,-123,-680,-427,-661
-44,-35,58,-2313,1371,-756
30,47,29,-2645,3718,-290
93,25,42,-5762,7475,557
127,-112,-128,-6064,8718,1721
38,-52,-15,-6112,9694,4119
22,54,105,-2118,4729,4323
-14,118,-7,324,2272,4820
28,4,80,3832,1121,2533
-80,2,60,1752,1786,1131
-124,-78,18,-295,2462,606
45,24,66,162,1341,514
-15,-51,118,937,-488,-132
7,-66,-56,85,-1237,-364
37,-101,-15,-158,-1115,-249
44,104,-14,626,-796,-511
67,118,5,780,-331,-447
77,-103,12,-407,256,-43
67,-106,-9,-1012,-43,-104
71,105,-49,-158,-184,-175
81,116,-55,242,-266,-428
94,-102,-69,-402,121,-11
52,-99,-49,-3358,2665,-2075
104,-96,-33,-1049,2800,-3612
-2,-30,65,3773,1416,-1167
-124,106,-38,2364,-5412,-533
49,-71,-57,-5202,-4289,-3134
-112,125,-17,-4829,-5217,-3241
-8,91,-95,-6659,-2477,-5467
84,71,-63,-3006,0,-5499
-128,-94,61,5021,3476,-4795
-79,-59,106,-782,8066,-2935
-36,106,28,-2085,9953,2699
-25,49,-18,-2196,7975,8092
115,-101,127,-4321,-1517,11866
118,56,-9,-2435,-6110,2779
-96,52,102,-2590,-7613,-547
113,101,34,-5669,-7199,-3365
1,-77,102,-2978,-2987,-6800
-119,4,-41,-2274,1377,-7041
100,-69,103,1342,3264,-6713
71,100,99,-527,4645,-6929
59,-50,-28,-6092,9343,-1622
111,-92,76,-4227,14405,4856
122,-124,43,-1970,6022,11280
38,21,-17,-2987,-8831,6856
96,-6,92,12907,-10744,5219
0,25,-87,430,-10451,11052
-10,-59,65,1705,-6639,7962
107,-24,125,-1185,-5314,185
-26,-90,11,916,-2747,-1901
-70,-29,107,-2884,271,-87
35,2,65,-740,839,-39
102,5,38,-2284,4020,808
85,50,-104,-6999,7080,2333
-108,43,53,-6583,8207,4461
41,-72,-90,-3055,7452,6301
-46,3,-48,-3616,2325,4435
-79,-25,-31,783,-176,3734
30,-96,-125,-104,-847,2370
30,122,-91,-1681,48,2013
36,78,-27,221,86,1431
81,-42,-21,497,595,1100
-115,-105,-47,512,1018,769
-93,-115,-38,-120,574,379
-102,96,-29,601,-133,149
-102,82,17,658,-634,-139
-96,84,34,168,-297,-54
-90,97,32,-522,150,-62
-94,78,14,-317,115,-362
-88,76,9,-190,-43,-439
-84,72,9,-86,-232,-496
110,84,21,-3582,3129,-4345
68,-27,127,-5453,-483,-3803
124,49,44,-3358,-886,-6333
-88,0,76,-2131,1142,-6427
-127,-100,-93,-1718,2849,-4447
81,-100,71,3786,5750,-2079
-9,65,-61,-575,9652,466
99,7,75,-449,8095,6533
-65,-11,31,-2588,1811,11089
127,100,1,-3621,-5222,8093
104,-94,-120,-2395,-6790,-84
42,46,-78,-2379,-5632,-1598
3,91,-42,-2702,-5180,-4023
-78,-117,-94,-3431,-2086,-6591
122,-84,115,-1369,1068,-7250
-125,84,-102,-2651,2871,-5521
-37,19,-96,-2624,4341,-2919
-19,48,16,-2305,5761,-267
-41,-46,16,-3066,6296,4121
44,98,101,-1075,6052,8415
-30,34,-20,137,5825,7602
-96,-103,102,2536,-1995,8410
96,-85,-62,2855,-7313,6944
-27,21,25,12295,-12532,7036
56,99,-93,-9423,-4600,6946
17,125,85,-1834,-6712,-1311
56,-46,8,907,-5002,39
0,-7,-74,-1261,-875,-1343
125,-19,45,-2586,1031,832
-81,-87,16,-3244,2440,453
-3,-51,-85,-4942,3521,2025
-77,-42,-121,-4449,6673,3743
-83,103,23,-4431,7844,6342
-94,-61,90,196,2716,5644
84,-115,-46,2512,1805,2933
-42,-89,15,-2743,2249,2306
-99,-107,-79,2215,919,1111
-127,69,5,728,68,-285
115,108,117,-1136,-150,-486
-91,-28,109,-1069,187,289
-52,-66,94,-508,156,1456
-60,-26,105,138,-778,1862
-54,43,90,-560,-514,1381
-114,57,24,-758,-123,-385
-125,46,45,-333,-147,-339
-86,30,60,-252,231,-348
-107,32,63,-123,-23,-377
-96,41,48,-305,210,-48
-105,62,36,-722,-164,-330
-91,63,26,-452,-166,-128
-63,-79,99,-6256,4989,-2544
43,-61,-93,-6257,1208,-2840
21,75,-2,288,-1609,-3752
108,73,-25,-1933,2387,-7014
21,-5,-45,-2317,3047,-5565
112,-72,-65,-2263,5128,-2985
68,-69,-73,4687,6664,-734
-87,64,97,-1820,7886,4221
-30,-64,-108,-517,2903,8851
50,-37,-64,-2561,-3035,10361
43,-57,-8,-2381,-7738,2602
58,-107,-14,-446,-6226,-775
-9,-106,103,-4699,-5504,-4487
-63,-51,124,-1052,-1366,-7219
81,11,109,-1974,1181,-7536
126,3,69,-1825,4133,-5981
30,2,-6,-2026,4419,-3743
-66,1,-15,-2057,5329,-2030
-47,-93,-61,-2080,6658,3212
115,-66,81,-2012,5899,8404
-101,-38,50,1042,6065,10748
-94,54,-70,-9259,1676,12074
-15,-128,109,6986,-8667,955
99,-38,-19,4872,-12448,5572
12,-112,-92,4807,-15324,5393
3,96,12,172,-6929,2644
-95,48,97,-1876,-1167,3390
110,-128,77,-1070,-313,361
36,-2,8,-1199,479,-709
-71,-57,24,-2635,3214,-867
94,-63,49,-4416,6651,517
-30,-97,-125,-6190,9637,1600
-40,38,17,-6327,8310,5269
37,-14,-14,-3563,4650,4496
-65,-21,-24,-608,1943,4537
-105,-61,-20,450,-359,2043
103,83,33,-615,-637,790
112,-85,34,332,-303,1127
78,78,48,729,79,574
72,61,90,653,-503,128
75,24,117,821,-619,-263
71,-26,-105,950,-536,-584
76,-18,-105,133,-188,-628
108,-28,-114,-676,215,-479
105,-61,119,-214,98,-527
105,-72,111,273,-215,-446
113,-48,109,-2,-203,-277
127,-43,105,-104,40,-208
-128,-40,89,-235,21,-200
-123,-38,83,2,-150,-135
-31,98,55,-8303,6349,-2337
23,33,-57,-6189,3276,-3459
-52,62,85,-1245,-3342,-3645
47,-52,-111,-4519,2351,-7343
28,89,98,1369,2817,-6261
104,-68,15,-901,4879,-4126
-48,-6,2,5608,6777,-1825
57,-112,-39,1839,8678,2217
-109,-23,-81,-4018,6736,8784
-118,15,7,-2497,654,11917
72,-1,-36,-5054,-6797,4210
5,6,-127,-2046,-6902,-4063
-116,3,-106,-4636,-7347,-6816
-55,-79,-90,-3456,-3136,-7986
-67,11,-61,-3379,873,-8431
-36,19,-121,526,4097,-6092
106,-54,71,639,5347,-5128
111,-65,11,-5640,9858,-1903
40,84,-2,-9301,9865,7431
49,15,-125,310,10954,11847
27,42,-13,-5981,-201,11983
-115,8,-119,-8841,-13064,6234
44,101,-89,3986,-16147,5588
32,58,-104,-1942,-10265,5992
-78,-97,111,-2608,-8991,1189
-92,-110,-92,-1387,-5620,-338
72,-88,-42,-176,-2346,465
98,-83,6,-2399,623,-1422
-25,47,120,-2210,2714,-204
79,53,-61,-4641,5217,1141
-101,-66,-29,-5312,8146,2275
-94,-21,14,-6589,10311,4933
-19,-85,38,-1731,5167,6586
45,111,-50,-1148,2105,4530
-36,43,52,-55,2496,5636
54,-25,-77,-2441,1849,3746
2,-111,24,1991,-391,1327
-19,-96,72,2446,-741,1661
86,-86,97,409,-775,-105
46,57,-119,339,-982,-1184
90,-48,-98,586,-617,-1414
-115,-74,-99,331,-258,-1362
-121,-66,-76,-199,-579,-661
117,-75,-87,-573,-389,-261
118,-71,-110,-752,-64,-386
-112,-66,111,-651,133,-262
-112,-55,101,-330,-62,122
-128,-34,101,-98,-217,435
-105,6,100,-151,-97,487
-97,20,97,-65,112,227
-107,70,112,-6232,4337,-2542
-92,79,-12,-5583,3432,-3277
-79,32,1,-1390,-291,-3567
-98,-56,97,-2186,-874,-4033
-85,-34,117,-2306,322,-6473
-27,-51,94,-24,2263,-5510
-86,46,-2,1126,3727,-3526
107,102,-50,3352,5484,-2761
-69,31,62,2507,8432,726
-61,85,34,-1808,7925,8097
78,-72,-37,-1177,4730,11455
-12,126,124,-5256,-7324,5086
87,-58,-43,-720,-8405,-2113
20,-97,116,-4053,-7645,-3450
-35,-63,-93,-4626,-3553,-6470
98,-14,-35,-120,0,-6997
46,-73,-107,-1645,3479,-5546
-115,-54,108,1833,4548,-5180
36,46,-48,72,7249,-3194
74,33,-11,-3665,11742,71
72,82,124,235,14498,704
-125,75,36,-3498,8637,6130
38,39,-20,-13937,-8096,12863
110,9,33,-653,-14470,6825
73,107,-108,-1083,-9793,10113
35,94,49,-744,-7380,1295
81,-89,-51,776,-7328,1317
-63,65,-72,-327,-3580,814
4,72,1,-1171,-611,-324
-120,-44,-36,-3866,2121,-359
3,58,53,-4264,3747,878
-83,-42,39,-5418,5542,2380
43,-3,-89,-4889,8215,4786
-4,-97,-97,-4643,5489,7556
109,34,14,207,1120,7358
-96,56,106,-2663,1127,9043
-13,-80,10,1661,459,3317
-48,-20,52,2648,-547,-1136
48,-76,-43,3234,182,-729
-43,11,-24,564,655,1249
46,-88,55,-225,-819,-768
35,17,97,1067,-1493,-1904
87,-24,101,2230,-898,-1547
104,-28,122,1648,-269,-1088
102,-24,-100,179,56,-718
113,-25,-118,-988,149,-259
114,-8,121,-1260,-182,223
87,-11,97,-786,-272,-68
112,-12,92,-16,-4,-312
124,2,69,246,223,-92
119,-100,85,-4939,3039,-1559
68,-108,-74,-2974,1423,-1846
-34,-106,-115,-4982,386,-2504
-50,124,90,-6728,-714,-3874
50,36,109,-2965,-882,-4934
119,49,-36,-327,2483,-5674
-70,-123,98,1237,3884,-4895
100,7,114,3906,4821,-3492
106,-10,64,4520,8176,-891
92,84,10,-1274,9934,3403
-39,-92,108,1593,6500,7177
68,-44,-84,-3010,-1652,10903
53,-127,-42,-10344,-6679,6130
-96,-51,45,-958,-3961,-2949
100,-98,-128,-2091,-4672,-4189
-122,-61,-68,-5403,-4463,-7299
-68,76,-50,-681,-1229,-8211
14,-65,-31,-2721,1066,-6841
122,12,112,-2607,5278,-4035
-118,-96,-36,-1365,9509,258
21,37,-94,-3051,9585,3877
-87,16,39,4109,11150,1434
79,84,-84,409,10627,3532
7,58,-61,-2917,-1757,10525
-26,-25,-1,-6685,-7994,9422
-72,64,-4,11532,-10881,5715
100,53,-76,-3451,-8707,2372
72,-34,78,2160,-8868,2487
83,77,67,373,-3397,1543
28,-7,88,-1604,-2769,2076
-63,75,125,-1153,-204,571
61,40,125,-2337,2433,-221
24,-22,-25,-3057,4757,74
62,-58,-84,-4176,8264,1130
32,-51,-86,-1787,13139,2878
58,-56,102,-4000,9267,2258
-124,-117,-118,446,4595,4024
-73,-40,43,-990,3651,1638
83,-108,31,-2138,1215,1702
-7,83,38,-3370,-40,1515
-127,94,30,-1917,-920,802
88,68,84,-224,-1503,165
89,16,112,1062,-1703,-87
80,-18,-114,1307,-1114,-85
90,-52,-85,1069,-47,-572
87,-35,-80,-13,131,-697
112,-36,-85,-621,-228,-626
123,-61,-103,-479,-557,-640
-116,-78,-106,107,360,-1402
-95,-67,-93,202,816,-1615
119,-46,75,-4490,2889,-2445
-53,34,80,-3485,2760,-3682
-116,50,90,-1164,1886,-3909
3,-1,107,93,-184,-6217
-107,105,-102,-1176,-1507,-8461
67,120,-122,-1187,1456,-8613
-34,98,111,505,4986,-3368
-113,59,24,5257,7239,-1280
31,-45,105,-8150,8633,4239
-59,-61,88,-3770,3273,11785
-86,26,67,-1832,-2073,11599
120,49,-79,-4724,-9786,1890
-6,91,35,-2670,-9409,-4333
-76,-85,120,-6646,-6971,-6915
-55,29,95,556,-729,-8658
-39,66,-72,-2940,2683,-7877
-127,57,8,712,2423,-6426
4,81,12,383,3275,-6534
79,-113,-2,-1810,8649,-1299
-34,31,28,-7278,15705,229
76,35,65,2476,14164,1208
87,109,16,-10951,-2745,14547
58,4,88,3514,-15790,12184
-36,103,-70,-263,-7328,10558
-55,-21,122,-884,-6466,4039
-25,72,-29,1960,-7472,232
116,120,-83,285,-1450,-1582
-55,39,4,-3012,2137,-477
7,77,-6,-3305,3644,-598
-89,-26,11,-3373,4776,1208
59,-14,-17,-6231,7256,1546
57,-89,-47,-4084,9894,563
-5,-78,-23,-2810,6234,3172
80,-104,1,-2007,2682,2166
-114,-73,-124,-3035,2534,2886
73,18,-128,-2007,-297,2488
82,9,-87,-3604,-224,2377
40,117,-52,-170,-1063,941
87,93,26,257,-118,1617
98,18,77,1098,-433,231
127,30,112,589,282,980
-109,27,98,-109,680,773
-119,32,-128,-931,749,-217
-127,-5,98,-703,-117,-1046
-71,-27,96,-7,-396,-1343
-63,-22,91,464,-61,-744
-77,-6,91,97,-101,-416
-73,42,86,-1038,-309,64
-68,78,77,-1716,-349,411
-81,95,71,-1220,-315,338
-49,73,48,-5973,2949,-1680
-70,49,102,-3630,994,-1397
28,0,33,-4261,1727,-3757
-85,90,46,38,1688,-3939
82,-62,-3,2346,2328,-5464
-43,82,-127,4451,2143,-6517
-50,-30,-56,4758,3584,-7632
-9,69,-18,10811,692,-13253
-9,73,30,-9315,11806,-2306
76,68,-8,-2193,7634,11128
-65,-100,-62,-1254,1798,18531
-115,-67,-60,-8321,-5930,8548
-41,9,-19,1444,-4104,-3578
-16,-103,110,-5190,-6353,-2897
51,-53,2,-5150,-3585,-5814
-116,-31,-119,-4600,-396,-6444
-64,58,-75,-2109,1755,-6161
127,2,8,-3444,4697,-3649
-128,70,-38,-2448,8047,1291
-124,103,16,-322,10844,223
-88,-99,86,1034,10586,4234
115,117,-3,549,7917,5735
-92,3,-33,-1424,-3744,4899
99,-114,-119,3331,-11560,13236
53,72,99,-3187,-10904,15365
12,20,-14,1338,-8619,-1111
4,-57,-65,419,-5447,319
-28,-75,-94,-934,-1955,-425
57,24,-38,-964,-1211,-447
70,-19,-33,-988,1567,-425
-67,-18,113,-3491,2563,522
-83,31,-64,-5257,5899,4039
-5,94,-101,-7610,8628,6081
-77,58,-100,-4835,8496,10134
-78,-47,-28,-6580,1473,6417
39,102,-42,2258,2134,4579
63,3,-45,2586,1712,1806
125,104,6,-194,-552,700
-88,79,-27,295,-507,632
-66,-101,-46,1181,-304,813
-110,82,-57,326,-802,1114
-122,39,-70,-384,-1223,568
-117,-2,-98,-752,-748,199
110,-17,-120,-611,-204,-6
118,-13,122,-353,280,-150
-127,2,106,-130,170,-17
-125,16,105,-15,-156,120
-128,44,107,-290,-195,55
-117,48,109,-399,-92,-96
-109,55,106,-354,48,-95
-63,-107,-94,-8476,4786,-2379
-73,107,-11,1145,-1855,-4107
50,-122,-31,801,2171,-7065
-53,-85,-124,-464,2301,-5765
-110,-109,102,-58,4321,-4816
-49,21,-4,3669,7035,-3322
104,54,110,3264,7090,-179
-40,115,-61,-3192,7654,5350
29,-32,-2,-775,4050,9143
44,111,-121,-4466,-6120,9227
-73,-12,-96,-2810,-6686,-1779
115,-42,82,-3168,-7808,-2586
86,67,-34,-4049,-4848,-5122
96,-69,-94,1697,-12,-6114
19,27,66,-2142,760,-5879
-7,77,33,-1152,3032,-5817
-26,26,14,239,3429,-4212
104,-124,40,-4074,8801,-675
78,79,-114,-1802,11769,2366
-49,107,20,896,9630,2816
127,84,-69,-7591,8353,11081
54,95,14,-5689,-5418,10788
30,-80,-80,5053,-14016,5869
-116,-104,-105,8416,-8608,2924
90,118,-112,-3205,-7921,2617
-50,112,-42,-441,-5375,4787
70,105,11,-1775,-814,755
-43,7,41,-424,-41,-694
101,-33,78,-974,2081,-1094
-7,-1,125,-3391,4553,89
-66,77,51,-6541,7648,2527
31,-105,-101,-6730,8508,4890
83,-64,104,-6261,5601,6825
-2,0,-42,969,3249,4555
-73,-47,-15,1445,3451,3678
94,96,111,803,1423,1892
-53,-91,1,-968,-905,572
27,-15,-127,380,833,898
-50,13,-73,149,-373,2043
125,9,-73,-108,-1610,1501
96,-21,-86,98,-1422,618
55,-86,-72,667,-503,-716
64,-97,-53,500,119,-1243
95,-121,-46,423,299,-1237
-127,-102,-55,-238,-50,-740
-118,-87,-63,-815,-816,-862
-100,-98,-95,-1170,-559,-910
-98,-102,-124,-574,-239,-779
-113,-74,107,-643,-321,-493
-113,-36,110,-1035,-414,154
105,60,-103,2641,-2316,-6614
-86,-30,-108,-2863,-924,-7564
-127,34,109,581,-1780,-8006
-49,-115,-106,-767,1501,-5493
-101,96,-16,2407,7095,-3941
121,110,-64,-2887,7441,504
-37,37,99,-2009,8168,5444
25,71,-37,-124,5103,8630
-16,-66,35,-1471,-4777,6596
9,62,-27,-1371,-6597,2866
-70,84,-92,-4201,-7850,-100
-116,-122,84,-2181,-6292,-4318
18,120,-84,-2169,-2632,-6256
95,95,60,-1815,-747,-5151
-4,54,-23,-1516,3334,-4717
7,-21,55,-1815,3560,-2920
-57,-82,-12,-1706,6018,-2254
-4,-90,-73,-3087,9023,-607
90,45,91,235,10927,3217
-71,35,44,-2345,5960,7912
33,67,-50,4642,-4183,3141
41,117,-66,7241,-5828,9369
-26,117,-113,5726,-4294,8488
-39,123,-47,-2563,-5051,9236
-101,71,-62,-970,-2889,3619
74,24,-90,1416,-1160,-2230
36,20,-122,-456,-308,-276
121,-125,-89,-1106,1667,-689
-22,-17,-5,-2403,3853,-394
127,-99,37,-5261,7778,196
37,-7,77,-8392,10197,1900
26,-28,-74,-4879,8165,3644
-41,92,-52,-293,3426,3497
-70,113,-26,-38,1775,2470
39,127,-1,-1482,3334,2064
-76,93,-100,-2890,6,1589
-114,27,-116,-2676,-1760,820
114,-26,83,-963,-1272,1247
20,-62,126,670,-722,467
17,-99,-104,1510,-52,-955
73,-110,-81,1656,648,-1075
83,-98,-67,771,603,-559
102,-75,-47,-477,-57,-269
109,-99,-62,-973,-492,-576
-123,-115,-89,-715,-380,-763
-108,-122,-104,-331,-293,-857
-111,-117,-102,-89,-284,-662
-104,-99,-114,-176,-119,-308
-100,-71,-124,-579,-46,179
-109,-58,115,-483,-16,267
-90,-38,124,-7595,5490,-943
-5,-20,67,-8749,5198,-2290
-11,36,123,2168,-555,-4703
-25,0,90,-697,1160,-5801
0,87,35,-915,1832,-3504
-98,-64,-6,1211,4382,-3261
-43,-22,-106,5296,2783,-4225
-69,-107,76,3762,7723,-3080
119,123,-107,-3123,9492,6021
-110,3,24,-3765,3647,12026
47,127,124,-4427,-3196,9250
-121,0,-35,-3956,-7377,-536
83,-89,-61,-4158,-5927,-5043
54,-89,75,-1421,-4533,-6626
-29,-61,-91,-1642,-2833,-7637
-106,15,-96,-518,891,-7774
59,-116,40,-1031,958,-6933
113,-4,54,-1071,3225,-4354
-91,7,-112,-3902,5089,-1774
77,88,-29,-4516,7981,2645
74,113,89,-3726,10420,5786
-97,39,99,-158,9699,4132
-16,-70,-57,-85,4518,11079
28,47,-52,-8668,-2691,7673
45,10,7,3134,-14823,7362
23,-57,-13,-5393,-7474,8991
32,-128,-94,65,-8229,-825
44,7,69,2856,-9006,2255
-115,-47,40,-2219,-2620,1016
107,40,73,-2733,-1960,1281
-13,93,88,-1720,286,-581
-101,-8,39,-2291,1426,376
-117,-38,-81,-3029,4610,981
64,-84,-75,-6021,6253,2874
67,-25,-127,-5553,9630,5689
-39,-88,-69,-4498,6554,7265
-96,5,38,-34,1570,7092
-30,32,-73,-20,981,6673
5,-112,-14,2208,1978,3013
-38,88,30,2217,663,1124
-32,-15,112,1062,-1039,-508
3,37,-56,1083,-1098,-1709
80,-67,-76,1161,339,-1937
70,-117,-60,786,332,-1371
76,125,-34,-134,-106,-276
74,117,-36,-212,-500,7
77,111,-43,-115,-587,-155
97,-106,-49,-838,-400,31
86,-74,-49,-1507,-624,157
92,-68,-85,-1135,-111,-355
-99,-34,-65,-5806,4174,-1369
61,61,122,-4443,1001,-1470
2,48,59,-2628,-1339,-3350
-107,-51,-39,-2128,-2454,-6318
-84,-80,59,1094,2408,-7559
113,122,-29,3212,2346,-7026
-44,-41,-127,3883,2205,-6579
8,-104,36,5406,4978,-5984
116,-38,-117,280,6875,-1291
-125,116,0,-4196,8414,6636
111,-127,17,-5084,3708,15188
-121,20,111,-4283,-5881,4410
-89,60,-86,-1856,-5637,-1071
26,51,-9,-3762,-5861,-4851
-48,50,1,-2843,-3477,-7411
-57,64,92,-2562,46,-7247
-113,-53,-128,-1627,2631,-5895
-56,52,59,65,4160,-4792
-44,15,60,-4753,6313,-3336
-57,84,-34,-2008,7434,309
44,98,96,-3650,13859,3270
-44,-106,-109,1898,7034,5230
-37,115,-100,-8343,-6566,8157
22,-2,76,13815,-7055,6581
-26,-57,127,880,-6084,11822
-68,-127,87,-352,-8027,8649
47,63,-68,3881,-7777,977
105,-85,-2,-414,-1549,742
-91,8,-107,-479,585,-1536
-11,21,-16,-293,1602,-1497
-45,64,-30,-1718,3301,269
-128,34,-102,-3062,4369,2641
81,53,-38,-5233,4685,3666
-75,-75,81,-3029,11470,553
22,34,80,-132,12169,-2562
16,-57,-92,1630,8173,-750
104,11,65,-238,3323,-2111
37,123,-52,-5052,3428,-816
-10,25,96,239,-394,663
12,89,26,313,-2028,1529
52,-110,73,316,-1577,313
99,119,49,-1125,27,-282
8,92,48,331,360,182
-31,115,94,1013,4,176
-38,-46,75,359,130,-491
-14,-83,125,1031,-313,-980
28,24,124,-759,-311,-109
16,-21,114,-565,-929,-129
31,-49,105,-403,-629,-118
60,-59,92,-286,-37,-298
79,-120,-121,-3990,315,-6625
-128,78,-44,-1187,1637,-6931
30,30,-126,579,3243,-5009
57,24,116,2035,3369,-4780
-95,90,-47,6219,5609,-2890
86,-98,-20,-977,9123,761
21,-49,115,-694,8003,6521
-121,-43,-8,-1971,4127,11328
-73,35,-44,-4846,-5492,8152
-84,-103,18,-85,-6807,-111
-79,116,-85,-4551,-6890,-1164
87,-60,-96,-2605,-5030,-5958
83,-54,-74,-3503,-1126,-7321
-93,-101,-119,-1722,982,-6505
-63,102,100,-2720,2410,-4955
-30,4,24,-809,3854,-2372
88,-2,69,-2968,7400,412
-11,-117,95,-137,11669,-70
51,-126,119,-2686,13010,6622
-87,-7,-18,-992,4337,6314
-84,-116,-18,-3092,-7617,6271
37,-115,-85,5424,-14531,11315
10,-114,-61,-2481,-5813,12036
-87,12,114,-634,-8779,3943
-34,18,-18,1289,-3744,-249
106,-84,-124,-177,-2102,666
95,117,-57,-1370,1156,-23
118,27,71,-2873,3848,-520
-118,-23,-98,-3159,4977,781
-61,24,-15,-6030,8717,2430
-111,117,-101,-8745,9748,6331
5,-57,34,1622,3905,4188
-47,47,-32,-1145,1406,1292
41,-60,68,-2472,2486,3037
11,6,-40,-685,908,1784
-119,116,23,2279,932,1512
-88,81,74,2522,725,844
-99,23,-118,1940,202,401
-106,35,-100,-448,167,360
-125,-32,-120,-939,111,111
125,-64,-118,-500,84,497
122,-58,-121,-696,-141,368
122,-57,-125,-677,214,650
115,-50,-127,-934,335,723
99,-48,126,-970,-94,3
-122,-62,103,-322,10,-786
-87,-54,103,103,22,-670
-79,-41,106,326,-170,-429
-94,-16,117,-258,-262,-314
-92,-8,106,-562,-41,-245
109,67,71,-4742,3076,-924
-113,123,-83,-7087,3190,-1701
-128,107,-38,-1186,1817,-3526
31,-53,18,-259,205,-6557
21,84,-68,512,1813,-5939
-23,45,122,2990,2413,-4880
-120,105,74,6559,2472,-5785
-69,101,118,6808,7832,-4985
-100,41,-68,-7508,8890,2852
-73,74,117,-1882,4747,10536
11,78,-84,-8611,-4300,12439
51,65,-13,-2606,-6562,-1030
9,47,114,-3648,-6131,-2606
-125,-126,127,-2168,-3942,-6892
73,32,76,-196,-1445,-8393
-5,-86,62,-1534,509,-7297
27,-49,-119,-977,2549,-8134
-127,61,8,-4137,5622,-3461
2,45,-119,-4215,8775,467
-100,-35,71,-6929,13920,5923
108,-15,-46,-11586,11498,16859
82,43,125,1171,-11618,1782
113,111,-70,6855,-14264,7053
-39,93,28,-1528,-12425,6307
74,99,-45,-845,-9650,4200
124,121,32,-386,-4249,1205
82,26,-90,1085,-896,-2343
42,-29,-100,-514,104,-1004
-109,-95,42,-1495,1800,-1234
70,27,97,-3964,3754,1067
-26,57,94,-5158,4560,2528
-95,96,36,-3262,7750,4745
-116,-81,-80,-4202,4991,7709
-27,49,79,232,3004,3395
17,45,-37,1530,2130,2036
-91,-49,88,708,662,-216
-45,26,-119,1446,1489,-2147
-100,-96,54,-236,859,-1829
-59,54,103,383,602,-843
2,-5,-100,1351,441,-25
15,50,-70,-297,336,248
44,55,-72,-690,116,529
75,72,-93,-843,577,1747
-4,57,-51,-817,303,1441
-36,-5,-57,49,126,315
14,-46,-98,273,293,-200
36,-53,-104,257,390,-302
45,-55,-86,84,113,-152
18,-41,-77,56,33,464
28,1,-78,-400,102,623
-68,103,42,-2635,-3416,-2272
111,55,36,-2899,-4450,-5478
-115,-23,-41,-3356,-2155,-6701
-45,66,34,-1133,344,-6406
112,-74,-102,3953,4100,-5750
-55,-124,14,1172,8578,-3970
76,28,109,1372,8811,1896
-68,-115,62,-1621,8246,7549
-36,-20,86,-4503,-915,10403
36,-100,-64,-4921,-5630,3586
-18,15,-79,-2540,-7143,-653
54,75,40,-4008,-6017,-4526
7,47,-81,-3633,-3306,-6308
-81,-98,-26,-2769,370,-6628
-119,111,-41,-291,2613,-5389
0,-119,-110,-985,4057,-4505
-51,65,-58,-927,7412,-2730
48,-69,84,-2627,10442,542
-43,-64,117,739,12006,1578
-3,-9,-28,-1267,3063,7036
50,37,91,-6262,-4702,13662
-82,-46,7,7034,-8271,7755
29,72,105,-4450,-5207,3818
118,-103,47,256,-8228,3796
-4,-115,96,2023,-5920,1974
19,70,60,-2058,8,1868
-1,-127,-54,-1376,1570,-623
14,-60,125,-1847,2701,-353
-20,-48,-7,-3003,4916,-303
9,-106,118,-3992,8621,280
104,-99,87,-7307,10140,3841
12,6,-12,-4262,7062,4457
-6,125,-115,-357,3665,5260
60,95,81,-1993,1086,5627
-79,106,125,-2944,855,4016
-28,-95,-81,501,-9,924
118,47,-40,3281,-2578,-634
126,12,10,3572,-1533,-1681
92,-20,83,2048,-565,-2533
-114,13,-113,-444,354,-1649
-42,-123,-99,-845,271,-1877
2,85,-55,550,-542,-1555
49,75,-37,1172,-344,-880
48,-127,-25,389,-6,-720
48,-105,-31,-300,19,-238
36,-93,-61,-578,-363,94
29,-74,-92,-668,-155,567
10,-61,-102,-630,50,204
8,-44,118,-136,271,270
0,-21,115,-30,-28,51
3,-101,37,-2894,-1375,-4809
25,15,-50,-2623,62,-6525
19,31,-49,-2437,-35,-5786
-45,-87,-11,-3583,2251,-3068
12,65,67,3089,6059,-2679
-103,82,-105,1613,9453,-892
-53,-48,97,-247,4956,7909
40,-1,-95,-15,1702,12288
126,-57,-90,-2306,-7998,5596
-28,104,2,-165,-5574,-710
102,43,-3,-3926,-4976,-3227
65,111,-74,-2681,-3715,-6770
43,51,-29,-3355,-1172,-7108
112,-89,-2,-2348,1289,-6369
-38,112,-43,766,3364,-6343
1,-128,48,-4465,5718,-2666
19,122,107,-3454,8523,990
-115,-24,22,-2643,11847,3263
-21,-58,-113,-5464,10716,10294
96,45,125,-4814,-6593,11633
113,65,47,-2125,-4591,8238
2,27,92,-140,-11953,6613
24,102,-106,-2327,-6548,-4598
21,49,-14,2697,-9308,1203
-82,7,-12,-1044,-5641,1770
-123,-108,-15,-2662,-1763,1484
-128,-35,6,-1436,-114,-420
1,15,-107,-3234,1380,753
-52,-44,2,-3050,2441,1080
123,-32,-11,-4398,4674,2259
40,-43,126,-4240,6323,4253
31,12,105,-2161,4712,4282
76,13,-65,-805,3869,4787
-117,-69,124,118,2281,1835
28,98,-17,69,1568,2283
42,36,13,12,1121,1963
14,-67,59,99,178,1540
-22,107,111,-755,-498,1529
-24,92,97,-1255,-97,1471
-65,25,83,-29,537,365
-76,-5,104,935,361,-475
-63,-4,-121,380,262,-1097
-38,9,-117,-472,40,-1030
-28,-7,-117,-309,-331,-488
-31,-37,-118,402,-634,-291
-19,-36,-124,402,-451,-343
-18,-31,125,-158,-224,-199
-24,-35,117,-470,-253,-113
-39,-35,109,-329,-191,-20
-38,-9,93,-369,94,258
-57,110,125,-7352,4450,-2409
-125,-73,55,-3264,491,-3253
98,79,78,-922,-2199,-4943
-80,-22,106,-3480,-1259,-5990
-69,96,104,3025,584,-7702
119,13,116,1880,3407,-5770
120,-1,-21,8401,4997,-6825
111,47,0,-5323,10882,-1559
88,119,98,3117,9372,4122
64,-43,-3,-2688,8150,8400
122,-7,43,-4400,-1986,8598
97,-57,57,-3521,-5551,2387
-79,115,46,-4642,-7108,-1534
-60,-64,-39,-5279,-5623,-5088
111,-52,-78,-2230,-3084,-7006
-27,-108,34,-1848,-163,-6882
-54,-36,34,120,1969,-7096
-94,41,52,-783,6929,-5670
23,45,105,-4020,8692,-1562
-94,98,-127,1335,9459,-1116
-68,-76,105,2887,11935,5036
-10,37,-125,-13910,342,16764
-105,122,83,8618,-11980,6915
-64,-7,-55,-8590,-4888,7477
-99,71,95,1069,-8029,-2188
-23,-42,48,-965,-4282,5144
-20,-98,-110,-3188,-915,489
79,22,-102,-2835,96,121
-126,1,52,-2307,2278,-351
30,-58,-112,-3042,3272,402
-8,12,-88,-2921,5480,3125
32,79,-38,-2201,6212,3730
123,73,-7,-1674,3856,4262
104,112,-67,966,3121,2009
-48,97,50,881,2149,477
44,12,-115,389,1914,561
14,-99,5,-124,1167,853
43,20,61,-200,1001,1964
62,-1,83,-670,838,1591
60,-43,99,358,300,5
20,-70,100,1548,2,5
6,-54,-114,835,-175,-163
8,-46,-94,-573,-37,46
24,-59,-103,-715,-16,46
33,-45,-85,-745,-189,-356
37,-43,-95,-483,-127,-463
32,-54,-114,129,-71,-576
39,-53,-122,378,-107,-580
46,-35,-126,-103,-90,-394
36,-29,118,-412,-111,-114
12,73,7,-4466,-991,-2897
-59,-120,7,-3968,-2790,-3715
47,66,98,-134,-481,-4991
-10,-113,-9,2834,553,-5013
-79,-11,8,6489,2211,-7961
-35,50,10,2816,5963,-7767
28,-93,66,-2555,11386,-1859
85,54,-105,1196,9112,5990
100,87,-36,-3509,2320,7752
-61,18,-123,-5938,-1582,5080
-115,-91,75,-1870,-4213,1579
36,-73,-36,-7928,-5547,-785
-34,63,30,-2910,-5916,-4364
-33,-113,-126,-316,-6612,-4790
-80,-73,7,-2292,-2618,-5706
-64,-95,91,-1890,285,-6735
39,-17,78,-3757,4930,-5391
-80,22,37,-2929,7291,-2508
39,114,7,343,9555,-623
9,121,-13,1950,10759,-567
93,4,75,-4689,6151,4256
94,76,-119,-4885,-6994,17885
-16,-41,-84,1576,-7266,10392
71,72,25,-2512,-5884,3652
-34,87,61,-1185,-7658,3477
-11,-4,119,1911,-5009,1340
82,-45,83,-494,-435,-582
101,41,-47,-1790,754,259
-14,-38,104,-1896,1900,-24
-90,-77,20,-2992,4037,-665
-65,-108,21,-3795,7865,75
-109,121,5,-4593,10361,884
125,71,-115,-2882,11630,3352
68,59,-66,-2797,4577,2825
-54,127,-120,3517,1352,1723
-113,-63,59,-1752,876,1351
29,81,99,-2182,222,289
-16,-59,108,-261,-158,325
-66,-96,-70,1545,-1198,-610
9,-50,-16,484,-564,-508
16,-59,-21,-151,-69,-181
-21,-72,-3,-193,-506,-187
-15,-64,-16,-692,-448,-128
9,-66,-56,-907,-385,-360
0,-54,-107,-957,-520,-336
-16,-53,124,-713,-469,78
-19,-65,98,-274,-314,-88
-32,-36,81,-346,-43,123
-41,-19,79,-811,-194,48
-40,-3,64,-793,-349,-21
116,-26,123,-6713,2589,-3422
-80,121,-116,-3002,-719,-3601
114,-90,-112,-332,-467,-5603
124,-60,104,-77,1911,-5970
-98,-74,75,727,2950,-4437
70,3,107,6233,5321,-4002
-7,71,-18,973,6617,-1957
-21,-6,-43,1047,5904,2261
116,-80,-105,-1169,7492,6445
76,-66,-4,-2320,4133,6970
17,111,11,-1006,-3617,5004
43,103,-127,-3868,-7494,2600
87,-86,27,-4785,-7201,-1206
-100,-45,-60,-6512,-6884,-2946
-8,39,115,-2825,-3104,-6145
47,36,-73,-1647,45,-6999
41,-90,111,-2406,1609,-5489
27,-101,47,-2639,4303,-4605
-74,-86,67,-3835,7651,-1610
16,35,-102,-4186,8062,2761
-9,-57,-108,-9,10259,2974
38,-64,8,2636,9244,6740
-97,122,-107,-4555,-38,9720
96,-122,106,-4549,-7437,11938
-124,23,24,-283,-6757,4616
49,102,32,-2260,-9314,1684
-69,-111,73,-243,-10666,1632
-52,109,-90,555,-6284,2878
54,-18,-8,-2668,-616,694
-17,-52,16,-833,139,398
-118,-66,19,-1631,2139,-330
28,-124,113,-2193,4699,-198
11,-85,69,-4495,8529,2057
-115,0,-80,-5044,10257,2863
-2,111,-114,-5198,7144,5928
25,-42,-120,208,544,4138
20,-10,82,-1103,1159,3422
-81,95,-53,-1245,818,1943
-109,-101,12,1759,235,511
118,59,91,3031,96,-129
119,95,-118,244,-199,-43
122,7,-116,-926,-384,-358
-120,-56,-124,-863,-163,-564
-114,-92,-128,-577,-153,-514
-95,-97,119,-224,-47,-87
-100,-78,109,-405,-168,57
-102,-51,94,-631,-81,-69
-98,-38,74,-622,-62,-79
-93,-41,71,-293,-105,-117
-94,-41,62,78,-38,-231
42,20,-13,2472,5402,-4379
64,-126,-19,5337,8139,-4689
-58,84,-37,-1308,10546,-715
83,-101,-57,-113,7321,7144
10,48,-51,-3092,-1945,12156
92,-95,19,-7231,-8217,5034
41,-29,-96,-929,-6876,-3668
-12,22,-117,-3562,-4753,-5346
121,74,72,-1915,-843,-7445
-79,41,47,-2898,2478,-6175
6,-128,61,476,4045,-5022
31,56,-31,-3367,7906,-1760
-85,103,-65,-1696,9023,4574
-5,24,15,-823,7979,7458
-99,109,-66,-953,1920,11273
20,18,-2,-2006,-8978,13588
-71,49,80,972,-8893,2385
-95,-42,9,-977,-8520,-64
-20,-109,55,-1297,-9339,3789
110,21,40,655,-3860,3100
-56,-70,-53,-2673,652,898
-105,-127,-27,-1463,1124,660
-53,-3,17,-3382,2925,79
73,-27,-10,-4170,4911,1344
37,-127,-78,-3747,6679,4112
85,-14,98,-4888,6989,5991
-32,-104,29,-3833,3697,3940
-57,125,49,372,2184,2179
80,89,49,600,3238,1495
-16,-22,-125,152,1439,368
-21,122,-37,-1420,-287,398
82,23,-39,-991,-284,212
115,-16,-62,-149,-577,397
77,-27,-76,-104,-716,480
-5,-63,-89,-262,-1431,457
31,-103,-104,-504,321,166
23,-120,-96,4,417,-145
20,-119,-90,449,110,615
1,-104,-91,5,-144,-475
72,99,-105,582,297,-372
0,99,-80,742,-541,109
37,-112,-65,-305,-105,608
5,-122,-68,-376,222,442
33,121,-106,38,398,-271
16,96,-119,430,-355,-169
8,101,-103,-89,-209,-139
41,98,-108,-311,170,182
-2,104,-113,-108,-169,-79
4,86,-117,311,128,-30
23,110,127,93,223,99
-75,108,-18,-4996,1840,-4195
101,57,-70,-521,-1479,-5922
-103,-127,-17,830,549,-8147
-8,-46,-13,2295,692,-7604
-57,112,-44,9154,3171,-10011
89,1,15,7156,2872,-9460
9,-103,121,-9429,10205,-1871
-52,20,105,-5739,8696,11445
57,37,93,-2136,1106,10403
-92,105,-20,-1029,-6609,5181
-110,-122,66,-5015,-6482,3008
-110,-73,99,101,-6080,-4727
-20,76,72,-3864,-6581,-5161
-82,-70,-76,-4792,-3188,-6133
-37,-21,115,-4482,459,-5852
21,-104,111,-4002,2647,-4345
6,-105,-72,-6815,7674,-1157
-4,38,-74,-2579,9374,2145
23,-26,67,-4064,10320,6055
-104,77,-62,3706,5607,8230
-55,34,-128,-8798,-3706,15848
51,82,37,5117,-8187,5122
37,111,-25,-4898,-8180,3121
69,-2,-15,-550,-8174,2415
-73,0,100,-1957,-5031,-631
-41,-64,-15,48,-3448,281
63,-26,83,-1010,228,-708
-40,-79,17,-1644,1387,683
-124,-76,19,-2451,3658,1425
38,61,19,-5578,4866,4138
84,-103,-87,-4183,7261,4713
-71,-11,115,-1916,6149,7087
26,71,87,-3476,3779,3837
33,3,100,213,1562,3772
37,24,-17,1934,475,1380
-49,-128,40,453,96,805
-43,-56,66,1377,-96,466
-31,94,67,1243,317,264
-37,35,101,691,68,-35
-47,6,-127,-104,-389,342
-67,-38,-98,-444,-836,312
-65,-42,-108,-1010,-633,199
-78,-21,113,-1174,-170,51
-71,-37,77,-498,183,-144
-73,-45,52,344,157,-596
-30,-45,50,708,98,-309
-55,-15,73,85,-407,-30
-72,-9,66,-216,2,-24
-57,-11,54,-203,149,-345
-37,-12,39,-91,111,-354
17,29,39,-2592,1825,-4237
-113,87,-16,1011,-79,-5443
-86,41,118,3733,3063,-6847
75,18,72,4404,6872,-6871
-42,-56,71,3469,7784,-4323
10,96,-36,-5496,10396,4556
13,-84,-2,-4331,1025,13272
38,99,107,-7208,-5812,8125
-97,-8,-84,-3702,-6860,-104
74,-36,-3,-5435,-7076,-3744
-107,45,-40,-1679,-4581,-7284
69,15,17,-2111,4,-8723
74,37,-59,-1204,3053,-10230
-26,94,-16,-7983,11012,-7582
95,-120,-4,-8746,11877,1652
-95,-18,3,-3683,8433,7391
-13,24,100,-892,5147,11519
99,-26,-53,-8060,-6500,8681
-70,-122,100,5464,-10305,7861
-126,33,-94,-1833,-11903,10529
-115,64,70,2416,-9113,3736
-45,-126,-29,-684,-5804,3839
99,124,119,-885,-1006,766
-87,80,101,-1502,855,-774
-50,-29,-76,-1582,1924,-401
-17,100,4,-6082,4700,1114
35,28,-117,-6575,7731,2676
-92,105,-98,-7074,6645,4271
-48,42,-4,-2984,4324,5543
-79,-25,-23,-757,2692,3332
-121,99,-83,192,1505,3098
-84,-54,17,1173,1151,1128
-39,110,78,1421,948,906
17,-106,92,3894,586,1370
49,-5,110,4906,502,1942
-47,-7,-56,625,495,456
-63,-21,-8,-2580,115,-55
-14,-82,-79,-3124,490,667
-53,106,-117,-1630,-101,723
-57,127,-120,-957,-385,447
-74,-108,-127,-432,-268,235
-70,-103,116,313,69,-174
-73,-79,-128,330,25,-286
-57,-64,121,-52,-11,-226
-47,-69,115,-46,-110,-239
-52,-60,107,-210,-92,-67
-54,-49,101,-306,-62,-21
-51,-37,85,-210,-31,-26
-52,-32,83,26,-88,-90
-58,7,83,-497,-33,-56
0,100,-18,-2841,-1639,-5489
17,-63,118,-1273,-1150,-6733
-122,-70,72,679,-797,-7424
35,24,67,6969,2747,-8554
-46,-62,47,-2066,8893,-5465
105,-28,-29,-926,10211,2137
-12,-30,-124,-2571,6756,10997
95,103,-104,-7307,-3711,7964
80,-59,121,-565,-6271,1427
18,-39,95,-6953,-7474,-430
77,0,80,-5233,-5903,-4404
-74,-84,-20,-2267,-1326,-6516
28,124,-61,-2014,1145,-6254
95,47,85,-3006,3762,-4643
-5,14,-17,-1015,6021,-3103
18,-70,117,89,7874,-2401
-15,124,-31,-341,10052,495
-62,19,-124,3959,9450,869
3,-57,9,-4714,5459,9029
79,39,98,-23,-6555,12405
24,-52,83,3308,-8216,11866
-30,-72,94,-9389,-2961,11785
0,127,-46,5445,-10068,-2487
-58,-34,-85,-2038,-1946,1719
76,-9,20,-973,-269,779
101,6,89,-1547,1294,-891
79,-73,5,-637,2528,-1173
46,-34,116,-3146,5205,-590
-93,24,19,-3398,9234,770
17,-11,33,-4413,9329,3732
73,-70,-37,-5535,5293,6322
-76,127,-21,-1055,2647,3318
-107,-79,9,-558,3886,4090
-24,43,-69,-1644,2413,2646
-31,99,-1,2837,802,345
13,6,76,3502,-81,116
46,7,124,1697,144,463
-18,-15,-100,-97,41,335
-89,-120,-71,290,-968,-337
-80,-119,-67,434,-1290,-444
-57,-117,-75,165,-673,-435
-57,-117,-85,-517,211,-680
-60,-120,-104,-816,145,-1097
-34,-122,-127,-505,-95,-713
-30,-115,-126,-377,-150,-156
-34,-89,126,-538,128,-140
-16,-60,114,-866,502,249
-34,-38,107,-1095,63,206
-27,-31,100,-489,-50,169
-25,-11,95,17,-150,214
55,-89,111,-4678,2486,-3342
87,-81,-23,-1599,545,-3016
66,4,58,1954,2023,-6119
36,25,-100,2970,2808,-7444
-8,86,84,4999,4354,-7516
-102,-76,-118,4436,7336,-6692
-119,28,-38,-1020,11864,2232
-112,-109,71,-2159,7823,9408
104,105,-22,-6791,-3263,14090
110,-30,-62,-5494,-7328,2699
82,83,102,-8972,-5501,-3805
-66,-63,99,-7213,-3168,-7060
-84,-94,126,-1275,-774,-6710
96,-71,23,-1982,2474,-6329
-15,-52,81,-1949,4635,-4988
30,96,-75,-1514,7001,-3950
82,59,-61,-5398,11355,539
-48,-23,-17,1288,11313,2341
-48,-111,-32,-5125,10727,8662
-38,88,75,-3157,1504,10803
-82,-71,-7,-5644,-9198,12693
40,-7,-89,1537,-8037,3366
-103,127,-9,1229,-8376,248
127,5,92,-674,-8557,2586
-120,76,99,2477,-6740,1944
76,36,74,-2688,-60,730
32,-81,-53,-372,-543,723
-74,20,-55,-2342,1075,834
60,-47,81,-4098,3564,1623
-31,-53,-120,-4331,4111,2615
59,33,-58,-3287,5046,2602
121,95,84,-1678,6361,3390
66,-113,48,-824,3959,2355
-50,19,44,-470,2249,2608
21,106,-96,-1249,1693,1485
103,-41,-7,-55,1700,1663
-66,120,34,104,1941,1002
-35,92,83,1374,1009,564
-51,120,96,931,-59,649
-65,125,-121,-268,-74,70
-34,27,-94,265,48,-1021
39,0,-71,863,621,-369
5,-9,-40,700,286,56
-21,-14,-10,-85,-91,274
6,-39,-30,-218,-90,73
26,-33,-52,-77,-45,290
20,-39,-51,278,190,87
-2,-39,-47,661,40,-135
13,-22,-37,258,339,-26
6,-29,-22,155,134,-294
4,99,-73,-5976,-2054,-3236
75,59,-113,-2683,-1981,-4278
-48,90,-68,-2532,-44,-5559
102,-20,-73,353,703,-5832
14,-21,82,-2069,3272,-5435
72,-112,-14,3103,6723,-4609
66,84,78,-1827,8473,65
116,25,19,-1623,7372,5697
22,71,-61,-2761,2224,11628
68,-45,67,-1989,-3933,6187
118,90,66,-2553,-6239,1516
-84,15,41,-3211,-6091,-1420
49,64,12,-3059,-5708,-5175
64,31,-68,-3165,-3349,-7038
-18,16,-111,-2936,-548,-6808
-9,42,48,-3244,2198,-5045
70,46,-53,-3084,4534,-3451
-122,-32,-60,-1961,7508,-507
10,86,-16,-1795,9802,2785
-11,104,29,-1343,11424,4218
-31,-64,59,-1095,6462,8316
-34,-98,7,-9390,-7161,17102
83,45,106,8452,-7684,3347
-110,-115,-21,-2442,-6517,-1146
-43,-17,116,1100,-8754,5099
-104,-21,-67,-2219,-4976,2757
-26,73,52,-963,-4192,2951
61,99,81,-1072,-1753,940
-128,-98,81,-2322,929,272
-29,34,82,-4732,4119,3685
23,-2,80,-4582,4494,2589
-93,-14,-90,-4818,5665,3527
-71,11,23,-3903,7974,3444
-43,91,108,-1335,3221,4393
60,107,31,996,-52,2713
115,-24,-63,1765,663,2285
109,-88,-88,138,2201,1448
100,-17,-53,1512,961,474
-122,91,-2,1228,180,549
-52,-30,53,625,66,831
-66,-92,80,708,-612,809
-97,42,88,1641,-1269,1086
-119,-3,92,1526,-1064,266
-90,-34,108,652,323,-42
-88,-66,102,-1,954,343
-120,-88,89,161,354,202
-60,-116,72,604,419,244
-82,-120,80,783,380,-68
-69,-123,99,558,294,-11
-53,-76,87,-273,392,14
-113,54,-62,-2914,1533,-3740
-30,-31,114,271,-516,-3305
59,-79,-67,-4762,-3459,-4418
-107,-69,66,-1910,-4784,-7042
116,112,-101,-2203,-347,-6749
-117,-31,-119,2717,3682,-5441
14,-65,-58,2402,5504,-3597
116,-71,-56,-5560,7559,515
49,70,-113,-3395,8785,5713
-102,47,42,980,8028,7698
-106,75,16,-8232,-5347,6718
-2,-6,84,-4866,-9361,1460
-56,5,-46,-3874,-9721,-3012
20,53,62,-1699,-4944,-7476
23,25,72,-1935,-2216,-7321
-27,33,95,-1505,1325,-6275
80,-37,-120,-1514,3055,-3930
103,61,-44,-3754,4595,226
38,117,126,-3357,6804,3169
-119,94,-36,-129,7009,5517
51,80,-102,3005,4669,6437
96,77,-97,-3119,-102,10352
73,48,-53,-252,-6987,7406
122,90,-28,7040,-11277,5946
106,-85,126,827,-4928,3730
92,68,51,729,-7278,2153
-75,78,87,-681,-2615,3014
2,91,2,-1642,-1716,3644
-30,79,125,-2311,241,945
-66,-46,27,-1208,2353,-500
57,-114,116,-3051,4479,-644
-126,-51,108,-2898,8449,-426
68,-40,1,-6618,8939,2443
-9,-55,10,-3761,6675,3992
-30,16,10,-386,2568,2847
-106,54,-68,-939,2970,3466
-80,-86,88,1032,1063,1116
-87,76,-65,244,361,733
-53,-22,-18,173,87,675
-48,-75,2,29,-369,612
-78,-72,17,-445,-521,1288
-104,-114,13,-510,-630,1497
-86,-112,13,-1004,102,1369
-100,110,1,-1110,369,32
-118,51,14,113,239,-965
-88,39,17,1042,26,-750
-72,60,45,783,-454,-363
-78,62,53,145,-461,-368
-75,65,55,-105,-21,-261
-68,55,49,-256,248,-116
-95,61,-117,-4264,4205,-2630
69,-109,-34,-1129,-3086,-3237
-106,108,0,-3548,-3860,-6964
-41,-88,-43,-1472,649,-7088
-61,40,-29,1466,2343,-6740
-114,-45,-105,5310,3258,-6116
122,37,49,749,8811,-4842
40,56,-123,-468,8813,2226
19,102,17,-2994,8161,8346
121,-25,90,-5172,-416,9895
52,122,-101,-7971,-7850,3895
-16,-96,-67,-2938,-6738,-3591
-4,-94,127,-3213,-5532,-6451
-4,108,73,-1351,-1115,-7485
107,70,-89,-2171,2012,-6605
-68,120,-46,1230,4546,-6296
50,-7,90,-5201,7117,-5253
111,60,-106,-8190,6573,1414
-84,-98,59,-5539,10807,8168
-29,-56,-65,-2372,4192,11536
-56,108,19,-4464,-9941,9866
47,46,-116,5298,-10384,5484
110,-18,-39,3256,-11552,6645
122,32,73,-3114,-7060,5344
-27,-98,-113,-778,-6313,2179
-38,-9,33,-1223,-2384,1125
12,-57,-118,-384,-446,-650
-69,-27,-45,-2191,3356,-1285
6,-55,44,-3192,4895,-358
32,22,103,-6850,9940,198
-95,-79,-75,-7034,9917,3623
57,-73,4,-813,4890,5104
-32,-41,-93,6005,5814,3919
22,93,80,1811,6065,228
-105,-128,89,193,4571,-630
-100,83,29,-2051,1003,1153
3,-115,-126,-701,-1639,1576
-29,84,-61,869,-2741,108
57,-72,19,4,-594,-3664
97,-14,-57,-531,206,-990
12,-14,-30,-195,-506,764
-23,-1,11,370,-1528,582
21,24,-13,-485,-1236,-497
37,-19,-60,-593,-780,-32
-34,-19,-87,-1094,-1001,312
-43,30,-104,-1713,-822,49
-28,34,98,-1160,144,-170
-51,82,94,-1191,-90,27
-50,120,94,-982,-298,81
-40,99,68,152,7,-111
74,-77,6,-9977,2246,-1744
113,-72,12,-6003,1951,-3139
56,-33,21,-22,-1179,-5204
-97,-42,48,-585,1624,-6617
30,64,-44,2077,484,-6834
-98,-90,106,228,2957,-5719
-109,86,72,5529,4436,-6837
114,70,28,-2054,9536,-1442
-101,10,-85,-361,9446,3323
1,18,74,652,2921,10296
124,-94,-19,-3744,-5398,10825
52,5,119,-1778,-6475,1639
10,-57,-39,-8849,-7337,545
23,37,48,-4263,-5003,-4082
-93,-43,97,-2840,156,-6603
-19,-126,13,-1351,1194,-5701
-51,-84,19,-1838,4068,-5842
-58,108,-82,-7072,10994,494
-114,33,120,94,10188,3613
-108,-85,-7,-3894,12621,9310
-53,1,-51,-866,-2806,7970
2,-74,-25,378,-6622,8087
115,-92,104,4889,-11424,5105
-21,-100,-91,-4307,-7258,1893
-60,9,100,-2508,-7236,2301
3,-69,-80,-2260,-5215,214
29,-45,-63,-1646,-2320,-67
103,125,-93,-2116,-228,-117
-23,78,73,-3341,3034,275
107,107,108,-4833,3614,1411
32,100,-33,-4571,4496,1465
58,-10,88,-856,3615,2204
-95,-22,-22,-330,4769,2736
-75,-53,-78,-112,3377,2190
12,0,55,-1282,2206,2906
83,97,-85,1044,1454,2213
-82,38,10,-98,1252,2497
-93,50,59,1524,200,963
-18,-20,-123,2021,483,385
-3,14,-85,518,868,319
6,-110,-74,1374,324,-9
15,-99,-43,1345,107,658
-33,-92,-13,409,-150,493
-36,-110,-8,-244,-125,239
-8,127,-20,-556,288,228
-21,114,-32,-837,268,51
-43,100,-59,-405,108,-208
-50,107,-69,-287,-13,-352
-20,103,-74,-20,-118,-628
15,96,-90,278,282,-372
120,52,82,-4087,3864,-1179
108,-124,14,-1573,985,-2546
-80,-72,109,-2696,185,-3513
29,113,-62,-2353,-2589,-4692
-24,4,-89,-1411,-66,-6237
-30,81,-21,147,1944,-4299
-7,-80,-68,6818,4408,-4613
86,-121,44,6866,4783,-7828
-94,-56,-23,6149,5974,-3467
-101,27,-88,-7005,12704,4648
87,-112,119,-4379,-2406,14441
-66,8,-76,-7376,-5384,5881
-93,70,-100,-1746,-6091,-1002
-109,-113,-110,-6529,-4785,-1310
-2,69,92,-944,-2094,-5097
-72,111,79,-839,-226,-5460
105,87,119,1903,283,-6567
98,88,-88,-721,3276,-7099
10,87,96,3030,2638,-7562
111,-87,8,-69,11917,-2587
34,89,-80,6172,12869,-863
113,-67,55,-14842,6173,11854
31,-70,88,7169,-12940,9728
106,-12,-53,-4600,-4434,11160
-84,71,-38,1355,-4854,2738
34,49,62,1418,-4179,2359
92,-112,-3,-2212,-915,2938
-24,104,13,-1078,22,-1113
-31,86,-33,-2525,1568,-1457
-29,24,85,-2735,4584,-219
90,-61,13,-5558,7433,-285
67,5,-89,-5470,9656,200
-55,-71,-121,816,7343,-1474
0,-118,11,1337,4826,678
90,-18,82,-1495,3408,406
-126,29,-96,-610,2721,-502
67,17,77,-1464,214,1189
100,-7,120,-946,408,1627
90,94,-120,1421,1959,1501
15,-65,-16,-1022,1554,1846
-13,-68,52,-2822,-380,718
-2,57,24,-498,-1522,-1306
24,120,11,-28,-1216,-659
29,-92,7,-102,-952,109
40,-88,-17,-557,-480,-98
27,-80,-30,-804,-377,-205
-6,-81,-63,-661,-297,222
-23,-71,-86,-594,-267,379
-27,-55,-121,-620,-159,295
-24,-58,106,-390,168,37
101,-69,120,-7102,1443,-1690
-8,71,72,-6182,2306,-4107
-35,47,-56,-3342,2166,-5199
100,5,77,708,3271,-4758
28,-72,-31,2037,4681,-4041
-87,-60,109,6674,6755,-2914
68,-95,-11,1370,9547,-1131
84,116,71,2113,6171,5985
49,-65,-12,-4575,-685,11062
33,95,-89,-4840,-9039,6943
117,82,-120,-6561,-5440,25
24,28,-123,-2009,-3779,-5357
114,-75,127,-1985,-2330,-6646
-46,116,91,-1214,1133,-6831
87,12,-53,547,1926,-6374
93,-83,-79,95,3645,-6017
46,-99,1,-2952,8726,-2551
-110,32,-50,-1245,8429,-407
38,81,-10,-257,12010,1394
79,21,124,2937,6767,7956
80,-71,100,-12202,-2579,16973
-99,108,-21,10540,-11545,2862
121,-112,-112,-2438,-4948,6178
52,-37,102,123,-7702,6140
114,108,78,580,-5258,1768
-41,59,108,573,-2639,2072
32,82,-36,-2044,1045,218
87,54,79,-359,2391,-1663
0,37,-92,-1925,4416,-876
-68,-41,-21,-5330,9609,-222
126,-21,59,-6196,9817,1556
-2,-47,-85,-3216,7459,3845
-115,-54,-42,1015,3915,721
-29,-64,80,1578,2121,768
-36,-99,-62,-564,1510,904
-19,92,-12,-1119,906,809
-50,-33,48,920,-460,-332
-38,-29,92,1019,-614,192
-35,-14,-120,139,-818,-266
14,-10,-127,-828,-135,-578
6,-25,-105,-329,51,-1565
-27,-45,-64,708,161,-1308
4,-32,-52,740,170,-646
16,31,-32,-249,154,-470
39,36,-50,-471,210,-368
25,35,-40,-303,-116,-548
38,59,-48,-306,52,-240
55,76,-69,-404,140,16
11,79,-84,-277,-59,183
-36,111,-100,-789,-325,158
-86,-12,107,-5424,898,-4660
-55,-56,56,-3717,-2635,-4414
0,-7,84,966,-145,-6862
-62,118,53,1198,1555,-6072
38,87,-2,2879,3392,-5455
-17,-44,106,6525,5460,-5501
31,-7,94,-2319,9971,347
-41,89,-21,341,9191,5830
-52,-122,56,-6130,1141,11452
83,59,-35,-6492,-5957,5269
-77,-69,-41,-4997,-6564,179
-36,79,74,-4424,-5974,-3726
-82,91,57,-3290,-3743,-6724
-28,55,-39,-2962,-188,-7883
-26,-61,49,-2566,1871,-6371
81,-35,-71,-2184,3855,-5592
-66,-121,-24,1622,6773,-2700
-113,-100,70,-5376,10979,1785
22,60,-93,5171,12467,2108
88,37,-107,1965,9221,5190
-2,-35,-70,-6881,897,10179
-88,-87,125,4575,-14537,10130
-67,57,-76,-5312,-5227,12649
113,8,-128,681,-6624,2773
-99,-4,18,-2831,-1453,4317
-20,-115,-40,-578,-1649,-1573
-108,115,112,-769,268,-1374
-22,-21,-14,-3646,2654,-2088
-91,-81,-43,-3294,4525,-260
-76,-82,-58,-6282,7294,-419
0,15,31,-6936,6741,3747
62,-89,19,-1455,2796,2469
76,65,-22,-520,3295,2366
116,-119,37,-1486,2317,1636
-66,31,-13,-2143,1298,2520
-5,-104,-17,650,648,2525
61,-24,57,3236,-153,1725
54,-37,-115,1551,-996,1423
-114,23,123,-1166,754,2241
-22,-16,43,-1549,1085,1322
-112,0,70,-1755,63,491
-92,7,52,-1949,40,-127
-63,-18,31,-1100,213,-784
-49,-55,43,649,-12,-1410
-44,-82,51,1840,-210,-1540
-48,-64,78,1328,-428,-1096
-10,-49,87,126,-244,-812
31,-53,74,-768,6,-519
-43,-46,85,-720,-544,172
-58,-21,84,-525,-380,753
-90,53,-41,-10795,2628,-2127
-85,116,-73,-2017,1028,-3750
-69,56,35,-415,279,-4744
25,24,-2,-1698,2618,-5709
-119,-125,-41,684,4855,-4536
39,-22,43,3353,6584,-2842
-75,-1,-97,3662,7902,-597
106,-29,-92,-1842,7934,4428
122,56,21,718,3419,10976
120,73,-43,-1920,-1997,10466
-93,-93,-16,-7012,-8017,5119
-69,-31,-93,-4059,-5590,-683
105,9,-99,-6083,-5470,-3277
-5,-51,-21,-3234,-2706,-7246
-67,-20,81,-367,-47,-7548
82,-105,34,-2920,1943,-6030
16,23,33,-1938,3236,-4580
101,-71,55,-730,4879,-3456
24,105,49,-572,6238,-1058
-51,-122,104,-447,7304,1196
-86,-35,92,-800,9093,3177
-65,22,109,4480,5161,4651
10,-81,107,-4512,2404,7939
-107,-98,-59,4098,-2068,2229
-56,-74,-53,5129,-8599,7619
-123,-126,109,-4858,-2386,12418
22,-24,-74,-537,-6090,5321
-51,-91,-11,2873,-7702,2606
32,-117,49,-1205,-2814,2955
-41,3,-90,-138,502,-621
11,46,8,-637,1020,-1321
-70,-43,-96,-1157,1920,-700
-109,-74,96,-2236,4324,-21
-109,-53,-84,-5210,9073,276
103,-61,-12,-8355,10205,1239
-28,31,-33,-3573,10500,4971
61,-10,41,-1816,4077,3457
-11,124,-70,-2125,1799,5397
6,-6,-117,-1573,571,3256
74,85,-36,-50,693,510
79,-76,44,3245,-313,-461
39,-100,-122,3250,-936,-413
49,-81,-37,1324,-851,27
45,-68,-18,-252,-99,239
32,-94,-53,-812,391,-292
46,121,-61,-7,-251,-1068
54,83,-25,1139,-1112,-1453
111,48,11,1853,-1094,-1583
-127,76,41,836,-661,-1268
-107,63,47,-63,-109,-899
-31,39,10,1977,584,-7592
-8,-32,8,-474,675,-6798
-69,9,-8,2825,2262,-5645
-3,72,-107,2914,3861,-3726
-91,26,48,-4259,7371,667
98,116,-105,-2369,6942,4815
-85,-107,-59,-2729,1513,10183
109,109,-77,-4853,-3457,7560
76,98,105,-2540,-3853,1605
83,-73,126,-5402,-6390,-2285
37,-13,2,-4744,-6562,-4709
3,-42,109,-1043,-2581,-7286
56,-3,58,-2443,-695,-5644
85,-70,-94,-1085,1833,-4811
59,-128,127,-2717,4928,-2886
-109,3,-85,-1653,6723,683
127,-88,-88,-2790,7651,3378
-45,18,-120,601,6677,6738
-48,-22,-5,3188,3265,5783
-3,94,-16,-6893,-401,10527
65,111,-78,2280,-4706,2357
-11,13,76,2861,-11585,4146
-48,120,-73,-3446,-9416,2420
-20,-127,110,4194,-11370,354
5,-65,-23,1845,-7015,3303
117,70,-80,-998,-1269,438
-71,-65,-31,-871,91,702
55,-98,32,-1537,2134,-310
34,73,93,-3453,4552,494
-121,-37,-65,-5218,7049,2361
-24,49,58,-5664,8518,4159
55,-18,-115,-3943,7074,5218
-45,10,-77,8,2999,4690
-112,-24,-90,-882,1115,4522
115,-15,32,730,221,2497
112,104,-82,1148,-418,2039
-107,-5,-22,1410,1087,1379
89,-45,-74,739,1617,414
52,119,-45,579,785,-533
80,21,18,977,-250,-958
96,-32,81,863,-929,-1150
110,-35,108,396,-544,-410
103,-21,117,-218,-228,-55
119,-31,109,-596,155,-507
120,-24,95,-845,-49,-428
-112,-12,93,-840,46,-348
-117,-37,68,240,238,-388
-118,-10,65,114,119,-397
-107,-5,50,300,67,-286
-100,2,47,124,103,-231
-48,-122,-95,-5422,3427,-3047
6,24,124,662,-1687,-5460
-108,26,-83,-655,-1998,-9108
-31,46,-65,-1058,1345,-7465
-66,62,103,2203,2521,-6322
-29,-91,38,3413,3110,-6105
104,83,82,-786,6402,-2818
110,73,-34,-39,8345,3721
64,-117,-14,-2729,5661,9806
61,58,-74,-4101,-2459,10204
-4,30,96,-3575,-6262,3090
-105,22,-47,-3438,-7845,-2996
-88,47,-4,-3853,-4845,-6351
-8,94,95,-2501,-650,-7184
-102,109,-67,-1175,1820,-6005
-59,107,96,408,4127,-5181
119,-88,39,-663,5820,-3418
59,57,-89,-2627,7545,-579
-47,49,61,-3989,9953,2710
-127,-16,-23,1862,6057,7240
70,27,-49,-3160,-2580,10997
88,-53,-23,6388,-5488,3295
72,-30,53,-1591,-4108,6404
31,-80,41,544,-7302,5340
-124,-72,117,729,-7203,1738
50,125,5,1232,-5508,2836
-8,-75,-10,-1466,-1900,2064
19,-121,-88,-647,228,151
-80,77,75,-1809,1939,-141
57,-45,-72,-2235,3493,133
20,-93,-118,-4619,5631,1681
127,105,-95,-4751,8123,3091
-101,-120,117,-6947,6733,6860
13,109,-84,-459,3229,4666
-16,65,23,-1791,1322,1804
-113,85,-56,3258,1955,1125
-97,63,5,95,2761,1070
-103,-78,89,26,1146,273
-2,44,89,370,1018,693
41,5,105,2198,247,1061
9,-7,-84,1356,-269,704
-37,-61,-69,926,-767,149
-56,-55,-59,-113,-981,504
-94,-81,-78,-956,-975,242
-99,-111,-117,-682,-216,-343
-83,-108,111,-353,453,-381
-68,-102,103,-124,558,-329
-62,-86,102,-107,85,-175
-69,-77,96,-162,-134,-215
-63,-68,91,-200,48,-139
-46,51,-113,-10295,3034,-4413
-24,99,-114,-1917,-324,-6344
37,39,71,-591,-251,-7139
124,95,-18,-618,5560,-6747
69,72,99,-86,5039,-4290
-103,63,-84,4307,8559,-3030
-88,101,13,1984,10960,2041
52,-61,98,-7267,8142,12021
103,31,2,1079,-5279,13314
117,-91,-23,-9977,-6726,7750
-107,111,-46,-5907,-6677,-5356
15,93,57,-732,-5598,-7562
-47,-48,-25,-1312,-4306,-7277
-3,-18,62,-2653,155,-7336
94,15,1,505,2483,-6725
89,-86,54,-6144,8545,-3542
14,-18,-72,-5128,12448,2635
78,-117,33,-368,13937,4075
19,73,-113,-2840,6288,11665
-6,112,-63,-16761,-10282,8004
-95,-111,83,2174,1243,-2291
26,100,17,6791,-17216,3572
-62,-3,37,6349,-11147,2707
75,-59,4,-1663,-6777,6072
-29,104,0,415,-3908,3544
72,-94,109,-2368,-1080,1502
-24,-100,99,-403,-954,529
100,75,-63,-1348,1463,-519
12,-64,123,-432,4011,511
113,43,36,-4151,8342,2939
42,-32,-60,-4138,9907,2477
88,-40,-47,-3048,7832,5975
-111,-73,-105,994,6979,5803
67,127,-62,74,813,2521
0,-15,92,-33,377,1336
-84,-119,125,890,-472,1257
124,-125,15,-290,208,1987
-5,112,16,-945,149,292
25,32,0,-731,777,-1380
91,6,12,630,400,-1559
95,1,44,1632,52,-738
88,-24,71,2117,409,-725
112,9,-116,214,718,-424
103,3,122,-597,-377,-452
-103,-29,93,-151,-422,-642
-97,-42,113,563,-274,-957
-114,-59,113,913,-245,-913
-105,-34,-125,111,-158,-711
-89,-22,120,-718,282,-469
-111,-17,103,-946,-79,-345
-56,117,-29,-5593,5202,-1250
-117,-56,23,-1111,2016,-6303
-35,6,105,125,-1013,-6480
117,-19,-62,-597,-931,-7313
101,-122,-67,652,3616,-5819
-20,-123,-23,5127,4814,-4806
5,-92,6,2903,7769,-1906
-93,-14,-91,-350,8451,3584
23,108,-20,-1267,3355,9139
-31,-99,67,-5891,-6277,9122
-108,78,-62,-4017,-7190,-329
0,47,-73,-2956,-6326,-2633
-26,97,63,-4227,-3006,-5373
-87,-66,-62,-1217,1340,-6280
-75,41,79,293,3721,-5703
114,90,70,-1222,6029,-4911
-57,-55,100,-1482,8260,-1102
-45,-95,-20,-1197,9852,747
-43,-116,89,-1142,7464,7442
-18,11,122,-5060,-6841,13380
52,-67,-56,2276,-6259,5422
-113,87,-98,2592,-11579,7174
73,3,67,-4527,-6792,3206
105,46,-33,2510,-8195,1882
118,34,35,529,-4789,376
59,-41,-70,-1237,-1567,1618
-110,-74,-38,-1584,881,138
-37,32,-112,-2119,3550,-100
58,-58,-44,-3102,6217,527
-23,68,0,-6350,8413,2198
-74,-99,-57,-6385,9044,4519
97,45,-94,-3357,4755,4924
-111,29,-120,92,474,4103
111,-2,-81,2346,1266,3794
83,-118,-4,808,772,2048
12,72,-13,-528,-10,1750
-52,30,-23,-1208,11,1547
111,126,-6,523,-543,19
88,75,49,1202,-1241,-902
-115,46,51,837,-426,-1253
-116,41,63,206,53,-724
126,17,83,52,-130,-638
123,-21,92,518,-106,-497
-125,4,97,-263,78,-282
-96,17,84,-824,339,-111
-97,-5,43,-13,352,-232
-97,-17,44,945,-35,-538
-82,5,50,475,7,-445
-85,10,49,31,-65,-196
-83,31,53,-717,-26,-151
39,-128,76,3188,2829,-5808
-72,-49,-18,5311,4552,-7818
-50,102,82,740,7805,-4817
-15,96,-122,-858,7296,5168
-94,-120,115,-2420,72,11413
-32,-87,-73,-8991,-4945,8283
-69,-114,-93,195,-5153,-2079
4,52,102,-1313,-4024,-4028
31,67,-31,-3834,-2831,-6166
64,35,54,-2504,412,-6940
74,-101,-55,-1769,2487,-6239
-38,-68,108,-1962,4234,-3958
-100,-1,81,-454,6724,-2242
-35,-109,89,622,9096,-1221
-118,-122,92,-1105,10159,2547
13,-5,-72,-327,3856,9650
-49,2,63,-4324,-3344,12958
57,63,13,5987,-9189,7705
52,33,47,-830,-7317,4178
-34,2,97,708,-7890,3208
-68,7,-36,1337,-5131,1013
51,-71,-112,-575,-1940,1269
-126,-113,-112,-1371,748,738
86,-53,36,-1778,2352,311
-73,-69,70,-3373,4435,1113
-84,-28,-114,-5866,7251,1774
47,-7,-122,-7199,7567,3842
-5,-54,93,-4637,2634,5266
-77,-108,-40,807,603,2484
-93,-87,-66,1032,1770,2117
17,-96,-6,-840,2605,1265
86,56,-6,-523,1995,1577
-107,125,49,1306,52,1036
-77,77,85,1603,-311,1095
-36,34,72,1200,380,955
-23,-72,92,1153,776,545
-3,-86,116,457,872,838
1,-70,104,-538,925,1015
-57,-43,89,-1637,327,657
-89,-64,75,-1192,-319,-252
-60,-104,74,358,-230,-725
-76,-97,84,1101,-156,-572
-81,-66,102,471,-86,-244
-66,-47,101,-160,56,-102
-60,-62,95,-52,11,-369
-55,-64,92,119,-38,-370
-45,-52,88,-166,51,-483
-40,-55,76,-98,61,-353
-47,-35,71,-351,-20,-230
-44,-34,64,-198,24,-186
-35,-126,88,-9420,5926,-471
-47,-47,-13,-4869,3528,-4017
-27,116,127,4934,-3031,-7399
-26,-99,-12,757,2324,-7919
119,98,-84,2595,4062,-6131
81,-38,-57,4708,6136,-5255
20,98,-76,2766,7546,-2542
-126,89,-83,1311,7883,2834
72,-62,-106,1358,3714,8322
46,35,-58,-5185,-2211,8837
-53,-50,-27,-2262,-6385,3342
111,-91,55,-3153,-7227,419
46,-34,-55,-6644,-6355,-3450
-32,-24,19,-3595,-3375,-6353
47,-35,-91,-3189,546,-5781
-63,62,43,-3260,3215,-5539
112,59,90,-1215,4516,-4224
-128,-128,79,-5535,11069,-65
95,79,-90,1929,10726,1517
33,-128,88,786,10902,7049
-92,10,92,-6748,-452,12337
-98,58,33,6993,-10654,10110
-54,82,-65,-1325,-3868,11664
82,-79,125,-1868,-7644,5194
19,-24,17,-37,-5455,2657
-89,-45,-121,-1859,-1193,862
-3,-72,-16,-919,134,-901
84,-128,43,-3786,4797,-1150
122,18,-35,-6219,5419,924
35,105,-116,-4220,5885,272
-18,51,-116,-5635,5369,3727
-16,-8,109,-1671,3238,4428
-50,127,95,581,1919,3126
-26,-25,94,-2194,4344,3282
75,117,123,-884,2225,2228
-78,-103,-9,-2489,1101,2544
-33,51,23,-810,-296,1750
66,35,5,640,-268,1926
-43,93,31,3433,-596,-19
-70,23,74,3199,-927,-211
-4,4,126,1405,360,141
-4,-15,98,-438,1315,126
-64,-45,84,-729,366,78
-73,-84,121,444,-547,46
-47,86,126,2349,218,-480
-73,105,-95,2344,376,-535
-77,-78,-24,-187,-332,-42
-23,-82,-50,-1812,-588,-459
-18,-128,-117,-1348,13,-524
-26,-110,109,-1115,240,-329
110,-30,95,-5035,3095,-1952
103,-101,71,-1683,17,-3587
-47,49,-46,-340,-2146,-5640
-61,-58,11,-439,1147,-8050
-65,-98,107,40,2692,-6876
-128,50,-16,5071,5275,-6183
-78,88,-14,3077,7300,-5131
123,102,116,-1778,7729,5376
-54,-50,105,-4584,1028,12759
-85,40,8,-4811,-6665,7801
-42,-98,76,-5123,-7454,-536
116,-52,125,-3110,-3948,-5628
-47,126,34,-2999,-1240,-7010
-115,71,51,-2705,2403,-6750
70,36,42,-236,4708,-5069
17,-94,-36,-373,6803,-3817
77,-85,-63,-2003,9641,732
39,94,-28,-1537,10492,5040
113,31,-38,-726,5830,5415
2,-108,-62,-1513,-3554,10639
-32,-13,-122,2072,-11534,5955
36,-49,-92,2448,-9252,7557
-113,-114,-75,-2341,-6990,2342
-3,26,-52,-603,-4333,1444
-34,-19,4,-274,-1450,220
-10,-87,-53,-664,159,-539
117,-96,116,-1248,2063,-1014
-31,-18,103,-3602,4943,-72
80,89,54,-6330,3468,2307
-6,44,49,-6867,4394,3380
-47,72,-84,-3168,3091,3766
104,-71,80,65,3458,2752
109,-104,65,-111,3905,1475
-94,121,-88,-1346,1368,1276
-31,58,-13,-1903,-549,3497
86,104,27,1533,-1175,2719
86,58,87,1403,79,1808
-8,-24,56,559,1003,854
-38,-104,81,670,925,-824
-19,65,99,1525,92,-1054
35,12,126,1437,-312,-1043
49,15,-115,351,46,-387
55,-9,127,-393,186,-452
58,-9,112,-380,232,-151
45,-11,-127,-141,7,309
66,-28,-99,-102,-181,306
25,-37,-98,-130,-345,356
12,-44,-115,-161,-89,189
22,-44,123,-116,306,-22
23,-41,103,107,514,-101
82,-38,-20,-8041,110,-3331
46,114,35,-2814,1097,-6828
95,-125,38,2171,-1001,-6214
-16,113,12,-2220,230,-5344
71,65,-19,257,791,-5253
119,-55,123,3191,2968,-7044
49,31,73,-4234,9877,-499
97,9,-45,2115,7547,5740
105,-101,-68,124,5421,10412
24,28,126,609,-2190,5908
28,-93,0,-1879,-5630,3417
-112,-123,94,-4174,-6648,-408
-38,-86,-41,-4359,-6373,-3605
3,-65,62,-4091,-4136,-5840
-6,91,60,-3742,-1688,-5393
-72,6,57,-2871,1569,-5183
107,-22,102,-4062,6231,-4610
2,103,92,-5951,10034,-2165
-69,29,-48,-3155,13161,-713
69,-68,23,-7603,11141,8120
-117,-61,-103,-3654,602,12984
-97,94,72,-609,-9502,3254
41,107,23,11728,-12396,5955
-71,-113,71,-3907,-8229,10322
79,-24,78,3062,-7919,1058
-3,-45,45,-833,-3688,3071
13,-113,38,875,-1475,-76
-104,5,91,-2008,1827,-360
-96,117,-35,-2960,3922,-883
0,50,-19,-6662,10068,708
-90,56,-118,-7687,13323,2167
-109,41,-39,-4330,3815,2883
56,-73,110,-1433,5218,3520
-84,61,-122,141,273,610
8,86,64,-3417,-547,2718
50,-37,-43,-2516,263,2147
-2,-69,50,-1177,-462,1602
-21,-71,94,160,-957,852
-26,-58,80,382,-239,1351
-90,104,75,845,-384,811
-86,46,109,696,-386,-861
-91,17,-121,146,-705,-1641
-66,-29,109,390,-503,-1383
-75,-8,123,-140,-374,-617
-87,6,113,-927,-64,-362
-89,20,101,-1210,15,-124
-84,20,74,-746,106,-155
-80,45,71,-276,-21,38
-80,48,70,380,81,96
-78,77,65,170,188,-22
56,-106,-112,4873,882,-5357
-39,11,110,317,-2087,-6787
31,44,59,985,863,-6618
37,41,92,8084,4403,-7797
-25,-69,65,1783,7443,-5897
118,90,-23,-983,10543,-2157
-50,-89,27,2750,5893,7091
91,38,62,-6505,-624,9990
64,0,-103,673,-4337,3517
-73,69,98,-4895,-5678,3878
62,-101,-97,-4317,-6145,-483
78,-23,-97,-5208,-4941,-3167
-5,118,-21,-2786,-2108,-5422
84,38,-15,-3784,1306,-5923
27,-32,-110,-649,3879,-7493
-53,-58,112,-3511,9273,-6952
36,-104,-10,-3828,10553,-3708
54,66,-22,4743,8383,5228
50,-56,-52,-3410,-1048,14685
-59,-66,15,2384,-3257,9855
-124,8,-4,816,-4684,3861
112,59,-45,1162,-7532,1920
-6,41,112,-66,-5502,1440
-42,121,-17,-942,-450,855
57,17,16,-2589,3452,-295
-102,-87,-25,-2994,4835,2118
-96,-93,12,-5850,8743,2735
18,59,-13,-4021,7103,4092
-48,26,-90,-2143,1732,3450
25,41,82,317,2162,1076
62,64,30,-2085,2074,1844
104,-9,-51,-1563,682,631
-42,42,44,166,487,504
-42,44,79,-147,54,1318
-49,29,60,-1505,71,1042
-31,-14,28,-624,800,1154
3,125,31,1662,69,-579
-52,-86,97,1838,-125,-885
-15,-32,119,-778,85,-719
31,-78,97,-918,534,-295
29,-109,90,-396,666,158
25,-118,103,154,910,757
45,-127,-128,-576,611,234
43,121,-126,-416,109,-304
57,-114,124,-257,-101,-74
75,-102,105,-235,31,15
63,-91,104,-384,-61,-80
53,-97,97,150,-151,-232
47,-60,90,-131,-198,-310
52,-30,61,-416,230,149
105,-36,-69,-6137,352,-2439
-106,46,102,-5016,2200,-5149
-54,-36,-122,433,140,-6420
-72,28,84,2440,3945,-6918
-127,-57,-24,6971,4936,-7889
-2,-88,-17,955,7130,-6339
87,17,106,-96,8180,1944
-62,84,4,-4421,2675,13594
-3,49,-3,-2323,-2373,9123
-50,82,96,-4247,-6158,2996
-64,36,51,-2445,-7481,-2155
11,33,45,-5266,-5755,-4396
-12,-118,-22,-2871,-1555,-6372
40,14,103,-1869,1633,-6236
40,-43,101,-3967,4673,-4726
76,-33,-6,-6525,8550,-243
-3,106,-67,1488,8456,228
-110,-119,-92,-2883,11148,4261
7,-93,88,-4424,2381,11939
48,113,-68,-7144,-6224,9582
-64,-93,-82,7573,-14581,3806
-64,98,-23,-6200,-7485,4330
-102,-9,-91,-440,-9939,-693
-67,-12,24,-162,-7726,-494
71,-53,42,-772,-4332,1105
108,-16,108,-1857,-1183,625
-21,-76,-105,-1938,619,-135
-116,-49,83,-3139,4014,480
11,-88,116,-3242,5889,336
-73,42,1,-4451,8335,2633
-109,126,15,-6715,7976,5456
65,104,-18,-2423,4075,5778
-86,55,75,-147,1765,4385
-5,53,90,-278,-301,2575
116,117,48,1306,690,1657
-105,58,101,-721,1383,2389
82,82,122,2059,44,1156
78,-5,-96,1855,-179,1143
84,-14,-81,233,165,1154
53,2,-110,-1373,534,1123
-27,-41,119,-1528,1,376
-38,-105,99,-276,-303,-603
-11,115,107,1159,-121,-1133
-7,-103,-128,656,-84,-1034
2,-89,-118,-234,-37,-828
15,-111,118,-107,32,-621
10,-88,108,-387,-168,-181
19,-78,102,-407,-73,-43
14,-66,90,-424,63,0
3,-55,82,-518,21,-71
52,67,-19,-3330,1910,-3607
79,110,-103,-2181,-1296,-7031
-46,24,-95,218,-1483,-7043
-62,24,-108,-229,1346,-6954
54,5,108,2591,4317,-5368
-81,-2,-36,3515,7886,-3433
24,-116,81,-3263,8795,2232
-50,59,108,-693,5284,9999
-41,-6,-119,-4423,-1858,9937
104,-77,22,478,-5463,1016
108,-87,98,-3126,-8033,140
-123,-10,-47,-6548,-6926,-3926
-46,35,-28,-4074,-2677,-6194
94,-1,10,-3469,1297,-5648
72,14,70,-492,3999,-4729
17,-19,97,104,6980,-4215
55,36,-117,-2906,9189,-302
-18,-13,-122,-1806,12160,1952
27,-70,41,2541,8107,7704
54,-58,34,-456,-2595,15473
-81,-10,38,5039,-5905,331
45,-81,84,1567,-7379,6532
-98,-31,66,-818,-5461,3932
95,77,-40,-181,-5366,5498
-26,-70,-41,-108,-1368,2636
59,42,73,-124,690,-50
101,-1,68,-1744,951,1324
117,-113,71,-403,2026,-315
99,3,-99,-5022,5327,1171
-48,-2,0,-5841,6718,1889
-2,-48,109,-5256,6974,1983
-31,-13,-66,-2739,6760,372
-54,-90,-93,995,3556,1553
0,9,17,-491,3663,543
33,-108,-86,-2140,2598,1438
14,-38,47,208,729,1354
85,-51,-67,-2266,1223,2405
110,112,-82,-1616,1032,1129
110,-59,-63,1935,443,1223
50,-57,-13,2427,-966,928
49,28,11,-560,-998,95
53,-19,-36,-1797,-309,-435
41,-46,-79,-1685,-365,321
16,-64,-106,-1582,-882,376
28,-86,117,-1035,-988,-103
16,-66,110,-685,-580,-299
-7,-47,106,-406,-190,-283
-17,-13,104,-444,-64,-249
-18,6,92,-662,-9,-185
-20,12,64,-434,112,-43
-81,17,-62,-6655,3892,-1342
123,2,-115,-1382,1127,-2497
-53,-58,-73,-212,-59,-4368
62,-6,-63,165,1505,-5663
-8,34,-115,743,2097,-5061
-96,-23,112,673,2997,-4308
117,85,61,2730,4597,-3314
95,125,99,2813,6739,-2579
-120,-26,95,-819,8664,2244
94,-20,-119,-2163,5686,7282
-80,120,99,-1827,856,10548
21,-86,87,-3708,-5759,5475
16,-92,-62,-957,-6124,495
57,109,125,-2937,-6201,-2940
-36,-83,-68,-2102,-5056,-6371
59,-106,-55,-1307,-3643,-6629
74,86,-65,-1044,-1620,-6092
-35,-18,-105,-1275,1182,-4777
106,-121,25,-3122,4522,-3597
112,-87,30,-4386,7904,-554
-120,86,23,-4661,9009,2055
-100,45,76,-1963,9298,5110
-27,-84,-61,73,2327,10190
52,116,77,-3473,-5466,11303
113,48,54,12057,-10740,2712
-88,61,-79,-3620,-4408,4414
-80,101,125,-504,-8494,4202
-27,-72,124,-707,-7549,2594
38,2,-9,-1314,-3064,1873
-48,37,-111,-640,-58,-2018
34,-115,-59,-1096,351,-244
-83,75,-71,-485,1220,-291
-87,-66,103,-3015,4424,363
-110,-107,53,-4799,6536,1761
-101,10,69,-5048,9937,3058
127,38,-23,-2926,12687,1214
-60,124,-93,1488,8203,1060
26,112,-15,-2033,577,3464
22,-14,-70,-4179,293,2367
-127,30,68,-1801,1528,1775
-94,-94,-111,1546,25,1262
97,72,9,2613,-1746,79
92,102,40,785,-1828,163
68,104,46,-432,-969,399
53,95,28,-914,-152,-13
98,95,-4,-1129,9,-938
116,69,-6,-676,-871,-1512
126,34,18,395,-1409,-1270
-110,63,26,217,-1110,-642
-116,127,28,-1413,-394,-313
