AccX,AccY,AccZ,GyroX,GyroY,GyroZ
6,-75,-121,-569,4472,-3824
-51,-78,112,-367,5310,-4515
-61,-108,58,-1091,4903,-4527
-116,58,126,-1519,5687,-5004
46,-36,-12,-1957,4681,-3493
51,121,-50,-1793,5282,-3434
-57,99,-78,-1477,4391,-2312
-34,22,-46,-733,4166,-2522
-121,112,-46,-901,3213,-1813
-65,-18,-76,239,1992,-767
96,-72,107,-897,980,55
-114,-121,-123,1378,-357,1166
-120,-66,42,755,-1873,943
74,31,7,320,-3640,1754
95,113,-92,1014,-3336,1850
-116,-68,118,3129,-3237,2484
47,-2,23,-107,-3466,3037
33,45,108,2132,-3416,3639
-34,10,-85,2211,-4590,4759
-82,-64,73,829,-4398,5773
-49,-98,107,2765,-4187,4475
-124,-33,-88,983,-2448,2997
-23,-105,97,1724,-1869,3243
-99,-83,31,1443,-337,2455
-37,38,-117,2892,-457,1163
-121,-119,21,2225,-1016,-62
-114,32,10,491,-823,-1868
-117,-110,-1,1193,-460,-1572
-120,-96,17,998,92,-466
-127,88,18,1388,130,-1038
-97,54,-5,1284,510,-722
-80,98,-15,-145,348,-633
-44,62,-33,-729,27,-761
-49,43,-45,-697,92,-459
-42,51,-64,-817,346,-487
-20,40,-91,-123,320,-343
-18,84,-102,-708,259,-39
-15,87,-126,310,105,-70
-6,113,125,519,56,-254
1,-127,-126,261,29,-252
11,-122,126,7,108,-114
19,-106,114,-160,33,38
7,-94,115,-67,-129,0
35,-87,115,84,55,-108
38,-81,112,168,141,-120
40,-74,104,110,58,-222
52,-73,100,72,62,-357
58,-78,97,63,113,-385
63,-82,92,61,117,-319
69,-85,86,109,100,-201
-52,-7,94,-1460,2328,-5310
41,-53,73,-959,4287,-5276
30,-104,8,-2582,4022,-5389
-43,-104,102,-1962,4664,-5411
0,3,19,-3186,5126,-4461
-52,41,-108,-789,5365,-3931
-63,35,-77,-91,3886,-3301
-7,2,-124,-1899,3829,-3195
120,16,22,-2038,2508,-2009
10,66,-118,376,1539,-969
-50,47,50,1289,177,660
-85,0,-6,1649,-1056,2051
-14,80,92,794,-2903,2778
82,-10,72,1314,-3566,3548
60,-127,-114,-88,-2412,3363
112,38,75,-1398,-4876,4020
31,23,-56,739,-3635,4119
-20,-97,-10,1231,-4044,3244
-123,55,51,-845,-4693,3590
116,127,67,1119,-3434,2431
59,-89,108,704,-3441,3014
64,-74,-108,1254,-1837,2534
-98,-9,-84,-255,-1634,2138
20,77,91,1451,-1293,737
-95,-122,5,-3122,-2411,816
-51,100,-128,225,-618,-6
-23,94,81,2395,1084,-460
-86,-112,-2,956,503,-597
-118,42,15,771,-932,-672
-73,17,31,-3,-207,-114
-22,53,8,-189,577,571
-40,48,-29,-379,698,-527
-48,-11,-62,-289,-152,-513
-26,-13,-71,26,-84,-106
-14,8,-90,-136,154,15
-18,-24,-113,697,80,-113
-4,-8,-115,669,-12,-90
2,20,-113,145,5,-140
5,-22,-118,526,40,-376
24,-8,-119,342,137,-237
34,-7,-117,64,94,-279
41,-3,-116,14,102,-91
52,-4,-123,26,40,-133
56,-10,-128,45,109,-204
63,-12,120,81,120,-135
63,-17,111,223,99,-151
72,-6,107,92,189,-149
79,-11,94,221,83,-214
89,-1,99,19,52,-152
104,-13,112,238,-16,-107
-26,-94,87,46,4756,-3297
14,-124,110,-608,3983,-3813
6,-85,-115,-2426,5607,-4711
-60,91,-70,-926,5057,-3200
65,-89,-1,-2686,5762,-3164
82,-85,-61,-2909,5416,-2380
121,-26,-33,-1584,4915,-2444
-38,-73,81,-276,4313,-1588
-26,-59,-86,1499,3600,-233
-50,-81,77,410,776,1006
-40,-57,27,-1019,-1631,878
111,-33,-121,723,-3605,956
40,-98,91,151,-3961,1567
-31,123,-5,1789,-4244,1510
59,4,34,1120,-5324,2962
-62,-104,-7,309,-4782,1888
-55,96,12,2877,-4659,1973
-99,-75,-5,1341,-5428,4044
-101,-75,55,636,-5498,3654
61,97,126,2649,-4922,3402
-32,-101,-48,2778,-2862,2255
-35,106,-19,2280,-2912,2065
71,121,93,921,-488,2473
-60,73,3,-1357,-37,-265
-67,107,-128,491,579,-1202
-97,-4,32,1496,821,-1047
-121,-13,18,994,419,-868
-119,-46,6,-63,46,-484
-88,-59,-28,-896,386,-75
-78,-75,-52,-547,181,-210
-66,-87,-62,270,27,-237
-62,-70,-66,290,128,-367
-49,-50,-77,-24,211,-124
-40,-44,-90,-143,210,-127
-31,-47,-101,133,63,-100
-19,-36,-100,136,39,-203
-10,-38,-95,-4,33,-240
18,-30,-103,-231,242,-104
12,-41,-119,167,95,-176
13,-30,-117,45,30,-222
34,-26,-122,-133,178,-176
36,-39,-127,259,46,-66
37,-26,-125,256,65,-129
54,-14,126,171,165,-120
59,-18,118,272,63,-145
70,-11,115,163,71,-145
78,-17,112,226,89,-216
78,-16,113,61,83,-192
88,-23,110,50,126,-163
94,-24,103,155,97,-109
-49,-64,82,472,6341,-3186
36,57,-125,-799,5108,-3931
-6,-23,-92,-2183,6409,-3744
62,109,22,-425,5614,-2753
-48,87,-95,-665,6215,-3321
4,-95,119,1911,5809,-4721
-53,22,33,-1273,4050,-2610
81,-87,-105,-4117,1151,-1326
35,22,50,-483,1680,-159
-101,19,-63,3147,-749,2578
-22,-108,115,580,-2223,417
-99,77,1,315,-3897,1124
-79,112,45,-33,-4044,1683
7,83,19,3904,-3740,2539
108,13,61,-291,-5650,2905
-12,64,13,1896,-3513,2542
108,-89,-18,1526,-5176,2745
120,67,60,3,-4782,2888
-5,-75,69,2051,-3317,2575
36,-43,116,1225,-4023,2404
117,86,-62,312,-3802,1360
-90,33,-41,129,-854,-193
-17,-43,-112,1029,-407,1173
-95,-61,11,963,499,652
-81,42,-128,3144,508,214
-99,18,69,1297,-510,505
-110,6,74,-1036,-186,-703
-96,-59,21,-333,417,-159
-67,-41,-32,9,227,570
-54,-47,-60,520,-119,231
-57,-67,-65,373,-220,-454
-41,-88,-68,44,69,-594
-15,-99,-77,14,336,-335
-9,-108,-89,237,157,-244
-10,-104,-82,92,45,-286
1,-110,-81,326,155,-57
11,-94,-93,669,35,-85
17,-63,-93,292,61,-131
34,-66,-109,196,165,-187
32,-71,-121,262,98,-140
39,-65,-118,72,104,-171
53,-63,-120,-41,113,-138
63,-63,-122,-65,133,-177
68,-71,-124,99,129,-199
75,-67,126,91,80,-130
68,-53,-126,-79,0,-31
96,-50,116,146,158,-115
97,-39,107,89,122,-178
98,-36,109,-64,96,-199
104,-43,109,-34,142,-206
10,-97,69,-1364,4143,-3427
-98,103,89,385,5449,-4151
-48,-91,125,-2507,5590,-3899
-105,-18,-76,-942,5946,-3459
54,-72,73,-1670,5604,-2501
-95,122,-5,-1128,5403,-2201
52,102,-34,-572,4262,-1768
-109,14,-50,165,4285,-1612
90,98,100,1362,3469,-1919
27,3,123,-800,2688,-1033
-84,96,-92,-736,75,1095
-35,86,79,763,-2279,1494
-109,-7,-9,685,-3538,1198
112,93,-54,-158,-4094,1885
-44,127,73,667,-4614,1616
-61,-74,17,1156,-5904,3150
103,85,-74,-1492,-5604,1939
49,4,-19,1545,-6095,2188
84,33,56,2356,-5985,3601
-69,-94,97,1538,-5273,2749
92,-50,-85,565,-2719,1935
-24,-111,-15,-665,-2257,1192
-123,2,-14,1268,229,1616
-56,-15,125,364,-854,701
-111,-45,-53,-956,-1037,-75
-92,67,116,825,-603,-1266
-70,37,57,139,792,-692
-89,37,15,-226,821,37
-113,22,-1,-10,-149,82
-61,48,-43,-305,-10,-92
-68,36,-47,-685,67,-643
-52,-13,-41,-30,-131,-372
-38,3,-39,16,119,31
-26,31,-26,198,-30,-41
-12,47,-58,117,92,-127
-10,61,-73,-403,168,-183
-7,47,-86,-124,107,-174
4,25,-89,172,93,-84
13,46,-80,-87,76,-94
27,28,-88,320,219,-220
37,45,-93,126,92,-131
38,41,-104,113,89,-137
54,39,-104,178,177,-204
62,29,-110,219,82,-123
71,26,-117,248,132,-150
74,21,-122,234,102,-163
80,21,-121,279,82,-170
99,21,-126,178,160,-149
96,19,-122,176,107,-157
108,12,-127,177,164,-209
-15,62,78,1214,4039,-3130
70,-96,59,-764,6384,-2947
54,7,81,328,7602,-3465
-123,-45,-54,-216,6714,-3403
-19,-73,-92,-1387,5581,-2588
50,-81,-113,-1405,6087,-1446
64,-102,-124,-1215,5372,-902
54,110,-128,267,5417,-1806
84,-99,-22,-3275,2844,-722
89,-39,-110,798,3501,-228
45,10,-78,316,-1473,1440
-70,-120,53,-73,-1567,-987
-114,56,52,1469,-4572,72
-26,91,57,644,-4290,100
43,78,66,631,-5741,1754
15,28,5,-2376,-7629,2129
45,-105,85,-976,-7253,-141
76,-51,-56,4142,-6901,1269
-27,-78,67,1162,-6295,1861
-116,99,-104,1880,-4053,1091
-67,-114,-37,774,-2251,1422
-17,-127,6,991,-1319,257
105,-50,-7,-1517,767,346
-36,-85,99,-1432,647,-656
-90,107,103,-666,78,-1323
-27,36,7,-119,1139,-720
-73,-67,-38,1322,442,-133
-111,-37,-18,902,-667,276
-71,-60,-7,1451,-881,91
7,-52,-2,1209,54,-48
-9,-4,-6,85,118,-345
-22,-43,-45,451,28,-493
-5,-62,-70,576,273,-159
-5,-52,-91,440,243,-163
1,-67,-82,376,-175,-315
10,-79,-62,34,-169,-177
24,-126,-71,1045,-91,-236
38,-104,-83,994,64,-298
44,-99,-95,902,150,-224
49,-101,-107,679,211,-247
48,-126,-112,790,141,-320
60,124,-109,560,65,-209
72,-124,-115,335,113,-56
81,124,-123,438,116,-148
79,-125,-118,213,145,-169
84,124,125,274,264,-238
102,115,110,382,118,-252
103,120,119,164,-7,-75
108,120,125,282,112,-105
111,-123,-128,256,66,-142
27,71,91,1777,2931,-3512
-77,-26,75,-1327,5561,-3605
-78,0,92,-1017,6209,-4084
41,-123,-110,-2930,6183,-4492
-103,-93,-118,-1231,5976,-4260
0,123,30,-2473,4924,-3101
-70,-51,-52,-902,4237,-2342
-40,-81,-34,-1122,4030,-2299
-26,2,-106,-186,3521,-1581
118,-68,70,-1950,1647,-1246
59,127,-51,258,2068,-1004
77,3,-41,727,-425,1359
-73,107,125,776,-1846,1350
99,-118,-5,869,-2869,1790
-104,40,-36,787,-3790,2963
-118,83,-35,1943,-3891,2821
-26,-78,70,1347,-5201,4185
-22,83,5,-1800,-7138,3679
-66,-2,41,2040,-6715,3734
63,-125,1,1211,-6774,3318
-81,-104,-97,821,-4869,3395
-52,95,9,2378,-2979,2242
-89,-97,37,1809,-926,1992
15,83,-34,339,-1293,627
-43,-1,10,384,271,473
-112,-113,122,444,101,-361
-93,52,63,-19,783,-938
-91,-11,27,166,604,-795
-109,-51,-8,96,-127,-672
-88,-41,-22,-348,-173,-517
-74,-25,-49,-1155,-28,-456
-72,-31,-75,-544,408,-23
-66,-28,-87,295,266,28
-66,-2,-94,123,-102,-218
-42,-4,-81,72,70,-45
-26,-6,-52,360,191,22
-11,13,-52,109,148,-86
-7,18,-67,-27,75,-212
-4,9,-108,166,99,-200
5,23,-120,-155,82,-180
18,23,-121,-204,99,-214
31,4,-102,-54,71,-169
42,10,-98,20,108,-132
50,17,-111,125,64,-172
47,24,-125,71,-21,-126
60,17,117,95,127,-181
69,15,113,108,180,-145
71,15,117,91,93,-178
80,9,122,240,82,-156
91,16,117,256,108,-135
-10,-107,63,124,4718,-3891
46,-95,78,212,6512,-4018
85,-67,124,-650,6278,-5080
-24,-110,62,-2498,5267,-3469
52,79,-17,-2447,5491,-1694
51,11,-95,-1616,4852,-1104
106,-76,-109,1413,4875,-1792
33,-45,124,1510,4070,-3250
-127,95,-28,1165,2807,-1748
-55,105,-46,1198,1599,-864
49,-42,24,-534,-1540,1529
-3,-12,-28,131,-2890,2361
94,-86,-103,861,-3165,2532
95,77,-91,435,-3511,2801
-80,-108,121,895,-4566,3010
-84,-123,58,-1419,-6860,3175
74,-71,114,3229,-5163,2898
-2,120,-23,590,-6518,3333
-9,-116,101,-1308,-6640,3721
105,-46,-49,2615,-3835,3144
-43,-15,34,33,-2839,1839
-70,44,49,1713,-796,-12
-87,34,-89,-534,-872,1269
-121,0,115,2218,-451,-486
-88,-25,38,1209,805,-2363
-116,-47,-33,486,1279,-2094
-73,-98,-71,634,1535,-977
-68,105,-88,1083,967,-685
-32,82,-72,1059,571,516
-72,-120,-43,123,-490,706
-54,108,-37,425,-838,-508
-23,104,-47,898,-381,-693
-1,-112,-61,359,415,-91
-24,-105,-86,87,385,-275
-20,-112,-104,-41,128,-376
6,-123,-115,257,66,-238
6,-120,-104,160,9,-270
23,-122,-97,-146,188,-128
40,-112,-110,-157,202,-75
41,-117,-124,383,20,-158
49,-97,-119,219,132,-134
54,-93,-126,224,167,-149
57,-76,126,33,56,-94
66,-78,121,16,154,-216
72,-68,114,-223,181,-192
88,-85,101,151,95,-241
88,-76,108,116,61,-288
104,-60,117,-299,160,-154
109,-55,109,-156,128,-77
111,-48,101,191,92,-214
53,-45,68,-386,5242,-3716
107,-111,85,745,6137,-3519
39,-43,123,-1976,5982,-3710
107,123,32,-1729,5538,-2862
-11,90,-58,-2581,5335,-1711
30,67,-94,-2055,5378,-1261
-42,-88,-121,1282,4894,-1306
124,-104,-106,1311,3401,-941
-79,-13,62,-1557,2723,-665
33,18,80,588,2256,-592
121,5,71,933,-120,-224
-66,34,-55,-821,-3230,497
-28,67,-101,342,-3595,688
-93,-74,-5,584,-4489,1092
126,-125,-42,2146,-4604,954
54,54,29,2902,-5758,4848
98,63,-39,-1603,-6769,4277
53,108,121,970,-7066,4230
37,-15,-127,-1205,-6635,3735
-119,-13,-68,464,-5307,1652
27,-3,20,364,-3449,913
95,-81,80,3113,-1544,761
9,-88,41,-1035,619,-191
82,-90,7,592,-513,-204
-80,113,81,149,109,-1060
-75,35,-35,-838,326,-663
94,-75,-119,280,134,-559
120,-30,-66,571,607,-187
-93,48,-71,-1961,417,167
-96,25,-80,-992,335,-199
-73,4,-72,251,318,-378
-63,23,-55,331,76,-367
-34,20,-42,20,333,-4
-29,25,-48,47,110,-6
-20,39,-74,160,54,-177
-14,53,-88,336,52,-148
-7,81,-98,-5,160,-221
0,67,-105,16,166,-291
10,36,-112,213,145,-282
30,24,-108,22,116,-61
36,20,-117,331,44,-121
37,28,-118,338,16,-197
48,30,125,265,174,-251
57,32,121,307,170,-204
67,25,117,458,278,-412
71,40,-128,-47,148,-179
78,15,125,129,16,-98
95,16,116,100,157,-100
92,26,106,99,91,-179
105,17,100,198,152,-161
62,-93,82,-513,5124,-2411
-102,7,65,1587,5483,-4360
-121,8,97,597,6175,-4587
96,11,-117,-1414,5996,-3958
32,-38,24,-3457,5629,-1324
46,-114,99,-2223,5988,-375
76,-106,98,147,5308,35
6,-122,106,2081,4360,-916
87,-19,-77,728,2275,-986
-86,-94,-76,-14,2894,-1521
-64,28,-24,17,1814,-1085
69,-12,-120,-72,-636,1151
-87,23,-114,-477,-3439,69
-1,-4,116,374,-4349,611
0,4,-31,-353,-4897,1182
82,-71,125,1504,-5993,1749
37,67,-78,37,-7689,2672
3,-98,82,2921,-6532,2212
-27,-61,64,-2038,-7113,4473
-57,87,-73,946,-4538,1736
110,-90,-46,305,-3768,1064
-128,90,5,1362,-1777,1194
-67,-74,12,1464,-1134,967
53,2,115,-394,-267,233
-98,-63,-97,-1071,205,-525
-100,-14,38,2145,164,-1496
-55,-8,13,649,825,-790
-80,-95,-53,1054,614,-445
-53,-82,-43,-501,544,-232
-29,-106,-89,-420,623,-501
-40,-127,-89,498,162,-597
-20,-86,-82,-83,247,-254
-7,-65,-97,120,3,-71
-6,-65,-105,588,-367,-206
12,-39,-103,216,96,-57
19,-35,-107,-83,276,-96
21,-50,-116,264,117,-199
32,-42,-112,260,-39,-212
36,-73,-119,288,220,-651
59,-86,-113,172,302,-158
66,-69,115,528,256,-191
79,-52,113,719,-171,-197
71,-37,-114,88,-59,-4
59,-29,-123,-221,221,-141
122,-41,113,149,55,-173
114,-62,119,470,53,-351
79,-69,-126,-265,212,-331
92,-73,108,-200,243,103
-128,-58,82,383,-99,81
122,-15,116,41,-233,116
-31,123,66,218,3969,-4793
85,-2,61,955,5286,-5708
74,12,-77,-1635,5398,-5793
61,70,14,492,5325,-4633
-123,124,56,-899,5212,-3908
-32,-122,-8,-1459,5450,-3378
-45,-123,-14,-1028,4914,-2746
-28,-114,16,-897,3736,-2129
-54,81,57,-372,3745,-2009
-27,-25,-108,-659,2492,219
22,-41,16,884,-698,545
121,28,26,-1467,-3122,718
-124,-102,-23,-202,-3881,1377
-27,-38,-57,-501,-4787,2627
36,31,-12,-298,-4355,2063
-77,116,-71,-1353,-6907,2488
116,-83,-122,1744,-6131,2806
-61,79,40,-1792,-6147,3771
108,-113,90,551,-6610,3881
-28,-120,-99,-1118,-5204,3322
82,-120,-10,2433,-3551,2456
-63,-102,10,-352,-1087,497
-37,11,-2,137,1105,-256
-50,116,-37,1707,-175,-1572
-12,7,60,1759,459,-1282
0,-41,-18,459,1118,-1097
-13,-46,-54,-587,951,-459
-14,-64,-76,156,350,-235
22,-74,-80,715,74,-113
34,-52,-40,61,182,-222
39,-56,-8,-51,-182,29
40,-51,0,-21,357,-126
68,-10,-9,-522,613,-162
106,43,-42,-1348,527,-114
92,-21,-37,431,11,-39
93,16,-24,183,17,-345
103,53,-55,-1064,294,-647
119,19,-77,-775,464,-429
120,5,-64,-143,12,-221
111,33,-52,-416,77,-300
122,21,-58,366,-1,-653
-86,-42,-85,2016,309,-218
-96,-19,-84,1954,272,-574
-96,6,-47,767,-233,-216
-79,24,-7,-1010,420,-133
-86,3,-24,-679,221,115
-82,-18,-46,527,110,315
-74,-1,-43,192,337,-69
-91,22,-40,-397,9,-216
-55,9,-52,-252,91,-149
103,118,55,-338,4691,-3517
61,-21,61,858,5948,-4351
73,12,92,-1306,6780,-4118
-34,-19,48,-764,4978,-3041
122,-124,-43,-3195,6649,-2836
-35,-47,-122,111,5426,-1486
-8,-49,86,-487,5607,-1490
65,-85,51,604,4205,-1075
-105,-103,100,1427,3317,-1638
-27,19,105,96,1537,-238
-69,63,31,-1488,155,96
108,0,-126,628,-1059,-94
-89,27,-84,394,-3157,-210
-79,57,122,-1217,-4946,1577
38,115,-99,-823,-5199,1019
-48,48,89,345,-6415,651
-14,34,-7,2210,-5727,1170
-92,95,-60,1663,-8117,1639
-110,107,-126,804,-7206,2813
-58,-111,-97,1635,-5723,2334
96,-6,3,-75,-3175,1684
-40,98,41,3597,-2088,1559
-8,87,29,2131,294,94
-52,22,-78,2529,-1310,-1748
-104,-79,-128,595,-401,-1650
-94,0,20,285,326,-440
-92,-116,-35,29,1495,-1357
-124,92,-72,118,1258,-868
-101,88,-40,1230,-444,319
-61,111,5,1055,-662,742
-32,-65,31,-316,37,513
-50,-63,7,-574,238,247
-35,-67,-26,-104,180,122
-29,-77,-42,540,335,-150
-35,-57,-61,227,-23,-373
-2,-56,-66,-66,89,-153
-19,-82,-76,509,90,-231
5,-79,-81,632,159,-134
6,-47,-71,-232,23,-139
28,-63,-83,-418,161,-234
46,-56,-96,-370,62,-147
57,-59,-99,128,105,-171
62,-62,-107,512,107,-375
55,-43,-99,-107,-36,-305
74,-44,-109,-174,156,-247
65,-51,-120,193,-56,-244
75,-40,-121,54,66,-260
91,-30,-115,-81,194,-155
95,-42,124,351,2,-222
108,-24,121,62,72,-228
-4,-115,72,-120,4562,-4328
21,-100,103,-1331,4880,-3691
-107,109,-120,-1340,5152,-4224
127,-90,48,-3736,4809,-2916
17,-86,-124,-1205,5901,-2718
-38,115,-6,-121,4723,-2336
-108,-55,11,583,4445,-2615
-99,-55,-53,1492,1723,-1441
-8,-105,109,-786,1838,-840
-21,-105,95,-842,-936,1765
-34,121,13,705,-2783,1260
-22,-99,-127,495,-3799,2007
115,91,100,-269,-5290,3657
-6,-3,76,2627,-5419,2837
88,84,-9,-2951,-9464,4362
-17,-35,113,3769,-6902,2141
93,-13,-16,799,-6027,4740
126,79,-15,2910,-3806,3219
94,100,-15,-982,-1460,1682
26,77,-2,2222,-771,-1111
86,70,-90,735,947,-439
-61,100,-110,2038,1278,-823
-101,98,-21,-1550,810,-131
-41,-11,-97,-771,467,-734
-1,80,111,2424,-161,-1447
-18,63,-110,3593,-425,-724
-19,122,-49,1213,118,218
-34,-123,-10,-676,222,382
-12,91,-53,186,-50,330
6,95,-62,909,-325,328
12,115,-76,1080,-365,138
16,-128,-88,722,106,53
1,112,-108,739,242,-198
14,105,-123,502,138,-295
18,114,-119,-25,-43,-170
32,120,-124,-594,158,-273
35,109,118,-308,116,-361
52,106,108,1,71,-503
60,123,115,-223,-23,-412
56,-118,120,-413,70,-209
63,-112,107,-251,183,-152
70,-108,96,79,106,-92
82,-103,89,440,19,-108
88,-92,93,613,26,-123
91,-89,96,478,46,-120
99,-75,102,88,113,-21
108,-73,90,40,214,-124
107,-75,83,-23,96,-239
113,-22,87,-1232,184,-87
123,-19,79,-1219,211,-40
3,13,84,-541,4904,-4401
27,0,104,-1837,6759,-4639
35,90,-83,-1860,5928,-3214
63,-29,57,-1936,5647,-2028
-99,-52,107,-1622,6226,-2069
-95,-54,-109,-980,5289,-2029
-73,63,68,1258,5315,-2459
-15,19,-32,-2141,2805,-1226
36,91,88,2372,1509,184
-104,-38,87,-1251,-2044,1160
-95,-93,-6,-952,-4004,1108
-113,-75,105,24,-4750,2187
9,69,23,1882,-5567,2905
115,-78,110,1244,-6173,2820
-100,107,101,-3281,-8600,2929
-38,14,-128,1722,-6900,3048
47,-50,-127,-372,-7446,2771
-70,-127,-80,2210,-5900,3431
57,-47,7,1606,-2090,973
70,-95,-6,3400,-537,-1167
22,99,-32,919,288,-992
-114,121,-86,1106,-62,-1098
-58,45,58,-930,217,-936
-36,-53,-58,-157,546,-736
-35,125,-100,2310,255,-972
-44,96,-116,3019,372,-713
-59,112,-98,1810,204,-295
-60,-120,-61,-325,-177,-125
-28,118,-53,-808,-415,179
-19,114,-60,-458,-405,149
-17,118,-66,156,-263,178
-11,-125,-80,879,147,385
-18,-114,-93,1005,227,264
-8,-94,-115,570,286,75
17,-88,117,-65,370,-154
22,-97,101,-250,222,-354
35,-115,93,-37,84,-493
35,-127,92,447,15,-574
36,-127,101,394,-26,-623
55,-123,110,-15,87,-532
64,127,108,-93,93,-333
62,-124,115,-59,-4,-48
71,-122,115,366,68,12
88,-123,105,885,207,-107
89,-114,103,894,114,-27
100,-106,101,368,221,100
105,-103,93,68,256,144
103,-102,79,77,185,91
104,-99,76,155,116,-43
114,-94,76,148,149,-167
2,57,122,985,5337,-4637
29,48,79,-919,5398,-5033
37,123,38,-1066,5714,-4723
-104,2,-88,-1279,5000,-4078
47,107,-80,-3330,5448,-1651
56,-56,-121,-334,5883,-2027
-18,52,-125,-848,4595,-573
18,-30,29,898,4054,-2205
45,123,87,-3020,3000,-1422
122,-26,2,465,4345,-961
-26,110,-128,1957,-1110,2103
-118,-23,96,-1717,-4031,1755
-17,123,99,1062,-5423,927
-115,-84,107,-1255,-4900,1554
16,121,-128,-717,-7462,2274
75,-49,-98,-3559,-8475,1323
111,125,119,1429,-7892,77
94,-17,-26,894,-7207,1910
-56,97,2,20,-5110,1311
113,-76,55,-103,-1926,449
-58,87,44,3170,-543,-350
16,57,-7,-982,148,-595
-48,126,-9,1115,-652,48
-102,-78,18,-427,-1044,-308
-73,39,-80,948,359,-439
-97,-17,-112,2978,758,-1821
-89,-4,-121,2386,141,-518
-67,22,-37,337,-377,-283
-42,-57,-50,1160,-238,-1098
-17,-71,-58,1304,251,-529
-18,-32,-70,302,627,142
-22,-49,-89,185,299,35
-20,-66,-117,527,-80,-170
-6,-55,-121,468,-53,-206
11,-65,124,251,155,-533
13,-67,124,-123,72,-511
19,-76,116,-110,25,-416
27,-76,118,-103,114,-333
29,-72,117,-130,61,-204
45,-65,110,-168,134,-164
61,-55,101,-65,166,-83
61,-50,98,108,126,-183
81,-45,102,325,530,-476
104,-35,98,154,440,-220
93,-31,101,185,-42,-66
101,-34,100,212,-83,-89
113,-30,100,70,104,-80
112,-25,97,9,71,-32
113,-30,91,176,5,-17
124,-27,93,162,160,-151
-76,-120,74,-1329,5142,-3020
-63,72,82,2111,5312,-3372
38,-10,-127,-1578,6036,-4748
12,-84,-101,-1724,6040,-3271
87,91,42,-1378,5797,-2489
118,44,-103,-578,5365,-1279
93,-30,-101,787,4221,-1545
-119,-50,114,836,4410,-2339
-67,45,30,417,2589,-1045
-52,90,92,492,3037,233
127,-14,-48,-464,-1668,1962
112,88,-88,-906,-1977,735
-1,69,-5,-1067,-4615,1450
-127,53,-59,-868,-5430,1693
-16,42,-97,-105,-5950,1456
-128,-125,-74,-2853,-7959,1156
-21,-119,-89,1990,-6795,1744
-62,-110,54,-893,-8153,2887
-52,-122,-85,-422,-4900,2105
25,-52,-12,602,-3381,628
-100,-80,14,957,-850,928
108,-28,10,998,-344,169
18,-81,115,1916,567,-313
-96,11,74,-2196,463,-1095
-33,38,-35,1143,1327,-1350
-58,-44,-125,2677,151,-1686
-14,-41,-113,1921,347,-543
-44,-64,-86,908,-369,31
-24,-47,-54,-213,-447,408
-10,-62,-66,272,-487,404
-20,-55,-80,450,-274,154
-17,-27,-59,-167,-156,33
-3,-38,-66,-101,21,-47
8,-42,-87,385,113,-220
8,-30,-105,432,60,-327
8,-9,-108,-230,71,-323
23,-12,-121,-615,178,-249
32,-24,-128,-202,86,-332
43,-47,-128,433,10,-404
62,-29,-122,179,175,-167
59,-2,-127,-505,150,-208
69,-14,124,-278,133,-227
74,-30,118,302,174,-306
82,-16,115,241,142,-83
86,-9,110,248,105,-16
94,-3,104,290,151,-57
103,10,101,84,148,-118
100,15,106,-180,-51,-80
127,48,116,-879,113,-66
-128,30,106,-246,142,-62
126,-98,75,222,4534,-3300
-7,57,85,1020,6279,-3830
105,-111,-107,-771,6235,-3609
83,-84,-31,-1427,6481,-3536
124,59,-61,-435,5596,-2901
7,105,-18,-1204,5209,-2059
15,-2,-127,2355,4823,-2976
-37,86,-66,-224,3912,-2983
74,-124,94,-694,3245,-2586
25,73,96,1444,1982,-1651
84,-87,58,745,422,362
-89,-47,-47,737,-3576,2346
27,-77,-70,-1436,-4628,2650
-51,-71,-45,983,-5724,3017
77,-110,12,210,-5584,3656
116,83,67,-3857,-7421,2693
-35,48,87,172,-8529,1221
-80,-26,90,-197,-7578,1628
-8,-95,-106,970,-6032,1562
50,-104,-9,1363,-4821,832
60,109,38,3652,-1896,1141
80,51,28,1151,-998,-425
12,-59,32,1429,1097,-902
-101,110,109,1274,654,-1438
-79,28,-27,490,475,-1397
-53,-26,-47,388,763,-1120
-66,-109,-85,1423,138,-951
-65,-124,-95,1419,33,-54
-87,-105,-71,513,-451,277
-63,-82,-46,-433,-619,483
-35,-79,-56,-481,-381,507
-25,-84,-83,-45,112,11
-35,-70,-86,60,188,-372
-33,-73,-91,139,159,-340
-21,-85,-104,527,83,-201
-13,-83,-118,616,124,-107
0,-69,-124,244,177,-124
8,-59,118,-51,151,-133
18,-71,111,144,151,-266
23,-80,107,255,31,-375
45,-81,108,147,66,-273
35,-75,123,-46,-42,-108
51,-75,121,108,139,-96
57,-72,113,279,148,-81
65,-57,105,101,131,-44
77,-51,94,60,158,16
77,-48,92,-7,212,-185
85,-52,86,135,96,-233
91,-50,84,46,61,-165
99,-52,81,102,80,-170
121,48,85,1059,4529,-3600
69,71,98,373,5891,-5752
99,21,55,-733,5335,-4536
118,-64,-100,-1838,5393,-4170
-10,-126,51,-1472,5058,-3185
-53,74,53,-1933,5135,-2579
-91,-53,32,1488,4895,-3176
-41,-103,-44,-698,2459,-1673
9,-123,117,158,2478,-1035
53,12,-64,274,20,1153
110,35,2,336,-1917,1720
94,97,33,-28,-3098,2197
-37,18,63,-2311,-4202,4252
-86,-58,47,536,-4771,1305
89,-80,-74,536,-5927,2742
77,25,7,-4023,-6307,2470
-40,3,123,1496,-8104,1065
123,-11,79,1159,-7277,4383
-51,35,-106,4063,-7206,2200
80,86,-15,2073,-672,2020
119,-98,-15,3072,-2282,697
-96,115,-30,2705,-168,1340
103,30,-67,623,-295,12
119,114,51,268,322,-998
-96,-3,-72,156,1092,-1572
-46,-108,-93,1305,466,-1619
-35,100,-88,1939,57,-1169
-48,90,-62,896,335,-744
-46,108,-62,-166,-55,-397
-36,107,-69,-755,-311,153
-9,125,-74,-675,-113,501
-22,115,-90,242,-163,216
-13,-116,-90,639,-33,149
0,-78,-96,7,192,325
-10,-63,-122,-213,-58,50
13,-69,-125,-309,68,-299
22,-68,126,-397,272,-317
24,-96,107,352,151,-368
32,-80,108,177,59,-207
45,-67,106,-106,91,-186
48,-73,109,52,78,-196
60,-64,107,104,129,-100
62,-71,104,391,88,-127
66,-47,102,34,87,-15
71,-59,92,452,75,-149
80,-67,86,704,-16,-434
99,-29,86,-233,291,95
86,-59,72,144,21,-226
97,-64,74,270,-47,-169
108,-48,82,-82,97,-163
-2,77,100,-1037,6245,-4679
-124,78,-114,-2134,8067,-3799
51,-115,7,-172,6910,-3492
28,114,83,-1358,5929,-3384
-79,-10,114,-901,5179,-3208
-4,-57,75,-854,4985,-2162
-37,107,-59,-1059,3712,-1080
-21,-126,-110,-3123,2580,-157
25,-21,96,109,4237,203
-115,18,68,851,308,1470
121,21,71,-430,-2105,-268
110,-44,-36,1422,-3787,-517
99,-2,64,901,-5609,506
15,64,75,1749,-4835,492
19,-128,50,2575,-6077,1527
2,17,103,796,-7464,862
73,-105,-119,1010,-5955,1432
110,-86,85,-566,-7908,2422
-3,17,-80,22,-5668,1704
94,33,2,875,-4432,25
-125,124,74,-1218,-1748,944
-83,76,65,3351,-925,-562
-37,73,34,-766,1102,745
-80,-102,17,1343,1210,-240
-114,-89,66,1080,-104,-862
-116,27,-11,2545,-876,-1169
-124,19,-48,1662,50,-334
93,-18,0,856,-681,-404
-87,-1,101,-510,-1314,-411
-29,27,46,-149,-347,1061
-25,68,21,484,524,1435
-61,75,-17,768,506,571
-68,64,-41,575,-46,-49
-55,5,-59,1193,-149,-577
-40,-15,-62,1140,-97,-752
-15,-39,-73,589,150,-689
-5,-65,-89,448,220,-389
-23,-43,-84,-266,-325,344
4,-31,-80,-516,-324,308
13,-45,-93,174,-50,29
22,-23,-93,-22,41,-245
23,-28,-99,30,36,-142
25,-14,-96,-211,27,-78
38,-20,-112,-10,160,-212
46,-26,-121,107,154,-224
52,-15,-124,-155,125,-147
62,-35,124,195,150,-188
64,-40,118,621,147,-234
71,-32,110,601,83,-259
85,-45,106,760,134,-328
-116,42,-80,-6196,1776,910
-4,88,-40,-4011,4131,-213
22,34,-51,3948,3952,-2534
-18,82,-104,336,6697,-3509
84,70,-56,-252,7673,-3351
112,35,4,-386,6996,-3253
-32,65,71,-1873,6739,-2854
-92,9,105,-1883,5158,-1403
-52,-45,-8,-1522,5477,-1206
104,126,-80,-537,3489,-307
-10,108,94,-1617,3236,-885
-81,-25,2,-1151,2683,-836
-99,28,120,1082,1421,-55
70,58,-53,1854,-2097,570
-21,-88,91,1102,-3965,435
113,-28,-95,1930,-5825,1401
-28,-122,-26,3374,-4556,838
118,-96,-88,-135,-7099,1499
39,118,38,1163,-6757,1464
47,17,-87,1488,-8664,3193
52,8,-120,219,-7732,3519
-82,-26,-45,976,-5365,2080
-101,7,58,645,-5221,1161
-87,76,-128,449,-1323,1335
92,59,127,6570,711,-1281
113,46,92,2713,183,-1083
102,-84,26,697,-703,-1499
-95,-15,-33,849,-480,-1823
-48,-118,-21,1902,370,-1738
-95,125,-5,1872,468,-302
104,-79,10,770,508,871
-95,-97,-48,1008,474,564
-62,-105,-77,1156,126,116
-79,-97,-47,710,-377,-236
-53,-126,-57,183,316,-734
-37,84,-81,197,565,-610
-70,116,-81,-114,12,521
-71,111,-98,724,-195,345
-17,-101,-107,-566,289,-401
8,-123,-121,-359,222,-411
-15,122,-120,147,56,-305
-10,115,121,332,202,-668
13,118,125,104,83,-388
26,-111,122,-371,2,26
26,-102,120,-595,35,-251
61,-105,110,-290,128,-200
44,-103,116,237,-47,-166
46,-95,112,339,181,-260
58,-87,92,279,313,-176
61,-89,76,268,144,-52
34,46,-97,-2017,4514,-2017
1,-72,-100,-1240,5182,-2177
115,-91,-70,-899,6443,-2643
45,-34,-33,-1340,6114,-1921
122,-67,-81,-1819,6659,-1862
99,-41,24,-1479,5275,-558
-19,-63,-16,-1515,5196,-13
84,37,-110,957,4556,-225
-45,75,-7,-1388,3633,-372
-4,19,-126,-3349,1941,-201
83,125,-113,-1601,-1484,-177
-21,-121,-91,1220,-2155,-787
102,-98,42,9,-4669,135
10,-119,-84,1574,-5094,-158
8,-29,-51,1434,-6282,521
41,68,54,-757,-8166,941
-73,118,7,2296,-8145,840
-14,-33,97,1023,-6824,2204
-9,118,121,1716,-5529,1913
49,98,-51,577,-3517,1467
35,33,-16,3077,-2342,472
-95,-84,-2,2292,-1593,743
13,-19,-102,591,-679,492
-88,102,-75,2459,-240,-582
-107,97,1,-154,696,-1195
-92,-90,-76,1767,415,-2565
-80,98,-76,2478,-98,-2092
-59,-128,-4,539,-258,-355
-85,-90,3,-1131,-247,1432
-113,124,-9,558,-909,1091
-62,-101,-9,570,-422,482
-53,-102,-40,1249,81,-233
-82,-87,-30,647,104,-919
-65,-97,-32,-431,331,-785
-39,124,-73,-381,567,-543
-21,110,-112,-21,415,-211
1,-110,-121,-231,218,124
5,-82,-127,-412,-44,163
-6,-64,-110,-878,-85,120
18,-29,124,-1273,567,-21
20,-78,107,371,154,-494
23,-62,125,595,-206,-347
49,-30,-121,-185,147,-98
59,-49,122,340,179,-118
84,-60,100,905,181,-111
83,-51,112,568,397,308
28,-40,-113,203,-353,286
72,-53,117,490,-177,40
88,-37,108,131,189,-145
94,-33,92,-220,278,-334
113,-102,94,-462,4525,-4012
118,-72,-119,605,5363,-4975
-79,-11,-82,233,4858,-5371
-87,-50,-21,-1119,4948,-5111
-76,34,-74,-2733,4791,-3047
13,85,-104,-1072,4308,-2077
-112,-44,16,-379,3899,-2057
-88,-15,-44,-1038,3527,-2882
-118,-27,82,-1164,3195,-680
-53,101,8,2280,-416,211
7,2,-70,-966,-1853,566
-102,-94,72,228,-4558,1717
-80,62,-92,-432,-4906,2405
-19,125,-4,511,-5504,2611
96,11,26,579,-6675,2863
4,103,-63,295,-7009,2200
-98,66,61,1605,-6889,3181
123,107,89,405,-7698,3148
74,-15,-91,3794,-5565,3192
109,-1,-5,2549,-1968,1630
83,-50,-39,638,-514,754
15,127,21,403,-1516,805
-102,-56,121,834,14,-212
-110,94,20,2548,902,-528
-125,23,-37,2460,638,-1466
-86,-88,-39,2275,-410,-1667
-89,-104,7,1518,-529,-433
-79,-100,15,283,187,290
-66,-119,-29,-77,625,-151
-50,-112,-54,-224,197,-13
-34,-105,-75,-404,-42,-51
-48,124,-88,262,266,-508
-42,120,-91,513,635,-813
10,-127,-105,299,592,-364
13,-119,-113,172,135,22
8,-92,-104,-348,-455,285
15,-94,-114,-115,-440,237
7,-124,-120,619,-376,-105
24,124,-117,914,104,-186
42,-121,-106,659,672,-113
31,-125,-119,583,246,36
37,123,126,672,88,84
67,-126,121,455,245,111
63,-119,117,185,214,51
67,-117,104,138,86,-80
70,-123,90,131,19,-388
97,-110,93,-491,-41,-363
78,-126,92,-43,-104,-458
106,124,88,-43,91,-637
111,117,85,294,-98,-242
-11,92,-113,1643,4028,-3256
-36,-3,121,647,3634,-3252
102,-52,120,-672,6273,-4255
12,-76,-86,-1403,6811,-2986
-1,56,66,381,6418,-2915
-90,-126,70,-1279,6540,-2169
-51,29,-8,1946,5051,-2515
-68,84,-51,524,4405,-2692
16,21,-83,-2804,3287,-1552
45,-24,34,-977,3082,-762
-1,-13,57,-625,-659,789
-87,-20,-5,909,-1767,415
11,-17,57,634,-4804,1713
7,93,68,205,-4833,1489
28,117,-125,1656,-6310,2580
94,-115,16,194,-6182,2754
2,109,-92,423,-9963,3816
-82,-108,7,5824,-10179,5677
-106,-121,-98,1189,-5276,4744
85,-77,-52,1152,-1901,2661
-28,-64,12,1807,-2464,-214
16,122,47,1550,-562,-953
15,25,102,588,2411,-1483
-116,60,-39,1514,2988,-2794
-105,-119,114,2479,1134,-2675
3,113,-111,2209,38,-472
10,68,-118,1915,-99,173
-28,33,-84,935,-64,293
-20,73,-55,-248,-92,1184
-7,-107,-77,-1008,-285,1782
-42,-90,-96,-643,-523,896
-49,-97,-103,-10,-232,-222
-12,120,-121,744,316,-972
9,117,-122,503,401,-774
-24,120,-116,22,-3,-326
-2,108,121,-82,120,-314
15,92,109,148,298,-440
24,87,95,74,11,-538
46,121,118,-594,-151,200
47,122,102,-139,73,192
41,117,93,403,131,-274
34,-112,98,-4,31,-39
61,-108,93,-74,106,114
78,-96,78,-20,240,73
79,-90,69,109,221,-44
71,-85,65,2,83,-209
79,-85,67,-27,5,-151
77,-83,70,28,28,-22
87,-71,67,-9,133,-58
87,-72,55,254,97,-263
49,-93,98,506,3996,-4879
-107,7,94,-519,3959,-5065
54,-4,109,-1914,5359,-5143
44,-85,104,-2112,5354,-4670
-95,-35,-46,-1465,6131,-4259
-37,-43,65,453,5379,-3456
112,-105,-23,-563,5240,-3404
105,73,98,-1950,3617,-840
30,-53,-24,-4483,2713,-1243
-32,-43,-14,-690,664,706
-93,21,-115,2674,-1177,1340
63,-74,44,1556,-3497,1218
-75,100,101,2121,-4918,1143
-116,-58,66,-1300,-4426,2515
81,-102,84,-617,-5860,2587
127,-98,-33,-649,-7967,3196
25,-121,116,796,-9640,3288
-113,-37,28,497,-7999,3778
-63,52,-63,717,-5068,2495
93,-69,18,1334,-3065,732
-70,-79,31,1203,-2172,-214
76,117,125,584,-356,332
-6,32,-76,1935,1514,-15
127,-58,21,2454,1008,-274
105,56,-73,2769,-52,-896
-89,-9,-63,1708,-320,-1204
-45,-29,-59,157,72,-585
-18,-86,-107,-278,589,-300
-40,-101,-103,41,230,-69
-66,-94,-93,354,-297,125
-52,-76,-77,121,-232,120
-26,-63,-88,-179,225,30
-10,-87,-120,338,464,-316
3,-88,-127,618,252,-264
-1,-83,120,363,35,-264
-6,-83,-126,148,-117,-7
10,-66,-127,-69,79,173
29,-69,109,177,167,-33
20,-54,105,79,30,-85
38,-60,91,255,167,-518
59,-51,88,-1,237,-233
54,-54,84,-198,10,-224
65,-64,84,-73,60,-292
72,-59,92,-96,55,-164
86,-53,93,-97,105,-94
98,-41,93,-129,79,21
95,-25,95,-244,63,48
93,-17,100,-183,44,8
103,-5,91,-179,149,-80
104,0,81,-229,108,-73
69,51,100,-558,4635,-4922
-88,-95,125,-591,5016,-5224
119,-58,-92,-2797,6365,-4566
-88,-92,-59,-773,4986,-3184
-27,84,-61,-3416,5613,-2639
-2,-112,-124,-378,4204,-1027
6,76,87,383,4879,-2286
63,-119,66,-1171,3038,-2415
-64,-94,-22,-950,3551,-1965
-80,-22,61,-732,1162,90
-9,-100,99,969,469,-61
-49,-88,-58,-61,-3126,1603
5,65,-71,-263,-4705,1189
-29,-80,-74,1279,-5500,1606
32,104,-34,524,-5255,1341
-115,105,71,1855,-8144,2601
84,24,-126,-1208,-7710,1672
121,58,105,3243,-7469,2804
-37,-52,-121,-388,-6087,2375
40,35,-14,1207,-3463,1979
-53,59,9,921,-581,125
51,78,-6,-541,-47,-894
104,-59,123,1060,14,-1108
-87,-127,-92,2104,129,189
110,120,21,893,-637,719
115,14,9,2278,-1698,76
-101,-40,-35,3094,-1278,-31
-92,-24,-19,2330,-665,255
-82,0,-13,746,120,423
-91,-19,-24,299,134,-5
-75,-54,-30,-24,131,-648
-75,-90,-43,526,181,-560
-76,-111,-54,809,287,-543
-89,-118,-63,777,206,-401
-47,-128,-87,616,290,-379
-29,-119,-91,151,143,-144
-7,121,-111,270,148,-187
-11,126,-111,177,34,-126
-4,-108,-104,-294,16,-100
6,-107,-99,-188,197,-160
16,-95,-107,66,156,-88
12,-84,-112,5,117,-135
25,-80,-125,-110,226,-183
46,-70,118,-203,85,-60
70,-72,106,164,164,-221
40,-57,108,-5,25,-292
43,-36,-128,-637,-76,-112
77,-46,114,-196,411,-334
92,-76,77,670,454,-653
98,-60,77,352,49,-387
19,117,122,701,4925,-4545
94,19,71,2035,5032,-5639
-8,79,59,1888,3086,-5578
-18,101,94,-5996,6782,-1767
-126,-60,35,-1139,6407,-1853
-4,95,3,-1780,8672,-2850
-23,93,104,857,8688,-5111
108,24,107,-3224,4327,-1629
-73,-73,-72,1564,5568,-2888
70,-122,-72,707,-591,189
106,-46,-92,-2523,-2784,174
91,-72,-90,1086,-3831,250
-11,17,105,1479,-4371,1400
47,-21,-25,1934,-5335,2108
55,98,-89,-151,-7474,2940
-40,-86,108,-3645,-8495,930
-89,-4,-53,-6160,-11580,172
-95,70,77,2998,-3383,-3383
-76,30,-30,7209,-5825,-1981
-20,1,-17,685,-2146,-424
8,79,13,171,-469,552
124,37,-13,2071,857,1241
-75,-60,-45,-364,-933,2442
-50,43,-99,-1926,1195,1181
-103,114,28,2413,-190,-997
-60,102,-66,2151,-782,-1792
19,-2,-112,2685,-682,-2320
28,-66,121,2144,806,-1845
-3,39,123,-2217,2081,56
-89,107,-88,-4200,-1219,1713
-85,-35,7,647,-2498,437
32,-53,125,1383,-824,-766
51,36,47,117,1018,-141
-5,-8,-95,1440,722,-81
-7,-30,-122,1954,200,-306
17,-75,103,2445,-29,-225
43,-84,98,1709,289,-332
46,-92,104,670,97,-124
12,-96,126,-317,-517,252
-7,-94,-102,-500,-774,306
47,-94,-113,-159,-200,180
46,-116,110,963,355,-222
40,-116,101,991,294,-520
81,-102,94,225,232,-232
71,-90,103,-453,-128,-90
64,-115,109,-54,-236,-464
67,124,121,530,103,-385
82,-125,103,408,515,-287
109,-123,81,132,367,-66
117,-89,80,-497,-25,335
-63,-88,105,1310,5852,-5056
59,-40,-107,187,5614,-4725
59,-82,-22,-896,6634,-5067
67,-79,16,-2025,5579,-3586
-80,109,92,-1631,5257,-2429
85,53,-19,-141,4629,-1887
44,-27,-42,-857,3788,-1100
70,-49,-80,-206,3247,-638
-115,125,12,-190,2728,-704
59,94,-76,1933,735,-558
74,-121,-96,1134,-1198,-813
-105,12,40,105,-5926,2257
60,127,98,733,-6450,2774
-58,-8,56,-438,-6308,2410
-11,98,-107,2907,-6211,1725
-101,-115,-4,6991,-5741,3181
-50,-104,95,-3588,-6814,5752
-75,33,96,1243,-2635,2552
122,-128,-117,3992,-1386,2682
86,27,-114,1944,-267,990
126,77,-46,1362,-1924,1459
-110,-122,-45,2218,-475,1891
-70,74,-6,905,-612,1879
-66,-72,33,733,-974,176
-51,-87,9,1425,-646,-264
-25,-45,-27,616,253,510
-48,-45,-65,-499,390,-355
-40,-89,-75,-804,266,-1369
-40,106,-93,60,26,-1247
-73,118,-65,176,-546,-544
-68,-111,-56,-492,-341,-217
-75,-109,-78,-638,90,-324
-36,-124,-111,-218,512,-572
-3,-125,124,134,380,-439
-13,-122,124,554,-110,-145
-5,-114,-123,490,-9,-87
59,-114,118,310,508,18
79,-111,97,285,392,456
21,-84,102,256,-282,656
-7,-71,117,-45,-465,469
-24,-34,-114,-548,-264,778
33,-18,111,-452,507,339
78,-68,62,928,666,-595
94,-83,77,1295,183,-634
112,-53,89,445,144,85
72,-45,103,-10,195,-339
111,-33,113,-706,416,-631
-124,-49,108,-95,241,-492
93,-120,70,1520,252,-1374
103,110,68,1267,148,-1202
32,-20,101,399,6619,-6333
123,-41,94,-67,6136,-4722
96,112,-118,-1620,6510,-4127
107,13,106,-2774,5698,-2761
-44,107,-68,-944,5949,-2223
-97,116,123,-934,4511,-1434
5,30,99,698,4608,-1469
-51,22,45,-729,3630,-979
-61,-103,-78,-910,3202,-1212
-46,100,-32,3691,-18,399
-43,-27,-35,-127,-3451,851
-19,-15,82,-801,-5133,2074
119,75,93,1938,-5033,2049
-15,15,-117,795,-5247,2605
107,15,0,-1322,-8025,4099
-65,7,127,-1580,-8741,3349
-117,-77,-128,626,-8981,3145
-76,-95,-43,913,-5266,3685
126,64,27,97,-3780,1287
-91,12,76,3202,-2730,-711
101,17,103,3412,-1047,-1308
-75,24,112,-755,1387,-1232
-71,98,-41,-311,3237,-2149
-52,-61,124,2386,2485,-1709
-99,-59,-114,3211,-238,-319
-85,-75,-90,2250,-972,132
-51,-76,-60,130,-736,478
-45,-74,-61,-901,-535,485
0,-104,-87,-353,75,275
-16,-120,-88,629,87,-187
-12,-75,-73,24,421,-126
-6,-104,122,309,1030,-797
1,122,99,619,795,-1058
12,-106,-111,-215,-110,-244
61,-93,-95,-270,-203,667
54,-96,120,348,566,583
33,-61,112,-89,454,166
46,-37,114,-487,47,44
67,-65,102,286,162,-195
86,-101,82,1268,156,-465
73,-65,103,411,-401,-138
94,-55,125,-343,-327,-151
91,-101,118,372,-16,-261
105,-106,120,709,85,-130
95,-110,108,1003,116,-66
90,-110,101,839,121,-250
112,-109,95,435,109,-135
-121,-100,101,-256,-79,69
-127,-55,110,-1392,93,381
114,-81,92,-227,226,-115
-7,95,112,1427,5184,-4848
124,78,107,-758,6187,-6162
-124,104,-105,-1859,6677,-4958
81,-16,-36,-3438,6483,-3974
-27,-71,-80,-698,5782,-2174
-88,-104,21,-732,5489,-2498
-6,90,-17,-1575,4279,-1144
11,-15,-45,-1044,4678,-1320
-111,47,84,2105,1138,792
52,-80,1,33,-1000,-1558
27,-21,30,258,-6057,2780
118,-107,-61,2048,-5624,2790
-95,-57,-76,1357,-6683,4138
-50,7,0,-2043,-6483,3960
85,-113,-66,-4983,-7199,1400
-81,-3,-21,3030,-9864,1516
-5,-31,-67,-807,-5500,2367
-55,-40,-23,-116,-3299,1812
44,-88,-6,4689,-2086,671
-35,-108,-44,2193,-467,91
-57,-7,35,3888,-1303,-1498
-68,42,34,-2223,-678,-723
4,-123,-53,-1338,891,-1223
-11,-15,124,1397,1463,-1598
-43,-42,114,2486,362,-1289
-43,-69,-124,2365,-350,-819
-70,-53,-38,448,-682,-36
-42,-37,-18,-945,-552,429
34,-78,-84,-566,380,389
33,-110,-127,1042,748,-69
30,-98,121,1164,201,-286
0,-35,-91,-226,-533,375
-10,-34,-82,-908,-145,321
10,-52,-110,-212,596,241
24,-53,95,748,670,85
38,-64,73,1258,103,-335
77,-64,101,1041,-477,-139
103,-53,-121,174,-235,413
-116,-69,97,60,697,59
118,-77,79,431,420,-171
34,-75,101,368,-469,-468
57,-86,109,-4,-141,-677
64,-80,121,-355,-64,12
94,-78,100,36,199,246
100,-68,92,281,27,-58
-97,-66,87,496,145,-427
107,-76,100,495,-6,-603
-96,-87,94,81,306,-522
-107,-80,90,-299,43,58
87,-70,93,-275,-419,255
11,-80,88,-933,4521,-3924
43,18,101,238,4783,-4268
-62,23,83,-2077,5792,-4531
77,-100,-98,-1141,5168,-3442
-82,-80,21,-2557,5320,-3031
120,-100,111,-2566,4577,-2454
119,-84,61,-642,3543,-1634
70,-39,79,3382,2869,-1990
-81,-91,62,1433,1877,-1308
3,10,118,-1654,-1659,1377
-74,-122,53,1510,-3739,3195
90,-115,57,739,-3935,3407
-49,114,72,54,-3734,2610
-77,5,-17,-2389,-5911,3246
0,-103,-88,-4388,-9183,1925
-46,-121,-20,3893,-7762,1899
8,-53,-54,3109,-4614,1625
-110,45,-56,-822,-3057,1288
75,10,-21,3276,-1156,-407
56,111,-36,145,-892,-778
-10,-98,-108,1368,-251,-680
-23,-74,115,-209,898,-199
-91,115,2,39,129,-339
-116,56,-45,1079,-919,-56
-33,22,-51,769,640,-61
-73,43,-33,546,606,118
-27,17,-17,611,575,281
-17,-5,-12,753,92,45
2,-25,-32,809,382,-523
1,5,-37,-65,205,42
22,-32,-60,225,525,197
14,-54,-82,972,-52,122
72,-21,-76,313,84,106
65,-108,-84,2008,14,-504
82,62,-110,3707,354,-1260
98,113,-54,1202,182,-766
-121,103,-68,-392,542,-360
106,105,-72,-497,-147,744
81,120,-52,-221,-755,832
117,95,-72,879,-129,9
120,113,-64,634,303,20
108,109,-87,340,485,8
97,107,-95,-167,293,-202
111,96,-98,-348,304,-326
-102,58,-103,642,57,-313
-108,85,-82,608,16,142
-127,110,-73,-153,-4,-122
-126,-126,-70,-564,87,71
-83,121,-97,-15,-30,-199
-62,126,-89,431,204,-323
-81,-54,81,2486,5456,-4715
65,13,101,381,4737,-4948
-89,-6,-110,-1046,6596,-5384
72,26,-46,-1208,4970,-3920
47,-115,-32,-1499,5990,-3962
36,82,-3,-897,4725,-2705
-103,16,-15,-1666,4190,-2427
-127,-37,-78,-2205,3601,-1958
66,75,-126,715,2087,-304
-123,-6,114,248,-666,351
-54,22,44,643,-4454,2738
51,22,93,2040,-4602,3064
83,-11,-7,1473,-4470,4633
-104,99,114,-2836,-7261,7129
4,90,64,-1811,-11302,4626
22,30,28,-598,-10722,5355
-46,-102,-109,879,-4419,2684
104,-111,-18,907,-3455,956
-91,-10,-1,3640,-1167,-555
67,17,-96,2273,-347,-1177
-19,-127,-89,907,415,-768
-88,61,90,244,-159,-131
-19,-63,-80,1058,663,-474
-51,-95,-116,129,395,-1397
-76,-6,-62,-2900,-55,-225
-49,-63,117,-2066,283,-13
-69,-115,108,383,135,-226
-66,-62,-116,796,4,312
-41,3,-118,407,333,420
-38,-38,109,953,618,-594
9,-46,105,619,376,-795
43,-75,122,561,103,-458
-90,-90,116,579,181,-308
80,-83,-93,372,-406,-127
-25,-101,-53,270,-415,-27
52,119,-103,492,773,-92
77,-76,-109,50,330,417
63,-44,-113,-52,-133,431
92,-96,-125,861,123,-250
30,-73,-118,623,401,268
109,-73,76,471,922,-409
105,-119,66,903,305,-766
91,-88,115,38,-504,-25
106,-122,117,181,-303,155
112,-111,-123,476,-97,336
-89,-114,79,607,632,-563
-96,126,76,698,374,-908
123,106,107,744,-416,-430
-107,103,118,548,-189,-109
-77,121,117,57,273,46
-47,104,102,439,3771,-4708
125,123,92,-244,6139,-5740
25,26,107,-930,5933,-5740
-9,41,-102,-3514,6599,-4503
-50,-43,-68,-1014,5962,-3724
43,-38,-68,-1326,5410,-2514
-66,-35,-127,1312,5221,-3232
-90,-44,-9,-2772,3904,-1953
-99,35,59,-1032,2039,-357
104,-86,120,1265,-2848,1631
-127,55,107,-603,-5067,1079
-9,77,-66,2111,-5400,486
-24,-106,-14,2890,-5961,982
48,67,18,132,-7942,3246
-28,114,-15,1399,-9462,4056
-65,-84,67,29,-9696,4632
-28,-128,-94,2462,-8021,4180
-70,-91,62,682,-1349,1839
63,-103,45,1792,-2213,-244
47,83,-17,3820,178,20
3,-65,-48,1985,-230,-708
-38,67,32,1475,710,-741
2,25,-39,2279,373,-1227
-21,-45,-63,1566,367,-1638
59,111,-115,1674,800,-2141
-52,-76,-4,-969,-785,-572
-51,-48,23,-1222,-1097,1195
16,85,-51,2612,-248,145
61,103,123,2904,961,-1048
48,-118,-82,243,-200,-976
10,-12,-27,-3610,152,949
-6,120,-111,-449,361,-290
100,69,100,1753,254,-966
56,-109,-88,697,-598,290
57,-62,-74,4,-85,411
64,-114,118,742,590,-657
49,-87,-100,124,-161,-215
92,126,-91,963,87,252
120,-106,-90,901,552,322
119,-55,-97,-22,562,-208
-122,-115,-115,912,298,-603
-111,113,-103,832,-132,-459
121,-54,-34,-1141,211,748
-92,-84,-93,-113,887,-130
-61,109,107,1506,543,-846
-84,-118,127,165,-38,-451
-61,-72,-91,-1087,-78,248
-98,125,-79,814,-256,152
-111,-110,-82,954,570,-616
-27,-121,-114,427,75,-954
-9,24,91,1001,4432,-2621
-39,-59,78,2076,4957,-6208
55,-76,93,-1229,5611,-5987
-4,2,-125,-775,6951,-5295
49,-31,-128,-1015,5346,-3962
-124,-5,-54,-727,5443,-3293
119,-55,-98,1366,4581,-3202
108,109,-110,-1558,3508,-2683
-7,69,30,-1839,5247,-4004
-65,122,97,1067,1665,561
119,71,46,-88,-2362,1854
4,2,105,-15,-5232,2920
71,-31,1,-192,-5619,4387
-123,85,82,968,-4845,3524
-96,-70,24,164,-6613,4374
-87,46,53,-3454,-7125,2927
-29,2,-33,2452,-6810,3841
87,-120,104,-2553,-7084,3102
-94,-49,-30,1792,-5261,2441
29,-118,16,152,-2866,1915
38,-103,37,1874,-44,1553
37,112,-22,3958,-1335,-671
-6,-98,-10,-1464,795,-1619
-53,-100,-39,-238,1715,-1627
-66,49,-67,1430,387,-806
18,127,-42,-1291,689,2206
-78,47,-39,-2216,-498,803
-63,-12,-66,146,-376,-337
-35,-14,-6,1235,-696,-471
0,32,14,743,-524,-699
7,29,-9,396,-614,-841
102,66,-37,-194,894,646
19,35,-66,86,375,-381
-16,35,-64,229,-382,-716
16,39,-69,100,-414,9
80,54,-81,-307,1146,874
82,5,-114,748,1590,502
38,-50,-86,1861,-59,-881
79,-73,-96,2207,-323,-326
84,-58,-84,779,-462,-364
46,-90,-90,501,-808,-959
-116,-82,-99,-81,56,-47
94,-82,-121,-93,203,47
17,-61,-126,-128,-507,-601
103,-41,109,-248,-481,-524
-81,-5,94,-335,84,179
-117,-9,94,-233,440,-116
88,-12,112,5,303,-584
106,15,125,-492,200,-374
126,35,120,-570,87,29
-34,-3,-115,4846,-5278,1489
-41,72,78,2476,1759,-3195
-50,-69,-13,-3790,7179,-7452
80,41,-29,2609,5480,-8224
59,44,-43,-4021,5925,-7246
110,126,33,-329,6081,-7267
-49,-27,-79,-2032,3477,-5039
-31,-126,-95,-1860,3915,-4173
-128,-91,-59,-1984,3654,-2933
-14,105,125,-4103,2314,-2478
-35,43,-20,-1383,1388,-1262
-91,-25,-31,2652,-470,-135
-83,49,-112,766,-1729,1984
78,-96,-98,-239,-4819,3556
22,-52,14,-842,-6563,4110
14,-61,-100,-843,-7716,2812
-84,-6,-6,1013,-8304,2265
-81,104,124,3056,-5637,1991
-45,-66,54,1902,-8440,3788
-76,-77,-58,876,-7295,5469
90,7,20,3003,-1308,2514
109,-106,-5,1079,-1560,-274
15,23,114,1719,-248,-597
-21,-118,104,2544,1468,-1233
-108,46,-38,1933,956,-1878
-104,-41,-96,1052,168,-1618
-68,127,125,929,379,-1457
-18,-106,-98,217,1028,-619
4,-122,-103,566,127,-158
27,126,-96,690,-483,-126
28,-121,-78,151,-706,-1
14,-113,-70,-442,-866,130
-7,-125,-79,-471,-607,-112
3,118,-101,-139,152,-503
-3,123,-99,-91,45,-276
3,-116,-111,-249,104,-168
23,-104,-120,-356,307,-164
44,-104,116,12,296,41
61,-104,91,572,135,100
27,-98,106,611,-307,208
22,-16,-79,-852,-331,848
87,-9,-122,-1082,511,668
76,-34,84,-17,596,102
89,-59,44,989,579,-719
93,-68,45,1092,195,-796
80,-55,73,410,-306,-319
112,-54,87,-302,-19,-153
120,-65,79,-159,217,-72
108,-60,80,29,7,-92
114,-52,87,162,-87,-247
72,19,77,192,4795,-6078
7,-99,86,-56,5567,-6118
-27,-61,-9,-1375,4877,-5605
-6,-60,-37,-2171,5251,-3884
102,115,-54,-2034,4772,-2246
104,-125,-45,-1342,4441,-1081
87,-92,-47,-693,3249,-602
-39,-71,-103,-302,2533,-726
76,49,89,1329,1526,269
-121,60,58,1768,-2328,368
51,111,14,185,-3460,987
112,62,18,661,-4841,2122
-42,-117,20,-840,-5181,3589
-3,-100,-12,-3869,-7810,2206
-5,61,17,-763,-7280,2160
-85,-15,-97,1539,-7248,3159
29,50,-66,446,-6094,3982
-69,-102,-35,2003,-2977,2499
88,-96,-15,94,-1774,818
20,3,-116,4603,-582,207
50,43,-128,2773,-399,-146
-85,-94,-33,2202,141,-1056
-119,51,-61,1328,-615,-1674
-27,5,-68,280,-208,-620
35,-61,-83,428,445,381
-24,-100,-50,952,151,-149
-58,117,-32,1213,-628,-947
-6,-120,-27,502,-501,-110
6,123,-38,264,235,-192
15,111,-53,-65,403,-335
33,116,-65,98,172,190
16,122,-73,707,-67,89
17,-121,-72,481,206,-268
41,-119,-93,-26,420,-215
36,-124,-110,-53,288,73
56,-121,-126,119,187,107
50,-96,-104,124,-201,107
124,-108,-112,411,257,-481
-34,115,69,985,912,-762
31,-91,106,450,-362,111
-12,-61,-87,-797,-1041,93
-122,-70,-112,-1307,128,-105
-127,-92,114,242,872,-41
90,-114,84,1648,193,-691
-106,-104,90,1222,-162,-546
-75,-74,-119,-162,-332,100
107,-91,-118,102,-204,-367
-128,107,-127,554,93,-1023
-92,-92,-109,-809,345,156
113,-89,-122,-462,39,371
100,103,90,736,4087,-5148
9,47,89,-14,5074,-5867
36,20,107,-283,5323,-6618
-120,-19,93,-3216,4596,-6383
63,8,81,-470,5081,-4228
-84,68,-34,-1186,4131,-3684
7,-97,89,-1278,3514,-1657
49,-40,83,-2171,2685,-2205
37,99,-11,1433,1553,-321
47,-118,101,675,-502,321
47,-8,-69,228,-2978,1292
3,-29,-69,408,-3705,2143
30,-55,16,1206,-4968,2992
-105,-127,98,1221,-6055,3086
-74,115,37,1890,-6766,3785
107,-58,-8,2001,-7469,3617
56,80,-66,2791,-5968,6126
-100,122,-73,-1002,-3953,3253
-121,-61,-11,948,-2588,633
98,-67,12,1353,-1039,519
-79,58,-9,3612,-472,416
114,-5,29,3480,-1057,1157
101,53,62,-2299,-2004,1109
-119,-76,-7,-3203,-705,-502
-49,-22,-88,697,1667,-1159
-105,-64,-81,3650,1525,-1314
126,-42,-87,2821,1198,-1214
-124,-91,-82,1696,155,-1032
-66,111,-61,1204,41,-359
-34,108,-51,509,122,409
3,110,-70,711,204,557
-37,-127,-59,836,-142,537
-43,-113,-35,569,-141,230
26,-117,-64,396,612,-89
22,116,-70,825,135,-49
1,101,-67,1160,-32,-265
19,97,-56,700,194,-409
66,99,-73,-88,478,-334
59,82,-101,68,212,-293
33,87,-98,-239,-206,-448
75,105,-87,-787,123,-162
73,100,-115,-595,304,-364
99,-118,119,-650,61,42
100,-91,114,-451,-44,132
83,-83,96,30,127,-215
53,-57,124,-184,-282,115
94,-25,-119,-548,0,352
125,4,110,-635,252,233
90,15,116,-557,-256,-15
93,10,-121,-40,-190,-308
-78,122,89,295,4932,-4749
13,20,111,109,5086,-5451
-103,-81,57,-423,4755,-5461
-1,89,-109,-2656,4807,-4277
19,-39,98,-29,3760,-1813
78,74,-72,1080,4334,-2438
-57,-14,121,-463,2941,-2275
-56,-49,9,-3125,2770,-431
-92,10,13,-2172,-291,1063
17,119,-59,1168,-1221,115
82,-61,4,-860,-2706,0
-13,83,-117,-219,-4308,731
-53,67,-45,784,-3943,985
-79,-123,-39,-112,-4668,1554
-54,100,-78,67,-5841,2494
-67,65,-15,-70,-7785,4023
-54,-86,-92,401,-10155,4123
-29,-110,-41,729,-5430,4548
95,-42,-38,4969,-3996,995
26,-88,-20,3255,-2329,174
-89,74,-94,3767,889,52
-66,-57,-2,2323,486,-794
-117,67,-65,913,-35,-804
-105,-6,-21,-54,-648,-316
-104,-83,-25,788,-610,114
-80,99,-64,1808,-47,-483
-75,-128,-62,1072,372,-812
-55,-123,-53,39,125,-585
-54,95,-51,-142,-306,-456
-42,63,-71,370,13,-531
-41,87,-66,-397,-16,-332
-53,-107,-26,-2062,-391,400
-7,-78,-65,-1982,270,435
-11,-78,-98,-559,617,-184
-13,-61,-124,42,188,-317
-7,-36,115,-107,-70,-121
-18,-29,109,-257,33,-70
4,-26,101,-18,8,-138
38,-24,91,152,16,-261
31,-6,104,-195,-170,-168
28,-1,-118,-240,-162,-149
50,4,-107,-271,107,-102
65,-5,-116,308,205,-45
54,4,111,425,161,-60
49,11,89,121,175,-56
52,7,65,9,172,23
80,11,46,-29,129,86
77,23,55,-43,-126,28
84,41,80,-556,-10,-266
106,33,97,-620,196,-197
-74,32,45,-187,4485,-4179
106,-106,97,-1221,5359,-5042
98,-48,83,-1666,6005,-3979
-7,-97,16,-2290,5914,-3412
27,90,-96,-2715,6204,-1742
-70,-34,35,-2707,6079,-998
12,48,-56,545,5953,-953
-52,79,-61,934,3910,-1816
-77,-93,10,-1637,4006,-2695
-4,4,102,1201,2263,-3032
-118,-39,-4,133,968,-398
-29,-80,-128,-931,-1551,840
-96,-63,-87,693,-2410,526
95,20,62,391,-4177,1588
-95,-127,-118,1200,-4331,1813
-78,12,-103,968,-4977,1734
76,54,-13,2065,-6672,2464
-45,76,71,830,-7503,2868
113,62,-53,1557,-7124,3437
-13,124,110,1661,-7150,3735
102,123,-16,3049,-4375,3049
-56,-55,55,1965,-2762,1625
55,82,-30,2355,-1445,22
81,41,85,1926,345,250
-92,-112,100,2352,707,-189
114,111,36,893,-31,-208
103,37,0,567,-374,-627
-125,-66,-31,1465,-77,-813
-109,-75,-51,1480,539,-836
-118,-109,-74,1071,520,-1408
-91,103,-63,180,270,-1445
-66,70,-60,-436,100,-1153
-45,51,-57,-558,120,-446
-32,16,-88,823,270,-411
-11,57,-101,386,195,-339
-9,104,-81,-831,-195,307
-20,114,-104,-718,-99,333
-14,105,-118,-70,-11,256
19,-123,-119,122,224,627
25,-82,120,206,427,606
18,-79,106,453,268,60
-6,-73,116,405,86,-344
12,-100,109,482,279,-846
35,-119,106,336,231,-708
64,-121,102,123,174,-152
73,-100,102,-100,81,459
65,-91,99,32,99,235
78,-89,81,265,209,-237
100,-94,70,208,137,-584
99,-85,81,-181,-107,-155
-26,-128,34,-725,4818,-4002
113,1,97,14,4434,-4826
-10,18,80,-2546,6828,-5199
-51,87,-68,-1530,6256,-4881
-57,16,4,-4098,6586,-3634
-22,-122,58,-2326,5718,-1749
116,9,86,1377,4380,-2617
-36,-88,-62,-4025,4453,-1562
-80,45,-93,-991,4008,-769
-70,84,-57,3308,2537,346
-84,-116,81,558,326,-396
-110,-7,-98,-106,-3534,806
-51,-85,-40,1741,-5927,2410
-126,127,-104,532,-5090,3416
-77,-113,-126,2179,-4802,3316
-126,-31,-68,3554,-5978,5562
104,21,-128,171,-6770,6754
88,82,108,-1536,-6560,5005
-75,72,-96,-490,-4176,3186
-15,-101,-42,2533,-2405,-31
-42,-122,-19,574,-1876,124
124,-9,63,1065,865,-48
-55,96,74,2712,1143,-111
-93,76,-19,2163,-58,159
-99,41,-50,776,-409,232
-78,-14,-94,-104,60,306
-63,-35,-120,339,716,26
-65,-54,112,556,630,-773
-60,-73,123,547,-18,-1085
-29,-100,-116,452,-408,-1100
10,-112,-96,-146,-241,-814
-2,-110,-101,-698,111,-444
-13,-111,-106,-711,11,-13
12,-92,-114,-223,-76,491
18,-66,-121,141,-44,490
9,-11,-126,-302,34,452
14,-7,115,-310,186,-7
50,-28,82,216,389,-562
59,-34,78,280,216,-518
52,-24,87,-62,-71,-213
50,-22,103,-211,-92,-7
66,-21,100,-87,166,-60
76,-20,91,231,211,-193
82,-26,82,450,133,-314
88,-27,83,315,108,-190
95,-32,79,242,96,-90
96,-27,81,110,56,18
98,-23,80,56,64,9
120,-18,76,48,98,8
113,-13,80,-44,26,-65
109,24,112,-728,5869,-4495
-27,-17,112,-2008,8609,-6519
-30,33,-31,-1879,6213,-3961
69,-58,91,-2306,7181,-2324
-96,-71,-26,-2879,6476,-70
73,3,75,1718,5856,-1910
-97,-69,117,-3863,4747,-1491
-94,-86,-48,-1342,2472,-714
-96,9,-13,2433,-80,-46
-90,76,31,-644,-2190,-30
-120,-49,-10,1641,-4389,1990
-76,-31,-48,36,-4569,1972
-22,-7,3,1334,-5475,2339
-99,88,-42,1763,-7061,3406
78,74,10,3022,-6742,2960
-2,4,-72,1932,-6159,4776
9,7,117,2683,-6103,4817
113,113,-98,-292,-1904,3369
-31,-16,-57,-63,-2530,1414
-107,86,-83,1561,-1661,1077
21,-5,-52,2796,-789,1044
-71,-122,4,3051,-125,1036
-90,81,-38,1565,30,-143
125,66,-40,-710,-57,-627
-91,-3,-72,-720,347,-831
-68,-93,-110,1447,443,-1734
-69,-127,-106,1259,-102,-2371
38,-6,-32,-3372,575,-918
69,36,90,-5706,2494,1102
-52,106,90,-393,496,-1652
-65,-116,-120,1916,-1105,-1830
16,-35,-85,1163,-1209,157
76,23,-119,142,136,1153
34,-47,85,1602,400,43
8,-36,85,1413,-182,-438
-7,3,-127,-648,-556,-430
23,-4,-120,-1697,-155,-313
37,-52,116,-51,107,289
34,-42,111,1776,7,591
37,-13,114,1559,-14,487
68,-10,98,698,256,548
69,-32,88,751,173,348
68,-48,82,508,45,-162
91,-50,82,181,230,-155
78,-68,89,227,165,-288
89,-78,87,299,249,-429
96,-74,83,69,217,-523
116,-71,87,-378,160,-453
114,-74,97,-214,65,-275
-122,-86,87,152,355,-456
-33,118,81,499,4565,-4757
60,-107,64,26,6037,-5195
51,-31,86,-1988,6488,-5653
58,51,-97,-2325,6060,-4676
17,-54,24,-4113,6192,-2874
52,2,-29,-163,5651,-2355
113,-43,4,526,3705,-1537
66,5,27,259,3870,-2630
0,-64,-10,-88,3979,-1148
-38,-54,-110,-484,-210,743
-105,72,-68,764,-2819,2141
44,27,-87,1781,-3964,1327
11,93,66,1564,-5468,3081
107,-52,117,-3310,-3023,5325
-59,13,25,1901,-8426,4959
38,-71,4,-2095,-7409,4776
13,-75,24,-1235,-6746,3309
-17,-89,-109,-490,-4859,2655
67,-75,-63,945,-4492,1168
127,17,-4,2163,-2393,2540
9,-17,-69,-550,-312,2355
90,-70,-25,-1418,1220,55
-51,-93,81,691,1297,-2174
-27,59,31,1651,262,-1157
-26,51,49,-159,417,-30
-22,8,20,-249,317,-213
-19,-122,-35,-3063,-27,-793
75,-106,-13,-3145,882,142
32,44,-38,428,312,-9
-25,69,-17,1651,-665,-911
22,88,-40,1832,-1246,-393
69,93,-59,1124,127,407
6,60,-65,427,253,-579
16,40,-63,542,-65,-142
41,46,-83,301,33,67
46,21,-110,704,53,-324
57,-6,-127,1446,22,-363
60,13,-127,471,215,-241
64,12,126,-375,219,-58
67,-10,120,-3,2,-88
81,-16,126,207,-25,-143
88,-10,-128,83,136,-227
96,-13,-127,78,48,-99
102,-15,-126,150,120,-170
114,-10,-127,109,173,-130
119,-9,124,67,130,-143
124,-5,119,-72,147,-107
125,-14,111,172,128,-161
-118,-12,106,239,128,-170
-112,-5,101,97,173,-157
16,-82,121,842,3850,-3784
15,-22,79,1044,6561,-4457
83,100,102,804,7671,-4655
-121,-46,-65,-17,6615,-3301
84,-24,108,-2708,7296,-2148
-9,-73,-99,-1154,5706,-926
99,-12,32,-1763,5132,17
5,36,-83,4663,4268,-433
-121,-39,-8,3357,3246,-2123
60,23,58,-3505,1889,-1076
-4,-8,101,-407,239,-146
-64,-8,-54,842,-2603,441
-49,-104,100,257,-4796,273
28,-21,-69,-1066,-5713,210
80,-80,59,-1213,-6148,755
-126,30,-15,-362,-9220,1856
-71,47,-44,1123,-4595,390
75,-11,127,-5,-6415,565
-41,-89,92,1805,-5638,1357
115,8,-124,576,-2904,758
16,-93,-93,3312,-4030,-192
-51,-35,-71,1823,-2954,1032
73,-41,58,469,-2809,555
3,115,-60,2119,-1180,592
-1,-123,-58,1291,1397,-474
-65,45,34,1455,1404,-784
-118,12,-22,841,95,-334
-86,-50,-47,1278,-187,-137
-118,-73,-30,1499,-239,-270
-23,-68,-29,756,418,-80
-67,-47,-62,-278,287,93
-112,-62,-75,-705,72,-646
-35,86,-99,1298,379,-975
8,78,-109,1884,398,-345
-51,-125,-101,650,107,-300
-14,-121,-98,-434,-250,-289
11,126,-77,-571,-295,33
20,126,-84,-50,98,-12
4,-128,-106,376,427,-210
17,-113,127,179,188,-323
25,-98,125,-307,43,31
38,-94,115,-289,160,-44
82,-87,102,-68,360,-81
74,-84,81,199,181,-267
48,-91,88,403,-90,-318
37,-71,104,-138,-270,-262
70,-78,125,-146,-59,-244
115,-92,89,277,486,-180
72,-60,88,-306,-238,-57
115,-38,123,-575,-431,284
49,10,94,-134,4602,-4231
72,38,-126,-1661,5513,-5165
44,93,-76,-436,5883,-4834
-122,39,73,-2188,5375,-4404
-27,-117,83,-1805,5081,-3444
-87,17,-20,-971,4612,-2665
75,60,67,-1641,3942,-2108
8,77,-56,3636,4109,-2615
123,85,-115,-1715,183,486
124,-34,28,45,-2712,983
87,-113,108,611,-3896,1557
56,56,105,1325,-4562,2218
-99,28,-45,971,-4407,2028
-81,-11,-119,2944,-5897,3214
-92,7,-45,4233,-6377,4284
-123,-37,-116,18,-6160,5581
113,12,106,2335,-5498,6057
-47,-56,-126,1290,-3099,3211
-51,-27,-50,64,-3915,1336
0,-27,-60,1310,-581,346
-37,-17,-69,3136,-177,733
-127,-114,41,3071,-1020,1275
-120,104,46,1126,-1235,1032
-90,-14,7,141,-277,-618
-77,-79,-25,1127,591,-1167
-99,-121,-24,1848,445,-960
-115,-122,-15,1139,278,-714
-84,117,-29,414,354,-628
-58,73,-56,426,555,-652
-57,50,-74,620,566,-605
-42,45,-84,615,495,-256
-19,50,-106,478,418,52
-7,71,-108,90,118,231
1,105,-108,-445,-114,272
0,99,-111,-213,-117,-160
13,89,-110,159,0,-373
25,101,-104,59,52,-299
28,108,-112,-110,40,-279
36,109,-119,-78,42,-242
43,113,-125,-64,105,-270
54,113,121,48,160,-250
55,117,108,87,120,-154
59,-126,108,-38,95,45
61,-116,103,-34,100,64
81,-100,102,-35,124,62
88,-95,99,92,177,30
97,-91,90,245,160,-95
97,-81,91,116,72,6
90,-70,91,-76,90,-59
106,-72,86,58,131,-75
-107,75,75,-969,3973,-4830
-21,-100,33,-369,5390,-6325
-87,37,-84,-2966,5787,-6266
-54,44,126,-1889,7040,-5624
16,24,119,285,5382,-4920
-83,56,-39,333,5557,-5404
44,44,13,-1794,5094,-2293
121,9,-48,-1129,3341,-2143
116,-99,-90,461,2658,-785
31,-33,55,979,-1492,-141
-102,56,-122,-1660,-4624,2352
28,-91,16,-692,-3816,3551
18,-19,8,1113,-5314,3950
-117,99,-65,-593,-5007,4217
-109,110,17,-3182,-7401,2295
66,-82,11,370,-6007,2899
-74,80,-106,180,-7265,2874
-121,-34,-100,3474,-6016,2541
-64,-52,-78,1969,-4608,1038
-29,109,-45,-2645,-2169,1504
-32,-82,-13,1070,-62,374
-19,-35,115,4756,744,-737
-85,-106,-102,5177,895,-1016
-87,99,-112,2482,-287,-555
-41,-10,-98,760,-403,-441
-46,-84,-98,1049,59,-12
-93,-121,-82,1277,-123,8
-56,-124,-63,616,43,81
-51,-112,-66,80,77,418
-67,-114,-74,75,-99,228
-58,-110,-75,-68,-81,-62
-31,-126,-95,35,275,-598
26,121,-122,22,636,-580
36,112,103,303,608,-518
7,113,95,296,200,-491
-5,-128,115,-355,-361,-492
34,-119,113,-859,-80,-107
10,-109,105,-744,79,189
-14,-72,102,-708,-34,196
33,-55,93,-472,221,-13
105,-57,63,142,492,-233
108,-62,46,671,275,-418
59,-60,61,522,-338,-298
12,-36,100,-353,-399,95
61,-26,86,-763,386,249
93,-32,44,-88,514,174
83,-23,47,329,-231,6
90,0,67,-89,-399,-4
97,18,86,-428,-65,133
67,17,86,-321,202,-111
29,117,63,-5320,1187,3142
117,2,116,790,2859,-1492
43,-62,127,-1715,2530,-2186
-116,-54,-114,-825,3952,-4287
-40,-63,120,1065,5600,-3764
-13,-5,123,-330,5603,-3446
-37,-4,-104,-1041,6077,-3295
60,-107,-23,-508,6285,-2985
-78,83,52,-1267,5266,-2731
-39,-43,6,585,5655,-3685
-81,-95,-51,-199,4806,-1299
6,12,35,1501,4242,-1291
-69,21,127,905,827,-119
-94,-78,-5,-1613,-1607,426
50,-7,75,474,-4044,184
111,-23,9,713,-4484,1309
-90,121,24,-670,-4819,1489
52,90,64,2105,-6044,1935
11,107,-59,1772,-7766,2823
-32,44,43,3624,-7620,3769
104,69,-48,-423,-6135,5675
-70,-110,-10,1576,-6515,3252
106,-16,63,1558,-1312,2236
-115,111,-33,3750,-1896,-93
8,-111,-104,2229,-1979,1139
113,79,-93,1752,1008,772
-59,-3,47,641,714,-2415
-117,-99,-80,-634,372,-1723
-114,11,-107,1101,-196,-1293
-90,-49,-98,1270,250,-720
-84,-104,-97,1124,270,-204
-108,-124,-70,739,-618,-26
-77,-124,-61,119,-248,91
-44,-94,-82,-247,256,463
-40,-91,-111,-161,451,182
-19,-83,116,192,555,-5
-22,-77,104,287,131,-83
-23,-75,96,251,-46,-191
-25,-76,106,-2,-132,-275
-21,-76,115,-232,-44,-350
7,-88,109,-54,477,-541
45,-88,100,194,856,-685
42,-76,88,384,287,-307
53,-64,94,262,-74,-213
74,-66,86,-23,14,-195
79,-71,79,-48,24,-41
56,-65,83,-106,-238,193
54,-57,85,-103,-277,235
62,-55,85,-51,73,-19
82,-55,77,154,278,-217
-34,104,84,726,4506,-6026
121,-123,82,-1536,5592,-5644
20,-26,115,-1409,5188,-5023
70,-106,84,-3383,4928,-3698
29,-8,-94,-1909,5583,-3140
9,70,37,271,4960,-3095
-52,-12,-43,2563,4110,-4599
-89,68,-50,-1799,2615,-2447
-125,33,-118,1338,3502,-3265
108,-109,-1,-815,-1289,1648
1,-126,-24,118,-2359,1954
-70,76,-102,109,-3642,3339
-85,8,65,-21,-4762,4420
13,-20,-117,-311,-4828,3189
13,-71,47,-723,-6705,3532
85,13,-68,-1793,-7521,3129
-83,-57,-40,3516,-7133,3852
51,-56,117,967,-6746,3765
-122,-17,-50,1703,-3439,2252
-105,42,-22,-14,-405,969
127,48,-36,2132,802,297
-40,8,119,1802,-314,538
-86,-61,-69,1166,-1201,131
-42,-127,46,540,-650,-738
-73,3,-79,1069,-414,-992
-70,-66,-91,1667,-11,-1101
-82,-113,-98,1493,344,-795
-81,-109,-86,803,155,39
-59,-94,-64,158,-259,568
-27,-77,-67,-238,-150,716
-36,-71,-84,-119,-21,488
-7,-77,-119,281,351,-127
-19,-80,-122,361,-15,-465
-23,-64,-107,-59,-167,-127
-23,-88,-121,180,191,-525
-2,-94,-124,270,121,-492
22,-97,124,234,86,-385
26,-106,112,272,169,-359
30,-104,107,131,101,-249
25,-97,110,2,54,-116
38,-101,101,134,133,-189
57,-96,92,123,138,-91
71,-89,86,167,61,-36
58,-80,92,88,72,-94
60,-81,96,155,181,-101
84,-87,78,353,325,-68
83,-79,73,240,108,42
100,-74,67,161,189,-62
113,-72,70,124,106,-86
109,-68,75,77,150,-130
-71,39,88,287,4751,-3239
-55,-43,83,5,4031,-4863
81,113,84,161,5653,-6360
16,-103,113,-2738,6450,-4961
21,-52,32,-3202,5708,-3313
27,-52,29,-3341,5945,-1544
80,86,-82,-460,5308,-1387
-52,121,41,-1230,5021,-1074
22,117,-86,3583,4438,-1624
5,79,122,422,1560,-678
-57,11,106,-1401,-2078,-768
107,94,4,224,-4409,601
-36,-13,-119,-271,-4647,1962
5,-76,-16,522,-5009,1237
-32,-82,-121,1756,-5843,1494
-97,36,-123,858,-7532,3229
-29,52,-123,350,-7425,2175
-76,59,38,2656,-5181,1895
-36,40,-78,974,-4222,1896
-66,20,-70,800,-2020,494
-61,46,-54,2442,-2041,-493
-70,53,-58,-121,-2018,726
1,-60,-38,55,-77,996
-79,96,17,1608,103,1265
-120,57,-45,1850,-507,68
-106,24,-72,1270,-176,-782
-87,15,-69,557,309,-804
-88,-20,-68,270,229,-1009
-70,-78,-66,295,110,-1071
-45,-106,-71,687,114,-602
-44,-90,-55,293,-36,190
-38,-74,-71,79,255,394
-28,-82,-103,376,513,31
-32,-73,125,325,405,-205
-38,-76,125,86,45,-203
-6,-88,114,128,214,2
16,-68,108,-37,180,411
13,-52,101,-49,58,295
22,-44,106,96,42,72
47,-42,97,204,164,-242
52,-49,97,252,31,-369
49,-52,104,154,-52,-289
52,-50,109,2,97,-325
73,-63,103,285,225,-484
80,-85,85,699,233,-765
89,-97,79,613,108,-789
91,-102,84,241,1,-427
66,-109,100,55,-2,-93
105,-109,91,94,346,239
121,-94,66,141,231,545
