AccX,AccY,AccZ,GyroX,GyroY,GyroZ
31,-84,86,-1273,2242,-7399
99,-30,118,-2150,3940,-7093
-51,-110,98,-2807,6285,-4168
34,37,49,-1476,5939,-521
-23,-35,112,-2295,3723,1435
116,-21,116,-745,3483,3977
-119,-52,-112,-3108,-1236,4412
-37,50,-112,-3192,-6354,913
2,76,61,1321,-3432,-1801
-100,-98,-52,2972,-1548,-2800
-23,55,124,509,588,-6708
75,-41,-126,967,3334,-3865
55,52,-72,-1108,3758,-475
-21,-68,113,-2294,2379,1612
-66,29,43,-840,909,5328
-21,-36,-4,-2127,-321,4516
-89,-88,67,-3341,-3368,3908
-32,19,64,-1136,-5864,-84
-128,-32,119,2176,-2983,-1915
-84,126,-123,1818,-1756,-3804
-20,-44,124,1657,212,-4094
89,12,-124,2842,804,-3207
-23,84,124,1850,1238,-1670
-5,-51,29,531,-197,1106
-58,-34,-67,-708,-1297,1840
66,-26,127,-783,-2184,2825
-52,107,-61,-619,-4087,5941
-76,-89,82,-547,-3298,6613
53,-18,48,472,-2245,5534
116,29,-119,529,-1753,4422
-118,-60,-8,719,-1134,2492
84,-34,118,1498,-855,2377
45,-90,59,1468,-379,1487
-15,-128,3,818,-210,1220
-79,-46,-6,1303,-610,-667
-35,-107,3,786,-11,-1630
16,118,-5,28,391,-862
10,114,-21,-177,397,233
-7,98,-48,387,37,406
5,93,-62,839,13,162
30,105,-66,654,97,98
38,114,-60,255,-24,115
40,113,-57,36,-38,173
43,115,-57,52,16,149
56,110,-69,324,88,59
68,123,-76,6,84,-2
81,-126,-92,-284,69,10
79,115,-97,41,-29,-91
88,119,-95,67,31,-74
98,-128,-97,-125,78,-47
-127,-24,-80,-2202,1925,-4786
81,-39,127,-1602,3953,-5817
71,-95,124,-2186,5022,-5930
97,27,87,-2375,4477,-3209
10,-92,51,-1381,4528,-745
77,-6,40,-891,4473,2000
-66,13,-29,140,1188,5469
121,78,-70,-1290,-2106,3229
-102,106,-35,-3393,-6030,-431
-86,43,-9,1033,-3076,-1912
2,-60,-57,1219,-808,-4004
67,50,-98,-1505,1548,-4950
-64,-79,-72,687,3648,-1511
-108,4,-36,-1249,3736,-724
97,49,75,-206,3039,3878
-77,-112,-49,-2530,183,5355
71,72,37,-5059,-3596,4014
57,24,70,1248,-5549,2181
45,-12,9,1018,-1648,-1907
-38,-77,-82,1380,214,-4742
-45,25,-73,1909,2084,-4577
-44,-74,-44,1376,3040,-2412
-78,71,127,3028,1997,163
-50,71,73,1793,2698,1013
23,13,30,-851,1811,1379
64,-61,85,-2793,-1753,3403
-5,53,76,-2963,-3086,4595
55,28,1,-2703,-4571,4716
14,-110,106,-838,-5148,3736
99,54,94,-1482,-2752,4472
-17,69,45,996,-4445,2914
123,-75,-24,2318,-3924,2268
-81,96,-65,-858,-68,3927
-53,9,81,-1155,167,713
-94,111,42,392,151,-983
-28,-51,1,1820,568,-878
-15,-92,-18,1139,710,-154
-10,-54,-11,-773,345,44
7,-93,-35,-210,-55,138
38,-111,-53,422,-56,243
40,-101,-46,80,8,330
42,-113,-54,406,-87,433
44,-100,-42,310,-160,288
64,-93,-46,-39,82,-78
68,-102,-59,269,163,9
72,-90,-58,130,85,161
75,-70,-67,-235,82,6
87,-86,-77,-24,136,-120
101,-100,-81,179,103,-57
114,-93,-84,70,71,78
0,-4,73,-1640,3346,-5623
39,-85,114,-1732,4268,-6932
32,-126,126,-1971,4891,-5827
78,-33,-82,-1228,5361,-3650
121,-117,-101,-894,4629,-169
-58,-60,-95,-979,4018,2919
-38,69,37,930,-176,6023
64,-28,-11,-2861,-4566,2084
71,-101,-20,-1083,-4803,1888
125,9,66,1635,-2147,-3919
96,-117,-91,-1192,251,-6688
91,18,-93,156,3129,-4410
-77,-98,-46,-560,4100,-661
68,-40,-64,-214,4261,1966
89,-122,79,184,2539,5017
-97,-122,-84,-2631,-328,3942
10,-125,-84,-4695,-4653,2334
57,-12,83,1138,-5218,892
120,-53,9,1886,-1871,-2734
-96,-107,-78,335,1476,-4887
64,-108,-60,2229,2138,-3172
98,-55,-34,879,2656,-2079
-13,72,115,-1064,2588,-13
33,0,-88,-941,1851,1558
-128,91,64,-1143,1369,2254
-115,56,-28,-2362,-444,2264
72,-123,-83,-1062,-2816,2603
-12,-31,-72,664,-4376,2765
-108,-128,21,-190,-6442,4584
-35,-104,15,-1296,-7564,4421
100,-20,-106,-913,-2680,5199
-39,-50,122,3636,-1276,3673
-85,66,85,582,-257,1922
50,-26,-79,-834,-1114,1913
-13,-110,104,-644,-130,1120
-59,-48,-7,539,519,-448
-53,-87,-3,899,194,-573
-1,-88,-16,234,201,290
-5,-107,-33,209,7,278
10,-126,-41,316,83,-107
14,114,-45,535,28,-53
28,-110,-38,-78,-17,445
33,-96,-42,-139,-3,375
44,-97,-62,147,349,183
48,-84,-91,165,332,-24
53,-113,-107,664,-40,-117
61,-94,-91,239,-131,85
69,-106,-87,544,-53,-91
91,-124,-85,797,-2,-318
101,-112,-72,17,-69,37
-105,-15,37,-2350,3276,-4578
-96,-28,112,-1803,2563,-5636
-46,-116,-66,-3536,3320,-5229
72,-90,-56,-1753,4354,-3138
116,57,-54,-1099,4196,-349
88,48,29,-743,3373,1556
-39,37,39,-466,2140,3545
-84,82,-4,-753,-417,3751
91,-38,-14,-3728,-3818,618
-80,4,56,-1159,-4486,869
60,83,71,1731,-1386,-739
24,-28,-88,461,-80,-3297
-10,-51,-102,1682,1936,-2738
-6,10,-91,230,2831,-2981
-47,-33,-57,315,2818,-1213
57,-58,48,-442,2111,904
-69,28,-92,-289,2086,2243
-8,-110,4,-234,705,2976
-61,84,113,-1881,-1107,1819
-65,108,-31,-2493,-2615,706
4,59,-120,-317,-2026,-39
37,96,-31,533,-1053,-927
-100,16,-75,882,368,-1567
-123,-11,-72,1406,526,-1582
28,105,-60,836,1612,-1394
113,-21,-87,539,1178,-656
-43,-87,-32,-2,737,176
-25,-26,-106,-88,148,382
-94,107,-73,-399,-327,172
101,-124,5,-200,85,259
33,-98,41,329,-220,671
20,-68,94,-1,62,1
50,-107,52,-161,102,-62
42,-116,51,45,-108,111
50,113,50,63,183,5
59,97,24,383,67,4
60,124,53,-250,-106,115
77,72,41,669,256,69
46,-126,48,-360,-138,-20
57,88,37,164,147,-52
61,108,14,-90,-94,70
92,87,20,52,-212,55
-47,29,-69,64,-1934,348
84,-92,70,346,-2319,310
50,-125,38,1148,-3625,1238
50,-96,1,281,-3026,3079
-2,-48,44,1073,-4356,4259
-37,121,32,126,-4222,4994
-13,-5,-77,-314,-3680,4411
52,-55,-68,-229,-3536,3567
-86,14,-108,-521,2995,-4660
3,119,-17,-5,2383,-5692
113,-59,-114,-1163,2806,-6718
107,50,-102,-2073,3007,-6251
-73,80,-60,-1722,3704,-4170
88,-52,-28,-733,3636,-207
108,125,-38,-785,3485,2324
-67,101,31,-88,1479,5524
-112,-3,-44,-3640,-2939,2350
-90,-102,119,-2566,-4640,1283
-63,3,-76,862,-2958,-992
71,-95,-51,-185,-2142,-3924
34,25,-95,495,1154,-4340
-17,73,-96,-105,2595,-3512
-27,90,-59,-367,3300,-997
-97,-11,-8,-819,3054,550
0,27,42,-1036,2308,1982
-72,79,10,-1443,893,3470
35,0,54,-2984,-1626,2562
-26,-7,69,-6103,-4850,-93
79,-10,-67,-346,-4025,-287
-36,124,-37,3367,-1773,-412
25,-10,-106,233,100,-4207
93,72,-101,2676,2167,-2897
84,51,-67,977,3563,-2465
91,68,-15,1293,3653,-136
28,-33,24,-56,1758,1326
107,32,-33,-548,96,266
74,41,-33,50,-506,1075
0,-67,-115,-127,-642,651
-29,-107,-78,99,-2040,196
-36,27,-125,840,-2999,1347
-64,-92,5,2050,-4234,1071
-113,-79,5,1034,-3467,3422
-85,108,-38,1111,-2528,4973
-125,127,-112,1625,-2463,5155
15,-49,-85,1108,-5653,2800
66,-27,-112,130,-4490,3866
93,26,52,1163,466,3220
-72,-52,-79,1449,1236,2016
-126,123,104,619,788,-140
-117,-18,37,840,-220,-382
-74,-48,47,523,-432,181
-67,111,29,959,-280,-132
-60,92,31,1118,74,-117
-58,111,28,232,290,41
-40,116,-5,-578,459,-357
-24,79,-29,-112,218,-181
-25,89,-34,-41,-111,239
-15,74,-42,393,-68,138
115,-5,104,-1916,2468,-6591
1,41,94,-2063,4096,-6380
86,-9,120,-2051,5374,-4458
60,15,-76,-953,5077,-1354
-53,-15,-50,-1257,3720,572
54,109,-123,-1124,1584,3443
122,92,-52,-3018,-1535,3186
16,73,15,-2145,-3866,3084
-116,91,77,52,-4015,705
91,7,25,1859,-3096,-1767
0,-124,-99,423,138,-5227
95,-124,-107,493,2366,-4964
-25,-37,-77,-840,3326,-3106
-14,114,-33,-607,3445,-1144
106,-21,99,-1443,2351,903
5,-48,72,-1074,1143,2833
-32,121,-61,-1899,-507,2895
97,61,87,-2833,-3136,2838
4,74,-66,-982,-4185,2359
3,-106,-39,803,-3335,1185
97,-16,-77,1256,-2308,-1800
-22,118,-120,1363,-624,-3076
42,-51,-108,1214,1972,-3284
119,-91,-73,724,3126,-2858
-95,-2,-31,-90,2532,-1350
33,105,15,-1031,1900,-1328
-24,105,-16,-480,808,33
84,15,-75,-322,-241,797
-43,-97,66,-188,-5,55
55,-45,-113,242,-386,824
-37,-33,39,-225,-145,114
50,-115,54,147,91,73
29,22,-53,240,-897,178
-45,-71,41,800,-1656,1298
-25,-116,21,1123,-2202,1867
-60,-109,65,2441,-1508,4393
50,102,-84,332,-1230,5740
96,2,72,-622,-3461,5753
-61,-105,74,-1385,-3719,4136
-14,-79,20,-428,-5007,2983
-102,27,71,2315,-1449,3164
-127,21,-30,2679,1439,2245
-32,-9,-107,806,336,1179
73,-78,91,-946,-830,-758
-84,-38,81,1895,536,-407
-28,-85,65,570,877,-95
-30,101,62,325,-168,1270
-20,37,36,528,-291,1372
-12,76,12,-303,398,501
-23,-126,-16,-892,300,516
-116,73,25,-3512,3512,-1139
-120,113,-33,1207,3192,-1999
99,14,-117,-352,2757,-4559
-39,-10,-119,-2546,3886,-5308
36,77,-94,496,4625,-4731
-49,-42,-79,-780,4003,-5044
-92,19,-44,-2022,3767,-3792
43,-88,-8,-569,3260,-907
66,98,-107,-601,3176,1256
-108,-51,91,-1066,3162,1447
76,123,49,-192,-249,4246
125,-102,-103,-2007,-1899,2126
10,60,16,-1687,-4107,2800
123,-49,94,92,-3155,-549
26,-62,-27,1082,-2273,-1173
12,102,-95,574,661,-3569
114,72,-95,794,1671,-3624
-98,-12,-63,-122,2477,-3139
120,-71,-26,-1,3347,-1482
-72,39,-67,-548,2723,288
59,-2,-51,-567,2027,1672
122,106,-128,-1250,1133,2804
-93,41,-51,-2474,-641,2502
111,-3,50,-1759,-3664,3012
-60,108,31,-812,-3689,1409
119,108,91,640,-3151,10
104,-123,-70,352,-1881,-2249
16,59,-103,1134,139,-3395
-79,73,-97,194,1499,-3355
-57,-3,-63,704,2677,-2282
50,-94,-27,451,2742,-650
121,76,-45,-359,2784,491
-50,71,-68,-533,1909,1245
-48,32,12,-1364,352,294
-118,-54,-21,-864,-455,247
-1,-116,75,312,-1034,528
19,100,119,26,-1577,243
92,103,-83,127,-2076,555
86,45,-123,978,-2804,1338
66,-37,122,848,-2304,2708
6,-40,-25,332,-2650,4997
-46,-99,115,-505,-3611,4976
-14,65,114,-399,-3235,4459
-36,91,-118,976,-4797,3778
107,18,75,1789,-3774,4175
-64,32,-73,1264,81,4740
-39,25,104,-405,671,1085
123,-105,81,102,-247,9
-85,-23,29,1422,-231,-869
-81,-120,21,2381,-74,-1606
71,55,-124,-1144,1730,-6643
87,-64,39,-1844,2027,-6601
-93,96,119,-2135,3548,-5873
72,119,-110,-2343,3503,-3388
-83,-5,-77,-1332,4446,-564
-113,105,-90,-898,3935,3039
-48,32,0,-1655,-155,2830
-15,-124,-102,-5054,-4978,2757
38,-14,98,-486,-4657,1968
119,46,-90,1459,-3328,1617
-65,-70,-85,790,-1205,-4441
-26,39,123,2073,1258,-3859
127,-16,-120,-37,2703,-4591
22,-18,-83,209,3425,-1647
122,-57,-41,-1153,3247,128
123,-41,112,-1744,3301,1780
57,112,-74,-1974,-112,3742
-58,-18,-90,-3995,-3666,2223
-35,-45,-121,-103,-3162,2098
112,14,89,1027,-3006,365
2,-71,-36,398,-911,-3122
53,55,-100,1200,801,-3994
-120,-74,-80,501,2497,-3343
118,-8,-31,298,3317,-1144
-105,-41,102,271,3087,1630
-88,-104,-45,-1577,498,337
58,49,-63,-1829,-697,-645
97,116,-113,1181,-331,865
7,3,56,-358,-233,255
98,-102,75,-289,64,-98
76,40,-124,-129,-1527,845
-18,-39,-18,284,-2881,938
54,-105,-25,68,-2219,1682
-72,-25,-125,45,-2900,2321
32,-43,121,-251,-3131,2860
89,72,92,-1295,-2668,3367
60,-83,77,1441,-2733,4462
39,-112,97,1654,-2868,3201
55,-40,71,2493,-2568,3460
-47,119,-65,2896,-1106,3195
-1,-115,-80,498,1201,664
-105,19,85,1366,-442,177
-28,10,88,944,-192,-76
19,-94,69,873,283,-277
43,95,80,1197,-180,-99
-67,111,109,-139,-571,595
-47,-96,98,-1293,-425,567
36,127,20,-282,399,359
36,104,-8,534,-191,24
-32,-98,48,-773,-855,840
-100,54,111,754,2677,-4981
-36,-99,105,-188,2957,-5613
10,-7,109,-1113,2958,-5062
-1,-8,124,-2229,2375,-3066
-84,18,108,-1608,3358,-1770
14,108,-34,-732,4189,573
69,-75,-56,311,1851,4581
10,-34,95,-1552,-1110,3253
22,31,93,-3438,-4680,2278
-74,-63,-60,4,-4182,-401
15,-8,-38,1714,-2323,-2261
79,-115,127,-660,1010,-5380
38,23,-122,1676,3558,-3000
89,-70,-93,-391,3680,-2027
60,-101,-44,-2327,3002,567
118,70,124,-2878,2230,1867
-80,-60,33,-1545,-363,3293
0,-118,62,-3306,-2989,2587
77,44,-77,1416,-3962,675
-3,-8,3,1354,-3031,-230
95,-28,-72,828,-616,-2821
34,-119,-99,1130,1429,-3021
-30,-106,-73,1512,2669,-1878
-75,18,-33,2473,2273,-683
8,7,72,-1679,2431,-124
20,126,66,959,1825,903
11,-13,-1,308,-450,1883
-62,22,-100,-1604,-28,-122
-116,72,-62,154,-458,349
90,32,31,-235,-298,298
68,-120,47,860,-47,175
-38,-100,44,-1274,-201,-508
119,88,20,-712,-2581,978
4,79,-97,-1556,-3377,833
-38,28,97,305,-5192,2043
37,-102,-64,-190,-4735,4798
52,-97,120,1339,-5183,6538
109,121,-112,667,-5836,3384
-126,-4,-38,-888,-4236,2436
-19,2,100,3583,-2445,3135
64,20,-56,2860,26,1466
-69,-79,66,904,1049,-363
119,-49,48,2200,245,-1867
-43,-60,45,327,147,-1517
-65,-85,79,-1507,472,19
-120,97,40,-431,116,159
-45,120,-57,288,1009,673
-81,-109,-42,140,156,268
-59,-106,-30,-105,-42,194
-72,-68,5,-705,-651,621
122,-10,-109,-1044,3039,-6658
-34,65,109,-968,3876,-5782
-60,-126,124,-1153,4605,-4421
-76,99,-94,-692,4724,-939
33,-90,120,-618,3375,2017
117,-34,-39,-2625,103,2126
-65,111,125,-2533,-3573,2373
98,-117,71,-455,-3667,1357
2,118,71,1623,-2678,-826
-16,-87,-73,1005,-1545,-3791
-30,-37,-126,1090,1903,-4290
-115,-8,-113,94,3322,-2732
20,-121,-69,-784,3450,-959
123,116,-62,-2084,3341,1002
51,-77,117,-1781,1547,2510
50,-2,124,-2697,-1238,2449
-3,-61,55,-3621,-3413,2537
-123,4,-69,265,-3689,1511
-81,69,-93,1735,-2583,-4
20,-54,-73,509,-888,-3077
46,27,-96,1775,764,-2794
111,33,-80,263,2535,-2970
106,-44,-40,647,2933,-882
-86,17,9,-965,2966,-11
28,-28,47,-913,2344,583
44,21,8,-1553,325,1194
-112,44,-67,-356,-492,596
-69,97,63,197,-472,-59
71,106,-64,382,-1019,753
93,19,-89,-272,-1781,1348
-22,-115,3,-717,-3220,891
6,22,-60,-67,-4209,3451
-8,93,37,431,-4082,5233
-55,-63,87,-81,-5476,6264
31,-105,123,24,-5111,5542
96,-23,-74,532,-4233,4554
81,70,-81,3031,-2331,2980
-80,-98,3,771,-441,2497
-43,77,-112,-734,69,695
111,14,30,1189,417,-1945
-116,-103,-2,2674,497,-2435
-67,-119,-1,1480,408,-1226
-54,-106,19,-451,372,185
-88,-105,13,-1730,87,602
-76,-118,-29,-1046,-159,657
-40,-106,-36,-272,-142,225
-19,-80,-33,-223,-32,-97
-21,-70,-31,-185,40,-47
-19,-89,-35,19,132,-141
-4,-90,-50,239,170,39
93,8,-3,-1590,1020,-5550
33,-50,-44,-1433,1600,-5626
20,-126,114,-215,2461,-6287
45,64,98,-2262,2668,-5223
111,-91,120,-2396,3327,-3682
115,43,99,-1565,3818,-572
99,33,-128,-1701,2927,858
4,56,1,-817,888,4251
-39,57,-125,-3213,-2864,3385
7,119,-89,-1498,-5288,1758
41,64,104,526,-2978,-897
-51,-59,-77,1960,-1018,-2491
-62,78,125,-75,1363,-4585
-24,-82,-126,68,3102,-3623
127,-18,-84,-1452,2695,-2401
-16,32,-75,-2375,2730,-112
56,70,28,-1503,2518,2142
-5,-88,-36,-1580,1358,3532
-29,-72,80,-2652,-1379,2945
17,53,54,-3327,-5209,2011
81,-96,-41,-226,-4314,392
-11,119,-43,1642,-2464,199
-44,-122,-118,1603,-268,-3193
23,27,-122,2033,1379,-2962
26,-14,-86,433,2352,-3299
49,-48,-50,1161,3196,-1972
-78,77,-5,-376,3006,-891
31,-11,83,-795,2332,426
36,-62,33,-890,503,1353
105,87,-45,181,-511,870
-6,82,101,1409,-934,1160
20,-51,-111,-321,-2221,483
-32,43,76,33,-1890,1220
-123,-91,-6,233,-2958,2530
-51,-109,5,-461,-840,2485
111,17,11,294,-1856,5368
98,-112,-97,485,-1907,4753
50,60,119,-1397,-2100,3428
-3,-96,115,390,-1785,2376
-109,-36,-125,260,-2877,2355
-64,125,55,1568,-3025,4319
-26,63,-99,2475,-3828,5737
17,43,118,1184,-1511,2713
-120,20,95,-650,-475,-372
-119,-76,41,-149,754,-1996
-77,-115,17,249,1345,-1810
-73,111,2,288,734,-1249
-80,105,6,195,-245,-171
-67,103,2,95,-380,151
-42,118,-4,-638,59,-160
-70,9,41,-1792,999,-5413
81,-29,52,140,1178,-6584
61,111,-86,-2140,1316,-6796
-37,-16,53,-1522,1686,-6417
49,-109,-119,-2514,3005,-4512
2,90,-104,-598,4293,-1400
115,50,-26,-317,4302,-50
42,-95,-6,-845,3132,3354
-16,-74,-111,-2578,97,3122
124,60,100,-3008,-3609,4488
109,23,-108,-504,-3751,4258
42,78,89,-958,-4144,-882
66,-128,-80,485,-2573,-3503
17,-107,120,387,-165,-4491
-2,116,122,652,2569,-3391
17,109,-107,-256,3540,-2275
-44,-42,-63,-751,3080,-570
-108,46,12,-734,2668,1382
-39,-33,43,-333,1837,2842
61,-95,30,-1840,-23,3396
-107,-18,50,-3142,-4135,2713
-92,-71,100,-1161,-3773,1870
51,-20,-105,883,-2730,-323
-70,125,-86,77,-1022,-3124
121,40,-116,1113,445,-2991
-44,-33,-92,397,2278,-2524
-111,127,-61,-391,2819,-2733
62,67,-19,-805,2944,-1900
-40,68,68,-1465,2230,-955
-37,21,111,-890,730,780
-118,18,84,-1114,563,697
-119,-107,103,-563,-405,809
42,50,-56,-345,-706,708
20,59,32,-79,125,-265
15,-21,26,183,18,-20
69,-111,-1,16,-56,-5
-119,81,-33,-173,-667,171
31,43,-86,-247,-996,532
-94,-18,85,339,-1639,834
-124,-51,73,481,-2435,2114
62,-34,109,170,-3112,2465
-15,96,22,-677,-3668,4195
-78,23,103,-1422,-3487,3749
-106,74,79,-849,-2187,2908
-86,-25,83,115,-2431,2862
-65,-21,98,-712,-2764,1969
-89,114,96,565,-4912,2363
-28,74,-59,1494,-5169,3421
45,86,127,1371,-1837,2105
-67,86,119,532,889,64
17,-84,121,-1557,3318,-5497
42,-7,-121,-1087,3545,-4906
47,96,-94,-2247,3595,-3731
108,-105,-36,-1291,4035,-1000
-124,80,0,-1429,3125,1123
19,26,-59,-291,1100,3224
-54,77,55,-3512,-1795,1902
34,75,98,-1793,-3469,2274
74,105,-39,-542,-3769,2270
-100,-125,-27,1103,-2214,-4
-125,18,-85,806,-1134,-2397
2,87,-112,940,833,-4079
-63,-66,-96,156,2678,-3438
-8,68,-60,-119,3262,-2013
22,-17,-1,-1115,3406,-287
-10,-62,40,266,2707,3170
-49,40,-18,-2228,175,2995
82,-26,126,-3180,-2343,2546
50,117,-84,-891,-3500,2461
-51,-79,-27,679,-3256,448
-24,-97,-79,699,-2502,-1899
42,4,-101,1629,-877,-3243
39,124,-93,1107,1484,-3204
34,-36,-67,375,2720,-2291
120,-15,-14,-76,3120,-1633
-31,-84,11,-1208,2524,-412
21,99,24,-1685,1883,-417
87,30,-42,-2243,974,203
105,25,-45,-179,-438,1251
125,-101,119,454,-580,-279
-53,38,1,153,-901,-48
3,109,93,425,-726,-74
46,6,-41,-408,-1553,1024
-86,106,86,195,-2146,1244
-1,125,107,-163,-842,1569
-82,3,-31,3,-1327,2393
46,-29,113,-496,-2063,3546
-91,-100,-125,-496,-2181,2603
27,-73,100,-846,-1941,2185
50,7,91,-13,-2165,1919
112,116,85,105,-3188,2896
-104,41,42,953,-4033,3488
-106,-73,85,-1046,419,2353
-67,115,10,1477,-1141,2954
-46,-127,-29,814,-909,117
-71,78,-102,40,-1433,719
-43,-37,114,1268,-1263,1222
-57,114,77,3546,-2087,1603
-50,34,60,4161,-1867,471
-61,115,108,485,11,-744
-106,101,-3,-3847,3773,-787
-20,112,-90,134,584,-2597
-107,-128,-56,-1100,2958,-4398
117,-83,-95,508,3237,-5343
-121,-75,-114,262,3545,-5564
-80,-7,-125,18,3832,-5000
106,-44,-115,-460,3996,-3971
19,-68,-90,-396,3698,-2020
8,7,102,-1216,3302,-439
67,50,-63,-1157,2087,1228
-26,-20,124,-2022,-1057,2856
-67,106,-37,-2562,-3549,2196
-122,105,-60,-675,-4327,2259
-34,89,21,755,-2960,520
19,-14,-105,707,-1068,-2992
-52,-27,120,1246,761,-3419
127,-115,-127,516,2677,-3160
-94,58,-97,275,2945,-1948
-116,46,-72,-461,2963,-787
65,-20,-29,-408,2906,968
-76,-13,34,-841,1421,3292
-67,-7,92,-1958,-862,2332
7,10,26,-1720,-3655,2616
-52,71,46,-806,-3791,1183
-1,-93,97,507,-2753,-1020
-15,-63,-89,493,-999,-2418
8,-102,-122,1563,1243,-1943
118,3,-98,543,2273,-2186
-66,32,-50,121,2909,-1476
111,-82,-26,-591,2837,-808
8,51,-128,-699,1587,369
-9,-11,-27,-762,54,482
55,-107,24,16,182,541
66,-33,-105,126,-399,545
50,-68,-10,-258,-316,158
-126,89,33,-224,-525,265
86,-1,-90,-30,-1438,865
117,-35,125,542,-1586,1261
101,11,-114,-212,-1655,1840
6,30,-46,-49,-1826,2742
-42,-117,36,-1,-2690,3398
-71,-25,104,-365,-3146,3225
-111,-26,99,251,-4293,3125
-32,-7,101,613,-3629,3714
65,-39,41,1540,-2248,2636
57,28,15,475,-1129,3044
-23,-100,-83,1762,-731,2526
-59,-127,-106,1117,-198,1166
-73,89,92,261,-203,1002
-70,-27,48,702,-151,420
-3,-103,18,-1270,2386,-5026
91,38,83,-1777,2459,-5391
-77,28,-2,-1673,3399,-6098
35,15,-124,-2001,4045,-5705
105,-12,-109,-1545,4268,-3034
62,-6,105,-1077,4688,-1036
-114,-85,-2,-66,3394,2725
-53,109,-117,-604,-549,2679
112,-19,-124,-3050,-3296,2983
-3,104,1,-177,-3624,3174
110,10,49,-160,-3013,806
98,-52,-72,421,-1189,-2253
39,96,-122,462,236,-4192
-19,105,-120,192,2509,-4060
103,-102,-82,34,3454,-2485
-26,-82,-44,431,2690,-662
92,-103,-37,-240,2652,993
-112,-22,107,-2283,1970,2180
-68,31,-92,-1693,-209,3184
-119,-55,3,-3205,-3328,3175
61,72,-42,-983,-3052,2378
14,-69,79,762,-3110,574
22,-107,-73,740,-1759,-2174
-118,95,-112,822,-379,-3131
-6,32,-102,398,1030,-4110
-10,64,-92,-254,1745,-4010
-50,-27,-67,-175,2267,-2097
5,-63,114,-152,3186,-178
-67,-68,-101,-76,2294,1921
66,53,-4,-1415,-88,1153
-67,-28,59,-1740,-98,953
118,71,-40,352,-41,509
87,49,53,-122,90,586
-124,-114,23,282,-10,-179
2,70,-3,-539,-313,469
-99,-69,125,-7,-1216,995
-17,-63,33,-411,-2082,1556
-35,-58,52,-423,-2611,2492
121,-93,-112,962,-1788,3103
20,-10,-100,-900,-2394,3922
-48,-19,101,-1794,-3887,3240
-16,-124,88,-40,-4739,2563
6,64,118,330,-4558,2730
61,14,60,652,-1101,4232
-15,95,-112,3303,-1098,3796
-11,105,-94,991,-262,1522
-82,21,94,752,-1198,529
-107,-30,69,600,-1795,32
-81,-91,76,1614,-1132,-617
-66,124,54,1326,361,-1319
69,29,-118,-1058,2857,-4401
38,63,-101,-649,3581,-4407
41,-81,-111,-845,4749,-4471
-57,85,-88,-1077,4341,-2972
-57,119,-51,-840,4399,-913
-19,-29,59,-781,3577,157
-124,-104,23,-1193,1922,2790
-83,56,-124,-1781,-698,2504
110,-21,42,-2400,-3158,2094
83,112,-6,-841,-3967,769
48,-7,-120,1069,-2812,-98
46,-52,-44,1362,-856,-2609
14,-79,-115,1755,133,-2593
44,124,-112,723,2015,-3114
51,56,-69,-73,3156,-1895
56,-66,-28,568,2915,-1073
32,-64,111,-1507,3143,-359
-127,64,107,-1085,1739,1655
-68,89,46,-1495,851,2789
-120,0,-27,-2582,-1646,2579
50,46,-3,-2088,-3218,3664
86,85,102,-1121,-3574,412
22,-55,15,-204,-3696,-1444
22,79,-88,1276,-1939,-2392
-15,-42,-117,1210,636,-3065
112,-77,-103,1089,2073,-2381
-120,99,-71,349,2457,-2332
112,-63,-27,-209,2578,-1434
-97,62,-89,-419,2438,141
1,101,-113,-966,1673,1045
-81,32,-124,-1015,-131,866
-54,-66,8,358,-445,1249
78,-7,-113,-80,-400,186
4,-38,29,-180,-162,320
97,70,52,-126,-483,324
73,-44,-85,-1018,-1235,482
0,99,6,-432,-2444,1958
37,-127,-14,-452,-2635,2598
-7,-54,42,-96,-3626,4040
83,8,69,-886,-5444,5612
8,92,101,463,-5261,5261
48,59,-118,87,-4552,3537
85,33,-50,-1467,-4432,2373
-98,-55,72,203,-2220,2265
76,112,-61,4705,124,1888
-57,86,-124,-1518,715,711
-117,117,38,-1158,477,-765
-102,-57,3,2272,62,-1646
-111,-97,14,2636,-455,-1375
-93,-99,40,1312,-116,-225
-25,127,-118,-1585,2634,-5118
-127,27,-101,-1325,3500,-2989
-22,119,-59,76,4133,267
-44,107,28,-14,3889,1999
76,123,96,-838,1144,2899
-69,-16,106,-3990,-3213,2247
15,98,9,-1227,-4766,2470
40,-51,101,691,-3132,-1233
-32,-58,-83,1364,-1679,-3379
-30,91,123,856,514,-4119
-27,6,-125,433,2844,-2937
32,-73,-97,-37,3102,-1000
-4,-88,-56,-51,3382,395
-128,-53,85,-685,3394,2051
-42,36,-125,-2026,1920,2946
-26,69,20,-3667,-2462,3073
-36,4,-81,-3491,-4330,2484
-120,-84,29,389,-3196,591
21,-78,74,1071,-3414,-913
58,122,-96,660,-929,-3329
64,83,-111,969,866,-3754
71,-1,-96,786,2631,-3229
123,-60,-49,81,3284,-1760
-61,98,-24,-497,2728,-500
-8,37,-23,-620,2229,320
-76,-12,54,-2129,759,215
75,-97,-15,-1437,-169,916
-43,46,30,63,-293,389
-27,6,113,63,-864,640
121,30,-121,-338,-1638,882
-69,-81,91,-652,-2094,2150
-82,95,55,120,-3002,3736
-95,-26,-98,1061,-4216,6048
-51,-52,114,-330,-2192,5486
-81,103,117,-980,-2028,4505
-111,99,114,-220,-2392,3006
-108,57,-124,-289,-2292,2089
101,-34,19,310,-1987,2629
42,110,-117,2396,-1394,2412
-43,79,92,1779,-780,1454
-60,46,99,168,-792,725
-65,-14,60,-207,-699,203
-64,-82,25,298,-128,-356
-60,-95,24,-50,299,-821
-51,-117,13,-731,570,-914
-43,114,-13,-446,427,-438
-20,97,-41,-42,226,48
-17,100,-61,583,-12,-74
2,-111,-61,127,213,-177
13,-89,-65,-703,169,-110
75,60,32,-170,2862,-5149
33,-12,-124,-687,3009,-6304
36,44,119,-1198,3162,-5545
-4,34,-116,-1919,3204,-4632
-37,-12,-68,-1279,3605,-1908
65,-8,-86,-507,4258,365
-6,-36,-126,-1256,3246,3598
102,-105,65,-1465,-92,3624
38,117,-15,-4285,-3605,2788
75,1,-104,-1379,-5652,2387
-28,85,-36,880,-3085,-144
-31,-81,-93,1431,-1289,-2807
-24,51,119,1293,-47,-3994
124,37,123,290,1800,-4542
-55,-123,-102,156,2847,-2678
99,-38,-70,564,2585,-672
-21,-36,119,363,3165,769
-125,15,11,-1439,2805,1506
59,11,71,-2965,1246,2881
117,106,16,-4216,-2307,2766
-85,1,26,-2281,-4923,2697
-11,-54,11,262,-3506,271
-60,-46,-54,1129,-2101,-2730
-8,66,-122,765,-368,-4863
118,31,-118,2227,1840,-3468
-28,44,-82,-153,2650,-2781
125,-123,-47,180,2884,-966
-32,-115,-91,-1214,2096,154
0,-65,-118,-1202,1626,655
106,-87,-65,-2406,-358,250
-56,-14,-10,-795,-365,459
-75,-52,-121,92,-348,880
-19,107,-90,-98,-1233,1194
59,-33,124,489,-2660,1753
-94,-19,87,-95,-1680,2213
68,33,-74,26,-2058,2798
12,-50,19,-253,-2668,3138
-20,34,113,-384,-2283,2774
-77,61,95,-380,-2274,2767
-73,-22,90,574,-1695,2496
-84,-49,98,-75,-2116,1736
-58,-119,71,-145,-2509,1646
-35,60,29,917,-2324,1718
16,114,-32,647,-1365,2039
-14,89,-106,1007,-1100,1883
-77,58,114,913,-1858,2118
-77,4,91,-75,-1851,1498
-61,-53,72,-86,-372,-64
-65,-113,45,1007,648,-560
-62,-108,3,362,1003,-840
87,95,-114,3204,6078,-4944
105,-64,68,3,-1308,-4067
67,2,102,1107,71,-6174
37,118,-33,189,-160,-6981
112,-32,-100,-138,674,-6937
-41,-61,125,-1915,1843,-5222
-95,-85,-107,-1347,2689,-2288
27,92,-114,-1189,3635,-538
-39,-41,-127,-970,3272,2580
35,68,34,-1888,-535,4733
-22,32,62,-4874,-4272,4429
11,113,45,-1942,-5093,2889
-66,50,125,506,-3570,-1643
-62,106,-108,1203,-1556,-3615
-59,44,109,500,585,-5195
-25,29,127,701,3639,-3410
-126,12,-89,194,4097,-1888
84,-9,-85,-394,4200,598
103,-26,-103,-1193,3030,3490
14,-107,57,-3509,-1167,2974
15,-67,25,-3272,-5120,3732
-67,-14,29,-418,-4520,181
36,-44,-105,2380,-2958,-884
-52,125,-100,-375,-943,-4881
15,-121,-110,2019,2301,-2689
78,-127,-80,-67,3124,-2283
126,-9,-42,-1278,2702,-1004
-125,74,31,-1203,2951,-636
44,48,-92,-1847,413,224
-101,-61,-103,206,216,394
49,-66,21,-505,-189,734
41,34,50,-1062,-1626,1242
-123,-65,-71,-1323,-1764,2570
-90,-16,-61,-619,-1801,2820
-108,-120,-30,-445,-2178,3388
72,4,67,-978,-2083,3045
92,119,118,-1391,-2027,2295
-6,125,84,-82,-1947,2522
-80,79,80,-367,-2043,1099
-102,-29,78,-516,-2407,1080
-47,117,75,671,-2490,2162
-38,60,33,2146,-2963,3153
23,-95,-21,707,-2322,3525
-3,92,127,515,-2256,2636
-30,38,73,89,-1754,1311
-71,-50,14,-78,-375,-618
-65,-87,6,494,729,-1055
-40,-110,-23,734,880,-612
-51,-121,-30,702,289,-156
-45,-119,-27,372,-107,7
21,108,7,-3973,-3549,3105
112,29,123,-945,-5558,2609
26,-113,-110,-412,-3710,-1092
-63,-71,-101,1251,-1413,-3418
-64,40,106,1363,1049,-4085
-111,97,122,777,3586,-3436
86,-81,-79,-40,3884,-1889
0,70,-29,-1264,3472,-363
-78,-34,-7,-1916,2597,1549
-56,80,-72,-2780,501,2647
-82,62,8,-2834,-2614,2598
-5,11,-73,-3058,-5818,1942
40,-82,76,554,-3998,592
119,-11,-95,1256,-3085,-1308
-102,57,113,1076,194,-4105
71,-105,121,1241,2002,-3694
-117,-122,-106,141,3039,-2949
-90,107,-54,69,3229,-1308
-41,94,-41,-1130,2881,-341
4,107,4,-792,2021,953
-53,126,-35,-1981,367,466
80,-58,-58,-166,-123,1163
-124,16,123,19,-386,478
78,-38,-36,-224,-706,432
120,-116,48,-298,-360,418
118,-5,-78,126,-961,783
-53,-82,101,-381,-1192,1360
-31,-116,77,-126,-2316,2338
-59,-12,-80,-369,-3516,3881
-118,-83,73,-423,-4052,4596
19,99,102,-78,-4234,2596
-18,121,102,-507,-4039,3325
40,73,-123,979,-2224,4044
21,30,-85,1407,-1197,4073
-7,22,46,995,-1132,3102
-60,-102,-104,372,-1609,972
-83,-5,70,1056,-1525,-345
-74,-47,58,821,-679,-1041
-58,-49,58,-957,455,-1041
-51,-82,17,-1353,854,-555
-64,-112,-3,-499,183,24
-57,-97,-8,-877,-127,182
-42,-111,-19,-36,36,155
-21,-107,-31,685,140,43
-15,-78,-40,488,44,150
-10,-52,-49,83,61,218
1,-91,-68,925,-109,158
17,-48,-54,-168,51,104
20,-62,-58,-328,143,-174
33,-82,-67,-159,206,-13
-98,-123,73,-1198,2088,-6014
-32,46,125,-590,2904,-5420
-64,-112,-112,-1636,3222,-5345
-121,97,-78,-1288,3852,-2796
111,80,-59,-427,3967,-1332
-60,-2,-126,-1732,3829,1069
95,-59,-2,-678,284,4850
-3,68,8,-4136,-4391,2978
-15,-12,30,-36,-5892,2610
91,-85,-19,392,-3942,-1811
-75,-34,-82,-252,-385,-4993
36,21,-115,645,2892,-3647
-77,90,-87,-560,3705,-1939
61,93,-31,-552,3014,-194
123,46,88,-2497,2992,777
-93,-54,-125,-1316,1295,4150
-85,85,107,-3002,-3002,3483
-71,1,94,-1137,-5211,2459
115,50,-114,1307,-3546,607
96,-43,-61,1063,-1860,-2607
23,90,-117,263,-93,-3972
5,32,-112,-95,1580,-3659
101,83,-87,-739,3939,-2070
-12,76,-20,378,3586,-182
37,119,89,-939,3193,961
-17,-35,60,-1816,1568,374
60,123,-24,-1227,-446,1229
-45,-113,-126,379,-309,646
-84,-35,-54,-307,-741,568
6,114,-27,-276,-1068,196
104,21,-78,289,-1216,824
-53,0,-106,512,-1692,1519
-95,49,-72,-114,-2211,2267
99,54,23,136,-2387,3058
-16,-8,-109,-654,-2969,3961
-67,15,98,-551,-2642,2477
-57,34,83,-704,-2108,2928
-50,-25,89,573,-2385,2724
-81,-23,102,544,-3032,3777
20,92,29,2443,-1468,1229
-12,-117,-26,1254,-1603,2092
-57,15,-107,1406,-1384,1116
-71,-77,-109,1105,-981,-34
13,-67,-99,-21,883,-548
-26,-58,74,-257,469,310
-46,-123,55,1092,28,161
-15,124,41,863,534,-601
-2,95,27,128,391,-878
20,94,17,-211,244,-51
34,112,11,135,96,560
-75,-109,119,373,3613,-4890
-3,5,126,193,3566,-5007
-30,-127,-107,-806,3700,-5252
-102,82,-50,-1869,4416,-3159
-22,115,-7,-1641,3493,-459
-6,93,-77,727,3541,900
-91,40,-58,-787,3055,2410
47,72,117,-582,-412,3389
-109,107,-7,-4020,-3944,1002
-128,-119,47,-253,-5647,1601
-39,42,12,387,-3382,-358
-6,-59,-86,390,-227,-4043
32,91,-101,1771,1961,-3371
75,-85,-78,1048,3340,-2246
-56,-4,-23,575,3751,-924
70,42,-115,-832,3717,1581
107,25,66,-572,2220,3179
-98,74,-78,-3468,-817,2873
-128,88,-63,-4176,-3356,2405
-3,-128,32,-1876,-5134,2509
116,-46,-93,-205,-3776,-819
-6,-91,123,610,-2871,-2597
51,-58,102,1625,-200,-3162
-66,98,119,1638,2035,-3238
80,47,-98,807,3194,-2173
-20,112,-57,370,3368,-1140
51,-64,-91,-354,3336,-388
67,-93,108,-1503,1389,415
-46,-81,-83,-2700,180,-1257
26,-25,74,7,-387,966
-94,-49,2,-100,39,49
-121,-63,95,-328,311,186
-95,105,49,336,-321,533
57,16,-42,577,-543,635
-124,-98,75,1068,-1844,-34
5,-50,23,-531,-1582,2412
-61,-11,-81,-1042,-2239,2193
-106,-108,91,-762,-3171,4120
56,58,113,-555,-2664,3236
-93,68,82,700,-4762,2131
-66,-47,105,2272,-5588,2200
122,3,85,1986,-1427,2982
36,-42,-59,3511,558,4142
-77,63,41,4061,-808,2940
-113,74,90,-11,-1255,532
-90,8,66,-1415,-164,1060
-99,96,15,213,-18,376
-122,76,41,1386,-169,-96
-107,62,48,1698,87,-334
-64,104,71,-60,401,-365
-86,-66,26,-2583,4780,-2406
-111,5,-60,-257,3221,-2408
-107,75,104,-922,428,-5725
40,-79,-96,799,3240,-4682
-6,-18,121,30,3501,-6046
91,54,126,-1674,3528,-5548
113,30,-98,-723,4293,-2540
56,23,119,-385,3958,-422
104,111,115,-1258,2941,1792
-28,46,-73,-1200,928,3935
-33,-71,60,-2101,-1200,3627
-107,-71,-2,-2234,-5775,4807
69,-7,41,-1087,-4740,121
90,-11,-42,662,-3060,-2159
-7,95,102,365,81,-5708
-77,59,101,1132,2866,-3984
33,63,-122,36,3779,-3153
-97,-47,-79,-645,3032,-1119
-59,-108,25,-1879,2844,427
53,94,19,-1163,1813,1887
119,-18,14,-2817,530,2247
-78,-23,-21,-1570,-946,3103
119,-60,-31,-2609,-2863,3310
37,18,-72,-1088,-4542,2586
-5,21,88,287,-3915,-1164
122,-92,-117,962,-1636,-2822
-60,57,-128,1368,1073,-4525
36,60,-105,867,3594,-3690
-48,-84,-57,37,4341,-2054
-3,27,-58,-872,3530,564
106,28,-92,-1843,176,1162
-33,-59,45,10,-699,770
-27,-5,94,687,-436,806
-72,59,-81,1297,-1714,640
-45,-75,-91,561,-1311,1544
-6,114,-33,842,-1856,2731
-81,57,99,-192,-2101,3500
50,24,-19,-111,-2015,4015
-77,-79,-123,788,-3227,3506
3,-75,60,-323,-2880,3395
18,-54,-14,1985,-1953,3217
86,-106,-74,1012,354,3177
14,102,-123,2361,31,3557
-3,97,106,2300,-1069,2858
-52,-82,73,-1806,-928,920
-70,-47,11,639,101,263
-75,101,5,1892,872,-228
-58,90,8,1508,812,-118
-29,66,13,834,365,120
-14,23,19,445,-144,49
111,-113,0,-3474,2195,-2619
71,55,-120,-284,1803,-3727
-42,119,49,-314,1483,-4933
-64,61,-123,684,2410,-6168
-57,-88,112,-297,1790,-5842
27,34,112,-1600,2039,-5649
-8,55,58,-2613,1942,-3936
-10,83,-100,-1393,3416,-2472
27,-92,-98,-348,3991,11
-87,37,127,-1202,2799,3255
88,8,102,-768,186,3846
18,2,117,-3633,-3889,2303
-74,-76,-7,-287,-5054,1821
-127,44,43,1092,-3872,-435
-99,-123,-71,894,-579,-4282
-34,-16,115,489,1904,-4734
-39,34,-107,-544,3870,-3105
-39,56,-57,-1292,3804,-367
-62,126,77,-1152,3677,1302
19,7,82,-1910,564,3765
119,-48,-117,-3552,-3119,2343
-98,-15,-60,-1880,-4468,2153
-102,86,-33,497,-3869,1549
85,-46,-63,1057,-2770,-753
-30,-85,-126,1056,-477,-3337
19,-49,-119,1120,1970,-3808
-81,112,-84,944,3307,-2544
34,-120,-34,607,3568,-1353
103,-20,93,-755,2691,243
-86,-24,-26,-334,1043,1108
-34,26,-127,-535,-171,1292
-77,-43,64,-29,-236,994
84,33,-107,18,-798,538
90,-109,21,-228,-253,-41
53,-60,-97,403,-1306,847
-73,118,101,-157,-1015,1320
-84,-104,103,-1138,-1340,1739
72,-44,-58,-508,-1839,3203
-2,26,89,-88,-1685,3810
-80,37,-110,-1397,-2393,2074
77,92,100,209,-3205,2058
-115,-40,97,63,-2727,3212
-79,101,59,2545,-4067,4990
66,100,-5,4938,-2774,5269
104,6,124,5199,737,3662
-82,-82,15,4172,-53,2209
76,46,85,19,-1095,305
-79,-38,84,-3028,107,-733
-65,67,35,-1381,589,-861
-114,-9,-2,445,499,-155
115,34,-118,-6925,3690,-2026
-115,-125,7,-413,1912,-2430
-20,99,-51,-982,2005,-2726
-24,75,32,-1816,2219,-4840
-125,-55,-94,-891,2878,-5524
6,-9,-71,-243,2655,-5118
-59,96,-105,-414,2638,-4769
-26,-127,-113,-1178,3607,-3964
21,-87,-100,-719,4369,-1178
-29,-97,-105,-973,4859,876
-19,48,-92,-1264,3267,3142
-77,3,-6,-2593,-1331,2619
21,-78,69,-3868,-4992,2188
71,23,79,-1046,-5716,1708
64,82,-63,1309,-3482,-1908
103,-95,-127,1594,-113,-4602
-82,-32,97,2142,1981,-3042
34,-87,113,202,3257,-2838
-17,110,-90,-685,3665,-735
-18,45,-58,-251,3108,-20
109,-6,-82,-1763,2867,816
44,101,-64,-2315,278,3755
-88,-3,62,-3561,-3598,2865
-14,90,-126,-2397,-6221,1930
-21,-28,108,1987,-3077,1521
-69,-67,-120,663,-3133,-3049
-93,2,102,1260,-1036,-5220
-20,69,107,870,2244,-4518
60,36,-117,408,3834,-2947
-86,-79,-50,-89,4149,-827
-20,-89,-47,-1546,3028,-109
83,13,63,-2567,1495,1356
2,-79,-84,-4170,-291,-332
15,-98,-60,-818,-873,575
59,-79,-72,607,9,898
-54,-28,3,-250,-207,254
-13,-84,25,-121,121,49
122,87,-9,803,-705,524
95,11,-93,450,-968,960
-28,-102,47,798,-2026,1959
-2,-74,-4,-679,-3953,3420
-50,-87,80,437,-5158,5194
-27,91,61,976,-7428,5018
-88,-6,-97,1136,-10714,5374
84,-14,-127,536,-7118,5980
-74,20,-86,5999,940,2300
-91,-123,127,4884,3161,1194
-78,-102,75,-635,2387,575
-4,87,7,-1519,96,-1455
97,-106,9,2035,-562,-1867
-37,-115,-22,-3123,6464,-3840
-35,-86,113,-1548,3125,-4230
-14,122,4,959,1426,-2770
41,-106,71,-737,1566,-4759
-6,-105,126,-76,1796,-5971
-4,78,-104,-1986,3038,-5791
-3,7,-79,-1369,3766,-3738
58,77,-32,190,4805,-1506
-78,102,6,-637,4266,743
120,-83,123,153,1945,4085
113,-128,88,-2561,-2863,3935
-113,110,63,-1571,-5916,3702
45,89,64,-12,-4278,384
-11,-77,-30,1530,-2712,-2663
-61,75,120,-892,264,-5659
-48,30,127,322,3154,-3659
77,61,-96,-879,3973,-1546
25,-99,-65,-427,3973,231
-38,-21,-97,-668,3431,1817
43,-76,0,-2019,1613,3592
50,37,70,-3098,-1393,3948
-36,97,-87,-2929,-4953,4591
49,127,-21,-87,-3494,1040
127,-113,-4,532,-4104,-1646
49,112,-64,-278,-1937,-4297
-28,64,126,1380,1221,-3174
-29,93,-105,113,2792,-2988
-102,-98,-73,-448,3389,-1475
-71,40,85,-438,2783,75
-60,-60,-75,-1297,1049,473
125,88,115,-1110,21,562
61,-121,11,578,-240,979
-20,-99,-125,-191,-535,825
18,34,-87,-389,-593,762
79,8,-32,-782,-281,974
74,50,-91,-579,-1216,1652
97,122,-67,-302,-1229,2666
5,-57,9,-153,-1965,2954
32,80,-115,-621,-1072,3284
-83,-34,-121,-958,-1614,2766
-89,1,102,-548,-1940,2285
-68,-86,54,-409,-2808,2489
-32,14,-30,2080,-3685,3996
30,50,-93,2609,-3816,4723
105,-109,108,1251,-1330,3529
-62,-123,54,-525,-720,379
-22,-28,28,459,741,-866
-12,127,22,1446,850,-473
-41,43,8,2484,181,219
-60,125,46,325,133,819
126,-39,-90,-4722,3110,-2410
111,27,-12,-1556,6845,-5496
-80,-75,77,-35,82,-4146
-24,75,-29,-1932,772,-6678
-65,-104,-108,-1219,2782,-6058
-27,40,127,-815,4028,-5975
-103,-54,-113,-411,4600,-2287
52,-110,-97,-1648,4903,86
-73,-125,-20,-530,3676,3486
125,78,80,-1544,-1367,3948
-117,-116,39,-4241,-5118,1965
41,100,-42,-389,-4804,960
15,45,-39,1919,-2301,-2348
-78,-95,125,59,527,-5924
18,23,-128,1479,3253,-3146
-11,-38,-101,-301,3898,-1955
117,-13,-101,-1100,3788,1105
101,-41,14,-1728,1857,4053
-9,88,-112,-2630,-1777,3532
-62,111,69,-2315,-4751,2677
65,-17,91,73,-3609,778
-112,-23,-89,1285,-2885,-1799
-79,-124,-110,854,433,-4613
94,73,-117,911,2800,-3150
44,-107,-68,-975,3784,-1521
36,127,-41,262,4108,1154
-9,20,45,-1247,1116,1019
23,-6,-117,-35,-876,169
115,-19,-121,-531,-1845,940
-59,115,-30,912,-2268,2670
-85,-94,46,-1140,-3487,4629
-60,-8,-23,81,-2124,4832
-61,23,-109,80,-836,4072
125,-80,111,-362,-2755,2954
-103,-82,96,-1370,-907,1543
-65,12,72,-79,-4908,1779
7,-69,28,434,-3088,2179
7,-73,-77,1350,-2421,2134
38,-16,-91,732,929,2007
-32,56,44,2173,1014,22
-15,44,44,882,626,-284
-13,-36,27,326,47,-402
28,-96,43,-37,-112,64
30,-113,9,238,419,114
15,-127,8,921,416,121
66,127,8,358,269,-121
24,-124,24,-890,-105,67
110,118,-6,-273,263,37
86,91,-17,637,321,39
80,-116,-14,-109,207,71
122,84,124,-752,1691,-5960
61,94,121,-1704,3740,-4666
-113,-107,-113,194,4297,-2323
-16,-79,41,577,4710,690
55,-87,-45,-629,3016,3913
78,-105,-37,-1880,-385,3849
4,-61,-123,-4281,-4588,4193
-88,20,115,-552,-4016,-583
104,54,-57,1552,-3459,-2126
-104,111,127,441,365,-6299
-76,-91,122,806,3464,-3666
93,17,-95,-273,4205,-2025
-83,-117,-83,-1674,4041,685
31,117,112,-1287,2967,2959
-37,35,-15,-3110,-724,3772
-82,3,-72,-3625,-3827,4135
76,63,57,-743,-5028,2521
-70,46,-97,-45,-4241,-1674
-11,-108,-125,1606,-1707,-4265
-11,-3,121,1019,991,-4499
102,109,-116,404,3288,-4444
-59,73,-79,-636,3593,-2716
-48,-41,114,-169,4345,-61
-104,56,34,-1153,1796,950
-5,75,26,-925,-549,724
-103,114,-2,-453,-403,26
72,61,-106,560,-310,307
100,-14,-62,-1300,-412,-220
20,15,-51,-1406,-802,710
-74,-89,121,-954,-1389,1438
2,-48,89,-1526,-2679,2282
54,-31,91,-490,-3629,4164
-45,36,-57,-268,-5461,5189
-112,-83,83,-724,-6844,5407
-89,10,-128,1506,-9468,3083
-21,101,7,5034,-5279,2396
40,-15,-40,4811,3202,2157
-80,2,79,4125,2324,-517
-126,70,8,930,1267,-1245
-109,104,10,-796,558,-1503
-51,28,-19,-53,84,-888
-50,3,-11,487,-492,-298
-39,8,13,308,-609,141
-36,40,20,-402,-281,446
-26,63,9,-670,49,462
-40,58,-6,-254,162,296
-36,66,-25,199,360,400
-16,107,-34,-260,438,608
4,-127,-65,-452,437,467
-1,-119,-88,-248,142,80
102,120,-93,-4006,2938,-2806
-46,29,-22,-1963,2671,-3800
-8,-36,-75,75,573,-3348
-48,75,89,-1397,2558,-5545
14,0,-123,-721,2069,-6502
21,108,118,-2543,4874,-7142
-78,22,-114,-2318,4546,-2665
48,10,123,-56,6057,-529
13,23,-35,-629,3295,4397
-73,43,-7,-3347,-3008,2973
-116,120,16,-2294,-6115,3157
-70,-27,-51,-4,-2882,691
-18,45,-40,2198,-843,-3906
-61,-3,-103,77,2015,-5219
-55,-62,-99,1689,3853,-3280
126,36,-68,-135,3685,-1540
-87,39,-25,-655,4009,16
-46,-94,16,-3130,1805,4147
106,23,40,-4096,-3212,4713
-82,-41,101,-2864,-6560,3507
120,-115,-125,831,-3803,-272
-82,-126,-67,2299,-1838,-3817
-42,20,116,1484,680,-5467
-8,77,-128,541,2606,-3869
-66,106,-86,-616,3687,-1785
74,25,126,-1046,2951,883
-95,125,-16,-1164,1457,1173
18,98,4,204,198,1499
13,-12,-35,-436,-190,894
97,-63,120,433,-942,1677
-32,-126,-67,693,-1990,854
-89,53,14,-710,-2628,1634
-88,-69,-20,241,-3654,2543
-98,10,28,1012,-3333,4309
-91,-30,23,-432,-1483,4602
62,-7,-128,195,-2788,3704
-123,2,115,-31,-1161,3239
42,92,120,1002,-2004,3759
50,-45,9,1419,-959,1840
-27,-35,-67,227,-261,1786
-91,53,66,952,-1787,2984
-44,-74,51,1189,-2188,1823
-35,-110,22,128,-921,354
-59,-112,18,138,426,-237
-56,121,-4,532,690,-667
-59,114,6,-495,543,-868
-26,99,-6,-555,295,-87
-15,91,-36,-303,140,249
-9,98,-45,-179,-54,107
5,94,-53,-126,194,-248
-24,-81,-112,-1197,5642,-4295
15,-100,59,-1373,2055,-3001
47,105,-47,195,4029,-4485
-52,-113,-82,479,3867,-5107
-83,-82,-91,332,3471,-5125
-123,-52,-95,138,3320,-5101
-105,36,-82,-1588,3211,-3468
-93,-68,-55,-209,3528,-1471
57,-118,97,-969,3581,674
-33,-30,40,-746,2095,3743
90,0,75,-1803,-866,3581
-104,-111,-114,-3152,-5142,2128
-112,-20,-24,136,-5114,176
-25,37,-1,1956,-2260,-819
-35,68,-126,807,287,-3836
1,-64,124,1300,2435,-3239
98,38,-91,-465,3369,-2436
-107,40,-49,-452,3201,-1334
-10,-65,-31,-1767,2208,442
17,38,46,-1822,1734,2550
-112,27,-112,-2489,-1354,3636
-46,19,12,-3254,-5126,1929
-8,50,-96,823,-3569,1286
-61,-11,-42,3262,-2740,-1816
-1,92,-114,1158,-451,-2647
35,-88,-108,2088,1355,-2481
-60,-48,-71,-352,2020,-2769
-45,-33,-49,-393,2057,-799
-84,10,-128,-866,2488,-37
-71,111,91,-1264,1153,1201
120,13,-6,-1061,313,161
-7,-18,18,-774,-297,388
-83,-128,110,527,-182,84
-79,82,-101,-130,-433,667
87,-93,-118,821,-1241,854
-2,-70,116,-146,-1080,1198
16,-109,117,85,-2082,2926
-11,-29,-87,122,-2173,5364
16,118,-124,-1309,-3619,5306
-9,94,107,-2817,-3372,1736
-81,-45,85,-1790,-4943,1610
-89,85,116,962,-4306,3869
-86,42,-88,2665,-1134,5199
-95,-57,-42,6229,-1575,6290
-20,99,84,3147,-1098,628
126,39,91,384,-1175,-896
-70,-26,78,-328,557,-436
-77,100,53,596,25,-873
-60,62,34,1259,-381,-814
-32,71,53,476,-361,-443
-116,8,50,-2211,2765,-3730
70,103,-71,-35,1702,-4514
95,-125,54,-1751,3392,-5146
123,-43,126,-1992,3398,-5761
115,-94,-115,-1628,3359,-5629
-99,-57,-80,-1609,3655,-4982
-24,81,-48,-786,3424,-640
111,103,-15,-525,4412,744
-66,102,-18,-101,3819,3973
-82,123,-119,-2449,-206,4501
82,89,-32,-5478,-4106,1094
122,122,58,-1613,-6567,1469
-64,35,-7,980,-3445,-2437
-83,-75,-102,1114,-144,-4067
-30,-5,-122,1618,2819,-3896
-57,101,-98,1135,4194,-2077
45,-86,-33,400,4256,-143
-121,117,13,-742,3886,-116
16,-25,-4,-745,2669,1604
-95,-63,71,-2927,1226,2320
50,75,-88,-3468,-1938,3056
91,-21,5,-4143,-3748,1212
98,51,90,-39,-5537,1492
-42,73,0,168,-3404,-1110
40,-117,-125,1492,-964,-3183
-14,40,-128,1508,685,-2965
-118,108,-97,1136,2889,-2523
-72,-35,-55,900,3062,-1499
85,-121,-32,229,2913,-754
89,-73,29,-750,1636,461
117,-12,122,-805,652,307
68,104,98,-398,-115,405
3,-94,-112,-339,91,247
-66,-124,-105,-25,-205,601
-80,87,-70,-499,-513,263
8,0,-91,107,-1402,257
-124,-14,108,389,-2182,439
-30,-8,42,453,-1593,1480
32,84,-16,-672,-2863,2958
-67,-85,-105,-364,-2833,3478
-117,11,96,-594,-2560,3739
118,56,82,-898,-3702,2488
-121,18,88,-151,-5095,3318
14,-19,-120,1068,-2932,3842
106,41,119,1825,1132,3188
-102,13,-89,1826,-108,2541
-109,-85,111,294,-1484,270
-105,-40,88,1539,-2459,306
-29,78,110,4120,-1551,-638
3,-127,105,2680,321,59
-71,2,-120,-634,3090,-4287
-120,-80,-87,-807,3180,-2327
-86,125,-74,-886,3620,445
54,-82,-35,-995,3149,2174
86,16,-16,-1468,-377,3999
-104,56,-124,-4567,-4149,1808
-20,-14,82,-679,-6297,1847
112,111,8,393,-3126,-1683
-37,-75,-125,1173,-439,-4136
-70,25,113,1186,1796,-4226
32,120,122,1021,3313,-2912
97,-88,-101,34,3984,-927
75,-118,105,-741,3513,854
92,-98,-86,-2707,1485,2462
-126,-68,76,-4290,-1957,2058
14,67,35,-1055,-4510,3095
3,-78,-14,-486,-3886,860
18,55,-37,1937,-1969,-1110
-20,79,-126,1652,-63,-4045
-112,-120,-117,2352,2033,-2436
-60,-115,-71,782,3040,-2829
110,110,-31,869,2845,-829
-84,2,45,-97,1521,357
-117,92,-15,566,-961,572
124,-86,1,-2587,282,328
-55,-90,120,-1270,578,1056
-115,-126,-50,204,-217,791
-10,16,-47,76,-552,791
76,-42,-123,-38,-1322,1135
83,-57,94,343,-1667,1578
79,-56,-96,1630,-1380,503
-92,122,-122,-217,-1603,1480
86,63,0,-180,-1811,4595
29,85,114,1041,-1574,4395
7,-38,-112,6,-946,3591
-17,102,84,418,-547,3756
-38,-36,25,989,-824,3164
-19,-68,-47,328,-115,2620
1,107,-114,656,1013,1407
-25,-12,97,2626,-282,1392
-24,-27,100,864,-798,402
11,-79,107,285,-69,-690
61,-117,92,667,696,-588
79,-125,105,599,1126,-45
49,96,113,1009,133,101
78,-116,-128,-54,-310,446
85,-124,-127,-1154,-306,234
93,102,112,-896,-333,556
108,93,78,-224,-220,732
101,104,36,-60,-367,955
126,10,-123,466,1972,-5852
-113,-39,-115,-511,3007,-5770
54,91,-79,-92,2966,-4140
71,-57,-48,-619,3376,-1613
67,-62,-36,-589,3105,79
-96,-110,127,-1592,2486,2298
65,4,108,-1782,-886,4425
124,-104,-35,-3546,-3752,3179
-115,-123,-71,1076,-4519,2687
-59,6,-81,1219,-3023,-1768
-27,-71,-81,340,-854,-5083
97,-48,-114,614,1856,-4894
-97,105,-87,255,3648,-2989
-19,100,-33,-731,3794,155
65,-12,-29,238,3002,2694
-53,22,19,-2921,1266,2998
-97,-31,90,-3655,-1879,3516
49,69,65,-2607,-4145,2979
-49,120,-42,-617,-3876,1561
-99,-104,-79,682,-2730,-1316
84,109,-116,218,-1201,-4661
-55,76,127,1132,839,-4054
-103,18,-112,593,2297,-3592
91,-118,-71,138,3157,-1627
104,8,-81,53,2750,437
-76,117,-29,-429,1760,291
-94,-88,-7,-1663,328,91
23,-8,11,-749,67,113
-101,49,84,-640,-110,112
-113,-63,-59,-264,-142,318
-30,96,-53,-765,-339,383
52,-50,-100,-239,-621,932
79,-30,-76,360,-45,988
29,105,-14,-1091,-638,1193
-4,-102,16,-484,-1302,1736
-45,-18,81,-1225,-1755,2176
-89,9,-118,-469,-1970,2310
-112,53,120,-294,-2069,2195
119,1,98,-662,-2539,1681
-125,-100,69,-317,-2805,1823
-108,-116,62,705,-3665,2808
-44,82,-7,2239,-3311,2687
31,-80,-32,1246,-1341,2558
-17,95,-107,2105,-1294,2613
-34,65,105,1980,-1451,3251
-32,-23,65,1090,-955,1795
-65,-72,38,110,61,-201
-77,113,13,534,568,-750
-42,116,5,345,768,-633
-29,117,-7,-161,507,-566
106,61,-91,-1430,1278,-6978
-90,-107,67,-1601,1742,-6562
-37,16,-119,-2491,2540,-5065
22,43,-83,-1168,4103,-1613
-48,-47,-55,1387,4450,1056
-77,37,63,-1436,4593,3801
-75,-85,-20,-1374,-724,6003
-125,-124,124,-4659,-4711,3986
-33,-104,44,-604,-3803,459
74,-7,80,1345,-2833,-3235
-14,109,-89,-1885,-1165,-6087
-9,33,-114,306,2483,-4693
-78,-15,-91,272,4349,-1462
-87,83,-27,-1507,4052,125
-101,-49,-27,-2221,2467,3893
40,-9,35,-3346,-617,4239
-62,25,23,-4486,-3871,4014
54,-66,11,-40,-4786,2204
-115,-48,109,1617,-3628,-714
-51,-120,-63,383,-1060,-3999
117,13,-120,593,962,-4257
18,-54,-101,3,2234,-2739
-19,-118,-72,257,3637,-1559
-21,18,66,-1084,2668,71
28,97,-52,-1289,1684,394
125,-80,-88,-1412,-477,638
-82,-22,12,1891,-591,379
-117,45,74,306,-614,553
-70,-105,-84,-356,-1624,447
-111,45,125,-1023,-804,1049
-92,5,36,-1361,-1719,2883
84,-110,4,-2636,-3390,5243
-14,127,44,343,-3461,4599
73,65,116,-1289,-1939,3647
23,89,73,-1979,-2670,2773
-58,121,74,1294,-5373,2426
47,7,-75,2833,-6209,3540
-9,110,75,1899,-1581,3738
94,-16,-13,3870,-530,1147
-107,-24,-70,3123,372,-1209
-109,-22,-32,792,681,-1282
-16,117,-41,-76,1054,-1100
19,43,-32,735,560,-617
-69,27,-5,985,-608,87
-78,36,23,513,-610,360
-21,34,-4,241,422,173
23,66,-14,-170,898,461
-22,71,6,-137,686,517
-13,3,-42,716,503,-729
49,-10,-48,943,479,-947
-55,-92,-94,-1133,2143,-6420
-32,-46,-36,-1748,1354,-6343
-90,-40,103,-3261,2972,-6221
7,93,113,-2927,3325,-4070
44,103,-98,-15,4178,-413
-55,62,81,59,4160,2396
66,-62,-75,-528,182,3920
116,-36,52,-2046,-4520,3471
41,-77,47,531,-3894,2456
125,-69,102,824,-2848,-507
-35,-124,-99,107,-727,-5263
11,47,120,200,832,-4648
110,-115,-122,-674,2686,-3347
58,-53,-87,-277,3149,-186
-86,-103,85,910,2314,2444
83,-106,-116,-1017,2802,2863
66,-82,-23,-2539,-913,3622
-112,-88,106,-3281,-3970,3381
97,-29,77,988,-3110,1944
4,-75,19,1760,-3103,337
-1,86,-50,312,-1647,-3219
52,30,-114,649,402,-3831
57,11,-105,-502,1628,-3963
67,97,-84,37,2271,-2860
95,-119,-98,-88,2197,-873
-106,127,109,596,1714,1611
-99,-83,8,-1739,1519,-410
18,88,-93,-1798,184,844
-100,98,-19,84,-244,414
-87,-121,115,683,-140,553
-89,72,-63,277,-838,814
49,42,-79,-28,-246,1375
12,5,-113,-204,-496,1897
-39,24,-115,-276,-723,2169
-38,106,-53,-694,-875,3172
-45,-45,-3,-294,-940,3142
-49,27,31,-996,-931,2749
-32,-7,11,15,-763,2349
-42,33,42,-899,-757,2127
-52,-36,14,-576,-1586,2312
78,-96,3,-381,-186,2889
51,-115,-6,559,-466,2823
19,-128,-55,1009,-1175,3177
0,95,-90,1030,-1317,2627
-11,47,113,1330,-1349,2116
5,-5,77,1428,-532,1824
-3,-102,67,792,-1231,1284
-8,-96,55,-864,-941,1183
-45,109,23,-1204,-496,503
-54,60,-2,116,-33,-340
-59,38,119,-956,2515,-5539
110,-104,97,-1020,442,-5041
-79,7,-5,-1392,646,-6594
-1,-92,-60,-302,1483,-6908
-35,45,108,-1250,1170,-7378
23,-124,103,-1510,3831,-3384
-62,-102,102,301,4407,-1169
-55,-32,53,-2388,3357,2367
13,47,-50,-3254,-860,3629
87,-87,90,-3790,-4657,3079
-77,-55,-2,-235,-4851,376
104,30,-35,1590,-1938,-3051
-119,122,-118,-937,864,-5168
-38,70,121,1198,3325,-2775
53,64,-112,-355,3629,-1764
54,-9,-110,-1221,3442,108
125,115,97,-452,2632,2215
77,-11,-43,-2436,243,4364
-15,83,92,-2779,-3422,4865
72,-30,-71,-508,-4960,4830
-128,56,-79,-1366,-4731,-344
87,-73,-105,639,-2055,-3171
-59,-99,109,123,-140,-4403
-82,-71,108,854,2111,-3908
108,98,-126,-157,3376,-2550
-73,10,-85,-191,3570,-180
-87,-81,15,-593,2776,1103
-43,46,16,-2027,1432,304
49,76,84,-1625,-619,149
-115,46,87,517,45,-451
75,7,-57,589,-466,92
119,-113,43,-394,16,-417
-12,8,-79,-61,-867,-215
122,-57,118,485,-1240,982
114,-28,88,349,-919,1318
99,-3,116,605,-1208,2785
-14,-90,-10,281,-2305,3865
-7,88,127,-1367,-1571,3385
-78,28,110,-668,-2295,2911
-10,50,95,-175,-2059,2986
-27,6,82,148,-2550,2262
-27,-33,32,704,-3421,2822
52,-80,-51,1558,-1996,2933
68,-74,-56,1573,470,1907
0,110,-118,2150,404,1763
-45,75,110,940,234,676
-42,-36,79,1460,-356,587
-5,-124,54,1430,-275,529
-5,-113,62,-440,-351,659
-22,122,47,-1657,-606,394
37,-22,-68,-570,6020,-4819
82,-96,-34,-1252,588,-4333
120,-119,-62,-1463,1127,-5328
121,1,102,54,2559,-5940
37,-78,-128,-1337,3000,-5526
-93,29,-99,-724,3312,-3485
-47,35,-77,161,4398,-1642
0,-55,-66,-1449,3711,8
39,22,-49,-2011,2261,2381
89,-29,-98,-1235,-2305,3139
13,40,78,-3957,-5798,2150
122,-56,45,-854,-5636,811
-74,-8,-29,1983,-2757,-201
-123,-92,124,-934,-467,-5074
111,15,108,882,2812,-3573
122,-49,-128,-753,3475,-3310
-94,110,-71,-1084,3979,-1298
-1,28,-88,-1356,3247,1076
-51,41,-107,-1937,2349,2863
77,-46,125,-2234,-554,3759
20,-120,-123,-2839,-4068,2135
-21,-25,89,-335,-4900,1411
72,106,-112,844,-3477,91
71,70,-89,-149,-590,-2602
8,-84,-128,2187,1430,-1780
97,-37,-100,1835,2756,-2031
-66,79,-40,260,3621,-1992
32,-27,10,451,3014,-1153
108,-21,31,-2155,1544,-803
-41,63,81,-1542,651,-527
-114,-94,52,-192,-170,479
26,-67,-112,-35,-45,270
-14,63,-118,276,-838,956
18,28,-85,-196,-1479,672
115,-37,120,-657,-1769,842
-110,-51,-59,76,-1144,2660
61,60,22,-41,-1572,2643
-4,-7,-124,-1320,-2294,2684
-114,45,123,-429,-2815,2480
121,47,89,-30,-2338,2378
70,-48,85,539,-3587,2350
102,-82,93,345,-4428,3512
-53,-128,50,1633,-4808,5794
62,126,-49,1765,-2267,4795
-26,75,-123,1483,-1313,2269
-108,30,110,593,-1041,26
-95,-10,122,346,-441,-733
-62,-103,69,1455,749,-1117
-74,-125,33,1465,1051,-1362
-76,90,12,1021,565,-1139
-27,-107,-17,-1039,446,-6629
-119,-49,113,-1681,1333,-6409
-84,-104,88,-2443,3379,-3730
-15,-51,103,-1430,5170,-1111
123,-109,-54,-1433,4930,1502
-36,38,-106,-1888,2359,3248
127,-116,-8,-2449,-1796,3124
46,30,-117,-2638,-4485,1938
105,-116,-55,707,-3391,-850
-119,-10,-32,1364,-2516,-3750
-6,33,116,104,796,-4551
119,-46,119,550,2908,-2445
-5,-113,-94,-592,4091,-740
-64,85,-58,-614,3275,635
-122,6,-117,-209,2366,1698
-41,90,-60,-1543,893,3277
-55,39,-51,-2795,-1243,3011
32,-85,46,-1636,-4986,3563
-111,10,102,-640,-3527,1056
113,-66,-52,559,-2914,-1361
-56,119,-128,544,-1068,-3426
-4,61,122,1357,1456,-3558
-118,109,-102,454,2671,-2425
46,-92,-66,396,3232,-1522
-64,110,-98,-1873,3003,-209
-32,-36,24,-2532,1503,112
120,-38,108,-1190,-346,231
10,-36,48,494,-21,224
-42,-53,102,-172,-417,304
-23,57,-70,-240,-879,251
72,-26,122,46,-1346,608
-119,-29,124,629,-623,986
43,79,-58,-13,-1273,1882
58,-76,22,-543,-911,2960
-6,-2,-125,-707,-1353,2221
-61,72,-116,-710,-2217,2796
-54,101,109,-241,-2495,2602
121,24,92,48,-3848,1765
-65,16,87,-44,-2898,2197
-37,-85,16,1460,-2089,3194
-29,-79,-1,1576,-897,3778
-73,103,-88,2510,-1589,4223
-42,76,123,950,-1298,2678
-71,-53,78,1028,-1452,739
-53,-74,59,183,-308,-42
-37,127,13,10,1096,-930
-36,92,-19,324,1145,-1114
-30,73,-29,218,342,-844
-9,46,-26,513,-326,-657
-1,38,-12,436,-349,-303
76,-17,-83,-4752,7084,-2311
-128,-72,16,851,865,-4407
124,11,11,-242,1443,-4329
60,-15,74,-84,1423,-4681
32,29,-115,-121,2621,-5612
15,50,-121,-2633,3965,-5552
-38,74,-75,-2418,3485,-3619
-93,54,-16,-123,3397,-1046
-19,12,-85,160,3645,1786
83,75,63,-234,2714,3579
67,-118,-41,-2349,-964,3764
34,96,-1,-4163,-3848,1955
126,25,-43,-378,-5301,1758
-51,72,25,758,-3415,-1387
39,-125,-116,1065,-348,-4500
-29,-110,-128,1418,1700,-4200
23,35,-107,1224,3306,-1524
-115,-93,-67,504,4269,181
48,-71,36,84,3237,2948
74,34,-12,-1718,2064,2860
-113,-92,-122,-4432,-2158,3814
51,29,-102,-2714,-4990,2631
-92,36,116,-681,-3280,502
3,-26,-16,1054,-2554,-2776
20,-113,123,341,-378,-5284
-2,112,125,1561,1764,-4047
-101,-44,-98,1004,3753,-2534
30,-44,-43,-170,3999,86
-112,102,13,1063,2508,2755
41,25,20,-2144,703,78
-80,56,116,-1085,-1094,-651
4,1,98,319,-84,-295
118,-106,-98,375,-594,297
43,106,2,-72,-380,-210
-84,-124,-44,-750,-332,-78
-21,66,-68,-71,-1252,471
40,50,-84,-27,-784,1401
7,46,-106,-249,-1451,1560
3,93,-82,-682,-2353,2622
-25,117,-16,-688,-2994,2787
21,-22,-6,-571,-2935,4029
-13,-89,44,505,-2825,3646
25,-3,45,-496,-2714,3679
-118,1,86,-730,-272,3628
-128,-44,56,844,-281,2816
79,-98,-4,1718,-1056,2379
-23,86,-88,1068,-2306,1254
-36,-24,114,1740,-3260,970
18,-47,54,616,-1571,538
-7,-111,35,751,356,-280
