AccX,AccY,AccZ,GyroX,GyroY,GyroZ
118,55,78,989,4474,-4422
-23,90,90,-465,2453,-2970
-107,89,-116,782,2114,-2001
-51,-49,-68,840,139,-2402
13,-7,-112,-524,202,-3204
13,11,-88,-704,1069,-3953
-92,12,-56,-2895,2755,-2827
101,44,11,-2194,3800,-428
-125,-24,-34,-971,2527,2171
-48,11,66,-1546,1242,1924
29,87,44,-778,-3337,5222
-80,87,48,323,-163,2532
25,-120,-128,4988,391,-4448
22,-55,-9,70,-69,-2942
52,0,14,-2495,-1828,-872
96,81,72,3073,-3162,-356
-16,73,-6,2161,-3840,1221
31,50,-64,3082,-5890,2414
-44,54,64,3366,-2321,3880
-17,-4,107,2180,-2394,3018
8,-114,20,2218,-2123,5230
-42,64,56,5378,-937,3844
45,60,124,6035,2000,-308
96,-37,93,7766,1963,-2872
-61,71,58,3299,3075,2359
106,-31,-83,-2674,1697,2117
24,28,-61,-3234,-2641,-756
-28,-10,118,-2725,-2051,-795
68,-73,34,-1380,-330,-709
25,-116,21,-231,475,-853
-20,-90,31,234,147,-303
-11,-66,23,448,-232,225
2,-45,23,292,-220,299
19,-19,19,-325,-126,161
39,12,11,-1168,4,50
44,6,-11,-481,-11,29
40,13,-17,14,15,-72
46,32,-40,104,102,-63
59,21,-70,434,167,-74
70,34,-81,371,-55,88
69,43,-76,286,-205,89
74,50,-70,226,-98,-23
87,59,-69,78,19,-43
94,62,-76,19,-7,-11
100,69,-87,-116,1,-17
109,72,-100,-154,21,-72
110,78,-101,-163,-43,-51
118,84,-106,-82,-14,-52
126,88,-109,20,-19,-34
-123,94,-111,111,-26,10
56,-62,-37,-2452,4550,3534
-66,-98,21,-1193,-4865,4075
46,96,-77,-861,227,4082
26,54,6,4171,154,-4416
-113,-19,64,799,585,-3878
-8,3,-107,-1368,-709,-1427
24,-36,-106,1695,-1053,331
0,-111,118,2228,-3239,-1732
72,-52,-126,2133,-3231,954
51,-25,-58,1211,-2077,1866
-33,89,37,294,-2508,4453
-120,57,83,784,-4854,3765
5,-49,-107,2058,-3217,3761
-113,29,70,1427,-1023,4947
117,-89,29,1883,458,2368
-13,29,-23,1426,-1077,-806
-36,127,-30,3166,-1135,-914
40,70,-41,3781,-286,-48
30,81,-14,1758,783,201
-7,58,-15,67,890,2
-23,40,-8,-830,239,-160
-23,-3,-14,-269,-262,-389
-9,-15,-21,-155,-79,-405
16,-10,-46,-50,332,-220
23,-8,-61,141,151,-125
26,19,-53,-347,-102,-44
35,10,-64,221,-68,66
45,13,-66,506,-23,-12
54,26,-71,555,-32,24
63,24,-79,617,-43,-50
66,25,-83,499,-55,-54
76,27,-84,253,-12,-29
79,33,-88,34,-5,9
90,32,-98,-4,46,-23
97,41,-106,-125,21,-5
102,51,-111,-135,-51,-54
104,47,-113,58,14,-138
119,58,-113,27,-8,-3
120,62,-119,115,-13,2
127,69,-126,82,9,-20
-125,77,122,13,-15,-5
-113,81,119,7,-23,18
-118,92,124,-11,-37,-16
-105,92,120,81,26,-83
-98,97,117,85,-12,-1
-96,102,116,121,-4,-24
-94,107,112,97,23,-57
-91,107,109,106,-11,-29
-84,112,105,92,-18,-18
-79,117,106,69,-18,-43
-64,-109,33,-1745,3537,-5440
-73,41,-30,-1668,773,-3549
-66,95,-23,-532,951,-4462
-60,68,69,-439,-319,-4326
-46,-122,127,-733,1903,-5012
76,83,48,-2478,3745,-3124
-109,-52,-76,-713,1179,461
-25,31,70,-3183,3141,2628
-75,-14,81,-3285,-4779,4894
-73,-38,47,-1700,-242,4771
25,-82,49,3412,776,-4960
16,19,43,4050,-32,-3151
-70,-49,-7,-1818,-760,-1915
-83,60,-40,-778,-93,-512
-3,2,-114,4162,-2395,78
120,-50,74,2390,-1870,787
106,-14,-119,1207,-2779,2710
-115,-21,-36,1047,-2340,3651
-72,21,41,1062,-2722,2979
51,77,-4,284,-2924,3087
-26,-57,112,534,-3356,3619
-72,-70,37,670,-1291,5034
86,-71,-51,5361,-568,1016
94,-117,-81,4702,-327,-563
81,-126,-75,2635,-4,-560
36,85,-28,940,269,-155
-2,40,-7,-277,537,-344
-44,-13,0,-779,222,-641
-16,-43,-23,70,102,-530
12,-25,-31,221,74,-26
16,0,-32,-29,-14,321
20,3,-47,-64,67,138
34,13,-59,75,-4,100
40,17,-57,254,-92,28
48,29,-61,146,-1,-11
61,34,-74,-7,38,-112
62,36,-79,-45,-50,-49
66,40,-83,-50,-6,-87
81,44,-91,-43,53,-85
86,47,-97,17,-17,-37
94,56,-102,85,-21,4
94,60,-106,229,2,-38
100,65,-114,218,16,-59
-128,71,-123,81,-21,6
123,78,-115,91,-94,61
123,88,-108,107,22,-42
-123,91,-119,102,93,-97
-127,92,126,-13,-39,-61
-107,96,119,-102,30,-23
-106,99,119,-64,-21,-82
-47,72,-74,-3865,-4426,7155
16,113,-56,-3620,-1147,2591
48,-9,22,3073,867,-2038
85,101,-47,5177,-318,-4884
-100,52,-24,-1311,1251,-2486
25,-24,-77,1419,874,-1461
-82,97,44,3010,-1876,-356
52,-46,57,1988,-2772,43
127,87,-80,2044,-3663,2829
127,51,-69,183,-1237,4754
-44,-13,4,-2,-2021,4764
-18,-98,30,-474,-1282,1266
-71,-12,-48,-611,-4387,3964
58,-72,97,-746,-2870,2935
-84,-38,34,-202,-49,1823
40,-28,-15,2940,-708,225
20,-70,-69,2720,-138,36
47,110,-100,3752,36,281
71,87,-74,3171,265,339
31,81,-24,1021,353,-162
6,52,-12,-596,117,-381
-3,3,-43,-433,93,-224
10,-17,-63,446,8,-231
70,-16,-72,444,-23,-235
69,13,-56,-116,-220,54
50,21,-47,-175,-171,-13
61,19,-44,385,43,-9
77,20,-55,618,116,-54
80,30,-73,349,41,-80
89,27,-87,135,34,-33
95,29,-96,82,14,-41
102,31,-94,95,-81,-33
110,40,-86,40,-35,14
117,46,-86,134,20,7
120,55,-98,59,56,-35
124,65,-112,-233,66,-24
-127,59,-125,-13,-11,-73
-117,70,-123,-116,-80,-57
-114,77,-115,-125,-59,-12
-105,80,-114,77,4,-21
-90,86,-121,238,31,21
-93,94,-124,234,-7,13
-96,103,126,167,31,-55
-90,103,123,111,-11,-83
-79,106,121,-14,7,-15
-77,109,120,-46,26,7
-74,119,123,-85,-22,77
-73,127,124,-47,30,21
-61,-121,115,-113,89,-43
-57,-113,109,-273,65,-67
-37,-26,71,1403,2220,-4570
-106,119,-13,1381,1526,-2427
-62,61,15,-1966,851,-2535
-87,-9,-11,-392,-347,-2210
-44,-54,-80,-1001,772,-4850
-34,-82,-14,-1195,818,-4638
-99,-119,51,-2336,4283,-3990
-51,2,-65,-1761,2649,1548
113,-36,43,-3504,2607,4686
25,65,-58,1314,-3854,3235
10,-28,67,-6355,-3644,2498
-8,-98,-34,3946,3658,-5653
32,113,-116,5208,-806,-2854
102,80,-89,-4619,-2361,-1007
-87,-24,39,3448,-537,-293
18,-114,15,2370,-2884,-1141
31,37,-115,3450,-3619,2695
51,57,-75,3850,-3733,4787
-61,93,-63,3911,-212,7103
54,57,-65,238,-2600,3821
-51,-48,98,218,-2922,3795
122,74,-27,-3420,-1094,4882
-59,-53,-40,2301,-1752,162
-29,-3,109,2508,-1644,-857
-90,-59,117,2406,-378,-786
-89,-57,-52,-1441,2252,-510
-100,77,-94,-326,1569,-1005
-28,36,-79,1017,993,-514
-19,70,-53,692,21,-322
-17,64,-78,731,-256,-8
-1,50,-83,520,294,51
0,35,-98,529,455,-64
-8,16,-108,1196,449,-213
25,83,-50,270,-293,343
75,64,-88,154,-54,208
69,51,-112,84,276,-212
54,44,-117,-146,132,-325
73,41,-127,-361,-4,-94
79,43,-125,-299,-167,49
75,52,-123,-61,-116,80
82,70,-123,-92,-33,38
91,72,-125,8,-149,-31
95,87,123,-15,-256,-81
105,112,116,-94,-92,83
98,118,112,-224,67,-46
113,115,102,-41,165,-26
124,111,97,176,73,28
120,121,98,14,-47,-22
-123,126,88,-77,73,-13
-121,-127,86,-33,-9,-73
-105,-29,15,-570,4525,-3825
114,-79,20,-809,2647,-3363
-16,-100,102,242,1570,-2349
61,-107,100,-1289,-1169,-3610
-12,-86,58,-229,586,-6043
-78,-77,52,-955,3047,-5536
-46,-6,1,-2466,3506,-2451
-76,20,113,-917,2999,1382
91,-84,-70,-4538,-1073,7900
-98,-125,-46,537,-2825,3009
-24,-4,-71,515,-908,6382
6,125,30,3277,-448,-5225
-117,-30,15,1355,-316,-4544
-77,30,-24,-2762,1063,-2504
-128,-60,-42,3795,-1637,159
-16,-68,92,3462,-3084,-1436
-34,-29,-100,1464,-5247,2186
20,-98,57,2145,-1065,3033
8,109,1,1107,-464,4517
57,-115,61,1226,-2442,3454
50,18,120,14,-2342,3993
-69,-73,60,1021,-1710,4553
-116,-100,-10,4225,-1850,1327
-39,7,-70,1615,160,970
91,-27,-72,1198,173,277
-15,-118,-80,994,587,-617
-10,91,-39,368,483,-677
5,31,-10,187,-61,-538
21,12,-17,-71,-87,-67
16,31,-21,-396,-106,317
29,38,-34,-600,96,157
40,45,-52,-393,184,104
44,53,-64,-61,55,83
53,50,-70,495,-5,-52
67,45,-79,720,3,-194
100,55,-77,375,19,80
76,70,-75,-117,-19,139
70,74,-86,-226,134,216
89,79,-96,-83,92,272
116,88,-111,73,-10,127
107,107,-107,-57,-235,-197
122,97,-110,-51,-56,-392
124,100,-105,-102,-102,-127
-127,102,-109,-17,-74,-86
-120,112,-116,-129,58,-269
-92,109,-114,-59,-26,-148
-125,123,-107,85,-59,-98
-121,116,-118,148,184,-385
-95,120,-128,-23,93,33
-99,126,126,-14,-78,253
24,-122,-105,-2554,5159,-664
-44,94,21,-2956,6623,-7624
-13,-48,82,767,-373,-1279
-13,122,-89,271,95,-4630
-108,16,106,-308,-931,-5523
73,-19,103,-1684,1565,-5513
68,-113,84,-2869,5764,-3816
-99,-55,-68,-761,2046,2193
118,35,20,-4674,276,6229
84,105,125,467,-1864,4254
8,90,127,-699,1201,-1335
-4,-16,44,4676,-1626,-3720
-91,-22,22,-2005,1597,-2731
41,77,14,2660,-2876,-499
102,-87,35,2597,-2768,-648
-86,-58,116,2331,-2643,724
32,115,-76,2364,-3321,3199
42,-70,40,1132,-3082,6499
9,-90,82,-2209,-1396,4848
87,38,21,1837,-3585,2629
-83,10,-96,1422,-3410,3295
-97,92,-9,1121,-778,1886
101,-30,-73,2909,-317,16
-8,80,-77,4093,-559,-1083
10,74,-31,2698,-39,-664
39,77,-1,-23,968,54
12,40,-22,-789,701,17
-24,-5,-22,-46,-154,-319
-10,1,-27,-259,-225,-227
29,17,-52,-486,237,75
35,25,-71,-363,126,60
38,44,-64,-386,-120,54
52,66,-62,-403,11,38
55,68,-74,-73,110,-135
57,70,-85,132,31,-99
69,81,-93,72,-17,83
83,100,-101,-25,11,109
88,106,-105,-47,96,-132
99,110,-109,-247,66,-207
107,106,-102,-150,-76,-51
115,107,-105,91,51,3
116,107,-115,286,20,-46
121,114,-120,423,-108,76
-126,123,-119,279,-7,27
-117,123,-123,219,79,-43
-112,126,-123,11,-11,-65
-99,118,-122,140,-42,12
-96,124,-116,210,13,-4
-90,127,-123,192,47,-58
-92,-121,126,-14,26,-71
19,23,30,-7641,8391,-2430
-92,-63,-47,5259,2787,-5816
-128,114,51,-275,987,-4571
3,80,116,-1018,414,-5274
70,-76,118,-2484,5018,-6151
34,110,-15,-2424,3052,-1
-6,55,-35,-633,2684,2826
-104,38,32,-4592,-4216,8468
-33,43,-22,-3000,-1855,5655
-32,-24,106,3650,1305,-6749
-63,-106,114,4592,1104,-6029
92,-49,-71,-1521,2199,-2340
99,71,-9,3529,-2735,-523
-82,-2,-70,2616,-2445,979
-31,99,69,4927,-5126,2829
111,-39,-23,472,-617,7514
68,47,62,-919,-2661,4883
33,-27,81,-2212,-2482,2353
60,-109,64,759,-4502,4902
67,-127,-32,276,-1977,3507
11,103,-76,1491,-100,1312
33,-41,-93,1691,897,-1598
-44,44,-100,4415,102,-2547
125,58,-96,3648,698,-170
121,98,-63,1507,978,1367
22,57,-23,-280,24,365
6,8,-30,-799,-414,-482
35,-4,-49,-15,-140,-148
40,5,-47,224,11,-8
56,20,-51,91,110,35
70,44,-55,-430,92,-16
77,51,-78,-529,153,-228
77,45,-92,-321,87,-431
80,45,-96,-93,-105,-353
98,47,-84,217,-218,-137
109,75,-74,-184,-51,105
119,93,-85,-449,203,84
-128,99,-99,-226,191,45
-126,99,-109,188,46,-91
-121,104,-109,237,-26,-90
-111,112,-112,114,15,-28
-107,112,-111,119,1,65
-104,118,-110,148,-12,109
-96,-126,-104,39,40,80
-86,-121,-108,-76,70,66
-76,-119,-111,-45,60,113
-77,-105,-114,-155,105,15
-71,-105,-120,-108,84,-149
-69,-110,-125,36,-12,-237
-65,-111,-124,113,-80,-206
-34,-87,-116,-1176,6900,-3721
-112,72,49,-202,-1700,-5076
-40,-66,-95,-2363,1718,-6729
-70,-62,26,-1152,1809,-5650
-112,-66,79,-2161,5139,-3767
126,-4,67,-1218,2435,256
39,-90,-14,-3201,4512,3958
-28,79,-44,-3591,-3060,5814
14,94,38,618,-2913,6485
63,-22,-23,3993,190,-4922
100,-74,-41,4910,-2684,-4001
-43,-10,-48,-5486,3434,-3505
25,-22,61,3379,-2639,-127
92,-33,25,1624,-2732,-354
-18,-75,81,2188,-4588,1359
-103,43,54,4348,-7650,4592
-68,109,-95,512,-1387,6566
85,31,14,271,-2051,3608
-11,-70,87,-197,-1144,3648
77,-87,1,5319,-1581,2952
-9,120,48,6564,1378,2105
-45,-81,-20,-1564,3674,995
-78,82,-97,-3205,-230,-586
-40,47,-69,426,-1732,-2969
49,28,-95,2827,-709,-2040
44,77,-70,1885,-225,-458
19,97,-19,-254,-31,124
20,75,-44,-979,293,37
41,68,-83,-864,410,-11
62,98,-94,-1091,7,52
52,110,-90,-668,-280,-37
63,122,-65,-473,-156,-159
96,-119,-60,-152,230,19
93,-116,-72,401,140,121
96,-112,-90,575,33,20
107,-107,-116,388,81,-42
112,-111,-121,246,-24,-32
117,-108,-113,75,-96,-4
126,-103,-101,-109,-22,-5
-112,-102,-97,-107,85,-39
-113,-101,-103,-30,66,-75
-104,-106,-113,30,67,-88
-107,-102,-116,59,-32,-8
-101,-102,-117,134,9,-16
-91,-94,-113,115,-8,-12
-84,-92,-113,93,2,-22
-84,-90,-114,55,47,-72
-78,-93,-120,47,36,-20
-75,-93,-120,79,-8,24
-65,-89,-117,74,18,-3
-128,20,126,-2446,4802,-3175
78,-40,97,-1509,4222,-3327
-82,-12,-96,2453,-2252,-821
-56,-39,69,-1133,1125,-5871
101,80,103,-183,-1815,-4022
-13,-118,113,-1282,3503,-5172
-97,-42,-120,-560,2577,-1497
4,49,117,-2052,5326,1375
-111,37,-102,-2221,-171,5951
111,-32,51,-1497,-1542,3067
-69,-9,95,1250,51,492
83,-122,22,5248,-462,-4091
-111,98,72,-3308,134,-1666
-106,-2,112,1300,-409,-1602
-34,-29,-15,2977,-2190,-633
55,-34,65,90,-2191,465
77,-126,-110,2144,-2138,1854
-63,-50,44,1337,-2562,2925
107,-98,83,-1054,-696,5333
85,-37,37,-731,-1458,3450
78,34,-30,754,-3446,3495
-57,-85,127,1441,-1013,1368
-110,-89,120,-331,-1197,1932
110,33,67,1629,-2293,2582
84,-37,-2,1548,-767,1249
15,97,-14,2456,-327,-18
20,101,-34,1513,335,-379
19,81,-11,76,300,-366
3,62,-5,-645,8,-226
12,32,-23,-142,53,-72
28,39,-38,-214,165,-108
39,50,-46,-273,96,-45
45,55,-52,-128,38,0
52,63,-55,78,-10,8
65,66,-60,269,12,16
73,78,-67,250,0,12
84,76,-76,273,31,-17
85,85,-76,151,-31,27
98,85,-82,161,9,-46
106,85,-84,159,12,-23
110,90,-87,62,-2,-30
118,92,-87,85,-3,-30
124,96,-90,27,32,-8
-127,102,-96,-1,9,-18
-121,104,-100,1,31,-58
-114,106,-105,-19,15,-81
-106,113,-102,-34,-30,12
-106,114,-104,73,57,-72
-93,119,-109,1,37,-19
-93,124,-111,33,-42,10
-70,37,34,-2242,5491,-5240
-61,-99,23,-936,3787,-4160
-113,-80,-91,2280,-2463,-442
19,94,33,-1040,1158,-3792
34,-110,25,-157,20,-4507
-99,-85,-38,-791,1658,-5133
8,-114,67,-2928,3549,-2248
-70,53,-74,-2202,4602,-274
99,-71,41,-2022,2379,4610
62,-4,-42,-3875,-2156,5781
-127,3,35,-2370,-3014,2863
46,-49,-105,2277,1773,-2414
61,-75,100,5578,458,-4639
53,4,-19,-447,394,-2919
-105,-49,-113,-684,-1623,-905
-115,26,59,4305,-2814,-56
102,-79,43,2118,-2954,950
21,-125,-49,1661,-3184,4272
-14,86,-3,-146,-1165,5036
82,66,94,-2326,-575,3000
37,6,67,1665,-1612,794
-122,-107,-33,1215,-1564,6116
90,-85,-102,2166,-2113,3120
54,22,104,1941,-2505,2516
86,-42,9,1531,-692,1633
21,-125,-25,1769,301,-350
7,85,-26,1047,589,-1014
16,49,-27,-91,560,-1002
14,46,-12,-940,-160,-473
7,26,-17,-482,-593,82
17,42,-16,-62,-393,302
30,70,-18,34,-40,313
42,89,-41,7,290,-25
48,91,-55,-161,164,-121
58,82,-73,27,2,-31
68,90,-74,109,-53,74
72,104,-76,-23,9,-12
79,111,-78,-26,11,-125
91,106,-83,-39,20,-96
93,108,-87,13,-10,-28
101,107,-90,186,10,-35
110,114,-94,164,30,-15
121,122,-97,65,31,-35
123,120,-98,229,-13,-31
-125,-126,-99,94,18,5
-121,-127,-106,17,20,-57
-106,-125,-108,-42,31,27
-105,-114,-108,-177,141,-4
-98,-115,-110,-15,66,-33
-93,-114,-116,8,57,-74
-6,-75,-73,-366,8747,-3384
-86,-106,-1,-1450,1647,-5947
-100,47,72,-823,1003,-2584
53,113,121,-282,70,-3425
36,-75,93,1256,248,-5144
-123,-39,-14,-1124,851,-4583
9,113,123,-472,4107,-5408
-16,64,91,-3645,2106,1588
120,57,-48,-3780,739,3769
81,96,20,-852,-1851,2746
-101,-98,102,1826,-1239,3403
116,118,86,3888,3514,-6319
-75,-121,123,3404,93,-2744
33,39,-46,-1467,-1286,-106
71,-97,74,3806,-2099,1279
96,-109,34,369,-3027,2184
-78,-109,126,1738,-4643,5086
-53,-31,96,74,-1036,4822
126,108,-1,-405,-864,4008
-90,-110,45,-215,415,1015
109,102,53,-731,-1507,1399
90,-14,-39,509,-2372,2383
102,-55,-81,-742,-1975,2796
114,44,96,2674,-2751,3522
-128,-29,-7,2797,-888,1406
47,-108,-8,1984,19,-468
47,82,-46,1352,723,-425
53,63,-45,486,651,-249
26,53,-24,-215,-147,-310
18,27,-9,292,-588,-64
32,59,7,-265,-246,-28
58,68,-14,-585,267,-122
61,60,-48,-530,236,-227
63,52,-66,-173,-7,-210
72,65,-67,-74,-69,-52
80,79,-59,69,-18,56
86,91,-54,320,-32,41
106,103,-64,311,75,-39
106,110,-74,55,33,-27
113,107,-87,-135,69,-66
122,108,-93,-106,48,31
125,114,-89,-102,-10,-52
-123,120,-85,-5,-18,-41
-115,121,-89,91,43,-48
-112,125,-96,118,-8,-19
-105,-119,-100,-13,-13,-8
-104,-113,-99,-127,24,-51
-91,-119,-101,-29,44,-59
-94,-113,-100,36,-23,-3
-85,-110,-103,105,33,-40
87,-83,21,-511,4315,-3568
-72,-82,-7,-2920,1863,-3584
4,-10,66,219,930,-3478
-82,75,66,-156,-884,-2897
50,-108,30,167,-443,-5330
-56,-28,23,-919,871,-5792
76,124,4,-2291,3875,-4409
125,-16,-75,-1316,3676,599
86,-68,-39,-3776,2423,5726
-5,-19,-1,-594,-4126,4695
-55,68,-62,5052,-250,2416
81,-65,47,4613,-377,-5237
44,57,-8,35,895,-3340
96,-2,-123,-4350,385,-1264
-121,8,41,3529,-1691,-296
81,-50,40,2883,-1970,221
-18,-67,87,2158,-1023,2266
124,-65,109,803,-725,3059
-30,72,-16,-92,-2019,4080
-20,-90,60,-158,-1910,-552
29,53,-77,-1836,-2174,2097
-1,-28,108,517,-1803,3029
-103,-115,-110,2784,-626,3234
-36,-92,86,1798,-41,4562
-73,58,32,3536,-1211,4651
51,-5,8,1589,-964,2082
-50,76,-13,66,25,-1382
-5,12,-6,552,491,-2024
30,43,26,-469,311,-556
29,51,0,-1277,-23,439
33,30,-53,-815,70,72
48,49,-71,-514,70,-140
58,63,-56,-270,-138,-125
64,79,-37,-27,-204,3
76,86,-33,473,59,52
82,89,-59,571,233,-2
87,94,-77,380,75,61
94,105,-83,30,-68,58
101,113,-78,-168,-24,-70
110,113,-76,-222,60,-158
120,109,-83,-255,37,-103
117,108,-88,-56,-17,-12
125,113,-92,111,3,-22
-113,116,-97,178,5,-23
-115,-123,-88,143,-98,49
-106,-124,-91,223,88,-57
-100,-117,-101,43,98,-36
-101,-117,-113,-100,-32,-52
-94,-118,-108,-58,21,-67
-87,-118,-101,50,34,-54
101,-86,125,-3711,6355,-3564
-65,-24,-3,-264,2073,-3929
-107,113,-122,765,-154,-3014
-88,122,110,-303,4,-3622
-49,-48,101,-782,229,-4172
-52,-67,61,-1410,2339,-5721
-19,-27,120,-2238,3287,-3266
-104,-26,-49,-1450,3098,54
5,12,95,-1860,3321,3515
89,-112,-51,-2078,-3156,4609
-107,-46,79,-4619,-381,3333
-24,-111,-30,2210,123,-826
-93,12,100,6648,-2615,-2149
28,-103,-56,-791,1020,-2717
-54,34,58,-3576,725,-321
21,-11,94,5567,-3445,457
-74,-67,55,3988,-3002,1452
-9,33,-115,146,-1978,3586
75,4,-21,-17,-2330,2613
17,53,69,35,-3772,3291
-112,122,-15,-472,-1718,1877
54,-14,-72,668,-2156,2185
33,80,-97,1234,-1930,2253
-103,57,39,1339,-345,2911
98,-20,-43,997,68,1564
98,-101,-84,3269,-12,735
-8,74,-77,3738,-371,-633
4,72,-18,1426,149,-642
35,52,38,1016,-280,530
16,58,34,-24,138,160
-2,4,-24,-1000,917,-726
27,-14,-46,-858,662,-406
48,-11,-44,56,-120,108
45,8,-33,401,-382,88
54,33,-33,-32,-1,-157
73,40,-45,-35,177,-40
69,47,-50,-150,14,-71
82,44,-64,-19,63,-80
90,53,-65,-35,9,-41
97,61,-68,-3,5,20
102,73,-76,14,20,-73
113,81,-78,-59,38,-41
121,86,-86,-83,31,-65
124,88,-89,-41,19,-58
-127,95,-90,-35,-18,-37
-116,104,-91,-35,18,-32
-113,106,-92,40,30,-37
-110,112,-98,48,13,-29
-99,115,-105,46,13,-12
-100,126,-100,20,-25,-26
97,54,123,-1781,1496,-4801
-112,-110,96,-2433,4401,-5555
69,-89,-99,-599,1971,-326
-36,-59,15,-1956,5895,1756
20,-8,97,-749,-5487,8493
-65,-27,-8,-2516,-505,8054
97,-16,14,3453,-578,-4225
7,107,88,4354,-2539,-4010
-75,-23,94,-3900,4122,-3415
-66,-36,61,-143,-592,-156
88,40,89,4351,-4065,989
92,-93,119,2871,-4083,1623
-53,11,79,1363,-2758,4173
104,-76,-111,-662,-973,3989
-76,54,65,134,-2623,5417
122,-1,-26,973,-1669,2839
5,-55,98,296,-68,1000
-91,-20,30,2190,-1099,767
-89,-28,31,2763,-1401,2190
46,-27,-22,1492,-191,399
-61,27,-66,2396,-132,-1415
8,1,-48,1383,440,-1013
48,22,-30,-750,723,162
19,32,-44,-1550,199,688
20,33,-69,-894,-68,468
52,34,-62,885,-140,46
56,76,-27,466,-140,-381
59,62,-55,84,406,-573
57,37,-84,-201,310,-347
64,36,-97,-77,-169,118
67,14,-95,762,-290,20
82,31,-80,528,-294,56
115,46,-85,295,-3,674
89,70,-104,-341,86,541
73,74,-115,-657,-106,370
86,44,119,106,31,-238
94,62,-128,222,249,-555
118,81,-122,-118,166,-498
-121,86,-110,-90,-17,-186
-125,84,-115,89,84,-23
-119,86,125,227,135,-35
-110,98,119,121,26,-157
-103,96,119,179,-28,-266
-93,110,-123,13,80,-61
-83,120,124,-148,220,40
-88,-119,122,-412,114,0
-77,-113,115,-503,89,-28
-70,-111,114,-295,10,-86
-55,-87,-124,-471,129,-178
-56,-92,-120,-83,61,-145
-87,51,-112,-2919,5081,-4790
93,-2,79,-3028,2322,-2898
83,14,-67,2117,920,-3913
50,-86,125,-882,-1094,-3676
41,-95,115,-599,1920,-5811
78,-42,105,-3004,4173,-3303
-98,-99,-24,-1609,5078,-927
52,-127,25,-2515,3070,3458
-3,-29,-41,-5423,-2292,4675
25,-65,-101,6681,-2450,5690
22,61,94,5366,-738,-5651
-99,114,44,1969,-1065,-2886
-82,27,-115,-3491,1141,-1635
74,-117,-51,2683,-3256,18
7,-80,18,3562,-4510,852
-114,-63,58,2488,-3045,2187
48,6,-41,1687,-1029,2791
51,-90,4,-521,-2745,4474
100,65,94,-2035,-2523,3391
65,-54,-67,1842,-3247,1625
-93,-80,-107,2242,-2163,4083
42,20,-16,759,1100,3311
-111,32,17,5413,-491,1745
11,-16,-73,3657,-521,-748
-41,-123,-22,221,-260,-2065
15,39,-33,-939,783,-1267
33,29,-47,-1368,543,317
10,53,-43,-1097,-375,762
24,67,-49,-550,-508,433
47,86,-54,75,-97,65
47,110,-33,231,1,-102
60,113,-43,129,212,-190
83,102,-72,105,283,-186
60,104,-88,28,111,-66
63,106,-92,23,-66,22
101,119,-95,-181,-57,90
102,126,-77,-38,-110,38
111,-118,-81,-104,213,-128
118,-118,-94,-207,172,-97
119,-112,-104,-317,32,-12
125,-114,-99,-81,-69,-64
-119,-108,-93,9,29,-73
-108,-113,-94,215,23,-41
-104,-100,-99,173,54,38
-106,-94,-107,86,37,20
-99,-88,-104,-36,0,-3
-86,-88,-106,-141,66,-96
-87,-96,-104,48,-7,-62
-84,-96,-107,125,17,-49
-83,-89,-110,39,-6,-23
-19,120,-112,-1878,8110,-7066
82,33,13,-1284,-652,-2344
-3,-101,86,79,27,-4597
-101,76,19,-2439,685,-4877
18,-80,47,-2698,3802,-5468
60,-81,-2,-2070,5611,-3167
-47,12,-118,-2645,2830,3286
-76,10,-119,-2753,-628,4374
50,-64,-40,-677,-5033,3367
-80,21,-118,2066,116,-66
82,-120,-24,6777,-1491,-5013
-79,125,-68,-3120,2727,-2646
71,-28,116,8,-306,-3338
117,72,120,2502,-508,-687
-33,-66,-80,3776,-3719,1099
-10,-105,-112,2683,-905,2913
46,-122,-6,497,-2337,5295
92,-49,49,-136,-2919,6086
42,86,-3,874,-2917,3387
-81,87,-110,-2018,-1421,3221
120,-73,63,-701,-1271,1702
-127,27,29,2467,-1647,1034
73,-82,7,2870,-1318,735
107,-48,-38,891,731,332
52,-106,-61,-570,1382,-181
36,83,-66,744,352,-375
35,68,-47,1113,-383,-89
31,96,-39,384,-524,368
47,68,-58,297,-155,139
39,81,-28,143,-261,268
43,74,-57,231,164,-104
52,69,-72,2,286,-418
73,56,-87,-80,146,-372
76,57,-75,103,-180,-74
75,64,-73,177,-108,22
76,74,-83,30,112,-98
87,76,-91,-41,84,1
107,83,-93,-61,16,174
108,87,-98,187,16,57
115,90,-103,255,123,-27
-124,104,-111,-120,39,11
-126,105,-109,-16,-111,23
-119,106,-102,86,33,-138
-110,115,-106,-140,92,-122
-104,113,-108,-76,4,-71
-105,114,-108,122,4,-132
-94,119,-113,49,122,-146
-93,126,-116,-82,19,-64
-88,124,-121,54,35,-95
-83,-125,-118,-15,23,-99
-20,41,-116,-879,1551,-6053
-116,106,111,-2640,5598,-5100
-99,53,-101,-5089,3364,3322
120,-125,-117,-3582,158,6121
-124,35,-6,2947,-3768,4404
30,-122,-106,320,-4651,2945
-51,8,78,3815,352,-6198
100,86,-54,4175,-959,-4760
17,-88,34,-2650,-297,-3333
-64,51,-70,467,-458,-1070
-125,-127,-61,2413,-890,870
-81,-110,-31,4771,-2878,2752
124,113,-72,634,-598,4289
-53,-68,-8,-1304,-1048,5190
9,75,-78,158,-2805,3246
117,-4,-85,4594,-2595,2708
-110,-119,106,3245,-347,3738
69,50,-7,-3942,1265,2431
98,109,-117,-1532,286,855
-43,-114,-99,3237,-766,-1067
42,46,-101,4296,-63,-1293
-30,-20,1,3244,-1027,-1204
2,61,96,-158,-744,816
45,21,37,-935,815,961
62,4,-50,-748,1392,558
67,31,-78,-913,1060,155
67,23,-78,-616,33,-529
81,7,-63,208,-706,-674
91,-6,-48,1004,-581,-299
99,17,-47,499,-2,69
101,59,-48,-719,266,375
106,64,-79,-694,258,344
111,41,-102,284,31,-47
109,58,-82,413,-380,-71
120,74,-75,33,-102,30
-120,72,-86,-8,179,-57
-128,73,-102,8,74,-13
121,78,-100,34,-141,21
-123,86,-97,-29,4,-1
-110,96,-106,-202,154,-138
-99,89,-111,39,6,-144
-92,89,-113,153,-87,-88
-105,85,-102,501,-46,-105
-93,96,-113,272,95,-9
-80,103,-120,-52,74,71
-80,109,-128,-142,13,-12
-74,106,-128,64,-16,-82
-61,113,-125,-35,28,-115
-61,121,-119,-100,28,-69
-70,113,-118,91,18,-130
5,30,49,-1474,7205,-5129
27,-92,-70,2693,-958,-2267
48,91,113,-613,1553,-4991
-123,-89,38,-437,-595,-4854
70,-85,-46,-1456,2880,-6219
117,104,-88,-1739,3996,-3300
-107,-8,18,-620,2529,1638
87,17,40,-3178,-86,5890
59,115,-32,-121,-1847,4004
58,-53,-71,2837,-1499,1048
-38,-9,-62,2599,-735,-5226
-36,85,-128,172,556,-3351
25,-63,93,605,-486,-1262
-125,13,96,1803,-3184,407
51,-40,31,1444,-2662,957
67,-73,98,2194,-2893,3569
-86,52,10,2326,-1990,4525
-29,88,81,-1898,-671,3839
-51,-64,46,-1361,-1498,2249
-72,13,-12,1695,-2713,3259
-40,100,104,3485,-1351,2899
-24,-100,-69,5848,21,2660
-85,-68,-80,3430,451,1634
7,-52,-53,-1355,406,-288
-8,120,-37,-2806,-133,-1373
31,47,-58,-1404,-159,-1247
51,3,-58,678,-254,-644
34,24,-47,1277,-338,-159
35,58,-37,325,-248,-116
60,78,-43,-643,34,-151
61,67,-50,-540,-2,-182
69,58,-56,-64,-83,-216
73,64,-54,186,-75,-26
80,84,-63,74,66,212
90,101,-67,-183,172,283
101,110,-82,-161,242,276
115,122,-105,-35,166,132
112,-121,-113,-158,23,-1
120,-117,-110,-141,-88,-120
127,-119,-99,-45,-81,-174
-120,-123,-98,33,20,-135
-115,-118,-95,-42,7,-75
-111,-117,-98,-2,8,-39
-103,-114,-102,18,54,-78
-98,-114,-106,97,-1,-59
-94,-111,-110,71,39,-27
-92,-106,-112,-25,30,24
-83,-102,-117,12,50,-12
-84,-99,-116,79,-53,-48
-75,-95,-113,-52,40,-108
92,-31,-62,-3182,6901,-2111
80,99,53,217,6499,-7138
16,66,-69,4202,-1224,-2268
117,-67,105,-1093,-603,-5027
83,65,94,-2188,815,-5045
56,-27,-37,-2555,3854,-2468
-126,-45,-104,-37,3849,-315
62,-126,84,-5834,-452,6279
23,-23,44,2369,-1193,3564
102,82,95,4679,-1556,-3117
7,72,-98,3192,838,-5852
63,95,-63,-1931,1643,-1173
87,98,87,3175,-2847,-1132
-8,-19,119,1273,-527,-1250
-90,-56,-94,3124,-2367,-2254
13,-104,-90,1838,343,-1036
46,11,-57,-1755,-914,6923
58,-106,27,-69,-1895,3226
103,-106,-22,188,-2248,4482
-49,104,-75,44,-2331,3870
41,54,-60,884,-1471,2708
89,57,-126,-167,-2258,3037
92,102,106,-2134,-687,1924
28,-74,13,3339,-245,-887
49,-37,20,2439,172,1350
58,6,17,-290,-91,1877
55,-71,-19,-774,-209,931
8,100,-18,195,-473,-567
28,88,-29,649,-38,-850
55,103,-15,-8,51,-296
46,112,-21,-161,-77,424
39,97,-35,621,-109,481
41,62,-51,2911,-588,618
79,86,-53,2132,-276,213
91,117,-57,-356,490,-527
86,95,-81,-1733,648,-756
93,63,-84,-1341,28,-611
87,44,-59,-74,-515,-58
101,76,-57,493,-68,580
121,110,-80,74,577,367
-127,-122,-103,-408,460,-12
125,120,-107,-199,-53,-230
-118,106,-101,296,-295,-65
-111,122,-94,130,-87,51
-108,-123,-94,-116,76,68
-94,127,-106,12,42,36
-98,113,-119,465,-77,-100
-115,105,-127,528,-219,-222
-109,106,-94,326,-427,88
-83,100,-90,593,-20,347
-27,-64,-59,-2347,5276,-2077
47,24,-58,-4816,6398,-6523
125,-125,21,137,-576,-3731
-3,126,-110,297,-1210,-3342
-73,-25,108,-502,177,-4563
-85,-55,105,-1715,2445,-5063
-90,-49,-112,-965,5240,-2296
-42,10,-90,-2052,5972,1313
-108,-100,-106,-2998,-2156,5491
106,-61,67,-5320,-2770,6694
88,112,-116,2926,-96,-840
-70,83,76,5709,-3183,-4567
-13,-117,-85,-2428,1696,-3187
-24,42,43,977,-831,-1357
-39,121,47,2620,-3968,716
101,-29,-4,2650,-1548,1596
-128,-7,-62,2769,-2286,3378
61,-46,79,-751,-1035,5503
-114,99,51,-2184,-2633,5945
122,-66,124,2234,-3326,2577
-68,-59,65,780,-900,2947
-97,-38,-62,3026,-31,1602
-73,92,-87,4704,-102,1374
-50,-56,-95,918,1326,1164
64,-69,-83,-2074,855,-469
8,89,-61,-1299,-512,-1274
46,19,-35,173,-1102,-1303
40,9,-33,1324,-790,-380
38,53,-32,808,8,433
48,91,-38,-825,529,306
61,93,-63,-1088,418,133
65,87,-82,-466,90,-81
63,75,-77,393,-199,-310
81,89,-74,278,-24,-109
93,112,-87,-260,104,-44
95,113,-97,-463,82,54
95,120,-101,-279,10,207
105,-125,-105,12,35,169
125,-110,-108,25,49,71
-126,-99,-112,-104,-51,-96
-111,-96,-110,-301,-35,-271
-115,-108,-108,7,-62,-277
-117,-108,-106,77,-64,-249
-105,-108,-108,45,81,-175
-107,-107,-113,-3,1,-123
-98,-101,-111,-105,-36,-30
-97,-98,-108,-95,64,22
-87,-100,-109,143,68,67
-78,-88,-117,51,101,83
-75,-81,-121,-70,81,37
-92,91,-27,-3150,4575,-2451
114,-41,125,2536,5401,-4802
-78,-72,78,619,-158,-1114
-95,-28,119,-76,1567,-5196
123,38,-99,-408,650,-5435
110,60,-119,-993,2081,-6594
-41,13,-20,-2007,3664,-3312
-25,-30,-81,-1691,3708,2233
127,-36,53,-3574,-284,6111
19,101,109,-2248,-5291,4213
30,-104,-38,3315,-1351,1331
66,93,88,4713,17,-5689
86,93,-64,-999,1158,-2271
-126,-66,124,-2087,1582,-3871
70,-80,102,3794,-2244,934
75,22,69,2734,-1795,-359
-127,-33,121,2590,-2579,1136
125,115,45,-1388,-653,4790
-83,91,79,-2307,-3171,6552
12,-115,21,189,-1277,2476
95,-106,0,-406,-2457,1593
68,-74,103,-888,-2013,1812
110,-94,90,-455,-1946,3220
-56,-17,39,3572,-1014,2737
-32,19,1,3875,1292,1347
93,-41,-47,2630,672,-111
3,115,-7,1393,-1278,-955
43,59,11,-601,-1365,-1088
57,39,-26,-1262,-403,-615
35,19,-33,-723,57,-43
40,25,-49,59,312,498
53,62,-49,-22,106,497
67,100,-55,-245,-55,362
75,100,-56,66,129,-88
81,82,-55,692,84,-264
84,81,-67,767,-28,166
88,104,-76,-101,35,270
114,115,-90,-564,124,35
115,114,-93,-525,-11,-278
126,117,-88,-627,66,-394
-121,117,-83,-444,92,-256
-118,117,-83,-27,36,-70
-115,127,-85,215,86,54
-111,-122,-93,325,55,40
-105,-118,-104,348,-14,45
-101,-117,-103,333,-82,-21
-90,-117,-102,229,15,-84
-86,-112,-98,-48,-32,-24
-84,-110,-94,-163,22,-68
-73,-112,-98,-142,84,-93
-54,-69,-21,-3084,3428,-3187
5,47,61,1763,518,-2073
-37,56,78,-873,128,-3226
-57,112,-20,808,-494,-5122
-33,94,-64,-21,-107,-6848
-75,69,-83,-2208,3381,-5571
122,85,95,-1319,407,576
-41,-122,-44,-1677,3187,4325
-70,90,-26,-2435,-512,3409
114,-55,-13,-4085,374,4637
21,-71,-98,3097,-1877,97
94,12,-49,4351,-250,-5138
-108,64,-19,-2780,1827,-2596
-109,-91,-123,54,-1744,965
-57,81,112,2556,-1726,-2238
118,-4,113,1547,-1272,-645
-109,-122,-55,3111,-1893,1646
104,42,27,524,-954,2453
-69,-22,85,-2143,-1394,2180
-120,107,0,-1505,-4107,124
16,54,-35,1543,-2249,2094
61,53,-88,1181,-1337,3383
113,-28,-80,2132,-367,3724
96,77,93,3856,-701,2837
95,-25,8,3344,-664,2321
44,-102,-41,1171,201,756
15,81,-41,231,645,-714
10,43,-26,-681,472,-1140
40,21,-29,-207,17,-233
47,-1,-44,1248,-434,363
23,4,-11,1060,-710,-210
46,50,24,-779,38,-222
68,29,16,-127,350,131
68,12,-3,872,65,45
79,20,-41,590,216,-99
86,35,-70,-405,249,-32
85,35,-72,-368,-81,144
93,29,-64,240,-159,-25
122,70,-44,-284,146,-138
123,67,-57,-361,243,-104
115,63,-71,-190,94,-70
123,63,-86,42,26,-63
-121,66,-88,241,-21,-32
-115,79,-79,229,-52,-8
-101,90,-71,167,77,45
-98,99,-75,-14,104,58
-99,104,-88,-117,6,-62
-87,101,-95,-152,9,-152
-83,96,-96,-82,-2,-95
-82,108,-86,-106,-25,-19
-6,-40,-73,-2219,4480,-2525
-100,57,-114,-3102,5701,-8194
64,-49,72,-946,-867,-807
1,-110,123,579,-70,-4947
6,-54,55,-1807,-299,-3753
45,-42,52,-1720,4052,-4934
92,14,114,-1545,1382,740
13,-93,71,-4581,4952,3236
9,45,87,1294,-5683,2206
90,36,6,2437,34,6874
119,68,100,5195,-625,-7185
-27,33,39,-472,2507,-3797
49,-43,-94,-2306,752,-2415
-42,69,86,4716,-3201,-5
-26,-17,29,3056,-2644,-183
95,120,74,2960,-1202,1874
-106,-30,-111,2108,-253,4333
79,75,-99,3010,-224,6506
-62,6,-114,-626,-23,3610
99,70,90,-1559,-1698,4306
122,13,64,397,-1411,1746
-66,-63,6,903,-858,2784
14,-82,-27,1293,296,3466
-108,-8,-89,83,1108,1772
-7,-97,-88,105,-63,-1543
-25,78,-38,255,-1169,-2658
55,29,-28,692,-664,-1689
62,44,-41,612,177,182
40,76,-45,-631,283,261
46,68,-60,-703,49,-66
61,46,-69,541,-97,45
65,64,-59,712,-111,15
80,68,-58,818,-13,93
89,79,-61,722,24,60
97,91,-68,-139,211,-193
110,75,-94,-526,327,-122
103,58,-105,40,4,12
108,74,-98,-75,-109,-40
-127,95,-90,-360,80,-69
-119,88,-90,-43,48,-135
-120,89,-90,155,0,-68
-114,96,-100,149,51,-47
-107,102,-108,96,1,-21
-106,111,-105,52,-42,-39
-90,112,-108,45,95,-46
-92,119,-112,-40,5,-42
-85,123,-115,-141,28,-70
-82,122,-114,-84,28,-97
-76,124,-115,-51,41,-43
-74,-126,-116,-5,25,-36
55,97,119,-2377,2890,-3914
56,-98,-21,-2721,2714,-4772
-122,114,99,485,414,-3038
59,-127,114,-82,-308,-4461
-7,62,96,26,871,-5086
37,-51,13,-1720,2943,-3716
-104,-23,125,-2014,4103,-267
54,-85,-2,-3197,1155,4407
116,-77,21,173,-3849,3519
-78,-115,-12,4206,-1748,4457
71,-10,34,2455,205,-4617
-101,74,-43,1258,-1668,-1857
-57,-113,124,-5243,1294,-2792
20,-104,58,3624,-1071,-734
27,-69,48,3286,-2613,340
-46,-91,112,3795,-1883,1792
4,116,-38,331,1491,-267
14,-81,51,-1986,-1280,3316
57,-12,48,968,-2956,1302
-49,-78,-27,475,-1366,3898
-34,-31,-87,1553,-720,3444
46,-100,104,2666,-1889,7281
-96,-79,-65,4301,-760,4611
-28,26,-61,2874,-1363,67
-8,-128,22,-1642,-645,-1499
75,101,-35,-1221,1238,-740
-6,54,18,-1127,429,-846
-1,4,-1,-327,-243,-807
35,-10,-60,485,134,-135
31,28,-65,134,168,338
28,53,-63,-117,-11,284
57,80,-47,84,38,428
75,89,-60,650,183,178
73,94,-72,-52,243,-424
83,85,-85,-467,195,-172
89,62,-90,-60,11,35
101,81,-82,127,-21,98
113,100,-82,-115,81,-49
117,113,-91,-350,97,-110
118,97,-101,-42,89,-103
124,111,-99,-152,-3,-17
-117,124,-99,-220,1,-109
-108,-124,-95,-310,50,-69
-107,-121,-99,-211,110,-58
-107,-116,-107,-127,65,-32
-102,-116,-109,64,-8,-14
-90,-107,-107,30,35,-8
-81,-101,-106,87,34,-46
-81,-97,-110,7,54,-82
-82,-100,-115,30,29,-59
11,112,10,-2549,2558,-4270
112,-116,-6,-3747,206,-2805
-120,96,120,-49,206,-4952
73,107,68,-850,-331,-2563
-49,12,-67,-2131,1079,-4108
-31,9,33,-2553,2988,-3789
-114,81,-98,-7,3904,41
46,111,22,-2853,4330,2875
42,10,-124,559,-4438,5593
57,40,-73,1502,-931,4999
105,-103,-8,951,-409,-3845
109,-54,-114,2244,-468,-3587
-66,-38,-81,-2466,1985,-2931
14,-67,-125,1766,-2417,602
-100,-65,102,2840,-2529,-1446
-87,-2,-128,2167,58,-308
18,-89,-41,1335,-913,1236
99,65,-57,-296,-1733,3402
-38,83,72,-2968,-3514,1806
98,-103,68,1010,-3263,4355
-77,-45,10,188,-1422,4186
-76,-11,-108,2996,-245,5714
-99,-123,49,3358,-266,3222
15,25,-4,1715,-1300,-37
6,-61,-27,-625,-542,-1026
37,110,-46,-277,591,-666
27,93,-46,-275,236,-549
53,59,-31,518,-232,-290
62,76,-15,524,-292,-304
87,82,-22,120,272,-436
84,80,-41,-51,211,-125
81,81,-52,-29,-83,18
95,81,-61,271,-28,44
103,91,-66,271,89,11
104,100,-72,84,-21,18
115,112,-71,-244,-142,-13
117,115,-55,-214,-188,13
-125,115,-48,-3,49,-87
-109,124,-56,-41,170,9
-120,115,-77,99,101,-104
-117,114,-87,239,22,-44
-110,114,-93,310,-2,-13
-99,115,-90,303,-17,56
-94,-128,-86,-91,61,33
-83,121,-90,18,58,-30
-80,120,-88,47,-24,-74
-89,120,-87,73,11,-87
-61,111,-102,181,114,-71
-64,-126,-97,-100,28,69
-75,-125,-94,13,119,-74
104,105,-112,2931,4855,-5283
107,63,-100,-1964,584,-5729
-93,41,121,1346,-1116,-2432
117,-3,-93,-1609,-1230,-4950
71,63,-18,-915,-1594,-5547
-58,62,-77,-2219,3452,-6294
-106,-65,3,-2799,1845,1369
102,0,-103,-3134,1032,6014
21,-68,-56,213,-4044,1654
-70,61,-118,4508,-721,5112
-35,21,113,3345,516,-5777
96,-80,-11,-199,-1603,-2674
-56,61,-74,-4749,-1,-4155
95,-80,95,4514,371,-2004
77,-50,67,2825,-2166,54
-49,-114,90,3565,-1720,2235
73,30,-112,632,-1276,3546
-88,-79,-57,-820,-1052,5861
-51,-38,38,595,-1844,3669
66,118,21,633,-1310,2376
-109,108,-87,-1592,-139,680
-106,-21,86,-676,-121,220
-118,98,44,2219,-1158,2690
-109,106,17,1239,-185,653
98,81,6,44,-68,115
67,-49,-7,1667,-420,231
71,-54,-1,110,-87,629
58,-85,-6,-385,-308,77
80,-127,-18,377,-51,169
98,-105,-6,-12,212,290
117,-116,-29,37,458,172
106,-126,-25,-80,288,165
83,107,-27,-137,-471,-8
114,102,-35,276,-306,264
127,125,-38,384,64,188
-126,127,-50,416,14,-23
-123,-116,-44,-344,-16,39
-120,122,-51,-112,-45,123
-115,125,-52,-98,32,-6
-106,121,-57,86,51,-23
-103,120,-61,156,6,0
-96,115,-65,309,18,90
-87,-128,-72,250,51,151
-92,-120,-73,0,49,-75
-79,-121,-69,-120,75,-96
-72,124,-74,-21,127,-138
-74,127,-78,-6,30,-23
-77,-123,-81,-10,-56,4
-65,-115,-80,-14,-1,-90
-62,-113,-79,-19,-36,-10
119,-10,-54,-2553,8853,-6947
-32,-127,43,1326,-2407,-3792
-50,58,60,-53,-1133,-6154
9,-122,20,-3281,2522,-5887
62,50,-114,-2433,5023,-1092
34,126,62,-29,1183,2921
120,116,100,-1681,-4188,5702
-111,-63,-12,2553,661,6688
-5,-124,81,1622,736,-7592
65,-47,-39,2219,-1123,-2821
124,-89,-59,-2416,1227,-2798
116,-67,-18,2446,-3567,597
-6,-88,36,2647,-3756,1329
31,-58,-94,2632,-671,3795
78,-63,-26,512,377,5528
-123,-103,15,-1291,-96,4846
100,-28,-89,242,-1609,3146
111,7,115,2076,-2708,3213
122,-93,0,-210,-1151,1426
65,-8,-79,413,-1552,1241
27,-99,-60,1659,-1169,1053
35,80,-63,1712,345,14
82,121,-57,30,1503,248
108,121,-63,-198,1044,347
57,73,-51,174,-111,-304
39,39,-52,675,-353,-533
67,51,-63,176,128,-202
77,42,-71,97,194,65
69,39,-65,290,-130,74
109,47,-76,42,62,51
101,60,-63,-181,-74,17
94,79,-61,-452,-25,252
99,73,-88,-358,36,35
-116,63,-114,-48,370,-330
-122,68,-115,155,-15,-238
109,114,-65,-198,-201,119
-118,106,-87,0,312,-43
-110,98,-125,99,242,-234
-119,102,-120,-104,-260,-6
-104,105,-111,-44,-99,3
-85,115,-102,110,135,-103
-92,-127,-102,55,-54,-28
-92,121,-118,209,53,-43
-79,126,122,-28,72,-111
-75,-117,-125,-478,-11,-53
-62,-128,-108,-197,30,0
-68,-122,-105,60,87,118
-76,-112,-119,166,107,75
-63,-110,111,49,82,-108
-55,-109,120,-125,-75,-106
13,-73,0,-736,5964,-4542
100,79,95,-3216,803,-4432
88,71,16,-892,2622,-5057
119,25,-120,583,1063,-3781
51,125,94,831,-103,-3990
55,4,73,-3204,1826,-3324
80,110,-120,374,4782,-1839
-21,-112,69,-1462,-1305,3909
-41,29,-91,-490,14,3860
-69,-71,-117,1788,-175,1275
-39,-63,36,4481,-284,-4614
124,-8,61,-1769,-98,-1537
21,111,-61,-386,-809,-420
-46,-19,3,2296,-2642,60
44,123,26,-368,-2198,2146
111,-77,-108,2509,-2697,2346
5,83,-25,267,40,4381
102,-60,-90,-692,-1028,4159
94,-107,-67,-923,-1438,1693
-65,-17,81,-206,-1814,2399
-24,-61,59,500,-1331,2478
-30,115,57,1863,-1438,1536
-87,26,-10,2232,-140,764
116,-56,-5,2404,405,250
72,-100,-13,540,-37,112
66,98,-54,182,-172,292
57,73,-56,-305,-5,358
56,45,-69,-190,8,156
57,66,-59,-181,-96,187
76,68,-52,-34,-10,-40
99,72,-48,126,109,-167
99,80,-47,73,66,-42
94,72,-63,253,62,-17
101,79,-82,64,30,60
114,80,-93,-144,45,18
124,87,-92,-173,-8,-8
-123,97,-89,-196,-8,-19
-119,111,-84,-232,-33,-74
-114,112,-83,-265,126,-141
-110,106,-92,-39,105,-67
-105,108,-100,43,26,8
-101,119,-103,102,-11,17
-92,127,-101,102,37,1
-85,-123,-102,31,49,-51
-81,-119,-106,-44,9,-44
-78,-122,-107,-28,44,-77
-73,-116,-106,-53,12,-23
-69,-117,-110,32,27,-65
-65,-110,-109,-21,2,-42
-59,-107,-116,-49,21,-58
44,-11,123,-817,9047,-8888
16,92,-101,48,-607,-940
-88,-39,-78,-743,502,-4148
97,11,104,-1477,-1928,-5008
58,75,16,-2391,2258,-6136
-78,-128,109,-1485,4215,-1993
41,81,22,-1811,6551,2057
-55,-55,-92,-1132,-5312,6208
7,19,43,-3520,-1793,8429
-18,-53,-118,4468,4,-5854
-111,-100,-87,2259,-2535,-4551
85,35,-91,-3315,2293,-2774
82,72,70,2568,-1002,313
-7,-46,89,2144,-3223,273
-128,29,115,1222,-1513,1989
-124,-128,-100,2583,-659,1353
106,-89,48,-75,-321,5217
97,61,94,-1365,-1854,4616
116,37,30,-764,-1144,1044
-120,30,-43,-1606,-2129,2739
-8,-70,-104,-409,-1818,2614
-50,-17,88,4317,-2480,2318
-43,-28,9,3693,-146,1254
109,-26,-15,1050,294,437
17,-121,-7,-928,-309,-669
40,51,-7,-686,-384,-878
59,28,-15,-102,-13,-176
38,60,-26,12,32,751
52,95,-26,-405,-3,608
85,103,-52,-262,118,288
78,100,-67,181,-2,-93
68,108,-62,56,-167,-296
82,102,-66,-29,-66,-243
89,104,-67,-140,-12,-60
101,110,-76,-161,17,1
108,119,-82,-157,-68,-139
112,121,-81,-115,-103,-192
112,125,-72,-121,-53,-219
124,126,-56,15,-29,-131
-115,116,-57,545,84,31
-113,120,-77,707,82,90
-114,-126,-94,393,50,112
-109,-125,-107,119,56,-57
-107,-128,-109,-53,-9,-176
-92,-127,-97,-242,-6,-105
-87,-122,-82,-253,24,-90
-79,126,-85,-6,105,-158
-77,127,-92,102,47,-44
-76,-126,-103,212,13,20
-75,-117,-106,180,-16,-16
32,17,-49,-3973,3871,-3484
-65,122,-127,-2336,4515,-4870
-104,-27,-125,741,1287,-2902
-4,88,-108,1425,1048,-2432
28,-33,108,-250,-919,-3766
72,120,90,-581,173,-5410
7,121,78,-2408,3288,-4116
98,-100,-44,-50,4736,-1204
36,-106,70,-3758,3704,4156
66,38,69,-2468,-4028,3400
-73,-82,7,-4210,-2514,6391
-26,109,-38,1515,1728,-3800
59,-117,-62,5912,-1632,-2467
48,-74,-100,-2998,816,-2626
-58,-64,94,1975,-2412,419
-21,-77,-126,2779,-3062,-270
-106,41,-120,1727,-2425,1486
-116,-41,50,1703,-1470,2318
90,-13,49,-1244,-1280,5227
37,111,68,470,-1707,2423
69,74,30,439,-2226,2873
-128,-46,-61,1152,-1776,2961
-111,-88,83,1225,-1266,2406
27,103,10,4404,-1835,1440
111,-102,-49,2168,-328,1181
80,-120,-58,206,1005,145
19,-125,-64,-1213,1048,-291
-14,64,-40,-761,-120,-562
14,18,-34,1181,-645,-292
42,62,-14,310,-243,-142
56,76,-19,-463,236,-159
57,62,-31,-197,168,-141
58,63,-35,240,-31,-25
67,73,-46,194,62,-16
76,76,-61,186,69,-27
90,84,-72,19,29,0
85,95,-66,-180,-32,-18
91,91,-69,-54,-4,-68
111,94,-76,31,-22,-19
118,101,-81,22,-48,-81
119,102,-80,82,-17,-120
-128,104,-84,63,53,-70
-126,112,-89,2,23,-79
-115,108,-93,70,14,-98
-104,112,-89,168,2,-44
-93,120,-91,48,127,-120
-97,126,-96,-87,71,-204
-87,115,-96,-105,113,-231
-84,109,-94,80,130,-48
-81,112,-93,372,36,60
-74,-91,60,-2513,5137,-4187
-3,-8,66,-532,3381,-5280
-123,-61,-108,2389,1278,-3975
84,103,50,826,-1053,-3025
-71,46,-43,-130,2501,-8138
75,-48,-84,-867,2413,-4063
-100,-68,86,-1508,2184,1371
105,62,-2,-3421,-495,5719
20,-107,-1,-1077,-1360,2057
70,-83,-68,1275,-859,-736
-117,-85,-82,2092,-189,-3199
-99,-56,-108,-2231,-7,-2528
70,87,109,1010,-592,-1175
126,111,0,998,-1995,-458
12,14,57,1827,-2295,1178
-32,-102,-94,2938,-3112,2496
-87,108,-44,12,-1207,4350
-55,-15,79,-1872,-3506,4106
7,94,-49,-628,-3708,2096
-66,107,-59,1027,-2889,3159
-3,38,83,1126,-708,2149
-98,-60,43,2430,-536,2203
63,-29,-51,5005,-832,1137
35,34,-74,1094,155,-56
-13,4,-65,-2259,748,-535
-14,81,-75,833,281,-621
16,75,-58,1032,280,-264
57,-112,-53,-1056,564,238
59,-99,-70,-1603,464,221
60,-127,-52,-491,-68,-239
70,-112,-51,-83,190,-249
87,-62,-53,-823,290,128
96,-90,-72,97,-18,119
114,-91,-71,470,-119,20
125,-65,-63,-44,-8,87
-126,-76,-59,105,-21,45
-118,-72,-64,-23,92,7
-108,-70,-73,-175,69,-39
-105,-89,-77,130,7,-140
-105,-77,-65,-36,17,-50
-93,-87,-73,198,98,-68
-98,-84,-75,208,-75,-9
-83,-77,-75,17,40,38
-82,-82,-76,108,9,-23
-79,-83,-76,150,-36,15
-68,-84,-77,63,26,-54
-66,-78,-84,-46,2,-93
-66,-79,-80,-124,-13,-81
-58,-80,-79,-66,43,-45
-56,-82,-83,66,-21,-45
-9,-114,-36,1098,4225,-3466
90,-55,110,-390,2159,-3889
-123,-23,109,525,-2571,-1671
-26,-24,28,-1309,820,-6168
68,111,0,-373,2472,-7268
-61,-98,44,-1685,4589,-4515
-63,-30,19,-1404,3199,2021
-112,27,-111,-4389,-826,8143
-41,15,-99,-8702,-688,4818
-15,-48,-53,3921,-2612,-1136
66,-99,-14,9062,-3455,-6245
70,-67,-56,-2501,-452,-2942
-25,98,-95,-697,-791,-735
-123,54,63,1524,-1268,562
-57,-12,72,859,-2037,1759
66,-96,123,4180,-1555,-1880
-67,-7,-50,761,-2028,3801
60,-8,68,-2542,-1387,2213
13,35,76,-11,-1981,3397
-3,2,-74,1418,-2259,4516
54,-93,-100,582,-2902,5042
-104,-128,39,6273,-3009,4548
-40,-49,-33,4505,1188,337
27,-15,-20,-1354,1980,-2735
57,51,-105,-1853,1369,-2054
39,-23,-48,-863,-487,-1074
28,-22,-58,875,-1119,103
36,-1,-55,1452,-715,879
39,56,-42,376,-130,620
44,74,-39,-229,32,167
62,81,-28,-99,137,-226
68,102,-25,-590,324,-301
67,78,-61,-382,264,-98
75,70,-101,-277,174,-51
106,73,-109,-211,90,-48
117,89,-91,-142,-187,90
119,112,-52,158,-233,68
127,119,-52,342,180,-124
-112,117,-90,-91,421,-177
-121,-107,-108,-800,139,295
-128,-107,-106,-722,-107,20
-95,-93,-91,-623,113,-237
-82,-99,-81,-148,43,-259
-98,-99,-75,214,-58,-196
-102,-93,-87,278,-174,-38
-89,-96,-93,350,-231,50
-78,-96,-108,151,-64,214
-84,-86,-116,-103,62,63
-76,-93,-118,73,81,21
-73,-95,-122,38,110,-13
-76,77,-10,-3389,7026,-5106
-113,-22,-13,-693,3793,-3863
-98,114,73,235,-1750,-408
-113,-61,111,-1124,2567,-6612
10,96,-122,-1440,3016,-6349
78,77,65,-1873,6354,-2882
71,-114,-66,-4918,2310,4356
89,64,-121,943,-3072,3678
-61,-122,116,-3457,-3066,4011
79,-90,-3,1976,481,-3174
-71,51,-20,3969,-1818,-2289
57,-63,98,-2432,-188,-1312
-106,-41,48,828,-1001,18
15,-111,-117,2357,-3485,-191
-68,107,-62,3754,-3631,1856
-6,86,4,164,-495,1713
-109,42,33,-1117,-1941,4374
26,119,65,1912,-2524,742
-118,26,29,-784,-192,4072
7,23,-86,2283,-1664,1295
51,37,112,78,-1199,1317
5,3,66,4062,-1393,1931
77,122,33,158,488,1316
48,-14,-43,-414,592,145
32,-100,-29,107,25,-18
63,120,-40,275,346,-143
75,94,-53,114,-25,-199
73,94,-46,247,-500,207
64,-95,-9,-904,-442,530
64,121,-30,229,-238,198
95,-124,-51,427,192,-115
89,-108,-70,-151,267,-215
83,-124,-81,-102,57,-44
90,-124,-76,19,-61,80
102,-102,-82,-263,-40,-33
121,-97,-89,-439,-80,-50
123,-115,-92,-192,21,-143
-104,-102,-101,-136,178,197
-128,-75,-67,-87,-227,264
126,-68,-74,-64,162,-103
-111,-63,-91,-353,77,-153
-64,-99,-119,-14,63,-339
-81,-74,-74,209,-40,219
-123,-43,-87,-540,85,-284
-74,-97,-108,166,255,-200
-58,-72,-99,321,-226,299
-93,-59,-88,218,-301,-174
-60,-68,-99,-83,525,120
-77,-79,-127,382,-92,-74
-97,-65,121,438,-696,47
66,5,121,-2251,2516,-5618
61,90,-98,-1138,6875,-4960
-7,-5,-21,-947,5033,1091
-98,-75,-27,-2114,86,4117
35,97,62,-152,-2420,4515
-115,-110,-127,2106,-1601,3004
-18,122,-66,2204,-1282,-5687
-126,119,-89,-5298,-52,542
20,73,78,-5053,1918,-2760
107,-7,-62,3953,489,-1234
99,42,-78,3183,-3216,1186
17,65,-54,2252,-2891,3426
3,-118,83,334,-1154,2446
-77,-91,83,-892,494,3431
29,64,91,869,-986,1229
124,123,46,-1057,-1228,2118
121,-48,-36,-1213,-1287,1627
-76,114,127,124,-1598,2406
-68,84,-125,410,-725,1429
-82,-7,123,2168,-628,903
116,-31,88,1100,-827,186
101,-110,54,500,-739,400
-112,-113,17,-153,159,814
109,97,-9,596,-249,100
102,87,-1,524,-244,-364
109,90,11,319,-74,-203
106,101,7,309,-79,12
109,99,-12,357,-57,-29
117,127,-17,-111,85,71
119,85,-28,385,-133,-178
-115,100,-23,-52,83,20
-127,96,-32,-18,-104,78
-127,111,-36,-13,-192,123
-114,118,-48,25,-84,81
-109,127,-43,-103,-42,-50
-101,122,-47,-190,12,-36
-101,125,-53,-247,-5,0
-95,-126,-63,-232,-54,37
-95,-116,-62,-316,26,-32
-84,-125,-63,44,6,10
-77,-115,-70,-16,2,13
-76,-103,-77,-163,-23,-103
-76,-106,-76,-79,-33,-94
-74,-96,-71,-112,-30,63
-67,-90,-74,-42,9,4
-54,-83,-78,-34,18,-102
-49,-78,-78,-60,19,-100
-54,-83,-79,91,48,-137
-67,-71,-84,-7,-5,-43
-76,-54,-81,-592,-44,3
-102,-26,-84,-1567,5369,-5079
38,82,120,-1741,2705,-5734
-90,-72,94,-726,-1138,-2554
-47,18,-124,-1474,437,-3799
-59,-69,29,-1137,-615,-3896
-94,117,-127,-1517,3392,-3884
-80,-83,28,-2571,1916,1213
97,54,27,-3416,5336,3039
72,-118,27,2890,-5487,5765
22,-56,104,3081,-1419,7242
48,75,-85,-1416,-620,-8471
78,-6,113,3458,-3229,-2299
-91,-121,-126,-4878,64,-2760
91,-53,77,556,688,-992
-118,-112,-127,2030,-303,-101
56,-67,-113,3062,-2037,1889
-46,87,-76,986,-532,3692
-5,-93,35,-175,-2344,5774
85,-61,55,354,-1558,3159
95,103,48,296,-2328,2910
-106,-72,-68,-647,-1507,993
-29,9,116,771,-2041,2711
58,-77,16,4280,-354,3161
-61,-17,-64,2993,888,1155
-7,-115,-44,1203,-10,-119
35,67,13,-442,-536,-677
78,1,13,-75,-147,-525
79,6,10,5,327,-92
63,41,9,-1193,221,-101
74,17,-20,-528,-22,-45
100,4,-30,293,-51,-248
111,-2,-29,967,17,5
100,17,-24,1081,-97,182
116,21,-25,1059,-59,127
124,51,-25,-79,69,183
125,50,-46,-275,47,154
-126,41,-63,-283,-61,-211
-119,45,-61,-574,-8,-323
-108,45,-58,-552,23,-173
-101,50,-52,-181,21,-8
-104,59,-51,215,19,24
-96,63,-64,439,58,15
-91,72,-83,460,14,12
-95,84,-82,246,-75,21
-85,94,-78,-21,-27,-68
-75,92,-79,-46,25,-77
-73,94,-82,-148,-10,-62
-67,96,-84,-182,20,-51
-66,100,-92,-206,6,-55
-65,109,-90,-234,-30,-19
-49,-15,53,-1340,4353,-3881
5,95,2,944,2218,-4118
67,25,74,-1155,599,-2026
-59,-123,-22,1239,-467,-5513
42,8,-10,-729,-146,-5743
-55,-101,76,-1528,3426,-5350
97,32,-34,-1451,3238,-905
7,63,76,-2948,3740,3219
-94,114,1,-3972,-2528,4867
127,50,9,-4712,-2997,5849
-43,-66,91,450,1908,-757
14,60,-69,7606,-4030,-4651
19,-93,-2,-4593,3439,-4778
-63,76,-114,-2308,-714,-549
75,-1,-62,6029,-2434,-1318
-123,70,88,1768,-1108,-655
-107,71,127,3040,246,-1379
-13,6,60,999,-2500,1901
69,-113,88,-1659,-1216,6697
81,-24,55,2090,-3901,6079
119,90,-32,-1141,-2045,5064
-31,-55,72,922,-1473,2624
-3,14,34,-57,-959,5185
107,91,-9,512,-910,2312
-90,3,-55,403,-616,-2004
-51,-99,-36,1321,-106,-3070
32,127,-15,1352,247,-1113
43,-76,21,-870,565,445
25,108,-9,416,192,583
36,96,-36,1216,-216,150
57,-127,-48,571,8,123
52,126,-66,225,208,-155
50,83,-67,771,-32,-359
69,88,-51,339,-67,-70
81,80,-45,271,-45,178
87,65,-50,501,-46,51
97,61,-58,476,11,8
97,58,-69,303,90,-41
105,59,-75,153,85,9
116,75,-79,-163,69,-12
121,67,-74,184,-92,-128
-122,73,-72,20,18,-142
-115,83,-76,-143,90,-19
-119,80,-82,-37,-50,-37
-107,85,-87,-108,45,-18
-100,94,-96,-158,75,-6
-95,121,-92,-632,179,78
-82,124,-95,-368,297,3
-84,115,-97,94,-74,-132
-76,-124,-94,-2,-148,-13
74,84,43,2983,4969,-5304
-86,-108,-4,-1795,2216,-5356
-69,53,-68,-2427,1161,-2094
-79,52,14,344,-881,-3626
-22,7,2,107,-198,-4416
7,40,41,-3274,599,-2139
-46,-25,-60,-604,3951,-2882
57,119,-95,-3546,2532,1114
117,121,60,-526,-5763,2503
70,74,58,-8897,-2410,4643
-85,-46,58,4935,1752,-1133
-90,-39,111,7330,-2434,-2257
13,118,11,-1731,1826,-2621
-123,31,78,-1008,-2785,493
41,0,71,3187,-1278,991
13,126,67,2726,-2012,1897
-100,-69,-82,2523,-2521,5313
120,-25,45,-194,-2173,4919
117,-45,84,-1066,-2888,2541
-117,-124,-41,2499,-3102,3466
-67,-8,-58,10320,142,2731
-114,-87,30,6949,2141,-577
51,-114,-107,-2771,1924,-1245
102,65,-18,-2281,-1873,-758
25,-119,-17,886,-1705,-40
50,-69,38,-247,-401,158
12,-50,32,-1100,6,-214
31,-77,7,-909,234,-226
36,-27,0,-1368,-121,203
60,24,-24,-1925,298,738
36,2,-47,-153,-229,160
48,20,-45,1028,-36,-173
71,61,-54,64,514,10
68,58,-82,-596,416,175
82,49,-95,-137,237,465
82,66,-95,172,-120,232
103,91,-93,108,-27,-44
114,97,-90,-262,67,-220
115,84,-100,-285,-7,-232
114,83,-108,-243,-84,-27
122,91,-110,-184,-16,58
127,99,-109,-48,-24,10
-122,111,-111,18,-69,-41
-120,116,-117,11,-77,-90
-109,120,-126,-42,-17,-11
-113,123,-127,-61,-51,-37
-103,127,-128,-58,-32,-54
-96,-124,126,-95,0,-48
-95,-122,124,-100,23,-69
-74,127,122,37,37,-71
-18,-101,-68,-2879,4685,-3703
-106,100,87,-2154,3390,-4369
-76,56,-51,788,-1420,-1755
-12,-63,-38,-1382,-2042,-4999
125,97,8,-1905,1185,-6491
-34,-100,-37,-2341,4074,-4457
31,92,106,-6,1294,1306
-15,79,-69,-1593,3953,4209
-93,-46,114,-1449,-4382,3371
-107,-26,-62,-207,-231,5411
-33,-115,-75,2156,908,-7277
75,6,-37,788,-258,-2415
14,-56,-98,-65,97,-1387
-53,38,66,885,-2327,717
-97,7,-2,1403,-1940,553
3,95,-125,3834,-2938,2616
-121,-86,-91,2209,-1446,4110
92,-110,-126,493,-1331,5695
-91,48,82,-1197,-50,3413
64,-8,110,1852,-1089,1388
-128,2,54,766,-956,1763
58,47,55,2141,-942,994
83,33,1,-445,-581,1572
72,-77,-65,-666,-153,1313
84,-124,-97,635,79,1029
63,63,-89,1643,-236,-40
62,45,-67,2198,-321,-267
77,88,-22,1011,722,-318
56,56,-35,-130,566,-313
48,19,-54,-266,-283,46
55,20,-66,-366,-359,243
71,9,-67,385,158,-27
80,27,-64,253,229,-124
95,36,-77,-23,66,142
88,36,-76,230,-62,-31
101,34,-80,179,147,-104
115,40,-94,-182,223,170
109,45,-99,3,-96,26
-127,67,-89,-288,15,-119
-113,52,-100,-179,54,-103
-118,55,-107,-136,-14,-51
-120,78,-99,-256,5,13
-109,77,-101,2,45,4
-96,74,-111,177,50,-15
-93,93,-117,51,31,17
-89,99,-119,-40,38,-72
-83,103,-121,-140,57,-74
-83,103,-123,-98,5,-63
-80,104,-125,-49,41,-24
-76,113,-125,-66,13,-11
96,-4,-47,-2007,4895,-3919
-5,-84,103,-2406,3809,-5644
108,51,8,957,-69,-3728
97,-121,-99,391,-797,-6198
79,-23,64,-51,-3650,-4567
105,116,110,-3270,2156,-4671
-128,-67,-103,-1899,3292,-1668
-41,-109,-74,-2601,1029,2059
-67,4,-57,-2094,-5670,6360
-12,4,48,7030,2808,2893
111,19,-97,3144,-1620,-6213
85,-126,-87,-138,1584,-3006
25,-47,-33,-3915,-392,1029
-61,-71,66,2366,-2405,-681
127,-85,72,3237,-669,201
-64,-92,84,1831,-503,1383
52,10,127,-118,-545,3779
-103,33,38,1465,-2089,5484
0,-112,25,915,-1961,4301
-98,-53,-19,-471,-401,2580
-62,7,79,488,-1007,2408
-90,-101,16,211,-435,926
123,18,-11,1204,-1420,1922
125,-16,-51,1884,-419,1428
92,-93,-30,1138,444,811
59,106,-46,1831,186,-53
47,59,-12,1666,-367,201
48,64,4,338,-197,196
62,53,3,-600,-1,-42
68,21,-32,-207,83,-141
78,25,-18,-38,17,-164
74,34,-20,-145,72,-57
80,22,-39,92,183,-7
96,12,-57,372,187,1
107,29,-61,465,59,161
110,45,-51,377,-39,116
110,55,-49,152,-26,-118
124,51,-59,-191,54,-163
-114,37,-78,-318,102,-43
-122,50,-70,-369,-52,19
-110,54,-67,-121,75,-73
-98,58,-73,144,113,-90
-93,72,-80,28,117,37
-93,83,-88,-114,115,-61
-84,87,-91,-111,66,-127
-80,73,-82,422,-42,-217
-66,63,-78,758,78,-44
-79,82,-92,680,41,9
-74,86,-95,376,-70,-56
-52,98,-97,-258,19,-53
3,-110,110,-3739,4939,2758
-21,-115,-25,-1526,-1440,5582
11,-49,17,-2947,-2428,5004
-80,-11,115,1442,403,-1108
107,65,-1,3449,-2512,-2859
120,23,-31,-2495,987,-4170
9,-94,-62,-2019,-1227,-1093
108,26,79,4096,-1960,-692
-125,82,56,970,-1318,685
-26,-62,-85,2992,-2594,2522
-53,-52,-26,588,-1258,4203
2,38,52,-1585,-1545,3383
51,82,-52,524,-2028,2232
41,49,-68,102,-2011,2481
-120,-11,-120,-113,-968,1943
35,-28,21,3348,-1762,2024
74,11,-18,3234,-1926,2704
68,30,2,2,-861,1305
62,10,-60,-2079,1977,-1089
9,83,-118,563,565,-1009
26,101,-87,-176,508,-168
18,88,-82,229,-209,-31
33,97,-63,413,-144,97
61,-109,-40,-120,143,161
65,-112,-52,-28,92,7
76,118,-82,22,179,-97
87,111,-91,209,157,57
98,115,-91,272,177,164
97,-106,-73,-193,33,325
113,-125,-87,-44,83,-9
127,-124,-97,-236,109,-131
127,-121,-97,-472,-19,-67
-119,-123,-86,-290,-59,-89
-108,-120,-80,-61,70,-80
-110,-117,-86,128,30,-13
-104,-110,-97,160,-10,-5
-96,-103,-103,133,-1,-96
-91,-99,-100,37,-49,-95
-86,-104,-97,112,2,-105
-83,-98,-101,-11,-15,-81
-81,-104,-106,10,-16,-132
-68,-101,-102,13,-18,-55
-65,-99,-105,21,19,-102
-72,-97,-108,5,-2,-78
-64,-97,-113,-3,-31,-42
-59,-95,-112,34,-37,-49
-56,-88,-109,-19,-20,-54
-54,-90,-111,8,5,-41
-48,-88,-114,-2,-10,-6
-52,-84,-114,-50,19,-85
-39,-77,-69,-3115,4411,-906
115,-66,95,-1525,4674,-3602
-60,100,46,-1204,2245,-3261
-25,88,83,658,1616,-1786
109,-78,32,-179,563,-2771
37,99,-39,-169,-442,-3023
78,36,-106,-898,-97,-4285
-77,-55,-81,-1192,1109,-4248
-73,-80,99,-1771,2473,-574
11,108,-39,-866,5438,1128
-80,-10,98,-1837,2376,3055
78,64,49,-1415,-1541,3878
14,45,-67,2578,-2616,3262
-17,-114,20,2751,1324,-4555
-90,-43,3,1932,-778,-2340
-16,-7,-102,-1161,-1087,-1858
51,-7,-79,990,-2380,1181
-6,-26,-82,1095,-750,-639
-39,-124,-66,2836,-2109,838
36,-69,-80,992,-1186,2588
-60,-6,-61,169,-1615,4152
16,101,16,-595,-2480,4044
16,-18,23,4,-2409,2388
98,-29,-68,-1650,-1632,1460
-102,122,-100,605,-1577,1015
-40,102,120,2110,-1305,2742
-95,0,18,3599,-787,1580
116,48,-33,1055,869,-145
4,-79,-51,937,119,-686
-5,63,-44,369,-329,-394
29,60,-10,-586,-166,36
54,43,-8,18,169,191
45,82,4,226,-112,195
66,84,-12,287,51,96
73,59,-48,385,172,-178
69,59,-56,267,92,-71
72,62,-53,162,-94,-44
86,78,-50,-28,-62,-3
104,78,-59,-188,141,-35
103,76,-67,-136,56,-32
115,72,-75,14,46,-33
118,84,-76,-6,-22,-46
123,94,-78,-143,-22,-72
-122,101,-81,-215,13,-50
-116,102,-88,-240,18,-54
-114,101,-90,-40,-62,-81
-102,108,-89,52,46,-42
-103,114,-94,146,10,-32
-98,124,-101,70,-28,-76
-95,-125,-103,-71,17,-53
92,-3,8,-2306,5049,-2505
62,7,-90,53,3160,-3537
-89,52,77,-996,1879,-2819
123,-4,28,-83,1228,-916
-74,-45,4,388,276,-2972
49,-118,-6,-256,-2280,-3832
-86,6,72,-2852,811,-4968
59,-94,-4,-2154,4803,-3218
-6,34,24,-1527,978,3072
124,-1,29,-541,3631,3961
93,-10,-72,1230,-2908,2561
-108,32,-24,-2200,-1495,5702
-110,-63,-100,1115,703,-7443
8,-117,-51,2120,-628,-2580
72,-45,-118,-14,-860,-1022
-54,41,-117,3096,-2541,449
-70,-90,98,2285,-1526,1101
49,-74,-70,2191,-3379,3431
78,101,-55,-69,-327,4334
-14,-24,79,-3763,-850,3005
80,-4,-45,1847,-1583,483
0,-30,-26,1642,-2087,1955
82,29,-105,-1399,-946,1534
76,-42,78,-789,-1925,2471
-27,59,45,189,-3249,1570
-31,24,35,-439,-1120,-76
11,-36,-17,-162,671,-377
28,-56,-78,153,201,433
80,-9,-64,-336,369,922
49,-50,-64,1018,399,-554
30,-33,-63,407,108,-620
9,-61,-79,366,-236,-300
40,-56,-90,-222,-229,249
57,-68,-102,-325,29,-20
78,-78,-87,245,23,-315
72,-80,-50,610,-6,-158
84,-60,-89,23,355,-50
78,-75,-125,-127,41,-148
97,-80,-104,-235,-206,15
119,-93,-86,361,3,90
111,-64,-104,-257,93,30
108,-65,-122,-362,-292,-55
113,-85,-121,565,-437,160
-123,-51,-123,-346,188,-63
127,-72,125,-156,57,-122
123,-98,-119,292,-148,93
-123,-94,-121,298,137,108
-104,-99,-128,181,138,-29
-114,-87,113,-217,-856,276
-108,-85,112,275,-68,-268
116,-76,3,-493,4879,-2948
52,121,-127,-1501,4553,-4437
77,3,12,-604,1181,-1972
80,-114,11,215,574,-1501
61,-122,89,-75,-1042,-4179
-4,52,119,-680,2147,-5787
29,65,-78,-497,3042,-2995
43,-46,82,-2374,6352,554
64,-8,-121,-1506,-3752,5847
45,-77,40,-3012,-862,6228
-34,-42,16,1428,-968,-1164
95,-114,112,3419,292,-5904
104,-19,19,-2320,28,-2901
-5,-31,-26,-1056,-867,-753
79,80,-117,4124,-1878,-396
-109,-83,-101,3599,-1701,895
77,4,-45,849,-590,3057
-5,77,1,-94,-834,4080
77,-72,30,-1342,-1174,4073
106,66,-41,743,-2881,4145
-75,-50,-97,1053,-1612,2919
-29,117,87,1236,-133,1512
-92,-39,70,2708,-746,624
-57,34,1,10,-87,1397
120,102,12,2299,-204,239
113,102,7,1518,133,-228
93,110,18,-411,231,-311
81,45,18,-208,-204,-224
97,23,26,5,2,-176
105,21,18,238,112,71
106,11,-7,394,-15,207
116,9,-30,436,-105,324
112,33,-36,193,-143,237
106,61,-14,-100,-269,165
122,63,-6,-118,-5,2
-127,56,-33,-363,224,-66
124,30,-60,-208,-29,-8
-125,28,-64,-79,-170,100
-115,45,-59,80,-28,78
-115,65,-61,104,66,-79
-109,69,-66,51,53,-92
-102,72,-76,-86,26,-55
-98,71,-84,-50,-25,-38
-95,74,-85,-5,30,-47
-86,90,-84,-110,15,-1
-79,99,-86,-180,13,-56
-76,97,-89,-133,22,-76
-76,94,-92,10,-2,-68
-65,96,-96,146,11,14
-66,112,-100,-7,41,8
123,-18,-52,-5807,3413,-2240
23,92,-33,-4103,4883,-4197
37,-124,96,2972,-164,-3311
41,-121,107,-1655,1191,-4656
-10,-24,94,-553,3627,-5738
-116,-94,-14,44,3778,-2387
58,115,78,-2080,3513,2147
110,59,-56,688,-3617,5152
-54,79,87,-1300,541,5603
68,105,-83,1287,-196,-4155
88,-89,56,604,-1730,-1925
10,37,-99,-1989,1275,-3122
-85,-84,-83,1760,-1871,-526
-99,-65,123,2384,-1287,-284
36,71,-106,1428,-2352,2314
-122,44,-1,976,-2117,2056
66,-40,27,-536,-1917,2972
-114,-59,74,437,-874,2208
77,-45,40,-202,-1952,2028
63,11,-32,33,-1270,958
101,-45,-102,386,-747,1098
92,100,101,2130,-1221,1322
-108,75,44,1513,63,1030
114,63,15,143,229,841
96,-31,-11,533,-69,158
106,-58,13,645,20,-323
108,-70,7,163,42,-118
99,-105,-7,102,-115,20
105,-94,-7,-129,72,96
108,-104,-9,290,-54,36
-118,-91,-4,67,120,315
121,-101,-10,-91,-97,109
-120,-108,-23,115,-94,210
-109,-103,-35,-75,2,-29
-101,-104,-37,-88,65,-161
-104,-96,-31,-193,-15,-81
-97,-95,-31,-221,3,-5
-89,-102,-42,-45,40,-88
-91,-91,-45,-196,-55,35
-76,-89,-41,-167,49,7
-78,-68,-36,-194,-39,119
-72,-74,-47,47,-30,-25
-70,-71,-52,50,-28,-29
-67,-70,-53,-9,-65,-69
-63,-55,-52,-286,51,-80
-54,-70,-59,-222,50,-156
-51,-77,-56,-36,-69,-16
-56,-70,-47,206,1,75
-53,-54,-55,210,71,-33
-42,-49,-67,-86,-16,-70
90,51,100,-3058,5345,-3508
106,37,-60,-3604,2550,-3150
-19,-112,84,814,643,-1324
-40,50,86,-1470,-1018,-3542
79,25,106,132,714,-5672
-93,-80,-124,-1435,4859,-3678
8,-98,-62,-623,7253,-553
-77,-58,-18,-2948,2023,4462
99,-66,-26,2530,-611,3366
-111,-94,94,1221,-4408,967
73,34,49,85,2506,-5323
35,29,-47,-763,-1668,-1260
104,-28,122,-2408,-235,-2209
89,98,-37,3150,-2062,117
-55,-90,-88,2891,-2658,1744
104,-20,-35,1197,-2616,3234
92,-94,34,-342,-1094,3759
31,-7,81,-832,-2257,3457
71,90,22,813,-1483,1900
40,35,-38,-373,-1935,1526
-126,-43,-82,-613,-475,554
-113,111,120,2543,-996,2028
83,39,23,1344,-1003,1877
38,-73,-8,561,-773,1447
66,127,-40,21,-354,797
80,95,-10,865,-674,275
68,125,24,644,-137,-96
61,-117,-7,-390,825,-527
61,105,-56,-384,931,-485
55,54,-76,554,-117,-93
77,93,-65,-310,-273,363
99,-93,-57,-1194,-96,486
95,-118,-56,-600,113,-161
105,-112,-53,-541,149,-249
120,-118,-69,-304,83,-80
119,-115,-75,25,-2,144
119,-89,-74,-138,-56,194
-123,-89,-72,84,-56,-40
-110,-71,-72,-247,30,-16
-107,-76,-78,-98,35,-143
-101,-83,-81,4,24,-166
-97,-82,-82,-82,-4,-89
-94,-82,-81,29,-5,-44
-88,-77,-81,80,26,-66
-83,-72,-85,20,8,-62
-74,-66,-84,-58,8,-42
-72,-68,-83,-56,72,-99
-66,-70,-89,-83,45,-78
-67,-70,-89,-61,9,-30
-65,-68,-87,-24,2,-43
111,70,-88,-3985,7454,-731
18,113,5,4571,-5161,6109
-124,28,-115,-3197,183,5987
94,-5,23,2911,358,-5543
-86,-49,117,955,-876,-2161
104,-49,-62,-3093,1298,-1989
90,6,119,-1216,-644,-366
7,77,-85,2328,-1205,345
-1,-73,123,2764,-2638,1615
-65,-64,-89,1750,-1391,2298
-14,6,51,1914,-2197,4173
-91,68,104,-1729,-767,3608
113,-105,57,-756,-979,914
-16,44,56,242,-3266,2622
108,-123,114,169,-1707,2876
-106,75,47,558,-1062,3029
112,-66,-41,2348,-570,567
83,109,-51,2061,-381,-68
85,98,-24,463,-105,418
76,117,-8,-882,21,741
56,89,17,596,-298,236
60,112,43,572,34,-717
96,43,-23,-22,1283,-1245
79,20,-43,-482,669,-806
94,4,-59,527,-194,599
102,30,-46,1167,-617,1095
104,69,-18,850,-436,679
119,99,-9,-279,438,-347
-118,62,-36,-269,695,-613
-121,20,-70,229,185,7
121,19,-75,650,-322,367
-126,39,-65,450,-330,263
-97,75,-44,-228,-14,31
-101,81,-43,-453,103,-191
-93,58,-57,-218,72,-250
-99,53,-74,-219,35,-117
-94,52,-78,23,-14,-18
-93,70,-73,36,-21,36
-79,93,-70,-44,37,1
-75,93,-78,9,63,-96
-75,98,-88,-38,34,-89
-75,95,-96,-27,16,-141
-68,102,-92,-99,2,-93
-57,114,-87,-96,-33,-77
-59,123,-82,-151,-49,-81
-55,118,-88,18,62,-92
-52,122,-100,6,56,-41
-47,125,-101,18,-4,-36
-38,-119,-94,6,7,-50
-35,-112,-96,-15,10,-78
-26,-124,69,-3046,4018,-3760
-83,64,-72,-1547,2396,-3343
-7,6,-50,231,-1097,-2909
35,71,74,-1406,559,-5599
-123,-60,112,-225,3658,-5739
-57,-89,26,69,4573,-2096
52,39,93,-1701,4473,3158
112,-43,53,-345,-3262,3511
51,29,-66,-1241,-732,4538
3,-54,-56,1373,-2396,-4596
4,74,-102,-923,-1069,-506
-23,-47,29,-4636,1340,-3140
98,-32,-120,2490,93,-1126
-101,120,81,3226,-2035,1451
-64,-52,-80,2956,-3286,2296
-9,-60,-49,111,-426,3375
-7,38,46,-1058,-1331,2881
-32,-53,25,924,-1794,1198
27,118,-88,-248,-2035,2157
60,0,-123,-224,-539,2098
-118,-25,87,926,-138,1327
118,-88,57,254,-473,368
89,82,30,-182,-13,-178
75,-33,29,558,-135,594
105,-14,29,67,-166,672
127,-35,5,290,-29,27
-121,-32,5,242,20,-73
108,3,18,-374,-356,-217
100,-25,0,108,-240,62
109,-50,-34,210,-63,99
94,-44,-25,-245,-125,180
90,-31,-13,-573,-220,88
104,-68,-43,177,42,41
113,-86,-58,728,-211,358
119,-78,-61,264,-428,620
126,-60,-57,-73,-239,251
-117,-50,-61,-212,77,-41
-121,-64,-66,-376,83,-252
-108,-97,-83,-216,8,11
-117,-96,-78,265,-302,331
124,-94,-64,836,-458,335
-113,111,-71,1386,-97,148
-83,-104,-82,165,348,373
-118,116,-97,99,56,139
-105,117,-97,-286,10,239
-92,123,-99,-414,83,362
-89,96,-110,35,35,-17
-79,99,-104,-177,-34,-109
-80,127,-90,-409,-32,263
-90,-117,-90,11,-29,414
-56,-11,-85,-1307,3216,-3845
22,-102,116,-711,2380,-3412
45,-68,106,1609,-1748,-3424
126,26,102,-984,893,-5696
38,-76,112,-1370,3560,-4444
-19,-65,-51,-736,5485,-1657
-123,-17,66,-3882,875,5559
-94,-110,-38,1836,-1769,1526
9,15,-37,5958,-1664,3670
-121,68,-105,1330,54,-7063
-42,-68,-46,-3632,798,-1279
-6,62,26,2195,-964,-2007
-121,-69,72,1417,-762,-661
61,-40,114,2427,-3316,1686
-45,-94,-85,2241,-2222,2067
-57,-69,-51,1773,-973,2638
57,66,-6,599,-1462,1963
106,38,-34,-2038,-719,2359
90,-57,-103,-524,-2056,3511
103,-74,113,3354,-1238,1426
-118,3,33,-1026,-142,2518
86,-36,17,2176,-244,589
-116,-7,-14,2023,232,2105
97,-107,-6,3199,-652,2172
69,117,22,772,-503,1519
52,91,-15,-995,438,110
24,12,-36,-96,530,-724
54,-9,-30,333,82,-500
80,24,-15,-229,-44,67
80,14,-29,0,79,19
83,34,-32,-412,232,-27
94,28,-56,-167,200,-8
114,24,-65,353,-69,27
107,67,-51,-61,-45,69
114,65,-65,-110,137,-262
-125,59,-71,-117,31,-67
-127,68,-71,-191,-25,0
-118,76,-74,-214,46,-38
-109,83,-80,-176,22,-89
-103,88,-79,-87,-28,-7
-98,96,-82,-38,44,-1
-91,107,-84,105,14,-32
-77,112,-88,29,77,-173
-86,102,-94,5,52,-212
-90,100,-93,143,7,14
-73,110,-91,173,31,67
-55,-120,-87,-117,169,-64
-58,120,-97,172,85,-218
-57,120,-99,-171,19,-152
-57,114,-103,-106,82,108
16,6,-13,-4269,4757,-4997
-102,33,-16,84,531,-5554
-24,46,-85,-1288,-337,-2825
-9,-75,-28,-1409,1530,-5492
-44,-32,-31,-4355,4110,-3515
-85,32,54,-1067,4549,-914
37,-44,21,-2777,793,5388
87,-113,-45,-1051,-1504,4862
-5,100,-118,-1366,-3939,4631
94,-127,-32,1391,-104,-350
62,63,7,5239,874,-5829
-14,6,23,-2132,2269,-4117
-47,-36,-109,-1483,-620,-526
-68,67,-94,3945,-3738,-285
-91,65,104,1583,-1707,-375
-69,-83,-117,2036,-2375,2613
116,-26,-111,1053,-2985,3615
75,-114,-19,-1268,-1923,4065
-91,-63,34,-1726,-3124,2349
47,105,-25,-2124,-3023,-340
79,-43,103,1737,-1294,2710
10,92,47,3238,-1014,2669
77,118,30,1289,-582,2378
0,-52,-73,2831,-874,-320
-24,90,-115,4521,-1148,-747
55,70,-98,3670,324,-466
47,99,-33,306,2073,-631
25,13,-41,-440,1446,-756
34,-44,-17,-61,273,-114
36,-46,-7,349,-413,125
63,-30,-15,141,-171,126
74,-19,-28,-191,213,-254
86,-23,-32,-89,128,-310
97,-23,-28,180,-34,-17
92,-11,-30,304,-48,45
96,-7,-45,264,92,-160
112,2,-59,-234,116,-96
118,-8,-69,236,-48,50
122,23,-57,53,-89,17
-120,36,-60,-213,92,-113
-114,34,-71,-284,70,-126
-114,32,-79,-228,-12,-77
-104,32,-81,-78,64,-75
-100,48,-82,-92,59,-5
-101,60,-87,-48,41,-105
-94,55,-99,109,103,-182
-90,55,-105,31,-8,-58
-82,72,-97,57,-29,104
-79,84,-95,57,77,-135
-71,84,-105,46,57,-141
-18,-121,20,-787,2851,-5398
50,76,121,-700,3584,-3723
-87,64,19,-582,3884,515
121,27,-110,-3885,2239,4045
-75,3,-102,2531,-1424,1815
-15,-112,80,962,-808,4605
80,42,-122,2331,433,-7015
-93,0,3,-1144,956,-4080
-45,34,116,-4010,740,-1875
99,13,17,4898,-2289,206
39,-26,42,1967,-2664,1108
-55,-23,-91,1358,-2115,3396
-116,108,-45,70,-615,3612
3,21,33,-1310,-366,3166
22,-112,22,154,-970,338
21,113,-67,-302,-2131,2608
90,-29,-109,1105,-1536,2696
-98,-109,81,1189,-257,2693
-115,-6,17,1921,-643,2885
-98,26,3,2,-557,1774
-121,-112,-28,2372,-677,1059
101,66,-24,3538,-153,15
86,-106,32,411,396,-894
89,114,27,-979,529,-636
84,-1,-15,-243,37,-214
89,-7,-24,270,-170,277
94,44,-14,-173,-210,310
107,51,-11,-52,-1,-49
116,58,-17,-47,143,-143
115,55,-31,-31,42,-94
118,50,-49,15,15,-38
-122,60,-53,-22,61,77
-118,90,-48,-380,82,137
-106,116,-53,-728,70,34
-98,114,-57,-753,-3,-176
-97,113,-59,-621,45,-262
-106,105,-59,-69,-20,-176
-96,108,-58,423,-22,126
-82,-128,-66,399,-12,63
-74,-116,-72,294,-34,-45
-76,-109,-73,-10,35,-105
-76,-115,-79,-86,22,-118
-69,-118,-78,-68,-6,-46
-61,-113,-75,-44,45,-98
-59,-113,-78,-52,52,-113
-65,-112,-83,-58,-27,-13
-59,-109,-85,41,18,-6
-51,-97,-90,-104,4,-56
-47,-88,-87,-229,-10,-98
-45,-95,-83,-106,21,-119
84,35,54,-2052,4414,-4100
74,73,9,-2349,2195,-3449
-9,76,-37,-848,-1047,-1871
-38,-26,2,-1257,-844,-4180
106,-39,124,-247,1602,-4867
22,41,117,-540,4288,-3143
-77,86,105,-1018,6102,-178
28,117,73,-1982,321,4095
115,50,-8,-2268,-122,5327
49,47,119,1049,-1754,-1953
-12,12,111,3137,392,-3611
75,95,-44,-1133,1125,-5280
64,100,76,2471,-2929,-157
27,-40,38,1117,-2405,731
91,-59,56,1263,-1682,609
-7,68,117,2992,-1100,309
-11,-112,24,-1315,-2523,2794
68,-111,81,-2517,-2829,-25
15,72,70,2739,-5096,4350
-10,10,-72,701,-2057,4482
118,49,41,-592,-193,4623
81,70,-52,2903,-276,2208
75,-51,-106,3134,-369,344
91,-49,-80,3343,-170,701
37,-58,-68,1822,89,254
-7,-101,-32,70,144,-421
30,93,-25,-429,511,-570
40,40,-39,-396,447,-502
34,30,-48,-380,129,-345
49,39,-48,-267,-48,108
69,48,-52,168,-24,136
80,55,-47,490,54,-39
93,58,-47,813,81,-52
92,65,-52,621,78,-37
100,74,-61,-63,121,-65
107,77,-73,-445,140,-33
106,55,-84,184,-25,-86
121,77,-78,-157,-24,-65
-123,82,-76,-182,7,-58
-119,87,-74,-71,31,-81
-110,93,-85,-113,59,-76
-112,98,-91,-156,-8,-74
-105,99,-94,-92,25,-90
-93,103,-93,-4,44,-79
-89,113,-92,44,14,-57
-85,118,-92,134,65,-103
-82,123,-100,53,54,-83
-80,126,-107,-35,35,-96
-73,-127,-106,-103,56,-87
-72,-125,-102,-42,39,-84
-29,-22,-67,-2399,4758,-2514
0,61,112,-1123,5754,-5786
47,24,126,-72,990,-2403
-110,95,33,-136,-603,-1972
-17,-11,41,-1187,-721,-3588
-77,-31,49,-61,1995,-5309
-20,70,78,-1715,3167,-2859
-59,-21,12,-1124,5421,-353
120,-79,-92,-1939,198,2525
-80,102,32,-113,-994,4499
-73,114,-81,4499,-4,1372
-10,-118,-105,1814,-377,-5475
79,-17,-127,-1748,-649,-313
81,-13,86,900,-2494,343
-28,-127,92,1427,-3493,788
-6,-17,120,1289,-2703,400
91,-92,-56,1495,-1258,1592
84,56,13,1371,-2019,1921
-110,28,37,-1162,-1387,2556
17,34,67,1229,-2585,176
59,-52,-100,-316,-2235,2087
-81,119,82,1661,-1516,4355
-81,39,66,9080,1356,2969
-81,-9,-120,1585,2287,105
-125,90,-65,-1969,-1323,-627
32,84,-92,-2206,-723,439
36,5,-92,-892,-2,-260
-10,52,-67,-470,-226,-179
51,101,-58,-282,101,482
77,118,-48,-437,25,-9
69,102,-53,-86,17,-391
77,94,-50,256,98,31
85,112,-57,31,220,216
88,93,-72,702,147,70
98,97,-75,707,89,176
121,112,-66,207,258,353
-123,99,-70,74,319,301
123,72,-68,431,114,-95
127,83,-63,289,48,-42
-119,97,-81,-122,132,-87
-102,90,-89,-230,56,-197
-92,94,-77,-282,-57,-162
-88,95,-65,-113,-1,-91
-88,97,-68,78,81,-76
-74,102,-90,106,92,-30
-68,112,-97,-11,35,-18
-78,126,-79,-197,-17,23
-71,-128,-78,-120,131,-108
-64,123,-93,-23,41,-121
-62,125,-95,-18,-50,-62
-121,109,-87,-3689,3622,-2542
97,-122,-31,-4221,3133,-4028
108,-27,90,250,-886,-2542
40,15,-27,-2073,952,-4936
-61,-8,90,-928,3125,-4823
-24,-18,98,74,4175,-3298
-37,31,-80,-2353,5077,1492
29,39,49,-542,-2145,3933
122,75,-27,-3772,-2636,5934
-98,84,109,1585,-22,-2310
14,32,85,4061,-1638,-2974
68,124,-102,-1832,2097,-3973
85,-1,118,-1670,-321,-723
99,23,88,3763,-2717,679
72,-13,45,3758,-3715,504
13,-27,89,1627,-875,2000
-1,22,-126,622,56,2724
-51,-66,-94,-14,2304,2934
-14,-57,42,-990,-1914,1692
49,91,-42,-385,-2611,4225
26,-93,72,1894,-783,3147
-42,-1,38,9,-1261,2948
72,126,-55,3401,-2358,1764
72,-101,-39,2181,-707,1136
58,-82,11,117,771,-309
58,-109,-18,-1459,1014,-973
51,44,-52,-749,501,-642
57,-1,-72,-119,37,-366
64,22,-72,-15,-6,88
66,60,-62,97,-195,243
80,89,-35,170,-70,39
105,102,-34,227,204,-124
105,97,-70,-21,214,-208
110,77,-90,-82,97,-88
110,80,-88,61,-99,25
-128,98,-68,133,29,-20
-119,115,-66,-136,134,-104
-113,106,-86,-76,66,-136
-116,105,-94,-156,-26,-113
-112,110,-94,-31,-17,-24
-100,125,-88,-73,44,-27
-93,-127,-91,-104,61,-77
-91,-128,-99,-94,32,-88
-82,125,-102,0,35,-67
-85,-116,-97,-82,27,-59
-75,-117,-98,9,47,-87
-67,-115,-103,16,58,-84
-68,-112,-106,-15,30,-67
-65,-105,-105,-10,31,-79
-61,-104,-105,-3,18,-87
39,119,56,-3066,1964,-4175
67,-101,-69,-345,734,-2511
-47,-76,53,183,1726,-1836
29,41,54,157,-2236,-1120
97,126,77,-172,1264,-5826
4,8,-38,-2598,963,-3056
-87,-91,-48,-1244,3965,-546
80,2,-127,-1327,2545,3121
-42,-68,-83,-2270,-2439,4280
119,79,-64,-2455,1167,4385
110,114,43,3072,-748,-4654
-7,124,-100,1616,-966,-1462
-128,-73,127,-3217,1984,-2938
124,-72,44,2468,-3039,870
-103,-10,65,1404,-3619,1206
-1,-13,-42,1056,-3655,2975
-30,107,67,1295,-1781,2685
120,20,79,-339,-120,2250
30,-106,10,210,-1354,806
106,-82,-51,-1076,-798,2059
61,-60,-103,1176,-1728,2238
123,-73,100,997,-1163,2369
98,118,32,-445,-506,1067
82,62,3,-864,-8,366
76,-35,-6,1075,-252,206
85,-1,23,-60,-120,-85
77,-42,21,103,-89,-189
89,-70,-13,133,38,11
83,-76,-37,-43,-126,348
80,-80,-49,-84,-142,349
87,-99,-55,400,65,210
83,-103,-42,530,-173,157
125,-97,-35,557,-118,109
120,-98,-41,385,96,-124
116,-107,-67,199,165,-220
113,-122,-68,127,-131,-122
127,-128,-62,74,-32,-68
-106,126,-64,175,77,-66
-109,-113,-63,-41,5,-48
-107,-105,-73,-224,62,-138
-106,-115,-83,-163,79,-123
-101,-113,-83,-161,-1,-45
-88,-122,-77,51,22,-99
-78,-108,-67,112,28,61
-85,-95,-78,30,106,-71
-79,-86,-84,-295,101,-93
-76,-106,-93,86,-20,-90
-65,-83,-80,-216,37,-52
-57,-85,-81,-123,71,-113
-58,-83,-82,-114,37,-79
-38,-39,-109,-2413,7564,-2164
42,127,108,3596,1409,-2474
-32,41,26,850,-2802,-4179
124,6,27,-3364,1627,-7465
-49,-45,113,-1379,3273,-6438
-75,124,112,-661,2102,-676
59,32,14,-2165,3744,3057
-72,-28,75,-351,1889,3795
-103,-16,36,-1182,-1935,5190
-77,1,-100,1052,-3424,-2725
74,-9,-113,-543,-1222,-2635
82,79,-109,-821,-1556,-3152
87,20,4,1838,67,-959
108,-56,112,1878,-2260,1748
-60,116,-100,3854,-2526,1407
78,-86,-20,-1131,-263,3685
119,58,67,-2285,-1687,4453
68,-111,60,1183,-1608,2054
-113,121,-49,377,-2895,3400
114,-14,-96,413,-1685,2836
-118,-67,77,-1091,-1363,2402
102,50,-19,212,-1433,997
80,-87,-56,3016,-465,-321
78,-59,-44,1420,233,-484
76,-8,-44,-1705,744,-265
56,-97,-76,-854,528,-546
82,-104,-69,-741,595,-876
81,-84,-42,-393,91,-441
88,-41,-18,-554,73,-12
98,-46,5,47,13,-88
124,-44,-6,198,-24,-104
-123,-34,-29,224,-182,195
113,-15,-71,-345,85,40
105,-46,-83,-39,174,-446
122,-19,-49,-451,108,-146
-118,-30,-45,-275,-116,50
-88,-33,-46,18,14,149
-69,-24,-50,60,101,-35
-82,-8,-43,-218,12,-96
-83,-30,-40,11,60,-67
-84,-32,-54,89,107,-126
-86,-38,-65,142,-40,-66
-91,-25,-57,206,-68,-39
-75,-38,-62,305,6,-161
-46,-59,-73,553,141,-181
-51,-62,-61,591,-19,13
-54,-56,-57,569,-32,159
-52,-31,-76,-501,112,49
-52,-67,-101,-443,-19,-308
-48,-72,-71,-154,-140,-249
-4,67,67,-2710,3818,-4800
123,12,119,-1697,2054,-3019
53,-30,74,1092,-885,-1343
76,7,-34,-506,-4329,-4036
1,46,-58,-4774,1948,-5161
5,-113,-123,-3158,5504,-3641
-15,-93,-61,-878,6010,-45
-65,-91,24,-4887,4620,4600
101,27,121,4143,-6796,4457
23,-125,50,-555,-2119,4267
-43,-113,-117,2781,1807,-7729
-76,-107,-80,428,-648,-2854
7,-43,-122,-3260,-1263,-1468
-31,-103,-98,4392,-4980,870
68,54,-17,4466,-2764,2729
-123,66,-104,3358,-312,3830
-53,-113,-8,-378,3381,3901
-71,-5,96,-891,-62,4246
-77,62,-70,1335,-2624,1761
105,62,55,1494,-1531,34
-52,-31,-8,2624,388,1046
-98,-122,-80,3796,-65,972
-119,-9,-24,-733,111,1367
68,78,-32,353,-243,373
81,-7,-8,938,218,-2
76,-28,-3,382,188,145
79,-19,-11,-74,91,366
85,-11,-1,-310,233,194
70,-16,-26,-87,213,-23
73,-10,-56,-100,450,155
98,55,-57,-1624,140,263
112,24,-75,-881,-205,-528
110,-25,-58,458,-327,-676
107,16,-54,-760,-141,-396
106,52,-85,-1416,-154,218
104,28,-115,101,-64,233
102,87,-91,29,-124,161
-127,117,-111,-323,357,78
-123,101,-122,-69,329,-33
-102,102,124,242,333,-53
-106,127,123,-187,193,-273
-106,-119,-125,-672,-175,-163
-89,-124,-121,-667,-166,-5
-88,119,-125,-215,78,-56
-80,111,117,443,103,-205
-79,121,117,424,-61,-110
-85,-104,-124,-38,-99,136
-71,-122,122,383,229,-80
-63,-117,-127,162,231,-226
-55,-103,-124,-349,341,212
113,93,25,-530,4240,-3414
78,-88,123,-3038,875,-4539
-57,-95,-98,-547,249,-2352
-110,-125,-48,-1516,-1603,-4727
-64,-44,107,-1121,2125,-6874
105,61,122,-2584,4554,-3371
-33,-56,28,-2355,6055,987
-75,57,79,-3106,-3106,6712
-63,-102,62,-3003,-3358,4875
89,94,125,1666,-500,600
46,-103,40,4157,-1719,-3953
87,-36,-124,-1189,552,-4004
-22,-36,-117,-3602,1083,-1938
113,70,-59,3422,-63,-1382
-78,74,97,2132,-1326,-129
0,8,-41,2126,-2380,1464
-48,-56,13,-646,-161,4251
-82,-61,99,250,-1645,1633
27,-60,43,-409,-379,968
-44,91,-8,429,-1459,2131
91,49,-47,-203,316,2836
-122,-51,121,1387,22,3526
125,94,100,1496,-757,997
-108,38,86,199,-476,998
90,-99,62,403,-1415,1197
-108,-53,45,-805,-270,464
-102,-104,49,635,380,-765
-91,-68,87,844,657,-661
-119,-69,84,295,306,-292
-121,-112,32,-513,337,-372
-111,-115,3,-476,-37,102
-106,127,7,500,-258,433
-98,-78,35,294,-150,327
-105,-68,42,-241,-292,311
-103,-118,3,-107,-483,648
-121,112,-17,139,-779,938
-111,116,-33,177,62,446
-97,-114,-8,220,835,-1332
-63,-102,-10,-67,741,-728
-81,-126,-24,-14,16,-64
-74,125,-26,39,-151,3
-59,-112,-21,123,88,196
-60,-87,-4,50,90,177
-50,-90,-19,-127,125,-9
-45,-85,-28,-218,120,-89
-54,-93,-34,-12,-41,-160
-38,-85,-27,-295,11,-110
-39,-82,-16,-244,56,-134
-43,-81,-17,-112,31,-123
-30,-84,-30,-22,89,-85
-56,11,59,-7373,3362,-2758
40,-103,22,725,2467,-1203
-90,44,-126,2697,-1226,-2330
69,-37,69,193,-1897,-4776
1,105,72,-1131,2636,-7657
-78,51,93,-1597,6485,-5258
-66,33,-17,-1139,2053,2971
115,-58,65,-1669,2257,4730
123,-107,-71,-1120,-2678,3144
2,-13,-7,3520,-2154,3609
52,-26,-46,135,1685,-5861
95,-12,104,-77,887,-1727
33,91,122,2259,-2303,-1118
117,50,-86,3036,-5213,-545
46,22,123,1273,-1403,2121
124,116,-110,2064,-2410,2434
-4,-94,-91,1291,-208,3084
-25,125,-70,-856,120,1748
115,8,-48,-248,-544,1048
9,76,-83,540,-553,2941
80,83,61,2135,-931,1155
-72,-75,56,-399,-905,2082
114,-37,42,910,-902,660
-98,-59,11,1469,-464,1229
118,-85,3,1447,-433,776
80,-97,-18,59,3,458
39,82,18,519,-166,-107
53,-124,57,-50,205,-404
74,59,-8,239,681,-562
71,37,-47,-494,480,-177
86,-12,-75,827,3,602
99,36,-50,1045,-249,812
99,110,-6,-212,-174,72
113,46,-28,394,319,-700
124,38,-48,-65,382,-331
110,22,-65,25,-62,60
126,31,-61,142,-72,88
-115,66,-54,-177,91,-49
-114,60,-56,-15,92,-236
-110,54,-69,-24,71,-100
-109,55,-79,-6,-15,2
-102,69,-75,5,-11,-46
-89,73,-72,130,35,-113
-85,82,-85,-76,77,-99
-89,88,-93,-172,-3,-69
-88,94,-93,-248,10,-102
-82,94,-90,-95,22,-121
-73,91,-94,80,-19,-129
-63,98,-99,143,60,25
-73,123,-105,-97,31,-54
-114,125,-54,-7474,7979,-2833
53,-119,-61,1264,157,-2936
-29,116,102,1349,-2119,-3025
67,-115,113,-1742,189,-5081
17,113,99,-772,1840,-4734
91,79,86,-1180,4434,-2513
-56,26,118,-1265,3204,2043
-120,25,67,-2007,2697,3449
82,-37,81,289,-1837,2770
89,-120,50,-2862,1239,5574
-57,123,1,3803,203,-6106
11,52,48,2220,-2023,-2807
105,119,116,-1860,-3824,-1937
-28,99,-87,1889,-3042,884
-104,25,-102,1192,-1482,-449
-65,-49,-47,2992,-2408,1363
98,76,48,839,-1584,2362
-9,93,79,-2822,-1037,3512
-55,29,35,1010,-3007,791
58,-105,-40,-1131,-2056,3601
44,-27,117,1157,-2753,2933
-2,122,-57,2120,-2553,1828
-1,112,-57,327,-1259,1296
-4,-12,-48,1889,-505,242
0,-53,-58,1382,504,-455
-7,-30,-74,-626,977,-469
11,-71,-96,-856,1106,-319
21,-119,-104,11,774,-239
18,-119,-72,544,214,-120
32,-114,-50,339,106,11
56,-110,-70,236,197,62
63,-127,-88,325,176,-155
76,115,-86,580,-6,-74
86,125,-83,397,9,53
98,-125,-82,187,68,-95
103,122,-82,7,64,-209
113,123,-87,-240,97,-61
115,104,-95,-42,44,-100
127,107,-93,31,63,-63
-122,120,-92,83,49,-17
-118,-125,-98,-75,142,-82
-110,-125,-112,-196,185,-44
-109,-110,-112,-344,-39,34
-103,-115,-108,-134,-85,-112
-95,-110,-105,-169,83,-103
-93,-117,-111,-51,113,-120
-90,-110,-114,92,-56,-40
-79,-109,-110,169,-2,-148
-71,-100,-110,-17,118,-102
-77,-106,-118,119,54,-171
87,71,-94,-5294,4935,-35
0,43,-4,-3351,4709,-3123
102,86,22,-410,2758,-1693
-51,59,110,2647,-421,-3043
-21,29,20,-1794,670,-5495
-125,11,43,-221,1748,-6030
-118,-56,-127,-1322,4086,-3778
-46,-4,91,-24,3834,308
105,4,42,-2750,4553,2741
103,62,-42,-438,-3395,4369
73,19,-69,-374,-883,4403
-115,-16,110,1765,256,-4784
125,-106,-72,-208,-1029,-1907
-88,-102,-103,-2191,60,-1760
-55,-1,-120,2968,-2248,-940
112,37,-102,1315,-1499,525
-87,-74,-74,2532,-2296,1237
-96,9,-52,924,-361,1825
19,57,43,910,-771,2441
68,46,60,-475,-1007,1545
23,114,-57,-424,-1536,2186
52,42,-45,564,-1311,2527
96,-77,106,526,-1931,3699
94,74,73,1118,-1605,2708
-125,-43,-9,1889,-476,1012
-112,-43,-4,1046,238,1353
87,-69,-10,223,163,21
69,-127,-8,125,-17,-549
75,92,-20,281,-83,-307
65,86,-20,-249,44,-246
62,69,-25,16,-104,29
79,88,-25,64,-22,40
91,100,-21,133,48,-88
106,89,-45,202,161,-72
101,96,-61,-165,129,-47
103,83,-74,120,41,-47
105,91,-63,302,-136,-34
127,117,-51,-129,55,-45
-121,112,-59,-90,134,-168
-118,102,-72,0,88,-164
-117,107,-80,-81,64,-93
-114,109,-79,83,-12,-70
-102,127,-77,-147,34,-103
-95,-126,-82,-205,72,-142
-94,124,-89,-149,50,-112
-89,-126,-90,-106,3,-54
-84,-122,-87,34,27,-102
-77,-110,-86,-19,62,-101
-73,-113,-92,15,50,-115
-67,-109,-95,-43,41,-58
-50,31,-30,-1479,854,-7002
38,-4,63,-1325,3917,-5691
-111,-92,-111,-3554,3014,2274
33,48,95,3587,4520,2026
-115,69,-64,-158,3457,3405
-115,-92,-127,-3433,-4284,5004
94,-8,-26,1650,-1138,-1249
73,-30,-52,766,-2227,-6469
98,-18,-125,-881,2812,-3258
-96,-87,-60,1968,-300,-947
38,93,-67,2854,-1391,1181
22,75,107,2750,-2938,752
21,30,81,4827,-3625,2768
56,11,68,-620,305,4261
-79,-122,-95,-1967,-1300,34
-66,26,116,-1201,-2046,912
-42,33,107,1671,-186,525
12,6,48,1484,510,979
0,-70,38,1055,-230,465
31,120,-2,-148,-360,1570
12,-41,-15,1060,-463,1785
35,-122,-36,1515,-348,2149
43,50,-26,2688,-295,1754
114,89,-23,1133,510,1887
87,-92,-17,-2328,611,864
82,82,-50,-615,38,7
76,45,-83,1001,236,-613
68,60,-77,28,329,-1009
89,51,-79,-384,263,-452
97,44,-68,-270,-59,262
91,67,-68,-287,-37,353
92,71,-81,-37,161,9
-120,99,-81,-128,158,20
-111,120,-69,-334,-22,-76
-114,105,-80,-207,165,-343
-118,84,-95,-83,227,-277
-103,97,-86,29,-5,53
-94,101,-88,333,36,-113
-83,111,-87,385,109,-116
-95,123,-97,115,74,-104
-113,124,-117,-468,-279,-50
-89,-124,-113,-622,-100,296
-77,-123,-107,-224,119,-181
-61,113,-112,373,158,-184
-84,-110,-114,-206,-20,62
-76,-109,-121,-361,87,-129
-51,-119,-121,-91,-30,-102
-59,-111,-113,136,0,-98
-69,-99,-121,170,80,-232
-49,-84,117,-301,72,-162
55,33,-100,-3033,2356,-3600
-45,116,-18,-1212,2116,-3342
-34,4,-48,-141,-2211,-4753
63,-1,25,-2686,3549,-7409
-65,-1,-86,-150,6855,-4367
-9,-62,120,-6244,3651,4948
6,-103,-27,352,-2344,4721
-86,79,14,3353,-2507,5723
9,80,115,147,-1250,-205
-114,-3,-62,2876,-570,-5165
-125,6,-22,-1490,-1518,-2285
-93,82,108,-5666,-8,-1272
-21,-41,-93,5386,-878,-1022
-36,-37,-117,3690,25,-2575
63,39,21,572,-1022,-59
-101,-62,-48,-1510,-736,4244
110,-58,87,374,-2327,3040
-66,-7,25,1721,-2090,2432
-78,-80,-72,-479,-1376,365
-48,-20,-75,-673,-1236,1307
33,-33,-101,310,-619,1118
46,-42,102,353,-767,1741
65,97,89,710,-700,1105
84,52,53,1125,-95,1962
82,50,41,191,-510,1771
87,47,23,-1386,-350,880
65,-53,15,-307,-147,192
75,-56,24,-195,218,-316
98,-62,9,-125,260,143
105,-71,-15,97,160,227
109,-56,-9,22,-144,325
122,-78,-15,504,147,-28
125,-66,-22,225,333,-185
117,-76,-24,396,8,-63
-118,-77,-13,267,-126,96
-97,-77,-17,30,56,-100
-98,-76,-23,-167,100,-127
-80,-75,-23,-128,-29,-17
-79,-74,-10,-305,93,-173
-82,-83,-12,-195,140,-155
-81,-88,-34,-19,30,-159
-76,-88,-42,2,-16,-11
-80,-80,-34,192,-109,129
-67,-71,-29,235,-46,-4
-62,-63,-31,70,-67,-39
-46,-59,-33,-82,34,-39
-57,-51,-33,-346,89,-198
-56,-67,-44,-325,71,-197
-50,-70,-49,-312,49,-32
-46,-82,-45,-23,10,15
-53,23,96,318,4715,-4172
-24,-128,-3,-1901,2774,-3616
-19,59,-109,-316,-259,-1615
116,43,-70,-588,-726,-3989
-111,-40,77,-1294,1115,-5148
-48,109,-110,-1713,4645,-4245
59,10,-42,-2500,6312,595
-82,50,23,-1141,4153,3655
47,-33,20,-3062,-3287,5729
-23,66,33,-4946,-972,5175
120,67,-18,5092,-1606,-6451
-46,-28,43,3625,150,-4644
42,-51,-54,-2836,-135,-2731
-124,-71,-105,2633,-1002,-1081
18,-112,-35,7819,-3334,-2845
126,-82,45,8828,-2839,-457
-128,-106,122,-1873,3250,3434
-31,70,4,-3955,1677,5495
-111,66,-119,2087,-2851,4571
88,10,16,1522,-512,3453
-116,-28,51,-706,-504,1449
67,110,99,406,-1582,3335
97,100,39,-14,-409,1920
61,-6,3,1279,-169,1123
43,97,-7,2405,-719,879
59,-100,15,-1161,-43,633
35,105,-33,-2385,330,78
30,28,-45,-534,20,-419
38,-13,-50,1384,186,-267
37,17,-47,1213,365,-391
65,20,-45,677,332,-68
86,36,-35,287,261,265
86,47,-44,-63,167,478
64,69,-47,-980,50,59
110,-12,-97,325,242,-207
93,9,-79,749,-122,125
104,68,-61,-118,-272,360
127,100,-81,-865,283,196
-117,86,-104,-756,232,-208
-89,95,-83,-1161,-42,-239
-128,84,-73,-503,-186,-216
111,72,-99,118,213,-395
-119,52,-117,760,224,-386
-87,61,127,765,210,34
-104,94,-115,720,-199,269
-91,125,-106,24,-99,-197
-90,100,-97,416,47,-525
-81,85,-110,116,116,-379
-96,80,-112,-89,-120,-14
-81,89,-128,-168,165,-30
9,21,62,-6485,1318,-1356
-17,-52,120,-2497,1199,-3441
33,-76,-14,-360,7573,-7377
-104,-97,-102,-76,6370,-1161
97,29,5,-957,479,6298
-61,-69,68,712,-43,5898
17,-90,37,-2408,-2353,8051
120,-13,-97,158,-462,-5376
-76,80,-110,1833,-3173,-4613
-73,48,-78,-3834,1081,-3278
119,-109,78,2959,-2656,798
-108,24,91,2598,-1276,-486
60,6,-98,2638,-1556,1985
-115,-61,121,1752,-746,348
-27,108,124,-1666,-65,2770
-19,-83,-55,-2425,-1646,4358
58,79,-80,-1011,-2898,5856
-36,-124,68,-614,-1715,3685
-7,29,-24,1899,-359,-909
-108,-6,-25,1954,-939,-931
120,-79,-33,2234,-1317,-400
-84,106,-93,3208,-49,507
-117,-127,-103,859,1005,467
64,73,-89,202,84,-296
25,33,-29,-64,-847,-566
105,0,-2,-9,147,-479
124,9,-37,-394,1055,-258
108,-4,-76,-284,610,-131
104,-4,-80,216,-205,150
-127,23,-72,9,-268,227
-118,47,-53,64,-34,-9
-112,49,-55,48,181,-355
-111,46,-71,-100,207,-318
-107,28,-93,14,14,-158
-99,29,-85,282,-140,14
-101,34,-72,531,-55,-71
-85,40,-85,290,172,-100
-81,64,-88,-207,14,82
-81,50,-102,26,11,-202
-75,67,-97,-331,68,-175
-76,61,-100,-92,53,-182
-77,62,-103,-18,-6,-140
-70,63,-114,-13,6,-90
-56,76,-108,-56,-4,95
-58,104,-105,-146,17,-24
-56,101,-113,27,30,-225
-54,109,-120,-309,42,-147
-48,103,-124,-204,36,-193
-44,106,-120,-109,7,-144
-47,116,-116,-14,4,-64
-54,-9,-117,-3279,3284,-4235
-55,-19,16,-2741,3466,-6241
-70,123,14,-1591,-50,-3319
23,47,-67,-145,34,-1422
-73,-120,-108,-3146,-917,-1507
-66,-59,24,38,1749,-6917
-35,-95,78,-1652,4773,-2593
-89,-58,-10,-601,3897,2086
-91,106,-99,-1727,1802,4479
-92,3,111,4269,-6581,4015
-116,-50,98,-1229,2750,5283
10,-121,73,-432,-596,-6785
49,29,124,3161,-2586,-3422
-29,-97,-122,-6877,-350,-811
18,-42,-92,4060,-411,-1179
47,20,-69,1511,-656,-461
-8,38,6,1165,-1852,-760
71,-60,38,-1531,-399,856
105,-33,78,413,-649,1304
97,-116,58,1149,-705,1214
75,-104,16,-18,-2341,1823
-48,64,-42,-437,-1831,1348
39,-68,-40,1933,-176,-1263
27,-55,-46,611,499,20
39,-75,-104,415,492,873
35,67,114,1267,-506,2619
75,16,58,710,-800,3083
-125,-2,50,40,348,-136
-108,-50,76,1352,324,1030
-105,-44,80,1019,225,1142
-118,-95,88,1226,113,702
-119,-97,81,-26,69,445
-121,-126,60,-110,-6,455
-117,126,41,-301,144,-75
-119,108,34,414,-31,243
-121,108,39,297,-299,340
-110,97,32,175,-126,229
-111,93,36,283,-32,-200
-99,85,33,348,16,37
-100,80,20,166,-108,205
-97,71,10,357,-146,155
-92,79,8,213,-132,158
-97,68,3,268,-64,7
-84,75,1,140,209,-460
-74,79,-9,21,188,-171
-76,71,-20,-19,-84,-6
-81,77,-21,-180,-218,154
-70,78,-18,71,-49,-25
-65,96,-20,-60,124,-102
-70,93,-36,-45,32,-157
-7,56,19,-2461,3183,-3005
-33,-122,-113,-1461,2488,-2807
30,57,-108,-1822,1034,-2273
75,40,-117,-164,-1814,-2126
-72,-33,-117,-1029,371,-6526
-95,-85,-17,1246,654,-6144
18,1,7,-3632,3917,-1923
-88,116,-101,-96,2404,1530
68,106,46,-1272,3476,4758
117,-104,-73,-448,-1692,3646
-95,-91,-59,-4207,-2042,2936
-48,-124,64,4415,428,-4327
49,93,112,272,-769,-2549
-63,-117,38,-1682,-117,-2793
-63,2,37,2580,-1119,-487
89,-87,52,2413,-1779,-202
19,118,119,2090,-2795,2661
15,63,-20,894,-613,4447
93,82,34,-1484,-441,3824
63,-51,-29,1414,-1017,2359
10,104,-119,1366,-1644,3295
7,114,120,5132,-1038,1360
-122,-39,44,-178,151,1906
-5,-40,-19,-33,-269,782
-18,-117,-113,3335,-821,122
86,-64,-61,2634,-582,1982
120,119,-5,-2161,886,1824
48,116,-99,-3378,2074,-89
10,16,-33,469,415,-1242
49,-6,35,348,-352,-1588
98,-38,-46,171,522,-522
89,-11,-57,67,420,539
75,24,-27,596,-203,690
116,50,-19,593,75,212
-123,75,-31,-157,441,-197
119,51,-54,-412,380,-204
120,24,-67,219,88,25
-127,46,-66,223,-108,12
-116,78,-57,-558,-90,-78
-102,71,-53,-521,-39,-107
-98,69,-60,-286,56,-113
-97,67,-75,-98,53,-179
-97,86,-73,-300,-57,-101
-87,88,-69,-129,25,-72
-85,90,-73,183,25,-72
-79,96,-89,264,-2,-45
-77,113,-91,88,-93,-48
-70,124,-88,-69,22,-115
-70,125,-94,-288,58,-122
-69,120,-101,-308,9,-52
-105,106,-33,-4580,4013,-1863
-114,-109,-47,-3841,6301,-1966
74,33,41,5544,-3427,-3280
-61,-102,-68,-4257,113,-6245
-90,22,65,848,2420,-7398
118,-67,115,-1389,4495,-2443
-101,-36,56,-1319,4106,2046
70,19,-39,-648,-451,2326
-49,-2,-25,-3099,-2218,4786
-46,-80,84,4339,-558,-3393
-50,2,54,-486,-623,-2300
-24,125,70,-505,484,-2130
26,16,54,640,-2640,-47
90,-27,76,1138,-1730,681
-50,-27,-122,2523,-2064,2383
-83,48,-51,727,-1190,2386
79,38,48,-2912,290,2898
76,16,66,-328,-1698,2598
38,48,6,890,-2263,1312
-69,51,-55,-154,-1306,1983
-59,-100,100,1680,-992,2447
-14,27,23,4360,-491,1962
-103,-60,-23,3603,-300,736
116,-56,11,232,-137,413
92,116,-5,-431,33,129
78,68,-23,269,-307,305
76,44,-14,1234,-630,10
78,68,-9,-78,-264,-39
74,89,-24,-1693,30,-185
77,36,-52,-755,240,-389
75,29,-56,512,45,95
81,77,-41,205,-98,238
103,85,-45,219,104,4
113,74,-64,347,243,-285
116,61,-72,370,70,-251
-127,45,-76,616,20,-22
-128,66,-64,211,25,-8
-116,92,-57,-313,96,-121
-93,76,-66,-302,156,-402
-99,72,-73,-401,125,-236
-103,65,-77,-64,14,-99
-84,71,-71,349,33,6
-83,93,-76,239,39,-57
-82,101,-79,153,-12,-99
-69,106,-85,-62,47,-116
-70,112,-85,-249,65,-110
-71,111,-85,-212,34,-145
-58,111,-87,-215,60,-133
-59,117,-86,-192,2,-71
-53,120,-85,14,29,-93
-121,85,82,3546,3137,-2781
-125,-84,99,-1056,138,-1871
-100,45,34,-3379,-261,-3720
33,-93,0,-1932,-1469,-4066
-47,123,-81,-2070,1000,-5851
111,1,127,-1704,3596,-4256
64,-21,-124,-975,3929,-119
-103,48,-13,-3390,3736,2356
101,-56,80,799,-2838,4286
-72,13,114,4639,-1375,27
84,-49,10,2196,-586,-6197
-67,18,54,-2570,106,-878
40,63,56,-1449,-498,-339
76,80,81,1737,-2649,1017
-95,-109,-120,2703,-3629,1802
98,-45,-69,1259,-3036,1718
81,-71,-87,-1525,-2066,2936
120,20,42,-97,-2430,2594
-65,67,-91,2884,-969,2354
127,-73,96,3637,-245,2095
-70,83,-32,4490,553,2534
-65,84,-73,1725,521,2276
93,22,-66,-467,177,1335
2,-80,-39,-1259,-291,-156
35,64,-60,129,170,-1076
53,23,-70,590,465,-1020
54,44,-54,-420,147,-574
72,38,-36,-211,-282,199
91,34,-38,406,0,315
103,49,-57,581,423,48
94,55,-67,437,266,-82
99,57,-64,302,-107,-30
119,60,-57,170,-91,-115
126,66,-59,-89,95,-208
-122,69,-71,-370,63,-159
-120,73,-76,-540,56,-133
-105,73,-84,-480,133,-228
-103,85,-81,-428,-11,-96
-109,87,-79,-37,-48,-69
-101,98,-83,268,89,52
-105,108,-99,273,49,-88
-90,112,-106,166,-3,-144
-82,125,-96,-195,10,-186
-78,117,-89,-133,48,-200
-69,115,-92,-82,56,-82
-71,117,-107,-5,39,-171
-67,119,-107,4,3,-146
-61,120,-103,94,-13,-111
-59,127,-98,89,33,-92
-58,-127,-106,54,29,-108
23,-10,-76,-2539,3224,-2771
-90,66,-44,191,3380,-3873
5,-10,-7,1829,-1834,-2301
104,-107,-7,-2969,381,-4295
43,-104,-111,-945,1404,-5599
-121,-114,41,-959,4230,-6247
-33,-60,-49,1,3905,-2231
-13,42,21,581,1912,2441
-119,57,-111,-2259,-1060,4439
-128,118,23,-2806,-1342,3417
-125,-17,-5,3055,1121,-3165
-7,-79,52,-44,-312,-4318
107,-48,58,-1625,-288,-2153
9,29,-20,1339,-2205,150
108,-30,37,628,-1495,660
-16,100,93,2708,-2508,1632
29,25,-75,1433,-1588,3700
15,-36,-70,-2590,-476,5970
52,-91,-71,2668,-2483,3111
127,-114,81,1330,-1340,2846
85,58,28,292,-705,1584
121,93,-67,2342,447,61
101,53,-58,1293,469,-54
46,86,-51,1715,-128,-139
96,64,-30,233,194,1110
112,57,-37,-573,402,1511
111,33,-67,-405,498,866
96,32,-73,447,374,183
94,59,-50,466,147,-208
110,59,-45,165,-32,-535
120,26,-58,-215,113,-558
127,-3,-77,121,287,-129
123,23,-82,229,85,302
-121,53,-73,66,-22,2
-94,64,-76,-52,126,-429
-103,68,-74,-457,-91,-325
-101,71,-71,-632,-121,-99
-90,71,-91,-778,181,-296
-81,68,-100,-258,148,-207
-79,97,-75,131,-98,-146
-51,-117,-48,100,443,-709
-77,-128,-68,-72,-1,-290
-63,-128,-66,81,130,-825
-29,-79,-57,-156,375,-381
-76,-91,-79,-69,-252,305
-60,-76,-87,-736,-211,557
-49,-78,-84,-647,160,26
-35,-57,-54,-578,229,-151
-51,-51,-73,-480,-226,230
-70,-53,-92,-301,-466,108
81,-18,-16,-3183,5299,-991
58,9,-78,785,4771,-4461
-86,45,-87,2845,461,-874
-91,-28,60,-987,64,-4268
-6,96,-88,-1102,444,-6053
55,55,-16,-775,3302,-5497
122,-13,0,-1106,4546,-1980
14,84,23,-1547,4957,92
40,67,40,-4302,-247,3858
107,36,52,1281,-1565,6003
-98,-125,94,2100,-1596,-2751
28,-73,43,1281,-242,-3914
-48,-46,-109,-2123,-1768,-1946
-103,-5,-117,521,1775,-2766
42,121,91,2988,-880,-483
-69,-92,47,3727,-2125,1656
-71,-14,-94,1456,-3468,3006
117,-69,-3,-1396,-611,3450
15,-40,86,397,-6273,6389
27,-82,-22,3404,-2026,4464
12,114,-72,-1789,-64,3510
98,23,62,471,-749,1339
-74,-76,-74,2218,23,1450
-115,-50,-33,1986,-245,1689
39,-50,-104,294,630,-670
58,-93,-55,-533,470,-765
-1,84,-73,169,-122,-279
35,-108,-11,-615,-1009,464
58,82,-33,931,-414,141
44,122,-41,501,224,-104
58,-126,-56,-214,311,-380
59,99,-70,119,53,-340
61,102,-65,-183,-95,-306
88,85,-73,-20,86,-190
93,92,-82,-180,130,-186
85,108,-82,-377,-75,7
106,114,-87,-381,74,76
115,127,-98,-418,130,-88
120,-117,-101,-418,-2,-136
120,-121,-94,-61,-22,-179
-123,-121,-94,81,68,-187
-119,-119,-95,193,32,-70
-119,-117,-95,318,-29,-18
-112,-118,-101,376,51,-110
-103,-113,-102,118,27,-50
-97,-109,-106,-159,54,-75
-96,-112,-104,-97,-34,-98
-88,-110,-109,-90,81,-118
-92,-102,-111,-282,64,-152
-82,-112,-115,-42,30,-196
28,-9,-27,-2411,6134,-2425
40,-27,-13,-420,4399,-4000
92,-44,57,2276,173,-5419
-89,-101,82,-59,-1301,-3203
126,-42,118,-872,1650,-5399
-4,29,124,-1403,4469,-4334
-89,-117,40,-780,4379,-345
108,-119,-70,-3002,1447,2133
-94,61,-54,2377,-3347,1354
71,35,-14,2174,346,4078
-86,66,-91,2129,-2119,-3529
34,-98,82,-2067,-879,-2145
-1,54,25,-6087,-7,-2323
-92,-24,-105,4107,-2207,-1211
121,-50,127,4242,-1637,487
-44,57,-104,1614,-599,1540
105,30,-95,1523,-1189,1099
13,-82,-31,395,-276,2063
60,-33,13,-201,-698,1097
-31,51,-32,-248,-1785,1230
-2,-50,-22,1108,-1893,2345
65,-83,90,1566,-1608,4801
76,-82,59,-205,-2173,3919
55,-33,-50,1592,-462,423
29,-77,-45,1827,-33,-26
17,54,-33,2950,-49,-56
42,107,-17,529,877,-748
69,58,-34,691,1002,-888
98,9,-56,1021,824,118
70,13,-52,747,75,293
51,2,-43,-277,-63,-111
68,-5,-44,-782,22,-59
92,-21,-59,-264,154,159
91,1,-59,31,18,261
93,16,-52,-113,-121,36
111,-11,-51,269,21,-118
117,-4,-35,795,77,368
106,45,-32,-50,237,344
124,60,-57,-852,440,19
-124,31,-100,-722,320,-205
-125,15,-110,228,-34,-43
-119,52,-90,-179,-180,-125
-99,62,-86,-423,83,-139
-101,65,-84,-274,37,-176
-98,67,-94,-150,86,-246
-94,63,-109,14,70,-118
-91,76,-117,-47,-4,62
-89,102,-118,-106,-127,33
-80,102,-113,-152,83,-250
-76,100,-112,-125,52,-182
108,3,-9,211,5545,-6854
-36,-56,99,-4494,1902,-3522
-121,41,-1,-914,-3442,-4357
6,40,-84,-1536,193,-6684
110,45,-80,-1865,2768,-4176
21,-3,121,-1785,4809,1097
-40,-45,93,-1512,3211,4674
26,-40,-69,-171,2239,1120
-127,57,-34,-4245,591,6493
124,-63,-98,1127,-570,-5039
-15,20,-62,1787,-2090,-4196
15,94,-35,246,263,-2496
-58,28,125,2509,-563,-1009
81,-89,40,1909,-1994,942
11,-88,-113,2769,-4614,3201
52,71,-15,1103,-4959,5130
101,125,-1,2717,-4953,5777
108,-22,-39,-1275,-1675,2805
106,29,94,338,1435,555
29,115,-104,1701,1887,539
-107,-67,-42,3676,-1064,645
40,101,-36,3465,-1452,1794
-95,40,-85,4035,494,1205
-75,76,-80,1833,1208,205
72,-102,-76,-1857,1321,-417
5,3,-65,-323,-532,-890
20,-67,-29,860,-985,-988
50,-67,-34,1007,-93,-385
37,-5,-28,-378,336,113
31,-13,-51,-717,162,-69
54,-12,-61,-643,161,-90
71,-18,-77,-264,211,-177
74,-19,-90,391,46,-62
80,-14,-89,965,-159,-12
91,12,-67,1142,-177,39
110,46,-62,-67,277,-354
114,31,-86,-1054,505,-271
98,-4,-114,-755,141,-174
119,0,-116,-353,-115,68
-120,39,-99,-169,-101,91
-98,62,-86,413,-34,-220
122,62,-109,522,-269,-159
114,71,-125,-388,49,-184
-106,55,110,10,417,23
-108,68,112,265,95,-166
-80,99,-115,-691,-73,-269
-51,86,-121,-812,319,-179
-104,91,-126,-498,-10,-22
-99,82,104,173,-153,53
-93,102,100,533,-105,-24
70,-119,-122,-4516,3715,-3547
-109,-121,32,-5885,5346,-6133
-79,-95,29,1801,262,-2504
32,-17,46,-883,-1378,-2991
89,-75,55,-2143,1291,-4564
-98,-17,-14,-419,3353,-4521
72,-119,39,-1671,2739,154
-76,-7,92,-790,4647,1315
-19,-28,-111,-3897,519,6193
61,27,17,1399,-17,3093
11,-25,20,512,-4135,155
86,116,-55,1785,1139,-5683
10,-38,-72,-2432,-1000,-1609
-35,107,11,1337,-3689,-2366
-61,-83,88,-130,-1616,450
116,-58,-63,1021,-2602,921
68,-53,45,2686,-3014,2568
56,94,64,1580,-1517,1152
-97,55,71,-2353,-340,852
84,83,61,1380,-1702,1476
-115,24,-70,1803,-666,3017
-82,-64,114,2809,90,2666
127,78,21,4190,-248,1179
93,2,-18,2663,-461,997
45,-50,2,169,-741,-167
66,-118,-47,-145,62,-965
71,80,-65,243,572,-381
55,59,-44,375,242,289
59,76,-16,-491,-18,640
56,90,-16,-878,-371,240
89,84,-44,-395,-54,145
91,68,-50,172,-108,-46
78,90,-36,-334,-72,-17
82,87,-52,-250,78,42
92,75,-77,30,53,-182
103,75,-93,51,101,-90
108,85,-98,54,5,15
111,86,-91,204,-75,-137
122,96,-85,144,9,-120
121,90,-88,214,-49,-130
-125,93,-99,151,103,-36
-120,95,-107,98,39,-136
-117,98,-110,45,-18,-141
-109,100,-109,-92,43,-101
-103,97,-109,-40,69,-63
-95,100,-112,-55,67,-95
-96,101,-113,-44,48,-133
-90,103,-118,-28,42,-126
-77,113,-121,-147,79,-74
-83,117,-121,-92,27,-135
61,-45,-76,-3814,3228,-2637
-63,101,46,213,-1626,-1482
74,2,-110,-1057,-1359,-4806
-65,76,-26,-2261,2058,-7051
57,-82,56,-1722,2556,-3739
-54,-56,12,-2179,4229,2522
-41,70,10,-1216,2321,3844
87,-33,5,-611,-90,3511
32,5,-87,3110,-3402,1092
-114,-58,125,-595,571,-5981
-32,-64,-76,-3022,-1409,-1619
-109,-84,118,1485,-2496,-663
-36,-45,-108,1089,-635,-417
-29,-109,-68,4000,-1687,-1141
-21,91,-88,1684,-835,1847
123,-121,-108,-1641,701,4895
-40,-91,3,3174,-1536,1505
96,-66,113,-727,12,2218
-11,89,80,1519,-1479,767
-119,-94,117,-927,-18,1912
-21,-90,43,4290,381,2657
44,31,-10,2226,1497,2080
-107,0,2,122,9,422
77,-65,-23,-2074,-1254,-196
107,115,-39,-1586,-1281,100
103,83,-59,-647,-472,-145
90,101,-56,5,16,-78
86,126,-60,-83,-125,154
84,119,-76,105,-517,447
78,-123,-72,-244,-581,-87
111,123,-89,-299,213,-226
94,94,-106,220,139,-193
102,109,-115,42,3,91
106,-121,-110,-577,-223,-24
110,-114,-102,-571,-133,17
113,-105,-96,-424,53,-157
122,-122,-98,180,15,-382
-122,-120,-106,206,156,-247
-128,115,-127,633,110,-317
-107,-117,126,21,268,-25
-104,-109,123,-341,244,-84
-99,-117,118,-56,41,-87
-73,-110,116,156,66,7
-80,-95,-125,38,-58,-46
-63,-70,-117,-318,181,-200
-66,-99,127,103,258,-376
-64,-109,114,-217,177,-79
-78,-72,126,-706,-55,521
-64,-57,115,-439,228,103
-64,-65,107,-36,-18,-484
-128,-53,-55,-2672,4557,-1713
90,84,124,2098,296,-1405
-87,39,-18,-3860,1678,-4487
50,20,69,38,1163,-6245
-81,106,-107,-1342,5794,-4362
-74,-99,-77,38,5489,-172
102,-94,109,-691,3813,4074
62,-86,91,-798,-4157,4606
80,-126,-57,-4065,-1824,3661
-126,21,58,2366,1205,-5340
-2,-67,-85,1021,-221,-3127
20,-50,-121,-1027,991,-1058
24,87,87,1117,-2765,-452
114,-3,-94,1279,-1413,402
78,-62,-49,1848,-1724,1404
106,-94,18,-93,18,1801
68,62,86,-1627,-719,2549
-1,-70,81,1544,-1116,1396
-12,125,-26,-33,-1127,742
41,-106,-21,-747,-591,1030
27,-81,-82,122,-847,658
59,90,-112,2020,-1574,2608
98,42,111,1742,-1512,3503
-117,-74,48,1974,-1618,2840
-93,-92,1,1304,279,98
116,-50,-30,-262,632,304
56,110,-44,1045,-38,-647
53,67,-12,1180,-219,-755
74,29,3,532,-291,-579
87,42,-2,-37,-114,89
88,58,-21,-561,-227,233
87,60,-27,-795,-302,9
95,70,-39,-752,-96,202
96,55,-53,143,-141,346
108,33,-47,1091,-298,60
104,62,-67,539,154,-51
101,96,-86,-470,225,-162
107,69,-97,-222,28,-268
123,39,-94,522,51,-463
116,36,-92,664,119,-521
124,46,-95,393,-1,-213
-112,69,-95,-288,27,57
-113,70,-102,-452,51,129
126,74,-104,-234,-17,-56
-114,82,-116,-62,126,-208
-109,88,-121,-284,54,-233
-98,87,-124,-307,-98,-61
-87,89,127,-199,44,-65
-86,87,119,35,-11,-84
-87,96,119,-142,-60,56
-58,26,77,-2472,3750,-1979
-25,-120,-53,-1744,2893,-2996
-89,-78,4,-5,1367,-3009
-14,106,5,794,-610,-2413
47,-121,-16,-906,-386,-4509
-8,17,36,-657,1754,-5058
125,15,-103,-1326,2811,-2598
-88,51,-72,755,4974,185
-124,91,82,-3274,4754,3562
-104,-123,-46,1598,-3884,4813
62,90,93,216,-2604,5204
103,80,88,2130,746,-5447
-95,-25,120,1779,-1218,-3759
40,-88,-126,-3376,84,-1522
-11,-40,111,781,-2546,334
-66,-94,102,1563,-1831,248
7,-34,-67,2347,-2467,1310
-38,82,20,472,-644,1828
68,-51,31,-391,-1428,1061
116,2,82,-891,-325,-675
42,-8,63,168,-392,1719
25,71,-35,172,-217,874
-6,-42,-118,546,-1788,2806
65,80,123,2878,-1702,2726
-76,-103,73,256,614,890
-90,46,67,1061,1487,16
-112,-40,30,2051,1422,896
-120,-80,70,1497,609,326
120,-93,94,29,-275,-377
-108,-87,82,-861,-181,-45
-86,-106,61,-442,57,-245
-90,-128,60,438,-100,-183
-90,-92,73,-232,-93,-2
-84,-99,67,-162,-60,-103
-72,-100,52,1,109,-32
-76,-90,45,-110,20,69
-70,-92,33,-68,-99,22
-71,-90,34,-75,-146,-54
-64,-93,29,-57,-74,85
-68,-99,28,39,-112,-60
-54,-91,21,35,69,72
-66,-90,22,96,15,-89
-58,-83,17,167,145,-78
-49,-90,0,55,-12,-156
-50,-86,7,-233,-87,-94
-54,-67,11,-182,137,95
-26,-68,-10,88,224,-282
-42,-65,-6,-440,-243,-369
-59,-80,7,-225,-208,-25
-23,-71,1,212,422,-60
12,73,5,-3682,2305,-2289
-10,63,9,-4113,1879,-3419
-19,124,23,-971,-1185,-410
-43,-73,31,-916,1241,-4615
78,54,61,-2427,3301,-4248
43,11,-92,-1093,4099,-3122
-71,7,-105,838,1034,846
88,42,-60,-2293,4522,2904
-126,-99,-84,-2868,-1805,2672
81,0,-61,2755,-2275,4396
-36,35,47,2436,1086,-6116
-39,117,65,-493,-853,-2690
-77,101,87,927,-1609,190
30,46,28,531,-2566,1060
105,-29,101,502,-3303,1513
-92,50,-74,3132,-1545,2069
74,-33,-12,1015,-1208,1606
4,42,82,-2785,-1283,2690
-50,44,42,953,-992,621
-65,9,-106,567,-787,2423
-53,-92,109,2388,-390,2037
-62,84,37,3520,162,1975
-89,-8,1,3310,771,1393
86,-9,-8,293,-146,-171
53,-69,3,-1095,-778,-297
67,96,-26,-1135,-647,-460
84,70,-30,-181,-10,-436
84,60,-17,287,-46,-350
88,71,-7,126,-178,-6
94,84,-8,-331,-3,-90
104,76,-30,-329,153,-54
107,46,-45,509,-76,101
105,48,-40,906,-152,151
-128,50,-44,1150,283,77
122,58,-49,682,258,-165
-121,81,-42,-232,1,85
-113,68,-54,-394,-9,-94
-120,50,-64,-23,132,-116
-112,71,-77,-474,83,-44
-107,68,-77,-351,-92,-34
-104,79,-75,-262,14,-135
-97,92,-74,-297,44,-162
-92,89,-85,-131,-4,-106
-86,94,-93,-1,4,-84
-85,101,-96,56,53,-94
-86,113,-101,-34,60,-54
-81,118,-106,-50,-3,-174
-69,126,-106,-215,2,-169
-67,125,-103,-221,11,-121
-68,120,-106,-46,46,-144
-62,118,-93,-4849,2849,-3499
59,21,-56,-4901,2497,-2605
-91,-99,110,810,-1251,-2412
-65,-76,-122,-3799,870,-4377
-110,46,15,-1750,3661,-4338
-117,10,103,-645,2121,-277
7,112,-44,-515,5972,1005
106,-19,-104,-2256,5,3306
97,-100,-54,759,-2741,2182
-28,-88,25,2176,-2132,1096
59,-112,-106,2420,21,-4677
-16,15,40,-2938,-1183,-2982
8,-13,62,-289,2372,-2991
-13,92,-110,2528,-944,-489
-122,-83,77,2399,-2285,-689
-56,-51,-45,1480,-3021,2969
-102,-87,63,-258,-2903,2152
-75,-18,69,-1280,-3261,1836
36,-10,59,1335,-1261,1433
-52,54,-57,2452,-1084,1807
17,-126,-88,293,-305,2048
15,103,114,2439,17,1562
50,112,53,781,187,906
48,-37,-20,2349,7,1267
72,72,-45,3124,303,1156
65,95,-21,1522,227,130
79,73,-19,865,426,288
51,63,-2,80,28,256
57,42,10,-39,-201,-36
80,20,16,283,183,-281
84,17,11,228,267,-236
79,24,-5,-275,76,-26
86,15,-33,-539,-1,67
92,-2,-46,-43,81,-11
99,-2,-46,264,25,-119
117,11,-46,286,129,10
117,23,-47,95,143,88
118,41,-49,-188,8,37
-128,46,-54,-289,-18,-200
-124,32,-65,-116,88,-297
-128,27,-80,-9,87,-172
124,21,-100,67,-5,-207
-105,30,-92,220,-74,144
-89,82,-82,-100,3,174
-91,91,-89,-417,116,-368
-92,57,-102,-63,60,-453
-93,44,-103,71,19,-186
-89,53,-100,221,111,69
-94,73,-101,348,35,-35
-78,92,-109,151,68,-256
20,37,-84,-3772,4159,-2412
-84,-95,37,-3281,5274,-4708
118,46,-28,-3091,2453,-4501
-81,-62,65,2618,-1200,-2578
-117,44,119,-681,-58,-3453
118,44,91,-990,-467,-4902
-66,-68,-126,-2297,4234,-4380
113,60,-75,-3404,3616,1731
40,27,74,-1731,2981,4363
1,-99,-76,-1626,-3448,5198
-59,-84,65,-3951,-1439,3479
125,-50,39,4619,-1238,-3009
63,28,-104,814,-4129,-2120
81,-1,56,-3726,-306,-2140
17,50,-79,667,2856,-2272
-58,51,-85,3635,-1711,-861
-35,40,-64,1595,-1722,1385
30,-17,41,1330,-2573,626
-16,-121,72,-698,-1075,955
-13,39,63,-730,-1537,1068
-106,99,52,1270,-2753,1598
2,87,17,831,-1326,2162
59,-80,123,2822,695,2226
80,-88,61,1784,460,2801
68,30,0,-2309,-669,1803
42,-111,-22,-1205,-1604,476
47,47,9,476,-1092,-181
32,57,118,-25,-330,22
46,13,-96,-365,136,383
70,-45,65,-187,181,398
60,-37,-25,-481,-63,229
53,-72,-55,430,-198,-223
69,-54,-55,232,12,-60
78,-44,-44,84,75,-133
98,-34,-29,-39,269,-260
99,25,22,-684,14,-70
109,-3,5,-660,1,-208
124,-42,-44,-417,-41,-103
-128,-42,-62,-283,-63,-96
-124,-46,-53,120,-3,-78
-120,-22,-33,100,68,-131
-113,-13,-34,27,56,-162
-107,-16,-46,54,49,-82
-107,-6,-52,-221,21,-76
-93,-22,-49,-114,130,-139
-87,-40,-44,44,52,-169
-89,-36,-44,59,-1,-78
-79,-26,-48,17,81,-134
-75,-23,-54,-26,42,-78
-71,-23,-50,-166,62,-155
-69,-93,-118,2976,5010,-2706
44,-116,114,-633,-3254,-1435
-83,10,82,-1991,-322,-6055
-98,-108,112,-1242,305,-4551
105,6,-123,318,2488,-3438
102,58,-56,-1315,8452,1033
106,10,-25,-2129,4672,2710
-77,67,-106,4003,-4954,3821
82,-37,63,-21,-1365,2772
-89,106,-78,2288,1073,-5992
17,-112,0,-1565,458,-2754
110,-20,-86,-248,-1099,-1186
42,52,-127,1476,-3881,-1174
-50,21,29,1295,-1690,1335
111,31,28,3394,-2290,1965
105,55,87,-1128,382,1519
-63,27,98,-1793,-1096,1966
69,24,71,968,-1591,64
77,-116,32,374,-2518,2688
107,-43,-106,207,-1751,2644
-114,79,123,2319,-640,3188
120,127,39,4178,-346,2468
105,-78,11,1698,-743,1953
53,83,4,560,-706,-75
77,-36,-3,1288,168,-366
68,-1,11,443,543,27
41,-28,4,-82,421,-275
51,-61,8,200,73,-385
69,-37,26,-165,-4,-72
72,-61,18,681,116,-54
75,-58,7,570,332,-166
100,-36,-10,-138,509,38
97,-28,-16,1,210,266
102,-23,-19,203,-85,-9
120,5,-11,-466,-95,-282
-126,-5,-25,-593,138,-374
127,-14,-39,-393,68,-308
-115,-13,-49,-42,37,-124
-115,17,-48,-136,48,-71
-109,23,-56,-34,134,-259
-93,37,-58,-95,149,-218
-98,40,-62,47,46,-201
-93,44,-65,147,66,-243
-79,48,-75,84,102,-223
-74,52,-80,36,147,-189
-75,59,-73,37,32,-102
-67,65,-73,118,74,-97
-61,65,-80,204,95,-85
-66,80,-87,-174,45,-46
-59,81,-94,-152,104,42
58,126,-62,-7233,6271,-1943
-47,51,40,1177,3789,-4161
-46,-104,-103,4019,-1630,-4235
-12,-85,40,-3171,50,-5495
96,109,-113,-249,2691,-7072
82,27,-81,-994,2906,-3362
90,-97,-82,-2227,3286,2102
51,-117,-125,-3831,2384,4874
-73,67,77,-1290,-4684,3107
2,-69,-60,4477,-1049,4593
-32,1,40,2184,-836,-5531
-10,-108,14,-989,977,-3261
-33,-74,-89,-2352,1725,-2645
32,76,8,5348,-1375,-1233
117,10,4,1370,-686,-90
79,-61,79,2423,-2670,1446
23,114,62,853,-3526,2781
-77,-94,84,-2102,-2312,1076
115,37,48,386,-1469,789
23,36,29,2213,-1762,2987
-115,-1,-85,1305,531,2745
-78,-34,96,1167,-446,5874
-39,49,20,269,-1269,3387
22,-46,-35,1376,-1172,1529
73,124,-58,1358,-525,-85
-126,107,-50,2226,-190,249
62,52,-13,2817,-390,124
28,103,35,531,238,-511
33,99,30,-1243,665,-675
29,-21,-32,-391,421,-507
33,-32,-34,284,60,-93
49,-11,-37,260,44,207
62,-2,-43,339,152,227
68,12,-45,265,133,59
75,23,-39,319,41,60
79,25,-46,279,83,-75
88,27,-57,-58,130,-131
95,25,-70,-311,76,-179
102,16,-68,-201,9,-206
106,16,-68,-107,77,-173
123,16,-71,171,51,-113
121,31,-73,264,14,-25
124,53,-87,-118,131,-112
-125,57,-98,-506,229,-154
-119,49,-107,-268,32,-177
-111,52,-100,-16,-105,-65
-103,68,-98,-70,86,-88
-102,79,-105,-174,108,-132
-94,87,-113,-274,37,-95
-87,80,-111,49,-7,-177
102,-91,-87,-5229,4162,-2069
105,38,61,-4420,4261,-3904
-8,13,69,396,787,-2003
-26,-68,9,-334,-1226,-2929
15,-95,-26,-2206,1562,-5935
73,-83,-107,-704,2765,-4572
123,52,-81,-652,3562,-1850
-121,119,-111,-336,5281,1138
71,67,59,-2703,1134,2857
-106,28,-41,610,-904,3660
-128,-6,110,-471,-1674,564
86,97,-108,3466,958,-5365
97,57,-70,-1180,-1142,-1036
-48,0,-102,-740,-965,-1536
39,26,102,3088,-2978,-1019
-7,-58,57,4006,-1763,-1560
106,111,-75,2574,-1239,-244
-97,-51,-53,-1138,-1361,3780
-17,8,24,100,-562,3581
-71,106,-44,2939,-1526,1498
-4,-114,-127,-982,-1055,3630
55,64,69,-537,-744,2142
53,77,35,3398,-1092,2302
40,34,1,3172,-584,1518
15,-36,4,2040,-1008,1456
12,-119,-19,1217,-363,1100
15,79,-20,910,313,193
15,89,-19,-678,991,-101
15,28,-47,-1029,1142,-161
4,-20,-67,223,468,-423
26,-14,-65,644,-53,-127
52,15,-56,318,-38,168
61,16,-53,372,133,28
67,18,-46,563,105,-205
72,32,-38,132,30,-265
89,24,-55,-260,126,-325
92,10,-69,-292,-56,-239
94,18,-73,-190,58,4
96,30,-80,-113,74,-103
112,37,-88,-100,113,-51
117,51,-89,-145,56,-45
124,61,-97,-184,110,-97
-127,65,-100,-262,109,-121
-125,63,-109,-199,16,-203
-113,66,-106,-142,-3,-101
-110,71,-106,-19,52,-117
-103,78,-113,89,72,-110
-98,85,-118,66,22,-116
-96,92,-119,-23,54,-160
-88,89,-126,8,82,-160
93,34,75,-7782,1551,-5327
49,38,25,-4080,2948,-2206
-4,-21,-16,-1070,1843,-1325
-56,-77,27,-2283,600,-2184
-71,-64,-100,-1398,4057,-4776
55,46,-43,1390,5870,-1787
0,-123,-33,-4302,7941,4858
-20,-125,-41,5786,-5180,4669
-56,-54,-37,-175,-2596,4590
26,85,-30,1552,84,-5073
-78,-30,76,434,-1219,-2929
-55,77,125,-2813,-478,-4287
7,-81,-124,1704,-874,-1669
-102,-87,-105,1555,-931,-49
121,-111,118,3466,-2351,1348
86,112,-109,3924,-499,727
8,5,-39,-335,-846,2989
-67,-72,81,-1770,-2582,1209
14,10,23,-1,-2920,4144
109,-75,81,4566,-1255,3241
-98,90,-55,7708,511,5282
116,27,93,3053,592,1718
-76,10,-71,-2439,-101,-80
10,27,-82,19,747,-515
36,-23,1,1398,612,-659
48,-6,41,508,430,-666
64,-27,-2,-63,418,-287
94,23,-18,-1702,168,97
75,0,-37,-988,-69,-23
76,-37,-37,1096,107,-85
82,12,-24,824,319,-125
103,41,-30,-567,385,66
117,19,-48,-102,249,265
-116,10,-84,1155,331,334
116,64,-32,-612,-17,-384
-114,58,-37,-1119,52,-383
-99,33,-49,-563,-37,-152
-103,45,-57,-519,21,-134
-88,49,-91,106,229,80
-104,69,-82,-12,-9,-72
-98,88,-70,-45,34,-46
-89,82,-69,288,26,-147
-77,81,-83,186,128,-112
-80,85,-94,40,33,-51
-71,93,-93,-39,4,-83
-69,103,-90,-230,52,-181
-62,106,-91,-273,48,-200
-64,103,-96,-184,13,-177
-59,102,-100,-46,39,-143
-53,111,-97,14,48,-116
86,40,-30,-5146,4385,-4509
68,-54,-117,256,1281,-3005
101,115,-94,238,-2258,-2931
-87,59,-90,-1245,-1707,-4901
-45,100,98,-2217,2862,-4859
-33,-61,114,-204,3927,-2435
-3,-97,11,-2339,7133,1200
27,-69,-13,1780,-4598,3679
-112,-35,-85,-4168,-62,4597
-90,-6,102,2643,33,-3462
38,39,79,2419,-122,-3062
65,59,73,-2671,355,-1213
-77,-16,110,-191,-1830,454
-127,-94,33,1368,-1164,-516
-123,-43,71,1890,-1925,557
-81,-128,116,2546,-2815,1628
51,-93,-35,-1199,466,3374
0,36,53,-1701,-2281,989
77,-75,37,260,-1517,2693
101,50,-36,1983,-2045,4080
-105,-64,-109,2761,-1291,1310
-104,90,-8,1543,-336,2429
68,-79,-41,3220,-1122,2187
34,-93,-56,1536,-422,452
19,109,-19,721,317,-1154
54,79,-27,438,962,-1150
52,31,-29,4,662,-192
45,8,-38,-447,186,443
59,-2,-48,-411,36,392
73,2,-56,388,-149,-17
85,42,-38,-34,12,-125
94,46,-42,-346,161,-257
89,27,-64,-223,68,-239
97,35,-79,-286,66,-238
115,50,-80,-268,113,-179
123,58,-76,-189,-3,-89
124,65,-75,12,-17,-60
-124,72,-82,67,139,-77
-120,72,-97,153,87,-146
-119,83,-105,-31,38,-82
-116,86,-104,-79,23,-177
-103,92,-105,-157,85,-147
-103,89,-106,-85,22,-149
-93,88,-110,31,57,-133
-84,94,-113,74,91,-129
-89,101,-114,-23,61,-117
-84,112,-115,-197,63,-83
-72,108,-121,-123,73,-170
-71,110,-121,-87,40,-134
-67,110,-119,-7,57,-115
-32,-59,-3,-2421,3253,-4997
118,5,-95,-2969,1659,-3422
117,-27,-123,477,142,-2302
18,-75,-104,-1840,924,-5058
-127,86,-94,-184,1918,-5630
-52,-58,8,-2086,4119,-2939
-37,-112,36,-1465,4555,1352
-117,-5,-74,-1157,-600,4700
-126,49,121,434,-735,3944
-100,-64,-50,-2265,-1347,3020
94,73,4,1805,1549,-6248
-60,-59,46,369,-1547,-2549
-72,-18,-56,-385,-2490,-1228
31,124,90,1495,-1178,-1035
0,-41,97,2424,-2977,-738
-75,-84,-108,3076,-3823,898
-75,110,0,-47,-2010,1811
-7,-113,88,-1758,-1515,3166
-40,125,47,1973,-1700,2980
17,17,-35,2560,-867,2105
76,35,65,918,-1258,3570
44,112,-13,2427,-1411,1321
40,-21,-82,1907,-627,850
27,-32,-51,750,-80,529
4,-89,-56,758,36,-186
7,-117,-33,130,237,-535
16,101,-40,57,397,-412
6,36,-64,477,288,-428
15,44,-68,163,323,-73
28,45,-81,107,283,84
43,25,-81,818,132,104
59,37,-65,852,208,111
66,55,-55,63,235,-87
86,46,-72,-210,324,-37
81,27,-83,82,142,-148
86,27,-87,97,55,-164
102,34,-90,-54,108,-116
107,36,-92,-19,86,-123
114,44,-93,-36,26,-142
-128,53,-99,-193,78,-162
127,54,-100,-197,46,-154
-118,51,-105,-14,71,-154
-114,55,-108,47,85,-127
-110,65,-112,21,62,-86
-106,75,-117,37,60,-129
-100,84,-120,-94,58,-159
-94,80,-124,-72,73,-170
-91,79,-126,-31,69,-135
-84,86,-128,-104,60,-97
-82,93,125,-103,61,-142
-77,-43,-106,-2360,3315,-2375
44,-81,-59,-3324,6587,-5211
-29,77,-115,-924,-333,-363
-61,17,-30,-19,153,-3092
51,-54,-65,-1308,-1619,-3138
-114,-43,41,-620,1424,-6372
81,39,126,-2057,3948,-3209
-84,-126,112,-824,4803,753
-58,-48,-17,-1820,2258,3579
-76,-61,-44,724,-1420,30
20,15,-69,2773,-2006,3411
-114,83,17,2657,294,-5342
18,81,-74,-1925,1467,-2628
46,-85,-115,-1940,-648,-325
52,5,91,2489,-2535,400
-56,98,51,-342,-2207,739
-114,-27,-92,2436,-2410,1097
104,62,-32,921,-1673,759
51,-39,6,-202,-548,2075
0,-77,-10,505,-1240,929
-24,60,-106,1180,-1277,2229
20,77,98,604,-2080,3099
-14,106,28,928,-2344,2846
73,120,-2,556,-1483,3480
30,-94,-84,2695,-475,503
40,-120,-109,2841,617,-474
85,78,-95,2169,1165,-797
108,70,-40,1659,918,251
42,95,6,-565,362,180
19,-20,-11,-902,38,-262
63,-56,-45,-297,481,8
75,-58,-65,399,348,222
80,-32,-58,774,84,159
86,4,-38,349,31,11
101,22,-40,-220,228,-247
104,-5,-57,-239,291,-243
106,-19,-77,-174,191,-53
111,-8,-79,9,-30,-36
125,9,-73,10,-17,-157
-118,28,-69,-259,111,-215
-117,18,-78,-143,78,-166
-116,23,-89,-115,53,-108
-108,27,-97,-113,121,-141
-105,35,-101,20,59,-68
-99,60,-100,-137,8,-148
-93,57,-102,-73,91,-198
-89,55,-110,-74,71,-177
-85,60,-116,-81,48,-106
-81,71,-115,-87,80,-116
-77,78,-116,-77,110,-136
-90,8,114,-3671,1865,-2497
71,101,-65,-2922,6416,-7216
-54,-120,97,-582,772,-4198
22,112,-68,1069,-840,342
72,8,-117,-620,-1736,-4408
-24,79,-25,-1694,-401,-5698
15,89,-96,-2892,4940,-6817
102,64,3,-1900,2451,1368
28,-33,-28,-1132,1746,4816
40,-48,31,-1942,-1753,3932
-44,-18,-33,-2960,-1607,4262
-112,110,75,2711,1158,-4456
95,-73,-64,660,348,-2873
-121,-118,-98,-483,-893,-446
93,-17,29,1825,-2038,-1770
32,-108,52,-501,-1908,-991
-124,11,-91,1669,-2968,-161
-96,-74,-15,2414,-1711,1164
-5,-44,60,-362,209,3988
90,46,-35,1900,-1363,1599
0,-82,-14,-878,-1609,2798
14,10,-108,227,-1449,3119
-120,-77,82,3128,-1294,3860
97,-90,-50,4261,-1279,2477
-74,-122,-43,2586,-91,2658
-55,85,-66,1519,1162,1747
-94,127,-6,775,741,1293
52,-50,22,-797,400,-290
-13,32,-18,-598,-19,-1982
46,-6,-55,-825,377,-1607
72,-14,-68,-236,121,-565
63,9,-36,173,-372,456
65,51,-8,-109,-174,264
90,51,-14,467,201,-85
90,51,-49,461,250,-255
84,59,-69,-55,11,-130
102,60,-72,-189,-36,-17
106,84,-53,-448,61,-131
121,85,-57,-447,171,-260
123,76,-74,-350,75,-215
-128,81,-80,-279,10,-36
-124,94,-80,-58,37,-81
-116,107,-80,24,54,-131
-108,113,-82,44,37,-160
-103,118,-87,-36,65,-153
-96,119,-93,-118,107,-152
-96,125,-95,-164,61,-112
-89,124,-92,-14,75,-173
-79,126,-95,14,81,-159
-80,-125,-99,17,39,-127
-25,-107,-83,-4357,3283,-3521
21,-104,-6,-2744,2822,-3242
-42,-45,101,2679,-1734,-2499
26,-93,26,-1397,-1539,-3931
65,121,49,-1698,-996,-5479
-88,22,74,-2103,3557,-5640
99,18,26,-589,3994,-1776
1,84,-18,-2879,5227,3496
-112,76,-81,-1902,-4934,5391
126,89,-62,-8403,-2546,3712
88,72,-82,2723,2622,-5833
10,112,95,4563,-1714,-4919
-90,51,42,-4859,647,-1545
-47,12,-110,3513,-1211,-1167
-96,-18,95,1853,251,471
57,-39,116,2106,-2162,1107
-113,-118,-107,1850,-1129,1231
-93,-5,-105,1666,-821,2827
88,-34,-123,427,-181,3253
-41,-128,-96,-489,-1210,1518
0,79,-84,547,-1615,2949
43,106,70,2452,-1425,2414
110,1,47,-1031,-714,3490
53,-36,-62,2007,-820,1025
81,30,-56,344,-787,1567
-8,110,-47,1600,-702,96
35,62,-49,2248,142,-57
21,71,-28,1015,470,-501
50,33,-26,-28,845,-304
47,-4,-43,52,699,-6
37,-24,-52,352,405,105
45,-15,-51,102,-23,206
68,-12,-67,-97,207,168
59,-6,-57,-16,102,70
75,-10,-68,481,115,-48
85,8,-73,216,75,-78
88,22,-75,-372,93,-230
101,-7,-87,-86,83,-360
90,8,-80,-446,5,-122
117,13,-99,-476,136,-86
-123,18,-105,-192,121,-147
124,37,-99,-136,24,-78
112,60,-102,-274,33,-82
-119,52,-124,-180,106,-218
-109,52,-127,-10,7,-136
-120,57,-126,213,17,-191
-118,81,-118,-180,81,-70
-102,79,121,-186,104,-99
-87,80,115,-81,33,-184
-83,85,119,-1,76,-155
38,-107,113,-2601,3191,-3655
121,44,-22,-653,4602,-2597
1,-60,-74,-619,-923,-2597
-122,-1,-59,-670,-361,-6037
2,-85,-15,-1470,2285,-6974
120,114,-52,-1619,4422,-2786
-24,42,-1,-3255,4680,2049
7,-30,-42,-1944,-946,4755
92,-67,45,-5620,-5315,1643
-48,8,-104,6213,2073,210
-13,25,40,3698,-4392,-4793
115,-98,103,-5174,-66,-2576
75,-99,-108,2411,2645,-2030
25,-104,106,4064,-1683,967
-127,45,92,1384,-1199,2055
-33,19,117,332,-575,2118
-62,-25,108,2161,-663,525
30,21,-24,185,-1359,523
-98,45,-35,-1478,-1909,2191
-33,89,-113,540,-2057,4928
76,42,66,3136,-687,2179
-89,-66,-9,108,-89,3083
124,24,4,1631,-430,144
-86,-58,-50,2366,692,1200
93,117,-48,1784,772,-126
72,121,-32,293,222,169
85,60,-21,440,-32,-75
96,62,-18,541,188,-249
100,67,-9,192,86,-140
103,62,-3,-313,-46,-20
111,51,-11,-632,36,-11
112,21,-33,-22,103,-168
120,37,-41,-123,43,84
120,38,-47,52,2,-26
-128,60,-51,-155,70,-90
-121,64,-56,-185,115,-105
-116,51,-67,156,-27,-173
-110,54,-70,141,88,-164
-98,51,-77,129,80,-143
-108,65,-74,-77,-2,-125
-102,67,-79,-57,76,-17
-90,83,-82,-324,81,-6
-86,72,-91,187,96,-75
-88,79,-98,77,16,-170
-78,85,-98,-101,56,-119
-77,83,-97,-60,51,-151
-73,95,-97,-207,96,-79
-62,125,-105,-956,189,-109
-52,106,-117,-402,89,-190
-63,99,-120,270,-50,-153
104,-38,-47,774,3161,-4312
-26,-7,32,-3259,1769,-3361
-88,-47,-17,-1314,-1000,-1455
19,-36,-84,-3039,-505,-3172
79,30,57,-770,-1484,-4966
-63,-2,87,-1115,2411,-5882
91,-26,-106,-862,5033,-1527
84,-76,8,-1149,4371,2662
69,14,-36,-1491,-606,3781
99,-53,125,843,-2176,2947
122,35,-27,1647,-423,-3649
-86,-90,10,206,-4195,-2857
65,81,122,-3133,4810,-3429
111,63,74,1488,964,-1137
69,-42,109,2663,-1567,-16
-49,-14,-100,2468,-1651,2109
125,-105,-51,-760,-282,1849
-47,-73,-30,-719,-654,2470
-89,-122,-33,1363,-1229,2555
-112,119,-51,986,-2243,2505
-8,115,-62,-536,-1063,503
30,59,-117,-826,-975,2943
114,22,121,1994,1070,3361
-119,53,105,1323,593,3651
95,-44,50,977,-661,1342
127,-76,33,352,-633,-142
-97,-103,32,-131,-221,112
-103,122,51,135,113,184
110,79,65,854,139,-16
111,81,54,105,161,106
114,59,21,62,-200,49
127,72,8,-6,-212,82
87,60,-17,240,-1182,-277
79,31,-43,877,-1495,-887
109,102,-39,-19,-584,-207
97,96,-44,92,-166,150
86,77,-76,80,338,-251
87,79,-87,-402,190,-155
81,58,-105,-47,-99,-263
114,74,-106,-69,113,-2
115,94,-103,-46,203,92
127,-125,126,-804,239,232
118,-99,-116,-1337,199,57
110,103,-106,-415,1,-540
-104,111,-100,-371,229,-16
-95,113,-124,87,120,57
-105,-111,-108,48,-178,183
-79,-92,-110,139,76,108
-113,-61,-126,-776,34,-219
-105,-90,116,-698,156,-184
-97,95,-111,-1172,5035,-4473
-9,-127,-13,-2243,7804,-176
-85,26,34,-2368,-2008,6157
-12,-99,46,-3502,-961,2222
102,-91,51,2587,-6,-622
60,79,-114,2716,-4440,-2242
93,-110,-58,-480,243,-4689
-45,-107,49,-3611,2668,-1838
34,-27,-100,4432,-203,335
-15,-21,-101,2430,-1251,603
-3,20,-88,1025,-1073,1276
-119,105,-74,-824,285,749
126,85,-68,-703,-1847,1585
-1,26,-63,839,-1132,1935
11,104,-79,313,-1571,1900
34,61,-71,309,-1622,549
41,77,124,1725,-601,2677
32,-101,-116,2086,-693,1599
23,-118,97,1073,-1182,2475
102,70,13,-537,-251,1607
110,-52,15,1317,-304,798
67,-113,25,520,-460,529
86,109,20,-327,25,499
79,87,-1,254,163,425
41,80,10,916,73,145
43,72,-12,508,275,91
86,51,-52,-308,480,189
84,16,-73,852,169,232
92,46,-30,706,-58,118
94,88,-14,-413,136,-233
97,60,-24,-499,250,-677
-128,11,-63,-170,137,-649
-121,15,-77,238,74,-13
121,54,-59,-134,-87,107
-127,79,-64,-190,9,-146
-108,97,-63,-569,369,-16
-96,103,-75,-879,319,154
-107,87,-89,-350,51,-66
-95,106,-88,-274,-17,-234
-85,125,-81,-137,109,-140
-74,120,-91,95,139,-166
-75,122,-88,84,35,-248
-73,115,-79,73,116,-271
-70,108,-82,288,90,-255
-55,126,-84,-99,177,-56
-61,121,-90,50,-1,-161
-44,-125,-89,-8,127,-86
-52,-121,-93,58,115,-222
-45,-128,-99,23,168,-157
-41,-125,-98,-138,87,-49
-25,46,89,144,6025,-4849
-2,-15,-63,-1113,-136,-2933
110,116,74,-390,-414,-3013
121,17,1,-2135,-1845,-3119
-104,50,-55,-1784,1315,-6183
50,0,37,-1401,3117,-4019
-43,19,92,-2678,5021,-209
-68,96,-112,-431,-1007,4087
-100,25,-9,-892,-838,3684
23,-106,82,3953,-175,1305
9,47,-31,2124,-1627,-6015
97,-33,106,-1018,-2297,-422
15,20,85,160,652,-1037
-42,-107,74,964,-1838,461
-26,-57,111,1404,-3352,1723
-86,9,-18,698,-2003,3242
29,-98,66,265,-1853,2123
37,18,72,540,-1795,2088
-33,98,38,1702,-1623,2348
82,80,-107,3441,-1130,4012
33,-124,-20,3820,-390,1176
7,80,-52,329,-439,1416
-9,72,-85,1404,-133,451
84,40,-80,449,707,633
111,88,-83,-911,685,1032
45,125,-104,-1481,37,812
14,79,-90,548,-535,-217
35,79,-21,1049,-317,-1014
71,89,-15,-449,714,-909
58,44,-69,-632,542,-382
67,43,-103,-762,162,102
78,59,-109,-350,-15,260
82,64,-102,442,-55,19
97,101,-70,258,113,-185
107,91,-73,384,125,-293
118,91,-95,94,84,-203
119,105,-103,-540,111,-9
118,88,-111,-106,61,-49
-120,109,-104,-290,121,-100
-113,114,-109,-429,150,-155
-112,103,-111,-84,3,-242
-103,105,-109,79,72,-186
-100,114,-114,176,38,-78
-97,-126,-117,100,66,-117
-87,-119,-127,-102,136,-255
-89,-117,-127,-293,73,-182
-81,-124,-124,-225,102,-134
-74,-124,-128,-112,77,-148
-74,-114,-128,-131,20,-115
-67,-110,-126,-73,78,-126
-47,118,7,1193,9042,-4054
74,-82,-108,1196,124,-3671
59,-46,-71,-2512,-2187,-4003
80,-108,76,-2196,-1549,-3911
-126,-17,109,-1259,1742,-7877
-26,125,50,-582,3882,-5431
-81,-112,-94,345,3783,-1728
87,-10,-125,-5276,1153,4841
46,-16,-95,-416,-850,1502
99,-32,-13,-1805,-1015,5548
88,65,7,2426,-7,-7921
-57,-127,66,1989,-853,-3555
-52,69,12,950,1590,-2431
-106,108,-17,2114,-841,497
-36,-90,-29,2308,-2527,1626
47,38,95,2426,-3129,2495
-70,39,-16,-93,-154,4681
8,38,-2,-1994,-368,4285
16,-105,-90,127,-2164,4397
62,-13,58,1109,-2565,3680
-115,-62,-51,138,-2216,3130
79,-10,-106,3482,-619,337
111,-112,126,3720,153,-282
-106,100,122,3432,1003,258
107,-119,-126,1261,839,297
-2,-127,-108,-858,-52,-529
7,33,-30,-857,-809,-869
53,15,52,-175,0,-708
51,2,4,-295,588,-518
44,5,-77,-460,136,-137
62,31,-115,-937,31,92
77,47,-128,-816,205,231
67,33,-116,239,87,-40
77,55,-77,777,-34,-150
100,86,-76,193,157,-218
110,96,-93,-435,237,-102
108,84,-120,-630,59,-58
110,79,126,-305,168,-72
119,75,124,-23,120,-270
127,90,-123,-141,19,-72
-121,102,-115,-117,16,-119
-107,108,-113,-25,136,-184
-110,108,-126,4,60,-182
-110,111,118,-22,76,-94
-104,113,112,1,67,-173
-100,120,116,-59,18,-183
-91,123,119,-145,51,-189
-83,123,118,-115,34,-160
-88,-126,115,-141,9,-132
-72,-128,105,-81,116,-191
84,-115,59,-4075,3564,-1715
-88,55,106,-5041,2599,-1158
106,12,64,2952,168,-2141
2,88,-73,-2102,-840,-5795
-12,40,97,-137,2952,-7716
-2,-116,-119,-2418,5286,-3281
-32,108,-77,-181,4719,891
-114,-44,76,-3096,-1495,5881
-39,-72,-63,-3018,119,95
-46,76,-44,3429,9,1929
60,-49,84,3877,-1309,-4306
105,57,-37,-3442,540,-1227
21,-85,82,-627,-620,-385
-125,-73,47,1382,-2415,91
95,69,68,2111,-3635,504
-85,-89,127,2942,-2042,1394
-81,-16,-78,2334,-2614,626
118,-74,-104,-963,-124,2316
101,-13,-32,-681,-818,1875
-96,126,34,2034,-8,3624
115,-59,-1,2590,-237,2178
-56,-5,-36,377,218,946
-121,75,-49,1276,73,1243
103,103,-42,4401,-291,1266
82,-111,-1,865,-135,1241
46,118,-28,-2295,216,-373
56,18,-88,-648,496,70
31,0,-51,864,-85,274
55,64,-30,277,5,225
89,85,-53,-672,478,0
84,53,-89,-798,65,-337
89,39,-90,-577,-157,-412
109,49,-86,-649,93,-208
111,65,-88,-582,-53,-21
119,91,-91,-320,-42,37
125,97,-102,-6,259,-182
115,103,-120,55,242,-259
123,99,-127,81,21,-120
-113,103,-114,85,58,-100
-107,109,-101,146,86,-135
-102,110,-105,161,153,-108
-102,118,-121,-104,-19,47
-96,-125,127,-251,85,-101
-102,-124,-126,-261,68,-173
-92,-114,-126,-487,104,-158
-75,127,-127,-242,38,-146
-82,-125,-127,-118,27,-160
-73,-125,122,48,67,-133
-72,-109,119,-42,53,-53
-69,-101,116,-129,85,-121
119,35,17,124,4859,-4171
-65,61,11,3462,1099,-3671
108,113,17,-2388,-3713,-3119
-112,56,82,-3085,-664,-4762
-79,38,33,-2494,262,-4902
-54,111,-84,-842,2822,-5889
-120,68,80,193,3890,-2125
7,10,-110,-1575,6540,-978
-24,-13,110,-3929,-2042,8810
-63,63,-12,-8462,-648,4445
-14,121,-75,1772,-946,-4171
-52,53,6,116,-2464,-3392
10,33,46,-3320,1305,-2618
-61,119,-103,2901,-1063,-425
-126,-110,98,3390,-891,54
-111,126,-80,2588,-1822,2031
-48,54,-101,-138,-1030,3690
65,34,-24,-1923,-1967,5244
-84,-43,-91,847,-1519,2360
-80,75,-127,1445,-1881,2441
-52,-20,-126,2261,-54,630
-61,-82,3,2509,1313,954
87,-13,-25,2763,411,981
96,108,-21,2321,-157,1222
111,-109,-35,-1079,281,1657
80,30,-56,720,-277,1195
80,-17,-52,2654,-428,592
86,83,47,-427,-32,-423
96,39,18,-1545,567,-570
87,-10,-28,-1601,320,-267
84,-11,-72,-1707,-104,17
89,9,-91,-1253,-51,139
109,53,-88,-933,69,33
114,65,-82,-323,183,-97
120,75,-77,9,110,-238
127,78,-81,310,48,-159
-121,75,-92,568,67,-25
-120,76,-99,568,103,-19
