AccX,AccY,AccZ,GyroX,GyroY,GyroZ
103,-5,74,-3592,-3307,-5128
-126,116,-91,-6176,-4478,-5971
-128,93,-64,-5944,-4615,-5845
65,-57,79,-4297,-1933,-4952
73,84,110,-482,-1058,-4443
47,2,95,550,-699,-1691
57,67,-19,1435,862,944
-93,-30,-80,4117,3017,4959
-103,121,124,5275,4851,6931
-79,41,96,5115,4069,7979
-116,114,-108,-1829,1078,8017
-36,103,-89,3609,375,1987
-60,-120,3,-500,-1125,707
77,120,-87,2408,-492,1226
62,-69,-74,-71,-366,2745
65,-22,-117,-1879,659,3080
73,5,114,-1809,1057,2852
116,-19,82,498,1414,995
79,44,125,1077,148,587
58,-40,-120,2454,-1008,-362
57,-91,-104,2510,-1042,-747
88,83,-89,1894,4,-1284
80,6,-88,2181,353,-983
91,-25,-69,1486,340,-590
101,-30,-42,698,-84,-105
102,-70,-42,958,-69,4
121,-49,-32,216,113,15
-128,-56,-48,-9,120,-86
122,-73,-59,191,20,-53
-127,-63,-69,116,101,-18
-122,-50,-75,-17,62,61
-113,-39,-86,-41,88,32
-110,-37,-98,76,109,-68
-106,-30,-106,-7,79,-61
-108,-32,-108,117,0,48
-99,-11,-114,-14,99,52
-96,-3,-119,-42,26,74
-89,5,-124,74,33,42
-89,15,-123,102,66,-22
-84,23,-128,30,65,-18
-72,27,122,74,61,-31
-75,27,120,119,84,1
-76,37,116,64,102,6
-66,44,107,132,47,39
-69,48,109,171,37,-5
-63,57,106,133,112,32
-61,64,103,18,45,92
-61,66,101,49,19,128
-56,77,97,64,103,52
-54,79,95,149,17,68
76,-116,-23,-981,-3407,-6597
-36,-3,-71,-1029,-4273,-7320
27,77,-59,-1397,-4377,-8620
54,46,24,-1178,-3891,-7127
-28,-6,5,1015,-1550,-4793
42,-83,48,328,-575,-2369
-97,21,-75,365,106,1793
-40,-45,95,-178,-229,4386
-7,69,-59,1733,976,4740
104,-116,13,1549,491,7609
-75,-42,89,1127,574,7138
117,-54,24,1718,1596,3551
-17,-20,-36,1108,-221,2203
-33,-32,-122,850,-892,-942
-96,101,-27,-1664,-346,1162
-96,-68,-78,-1012,-1058,3921
-29,126,-75,-8,-287,4271
-58,-60,-46,1569,-1061,4313
-121,94,-35,2486,-442,4270
-1,-96,121,2421,1379,2905
-92,-40,86,1090,749,1626
13,-103,119,-105,-597,357
20,-22,122,2040,-220,-889
3,60,-122,4058,-320,-1361
27,115,-92,1133,183,-1327
64,36,-77,432,139,-952
88,-15,-86,231,262,-502
90,-14,-89,35,133,-272
71,-11,-68,-44,-505,-161
102,13,-68,-333,-316,208
83,29,-70,-583,-77,244
85,37,-94,-352,99,46
98,37,-105,53,191,-120
107,38,-119,325,128,-105
107,58,-122,15,26,13
113,64,-127,-137,54,106
122,69,119,-15,112,72
123,74,112,125,62,9
127,85,112,11,5,27
-110,90,106,34,75,49
-124,92,111,114,-4,38
-107,103,107,47,149,55
-106,103,99,109,68,46
-105,109,100,89,-34,76
-98,117,102,41,115,6
-96,116,98,139,65,17
-89,123,94,96,23,43
-87,-128,96,59,71,40
-80,-126,93,68,90,-8
-83,-124,91,107,-9,49
-51,-15,104,-3395,-2812,-6208
17,-122,-73,-4856,-3489,-8191
-28,85,-102,-3233,-4260,-7600
-10,53,50,-199,-1792,-5344
-79,64,-30,97,40,-3432
39,-96,-3,-2,543,284
-120,-110,-113,442,2932,4902
-93,5,44,1982,3694,8178
63,-93,97,2248,2378,10726
-90,-106,-86,1227,1472,5390
29,-95,54,3600,186,3606
70,85,68,-698,-1882,-1338
14,41,125,-78,-530,697
53,-91,-99,1823,613,1009
54,9,-77,-86,1423,3296
68,14,-70,-148,59,4635
118,-2,-70,1102,-591,4682
-67,34,-72,886,79,4162
-97,-14,-102,820,544,1533
64,-72,-101,2311,-83,1080
11,-58,-43,1152,-885,691
2,-105,-48,-140,-456,-346
40,68,-94,135,720,-1671
67,-12,-95,1406,316,-1880
91,-26,-74,1565,-95,-1390
107,-27,-53,815,-162,-787
120,-26,-52,-223,-54,-456
124,-28,-66,-589,-177,-149
122,-30,-82,-445,-294,86
115,-16,-84,-255,-128,57
126,8,-92,-268,128,50
-117,18,-108,-94,203,218
-127,37,-115,-49,-9,387
-124,59,-122,-32,78,350
-120,71,-125,-18,158,155
-114,70,122,159,107,5
-106,79,121,160,51,70
-100,87,119,31,90,156
-103,93,116,97,104,-106
-93,100,103,198,192,-258
-86,108,100,20,22,-86
-87,110,105,37,-145,13
-89,112,110,88,-29,-102
-90,-126,108,-25,-26,-824
-47,-99,91,18,108,-508
-61,-97,95,102,-73,-251
-58,-100,100,247,-90,-201
-69,-102,104,299,130,-19
-56,-110,98,395,307,-133
-70,-117,102,521,156,-281
33,-28,-85,-1505,-2419,-5306
120,94,88,-2230,-3337,-6181
-78,87,32,-3264,-3484,-6793
-108,-11,-16,-2578,-3724,-5693
-77,-18,49,-2087,-1799,-3205
95,73,18,-1323,-1179,-3025
-75,-43,-125,-1129,-651,141
-59,-41,-124,-1141,1704,1256
-35,-38,22,913,3388,6094
32,-38,-37,3144,3728,8531
59,97,-18,5651,653,12311
63,-30,-78,342,-1110,5113
-15,-107,5,500,-1046,-678
-13,-15,-58,1952,-1061,-1435
88,79,9,-2739,169,1643
37,-55,-51,-1137,-453,2411
62,-108,-82,955,647,3170
115,-72,-90,574,54,3344
114,-32,-87,193,-481,3289
-116,18,-97,-157,-297,2545
78,17,-87,201,-407,1367
54,-44,-86,1938,-90,-242
32,-42,-53,1363,-37,-569
58,-106,-28,833,-31,-966
107,109,-35,588,277,-775
114,51,-68,657,571,-1174
115,0,-83,1047,521,-1109
-123,12,-80,600,376,-589
-104,23,-90,-82,137,-245
-98,34,-98,-780,-141,63
-102,57,-115,-1187,-336,66
-100,34,-123,1,-337,80
-100,49,-111,535,-189,110
-90,98,-94,26,300,334
-96,100,-109,-163,80,404
-96,98,-125,82,-79,270
-96,106,-121,189,52,226
-84,108,127,138,209,38
-94,109,126,193,44,86
-84,115,125,111,113,29
-77,112,119,198,100,76
-74,112,120,196,66,37
-72,115,119,167,74,-34
-64,118,116,138,57,23
-60,113,111,227,10,-14
-67,111,112,271,-37,-68
-67,109,118,262,22,-40
-51,115,117,158,103,18
-55,117,115,165,-4,51
-45,123,116,110,60,-37
94,-47,-37,-3746,-2901,-4919
70,-58,118,-2327,-3356,-5834
-98,111,-39,-2381,-3376,-5277
31,-58,3,-1508,-2991,-3474
122,-111,26,86,-1210,-1433
-9,123,-105,-389,-66,1095
5,34,110,302,1803,2385
-64,-114,28,1495,2850,4501
83,13,-36,3982,3911,8781
-41,77,-26,3952,2944,8486
-53,-51,-122,-1223,450,2567
-23,56,-91,841,-1656,44
29,-61,-112,1852,-1480,1173
104,-119,25,-500,446,1539
105,96,-46,-1227,-51,2147
-106,92,-63,-540,15,3326
-79,102,-69,1662,-97,3207
-31,-42,-59,953,438,2963
-109,69,-52,-1143,274,2440
74,-2,-90,-483,22,1127
52,-98,-89,1628,-159,520
45,-99,-61,1111,-271,-259
85,90,-75,1344,108,-883
82,18,-72,2017,150,-887
80,-3,-29,1609,-15,-851
119,-20,-31,971,306,-788
-124,-28,-26,125,199,-649
-107,-34,-39,-265,-103,-410
-100,-50,-44,8,-213,-392
-86,-47,-52,2,-45,-281
-87,-34,-54,-174,-5,-143
-80,-17,-68,-159,22,87
-82,3,-83,-244,35,47
-84,15,-92,-129,16,16
-76,29,-108,61,120,101
-82,39,-109,10,52,101
-73,55,-116,-44,66,124
-71,66,-116,104,14,166
-70,68,-122,188,68,-32
-67,74,-119,29,83,59
-66,78,-124,84,32,200
-60,87,-122,178,144,133
-62,98,-128,66,137,54
-61,103,126,26,14,76
-50,104,123,128,166,-26
-47,107,114,201,118,-88
-54,110,115,111,-27,-80
-45,111,116,100,54,-57
-38,112,112,87,56,-79
-42,117,113,102,-89,-25
102,-7,-16,-1398,-421,-6427
-6,-47,-22,-1104,-1895,-6399
19,36,-33,-2026,-3182,-5660
98,-2,95,-1131,-3002,-2896
-72,-101,101,526,-1087,-1399
-49,118,85,-622,-904,939
9,-41,103,-827,1898,2221
6,81,3,2242,4623,4106
-119,101,-112,962,3229,4106
7,105,41,318,142,5655
72,102,-9,524,-1000,3001
30,-109,111,997,-93,3142
-125,78,-48,1408,-91,1538
116,-69,-18,-1561,27,-1169
-79,116,-45,1742,226,879
-58,-105,-8,-325,-304,722
-22,19,-21,401,27,1193
-37,17,6,269,10,2478
-24,36,-2,83,-428,2281
29,73,-6,243,76,1913
40,61,-6,156,-225,866
71,51,-11,57,381,543
79,7,-33,312,349,181
88,-17,-40,342,272,133
99,-54,-42,209,144,23
111,-44,-37,-61,114,112
-115,-59,-42,217,124,158
-120,-56,-39,13,70,137
-105,-62,-48,130,315,239
-110,-67,-51,332,128,141
-99,-46,-43,-43,96,120
-88,-67,-49,255,105,187
-86,-55,-43,-68,52,69
-81,-68,-45,104,87,218
-75,-54,-45,3,128,-94
-75,-54,-54,177,135,18
-71,-38,-58,-89,0,61
-69,-48,-61,101,29,-56
-61,-32,-60,-46,62,-86
-58,-50,-62,241,-99,-52
-54,-38,-53,-22,47,4
-55,-49,-57,143,42,118
-53,-31,-57,-72,-20,12
-45,-35,-64,63,44,62
-46,-33,-64,29,-20,93
-44,-30,-64,128,128,12
-48,-25,-68,92,-13,150
-48,-18,-65,-111,106,80
-38,-24,-72,226,139,21
-44,-10,-71,-31,3,63
-54,95,48,-1510,-615,-7603
-72,79,76,-1334,-1682,-8019
33,74,116,-2638,-1738,-6931
79,-88,-73,-1189,-936,-3605
-77,-32,32,298,234,-2879
89,-74,-86,-15,-482,123
125,-96,64,-490,-227,2623
109,-106,-20,1898,1671,6394
-22,52,1,5007,2566,10696
24,29,66,4498,2004,10734
100,79,9,-2321,1239,5622
20,-37,-108,3914,1112,3166
116,110,118,688,-264,1234
116,-101,9,784,902,519
113,59,5,-72,34,973
-104,80,-27,-1555,-6,2293
-122,59,-78,-1333,317,2592
-117,20,-105,-491,614,2561
86,25,-55,559,-583,1973
100,16,-34,1710,-609,1686
77,92,-12,1464,-290,1548
20,102,-29,614,72,250
-9,44,-15,927,-109,-692
43,-25,-24,1363,243,-1201
61,-34,-26,696,351,-1370
88,-68,-18,132,-41,-1277
108,-92,-15,276,-286,-906
126,-109,-20,321,-229,-598
127,-78,-13,-516,-116,-193
119,-78,-32,-584,-43,27
-125,-72,-57,-232,19,142
-118,-56,-69,60,65,181
-119,-36,-83,303,77,258
-122,-7,-88,-167,158,342
-124,16,-106,-528,123,417
-120,18,116,-293,85,215
-110,21,116,231,-147,136
-117,33,127,368,-61,26
-108,54,-120,77,29,-14
-107,58,-123,-111,-4,27
-94,63,125,-204,65,-44
-95,65,118,-200,109,44
-99,60,101,175,77,-76
-84,79,97,56,26,-74
-87,86,103,11,0,-52
-88,78,105,284,49,-148
-78,94,106,42,144,-71
-72,90,93,52,118,-28
-73,93,89,94,-11,41
-65,99,91,160,86,67
49,59,125,-1698,-2733,-6174
123,-105,124,-1939,-3208,-7691
-43,-62,-64,-1529,-4066,-7454
-65,-28,112,-1243,-3480,-3990
70,-41,-4,768,-1764,-2269
-40,23,-25,940,-1418,890
18,-79,101,-539,-1796,1533
-54,124,122,910,1044,3151
-15,-47,33,2402,3660,5435
79,74,67,2806,5136,7883
54,-51,106,5033,6007,12447
109,80,-1,-2079,1545,2838
92,-22,36,-549,-1947,-224
56,-108,-127,2840,-810,-614
58,-92,-61,-94,-1475,1956
77,-121,-83,-1083,-418,1981
24,107,-100,-635,494,2331
-115,72,114,503,1378,2116
114,125,-112,66,550,2861
-112,-125,-116,887,-213,3035
98,-55,-106,401,-1243,2699
22,-54,121,-472,-911,1197
-15,118,102,631,358,-660
-4,72,105,1126,1122,-1972
77,34,127,1259,684,-1988
108,20,-108,1294,45,-976
101,18,-72,531,-643,-201
101,16,-69,-502,-578,-216
107,4,-95,-888,175,-378
108,-3,-122,-541,453,-310
114,4,109,-10,356,-135
-126,31,104,84,191,136
-128,49,98,-4,13,131
-120,65,104,7,-121,126
-114,69,103,47,4,57
-110,76,102,103,58,39
-111,83,101,92,-11,107
-103,88,98,111,-25,68
-103,97,109,165,-82,76
-95,107,107,-10,113,21
-90,103,96,95,174,22
-90,103,83,191,82,5
-88,110,80,108,63,26
-84,111,77,75,64,11
-80,112,77,172,3,11
-76,118,80,114,27,13
-73,123,79,43,28,-9
-65,118,74,143,15,42
-70,121,78,77,-25,50
-63,124,77,74,63,14
-21,111,-35,-3917,-1027,-5291
-98,72,0,-3746,-1563,-6208
-59,-81,107,-3432,-1901,-5552
-5,-87,49,-2500,-1574,-4823
74,20,-29,106,-1214,-2193
53,-65,-31,1108,1268,-971
99,-117,-71,2116,2997,2380
6,-33,-37,4952,4269,5693
-11,89,104,4716,5023,7598
-20,-106,112,-1317,3213,7614
73,-98,97,975,-173,2431
-80,-125,-6,2288,64,1838
31,-92,-61,1484,68,997
83,12,-51,770,291,1121
98,-54,-59,100,-64,2268
-79,-108,-93,608,689,3304
-54,-59,-102,698,937,3721
-103,-55,-110,1296,558,2596
105,-40,-85,-539,-305,1723
60,-72,-95,-717,-335,923
66,77,-114,1121,2,-81
39,47,-71,1905,-488,-523
81,64,-39,506,-213,-378
99,13,-56,85,157,-501
87,-21,-76,417,280,-491
87,-21,-79,292,73,-259
91,-20,-84,157,-138,-125
105,-16,-81,68,-110,-211
116,-17,-84,146,107,-276
125,-17,-89,172,41,-218
126,-2,-95,-80,-91,-72
-120,1,-100,-90,94,-160
-112,4,-116,22,115,-124
-109,18,-123,-44,46,35
-108,23,-126,25,33,13
-104,37,124,4,94,85
-100,42,115,52,137,88
-99,48,107,55,55,113
-106,63,105,26,-16,174
-88,61,95,185,85,-45
-87,68,101,202,-105,89
-82,84,111,104,-39,47
-82,78,117,341,117,-133
-77,78,107,281,46,-103
-74,90,106,-123,-20,61
-66,85,96,-5,84,18
-68,91,90,50,13,20
-64,109,90,-165,26,74
-65,102,82,82,54,-42
-70,111,84,62,6,11
28,45,-54,-2149,-1044,-5306
2,57,-54,-2477,-1215,-6181
-121,-19,-10,-2331,-1564,-6144
116,-19,-121,-1978,-2147,-5384
-64,50,25,-1144,-2482,-3367
-8,72,-49,-542,-1691,-2049
-100,-22,119,-582,-655,376
-38,-72,-98,-139,1238,1576
-115,-79,58,2260,2975,4947
118,66,67,5138,4438,6935
-10,-55,34,3242,4368,9607
-105,5,-111,-914,-118,5808
89,5,-76,1266,292,2639
4,77,74,1537,-1219,-501
77,-18,-101,577,-212,235
102,-66,-106,-26,-65,1073
99,-68,-86,-128,174,2568
88,-46,-80,-160,-74,3331
123,-27,-66,-631,-10,2862
127,5,-87,-1010,58,2242
74,-26,-120,-518,70,1208
68,-59,-122,244,64,118
60,107,108,1756,-12,-737
84,78,-124,1954,-201,-855
85,57,-86,1547,-442,-602
112,37,-60,1082,-94,-219
121,-5,-53,1228,474,14
120,-8,-83,1033,837,43
117,16,-95,-50,544,-13
126,1,-106,-304,-2,-311
-115,-34,-115,459,-148,-501
-108,-37,-98,639,-134,-466
-97,-23,-90,149,7,-204
-92,-4,-96,-396,34,152
-93,16,-117,-651,-118,272
-98,33,-128,-704,-118,107
-94,54,113,-788,-83,65
-105,63,114,-346,-258,74
-90,70,112,118,-63,27
-93,93,121,160,-7,78
-90,98,116,196,73,38
-81,109,111,81,112,81
-82,109,102,91,97,70
-81,108,94,185,78,13
-79,110,88,187,72,-81
-67,106,85,201,88,-29
-75,109,86,167,-35,70
-66,117,87,39,72,90
-60,122,86,29,66,54
-59,127,82,59,-36,10
111,4,-66,-951,-2195,-5395
-76,82,-117,-1783,-2298,-6865
82,21,-110,-1924,-3205,-7319
26,0,16,-2909,-3244,-5808
61,-125,-39,-274,-2508,-3468
107,125,34,236,-609,-1436
43,28,-102,-49,1538,1080
-123,33,95,793,3510,3803
-6,-126,-84,3097,5754,7319
58,106,-48,3083,4826,7214
-54,-68,-79,-2321,962,4746
-107,126,-54,1112,-436,393
-8,109,50,39,-578,913
21,-98,-43,1161,-513,2049
50,-26,-67,-418,-582,2095
79,-41,-127,-787,248,2577
125,-58,123,-230,866,2132
-114,-26,114,430,510,2699
-128,-49,120,656,-303,2360
125,-61,-120,483,-277,1963
101,-58,127,40,-42,1386
78,-101,109,352,83,99
57,105,-124,727,-143,-566
99,74,-109,239,525,-1510
-118,47,-118,375,522,-744
-126,58,-104,-184,-175,-41
-120,46,-102,-138,-228,120
-104,30,-126,222,382,52
-121,55,-123,-11,255,171
-106,59,113,71,140,267
-108,61,109,207,-27,119
-100,67,109,245,74,-8
-100,74,113,24,-35,-37
-90,66,104,238,-37,-52
-92,72,112,226,9,-2
-86,79,109,56,82,-48
-89,86,107,-34,-36,-58
-80,83,100,76,18,-111
-79,84,97,120,45,-121
-71,89,87,26,2,-114
-74,91,88,72,-43,25
-65,101,89,-47,109,56
-61,102,80,6,102,70
-66,104,79,37,-86,29
-64,113,82,85,-37,91
-56,116,88,218,79,15
-55,126,87,68,42,81
-53,-123,85,0,57,96
-50,-126,77,126,117,-34
-51,-122,72,70,36,27
87,45,105,-2137,-1279,-5529
-104,103,77,-2098,-1906,-6745
33,54,-101,-2160,-2427,-6610
61,89,25,-3310,-2133,-5415
36,65,-25,-546,-1424,-2839
101,61,-105,-510,-911,-1269
-74,24,63,-546,-230,740
9,-123,118,1832,1440,3799
17,68,30,4267,2769,6758
3,49,100,5893,4199,7069
11,51,7,-2905,1567,4253
-75,56,-42,3116,328,-243
49,-117,84,-1206,236,476
62,-113,-104,783,708,661
-118,-94,-73,359,908,882
-89,1,-97,-774,457,1771
-27,114,-76,-862,680,1195
-49,118,-37,579,366,1876
-38,97,-53,944,770,1426
-120,112,26,-225,-697,2163
-109,15,-23,-189,-1014,2387
-121,-7,-9,-1184,-856,1128
-117,-66,-73,27,-403,1438
108,-124,-82,1131,-429,475
113,118,-81,984,-135,291
91,64,-90,1020,-871,101
112,39,-91,346,-427,-211
124,31,-105,-306,494,-528
127,20,-116,108,559,-309
-123,-2,122,709,100,-175
-116,21,-126,370,75,-15
-106,35,126,-124,206,86
-108,22,119,201,58,-59
-97,30,124,280,36,18
-87,50,125,0,16,-196
-89,52,-128,151,-50,-37
-84,56,120,72,-103,-47
-76,54,111,99,120,-78
-74,56,106,57,125,-132
-73,62,102,95,33,-12
-70,67,105,-26,74,-489
-51,94,111,-94,449,-655
-39,109,107,87,211,-42
-45,107,108,175,-130,57
-40,115,104,56,86,160
-44,115,101,2,163,-113
-29,120,93,73,203,-27
-33,126,93,105,-92,169
-36,-120,105,41,-100,189
-33,-123,100,96,93,-52
101,94,17,-1315,-1131,-5859
-69,-45,-92,158,-3045,-6296
-84,7,-80,-1932,-3798,-6984
-123,100,-28,-2595,-4084,-5525
-97,11,-18,-1672,-2085,-3861
8,-116,-90,-905,-603,-1820
112,-3,56,-121,596,54
16,40,65,1778,3544,3952
96,-25,-104,5174,5121,10482
96,-76,101,3374,5236,8187
-43,2,-91,-3330,-554,1289
-114,107,56,1654,-1234,1188
51,-8,-119,510,-181,-356
116,-43,-69,-248,-174,514
-118,-124,-80,66,-320,1786
-78,-61,-111,-622,587,3431
-73,-21,126,-424,627,3323
-67,-21,-108,-20,-194,2993
-84,-27,-67,-124,-584,2970
-81,-73,-85,455,64,2197
-101,-81,-96,957,722,1317
93,-87,-117,443,319,497
48,109,-115,315,-442,-361
99,49,124,588,119,-1025
-124,-3,102,831,614,-1425
124,-15,126,919,144,-887
-115,-21,-108,763,-197,-349
-94,-6,-99,6,-131,-18
-84,20,-94,-968,-98,69
-94,58,-92,-2055,-294,205
-90,77,-122,-2052,-149,214
-92,72,115,-721,-2,31
-88,66,99,838,165,-216
-100,76,94,1517,180,-199
-92,88,97,949,134,-38
-81,102,110,172,-26,288
-70,110,104,-334,32,343
-70,109,95,-258,37,156
-72,106,94,186,6,-12
-69,108,97,279,58,-103
-62,119,94,39,65,-62
-66,117,91,30,-2,-76
-61,90,96,745,92,-259
-50,79,98,1156,279,-333
-39,92,98,546,237,-213
-44,102,100,-318,-58,8
-36,100,96,-445,50,40
-35,85,90,116,124,34
-34,95,89,345,38,43
-34,114,93,59,76,88
85,-42,-95,-1244,-1337,-6092
62,20,-122,-1961,-2389,-6849
-61,97,102,-3131,-3584,-7084
15,-34,-3,-1698,-3361,-5184
-110,-119,54,-666,-1822,-3362
-96,-104,-81,42,-17,-1537
4,65,-110,-2,850,1369
94,-107,95,-42,2648,3326
64,117,-48,3681,3634,6402
69,111,-66,4937,2560,8377
107,2,103,-3902,638,4365
110,62,6,3189,-954,4077
-10,48,58,567,-93,-364
-48,11,127,1570,-458,766
36,-78,-113,825,709,224
69,-67,-66,-1187,1092,1731
58,-102,-72,-353,346,2978
-109,-42,-58,1413,192,3509
-69,108,-12,873,-699,3307
-64,111,-22,-442,128,2997
-127,91,-36,-1136,-278,2799
36,-2,-67,-230,-702,1516
18,-73,-80,1059,-387,-92
33,-84,-76,494,392,-725
47,-98,-84,-579,446,-862
81,69,-104,890,-21,-1267
115,28,-84,1346,-120,-1140
114,13,-80,1076,235,-787
104,3,-70,704,101,-257
125,40,-77,-412,163,244
127,44,-105,-638,167,324
121,35,-117,-35,-81,268
127,50,-109,240,-43,175
-109,80,-104,-39,238,188
-114,88,-114,-23,77,210
-107,92,-128,105,135,-66
-104,86,117,269,152,-288
-101,92,125,137,-62,-123
-96,95,-124,37,43,-23
-85,96,125,64,152,-28
-89,101,120,115,-5,42
-83,110,121,67,52,-13
-76,114,118,46,135,-47
-74,116,113,117,20,-30
-70,124,118,99,29,-36
-64,126,114,174,61,-48
-62,125,105,202,42,-120
-63,-128,108,76,-49,-117
-53,-126,110,23,29,-31
-52,-123,113,15,50,96
125,31,0,-1218,-756,-6271
-118,-62,-50,-1384,-1928,-7645
-5,116,-19,-2635,-2659,-7145
-43,-95,47,-2103,-2838,-5271
57,20,-53,180,-2202,-1883
-74,-123,-53,395,-989,-587
-37,76,-85,407,-206,2171
78,-76,103,1210,2653,3219
93,113,32,3657,4423,5102
-128,-110,-52,3146,4299,6862
80,29,58,-512,1924,3596
125,-30,-7,-546,-887,4144
12,33,99,2926,-325,-1202
93,15,-31,412,734,697
101,-14,11,-1464,902,1378
83,-54,-16,108,-107,2535
109,2,41,932,-514,4090
-33,32,-9,1937,869,3287
-47,63,-52,903,1051,2193
-101,-39,-42,1355,645,1739
-111,-105,-64,1501,725,1046
92,111,-48,850,80,363
77,83,-21,130,-263,365
113,39,4,-546,-63,120
121,-27,-19,319,169,-279
120,-20,-8,254,-93,-137
117,-11,-17,-218,-281,167
-125,-14,-21,-317,-128,77
-120,-32,-48,163,153,-176
127,-30,-48,473,-26,-66
-112,-14,-46,270,72,-81
-108,-12,-50,216,42,-130
-106,-4,-60,0,14,0
-99,-3,-66,-49,93,-144
-94,-15,-81,425,13,-68
-85,11,-76,-20,-3,48
-89,19,-82,-209,17,-10
-89,21,-96,-74,0,33
-84,31,-101,-34,65,27
-80,35,-105,55,62,-37
-77,46,-115,83,32,42
-70,43,-121,140,118,36
-72,44,-127,152,71,110
-74,55,126,37,-48,48
-62,67,-128,-13,82,70
-69,70,126,79,-68,67
-60,87,127,-1,29,8
-56,88,122,-13,72,-30
-55,89,115,92,31,-37
-53,97,113,-28,67,-53
-83,49,-46,-1413,-1071,-6370
-36,-80,-51,-1203,-789,-7242
64,-102,50,-1145,-1847,-7330
-127,-122,70,-1816,-1981,-6066
-39,99,-104,-1244,-1433,-3559
23,71,92,503,-272,-2118
33,-109,58,256,320,-23
-50,79,101,-1123,1127,2550
70,-36,86,1473,3941,6395
-78,-33,101,4568,3710,11256
-93,-122,20,2665,3300,8326
69,62,-90,-5587,689,4675
-98,102,-89,2366,-1039,2215
114,-116,81,3415,-1436,6
-67,34,-37,-1971,-231,2439
-69,-10,120,-2064,486,2656
122,-43,117,365,-243,2172
125,-25,-108,1329,-388,814
120,8,-92,341,-324,491
101,-49,-83,-137,131,173
88,-111,-86,-13,-11,122
105,103,-97,275,53,160
78,69,-103,963,-92,221
84,97,-92,222,-74,12
110,94,-105,-300,24,-159
97,66,-110,28,-156,-282
112,72,-103,-151,-216,-233
127,64,-116,-43,1,-102
117,70,-123,-97,109,61
118,80,118,-173,139,49
127,89,97,-87,154,136
-127,86,93,95,-65,-39
-113,94,100,183,-89,55
-109,99,102,109,-24,-30
-109,104,99,62,-25,104
-112,121,99,-219,44,210
-110,119,91,-84,62,35
-103,119,79,131,95,-59
-106,118,77,257,-81,-152
-100,127,81,81,11,30
-87,-122,86,-61,-41,24
-91,-117,82,27,46,77
-87,-110,79,-40,124,-14
-77,-113,65,-14,186,-117
-76,-124,60,264,85,-45
-81,-116,70,-14,-126,11
-68,-101,82,-197,-71,123
-64,-103,79,31,81,28
-71,-93,79,63,35,-6
-58,-91,76,95,105,-28
-70,-114,46,-2780,-2325,-6081
-41,94,-92,-2409,-3092,-6528
42,-29,72,-1243,-3359,-6085
-19,73,-9,-437,-1537,-4460
4,103,-42,198,-516,-2618
65,-90,46,-378,-673,-1201
94,5,111,-116,954,2590
11,60,70,1761,2553,6468
29,67,66,5791,4022,9142
66,-103,88,3423,4438,7889
-33,59,-17,-3564,397,2134
-19,-44,40,289,52,1984
25,-89,118,1073,-843,972
-108,2,-113,-334,676,1479
-125,-32,-127,-595,320,2038
-98,-32,114,448,338,2428
-90,14,-116,55,329,2604
-92,-3,-100,63,228,1553
-128,-46,-69,589,-503,149
124,-50,-60,17,-385,117
-110,-61,-52,-1207,-158,393
-123,-96,-79,-1332,-14,454
122,-128,-112,-452,118,313
120,96,119,977,112,-11
-120,90,117,1373,14,-348
-125,90,-113,1090,-202,-254
-99,89,-115,368,103,-89
-106,73,121,158,111,-178
-115,59,112,205,-247,-16
-111,69,126,50,-268,47
-111,64,-127,152,-50,-44
-119,72,-123,5,-75,48
-122,90,-126,-344,27,183
-52,114,102,-732,243,-15
-55,98,87,13,-6,-7
124,96,104,429,-136,-27
-100,112,98,-53,262,-52
-74,118,84,-63,108,239
-97,119,76,287,-330,400
-94,-115,88,-112,-148,233
-82,-122,83,61,151,-53
-67,111,75,600,201,-241
-74,120,93,549,12,-24
-68,-118,97,-43,122,152
-39,-113,79,-278,170,208
-80,-117,68,32,-72,5
-90,-117,74,-62,13,-348
-55,-128,64,90,173,-330
-53,124,58,260,-60,137
-64,-110,64,-70,-68,184
-87,-44,119,-1005,-1670,-6683
-53,-12,58,-1530,-2198,-7001
89,-100,65,-1692,-3069,-7771
-100,67,-50,-1652,-3408,-6265
-56,-64,-71,-1273,-2916,-3818
42,-75,-109,537,-1521,-1654
118,79,94,-187,-212,405
101,42,-122,354,1706,4502
-67,-3,70,3531,5415,6078
-9,123,24,4136,4771,10856
-46,49,9,-1563,4680,7766
33,34,115,-1193,-1049,6210
2,10,-77,2819,-1169,-322
123,86,118,78,-698,-759
-62,-74,-114,-381,438,1166
112,124,-75,1115,-278,2529
-116,99,-111,1450,219,3053
-31,-59,-35,-53,88,2644
-120,-112,-86,577,108,2061
-108,-67,-71,277,-113,1941
46,107,-71,1530,-712,729
80,49,-60,1950,-411,-384
71,37,-61,1062,294,-1019
56,5,-33,767,196,-973
89,-15,-33,548,161,-813
111,-11,-48,-551,65,-845
-125,-23,-78,-943,41,-888
-106,-43,-116,-732,104,-850
-98,-29,-118,-382,-157,-433
-111,-24,-118,120,-278,-210
-120,-1,-112,104,-140,-192
125,19,-111,-283,-109,-105
-128,33,-114,-348,-217,124
127,46,-119,-145,-127,276
-93,61,124,-61,89,291
-72,87,99,96,162,438
-45,87,74,634,56,443
107,122,109,83,-400,66
-113,115,111,-195,64,-305
-75,96,92,-17,298,-324
-88,97,91,188,-138,134
-97,109,95,74,-41,33
-79,117,90,2,200,-114
-71,110,78,200,114,-115
-88,112,79,258,-44,-70
-94,117,79,37,167,-35
-104,105,69,78,101,12
-76,115,61,41,-21,92
-57,127,84,362,-128,-57
10,-102,89,86,108,40
4,20,77,-188,-2345,-5701
-103,-2,10,-1586,-2454,-7883
-37,83,-100,-977,-4842,-8629
-50,-114,-31,-1724,-7391,-6284
51,43,37,-1161,-4584,-2627
-124,50,13,939,-1812,-405
-90,11,-13,711,672,736
-62,-125,-106,162,4417,4442
-73,8,-93,3263,7010,4915
-51,-101,-110,2945,5975,5511
47,-122,30,-2711,4692,7998
-11,111,-25,-3025,-2507,7636
-37,45,117,919,-392,-657
91,28,31,2401,-1449,-264
65,-12,-66,-1100,-837,949
71,-30,-66,-375,1060,76
89,-112,117,855,380,719
-119,-46,124,-13,224,2202
80,-49,-110,252,-1144,2971
121,-21,-100,-199,-648,1998
125,-38,-104,190,-214,1782
98,-95,120,1190,-325,1301
80,-50,-97,429,-616,1317
59,-107,-122,646,13,200
52,109,124,788,396,-633
12,61,-119,834,145,-1003
53,55,-111,351,114,-888
-111,41,126,85,195,-755
-89,47,118,-183,52,-363
82,32,-127,23,-88,-357
96,29,118,66,280,-614
-79,40,82,-31,500,-458
-88,57,81,63,118,20
-93,61,88,211,-143,19
-70,81,98,-146,70,-43
-86,82,94,-40,178,-107
-88,81,89,119,121,-114
-106,85,93,117,-44,-139
-78,91,92,84,69,-24
-13,113,73,-125,152,215
-74,120,88,56,-307,409
-118,127,105,-10,-61,-25
-56,123,78,-14,320,-227
-45,127,69,127,-248,267
-68,-100,87,-250,-168,321
-53,-73,87,-668,609,-807
7,-69,59,47,1085,-1088
-32,-83,81,1213,-25,-312
-36,-54,108,385,-272,-42
-53,-41,114,-656,-22,49
-41,39,-121,-2025,-2302,-5446
30,41,-8,-3572,-3958,-6077
127,-118,-116,-3568,-3622,-4885
-107,-47,-3,-2246,-2131,-3350
-43,-111,-60,-518,-694,-3307
46,-87,-88,808,-749,403
20,-68,-92,2564,3508,2480
120,5,6,7821,5483,9433
-31,73,-66,6417,7407,8754
-101,91,-121,-2278,3575,4671
-103,29,-36,1328,-1944,-885
60,85,27,889,-2526,-1293
-31,78,-67,-500,1415,1749
64,12,-54,287,525,2147
27,96,27,-478,27,2722
75,69,6,299,35,2553
-91,-31,-61,1785,623,2270
96,9,-40,-339,-829,2177
52,-22,-56,-1234,-855,1449
51,94,127,835,278,152
53,77,-93,1965,363,-209
68,91,-73,1068,551,-279
106,64,-96,401,119,145
42,54,-87,-291,-834,191
67,27,-86,-262,-112,-530
100,-29,-91,586,544,-1203
111,-35,-82,937,229,-804
-94,54,-82,-540,-26,-728
-39,50,-108,55,-123,-485
116,33,-60,-15,-122,-143
-88,15,-106,-65,680,-234
-56,-6,116,631,549,-45
-41,21,120,518,107,393
-59,36,-91,431,-657,73
-57,31,-90,568,-211,289
-64,41,-92,-234,274,150
-90,20,123,-172,615,-232
-79,19,106,141,208,14
-43,59,99,-156,-85,237
12,65,61,-247,52,190
-73,57,100,110,-437,285
-64,71,108,-202,-75,24
-47,66,95,157,22,6
-54,79,107,181,-216,445
-66,99,113,-194,-95,198
-61,100,100,-114,125,-53
-62,74,83,549,-76,-182
-57,87,92,248,-21,-98
-49,98,100,-63,100,15
-29,94,79,203,313,-50
2,-19,66,-1606,-1310,-6342
87,-40,-55,-941,-3349,-6533
7,-124,-8,-3415,-4585,-5207
20,3,-93,-2928,-3924,-4305
53,74,-55,-1629,-2685,-2490
125,105,38,-619,-1138,-1935
68,-86,-53,-1066,1203,779
45,28,117,2605,5070,4282
-88,47,45,4345,6669,7582
-68,-89,55,1726,3883,8728
43,92,-109,-1562,-532,3318
-60,-45,103,3001,488,635
-114,-105,118,47,-590,501
-83,12,-37,239,208,683
123,43,-30,-471,-734,1710
-89,4,-95,-624,630,1316
-100,41,-76,-341,-213,2285
-102,29,-105,222,-130,1450
117,75,-52,-470,-531,1394
124,4,-99,490,250,639
120,-46,-63,1330,145,337
-97,-54,-74,665,831,360
-108,-104,-90,917,463,208
-103,125,-82,534,96,232
-98,106,-61,154,-99,-107
-74,72,-66,356,95,-24
-84,52,-46,409,-158,-154
-58,74,-44,-93,64,-145
-55,48,-62,337,77,-251
-43,69,-68,9,199,-49
-46,70,-76,-218,-24,-76
-41,83,-92,-298,-113,-34
-31,82,-101,-133,-75,-114
-28,81,-103,-21,35,-50
-30,67,-99,383,139,-58
-23,78,-100,130,430,-314
0,110,-93,-117,753,-341
5,104,-93,587,33,262
-3,123,-80,199,-116,285
6,-125,-90,-130,341,-68
3,103,-100,420,141,-94
0,117,-91,339,378,-195
18,119,-97,606,420,-427
15,-125,-101,590,119,-304
29,-102,-78,-79,-339,-279
36,-86,-81,-425,-187,-158
29,-101,-89,-68,-85,-197
6,-93,-80,13,-34,-158
31,-74,-106,-296,371,-442
29,-101,-113,362,-52,-150
107,10,80,-1344,-2911,-4288
117,70,70,-2548,-3163,-5215
43,-34,-110,-2635,-3486,-5237
106,87,-95,-1863,-3408,-3055
0,96,-102,-210,-1090,-1928
50,-6,91,-392,-430,-473
11,11,121,-1299,973,650
71,26,57,2105,3894,4120
86,116,71,4588,3776,9373
42,-32,94,1725,2176,8275
-69,-5,55,-295,-540,874
-37,-67,-91,3118,-911,-36
-26,26,-65,739,-447,670
46,-44,-15,47,276,1347
27,-38,-4,-547,422,2311
58,-37,-65,-265,822,2448
102,48,-28,617,1195,3166
59,114,-34,1151,20,2928
72,121,-13,697,149,2056
44,67,-8,590,40,2095
32,-28,-25,771,-253,1336
12,-86,-26,252,-118,434
34,122,-44,-80,509,15
29,60,-52,879,-83,154
75,40,-58,712,-129,237
93,-20,-63,499,5,-291
73,-46,-46,592,-44,-657
95,-27,-37,105,243,-198
124,-22,-55,-49,189,33
106,-30,-63,247,-114,-214
-124,-7,-65,-21,155,-72
-127,-9,-69,-93,71,-189
-112,-7,-87,138,119,11
-115,3,-90,150,14,-62
-106,13,-98,22,142,-49
-105,13,-107,160,-50,-227
-91,22,-108,133,150,-152
-88,30,-106,18,32,-63
-80,32,-119,93,94,56
-74,33,-126,94,-99,6
-81,50,-120,-4,-45,1
-81,56,-115,-62,85,21
-75,50,-128,263,155,-261
-60,71,117,190,253,-9
-65,68,113,102,-89,49
-57,76,116,-26,-11,9
-52,77,117,189,79,-85
-49,82,115,189,56,-13
-48,88,117,25,-45,-133
-39,85,109,192,55,24
-17,12,100,-2132,-2185,-4445
9,63,26,-2722,-3161,-5823
-9,76,52,-2710,-3025,-6046
36,-109,-16,-2582,-2795,-5517
-122,9,-62,-1535,-1495,-3296
-93,-119,115,-1133,-627,-2481
2,-50,-25,342,-113,336
-66,10,101,-803,1016,390
127,109,-28,1595,2426,4319
119,-30,-41,5763,3113,8752
127,10,-20,3898,-2,10735
-89,-51,46,-390,500,2377
-3,63,-51,3480,-662,-1107
41,25,40,-1158,446,732
64,113,18,-1265,775,863
-121,104,-40,-6,1322,1691
-128,-51,-76,-182,487,3236
-53,23,-102,495,904,4853
-11,104,-102,638,544,4490
-54,73,-105,1777,-141,3484
-124,74,-88,621,-82,1702
19,21,-69,-406,-521,659
12,93,-84,1845,-192,-946
58,13,-55,2142,-22,-1302
87,-5,-25,1111,-104,-1147
123,-57,4,352,-147,-849
121,-94,-6,417,0,-421
121,-90,9,331,-99,184
-127,-77,-3,241,137,476
-120,-63,-23,11,245,280
127,-46,-50,-163,160,199
112,-44,-67,-113,54,34
114,-45,-71,22,-54,-83
-122,-49,-75,352,122,-228
-107,-46,-86,410,119,-230
-118,-32,-77,165,-64,-55
-89,-23,-93,-56,151,-171
-98,-30,-101,186,-13,-206
-91,-30,-102,335,-78,-207
-84,-10,-96,29,-32,-122
-76,-6,-103,-62,-16,-32
-76,-2,-106,58,24,5
-69,10,-114,88,88,-133
-63,18,-122,6,111,-33
-59,23,-128,115,31,-16
-57,34,-124,169,141,-111
-57,38,-124,175,121,-121
-51,42,123,160,73,-47
-45,47,120,131,141,-42
-48,50,121,173,35,-35
127,3,-91,-2136,-1384,-6141
76,22,-119,-2464,-1795,-7014
-117,-45,-65,-2007,-3366,-6833
-119,-86,96,-1471,-3695,-3464
-81,25,-115,146,-1290,-2058
-34,-55,57,180,-1594,-325
-104,22,-112,-515,-559,373
52,86,96,1846,1290,3319
113,51,-54,5097,2695,9677
44,57,53,6222,3853,8111
-50,96,-8,-2439,714,5547
110,-19,74,4260,-373,-586
28,96,-80,1508,-417,1372
97,-96,17,-1101,1025,1260
83,-96,-69,-1111,-71,2040
-119,86,-106,771,-316,2033
-2,-57,-108,1618,-84,4090
13,20,-119,1053,601,3354
-79,115,-112,-173,180,2222
79,59,-108,584,-359,1231
13,-73,-109,1896,-455,-715
41,-120,-93,1515,38,-1135
67,60,-95,1370,118,-1223
99,-20,-65,1261,-44,-1048
99,-30,-32,555,-291,-619
101,-54,-16,172,-257,-208
108,-29,-18,-479,-98,330
109,-21,-40,-699,4,158
125,-14,-79,-560,43,-54
125,-26,-101,163,57,-189
118,-11,-103,95,-24,-168
127,8,-110,-199,29,-240
-114,-8,-126,206,40,-103
-120,1,-118,342,-36,101
-115,34,-116,48,152,311
-102,43,121,-120,81,168
-99,46,110,52,-118,149
-119,51,117,137,-1,-11
-103,56,111,40,115,-206
-95,56,107,135,-64,-20
-84,60,104,211,-18,-121
-90,75,109,-19,9,-157
-84,65,105,139,-33,-183
-79,60,99,317,38,-240
-71,76,96,141,74,44
-71,85,96,-73,15,103
-69,84,89,94,24,-70
-71,84,84,216,7,-189
-57,85,87,150,-104,-97
-63,97,89,26,14,213
52,83,114,-2898,-2114,-5727
95,-34,-72,-3953,-2547,-6767
-95,-101,-127,-1522,-3973,-6043
76,-95,-16,-1661,-2991,-4023
-74,-29,-10,-581,-1929,-1822
-32,97,-42,212,-1004,-574
-60,110,-77,-472,1280,2188
-53,-14,113,3714,3498,6110
-101,31,126,7689,4844,10404
-39,-49,-88,3528,4551,7722
-99,86,-118,-2512,1227,3692
-76,-61,108,2061,-2142,-820
113,-11,106,1896,-331,-112
-109,-60,-88,674,430,389
72,-84,-75,161,-599,663
-94,-108,-127,180,900,1631
-54,-48,113,1025,1527,2915
-116,-26,105,442,266,2031
91,51,-105,-1735,-756,1024
64,35,116,-2080,-830,839
28,-49,85,440,-382,482
10,-73,-123,2086,-42,445
70,-89,-99,1500,423,301
70,77,-74,1271,-291,-386
70,64,-54,263,-67,-940
122,46,-101,213,992,-458
-122,3,125,551,785,-287
-110,-17,-128,792,70,-672
-81,-8,-106,279,50,-577
-83,-17,-104,91,-278,-435
-74,-8,-107,-73,-106,-96
-71,0,-109,-140,-118,238
-80,13,-107,50,-204,189
-73,39,-115,81,65,355
-75,48,-122,-150,150,67
-77,46,123,35,58,-31
-75,48,115,215,7,-9
-65,57,108,82,136,-49
-65,60,98,243,103,14
-69,69,97,90,-89,-65
-63,69,93,97,-18,-140
-58,74,93,-17,8,26
-62,67,83,96,-125,-132
-55,74,84,186,-117,47
-56,87,88,31,-102,68
-52,97,90,-28,-16,-10
-57,102,90,-71,-57,-2
-51,102,87,-94,-62,-101
-44,101,84,63,45,-168
-42,101,79,175,77,-123
79,60,52,-1120,-2657,-4897
-120,90,-57,-2486,-3982,-5624
104,52,-44,-2942,-4172,-6606
-102,85,11,-2536,-3022,-5937
-47,9,31,-312,-1061,-4505
-58,106,-120,-175,-692,-3243
-59,-75,-88,194,-852,-1048
-92,-65,-22,-393,-350,-364
-13,102,6,1208,634,2839
-16,3,-26,2791,2208,6678
115,16,63,6593,3535,12834
21,89,79,3703,5509,9202
-92,-105,-58,-3143,3104,1622
28,6,40,3115,-281,2311
22,-9,125,892,-993,-750
-82,-96,-84,-1024,446,482
-125,29,-111,1703,-217,940
-76,101,-113,409,789,2762
-81,-99,-95,164,372,3396
-124,-84,-125,1354,269,1697
125,-24,-49,164,241,815
56,-88,-41,-666,-493,744
86,106,-54,-404,43,380
74,9,-93,1161,700,14
66,16,-83,1288,433,205
67,27,-83,357,279,164
76,-12,-80,134,-19,-392
90,-32,-77,541,-93,-489
121,-37,-63,583,-252,-379
-125,-45,-42,439,-382,-542
-116,-38,-38,-73,-304,-398
-115,-23,-51,-853,-208,-334
-111,-34,-79,-731,-122,-269
-106,-45,-106,-126,43,-122
-126,-19,-107,55,-44,210
-114,0,-114,3,189,257
-95,6,123,110,321,215
-92,26,-126,276,345,59
-88,35,127,304,90,283
-86,44,122,75,-91,386
-94,54,124,-86,-60,274
-87,55,117,16,84,97
-79,69,112,-109,333,-361
-61,84,114,-224,326,-274
-71,82,108,3,-222,-81
-64,86,110,110,-254,-86
-58,89,108,21,21,-163
-63,92,107,49,-9,-113
-56,95,106,98,-22,-70
-52,103,103,50,-14,1
-12,-11,-78,-1307,-1778,-5561
-18,87,86,-849,-1663,-7246
-63,127,-25,-3052,-1562,-9347
-25,-15,-36,-3128,-2003,-8610
112,-73,-90,-426,-2945,-6125
-125,-102,66,1430,-3847,-2841
-90,20,21,496,-1593,-1837
-78,14,-32,544,66,2218
103,-120,124,1844,3628,4781
-117,38,-2,4964,4220,8463
0,4,-128,3864,4874,6854
-71,5,52,-3396,1475,7355
-55,80,66,3777,1672,606
82,28,-39,-42,-290,868
27,117,106,-186,-122,288
26,-61,-88,1831,-153,1613
78,-27,-80,881,653,3931
121,8,-62,-21,75,4585
-34,-42,-110,1158,479,4140
-41,-15,115,1293,80,3356
42,60,126,-1064,-139,1934
-38,-39,123,-337,-381,190
-20,56,-112,1620,-132,-1669
18,27,-105,1886,385,-2105
65,-11,-93,1507,453,-1781
78,-27,-64,730,-88,-723
81,-28,-48,22,-434,-280
92,-30,-65,-450,-315,-223
103,-36,-79,-453,-205,-527
-128,-30,-87,-353,-205,-400
117,-2,-83,-472,-289,-113
123,10,-97,-425,0,-157
127,17,-122,-137,242,-196
122,27,124,-132,74,15
117,44,121,-82,-19,247
127,46,121,313,236,320
-118,71,119,205,273,420
-120,94,109,56,115,269
-127,86,102,214,19,-103
-86,79,93,298,7,-342
-76,74,101,255,-144,-143
-89,82,113,167,1,147
-95,91,111,54,243,137
-92,97,97,100,121,32
-77,101,93,140,-56,-50
-69,106,102,49,41,-139
-67,104,100,33,82,-80
-77,99,92,197,-38,-90
-69,99,84,273,11,-261
-45,99,86,135,-111,-244
75,26,-92,-1633,-1743,-4827
-40,-111,103,-1875,-2107,-7801
-63,-50,68,-2608,-4223,-8690
34,41,120,-3502,-3664,-7390
-77,-41,-78,-803,-2601,-4891
38,-127,-37,344,-1146,-2950
111,81,-44,90,703,-474
-92,52,119,504,2733,3826
87,-54,-4,2830,4247,7114
-91,-105,-3,6346,4679,10034
11,-109,-44,-821,3296,9075
107,30,-14,-2840,-990,2625
-125,68,-100,4507,246,-469
19,-87,125,-689,-542,690
55,6,-75,291,723,604
65,-27,-116,1031,1234,764
101,1,-89,404,670,2003
-86,-51,115,1154,1315,2526
-85,8,120,876,1599,2455
-104,-61,-82,871,1063,686
121,-101,-39,3,-556,380
-106,92,-51,-656,-834,659
110,62,-72,-789,-1101,1072
87,58,-97,-1037,-962,1113
88,70,-112,-887,-89,385
101,74,-122,-279,701,-286
104,57,113,732,340,-471
110,79,-128,251,-58,-372
-126,67,121,170,-78,-361
122,53,-113,374,-167,-220
-122,48,-119,552,43,-120
-116,72,-116,-5,173,31
-114,78,120,-203,64,-4
-102,66,108,213,59,-199
-104,75,110,80,-95,-174
-94,86,110,-176,-1,-82
-95,79,108,75,-32,-95
-83,81,103,209,-19,-53
-96,108,111,-262,-80,173
-85,118,104,-276,-10,148
-85,117,100,122,65,-10
-80,-124,98,-25,20,-10
-71,-125,91,46,23,-71
-75,-127,89,131,7,-98
-70,125,86,261,73,-118
-69,-124,85,125,-28,25
-67,-114,91,12,-39,63
-60,-112,92,97,35,2
-61,-109,92,137,-8,-9
-50,-105,94,118,99,-14
32,-67,122,-1622,-1539,-6412
-110,25,4,-1989,-3240,-7539
84,64,-30,-5476,-5869,-9909
-66,-91,111,-4081,-5378,-7766
24,87,65,867,89,-2284
-20,55,-120,3,59,456
-112,26,-114,-463,-73,2681
25,-22,14,1038,2052,2644
24,-74,100,4372,2933,5608
7,-15,-61,8583,3466,9091
26,122,-59,99,5525,7391
95,76,109,1961,-237,622
90,-57,-21,1139,-1224,-65
76,-47,-102,48,1188,935
93,109,123,811,1985,2090
124,-75,88,743,2650,4186
-118,10,121,371,3057,2475
125,113,77,-529,547,-333
42,74,-60,1176,-996,422
83,-68,-11,1090,-646,53
116,-120,5,-68,220,28
-119,39,-22,859,-270,461
110,-6,5,700,-1173,1759
109,4,26,-287,-677,834
111,-57,-15,77,398,-789
-116,-44,-48,397,878,-258
-118,-33,-62,244,413,104
126,-34,-61,141,-243,56
-117,-22,-60,-134,-161,72
-101,-25,-73,6,131,-61
-99,-13,-85,21,29,-101
-110,-10,-97,102,-324,-205
-107,12,-102,-72,-62,44
-110,17,-114,-86,57,-60
-94,16,126,58,219,11
-98,26,125,-34,-36,179
-97,39,-122,-299,-73,273
-94,38,-127,53,-5,71
-84,54,125,77,91,101
-94,54,124,77,-130,-158
-62,57,118,95,-94,43
-63,76,119,-178,-138,153
-76,81,115,-103,0,161
-99,89,116,-153,124,-82
-87,96,104,-153,71,-92
-65,96,82,-3,-87,-115
-69,103,89,-57,-153,-166
-68,107,93,-105,-61,-187
-80,110,99,-104,-21,-82
-59,121,90,-93,73,-49
24,-15,-113,-940,-3461,-5327
-63,-7,62,-2928,-3517,-6502
-8,-110,75,-3139,-5155,-7187
8,-105,-119,-3071,-4664,-4802
-4,67,-110,-264,-3510,-3797
88,109,43,101,-2154,-2052
121,-95,-55,-841,-978,-908
108,-87,-92,-460,822,-196
93,11,109,2253,3649,3657
-38,-88,-40,4869,6062,8370
-64,93,22,8226,6602,11021
-27,-19,94,-4145,4256,3526
34,-26,72,271,168,5094
25,-44,15,4852,-1545,-728
-117,85,-69,-1470,1176,1168
73,-65,91,-816,1021,709
59,-99,61,-10,701,696
-103,-122,85,249,990,558
-100,109,86,887,522,898
124,-120,115,-145,89,840
87,122,-113,-690,20,799
126,-3,-128,1304,114,225
-45,16,-122,823,860,-152
104,4,-106,376,176,-527
-85,16,-91,63,33,173
-59,106,-86,-300,201,1113
-127,54,-84,633,-690,904
123,52,-65,259,-764,433
-115,34,-86,-205,-363,-268
119,30,-92,-571,-215,-491
-103,4,-110,-174,333,-832
-94,0,-121,368,263,-295
-93,42,-118,-102,32,196
-71,56,121,-402,134,-92
-32,50,89,-79,416,-367
-72,46,93,305,4,-424
-80,42,102,274,-262,-400
-88,69,-126,-231,-169,235
-42,107,111,-640,288,399
-60,117,84,-307,208,35
-87,117,91,66,-57,-515
-43,113,94,131,-100,-478
-23,112,90,100,-122,-8
-63,122,103,-46,-97,237
-63,-122,96,-119,70,35
-32,-116,78,-77,-2,197
-31,-97,90,-58,-195,447
-32,-86,102,191,-5,233
-38,-78,88,24,212,-80
-66,-91,93,-58,-72,-77
67,8,97,-1476,-1600,-7584
13,-31,62,-2948,-2599,-7860
118,-63,-100,-3543,-4081,-6740
78,120,112,-847,-2934,-3230
102,-124,65,-110,-862,-2123
-126,57,-83,-1093,-219,1322
-42,93,108,468,909,2868
-27,-66,-67,3216,1663,6206
-111,107,-76,6352,3559,10624
-96,20,37,8608,4067,7699
-111,-28,-39,-6386,1494,3481
-107,-32,-7,6197,-1943,33
57,-87,-112,3166,-2335,623
122,125,-29,-801,554,1397
38,98,-113,-2117,1094,2207
52,11,43,454,2318,1645
82,13,73,2317,1542,941
120,40,73,2249,1160,796
104,-74,-53,-968,151,661
-115,-63,-74,-2858,313,559
127,74,124,-997,40,326
-118,30,126,1154,316,276
-128,-27,120,2533,813,-248
108,-50,-75,2232,-98,-822
-112,-47,-17,1403,-382,-296
-83,-64,8,586,140,-125
-81,-68,-15,-104,370,-324
-75,-99,-34,311,-61,-369
-67,-104,-37,716,-224,-310
-55,-69,-23,-133,-154,-130
-66,-65,-28,-384,-197,-9
-60,-66,-48,-231,31,93
-59,-51,-66,-148,-117,-122
-53,-39,-72,-6,-147,-66
-53,-27,-77,-80,-28,-210
-44,-21,-88,-118,95,-65
-49,-11,-101,-27,61,14
-29,12,-113,-78,97,117
-25,34,-124,-395,36,140
-54,31,-122,-176,71,25
-79,19,116,398,176,-390
-24,35,105,336,102,-213
-43,54,123,-44,-262,-32
-31,63,119,-70,-161,109
-30,72,113,-160,-40,-38
-31,67,111,95,-55,-117
-28,76,110,75,-16,11
-29,91,111,-90,2,139
-44,98,101,-122,119,46
-42,91,88,81,78,22
-18,14,48,-1998,-4369,-5066
-122,-125,26,-4729,-4888,-6097
69,24,-13,-4892,-3495,-7228
16,16,27,-2859,-3966,-6176
74,-58,12,-833,-2506,-4265
50,92,37,386,-645,-2591
-113,13,119,-247,-1233,-221
-122,-74,-85,571,-61,1899
73,79,78,3624,2384,4400
-44,-19,-95,6234,2137,8550
-97,-18,2,5926,3806,7456
48,41,-103,-1250,3719,4106
-99,38,-113,3758,-161,1780
41,63,48,-1455,-1515,-136
-12,-90,-104,1956,-775,1373
-40,-102,-71,591,-310,2591
-68,-18,-97,-999,749,3618
0,19,-117,-263,1492,2762
100,0,83,1316,2418,1509
-108,42,120,302,1570,2332
-128,29,108,-26,179,2359
116,-91,115,2413,-632,736
88,109,93,3997,105,-1090
42,75,-88,2496,-33,-1409
58,70,-30,102,-374,-478
83,37,-10,-808,-577,237
90,11,-33,-998,-527,302
86,68,-53,-2253,-358,461
89,87,-112,-2280,-154,374
85,71,97,-1240,-184,-189
95,50,105,312,220,-899
100,70,115,965,246,-597
124,101,107,161,278,-308
123,110,99,-99,-17,-104
117,103,92,-281,-206,-196
-122,118,84,-532,-12,-11
110,-125,94,-381,-447,237
110,-111,123,46,-441,431
-124,-106,105,286,163,307
-128,-93,93,108,252,33
-123,-83,94,-62,124,52
-114,-87,82,120,100,62
-112,-91,77,232,76,-133
-109,-94,79,195,55,-67
-94,-93,75,127,31,-8
-97,-93,82,160,-48,-24
-96,-94,86,108,1,-114
-85,-96,87,86,86,-64
-79,-103,81,267,3,46
-83,-85,86,-29,-25,36
25,3,101,-1615,-1680,-6574
-104,-58,125,-3586,-4688,-8147
88,18,94,-6393,-5594,-7060
52,-70,-78,-2278,-3980,-4612
115,-46,-77,-968,-1736,-2876
87,-15,23,-32,14,-633
101,-17,-44,1515,2641,2875
16,9,100,5013,6405,7186
85,-92,-12,8602,6363,8537
114,-48,30,2469,3360,6504
62,51,-2,-1920,748,4969
-90,55,33,5730,-344,-216
78,103,-120,590,523,1347
71,15,89,-1184,1311,1023
86,-59,125,-131,1101,1990
121,-23,-76,-1565,1081,2910
-62,-76,-112,-1393,1438,1532
-58,-118,-72,517,879,1128
-102,-110,-36,954,-502,1781
-101,-104,-56,409,-203,1429
127,114,-89,322,38,566
85,67,-86,634,-436,268
75,14,-78,984,-677,-197
105,-21,-81,1124,-133,-602
124,-26,-67,833,219,-554
116,-18,-41,258,198,-247
126,-14,-57,-300,-172,-100
105,-6,-52,-553,-407,-18
124,-15,-82,-418,127,-194
-117,-12,-107,-73,247,-327
-103,-5,-127,28,6,-343
-94,24,-120,-361,-301,-269
-82,13,124,-72,87,-129
-78,8,115,488,119,-85
-107,47,-121,-26,-267,228
-102,82,-104,-512,-199,308
-84,79,122,-441,307,59
-79,85,97,-177,229,-100
-80,88,95,153,-163,5
-78,110,111,-89,-68,196
-75,123,106,-34,173,-16
-57,123,102,201,96,-320
-37,121,105,344,27,-456
-29,104,106,469,169,-576
-45,107,113,96,74,-259
-69,122,119,-476,52,119
-55,-123,-116,-381,-118,117
-33,108,110,754,386,100
-34,-117,121,228,356,-12
-23,-89,109,-480,301,334
85,96,3,-959,-2750,-6244
59,-1,-96,-6303,-4352,-7597
-104,123,3,-7303,-3258,-7501
19,-89,75,-1890,-2943,-5459
-38,90,-114,-77,-1529,-3580
-124,55,32,285,-1006,-280
47,-91,-21,1645,1700,3943
87,25,71,7814,5740,6601
28,81,84,8275,4758,7693
-10,-105,73,-2276,3990,2199
-86,81,40,2054,317,2895
52,37,-27,3862,1302,927
40,-18,-70,1180,3413,1299
73,-42,106,-1485,2038,3135
120,-61,-97,904,831,3770
4,10,-62,782,1104,3025
66,5,-112,-283,1434,2956
-22,-9,115,-1206,903,2840
92,122,127,890,-100,994
36,26,-98,2395,-941,-840
126,59,-39,513,-550,-463
120,-4,-57,861,273,-12
63,-49,-60,1844,121,-308
81,-46,10,1401,-612,-653
106,-44,12,394,-171,-352
85,4,19,-1495,2,118
-122,-42,-56,-1181,251,-502
-90,-64,-89,30,33,-381
-103,-24,-72,231,-650,-510
-100,-12,-58,43,-511,-772
-101,-34,-73,130,7,-1073
-68,-48,-93,-44,41,-742
-95,-17,-74,-339,-377,610
-123,7,-69,134,-36,1215
-105,-16,-123,1026,823,430
-88,34,-111,254,517,266
-93,44,-114,-174,-74,315
-70,49,-121,-76,-232,247
-78,32,-123,344,-2,-275
-68,35,-111,269,28,-146
-81,54,-113,-267,36,310
-74,79,-123,-671,118,293
-78,93,108,-566,37,-76
-60,93,95,-399,-60,-595
-22,76,90,140,-211,-578
-62,86,111,86,-232,-164
-61,102,112,-194,84,57
-62,118,109,-276,-3,156
-57,119,99,5,122,90
-58,121,94,229,-66,96
-12,31,84,-2383,-2782,-5466
32,106,-14,-2475,-3503,-6370
-114,25,46,-2483,-4479,-6547
-80,28,6,-2949,-4123,-5194
-20,-92,75,-2485,-2012,-3085
115,-51,-55,-1120,-910,-2128
-68,89,53,-106,-650,-362
-79,113,84,780,-57,980
-16,124,59,2087,1038,2963
21,70,-123,6271,3754,6672
61,-31,-112,8249,4357,8783
24,-9,2,-1773,4247,5850
-32,123,103,-1373,-2024,3058
-19,115,-86,4623,-936,-703
-55,39,-49,423,-68,984
-36,-47,-79,-894,329,1402
-2,-97,-121,-743,593,2627
65,-87,107,-311,1387,3576
121,-71,98,784,350,3301
116,-69,95,1751,112,2221
88,-8,-111,614,-582,1809
40,-16,-115,-54,-304,838
26,-117,-118,1135,-39,-615
19,71,-126,2212,165,-1551
45,37,-108,1723,176,-1516
61,16,-89,1048,70,-917
62,-1,-75,291,-124,-508
80,10,-75,-806,-286,-231
93,-1,-97,-811,-190,-262
101,5,-111,-566,-152,-319
95,18,-115,-399,-159,-407
109,28,-115,-366,-29,-316
117,36,126,-257,71,-121
110,52,117,-67,-88,4
123,64,110,60,33,3
124,90,105,-225,37,57
125,94,96,-147,-16,107
-127,97,92,66,20,22
-119,114,90,-28,5,73
-119,122,93,-18,-21,82
-112,117,90,289,71,-84
-109,-128,91,94,9,15
-104,-122,89,-25,29,10
-101,124,84,252,29,-60
-99,124,83,267,57,-92
-91,124,80,242,88,-49
-83,115,67,334,88,-98
-77,123,71,85,-133,148
-82,-124,80,-57,-36,74
-76,-126,79,88,28,35
-100,-55,-127,-1136,-2135,-6640
46,-6,27,-1677,-3346,-7937
37,-63,71,-781,-4881,-7080
-127,-69,-94,-1245,-5121,-4905
88,-46,53,-132,-3298,-3675
-42,11,-122,483,-1831,-1546
13,-57,-9,388,213,1040
-23,79,-91,728,1935,3071
-104,91,31,4475,3389,7699
-65,73,-34,5121,4136,7304
110,-28,41,3906,4593,5150
73,70,-52,-304,535,5803
86,80,44,259,-800,-1739
-80,-13,-111,663,-681,240
8,-45,-87,-456,203,1574
16,-110,-102,495,1105,2014
43,-101,107,714,1907,3299
-111,-69,97,1704,1177,3697
-98,21,-88,920,286,2767
-81,48,-94,-828,352,1610
99,44,-115,-1978,371,1397
44,-82,104,-132,187,35
64,71,90,2956,11,-1194
60,19,96,3625,-275,-1554
66,11,-72,2372,-744,-968
94,27,-25,136,-445,-40
-125,22,-37,-1224,136,-43
111,-32,-79,-167,102,-486
121,-62,-92,908,-46,-725
-122,-58,-85,1094,-137,-585
-126,-45,-67,451,-236,-309
-118,-43,-62,-14,-29,-121
-102,-38,-78,-183,-28,183
-105,-30,-86,-134,-53,228
-112,-3,-88,-336,-60,219
-105,2,-110,-186,249,34
-105,4,-126,56,155,51
-104,21,118,36,10,132
-100,27,113,84,87,-15
-93,27,110,244,76,-82
-90,35,106,188,-5,-30
-91,48,110,-84,-38,-19
-77,40,102,159,81,-92
-78,51,99,74,-68,-55
-76,63,97,-258,-58,42
-81,67,101,-141,-62,-10
-73,57,93,356,97,-70
-74,87,97,-143,-59,35
-68,85,87,-2,48,-33
-61,82,80,180,-10,-125
-38,-93,-103,-2159,-2889,-6148
-16,33,33,-3310,-4147,-7326
42,73,64,-3798,-5839,-6615
89,-85,74,-3378,-3411,-3883
-67,-62,-28,-640,-1038,-3198
48,14,38,-572,-163,-1032
47,37,-46,143,991,1370
-77,54,-110,1930,3274,3538
-59,-73,73,4511,6086,8272
6,-63,83,8643,6841,12288
-61,5,-126,474,2272,6410
-103,-106,-120,-5333,1312,2880
-100,98,-85,6330,-1598,1120
118,103,-57,-411,-260,522
106,2,-111,-1903,-54,797
94,-115,110,19,1,1794
-122,-114,111,437,179,1881
86,-98,-104,234,-353,705
90,-32,-119,-808,353,-1087
81,37,125,-873,-188,141
64,-39,91,1586,-30,726
64,-102,-116,2696,152,1703
66,112,-82,1380,-266,1495
70,68,-62,226,-24,417
55,30,-73,-137,406,-170
87,4,-98,926,582,-129
97,17,-100,920,291,-214
98,2,-88,384,-158,-963
122,-36,-92,394,-221,-1230
-114,-59,-86,392,-157,-1040
-94,-76,-80,340,-98,-504
-94,-40,-81,-242,18,414
-104,-14,-95,-725,-85,450
-109,-10,-118,-442,-73,109
-105,-9,-121,137,-65,-95
-98,18,-120,213,40,104
-100,41,-126,-201,68,152
-98,54,117,-236,91,193
-94,52,105,89,87,44
-95,61,97,169,75,-40
-92,69,94,104,-8,-31
-87,68,93,183,-25,-88
-79,80,91,-9,9,-75
-86,75,92,73,-89,-72
-76,79,91,78,0,-75
-75,85,86,36,-16,-91
-61,86,83,-39,-95,-15
-63,92,93,-25,-32,176
-70,110,90,-146,73,105
-66,118,79,-65,69,15
70,74,56,-2950,-1591,-6025
88,-103,45,-2798,-2142,-7171
97,30,-78,-2852,-3160,-7944
70,-25,-124,-2324,-3979,-6351
121,49,124,-1137,-3701,-4304
102,110,28,-778,-1462,-2805
56,101,-34,728,-471,-860
50,104,-24,164,827,2104
-120,-61,-90,1909,2488,4640
50,2,118,4641,4052,5999
-75,56,42,4622,4300,6266
33,127,70,1330,1917,6981
-80,13,9,-140,244,5686
-52,61,-113,2874,-458,423
-105,12,86,28,-84,567
-83,83,-77,-183,327,839
-44,-25,-106,329,850,847
-8,-21,-94,-417,54,2811
14,-40,-73,1985,-533,3401
77,-74,-91,3142,18,2456
70,-39,-106,1343,1159,1342
43,-80,-113,-469,1348,478
39,112,114,472,803,339
23,-1,-120,2964,-479,-187
41,25,-74,2259,-597,-376
55,34,-31,102,-50,-606
81,-22,-42,-547,214,-743
88,-41,-64,-569,105,-457
87,-51,-74,-143,-216,-163
86,-53,-73,345,-228,-152
103,-32,-70,234,-15,-113
108,-24,-81,93,127,-47
110,-22,-90,126,37,-103
115,-11,-97,18,-68,-58
122,-10,-100,42,64,-83
126,-1,-113,26,69,16
-126,5,-122,28,60,-59
-120,7,-128,168,-6,-43
-118,19,126,83,51,-62
-113,28,121,-117,33,51
-109,34,110,-106,12,89
-112,52,103,-203,-36,128
-107,70,101,-340,-73,67
-103,61,98,191,-28,-88
-100,86,104,-164,-26,-32
-93,81,100,41,23,-61
-88,92,94,-35,42,-29
-93,100,89,-118,17,-12
-87,101,78,-6,37,-83
-82,108,74,-39,-10,-83
-8,-95,94,-2467,-1420,-4125
65,-57,7,-2502,-2141,-6067
110,-33,-4,-7370,-3532,-6280
125,-101,-86,-5446,-2755,-6698
41,40,-40,-2817,-3654,-4896
101,4,114,-805,-1774,-3258
-60,108,101,552,-1168,-2253
-62,-47,34,594,246,380
93,-114,-64,3628,3331,3048
-7,88,-32,5357,5063,5476
-70,-53,40,5212,4456,6586
-40,-98,7,1017,3947,5694
2,-96,32,1938,1008,4050
124,104,22,4714,1041,2603
-45,-62,78,-2125,916,-405
47,4,93,-2517,1168,678
84,84,57,682,483,1306
64,91,106,1866,41,1618
95,-81,-99,-35,142,1882
61,-11,-83,-3143,186,-869
-102,37,102,-3026,479,1251
64,7,-128,-152,-737,1595
72,24,-79,896,-390,730
99,61,-64,157,315,886
82,60,-85,-744,79,1867
71,0,-121,-625,-212,1060
94,-95,105,761,-77,-335
120,111,92,1897,338,-1096
114,97,102,1706,254,-1153
-114,52,112,1401,99,-1022
-101,41,-121,700,-170,-476
-85,38,-103,-89,-55,13
-90,39,-116,-226,-21,160
-95,53,-123,-369,-119,190
-94,59,122,-176,-16,208
-88,63,117,76,34,136
-93,74,111,221,48,211
-90,94,111,-46,25,271
-87,101,96,144,128,179
-83,94,96,184,10,64
-82,106,94,-27,-38,25
-75,108,93,-17,10,-4
-76,107,94,159,-29,-95
-76,113,99,114,31,-138
-68,119,93,-60,87,-191
-58,110,83,90,47,-180
-62,111,78,94,3,-100
-59,114,71,-18,61,-84
-56,116,63,6,109,-115
-61,-125,91,-30,-161,31
110,-22,114,-1971,-2295,-4950
-85,76,93,-2323,-1898,-5996
51,37,106,-2799,-2815,-7019
-5,-45,-77,-3098,-4335,-6143
48,26,93,-3043,-3983,-3300
-99,27,75,-751,-2479,-2487
-56,127,-56,498,-938,-813
-48,111,-53,376,773,679
64,83,-115,2326,2927,3231
56,-45,-68,4677,4265,5750
-47,100,110,4972,2931,6548
-1,117,4,759,2738,6906
32,-17,77,-187,397,3946
-95,126,85,4646,-824,867
58,80,-126,930,442,316
94,-67,-75,-819,1929,1279
97,84,-113,133,1147,2672
-70,-106,-96,652,339,4083
0,26,-58,-348,697,3627
-77,20,-112,-216,380,1741
61,-80,-91,1661,-555,123
48,-113,-63,1585,-578,-514
61,96,-61,660,79,-1099
80,12,-55,750,171,-1351
116,-15,-51,977,335,-1013
-122,-15,-38,766,330,-447
-118,-16,-37,479,222,-166
-112,-23,-42,344,49,-369
-91,-30,-38,275,61,-630
-81,-43,-38,527,-41,-473
-80,-38,-35,259,-252,-264
-65,-19,-33,-343,-103,-65
-68,-32,-45,-15,132,-19
-73,-25,-52,192,72,93
-55,-2,-70,5,211,210
-64,2,-79,84,59,343
-67,11,-86,113,153,313
-66,32,-91,-38,50,254
-62,33,-103,94,133,94
-65,34,-108,280,-55,-55
-60,43,-108,50,-87,-160
-51,54,-107,-229,-130,-113
-59,48,-110,-129,-195,-215
-47,39,-114,248,103,-272
-46,58,-116,-34,18,-152
-42,63,-125,-112,-21,-21
-43,68,-127,-70,-61,-8
-41,78,127,-3,9,38
-41,89,122,-35,32,19
-41,94,117,-41,17,-15
32,37,19,-4673,-1023,-7304
-39,-53,63,-3943,-2560,-8986
108,83,27,-1057,-2583,-7053
90,-90,-81,-639,-979,-5026
104,117,-39,401,460,-2182
39,4,-117,391,791,1958
-92,-2,65,4776,355,5140
-97,78,-101,8029,3494,9183
103,-26,-60,9818,7073,5488
-63,-72,95,-4403,860,3176
95,45,58,6944,-1840,-1526
-67,79,-124,1170,-85,-564
31,-45,19,-2372,2044,892
-1,76,-83,-2454,2647,2858
4,-122,119,-982,1579,2647
106,10,69,-412,1939,667
-96,79,105,1,2182,-1959
90,25,-56,1164,168,25
73,65,27,-997,136,1553
91,0,3,-962,-322,1675
94,-74,-45,83,-905,2481
108,107,-77,608,-811,2254
91,91,-62,-158,-25,33
-123,94,-59,-325,643,-435
-109,54,-75,1076,142,-321
-105,68,-36,960,29,0
-120,101,-23,-180,63,94
-103,91,-47,-89,68,86
-90,60,-77,515,-30,-193
-80,67,-63,360,114,-572
-70,61,-64,276,65,-184
-69,57,-63,213,-18,-197
-47,56,-75,277,322,-152
-54,57,-76,242,160,-611
-38,97,-72,-437,330,-682
-19,96,-89,-166,141,-130
-27,99,-74,132,-33,-201
-33,123,-75,-68,37,86
-39,-127,-73,-17,-168,111
-25,-121,-79,107,126,134
-21,127,-91,430,117,178
-22,111,-85,646,112,-66
-15,112,-82,496,192,-163
-15,94,-82,623,54,-145
1,105,-70,228,68,33
-6,117,-73,-159,-27,62
19,115,-90,129,171,-92
25,88,-73,805,-113,-283
-32,-119,-47,-542,70,119
-28,-112,-88,-858,-10,113
121,70,-86,-1689,-2071,-5621
44,-51,34,-2185,-2528,-7410
-120,61,28,-3058,-3806,-7785
41,-81,-24,-2794,-5260,-5865
10,-113,44,-4598,-2664,-3863
-95,125,-12,-3064,-775,-2476
35,-38,-127,1678,464,826
60,-65,124,1816,1016,4646
67,79,-112,5018,2855,7530
111,35,66,8969,3625,9400
-60,109,75,-1243,2286,6344
-89,21,110,-1554,-593,3240
68,-77,36,3232,-1383,1128
55,25,64,2246,33,202
56,24,12,444,531,1596
80,-73,-43,1591,870,2545
-121,-32,-66,1807,398,4122
115,-74,-68,1839,53,2953
43,-112,-21,289,-115,1118
43,47,-68,1424,503,54
123,12,-91,2149,1760,-2
81,30,-55,443,1136,-58
73,89,-51,-1323,-510,1110
46,-81,-51,-3235,-1394,1085
37,29,-101,-97,-955,-504
58,-48,-88,2619,339,-1858
66,-44,-67,2043,543,-2255
116,-80,-31,1233,225,-1684
-115,-61,-2,300,-309,179
-124,-46,-1,-92,-556,1058
110,-59,-22,-98,-337,346
-121,-55,-50,-270,314,-92
-109,-23,-77,-434,379,471
101,-1,-82,-456,-184,664
96,21,-98,-296,-141,442
124,27,125,-288,389,-54
124,43,119,-557,62,-32
-111,53,105,-329,-175,259
-119,57,111,121,-209,75
-128,65,113,63,-8,-151
-118,97,114,-362,21,-193
-127,93,110,-261,-76,-294
-118,88,111,58,95,-417
-88,77,96,483,54,-477
-75,78,92,439,-61,-333
-103,100,114,-114,-376,-60
-104,106,112,-435,-53,-36
-95,104,103,-285,158,-46
-90,103,84,96,134,46
-85,112,80,227,18,149
-3,14,-127,-1161,-2228,-5236
-124,-73,-49,-3144,-3737,-6221
101,-86,-124,-4843,-4538,-7270
75,90,-125,-5033,-4251,-5600
11,-95,-4,-3285,-3186,-4715
-126,-112,-3,-997,-1563,-2703
26,-109,-3,643,-5,-553
-37,-5,-31,2289,3558,3747
-81,-4,35,6270,5851,8014
-31,-40,10,7436,7023,6774
-29,4,-52,-2834,2977,6878
-107,-36,66,389,-915,4955
8,77,-63,3922,267,1062
-121,-102,86,-146,782,706
-102,66,98,-397,714,1372
110,-10,-123,102,302,1710
-126,-102,121,1398,801,948
-111,-83,-110,435,845,1011
106,-111,-97,-10,60,899
127,110,-113,562,328,405
113,47,-107,1537,279,-214
111,49,-86,1161,-72,-270
-124,38,-78,197,-122,-178
-122,2,-83,210,-215,-392
-126,-6,-69,338,-291,-369
-99,-2,-61,-31,-72,-306
-102,0,-69,-223,-80,-57
-107,7,-82,-319,1,26
-96,8,-103,-5,84,-124
-92,-6,-120,406,55,-318
-97,13,-109,204,-82,-248
-79,11,-114,5,66,-171
-77,14,-116,48,-19,-38
-75,23,-126,36,7,7
-73,38,-125,-115,-37,71
-67,40,121,29,8,51
-69,42,116,158,58,-48
-69,53,114,50,-67,4
-63,60,113,98,-22,-19
-61,64,112,112,65,6
-63,67,110,65,20,-9
-57,72,102,72,28,-50
-53,82,100,-63,33,16
-58,83,99,56,-53,-34
-51,87,97,147,50,-101
-48,91,97,101,72,-69
-46,96,94,58,-10,-80
-46,106,90,-68,30,-63
-39,103,83,45,9,-95
-42,117,88,-28,-6,-88
13,72,71,-534,-2110,-5541
-109,-44,-61,-2410,-3709,-6397
27,0,-18,-4101,-4977,-6789
22,-48,-20,-5124,-4365,-5964
36,-116,78,-3449,-2915,-4445
81,109,29,-426,-1194,-3220
-7,-104,-33,46,-376,-431
28,-43,-69,2168,4089,4887
106,110,-67,7645,6918,9849
-97,86,-76,8445,7417,5870
-49,-39,-56,-3077,2366,5211
-91,74,-36,2179,1243,2738
-102,77,-58,4368,429,1218
-116,74,66,1362,1907,1020
-59,-95,120,-1634,2036,2154
-84,-63,98,-2374,1267,3783
-78,-114,63,-224,1116,2819
-119,96,90,2959,334,776
60,-117,-90,1501,-246,-452
67,83,-56,-806,-91,-600
96,-1,-82,-729,198,-590
102,-90,-107,530,128,-591
107,-89,-91,1242,24,-169
117,-53,-59,584,-81,168
-123,-43,-49,-347,-229,-231
-104,-46,-56,-673,-342,-702
-87,-67,-76,-363,-348,-794
-81,-62,-77,-146,-280,-489
-92,-54,-78,-73,-219,-188
-90,-29,-90,-287,48,86
-93,-24,-110,-142,215,176
-92,-16,-126,129,231,180
-89,8,120,92,140,240
-88,24,116,-186,6,221
-86,39,114,-257,-8,177
-76,40,108,56,86,129
-83,46,112,407,17,67
-73,70,111,144,-12,-93
-73,72,111,-156,-8,-215
-62,64,109,-88,36,-169
-59,55,103,260,11,-176
-58,62,103,257,44,-249
-59,77,101,-54,-8,-206
-49,76,92,-51,39,-18
-50,81,89,-88,-43,32
-47,94,84,-68,80,-1
-50,101,81,-25,38,56
-43,105,75,3,-51,34
-42,112,76,28,-43,-3
-47,114,83,81,4,-81
37,-39,49,-2403,-2931,-6660
1,45,-37,-4338,-4598,-7472
-31,-84,97,-3850,-5477,-7399
19,-65,-89,-2248,-5149,-4636
41,-109,19,-1915,-2356,-3949
10,-103,-105,-135,-272,-638
-100,83,25,778,4342,4040
-53,108,-123,4952,6742,7646
-104,1,-68,6841,9163,8034
-39,-127,-65,684,6469,6666
90,-36,-57,-156,-2135,5954
38,-103,21,2172,-775,1241
-18,115,28,619,-31,-293
36,14,118,407,971,680
51,23,127,899,678,1119
62,-15,113,1132,1115,759
95,-94,92,632,1546,618
92,-73,127,-1052,448,1692
87,-127,107,-826,515,1673
104,84,115,793,540,1184
103,92,-101,521,329,899
124,88,-89,162,175,402
122,71,-111,418,268,115
98,49,-95,417,-219,-357
116,17,-95,587,-359,-721
-110,-11,-98,645,-120,-780
-111,-33,-94,491,-76,-625
-110,-31,-91,184,-143,-292
-108,-29,-100,-33,-185,-144
-95,-23,-109,-103,-172,-90
-101,3,-107,-531,-321,41
-106,41,-107,-1314,-391,273
-107,114,118,-2480,-249,623
-122,-97,92,-2681,-283,665
122,-77,86,-1530,-166,438
-128,-59,90,-8,-23,104
-108,-44,90,410,170,-199
-102,-27,80,183,200,-250
-100,-39,73,101,131,-205
-98,-54,64,207,80,-92
-100,-59,61,322,-9,17
-93,-66,61,470,-1,53
-87,-55,70,191,-104,133
-80,-55,86,262,-70,196
-69,-62,84,498,96,-23
-71,-56,81,210,68,-116
-65,-76,66,319,-7,-204
-67,-89,66,202,-89,-189
-66,-88,80,52,-101,11
-55,-73,92,-178,50,-2
22,45,-125,-2214,-1085,-5306
-99,107,23,-2000,-2528,-5894
3,-77,-67,-2789,-3696,-7249
-68,-83,26,-3789,-4714,-6574
124,103,8,-3639,-3845,-4457
-79,116,66,-2340,-3185,-3512
-11,58,-38,-817,-1512,-1911
73,-97,19,-144,828,1485
33,-6,-71,4599,6863,6216
49,43,38,7777,8588,6765
108,-59,-81,3046,5491,6270
-51,123,37,-455,218,5233
51,84,3,2886,-570,3468
52,53,19,-394,1342,474
-116,-122,55,566,1662,994
-49,-97,100,94,1551,2004
-48,106,83,404,1607,2190
-65,118,124,-104,898,1654
-16,-79,-92,-1388,1524,889
-76,111,-67,-296,639,210
-106,36,-65,1786,214,34
-84,36,-47,2140,46,583
-93,28,-29,1044,-95,670
-109,15,-35,112,-165,456
-100,-8,-64,-249,-230,40
-102,-19,-62,-342,-666,-728
-90,-23,-64,-490,-814,-961
-60,-26,-73,-503,-586,-1161
-50,-24,-83,-411,-371,-894
-61,-10,-89,-405,-372,-557
-74,-2,-99,-320,-248,-362
-70,14,-110,-441,-43,-157
-62,35,124,-347,51,242
-78,57,126,-353,-204,589
-84,121,-126,-958,-13,781
-73,-114,104,-914,206,647
-76,-111,82,-290,134,215
-80,-117,75,445,-18,-246
-71,-114,87,477,-79,-194
-72,-106,101,113,-40,4
-67,-100,101,-89,118,13
-59,-109,88,195,46,-163
-61,-112,87,245,-68,-149
-58,-109,91,93,-6,-161
-53,-118,92,198,-19,-109
-47,-113,98,137,33,45
-53,-104,95,-11,12,-8
-44,-102,93,-13,51,-78
-41,-109,88,147,33,-39
-40,-100,87,-49,39,-5
59,52,-101,-1616,-2200,-5828
18,18,-23,-2135,-3648,-8071
-80,55,-125,-4881,-5106,-6949
-14,-55,111,-3423,-6202,-5236
62,-30,72,-1598,-3365,-3179
-121,92,-35,-1485,-1331,-1986
-23,76,55,750,995,1862
-126,-108,-63,4052,3958,4683
-95,65,-14,6045,5408,5991
101,35,26,3531,3664,5482
-4,109,115,-1023,1704,5046
66,-65,-111,5224,827,1612
119,25,-110,396,84,1102
50,-92,76,-780,-167,806
32,22,105,1479,-55,283
59,51,-103,762,1000,540
121,-64,-127,1415,2262,871
-90,102,111,2416,2641,947
118,84,-65,2104,784,686
-87,66,-10,1112,151,607
-54,26,-26,606,339,471
-66,-35,-32,95,305,-17
-74,-58,-40,-138,353,-166
-64,-108,-42,881,259,-384
-34,121,0,1917,132,-77
-22,-65,50,661,409,673
-33,-96,52,316,511,517
-61,-101,40,-197,454,-66
-47,-117,17,81,438,-299
-35,-119,15,344,119,-233
-23,-123,21,462,-147,-179
-12,-99,28,45,-101,0
-6,-104,22,69,8,20
-3,-91,13,-52,78,117
-6,-91,8,1,-52,-25
-9,-86,-1,30,-92,-122
7,-82,-12,115,-76,-191
5,-70,-18,-3,-159,-118
-3,-57,-18,-255,-128,-25
9,-58,-35,-73,134,-42
4,-49,-54,37,111,-131
3,-41,-63,-45,-14,26
0,-30,-69,-191,13,96
0,-25,-85,-82,130,92
-3,-14,-95,-116,37,104
-3,6,-105,-183,-128,89
-4,8,-107,-4,-196,-48
-3,13,-107,59,-105,-6
-3,33,-110,-183,35,29
-9,42,-124,-315,-27,99
30,-57,-66,-6376,-2349,-4951
-98,-84,-96,-2664,-5378,-8226
62,-93,49,-5932,-6632,-6052
-101,5,90,-3198,-4450,-4738
97,-117,8,436,-1302,-3597
127,-47,68,757,276,-387
65,-91,9,895,2448,2779
13,-30,70,3830,5576,4345
8,83,14,5333,6631,5947
34,-15,-100,2315,5238,9073
113,57,80,-5157,668,5671
112,110,109,3685,-169,2281
59,20,88,-348,-101,501
93,81,-99,88,48,1138
122,-22,-96,2118,378,1217
-125,25,-83,696,507,2052
-91,-47,99,894,310,2280
103,-64,93,463,-476,2448
52,-62,94,-544,-811,2086
29,-111,73,-430,-284,447
26,79,81,951,334,-1003
53,8,95,2042,476,-1569
110,-9,115,2189,567,-1990
-114,-10,-70,1098,257,-1226
-89,2,-57,-140,33,-11
-93,4,-63,-972,-190,273
-110,-10,-103,-845,-195,200
-98,13,-121,-553,-143,-30
-86,8,113,11,-35,-433
-84,13,122,361,-214,-281
-37,47,118,-335,31,0
-60,73,123,-780,55,106
-101,90,-125,-820,-230,208
-90,97,120,-318,-73,-30
-65,76,104,489,202,-262
-79,82,101,552,76,167
-79,116,102,-359,-62,486
-79,-104,93,-1214,-108,462
-75,-40,83,-2689,203,685
-67,-93,38,-587,244,69
-68,-118,63,1049,-230,-309
-10,-69,68,951,31,100
-56,-76,73,704,-35,90
-72,-65,90,129,-157,7
-22,-90,81,207,19,-252
-37,-93,85,62,-37,-170
-55,-65,122,-886,515,491
-30,-68,120,-1060,888,470
-5,-95,121,-78,-101,128
34,-102,-128,942,-186,-77
-20,-89,-51,1494,-1142,-7532
112,-104,80,-4108,-4390,-10570
-127,7,37,-7264,-3354,-8534
-16,66,-89,-1108,-2630,-5775
7,83,46,65,-1927,-3064
-32,-81,-85,821,10,-34
-21,120,-97,-302,2308,3683
-105,-123,10,6761,4696,9117
9,-94,-53,7937,5653,5486
49,112,-98,-3479,3494,6040
93,72,-15,-16,347,2134
25,52,119,6816,-122,-387
12,-11,7,-164,-776,702
-102,-110,-53,-2632,850,2360
-92,98,99,-313,887,3635
-84,82,76,3316,74,2644
116,18,108,1976,-254,1417
89,-119,-87,-3423,847,486
69,104,36,548,1170,-217
69,6,90,2065,330,-579
117,28,-84,1109,381,-350
124,40,-61,-143,80,289
-100,-23,-81,560,132,80
-78,-53,-98,1815,528,-239
-79,-48,-65,1402,-29,-510
-83,-21,-9,-191,-424,-98
-81,-43,-28,-719,-369,213
-82,-94,-55,64,-247,-107
-80,-62,-59,-276,4,-46
-85,-59,-83,-424,222,-10
-53,-35,-106,-956,690,-439
-26,33,-112,-1850,708,144
-50,17,125,-232,-194,233
-37,41,-122,542,-109,301
-58,50,-106,385,-288,-291
-46,66,-100,23,-107,-188
-37,57,-118,-20,40,81
-35,60,-124,-102,-128,108
-35,75,-127,-283,-80,24
-52,71,-128,-102,-269,-202
-25,92,126,-247,30,57
-35,90,118,40,100,29
-38,99,118,110,21,-34
-25,119,108,-256,73,-69
-33,107,101,111,-72,-110
-21,101,98,348,76,-245
-24,106,101,126,44,-12
-23,114,98,-124,-52,181
-32,125,98,-123,-61,185
-34,-128,99,-30,-28,93
123,27,-2,-846,-2501,-5004
68,53,59,-2298,-3714,-7810
-90,42,-1,-2407,-5903,-8119
-113,-51,40,-2665,-5745,-5433
-94,41,99,-1405,-4220,-4054
4,-125,51,-1559,-2157,-2247
-128,103,-14,-574,-73,622
116,-119,-93,1389,2471,4228
88,97,-84,4741,5447,7214
-104,-118,57,3311,7434,5968
59,-45,-121,2326,5726,7574
-73,102,20,-247,1557,3723
53,-38,51,2805,-77,500
104,36,-16,1080,285,218
-68,-116,-37,94,1190,1816
126,84,-54,-347,850,3012
-84,40,-83,294,424,2692
-45,-125,125,-204,1144,2235
-85,-59,121,-771,872,1092
118,-105,121,632,208,88
121,43,-119,1547,-28,-794
-108,9,-86,806,-203,-711
-108,4,-42,-93,-231,192
-96,-31,-61,-321,415,234
-75,-67,-80,250,-122,-741
-70,-80,-37,701,-460,-268
-127,-53,-18,208,-318,-196
123,-56,-24,42,-123,-545
-39,-41,-58,-168,44,124
-62,-15,-73,-366,-204,52
-45,-3,-94,-48,-41,-224
-87,4,-85,-73,-49,-43
-70,5,-85,-123,-87,-108
-64,20,-104,-275,67,-96
-66,30,-118,-327,-116,21
-53,36,116,-317,-52,12
-60,61,108,-508,-3,212
-69,86,97,-578,-20,217
-46,111,79,-190,43,100
-59,-126,100,415,-277,-2
-76,-126,102,-46,-353,-630
-57,117,81,-563,142,-667
-55,87,63,-156,103,-411
-69,84,54,32,-255,34
-74,109,50,-411,-266,274
-60,116,51,-252,-209,101
-47,117,53,219,-93,124
-57,-128,65,262,-132,241
-62,-91,75,-460,-281,488
-66,-87,93,-463,-337,592
112,15,-12,-1132,-2727,-6073
102,-122,90,-1195,-3740,-8324
2,-104,-62,-5334,-5097,-8132
124,90,125,-3279,-4973,-5612
104,-57,7,-371,-2494,-2568
34,-92,72,-244,-1707,-1213
-99,110,-61,420,22,607
-49,-79,-106,884,2096,2389
-110,-79,-11,3622,4118,4687
-97,-26,5,5937,4713,8932
45,-15,94,7549,5375,5220
-83,18,-117,-1364,6077,3262
91,124,-72,-3630,-60,4364
74,40,-100,815,-2287,579
80,-43,126,921,-829,-173
-56,-108,-110,-370,1419,719
121,107,-122,-496,875,2114
118,98,-124,-6,216,2788
-109,119,-103,196,-226,2493
-115,108,119,538,647,1559
84,66,-120,817,276,253
84,40,-97,1113,-169,-440
-127,42,-112,723,380,-172
108,37,-121,-69,401,-367
113,17,125,-243,86,-575
-126,-13,115,416,-114,-689
-112,-21,-127,661,-341,-693
-104,-4,-107,-8,-405,-658
-83,-9,-105,-284,-263,-585
-84,-10,-111,-360,-243,-450
-84,6,-115,-564,-266,-278
-83,10,123,-348,-59,-143
-90,22,114,-219,-74,-34
-90,44,106,-221,-61,151
-87,56,103,-147,22,227
-88,67,99,-38,33,322
-92,90,96,-68,94,344
-78,98,82,-27,176,239
-75,107,75,48,-23,191
-74,115,73,63,30,76
-76,112,75,204,-12,-131
-72,113,76,167,-39,-180
-67,114,77,7,-2,-128
-60,115,74,-78,-22,-94
-59,111,71,69,-29,-107
-62,116,74,53,-38,-126
-53,122,71,-54,43,-89
-58,120,67,59,-89,-58
-51,127,69,-2,21,-70
-51,-123,68,-30,-17,-31
6,-79,-89,-3370,-3739,-5699
-117,30,-60,-3892,-4288,-6239
98,-40,127,-4651,-4609,-3689
-59,-37,50,-2469,-3536,-3388
32,32,-120,-626,-2308,-1837
-54,-21,-121,-95,-1148,-1034
-82,-51,18,-599,-133,641
98,47,-54,1873,3399,1976
13,108,47,4873,5322,5111
-98,-110,-125,5189,5578,5074
-35,102,-88,-2073,3931,6662
19,18,127,3742,993,2575
119,-81,72,1217,154,1342
-59,-84,49,955,-669,-36
59,-2,-114,683,543,591
90,-65,-78,-924,780,2369
75,-95,124,-697,1173,3268
111,100,-103,2539,877,2259
-114,70,-68,2970,1204,1582
-93,126,-37,-155,590,2564
91,51,-90,-472,396,1754
102,64,-101,-1548,413,1150
73,25,122,-1000,269,140
69,3,-107,-51,-266,-218
92,10,-89,366,-382,-262
115,-2,-99,712,16,-248
105,4,-96,351,203,-384
104,-9,-102,228,54,-512
126,-14,-109,102,-108,-513
-125,-3,-107,-341,-227,-426
-120,-3,-105,-352,-180,-334
-110,1,-120,-252,12,-265
-110,16,125,-324,32,-119
-112,26,113,-222,-39,-53
-108,33,109,45,-31,-44
-103,48,108,-14,21,-13
-99,59,106,-75,-16,78
-88,68,103,21,50,169
-88,77,97,73,83,118
-90,86,91,62,-10,4
-82,92,89,44,-42,-62
-79,90,92,143,-35,-101
-76,93,93,127,2,-68
-72,102,91,-15,9,-65
-72,99,88,50,-26,-70
-69,102,88,81,3,-90
-64,106,84,28,4,-86
-60,111,77,-19,14,-13
-63,116,82,-4,-13,5
-55,123,76,-24,62,-65
-127,-2,86,-2647,-948,-6132
46,29,-126,-1644,-2380,-6498
67,-35,-27,-2035,-2923,-5737
89,52,81,-2687,-3237,-5263
93,12,17,-2634,-3217,-3588
51,66,-85,-834,-1810,-2159
-29,66,-50,284,-855,418
41,114,-69,612,1150,2654
-76,-52,115,2840,2729,4191
-110,-76,-24,5063,3769,4367
3,-66,-48,1592,3022,4495
123,-107,34,763,2154,4143
-64,-18,56,1514,400,3266
67,114,4,482,537,302
34,100,-93,764,441,583
89,59,-87,222,679,1772
76,-19,-58,65,-54,3185
97,-49,-41,143,-884,3517
115,-71,-51,989,-413,2358
-128,-51,-53,611,203,2945
82,-88,-67,-85,64,2486
44,93,-96,-225,185,891
28,77,-88,262,-25,-158
58,50,-94,838,39,-559
77,20,-82,957,-1,-844
100,12,-91,418,296,-819
100,-12,-100,330,258,-575
100,-35,-94,753,-90,-421
119,-38,-84,753,-81,-221
124,-18,-71,141,-31,-77
-123,-29,-78,218,132,-165
-115,-38,-91,457,111,-231
-108,-33,-95,369,56,-213
-105,-51,-106,663,33,-254
-101,-42,-99,406,-72,-187
-88,-24,-96,-145,-84,31
-94,-27,-106,-155,-79,112
-87,-20,-110,-20,-37,49
-84,-12,-116,107,-16,45
-88,-1,-119,121,-39,-19
-82,9,-122,-17,-25,6
-78,16,-127,-28,3,-24
-76,17,121,77,24,-43
-75,31,116,-80,-7,-41
-73,30,108,33,12,-73
-67,35,103,49,31,-123
-64,39,99,30,-25,-9
-65,50,96,-57,-12,-52
-59,52,92,19,10,-54
-58,62,90,-60,-57,-38
-98,-121,-83,-2612,-1439,-5603
-7,-14,24,-2432,-2618,-7780
67,57,-6,-2277,-2793,-8518
95,82,-97,-2528,-2851,-6004
-18,-122,-72,-1715,-2093,-3892
36,-107,38,389,-1535,-1570
-121,-100,-66,-593,-1254,573
-95,-22,-94,1895,891,2878
112,1,71,4693,2272,5218
26,23,-77,4960,3994,6740
81,120,26,1163,138,5510
43,89,-63,3344,1510,359
9,40,-10,1720,-1242,757
-115,50,-66,656,27,-255
-29,-12,-63,-3036,1614,746
96,62,37,-1659,2194,1894
88,46,62,2718,1,4371
-67,-66,-77,3076,11,5690
89,53,-37,-190,951,6146
48,-2,-127,493,798,2883
102,111,-115,3056,-644,526
-34,66,-52,1856,-777,126
-35,-57,-57,866,89,-947
0,83,-34,680,373,-1114
80,-2,-39,1222,220,-1304
112,-82,-7,1562,-31,-1332
-120,112,33,1693,-39,-1146
-112,98,39,1516,329,-786
-103,-117,85,42,-147,-131
-108,-106,75,-1264,-601,214
-102,127,25,-833,-527,40
-127,-121,-21,-195,-763,-289
-119,-98,-44,285,-244,66
-115,-70,-46,125,142,340
126,-55,-63,-194,221,136
-126,-49,-80,-61,123,430
123,-43,-90,42,9,135
-126,-36,-104,196,72,-15
-115,-26,-108,110,111,16
-123,-21,-113,39,-68,-60
-112,-15,-121,-82,82,16
-111,-20,-127,73,5,-114
-108,-14,120,96,-70,-109
-105,-1,116,-38,-199,-164
-100,3,117,-99,-130,-151
-93,7,111,-104,-141,-231
-92,6,105,89,-169,-162
-83,24,106,-166,75,34
-84,26,97,-143,57,5
-77,25,87,93,91,-19
-41,26,87,-2569,-1076,-4752
-4,113,9,-3770,-2270,-6586
74,-68,84,-4636,-3194,-6841
-56,64,95,-3329,-4083,-7159
91,90,72,-2924,-4343,-4873
-69,-25,-70,-1370,-2913,-2947
73,110,-32,-1405,-1819,-2020
77,63,96,622,483,620
-95,-11,-4,3621,2633,4044
87,-81,0,4953,4676,5458
-14,119,80,5371,5195,5592
42,-93,82,939,3067,3479
-1,62,-50,-220,-271,925
27,82,-5,1249,76,38
-80,69,101,1035,991,920
-39,-11,-106,-919,1231,1660
-55,-42,-84,-847,794,3624
4,-32,-68,921,144,3077
-81,51,-99,1652,1353,3638
-70,-126,-125,439,996,3047
-57,26,111,1582,843,2204
-123,-27,115,1275,184,1653
54,-79,-109,216,-174,254
50,111,-88,567,-379,30
66,73,-74,573,-234,-165
88,10,-65,881,-266,-590
107,-20,-65,1129,-79,-725
103,-30,-45,856,-58,-556
122,-40,-41,429,16,-373
122,-51,-48,360,-28,-460
-118,-71,-61,496,52,-395
-118,-48,-60,-261,-113,-222
-114,-35,-83,-791,-247,25
-121,-33,-96,-594,-328,78
-111,-43,-103,193,-86,-74
-107,-14,-96,245,-23,-168
-102,5,-101,-58,-11,10
-103,14,-111,-170,-9,-8
-91,6,-125,83,133,-77
-99,13,-126,191,54,-18
-85,24,119,131,105,-23
-87,27,114,79,86,44
-85,38,100,-114,23,69
-92,44,97,-61,-137,13
-81,37,97,290,6,-175
-76,50,100,142,-12,-126
-74,54,102,75,-99,-22
-71,56,100,105,2,-51
-64,66,94,10,39,-72
-67,67,92,26,-46,-26
31,-93,-7,-1722,-2173,-4667
31,-41,-33,-3358,-2657,-4651
-19,67,-93,-4990,-3113,-5434
124,73,56,-5154,-3508,-6246
-111,89,87,-6827,-2774,-5468
-54,-26,12,-3453,-1481,-4885
30,19,51,1305,-850,-2392
16,-50,17,996,408,-499
65,-115,-20,1546,1746,3257
-46,-68,46,4425,3426,5385
122,11,-34,6583,2608,9024
-20,-29,48,3200,3154,5049
110,65,108,1835,48,2296
93,-19,40,1758,-356,-946
118,24,-76,1476,393,982
-32,-92,-51,756,1843,1356
0,-54,-93,-370,804,3337
41,-24,98,1394,399,3385
70,-126,93,876,548,2551
33,100,118,845,85,1836
28,-54,120,1030,332,1057
11,-117,-91,567,421,411
51,87,-74,-82,494,553
73,58,-100,-199,550,353
64,29,-119,72,291,145
58,4,-100,702,-284,275
73,20,-82,842,38,511
68,37,-84,356,300,302
65,21,-105,501,194,137
64,10,-102,756,-56,-196
82,7,-87,355,-104,-487
104,4,-80,-208,-32,-592
123,-45,-96,538,-5,-633
-126,-20,-88,-92,-47,-546
-112,-28,-108,-212,4,-377
-114,-32,-119,-47,-125,-290
-108,-25,-117,32,-121,-195
-101,-13,-118,-19,-21,-100
-93,4,-123,-138,-46,-3
-104,10,-119,-1,-240,38
-100,25,-115,93,-269,-18
-74,51,112,-96,374,246
-90,49,98,-113,365,-55
-99,36,83,284,48,-198
-81,47,83,201,78,47
-85,59,87,-112,25,108
-78,56,78,83,18,124
-73,64,79,134,-49,70
-72,79,83,29,-100,20
-67,79,84,52,-43,-72
2,94,-117,-1578,-1264,-5561
38,-14,100,-2880,-2114,-6889
122,55,-128,-4178,-2520,-6838
81,-7,-76,-4918,-3244,-5125
60,124,-112,-1254,-2466,-3824
121,43,-12,-336,-1343,-2119
-52,1,0,-151,180,-557
-120,87,-56,1287,1883,1716
55,0,119,4252,3228,4066
102,-128,-94,5375,3836,6865
32,31,-101,3169,3762,6130
-45,-1,-53,-5509,604,3863
-88,-12,-49,6255,-1297,47
-7,10,43,1326,-907,411
9,98,116,-789,307,1296
11,-33,115,645,102,2617
27,-4,-126,186,324,2946
-103,34,109,248,1494,3409
-97,-29,104,2054,872,2464
-108,-54,-92,1638,209,1263
-120,-49,-97,-77,98,1291
92,-124,-109,-219,136,442
62,42,-85,-14,-199,-68
90,45,-66,-205,-172,237
115,36,-81,-244,210,112
105,9,-98,207,215,-107
100,8,-91,586,21,-113
115,1,-102,744,193,-212
115,0,-108,567,226,-366
123,-5,-111,376,60,-400
-115,-24,-112,408,-48,-427
-103,-22,-106,308,-99,-189
-105,-14,-101,83,-76,-140
-94,-15,-106,112,-70,-209
-86,-15,-111,131,-59,-165
-90,1,-107,-136,-117,2
-85,2,-116,-50,11,-38
-85,4,-122,167,11,-26
-81,22,127,23,8,7
-77,26,119,-9,22,18
-76,29,114,62,-26,33
-70,39,112,78,3,20
-70,46,111,-7,40,30
-68,53,105,-11,23,47
-69,56,100,96,7,-21
-63,64,96,16,15,-77
-62,66,90,60,-63,-83
-59,65,92,109,-32,-100
-55,75,89,-44,-1,-69
-55,75,82,51,-98,-46
90,49,84,-1105,-1938,-6564
-110,127,-39,-2595,-2760,-7030
-25,-3,17,-3585,-4102,-6178
119,-59,-52,-4993,-4450,-4219
-30,-39,-46,-3094,-3385,-3474
88,66,-4,-1861,-1634,-2548
13,-46,24,1029,579,-404
110,110,-57,2517,2735,2798
113,-82,-23,5943,4914,5765
80,98,23,6526,4919,6820
85,41,74,-1368,4260,4100
-117,10,-27,410,-1258,4636
-25,88,102,1722,64,-124
-66,-54,65,1775,696,496
-17,90,105,997,505,868
11,26,-109,-438,800,1549
76,-100,-125,-251,984,2763
106,-105,-122,572,224,3724
-99,-79,-96,49,335,3150
97,-102,119,16,-42,1801
95,84,111,2723,-558,306
72,113,106,2224,5,-178
15,124,-120,-175,576,-806
45,29,124,-205,400,-708
103,-23,125,-30,129,-458
96,-32,-117,266,-157,-110
94,-34,-99,353,-169,-47
117,-18,-85,114,-75,-83
115,-14,-90,-152,-9,-179
-126,-13,-105,-186,49,-242
-119,-20,127,27,-17,-354
-118,-17,120,76,-83,-359
-112,-10,118,-51,-131,-399
-86,-19,102,87,-93,-391
-102,2,126,-67,-246,193
-103,24,115,-397,-18,222
-104,28,98,-258,-10,-26
-90,38,81,-22,20,38
-92,46,85,-60,-77,-147
-89,51,80,-5,26,38
-89,63,76,-160,-1,81
-86,61,68,58,28,100
-85,79,66,-52,-19,11
-80,77,60,48,-58,-56
-78,86,62,-3,-97,-50
-76,88,62,3,-6,-47
-74,91,59,-10,-24,-56
-74,95,54,10,-73,-31
-66,102,49,-60,34,-44
-70,99,47,74,-117,-78
109,56,79,-3723,-2774,-5512
59,-69,60,-3159,-2113,-8174
-69,-115,-5,-4119,-2252,-6835
-98,-125,-115,-2961,-2194,-5104
77,54,59,104,-2447,-3171
-55,-15,18,353,-1619,-1117
126,-88,-76,692,-1452,1110
9,-43,-44,2174,-287,2065
47,-61,3,5800,4256,4131
70,-42,41,6826,5656,6152
68,66,-84,895,4421,5696
124,111,-78,-497,-1149,2519
39,1,51,3488,-1196,541
-50,22,79,-759,309,691
7,52,106,571,907,-177
20,-1,123,930,222,533
51,-64,-113,559,425,825
82,-81,-88,608,322,2181
104,-103,-86,616,483,2747
-118,101,-103,358,783,2645
104,96,-115,-131,338,2054
115,105,113,-837,668,1683
67,100,97,-582,126,1143
67,84,124,276,-153,859
83,53,-114,961,59,247
92,6,-109,1212,350,-1000
116,-12,-114,1189,463,-1154
-112,-26,-98,839,129,-683
-105,-26,-85,269,-92,-428
-90,-41,-91,-1,-95,-353
-88,-51,-102,124,-54,-322
-86,-37,-98,-121,-235,-233
-75,-30,-99,-203,-270,-159
-74,-28,-100,-51,-136,-123
-74,-16,-111,-21,-12,-92
-70,-1,-116,-123,-28,122
-69,10,-126,-105,7,130
-69,20,117,-7,67,42
-69,27,110,41,57,23
-73,33,108,31,-8,-56
-61,39,99,57,57,-47
-63,43,95,86,-18,-19
-62,46,92,123,-48,13
-55,63,90,-86,-11,29
-60,62,89,-27,-62,-54
-51,62,84,105,-9,-70
-54,69,82,44,-11,-36
-53,73,74,63,-115,-84
-51,77,79,98,-145,-99
-42,80,80,17,-58,-166
65,-12,49,-1714,-2498,-5174
25,-56,-31,-3504,-3682,-6123
100,126,-35,-4805,-5240,-5537
110,11,-47,-5129,-4695,-4396
-10,9,-2,-3411,-2814,-3994
-78,-84,74,-687,-514,-2815
104,50,68,2303,1799,1000
-127,87,-59,3303,2676,4611
45,-38,118,4363,3507,6275
-81,23,-88,1470,1574,5157
-69,28,122,4580,-407,4547
-49,117,125,-297,-184,1555
-104,38,113,1876,1035,1213
-42,-110,-97,2355,2387,-276
-8,-102,108,740,1316,2035
-28,107,-127,904,-5,2556
14,69,-68,1233,-826,2071
75,41,-68,1024,1038,1311
72,110,-71,2645,923,1214
114,85,-32,1998,692,1927
-78,86,-44,270,1304,2228
117,48,-95,-434,1042,1747
63,36,-108,324,690,1646
30,-38,-68,995,-138,-62
61,-87,-33,974,-472,-1656
113,-104,-39,782,138,-1249
-120,-102,-34,272,442,-252
115,-70,-14,-716,-378,352
118,-45,-21,-1532,-644,171
-114,-39,-74,-1504,-176,-13
-123,-53,-102,-424,138,-184
124,-48,-102,444,40,-137
-123,-22,-100,631,31,53
-113,4,-101,-10,112,125
-110,7,-114,-83,101,90
-105,-7,-127,411,34,-120
-99,-7,-122,685,-42,-216
-90,9,-110,249,-33,-197
-95,0,-115,158,0,-175
-79,1,-116,85,-91,6
-90,7,-119,124,-19,-31
-76,9,-124,135,11,-102
-68,18,126,49,-7,24
-74,19,122,168,-77,-30
-67,29,123,79,26,-70
-67,31,117,55,-2,-86
-66,40,115,-36,-86,-49
-64,39,116,86,-12,-115
-54,38,108,246,63,-132
-52,50,104,59,-59,-27
36,-4,15,-1186,-2202,-4960
28,58,-62,-2877,-3204,-5148
30,-58,42,-5425,-4303,-6379
-47,37,-44,-5590,-4760,-7189
-44,36,79,-3633,-4044,-4929
90,-79,-24,-1913,-1619,-3600
-68,-107,91,1507,1023,8
-103,96,-18,2528,2365,4546
76,-43,14,7082,4258,8281
-99,80,86,10515,5312,6423
64,23,-4,-4641,3260,3852
5,39,12,2645,-1329,2227
-68,-107,-83,4458,-505,-144
-49,-95,62,-349,882,-132
-29,-67,96,-275,567,1020
7,-116,98,281,1072,1515
101,-79,75,-25,1720,2728
-120,8,90,-171,1094,4012
-96,-42,108,919,509,2419
-118,-66,117,15,632,780
-108,-84,91,-384,819,1002
109,119,87,562,329,647
94,111,117,801,-254,272
106,81,124,730,-229,1
90,81,-103,-120,-436,-341
120,31,-92,676,-582,-873
-107,17,-64,700,-405,-941
-92,3,-67,242,268,-595
-108,-7,-95,-10,419,-255
-113,-9,-114,-79,99,2
-103,-9,-127,189,-40,111
-101,3,125,113,-78,-59
-96,-19,-124,670,-102,-272
-77,-56,-117,1812,257,-587
-72,-57,-105,1837,371,-301
-67,-24,-73,460,126,138
-50,0,-79,-930,20,480
-74,-4,-109,-873,-42,286
-64,-25,123,-19,7,-147
-60,-24,126,534,-91,-237
-56,1,-125,70,-141,-124
-53,8,127,-205,-74,-39
-54,6,122,-40,-69,-18
-51,12,114,66,-85,-50
-50,24,114,51,-101,-57
-45,31,112,-51,-45,-64
-47,41,108,-130,-96,-2
-45,47,104,-59,-47,-36
-39,35,97,372,61,-139
-45,67,99,-174,-90,88
-100,-128,-32,-2144,-3540,-3729
-104,79,-118,-3971,-4698,-5127
-95,-75,75,-4039,-5967,-5976
-92,8,83,-3965,-5962,-4696
-7,-75,66,-1155,-3993,-3533
-41,69,-17,-315,-1588,-2361
116,-112,124,-8,217,-166
57,83,22,271,2175,3645
-41,-77,-65,3339,4268,6186
-48,-97,-100,7344,4613,5617
-63,80,39,1380,3556,7594
85,-43,125,2333,1154,1755
-114,-24,106,2194,-188,918
-107,-88,49,-490,-8,-201
-83,-1,94,-745,-183,164
-69,-15,116,195,76,1041
-24,-7,106,225,813,1377
48,5,108,888,870,2383
49,11,119,1515,377,2360
97,-41,-118,1181,590,1990
93,-46,-94,-362,398,1641
94,-101,126,-145,536,1193
100,103,125,1030,260,769
91,82,-121,1272,231,-43
98,75,-116,598,224,-223
105,44,-96,25,-62,23
117,22,-97,91,-27,80
115,10,-99,341,62,100
117,7,-92,591,61,-94
-122,-16,-101,1109,141,-255
-121,-18,-86,918,30,-315
-112,-8,-78,206,-84,-256
-103,-24,-86,47,-85,-264
-97,-26,-97,-74,-99,-210
-92,-31,-101,86,-130,-275
-84,-29,-108,61,-88,-267
-80,-23,-113,8,-96,-240
-75,-30,-123,299,-160,-194
-74,-3,-105,12,-217,-54
-68,-2,-111,-64,27,-102
-71,-1,-121,-61,-2,-18
-66,10,126,-65,-13,135
-60,10,114,163,148,100
-65,22,107,151,19,140
-65,33,108,120,-12,108
-58,40,109,21,42,14
-51,34,100,183,39,21
-59,57,102,-172,-77,126
-55,65,93,-313,-41,34
-50,54,85,72,-75,-108
-28,4,22,-2091,-2150,-4149
65,70,-83,-2902,-2295,-5738
73,-124,69,-3154,-4227,-6679
125,-75,33,-5142,-4520,-5601
96,86,75,-5985,-4468,-4225
-16,-17,90,-2948,-2623,-3759
72,81,58,234,-1331,-695
3,120,90,1215,635,1895
9,-44,8,2624,2238,3892
-30,51,-68,8696,3722,5450
-18,86,-53,9553,3738,5465
14,127,111,976,3738,3860
-92,71,72,804,186,3712
-75,-51,-43,3075,-323,-820
-78,-128,65,-344,1040,-244
27,-44,50,-207,2427,-18
78,-75,72,106,1967,1749
111,-98,91,567,984,3572
-100,-93,106,557,-95,3618
109,-60,125,-955,-101,1684
107,-4,-122,-2302,553,-406
-107,-49,93,54,730,684
119,-101,110,1712,62,60
99,101,118,2511,-235,-459
90,73,-81,2034,-478,-519
-102,37,-53,880,48,-450
-109,-15,-64,621,383,-161
-117,-27,-75,526,216,361
-121,3,-71,-462,-59,378
-106,-27,-74,-99,-29,-442
-87,-77,-107,1239,223,-522
-81,-40,-68,582,-229,-495
-68,-25,-71,-458,-235,-175
-67,-27,-93,-792,-106,-115
-74,-31,-111,-433,-163,-77
-68,-24,-119,-74,-101,-93
-68,2,-125,-134,-103,-18
-67,13,-126,-166,-109,53
-68,22,126,-88,-93,99
-62,39,120,-119,9,108
-65,48,119,-52,-29,194
-62,59,112,-63,50,162
-62,68,103,-15,15,114
-56,68,95,127,44,92
-63,81,96,-11,-61,82
-59,87,93,-22,-2,-25
-48,85,87,86,-27,-91
-52,91,88,73,-101,-100
-51,91,89,78,-30,-141
-44,93,85,41,-36,-127
12,-77,50,-1807,-2914,-4391
-102,104,-118,-2797,-3537,-6092
-78,-107,28,-3173,-4437,-7031
111,7,-35,-4336,-5437,-5578
126,-81,96,-4943,-4207,-3607
46,63,93,-3274,-1956,-3041
39,23,-77,324,-364,-1285
-74,-48,-29,1790,910,1210
-30,59,-91,1542,1782,3411
15,-5,115,6942,3567,5283
43,-74,7,8321,4783,5939
0,-71,77,6899,4180,4128
124,-85,-45,-6762,3505,7882
52,-113,-113,2080,-39,1776
-80,124,-65,4934,334,-2753
-13,100,102,-813,-294,-395
69,-84,119,-2204,619,70
83,35,-121,-1745,636,1945
70,27,-116,-763,116,2971
73,112,-86,-1126,143,2720
-125,-98,102,-290,1115,1817
125,-69,101,736,842,1610
121,-61,97,822,349,1028
71,120,126,1479,-994,73
76,46,-97,2056,-1282,-964
109,-55,-80,2865,-500,-1304
122,-46,-57,1827,572,-872
127,-54,-37,430,736,-521
-110,-60,-54,-678,374,116
-124,-56,-72,-757,-209,312
-123,-77,-101,84,-337,-74
-86,-95,-120,895,58,-741
-114,-68,-77,349,-498,-289
-83,-26,-68,-685,-410,210
-89,-43,-92,-366,-64,-105
-77,-49,-118,127,73,-278
-97,-26,-103,-68,-239,70
-93,-3,-111,-289,-119,74
-78,-9,123,3,137,-306
-66,-14,109,136,62,-172
-87,20,117,-369,-135,424
-97,32,106,-377,-16,333
-59,37,77,-57,266,-86
-79,19,75,512,-179,-164
-94,37,104,507,-345,338
-77,48,107,353,71,47
-36,60,86,29,288,-189
-61,54,83,-63,-275,-238
-63,52,92,-138,-233,-126
-51,61,96,-173,117,-77
-17,-112,66,-1632,-2671,-5918
76,118,109,-2658,-5247,-8867
-80,34,-104,-4434,-6871,-5986
-89,31,-70,-5752,-5534,-2831
-2,-114,45,-2956,-2473,-2495
97,33,37,-905,-1205,-1852
20,52,6,2223,757,206
107,-75,-43,4273,2779,4339
-122,75,52,8223,4987,6857
-81,-4,89,6544,5037,7135
22,-4,102,-372,4521,5971
-105,125,-124,-1438,-2032,6097
105,-40,-22,4790,-508,-1271
-115,80,48,2862,1575,-566
-46,-54,115,794,2462,1339
-102,-7,-116,-2405,1344,3807
124,75,75,2090,888,1896
-72,-122,-72,4124,190,1902
-121,4,-84,308,688,1742
24,82,-123,478,321,-17
20,-47,121,2453,33,-1686
91,-88,-104,2160,183,-2116
-100,115,-19,2121,-354,-1107
-121,-94,69,496,-557,204
-121,-35,81,-1613,-387,448
127,-33,14,-2439,-425,349
-124,-77,-39,-973,-437,-51
-117,-52,-65,-703,-166,46
118,-35,-80,-945,-200,-32
124,-5,-98,-1109,-379,0
-121,12,-110,-805,-309,-39
126,15,-128,-185,29,-205
98,23,124,395,-63,-291
101,45,-114,160,-449,-97
-63,65,-123,-296,-68,29
-68,67,110,-355,245,141
87,72,118,-142,-277,136
-117,95,114,-336,-30,128
-68,102,93,-366,344,134
-90,103,85,145,-8,185
126,107,98,434,-247,17
-102,124,111,5,92,-20
-74,118,97,-94,270,52
-70,118,83,-26,107,344
-51,-124,70,4,23,328
-125,-114,81,94,-349,-28
-93,-118,92,65,-219,-342
-31,-120,85,-25,211,-201
-59,117,81,345,-165,-227
-80,120,93,290,-213,-256
-19,104,45,-1465,-1884,-5094
91,-49,-25,-3145,-2886,-6379
-119,6,-118,-5329,-4145,-7071
-93,-99,49,-6648,-4193,-5646
-97,79,66,-3137,-2910,-4393
-67,-82,-2,-1049,-1704,-1490
-78,-67,21,2240,1170,1593
-6,-30,-72,5985,3901,5099
-9,119,45,8861,4967,7490
-104,110,-18,9539,6644,3951
-56,-10,-24,4587,4403,1827
-106,-49,-12,-2851,4699,3515
-78,-75,-17,-2097,1744,2129
-63,51,96,2674,587,890
-6,-111,5,1745,1261,604
-99,-122,56,371,744,547
118,53,-98,103,-678,672
-115,49,-9,-2437,-1356,1471
-98,-14,-53,-2312,-944,1392
-121,123,-86,687,159,700
102,-70,-87,1671,941,626
82,3,-99,705,1018,612
74,-6,123,737,734,325
93,-25,-125,808,-30,-322
112,-29,-81,160,-715,-627
-128,-50,-64,-313,-525,-593
-128,-72,-77,-354,-55,-706
-120,-65,-89,-722,16,-589
-110,-67,-111,-843,-85,-271
-127,-28,-117,-1198,-254,222
-119,19,106,-1521,-99,-22
-95,37,76,-1283,-35,-401
-95,49,68,-719,-324,-452
-118,78,91,-385,-710,-162
-108,113,103,-529,-421,203
-111,-121,87,-457,113,245
-107,-122,88,-66,20,410
-91,-88,92,-37,-46,855
-86,-50,83,-626,120,697
-92,-42,75,-582,102,372
-93,-37,55,-336,208,-23
-92,-65,48,391,-46,-333
-82,-72,56,554,-210,-240
-83,-64,70,151,-169,73
-72,-48,65,-458,52,75
-77,-55,58,-336,-125,50
-72,-55,60,-32,-214,-11
-74,-49,68,8,-114,-166
-70,-49,75,-48,-85,-177
-66,-51,81,-36,-81,56
36,-7,48,-1371,-1887,-5184
43,59,-79,-2739,-3404,-5779
-24,66,116,-4596,-4587,-5782
23,117,119,-5790,-4347,-5595
78,17,-93,-3771,-3603,-4789
-82,-44,32,-2083,-1672,-3308
80,-43,-54,177,-461,-930
61,19,6,1318,1622,2110
-79,-21,92,5906,3452,5793
-88,4,1,8336,4557,7100
26,-86,77,3407,4444,4437
-94,-15,82,445,3309,4221
124,-95,104,4229,-146,1190
12,-122,-51,1017,376,1425
-19,29,81,-649,937,1230
54,-100,89,172,1348,1552
71,-61,107,-87,1634,2014
103,-64,111,62,1168,2331
102,-55,-121,-435,368,2185
60,-42,-101,-1219,-415,1011
73,-83,-115,-574,-141,619
74,108,-105,672,-79,134
78,72,-113,1098,107,-239
58,94,-78,-64,-380,20
88,97,-72,-937,-436,147
106,78,-106,-715,59,131
91,50,-126,215,234,-124
91,49,116,771,175,-262
108,63,114,462,75,-159
106,70,115,15,-149,-152
119,58,111,-19,-154,-264
123,52,113,178,-212,-299
123,43,112,514,-227,-274
-123,48,120,420,-119,-207
-113,59,116,-7,-3,-66
-116,64,111,-218,-43,61
-114,60,101,38,-82,20
-107,71,100,-7,-11,-65
-107,77,97,-29,-62,12
-117,75,96,68,-18,-125
-90,75,85,79,49,-39
-85,78,88,51,-72,202
-97,97,87,-36,33,141
-82,111,84,-213,375,-350
-63,109,75,-8,382,-407
-56,109,79,167,79,-155
-56,113,88,178,-214,54
-53,122,92,13,-143,68
-47,125,96,12,83,-328
-44,-125,97,65,88,-359
33,-4,76,-1392,-2909,-4128
-92,66,81,-2955,-4252,-5023
30,-90,-127,-6209,-4127,-7081
72,-85,122,-7062,-4210,-6237
-30,-33,-28,-4913,-2982,-4969
6,-53,40,-1001,-1396,-4396
21,20,-90,-261,-1410,-1120
-41,-46,34,1285,1002,1168
34,25,-76,3941,2011,4046
19,-125,105,10553,3822,3181
81,127,-37,5801,5493,3058
-12,-11,-104,-1440,5214,3922
39,-31,90,3137,1083,1441
-128,-127,-23,1655,609,-68
-96,-5,58,389,1787,148
56,105,-116,327,2798,554
84,112,-126,-544,2131,2177
103,-70,-90,-1745,856,3118
-113,-124,126,-456,860,2619
-111,-101,-66,-287,441,2295
-119,101,-76,45,327,1345
-111,62,-105,493,603,860
115,51,-92,303,238,449
117,14,-96,-123,97,155
114,-2,-82,-166,-158,197
-120,14,-70,-510,-153,388
-115,22,-82,-789,105,314
125,2,-88,198,-3,-78
-123,-12,-82,1292,28,-273
-110,24,-65,439,-33,-224
-103,36,-64,-457,-183,-109
-94,17,-85,-548,-162,-149
-94,10,-98,-225,-90,-274
-87,8,-111,116,-35,-425
-80,8,-110,347,-114,-322
-76,16,-107,235,-83,-221
-67,35,-107,-232,-38,-53
-70,42,-115,-319,-128,33
-63,44,-122,24,-3,-32
-61,54,-123,124,3,-40
-59,66,-126,17,14,-6
-57,71,121,-9,35,-2
-53,70,115,150,60,-14
-53,73,114,217,-7,47
-48,84,115,95,4,46
-42,92,111,-68,23,79
-47,100,107,-150,-106,102
-44,114,103,-378,-92,96
-48,106,99,41,-118,-52
-41,105,101,345,-39,-142
15,-68,81,-1155,-2600,-4533
-121,-84,-105,-3507,-3366,-6256
-41,-127,40,-1905,-4094,-7370
-30,-91,-13,-3615,-4338,-6212
114,85,121,-4840,-3957,-4189
-17,103,76,-3190,-2571,-3042
30,-22,95,162,-1340,-991
16,-111,-39,1480,-47,1381
113,-106,-67,3860,1896,3428
83,127,-113,6148,3593,6466
78,-51,-32,6587,4219,6326
53,96,82,-949,2583,3579
67,-109,74,3638,-330,855
-107,-7,-114,1879,423,-368
-107,44,-121,643,823,67
-27,-95,124,1351,1562,150
75,-83,-94,487,2154,1529
92,-107,-92,529,1593,2566
-107,-75,-81,29,1560,3105
-75,-113,-82,-17,1352,2274
-115,104,-87,2,724,933
-94,67,-103,904,580,346
124,50,-92,1567,255,9
121,54,-50,37,-183,-483
-119,15,-33,-374,-661,-227
-103,-5,-23,-325,-731,22
-87,-8,-22,-325,-464,242
-94,-3,-39,-553,-94,85
-102,-17,-65,-352,27,-81
-91,-45,-86,511,91,-285
-92,-33,-84,380,75,-146
-96,-26,-89,168,-9,22
-81,-25,-92,260,57,214
-83,-1,-94,-85,31,281
-80,0,-96,193,91,81
-80,4,-99,314,-9,-9
-67,17,-102,64,-32,-57
-71,6,-105,295,-130,-39
-63,12,-103,169,24,-110
-59,14,-111,0,19,-75
-54,6,-118,197,-49,-51
-57,19,-117,-5,-38,-36
-50,31,-119,-106,94,-128
-43,31,-124,27,23,-120
-41,39,124,-54,-127,-1
-43,47,121,-71,-43,-79
-37,42,113,88,-1,-157
-41,51,115,56,-142,-3
-30,58,112,48,17,-38
-37,64,112,54,-43,-49
55,125,41,-1821,-3193,-4935
-125,-59,-76,-2539,-3909,-6665
84,100,-110,-2164,-4609,-6512
33,26,65,-3227,-5069,-5397
67,-30,44,-3161,-5018,-3597
-63,96,1,-1576,-2417,-1906
-76,76,59,1032,196,90
-67,0,-7,2375,3524,3650
111,-39,47,5793,5334,6746
124,3,-98,8314,6252,5766
26,32,-29,-1295,4466,5467
-107,-53,107,845,662,3326
-69,-40,-22,3537,-585,-265
-37,-110,-13,165,149,803
-10,-36,114,942,-293,470
39,-61,-83,-1012,495,763
51,-89,120,-1849,728,1924
110,-67,90,-1990,1103,3047
82,-99,87,-103,209,2842
95,-105,79,1304,309,1359
87,-27,97,207,90,669
95,-95,78,207,282,-131
100,110,91,405,147,-188
110,80,107,-86,140,-183
117,89,123,-815,-90,-6
-119,65,109,-520,-15,-55
-117,62,105,-66,-64,57
-111,57,101,527,-11,-78
-111,52,105,804,-14,-26
-105,68,109,364,45,74
-100,66,106,161,-7,24
-95,57,105,270,-102,-34
-92,58,108,240,-81,-111
-87,69,111,-80,-48,-127
-84,60,107,-14,-88,-113
-79,62,105,-16,-40,-87
-74,68,99,-42,-6,-23
-69,70,87,81,-54,-65
-73,75,89,102,-87,-94
-65,80,90,29,-70,-54
-63,80,88,65,-14,-41
-65,82,87,118,-76,-30
-61,92,86,-19,-24,-16
-54,87,81,197,-17,-53
-51,93,79,137,-38,-36
-55,98,82,67,-50,-32
-47,100,76,32,-10,-28
-47,109,75,-123,-113,-25
-44,104,74,65,-42,-94
-42,113,75,-46,-57,-64
-81,24,80,-3432,-2133,-4269
-32,-101,1,-4769,-3004,-5627
20,-121,-88,-3125,-4545,-6833
14,104,0,-3187,-4823,-4982
-111,-72,-6,-3836,-2961,-2782
70,-73,-70,1149,-1059,-2107
47,-40,108,2041,1017,1064
-65,63,-9,2364,3625,4627
-99,5,18,5236,4888,7212
46,100,1,6197,4512,7414
101,117,19,2323,2676,5597
-56,73,82,2556,879,2883
-90,-100,51,3643,-448,648
101,35,-52,1766,222,-136
-116,-93,94,134,499,895
100,88,114,-309,709,1528
-79,112,-106,-611,722,2516
-106,64,-104,1368,-375,3038
-126,109,105,725,360,1569
31,19,108,862,713,-638
50,-56,-105,1222,411,-1864
115,-84,-67,1116,445,-1240
-81,-102,-44,972,574,-224
-113,-93,-34,493,252,362
-113,-89,-20,265,-132,432
-91,-92,-38,276,67,229
-102,-76,-31,8,-134,-117
-105,-83,-37,-171,-240,-425
-90,-80,-50,-487,-171,-428
-83,-86,-59,-307,-233,-367
-82,-99,-56,402,-364,-306
-72,-102,-43,1150,-141,-92
-45,-78,-56,858,453,-67
-59,-46,-66,-229,293,-196
-69,-64,-79,-360,-218,-364
-51,-94,-104,160,-192,-412
-46,-83,-100,83,-92,-269
-38,-74,-103,-2,-93,95
-37,-37,-99,-352,-190,544
-42,-14,-102,-505,-176,575
-46,3,-112,-324,-11,431
-59,14,-126,-56,65,28
-57,15,124,231,66,-132
-48,19,114,178,154,-140
-46,12,104,287,80,-91
-38,18,99,238,42,47
-37,30,96,4,-24,37
-32,34,92,-14,-105,1
-37,37,96,109,-198,-137
-33,45,104,-16,-148,-161
-86,-85,-41,-4093,-1520,-5825
-65,26,81,-5246,-2158,-7204
121,83,-115,-3043,-4216,-7334
100,109,-65,-3329,-3807,-5474
-89,5,-75,-1702,-2817,-2140
-49,-25,-121,417,79,-1432
-43,-39,106,2674,1898,2990
83,-30,-39,6011,4195,8576
14,33,7,5213,4142,5795
-58,-59,-57,3622,-1256,4743
61,33,-85,3759,691,-92
4,109,-20,454,1153,368
124,22,64,2476,2200,-51
-77,46,74,375,1847,1961
-13,38,85,-342,1286,2789
48,28,81,564,250,3437
61,20,105,700,-293,2045
74,55,-97,-174,-646,1246
114,45,124,-254,657,1957
69,74,-127,-1029,537,1833
46,-21,97,557,357,633
36,-104,108,1945,86,229
43,-81,-124,564,-122,-127
57,-93,-110,-454,-397,-11
88,-110,-108,-498,-217,-153
100,115,121,-222,226,-649
96,89,105,443,229,-871
94,75,107,778,-83,-739
113,72,118,572,-90,-606
120,78,118,-56,-67,-294
-124,96,114,-750,-126,-37
-119,80,104,-228,-190,-6
-121,87,101,24,-108,-71
-107,103,97,-78,-27,-35
-111,115,98,-262,-142,205
-122,122,99,-241,-229,200
-124,-114,109,-306,-112,270
-107,-109,99,-175,147,172
-112,-101,91,33,69,149
-88,-102,79,222,205,86
-84,-96,73,182,20,146
-88,-83,78,8,-99,144
-82,-87,83,114,-26,-246
-74,-112,79,527,-29,-329
-72,-93,85,-64,-123,-179
-65,-93,79,-326,-127,-24
-73,-106,80,-12,-173,-93
-65,-98,80,10,-62,-149
-74,-94,85,0,-95,-155
-68,-103,80,139,-55,-139
15,92,-121,-102,-3938,-8090
126,11,24,-2320,-5375,-7602
-71,44,0,-7321,-4922,-6231
-127,84,-89,-6319,-4149,-5544
90,8,14,-274,-3116,-2520
102,10,57,274,-376,153
57,61,-7,3746,3056,3473
-73,-87,108,6379,4756,5969
37,-75,-55,5452,5634,7026
-85,75,-34,4905,4091,6278
-19,120,67,445,4463,5853
-63,99,96,1258,1069,4181
99,-5,-36,11,-618,2335
90,-4,7,-1042,728,1865
29,-16,-14,884,1603,1371
-72,55,16,6831,431,274
120,45,-79,4962,-1166,-742
115,-22,71,438,-1267,-1625
-113,-54,78,-2349,-224,-677
-90,-116,3,-2483,625,-88
-103,108,-48,-1348,211,281
-104,127,-45,-182,-344,195
-96,-109,-46,698,-300,197
-100,-93,-47,763,-11,43
-102,-71,-51,-30,163,74
-105,-47,-55,-604,-116,466
-103,-64,-79,376,-93,238
-110,-93,-61,1636,-477,-206
-98,-49,-27,794,-310,-523
-84,-44,-34,-471,114,-554
-88,-55,-68,-1014,278,-491
-77,-72,-118,-838,136,-479
-71,-63,-124,-250,-261,-276
-67,-41,-111,148,-470,-7
-60,-15,-107,-117,-204,65
-51,5,-115,-366,26,223
-70,32,-121,-458,-49,443
-81,51,-125,-468,-56,236
-74,58,121,-122,5,68
-70,31,116,834,53,-278
-56,31,118,1078,128,-193
-40,42,109,330,240,-82
-45,41,103,-60,39,247
-62,55,100,-303,-167,331
-49,60,94,-151,-110,89
-52,53,101,315,-236,-83
-49,89,-120,-94,-277,97
-24,90,103,-370,370,-109
-37,80,78,-211,163,-318
-22,68,65,165,-110,-333
-34,58,-23,-1838,-2631,-5439
38,123,-121,-2895,-3755,-6608
62,-34,22,-3709,-6032,-7473
-21,123,-43,-6109,-6575,-6678
50,100,109,-4441,-3931,-6571
-87,-23,-39,-456,-1166,-4321
20,41,-10,25,-281,-512
-107,-99,6,2373,2480,5695
-11,-4,26,6107,4430,10820
-24,44,56,4614,4961,4791
36,18,74,-1051,-888,8933
16,-105,-30,2791,-258,2993
10,-40,93,5080,1825,334
-118,-97,-34,1729,787,697
-95,4,62,320,297,1809
-34,58,90,1078,1270,1954
0,59,-108,-1152,373,2383
3,71,-59,-2156,-1029,3087
41,-118,-47,-4119,-1671,3926
22,63,-86,-2170,-780,2349
35,-56,112,1939,1193,-1
47,-9,101,2913,1278,-820
67,-13,93,2462,610,-756
43,-104,104,2606,-377,-751
75,94,-122,2184,-638,-862
113,50,-99,1246,-13,-675
119,48,-91,-25,280,-356
108,23,-94,-144,-70,-196
113,-8,-101,381,-237,-187
126,-5,-103,392,-72,-164
-118,24,-107,-267,-53,23
-119,19,-118,-230,-189,58
-123,24,-120,-147,-215,-9
-114,42,-125,-351,-35,-61
-118,42,122,-195,-50,-46
-115,41,111,105,-62,-62
-112,52,116,123,-47,33
-112,59,110,109,5,98
-93,69,98,66,69,91
-85,73,91,57,-32,133
-103,96,99,-204,-189,141
-92,88,93,90,48,-121
-86,79,86,347,24,-137
-86,98,91,-28,-159,39
-82,97,91,11,-68,-64
-71,93,88,146,35,-133
-65,104,85,-63,-123,-53
-73,107,88,-86,-145,-86
-68,105,86,-42,8,-156
-62,109,77,-46,-55,-53
-47,-55,97,-1903,-1996,-5499
85,42,-18,-3222,-2423,-6602
113,99,119,-3654,-3411,-7014
-1,3,69,-5311,-3052,-6523
-55,-99,-110,-3768,-2568,-4702
125,43,53,-463,-1736,-2805
-37,-3,-20,-131,-793,-63
-84,-48,-43,1607,255,2891
-123,-29,49,5451,2516,5377
-58,-26,1,6688,2901,7064
-32,113,-76,4360,4321,4790
-113,126,-57,420,1956,5937
-112,78,-102,2905,-370,811
31,-121,-101,2814,32,-718
112,43,46,306,1607,373
-127,-99,110,-137,1595,2357
120,-64,120,-536,653,3310
-119,-39,-108,-812,492,3116
95,-37,-96,-1875,-298,1036
108,-56,115,-1540,225,740
80,80,103,1512,-104,89
88,51,-108,2665,-551,39
118,57,-65,1876,-249,-163
-114,17,-77,1069,560,-496
119,-26,-72,1054,532,-412
-122,-44,-82,768,471,-284
-123,-35,-73,-147,11,-432
-114,-44,-80,-547,-298,-506
-85,-74,-96,-21,-325,-480
-83,-61,-90,32,-298,-397
-77,-36,-98,-521,-219,-225
-80,-21,-120,-884,-270,65
-94,10,126,-1163,-541,265
-104,50,-128,-1182,-610,314
-99,68,122,-766,-358,260
-101,81,111,-21,-22,114
-97,87,107,435,81,-47
-88,109,100,93,59,83
-92,124,94,-246,-17,171
-93,120,87,-157,70,107
-82,117,71,81,111,-53
-84,121,71,151,-51,-40
-77,125,71,41,-82,-29
-69,-124,72,-77,-73,22
-71,-126,71,62,-90,-42
-65,-115,76,-36,-93,-23
-65,-108,77,-111,-109,-98
-60,-113,75,13,-95,-188
-60,-110,81,-41,-96,-173
-56,-109,78,-96,25,-172
-25,-126,97,-1317,-1812,-5052
114,95,12,-1765,-2395,-5451
-59,110,88,-3889,-4120,-6285
-108,9,52,-6512,-5106,-5277
24,-122,-117,-5160,-3349,-4838
-2,-110,-57,-2957,-2497,-3736
43,-68,-12,-970,-2135,-2102
-47,-25,92,490,-263,-172
-1,-99,12,2078,1607,2514
-104,-111,-102,5698,3785,3801
-44,113,-64,7902,4876,6047
32,58,-48,3251,4925,5859
0,-34,-51,-85,2038,4958
111,-33,61,3611,31,757
-4,-80,-71,-59,-299,962
66,-84,72,508,841,1317
79,-40,125,-399,783,3060
-113,-42,92,-246,2000,3174
-113,-23,-102,-150,-82,2728
109,-61,-102,-825,-784,1875
104,-32,-101,-1576,-564,1910
69,-92,-124,367,-72,1168
78,-95,-124,1259,202,272
65,-98,126,1171,124,-590
67,-118,-121,710,-117,-815
56,109,-116,262,-66,-1222
90,17,112,775,92,-1954
125,-16,113,905,155,-1995
-123,-28,-119,587,-162,-1145
-121,4,-82,-240,-665,231
-118,29,-100,-948,-327,708
-119,45,126,-997,-12,432
-123,60,101,-681,36,13
-116,57,96,58,-74,43
-117,83,102,139,-58,308
-121,116,100,-163,-9,299
-115,126,89,-376,-76,-12
-101,113,85,29,-131,-168
-99,112,88,202,-37,-137
-95,116,89,203,1,22
-91,127,83,-58,18,179
-93,-121,79,-121,-41,131
-93,-116,77,-148,-74,61
-90,-110,81,-116,-118,-53
-78,-108,84,-129,-8,-116
-72,-110,77,-139,-12,-109
-72,-108,74,-104,-100,-27
-68,-103,72,-124,-36,9
-69,-96,76,-74,-89,-11
-62,-95,75,29,-65,-53
47,44,123,-2157,-1033,-4845
-128,96,-8,-1346,-1851,-6597
-112,36,-119,-4325,-3748,-6369
-100,-43,-110,-5673,-4327,-5560
-70,48,-64,-3540,-3356,-4113
-14,-42,55,-899,-2234,-2862
80,74,-10,-351,-499,-442
75,-43,-40,1928,1791,2525
54,101,75,5762,3679,5542
-113,-69,-60,6501,4670,6372
38,26,108,-494,993,3207
-34,-95,75,2825,905,2320
-17,102,89,1709,142,1314
-13,15,47,2723,1187,278
65,35,-127,-311,1527,1523
96,-61,-93,-660,903,2394
-124,-36,-106,-543,712,3574
-101,-36,-66,-89,102,4373
-123,-51,-38,-201,-489,3800
-126,-79,-78,-624,448,2307
47,-98,-99,-992,603,1138
31,121,-98,-878,142,-97
60,76,-91,603,-321,-363
101,47,-95,1359,-11,-662
94,42,-96,1105,173,-959
113,-1,-104,844,297,-1382
-120,-59,-114,1410,318,-1479
-88,-62,-89,1237,71,-799
-83,-52,-61,306,-196,29
-96,-42,-58,-406,-191,370
-91,-38,-81,-482,39,533
-88,-30,-94,-88,-3,544
-85,-7,-102,-11,-72,488
-85,18,-111,-114,-88,251
-93,19,-119,-197,-127,-116
-105,20,-117,-121,-238,-93
-93,24,127,4,-68,-39
-90,32,125,-78,-68,-73
-88,34,117,-56,-104,-117
-80,42,114,-102,-121,-131
-72,42,105,-75,-72,-148
-77,45,104,9,-140,-101
-77,52,104,47,-130,-56
-76,58,103,23,-46,-76
-71,59,99,178,-92,-63
-63,67,95,88,-27,-11
-62,76,94,20,-52,77
-64,80,93,41,-30,36
-54,89,91,-31,-15,2
-51,95,84,-89,-43,-55
70,-70,62,1639,-1239,-6323
90,-56,84,2369,-2384,-6787
85,82,-62,-3216,-3079,-4976
103,72,-78,-5055,-6493,-4886
-25,-82,-30,-4901,-7130,-3687
102,-26,25,-3062,-5168,-3332
32,-48,-26,-1359,-2761,-1967
-90,-27,120,-51,-1021,-100
-55,-70,42,565,1689,2200
53,-49,-94,4149,3166,4977
114,27,-110,8853,5291,7952
117,-126,-59,3620,4848,5622
-56,118,65,1928,2101,4112
122,21,-116,5593,-1155,731
41,23,51,450,-213,1252
71,34,-67,-1163,1059,1381
89,-75,-78,191,1005,2205
114,-81,-49,-532,542,2693
81,104,-36,442,6,1744
-76,106,-69,982,1073,1317
114,-127,-55,1465,193,1094
104,-102,-38,904,215,304
111,-98,-30,106,468,-140
96,89,-52,3,181,-773
-125,-15,-64,1200,174,-1507
-92,-35,-31,1097,141,-959
-99,-12,4,190,-136,-166
-52,5,-7,-562,143,140
-67,-39,-38,462,58,-81
-68,7,-25,20,-99,-34
-63,5,-25,21,-154,-224
-47,8,-34,-131,-182,-170
-32,-4,-37,453,-183,-215
-50,31,-22,4,66,-218
-28,29,-45,-107,82,-182
-45,43,-54,-286,-210,-66
-24,45,-74,-245,1,-351
-29,47,-86,-51,-228,-114
-33,56,-83,216,-232,-101
-44,66,-79,215,-66,-97
-45,84,-88,11,12,-96
-33,92,-100,170,-99,-102
-16,99,-107,-7,-88,70
-15,87,-107,278,-42,-172
-2,70,-126,472,-53,-268
-14,88,-102,64,-327,169
-53,114,-80,-624,-143,196
4,91,-124,8,281,-117
9,83,121,505,-59,-113
-37,-127,-99,-190,-223,-12
-61,-43,74,-813,-2833,-5020
95,89,-10,-2221,-4383,-7541
104,71,3,-2921,-7536,-6564
-72,-57,-66,-4993,-6946,-4547
53,-31,-110,-2978,-3952,-3047
-105,-19,52,-617,-2108,-462
80,94,79,1377,1471,2371
2,16,-96,6150,5790,6214
64,28,125,9918,9557,7316
16,-38,-58,212,4696,3991
34,-109,27,1578,2231,4088
-67,109,75,3807,-78,1286
62,41,-54,38,-463,622
110,-29,70,-463,43,1467
94,-62,107,-1380,749,2149
123,-79,121,-1076,960,1761
-115,-109,-105,188,10,1828
-83,82,-85,922,496,1154
-113,-117,-65,-53,37,1436
-83,49,-65,690,389,675
-128,87,-68,-476,192,1469
117,78,-86,-693,-172,1008
113,-10,-127,902,75,408
93,63,-77,146,-365,204
110,-4,-87,967,-9,-554
120,-58,-63,1378,406,-1366
-98,-35,-44,708,722,-1259
-72,-52,-57,827,371,-707
-60,-61,-29,620,-563,-509
-33,-49,-27,-7,-268,76
-41,-65,-39,-115,-101,-33
-35,-62,-53,94,179,-2
-35,-63,-67,298,121,-71
-33,-54,-65,395,116,-253
-15,-35,-64,-9,241,-114
-9,-34,-78,161,-21,102
-29,-31,-69,221,-46,19
-11,-15,-74,9,222,-97
-11,-24,-85,216,-127,-70
-17,-3,-76,-121,-292,9
-10,0,-80,-148,-117,-139
-12,-6,-85,204,-84,-121
-10,21,-90,-114,-25,-61
-6,26,-102,-158,-42,6
-5,33,-115,-273,44,34
-6,23,-127,182,-128,-165
-2,41,-118,46,-106,-30
-9,42,-116,-33,-212,-80
-12,49,-110,-65,-179,166
-2,75,-125,-200,58,48
58,-122,-20,-723,-2926,-6519
118,36,-65,-3928,-3708,-6725
79,122,49,-5301,-5388,-7088
-111,23,-32,-5312,-5488,-5796
-55,86,9,-4052,-4138,-4665
62,-109,125,-1150,-2722,-2924
-37,-72,86,769,-73,-891
44,-105,57,4257,2840,4245
-39,7,-105,4785,4673,7946
-22,-46,64,7688,5312,8889
-75,-72,23,2748,2470,5962
-114,-13,28,4615,47,2406
-67,108,27,2147,270,-650
-63,-79,6,1791,423,-195
-1,83,-97,-179,1436,162
33,38,-51,-1717,984,1923
39,-90,-51,-108,337,2821
-98,55,-119,1748,1090,2918
-78,111,-101,1025,1075,3114
-81,71,-124,2285,1157,2188
88,107,-88,-81,482,921
53,60,-96,20,-168,230
84,9,-80,809,-366,-138
72,20,-69,433,40,-284
85,5,-77,-27,289,-575
82,-6,-90,-383,61,-597
87,-10,-98,-503,-240,-724
125,-31,-111,-80,-310,-962
-116,-48,-94,490,-449,-1008
-122,-50,-84,525,-347,-840
-115,-28,-75,-242,-275,-367
-91,-23,-85,-434,-154,94
-90,-12,-99,-199,-125,191
-100,8,-103,-204,-46,176
-109,23,-109,-196,-61,134
-91,40,-125,-213,105,-6
-58,38,110,19,265,-230
-27,16,84,563,194,-507
-50,6,103,844,-179,-235
-75,21,-118,473,-244,185
-74,40,-109,-91,122,309
-57,42,-120,-152,102,367
-52,51,-125,-89,-12,434
-64,65,124,-56,-33,275
-57,76,119,-151,31,13
-50,67,110,111,42,-146
-56,58,108,292,-14,-96
-50,73,115,-34,-119,189
-53,101,114,-575,-133,422
-71,110,106,-524,-20,185
117,75,63,-1906,-1589,-5674
-60,106,-77,-3529,-2141,-5497
125,127,6,-3835,-3476,-6397
37,-56,-4,-4351,-4792,-6850
-81,-71,-128,-3993,-4339,-7087
71,92,96,-2257,-1927,-5368
-83,-103,-15,-130,-302,-2045
-10,-51,-52,-1384,833,341
119,24,16,1778,249,3103
48,-31,91,6417,1960,6371
73,-55,-39,7987,3596,11541
-46,-108,-76,2832,4021,5598
111,-23,-72,2335,2403,3662
-33,76,-99,5304,-1791,-184
-126,-75,-125,496,-1026,652
-6,-107,-69,482,1832,1696
1,90,-94,-3694,2191,4689
-2,43,104,-2359,431,4528
95,-29,102,568,95,2533
105,-12,-106,1644,-641,1447
86,-72,119,3035,24,256
8,123,-123,3740,-24,-466
26,55,-123,3018,614,-1181
67,-30,-86,3120,570,-992
56,-47,-30,2472,172,-197
49,14,42,-887,-213,487
66,45,11,-2896,-388,447
107,7,-103,-2785,-90,-280
94,14,125,-1978,-375,-857
56,19,-105,-881,-916,-1272
91,-27,-108,1069,-603,-1462
-118,20,-81,497,-450,-462
68,92,-70,-929,-327,444
86,92,-98,-1515,-87,93
-113,86,114,-790,314,57
-119,94,107,81,-73,-65
75,91,-121,628,-519,-292
100,115,-115,145,47,-64
-110,-112,120,-747,345,456
-100,-85,98,-741,-152,976
91,-74,117,-281,-447,673
-111,-84,96,160,292,-89
-84,-96,82,721,333,-485
-94,-109,89,826,-289,-518
-117,-121,-120,449,-578,-238
-102,-116,-115,-53,107,112
-97,-109,-121,-186,336,289
-85,-104,119,-68,191,334
-46,-96,98,-15,258,166
-55,-99,94,169,-36,42
-113,19,118,-2422,-2700,-3361
-105,67,18,-4853,-3180,-6496
-72,84,16,-3357,-4728,-7385
83,-122,67,-4925,-4004,-6312
-112,14,71,-2786,-2723,-4767
37,-51,0,-1739,-2040,-3126
-12,70,-44,-176,-501,-820
39,59,-35,3094,1668,3360
23,84,75,6252,4385,9600
38,-20,-64,5195,4992,16855
37,-71,-9,4628,-395,11421
-102,-43,91,4954,-385,6513
-61,25,-61,-687,-374,-220
-51,-28,-116,3344,-1909,-359
-3,18,-117,2965,-1252,64
-78,-81,-94,-264,379,-993
74,-90,-89,-1907,-311,-1948
-89,71,118,-180,-1325,-1697
-123,37,-88,2227,-2391,-178
9,-67,1,4188,-2139,368
77,-6,-25,3308,1301,685
68,15,-75,651,3151,-162
34,65,-71,-1961,2062,441
29,-13,-76,-1031,-620,-32
104,-69,-85,1280,-1274,-269
37,-43,-53,1820,-810,-35
77,14,-57,-338,506,-373
114,26,-104,-1737,719,-715
95,-10,-116,-873,-423,-954
123,-45,-112,445,-1020,-1339
-118,-57,-90,822,-861,-1390
-115,-37,-73,186,-476,-665
-126,19,-81,-1228,-80,242
101,8,-93,-1091,-401,60
-104,1,125,-120,-13,203
126,43,-125,45,-146,518
111,83,118,-444,-62,444
-106,117,88,-776,121,444
-105,100,85,1,-159,198
-124,95,105,734,-500,114
-118,111,-113,653,-338,188
-108,-119,-116,-128,168,426
-121,-127,127,-116,307,231
-81,109,94,252,448,-12
-68,123,88,141,374,281
-123,118,74,200,313,135
-76,102,56,238,224,-304
-53,91,52,473,-43,-394
-61,63,84,746,-635,-478
-66,59,112,671,-620,-238
104,-82,-60,-4340,-2628,-1688
-105,116,122,-2885,-2400,-3928
-63,-63,64,-4216,-3535,-3505
-105,-27,1,-5546,-4262,-4245
119,47,3,-6110,-5301,-5487
-1,55,-68,-7485,-4995,-5203
94,34,71,-4224,-3980,-4553
-2,-54,-3,-2718,-2232,-3258
51,27,-108,1588,357,-632
-38,64,-47,3163,1026,3783
-85,18,-78,5646,3160,6399
-99,123,38,6963,4143,3891
113,108,-108,6105,4887,6207
61,-108,-59,4755,5292,5022
48,-4,-44,2369,3399,7669
115,-95,38,874,200,3541
-97,-24,76,1203,888,411
-35,-3,87,-374,805,11
127,37,-77,-1517,-1383,-310
-56,24,-94,-1347,-1389,-380
-44,95,-83,-467,-1080,1729
125,44,-108,1239,-598,1575
69,69,-106,324,-170,314
24,-25,88,792,357,-1389
62,-98,70,1806,273,-2008
88,121,94,1902,-189,-1511
72,110,-119,1029,-669,-400
55,103,-85,20,-459,219
65,95,-110,-337,258,519
108,118,-126,-617,458,676
90,-120,113,-384,213,755
85,-119,87,24,192,74
115,-126,81,314,85,-619
126,123,81,404,-166,-653
127,118,102,247,-459,-679
-121,111,108,84,-311,-673
-111,110,113,-200,-155,-499
-114,111,112,-257,-192,-147
-121,122,115,-245,-229,63
-126,-126,110,-150,-8,41
-94,-116,99,-199,131,136
-91,-98,94,-336,-42,501
-118,-84,88,-237,9,418
-88,-82,75,-2,226,114
-77,-75,62,147,5,11
-79,-80,66,238,-251,-292
-72,-89,81,326,-247,-364
-76,-91,92,181,-155,-274
-77,-91,100,21,-122,-104
-74,-90,100,-88,-34,68
99,29,22,-2443,-2216,-3564
54,-113,-29,-3630,-3148,-4202
73,27,121,-3535,-4050,-5623
22,-47,-18,-4697,-4803,-5156
-108,-5,37,-3858,-4132,-4005
14,-19,-77,-2033,-2379,-2297
-65,76,106,-459,-1160,-1209
-124,-64,-46,1233,543,766
6,65,127,3471,2193,3800
-67,56,106,3788,2904,5604
66,-66,66,3438,2176,6773
18,46,-31,2458,1570,6825
57,68,-98,5698,2470,5435
-75,25,-72,3233,496,2289
-73,-12,17,-403,-1437,-236
-50,59,-112,3628,147,-937
-17,121,-105,416,265,-755
12,-59,-114,1204,172,-166
35,-81,-114,838,631,-582
68,-104,-63,42,747,-795
110,-115,-51,-535,477,770
-125,105,-70,-67,196,1805
90,47,-45,285,-1117,2019
82,51,-50,-662,-1089,836
93,60,-85,-1133,-205,35
121,35,125,-552,603,-765
122,9,120,567,351,-1060
121,13,-114,826,-146,-563
126,22,-104,641,-70,332
-116,46,-115,-56,277,702
-109,69,113,-545,244,702
-120,70,103,-183,-285,406
-116,85,98,72,-74,158
-110,92,105,223,120,-214
-98,85,98,236,-89,-316
-99,78,104,260,-298,-276
-93,78,108,96,-203,-304
-84,68,109,209,-188,-360
-83,61,111,417,-277,-286
-83,81,116,21,-6,69
-89,89,119,-329,-27,67
-58,85,96,-191,36,120
-71,94,93,-45,-48,317
-98,108,82,-209,67,169
-66,113,51,-118,85,-127
-65,99,56,519,-295,-157
-59,111,81,436,-297,-353
-69,108,100,200,-141,-397
-49,96,98,229,59,-136
-56,94,98,173,-92,76
-69,-38,85,-3146,-2085,-3354
54,122,122,-3013,-2811,-5200
-53,110,-60,-3748,-3619,-7640
43,81,-56,-3010,-4442,-6098
-2,18,-47,-4650,-4301,-4788
99,-77,-72,-2707,-3412,-3672
-14,-12,71,-138,-1464,-2084
-42,-105,69,2156,956,1362
92,-47,5,1930,2893,6018
74,39,113,3397,3808,7432
122,-73,30,5644,4227,6335
-96,21,-106,2804,2881,6685
92,29,-62,2293,569,3817
102,12,114,2695,-145,294
37,-49,101,2011,116,-91
71,59,-119,553,-279,544
96,-69,-100,44,341,403
-127,47,-105,651,836,617
-100,41,-106,461,683,1233
116,36,-94,186,366,1644
-110,20,-86,315,304,1637
-127,30,-81,386,116,1315
119,36,-95,265,186,598
112,0,-99,864,12,-316
111,-36,-82,1467,-282,-767
-113,-33,-61,936,-159,-690
-103,-14,-58,-490,-56,-466
-95,-29,-87,-936,-217,-434
-91,-44,-102,-351,-504,-429
-83,-29,-106,-332,-482,-461
-78,-3,-106,-551,-443,-465
-76,-5,-115,-328,-364,-419
-78,11,-115,-415,-295,-329
-78,25,122,-418,-187,-188
-86,31,117,-217,-233,-51
-86,37,115,105,-92,160
-79,59,115,0,64,406
-79,76,110,-59,57,580
-70,101,94,-140,123,465
-72,99,85,94,78,171
-72,94,81,414,17,-10
-66,97,85,347,16,-4
-62,102,87,62,29,67
-55,97,75,114,38,-6
-58,91,74,278,-107,-102
-51,104,76,-32,-98,-133
-48,101,77,-142,-161,-82
-49,98,79,-11,-183,-108
-44,98,81,144,-89,-170
-43,103,79,52,-121,-122
