AccX,AccY,AccZ,GyroX,GyroY,GyroZ
22,-120,25,-963,-2351,-5833
-75,-97,-128,-1667,-4919,-5671
-106,-22,-27,-2176,-4540,-5647
49,66,36,-1517,-4272,-4765
4,66,24,-1339,-2298,-4261
-90,57,62,-114,-1773,-2534
98,109,116,-237,-380,-688
41,-49,105,-4,698,86
-95,-33,-10,680,737,448
13,-46,51,421,1501,1146
-9,-39,-20,674,2463,2893
87,18,51,284,3957,3954
-121,-106,106,210,2787,6332
-36,25,-25,1346,2780,7119
50,43,11,648,1809,8055
71,119,-114,870,-58,5521
-5,105,125,3753,355,2716
30,9,-98,3227,1011,2005
110,-43,-110,3048,1238,-271
-10,-58,-65,3799,1042,-235
-37,-112,16,1060,180,-353
34,-34,68,-103,-402,-593
52,-77,62,-271,-418,-415
74,-69,43,-640,45,-37
73,-54,14,-869,45,157
75,-50,-15,-459,94,121
82,-50,-42,190,207,42
72,-35,-40,404,73,11
82,-17,-43,134,171,66
85,-8,-62,122,294,103
89,-4,-78,307,259,117
92,15,-88,263,191,119
97,18,-90,270,194,-19
93,21,-96,306,176,-131
111,27,-103,251,202,-165
110,33,-102,121,98,-83
119,38,-107,79,220,-90
121,44,-121,112,214,-146
122,48,127,231,117,-198
-120,55,124,197,146,-204
-117,56,125,324,176,-204
-106,48,124,682,301,-248
-101,67,126,357,339,-138
-99,81,121,-143,178,-76
-89,80,113,-33,221,-146
-89,81,104,151,235,-301
-83,77,105,442,228,-335
-79,82,105,437,234,-277
-72,95,106,52,189,-114
-72,99,104,69,116,-41
-117,116,20,-1601,-2661,-5392
94,4,-1,-3145,-3384,-6701
-25,-78,-124,-1366,-4124,-7221
70,30,-127,697,-4459,-6506
53,64,-51,518,-2367,-2509
-83,31,-67,-460,-147,-597
-61,-68,8,517,510,377
111,30,-23,1019,859,237
41,-71,59,1426,1795,1761
22,-116,-31,2099,3334,3078
-94,-10,-31,2093,4344,4337
-19,-65,-31,917,4007,4935
20,85,-68,342,4084,6050
87,23,-61,184,2260,6841
-8,13,-59,2040,2125,5922
-80,-68,-40,3802,1582,3706
-101,83,8,4280,1596,2080
41,106,-103,1574,373,775
112,-11,-23,-916,-752,-575
8,-12,-17,24,-532,-1302
72,-121,-6,1851,342,-1483
82,113,30,1921,681,-1164
97,112,46,1330,544,-542
118,-100,75,-74,426,-52
119,-118,55,-266,-148,222
121,-113,39,-144,-306,306
112,-96,16,-241,-69,156
109,-83,-15,-258,230,127
99,-80,-40,28,175,-204
110,-77,-48,429,245,-249
118,-49,-55,148,234,-185
125,-41,-77,-33,160,-201
120,-49,-89,51,49,-230
-126,-44,-94,153,107,-55
-124,-24,-108,217,211,-84
-119,-11,-114,123,126,-196
-116,-8,-120,252,94,-145
-119,5,-118,269,132,-75
-106,19,-128,-4,270,-109
-113,23,121,45,124,-28
-110,45,112,-185,152,-51
-106,52,99,-342,110,-23
-103,64,89,-202,31,-8
-99,61,88,394,188,-159
-102,84,92,204,208,-190
-96,91,85,113,146,-121
-90,93,82,222,211,-167
-89,99,76,188,214,-191
-84,102,69,177,147,-181
-85,107,69,168,96,-179
88,98,-87,-1106,-3292,-4575
-68,48,50,-2057,-4670,-4937
66,67,56,-2790,-4393,-5544
34,-4,-17,-3092,-5294,-7651
-30,-19,-68,-3353,-5085,-6340
90,30,123,1147,-2013,-3110
-82,-113,-53,139,43,79
-42,-39,-14,849,1383,1713
-78,-5,81,1359,3290,3952
37,-40,72,2252,4089,5350
116,-39,80,2318,4595,6031
-57,5,20,2691,3512,7033
32,14,-11,1361,2422,7609
-86,54,-94,1447,959,7502
-85,-91,-8,3456,1224,3227
88,71,67,6091,2587,3254
77,2,34,2020,146,2927
32,-119,-119,-3135,-1209,-1647
-62,-116,107,23,477,-3378
118,-57,87,4104,943,-2827
82,-60,-107,3993,130,-2241
107,-36,16,1804,-326,-1235
-106,-5,58,-753,-622,-590
-86,-79,26,-610,-238,-634
-81,-121,-11,40,-161,-64
-107,-96,-4,-211,-18,523
-120,-79,-31,-298,346,991
126,-74,-85,-48,810,1005
-124,-44,-93,7,518,868
-111,-18,-102,146,230,729
-128,-8,-108,508,-26,236
118,1,-102,407,75,-289
-118,4,-118,22,277,-559
-104,2,-122,-126,161,-451
-119,-8,119,197,232,-356
-118,14,124,82,490,-495
-90,30,113,201,592,-337
-86,37,108,350,167,-152
-76,39,102,349,-90,-108
-84,43,105,131,241,-536
-54,65,119,86,723,-584
-40,100,118,-53,562,-37
-43,110,118,110,-22,-58
-49,107,111,189,-220,-425
-38,113,112,11,-50,-392
-49,98,103,218,48,-399
-44,103,105,246,104,-231
-38,124,103,-105,201,-63
-50,-125,94,39,94,8
-50,-120,88,137,72,-112
-85,25,36,-548,-3101,-5796
108,-84,115,-176,-3443,-6727
65,46,75,-2789,-6135,-5718
12,116,49,-3767,-7324,-5643
-128,93,-85,-2155,-6019,-5676
-28,111,-39,-123,-3927,-4262
-69,-36,43,-449,-2397,-1768
-92,-115,-114,1395,810,210
42,35,-17,1241,2793,1689
-7,112,41,2160,3788,2910
-27,109,-24,1239,5024,4005
-34,-37,35,1942,5074,4363
6,-96,85,2286,4116,5509
6,116,106,6,4664,3158
64,-125,84,1971,1838,5265
13,34,-100,1999,4096,1642
127,102,-42,3125,3853,3452
-20,-62,0,4580,4528,4491
-53,89,-125,3627,2706,2669
-41,32,48,652,-1510,-552
17,-35,83,-746,-2228,-1487
112,-66,63,-1066,-960,-1216
-124,-97,27,-929,7,-790
112,-111,-8,-827,205,-361
94,-75,-26,-1216,-530,142
91,2,-25,-2105,-1089,394
98,23,-89,-1953,-468,-81
78,13,-103,-904,157,-600
84,11,-116,332,431,-542
80,33,-107,766,96,60
85,68,-104,554,34,472
105,88,-116,385,260,485
114,105,126,90,429,460
107,102,107,315,292,302
112,104,94,515,208,97
112,106,91,490,98,-62
96,104,85,454,-187,-391
115,106,72,457,65,-246
113,113,84,278,47,-81
106,115,102,3,-63,-376
117,117,98,-97,85,-394
121,106,84,74,71,-485
124,109,67,260,12,-404
-121,126,64,55,151,-77
-126,-120,57,-77,124,-31
127,-121,55,192,38,-156
-122,-120,56,455,194,-81
-105,-96,53,167,262,-87
-119,-101,48,224,112,-137
-110,-92,45,79,76,-143
14,100,88,-894,-2108,-5194
-88,-102,10,-1077,-3034,-5397
110,-34,-84,-1280,-4852,-6177
-125,39,60,-693,-5395,-6407
-64,41,126,263,-3354,-4138
-67,36,-127,61,-305,-1475
-56,-71,115,-243,717,123
25,-22,86,731,1003,226
96,-11,-59,994,1277,463
125,-62,16,989,2446,1561
28,78,115,-129,3311,3131
89,-69,-115,24,3784,4112
-66,-106,63,1427,3561,4877
71,84,-24,-391,3121,5648
106,3,-46,-421,2540,5464
-52,-3,-37,1665,1593,4858
68,-45,55,1450,1396,4018
96,77,115,2990,1578,3223
-34,-2,-86,2383,2465,2965
15,-82,1,564,894,100
-22,0,60,1357,-1447,-1008
109,-80,74,1141,-1130,-884
117,-74,67,293,126,-723
113,-104,75,273,100,-668
-124,84,70,1940,106,-995
-116,70,81,2314,206,-975
-86,-122,124,493,306,-437
-78,-117,90,-812,346,142
-92,115,39,-715,318,121
-98,107,-6,-33,214,168
-99,120,-16,485,224,141
-99,-102,-15,251,190,171
-96,-73,-33,-133,186,92
-100,-75,-51,-33,100,-30
-108,-58,-56,-118,-159,-23
-95,-54,-59,91,-10,-151
-92,-45,-64,239,135,-181
-92,-19,-76,-139,119,-165
-87,-18,-89,-59,191,-158
-84,-26,-104,378,238,-239
-86,-6,-109,343,58,-160
-88,5,-110,140,105,-185
-75,6,-118,176,255,-190
-79,15,-128,151,119,-81
-76,26,127,110,176,-55
-69,33,120,199,285,-119
-68,46,112,166,166,-72
-68,55,109,131,183,-131
-64,60,104,175,234,-166
-62,67,98,166,188,-128
-91,-82,118,-3191,-1134,-4257
6,75,-4,-68,-3595,-4358
-47,-3,-35,-1538,-2947,-5316
-115,14,-89,-179,-4725,-6166
103,-55,-88,-1701,-5272,-6555
-119,-84,-94,-238,-5500,-5995
36,105,98,622,-3784,-3724
-41,-9,-123,355,-1131,-1960
9,124,57,-244,361,435
-100,-3,-47,49,1267,825
-96,87,-122,851,1608,896
90,103,82,707,3226,1875
64,-73,-73,-1116,5017,3692
107,-14,-44,-662,3563,6742
127,82,-10,-2341,2678,6327
-78,93,-90,376,949,7020
98,-36,-23,1869,1083,4758
114,-14,63,4345,1721,5106
-51,-77,82,-627,2081,4795
103,111,-114,-969,493,4531
-117,-115,-38,366,-1520,464
-34,-51,-39,1974,-1211,-2777
78,105,-86,2468,500,-1899
60,75,-59,1973,703,-758
50,39,-58,1202,388,-582
52,-15,-49,880,-266,-874
70,-48,-34,894,-445,-278
99,-5,-23,-169,-213,101
89,-20,-46,-390,-28,-217
92,-22,-65,-108,159,-256
93,-12,-84,185,170,-262
98,14,-97,165,159,-92
97,53,-120,-208,182,-62
88,55,-123,-155,98,-231
101,53,125,152,191,-265
113,67,119,285,224,-166
120,76,114,227,191,-205
123,85,112,123,125,-199
-128,84,110,259,135,-209
-124,87,112,315,179,-205
-116,94,110,270,192,-123
-115,97,106,379,163,-86
-109,107,105,264,214,-103
-105,113,94,178,204,-141
-98,116,85,109,136,-158
-106,117,92,201,21,-150
-91,114,96,424,235,-183
-87,125,93,275,229,-119
-85,-124,87,164,149,-96
-84,-123,86,195,203,-185
31,93,32,-1240,-2759,-5067
-1,3,84,-2553,-4104,-6088
-47,-62,33,-2919,-5142,-6224
-60,98,13,-1751,-4446,-6305
-91,24,-121,755,-4061,-5931
-78,-81,-56,-830,-2553,-3057
115,111,1,-12,151,-485
-23,-85,-87,127,1240,1349
72,-66,-2,491,1068,1191
-20,-46,-19,671,1963,1859
-34,-23,-91,807,2892,3983
-3,60,-51,493,3132,5130
6,-6,36,1194,1881,5974
86,-107,37,542,1457,6204
-121,65,1,952,346,5583
-109,93,60,1601,701,5704
-17,123,22,5446,1008,2296
-104,-94,23,3730,2228,4259
-101,-18,-119,-813,2391,2309
-61,-34,-40,1366,-422,146
-55,78,-20,2199,-1389,-1673
43,-7,-3,1984,-799,-2304
98,-46,-13,1596,472,-1628
80,-87,1,1023,458,-962
67,-77,28,119,-242,-122
95,-101,-7,19,99,199
95,-78,-29,-119,354,296
87,-59,-49,-259,275,95
90,-54,-70,88,75,-158
92,-55,-70,440,5,-215
104,-30,-70,287,144,-46
101,-14,-73,10,215,20
111,-9,-88,100,259,-34
110,-3,-103,314,208,-167
123,1,-112,336,257,-326
-128,5,-119,262,198,-273
-119,1,-127,353,165,-227
-126,9,-123,281,137,-171
-121,21,-124,103,212,-131
-110,21,117,232,222,-189
-108,28,113,280,92,-147
-102,43,115,135,159,-116
-96,45,107,240,218,-123
-100,49,106,319,122,-134
-87,65,102,179,217,-179
-87,62,99,280,164,-205
-81,69,97,212,189,-212
-78,72,92,227,201,-219
-77,75,88,210,188,-180
-75,80,83,169,180,-160
-10,34,45,-1522,-2541,-4407
-84,-109,-30,-2174,-3414,-4455
87,-111,-16,-1922,-3582,-5703
-32,-48,-121,-2803,-4227,-4815
-28,88,46,-723,-3419,-5210
-27,-42,124,-402,-2437,-3224
-54,94,108,-220,-256,-1776
97,68,-93,-543,807,370
104,-37,-20,85,1251,375
98,-30,-68,1485,983,1249
35,-94,-46,1570,2328,1850
46,119,100,2478,2875,4639
-121,110,-86,130,3886,4832
-62,-5,-15,1515,2377,7556
45,-81,49,-388,2720,6120
-47,-123,-118,3392,803,6484
-80,-68,-58,5215,2325,2743
69,-101,13,3544,1898,2686
31,-117,-119,-768,591,2594
-88,-71,-59,-1728,-699,255
-37,46,-102,-15,131,-2027
59,-28,-110,1602,687,-2071
67,-29,-97,1919,464,-1452
65,-28,-60,1405,-103,-746
91,-20,-35,264,196,-798
107,-9,-47,-608,130,-415
116,-8,-57,-581,-249,-86
115,-6,-74,-147,-228,-39
118,-3,-82,231,45,-225
122,16,-87,225,197,-86
120,26,-99,222,203,76
113,32,-105,277,132,74
125,50,-119,115,292,77
126,60,-128,32,262,183
-124,70,111,57,285,153
-123,77,101,149,226,-171
-120,77,97,326,121,-366
-112,77,99,312,97,-359
-107,81,105,214,84,-270
-101,81,103,216,148,-211
-100,89,104,188,114,-183
-93,94,100,165,174,-174
-93,97,97,202,177,-157
-91,101,90,302,170,-131
-88,109,90,272,161,-132
-78,117,86,190,215,-117
-82,119,82,234,164,-135
-74,121,81,264,198,-155
-70,126,79,239,212,-162
-71,-127,76,234,166,-165
-22,-111,-63,-138,-1422,-6750
119,-103,105,-1601,-3632,-8250
4,97,69,-2399,-3026,-7468
-105,-46,-61,-1423,-2929,-7788
122,-54,114,188,-3237,-5799
85,-127,92,-1024,-2283,-2348
11,-95,-12,937,-359,-727
26,74,44,681,248,1567
-21,-66,-22,771,1494,1193
21,6,-31,1246,2112,2094
-12,14,99,1459,4082,2798
67,76,-52,1351,3230,5767
122,117,77,-1295,3098,5998
-70,-52,-28,570,1581,6031
25,-117,22,1751,1742,4402
98,103,114,1985,904,3667
-111,-99,-76,-530,773,2290
111,-26,-74,1066,564,3158
74,17,-62,2559,779,1496
40,22,-37,2118,643,1050
-9,-8,-16,863,92,842
8,106,-1,1164,-511,-43
52,37,-4,1266,-131,-760
80,-21,-4,1255,299,-439
76,-41,6,883,143,-504
85,-55,8,305,-3,-642
113,-54,-14,-320,45,-301
113,-53,-36,-492,13,-72
105,-48,-59,-259,-50,21
117,-43,-72,80,158,2
110,-32,-83,300,133,-79
118,-10,-97,323,232,73
111,4,-99,164,33,-11
119,9,-112,307,141,-115
121,15,-117,379,194,-90
123,30,-119,226,192,2
127,33,-122,209,178,-117
-123,34,124,354,250,-191
-121,38,119,299,200,-250
-114,43,114,218,159,-203
-112,44,113,152,124,-213
-99,50,107,186,221,-138
-103,57,104,132,112,-147
-95,62,101,173,172,-182
-89,68,96,216,173,-228
-84,72,91,225,214,-166
-87,76,89,200,168,-221
-77,81,84,224,163,-200
-73,86,84,211,203,-174
-72,89,83,253,184,-210
-128,26,102,2384,-2104,-4577
60,-93,-44,257,-3711,-4732
-19,58,-119,-1912,-4143,-3994
-100,124,-120,-1497,-5349,-3890
60,-9,-11,-2550,-6031,-3436
-13,20,23,-2534,-6283,-3642
29,43,-95,-496,-4114,-4077
63,-101,64,-299,-1828,-1956
-110,-80,-70,-956,-100,37
-110,-113,43,507,675,118
15,20,18,324,721,-139
64,36,17,934,689,207
-75,0,67,1041,1755,97
-30,-97,-24,1315,2887,1265
77,-49,80,575,4271,1964
-30,-47,-60,1174,4369,4222
21,54,-1,-2641,4925,4760
43,-43,-126,1583,5349,2998
96,-2,51,2132,4612,2126
22,-89,39,-2080,2670,5049
-86,73,59,2221,2047,2235
51,-44,-40,2347,2393,3705
-42,-22,-31,830,1508,2396
13,-100,11,-816,55,1034
-12,33,22,347,-553,-198
98,-108,57,2649,-254,-340
106,-96,-121,1633,-148,-315
110,-95,126,228,456,-393
112,110,88,461,589,-277
120,95,86,998,192,-305
-119,119,107,498,-59,-157
-108,116,110,-2,-43,-147
-103,-126,84,-379,115,-81
-94,82,46,685,191,-329
-111,91,68,1249,107,-285
-97,-102,75,188,262,-2
-85,-103,35,-368,349,-9
-95,-126,6,118,120,-198
-93,120,-6,581,184,-260
-89,-110,-6,139,198,-175
-84,-107,-28,179,160,-81
-82,-100,-35,168,187,-149
-77,-86,-44,19,138,-136
-76,-82,-57,127,89,-179
-70,-82,-61,367,190,-230
-68,-68,-65,251,197,-225
-60,-63,-80,280,183,-177
-62,-54,-89,174,124,-171
-59,-52,-98,229,159,-167
-58,-37,-106,155,165,-122
119,126,84,-999,-4089,-3870
-54,-103,41,-1464,-5327,-4105
100,9,-78,-1797,-5982,-3219
96,-6,9,-2044,-4826,-3235
-102,-58,97,-151,-3669,-1748
124,-29,-79,-2152,-1054,-371
17,-123,-106,-627,411,-290
-83,-105,83,575,917,284
96,-62,74,1685,1685,867
-61,-37,45,2254,2379,1852
57,61,-51,1101,3332,2503
-96,-109,-89,1398,3632,2835
-23,-82,86,1153,4283,3075
-92,-45,-85,1398,5369,2266
67,87,-116,-274,4575,4149
-71,-34,102,-124,3228,5045
73,102,-65,2800,2467,3824
35,12,73,2851,1190,1703
-26,107,-93,1050,831,1643
-92,40,-80,530,234,1447
88,30,-61,-696,-74,747
63,-33,-75,-156,-132,-402
87,-72,-59,565,-9,-843
120,-80,-40,374,201,-955
123,-82,-37,205,97,-564
-128,-73,-36,-54,-82,-328
-113,-59,-45,-314,20,-313
-109,-66,-62,21,216,-392
-103,-64,-85,353,265,-342
-108,-44,-88,190,99,-189
-99,-36,-98,141,175,-118
-94,-29,-108,278,209,-100
-91,-18,-112,343,143,-22
-96,0,-110,210,106,-20
-82,15,-118,118,247,-86
-85,15,-125,269,193,-166
-78,19,125,333,202,-183
-80,31,116,175,199,-236
-71,29,113,203,160,-215
-72,34,112,244,125,-178
-64,41,110,255,204,-199
-63,48,108,240,174,-178
-56,54,103,289,172,-170
-58,59,103,284,186,-180
-55,64,97,223,176,-160
-53,72,93,194,167,-145
-50,74,89,246,167,-150
-51,82,87,166,150,-155
-44,86,80,212,162,-163
-47,94,84,177,107,-160
57,-114,-111,-2768,-3670,-3982
-11,123,-127,-813,-4478,-5879
-123,60,-50,-1114,-5487,-6603
88,-27,-106,-660,-6055,-6159
101,-6,57,1052,-4706,-2650
35,-107,-110,201,-3081,-944
66,61,-101,-1076,-58,-383
-17,74,80,-616,603,652
56,-85,-47,303,1029,-80
96,46,99,296,535,-9
-64,46,55,172,302,-307
-105,33,66,245,368,52
-32,11,77,-3,1055,627
-97,106,57,1061,2017,1124
68,-120,-68,144,3496,3560
87,-89,13,919,4149,3639
-81,111,75,1395,4766,4903
-11,-30,45,1093,5187,6150
69,-109,-81,-3141,4697,7355
105,-126,110,1322,-243,4666
34,-77,-105,5030,-485,2539
71,-110,-101,4245,783,1987
0,-30,-46,1513,1308,2688
-22,41,-29,-2511,672,1616
90,61,-32,-1286,-1122,-1585
-31,-73,-31,1999,-868,-2751
14,-108,-23,3463,-137,-1560
-5,-58,12,2539,731,-157
-21,-22,49,169,449,49
-2,-48,41,-577,-29,-291
31,-97,25,67,-366,-496
43,-90,39,-67,-226,-475
47,-67,21,-418,178,-199
53,-63,-18,-368,417,-98
42,-56,-47,99,213,-134
57,-44,-73,528,280,-248
57,-27,-75,395,211,-162
61,-11,-81,164,106,-102
66,0,-84,86,79,-132
81,12,-90,-81,174,-144
88,14,-108,69,165,-222
87,20,-113,213,128,-240
103,29,-124,218,235,-308
102,28,124,319,136,-303
103,33,122,310,50,-308
115,42,123,151,153,-212
118,48,119,65,132,-137
123,53,109,170,128,-106
-128,64,104,153,150,-110
-125,67,100,271,124,-134
-9,-77,49,-589,-3130,-5221
-126,-11,67,-1512,-5197,-5626
77,-103,-64,-1245,-5302,-6082
108,35,-19,-330,-4558,-5146
59,-84,-81,184,-2974,-3081
-117,-85,93,-479,-1663,-1549
34,47,-122,1235,-564,-935
-58,-108,-86,-279,347,192
-127,-57,127,231,720,152
40,64,7,231,407,36
81,9,-19,664,769,-629
-123,24,-28,303,154,-39
-46,6,-36,293,282,-78
14,14,-29,470,634,218
106,20,-34,250,1000,587
54,-101,-31,1064,2122,1369
-121,-31,-81,131,2936,3006
-81,6,64,376,3721,3045
-76,83,-76,1870,3340,3908
-43,31,125,-1038,4434,3144
-88,58,84,58,2180,4619
-5,-74,85,274,2483,2184
85,0,-60,2420,2009,3382
97,49,-6,947,1693,2051
-108,-104,16,2006,1818,2885
111,87,52,2089,1810,1842
70,52,85,1493,1237,1422
6,37,103,71,406,1610
-33,-30,109,-133,-456,455
-14,-92,105,355,-468,-328
15,-93,106,569,-23,-540
27,-106,101,562,272,-528
21,-120,94,583,189,-393
27,-116,87,498,79,-274
43,-110,73,247,122,-290
44,-114,57,119,62,-312
49,-115,52,141,2,-293
64,-118,36,305,145,-197
67,-101,28,97,153,-82
68,-91,10,36,147,-10
73,-82,-11,137,180,-77
77,-76,-27,232,182,-158
76,-65,-35,176,111,-172
90,-59,-46,208,157,-182
93,-57,-52,306,172,-201
97,-48,-60,244,142,-182
104,-37,-69,187,172,-167
107,-35,-79,266,180,-161
112,-27,-87,256,166,-163
116,-16,-97,233,154,-147
13,-63,83,-1205,-2158,-4877
-22,-15,-21,218,-3261,-5707
35,72,-100,-1896,-4189,-5865
108,-89,-19,-2595,-4293,-5177
14,34,-92,-3285,-4522,-5441
-18,82,28,332,-3420,-5076
-91,-53,-50,366,-2719,-3422
120,54,126,868,-1115,-1477
30,75,-90,581,520,-275
-88,-115,-127,140,832,359
24,-12,21,544,593,-280
49,-4,17,827,79,-18
120,31,-1,113,246,-204
-63,27,-17,170,353,-389
-36,42,-45,581,287,-15
-9,34,-42,57,470,-111
32,56,-77,284,290,59
71,77,-62,104,606,22
-55,-14,-28,991,1113,745
-95,-98,2,604,2552,1761
8,-92,-73,235,3649,3497
96,-28,1,755,4023,4546
79,106,-58,26,4039,4944
46,-7,99,-361,3061,5506
51,34,102,-1993,1221,5920
-119,-6,-87,4090,911,2761
9,-103,-23,1967,967,3544
104,-41,26,3157,704,1296
35,-89,67,2204,868,1460
-107,-128,111,69,77,393
-69,37,95,-735,178,42
-46,-54,85,215,284,-89
-38,-109,90,1016,337,-548
-24,-91,99,689,339,-550
0,-103,87,533,319,-385
-1,-109,82,492,135,-266
2,-111,86,474,43,-222
25,-101,74,252,247,-154
26,-103,56,291,202,-130
26,-96,43,274,150,-117
33,-82,25,104,218,-103
37,-84,7,221,228,-132
50,-80,-11,352,189,-172
49,-69,-14,236,119,-157
60,-64,-23,225,187,-193
64,-57,-32,188,129,-168
70,-52,-37,193,158,-177
79,-47,-50,215,209,-215
87,-43,-65,229,155,-190
85,-35,-70,162,119,-162
-14,15,-3,415,-2098,-5605
23,-67,-69,-1974,-3377,-6133
19,69,126,-2975,-3812,-5944
95,-93,-26,-2639,-4269,-6315
-43,-102,124,-1405,-3769,-5779
78,68,-81,-227,-2743,-4763
-9,-8,126,-553,-1018,-1339
85,76,-93,-929,649,689
117,-57,-37,457,679,348
10,-21,118,511,276,225
75,-62,-71,436,337,58
-113,-85,-68,558,411,392
50,41,-98,1017,1028,1388
-47,0,100,1007,2152,2845
88,-30,-32,851,2782,4040
20,86,-48,1048,2992,6419
70,43,-111,482,2192,6517
126,50,-115,-1056,1800,5263
-56,61,-110,352,-637,3550
89,79,-62,1372,1000,84
-40,-34,-19,2882,464,2089
127,47,-5,1752,515,660
109,-49,-26,1151,463,1336
100,-93,-35,1354,812,1336
50,75,-8,1826,586,-142
77,23,35,1856,-76,-389
101,20,55,952,51,-209
114,-3,59,195,71,25
111,-18,32,152,73,-55
114,-18,20,112,-22,-142
-128,-19,0,-37,118,-706
-112,-26,-10,330,279,-241
-117,-34,-17,499,49,-360
-106,-12,-18,186,138,-191
-107,-4,-30,35,50,-100
-95,2,-47,173,146,-10
-99,14,-51,148,97,-60
-91,23,-59,189,83,-65
-93,27,-66,205,107,51
-90,26,-76,257,87,145
-102,20,-97,360,-207,161
-114,22,-108,339,-291,159
-109,32,-111,169,-20,237
-110,29,-113,216,135,151
-105,28,-121,246,287,-55
-84,43,-119,156,819,-523
-80,45,-119,287,408,-201
-80,41,127,361,-45,-54
-72,50,-127,247,45,-67
-66,51,127,252,334,-273
-122,17,-95,-1897,-2263,-3960
83,-89,-75,-700,-1319,-5054
-13,-59,-101,-1792,-1916,-4890
-127,-55,52,-2234,-2916,-4609
67,-9,-33,-2218,-3690,-5648
54,-119,-104,-748,-3742,-6036
58,-78,-5,-916,-2941,-5035
48,110,-92,47,-1458,-3076
-22,-3,57,-242,-94,-570
-40,-89,24,-112,641,254
72,30,-15,636,428,173
44,-125,-17,369,522,-660
112,72,-14,515,311,-161
-58,67,-15,139,312,61
-16,110,-62,-15,492,266
36,66,-106,614,849,290
-12,-19,-107,1098,1404,1208
6,-52,-90,536,2761,3231
23,61,15,1290,3392,4133
-72,-51,-55,937,3286,4676
112,-102,-124,734,2151,4412
90,54,93,857,1143,3444
-54,-2,-70,609,2005,1890
-61,-91,-30,1833,980,1940
-17,67,3,592,1358,1416
-12,-12,19,881,823,1244
28,-93,31,307,560,2083
66,91,34,331,1382,1833
89,32,24,1240,1230,2368
64,56,46,1629,646,2534
8,44,89,1165,219,2067
-9,-33,101,1323,-301,240
13,-96,109,1855,-141,-522
34,-114,123,1681,537,-886
45,-108,125,886,803,-736
61,-116,105,248,681,-503
65,119,89,350,245,-218
59,105,93,597,-277,-257
86,119,96,313,-226,-210
98,-125,80,-214,102,-222
96,-124,56,-425,181,-300
92,-106,21,-620,-50,-76
97,-109,7,-152,-208,68
101,-75,-2,-64,82,46
102,-57,-23,-110,233,-120
106,-60,-51,321,210,-226
108,-44,-58,165,204,-239
113,-42,-69,208,149,-168
117,-38,-78,350,148,-123
123,-26,-82,308,183,-149
-70,97,-127,-2803,-1250,-5454
-124,56,74,667,-3838,-5206
52,59,-76,-2854,-3429,-5670
-29,-28,94,-3175,-3916,-5475
121,96,25,-205,-4175,-6071
41,-97,22,-2011,-3542,-4543
-20,-74,94,-78,-2292,-3552
-109,-57,-27,-1302,-1120,-1716
46,67,58,85,-108,-960
-97,-90,42,521,157,-21
122,-12,25,433,485,328
63,111,-32,445,496,27
80,-124,-38,264,228,169
123,-106,-48,293,318,-281
-54,98,-44,397,327,-185
-29,-124,-80,-84,374,113
7,111,-88,74,529,5
73,-86,-105,-570,848,377
-126,124,-97,385,874,262
40,17,-79,630,1448,1148
-112,-58,-112,1147,1819,2774
-27,88,109,-994,2082,4241
-12,-116,-17,1537,2041,4160
26,27,4,1359,2457,3998
20,-70,-10,290,1867,4087
91,-58,-17,195,1769,3496
127,96,-4,2087,1187,4044
-61,36,17,2220,1744,3551
-42,-46,28,2524,2420,3400
112,-58,65,2195,1390,2861
-32,-79,101,252,555,1386
-92,87,101,-784,-490,-193
-34,-5,81,508,-298,-801
19,-57,99,1634,-65,-761
32,-53,119,1334,176,-845
45,-73,125,835,337,-669
48,-89,102,636,237,-177
35,-81,107,161,-318,38
56,-50,105,-692,-402,96
60,-48,85,-759,-258,55
64,-46,50,-539,11,-125
64,-41,27,-311,7,-183
66,-42,9,108,142,-157
74,-42,-23,542,305,-90
72,-23,-33,322,323,-233
79,-12,-43,169,170,-170
90,-7,-56,174,94,-114
92,-2,-55,273,118,-94
99,5,-61,313,174,-115
105,14,-66,292,190,-161
-69,-26,-10,-1612,-3502,-5921
118,-5,-84,-3638,-3658,-6303
75,29,-13,-3607,-2702,-6636
-75,9,28,-1089,-1958,-6390
50,91,-11,-624,-1691,-4439
-32,116,-48,-555,-932,-2283
6,116,-15,315,-82,-658
-98,-21,-61,419,271,529
75,127,-83,924,310,29
80,-38,-53,186,300,-208
112,-41,-65,704,209,-346
-69,-96,-89,-221,314,-243
-19,99,-91,653,220,303
30,-70,-97,0,545,197
51,-80,-117,620,743,264
99,-63,-101,480,684,170
-39,-128,-79,875,1139,641
35,97,-95,683,1552,1687
68,-97,76,752,1793,2199
75,-93,30,1279,2019,2242
101,-6,65,648,1760,2611
-75,-67,90,762,1907,2643
-59,-34,61,966,1579,3363
2,-24,21,608,1473,3405
54,-29,-11,1549,1328,4567
100,77,-27,659,1803,4634
58,-57,33,5,1233,3924
46,89,19,497,601,2287
49,53,13,880,326,1480
71,0,-12,2156,-6,1186
22,-19,33,2363,-282,464
-3,6,83,1135,-96,35
-7,8,117,-80,219,-15
-24,-41,97,22,388,-497
-10,-98,91,825,329,-764
11,-86,96,619,402,-584
23,-83,83,170,407,-404
27,-98,55,46,273,-398
42,-110,38,294,255,-505
55,-112,28,374,259,-569
66,-106,18,242,159,-447
74,-98,12,54,90,-251
86,-90,-5,24,126,-85
85,-80,-13,55,127,-110
92,-71,-28,199,200,-169
99,-55,-41,264,194,-68
100,-45,-50,201,161,-136
105,-38,-58,191,200,-119
113,-36,-71,322,219,-166
109,-26,-74,321,107,-79
81,-28,-103,-2905,-2331,-4838
19,-24,-127,-1842,-1876,-5261
-90,48,99,-2389,-2478,-6049
127,49,-128,-1519,-3073,-6098
93,-47,-12,-982,-2626,-5699
53,113,-9,-1042,-1500,-3402
-36,-87,127,425,-523,-2015
34,120,5,616,235,-137
-119,1,-28,414,264,196
107,62,-39,998,684,-84
103,-89,-77,1202,604,-637
100,-30,-123,615,283,-585
-74,-108,-102,491,138,-397
-19,123,-89,48,-18,29
28,-114,-94,-157,242,163
57,-124,-117,610,540,-340
80,-74,-106,58,685,110
-91,-116,-115,-30,726,395
96,17,-103,1041,1352,1285
-34,69,-103,299,2163,2727
55,111,97,289,2914,3807
41,-106,42,690,2761,4806
86,-69,-34,1819,2267,5286
53,-47,-45,-1631,2204,5562
35,78,-128,2359,335,4562
-83,-26,-55,790,2092,2051
-69,41,2,2590,1516,3179
103,18,44,1772,1413,1298
11,-102,109,1956,847,1104
-14,106,-109,1384,514,1121
-20,49,-96,780,413,757
-7,-8,-95,27,373,147
7,-56,-120,407,152,-166
21,-88,-127,792,-108,154
17,-102,-119,604,-210,101
15,-107,-123,91,-111,-292
35,-117,113,-104,159,-486
49,-124,88,176,164,-273
46,-119,77,186,29,-201
53,-102,61,-10,66,-106
57,-98,45,21,163,-83
63,-94,25,186,192,-79
67,-75,5,145,184,-92
70,-66,-12,66,195,-103
69,-67,-25,258,140,-152
75,-54,-32,281,113,-74
79,-40,-37,151,179,-104
88,-38,-52,265,188,-174
94,-32,-61,293,137,-171
97,-21,-65,216,131,-182
-18,-119,92,-1123,-1855,-5502
-61,-43,-12,-1821,-2768,-6119
80,103,29,-1725,-3268,-6459
-56,18,-60,-676,-3395,-6193
56,-128,-45,-400,-2894,-4847
-44,-82,-112,-341,-1726,-2393
63,-22,-15,-1502,-375,-953
-116,7,-83,448,-21,-335
118,109,-89,173,486,-58
88,-72,-114,408,265,241
106,-17,-111,228,329,-230
-103,-32,-107,273,236,119
-71,-46,104,412,250,-332
-27,-18,-119,-171,224,97
8,-51,111,687,310,-307
36,-22,-127,-243,261,167
79,-50,108,600,358,-4
-71,-83,-107,427,624,643
43,58,-108,791,1268,1994
-79,16,-123,482,2324,3223
26,96,17,800,2379,4488
61,-121,-12,1213,2894,4547
79,14,-53,1121,1382,5602
97,-91,17,-1106,1578,4465
125,103,26,364,-310,3463
-45,-79,3,720,15,1888
-4,-98,-42,4738,964,2399
-88,32,32,2050,1141,1698
59,-53,28,1549,803,1104
-21,50,62,1827,232,940
-9,24,103,790,69,512
3,-32,118,90,310,-67
16,-67,103,454,264,-19
21,-85,102,691,182,122
24,-82,104,226,183,6
30,-94,91,69,202,-354
37,-104,77,204,102,-536
61,-118,64,488,137,-585
74,-112,54,406,297,-431
74,-105,27,144,305,-219
76,-98,6,15,199,-20
76,-89,-10,97,110,-13
87,-74,-24,137,63,-114
94,-65,-27,177,55,-162
96,-56,-28,255,56,-182
102,-46,-33,172,172,-151
105,-41,-46,210,177,-197
110,-32,-58,203,112,-197
116,-29,-64,217,178,-203
126,-25,-80,285,193,-166
-27,60,117,-25,-2702,-5803
-108,-5,-4,-1878,-3428,-6164
-71,109,6,-2582,-3278,-6003
31,-96,73,-1921,-4280,-5850
-10,-17,-23,-1469,-4089,-4869
9,23,16,-2641,-2301,-1309
-70,-5,-105,-1509,-245,-982
9,99,58,1767,225,-490
120,-126,-18,-726,616,415
84,97,-57,1026,342,3
80,-29,-58,780,363,-254
101,21,-53,45,324,-57
-110,-26,-66,621,259,-539
-34,-28,-74,-212,188,232
2,-82,-79,410,327,-199
33,-20,-101,95,365,297
101,-53,-95,608,575,-151
-44,-83,-68,494,1174,646
122,48,-70,1268,2012,1940
-36,56,118,751,3021,2881
20,58,10,1867,3243,4170
-118,-91,-52,729,3729,3911
99,-64,-75,1097,2485,5241
-125,-72,-54,-960,2762,2920
-84,100,-28,1406,1004,4685
-94,-76,1,538,1296,1860
-41,-47,43,3275,872,3339
-108,-116,91,2782,1232,2879
75,125,105,1968,1086,1676
-52,98,-114,440,-26,480
-48,10,-116,236,-375,-700
5,-64,-106,715,-5,-731
11,-92,-89,712,64,-701
32,-95,-86,467,201,-586
52,-104,-104,214,161,-296
54,-117,-125,92,80,-493
64,-115,119,-91,-2,-359
74,-128,98,-29,2,-378
82,124,81,156,121,-294
85,-113,71,-59,-11,88
86,-95,54,60,70,142
88,-84,41,270,222,88
91,-70,15,158,319,-13
88,-64,-3,87,198,-42
93,-61,-20,114,206,-61
93,-56,-33,228,286,-188
98,-51,-46,261,231,-163
103,-37,-47,113,19,-155
114,-37,-48,273,91,-229
121,-34,-50,387,303,-313
66,69,20,-1406,-3940,-6125
1,89,-126,-2408,-4902,-6264
-82,-76,-17,-509,-4378,-8152
106,78,108,443,-4224,-5358
67,-66,84,123,-3299,-2774
-32,111,71,-22,-1549,-629
23,88,116,168,323,-657
-104,-101,62,390,380,356
61,68,0,120,378,80
84,101,-15,496,371,-299
121,86,-24,250,265,-301
-79,65,-37,321,177,-97
-42,82,-51,55,316,-40
-2,101,-66,171,311,-55
19,124,-68,190,258,-73
57,-109,-60,-22,280,-107
87,126,-73,329,308,-90
-118,124,-63,407,427,168
-75,61,-77,1055,887,634
-35,101,-83,735,861,774
108,64,-54,1355,1633,1499
21,61,-42,936,2733,2531
76,69,116,911,3582,2968
108,63,4,2267,3316,3553
116,-68,-41,446,4250,3711
78,-73,-74,732,3154,4142
106,97,-60,-1141,3279,4054
-73,-33,-31,3467,3328,3738
-51,-11,89,3847,3430,3534
95,-115,-112,2473,2194,1906
-13,16,-39,1920,-179,1082
-12,36,9,538,-803,1031
-72,23,-8,-632,-287,225
-82,-72,-15,479,-201,-765
-52,-110,-8,1008,125,-1011
-30,-89,12,17,66,-800
-20,-106,-9,-660,-68,-416
-16,127,-41,-643,-68,-248
-17,111,-76,-538,-4,-344
-8,108,-100,-218,77,-322
-3,111,-123,63,67,-224
3,118,118,267,114,-103
4,-128,105,441,137,25
4,-88,91,-31,211,145
9,-75,62,-300,304,150
7,-78,25,31,201,8
10,-81,12,568,268,-267
22,-71,13,637,386,-429
40,-53,11,328,475,-471
50,-49,2,138,299,-320
67,-45,110,-282,-4053,-5456
116,-23,9,-1880,-5204,-4496
-29,61,-106,-2256,-6220,-4841
-57,108,7,-1024,-5943,-4022
0,-94,112,3154,-4630,-3439
-15,-46,-120,-1659,-1663,253
45,-82,75,295,308,-326
-96,22,-24,224,700,-170
27,11,-45,884,988,-740
36,28,-12,528,736,-480
55,63,-4,-467,420,-328
-78,40,-16,-449,289,-37
-42,40,-90,-198,207,-32
-32,87,114,-245,149,74
6,69,116,213,226,-227
50,82,-111,-217,379,-22
117,68,-97,237,546,62
15,82,-88,319,1540,219
-27,-2,-38,1380,3242,1340
5,-33,-26,1096,5721,2718
-66,-12,-7,350,6834,3542
50,79,42,77,6806,4625
-98,96,-109,-1875,4948,5219
80,46,-56,-1919,3247,6608
95,85,86,1749,939,1911
-94,105,107,4222,321,2153
110,-99,-67,1194,1775,601
11,113,-87,-324,1333,243
-59,-20,-102,591,298,-186
-12,-82,-58,1329,-852,-1182
68,-99,-2,886,-917,-965
75,-116,23,17,-240,-375
61,-113,-4,-754,196,310
54,124,-75,-543,259,393
57,-119,-109,-286,211,119
68,-112,112,115,147,-27
79,-107,73,418,467,-160
55,-107,58,403,272,-216
37,-108,49,434,30,-78
48,-88,36,306,127,100
47,-84,35,332,47,-136
78,-72,19,229,124,-213
82,-74,18,171,-106,-247
83,-73,15,109,-22,-212
79,-78,-1,95,43,-156
68,-84,-15,141,16,-154
74,-52,-29,-671,-164,79
109,-23,-70,-1189,-92,163
-126,-23,-109,-538,239,172
101,-22,125,384,143,-119
8,-117,109,-223,-4904,-5563
-27,26,-118,-2598,-5083,-6520
-91,-27,108,-2527,-6273,-7307
23,-59,-48,-420,-5494,-5667
70,-7,-15,-84,-3242,-3468
-75,-56,20,-507,-75,140
117,60,-58,-1023,1336,744
2,-69,-14,716,537,586
123,86,9,378,693,-347
102,-103,12,118,333,-371
-90,84,-8,88,446,-571
-60,113,-76,-264,355,215
-38,54,-95,287,296,-386
17,51,-38,182,480,68
87,86,-55,-258,600,282
-10,-14,-61,702,1154,1733
33,-86,-45,325,3138,3287
13,-57,71,809,4424,4756
-14,84,-90,621,4642,5034
1,109,11,-953,2779,4628
-33,36,90,1768,1972,3299
-6,-17,-82,1566,1143,3352
111,91,33,149,2675,2199
-119,-15,37,1986,1098,3868
-80,88,64,-31,1796,2226
-24,12,24,225,901,1173
-64,72,73,2167,-17,-105
57,19,-112,1187,28,-940
84,-17,-107,247,59,-58
49,-68,119,326,129,886
37,-55,110,-60,280,450
48,-29,80,-234,153,-1044
73,-39,48,926,6,-193
72,-23,69,676,-393,61
81,-12,83,-137,-357,-3
90,-25,58,-425,-41,92
101,-18,32,-177,144,-213
89,-17,4,199,71,-121
54,8,19,-209,-176,-344
104,9,-9,-183,327,-351
-123,1,-69,249,542,-235
111,5,-77,584,97,-204
112,38,-65,117,-16,-111
124,57,-75,-159,259,-339
123,29,-93,380,173,-499
-115,38,-93,270,197,-363
-116,42,-89,339,179,-178
-101,60,-88,367,222,-293
-105,66,-80,339,173,-470
-97,62,-81,517,209,-477
-86,-65,17,675,-4352,-5719
42,-50,57,-1818,-5476,-5324
-14,7,105,-2781,-5538,-6261
3,-108,-118,-1570,-4012,-6363
-19,-96,34,889,-2347,-4380
70,-19,52,-1581,-903,-835
104,61,72,84,1035,521
-97,-28,-91,582,579,537
53,-47,121,651,264,218
94,-28,-71,211,529,-150
-120,-60,-101,236,134,-214
-58,-77,106,296,353,-234
-11,-74,-117,482,64,-139
52,-50,-108,107,550,-273
71,-87,-123,498,290,295
-108,121,124,866,794,223
69,24,-65,1049,1512,1570
-99,110,-123,246,2488,2442
-15,46,60,1498,2858,3429
56,81,-13,1836,3286,3705
71,-83,-3,890,3219,3819
80,34,-30,42,2864,4376
44,-59,-67,-2918,1614,4578
90,56,-116,1156,138,2835
-41,-24,-45,2576,237,3283
-106,19,5,1278,331,1159
122,72,31,2660,795,1359
36,51,70,1994,793,1257
-9,32,110,1119,415,1375
-10,-39,-119,916,420,623
2,66,-109,2742,818,-1347
3,65,-96,3576,873,-1345
34,125,-27,2593,698,-612
52,-87,7,277,372,57
49,-80,-18,-1703,48,206
38,-87,-121,-3381,-471,235
38,-99,46,-3444,-706,-118
54,122,-14,-1644,-293,-518
54,-128,-17,-86,-12,-609
54,-87,-14,-22,97,-228
58,-65,-30,155,124,64
60,-34,-47,169,123,84
65,-21,-57,402,61,60
66,-14,-61,670,109,-102
74,-15,-66,918,313,-185
73,-7,-67,689,213,-87
84,-2,-73,435,265,-135
91,7,-82,84,185,-172
97,29,-96,-664,118,-163
96,41,-121,-716,119,-230
22,-104,-39,2168,-1175,-5644
-56,101,106,695,-1979,-5931
-37,114,-56,228,-4797,-6256
126,-87,83,621,-6088,-5409
118,-78,36,-769,-5752,-4542
123,-88,90,-1402,-4233,-3725
30,-97,-101,-151,-2692,-1885
-28,52,-120,421,-206,-813
-29,-38,75,-891,592,970
88,32,-87,564,698,-126
38,-75,88,617,354,-488
114,85,-104,828,91,-274
-75,90,-67,-73,395,114
-54,114,-98,198,358,61
0,-98,-105,59,574,46
79,99,-112,617,955,326
-5,34,-121,856,1571,1013
-116,32,-111,274,2802,2107
-66,56,61,701,3166,2884
-8,-76,-53,269,3663,3529
-20,-85,-52,1095,3077,3377
45,16,-55,-365,3250,3584
31,62,-78,66,2411,3429
70,123,-73,-40,1492,2871
113,101,-58,488,1028,2549
-107,70,-18,964,1085,1783
120,-62,29,806,1116,1914
91,75,63,1202,757,882
91,66,78,1585,815,1340
57,38,97,1295,702,1244
44,16,125,534,463,1022
43,-39,-119,488,184,423
46,-95,-123,464,-88,-57
49,-71,126,-338,-121,-267
70,-111,91,-7,-69,-201
74,-114,74,290,48,-294
88,-110,57,124,235,-626
97,-105,49,-60,94,-400
107,-113,22,59,177,-381
108,-94,10,-122,71,-151
112,-81,-2,-141,69,-82
125,-87,-19,451,145,-119
121,-68,-13,645,102,-38
111,-43,-10,432,258,-21
-124,-38,-32,253,386,-137
-123,-31,-48,188,309,18
-128,-20,-59,189,219,18
-113,-16,-78,202,365,-198
-115,-10,-81,195,141,-260
-107,-10,-73,351,-9,-312
-117,-75,-42,654,-2623,-5119
-107,-19,-106,-2077,-1177,-4889
4,-79,93,492,-2464,-6204
-107,-86,71,-1498,-3146,-5282
44,-26,103,-1542,-3910,-5411
33,-120,-13,-459,-3474,-5301
23,18,-19,74,-2564,-3811
-75,-65,-56,-720,-1271,-1989
84,64,9,1249,-361,-898
-89,-11,17,-281,212,362
-122,34,-53,535,650,-201
75,121,-93,577,383,-550
106,103,-79,797,54,-434
-80,68,-65,316,108,-421
-6,78,-53,177,165,35
15,94,-85,18,278,-57
22,126,-115,183,247,-103
49,127,-111,313,278,-206
88,-120,-97,-1,354,14
125,-121,-91,398,292,-57
-58,121,-73,291,620,511
31,32,-87,1083,1119,818
-45,-6,-31,517,2071,2585
20,104,-110,-66,2839,3656
41,-122,59,-162,3057,3935
-20,-2,-39,740,1973,4235
14,-106,3,-380,1883,3765
-49,-118,26,-349,1166,3221
42,-89,64,-449,730,3466
73,21,60,2148,751,3463
94,-62,114,805,43,2452
65,33,90,498,526,1595
27,125,90,1674,483,1118
23,61,126,1294,342,845
15,14,115,1431,487,1001
19,-15,119,991,348,1067
5,-22,120,-75,173,-245
39,-38,88,167,259,91
31,-42,79,469,93,265
37,-55,67,715,10,192
42,-62,56,675,190,-124
26,-73,49,463,52,-385
43,-64,48,125,57,-295
62,-69,24,197,169,-113
62,-67,15,305,64,-134
67,-60,3,245,125,-167
64,-51,-8,39,42,-234
73,-50,-14,58,85,-223
84,-48,-29,217,122,-164
88,-36,-35,293,103,-87
62,-50,91,-879,-2404,-5074
25,-5,19,-3390,-2089,-4067
-47,116,43,-4473,-1623,-5628
50,45,-28,-1444,-1967,-6486
-113,54,-89,-1126,182,-4836
107,-40,127,-595,-367,-2418
3,18,-36,654,236,252
-55,31,107,906,273,-14
-108,54,33,457,27,-331
-104,-95,62,1278,-240,-826
-44,116,122,-2,227,-113
-1,68,104,505,50,-52
11,-125,68,151,141,-140
49,108,90,337,119,-11
102,51,-125,509,359,138
-78,-27,-112,841,704,847
51,121,-125,1131,1263,2031
-109,102,92,854,1789,3424
-18,127,17,1464,1955,3994
-107,-100,-37,739,2458,4358
83,-61,-70,1614,301,6053
-98,-128,-46,-1801,-58,5545
-73,-65,-118,854,-249,4790
95,-1,-117,749,-422,4330
53,21,89,3804,-650,1485
103,87,115,5049,228,2110
64,22,24,703,-268,1945
66,-64,62,-2212,51,-914
-55,-74,20,1287,746,-2471
-10,67,-2,4053,503,-2203
-24,97,63,3564,-23,-1685
47,127,-110,1793,440,-1136
85,116,-104,467,998,-716
97,82,-116,337,896,-642
105,53,-111,408,61,-463
101,62,-101,383,-407,-37
126,87,-119,118,38,332
117,104,106,-268,318,209
100,105,75,-82,78,86
103,99,53,433,40,-172
101,106,41,757,-171,-615
105,123,23,611,67,-465
-128,-127,21,300,326,-233
110,126,6,101,263,-245
114,124,-10,250,86,27
-128,-114,-24,237,106,-64
-128,-93,-36,110,59,-252
125,-99,-45,203,81,-529
-122,-105,-54,398,54,-430
-110,-83,-67,166,129,-94
46,-98,-31,-4045,-2993,-4911
-83,-119,-88,-4036,-3357,-5220
-125,83,-62,-1190,-2242,-6286
34,67,-69,374,-2036,-5499
110,-108,127,493,-1591,-3818
34,-125,-70,563,-1098,-2116
3,48,21,1696,177,-1409
-35,104,1,469,439,-362
-124,85,-32,962,365,58
99,-94,-60,-40,251,266
125,-104,-70,473,328,12
-97,-65,-100,-90,391,-90
-33,-114,-123,591,298,-169
-3,117,105,502,311,-10
112,110,-90,781,485,765
-31,45,-29,1098,1403,1691
-97,-75,-3,1388,2446,3037
109,26,127,78,3874,4541
-76,21,-71,1675,3449,4716
-53,-17,85,379,4078,4915
-127,-30,102,-960,1828,5018
-100,-43,-99,-518,459,5170
21,102,-54,1311,160,3201
94,-39,-61,5189,1088,2290
-69,41,4,2821,1306,1285
-105,-6,76,-439,-83,538
-71,67,89,-199,-960,-54
-11,-35,111,778,-169,-492
35,-77,101,1442,796,-93
31,-64,88,1201,667,274
9,-80,98,568,-30,-177
20,-97,100,222,-379,-592
34,-106,100,38,-170,-569
58,126,83,201,214,-507
64,-123,66,189,319,-173
71,-118,36,366,287,30
76,-99,13,405,199,89
74,-84,1,242,194,72
62,-66,-6,45,11,16
65,-67,-14,77,76,-96
80,-61,-24,159,169,-101
84,-52,-44,253,165,-150
88,-52,-55,416,137,-303
82,-50,-54,454,125,-391
104,-56,-63,521,272,-409
115,-50,-67,358,200,-208
127,-47,-75,426,186,-141
-126,-31,-78,242,184,-94
104,-16,-76,-52,28,-105
119,-24,-82,262,220,-162
-11,76,-110,-1585,-1203,-5230
-113,-111,22,-388,-2757,-6050
-59,-88,-54,-762,-5291,-5905
98,-59,51,-893,-5064,-6586
8,72,-124,-1062,-4502,-5213
39,-2,121,573,-1950,-4285
-58,107,82,404,-1312,-1966
57,-104,106,-148,174,-660
-83,-42,10,307,436,281
106,27,-57,520,540,-446
97,45,-35,464,296,51
-112,51,-24,254,436,-283
-80,63,-37,230,322,227
-40,97,-79,-105,437,-108
8,67,-79,277,484,24
96,62,-61,22,595,500
4,-40,-28,531,1474,1619
10,-97,-21,469,3190,3168
-38,39,85,-260,4097,4525
-38,-84,-67,648,4109,5115
-126,99,97,1352,4569,4600
-5,-79,-128,-2373,1848,5727
54,-104,-57,532,956,3587
18,-57,-42,1250,1049,4721
-38,-73,19,1377,808,2672
71,48,27,1421,798,1884
-99,-62,56,841,114,-493
-42,72,68,1537,-184,-578
56,-14,110,1825,-55,-486
57,-39,118,1684,265,294
33,-49,-122,1223,209,893
39,-49,-119,281,56,1252
22,-79,-123,212,-222,273
31,-107,116,434,-72,-354
54,126,104,989,343,-389
42,126,96,1021,445,-452
56,-111,93,527,268,-314
66,-104,80,-91,106,-134
65,-106,56,-269,91,-113
76,-119,20,89,202,-170
74,-113,7,391,158,-236
80,-93,-1,216,58,-262
86,-91,-8,269,70,-329
96,-91,-13,346,130,-328
116,-88,-27,395,146,-221
107,-75,-25,271,70,-93
116,-67,-37,126,363,-112
118,-51,-60,-4,264,142
107,-37,-75,90,163,85
117,-27,-85,230,220,-278
0,71,109,658,-2253,-5157
81,-90,-9,-1621,-3485,-5625
-27,122,-113,-2112,-5114,-4922
57,35,-18,-2070,-4879,-5256
-29,-7,0,-739,-4621,-5168
-78,21,-82,-1327,-2289,-4257
-115,109,-126,604,-1582,-2790
72,59,27,582,-151,-1338
-81,-88,-72,-583,382,474
118,-40,49,554,566,-93
45,46,-12,641,268,-289
96,43,17,340,44,-379
-106,-16,34,534,324,-250
-36,1,16,255,330,287
1,15,-33,426,533,-21
87,21,-50,902,719,448
-49,-47,-17,1270,1735,929
44,-26,-16,580,2301,2353
118,39,116,315,2883,3377
81,68,33,1291,2971,3449
-116,-98,-16,911,2172,4393
122,-4,-33,584,2334,3372
-98,-14,-46,1431,1393,3662
-17,58,-121,594,2003,2609
50,-19,-92,2594,1479,2932
85,8,-71,1083,2196,1945
104,109,-54,2986,1844,2124
82,67,-10,3296,1264,1930
3,115,59,1278,434,1852
-82,122,122,-1199,-14,1813
-107,1,103,-902,-318,-119
-55,-92,91,759,374,-899
-34,-74,98,901,639,-1150
-14,-75,92,452,438,-1041
13,-93,86,34,116,-630
18,-117,73,361,55,-672
39,-121,58,279,158,-550
38,-120,44,209,259,-281
39,-113,30,148,182,-69
45,-107,5,285,166,155
49,-83,-2,171,151,309
49,-65,-16,234,136,290
52,-43,-26,264,142,111
51,-30,-33,252,129,-133
58,-34,-43,412,158,-368
66,-19,-47,-35,131,-434
75,-36,-64,126,163,-392
82,-45,-79,406,149,-424
88,-29,-86,269,109,-314
97,-20,-91,29,111,-204
118,16,-12,-2268,-2088,-4811
43,82,-108,-2074,-3437,-5221
-60,127,20,-984,-3658,-5905
54,-36,111,-207,-3589,-4911
-22,7,-88,634,-2426,-3437
84,-67,117,149,-1223,-1520
-118,53,74,-734,281,-656
93,50,-43,1219,702,-306
31,-56,126,191,-50,-220
77,-105,-84,730,112,-281
-126,-68,-80,-147,379,310
-77,-112,-107,379,690,95
80,75,-105,283,1124,1308
-40,21,-109,739,2225,2258
89,54,87,208,3013,3744
-28,-110,-80,249,3774,3699
46,95,95,2255,2526,5415
120,16,104,14,3081,5125
-109,-1,67,-2163,677,5477
-2,-1,61,855,604,2105
104,112,-103,4324,378,2175
-47,-98,-24,306,898,1439
115,-59,-46,1870,829,109
47,62,16,3096,-260,161
59,80,60,1404,-444,158
79,22,61,357,210,5
82,-64,54,157,37,255
70,-103,46,518,16,119
83,-101,33,262,187,159
84,-93,17,56,358,-37
86,-100,3,176,151,-272
97,-102,-10,383,97,-341
105,-89,-13,236,105,-185
105,-82,-21,135,123,-116
108,-71,-38,133,177,-103
117,-64,-56,158,230,-118
112,-51,-67,121,126,-115
121,-43,-83,160,212,-242
125,-44,-90,298,156,-287
-126,-34,-99,231,106,-254
-122,-30,-99,225,126,-222
-116,-24,-106,259,174,-227
-111,-14,-113,231,99,-206
-106,-9,-119,270,108,-224
-105,-1,-123,223,154,-165
-98,9,122,176,164,-194
-97,13,117,251,90,-130
-92,23,115,191,170,-180
-90,28,109,256,124,-197
-86,35,104,275,137,-218
-120,59,-83,-1125,-3163,-4880
30,23,-70,-28,-4618,-5175
110,106,73,-508,-5431,-5173
30,-12,45,765,-4652,-4108
-43,15,60,440,-3093,-2153
60,-57,88,662,-1771,-1291
-41,-17,104,145,-295,-285
49,-17,36,682,183,-55
-115,72,-57,485,431,-183
-81,119,-112,409,78,-119
-21,86,-83,330,483,-30
-108,114,124,483,358,-224
-120,96,98,353,265,-451
-70,110,79,-152,233,72
-47,96,72,421,180,-187
7,-117,78,-219,377,60
8,121,42,533,213,-215
61,-103,52,9,226,-282
-65,97,-108,751,789,188
96,36,-44,763,2005,1001
12,8,-71,62,3223,2285
69,-2,40,945,4156,2669
-121,73,-78,343,4831,2804
-111,62,73,1654,4181,2332
-106,8,99,-534,3811,3953
-112,70,76,-772,2955,2743
-49,-44,-58,325,1356,3607
-70,-104,-28,1102,559,2482
-101,22,46,1420,427,2157
93,-5,78,932,122,1501
36,-23,107,777,-25,807
-10,-53,-127,538,-16,-298
5,-89,-121,671,132,-902
38,-111,-117,596,191,-827
55,117,-118,501,94,-851
64,100,-118,562,100,-701
80,102,126,350,246,-411
88,93,103,305,286,-479
102,91,88,275,149,-324
104,99,88,18,65,-125
107,104,72,-119,76,2
113,99,45,304,257,-38
111,117,38,331,211,-93
117,-122,13,171,238,-111
112,-116,0,78,109,-76
116,-117,-7,144,138,-224
-127,-116,-25,306,209,-250
127,-102,-29,128,145,-216
-124,-105,-41,201,190,-210
-113,-101,-53,237,225,-190
-74,88,105,-2578,-3812,-4724
89,-71,9,-2067,-4714,-4159
-97,-72,-45,-1133,-4719,-3971
45,73,-16,-1745,-3578,-3366
-109,85,58,-1088,-2146,-2718
26,39,-49,-255,-1244,-1463
-68,34,71,351,-164,-1168
65,-104,76,-313,-62,18
48,-47,-4,75,446,17
-100,-16,-89,529,399,-186
109,19,107,67,81,-128
94,-5,116,340,189,-290
-102,-42,116,711,309,-157
-68,-7,101,47,457,37
-17,-36,92,391,575,-49
50,-59,64,622,632,101
-105,-124,117,1236,1129,758
8,37,-86,1102,2187,1830
-23,-78,-120,733,3658,3475
97,106,-70,-546,3878,4258
-125,-119,111,495,3438,4636
-103,-101,115,-1669,1581,4624
-30,-116,117,-705,57,4367
37,-89,-79,813,-467,3138
87,-87,-56,4604,-60,2835
-1,71,-67,1295,444,3050
6,113,-48,2149,-742,898
-18,31,30,1783,-601,-525
10,-4,70,526,241,-855
38,-64,64,131,538,-899
54,-99,56,657,353,-622
56,-118,60,742,183,-576
72,-112,50,271,406,-432
75,-125,29,255,445,-394
84,120,-2,422,355,-483
95,-122,2,423,137,-134
110,-114,-4,449,130,133
106,-82,0,142,34,66
110,-87,-9,178,239,-179
113,-78,-23,135,257,-211
123,-73,-45,3,221,-117
117,-64,-62,102,168,-130
121,-69,-72,418,230,-359
123,-62,-77,383,91,-356
-116,-53,-80,266,158,-254
-110,-46,-83,118,98,-197
-108,-36,-90,180,73,-43
-106,-25,-94,298,140,-142
-103,-12,-96,101,56,-266
-86,-10,-102,62,209,-230
98,18,-45,-1505,-3107,-4374
5,46,-105,-1254,-3964,-4930
-124,108,1,12,-4541,-4992
56,86,-7,140,-4227,-4650
-7,-107,23,-205,-3354,-3181
107,-122,6,2101,-2180,-1670
27,42,76,-85,-535,-563
-99,53,-42,251,543,-432
90,98,-97,441,553,-270
70,101,-101,464,449,-67
113,103,-105,106,691,-85
-107,106,112,204,615,191
-23,119,84,-330,1099,368
-91,17,113,997,1397,1106
32,64,123,-8,2496,2002
-118,75,45,361,3465,2841
-75,-88,-73,312,3476,3745
-4,-62,-110,-263,3703,3141
-18,-37,68,873,84,5694
29,-70,25,-843,1516,3017
116,22,68,2408,243,3315
-122,105,-125,877,1143,713
-99,49,-110,3082,1227,1599
-97,69,-88,2084,1691,1232
-105,69,-46,1604,1543,1110
57,56,44,803,484,674
46,-5,66,969,369,-910
105,-57,106,1407,417,-1018
122,-70,-127,1169,299,-858
-113,-66,-119,394,371,-572
-97,-98,106,306,451,-550
-78,-105,92,391,485,-676
-77,-118,84,709,104,-410
-59,-113,92,562,18,-257
-52,-120,91,645,-4,112
-60,-123,79,388,-64,271
-62,-95,71,-280,85,73
-61,-110,29,87,257,43
-74,-107,20,457,119,-73
-67,-89,16,190,218,-119
-65,-84,0,61,196,-137
-66,-88,-14,223,111,-94
-65,-70,-24,-1,170,-201
-57,-69,-47,126,166,-157
-62,-62,-50,51,-7,-185
-54,-58,-63,137,132,-267
-48,-49,-73,164,151,-243
-48,-41,-80,98,44,-202
-46,-30,-87,96,77,-135
-41,-25,-97,149,112,-113
51,61,33,-1023,-2832,-4283
-36,64,-62,-1094,-3776,-4358
74,-46,-5,-1378,-4085,-4417
-21,-34,-68,-250,-3631,-4194
-107,48,-98,-125,-3121,-3580
62,109,-98,-330,-1836,-2826
-33,25,4,71,-1154,-1672
-100,31,24,-561,-286,-671
109,2,-33,441,79,-254
77,92,-72,31,185,5
52,-109,-119,399,123,-117
82,-82,-112,-44,288,-291
119,101,-118,663,405,-305
-87,-60,109,-388,247,0
-65,-52,81,-29,223,-253
-17,-88,110,227,272,-244
122,87,-88,278,751,411
-11,93,-109,72,1416,1342
112,31,110,414,2150,2404
-78,24,40,1035,2568,3930
-6,-20,-10,-1550,3208,4713
0,103,-118,2054,1783,4774
73,-120,-86,-548,1806,4870
98,117,108,927,390,4375
-76,15,-87,373,-34,3399
-55,33,-60,3286,36,1912
127,10,17,1432,361,1625
47,118,-3,1588,619,572
27,35,21,2065,398,416
24,1,60,1732,405,339
22,-23,73,1045,405,193
22,-63,91,720,325,62
27,-106,98,877,228,-144
42,-111,95,833,263,-294
44,-105,95,457,343,-308
58,-111,80,-100,334,-343
70,-126,53,-48,306,-246
66,-128,25,87,241,-248
79,-121,10,24,173,-267
88,-119,0,133,70,-159
89,-101,-6,118,8,-66
93,-91,-12,174,132,-194
104,-81,-27,242,163,-214
104,-70,-39,126,157,-173
113,-66,-56,173,159,-135
106,-48,-65,33,122,-165
115,-42,-74,-16,130,-183
118,-37,-84,106,136,-207
-128,-33,-91,293,151,-236
-124,-21,-96,212,146,-210
-29,-65,35,-984,-3278,-5196
85,-37,-87,-718,-3936,-5551
18,6,92,-50,-3612,-4087
-92,112,95,-216,-1438,-2821
120,-12,27,939,-373,-1413
35,11,36,-374,523,19
111,98,28,208,216,177
89,-81,9,632,6,-52
113,-36,82,469,276,-70
-98,0,99,-223,420,-90
-61,-21,65,93,195,-130
4,-21,64,45,241,103
44,-32,70,42,447,236
122,-69,80,365,597,501
-6,-124,102,251,1041,776
118,-109,113,261,1904,2650
-101,-64,41,674,2402,2574
-52,-6,-7,605,2315,3642
-17,70,-67,76,1952,3111
-3,47,-61,328,1780,2934
50,61,-70,728,747,2864
-105,32,-64,1298,1799,2161
-42,96,-47,947,1665,3002
-32,-35,-15,2005,2163,1623
-10,110,50,1943,1896,3534
-36,72,70,1496,1076,3011
121,83,124,411,105,2523
5,31,110,-220,-599,1634
-23,-53,110,350,-879,387
7,-109,114,486,-321,-654
26,124,95,824,599,-1126
39,115,87,940,583,-806
44,123,80,730,183,-466
47,-125,86,131,-176,-341
65,-125,77,-152,15,-388
83,117,48,39,214,-516
92,115,29,305,117,-492
95,123,18,331,15,-404
100,-122,9,170,98,-341
108,-115,-5,44,110,-249
108,-111,-24,225,17,-183
112,-97,-33,239,84,-67
121,-80,-45,151,217,-23
114,-67,-56,148,136,-65
123,-62,-67,274,156,-164
122,-52,-70,253,165,-174
-124,-40,-82,194,191,-176
-126,-38,-92,246,165,-204
-117,-33,-102,281,201,-207
-117,-26,-111,257,132,-212
46,-12,-30,-2030,-2391,-3861
-100,75,-128,-1332,-2592,-3813
52,15,20,-1393,-1936,-3835
-89,-113,120,-685,-2055,-4263
20,-78,31,720,-2708,-3723
-32,69,-108,1415,-2126,-2123
-86,112,30,-401,-1221,-715
-90,84,66,-687,694,-226
97,-97,-91,198,731,-29
62,-55,49,635,-9,-299
108,-95,83,724,151,-197
-96,-27,-128,202,491,18
-62,-26,104,-11,460,16
-3,-45,87,-9,559,163
72,-88,92,484,826,442
-73,101,96,835,1409,1094
55,59,53,819,1829,2238
119,111,17,637,2444,2869
-27,-114,-20,935,2745,3215
26,38,-82,151,3012,3334
31,-48,-72,1761,1762,3558
98,-76,-98,-1061,2288,2866
-98,33,-68,-233,1565,4493
-116,0,-70,-156,1120,3213
7,116,-30,2043,43,3474
-16,-121,-24,1260,-42,2949
-105,99,-31,505,-290,1981
19,111,3,-436,-764,1262
-44,46,-6,-136,-528,-428
-13,-68,-1,1516,140,-1496
25,-107,20,2075,544,-1597
52,-74,64,859,387,-757
66,-97,39,388,575,-259
63,-120,15,642,522,-265
61,-120,7,605,239,-336
82,-92,17,-72,-108,-171
96,-111,-7,298,163,-177
95,-101,-20,343,185,-243
100,-87,-37,289,121,-163
99,-82,-40,282,36,-163
109,-71,-45,257,111,-122
111,-60,-53,169,148,-148
113,-49,-63,56,131,-164
121,-48,-78,158,235,-249
121,-38,-89,-9,153,-136
122,-24,-99,-155,53,-141
-126,-17,-109,-21,96,-165
-123,0,-116,-69,138,-158
-116,6,-128,124,91,-165
-117,27,126,58,90,-162
97,0,26,-1771,-2568,-4367
-6,-28,63,-1869,-2926,-4610
89,-13,-36,-146,-3197,-5060
-83,4,-46,320,-2520,-3954
111,6,39,-796,-1394,-3206
5,113,126,196,-1233,-1530
-74,-103,-88,-739,-428,-762
-93,-78,-110,-446,150,-5
116,-84,122,705,352,-338
-114,-24,100,199,650,-105
-90,-9,74,376,501,-121
-79,50,51,305,233,52
22,-74,98,917,719,237
-73,107,124,751,1197,1367
121,26,99,376,2516,2703
-55,97,-17,267,2315,4358
56,-41,-89,-161,3025,4261
76,78,121,882,2104,4149
-111,113,123,2092,1362,4544
9,-17,126,1209,2616,3319
68,31,-118,4488,2794,4095
110,-118,-44,3108,2702,3730
8,119,-1,345,1207,2038
87,123,70,-1516,-673,1817
-40,-15,23,86,-389,11
17,-122,47,2561,-128,-968
33,-116,108,2194,-72,-1565
75,-105,-113,418,-137,-1104
109,127,-120,-432,138,-439
86,77,89,-178,346,-12
80,94,72,-67,99,81
88,124,62,-327,-80,76
95,-125,33,-184,-24,-115
102,-126,23,123,82,-264
106,-119,12,292,117,-181
103,-95,-1,131,126,-105
108,-80,-21,-202,212,-81
107,-69,-50,-225,147,-17
107,-65,-70,53,132,-95
109,-58,-77,333,148,-209
116,-40,-83,279,120,-233
123,-35,-86,226,121,-205
123,-29,-88,211,134,-204
-121,-20,-99,209,186,-226
-122,-15,-102,212,79,-186
-113,-9,-107,319,179,-218
-109,-1,-113,323,205,-207
-106,10,-119,161,171,-127
-106,14,-128,200,183,-133
-97,22,118,258,201,-161
124,108,46,-895,-2870,-5652
-27,30,29,-1306,-4197,-5070
-117,-120,106,-1645,-3263,-4797
-30,34,91,-217,-3203,-4769
-91,-120,36,-444,-2151,-3641
41,-42,-31,-276,-1829,-2302
-9,-53,51,-625,-379,-1125
-73,22,14,-709,294,-119
118,14,-91,933,851,-137
67,-55,118,-142,133,342
90,-105,-124,822,421,-327
-113,-60,-116,-215,392,19
-51,-93,108,362,677,-762
-3,-107,85,477,532,-144
39,-62,92,-497,416,130
-105,89,100,584,756,477
-2,87,108,-245,1363,1777
59,71,50,405,1583,2494
-110,-66,71,-590,2336,3275
-73,-108,54,879,2024,3982
20,92,41,-1017,2554,3899
19,45,1,575,839,5453
116,-5,-32,-1777,1173,4121
-100,74,-100,1913,103,5117
-26,47,-21,3216,86,3387
-94,-27,-13,2071,-58,2293
99,-111,13,2005,-130,919
46,68,59,2001,-226,607
15,40,85,1105,151,201
0,8,94,91,314,-46
5,-43,71,264,365,-233
8,-85,67,710,129,-298
18,-72,71,374,181,-316
36,-72,56,64,273,-340
52,-81,35,26,226,-372
57,-74,27,60,122,-260
64,-60,13,-74,254,-350
68,-59,-13,-41,350,-586
86,-76,-30,411,278,-618
93,-64,-35,249,210,-448
116,-53,-44,70,179,-142
98,-37,-49,-1,126,82
104,-22,-64,71,239,-24
113,-11,-78,210,181,-13
120,-1,-90,225,99,-126
123,7,-82,292,29,-27
121,16,-81,374,143,-66
126,23,-89,339,149,-141
123,36,-92,155,-11,-114
-119,34,-100,208,178,-159
98,-113,125,-1274,-1889,-5703
-20,111,122,-2127,-2440,-5899
84,73,-54,-489,-2487,-6081
-45,-5,-127,-309,-2763,-4864
-93,-120,19,-396,-2277,-3269
71,-3,-72,485,-1593,-2229
-1,84,8,-1893,259,130
-79,20,-97,1402,658,-223
95,37,97,-228,441,328
113,-36,102,548,514,-197
-106,-19,118,110,457,169
-6,-56,126,426,578,486
92,-62,98,382,1159,800
-54,123,62,847,1805,1652
77,-109,41,255,2208,2872
-99,-109,12,629,2384,3632
-27,-8,-22,314,2317,3826
41,19,-98,1118,2090,3845
93,79,-118,932,1699,4034
98,-113,103,962,725,3569
-102,122,119,2376,-356,2884
-122,-33,-102,2206,302,1694
-60,-66,-48,1612,602,2569
115,-106,-41,1317,915,1836
27,96,-3,1146,1241,915
-25,29,32,1095,857,162
5,-43,58,1304,444,-583
49,-104,98,1293,373,-997
66,-114,113,1021,140,-663
84,-103,109,363,348,-318
92,-109,90,-267,155,-223
106,-119,63,-390,125,-295
115,127,43,-157,-5,-349
120,127,23,110,100,-462
122,-122,13,176,129,-342
-121,-116,-13,205,186,-172
-125,-99,-18,-23,12,75
-126,-86,-35,6,80,141
126,-67,-49,170,124,31
-113,-52,-66,123,201,-140
-112,-47,-77,-27,107,-166
-113,-60,-70,219,-42,-171
-113,-46,-74,361,295,-54
-115,-25,-90,156,235,-42
-115,-13,-104,-75,156,54
-108,-4,-124,-123,199,44
-112,-11,119,222,198,-169
-101,-5,121,256,188,-164
-92,4,117,144,142,-167
-96,8,123,248,81,-168
39,-34,-21,-322,-3678,-4863
-110,99,-45,-242,-4876,-4969
25,113,65,517,-4905,-4789
-101,100,-122,689,-4767,-3210
113,33,111,-308,-2609,-1854
5,-33,7,-790,-1155,-220
-98,17,-13,-1016,-157,188
50,64,-125,555,127,-612
58,120,-102,616,77,-443
92,-95,-98,90,299,-381
-118,120,-105,290,286,-256
-91,104,124,273,367,149
-71,-88,89,68,284,-83
-7,91,107,945,576,-238
-113,-23,-97,1721,1089,451
-77,98,-46,1569,3157,1947
45,2,94,57,4319,3627
45,41,-69,1320,4713,3766
-120,-58,74,68,4817,4258
118,126,-32,-2113,3674,4920
-104,11,-65,1694,2044,3925
-4,2,-126,1694,1653,2207
64,-3,-82,1037,1437,3459
-89,-79,-68,1140,836,1957
24,55,13,1925,-433,736
-19,58,63,867,-41,-586
12,-42,94,954,288,-1277
49,-99,110,1459,174,-962
78,-108,-123,1095,257,-872
101,-102,-126,313,286,-326
95,-115,112,-43,-121,-66
90,115,85,-41,-310,177
101,115,65,-161,-11,363
95,112,38,-122,484,633
90,112,26,-260,533,328
73,98,18,86,-12,-535
103,112,-5,515,14,-559
110,-112,-1,161,121,-132
106,-112,-14,67,44,-159
115,-115,-41,313,157,-224
115,-102,-46,278,189,-122
117,-87,-57,50,198,-130
116,-90,-72,220,89,-188
123,-79,-80,195,170,-207
-127,-70,-95,171,132,-227
-124,-67,-103,146,87,-251
-122,-67,-107,242,121,-273
-114,-57,-115,280,182,-199
-109,-50,-126,329,145,-208
-111,-40,127,337,67,-216
-82,-128,-21,999,-2643,-4756
71,-20,122,-1560,-3209,-4167
-46,13,-38,-4026,-4514,-2979
122,81,65,-3186,-3584,-3983
-21,-11,-99,12,-3412,-4004
-115,-81,-75,324,-2999,-3053
98,-97,-41,-584,-1635,-2129
-37,-103,34,-398,-909,-1105
-83,-51,-11,-1178,-135,175
122,-73,-100,245,389,-203
46,-40,117,482,45,177
53,-34,-123,647,346,-206
74,35,-119,-151,420,13
-121,0,114,397,308,-381
-78,37,92,-37,224,-168
-12,-15,96,394,219,11
48,-21,117,236,468,439
-97,106,127,1216,1038,801
-110,-106,-119,2229,2066,2559
23,56,70,47,3275,4330
94,117,-82,746,2701,6003
98,55,59,-671,2443,6076
-126,-111,47,-1297,-156,6650
-1,66,33,3310,-1242,3197
125,47,99,4540,-76,2325
73,32,-63,2916,540,2547
54,-19,-46,969,591,627
-62,-112,6,1370,-295,-323
-70,56,30,1244,-132,-1002
-12,-53,53,1465,310,-1421
26,-87,58,1224,627,-1287
62,-115,88,658,502,-607
64,-120,95,145,405,61
68,-124,76,-195,358,122
76,-127,44,-284,272,-47
85,126,22,-75,220,-206
89,125,8,212,165,-302
95,-121,-8,287,175,-231
98,-112,-19,307,170,-48
96,-95,-27,303,113,26
100,-80,-36,265,146,53
105,-74,-45,261,154,32
104,-61,-57,184,57,-233
111,-57,-64,245,125,-355
118,-50,-71,59,185,-345
123,-43,-91,24,184,-251
124,-44,-97,204,121,-221
-124,-36,-104,252,186,-206
-116,-25,-110,202,135,-215
-117,-20,-114,300,88,-178
