AccX,AccY,AccZ,GyroX,GyroY,GyroZ
-108,-127,125,2614,3409,-3630
-122,-69,89,3124,-289,-5115
-90,-110,-18,3003,-2277,-7542
79,-48,-123,4379,-5847,-7274
-97,32,47,-590,-5513,-6099
-83,6,17,6361,-425,-2109
77,38,-57,-1098,3640,8152
43,14,124,2084,3993,7029
-72,105,-91,-2696,-1982,-1072
-110,-73,108,-1051,-5368,-6233
41,-13,-61,-3712,-4210,-3953
-90,-92,-79,1628,837,-2440
81,-126,-72,306,4064,6004
113,-1,2,2333,3000,5507
124,-99,-122,-2073,-5232,-5148
-112,56,-33,818,-7324,-11221
42,112,32,-5497,-8068,-8675
-119,-72,-10,-3905,-3905,-7658
-41,-81,-97,-1662,1366,-2910
-107,87,41,1187,3055,-425
-38,-128,91,-74,7097,6983
-26,-28,27,841,1551,19284
52,-36,-17,-3786,-278,8099
-100,115,6,1971,770,-2390
-92,83,93,68,-219,-345
-7,44,30,-178,678,14
112,-38,45,-553,-216,-357
92,-70,-35,-1776,-801,141
18,81,74,-2026,-1325,466
-93,102,41,-955,333,1632
123,82,-63,-185,-240,3805
13,-53,81,3818,-2472,8482
109,70,-89,-1099,-464,6686
-64,82,-10,2054,-1927,5804
30,-95,85,3119,136,1470
-103,-88,-36,820,2463,3819
-112,56,-58,2540,1128,1712
-15,-24,-66,4501,-63,1876
-12,-103,-14,2918,-558,714
-17,-22,105,1247,-799,-1339
67,-24,82,-692,393,-805
80,-28,34,-1719,611,-156
69,-67,-31,-1531,-104,-128
65,-70,-49,-698,-479,-293
88,-56,-62,11,-217,-96
85,-26,-55,12,8,-92
86,-20,-72,205,138,70
89,-4,-78,234,4,433
100,25,-84,88,35,574
97,63,-100,-230,75,377
-54,110,-121,-553,4372,-5591
21,-50,119,5584,-386,-10072
3,76,70,4720,-3889,-8149
-79,109,-88,-1700,-2758,-6497
-94,-48,24,2588,56,-3335
-24,12,56,3656,1924,3565
-111,109,30,-2977,930,8457
37,-55,94,2035,2371,2377
13,113,-37,1703,-4899,-5339
-82,-37,48,-1918,-3773,-5267
49,0,106,-667,-2088,-4321
-105,-19,-104,2622,2741,2057
125,14,41,-1753,2850,8972
-48,-79,112,3704,2726,726
72,-102,-33,-1397,-5874,-8175
28,64,-122,-3290,-7509,-9280
-88,-122,84,-2674,-5001,-9592
124,69,23,-2338,-3457,-6121
14,-112,111,-1886,613,-868
32,111,-112,1419,3343,3428
0,-33,97,-3987,6263,12832
-1,44,-14,9517,-3463,17239
113,4,77,-5312,4524,4987
46,0,19,4208,-1900,-3997
65,11,19,45,-1238,-466
31,16,-54,-4201,554,-740
-97,-71,48,-845,229,152
-77,-72,56,-1792,1480,-221
18,-118,90,-3144,48,1123
59,-49,-77,-2944,-1506,2540
59,-114,25,437,-869,6633
-83,86,-28,-113,-413,5425
-86,55,69,-62,-614,3659
8,-111,-103,1694,-3598,1818
-20,35,-80,1430,684,5312
67,-97,-47,4454,3214,2768
84,46,-112,6697,1024,2353
44,-107,44,2691,-237,-332
99,25,-117,697,-1095,-908
-112,-78,-121,-1773,-730,-658
126,-98,61,-2445,-499,150
110,-78,-3,-2451,-706,635
89,-43,-58,-1825,-1082,867
96,-21,-85,-1137,-526,603
86,38,-79,-984,-45,136
104,48,-88,-345,404,-54
111,56,-115,238,381,-6
101,74,117,418,195,-1
101,75,108,482,70,32
104,75,103,614,-22,130
-95,-8,-74,4563,2345,-8019
-75,68,104,5925,-2072,-7922
95,2,118,2360,-4547,-7767
-101,31,-1,-683,-1167,-5908
-45,-41,-1,5201,3510,806
88,-12,118,-3522,1696,8782
117,99,-115,46,3315,7532
84,-60,90,802,-1947,-3892
-20,-60,9,857,-4326,-6305
-111,100,-88,-1729,-4166,-5677
13,44,-38,187,-12,-2309
-6,61,13,604,4785,4000
50,-93,52,-2635,3464,8471
-36,37,104,2576,3559,1372
-11,97,-39,1487,-6833,-7159
-4,32,8,1553,-7627,-8324
-45,-72,-19,-3418,-7761,-8646
-16,71,10,-1086,-3010,-7107
-56,-117,-63,-2386,-593,-2838
-75,35,-3,-198,3063,-392
-80,-17,107,-2182,5868,3905
98,82,-39,-3722,2651,21464
115,43,-59,507,6906,8082
114,39,-82,-1420,-3456,-2592
40,23,83,516,-3496,-2515
-6,98,-120,-123,1121,-910
-48,116,-86,-2210,-699,539
-87,-105,2,-1602,-1315,-1363
108,77,8,-139,-1320,-1985
-52,52,79,-530,-1872,49
27,-3,-110,-2114,-371,1312
68,-55,-38,199,-2240,4459
-119,-87,105,972,-592,9429
58,36,-42,542,-1166,7126
-14,-87,-98,-45,252,4193
64,54,38,5474,-737,5890
-33,-116,-32,2334,2493,2438
-119,-115,115,4110,2028,840
-73,-6,-91,2749,-822,571
53,56,63,18,-1774,-246
90,-20,54,-1356,-1375,-985
117,-76,-10,-1290,383,-80
92,-70,-43,-636,240,69
88,-65,-63,-21,-12,207
105,-25,-65,-66,-54,314
101,-15,-63,-295,-271,-1
103,-21,-74,144,97,218
98,-4,-79,392,147,415
95,39,-82,-184,-29,372
120,70,-114,-706,-3,182
-126,-61,67,-4208,2617,-2612
20,-119,43,-139,4099,-9116
-93,39,96,8171,39,-8281
102,-114,-60,3078,-3165,-8402
-2,82,105,-379,-2014,-6017
20,-95,-95,7407,-1271,-1959
50,85,-65,3721,2783,4795
-13,-13,-94,-4888,4627,7731
-7,78,-72,4304,4833,4304
48,47,-42,-1635,-4663,-3070
83,-30,-12,128,-4811,-7271
-65,-32,-82,-3860,-4343,-5388
-15,-122,121,953,-686,-2888
-120,14,-35,2376,5116,4784
105,-48,-51,-1814,3686,9069
-111,-89,-30,3858,4052,1253
127,-123,-84,-54,-8281,-6767
74,85,-27,-3025,-7125,-9952
-118,-97,106,-5686,-5916,-10112
80,-23,-50,-4384,-2174,-7961
-92,50,-84,-2358,-633,-5265
-21,-30,-51,-453,2062,-1628
9,-36,-60,60,5861,4165
-111,-105,-114,-5997,2910,23876
19,-58,127,10967,3563,13588
-44,-50,85,-6893,1050,-754
89,89,29,3240,-1846,-1392
126,-99,-109,125,1557,967
-80,-17,-61,-1327,472,495
68,-77,7,-203,101,610
-106,126,-34,650,-886,-422
-79,100,48,-1181,-1116,1400
24,51,117,-1625,515,883
-107,-80,-26,-2161,-605,1169
108,-122,9,639,-2207,4360
-85,16,87,316,-1333,5840
-10,67,51,-495,-1499,5038
38,57,79,49,-60,4047
85,-64,-51,3335,38,162
-123,-32,32,2089,422,2855
60,98,20,1101,221,1518
124,-70,-35,1645,1120,1600
-107,69,-82,2232,1201,1342
103,64,-62,1506,342,734
81,50,-23,394,-2,-18
92,-62,-24,1470,201,-772
95,-68,13,1444,113,-478
115,-43,25,213,144,-311
-116,-48,5,-28,182,-159
-108,-45,-12,-34,-16,-38
38,-75,-67,3760,4740,-5657
-15,44,19,5567,1601,-5938
101,77,-18,1905,-1723,-6175
54,-39,31,3491,-3695,-5761
64,86,-86,768,-4151,-6018
119,-19,-65,-5547,856,-3294
-34,-64,123,-1411,8844,6825
-20,77,-93,-9409,844,10393
-5,-29,3,3773,579,1072
-46,-113,107,4174,-5937,-7403
20,-60,14,2920,-3281,-5263
46,-32,-84,-1321,-1747,-5718
61,45,110,989,2940,294
-122,91,13,-2584,5646,6204
96,11,-76,402,6857,3274
127,-81,39,6382,-5785,-7987
-63,-115,29,9071,-5783,-6155
-121,-102,-44,3527,-10145,-6103
-39,51,28,5013,-3266,-6394
98,-19,-94,8746,304,-2336
54,-117,-128,3029,3060,617
-99,73,17,-290,6356,2710
117,41,-87,-5069,9322,9198
-116,-95,111,4589,-6177,19540
-124,127,-9,-8708,2553,4391
125,-39,56,4927,-2390,-5992
119,-37,-15,1848,-2120,-715
116,-58,-109,-307,152,-576
24,120,113,-2484,438,383
0,30,89,-130,119,1799
-14,104,-79,-448,-1219,3673
-64,110,-31,-505,-1065,6432
34,41,2,-159,-951,6485
52,54,62,949,314,4853
117,58,66,-450,-1249,3907
-70,125,-51,3001,505,1233
4,43,-128,1322,455,2663
-63,24,-124,-33,-1058,2414
-20,71,-115,515,-886,1786
-15,-29,122,1644,626,273
-47,-35,-112,896,625,-1349
-18,-63,-120,-399,110,-202
20,-99,-127,-695,-171,176
11,-118,106,-97,78,84
14,-124,89,353,211,-46
18,-109,87,183,64,11
27,-98,88,-3,-59,178
39,-99,91,306,-37,96
51,-87,97,280,94,51
64,-86,87,261,124,-2
-103,-84,-109,4956,4512,-4105
77,26,-5,7960,3991,-8357
8,-24,27,4882,-2883,-7822
-87,24,103,1733,-2065,-7531
-42,-48,-90,423,-2541,-6546
124,-100,46,-2954,-666,-4065
117,-52,-111,860,6984,4336
61,86,63,-1152,6922,9462
36,-104,64,-5373,3108,1374
-54,-18,-13,7588,-7000,-6472
-120,-17,4,-2883,-7087,-2840
24,16,91,-2829,-3884,-3599
-67,-81,-118,202,5018,209
124,124,-47,-1386,6406,5732
-116,79,-63,1469,4448,2287
107,8,106,2101,-7271,-6009
-36,31,89,6561,-5738,-9266
113,59,-127,-2326,-10525,-7208
-53,-46,-84,3372,-2434,-8443
0,-29,-82,2899,384,-3856
-43,-91,-9,2488,2323,-1514
60,-87,6,4641,5926,1533
78,95,126,628,9486,9772
-41,35,101,2817,-4586,17768
-95,-7,50,-5292,1940,11515
118,-63,-72,4334,-583,-7857
-47,51,105,654,-3943,-503
88,-23,118,-362,488,-779
91,35,-95,-3849,6,716
-2,-40,39,-419,437,242
-71,-96,124,-35,-188,321
-98,-83,-77,350,1655,1766
61,33,-96,64,1649,2634
-122,-86,124,-398,2473,4455
121,-22,-69,669,-26,6417
-35,-6,-98,326,-665,3805
-125,22,-73,-1242,-1790,5060
-35,-23,17,937,-1065,3433
126,98,-57,2784,1440,1592
113,1,-108,3515,1255,1557
36,-22,-111,1693,806,464
-4,-42,-75,-672,71,-637
20,85,-69,175,-481,-1136
77,20,-42,314,-225,-143
62,18,-49,61,-151,101
63,48,-60,-485,-148,213
70,60,-86,-495,-131,272
69,56,-103,-148,-279,115
82,76,-112,-344,-40,-25
84,75,-121,-291,-33,26
-7,-72,62,4263,4134,-9917
123,-109,-120,4768,3554,-11698
-6,77,-78,716,-729,-7777
-91,-68,33,-24,-206,-7427
108,-85,87,-1398,5959,8945
-80,-117,-91,-3255,4235,9861
24,25,-83,4194,-374,-1841
110,90,56,-1316,-7452,-4919
-20,-62,67,-1061,-3822,-4193
120,68,65,-468,805,-2980
-73,9,-9,1218,4209,4432
15,104,78,-2275,4257,6332
34,-20,-48,5402,1496,-3907
-58,-7,-8,4400,-10251,-7822
-117,-83,-53,-1466,-13153,-6346
-62,-116,-103,563,-5667,-8797
93,-23,67,2728,-1309,-4781
-87,-60,-89,2909,2265,-2270
-113,-59,9,3805,2336,-598
99,4,74,94,11255,9050
-26,10,107,8460,7115,12254
-56,110,-127,-7989,1897,8192
-42,-78,41,4011,-2176,-6321
22,-85,9,-662,-1963,571
-62,-112,-35,-1943,1016,-139
113,22,-11,-3281,1948,738
-59,-9,19,-1565,-298,1832
37,57,-86,613,-1186,4383
54,-71,-32,4315,-627,8890
-56,11,-58,4338,2512,9482
62,64,51,-1164,3857,5224
-53,58,92,6382,-1952,706
-44,6,-120,574,1298,1699
87,-106,-126,-1195,1848,664
-19,30,94,-646,223,616
-42,103,-106,1993,-831,-93
16,-10,-69,3365,-92,-842
24,-51,-18,2476,477,-683
27,2,-2,167,208,-287
50,-30,-21,-270,-27,204
54,-52,-40,-260,-36,256
40,-29,-60,-453,-130,147
49,-38,-77,125,-8,131
54,-45,-72,1025,-5,-206
78,-56,-79,1557,176,-585
85,-19,-58,350,-55,-416
94,-26,-68,-332,-74,91
96,-29,-91,-485,52,130
104,-30,-117,-301,242,269
87,-25,119,0,-61,6
-65,-47,-64,1898,-851,-6727
-97,-34,123,1662,-1437,-9846
-72,72,-93,-615,-4277,-6289
26,-49,-99,5880,-4119,-6225
85,85,-82,2015,5876,11414
-13,111,-111,3380,5667,4092
21,70,-104,-4910,-7926,-1150
80,-53,-47,-1052,-4683,-4504
-47,44,75,-3612,-1379,-3799
-93,16,75,5140,2106,-1938
-59,57,115,-3533,5735,9678
-91,-70,-83,1925,762,-1875
31,92,-83,-504,-8971,-9154
-73,40,116,-4391,-9879,-8320
64,83,40,-3972,-6553,-7867
59,-122,38,-4353,-2999,-5168
-56,45,32,-1282,1943,-2716
-24,-10,-128,-1147,8900,6019
126,54,101,-2618,820,18961
10,104,-4,5127,1159,9167
-97,-55,-62,-1465,310,1538
1,1,71,2983,-2304,-2942
120,67,91,-20,-591,-562
56,38,-98,-1589,657,-899
-111,39,-109,-1905,93,1212
-55,-53,31,-1563,-622,1740
-92,117,-17,1717,-669,4179
51,120,15,1407,1247,7431
-102,80,-17,-3669,218,7537
-110,97,10,2418,-2509,2942
40,-95,40,-447,-586,1770
67,-42,1,1315,-587,191
95,-49,-63,-81,860,1524
37,81,-111,817,-3,423
93,75,-105,863,67,1265
75,33,-110,815,178,-137
35,-80,-112,1117,-24,-695
77,-113,-108,471,85,219
74,126,-116,359,-132,278
97,112,121,162,226,412
96,121,99,254,110,371
77,123,102,727,-263,538
90,117,115,546,-74,98
126,81,100,459,339,-117
114,66,86,319,121,3
-102,85,100,190,-185,525
99,82,90,309,115,-24
107,66,85,601,59,-205
-100,91,107,424,82,554
-121,122,102,-195,165,106
77,-95,12,-2287,1337,-5895
114,-37,-106,2746,63,-11348
-60,76,37,-280,-4143,-6273
-32,-60,-95,-1453,-2308,-5841
90,113,-102,5024,3894,-4587
67,-62,-24,2694,4020,9318
-123,-101,-37,2494,4094,8848
54,-51,66,-2923,-2909,-2401
45,-53,-113,-1903,-5308,-6820
-69,-27,-48,-4375,-4182,-4004
-107,-73,124,1216,-945,-3859
-94,121,-77,2548,4329,3997
-62,39,-117,-3805,5007,10278
-85,-51,-18,2734,1391,-698
-56,78,-1,417,-7200,-7171
-119,-124,20,-3694,-8352,-8506
-98,-114,97,-5907,-8338,-7452
73,-93,-50,-6472,-5034,-5783
-117,26,84,-3455,-197,-4585
97,85,70,-884,2348,-1887
51,121,-10,2190,8686,2021
-25,-39,-51,-6118,1566,22052
72,-29,-20,8911,5147,11204
-81,106,77,-2187,-569,3352
-73,10,122,2207,-4178,-5496
-23,-116,33,-883,236,-3066
93,-104,-53,184,-245,-973
-82,-34,-59,-3375,-177,1742
126,114,68,-3350,-473,1170
108,-61,110,-151,695,1907
-24,-81,-17,2797,1294,4827
36,50,-68,982,1732,7319
-111,113,-82,-144,798,6827
-94,-105,-34,640,-1987,4219
70,23,98,376,-1724,3973
104,-93,69,4126,-973,3005
-73,89,2,3077,1580,996
74,-115,-31,3199,1291,-550
79,63,44,1585,731,246
74,6,68,-472,43,239
85,-57,50,-505,-311,428
92,-110,44,567,-245,415
101,-99,48,883,188,227
99,-86,49,740,72,-147
87,-57,60,134,-75,445
99,-26,41,-673,34,284
98,-62,-17,-301,147,-47
93,-68,-32,-103,5,-65
94,-76,-43,111,-276,-244
113,-69,-49,155,8,5
78,-58,112,2082,-4285,-6780
72,-127,-7,691,-7005,-4615
116,-106,-20,-2532,-2373,-4759
-48,-11,103,-1018,-2856,-3406
22,-66,5,6289,-573,-2925
0,-116,54,1011,3570,9350
-58,-62,27,3077,4264,7313
-51,-111,8,-3860,-2276,-515
22,-20,125,288,-4083,-7196
117,-56,-44,-2154,-1989,-4166
-83,-52,-83,3373,706,-2487
-9,101,-21,-609,3055,7883
99,-7,88,2191,1796,4448
-119,-99,-83,-967,-1484,-5001
-71,34,121,-751,-6412,-10617
39,92,-89,-6636,-8354,-7892
-105,-29,38,-3578,-4629,-7601
-35,121,-112,-2899,-930,-4323
-103,10,97,-1408,1206,-2370
28,125,-68,776,6815,2476
-104,27,-16,1066,1045,18377
114,102,32,11057,4628,6120
-57,-122,11,-2968,-731,-3120
19,37,43,-125,-679,819
-11,-52,24,-2235,1959,-1018
-99,95,-33,-2570,-392,2187
18,40,-74,-3093,114,1907
60,-43,26,-2230,-1247,2888
46,-15,-24,1360,-2751,3817
47,21,56,381,1275,8916
-13,122,-99,3265,-3083,6521
38,-63,-114,-276,-877,3140
85,-111,119,2511,-168,2180
115,-11,41,3194,1616,848
28,23,-77,3999,514,888
38,-88,-76,1517,1045,-209
42,65,-47,825,667,-425
110,4,-5,613,532,-571
127,-8,19,630,487,-51
-107,-17,40,315,760,904
124,-57,52,210,-127,785
113,-84,38,723,-299,435
-124,-64,22,757,-130,296
123,-31,8,-86,199,144
118,-19,-21,-692,368,368
114,-63,-55,-168,47,54
121,-59,-56,142,-138,-173
-114,-45,-63,-4,120,71
-116,-38,-68,-65,-105,-98
-109,-36,-72,89,-25,98
89,18,98,6188,3380,-3326
3,-39,110,10983,7623,-14841
-104,45,74,4087,-8256,-6349
-127,-86,-21,49,-4806,-7202
58,26,-41,-1403,-2833,-6232
-20,-58,-17,-1952,3011,-894
12,-68,69,-2020,5224,10025
1,-92,28,1082,6834,8940
53,40,18,1590,-112,-4902
125,38,-79,2497,-7024,-5491
-1,8,13,-932,-4032,-4724
-39,-114,76,-1232,-1015,-2875
-21,-52,76,1455,4776,2098
-2,-118,70,-4206,6120,5608
63,127,105,5907,8067,-2932
-109,70,69,7591,-8159,-7038
-93,111,62,7228,-9807,-3063
110,26,80,4785,-8322,-4308
7,15,-60,6365,-2375,-3972
-70,-58,125,7149,435,-1137
76,60,76,-2401,5242,6450
49,-20,109,12538,5299,14658
-22,-124,-3,-7460,4876,10460
-88,-92,52,5899,-996,-3093
6,102,106,-1696,-3757,-1715
-94,-93,-90,166,-784,-1547
1,92,121,-2234,1840,-87
-51,-3,44,-2972,768,1088
-84,-22,102,-1301,-512,2431
122,48,-79,1483,-792,5878
-113,87,15,334,66,9433
107,78,82,-3695,-2954,7334
127,22,103,865,-2687,636
-60,76,-61,6078,108,3431
53,-3,-29,2408,1188,1346
-33,-2,-111,2233,354,1249
-71,54,102,1790,-464,1426
-49,-3,125,-544,-70,-400
-46,102,99,505,389,-1238
-8,27,115,1242,330,-440
-23,88,-108,62,-247,12
21,88,-119,-152,-127,503
37,87,100,326,147,206
43,96,99,409,168,11
32,122,106,-92,139,162
26,112,90,-165,145,-56
39,90,75,125,138,-154
47,92,74,248,-15,-18
54,106,71,89,63,3
64,106,73,218,80,-37
85,-117,50,3926,2468,-1691
-124,65,-81,11277,7293,-8919
-18,-55,70,6216,-214,-9664
40,78,-32,3646,-3681,-6604
96,1,-30,1158,-5387,-5915
84,-126,113,-1564,-2077,-4368
7,43,44,-147,5124,4770
-58,15,80,-4077,7035,8490
97,-103,-51,2988,7781,3812
24,-15,-73,5267,-8326,-4990
18,42,-2,-15,-6251,-3220
-127,-76,-107,-2696,-5854,-3266
-99,-115,28,2391,424,-1405
34,-124,10,-267,7384,4967
-102,70,-16,-5630,3028,7213
-36,21,95,6599,-5055,-4946
-53,-35,-6,4923,-9381,-7514
-9,-76,116,-556,-12577,-4749
-94,-86,-71,1666,-5714,-7218
-127,19,50,-291,-1372,-4307
37,10,105,4034,1895,-2021
-99,28,72,-3187,11864,16878
57,-123,31,7025,-4967,15433
19,20,-13,-612,1767,2095
-53,-122,74,3279,-1637,-4062
25,-91,-121,211,-1624,-686
-99,-55,-24,-795,1087,-1065
76,-99,-59,-3186,-284,937
-117,59,-98,-1668,-52,1071
95,45,103,-1860,-2133,2360
-25,-102,-7,-160,2532,9187
-34,-92,79,-579,533,7567
-21,114,-95,583,-534,8378
-35,-14,-111,-1034,-2979,2197
41,74,79,3107,-1868,5170
57,-21,117,4911,1995,2595
-55,-54,56,2033,-73,130
-103,-69,-116,1047,-1790,-2483
71,-26,-59,565,-251,-1923
70,-37,-106,730,796,-841
58,-57,-81,1043,-2,-61
86,-31,-58,762,-257,442
86,-22,-29,-185,-343,264
85,22,-37,-1192,-392,327
94,-7,-90,-266,237,195
84,13,-114,-7,189,-255
112,21,120,85,255,-84
106,52,112,-285,-39,163
94,59,107,-225,-50,120
103,67,99,-101,102,-11
-118,-30,-25,8256,5802,-9787
-41,-127,86,8707,-887,-8280
-75,116,108,1849,-5256,-5517
22,117,-123,-233,-3135,-7214
1,44,-92,-896,2464,-1145
-47,-90,17,-3728,7648,11022
-9,69,-79,1360,486,1990
63,-38,59,1384,-7673,-7839
45,-38,14,57,-2714,-4633
6,-66,43,905,-2742,-3789
-36,-3,-52,2533,3753,2702
-10,60,-44,-2780,6819,7710
-35,-21,-67,3022,1969,1935
118,-101,-51,2969,-8395,-7436
-83,-83,-58,4801,-8547,-6902
-9,98,11,-726,-9301,-6917
-16,108,-91,2161,-3712,-6534
23,-125,-23,1514,-1011,-1698
12,54,90,-2406,4262,-663
27,25,113,6116,1026,18508
24,44,126,1658,6850,13088
-3,-36,114,-4908,-2295,1800
88,-44,25,3970,-1822,-4463
85,92,77,189,-1566,-490
-64,112,-36,-581,-50,-1109
-107,-6,-42,-1758,-77,-1223
97,-75,-22,-2480,-545,-700
82,45,72,-827,-1024,434
-23,-128,-46,-182,514,4495
59,1,11,-1558,1210,10022
101,-2,115,1604,274,3429
-121,-64,66,1060,-1320,3187
-98,17,30,-1363,-1603,2499
-58,-40,-47,1446,-2231,1873
32,120,-52,2906,-750,1444
63,67,-107,2092,473,390
62,-58,-119,1173,993,-35
96,-45,-86,-844,1530,842
120,76,106,451,1628,355
108,57,-123,2268,-197,348
118,88,-71,1245,-755,457
90,48,-62,1162,-201,405
125,41,-66,674,405,384
113,40,-89,205,474,146
112,17,-96,85,-138,21
121,12,-91,208,-378,-122
-115,31,-85,-276,86,25
-125,18,-103,-70,-48,-155
-110,33,-121,-93,102,155
-112,39,-126,-223,7,-13
99,-53,8,-1078,1879,-6481
-80,-121,32,3330,-751,-10014
106,90,72,3001,-3905,-8075
29,-56,121,-1133,-5164,-6859
98,126,-33,2310,-1203,-5584
-69,-26,85,5875,5667,7189
-95,-117,110,-3589,4941,10926
64,-128,-98,642,2122,3718
-73,23,-29,822,-5875,-6420
123,-59,35,-3267,-3770,-6389
54,2,-50,-2099,-2302,-5056
-112,15,-75,2221,1758,-2007
-97,-35,93,202,4140,6690
53,90,55,-2190,3770,8330
28,-107,-125,-490,-183,231
119,103,83,2254,-6394,-9558
97,65,121,-3593,-8933,-8228
-69,29,44,-2801,-6330,-7916
102,66,37,-3858,-2995,-4013
-51,97,26,-2579,1,-1412
-78,23,-9,-1018,3318,-5654
-41,-50,-118,-3134,6546,17463
1,-64,43,9517,-2336,19214
66,120,-109,-7696,2474,3466
-71,83,101,5451,-1229,-4091
0,108,-79,449,253,-968
-88,47,-38,-689,-150,-446
114,91,34,-65,-755,437
-18,106,11,-2294,95,727
74,39,59,-3186,-685,1698
67,-26,-81,-978,-2611,2079
86,98,-43,1064,-934,3214
-46,-108,-119,2081,-2887,3985
-68,-2,-69,3417,-223,3329
-39,29,-6,-137,402,5158
-60,-98,93,-614,-258,2561
62,-92,67,3412,-1139,4768
113,-73,-45,2717,781,437
95,-11,-67,3139,1159,1791
16,-66,-57,2444,33,885
19,-114,-8,1240,-50,254
40,88,1,-438,48,-583
81,36,-28,-559,655,-377
76,-42,-56,542,40,-365
74,-35,-25,848,-444,8
103,-3,-13,36,-199,72
118,17,-35,-597,77,121
108,8,-59,-361,-62,404
98,7,-77,-25,-142,70
113,12,-96,275,274,92
32,65,-45,4331,1493,-10766
-28,-8,-32,3128,-3724,-8301
67,-125,63,-970,-2720,-5106
57,-78,-17,3205,859,-4110
-104,53,23,2870,3190,3906
-93,58,-65,-3598,3429,9148
61,-99,-102,122,1910,1740
126,40,96,1414,-5697,-4461
-27,-43,-5,-1501,-4363,-4466
-117,-19,61,-1104,-2263,-4155
-84,-9,-126,4016,2530,657
-22,85,48,-2026,4324,8148
-48,-28,62,2014,3740,3166
-65,-78,68,386,-5748,-5614
86,49,108,-1211,-6249,-7687
-15,80,-125,-3414,-6422,-6047
80,-67,30,-3473,-4605,-7237
-90,42,115,-1983,-1347,-5919
-55,-111,-58,-375,682,-1874
-5,-16,-117,-5376,7005,14555
7,80,-102,4165,-4091,19535
-111,-19,41,-4965,2690,2763
-119,-124,75,4466,-1025,-5486
-78,-64,108,585,-824,43
-10,73,45,890,1594,-898
122,-94,70,-2262,-51,1021
57,93,68,-2024,915,961
-27,-16,103,-87,-1780,2447
67,-18,-58,-320,-261,3266
33,12,43,330,111,6925
14,-50,-100,125,-1298,7092
-56,21,119,275,-929,5748
122,119,43,2611,-1326,6268
-68,29,-95,2720,1399,2258
-31,-77,-113,669,-341,522
-91,-36,-100,200,-1150,-1012
20,24,-70,1551,-383,-1712
62,-78,-27,2121,561,-1493
75,-35,-3,786,1120,-170
79,-23,-1,14,688,516
82,-34,-24,-151,-194,218
107,-24,-37,-353,-267,121
118,-19,-54,-601,23,-70
100,-39,-69,72,-43,-289
112,-44,-80,475,0,-62
110,-3,-86,-2,22,118
113,-7,-108,131,47,74
121,9,-116,64,46,193
115,11,-125,207,-7,-2
117,24,-127,68,92,149
-77,71,112,760,3653,-4878
-4,17,-81,5258,2918,-8981
-55,26,-15,3580,-1961,-7808
-113,30,-30,230,-2097,-7585
-35,80,3,-274,-676,-6661
-30,-16,98,555,4091,-2249
-29,113,12,-854,6189,14029
53,12,110,285,6480,8344
106,-112,-3,460,-2779,-3545
117,-125,33,728,-6284,-6617
30,-30,6,-1138,-2819,-5164
-8,-65,-74,1116,1281,-1616
-105,18,61,-506,5212,6112
99,77,-51,1469,4852,3092
-32,-95,19,3373,-8505,-5944
-46,15,-7,8572,-8349,-6690
-49,-40,-12,584,-10924,-4709
-52,-19,33,2683,-6436,-5785
104,78,-23,2357,-152,-3704
52,-88,56,3543,3376,-1956
-124,-11,103,46,10877,13982
14,-77,-15,5507,-1669,13548
53,121,-77,-5420,5415,4930
-36,30,15,4426,-2713,-2831
-70,94,64,-277,-2532,-197
-76,-18,-110,-2711,896,-947
-36,-10,-57,-3079,-775,954
-34,-128,6,-1468,973,-48
36,-87,-86,-1206,-740,2107
-69,115,-91,665,-128,3568
-93,-101,-28,13,2172,6734
-125,110,-80,1370,-152,5518
-64,-59,-5,613,-905,1972
-24,-60,-45,1057,-1040,3517
-10,103,44,348,-411,1461
25,-112,-44,1590,895,1022
74,-51,118,3080,1104,889
80,-112,113,2942,752,428
68,99,-74,1564,179,162
75,115,-60,-464,5,263
85,61,-99,-730,62,591
77,16,-110,56,-293,335
70,29,-99,169,-70,371
77,45,-112,-153,91,182
75,24,-125,478,39,-67
90,32,-116,536,-66,-146
99,52,-120,-113,140,-162
104,39,126,-120,-51,-225
115,27,109,85,-58,-191
115,31,106,189,103,-9
104,25,67,1687,4683,-8803
-44,84,-48,3888,2860,-9199
17,-99,109,271,-1022,-8415
117,-115,116,-2403,-788,-7120
-17,-32,-68,1819,2265,-5095
47,61,-63,4354,8378,7722
63,-5,-20,-6641,6365,8977
43,-67,13,6199,7498,391
40,-50,-86,-4074,-12539,-3539
24,-119,-74,-1038,-5010,-5369
-120,-111,-81,-924,-1604,-4021
46,56,-24,3705,4111,2829
92,-48,-35,-4305,6990,7050
-13,-3,106,4133,6393,1046
-109,-21,-75,719,-10574,-5113
-41,-94,24,8016,-8555,-5369
-90,-49,-18,-916,-11554,-3570
-59,66,47,1626,-4911,-6535
-69,-91,82,240,349,-4545
-29,98,-75,1366,3580,-1684
18,30,92,-1211,9410,8843
64,91,-46,-76,-1330,19302
-55,-1,-100,-3860,790,8372
-103,-30,18,4946,-801,-5868
102,-104,-44,1007,-2697,1907
1,0,-52,-1208,1370,293
-123,94,79,-3172,3590,18
94,82,-8,-2501,832,2449
-47,-41,105,-1931,-2166,4528
36,-55,83,-1059,-821,7066
124,39,-97,-1278,-396,4925
-56,106,-18,-512,-870,3756
18,94,-83,3415,-2517,321
127,78,44,1585,928,2146
-9,-86,-106,3568,1188,-948
5,-85,88,3683,572,347
44,118,102,2144,416,-408
86,103,-125,587,595,-66
91,72,-121,-81,31,416
92,58,-117,-436,-465,257
107,45,-108,-700,-433,-102
116,25,-109,-330,0,-44
108,17,-116,134,36,-9
105,35,113,272,195,262
103,54,88,1,165,178
105,66,71,-91,117,165
113,71,60,131,-38,96
117,94,80,-266,-205,0
126,104,85,-428,-125,-38
-108,111,83,-409,148,156
-126,3,113,3873,3921,-6887
-52,92,4,3562,172,-7256
67,5,123,3334,-849,-7658
-82,70,-49,407,-2636,-8005
17,-89,8,-1743,3921,-3985
89,-103,10,-1706,6899,9747
113,-26,-93,1817,6904,9914
-88,-74,48,-1327,-4384,-3194
93,-111,-70,871,-5869,-6749
2,58,-10,-1689,-4250,-5712
107,-33,120,1370,2511,-3108
28,109,50,-1630,5505,5522
-128,-125,27,66,5895,6801
95,-108,-88,2811,-7476,-4970
-104,46,48,5727,-6930,-7856
77,-53,80,1302,-8745,-8172
-4,100,-68,3718,-3685,-7600
-95,-48,-64,3406,-234,-3437
42,-77,-11,3243,1586,-3729
100,64,70,-3948,7031,2129
85,-86,100,1566,2225,21332
37,-90,75,3263,188,9295
-80,63,-22,-1194,1341,-5393
3,-91,36,1917,-3933,-59
-18,-90,-28,686,519,958
-79,-77,43,-4212,124,1971
-56,-81,27,504,-1033,4055
17,14,-5,3314,-862,5022
11,112,-58,2483,2747,5809
82,81,35,-3312,2376,6529
70,14,64,4119,-546,2018
127,97,-115,2139,-339,1855
-90,-21,111,-341,634,1598
86,-43,84,-1786,426,1333
1,23,58,695,-530,596
18,-50,67,1859,106,956
36,-114,74,1349,306,-205
-34,77,127,1140,-463,-1338
77,77,-105,293,302,-201
79,82,-107,-96,291,-20
98,75,120,-286,221,199
84,79,92,-161,65,23
86,75,74,24,135,-136
99,61,59,344,116,-321
113,77,72,93,105,215
101,89,91,136,-258,70
123,103,92,286,133,133
-123,115,86,154,144,-201
-120,108,69,168,69,-271
-114,98,60,195,50,-153
-57,-88,125,3462,3161,-3683
-77,-25,-59,6212,6068,-8632
77,92,-114,5750,-1313,-8215
-50,32,58,1565,-2904,-6915
47,-18,-111,761,-3753,-6768
-79,-101,36,677,5334,413
-115,-11,69,-3480,6297,10045
-110,87,103,4556,4399,3080
13,-83,-13,-1027,-8932,-4070
-42,-128,70,952,-3984,-5509
122,94,-26,-3175,-3071,-3564
-116,-66,-45,3220,1036,-777
-95,-14,73,-2966,7738,7398
31,-34,95,3903,7434,1941
91,-101,65,544,-11997,-5380
-38,75,41,5889,-8352,-6147
119,35,-64,-43,-11031,-4173
57,49,-48,1332,-6575,-5470
56,-107,55,1879,-1113,-4547
72,95,93,4572,1405,-3604
70,-27,105,-41,8257,17245
116,95,19,9580,7041,15229
60,-67,108,-7634,2635,6279
-94,25,-94,6412,-4731,-5103
-15,-61,100,-6,-623,396
-59,11,-39,-2204,2309,-233
103,72,2,-2841,1420,1644
-52,-50,40,-1771,118,2543
37,14,-4,-3108,1044,2467
-126,99,93,-372,-789,5191
-92,-112,85,1361,-1307,5930
5,3,67,2316,-250,2872
-18,16,36,982,-524,2425
30,-58,-44,2603,259,1718
74,58,-114,3228,1336,1236
35,-15,-120,2519,653,244
4,-34,-108,368,-460,385
47,-97,-119,-1611,-697,460
53,59,99,-680,-69,84
68,8,85,497,-53,-299
72,0,109,1501,-46,-170
56,75,-80,161,-94,648
75,117,-91,-1223,66,670
82,87,110,-644,31,421
85,97,92,-225,128,332
102,75,66,197,270,-366
126,61,59,290,443,-438
99,103,90,-560,-434,228
104,110,74,-241,-525,616
97,127,57,-257,-64,212
-43,110,39,4309,-771,-7693
-124,76,-101,-467,-2291,-7302
-40,41,-12,-163,-3105,-5652
18,-98,29,7184,5757,1939
9,-90,-92,-6520,5510,11083
-28,83,9,747,270,6052
-13,-121,-66,1771,-3344,-7266
45,-1,52,-1875,-3954,-6194
41,24,-88,-2833,-2117,-4531
-101,-69,-41,-1534,1154,-2233
109,31,-1,1686,5987,375
66,-60,8,-2091,2929,10524
7,-85,-61,3303,116,2239
32,-116,61,2315,-5032,-7668
109,-86,47,-1377,-6282,-8224
-100,99,96,-3323,-6698,-7728
92,69,69,-1552,-3240,-7316
43,-34,-62,-3425,-88,-4546
-128,15,-81,70,494,-4872
97,-48,-74,-3219,9312,4842
48,-77,-71,-1024,-1301,21760
-127,69,-104,5677,-1372,13279
104,42,32,-3902,3800,-6454
-10,-9,-41,3535,-1796,654
-74,20,-85,445,2168,96
126,-55,-17,-2156,883,1716
-48,89,23,717,-1657,3402
-11,-28,90,-505,609,3517
93,20,-68,114,515,4598
-49,-94,70,-918,-1478,3639
26,127,11,779,421,1743
10,-58,27,961,-538,1718
98,72,-29,936,476,1484
-122,-16,116,146,426,1458
84,-4,-91,-1036,-784,1286
79,-72,-125,-367,-403,675
83,-126,-124,516,811,-528
-117,-124,-127,884,1363,-544
-121,83,-118,1813,297,-293
-114,82,-95,1519,-216,79
-106,100,-58,177,-426,-47
-106,80,-78,-529,-512,186
-106,63,-102,-499,-341,207
-96,45,123,28,-214,27
-112,61,120,244,-113,91
-125,85,117,113,-180,110
-118,98,117,-129,-75,231
-115,96,99,11,36,56
-93,98,75,163,116,109
-105,100,67,199,-74,1
89,83,-102,1986,3090,-8349
-125,91,20,5249,-891,-7942
3,-99,-20,1024,-2603,-7272
40,125,39,-1821,-1896,-7244
-71,26,21,719,7214,-1440
109,75,17,-4070,7668,8134
-97,82,-55,1057,4382,6032
30,5,46,-238,-8348,-3632
-4,-21,106,3038,-3126,-6864
-90,-42,-71,-2708,-4733,-4956
59,80,-55,2047,3462,-1023
-41,0,107,-1259,6814,7208
64,-7,121,-408,6344,4918
-40,-112,10,4965,-6960,-5644
-43,35,-16,9526,-6871,-6318
-32,115,-64,2173,-10583,-2433
-11,-117,-123,1787,-7983,-4969
-124,83,100,4219,-2240,-4155
121,92,-8,5138,1791,-2348
68,-104,15,-670,7995,741
-127,-100,79,-1678,6811,19522
-121,37,116,7164,7787,7836
43,53,33,-6366,3005,-143
-33,14,-79,4928,-4980,-1130
-41,-14,-21,-2140,713,-379
49,-53,126,-1705,1135,-29
-113,38,19,-195,901,1341
51,-68,58,-2122,530,3031
-119,33,23,-1407,-98,4819
73,119,-92,-173,-89,7435
-114,75,66,517,-3289,7840
-49,46,4,1251,-1481,2578
2,120,29,3262,2341,65
4,91,85,2685,898,423
-80,54,86,1653,1435,-1544
9,-13,85,-657,1619,-289
71,102,90,-757,613,740
53,56,-118,-246,-978,205
100,102,-108,-1058,-136,-486
-120,-117,124,-982,323,-56
-127,-108,114,-442,94,588
102,-109,124,394,-531,23
-119,-68,126,-92,229,17
126,-80,117,204,-104,-150
-122,-79,108,271,-39,127
126,-65,112,-1,-161,4
-114,-78,92,143,52,-19
-123,-79,94,204,-13,-22
-118,-82,87,227,-77,-6
-116,-79,83,121,19,118
105,-99,59,575,3127,-7510
-110,-122,63,3635,-1506,-8585
113,78,-113,2037,-4497,-7091
-34,-34,-55,-1093,-4076,-6166
110,69,-92,3025,1397,-3166
-113,-119,98,4955,4814,7513
60,5,36,-2189,5593,9343
98,-25,-88,-2132,-1154,1375
-80,3,-27,3247,-4937,-6267
-63,95,-42,-3279,-3911,-4118
-109,-81,-108,-1412,-2572,-3622
-89,16,127,5104,4611,-847
45,-84,-73,-3545,5160,9835
-126,123,-56,2297,3109,1130
-83,-65,-106,453,-9146,-6584
78,114,43,-2994,-7408,-7735
-48,113,-30,-5530,-6262,-8167
-126,110,-30,-2145,-4581,-7322
116,121,59,-3195,-439,-5530
-79,55,-26,1495,3185,-1468
113,-32,-123,-3777,5543,18548
-85,-52,-128,9486,1454,19382
28,-26,97,-4133,3469,-287
-62,127,11,5108,-481,-3056
89,-116,92,-1992,-1821,260
-2,-68,-57,-605,336,-477
94,99,-10,-3282,-959,-208
-96,-115,-10,286,-547,-626
-32,12,-92,595,-505,1312
-2,15,47,-121,-528,3605
124,75,51,-2383,1089,7404
-127,32,-67,2617,1075,4342
-55,21,55,464,-162,3863
-91,114,29,-137,-1460,3562
-19,39,12,-506,-1528,2957
76,-110,-12,5413,100,1366
-122,-4,124,4293,1795,-49
113,-69,-105,3227,1911,-1234
103,-52,-32,-412,1240,-349
95,42,10,191,331,213
-115,-50,48,53,-220,526
-99,-37,55,-545,59,380
-95,-37,23,-363,357,486
-106,-24,-9,732,215,-103
-118,17,-3,926,-18,-380
-114,30,8,52,-53,-542
-85,-3,-1,436,268,-472
-66,-31,-8,610,42,-181
-77,-4,5,-68,47,259
-65,-34,-18,397,339,619
3,26,110,-2923,-581,-4511
-84,-96,85,2822,1133,-10323
-37,70,46,863,-4432,-7560
106,-90,-74,-1535,-4178,-6953
-107,2,44,3459,-889,-4972
3,96,58,3993,4457,7904
-26,17,-104,-595,6110,10814
-54,105,-77,-4859,1170,2594
38,44,-9,2458,-6333,-5515
-74,-12,34,-1606,-4597,-5902
5,-20,-91,-4377,-2824,-4790
80,16,115,4898,2428,-1955
-35,-113,-52,-1483,5378,9734
-20,-56,47,6212,6823,4280
-127,-17,127,-307,-6864,-5641
13,36,103,-242,-7744,-8884
-31,79,64,-5722,-9294,-7399
122,-68,-61,-1568,-4306,-8980
-6,-31,73,-3365,-1514,-5793
108,123,80,-786,1056,-2399
33,-101,-98,-6826,7404,16069
124,100,-3,7808,-6578,19275
4,-34,77,-4494,2801,4895
2,115,101,3514,562,-1816
40,-38,-109,1986,-890,-1946
-36,19,-68,-394,205,-1106
127,-79,4,-1162,-883,-1025
-28,-121,19,-1494,-908,305
-38,-36,62,-79,-1376,835
57,-16,1,212,-1367,4028
-124,-5,-120,-263,1435,10038
39,-3,-100,871,2716,5940
19,47,-95,-1515,710,3788
75,33,87,1528,-314,2866
94,38,13,3334,-593,2371
84,-78,23,1312,-482,1179
75,76,-24,-42,-466,1337
78,-61,-32,1244,-214,722
93,111,-22,1075,-306,839
94,95,-29,1077,265,532
88,73,-24,578,-41,440
69,75,-45,-361,11,287
90,41,-72,-487,-85,227
68,19,-81,-50,-316,165
82,44,-86,-61,-75,172
93,55,-104,-436,-17,-254
114,54,-123,-571,-174,-325
124,67,-127,-855,-152,109
99,74,126,-857,-326,161
104,70,106,113,-145,135
125,101,-82,-237,1842,-8225
-106,-112,-102,4095,-2165,-9166
111,116,-28,-140,-3807,-8176
62,102,20,1700,-2858,-6973
-26,-105,-122,5549,4944,7038
-109,113,29,-4950,4123,10712
-43,55,-121,-944,-1014,4023
-29,-83,69,3310,-4237,-8016
-78,-53,36,-2115,-2940,-6270
41,-126,61,-739,-2828,-5064
28,54,-22,5105,5595,-440
3,-31,-119,-4184,6006,10366
79,59,24,4137,2959,3470
69,81,-46,1427,-7597,-6932
-47,11,-90,-66,-6000,-8761
-39,108,71,-6490,-7816,-7991
-37,54,-104,-2123,-4464,-8072
96,23,118,-3994,-1648,-5661
78,33,-71,-2265,3145,-1783
-28,-42,110,-3155,5547,17823
-115,104,35,4893,-9371,16878
-61,118,-101,-6413,2009,3972
101,-98,-38,3867,2425,-8128
-36,-29,-16,3615,-2485,-675
118,-86,-90,-526,360,745
-125,-72,-99,-2294,1276,779
-49,8,-122,293,-467,2343
-71,42,0,1214,-1200,6154
35,-107,31,-1078,984,7241
-14,4,-6,821,860,3502
114,89,14,1284,-2225,4501
36,30,-99,194,526,1025
75,108,88,2051,1619,1456
46,72,-97,2132,599,1032
86,34,-45,756,1065,-152
-96,-8,-23,209,1742,-990
-95,-84,-3,1244,1159,41
-106,-115,30,769,-127,867
-96,-124,18,-260,-698,178
-73,121,-36,-1399,-395,112
-80,85,-73,-448,-497,378
-84,61,-96,382,-945,844
114,112,-77,-307,-1265,1109
108,-98,-122,-1581,-420,741
76,-112,85,-1370,-430,348
102,122,75,23,-103,-274
117,125,89,423,249,-147
-128,-116,88,358,191,-220
-113,-106,91,-76,32,38
-122,-106,82,78,-18,-21
-109,-3,-93,3705,2947,-3510
-102,-75,-59,3817,2029,-7905
-3,54,-75,3975,1429,-8280
-114,-91,112,2072,-1694,-8080
-123,-106,-110,-670,-1579,-6391
65,29,1,-481,2448,-3480
74,-63,87,-41,5138,9277
66,-127,66,-5109,3129,9501
-127,-9,124,4904,2007,-2852
44,-51,44,341,-7474,-5892
3,15,-13,-197,-4319,-5420
-28,94,-44,2,2135,-3194
90,27,116,121,4650,6403
36,-14,-72,-1851,3989,6795
127,68,123,7044,1125,-6189
-96,-121,109,6224,-8248,-8051
-14,-9,-88,2494,-11557,-5216
-52,58,83,613,-6553,-6630
126,-26,-2,3753,-1701,-5792
-63,-45,-17,1870,3053,-3024
-109,22,88,1241,5419,2510
-122,-120,1,-5324,7607,18036
65,4,81,5059,609,19167
-5,-89,-121,-4641,412,846
-35,47,-82,5109,-2255,-5681
-24,-7,117,26,-750,-1040
86,31,119,-1498,2071,-1030
21,-69,44,-648,631,1127
115,-108,-70,407,-1033,2963
-16,50,-44,-777,-596,5434
58,-72,-23,-1667,986,8068
78,-106,-12,2653,-1401,4863
-62,-47,7,-829,-1257,2760
-104,41,-44,2123,-1334,2520
-20,-29,41,824,421,1440
-11,-124,-73,1267,1048,1681
14,23,114,2444,-248,1735
-26,32,-86,214,-1100,717
-30,-81,-110,-518,-10,-136
-16,117,106,-243,845,-729
14,93,94,181,800,-237
14,100,87,222,173,126
24,105,96,228,-305,115
37,107,105,240,-184,62
57,106,112,266,49,-25
50,117,114,373,80,101
73,-127,104,155,304,-44
62,124,94,78,-52,-37
42,127,89,-67,36,206
64,-111,58,-386,23,-29
-98,-103,-101,1135,2558,-9440
73,110,88,2715,-450,-8815
-63,107,11,319,-2041,-7701
-58,82,-67,1246,-2207,-5955
113,28,15,4618,4010,436
26,102,-106,-4104,2583,11749
8,62,0,7180,4885,7431
39,-93,-119,-2497,-6611,-5308
8,125,-2,-577,-4117,-7120
52,124,-27,-2226,-2956,-5261
52,-11,106,4440,1236,-2954
45,-120,119,2567,6441,7031
20,-115,77,-2760,5534,8933
14,-49,23,2907,1904,275
-47,78,79,-1997,-8675,-6286
95,82,-67,-279,-7847,-7585
52,6,7,-5036,-7125,-7600
57,105,82,-3052,-3209,-6905
39,115,-74,-3594,430,-5233
-38,-13,48,933,2936,-2555
111,-16,-98,2150,5536,12686
-4,21,-56,8269,207,13976
-12,-42,82,-10576,1694,8752
121,-87,110,4889,-1165,-6954
42,62,-106,725,-1618,-260
-76,39,107,-3332,1323,-819
-43,40,-70,-2189,490,726
-64,32,13,-1713,-339,1753
-26,-58,-101,-21,-1415,2002
-103,-65,10,1478,231,5554
64,-108,2,-870,1691,8939
27,-19,38,427,-822,7112
-2,-55,-48,-4017,-3818,3727
-89,45,46,1622,-734,1301
-45,20,57,2688,-78,2422
100,5,84,2481,1669,825
8,108,-13,2812,1921,-267
31,-127,-54,4231,877,-275
85,26,1,4294,24,1036
104,28,85,1773,170,1229
85,12,-90,-1443,-850,334
119,-60,76,-2149,-102,-265
-128,-115,-20,-652,526,64
117,-100,-30,638,184,335
108,-59,-33,686,46,349
118,-19,-42,200,18,-16
-113,-14,-54,18,62,-13
112,-10,-39,98,-421,-162
-123,4,-45,-165,-28,-84
-110,2,-71,-294,335,-211
72,-43,21,-2978,2196,-3981
-100,-66,43,4687,3505,-9419
105,101,35,5600,-2020,-9222
99,31,107,2930,-6531,-8827
63,-3,0,-1386,-4916,-5709
-126,104,21,5909,3761,-213
-73,-11,-115,-6106,4660,11355
126,95,100,5701,3324,5091
-35,-45,39,-612,-5576,-4928
-123,-63,23,-1213,-3761,-5516
118,29,-108,-2451,-1091,-3804
-71,15,-5,3845,3028,218
64,78,48,-3977,3265,9233
-126,38,74,8079,5250,3210
-73,-20,123,-2220,-7089,-5339
-13,72,-16,-359,-6798,-10460
120,-107,-94,-6566,-7394,-8175
110,11,-17,-1377,-3210,-8950
-61,44,69,-2178,-368,-6079
63,32,-128,555,2448,-2816
11,-45,-123,-10549,2732,20115
-71,103,54,16797,-549,16249
-7,-38,-82,-13925,4072,3653
56,-50,-11,8537,-1289,-3451
39,-69,112,-820,396,-1084
-102,112,-13,435,-405,-799
87,-70,-58,-1366,-1877,-1485
89,121,-122,-882,539,-1358
-1,77,111,-974,-624,79
16,121,-25,556,-1580,1517
75,-22,-101,-150,-27,8492
113,50,-81,1724,2141,8012
74,-4,-54,330,-17,7987
26,-103,44,867,-140,1567
51,-22,40,1832,-761,3735
-118,68,97,2262,1164,567
74,-90,28,1574,974,1590
25,-115,2,2789,-458,791
68,119,30,808,-270,909
66,61,22,-519,-255,495
92,-1,-3,-695,41,717
73,-41,-22,111,-248,252
91,-18,-17,182,-164,326
99,34,-13,-929,-144,158
104,7,-46,-417,32,108
94,21,-64,-281,160,198
90,18,-89,86,-45,-174
106,27,-112,469,217,17
103,48,-118,102,176,-101
98,63,-126,-220,-89,-88
37,112,97,303,1130,-9820
-20,-106,22,5779,-1210,-10063
64,99,-91,84,-4535,-8257
-53,-2,-116,1358,-3722,-6747
-119,102,126,6744,4344,4212
-12,16,-48,-6796,4064,13196
-31,52,-36,-2461,1291,6551
95,37,44,3420,-3515,-5994
-74,-1,-52,-747,-3233,-6750
-12,-113,-110,375,-679,-5507
-113,10,-18,2446,3197,-98
-85,35,-79,-3055,4140,9033
-16,-5,112,527,1685,2132
85,-69,-80,2831,-5386,-7889
13,62,107,-2444,-7205,-8003
59,76,54,-5120,-6275,-7703
-100,-48,-99,-1189,-3122,-6944
36,-125,10,-1007,-1010,-3904
-98,94,-75,1685,3831,-1071
0,0,0,0,0,0
0,0,0,0,0,0
5,-53,17,372,24,40
5,-53,17,372,24,40
26,-50,35,337,110,-22
20,-54,39,541,88,-150
20,-56,43,587,214,-239
20,-67,36,578,229,-115
39,-73,22,503,170,68
21,-66,32,387,-13,158
29,-60,39,350,181,53
38,-72,37,621,140,-93
40,-71,38,515,-56,-37
43,-60,46,109,33,-36
33,-71,53,110,-85,4
38,-65,55,20,56,6
35,-67,47,128,-13,-25
24,-59,49,36,-84,-26
26,-59,47,34,35,-29
31,-56,44,179,-45,92
21,-46,44,249,-29,-64
32,-40,42,251,13,-111
15,-51,41,550,-142,-236
32,-47,44,344,90,-166
16,-49,34,295,-67,-106
17,-46,27,186,22,-98
10,-49,30,360,-143,2
19,-42,32,451,40,-222
24,-49,28,504,-6,-133
9,-39,37,389,-147,-46
19,-34,38,448,173,-302
-69,-75,124,1318,2765,-5647
63,-6,-9,4876,-1337,-7854
-55,-50,107,4541,-3839,-7238
79,-58,2,1141,-5454,-6143
34,-41,77,1818,-1483,-3599
86,47,76,3705,3512,3848
-107,40,11,-5085,2330,7926
-31,-12,19,3992,2566,3486
-34,-18,-69,823,-5216,-4948
-81,-115,-90,702,-4348,-5278
17,28,-86,-4784,-3553,-3868
-9,86,-49,5281,2450,-842
-120,14,72,-2404,3135,7427
126,-18,-64,117,2519,5710
69,-113,1,690,-1555,-3322
-72,51,-57,548,-6196,-9239
-92,77,100,-2138,-6813,-8734
123,9,44,-1547,-3773,-8286
127,-74,-17,-477,-1017,-4010
10,86,81,-455,784,-1389
-89,98,121,-1037,4875,8353
119,-82,-92,2461,2383,18902
91,59,-66,444,2960,7492
111,18,-80,-628,1715,-307
21,-122,-65,1697,-2141,-1245
-37,125,-84,997,624,-2450
-33,52,28,-1119,-2671,-2292
-6,-82,-94,-1152,-1501,-2099
-26,-3,-40,-600,-790,-1744
-63,-58,-107,-1474,-1476,324
27,72,-35,410,-1437,2788
85,-124,-66,2421,-1387,8920
-51,2,26,2184,1315,10102
87,-92,-18,325,-460,7191
-83,40,8,-639,-1054,4123
-51,117,-40,-50,-1899,1510
-27,-76,-50,3066,-1074,1197
-119,-107,-109,1699,-61,709
119,80,103,2490,310,-1
116,39,118,2121,203,290
56,54,112,588,600,239
23,7,121,-57,704,-441
36,-83,-127,239,255,-1174
57,-86,-126,404,10,-718
79,-72,-128,333,-54,-6
91,-49,112,34,21,99
98,-43,94,19,60,-135
103,-31,85,86,-85,-293
105,-35,81,290,-87,-378
122,-25,81,152,-27,-285
79,77,-99,-12,5046,-6519
-97,-126,95,7250,47,-8829
-13,42,-42,2251,-4930,-7586
-102,76,-24,-982,-1967,-6533
-56,-33,-25,8964,-4667,-6432
-121,104,41,1040,5299,9357
-127,37,25,-2433,4309,7794
-16,-30,19,-1787,-2053,487
-16,-31,-91,1222,-6233,-6457
-64,-60,22,-3277,-2810,-3899
79,-69,51,697,715,-4938
80,108,124,2104,3750,5458
-123,-30,84,-2922,3893,7698
98,125,-31,2219,-736,-4144
-61,39,-100,528,-7639,-9233
-118,40,-85,-4065,-7654,-7752
-116,108,83,-1013,-3877,-7563
86,23,-103,-465,-746,-3685
-125,-35,31,-1219,1254,-1633
-108,110,72,-2804,4864,2632
-82,-107,47,-1851,631,16963
-101,-96,101,4509,4039,11723
-94,6,24,-6188,696,-1960
27,-27,127,4721,-2754,-2180
106,-66,-119,1280,-249,-1772
-36,-28,-30,-1205,-1188,627
-21,-99,-36,-1181,-677,1208
-40,63,99,-353,-2178,3045
-114,-108,-17,947,-894,5848
31,-87,67,1641,-132,7643
41,-65,11,2828,-1054,3293
108,126,-40,-574,-331,4307
-37,-67,-38,-453,-941,1532
20,-66,-44,2064,125,1849
93,-104,97,3087,837,1698
-111,52,70,5399,1269,1128
-106,44,-112,3060,760,327
80,40,-51,-483,448,-702
118,-77,-92,-1817,715,-426
115,-127,127,-1041,415,112
98,-124,123,-433,-211,283
99,-91,122,-84,-409,341
106,-61,115,-160,-171,243
111,-33,109,-182,-40,152
109,-25,106,56,-122,8
113,-19,100,403,-78,-60
115,-12,91,582,26,-343
-121,-9,77,343,130,-307
-121,-11,64,379,5,-49
126,-6,66,466,-116,20
40,-73,69,-3192,484,-4554
20,87,-2,1174,3188,-10030
-111,-90,36,6129,-8,-10386
-13,-23,48,1688,-3957,-7883
-20,109,118,-958,-1691,-5026
40,40,107,3149,4474,3877
24,121,8,-2125,1581,9244
-81,56,-15,2193,1659,4311
56,82,-6,2709,-4524,-6851
-90,-48,34,-898,-4212,-5103
-64,36,50,-3832,-3104,-3879
49,-86,-56,5280,2828,-2190
13,-51,92,-1597,5887,8543
42,75,91,4369,4930,6335
25,94,-56,-1276,-4124,-3213
-53,4,-51,313,-6640,-8036
-22,48,121,-3559,-7856,-7876
-108,42,52,-3461,-5846,-8449
-52,-69,-73,-4447,-1017,-6777
104,36,-115,-1192,992,-3223
-1,-48,-47,-4279,5658,15752
79,24,-64,649,-7262,19032
-17,-124,68,-283,2118,4672
-100,28,-30,-2068,1782,-7415
-91,5,-17,1958,-2829,-505
-123,24,-13,1966,447,-2707
89,-43,59,-2066,-3148,-1203
-28,102,67,744,-1467,-1038
5,-8,16,-700,-2036,2098
-85,17,19,-1976,448,3380
64,-35,-65,3225,-647,4361
-56,-1,-36,3308,-1210,5895
33,84,-3,-863,-330,4083
-14,69,-82,2415,-3469,5261
-118,39,-125,1388,-1880,3092
-64,-60,20,2194,-1373,2724
-122,63,-38,1540,997,-586
98,-121,-80,3408,1385,-597
84,87,-88,3188,1512,522
63,0,-67,2298,458,-297
78,-52,-52,1445,396,-129
94,-29,-24,-50,674,-1369
-54,3,-13,-530,1546,-1390
-75,-73,-46,2000,810,502
-101,-4,24,1299,-549,594
-81,70,14,-980,-553,-152
-60,25,-63,-1246,-483,-365
-60,-27,-85,261,-626,-283
-74,-9,-73,522,-341,-349
-58,23,-68,292,397,-331
-105,61,61,1184,-1290,-5966
-72,-34,127,1427,-3074,-6236
31,114,29,-974,-4033,-6401
48,-26,-7,-667,-2417,-6085
51,92,29,5003,5637,1815
26,-43,-25,-4355,3358,10927
-105,71,-120,1652,-483,5642
-2,84,28,3854,-4238,-6527
-118,-94,73,-820,-4729,-5156
-81,88,29,-2941,-2748,-3365
88,-21,-49,3460,3867,-2096
-33,-68,-128,-3241,5191,7515
-2,57,4,3765,4642,4133
-27,-68,-81,1236,-4451,-3593
105,-14,106,2088,-7587,-7407
-120,75,3,-3659,-11020,-7560
81,124,87,-3926,-7011,-8148
-113,71,55,-2786,-3006,-5624
-78,125,-121,866,2384,-159
-96,-115,105,3862,9782,8030
84,109,-39,-4525,4964,19102
-122,29,-2,-519,-101,9738
106,56,93,2551,3321,-8262
-42,112,118,2202,-5510,-776
86,-6,64,1533,1244,-2719
-72,4,49,-2141,129,-1686
-85,-41,-16,-1576,-320,-412
13,90,-115,409,-487,730
-127,100,56,414,-1045,3941
-9,-128,32,949,5201,8946
-90,117,-20,-238,1562,7119
111,96,-11,612,-1951,4351
34,90,-107,-1127,-2050,3665
40,50,-115,773,-1528,2150
-108,84,-19,4489,67,1087
88,-120,-57,2829,250,708
120,-93,-36,3354,960,89
-84,-28,-27,1101,1133,703
-122,9,-17,-1218,1359,975
64,119,-106,-480,427,-198
84,62,-65,1330,-215,-314
117,100,-30,803,25,-278
119,112,-23,105,22,-174
113,83,-33,734,-324,-328
-122,54,-29,2129,-17,-401
-93,109,-23,891,603,-341
-106,119,-33,139,193,-165
-87,102,-70,-124,-121,-2
-75,63,-85,832,-224,-342
-90,106,-71,136,11,104
73,-3,112,556,1495,-8149
0,-92,-112,2576,-1161,-7993
17,67,99,2598,-4732,-7117
-77,85,-90,-2550,-4779,-5333
53,-64,-117,334,-1627,-4473
115,18,-73,6824,4723,2003
-53,88,-74,-4644,1330,9107
-19,77,1,7072,3514,5889
94,-94,-53,-1533,-5471,-4388
-65,10,14,1045,-3478,-6086
-32,-86,-51,-1390,-4038,-4119
73,99,-71,2968,743,-2005
114,-106,26,2151,5117,5778
22,-57,99,-1389,4254,8121
67,62,44,3685,1025,-3212
-118,3,-125,684,-7456,-7278
29,-10,-65,-4008,-8727,-7449
-92,107,97,-4616,-5331,-8479
113,-79,-112,-2265,-1963,-6288
21,53,62,-2251,2854,-1340
81,-61,-128,-7420,4096,19870
83,-118,-53,1360,-6015,18833
-107,-31,-16,-3874,3507,-448
-80,33,30,6112,-686,-3909
75,61,51,2244,-3580,-2442
42,-88,50,-595,-63,-800
74,-17,47,-875,-788,195
89,102,116,-24,-1620,1693
-86,12,-15,2575,-4137,5851
35,67,-23,1689,2343,10076
106,22,-86,-1503,-414,7175
-68,103,47,1679,-1945,3599
-20,-88,86,200,418,2361
-98,23,124,3272,14,1712
-87,-68,105,3764,959,509
-111,-127,33,2916,1934,-379
102,48,-106,2194,1057,602
115,-93,-9,2284,-25,98
121,108,19,1238,-253,-916
-87,-117,-1,-899,540,226
-97,-109,-58,-985,464,1094
110,-119,-92,124,-102,808
113,123,-64,1823,-320,-3
121,114,-64,1829,187,-1103
-46,-125,-64,744,645,-1238
-54,107,-73,541,403,-535
-66,95,-80,643,98,-129
-65,105,-87,594,-151,-22
-69,110,-68,815,-367,32
-37,-120,-70,231,-7,47
-110,-107,61,1634,-740,-6862
-9,31,-107,2407,-3318,-10449
72,-61,-79,178,-3905,-8620
111,-66,-37,-2063,-3316,-6896
81,116,31,6037,1520,-3732
-4,83,-91,481,4765,10557
-2,82,-111,2346,4896,9384
-52,-75,20,-634,-1501,-2381
-108,-86,4,2225,-5628,-6583
114,-22,-71,-2092,-4669,-4124
3,-60,-24,-148,-1733,-2310
86,-110,86,2721,4542,2944
-112,-5,88,-2691,5056,9752
123,35,43,54,2069,-22
101,5,-19,1341,-8207,-6598
-49,-45,29,97,-8130,-8278
-54,-91,-98,-5721,-7545,-8355
6,118,-46,-862,-3857,-7461
-106,74,114,-3565,-906,-4759
13,-39,100,-533,1235,-3375
-81,111,70,-5357,8220,939
-113,85,88,-3307,-3874,24958
-95,90,64,8643,1030,17569
64,7,-39,-182,2527,-6530
-38,85,-99,-2219,-2218,-3087
-125,-25,-42,3131,-4244,1504
79,-6,71,-1558,157,-1479
111,-13,14,-2783,-860,-1377
48,108,32,-789,-105,357
101,65,74,-650,1554,2801
60,-2,-87,748,-1264,9002
83,116,-43,822,-1347,7934
119,35,60,-1481,-1883,5906
40,-99,5,2883,-1594,2774
78,86,-6,954,-1548,4565
70,63,-94,2035,673,-46
-128,-99,100,4064,1750,949
37,-96,88,2057,810,499
21,102,120,195,-315,-267
64,-11,121,141,-206,-484
51,-59,-128,489,-68,-195
67,-33,-124,116,91,393
54,-9,125,-246,103,517
80,-7,83,-114,239,147
87,-20,54,546,176,-467
96,-14,58,656,-25,-313
96,-6,69,285,-83,-293
110,-11,73,74,-109,-414
110,-20,73,314,-171,-252
121,-5,80,174,-21,-99
65,-69,-76,1714,388,-7586
13,-3,-105,136,-1046,-8385
-28,-45,-57,791,-4572,-7078
-38,-46,-78,-2977,-2592,-5049
-80,-27,23,4657,95,-4529
-125,47,-84,1655,2954,9639
-112,59,-78,56,3401,8851
95,70,43,-2739,-627,1433
-118,-20,19,4068,-4932,-6032
-40,-74,76,-1195,-3294,-5557
26,17,-21,-3411,-2629,-4126
52,-57,67,3314,1887,-1321
127,-117,26,-25,3540,7043
57,-27,-97,1918,5275,6466
62,-126,-6,-704,-3948,-2515
4,4,48,241,-6889,-7496
58,79,116,-3729,-6842,-7835
17,20,-83,-2117,-2862,-8354
-106,106,-4,-1631,-3558,-6333
-27,84,-6,-2330,-735,-6031
-3,-67,-44,-6082,6235,614
-1,112,-91,2101,-211,25744
-47,85,124,132,-667,13952
75,-12,-109,-5851,1547,-4073
64,125,-11,4278,-2951,-4147
117,90,-91,1682,-2777,-385
100,53,-114,-677,-548,565
95,22,19,-3183,965,-559
-74,-46,-125,-559,-925,1783
12,-93,-55,821,-1238,4420
-122,-58,42,620,-809,8338
-25,30,73,-164,-1823,5511
-76,-36,116,-591,-2998,3894
43,-41,-111,1225,-1601,2114
62,104,43,3408,36,1908
83,120,-20,1327,426,1402
104,-58,119,2457,965,1351
91,81,85,2469,452,1148
106,58,-127,2238,526,1746
113,35,-76,494,925,2066
23,-60,-69,286,-479,-698
77,-95,-76,1135,-24,-450
112,-68,-77,373,555,-119
96,-84,-97,-21,344,-228
106,-99,-117,188,94,-136
123,-90,127,201,-168,-111
-127,-74,124,115,-117,37
127,-59,117,54,-85,-98
-119,-52,110,104,-51,-151
-113,-50,99,385,-11,-138
127,-88,-77,685,3241,-5439
-41,-96,-6,5156,2444,-10732
-127,51,38,3129,-3244,-8082
10,-55,47,1783,-3369,-7063
-116,-13,59,1584,-3250,-6971
7,-40,-79,3166,5203,7711
11,76,26,-766,5085,9031
45,125,119,-4732,-433,3874
-1,82,106,4800,-4238,-7229
89,-75,111,-2681,-2533,-6190
-112,4,25,-2875,-93,-5251
102,66,-126,4631,2217,-370
48,-55,3,-1303,3500,10337
-95,21,7,1665,3051,5789
110,-39,120,411,-4553,-5955
30,11,-43,-355,-5572,-8185
120,-20,-18,-4581,-7893,-5875
7,-63,103,-2755,-4849,-6664
88,-70,125,-3947,-2378,-3109
92,66,-5,-690,-962,-2177
-37,-27,78,407,3214,-3434
77,-6,-120,-631,2017,18968
76,111,118,5560,2850,17376
-123,-2,53,-6077,1976,1472
-61,-113,-33,4826,-2149,-5450
-101,99,100,119,-484,-2032
54,63,82,-1619,1648,-427
62,28,-57,-1402,-180,1583
-19,-110,-68,388,578,2691
111,5,43,289,-941,5775
11,59,86,114,-203,6990
-25,-124,-48,-149,-2332,5226
74,-97,63,1559,-1485,3840
73,-2,5,1244,-546,1545
92,-11,32,2359,-1695,3721
92,-33,-94,699,-590,3222
43,77,-94,1549,-380,953
37,-13,-113,1349,742,-622
51,1,-125,462,1084,-995
63,-45,-124,360,763,-350
43,-82,-113,725,-66,-143
55,-83,-109,605,-210,8
66,-64,-119,40,106,275
63,-50,125,-175,89,150
92,-58,92,178,56,37
84,-50,89,467,-155,-39
83,-39,91,420,-95,-148
88,-33,89,278,-106,-230
93,-30,90,224,-128,-20
101,-20,87,192,25,4
-98,8,-19,96,1255,-7321
84,82,78,4734,722,-10414
78,-96,127,3371,-3403,-8359
-83,-5,72,-889,-2679,-7218
-104,28,9,2042,88,-5702
-32,91,-12,4426,4790,7728
123,13,-68,-7567,881,9473
1,68,-121,2754,2127,5610
-34,39,32,1427,-4559,-6071
-89,-45,-17,807,-2963,-5254
-84,41,87,-816,-2319,-3384
91,-84,-46,2449,1046,-1313
64,69,-64,-266,1526,4486
83,86,-6,-551,2137,6065
-38,13,-27,208,566,-334
-11,43,65,131,-5076,-6867
-115,100,79,-1330,-5617,-8080
-82,-64,115,-4183,-5312,-8293
29,-46,96,-1097,-2419,-6552
7,-79,-104,-636,51,-4398
-68,-26,48,-562,1163,-2792
4,-63,126,-3234,4234,10982
-108,-31,96,2385,-644,14336
-121,-105,-2,-4615,3342,7664
-74,57,-15,2560,-696,-4348
114,-23,26,2908,-3693,-1347
111,-63,113,850,-807,-1569
-21,-3,14,-3182,-818,-1170
69,8,59,-907,-879,-481
98,56,-54,-203,-799,1185
32,73,-9,617,256,5298
-99,-92,46,4008,1914,6413
9,126,48,680,1911,7356
79,108,10,-607,-1953,6108
112,-63,54,-1949,-3483,4363
33,-95,-30,-177,-1340,3818
60,73,-108,1628,486,561
44,-21,-100,1900,-320,926
-8,-73,-105,333,-223,666
-11,81,120,102,131,291
58,51,96,199,449,377
59,1,97,1212,55,-12
79,-15,117,1374,-4,208
80,15,123,741,65,483
48,84,94,-1186,200,483
34,123,70,-2542,-253,649
47,54,35,-392,78,318
57,81,66,625,-17,19
74,104,84,741,61,-140
96,116,67,436,198,-223
14,89,124,3359,858,-5697
-125,-62,98,2730,1280,-9597
33,50,-98,3543,-1636,-8779
-43,104,-107,889,-3344,-6328
8,4,-86,-1418,-1653,-4425
-113,-120,91,6112,1440,-2376
59,57,-120,911,3540,8264
26,-23,-105,1150,3929,8096
-9,52,116,-2728,-2200,-515
-45,14,-119,1629,-3539,-6458
-48,-45,-15,-1666,-3243,-3350
-8,-49,8,699,-468,-3005
-82,59,101,1190,3287,3176
-26,-64,-45,-1239,3220,6351
-74,87,-75,313,1772,-1343
79,86,-6,-14,-4937,-7367
123,118,-86,-1599,-7625,-6983
-37,1,3,-4342,-6620,-8009
42,-104,-16,-2055,-4443,-6083
-8,83,-2,-415,-1734,-3715
121,4,-120,797,1192,-1442
-61,-102,114,287,8634,2765
-42,95,-9,-4540,5140,19785
-44,9,24,4487,6335,11631
58,-79,46,-6504,3184,-3930
122,-73,-57,4560,-6432,-1353
125,58,64,404,-672,-1928
30,-10,95,-2035,-123,-2197
-65,-87,-117,-1056,-351,-1012
21,126,-68,-691,-686,865
-96,-88,38,-1904,-31,4611
-38,48,68,236,309,8634
40,114,53,885,-1426,6697
59,-25,30,-2314,-3013,3373
114,-93,-63,2143,-1765,3374
-98,21,24,1534,-1023,3563
15,-105,-28,792,-1343,934
69,-73,-48,2400,-224,2168
56,82,-103,3232,387,1130
31,97,-85,1693,441,522
27,34,-74,88,65,29
37,-16,-66,-216,-226,-116
58,-58,-66,116,-190,-102
57,-51,-67,109,-36,-118
80,-31,-89,-171,295,101
76,-38,119,132,299,-75
77,-44,113,500,134,-241
96,-45,108,690,74,-243
104,-34,110,448,-11,-41
100,-15,115,121,-36,149
-109,-8,66,270,1788,-6808
31,76,-29,2088,1722,-8562
-101,61,-9,4269,-2270,-7178
-72,-57,8,443,-2402,-5570
15,-47,88,1189,-1014,-4019
-7,92,-120,5954,1718,941
22,61,-85,-1131,3649,8937
-71,-68,75,1862,2814,8457
37,39,-101,38,-1463,-3014
-38,-60,-27,1173,-2809,-4530
-86,-59,73,-348,-2926,-3675
31,-6,92,-2026,-1962,-2647
42,-33,31,2520,1225,606
-16,26,-92,-953,2502,5879
-8,-124,103,2124,3134,4143
-99,101,117,-716,-2185,-3314
56,-10,93,1393,-4275,-7269
64,70,-76,-2095,-7353,-6839
81,-108,121,-1811,-5182,-7181
-43,15,-123,-3056,-3527,-4710
-13,35,94,-1427,115,-3266
100,-6,-118,-2909,3912,-935
2,70,-75,-3965,648,19982
-37,-46,63,10322,7267,12318
-34,-23,79,-6577,475,-3427
-82,91,52,2803,-5212,-4446
-54,-85,14,1490,-1231,-1293
-38,117,-79,-345,-80,-893
-107,65,106,-3194,-780,173
16,-109,87,-1153,-1047,1280
66,-109,-3,-452,-1766,3642
-86,56,92,669,-441,8638
31,113,71,822,-356,7759
-1,35,-69,1144,-1634,3192
100,-23,18,446,-1672,5218
107,-39,0,1551,-1273,2166
113,67,-38,2340,-649,1951
113,-71,-85,2026,781,780
71,92,106,1705,916,5
65,32,107,1663,485,-65
72,-44,-102,1217,-207,-509
101,-76,-77,747,4,-499
101,-77,-65,154,71,98
102,-73,-91,-31,100,432
110,-58,-113,-149,202,361
98,-64,114,5,-67,-265
115,-75,104,473,65,-80
106,-54,105,310,32,-59
120,-39,91,148,-13,-21
122,-32,89,196,-51,-41
97,89,49,1179,1946,-6925
124,-59,21,3630,-480,-7060
-124,-106,13,3264,-3294,-6884
67,48,31,-1067,-3754,-4656
-33,22,-85,4485,-127,-2336
119,-118,-27,1171,5251,8730
-109,-13,23,-3137,3542,7136
45,-112,-59,-3662,-602,3577
-71,39,-62,3230,-3314,-5637
-48,-108,21,-408,-2123,-4836
-64,-84,46,-320,-1665,-3675
93,-105,57,3178,2094,-1026
77,-34,-128,-1125,3427,6887
-106,40,63,1831,2849,4204
-109,-34,-32,4,-3410,-4025
61,22,-18,1646,-4479,-7253
48,108,115,-2061,-7813,-7242
-120,23,54,-2918,-6144,-8429
82,76,-109,-3318,-3391,-6820
11,90,26,-1955,836,-4018
89,-67,-102,-768,6269,561
-19,64,-128,-6478,3400,18091
107,-108,120,7490,95,18040
18,33,-83,-2193,-52,-3908
-14,12,-43,-4943,-220,-3289
96,-66,49,3102,-1994,-1104
-22,40,-123,-497,-786,-656
105,46,-126,-2825,-380,1086
-7,-22,-121,-713,-1229,3522
-90,-123,46,1238,-974,6903
82,99,-91,922,935,8598
38,-106,71,1406,-1622,5897
91,-93,29,1442,-332,1446
83,-76,-81,-879,-1011,3681
80,-21,120,1700,-1058,2186
83,105,115,2181,-581,870
126,99,-88,1322,733,-24
116,-16,100,2314,1412,-918
78,-24,-103,1994,491,-429
86,-60,-67,1229,-65,-283
111,-89,-68,-223,-76,-358
121,-108,-106,-550,48,-71
115,-103,123,-149,-370,31
-124,-85,120,117,-108,-185
-125,-88,113,454,-131,-609
-112,-73,-124,165,-2,-318
-65,-72,102,81,370,-323
-70,-89,77,827,335,78
-92,-61,87,554,62,224
-101,-23,93,34,197,325
-35,76,127,3334,-135,-5991
50,79,-17,2341,-2248,-7586
-37,-52,95,379,-3625,-5845
-57,108,9,449,-2847,-5437
-90,-37,43,5657,2880,1612
-10,-21,99,-2666,5240,10112
-24,-48,101,1045,3816,7536
98,66,-82,894,-3126,-5336
-1,-72,56,1734,-4382,-4977
106,-42,-67,-2386,-3626,-3414
22,-41,102,1144,161,-3354
-111,-89,-10,1644,3309,2472
72,-29,82,-2884,4203,9666
98,-17,0,410,2327,2381
80,109,120,3181,-6037,-7509
46,-16,-31,287,-7103,-8436
-127,64,-49,-4631,-8525,-8025
50,114,-70,-1346,-4267,-7245
-111,-107,-45,-3274,-2465,-5517
-21,5,-109,148,465,-3917
47,70,-110,-1249,6815,7588
-3,-123,-44,95,-1153,19419
-9,109,-89,5752,1320,7979
-39,-119,-22,-5661,4618,-4517
92,-73,61,3332,-4191,-2243
-73,19,98,-596,178,-2781
-121,-30,64,-1456,-1127,-1857
50,24,62,524,-466,-610
110,-96,-68,-39,-211,2173
-9,6,-38,-858,-1220,7212
-110,-87,127,-676,1115,8250
-72,97,105,1666,-2376,6731
61,-56,56,2062,-672,3529
91,82,-71,-751,-1450,4747
123,42,-92,3917,-545,1290
-27,-92,-104,4693,827,2908
84,-82,104,1716,1097,1193
13,-112,-114,-1423,145,-68
38,-29,117,-1269,-576,-1328
100,-101,127,694,-116,-1060
91,-118,-125,1406,291,-617
76,-108,-128,1286,291,-390
83,-83,-125,611,158,175
95,-51,-125,-269,-316,562
99,-53,114,31,-302,358
113,-43,103,448,-57,125
109,-28,108,289,69,-195
115,-24,97,98,229,-201
119,-36,72,97,200,-194
117,-44,58,360,5,-241
