AccX,AccY,AccZ,GyroX,GyroY,GyroZ
112,64,-107,-4449,3094,-1323
48,-69,50,-2545,1816,-5337
-27,-70,-47,374,-624,-3672
-19,65,-62,1060,13,-6100
-109,-88,104,5359,-39,-5257
-111,31,101,15424,1901,-4978
-116,-114,33,17176,-3198,-4226
116,-18,-82,7473,-3940,-5334
-123,-35,47,3464,2549,-9610
-70,-53,8,6153,997,-6386
-7,-28,125,-12712,1178,6055
37,-53,-108,4432,-2136,468
-116,-74,63,-3119,-39,2130
70,31,119,-6329,-226,3149
1,-17,124,-8330,62,4156
-122,-53,-8,-8222,368,3342
34,-125,-104,-8907,676,4290
-123,15,69,-6501,350,4899
-78,57,-22,-3731,-1316,5588
-118,-53,-8,-1461,-1088,5131
63,86,116,2070,-1025,1913
-124,16,52,2837,13,1615
-112,-71,-18,3584,557,1685
47,-66,-19,1853,593,1541
-82,114,31,413,-338,153
-123,-8,43,-230,-912,-1964
-55,-50,1,1064,-76,-2029
-21,-100,17,2057,340,-1581
-21,-30,47,482,367,-401
-31,-48,76,8,100,26
-20,-44,54,-482,183,31
-26,-62,36,426,-8,-3
-29,-34,25,538,-26,223
-31,-28,30,546,88,126
-21,-40,0,860,376,-9
-15,-28,2,642,94,60
-26,-23,5,410,-83,24
-27,-19,13,279,-54,-174
-6,-27,-1,361,179,-299
-4,-15,9,116,4,-229
-5,-10,1,141,160,-166
-6,0,11,-66,186,-258
0,0,0,145,-13,-238
0,11,0,227,-34,-214
8,15,-8,179,159,-270
2,24,-6,62,-31,-98
3,32,-15,157,-82,0
7,43,-15,191,26,4
9,58,-21,43,119,-32
8,71,-16,34,167,-2
-51,-47,-43,2904,-1753,-4779
109,9,-65,5388,-3265,-7366
110,-2,-2,9741,-7004,-6968
120,6,122,13431,-5812,-4922
-27,122,15,-103,1879,-6317
72,81,-125,5244,2309,-7553
-15,90,-65,1574,2623,-3855
109,50,-24,-4918,463,2367
104,-65,-59,568,-2536,1700
125,109,58,-5175,-1346,3933
27,-96,-66,-8817,1104,4784
58,6,-91,-9679,1395,4813
-119,-61,-8,-8745,1172,5274
-103,-24,24,-6734,322,5294
49,120,-1,-2904,-1682,3138
-28,93,25,2210,-1354,4123
18,119,18,2181,-893,3137
-76,113,117,874,495,3736
88,-36,96,979,-1252,2790
73,-75,59,245,-1185,2926
-73,34,35,1200,-1057,910
-128,104,-16,3722,-393,-2121
91,-41,-58,5636,-437,-3601
-93,-22,-8,4239,-120,-2494
-30,17,72,139,680,-1025
-37,48,106,-3897,340,140
-61,-19,8,-2162,-280,496
-66,0,0,-724,-421,257
-55,36,-12,-27,74,-158
-62,62,1,210,188,-212
-57,59,-20,558,288,-106
-59,91,-12,272,-8,128
-53,108,-10,-112,12,128
-34,115,-11,-134,138,-42
-39,105,-23,374,148,-175
-45,111,-21,422,-46,-138
-34,121,-22,227,54,-129
-31,127,-21,63,29,-96
-31,127,-29,235,213,-135
-20,-109,-7,-100,209,-105
-21,-122,-14,288,-123,-94
-16,-102,-6,182,11,-95
-14,-100,-8,-2,106,-200
-9,-99,-15,87,121,-104
-13,-91,-14,45,100,-57
-13,-86,-11,107,-13,-57
-8,-82,-18,260,31,-82
-7,-71,-13,78,5,-133
-5,-69,-10,114,73,-161
-5,-71,-11,203,22,-123
117,32,49,-4760,1303,-2475
121,-113,20,-666,1610,-6345
-25,-56,18,4759,-1812,-5409
-127,19,-4,11338,-2504,-6108
-104,-32,76,12865,-5792,-5354
-1,12,-101,9529,-4165,-3886
-91,127,112,939,616,-6380
34,-69,7,7836,1,-7811
-76,74,17,377,2033,410
31,77,63,-3426,-1327,2182
-89,26,91,-1272,-1626,2597
-27,-45,57,-8230,-752,3657
85,-83,-59,-10205,-900,4766
-63,-62,14,-7404,-201,3491
23,-46,117,-5535,-516,4880
16,-72,-79,-4002,-1101,5915
-128,-104,68,-1747,-1062,5918
121,42,121,8,295,5994
49,19,108,1337,305,4426
98,-96,84,4490,-1087,2042
-48,118,-77,3269,1317,1161
14,62,-72,3637,1166,1698
0,-116,9,1258,256,1965
72,-31,89,940,-1998,-1174
123,103,76,2027,-1583,-2750
1,95,81,2283,351,-2151
9,-116,117,463,839,-940
-26,-112,-99,-702,-99,-289
-23,120,112,-580,-426,259
-24,-117,86,-357,-214,323
-30,-94,65,-329,76,-68
-18,-74,58,-304,113,-234
-19,-65,49,-34,105,-200
-39,-45,50,197,-1,-272
-30,-51,36,434,173,-544
-12,-49,39,535,163,-390
-4,-32,36,161,283,9
-11,-12,42,-249,143,227
-6,-2,18,-40,250,327
-6,2,11,312,366,40
-3,8,2,477,250,-76
-2,14,3,470,-66,-17
5,34,7,82,-31,67
8,44,10,-103,58,-106
-2,35,-2,261,-116,-311
10,35,-3,418,-148,-462
20,46,6,164,-263,-436
8,40,12,205,-141,-452
10,47,19,242,-20,-61
0,55,14,202,205,89
-120,-74,63,-3366,3789,-3351
-97,34,-123,-288,-86,-4023
84,73,41,233,-2596,-4112
-2,83,-122,4483,-4363,-4935
65,81,55,9625,-7028,-5741
40,35,-58,11708,-8429,-3060
-47,99,57,2777,-2632,-6310
31,46,19,3444,684,-8181
24,-53,-60,7348,-503,-5683
104,34,81,-6883,2425,2876
114,28,73,-1147,-1155,2439
45,9,-74,-2744,-481,2055
23,-74,-117,-8132,1290,4033
118,-72,-36,-8879,2113,4110
-63,64,125,-7148,1892,4311
-84,-32,-108,-5595,1364,5684
40,-114,-105,-2720,1709,4368
57,-29,27,-978,-205,4850
99,-108,-20,867,346,951
-75,75,74,11,-1092,1769
-68,-92,35,1519,-15,-263
21,-126,-1,2937,1221,1195
-41,89,-30,2341,1681,683
-80,-44,-19,2599,482,-678
-48,125,55,1335,-97,-496
-10,40,63,1273,-68,-406
11,28,102,248,262,-233
-3,0,68,256,306,57
-4,-10,23,351,356,-61
22,-18,-1,749,-30,-36
8,26,10,413,67,30
-5,45,15,81,-298,-368
24,22,23,690,-17,98
16,8,40,1132,690,401
-1,-47,58,1213,-70,-553
51,-15,65,216,342,-537
18,8,66,-241,86,501
4,59,78,-890,-48,674
55,27,2,-143,915,269
-15,-34,16,1090,100,-252
19,-56,30,1800,51,-383
63,8,42,393,360,-84
36,4,45,-221,172,-114
12,-3,41,-405,-269,151
30,-6,24,-295,2,148
39,27,0,-548,-32,183
22,42,-9,-315,-291,222
21,64,-15,-380,-49,-182
53,91,4,-249,346,-359
61,87,36,454,431,-163
-64,-114,-84,592,-3091,-5708
-124,-53,81,8209,-787,-6095
60,88,-77,13350,-5387,-7895
-56,2,-10,6357,-6970,-3807
119,-101,-4,3187,-992,-4677
-72,13,-30,4300,2702,-10361
98,122,101,5678,302,-1282
87,77,-4,-7526,-530,5792
50,-121,-66,-303,-1238,2467
-15,118,-70,-1801,-190,2149
120,-85,29,-6488,968,4551
-59,108,39,-7280,878,4481
77,-61,-44,-5634,2470,3848
-79,5,-119,-5136,2903,5025
-11,0,111,-3363,1916,6361
-114,63,92,-3203,2070,6627
-87,86,-98,-1179,159,5738
47,58,-23,3389,-543,2173
64,-62,-51,3345,-441,887
63,108,-80,3111,434,572
0,56,-70,2410,892,401
-97,13,-10,693,106,-1011
-93,-58,21,315,-407,-1680
-47,-106,9,658,-183,-1403
-41,-92,27,736,-208,-615
-62,-78,40,313,-220,-19
-55,-65,38,-397,-150,-218
-40,-66,18,-337,29,-346
-49,-55,8,-151,-54,-302
-44,-43,3,22,-37,-154
-44,-15,0,-94,81,-71
-34,-6,-13,-89,197,-150
-28,1,-24,140,121,-89
-36,14,-26,340,3,-123
-32,20,-22,378,9,-209
-24,31,-16,235,105,-95
-23,44,-26,42,152,47
-21,51,-29,54,105,-26
-9,58,-34,161,105,-154
-21,59,-31,392,58,-273
-26,54,-30,579,74,-318
-7,56,-33,553,116,-252
1,56,-39,381,52,-165
-8,63,-34,189,-1,-43
-9,74,-30,13,76,-34
-5,73,-33,200,115,-93
-2,74,-38,397,95,-142
7,76,-41,479,94,-162
6,78,-37,506,49,-106
7,81,-35,350,148,-91
85,60,-48,-6960,934,-615
107,118,82,-4690,754,-2276
-89,91,99,-2889,2539,-5378
50,-108,-82,306,-23,-6464
60,-1,-47,5577,-1182,-6781
-11,2,96,9752,-239,-5105
3,-38,9,16033,-2255,-6328
87,-77,64,10918,-1780,-3321
60,-61,102,7477,1177,-8871
-50,-4,-85,-2635,2105,1467
18,-25,-45,-7618,-477,2040
-8,-7,-20,-1562,-1608,1909
19,-38,18,-8868,305,2527
2,-45,-102,-7141,2210,2134
-61,-5,47,-7876,3215,2995
-31,-26,-113,-5876,2710,3082
107,-61,-101,-200,67,4259
-85,-50,-25,-1658,378,6147
14,63,19,-912,699,2055
-44,-109,29,2900,508,3063
-2,66,-31,3766,932,2480
-47,-87,-83,5797,378,1804
54,97,-39,4102,-576,482
-16,-30,88,1120,-1265,-1366
43,-66,97,-576,-551,-1799
90,-116,56,-310,602,-1124
53,-99,64,-1,-223,-119
10,-83,67,-250,-1090,330
25,-93,30,-9,-943,-13
45,-81,22,115,190,-465
-1,-83,15,387,357,-727
-81,-60,41,92,-261,-179
-7,-15,27,-840,-52,761
3,17,-23,-1192,324,427
13,-5,-54,-447,458,-496
45,-9,-54,479,218,-268
-1,38,-25,535,-323,440
-7,64,-14,-240,-140,504
31,125,-19,-1362,315,610
10,-124,-39,-1081,135,223
11,-127,-50,-330,-46,-317
5,-127,-37,413,-227,-493
7,-124,-33,576,-161,-282
6,-93,-12,12,-108,65
-12,-93,-17,-97,86,-2
2,-91,-27,74,223,89
-12,-78,-36,139,129,75
-23,-64,-38,57,2,-30
-15,-51,-32,-210,144,-124
30,-60,-41,96,140,-267
50,-64,102,-5013,1251,-4224
30,43,-56,155,-1926,-3974
-4,-45,-86,2760,-1905,-5576
-63,67,-30,6828,-2920,-5827
92,-16,1,9765,-4737,-4747
71,54,-29,9904,-6296,-2816
12,4,126,2391,255,-7201
8,91,70,7342,924,-6927
2,59,-84,6196,1393,-2916
68,72,83,-10058,2191,3202
103,-124,-24,2127,-2308,1048
73,82,39,-4862,150,2324
-118,119,0,-9503,778,3266
33,101,-96,-6537,869,3302
-32,77,-78,-6375,1792,3888
-93,-66,92,-6048,2027,4513
14,10,-26,-4405,-450,6717
-117,-38,-1,-2384,-104,6994
99,8,88,2802,-998,4199
-9,121,40,3778,-107,1865
117,125,-53,3533,1521,2836
84,95,-120,1225,1549,1289
-98,-123,-22,2320,-1575,-1363
-100,-17,-18,3384,-2665,-2432
-35,-5,-26,2816,-775,-1645
-46,19,26,8,657,-666
-74,-18,37,-1717,121,-1134
-44,-47,4,-1057,-296,-995
-3,-36,-15,341,-206,-183
-45,-25,0,837,-203,-48
-61,14,15,252,-171,-68
-42,34,11,-449,139,59
-42,35,-2,-265,202,100
-47,32,-24,258,282,218
-32,63,-27,100,216,398
-31,80,-36,-3,100,194
-27,79,-42,190,-2,-182
-26,81,-40,278,-33,-247
-37,89,-33,102,-96,-197
-30,93,-32,11,40,-147
-35,104,-36,-62,59,-73
-25,106,-46,85,79,-196
-23,115,-49,102,-16,-203
-24,125,-43,-4,-59,-183
-30,125,-44,134,-28,-139
-27,-123,-41,109,12,-102
-21,-110,-42,17,46,-31
-22,-108,-46,158,41,-45
-20,-94,-43,21,62,-21
-25,-85,-43,14,81,-3
119,119,-83,-1212,-2664,-4573
36,-116,-80,3491,-3504,-4887
120,57,124,3043,-5372,-3031
-98,-85,102,4761,-3587,-5115
24,75,116,7803,-2832,-8116
20,-76,-88,4225,-1377,-7339
39,14,52,8710,-1767,-10710
-30,-9,122,3487,-513,-2327
-9,-96,26,-9758,4081,4177
-106,89,-127,2172,-1934,627
-13,20,-15,-2896,552,2315
-115,69,60,-6994,1240,2896
87,-97,-107,-3952,667,2177
97,-36,-106,-6236,2783,2622
24,-122,-72,-8211,3566,3474
19,116,-25,-7218,2305,4308
-59,54,-77,-4541,-1115,6030
-87,47,-47,-915,1140,3432
-119,-26,1,3609,208,2474
-83,-28,16,1199,-295,2482
109,93,-40,1134,-95,2194
37,-42,-67,1881,-9,1416
-24,-88,-69,1633,-163,85
0,80,-65,1649,-116,-886
14,68,-42,1415,163,-791
-7,41,-25,844,74,-797
-35,25,-5,367,-480,-735
-11,23,-3,202,-277,-635
14,5,-1,190,95,-865
3,2,-13,275,-283,-755
-20,19,-14,87,-547,-495
-42,47,-8,-587,-358,-426
-44,56,-17,-835,-4,-373
-25,61,-33,-520,215,-161
-21,88,-48,-104,190,331
-23,119,-47,-174,241,404
-13,-100,-52,-377,175,337
-12,-87,-58,-306,77,159
-2,-79,-49,-82,30,91
3,-56,-39,-56,56,162
-3,-40,-31,-180,102,74
2,-28,-32,-164,101,-49
-3,-24,-33,-36,57,-304
-4,-19,-26,-186,59,-360
-3,-18,-24,-181,11,-270
-5,-5,-18,-349,61,-167
-2,4,-17,-293,179,-114
-6,7,-25,-53,75,-177
4,19,-24,21,-20,-213
11,28,-18,-108,39,-220
21,81,39,-5644,469,-2795
16,-103,97,-2068,-1366,-2472
-26,-83,-106,688,-1521,-3996
-87,-18,-53,3396,-159,-5403
-91,-98,124,8071,-1257,-6195
-32,87,-5,18120,-5395,-6112
-25,-25,15,7750,-1831,-5669
-9,77,-45,6056,145,-8749
101,94,-116,2911,261,-489
-26,18,-56,-8442,953,3158
63,72,58,-2292,-1628,1909
-51,44,102,-7110,-587,3108
30,61,101,-7808,1244,3472
67,-16,-120,-6795,2101,3471
-9,25,43,-5814,2228,5216
58,118,54,-4061,541,6391
112,-80,-72,-2744,792,4814
42,126,56,-566,-1133,4046
18,-119,-27,3419,840,2635
-29,90,-116,3891,1145,2009
73,30,-63,2199,-159,1269
-80,117,-15,954,-1407,-1030
-38,-4,-30,2036,-776,-2705
-3,-35,-25,2219,263,-2187
13,-28,14,1157,586,-1006
6,-30,26,66,303,-105
3,-33,18,-480,-140,55
19,-33,-6,-343,-96,93
9,-13,-6,-167,-31,45
14,0,-12,8,78,-107
24,18,-14,110,85,-142
16,29,-14,74,35,-112
13,42,-8,93,-36,-83
9,53,-12,139,57,-153
10,60,-18,28,146,-246
20,68,-25,-12,79,-152
12,72,-28,106,-18,-201
16,77,-29,202,62,-296
16,77,-31,319,43,-315
19,78,-34,286,14,-204
16,87,-31,155,72,-113
24,86,-35,231,133,-80
19,92,-36,308,94,34
3,107,-33,124,77,84
16,122,-29,-104,108,208
34,-116,-33,-197,190,266
44,-112,-40,87,123,189
53,-101,-41,223,23,82
33,-85,-38,59,20,-121
19,-89,-40,26,11,-316
43,-114,-69,3582,-3707,-3059
85,29,-14,5893,-2447,-4084
87,-47,-65,12004,-5247,-3804
127,-56,16,9441,-5190,-2214
-36,-115,-36,4976,-869,-3757
101,-98,-124,4853,215,-7158
23,-102,-2,4095,225,-3999
18,18,50,-5416,-326,3456
82,120,117,-2069,-1708,2197
-29,-36,-39,-3352,-1010,3486
60,71,-120,-6830,1170,4130
40,121,-77,-6518,2692,3965
-109,-106,111,-6415,4139,4851
-68,-65,15,-3987,2748,6308
-42,116,79,-2236,1254,6807
27,-83,100,-3493,1969,4668
-1,-100,108,2907,809,2942
55,-34,-27,1289,1250,2516
-6,34,-112,1791,224,-322
-58,-122,-5,2172,-2027,-2120
-8,52,-54,2832,-945,-2658
-11,32,-56,1838,14,-1873
-7,27,-13,298,555,-518
-25,7,-10,-154,298,239
-27,3,-16,114,-7,594
-10,24,-24,196,36,578
-1,51,-17,-130,-20,321
-3,53,-34,-100,16,-120
0,58,-31,-43,-27,-495
3,76,-28,-345,30,-399
-8,80,-28,-191,-25,-383
-2,77,-37,188,100,-432
-2,91,-40,65,101,-326
-3,112,-46,-247,75,-183
-12,118,-44,-117,10,-141
-13,122,-48,128,43,-201
-6,-122,-47,131,20,-163
-8,-111,-45,-15,-46,-48
13,-105,-43,93,14,-4
-10,-91,-28,228,-23,134
-15,-77,-31,-60,200,218
13,-59,-46,-352,313,310
12,-57,-65,-79,138,215
-4,-49,-72,164,-220,-253
-3,-66,-66,634,-336,-753
5,-72,-54,661,-143,-746
-3,-93,-48,583,-102,-450
20,-86,-51,169,321,-18
17,-61,-40,-339,251,284
5,-52,-44,-259,2,313
83,-79,120,-3465,1888,-5548
115,-39,-92,1963,-1358,-4441
19,-96,103,2396,-1211,-4601
-106,-17,84,11334,-2223,-4375
75,63,15,11730,-5379,-4027
-100,-67,-21,7205,-2535,-3443
-26,99,33,4711,1328,-7373
19,-58,-26,7825,-362,-7504
7,57,121,-3952,214,3460
63,11,120,-4810,-1272,3180
-84,-105,-106,-2609,-1265,3015
-67,92,92,-7637,441,4139
-76,61,85,-6973,1220,3287
-67,-121,-90,-6526,1494,4694
-31,-51,3,-5828,1911,6283
43,63,113,-3978,-57,6682
-76,-18,1,-1575,-816,4829
-109,-128,96,915,-736,4028
-3,59,57,710,588,3064
-121,-31,36,1107,35,1915
23,44,-50,3012,-16,-6
-71,-95,-62,3002,-603,-2164
-52,92,-57,2686,-344,-2582
-31,54,-45,2137,126,-1482
-22,49,-14,604,499,-75
-31,63,-2,-879,196,558
-40,71,-14,-1182,-70,499
-19,91,-43,-962,89,254
-21,109,-49,-592,241,12
-4,-121,-58,-293,121,-215
13,-121,-66,150,50,-402
-33,-113,-62,299,-260,-420
-54,-103,-51,65,-346,-452
-20,-102,-51,-56,-33,-504
-6,-101,-54,-4,-98,-362
-30,-90,-44,108,-327,-149
-34,-70,-19,-64,-182,-86
-24,-51,-17,-270,317,-25
-16,-71,-46,340,310,-1
-25,-38,-51,51,22,288
-24,-11,-48,-541,113,215
-21,-4,-53,-400,215,-127
-5,-19,-65,231,121,-344
-8,-15,-61,353,-107,-223
-11,3,-46,-28,-89,-173
-20,2,-37,-9,3,-212
-10,6,-31,-36,53,-146
-16,8,-34,80,78,-129
-20,11,-37,109,30,-183
-8,-1,-52,489,-47,-189
-73,-78,31,3424,-1677,-3837
118,45,-18,9176,-2579,-4766
-121,57,-72,12091,-5412,-5845
-72,122,4,6082,-2403,-5679
-30,-82,43,1405,2858,-8524
-55,-122,-26,8381,1450,-4817
-122,55,44,-6566,766,2054
-21,35,-114,-5127,-2635,1460
-34,13,99,-4249,-2882,2843
22,-51,88,-6315,-1145,3186
-102,-114,-50,-6134,815,3017
47,90,-38,-4775,1261,3993
45,48,-80,-3538,1957,4591
65,-40,23,-3069,1478,4696
-26,-16,-23,-3246,907,3332
-104,33,113,1358,-1433,2579
-57,-68,-118,1666,-596,2574
-79,82,25,1196,1304,2157
126,-32,43,2063,407,1810
82,-59,66,2577,-33,1446
-43,-81,-119,799,-777,-102
-16,-102,-109,-888,-52,-1191
19,-120,94,-1008,731,-1032
28,95,51,589,589,-585
5,122,83,1357,-347,156
31,-112,89,861,-184,-46
42,-105,87,159,110,-443
-3,-121,87,396,-198,-555
7,-113,93,214,-167,-621
14,105,76,1084,-58,-672
35,-126,85,681,20,-217
46,-108,73,218,59,-21
47,-128,74,766,-80,-217
79,120,61,1115,432,-596
43,-117,67,364,259,-390
2,-120,72,60,-108,73
49,-118,54,212,262,447
25,-84,45,-256,51,374
30,-71,29,-130,20,169
28,-69,19,206,156,-153
25,-56,17,222,41,-221
41,-46,10,190,23,-338
84,-42,5,161,66,-419
32,-31,4,-18,-175,-351
23,-31,8,98,-106,-241
19,-11,8,-157,-25,-94
-8,10,-2,-305,-33,18
9,30,-13,-374,-9,-32
27,56,-14,-332,23,-129
49,112,-5,-1151,377,-80
-127,-19,-93,-4810,3572,-1518
119,121,-92,-907,2542,-4566
-32,-26,-17,3283,44,-3668
26,94,92,6071,-1164,-3934
103,-105,20,12882,-3048,-4013
11,44,-7,11725,-3435,-3460
1,25,-27,8756,-408,-3414
-122,81,120,8678,1330,-4937
112,-11,15,5270,1572,-2181
125,-70,108,-7837,78,997
-109,-99,81,-2793,-3268,1202
109,71,-80,-7560,-2261,1942
38,-6,-76,-6934,-592,2202
-33,-67,-30,-5556,1302,2777
124,65,122,-6577,2042,4890
-74,-62,4,-6120,1849,6136
-89,-89,103,-3426,-804,6877
-56,36,5,-456,-704,3597
-101,-125,47,2500,540,3125
62,-107,-50,1907,2009,1990
88,116,0,714,-77,196
31,-84,16,1258,-881,-2483
104,118,1,1605,-42,-2140
86,73,10,1724,93,-1338
65,98,26,15,239,-468
42,101,39,-730,-87,-101
44,86,22,-351,-120,208
47,105,23,-154,-202,251
63,-125,15,-122,78,187
58,-112,8,-125,103,-133
52,-97,-1,-349,26,-328
52,-88,4,-332,56,-339
44,-90,4,63,-131,-326
43,-76,15,53,-77,-192
47,-25,17,-832,194,-160
39,-54,2,278,31,-273
43,-65,-5,947,1,-364
38,-28,0,112,112,-311
30,-34,-3,-135,26,-159
33,-37,-5,51,13,-50
34,-23,-2,-38,40,-39
27,-3,1,-392,-27,25
31,-9,15,95,-56,-63
33,0,0,53,66,-4
33,39,16,-741,-8,18
29,21,0,-149,100,-171
26,12,4,446,-59,-213
27,14,2,530,10,-177
26,33,7,-159,75,-101
24,28,4,-49,-50,25
-116,-74,-128,4236,-746,-3156
-34,112,-58,9036,-2066,-3322
-64,-54,-56,11183,-5727,-2126
61,101,14,9477,-5617,-562
55,110,48,4589,-284,-3600
-85,-23,67,6189,1621,-5229
22,-61,16,-147,1526,-382
44,113,-43,-1734,-2922,1105
-105,-49,-30,-35,-2516,2219
77,-97,-60,-6146,-1758,2207
0,-3,-51,-7363,-1343,2548
41,40,70,-6242,-376,2505
88,-40,-61,-8366,1871,2776
5,-36,117,-6470,528,3987
-118,8,-74,-3685,-982,5858
65,-75,28,522,-786,4124
-97,19,-30,20,-773,3592
101,116,-99,-213,1510,3032
115,-95,70,1971,110,3235
-124,71,77,2901,-410,3115
-44,-22,58,1209,-577,1569
-74,-119,68,-137,-62,-2349
15,99,53,-578,486,-988
2,54,21,108,11,-391
-16,35,24,450,-122,-66
-38,42,18,460,-52,370
-49,49,4,300,-38,357
-47,41,1,568,-187,281
-36,48,4,423,-135,180
-28,76,8,-180,12,63
-34,85,15,-461,53,-190
-38,76,11,-246,-64,-539
-14,79,3,29,117,-445
-21,77,-3,401,-96,-297
-33,84,3,524,-315,-22
-23,97,-3,319,13,-93
-19,106,-29,-154,342,-408
-26,112,-33,-259,109,-333
-19,114,-25,-174,218,-337
-12,122,-26,83,140,-347
-23,124,-24,276,-149,24
-19,-109,-21,92,11,21
-12,-94,-16,-307,256,25
-20,-83,-16,-130,-9,293
-25,-70,-14,25,-85,225
-8,-54,-19,-14,139,-12
-13,-52,-16,254,-69,-293
11,-76,-14,768,127,-473
29,-71,-9,561,320,-368
3,-71,-16,222,60,-155
125,101,71,4060,-1978,-4694
-20,12,-86,9589,-3536,-5525
42,92,13,12868,-5264,-4738
103,-44,-48,5956,-2389,-3024
98,59,67,4277,1773,-7026
-92,-14,13,8106,1988,-6496
-37,-41,79,-9918,581,2902
100,96,-97,904,-2446,1915
42,-33,-11,-1857,-1382,2478
-29,-100,-91,-7946,18,3059
41,3,116,-6485,-463,3494
117,4,-15,-6473,1360,3139
64,-3,-127,-6695,1745,4183
-127,18,79,-4000,893,4881
4,65,-111,-2873,32,5022
-65,86,-7,-435,114,3631
-53,14,-32,1875,1009,4136
-86,-84,-28,845,680,3109
95,41,-56,250,865,1804
-13,-72,-37,946,-341,5
-28,78,-13,1845,-886,-1329
-1,24,-23,2239,-379,-1499
3,53,1,820,-100,-648
-8,8,-2,479,183,-203
-22,-17,-2,704,160,-142
-6,-34,-6,973,139,-31
4,-22,-13,634,146,111
3,-8,-14,91,40,16
4,-6,-21,-153,-90,-157
-2,-9,-19,-19,-70,-247
-2,20,-6,-483,-41,-250
0,29,-13,-508,-12,-189
0,41,-17,-334,100,-202
7,56,-25,-205,176,-303
20,-117,-21,-1581,509,-80
4,-128,-36,-499,54,-135
6,-126,-39,441,-97,-145
16,-103,-33,361,77,-159
12,-97,-36,275,71,-220
11,-107,-38,426,-66,-120
11,-92,-31,95,-70,-26
16,-95,-28,266,55,-64
16,-88,-25,258,106,-116
16,-82,-25,186,176,-168
23,-72,-18,-7,194,-120
19,-81,-25,300,55,-113
23,-69,-26,111,68,-141
22,-69,-29,50,56,-105
23,-68,-29,90,36,-102
21,-61,-30,118,10,-80
-117,-110,88,5115,360,-4283
75,-127,-96,8882,-1090,-4572
-31,-89,-98,14478,-3089,-3741
-32,-21,-70,8870,-759,-5128
52,-52,107,8185,1628,-7258
1,-78,57,2260,2073,-1288
-18,-45,36,-6299,-2481,1555
46,109,60,559,-1748,2129
126,44,-116,-4314,-1633,1899
61,-5,-112,-7136,-1213,2299
-1,-81,-1,-6025,-1173,2840
120,-96,-76,-6791,577,3071
-50,71,-86,-6741,131,4381
4,-8,109,-4355,-737,5280
39,87,34,-3105,-1913,5443
-44,-77,117,-892,-999,3268
92,-7,-128,1914,17,2123
-118,-78,-112,1468,-287,2355
-120,-118,108,13,509,2413
42,-12,6,1658,922,1419
-50,122,17,2238,42,412
-66,48,59,1105,-848,-1370
2,24,43,887,76,-858
-3,0,48,739,277,52
-16,2,60,225,149,223
-14,-15,41,286,110,221
-1,-29,32,397,19,-154
4,-32,33,137,-73,-439
5,-30,36,171,-7,-257
-2,-39,30,473,87,-316
-6,-38,29,594,-4,-72
-4,-24,37,726,-12,240
10,-4,34,418,224,136
0,1,24,225,174,-93
19,-3,20,244,170,-204
26,13,17,-166,175,-156
21,17,13,-199,129,-185
19,15,6,5,145,-380
29,30,14,-99,113,-309
20,41,15,-109,44,-197
6,46,15,166,82,-191
4,44,10,610,135,-184
8,60,5,392,124,-74
28,65,-6,237,141,114
32,72,-9,174,100,183
39,83,-18,83,84,5
34,86,-15,246,-141,-91
30,97,-3,14,-147,-126
22,109,3,-216,-9,-179
9,95,-1,190,-6,-420
37,32,-86,7762,-807,-3630
-57,-101,-29,8334,-4308,-2214
-11,-118,-67,7116,-1855,-2024
67,-115,50,7919,-1316,-785
-122,-54,87,6864,2789,-5034
17,64,0,3513,1172,-1983
44,-10,-82,-5371,-1650,590
68,-3,79,733,-3824,2643
-93,113,12,-6261,-2383,2684
-124,97,20,-6838,-562,1497
-84,44,64,-4164,217,2256
89,-67,-59,-5772,2109,2536
99,-22,1,-7288,1579,4563
-125,-41,-6,-4437,343,6126
59,32,60,-3173,-2237,4431
17,79,19,680,376,3371
85,17,76,1229,137,2907
-35,106,0,1996,1611,2066
-67,-113,-19,701,1226,2492
25,-35,-17,1703,-195,880
8,-100,10,619,-600,-901
54,106,1,-259,-17,-1698
63,64,-16,-4,335,-1314
56,67,-27,421,356,-246
42,52,-31,1067,-37,180
35,59,-20,793,-239,-20
38,55,-3,701,-210,-61
45,52,12,411,-119,-112
37,60,18,34,-108,1
18,43,14,440,-29,126
31,67,-9,55,232,188
25,61,-15,73,24,-104
63,35,-24,740,267,-230
46,49,-18,553,-5,3
22,61,-13,328,-174,526
2,69,-2,-157,-184,-13
3,63,-8,133,162,-66
20,50,-12,737,306,-457
40,45,-15,992,492,-505
28,78,14,571,-31,-202
60,56,1,554,475,-407
52,69,17,44,53,34
46,55,14,102,290,-426
46,33,18,602,254,-467
64,42,23,617,385,-25
66,40,16,698,459,-35
73,53,14,331,296,-15
82,75,26,-113,-37,249
73,65,19,-44,39,-12
54,92,23,-306,-251,196
11,-105,39,3278,-3769,-3691
14,-61,127,5948,-4275,-4238
-12,82,108,8595,-5716,-3814
39,-24,24,3730,-3981,-2365
-68,-10,-121,2877,-1310,-3189
-15,-17,31,2102,1571,-6583
-78,49,54,6142,1416,-6928
84,-99,72,-4798,467,2392
-87,11,103,-4586,-2110,4401
-41,102,-121,-2676,-1766,3411
-6,78,113,-5464,-354,3433
113,-1,-71,-7209,1221,3725
0,7,-49,-7313,1174,3667
-13,-111,-126,-5735,1283,3163
121,92,-65,-4226,-1180,4945
-12,88,-3,-5189,98,2800
-76,-14,-47,804,-381,-112
63,97,-71,1637,1046,2627
29,22,-101,1399,-92,1662
71,-121,124,756,-211,2098
-113,55,93,1153,295,2121
-58,-72,29,1677,418,2956
-14,89,32,982,445,699
-32,-42,19,1377,-24,-1615
0,-45,10,1165,294,-1769
-11,-35,26,640,379,-167
-39,-69,36,5,-3,-196
7,-87,16,619,332,286
15,-80,6,742,238,603
0,-69,19,182,-114,274
4,-48,28,-388,-25,113
41,-54,9,-82,218,89
18,-78,2,508,33,-132
-8,-86,21,455,-138,-302
3,-93,38,70,22,-593
9,-95,35,21,26,-263
30,-88,29,-67,22,-49
26,-69,32,-208,56,-47
28,-61,30,-29,184,-88
17,-62,28,357,58,-235
11,-74,31,669,152,-473
32,-79,31,487,251,-409
30,-92,23,392,193,-83
28,-81,21,121,324,225
29,-78,9,418,341,275
29,-82,-2,974,159,118
43,-46,11,-3,112,-125
47,-61,9,-81,16,-145
30,-74,14,84,-64,-171
42,-63,21,-36,-7,-171
76,-115,1,5738,-4943,-1977
-74,-125,109,7056,-8586,-1252
-76,73,-106,5696,-7950,-1029
127,-78,-78,1634,-3935,-2732
75,106,93,2476,-2076,-4538
-111,77,-73,1334,1450,-7141
-33,-106,-61,5126,1409,-9007
85,54,8,-526,491,980
-116,41,-124,-4597,-840,2923
-9,34,49,-1332,-1612,1446
89,7,-121,-4395,234,3023
121,-24,-15,-8825,1328,2999
-81,-4,-16,-7659,1587,3037
-91,-57,-57,-5874,752,4497
-66,-114,-99,-4391,1221,4955
86,-7,-119,-4386,895,5011
-95,-119,-18,-954,-677,3172
112,107,56,2069,132,2210
118,-2,-21,4047,1285,1152
42,-12,26,1049,161,995
-43,23,17,1994,-373,401
6,-48,22,2590,416,226
-2,-56,58,834,714,-121
-5,-79,69,-273,454,-326
-8,-111,63,-164,0,-387
5,-113,68,-144,-181,-287
17,-106,52,-138,64,-313
18,-101,38,-60,145,-399
7,-84,44,56,36,-389
18,-56,50,-33,-44,35
11,-42,38,13,-21,102
24,-40,24,222,166,-134
49,-46,3,445,278,-527
16,-17,21,395,-3,305
-16,20,20,-62,-2,268
32,29,-6,-230,306,-280
36,23,-20,-137,-30,-501
29,24,-5,-4,-251,-495
27,16,-4,348,47,-473
21,19,-8,73,157,-399
27,41,6,280,-59,324
1,69,7,178,131,-301
22,111,-19,-305,555,-575
34,102,-32,110,231,-238
34,111,-22,-33,-304,-231
39,117,-19,244,-97,-28
25,-121,-1,-65,194,-312
19,-121,-9,-91,23,-105
31,-110,-14,-215,-8,181
30,-104,-11,-133,95,126
-51,-88,-58,4784,-1809,-3720
-38,55,70,4053,-1283,-3339
17,58,98,8481,-3600,-3731
117,-48,-100,10056,-5399,-2560
97,-102,3,3628,-5045,-2133
-85,-18,-120,146,-810,-4265
73,-80,18,4974,3538,-6625
51,39,-119,5011,3319,-3791
-40,-84,94,-7815,-1584,2894
85,-102,78,-1475,-3444,3813
52,66,7,-5864,-1031,3463
-56,58,-15,-5016,751,3740
-118,127,-109,-5518,1893,3899
-112,4,-60,-3898,2589,4012
10,60,111,-3845,2811,5994
-122,-19,75,-4102,2760,4382
58,-65,-112,-1989,578,3855
-107,41,-58,786,8,3077
-93,73,-10,4425,-181,1285
-128,37,-18,4199,953,-63
92,10,-4,2558,1157,-370
30,-25,65,138,520,-609
19,-93,61,-405,-144,-677
53,-113,73,-287,-536,-426
66,-100,65,31,-372,-578
52,-96,74,228,-137,-1062
45,-119,64,563,-233,-1204
67,-98,70,412,-288,-558
97,-63,65,-81,-34,-84
81,-39,62,-490,43,252
47,-41,46,-186,-109,-64
57,-11,28,-151,73,-61
58,3,14,-271,115,-166
55,1,0,40,-1,-107
53,2,-10,241,96,-43
57,17,-8,-47,189,136
50,40,-11,-324,139,393
41,47,-31,38,74,363
54,46,-35,383,85,-83
63,48,-30,149,-34,-254
63,59,-22,35,-89,256
39,80,-29,-63,-23,244
18,114,-35,-892,-204,-223
26,81,-54,-594,-179,-704
20,89,-44,-593,-47,-800
24,-124,-33,-615,204,12
53,-102,-48,-20,407,876
26,-97,-56,641,202,518
33,-89,-62,579,64,173
50,-108,-72,458,-69,-232
-57,-100,125,7055,-5131,-1533
55,46,-100,9128,-5456,-1915
11,-36,-94,3252,-5265,219
-121,29,-7,625,-2212,-1485
-36,-78,-128,2535,377,-4607
-41,-82,-90,2515,3420,-8401
-53,-34,-19,7589,2598,-8535
86,56,-110,-5257,1586,1243
-85,-61,-73,-1126,-2014,3678
-123,19,-1,-641,-688,2508
-104,-70,60,-5331,928,3801
125,116,-23,-9279,773,4458
-76,-74,71,-8295,137,3800
103,-57,75,-7696,270,3398
-127,116,-72,-5120,-927,4627
38,-100,-105,-5449,892,5082
-85,70,-117,427,-1271,1479
22,-119,-109,-532,123,754
-22,10,-86,-626,-475,23
-1,-54,-117,-438,-355,542
0,-92,115,-828,-442,596
36,35,116,743,-509,771
48,61,79,514,-131,1054
40,89,70,484,-66,159
-4,100,48,-156,-52,-534
1,92,40,-698,-9,-245
-2,59,51,-210,95,-329
-14,73,66,-196,-289,-58
-2,32,83,510,-127,-121
18,63,92,214,238,69
4,46,71,767,243,-86
-4,66,68,650,130,-137
16,61,45,329,378,-232
10,51,38,-57,6,-184
18,34,51,136,18,-180
23,50,60,20,108,-132
21,33,52,202,254,-129
16,45,68,-24,232,-125
13,53,87,20,134,-153
21,49,83,153,92,-186
25,32,72,306,117,-146
17,40,72,274,29,-156
24,29,83,586,70,-190
32,39,77,341,159,-198
15,31,66,216,14,-238
18,25,68,247,64,-167
20,33,66,168,33,-151
21,42,66,-39,46,-144
23,36,63,-27,22,-121
22,36,72,-16,58,-123
106,-106,-127,4361,-1582,-3663
-1,-38,-49,8976,-3226,-4196
75,96,-117,12023,-5600,-2936
109,-25,106,4785,-3127,-1701
81,-94,48,3810,-2044,-2985
25,61,40,125,2107,-7115
86,-117,-119,4068,1965,-6605
4,31,-11,-3180,152,2537
-79,-21,124,-1701,-3574,3766
56,-4,-42,-4055,-2464,3432
-10,-23,-123,-5131,-1145,2966
21,-69,61,-7336,-68,3768
-101,3,-45,-6524,1183,3343
-78,-66,-75,-5563,1624,4698
-62,111,-48,-5119,1046,5041
-7,-85,27,-3378,-18,4586
-70,40,-68,-1191,-1299,3249
19,-69,-39,945,117,797
99,-33,-39,919,-395,1083
-9,36,-46,1190,-640,215
-3,-16,-79,43,11,-51
29,-91,120,65,148,273
12,-101,107,-280,-124,534
13,-119,94,77,-180,663
23,113,89,1089,115,33
0,-104,107,880,176,-192
-8,-99,98,121,220,-33
1,-117,76,-585,31,290
8,101,59,-25,-190,180
20,-118,81,-95,-86,-194
22,-107,82,-260,130,-106
10,-127,77,95,37,-50
9,-124,79,359,108,-125
2,-116,77,485,133,-179
9,-104,69,260,110,-104
19,-88,61,31,64,-65
27,-90,61,132,53,-196
25,-85,69,10,133,-229
18,-106,72,353,50,-158
14,-84,70,230,64,-106
16,-70,61,-64,45,-112
22,-73,62,-73,61,-123
25,-73,68,46,69,-142
24,-67,65,109,126,-135
25,-57,55,66,90,-141
9,-32,57,-333,32,-17
25,-38,65,-100,42,-11
29,-33,70,-160,76,-168
22,-36,82,139,1,-85
30,-29,76,157,180,-169
91,29,-35,3747,-1801,-4555
-126,91,59,6563,-4771,-5701
-79,4,-79,10054,-7179,-5400
-67,-104,-73,4788,-4612,-6034
121,32,8,1996,1464,-6218
-2,83,-69,5644,2777,-9676
-67,-19,-70,-5233,3359,628
87,-10,-107,-1317,-3601,4197
-38,-22,-108,-1526,-1322,2962
-96,9,-127,-7415,-500,3705
-119,-21,-23,-6142,385,1659
12,-1,-18,-4268,358,2060
-9,0,8,-5843,637,2560
12,10,39,-4731,106,3534
109,113,33,-3712,285,3991
-94,16,115,-2986,-2240,4022
-13,-82,116,-651,-691,1674
68,-84,22,396,-240,1444
33,-30,-36,-661,-205,195
15,-28,47,682,-494,1590
-6,115,0,-590,808,-1243
13,-88,123,621,848,-352
15,-120,100,440,69,865
24,-89,117,505,-542,1404
10,4,-105,-776,-621,939
-1,-23,-60,-99,-121,177
12,-100,-119,523,446,-249
53,-99,94,336,402,184
44,-98,115,237,-540,185
38,-116,-111,718,-244,-6
21,-116,108,750,523,-111
11,-106,106,512,114,70
24,-90,84,-140,73,188
19,-104,95,-130,-159,-89
33,-107,91,-209,128,-133
22,-123,104,225,-102,-40
32,-111,93,326,214,-184
26,-100,81,255,-38,-187
25,-85,83,-53,33,-116
24,-89,83,56,32,-107
32,-83,81,-13,58,-143
31,-71,79,-56,67,-107
22,-62,82,138,63,-164
21,-50,79,-59,136,-187
16,-51,83,-59,6,-106
28,-51,88,201,68,-175
26,-44,78,196,38,-172
15,-44,60,47,96,-141
20,-40,65,-38,-26,-123
37,-38,76,41,-65,-70
85,-28,-107,8810,-3538,-4955
124,-1,-38,11281,-6924,-4828
-8,-74,99,5601,-2794,-5347
-62,-54,27,3163,168,-4861
41,44,109,3972,4288,-9050
-122,-43,-68,123,1563,-1185
72,-65,-21,-3718,-3561,3836
-8,-54,82,-4023,-2426,4007
-20,78,105,-7068,-1403,3165
-38,-49,4,-8856,100,3573
-105,106,-27,-6345,-117,3841
-28,50,55,1288,322,4510
108,1,-105,980,1857,4781
-103,-102,37,-3571,2536,4123
-69,15,-21,-3554,393,4683
-4,13,-125,-1404,-1228,1962
93,-96,64,87,75,294
61,-116,72,-16,-222,549
24,-60,107,-818,-1007,1072
2,7,64,-2425,-191,756
-29,114,72,-567,-7,-225
-24,93,52,-156,331,-369
8,115,64,508,-156,294
0,122,62,1101,-265,-127
7,122,43,1338,370,-690
-3,121,40,932,297,-467
-14,122,31,416,249,-175
-3,120,21,266,137,-144
9,-126,25,-6,-50,-134
3,-126,29,-105,-128,-94
6,121,28,303,153,-209
3,-124,34,295,57,-132
0,-111,22,133,124,-88
5,-108,16,75,110,-112
17,-108,25,168,94,-154
18,-105,26,136,110,-186
17,-105,26,143,132,-207
20,-103,25,62,41,-191
24,-102,33,267,83,-227
24,-95,30,448,215,-259
16,-87,17,368,141,-168
17,-78,12,0,38,-51
28,-81,16,-55,6,-52
34,-77,24,113,101,-170
22,-77,21,233,98,-199
22,-70,16,127,29,-165
23,-67,18,107,34,-141
29,-62,20,139,49,-122
27,-63,15,104,50,-168
31,-62,13,31,5,-128
-106,-23,-1,2282,209,-7059
-2,-73,105,10414,-3622,-3828
125,69,12,9709,-5132,-4337
13,119,-57,4306,-4920,-3057
-94,-15,51,1174,-3026,-2331
-27,65,83,-1771,3163,-6090
-40,-116,-110,6506,4386,-8459
20,-36,118,3698,194,105
-28,91,-12,-6326,-2237,5046
-21,-49,-30,-5522,-2110,4055
-87,112,-98,-8031,-1748,3587
-61,-14,69,-8147,-933,3348
113,-15,-79,-6568,-1231,2963
-120,-120,72,-4517,-2665,3681
-100,-50,-44,-2312,-2216,3748
86,97,28,-141,-204,3830
-114,-106,29,32,-1189,2937
19,34,-14,717,263,1671
57,-100,-83,1150,-850,2379
67,90,-104,-279,-519,979
21,-30,47,1146,57,-147
27,-2,62,116,423,508
11,-58,94,335,-287,418
38,-80,111,911,96,105
37,-98,73,782,770,-510
10,-111,74,538,638,-333
10,125,79,564,197,68
29,-120,86,257,70,212
47,-118,80,297,71,103
42,-111,81,0,158,-246
38,-124,82,166,133,-243
31,127,90,289,99,-115
37,-110,88,251,-3,58
42,-102,77,295,71,-152
43,-93,72,20,116,-219
39,-101,70,33,-4,-138
34,-97,72,120,-26,-137
36,-93,69,206,37,-237
32,-82,59,130,-18,-203
31,-67,54,-163,-99,-52
32,-62,55,-241,-72,-72
36,-66,62,-88,-39,-172
42,-70,61,154,38,-252
36,-61,56,90,53,-154
14,-58,48,222,-13,-155
19,-48,40,-70,124,-181
22,-60,36,121,-110,25
15,-57,32,230,-130,44
22,-40,32,-54,110,-105
43,-31,33,260,176,1
-65,-84,117,5590,-992,-4029
-27,-15,38,10641,-3622,-6618
-78,-46,93,8581,-6719,-5329
1,-110,29,1936,-3089,-3961
96,75,-42,3687,249,-4465
-53,12,-112,3461,3435,-7728
-58,-24,-73,4564,1909,-5575
73,37,0,-3068,-1239,3237
30,99,28,-3261,-2289,3864
93,25,66,-6452,-1684,4083
121,82,37,-8959,112,3864
-86,-56,-88,-9728,-528,2785
-72,13,-18,-7127,-1346,2569
-31,103,107,-2820,-744,636
60,-7,19,849,-1536,3464
123,-74,19,-1591,-477,3118
-89,113,53,-336,-1735,2821
11,-76,-23,1230,-931,3623
14,106,-58,-77,-1163,533
15,69,97,-329,-481,-234
-17,116,118,-237,-352,432
-27,113,-75,-625,-166,-306
6,-1,126,70,700,-128
-1,-68,76,699,377,280
-17,-3,96,380,62,251
-12,-12,100,921,273,-72
2,-11,103,248,263,116
2,-30,104,252,-34,242
11,-44,96,130,140,58
11,-49,91,163,171,-264
13,-52,95,192,42,-153
10,-41,102,129,24,11
16,-43,96,105,119,-134
20,-38,96,-6,-7,-99
22,-39,97,94,65,-147
12,-35,93,175,57,-105
12,-30,85,190,51,-51
10,-22,83,-24,-23,-72
14,-20,84,10,-7,-209
19,-21,91,-11,-3,-116
21,-29,91,186,31,-123
19,-17,86,159,63,-153
12,-16,75,127,31,-161
12,-17,75,89,-31,-49
13,-17,77,143,-22,-18
16,-16,74,124,19,-109
14,-13,70,127,43,-200
15,-10,67,54,18,-123
11,-9,67,40,-24,-62
12,-6,68,72,14,-121
-123,-55,86,7132,-888,-4161
39,1,-49,9217,-3601,-5011
-126,5,29,9532,-4032,-5478
-7,22,112,3820,-2279,-5311
-64,109,72,3649,-955,-5080
-102,60,-26,5758,2865,-9764
97,102,82,8158,2228,-6753
-47,-105,-1,-10583,-1153,5847
-26,69,37,-7643,-3822,4628
45,-100,94,-5270,-2943,2701
35,-108,89,-8421,-2247,3658
-75,117,60,-8813,-2765,3689
-53,-27,73,-4131,-2724,4189
89,-92,-27,-933,-1357,5232
-127,90,81,-1276,-1392,3710
-22,-98,7,-2030,-509,2280
35,-95,3,2974,-1150,943
53,-39,37,1320,-1303,2206
-47,-43,-36,-1597,-554,1645
-31,-10,127,447,315,4
21,-87,109,178,349,191
29,-117,96,962,104,562
5,-78,109,375,2,-34
-11,-45,101,170,383,-1074
8,-58,101,104,462,-783
6,-99,97,114,59,153
1,-99,97,376,-178,287
9,-52,104,113,55,-108
19,-44,99,-19,186,-292
14,-69,94,121,28,-184
12,-61,99,144,38,-108
12,-44,99,182,100,-200
13,-42,90,102,84,-206
10,-40,93,94,20,-168
13,-37,92,84,8,-62
16,-35,91,142,-11,-66
20,-32,90,104,58,-201
20,-29,89,93,106,-187
14,-36,84,150,52,-98
11,-25,79,150,49,-112
16,-20,77,105,81,-161
18,-26,77,116,43,-137
18,-29,79,162,64,-123
19,-20,79,122,40,-89
24,-12,79,45,81,-105
23,-16,79,82,71,-133
23,-18,80,112,108,-119
21,-15,81,146,108,-87
23,-11,79,197,130,-158
25,-12,77,190,111,-128
-93,107,-77,5768,65,-3393
-56,114,2,5538,-1466,-4880
-122,-30,70,7823,-4034,-5318
126,104,108,5628,-4705,-6225
98,68,-78,2852,-1753,-5016
-32,11,-24,1904,4627,-8507
-58,108,-117,7299,4081,-9463
85,71,19,-4371,85,2552
65,113,6,-2406,-1787,4936
-41,52,42,-2093,-927,2589
-40,-8,58,-5468,171,3651
-32,-63,11,-5862,328,3295
109,-10,55,-5982,858,2427
78,-50,106,-6900,367,3956
23,-13,120,-4418,-1358,4471
-121,-42,90,-3126,-374,4293
-82,-40,-44,-1153,-1997,4281
99,127,-109,-632,71,2187
21,122,104,-1167,-503,870
-30,87,-124,-455,-620,1267
-21,-80,119,-306,-46,350
10,40,64,878,90,501
14,-123,69,274,-102,1088
-10,-93,61,97,16,681
-19,-118,51,-21,161,-440
-5,109,54,323,288,-626
0,109,49,-64,218,-311
0,96,55,239,-88,75
5,-125,50,84,72,70
6,-125,49,413,151,-240
5,-118,42,174,149,-290
2,-112,37,40,53,-177
7,-109,40,10,3,-55
10,-105,42,23,66,-110
8,-99,42,113,1,-138
11,-98,38,192,65,-197
8,-83,33,-64,12,-73
9,-87,38,95,-39,-129
23,-87,41,272,122,-182
14,-79,37,235,118,-186
8,-68,23,146,38,-163
10,-57,23,-53,15,-102
14,-66,28,47,21,-142
19,-66,29,118,83,-171
15,-60,25,111,32,-133
15,-54,22,76,57,-155
14,-50,22,69,35,-120
15,-49,22,76,37,-113
18,-48,22,110,43,-108
17,-42,22,129,55,-124
41,-81,-81,5484,-1978,-2398
-87,-42,75,7462,-6073,-3919
-119,46,50,7137,-7082,-4783
80,8,-126,5326,-4495,-6562
-58,101,-71,-124,1054,-6024
106,-57,-1,4281,2759,-8291
105,-84,-55,6606,2830,-6401
-1,-123,108,-6127,-592,3877
-121,76,-19,-1532,-3564,3110
-99,48,73,-4416,-1926,3290
49,80,57,-6297,-593,3719
97,98,-38,-9562,1040,3849
-57,-42,-67,-7757,135,4305
-100,100,19,-5987,-470,4195
-4,-55,-37,554,-393,4542
122,-32,-15,66,400,4435
-88,-41,-47,-340,-43,2776
-42,-110,-111,-1823,-82,1870
-114,-93,108,965,-598,167
107,-115,119,588,-388,94
57,-100,126,-756,-353,30
53,107,-126,-138,-144,-10
37,93,115,361,269,-11
29,104,71,87,374,-120
26,117,47,-238,45,-29
32,114,52,-248,-123,-103
43,122,64,-119,-47,-245
44,-119,67,139,89,-351
46,-112,61,125,163,-282
42,-100,52,113,94,-190
41,-91,57,287,45,-308
41,-74,60,243,121,-343
36,-75,52,164,137,-203
30,-70,50,38,-23,19
35,-64,49,19,4,-158
51,-47,57,-111,-5,-251
41,-58,56,31,35,-276
36,-58,55,130,79,-183
32,-41,51,96,65,-158
34,-33,46,98,86,-243
31,-29,45,74,51,-258
30,-27,46,72,19,-193
31,-18,47,69,31,-150
30,-14,47,47,28,-183
33,-13,46,84,27,-156
32,-12,45,120,32,-142
33,-6,45,90,52,-164
28,-3,44,95,59,-177
26,-5,41,112,35,-138
27,-2,42,101,25,-86
-11,89,-116,3838,1029,-4719
42,-85,84,7110,-1495,-3497
17,82,-34,10335,-3853,-5556
76,-50,75,6908,-6160,-4222
45,-110,-32,-123,-2107,-3540
-79,-68,102,4084,-48,-4319
-104,-59,-89,4084,3554,-8612
-9,-17,55,1796,3304,-4019
63,-101,-51,-5749,-206,2698
-82,35,100,-169,-3639,2032
52,91,43,-5658,-1352,2846
43,8,-34,-7941,-933,3050
0,-122,-33,-8217,-1008,3167
-21,-38,36,-6698,-1470,3671
13,29,80,-3535,-1060,3571
-123,127,-89,-360,-1810,5162
-79,21,-56,-1349,-1303,2664
27,-23,18,62,-1204,2456
88,-79,-18,860,-525,1898
56,81,-6,1054,-1260,807
54,99,-104,-881,527,954
-7,-18,78,563,797,103
0,-51,96,234,291,62
4,-119,98,185,-174,-30
4,97,90,638,-13,231
1,118,90,670,166,264
9,-109,93,556,55,147
18,-122,75,387,195,-45
27,113,77,245,195,12
36,123,67,-176,164,108
20,108,62,113,-58,-231
22,116,70,130,139,-296
21,122,74,163,151,-168
21,123,65,159,39,-127
23,-124,61,46,13,-94
27,-119,63,91,54,-103
24,-114,61,169,75,-142
24,-109,55,198,78,-189
25,-104,56,169,51,-156
28,-91,51,19,84,-109
21,-83,45,-59,41,-242
28,-93,54,111,57,-199
30,-88,58,204,86,-122
28,-76,47,209,84,-212
27,-70,43,75,57,-170
27,-70,44,67,39,-114
26,-65,44,152,40,-169
26,-56,42,86,67,-173
24,-59,41,133,24,-155
32,-48,41,42,82,-150
126,-118,50,4874,-879,-4296
53,7,82,9361,-2180,-7502
-121,117,-41,14651,-7085,-7899
14,35,-61,4962,-4777,-4342
28,88,123,-636,550,-3478
97,64,-71,5668,1171,-7757
-66,-14,1,-310,2607,-2513
119,99,-125,-5083,-202,2689
56,123,-5,-2442,-2759,3273
-17,78,29,-6615,-2347,3595
-19,-93,-111,-7805,-1704,3739
55,54,-38,-7269,-1019,4161
-65,54,64,-7279,-1174,4209
-103,-90,-104,-5121,-1598,4025
67,-65,-65,-965,-2084,3847
-62,40,-57,1299,-13,1336
62,8,11,2962,-441,1046
51,49,-22,737,378,745
-28,29,34,-688,-347,1412
-50,91,94,-883,836,80
-24,-8,89,1527,584,275
11,-14,-103,1154,-271,301
41,-12,-97,340,-336,744
9,-46,99,552,362,-116
-2,-46,117,277,160,-261
12,-65,108,194,96,-81
30,-61,111,-158,-7,139
33,-58,102,-263,112,276
25,-68,93,134,86,84
20,-57,95,162,151,-244
30,-47,99,109,158,-350
36,-46,105,98,115,-240
29,-39,97,9,12,-274
30,-39,102,-25,-3,-128
29,-41,100,126,8,-144
27,-31,96,140,57,-164
23,-20,89,135,48,-206
24,-23,87,48,-8,-152
25,-20,90,69,16,-151
24,-15,90,128,2,-118
22,-10,84,117,29,-150
22,-7,82,101,43,-177
21,-8,78,63,17,-135
22,-13,78,163,17,-105
24,-11,83,237,90,-117
25,-16,72,295,148,-95
23,-6,72,117,58,-191
23,-1,72,-25,11,-112
22,-9,74,64,15,-140
23,-10,76,143,56,-94
-23,-110,-79,7705,-1244,-3897
-12,117,-88,9694,-2948,-4334
-65,120,-85,8467,-2435,-4488
-87,-120,18,2392,1168,-5571
74,-73,83,4991,4839,-7916
-1,25,-125,7880,3781,-3410
-106,2,15,-9982,-2754,3598
115,-47,-114,-4701,-4112,3400
-119,-70,-38,-6105,-2681,2250
43,-105,-15,-7779,-1504,2839
-54,72,51,-7551,-1478,2756
-18,31,96,-4758,-1411,2725
47,111,-53,-2240,-587,2075
-95,-8,54,1732,-1523,2857
-48,-96,74,-381,-1170,1647
19,87,46,-22,-114,1297
24,-86,-18,2010,-772,1014
44,-118,28,894,-1103,1162
13,102,-105,-237,58,1084
-12,22,-106,292,-95,226
22,-34,-110,533,146,40
16,-89,95,464,608,160
-26,-96,94,880,-357,247
0,-10,109,-350,-109,295
15,-39,83,-454,75,-176
14,-89,93,-186,-157,-198
12,-75,98,-55,-28,13
2,-67,96,191,11,-109
1,-58,90,221,85,-51
2,-57,79,250,48,-43
6,-53,77,192,29,-60
2,-50,65,56,12,-111
1,-49,60,12,-51,-234
1,-44,59,-101,-41,-154
0,-45,57,-38,-100,-124
8,-33,63,-41,-18,-152
13,-31,61,41,37,-254
12,-36,61,164,68,-258
8,-29,54,150,84,-185
2,-19,51,70,14,-178
4,-15,49,35,20,-151
6,-20,53,155,-15,-128
9,-11,50,90,55,-112
0,-9,45,138,-9,-107
5,-4,45,-2,9,-127
8,-13,49,160,20,-115
11,-14,45,245,54,-107
2,-7,39,130,33,-64
4,-10,34,160,30,-100
13,-7,36,8,50,-117
-113,-44,66,3262,1988,-3204
78,-10,-58,5670,-3518,-1228
14,46,-6,7132,-3518,-2269
79,118,-118,6662,-3831,-2652
-117,117,-49,2234,-3685,-4007
65,27,104,1274,-1689,-4815
9,126,-23,2647,-345,-5897
-84,-85,125,5686,2933,-8814
35,-58,-80,-253,2695,89
-18,-81,-103,-5602,-2939,2656
-35,-43,-68,-600,-3033,2609
91,46,8,-7030,-3332,3015
105,-127,-69,-8678,-2407,3021
-45,25,-30,-7242,-2255,3044
46,73,84,-5051,-963,2367
19,-103,-84,-2174,-773,2707
113,60,48,328,-1561,4622
-78,-81,26,439,-51,3499
-4,15,36,1178,-843,3909
90,7,-5,460,-937,1874
37,-109,-62,-109,-451,1540
2,29,78,-466,564,-73
26,-84,96,-82,654,-736
65,99,-119,99,-8,164
60,112,124,802,-134,302
42,-82,99,235,314,-148
28,-63,87,-61,231,-416
35,-103,98,148,88,-274
44,-104,98,57,174,-89
44,-92,97,-26,-23,144
49,-79,93,34,68,-119
48,-59,89,-26,33,-112
44,-70,88,-11,35,-125
40,-71,87,-14,-8,-93
34,-65,90,103,66,-183
38,-61,86,180,69,-226
44,-51,82,154,96,-201
40,-51,79,121,33,-78
36,-48,78,70,-21,-59
46,-42,72,52,189,-150
44,-43,82,123,198,-160
36,-54,78,317,63,-111
36,-35,65,42,26,-95
39,-32,68,39,10,-148
40,-36,71,52,25,-147
40,-40,73,174,56,-132
38,-35,67,157,88,-163
39,-28,65,136,100,-186
39,-27,64,109,99,-204
41,-28,64,100,71,-137
64,-89,34,5980,-624,-2961
-68,-46,99,5992,-2548,-4040
-85,126,-93,7470,-2902,-4273
-59,-20,70,3072,-1348,-3298
9,-72,115,4597,1293,-4057
-10,44,-46,1800,2591,-3320
-81,-54,-8,6764,6171,-6223
-94,-94,55,309,2913,-553
-115,-75,-22,-3007,-4610,958
-115,-118,86,-4286,-4456,2787
28,78,62,-8208,-3884,783
-21,123,-37,-7200,-2978,2188
-102,102,-6,-7695,-3711,3580
-104,97,74,-4952,-2708,4501
15,-91,-80,-71,-1483,4670
-43,77,55,2692,-862,3421
9,-63,-33,-418,-35,3386
25,-53,-85,146,-440,1756
87,104,126,734,-128,1258
15,1,120,698,-899,-135
-14,6,-90,-467,-237,569
-1,-35,-126,35,224,525
30,-112,81,467,635,87
29,-100,57,25,392,91
15,-99,57,70,-75,-205
19,-96,65,-86,28,-458
20,-109,80,155,155,-243
21,-109,78,288,172,-41
23,-91,61,143,108,-46
20,-81,57,2,36,-116
21,-76,61,58,90,-195
17,-79,64,184,109,-179
22,-75,61,150,94,-141
25,-66,59,66,42,-110
28,-60,60,13,76,-172
26,-61,63,89,65,-137
26,-58,63,128,135,-169
25,-56,60,153,68,-144
27,-50,57,169,111,-160
31,-50,59,161,123,-158
31,-49,56,148,45,-123
29,-46,54,128,64,-133
35,-38,58,49,17,-39
35,-31,60,-54,111,-52
27,-20,61,-186,132,-193
37,-18,64,-99,118,-261
39,-26,63,133,154,-287
26,-27,48,195,141,-250
14,-18,42,28,-67,-72
26,-5,46,-13,-110,-29
15,3,110,7638,-3122,-1255
-59,-119,-126,10403,-5113,-1848
62,42,-113,3193,-5722,-1982
12,-30,-66,-154,-5120,-2735
49,-103,-35,849,-2169,-4995
8,-47,-117,2467,-592,-6448
34,97,-104,7887,819,-8907
5,-78,-24,-5366,2348,1761
-20,86,8,-3353,-2285,3350
55,126,120,-889,-3612,3289
32,-116,-128,-369,-649,1878
81,-65,69,-2266,555,1269
122,-101,-2,-3197,480,2026
115,27,20,-5014,752,2208
-126,-89,30,-6265,1606,2508
-126,-18,66,-5109,909,4087
109,-56,10,-3848,1528,3775
-122,-28,-122,-3509,586,2670
15,-83,-115,-1293,-123,1287
62,90,-63,-1454,-287,1685
118,56,-69,-1280,-527,567
-123,-45,-60,1911,137,521
96,11,-17,538,-174,440
116,26,-67,-424,252,197
96,-83,-83,607,1,75
87,-110,-98,547,96,166
76,-117,-102,211,83,176
87,-98,-111,288,167,392
87,-88,-110,391,-109,184
90,-74,-120,386,140,-151
80,-74,-104,239,37,-191
72,-85,-107,217,50,-8
67,-123,-119,411,92,-139
59,64,111,777,493,-245
43,59,114,704,207,165
32,38,110,949,-44,-13
79,73,114,429,201,-59
78,74,119,175,241,-24
100,72,99,285,300,-68
127,78,115,521,358,-58
80,76,118,567,228,41
70,112,-114,-227,242,-431
-83,80,60,498,796,-172
108,114,100,894,-224,-145
40,111,-124,453,73,-708
70,101,-114,112,547,-523
86,71,101,923,714,-493
111,91,-128,1108,-66,-570
-123,127,-92,349,144,-281
90,124,-91,-93,-77,-286
109,-90,-73,5054,-2783,-3636
-123,122,-123,12500,-4864,-3705
66,22,69,4302,-5751,-3363
-12,87,32,1625,-2120,-4621
-111,12,-69,1934,1316,-8704
39,100,-117,7466,1533,-9414
125,112,-11,-1980,2166,1957
102,120,-61,-5245,-3733,4242
89,108,119,-2848,-2484,3440
66,78,-28,-7885,-2848,4257
-46,-124,22,-7576,-2203,3603
-26,105,122,-6881,-1187,3338
121,98,41,-5740,-808,4112
-113,-79,-70,-2539,-1281,4547
92,-86,27,1291,-706,4580
51,101,-16,1133,-474,4414
-120,104,-115,-249,572,2250
-108,52,45,3439,875,1345
126,-63,16,3374,553,1198
80,111,59,1715,16,479
100,-68,77,1723,299,44
113,-89,104,1634,385,-199
103,-61,-111,289,202,166
88,-109,-116,52,176,-117
88,112,118,448,396,-435
76,100,111,908,322,-332
80,117,-125,655,76,-198
95,124,-122,355,66,-28
99,123,-128,41,270,-14
90,-117,123,-469,300,105
99,-96,112,-729,222,251
113,-90,84,-438,354,213
98,-87,73,49,236,-62
87,-81,67,219,96,-298
103,-67,64,39,99,-300
95,-52,69,-282,23,-55
95,-50,63,-104,96,48
94,-28,52,-140,241,31
94,-17,40,-87,208,-14
90,-9,28,40,134,-133
87,6,21,21,84,-252
90,9,20,88,115,-276
95,13,20,160,120,-146
93,30,19,65,140,-74
86,41,18,62,26,-142
84,49,18,153,36,-170
83,74,19,-100,87,-285
91,61,6,251,142,-450
80,62,2,431,15,-336
71,72,2,165,-26,-174
-61,-29,123,-2635,-3061,-5062
-59,0,-90,3614,-1121,-4877
82,71,-100,8552,312,-7915
46,-124,104,10924,-299,-7271
-103,-87,59,1909,1057,-6415
-97,-72,8,7359,3149,-9151
116,105,95,2434,415,-648
-119,-6,-118,-10289,-349,3454
-39,6,-12,-493,-2897,2453
102,-8,-126,-7578,-1688,3067
125,76,-82,-9379,-1044,3524
55,105,82,-8747,-2147,4156
97,-14,77,-5866,-442,4499
120,59,77,56,-2413,6475
-11,112,-81,585,-3309,7680
-20,5,79,2207,800,5496
-24,111,-8,1933,1225,2751
64,-32,-28,1631,-386,-395
53,-39,-38,1570,132,520
-37,-62,-23,68,199,20
-29,76,-30,18,480,-1446
-9,40,-45,814,748,-1545
-24,55,-16,518,107,-951
-34,74,11,-405,-722,-231
16,123,18,-1424,-279,199
10,96,-34,-767,685,103
-19,127,-33,-473,595,179
-19,-119,-50,168,294,-159
-1,122,-64,723,1,-473
-6,-92,-11,179,-620,2
5,-89,3,104,-392,191
36,-61,10,-382,156,232
-30,-58,-6,-323,672,-6
-29,-97,-36,481,589,-795
-2,-99,-32,758,145,-469
4,-74,-27,368,62,89
9,-84,-45,85,142,-128
-2,-55,-15,-247,-343,322
8,-64,-25,135,57,-86
12,-75,-39,355,171,-730
8,-107,-50,984,-24,-784
0,-109,-48,679,-104,-457
-4,-62,-25,-436,-285,379
19,-73,-24,4,-139,525
15,-28,-2,-206,-232,563
13,0,20,-784,192,-244
10,-25,-5,-416,399,-665
-3,-22,-43,-449,113,-480
-7,-11,-44,-356,-49,-130
-14,-12,-38,145,1,-2
8,64,4,6754,162,-5929
-97,-79,-59,11335,-2594,-7230
-86,12,-30,7895,-2696,-5878
-55,-43,0,3579,443,-5975
115,121,-18,9077,3794,-8993
-77,-99,58,-2399,1089,2524
99,48,18,-3632,-3903,3336
17,100,-43,-4217,-2518,3428
12,-12,74,-7163,-1796,3369
-85,17,-47,-5996,-941,2803
-19,34,8,-5948,-375,2787
-103,-33,18,-4626,-243,4331
28,12,30,-607,-190,5413
-68,9,100,2385,-254,5887
-78,-13,41,-2570,-493,4957
-62,-60,-27,10,983,3377
-63,124,47,-266,-33,3598
52,37,21,-340,407,1695
-29,-51,-3,293,539,402
-29,106,7,503,72,-339
-10,-110,-6,-2324,374,-801
-18,13,-38,410,104,-1124
-12,29,4,981,-175,-348
2,95,4,447,144,481
-12,99,-13,486,230,94
-9,109,-14,-10,38,-94
-12,87,-21,145,13,-137
-5,70,-15,462,-40,14
11,76,-4,532,152,27
21,82,-24,531,391,-212
5,71,-31,799,116,-534
-4,39,-32,1349,-23,-857
9,47,-11,675,95,-713
21,57,-1,165,132,-35
1,76,-6,-210,201,-95
0,30,-29,797,214,-378
17,40,-18,937,-42,-14
18,80,8,140,-50,430
12,112,21,-536,73,465
8,92,12,-5,108,-153
55,41,11,1403,512,-1233
30,45,-1,1588,517,-1255
48,64,-4,440,144,-752
62,50,-4,91,91,-132
34,51,-8,-28,219,84
24,58,-26,-34,200,68
45,70,-36,5,58,331
46,108,-26,-553,-188,428
48,-118,0,-552,-149,188
67,-121,2,300,399,-128
74,-112,-28,4546,-1801,-3171
-40,-24,99,12900,-2961,-3897
-28,-106,-15,12201,-5852,-3045
51,-37,109,-206,-1997,-7749
-42,45,117,1894,2717,-7225
-71,96,103,7429,2453,-6192
-5,-15,127,-11163,791,4091
95,-29,-14,1631,-4039,2931
-52,-108,110,-7860,-2255,2823
-106,27,-62,-8317,-1439,3346
4,-102,-96,-6253,-801,1958
-44,43,-4,-4269,43,3847
-52,-26,27,-1333,1057,5669
-123,-124,-108,566,251,6346
-13,104,120,-2678,-230,4800
-108,113,-61,-339,382,3121
68,98,-14,3542,3327,1799
48,53,-18,2162,3068,2077
100,-3,66,1453,749,1785
-36,-52,-72,-568,-1973,212
40,-73,-111,-2119,-1810,-971
47,-100,53,-1072,-164,-846
52,-118,17,333,860,-707
39,125,12,1050,545,-797
0,-60,75,474,-726,744
-4,6,62,-585,-343,1341
-27,-7,26,-834,222,10
-3,-44,3,-38,147,-1131
5,-38,13,783,-42,-848
6,-29,10,687,73,-648
16,-4,16,13,-84,-465
9,11,22,-115,-158,-93
20,4,8,176,233,-500
27,10,-1,244,245,-480
18,20,0,219,52,-27
15,33,-6,130,85,41
20,38,-19,217,163,-134
30,54,-18,36,70,-12
22,65,-16,-2,25,45
20,67,-27,245,120,-98
16,66,-31,403,74,-228
26,70,-34,336,59,-124
31,94,-22,-41,119,-2
17,98,-18,-47,117,-132
24,100,-17,89,109,-166
32,116,-12,-172,167,21
30,115,-26,-10,250,-90
39,111,-47,172,189,-241
19,110,-37,312,-125,-144
18,123,-17,227,-42,-189
119,116,41,-2297,2566,-3212
14,66,-41,588,421,-3568
-10,-43,-104,4692,-1641,-3296
-108,-91,-119,10210,-3660,-3627
17,-47,-122,10855,-7874,-3606
1,-12,102,7666,-5135,-2746
115,-46,-36,3543,-1479,-4275
31,-21,79,3176,4432,-9475
31,-18,-39,6551,2099,-3752
-121,-89,-81,-12409,258,4001
-56,98,-93,-2204,-4353,1889
77,0,-6,-8631,-2513,3428
28,-25,-48,-6041,-624,2745
10,-83,106,-6414,-134,2218
-51,-24,82,-6729,-178,3633
-66,74,-123,-1329,14,3799
-58,30,-30,-607,-298,5427
113,84,122,-676,5,5067
75,104,99,1666,258,4290
113,-5,-22,4002,2208,3728
-48,-27,-88,2412,2999,2780
-47,-83,3,2831,-152,1811
-73,-16,127,3038,-2934,-117
-14,-93,107,2247,-1646,-899
35,-72,97,159,768,-972
-8,-57,101,-2194,288,-1203
-9,-84,43,-1814,-768,-874
7,-73,12,-519,-843,-384
5,-4,36,-869,-466,-95
-44,49,47,-1505,-218,72
-61,58,12,-808,-71,68
-42,78,-13,79,249,80
-33,107,-9,123,204,192
-21,-124,-17,199,455,63
-15,125,-18,376,374,-267
-18,122,-17,399,4,-272
-10,-128,-5,127,-141,-169
-9,-122,5,93,92,-125
-20,115,-1,543,241,-185
-10,121,-19,566,228,-94
-1,125,-22,360,188,-88
-12,-124,-26,123,-22,-14
-11,-118,-20,160,-88,-3
3,-114,-10,309,12,-106
3,-96,-5,212,200,-81
0,-84,0,-55,268,-180
16,-73,-17,-377,209,-235
17,-64,-22,-684,132,-293
1,-64,-26,-512,-14,-419
2,-75,-26,92,-32,-395
111,79,64,10289,-4667,-2678
43,-18,-42,13207,-7320,-653
-122,-36,105,1002,-5905,34
-14,120,108,2955,-648,-3003
-58,-99,-55,3888,3293,-9136
63,122,-114,4309,1735,-4703
-122,-2,-99,-8007,-266,4645
-114,-71,2,-2425,-3608,3654
114,17,-87,-6476,-1683,3336
6,-7,45,-5818,1067,3653
-90,2,54,-3553,3094,4900
-75,-65,-41,1597,3639,5668
117,68,40,-2014,6104,3255
93,-38,67,-5137,5448,2060
42,-29,-64,424,3172,1492
-98,-116,-105,3880,165,1921
43,93,-11,-237,-540,-21
93,32,-64,-1889,1195,-378
98,-2,-113,-557,1655,462
45,-51,-66,1406,-31,-43
33,-66,-15,1930,-1410,-524
40,-95,-8,2266,-863,-670
43,-99,16,1477,228,-661
40,-108,34,352,625,-602
58,-117,24,-83,473,-37
12,-71,25,-540,-219,741
2,-56,9,-809,-342,252
31,-44,-14,-796,81,-294
38,-54,-37,-104,94,-458
12,-48,-31,418,-113,-122
11,-8,-29,58,93,48
17,-7,-43,50,201,-245
28,-16,-54,375,81,-267
16,14,-46,79,-222,-143
14,14,-45,169,-49,-287
13,25,-45,31,81,-289
26,21,-54,194,109,-156
20,39,-58,-37,71,-98
12,46,-66,86,120,-214
17,46,-70,150,113,-171
21,68,-72,-85,70,-78
22,71,-76,32,76,-103
20,81,-77,94,77,-115
19,91,-80,64,62,-85
21,104,-81,-52,59,-79
20,117,-82,-55,16,-111
19,124,-80,28,-5,-138
16,-124,-74,74,7,-164
16,-107,-72,-89,57,-173
16,-106,-74,16,54,-190
-27,-49,126,4868,-2904,-4597
-75,-3,43,7038,-3201,-4834
-71,-119,67,10657,-5985,-4647
90,39,-61,3275,-3144,-2335
5,68,5,2861,3922,-4281
-83,-87,-103,8572,5789,-7189
-7,-40,-69,3423,345,1388
59,111,-48,-5932,-4498,2411
15,77,45,-5215,-3118,4916
69,108,-101,-9799,-1879,4097
29,56,-72,-8189,-307,4061
-107,-57,-26,-6458,-732,4124
-64,-61,108,-3450,-2081,4722
-67,19,31,-1981,-1430,5397
-5,-81,74,860,-911,3465
-82,117,-15,3212,1017,2590
42,-90,79,1332,715,3038
33,24,23,506,680,2427
27,79,-6,1170,-135,1877
-4,-4,-11,1295,-515,-87
-7,-74,-10,1324,-134,-940
1,90,-25,1493,115,-1104
-6,64,-35,733,305,-1030
-26,11,-32,600,196,-722
-31,-29,-36,1150,29,-481
-33,-29,-24,506,-43,-348
-17,-19,-23,-265,67,76
-14,-30,-36,7,108,280
-6,-32,-42,411,119,131
-2,-20,-40,197,157,-27
8,-17,-50,-11,216,-90
15,-20,-50,54,139,121
-12,-16,-49,83,27,129
-13,-5,-46,-44,49,-79
-9,-10,-50,-140,130,-575
-4,-27,-48,88,9,-520
8,-30,-42,233,51,-188
4,-18,-43,55,67,-105
-10,-18,-41,108,-7,-67
3,-8,-32,140,3,55
31,0,-33,182,183,4
1,5,-39,113,86,-175
-3,-6,-41,225,105,-323
-5,-13,-47,189,16,-208
14,-12,-49,100,15,24
19,-3,-42,238,35,-55
8,0,-43,214,140,-427
-6,-6,-40,154,5,-311
4,-10,-40,165,68,-194
2,-11,-51,137,87,-179
35,-26,67,5046,-1815,-5289
-62,23,-80,9843,-5030,-6227
74,-67,66,10587,-7548,-2050
-118,-114,-18,-2162,-3385,-601
49,-53,-83,5120,-1036,-2649
-92,-70,98,6453,3580,-10618
106,119,34,2809,796,-3943
-13,-5,-116,-7523,776,3404
-52,-17,25,1470,-4057,2616
-103,23,6,-9485,-1201,3398
-23,45,-21,-7332,-794,2572
87,40,-104,-5061,307,1978
10,4,-67,-4442,798,2094
40,106,-92,-4881,-595,3931
-104,-23,-34,-2363,-1583,4358
8,-41,-35,-2309,-504,3602
123,-114,-26,1435,-744,2792
-78,23,12,582,-9,2553
-12,-69,-26,934,597,2208
34,56,-37,2765,564,2176
67,-1,-3,3028,795,1345
70,-52,-59,1896,1673,1009
-39,89,0,1117,-201,-170
-92,47,35,-119,-886,-769
88,-50,13,353,276,-1000
40,-51,19,983,625,-267
-25,-51,24,723,279,-337
85,-65,-2,196,113,-746
8,-31,40,-831,-564,-378
40,-26,19,-130,-361,-50
26,18,4,84,-200,-1234
29,26,-24,1016,455,-98
39,53,-4,363,276,-26
18,53,-12,95,-13,-1
23,84,-8,-182,-295,-978
38,100,-35,367,368,-339
7,104,-36,256,75,123
-2,107,-35,-155,146,-229
63,83,-56,12,16,-445
70,69,-53,-15,18,-259
10,70,-31,12,-492,-69
-1,-127,-21,-534,-102,18
-5,-125,-51,-104,471,-65
17,87,-74,1007,-50,-480
57,-102,-39,-19,-4,482
51,-69,-38,-872,38,327
-11,-83,-68,-470,99,-124
24,-120,-92,357,55,-449
48,-106,-58,190,-123,-136
55,-110,-58,-10,377,239
-66,-49,-102,4929,-2666,-4340
-48,-69,-88,22119,-9494,-6964
125,107,70,4968,-10138,-1774
125,-100,60,-1967,-2954,-3364
-50,110,-45,3640,690,-6945
-32,-111,49,3307,2948,-9090
10,40,-51,-8555,2321,219
-74,-87,-52,3547,-2216,2692
118,5,60,-1963,-2438,4279
-88,-105,99,-8340,-1515,5286
71,116,-78,-7595,-118,3535
49,75,74,-7214,1189,4457
-2,86,-66,-5143,1909,4295
81,70,-126,439,2066,3880
13,125,-107,-2437,2186,2485
60,88,119,-2163,287,3926
-114,-27,-67,60,-422,2758
-69,-81,10,-328,46,2760
8,23,-5,43,982,1972
67,-26,-68,720,1064,2225
15,-71,-74,1285,782,1709
-27,63,-56,1976,-155,240
-26,-49,15,1606,-836,-959
-19,-53,38,627,-596,-1035
9,-42,35,-143,285,-198
-19,-53,16,-60,364,100
-27,-69,-1,461,116,-108
-7,-46,-7,388,28,-18
-2,-22,0,-105,-17,24
-10,-17,-9,-207,18,-218
-7,-26,-21,262,115,-297
-6,-20,-27,399,106,-277
1,-3,-28,71,29,-210
2,5,-26,-46,38,-109
2,9,-28,112,143,-195
-2,16,-33,260,182,-304
-2,17,-39,411,172,-368
5,17,-44,362,85,-377
22,3,-35,802,132,-328
19,-23,-33,1492,402,-376
18,5,-19,560,258,-38
18,6,-27,15,107,133
19,11,-27,-87,22,60
45,10,-33,237,117,-196
49,9,-33,331,-33,-125
23,41,-26,-289,35,95
22,57,-51,-908,215,-49
29,30,-90,-198,-98,-292
52,32,-65,632,-268,163
15,84,-38,-127,94,181
101,-56,-62,-4324,1516,-6449
35,16,101,2920,-2954,-4255
-40,-122,71,6666,-3552,-4986
-49,73,-102,11123,-5847,-4004
98,-77,-113,13065,-6305,-862
-36,-85,115,2992,308,-2855
95,117,53,3715,3326,-10000
-52,-70,-51,5317,-761,-1787
-81,67,26,-12367,264,5223
-127,-95,-79,-4620,-2451,3086
125,-99,1,-5997,-556,2344
56,-3,22,-7508,1177,3585
-101,75,77,-7489,1592,4306
-115,77,50,-4686,709,4518
56,126,-80,-2449,-1509,4551
23,31,15,-1548,529,3630
-66,119,-72,1573,231,3192
8,84,-65,2941,-13,87
31,-93,-115,2895,1194,1436
50,53,116,2654,1850,944
-21,-15,-126,1664,455,-72
-46,9,-67,-154,-763,8
-34,-56,-115,-524,208,-99
29,92,113,562,437,-982
14,46,-78,988,-402,-551
-54,80,-17,106,-301,745
16,107,-48,-778,793,377
-2,49,-63,-110,18,-171
22,71,-56,297,-89,-50
33,89,-76,167,324,-277
6,82,-68,-119,-71,-599
14,68,-61,337,-288,-211
1,96,-41,7,-91,69
27,95,-67,165,517,-223
48,73,-80,758,300,-469
15,87,-61,587,-41,-8
29,96,-60,198,251,-83
37,86,-76,200,427,-170
36,67,-92,628,202,-2
74,80,-80,745,126,219
37,98,-67,485,172,-44
29,92,-53,261,121,-277
72,92,-58,69,285,40
57,113,-56,-181,203,126
44,126,-73,-423,250,-302
54,125,-81,-208,4,-443
47,122,-73,261,-169,-568
54,-121,-58,249,-38,-623
50,-119,-58,205,83,-574
44,-128,-66,260,-27,-456
-40,85,-16,9272,-6631,-4256
-71,-20,75,8136,-7914,-3456
117,52,5,2255,-2999,-4498
-4,-91,-119,3972,-1324,-5810
-24,58,120,11908,-1185,-10945
-6,-12,85,-4374,4087,4083
125,-4,-36,-8569,-3704,3378
-27,91,110,-5623,-2139,3174
17,114,-28,-8059,243,3020
124,-97,-66,-6876,1176,3203
46,-98,-100,-4808,1627,2916
-119,-79,94,-3269,70,4459
-78,90,14,-2536,-761,6126
101,91,56,-2954,1131,3740
41,-49,32,4372,1127,1049
-50,-4,-111,3999,906,2036
-108,-71,123,2033,91,1617
92,60,-115,1430,354,1357
35,-79,-114,1447,700,-1838
10,69,-96,3299,196,-2292
52,98,1,1809,-7,-767
97,104,32,-177,-46,-171
76,73,23,-569,8,157
70,50,-4,-192,146,326
56,37,-18,-41,139,129
44,42,-21,-32,-26,-59
65,53,-28,-128,143,80
55,60,-22,-139,-140,-69
69,78,-27,-111,5,-72
51,94,-24,-286,-31,-164
47,97,-35,-171,39,-331
43,110,-32,-37,82,-217
47,122,-48,23,127,-166
38,-121,-51,28,-29,-263
31,127,-58,212,-81,-372
38,-123,-56,86,-45,-298
67,-125,-64,247,81,-150
55,-91,-39,-133,-283,401
59,-32,-38,-786,64,749
0,6,-72,-1435,118,167
26,-41,-96,-273,-63,-702
15,-69,-79,745,-318,-620
-16,-50,-47,601,19,-242
40,-55,-78,260,531,-654
16,-67,-79,178,-108,-132
-14,-40,-68,-351,-204,421
23,-8,-86,-622,201,-124
42,-26,-100,54,-165,-247
0,-15,-67,325,-270,-86
17,16,-43,141,92,-29
51,89,36,9729,-2940,-5643
34,-102,-118,13859,-7157,-2955
-41,-69,11,4349,-6332,-1855
-25,94,-122,739,-742,-2875
20,104,15,3181,4001,-7246
-110,111,125,7473,3694,-4742
-106,-113,-19,-7321,17,1810
58,55,54,-3915,-5560,2678
25,-26,-121,-8782,-2804,2505
122,61,-74,-6115,-1701,2221
96,-22,-30,-6942,-1154,2409
14,-30,-98,-5833,339,3453
21,-70,49,-4688,-1851,5189
25,114,25,-831,-374,5983
28,-103,88,1308,411,3881
-55,-109,56,1163,323,3442
24,114,-56,4185,1595,2124
-5,17,-70,4344,1788,2064
82,-103,-31,2663,294,751
17,34,63,171,-894,-502
54,-43,64,-472,-676,-1067
103,-88,45,-137,283,-747
59,-77,48,115,131,-43
55,-66,41,195,32,75
63,-50,22,16,35,-139
53,-54,23,84,-203,-288
51,-32,32,84,-301,-121
59,-35,25,176,17,-296
61,-28,17,103,38,-290
71,-8,7,-191,-8,-27
62,1,0,-119,68,-17
55,-1,-4,320,160,-167
47,17,-12,212,179,-203
47,20,-19,208,154,-184
54,26,-23,132,135,-171
56,41,-26,20,139,-68
47,50,-31,-23,135,-154
51,57,-36,29,127,-175
50,66,-37,58,17,-107
47,79,-37,-47,45,-151
53,85,-41,62,24,-207
54,91,-39,104,-67,-189
53,104,-29,38,-4,-239
50,100,-32,201,57,-252
53,102,-36,353,56,-182
48,112,-35,246,61,-185
50,114,-36,210,108,-193
45,114,-42,226,88,-144
45,112,-45,348,107,-136
44,125,-48,177,115,-111
116,-46,6,-1058,2557,-6154
-109,31,29,5061,-4095,-6225
70,-128,14,11631,-5065,-5662
-83,-72,-101,10506,-5009,-2423
-107,-65,116,6275,542,-2608
-105,95,-91,6565,2696,-7562
88,36,-113,9513,1684,-4854
-34,127,86,-12042,-1052,3990
11,-89,69,-4773,-4620,3414
80,-87,-76,-7517,-3121,3379
-120,75,77,-6544,-939,4109
90,-113,77,-5755,-993,5969
20,87,87,-4094,9,6281
-17,57,-60,-972,-13,6580
120,-1,106,-151,1145,6639
-89,8,83,1842,1577,2164
38,38,66,3631,2940,1619
-60,118,34,4204,773,729
122,4,-119,2929,-764,993
61,-83,-113,1842,-731,155
-11,116,-33,38,-843,-988
-3,80,-32,109,-191,-847
28,46,-47,454,304,-753
35,57,-40,-246,160,-521
22,58,-46,-268,135,-279
2,41,-55,440,144,-300
0,45,-62,632,206,-361
10,50,-58,623,233,-410
18,16,-67,1383,70,-453
17,20,-49,1302,-18,-111
31,36,-31,766,232,234
27,56,-27,136,131,64
33,76,-18,-547,-139,-125
31,71,-21,-618,55,-476
37,39,-49,-278,245,-566
22,40,-59,-30,130,-212
15,59,-65,350,53,66
24,79,-59,505,2,-39
32,99,-54,358,30,-162
28,119,-50,-74,51,-218
28,112,-62,-208,127,-226
26,110,-66,-198,34,-147
26,116,-60,-45,3,-89
36,126,-54,-20,103,-153
19,-120,-50,66,79,8
27,-110,-63,225,86,-14
35,-93,-73,-71,81,-140
26,-91,-65,-71,-4,-229
25,-88,-46,-26,20,-157
24,-99,-57,394,151,-185
58,-11,78,2163,-4697,-4509
30,100,93,10496,-7023,-3116
-22,14,9,8137,-6868,-2953
-21,82,-42,2224,-1976,-2669
-88,-40,103,827,-16,-2577
-127,28,-5,6572,3423,-7874
-14,-127,0,7613,1209,-7358
-9,117,57,-10382,-520,5738
88,104,-31,559,-3231,3774
69,-128,-101,-7041,-1558,3814
-77,52,-52,-8331,324,4346
-103,48,1,-8661,575,4669
-31,-11,85,-7611,576,5129
-123,-74,-39,-3934,-972,5247
-89,-62,42,-655,-337,3539
-109,90,116,2867,-220,-108
-128,36,26,3352,491,1913
120,-20,-38,2651,2643,922
-89,-68,72,2808,2411,1469
-59,31,57,2811,899,2968
6,-73,-103,-409,783,2446
-27,83,-60,-1835,-134,-395
-34,44,-60,235,-164,-2058
36,0,-63,2821,495,-1069
41,71,-23,728,275,-122
24,63,-17,-783,-40,-179
22,24,-55,2,17,-151
18,46,-48,-41,-105,-82
27,71,-42,-183,-110,49
27,92,-41,-250,33,28
18,103,-47,-232,21,-164
20,104,-50,-32,2,-209
29,104,-53,115,107,-207
18,111,-55,244,106,-124
17,118,-61,265,118,-94
22,127,-67,256,121,-112
14,-115,-67,-7,44,-147
21,-119,-68,3,100,-193
24,-116,-69,-86,70,-186
23,-116,-67,-20,0,-123
28,-99,-59,-32,48,-118
34,-85,-55,-4,126,-227
25,-86,-53,212,153,-320
24,-80,-52,166,135,-194
29,-80,-66,248,182,-166
23,-75,-70,347,125,-172
30,-61,-71,127,125,-179
27,-58,-70,33,32,-170
30,-49,-64,-185,87,-245
31,-53,-66,-90,33,-176
-101,93,-5,-4629,-3380,-3212
-55,-128,84,7714,-5834,-3987
13,110,62,9134,-6315,-2150
-118,5,29,6072,-3866,-1952
116,-123,81,3292,886,-2985
-95,-100,-43,5334,1643,-5072
39,-88,-116,5841,1959,-8687
45,-47,26,-5369,2062,2738
15,-77,-46,-2158,-4317,1543
-66,-5,53,-4888,-2306,2352
119,120,-96,-8784,-1272,2577
-102,74,-121,-9094,-147,3129
-17,44,51,-7606,419,3173
-30,104,-89,-3952,-818,4423
-118,-101,87,-2243,-1126,6062
59,65,-75,-2602,-834,3816
66,36,-35,194,-453,4725
76,38,-24,3009,600,200
108,39,83,1642,220,497
68,-110,25,1727,375,760
49,-47,-6,3437,137,821
82,110,-29,2738,152,881
62,53,-5,1747,100,379
35,18,34,675,49,-367
40,8,50,-164,25,-418
52,8,47,-462,131,-283
49,10,36,-480,124,-233
47,11,20,-225,64,-194
43,24,13,-117,6,-163
45,31,22,391,34,-196
55,47,24,463,101,-159
51,63,17,479,64,-121
42,69,4,227,120,-227
40,62,-6,256,72,-248
42,59,-1,311,22,-231
42,65,6,370,42,-190
47,62,5,508,86,-229
43,61,1,592,115,-209
38,71,-5,295,81,-132
43,69,-12,263,62,-139
45,77,-17,145,31,-141
39,78,-12,149,75,-204
42,80,-9,163,107,-193
37,76,-15,273,101,-184
40,85,-21,174,56,-108
38,88,-21,291,70,-176
41,101,-19,127,73,-135
38,103,-23,117,48,-169
35,109,-27,42,53,-158
42,113,-30,7,65,-129
44,-59,-21,6424,-5385,-3557
31,-43,-92,13931,-10108,-3159
-51,27,0,4792,-5477,-3224
-28,127,-126,3614,-285,-6735
75,71,-22,11344,1044,-10397
55,-58,71,-12569,6756,3610
108,89,29,1631,-5335,1125
-40,15,17,-3206,-2400,3358
-47,123,-1,-8814,-339,3649
10,-17,-69,-8946,1097,1755
62,-93,-83,-6818,1113,2333
3,-35,-115,-5780,1361,3153
114,84,32,-1100,-1090,4384
124,80,-89,-1045,51,4970
-115,108,74,-2699,1622,1423
-127,-29,-104,2660,-377,1332
-39,97,104,1697,-496,2115
1,15,20,614,495,833
45,86,-67,2590,777,583
87,-89,125,5284,510,533
82,-86,-57,3352,-156,876
17,-80,-13,-698,413,63
20,111,-27,-1411,332,-635
62,46,-50,-314,225,-682
49,58,-41,109,-25,-196
47,82,-43,-11,-5,-28
39,110,-38,-313,4,-73
39,113,-25,97,7,-28
36,115,-26,457,93,-238
33,113,-25,523,117,-358
30,119,-19,364,97,-36
46,126,-28,218,251,102
55,121,-36,294,274,36
64,-128,-38,264,271,10
48,126,-46,272,238,-134
27,-123,-37,18,-49,-198
38,-115,-26,-112,-23,-214
44,-116,-29,-50,5,-333
36,-118,-30,120,-91,-319
53,-112,-27,75,-6,-226
42,-97,-24,-164,146,-133
27,-102,-41,67,172,-66
43,-91,-42,142,32,-22
47,-74,-36,76,36,-39
48,-60,-29,-80,57,-243
42,-67,-22,159,126,-379
26,-80,-27,509,101,-411
30,-82,-29,444,148,-356
46,-87,-35,506,188,-102
49,-37,-52,-255,231,5
34,113,-22,3531,-4169,-4948
46,69,-98,9532,-7019,-4392
-127,8,-21,6699,-7658,-2221
41,1,89,-955,-3567,-432
88,-62,99,2990,835,-4978
-23,53,-2,5133,2901,-8174
28,104,-89,2328,4331,-6334
57,45,-7,-8977,2996,2590
123,2,-37,4662,-5047,2344
-107,-103,53,-2866,-1080,2431
-90,-51,119,-4572,-1805,2477
123,-40,42,-7299,-996,3880
120,-79,1,-7712,46,3079
-74,-44,-33,-6503,558,2702
117,-91,-13,-4869,195,3510
-27,-13,60,-3531,-54,5392
-99,49,-122,366,-1800,6052
-69,-123,111,1954,-1225,6846
-36,33,-92,-657,-896,1288
76,-12,69,-706,539,1656
38,62,39,1581,-135,1794
0,-50,15,3068,-23,274
-8,-113,-56,3430,300,-529
-14,19,-50,4049,-40,-959
-18,7,-15,2326,555,-794
-23,-13,11,170,784,-773
-26,-40,30,-883,370,-223
-23,-55,14,-244,-9,342
-21,-56,0,320,51,301
-15,-39,0,460,71,-113
-36,-61,-12,902,9,-534
-36,-22,39,200,-496,-144
-3,-19,42,-29,-60,-112
0,-29,28,334,257,-272
-11,-18,20,295,144,-328
-17,-30,12,658,200,-711
-1,-46,22,1051,364,-861
1,-42,14,975,247,-399
19,-42,34,1033,49,112
13,-25,28,619,188,164
11,-9,16,-90,208,-24
1,-17,0,-74,3,-117
0,-17,7,-45,-37,-240
16,-18,9,4,95,-215
29,-22,0,173,93,-246
20,-2,1,88,62,-40
2,15,-9,39,93,-143
8,21,-14,174,34,-112
22,40,-17,-55,105,-180
15,43,-15,-55,78,-172
70,-12,-66,-595,2115,-7036
-41,-99,18,4963,-2900,-4070
107,37,31,6623,-5557,-3162
61,-47,-42,10748,-8549,-2136
10,107,-79,2452,-3564,-282
-101,-27,-29,910,421,-1127
-78,46,54,6769,4216,-5575
-99,-128,-23,4445,4521,-6830
92,-90,7,-6932,1924,2424
-50,-96,71,129,-5678,1913
-47,63,-20,-726,-3198,3860
18,-94,88,-5649,-1040,2703
-34,127,-116,-4954,876,2875
46,118,-49,-4405,1538,2658
108,110,-105,-4200,2146,3460
-72,-55,68,-5981,2588,5024
63,-27,96,-4536,446,5973
75,48,-50,-3509,102,5238
-58,89,67,1214,-804,912
-111,6,80,4197,-29,-36
70,26,-14,2883,985,-154
53,-79,-50,1117,1036,873
56,62,-91,1140,1264,1379
36,-19,-97,1227,705,618
3,-74,-38,783,-575,-459
30,-82,-16,384,-840,-445
48,-111,-2,352,-294,-386
41,-112,-2,90,236,-220
28,-104,-11,-349,337,-226
25,-118,-36,-194,211,-354
21,-125,-40,147,11,-444
22,-119,-41,196,-21,-339
17,-96,-38,-198,-27,-195
10,-52,-28,-836,-244,-4
16,-33,-17,-668,-186,-105
23,-42,-17,0,233,-219
13,-35,-28,234,312,-185
7,-20,-39,193,146,-28
6,-11,-42,35,-1,-45
16,-3,-27,-19,13,-178
20,-2,-21,65,71,-241
18,-9,-17,241,97,-190
19,4,-15,58,127,-116
16,3,-23,156,107,-249
10,-6,-38,180,-31,-281
32,4,-37,-132,-15,-96
24,13,-28,-302,-80,-79
-2,22,-12,-147,-25,-104
1,17,-9,236,180,-246
7,14,-26,442,187,-187
-60,-53,99,5763,-2006,-3288
-75,55,-18,7328,-3544,-4004
99,52,35,12115,-7119,-2932
-38,18,-13,3660,-5345,-141
15,-24,-65,1109,-3150,-1020
17,-116,-8,2934,2102,-4286
-4,114,97,5628,3818,-8846
-93,34,-37,-2660,2638,-676
-17,-59,-44,-5483,-1936,1914
-45,56,-42,-2524,-3168,3146
-108,-113,95,-8321,-2316,2651
122,-48,-122,-8192,-1618,2770
-27,-107,43,-7844,-817,2326
-68,69,122,-5286,-1094,3301
21,66,63,-2379,-374,3746
-17,-30,-115,276,-1650,4140
88,69,-95,-1270,-746,2114
-45,-67,-44,-76,-312,2018
-13,105,-92,712,563,1441
9,-9,127,1568,-174,1349
79,69,61,3626,-14,1786
82,-64,-33,4703,830,1574
29,75,-30,2498,395,-15
7,38,26,554,89,-734
53,17,8,-316,438,-127
37,1,1,-81,237,204
20,-13,-3,408,-41,-53
25,-16,5,795,4,-293
32,-1,18,564,5,-294
42,11,25,129,17,-180
37,19,26,-150,14,-120
36,30,25,-230,27,-180
42,25,7,24,89,-332
30,36,6,-6,-10,-388
35,34,-6,161,66,-328
24,50,-2,21,4,-159
29,57,-4,134,96,-53
29,71,-6,245,105,-45
29,86,-11,133,98,-91
28,95,-16,96,68,-168
29,99,-17,64,64,-206
31,104,-16,25,61,-151
31,111,-14,4,95,-180
28,112,-18,95,73,-218
31,114,-20,129,74,-186
24,125,-22,115,40,-136
29,-125,-22,172,94,-151
25,-110,-23,80,56,-170
29,-109,-27,59,83,-173
25,-99,-23,-1,57,-141
59,108,-120,5555,654,-4272
24,-87,-83,12358,-4199,-3052
-65,31,-82,8999,-8681,-200
44,-73,-124,6845,-6732,1482
-1,-7,-44,-106,-4156,366
-80,-107,-11,2903,-2562,-2400
-83,-100,-53,2249,593,-4891
67,35,-11,4700,1775,-8363
-102,-66,-107,-11862,3870,2947
90,45,-26,4271,-4782,1576
97,-42,6,-5267,-1811,3582
-53,76,73,-8872,261,3444
-55,48,37,-7055,1361,2805
-39,0,107,-9726,2291,2844
11,58,-56,-8009,319,4661
0,117,-96,-4182,-2581,4735
27,-6,-128,-380,-1340,2629
126,-116,-25,966,-2036,2250
-14,-123,-54,174,564,1445
18,-83,74,2980,1178,1888
94,106,29,4145,991,2820
127,-11,-46,3786,1613,3380
28,99,-14,2681,-279,1269
-82,-3,72,-278,-823,-1583
-1,-1,29,-1065,188,-1884
48,-22,-11,-315,504,-1071
11,-28,-3,286,-127,-555
-11,-36,14,626,-462,-394
5,-15,32,503,-231,191
21,34,19,-463,244,491
-5,45,15,-522,-36,140
-4,34,6,306,-39,-266
6,58,11,195,156,-260
0,83,0,-118,96,-211
-9,77,-10,-10,82,-279
-4,82,-17,35,79,-314
-4,87,-20,89,69,-191
-1,98,-22,-20,73,-168
0,104,-23,37,58,-64
0,118,-22,119,76,-94
0,-121,-22,-60,67,-128
1,-120,-22,-29,56,-223
6,-116,-18,31,60,-172
5,-109,-17,52,111,-110
3,-101,-20,71,108,-137
7,-94,-30,101,117,-179
3,-85,-30,-12,45,-162
4,-86,-28,84,42,-241
7,-78,-23,9,50,-182
7,-76,-20,89,82,-154
-125,28,-80,4754,-4239,-2755
-121,-68,-5,10232,-7454,-5198
97,12,-9,2708,-4061,-3391
-6,-128,-49,4933,-3506,-5514
-84,-24,-32,2903,-339,-5690
-33,-19,-97,5948,2157,-8778
94,67,17,-535,4610,-4276
72,-87,52,-8282,2037,1858
-76,97,75,6913,-4562,2184
87,99,-67,-4824,-710,2424
-49,-127,81,-7414,-1161,2201
-115,-64,26,-9232,425,2701
-78,106,48,-8302,412,2971
123,-97,25,-7396,-363,5415
103,-32,-48,-4283,-1939,4610
122,109,-105,-765,-434,3124
20,2,-119,-490,-11,1146
70,-69,-65,942,413,2097
-7,-104,-96,-185,-897,2813
0,58,-123,-266,-436,2196
11,-65,85,132,410,348
-18,79,44,850,-768,-1262
20,18,-20,916,4,-675
-13,-21,-5,521,148,-538
-48,-48,-20,154,254,-536
-43,-55,-22,268,230,-230
-26,-55,-15,362,-90,16
-18,-34,4,-103,-340,234
4,-5,13,-649,-138,295
6,-25,6,61,99,89
-5,-22,-4,302,108,-202
-2,-10,-2,164,70,-77
-5,-8,-8,144,177,-128
-9,-19,-18,309,156,-306
-13,-26,-25,359,81,-212
-7,-19,-22,161,80,-127
-15,-26,-23,263,41,-169
-1,-26,-19,324,74,-149
-2,-21,-18,181,30,-163
0,-17,-12,152,60,-244
0,-12,-12,74,74,-206
2,-19,-14,97,105,-225
-3,-20,-14,106,67,-172
1,-22,-19,139,134,-197
-2,-21,-20,174,47,-194
2,-14,-21,82,84,-143
1,-14,-24,104,72,-169
0,-9,-21,82,19,-142
9,-6,-18,41,113,-192
0,-7,-17,52,40,-184
12,123,47,8127,-3357,-5970
-71,-76,-64,8490,-6631,-4820
-11,75,-30,7368,-8149,-3380
-63,-25,10,-522,-2675,-3108
21,12,-68,661,164,-4896
-75,86,56,5499,-421,-6147
2,50,77,3500,1256,-7045
111,23,-55,-7685,5622,-788
-115,24,-124,-60,-397,-608
95,94,32,2677,-3183,1556
85,-49,-43,-4039,-1415,3330
-54,90,-101,-6562,-865,4363
-4,-84,45,-8665,891,3812
0,-110,-75,-8937,359,4710
-57,122,-110,-8462,-633,5419
121,-26,-15,-3986,-2466,5047
100,40,-72,-998,-1222,6407
107,77,93,-436,-255,6102
118,33,-106,1714,-657,2191
75,-9,-126,955,-471,-674
68,-102,70,1630,106,-1041
42,101,1,2339,713,-230
9,17,0,2894,-214,120
12,-15,6,2794,-37,313
-1,-16,18,1154,299,-109
-26,-23,46,-589,154,-481
-15,-61,34,-268,43,-584
-16,-71,34,108,-65,-536
-10,-66,25,267,148,-495
-20,-55,22,226,86,-372
-10,-47,24,302,9,-189
-10,-58,42,997,-43,-225
0,-78,36,1653,291,-513
14,-48,44,838,231,-410
11,-37,36,-117,172,-84
1,-41,24,-333,133,-36
0,-54,11,170,125,-58
3,-40,6,307,114,-29
8,-15,7,39,57,27
6,-3,2,73,63,-92
6,-1,0,152,32,-278
8,8,-1,107,-4,-234
7,15,-2,63,16,-247
14,16,5,296,-22,-252
10,34,14,248,82,-253
15,32,1,205,260,-421
14,33,-11,161,138,-237
12,41,-20,58,76,-123
15,50,-26,-2,143,-142
13,62,-31,-23,57,-121
-61,20,4,2798,1900,-7338
-23,112,-122,6866,-3978,-3358
-53,-71,65,9319,-5115,-5032
-75,-123,105,12618,-8911,-2780
60,31,96,1108,-5071,-263
-121,45,114,-486,-714,-3518
117,59,73,2774,1897,-7910
75,-108,3,6168,2725,-7997
109,-14,-121,-8020,2339,1380
-55,-77,71,1574,-2199,908
72,61,-82,-2496,-2289,3912
-96,126,-124,-6925,-2678,4836
-63,72,0,-6597,-1765,3679
-125,-51,42,-5721,-669,4089
-5,20,69,-5470,319,2673
-9,2,92,-3332,912,2203
88,-22,90,-2479,1706,3955
59,-25,99,-1570,4,3710
-45,4,-110,-1655,-295,3212
86,70,127,223,-1258,2466
-60,0,60,1793,612,1415
-9,121,47,1825,-111,2952
-29,37,35,1371,19,1734
-20,-98,24,1155,332,-891
40,86,22,2915,1046,-143
16,113,81,1439,769,714
10,77,97,172,519,270
8,36,100,-168,179,140
25,-11,87,-51,54,286
20,-45,78,384,31,323
2,-62,94,339,-138,102
2,-66,92,231,-31,-150
0,-53,93,309,1,43
25,-42,75,465,211,130
15,-24,65,175,184,-188
10,-21,55,168,118,-365
16,-27,44,300,145,-376
13,-20,46,189,90,-319
14,-11,42,124,75,-138
13,-3,43,148,43,-100
17,4,37,210,88,-138
21,13,35,244,136,-103
29,19,23,85,159,-168
18,20,23,15,-35,-284
21,20,26,147,-74,-178
17,33,32,91,26,-107
22,58,16,35,137,-52
20,52,7,325,52,-306
26,64,8,77,138,-323
15,66,6,-19,19,-175
118,125,63,-2442,2876,-3083
103,-74,64,1934,335,96
-98,-75,10,2108,-2376,-3957
-105,-99,52,6880,-5523,-4487
-52,-16,-36,11416,-10195,-2872
51,-3,-74,4701,-5809,-3293
62,-127,94,2543,-2062,-4001
-124,-124,-109,4810,584,-6769
-3,-58,26,7308,2335,-7867
-86,59,38,-11844,5161,2120
114,72,13,6285,-4227,175
-68,-69,-41,-3578,-1953,2759
64,-55,45,-4484,-3724,2550
57,-39,101,-7264,-2841,2934
-8,-45,54,-9430,-568,3584
49,-52,-16,-8673,-732,4435
-29,-51,-17,-6685,-1308,4594
21,-63,-54,-3024,-1616,5106
29,113,-121,2746,-2419,4283
-29,-97,43,2816,789,3387
8,59,-83,181,-262,4324
35,-119,85,2193,-865,2069
109,-90,40,1499,25,2131
39,-50,34,2527,234,1393
2,-91,43,1743,724,909
-58,18,65,2147,-77,-433
-59,25,94,-39,140,-1060
-5,-22,102,30,286,-808
-2,-50,61,243,328,-593
8,-27,45,-34,324,-493
-14,35,66,-1169,-201,-561
-34,-18,89,57,-463,-685
-18,20,106,256,-32,92
1,55,60,32,428,295
-2,14,16,1282,42,13
-1,37,37,1358,-148,-178
-14,56,61,445,-81,-292
-7,56,48,-97,182,-155
-8,39,34,-16,112,-188
-11,20,28,353,-36,-238
-2,33,35,209,38,-154
-5,41,30,298,71,-27
-10,23,20,789,77,-230
-1,49,24,380,43,-106
-3,51,17,298,65,-160
-3,50,20,263,33,-233
-1,58,20,112,113,-206
-1,57,11,70,106,-215
-2,57,5,108,52,-189
-2,67,4,60,3,-169
88,-35,16,976,1929,-7008
98,-12,31,5853,-4447,-5243
-107,67,-43,9397,-5995,-4083
15,-112,-16,12434,-8217,-4047
111,-32,30,5833,-6032,-801
-17,24,-101,-472,-1455,-863
85,65,-110,1228,376,-3216
-82,111,-46,2112,5421,-11614
-115,117,50,-3721,3381,-2743
43,-16,35,-1258,-2813,3263
-60,52,4,2976,-2445,3059
5,20,73,-3209,-2349,3803
125,-99,13,-6810,-2025,5098
30,51,-6,-6177,288,4019
49,-118,99,-8256,1939,5149
-43,30,-22,-5798,997,5577
4,97,-121,379,1016,6024
34,-75,-111,749,575,8276
101,-32,-73,-2979,1301,3492
19,-112,70,879,-282,2887
62,-27,0,3580,1176,883
46,46,-73,4343,1541,167
59,16,-33,3590,691,899
-15,35,51,694,414,843
121,-13,86,-2084,-451,-1141
-85,-103,56,-985,-430,-1693
-42,-126,40,71,-242,-1373
-44,-95,46,308,-176,-500
-54,-70,47,-100,-60,-102
-60,-46,39,-424,110,41
-62,-30,19,-232,-80,293
-42,-11,23,483,-67,224
-22,5,33,931,134,-153
-80,52,50,-172,-56,-304
-58,17,15,-107,240,-498
-38,-20,-16,606,229,-597
-39,-18,-17,707,-79,-283
-51,24,4,154,-67,254
-44,35,-8,-204,246,10
-38,14,-28,374,184,-263
-48,22,-29,568,-85,-135
-45,55,-13,-96,-23,-128
-22,35,-27,424,162,-344
-46,53,-9,255,-113,-58
-27,80,-15,-317,219,-212
-35,58,-27,-72,157,-362
-27,44,-41,269,114,-317
-6,66,-41,158,26,85
-34,96,-29,-91,-22,-82
-18,105,-15,31,226,-230
5,51,80,-3968,-404,-4560
96,58,48,1374,-185,-3300
80,-47,41,3141,-3003,-3152
64,-31,40,9595,-4238,-4152
74,73,-16,11579,-7842,-3370
44,-47,72,3562,-6044,-4281
-110,-30,47,1583,-1221,-6179
102,-36,-30,3734,3009,-10030
-41,-40,94,4303,4704,-3674
-127,-38,7,-7974,-2255,1459
-15,81,-69,2856,-2356,4527
-97,76,60,-5150,-3167,3571
60,91,120,-6272,-2571,3160
-103,76,92,-6385,-761,2855
62,51,61,-6251,393,3626
-16,-41,-66,-6914,1112,5105
-36,-41,-41,-3825,-830,5864
-103,-77,-100,970,-2116,4509
-48,-120,-28,-693,1281,2305
-14,-50,115,-76,1090,2677
6,-49,51,2166,-1052,3272
66,-87,83,950,-446,3184
42,58,-6,1292,1012,3068
-49,-115,-20,1735,265,1591
-102,-120,75,-1316,-1213,-414
-31,-125,25,-2464,-402,-1273
-12,97,-12,-569,685,-864
-45,127,-12,-503,490,-691
-87,96,-16,694,0,-766
-72,89,-17,1621,-177,-540
-50,106,11,1399,-199,-362
-17,113,26,586,184,-337
-7,97,4,365,584,-212
-28,66,-29,734,439,-220
-46,71,-17,663,-143,-118
-25,82,-5,393,-134,-40
-5,86,0,295,37,-176
-19,83,6,407,-10,-219
-35,71,-4,622,1,-14
-17,91,-2,149,21,175
9,97,-19,-31,347,-37
-10,88,-29,83,121,-263
-15,95,-27,-138,-7,-141
-6,-120,-20,-687,6,81
-41,110,-33,-30,51,-786
-29,105,-15,471,-224,-939
-29,100,-8,487,-231,-627
-19,-119,5,-254,-18,86
-11,-87,-15,-867,303,270
-24,-91,-28,-360,286,-96
-121,72,-41,-2202,2534,-7249
-17,-11,-94,4579,-4143,-3692
-63,97,73,5204,-2631,-4672
-95,11,-96,10700,-5281,-5607
-3,-88,40,8833,-6395,-3218
-128,-90,-31,4727,-3450,-1805
74,-34,-107,3650,-1273,-3883
7,86,-103,3628,1257,-9250
-100,102,-20,-210,3621,-4180
-16,103,83,-7769,-1929,3916
58,-47,-19,3309,-2498,3468
-49,-89,53,-9727,-240,4878
105,53,-66,-6873,689,3065
51,69,76,-6864,1105,4388
38,33,-114,-6790,2303,5149
27,61,112,-5405,1013,6091
2,101,-5,-3585,-792,6846
-47,-111,-24,2758,-379,3803
32,71,-27,3950,-958,1646
-81,65,38,3002,34,1273
104,-61,-98,3505,2769,-398
24,114,-119,2223,2137,-113
-59,16,-72,1096,1609,470
-62,-62,25,-319,-351,-360
-121,125,70,-164,-1532,-1681
12,126,68,412,-456,-915
15,-85,66,-38,8,8
-33,-83,73,-341,18,-278
-15,-75,73,-83,-79,-164
-7,-68,98,406,-62,75
28,119,41,1932,1032,-630
17,-114,50,1654,851,-665
10,-85,72,731,386,-177
12,-81,75,34,-2,-58
19,-85,63,-53,-11,-21
23,-67,50,-168,62,-67
22,-58,43,-432,-56,-128
20,-46,42,-471,-102,-103
20,-45,38,-178,-5,-166
18,-34,32,-2,5,-180
21,-15,22,10,44,-140
15,-13,12,213,61,-169
8,4,1,189,-3,-137
8,11,-2,234,-4,-138
16,20,-3,186,25,-198
22,32,-5,3,94,-215
19,31,-12,50,84,-188
12,35,-17,101,47,-217
15,48,-14,121,42,-217
19,53,-15,167,100,-243
-19,-101,34,-1831,-1103,-6465
-68,15,98,1763,-4735,-2193
-125,-26,44,4233,-6279,-2269
-115,-115,85,12961,-9298,-794
54,-55,56,1899,-7047,1747
-64,-10,69,-1838,-4546,-739
43,-117,86,1780,-553,-5040
101,126,36,5014,1386,-11257
-60,42,38,1798,2343,-6800
33,26,48,-11992,3740,4590
-16,-97,-16,8179,-5956,1788
17,-103,-115,-5411,-1503,4555
-22,-115,-112,-7200,418,4344
-93,-102,72,-5060,2453,3754
-13,-92,-9,-4394,3735,3875
40,-106,16,-1131,3888,4171
4,111,-127,-1349,4374,3331
-33,99,-59,-4905,1783,4204
87,-49,-100,-4399,410,3994
4,10,-103,416,742,2017
-119,83,-73,5614,985,552
10,-76,-90,2129,505,-1476
-87,-91,-66,-905,269,-1139
-76,-24,6,253,-568,-736
-19,-89,-3,1378,-10,-61
-13,-128,-2,851,358,73
-50,110,24,117,34,-410
-35,89,34,728,62,-283
1,99,37,1081,519,-8
0,-100,51,521,225,554
17,-80,39,-299,318,705
2,97,-19,-23,630,-288
-10,76,-24,312,194,-612
-14,111,15,-253,-552,-300
32,109,20,58,-221,-360
17,113,34,206,115,-160
-12,-125,18,-448,321,-233
6,-121,-2,-110,79,-238
13,-80,21,-97,31,-477
17,-104,30,716,-4,28
31,123,33,1268,260,290
49,89,0,1116,723,79
32,74,-8,621,539,-242
25,71,5,502,-15,-55
54,95,25,64,-99,58
55,96,22,400,169,29
45,114,25,279,216,-224
70,108,8,151,379,-491
26,99,5,-254,-52,-556
40,82,5,-125,-178,-379
25,-115,-84,8959,-2455,-3379
-28,46,70,19343,-8840,-1542
92,-127,-18,1688,-7827,-361
-95,114,80,-2170,-4872,-2874
-53,12,-33,5367,-3638,-5506
-114,34,-105,6585,-1835,-8041
57,21,-4,4181,1789,-5065
-124,-43,45,-10985,2939,4003
60,10,12,-3736,-3149,2779
-69,-117,-63,-456,-2479,3068
6,16,15,-8348,1520,4093
53,63,-97,-9666,3112,5585
45,107,-24,-9085,3269,6416
-32,23,-42,-2581,2068,6093
31,-53,-35,-2775,-521,5697
-59,3,99,-1855,-1988,2592
50,67,65,519,-53,2530
-74,-61,34,3821,872,1876
-100,-32,-24,2597,1684,1185
60,54,107,2842,2019,-56
-68,0,-11,457,-831,-317
-43,-70,4,-1070,-1174,-1409
11,-121,-25,-450,-24,-1322
0,111,-32,-164,275,-1268
-28,115,-6,234,-104,-1124
-31,-97,42,107,-321,-267
-22,-53,65,-562,-151,255
-5,-57,35,311,398,121
-7,-70,-7,1032,502,-233
-11,-62,-21,647,336,-222
-7,-60,-22,212,96,-120
-3,-71,-17,147,-82,-87
-3,-66,-3,12,18,-292
-1,-53,12,-98,113,-149
3,-61,3,42,170,-262
9,-64,-5,48,104,-213
7,-66,-8,75,39,-170
1,-53,-4,37,-5,-116
0,-43,3,62,7,-162
12,-41,1,99,92,-245
10,-40,-5,66,74,-220
10,-42,-6,116,65,-179
5,-36,-5,79,67,-169
12,-30,-5,35,65,-172
14,-27,-1,56,59,-196
13,-31,0,143,87,-223
6,-27,-2,112,83,-183
10,-25,-7,88,54,-219
14,-16,-6,-68,24,-148
15,-20,-1,40,46,-204
-16,48,116,2267,-1812,-4749
12,102,92,6783,-4918,-3870
78,30,-18,7703,-7650,-5162
100,42,104,12221,-9765,-2393
59,122,-32,605,-3967,13
-28,-125,-51,574,-736,-5733
38,-34,-32,5246,-1150,-7527
-65,-86,-48,-554,3062,-4324
-37,-91,-101,-6771,1931,2871
40,-37,-101,3283,-4616,1345
-111,-11,72,-6284,-1744,4783
90,-30,-105,-6615,-654,3813
27,71,-96,-6250,970,3053
88,-38,-99,-5377,2058,3941
58,114,38,-6541,2676,5283
-32,-8,-31,-5090,25,5801
-74,66,13,-8275,-1274,7571
67,77,18,3567,-764,1189
-3,111,-62,7598,-1001,652
-37,-2,-106,-947,324,1722
-19,-121,67,-2879,1220,2388
-8,-33,-27,-235,781,1187
-18,-79,24,1950,-473,-225
-6,103,58,2940,-176,-519
-18,-114,61,369,373,-375
-37,28,58,1387,-9,-109
-33,14,63,538,15,-111
-28,6,53,255,134,-119
-22,-11,42,313,101,-118
-25,0,34,256,101,-1
-30,15,40,177,-19,-45
-18,25,40,142,19,-180
-14,22,40,250,111,-339
-16,26,36,159,142,-309
-15,25,22,84,98,-193
-17,28,19,174,41,-170
-11,38,17,146,35,-136
-9,52,14,102,53,-147
-9,61,14,42,39,-149
-7,64,10,74,83,-223
-5,69,9,81,68,-229
-5,71,7,152,90,-184
-7,79,4,144,94,-195
-4,89,1,105,41,-197
0,94,0,126,69,-228
1,100,0,114,77,-227
0,103,-3,155,49,-215
2,108,-4,147,72,-186
0,117,-6,93,63,-202
2,120,-7,104,48,-209
-69,44,75,6692,-1681,-3127
126,-102,110,8194,-6613,-3594
-36,-78,107,6982,-8430,-2952
-103,37,15,6286,-8415,-647
44,93,20,-222,-3751,-2289
-52,-63,36,2320,-1637,-4413
48,-19,-72,3972,1487,-11424
55,-83,29,5429,2083,-7004
7,5,-98,-10358,1746,7587
115,-56,43,2992,-3682,3056
111,54,-116,-6561,1140,5488
-62,54,56,-6381,2217,4869
123,-68,9,-4875,2680,4499
-8,-11,27,-4705,4050,4299
99,-58,11,-3931,3660,4249
-19,-63,2,-3969,2056,4833
112,-2,45,-3500,731,3707
-94,39,112,1431,-184,1633
41,72,-63,2792,-80,1352
-34,97,2,-918,413,721
-51,-102,-26,960,1179,-199
-33,8,-46,2449,1124,-512
-1,-80,-46,3908,1235,-881
-4,-111,29,2955,652,-965
9,-22,-123,16,-393,-455
30,3,-110,-516,-685,244
63,-36,93,210,505,-417
45,-79,65,325,744,-975
42,-87,76,149,182,-300
36,-102,78,406,-174,-339
44,-86,84,135,45,-216
59,-57,76,-62,161,67
39,-48,64,132,34,62
49,-31,56,103,106,-63
50,-10,49,-10,58,-219
45,-10,46,-24,88,-315
46,-11,40,-84,70,-267
48,-15,28,9,15,-189
48,-2,29,12,3,-105
47,10,26,95,47,-134
51,32,22,90,93,-147
47,39,12,47,155,-201
35,38,3,72,79,-244
45,42,-1,-26,31,-179
49,52,0,-94,-15,-113
45,67,5,-3,21,-149
44,70,1,162,108,-245
40,72,-7,132,100,-215
42,75,-18,117,22,-110
39,86,-18,72,-4,-129
96,64,60,-1623,-3839,-4914
79,55,-2,-1428,-3260,-3947
95,41,-10,1333,-6506,-3696
112,-70,28,10440,-8847,-4462
125,-98,58,4538,-5827,-1832
26,125,-50,-163,292,-4158
104,95,2,1893,1614,-6326
63,-59,-81,4509,3827,-10187
-28,66,62,1921,2602,-3543
-10,58,66,-4427,-1859,2629
52,-61,48,-748,-3560,3670
114,-42,63,-3601,-1531,3058
88,-3,-66,-5425,1972,4209
-108,81,-88,-9909,3044,5965
64,-57,49,-9317,3030,6112
126,-99,20,-4899,203,5907
-106,-105,-25,-1713,-31,3782
81,93,51,2456,470,2416
1,-52,33,1803,379,1544
-13,111,23,91,418,1327
30,-122,-20,2551,754,569
48,52,-37,3173,679,356
62,-15,-57,2295,1055,-216
22,-102,-35,1216,1187,-3695
102,85,-35,3184,1318,-2363
11,11,-87,303,-766,837
60,-60,64,-1174,852,107
64,66,-2,677,577,58
83,91,53,342,-413,822
78,118,66,-648,-664,404
8,-122,57,-961,-156,-192
16,117,54,-177,112,-239
87,103,38,423,261,119
78,-122,41,-266,-168,-26
44,-118,48,-168,-381,-111
26,110,33,571,-82,-89
24,125,28,205,335,-289
45,-126,4,96,252,-22
63,-105,1,-135,-51,-67
43,-104,9,75,-73,-169
12,-102,13,78,62,-337
2,-108,9,-20,-3,-292
28,-115,7,-7,11,-45
46,-99,10,-29,-7,132
37,-90,11,135,-24,-24
42,-92,7,301,108,-193
32,-106,-4,395,113,-260
32,-113,-10,472,77,-98
33,-97,-13,156,69,-43
35,-93,-14,-22,112,-74
58,-46,-56,4133,-7285,-863
36,76,59,5325,-8394,-351
-128,-7,127,818,-6560,-22
-92,25,-109,1005,-3788,-4842
-95,-16,-58,350,-1301,-5187
102,74,12,6449,-44,-9251
4,-90,125,954,4515,-5672
81,-46,-83,-9898,1390,4518
115,123,117,3106,-3535,1828
38,-101,-126,-8445,-104,3894
-26,-6,78,-6794,-1137,2832
100,87,96,-3832,-319,2809
7,-9,-105,-5008,1911,4108
-67,16,10,-6053,2334,4717
-9,-88,-52,-5345,-128,6576
-89,-36,-9,-5944,-758,4918
-90,-113,91,1429,-36,1698
94,-8,-128,5668,823,1275
37,17,77,3504,763,803
-50,-42,-62,1036,68,478
-19,111,104,126,1125,654
-8,-93,-12,1526,1321,503
5,33,-7,1883,360,664
-16,43,64,87,-792,-660
7,81,66,-1092,-591,-244
-2,93,67,-892,-495,268
-8,99,63,-364,-63,-249
1,105,45,-83,298,-267
4,109,25,32,217,-184
-6,97,13,389,-87,-69
-2,-100,36,-445,-101,-53
-12,-92,39,-278,-18,-185
-2,-96,28,-139,179,-299
0,-106,11,42,62,-313
0,-96,20,78,-13,-155
3,-82,26,156,84,-199
4,-78,25,189,128,-233
-5,-69,21,127,103,-187
-7,-67,16,144,122,-283
1,-71,8,45,53,-216
10,-66,7,-92,-15,-37
5,-54,18,-40,14,-165
10,-54,24,139,65,-273
0,-57,22,176,122,-260
5,-58,11,105,95,-142
7,-49,5,74,3,-76
12,-38,9,-18,8,-135
11,-39,13,73,45,-221
11,-39,17,76,100,-244
9,-43,11,90,83,-202
94,-79,73,-3599,-1880,-3174
-58,102,-12,-1070,-3114,-3245
46,-117,34,5880,-5038,-6323
21,49,8,11265,-10581,-7005
-63,99,-86,3037,-3576,-7007
-16,86,-85,3226,-377,-8406
115,-74,7,8115,-2883,-10626
-66,-69,-102,-3227,3707,1397
-7,-121,-52,-7800,-2149,5400
59,57,-127,-3778,-2105,4325
-65,-98,-99,-8483,500,4413
7,44,123,-6724,1778,3894
15,-19,9,-4471,1784,4008
38,117,-34,-3594,-510,6093
41,5,14,-2594,1372,2949
-1,96,61,260,-475,2634
55,77,58,-2077,1343,1821
107,-87,-25,398,-200,2093
-70,-116,28,1951,-1487,972
-16,-23,24,821,-1628,156
-44,125,-14,1516,827,155
-66,81,-25,-280,1446,-484
-54,117,-74,2090,1119,-1103
-64,-123,-56,1738,426,-807
-50,-109,9,733,-239,254
28,-107,2,-190,335,1223
9,-66,-23,-1891,339,1358
-34,-121,-43,-979,-177,724
-31,94,-17,1055,-177,258
-31,120,17,869,78,-210
7,96,-12,578,485,-586
30,65,-16,703,236,-244
-13,80,8,350,-200,-54
-9,119,24,-490,-46,-209
-24,-125,29,-575,154,-433
-4,96,18,258,239,-557
53,86,-10,648,693,-261
53,77,-34,811,492,-141
5,-121,9,-132,80,94
3,122,0,-95,227,-88
50,103,-13,432,130,-94
49,127,-17,184,50,-11
-10,-95,-8,-812,-215,-77
0,-19,18,-2281,-23,-99
72,-44,-10,-1041,629,-516
31,-80,2,1137,-406,-100
35,-66,10,887,-271,-113
16,-45,24,19,-348,122
-10,-66,19,-141,-407,323
2,-102,3,216,-153,29
-23,71,115,5266,-3069,-2725
109,-42,-36,12038,-9277,-2585
-111,-42,-68,16980,-11411,-203
56,87,-97,-1301,-3222,4431
-78,-38,52,-925,-3595,-919
-87,29,-62,3427,-382,-8617
98,-74,105,3193,381,-6943
8,-1,-4,-2556,2451,-758
-42,43,-112,-5116,875,3382
33,82,-4,-529,-1898,3449
-120,63,-81,-6857,1264,4155
58,114,-60,-7762,1170,4119
102,21,-30,-7899,1696,4403
57,49,43,-9135,2942,5083
65,-108,76,-6038,2699,5736
58,-70,64,-212,864,6956
-10,-8,-2,10,-1742,7344
64,96,-93,1157,-2079,2315
-98,-20,-90,7271,2940,-291
80,6,29,4483,3044,-720
-82,7,122,138,396,-110
118,111,-96,-804,-1062,50
-87,62,-61,-739,-863,-805
-39,-1,-38,98,-423,-1998
-41,2,1,807,-411,-2094
-81,49,65,84,-317,-968
-86,99,-124,-595,-519,999
-57,40,-114,2098,-203,1239
-72,37,6,1410,1172,74
-58,64,-19,-689,1135,204
-50,54,-34,-627,379,430
-49,-5,-51,898,38,6
-31,31,-13,1056,-158,-209
-47,33,-8,590,-138,-634
-38,1,4,565,79,-893
-27,4,2,190,47,-492
-30,11,1,-124,-48,-115
-33,6,0,137,45,-132
-27,18,-6,217,165,-144
-22,43,-12,-167,30,-45
-24,52,-11,-79,-40,-15
-25,43,-16,451,139,-300
-24,74,-13,-49,32,-175
-21,72,-25,-33,69,-199
-22,66,-31,306,45,-175
-23,89,-28,-5,54,-162
-21,91,-29,108,67,-247
-15,93,-31,97,41,-263
-12,98,-33,81,51,-202
-14,109,-35,20,58,-183
48,-3,29,-2253,2341,-3813
24,-30,-17,274,-3593,-2818
-73,9,39,-1438,-3468,-4403
60,103,114,6990,-6353,-5234
103,-43,109,10450,-9765,-2252
34,-75,-127,2809,-6584,-2107
72,31,-114,-1542,-2621,-3873
41,59,-4,3845,-157,-7758
-113,60,61,3322,-46,-8903
-33,114,100,635,2059,-2057
-89,58,-34,-3079,1476,2426
-74,-95,37,899,-1630,1904
-70,-85,85,-3882,-459,3744
-77,44,-59,-6987,111,5046
-17,-53,96,-9162,756,4964
43,67,86,-8093,535,4095
-55,39,88,-5761,-581,4707
17,-51,-43,-216,-486,4242
-125,-24,106,2077,164,4568
-38,89,-108,305,1713,3544
22,-52,65,2310,-64,2906
-88,-41,12,3536,731,1253
49,-17,-56,1734,2152,1466
-38,-61,-84,1414,1599,1806
71,23,-31,1503,-65,102
-128,-101,12,1624,-206,-1068
-68,56,44,1457,114,-715
-63,42,55,763,102,-590
-54,13,63,773,94,-201
-51,-19,61,930,152,64
-48,-21,53,909,265,178
-58,-18,68,322,30,-105
-49,-10,57,-49,30,5
-53,-12,51,22,40,48
-42,-15,36,378,111,-85
-49,-5,46,298,24,-131
-40,-6,41,275,137,-213
-40,1,34,143,96,-295
-36,-2,30,187,50,-274
-26,7,26,118,167,-252
-26,12,25,52,93,-217
-16,17,19,45,129,-245
-17,30,17,13,125,-228
-27,41,14,-67,83,-246
-23,42,6,38,29,-300
-10,48,3,108,60,-202
-23,58,8,108,77,-192
-15,74,4,68,182,-153
-21,85,-9,12,49,-194
-13,93,-10,38,27,-215
-88,-29,68,2983,-1465,-3820
97,-47,84,13320,-5299,-5362
65,-65,112,12220,-11292,-2083
-77,32,12,2702,-8700,-884
87,-77,7,731,-2449,-4239
-43,31,81,2483,754,-9079
-29,39,42,6445,1471,-9623
15,93,-55,-12178,6478,504
8,-94,1,4250,-4016,1030
-98,67,-64,-2373,-1585,3410
3,-60,-70,-4192,-1455,3825
75,85,48,-7340,-786,3815
103,-110,-24,-7067,656,3380
-28,46,-73,-5380,2020,4149
-44,-24,30,-4715,3515,4163
20,86,-122,-3444,1830,4824
118,-70,-125,-3143,-148,6337
14,93,-47,607,-303,2758
-49,-86,-2,2302,706,2077
-50,122,-78,1226,1210,1931
-47,-114,-97,3443,886,994
56,39,-83,4208,1059,1204
-18,56,-4,2283,794,865
-128,-96,60,1767,-114,-1042
-83,94,100,1847,-734,-1718
3,97,119,931,-75,-921
-1,118,125,-470,142,-262
-31,100,104,-788,-31,-317
-32,77,83,110,-136,-21
-36,107,97,411,-136,-152
-32,-124,99,118,-15,-414
-14,-113,83,-323,217,-209
-20,-109,53,-360,191,-32
-35,-114,30,249,81,-203
-42,-103,27,443,-17,-352
-26,-76,33,-63,-2,-173
-12,-66,18,-317,105,58
-19,-40,10,-540,46,231
-24,-18,1,-247,5,6
-19,-7,0,-39,24,-329
8,9,0,-228,104,-298
-6,40,3,-616,101,12
-39,34,0,-129,234,-220
-34,43,-12,111,349,-321
-25,50,-29,47,237,-175
-17,61,-35,-11,111,-96
-6,55,-45,328,116,-298
0,60,-43,314,25,-209
-1,68,-35,123,-92,-67
4,60,-17,185,-93,154
-98,-109,20,-3263,-3809,-3301
109,-104,70,-2704,-2613,-4107
24,-67,124,2034,-4702,-3656
-3,83,-9,10730,-5986,-4744
-60,-10,-53,10451,-7244,-3819
111,-76,-124,-1366,-3494,-3416
27,-89,-49,3436,-936,-8089
-35,-123,24,9278,75,-13244
63,45,17,260,1496,-3051
20,44,-40,-9608,492,4966
117,-44,120,2597,-2283,3175
-117,59,-125,-7606,-40,5415
-120,-103,-23,-7254,1775,4757
80,-74,-9,-10209,2659,4823
-38,57,-126,-7489,3386,4327
-43,87,16,-869,1282,3810
-86,-55,103,-1359,2824,2380
79,-107,64,1017,1922,2492
84,-40,-102,271,906,2048
-43,85,-57,866,171,2411
-108,84,-80,167,995,3548
77,37,99,-21,1433,2201
-70,-71,-79,796,-602,-258
-99,84,-41,2005,-1488,-2243
-38,69,-47,1841,-620,-2035
-2,90,-37,315,580,-720
-27,73,-46,-248,483,-211
-54,44,-49,103,-20,-111
-44,46,-59,467,-173,-324
-41,72,-46,-18,-207,-449
-37,70,-44,-152,-175,-424
-54,73,-39,-102,-170,-192
-44,92,-38,-334,4,-28
-18,112,-53,-390,159,56
-28,-128,-55,-244,-6,42
-26,-118,-56,33,0,-195
-33,-111,-48,236,-53,-385
-43,-106,-42,175,53,-275
-40,-108,-47,193,181,-210
-33,-118,-61,490,192,-223
-35,-106,-64,263,81,-160
-31,-106,-65,115,96,-21
0,-95,-64,139,247,-11
-16,-88,-72,119,68,-367
-23,-99,-72,208,-90,-514
-27,-109,-66,364,-1,-442
-48,-111,-69,217,32,-352
-20,-97,-74,-173,-61,-26
10,-89,-76,-146,-66,96
-8,-53,-54,-322,-203,88
-109,-20,-20,-819,-2255,-8176
-93,105,47,297,-4205,-7545
71,31,105,6462,-7100,-4310
-71,-48,84,9665,-7655,-4280
97,-72,8,6493,-4945,-2246
-37,-82,-63,577,2752,-382
-107,74,7,7327,2602,-6972
49,77,45,7551,762,-8054
50,-19,-121,-3671,2998,528
-88,-120,-51,-5333,-3725,905
-30,-42,-77,-610,-3443,3729
73,77,111,-8862,-423,3709
-13,11,115,-5100,898,3370
116,-71,25,-7879,2806,3788
73,-95,-84,-6490,3087,5141
-91,-91,109,-4616,2622,6242
85,15,123,-1515,-671,3629
-59,91,-71,3030,1130,4137
79,35,103,3381,2021,2506
118,57,88,3900,1719,2258
1,-39,107,2651,586,1789
100,-111,-35,231,-1035,552
-92,-14,14,-698,-780,-1352
-55,-66,-19,281,324,-1922
-48,-79,-9,740,524,-1259
-58,-53,0,527,31,-144
-72,-38,10,68,-238,122
-49,-37,0,7,-20,-32
-30,-26,-8,-1,245,-140
-33,-10,-2,-39,58,-83
-45,-16,-9,334,-49,-249
-36,-4,-10,271,124,-248
-36,1,-19,142,160,-156
-41,17,-27,-99,39,-77
-37,26,-35,-218,30,-186
-30,37,-40,-293,-41,-191
-32,58,-46,-465,-64,-142
-38,75,-38,-381,-40,-161
-37,66,-47,258,172,-386
-35,81,-49,98,71,-198
-29,89,-58,50,13,-123
-26,99,-55,150,73,-178
-27,110,-55,68,88,-198
-24,115,-59,96,79,-132
-24,121,-60,53,81,-145
-28,-126,-58,48,79,-120
-20,-117,-61,24,78,-234
-15,-113,-62,-35,54,-250
-12,-112,-60,4,9,-242
-19,-108,-54,71,38,-235
77,115,117,-7719,-2496,-1543
79,-21,-64,3438,-4304,-5352
9,61,-62,9478,-6103,-7356
22,125,15,10521,-7960,-4716
-15,-61,1,869,-1638,-5350
59,40,20,1444,1700,-7447
-45,-68,-56,7789,2558,-10644
-114,115,75,-1286,3173,-2307
-17,93,7,-9564,-2300,5211
55,85,6,1171,-4693,2428
81,53,-36,-7354,-2271,5763
-25,12,-65,-8856,-181,4735
-13,-99,-116,-7454,144,4246
-30,112,-64,-5457,-501,5442
-113,-119,-22,998,2595,4499
-125,-108,-11,475,499,5947
-28,27,78,-1410,385,3753
-128,33,32,-283,-606,2034
-89,95,22,1984,-299,1346
28,18,-37,1963,942,2985
-6,-8,-60,957,1188,1783
-31,52,-102,3175,623,380
-57,123,-32,3428,-913,-1894
-40,82,-3,2163,-804,-1750
-12,23,40,1468,-193,-660
-22,23,47,-66,334,-142
-41,14,34,-653,43,118
-33,-9,4,83,-42,227
-37,-12,0,703,70,-76
-39,-6,3,733,186,-176
-23,14,-2,247,363,44
-9,29,-19,-289,458,65
-14,14,-34,119,250,-157
-27,8,-26,587,-13,-368
-23,23,-25,268,61,-357
-7,20,-28,42,57,-290
-25,-9,-29,403,-14,-203
-32,3,-10,412,-123,94
2,13,-15,254,286,-76
29,19,-34,243,264,-70
20,29,-39,278,-32,145
-5,44,-25,119,-62,-34
-1,50,-21,9,127,-308
-8,53,-26,-61,-7,-335
-20,51,-25,-25,-60,-281
-4,54,-31,22,150,-367
1,55,-42,18,80,-392
4,52,-45,34,35,-229
-3,77,-39,-28,102,146
3,101,-48,-163,142,-55
41,29,-109,-2940,-265,-4861
-54,43,17,1562,-2135,-4103
44,24,-55,5345,-5015,-1675
76,56,30,8021,-7573,-3789
90,109,-8,12571,-10035,-845
-4,-30,-38,-472,-4545,-945
42,66,125,-968,-559,-4007
1,82,95,2393,1963,-10094
88,-35,46,2982,983,-8672
60,-88,-18,-11589,3921,5685
-5,13,-103,5821,-4682,736
-65,69,-112,-4636,-1078,4215
55,-57,46,-6747,-907,5109
-42,49,42,-5901,535,3050
31,50,64,-5736,1103,3702
22,-51,-82,-5101,1834,4000
8,-42,83,-2142,1234,4828
-2,40,83,-2599,109,8786
-24,-44,-87,-6982,930,7932
-13,-65,29,4520,-430,1311
-61,-90,46,5824,-430,861
47,111,-70,4576,717,-478
7,54,117,3043,1966,538
-68,-50,125,1304,1087,312
-104,50,-50,563,-878,-543
-112,10,-11,544,-1455,-1249
-61,-15,8,746,-420,-932
-51,-26,0,582,285,-558
-93,-2,15,-113,-147,-148
-108,-7,14,-130,-268,-241
-99,-15,12,204,-20,-595
-47,-30,1,391,262,-655
-41,-14,-6,318,360,70
-69,10,-20,161,264,302
-82,26,-23,111,169,-26
-56,29,-21,209,217,-143
-38,37,-20,213,334,-140
-26,42,-28,227,387,-300
-52,39,-35,335,207,-340
-39,39,-32,271,276,-310
2,60,-43,-271,388,3
10,77,-69,-496,155,69
-23,62,-68,228,-246,-375
-54,55,-51,595,-289,-645
-9,71,-42,30,-79,-346
7,91,-55,-333,-291,-64
-35,96,-33,-110,-477,-226
-24,99,-27,215,28,-340
-40,125,-22,-201,4,-125
-24,-123,-35,-119,180,-144
3,110,-30,-7994,2709,-1373
64,68,-52,-4172,-836,-4051
-62,67,109,1148,-3011,-2834
17,-60,124,6331,-5053,-3741
-21,54,-39,8555,-6874,-3851
101,34,-119,10100,-7213,-3718
-60,-126,112,-1040,-547,-7430
32,-98,-21,7482,1273,-9013
118,69,-49,8903,1696,-8152
-34,-122,-106,-10097,4868,1330
93,-25,-28,1943,-4767,2201
71,51,-59,-1929,-3142,2626
7,-36,0,-4997,-1367,3925
116,96,-75,-7705,179,3400
14,41,99,-8013,-341,2423
8,-1,-11,-10176,-521,4695
-37,78,-103,-6185,-1034,3528
-123,-89,-16,1214,-2175,3752
-81,114,54,1291,-44,2030
-39,4,56,-496,808,2764
105,14,-128,2197,1424,2357
-100,-64,43,2108,1140,3139
-126,107,10,1256,-64,3887
-45,97,-25,2545,-1190,4097
22,-100,-5,3366,-638,1137
-90,32,-7,2866,-640,-1632
-76,35,6,1230,88,-2037
-6,18,9,564,570,-1087
-19,-15,13,215,-24,-587
-40,-31,20,242,-315,-507
-32,-20,13,3,-68,-287
-27,-13,9,-278,183,-200
-32,-2,-6,-157,102,38
-28,5,-14,284,97,-76
-24,16,-14,335,127,-142
-21,32,-14,220,158,-132
-23,31,-19,275,134,-81
-15,37,-22,303,136,-126
-16,48,-20,198,34,-214
-13,47,-22,191,102,-306
-8,55,-23,25,62,-239
-8,59,-26,2,82,-165
-11,71,-32,-58,77,-201
-6,69,-38,178,49,-191
-10,80,-38,87,-12,-287
-6,92,-30,6,5,-276
-6,96,-30,-59,22,-303
1,99,-32,43,77,-264
-2,109,-34,-40,65,-186
-3,116,-34,34,93,-198
40,-47,27,5009,-2897,-1703
96,110,120,2283,-5636,-2598
-64,-70,5,8217,-8754,-3434
119,3,-15,6188,-7161,-1223
-56,-46,8,384,-4213,-293
-15,-89,77,2498,-1236,-2833
27,-92,105,2451,2978,-10734
-88,-24,66,9302,571,-11843
-9,112,26,-12682,3926,4091
-45,-9,-88,5097,-5976,3613
-47,83,-100,-3401,-1141,3838
-100,79,-98,-6451,-319,3959
84,-85,-52,-8392,603,3367
-116,75,21,-7742,145,3763
-92,123,-108,-7028,1090,4777
-101,-31,-42,-1420,-13,4541
-109,-27,39,1484,735,5751
9,-66,93,-3425,768,4588
-43,-52,6,1065,1546,2192
65,-90,-34,4851,1121,1365
30,-59,-70,1614,1439,472
-32,50,-31,1535,767,407
-36,-67,-4,1836,446,-2111
45,99,31,1879,1030,-1952
78,123,43,711,1377,-539
61,70,80,1708,248,-245
56,113,121,56,-334,98
57,124,-124,-1358,-489,-299
50,89,93,-660,-340,69
51,96,88,25,153,-62
60,81,80,820,466,-523
67,89,90,714,435,-356
73,105,84,396,179,-17
57,119,85,-63,-95,-116
75,103,78,230,47,-37
75,105,73,360,169,-281
34,94,71,435,187,-194
76,99,61,369,84,-112
81,119,61,66,11,-195
56,112,69,325,-49,-73
61,-124,70,34,63,-382
75,111,58,155,0,-169
64,118,61,-192,-122,142
54,127,45,-254,-36,-108
50,117,39,155,-71,-133
57,-115,43,-46,-22,-221
51,-120,41,-11,39,-144
44,-120,29,140,125,-272
45,-118,23,154,48,-213
49,-106,20,-7,48,-286
108,-29,54,-6584,-2672,-1511
-73,-39,109,-22,-2446,-2930
-63,113,13,538,-2899,-2541
-122,107,-4,3608,-4258,-2813
92,91,-13,11630,-8164,-3313
-116,-53,8,3394,-6447,-1814
-56,5,124,-1342,-1829,-5340
84,77,40,2624,-777,-6470
-75,78,56,6610,706,-11363
-120,-113,-86,6313,-767,-4314
-77,-87,-13,-12662,1200,6716
-72,4,-63,163,-4515,5091
106,24,-6,-5525,-150,3746
65,-90,90,-5630,1907,3640
98,21,-86,-8023,1662,4158
72,125,15,-6367,1099,4480
-30,78,-42,-2580,1086,4886
-108,-127,48,-1825,-10,4975
73,-64,-25,-485,1072,4428
-6,41,86,3111,227,3423
124,2,-81,1880,2243,3657
34,35,-88,417,-223,776
47,1,-66,-178,-1394,1751
-10,-61,-67,697,169,947
-68,76,-59,1327,413,-1643
-50,21,1,993,-81,-1868
-37,7,23,697,-138,-883
-38,25,21,-118,-39,-807
-38,0,16,211,-163,-553
-30,14,-1,277,115,-228
-30,28,-10,114,159,-32
-35,19,-33,483,41,-11
-10,35,-35,553,56,148
-8,31,-55,754,136,-106
-31,38,-50,342,-85,-580
-14,22,-38,374,-290,-421
-9,39,-15,33,-212,-21
-15,60,-14,-478,34,69
-17,74,-33,-527,231,-37
0,71,-55,-179,263,-308
-16,79,-57,-66,-67,-417
-37,92,-43,-11,-210,-315
-35,111,-38,-274,49,-170
-36,107,-47,145,160,-205
-27,104,-61,557,189,-290
-18,106,-70,563,161,-363
-15,103,-69,434,3,-248
-11,113,-56,187,-113,-247
-20,100,-50,789,57,-1131
18,-111,-60,439,366,-348
-8,-33,82,5086,-5431,-1735
80,83,6,8993,-10387,-561
-119,80,46,2018,-7949,2401
120,-22,30,104,-5906,-347
-73,-34,28,1627,-1511,-4516
107,-20,87,339,1090,-8050
-115,-114,-6,5927,1019,-10278
-64,3,-123,-4998,3147,2501
-26,-47,21,-5826,-1496,5374
-55,73,57,-1338,-1784,3868
53,81,-111,-6945,796,2918
-62,-112,37,-7103,1260,3356
-57,124,-126,-8158,1476,3033
-12,0,-5,-7096,1254,4000
-83,-20,-13,-3030,369,4476
107,27,64,-2247,-166,4574
31,-61,107,2139,327,2266
-27,-20,22,1797,848,2840
-64,64,17,1542,-155,1402
-2,-73,-23,830,223,2002
41,12,-51,2065,511,1124
10,-11,-29,2538,511,-61
-22,-67,-26,1412,178,-1125
2,-121,13,641,221,-1176
6,92,31,231,-8,-565
8,75,13,-105,-49,6
10,63,2,135,-116,389
-7,26,4,437,-290,900
-28,35,36,-416,-333,193
-34,42,40,-412,81,-259
7,55,19,139,470,297
9,52,-11,593,486,247
5,53,-17,585,386,160
1,68,-7,50,157,-47
39,49,-16,-49,182,-396
-4,49,-11,111,-194,-154
-28,66,10,-61,-90,-395
-9,75,-3,105,287,-214
11,69,-21,222,114,-311
23,91,-23,-25,-78,-199
18,98,-19,-76,-58,-420
5,97,-14,36,-168,-439
6,102,-7,45,-20,-309
3,118,-14,9,101,-283
0,119,-26,129,30,-169
4,-123,-30,58,53,-155
10,-114,-36,109,102,-298
26,-120,-41,318,102,-356
25,-123,-36,526,69,-466
1,-114,-27,456,73,-256
-20,95,-31,2704,218,-10106
69,90,-117,6575,-6899,-3560
-43,-65,-51,9182,-8329,-3553
15,-125,75,6327,-6432,-1720
33,101,122,2073,-350,-2417
-63,15,6,1468,1903,-6301
-125,-128,80,6050,3643,-9193
86,121,-25,3467,5634,-3936
18,-124,48,-12154,-3019,1504
111,-32,-126,3551,-5250,4111
84,75,127,-4592,-3001,3312
-56,53,80,-3661,-2066,3278
-114,-100,27,-6510,-1049,4417
106,-4,117,-6315,1031,5031
-96,71,37,-2884,3094,5951
35,80,-50,-507,2557,4988
30,1,-105,215,2432,5442
-72,2,-126,-490,1555,3588
-77,48,29,2373,1680,1904
-55,5,30,4208,1000,528
67,-43,122,3319,451,-165
-44,109,-2,1212,501,-174
-6,-3,38,275,973,-192
17,-123,96,62,424,-438
-6,110,116,496,-554,-613
13,113,109,473,-344,-222
46,-121,100,-387,57,-152
70,-125,77,-553,116,179
85,-116,65,225,418,434
21,-97,53,761,331,-45
0,-81,76,319,-252,-690
23,-79,89,-65,-374,-631
16,-77,82,-222,-62,-252
24,-83,47,-107,275,-368
41,-88,15,270,273,-244
30,-65,9,35,60,49
23,-31,21,-363,-64,187
29,-26,5,-40,293,41
33,-16,-8,-15,343,-283
54,-16,-24,256,394,-398
58,10,-21,170,313,-84
51,24,-6,-417,26,-34
46,33,1,-226,-121,-89
25,33,3,35,-411,-225
31,42,-1,-32,-205,-509
41,48,-7,-183,78,-441
28,46,-21,89,-24,-160
38,76,-29,-122,-65,-42
25,92,-30,-219,-82,-112
19,96,-34,-106,-66,-245
81,112,79,10354,-4958,-2607
93,-33,-70,9568,-6053,-1985
0,-50,9,-699,-4509,-820
-81,112,-67,3229,-3351,-5026
75,-105,69,1092,-919,-7098
-80,-74,71,9041,2044,-10820
112,-12,31,-5182,3442,-226
-59,36,74,-6925,-1949,4263
-112,71,119,128,-1787,3624
-1,92,-118,-7281,-452,4617
-40,-30,55,-3974,931,4418
74,127,-26,-8480,1862,6430
42,50,-89,-5653,2850,5823
41,-50,88,-1744,4889,3745
-26,-68,14,-2908,663,3928
118,-97,121,-696,-573,2051
-118,92,103,3135,1353,1932
73,101,56,3533,1320,1222
35,80,91,1967,1364,1634
-26,-60,95,480,1505,733
2,24,-57,934,266,-1377
-10,-72,20,1360,-1134,-2232
57,-21,-10,943,-219,-727
71,2,-5,-3,154,86
12,15,15,-581,-32,429
-24,-12,-10,425,172,137
16,-23,22,715,-120,335
52,62,-1,-761,162,1070
32,63,-58,-998,249,-193
-8,-16,-43,375,-354,-1772
3,-45,-20,1657,-454,-1746
23,-1,-4,874,-141,-684
35,51,-4,-705,376,272
24,55,-31,-889,391,536
16,23,-39,115,277,69
61,43,-30,644,413,274
47,70,-28,300,380,93
23,71,-34,350,94,-248
12,59,-30,434,-64,-569
35,55,-25,283,95,-433
50,63,-30,65,307,107
63,85,-36,-143,300,217
27,96,-35,-93,64,-194
37,83,-37,370,-70,-640
47,86,-24,221,-274,-655
48,98,-8,-144,-188,-393
40,112,-13,-341,-42,-280
38,126,-16,-345,-60,-273
35,-121,-20,-89,155,-176
33,-101,-35,-93,359,-118
-121,63,79,-2703,-1381,-4795
53,-125,117,4741,-5083,-1720
104,5,-35,11997,-7752,-3163
22,-108,-14,7650,-9418,-1712
-70,-126,-116,3541,-4932,-2439
110,95,-68,1995,1048,-5905
-121,-73,49,3388,2724,-10925
-2,-55,48,5166,1422,-4194
-85,6,-104,-7586,-441,4396
25,20,21,386,-3120,3183
12,-7,12,-7584,-1019,3515
-49,71,94,-6794,744,2705
42,-125,-121,-6799,1122,3266
33,115,8,-5740,2748,3252
6,119,-51,-3992,4299,4892
124,96,-2,-2613,1083,4502
-127,116,-35,-3390,653,2299
14,96,-13,2928,1736,2393
-124,-62,-46,6018,2280,2118
-67,-71,-77,2202,2307,2097
118,4,-50,642,1016,929
-22,65,70,377,-2188,-1047
37,77,63,-669,-2483,-1298
73,93,21,-1411,-813,-462
40,66,9,-1273,88,-120
6,77,8,-542,171,320
21,106,-20,129,402,607
18,119,-34,292,198,468
6,109,-28,155,-227,-164
-8,105,-15,81,-385,-564
-7,88,-13,355,-61,-669
3,74,-26,588,240,-663
-7,87,-22,217,42,-621
16,-110,3,-97,-127,672
38,-100,-8,160,416,1031
19,-113,-33,406,411,435
1,-118,-40,-21,113,-366
11,127,-47,-154,46,-644
26,117,-52,50,29,-443
13,126,-43,66,-111,-277
22,-125,-43,41,39,-361
16,-115,-43,-79,-18,-278
12,-110,-41,-33,-115,-200
9,-99,-34,-3,-46,-225
8,-93,-30,-15,21,-120
9,-85,-31,17,93,-39
12,-75,-43,106,110,-75
15,-68,-51,94,-6,-202
24,-64,-49,30,-26,-301
10,-60,-38,-5,-13,-235
85,-87,-66,4006,-2599,-1441
-8,113,102,3910,-5278,-3025
-114,-103,109,9479,-9261,-1330
110,28,-64,4045,-7145,-402
65,71,59,1953,-4153,624
125,-86,119,2339,-256,-9217
88,-55,121,6167,2286,-5725
-115,-23,-7,-846,3775,-3686
-19,-89,83,-6203,43,1942
66,-95,100,3338,-4467,2097
-102,-17,82,-3833,-1849,2332
125,-89,19,-4079,-1801,2158
113,90,98,-5652,-1185,1632
96,-84,30,-6321,192,1770
6,7,70,-7958,682,3607
8,59,-39,-4954,809,3288
72,-67,-38,-2616,330,4057
-32,-33,-34,-1206,-677,3920
-109,-7,47,109,23,3769
74,-62,40,301,838,2566
-119,61,-13,1322,131,2165
-93,-3,-39,1498,352,1333
-104,-122,0,679,-333,284
-89,61,-11,1260,139,526
-97,-64,-12,2116,178,431
-55,-72,-5,1372,553,194
-38,-117,2,1184,547,506
-34,92,4,988,348,-119
-23,112,22,233,303,-575
-18,91,-3,317,395,-975
-3,83,6,654,398,-568
-9,40,15,1259,278,-74
-1,40,26,932,239,239
0,42,44,388,-60,563
-5,-72,20,1378,-69,85
12,-58,19,1088,119,88
8,-26,31,-134,115,107
-4,-27,13,-407,60,13
0,-33,11,-153,34,-124
5,-46,15,114,-16,-443
11,-50,12,372,33,-558
-4,-45,3,286,-439,-643
18,-30,-20,402,66,-210
-15,-6,-18,-270,95,-94
-1,-14,-37,-74,273,-239
11,-19,-51,309,162,-338
7,0,-42,317,87,-204
23,15,-34,489,269,-303
35,18,-23,1128,518,-9
39,2,33,1425,909,-237
13,-46,-95,6065,-4999,-3508
-30,119,-12,12451,-8876,-3783
77,97,-74,4110,-7063,393
92,-85,-108,-742,-1680,-1904
107,22,-124,3181,-31,-5818
23,-4,61,6050,2636,-9709
17,-126,49,1367,4832,-5193
-48,-119,-8,-6134,-1763,3731
-4,-73,-60,3560,-3747,3420
-72,-35,-122,-6461,-2525,4264
-14,3,-52,-7933,-2438,3211
-107,19,59,-6793,-1334,2617
-86,101,30,-7203,-774,3989
53,-105,-5,-6398,-358,4753
-87,-12,-77,899,1185,4986
123,111,-25,438,16,5576
-24,54,-79,-2020,669,3024
-73,20,-121,56,1685,3216
51,-102,65,1258,301,2830
-125,-106,54,181,-847,953
-66,40,61,992,-839,307
-89,-3,4,1232,427,-406
-105,-49,-15,518,670,7
105,99,-22,681,117,115
123,60,-25,829,109,435
-104,10,-26,1293,90,697
-75,-51,-14,1743,244,659
-59,-116,6,2272,305,257
-31,106,-5,1697,395,13
-37,118,3,409,2,77
-34,104,-4,-18,131,-147
-46,70,-9,26,101,-684
-40,53,-19,211,192,-549
-34,65,-23,68,127,-161
-34,80,-19,-193,-81,-135
-28,69,-18,274,34,-271
-32,78,-14,377,-17,-265
-29,91,-8,206,-44,-217
-18,97,-14,139,-6,-211
-24,95,-16,269,47,-255
-28,96,-26,348,31,-253
-21,92,-34,412,100,-207
-21,94,-39,403,29,-207
-24,98,-35,252,-20,-276
-19,99,-33,202,22,-176
-19,110,-31,23,32,-154
-19,112,-37,102,70,-275
-17,116,-38,-62,41,-261
-13,113,-39,-6,38,-174
-16,119,-41,133,40,-208
-26,-119,-123,1447,-3270,-4119
91,-87,23,3982,-6641,-4338
29,23,-63,13144,-8646,-3727
-91,-56,75,6696,-6038,-849
-70,74,-8,-1101,-1450,-1774
-103,-93,41,1073,1454,-5246
-112,-48,-52,5370,2953,-10484
84,111,-49,5111,2312,-5502
95,-72,60,-10891,-2202,4864
124,28,119,4048,-4153,5766
-39,-19,17,-10428,-2580,5809
102,92,-15,-7059,-388,3193
41,49,4,-6193,230,3977
-77,-11,116,-6687,923,5278
40,-25,100,-5008,260,7700
-127,5,69,1719,565,6153
-109,-69,-90,-364,616,3361
-52,-102,26,2706,1212,1225
82,13,-85,3015,2002,2144
93,67,-111,4174,1704,1671
101,-79,-94,4980,757,1278
30,99,-13,2718,254,-75
-9,31,50,688,-565,-685
-9,-40,84,-416,-701,-648
9,-32,65,-1067,-649,-350
10,-29,47,-1133,-697,-250
-31,14,45,-1710,-727,-347
-30,24,52,-808,-305,-181
-21,19,38,194,473,-27
-21,15,-9,647,600,88
-20,17,-35,854,253,270
-12,41,-22,568,-126,116
-11,64,-3,41,-75,-232
-20,52,3,275,47,-455
-17,51,-5,-7,226,-437
-15,40,-22,-38,73,-161
-18,47,-24,29,-58,-38
-8,69,-19,38,55,-230
-10,77,-16,43,23,-268
-6,80,-19,46,75,-219
-9,84,-26,115,29,-223
-8,90,-30,123,28,-186
-7,104,-29,69,34,-153
-2,110,-32,46,90,-243
-4,113,-32,21,35,-233
-5,113,-31,137,29,-202
0,117,-33,196,71,-254
2,123,-36,209,43,-204
-1,-123,-33,71,54,-217
1,-112,-34,-140,87,-215
-3,114,40,-4621,2270,-3511
-46,73,65,1187,-1579,-3280
86,53,65,3942,-3371,-4228
-35,82,-64,5142,-6273,-5172
-91,111,-120,4141,-6244,-5153
41,-1,-123,7717,-3067,-4249
-31,-42,37,1513,-721,-2930
-11,-119,118,5920,3819,-6768
-106,8,28,8081,5795,-9348
78,-123,-48,-7621,3245,1551
2,127,-89,553,-6070,2316
115,41,-125,-5487,-6458,3757
13,15,-102,-7698,-4250,3512
-43,71,30,-5795,-1200,3225
-69,47,53,-5867,635,4920
111,-31,-47,-5808,2501,6299
27,-48,117,-1566,2257,6795
73,-70,-128,991,308,6416
-103,-30,69,-1529,132,4702
-122,-111,-48,4189,615,3417
35,-117,83,7033,1104,1112
17,126,-89,2983,-3,246
-98,-83,31,1612,-1641,-1671
10,62,104,-769,-726,-1621
53,40,52,-1803,196,-540
10,-11,27,-914,-285,-516
21,7,38,-284,-4,-425
38,32,42,198,355,9
25,53,26,676,130,348
6,74,20,574,-96,281
11,92,3,347,357,-26
0,94,0,181,251,-337
4,87,-4,237,14,-512
-2,77,1,200,-125,-687
12,64,14,399,-310,-830
43,64,18,227,64,-234
0,122,15,-515,6,339
12,-120,-14,-430,31,28
6,-126,-18,8,-63,-320
7,112,-21,413,48,-491
18,112,-33,314,127,-314
-96,-126,-7,193,-510,-31
117,112,-65,218,697,-926
62,89,-54,540,0,-227
-91,-104,13,-83,-891,668
-23,-52,10,-1123,80,-19
39,-88,-34,-406,544,-372
0,-124,-54,1011,103,-250
-22,-119,-57,912,-106,-317
8,-84,-46,35,-238,6
-52,-53,-18,7379,-5162,-4593
66,-119,50,12830,-8848,-1953
49,57,5,3097,-5742,874
1,-124,-112,1435,-458,-2470
58,53,-61,4895,1246,-5319
41,82,-98,5644,4330,-7910
82,108,74,-4930,5238,-1259
102,64,70,-989,-5901,-102
101,63,-91,-4000,-5159,5562
59,25,-100,-6275,-3681,3069
8,20,-66,-4626,-749,2003
79,34,-104,-7235,1465,3883
23,105,118,-9098,3077,6225
91,-87,-103,-6931,-186,7560
-99,42,85,-3104,-2737,7416
86,28,-54,5029,-442,2074
116,39,31,3236,790,3174
44,89,-74,2534,1151,1797
100,-114,87,4519,1558,2507
34,-4,127,4031,596,2227
-92,-107,-4,592,-1127,-594
122,45,41,-1242,-1530,-2607
9,18,-14,-542,180,-2236
32,25,-24,-149,697,-977
-67,37,-16,-167,-59,-183
-81,50,-11,-194,-476,-114
-43,75,-15,-337,-49,-42
-28,73,-24,248,192,25
-46,83,-20,645,37,5
-37,92,-23,800,12,16
-27,105,-27,485,167,13
-25,105,-35,236,224,-227
-32,90,-48,284,118,-407
-30,87,-45,313,-65,-331
-24,91,-40,117,77,-249
-49,105,-34,-143,38,-174
-21,93,-42,34,162,-404
27,79,-63,377,271,-334
-41,83,-46,794,-260,-67
-49,103,-27,447,-136,-171
12,124,-34,-460,340,-175
0,104,-52,293,19,44
-21,125,-42,49,-13,-343
-15,-124,-40,-150,195,-435
6,101,-64,346,131,-355
7,-122,-56,-21,-30,0
-7,-109,-47,-142,-12,-159
-14,-96,-33,-153,42,-266
-16,-86,-30,-98,138,-225
-11,-91,-38,99,249,-505
-109,53,-63,-2587,-786,-5563
-72,90,114,1984,1200,-6139
-87,-126,104,9440,987,-5391
73,51,111,15398,-1852,-1699
-49,123,40,9805,-4404,1344
-32,62,36,2341,-3372,-324
-109,94,63,2870,1710,-2866
-9,-57,74,4551,1945,-6925
-21,77,1,-2990,3720,-1360
37,72,122,-3489,-6656,3501
45,78,118,-3118,-2621,5269
25,-111,101,-7207,-1446,4008
75,-37,-90,-6757,1958,3055
112,-113,15,-10011,3177,3933
59,82,120,-10624,497,4430
24,79,-84,-2526,-6599,6185
0,30,-3,2993,-321,3112
-70,58,-64,3808,221,2075
48,-2,85,720,814,1670
72,-122,-7,2551,679,3081
-25,-90,-72,4361,584,3807
63,125,-58,3401,1199,2600
-27,37,-23,648,886,195
-99,-53,0,581,-360,-1733
-46,-90,25,850,-606,-1779
-2,-65,68,-287,-593,-1137
0,-73,60,-306,-338,-530
-25,-66,74,-504,-72,-398
-6,-53,57,-503,305,-273
-13,-39,38,-256,268,-99
-20,-38,7,457,159,9
-29,-23,0,583,180,-78
-22,-3,-8,313,152,-189
-14,-4,-10,315,80,-222
-12,0,-5,316,-33,-194
-6,12,7,271,30,-212
-8,23,8,47,98,-217
-7,31,1,-103,81,-192
-7,32,-13,-102,38,-283
-8,31,-18,57,69,-305
-3,37,-24,53,-2,-210
-3,48,-24,148,-8,-144
0,65,-21,60,48,-143
-2,86,-19,-121,1,-137
-8,90,-20,-13,96,-353
-3,84,-32,59,79,-312
-12,87,-40,170,-52,-152
-6,99,-35,181,40,-292
27,104,-34,164,100,-143
0,-128,-23,64,48,-173
65,-120,14,3411,-4118,-2834
-52,35,-80,5317,-8538,-4118
29,-51,21,7225,-9843,-2023
-57,15,123,3136,-3999,-3556
-63,76,-72,645,492,-5523
22,21,51,2358,3037,-7238
-36,100,-47,7830,3005,-4436
24,26,103,-6746,2640,777
84,-33,-93,-702,-5539,1258
97,28,10,-8163,-5528,3396
-43,-98,118,-6862,-3650,3245
68,9,-19,-7787,-2021,4195
-91,67,-78,-8250,418,5643
-72,39,-73,-3270,-733,5563
-45,41,13,2644,-1174,7071
-105,-64,10,-596,271,5673
33,118,69,3695,368,5377
-78,16,-46,3976,1083,2451
-112,-24,80,3303,1103,2063
64,-111,-114,1558,725,2030
-68,-2,-59,-162,-546,-804
-67,-105,-12,-1103,-1073,-2431
0,-117,-20,-741,-79,-1444
-9,117,-19,-56,254,-630
-46,123,-14,176,-24,-436
-66,115,-7,365,-122,-349
-44,-125,-8,569,35,36
-32,-106,-9,479,45,211
-26,-89,-25,467,92,122
-39,-103,-28,483,62,-352
-35,-109,-27,223,112,-536
-25,-121,-37,312,142,-257
-34,-123,-33,359,2,-230
-33,-126,-36,432,160,-314
-24,127,-43,464,76,-229
-21,-115,-43,41,1,-194
-18,-111,-43,37,16,-235
-22,-86,-43,-360,12,-310
-18,-77,-46,-432,-15,-398
-19,-90,-42,94,-86,-400
-24,-75,-32,-108,46,-250
-27,-71,-27,86,100,-142
-20,-94,-40,882,170,-337
-12,-85,-44,731,73,-319
-7,-77,-41,118,28,-147
-13,-81,-41,159,71,-76
-15,-85,-46,264,109,-230
-10,-79,-53,107,106,-260
-14,-88,-56,238,-8,-235
-7,-92,-53,325,81,-260
21,-107,-49,-3529,1268,-5165
106,-14,61,998,-3049,-4956
-44,-11,-68,7420,-4241,-5429
4,-119,-76,9034,-7325,-4787
-61,-77,34,8456,-7591,-1705
-56,-30,120,247,-3720,-2713
16,107,-123,2022,900,-5613
69,85,-49,6442,4220,-10180
52,-122,-125,4178,85,-3614
101,-48,78,-10582,-1925,4391
57,-98,-75,1971,-4225,4183
-19,25,15,-7130,-1702,4534
39,-123,-112,-6314,1283,3351
54,-117,-61,-7513,2004,4468
-13,-127,-111,-6440,2501,4815
-66,-44,47,-1762,2207,6254
-97,-79,-128,-2443,1735,6676
119,-28,15,-577,-1441,3529
108,-116,-42,6026,295,3574
-65,-1,-5,6951,1881,1198
100,66,16,5611,1284,-836
46,66,113,1248,1232,-596
-115,4,12,-1510,-932,-435
-47,-96,15,-1330,-1176,-1297
26,126,-3,-1235,-311,-2063
18,-108,-8,-521,-227,-1102
-20,-65,6,-218,-529,76
-64,-39,6,40,-207,410
-67,-14,-7,-42,316,272
-55,9,-22,-368,510,81
57,2,-70,133,885,45
-8,4,-73,893,359,255
-47,22,-41,707,-272,4
-7,36,-44,-83,86,-273
3,50,-46,-495,152,-325
-6,13,-58,309,-143,-594
0,-7,-38,701,-148,-359
-13,7,-20,546,159,70
-9,27,-28,48,360,23
1,36,-41,-76,215,-21
-11,29,-53,197,60,-172
-13,36,-52,123,-80,-390
-9,37,-48,51,-51,-206
-38,66,-33,-230,-96,-87
105,43,-78,238,661,-617
27,29,-77,733,-24,-198
-35,66,-33,412,-359,302
-1,85,-36,-444,304,-202
6,81,-40,-235,288,-339
46,54,-76,674,101,-474
-60,-112,32,3587,-5719,-5100
54,-39,4,9057,-7440,-5206
-78,-120,121,9013,-9962,-1785
82,11,-88,-618,-3245,-1875
-4,-59,-36,1358,1804,-3695
-123,108,-96,6215,2456,-9669
25,81,114,5116,1567,-3855
-89,61,0,-9862,2145,1460
44,10,113,3575,-5210,2464
59,-66,4,-8327,-1448,3498
116,-34,110,-6385,-1313,2517
14,-97,96,-5401,105,3069
-91,13,-69,-5703,2550,4516
-75,-61,-77,-3672,2436,4903
74,111,-87,-3150,158,6029
-20,99,-28,-3211,-594,4880
-29,-101,55,2114,-338,2552
-108,80,-7,2944,914,1719
-110,3,-79,1218,873,1443
-73,41,118,2793,538,1260
-57,13,118,2901,406,1003
-66,5,-126,1256,837,612
126,-100,-85,279,126,-424
-110,111,-52,-11,-203,-907
-89,67,-46,256,80,-919
-90,63,-59,507,322,-619
-87,69,-57,348,77,-437
-68,73,-58,323,-33,-461
-74,63,-58,332,-119,-779
-82,59,-44,261,-196,-609
-78,53,-44,267,-52,-326
-67,58,-48,-65,145,-156
-56,90,-53,-275,218,484
-60,104,-70,-157,246,221
-57,107,-82,47,151,-208
-42,117,-78,244,-111,-162
-49,-128,-69,91,-82,-309
-47,-124,-59,9,51,-368
-53,-126,-61,0,94,-254
-63,-118,-63,-127,95,-91
-45,-108,-77,-145,221,-80
-36,-110,-91,172,116,-201
-33,-102,-89,311,-134,-222
-39,-86,-74,3,-80,-239
-48,-81,-64,-71,-5,-270
-36,-88,-68,228,129,-357
-28,-94,-82,280,91,-453
-41,-89,-76,163,-133,-120
-44,-81,-64,245,-36,-89
-42,-74,-68,215,210,-433
-103,-123,-72,4699,-2150,-3841
30,-23,39,12017,-7391,-5141
-23,103,64,11486,-10727,-1057
32,-56,-51,-1206,-4644,-866
-87,-101,-58,4627,2605,-7203
53,-78,-78,9524,3059,-7576
-90,89,-39,1302,2640,-5104
-128,127,-7,-9991,892,1345
55,-52,-68,2750,-4734,3140
58,-55,60,-8107,-5082,4281
70,-7,40,-6344,-2886,4049
-60,53,39,-6789,-861,3583
-116,-106,122,-7365,2053,6118
-76,78,105,-5701,2454,7596
87,-44,-31,-2277,-287,6398
-25,57,50,-1423,-212,5780
66,-12,82,2251,540,1243
-76,81,-56,5222,1808,1499
-63,59,114,3456,1286,1635
-121,-77,113,2079,626,1197
64,47,-101,1046,-167,-321
33,-69,-60,490,-661,-1723
70,-95,-66,550,-129,-1666
58,-117,-65,679,-55,-1090
27,-125,-42,518,-296,-306
11,-122,-33,362,-60,-126
29,-124,-31,159,307,-51
29,-117,-49,29,128,253
64,-102,-55,-24,92,292
69,-89,-50,-74,94,-20
35,-89,-50,15,-13,-416
6,-102,-54,251,-51,-559
-9,-96,-47,153,-25,-511
-113,-110,-79,183,552,-605
78,-109,-81,446,153,-136
-52,-82,-35,191,-716,151
24,-77,-44,-236,169,-331
59,-96,-63,16,439,-433
35,-100,-66,503,-192,14
9,-69,-53,107,-221,65
20,-61,-48,-170,190,-348
52,-86,-68,238,355,-446
25,-107,-85,663,56,-131
29,-88,-78,464,-17,174
24,-75,-80,139,96,37
29,-70,-80,29,-55,-116
32,-67,-75,144,-153,-190
81,-66,-79,-128,190,-606
81,-82,-89,94,222,-397
-5,-82,-76,226,-219,15
-69,-60,58,-4786,-2379,-2256
-75,-19,-7,1266,-2175,-4442
-6,-124,30,10330,-1071,-6434
113,63,19,18192,-3206,-7041
43,84,-34,7071,-3840,-1686
-1,-103,-126,-1274,-383,-3405
101,-4,106,2078,4592,-6712
50,66,42,5218,4945,-4634
-42,54,-81,-8546,-3593,869
114,33,-14,1103,-3992,6233
-52,-57,52,-5310,-4019,3525
38,58,82,-6527,-2672,3527
-75,81,11,-6416,-859,3291
0,85,-128,-6152,756,5238
24,-11,9,-6395,1224,7967
21,112,27,-3840,-394,7552
113,94,75,-2984,-2278,4482
-100,-105,-101,4579,-959,1559
126,80,-99,2347,-77,3775
82,88,1,3933,1724,1466
47,115,15,6712,2066,1507
-77,24,101,1336,548,692
-122,121,-58,-1114,-1110,-1168
-68,26,-62,208,-506,-1932
-5,0,-63,1013,149,-1291
-27,28,-34,282,27,-566
-52,34,-17,-443,-370,-138
-44,37,-29,-407,-164,150
-46,50,-34,-62,14,158
-43,64,-40,368,163,-17
-40,67,-51,565,236,-133
-43,69,-62,447,215,-241
-41,74,-66,30,134,-230
-34,70,-76,11,131,-239
-27,65,-82,212,86,-214
-20,74,-82,232,39,-145
-23,93,-76,32,-24,-179
-26,115,-68,-499,-41,-238
-31,127,-68,-520,-41,-252
-45,117,-68,21,-47,-310
-11,120,-73,221,51,-229
17,-108,-62,121,240,149
-29,-101,-73,114,309,-288
-45,-110,-83,250,21,-578
-9,-115,-85,219,29,-728
58,119,-92,497,148,-542
-62,124,-64,564,-320,78
-94,-117,-44,117,-149,104
16,-76,-54,-706,588,305
57,-91,-92,-132,499,406
77,99,-31,1197,-2795,-4152
101,-68,-49,1856,-5161,-4198
-117,127,57,8395,-7964,-4442
94,0,-38,9858,-8389,-3164
37,16,23,5199,-3734,-2420
-23,99,-120,1743,-108,-3880
-74,-39,67,5222,1241,-7545
125,88,34,3753,3234,-7501
-79,-22,38,-13508,2618,1860
7,-107,-51,4894,-6024,5198
4,-72,-13,-8872,-4319,5309
-9,-61,57,-5595,-2368,3545
78,-24,101,-6136,411,3677
7,-124,-45,-8076,1692,5022
-48,19,-53,-3144,1509,5934
-93,54,-17,-2563,-579,8012
64,-46,-75,-3478,-3587,4963
-23,23,-97,4618,-154,3056
112,121,-24,2696,2226,3043
-34,-27,-33,547,355,-229
40,-44,-119,3606,-174,565
69,-48,108,3708,526,1258
-47,-91,-99,1652,289,154
-96,86,-52,292,-430,-1218
-41,-11,-34,902,-167,-1480
-35,-7,-9,626,-233,-1115
-31,-23,-13,524,14,-763
-42,-14,-9,-12,30,-251
-50,-18,-8,-98,-23,-134
-39,-14,-28,123,120,-11
-37,7,-34,-28,65,20
-35,12,-45,98,40,-80
-42,22,-48,205,-81,-162
-32,28,-54,289,153,-189
-35,36,-57,140,64,-257
-39,37,-62,147,-52,-238
-37,40,-61,162,69,-216
-34,50,-64,67,88,-213
-31,57,-69,-6,-1,-214
-32,67,-70,-78,-23,-245
-25,68,-74,79,54,-331
-27,74,-75,64,19,-262
-28,83,-73,59,7,-291
-24,85,-79,108,55,-316
-21,94,-81,51,89,-198
-24,100,-81,52,72,-193
-21,106,-84,94,91,-212
-20,113,-85,59,31,-222
-18,120,-88,115,22,-223
-17,127,-87,80,56,-199
-87,-38,-66,10271,-4538,-3565
-50,91,58,13127,-4898,-1803
98,-36,104,3692,-4525,-1582
-85,-47,-24,949,-1910,-3864
6,50,20,558,2137,-4500
-101,118,100,3943,5259,-7107
57,38,-106,635,3688,-4609
25,-18,-36,-4762,-3639,4642
-14,117,-97,-2465,-3069,4337
-55,-13,-81,-4826,-3472,4144
-68,-7,-121,-8773,-3124,3579
114,-83,-15,-9497,-4716,3366
-10,-74,-26,-8833,-3351,4401
46,-45,-39,-2339,-1055,4145
25,-57,49,2373,25,3474
-110,-79,13,-463,765,4572
-48,-68,-67,-974,-268,4774
-124,-64,-95,2347,-924,1760
6,-112,89,1920,-365,3228
-15,72,73,1146,18,-359
-11,-97,61,1745,49,1133
-17,104,56,1061,567,251
-30,30,43,1110,129,57
-15,-26,33,797,195,-542
-2,-67,37,877,319,-456
11,-117,43,986,401,-618
14,-101,42,286,358,-177
11,113,42,703,-21,-345
19,-121,44,117,30,-247
11,122,38,178,-41,38
18,122,33,196,19,-7
23,105,23,716,115,130
15,94,32,598,67,152
14,91,37,243,50,176
21,67,33,315,158,112
22,92,32,-81,209,-174
26,77,16,352,74,-89
25,88,22,192,46,-357
29,98,16,20,160,-212
22,82,12,335,56,-170
32,84,11,246,116,-211
26,94,15,-85,85,-344
33,78,9,374,48,-191
30,100,13,158,-19,-238
33,119,12,-182,63,-214
27,107,3,143,31,-234
30,119,6,18,37,-281
29,116,1,120,44,-174
37,108,-1,252,157,-181
33,118,-4,148,21,-151
14,82,-44,7338,-3162,-4917
-83,108,3,13408,-6967,-3848
-43,-1,103,7577,-7437,-1680
-120,69,66,1102,-3366,-3108
-64,54,-10,3623,-1795,-6056
91,10,-50,6390,615,-10748
-78,-45,-26,457,3436,-2667
123,32,22,-9305,-2490,4132
-82,30,-116,75,-4443,4921
-82,-102,107,-9217,-2220,4975
-25,89,-63,-7900,-1041,4173
-121,-55,52,-8455,-498,4300
-86,-9,-3,-5274,680,4536
57,42,45,-1051,946,5611
-106,100,109,-603,119,3878
51,39,52,-2056,619,4575
-50,-13,83,1595,435,289
70,-113,19,1461,957,2237
30,-64,6,2726,723,1364
-6,-118,61,1029,579,1432
-51,43,59,683,243,620
-61,-114,69,1751,-281,521
-4,29,79,3058,375,-70
13,-25,105,2315,388,108
-4,-22,-119,194,308,522
-21,-62,127,-608,-330,106
5,-88,85,41,122,-234
8,-83,93,186,201,-391
9,-84,90,487,237,-222
6,-91,92,646,124,-263
15,-77,98,215,51,-427
50,-62,73,-73,113,-239
33,-45,62,-262,46,-83
13,-56,58,215,265,-391
29,-80,39,749,466,-699
29,-68,47,599,173,-313
19,-43,52,-66,94,-65
14,-35,37,-358,41,-281
46,-69,24,514,85,-327
76,-66,42,934,160,-108
51,-22,53,527,332,82
29,7,53,-73,70,-1
26,3,44,-94,5,-282
40,-11,35,153,47,-585
61,-20,31,345,-47,-474
76,4,48,77,87,-287
61,22,46,-235,182,-275
52,24,26,-246,129,-263
33,43,18,-345,-63,-266
18,40,5,69,-91,-461
27,-96,-27,10776,110,-2480
-72,-12,39,16721,-9223,-1560
124,89,48,6594,-9892,3572
22,-120,-100,-1511,-4438,396
-37,-111,62,2685,-694,-4894
-82,62,47,4286,1678,-6980
-128,-57,-4,3898,4126,-8336
86,88,-82,-10984,5499,97
-2,67,-77,1679,-7106,4844
1,-4,16,-5394,-4731,4780
-38,106,30,-8127,-3986,3044
7,101,-111,-6993,-2736,3401
66,-44,89,-11713,-1227,5030
-47,-95,-77,-5819,196,3820
22,-42,119,4649,1118,4173
-83,-73,-80,-1724,-760,7564
53,66,-127,-2596,-352,4721
92,76,-3,4858,1304,3377
-105,-48,-63,4840,1303,1321
62,83,-80,1456,234,2193
-15,-65,-58,-208,-699,1223
-20,98,-41,1293,-900,167
-45,46,-17,1565,-44,-1155
-47,-4,18,762,-72,-2087
21,-34,25,265,80,-1364
-9,-41,47,-90,30,-169
-26,-31,35,-316,23,26
10,1,-1,-708,287,185
2,9,-22,-613,219,11
-11,5,-28,-18,-37,-45
-36,20,-22,461,11,-118
-33,33,-30,476,231,-260
0,28,-49,475,405,-375
4,21,-46,496,128,-294
-7,23,-37,377,-95,-96
1,46,-15,12,-17,53
-10,46,-12,47,15,-112
-8,59,-13,39,16,-167
-15,70,-26,-98,69,-359
10,47,-21,48,118,-919
44,35,-30,472,411,-480
-1,54,-36,179,95,-107
16,75,-38,-37,78,239
7,81,-43,-68,332,14
10,64,-40,447,271,177
29,40,-38,1132,372,187
49,43,-56,1129,357,-318
40,51,-49,450,-121,-525
31,66,-42,-226,-306,-333
22,59,-29,-393,-395,-413
-52,105,123,2493,-3160,-4350
70,-46,20,5548,-6549,-4335
80,84,127,11753,-9196,-2943
-111,22,33,3653,-6108,-689
47,88,15,2310,-2027,-3124
107,8,68,2741,1385,-6169
46,111,0,4075,4328,-10080
