AccX,AccY,AccZ,GyroX,GyroY,GyroZ
-45,-97,-85,4441,1902,-4337
-80,116,13,2998,4822,-5533
-30,29,15,1904,7645,-7756
63,59,-52,458,7234,-7420
-44,12,81,-945,6018,-8450
-118,-100,-59,67,2838,-8277
-35,15,-90,1972,1167,-8366
-113,7,39,1915,821,-7949
80,29,-35,4271,1380,-3392
-32,-42,-108,4006,1430,-14
-70,88,39,3193,-350,5302
98,-113,80,958,-4254,6522
-38,95,47,1936,-7061,6527
-29,33,124,775,-13040,6236
66,59,32,-2734,-18737,7916
-91,-30,17,3773,-1253,2370
59,67,-64,-3980,1669,-4695
-91,36,81,-1656,1727,-6388
-22,70,1,7917,-3670,-1628
14,3,99,3846,-5792,5797
-110,25,105,-1223,-1863,3304
-24,-1,125,2951,-2168,391
77,115,5,5013,-1342,634
-54,-36,-2,1803,-989,651
-16,54,88,2467,-1957,530
-21,3,104,3697,-37,-1614
-6,-13,-113,321,2933,-2389
-74,65,39,-1525,-770,1115
125,-60,-25,-723,-1101,415
-103,-61,-62,-815,401,-99
-95,-61,-93,-530,730,-102
-87,-43,-109,-750,377,5
-67,-52,-128,-229,9,38
-49,-61,115,227,25,-130
-39,-52,107,132,-24,-143
-37,-52,106,-112,-200,-8
-42,-54,110,-208,-370,142
-37,-48,119,-363,-456,392
-27,-25,-108,-721,-724,531
22,-11,-57,-2,-555,521
76,-22,-32,1576,496,-109
13,-2,-113,742,-444,147
16,18,97,-785,-50,375
31,-2,79,-854,218,455
28,-15,71,-186,-317,361
45,-24,75,571,-464,-11
41,2,92,-144,-455,138
70,28,116,-820,-449,520
94,25,124,-401,22,239
84,41,118,-519,-167,217
2,44,-120,4283,2565,-4099
-64,61,26,1098,4138,-5956
-82,84,119,1308,7848,-7138
-2,88,122,-215,7716,-8138
12,7,84,-816,6510,-8492
86,-124,50,1050,2983,-10190
14,37,-91,13,2717,-9955
-22,110,101,1885,5716,-6404
41,107,-19,4631,2716,-522
55,84,41,2952,-1115,5485
-70,-107,-127,4446,-5446,8753
59,-58,-7,-2521,-8834,5969
-12,3,-122,-4424,-15973,4375
64,22,29,-4878,-13596,1093
23,-123,-113,9675,-2704,2889
-42,-56,43,-3851,4529,-5129
-35,-124,-110,1818,1070,-7780
-21,-1,3,13224,-7206,-2859
-105,107,-75,4320,-5404,3753
-30,39,-108,-645,1946,4058
-16,-116,-43,4423,-1961,2370
14,-16,75,5425,-3053,3433
-15,107,-82,1504,-989,4301
97,39,93,26491,-7221,-5229
74,-27,-49,-13904,4191,-3727
112,14,74,-8852,767,752
62,4,60,2039,-375,3000
76,-35,-86,439,896,1107
-100,15,-121,-375,549,-9
-26,18,95,504,333,177
-28,5,82,741,-297,-424
-48,-11,112,-191,-1030,-1194
-22,-35,-119,-826,-1024,-1091
-28,-59,-103,-1086,-917,-554
-58,-62,-84,-1246,-1021,-263
-63,0,24,-2568,-1212,308
-48,-77,42,-227,-664,438
-25,-117,-45,2462,850,-28
-45,-77,115,3234,788,-340
-26,-27,108,605,532,141
21,-22,73,-835,384,1161
29,-28,71,-601,-257,1384
37,-18,72,-292,-367,818
52,-10,66,424,-275,397
39,3,82,359,-433,164
42,0,88,390,-512,41
57,-9,109,365,-408,-93
109,18,-85,-1134,427,261
97,-1,-101,-1364,0,547
104,-6,107,-589,-316,290
15,-38,46,1589,4192,-4631
-93,81,-20,504,8066,-6892
-118,8,121,-2171,9943,-8572
-96,13,-119,-2902,7632,-9893
39,45,-68,280,3802,-10341
120,-30,-107,1917,2663,-9697
13,-22,35,2785,812,-2661
-127,116,-108,7837,-2064,2180
-128,-37,127,-338,-3981,6944
58,78,-61,69,-4025,2738
-45,-19,4,3998,-7363,7043
-36,54,-79,-4067,-12169,8285
17,85,53,800,-9350,6280
-60,71,-128,-667,-1719,-2175
77,-69,95,-5887,1633,-6660
-96,100,-95,1866,-3506,-4403
21,33,-39,2061,-4210,636
-111,-51,-65,2305,-3139,469
60,-23,-100,3107,-2088,-390
26,60,45,3035,-265,-239
97,100,-76,2853,-205,623
120,75,-70,1900,-130,756
1,-33,-24,2523,-1404,114
-9,109,10,2388,-620,-1125
5,36,28,2850,-301,-132
-15,-28,-17,2855,546,106
-84,-53,-15,1840,257,200
-68,-93,14,1318,-406,330
-86,127,-1,1387,-307,-534
-33,115,-3,323,368,-641
-8,110,-4,-1848,921,-80
-20,16,-59,-684,728,-336
18,-37,-80,915,541,-700
33,-3,-63,509,265,-1105
81,6,-116,-13,86,-852
100,52,-59,-1257,484,-224
113,68,-79,-840,196,-132
-83,-111,-64,-813,1541,-313
-73,-64,-8,-2011,2092,-286
12,-29,-51,-1906,2104,1127
-71,-49,35,650,-1436,379
17,4,66,-304,306,467
-50,-62,37,1124,-962,233
-41,9,79,-409,-755,625
-19,-47,58,362,-222,456
-66,-71,31,1007,-929,314
-61,-44,47,367,-1202,822
-53,-94,6,793,-257,-237
-107,-89,-4,115,-1027,403
-94,-105,-26,364,-922,858
-104,-80,0,2516,4233,-5647
12,-98,-42,2417,4705,-6182
54,-120,84,-1132,7179,-6927
-9,32,-127,-1606,6283,-8301
61,-21,-83,1150,6984,-7837
5,49,-28,5069,5004,-9483
-111,71,21,4423,-3055,-10089
69,-49,-28,-148,3740,-4351
77,54,-37,2985,1817,3543
-9,100,-25,7518,-3617,9543
-49,116,-69,384,-6128,5763
-88,28,-12,-1569,-9163,3578
70,-102,-64,1221,-11487,5202
-33,122,-64,-3181,-9224,6085
111,107,111,-1513,-5557,2230
85,-124,37,2530,-2296,-1672
45,-97,-5,3148,-785,-4329
9,-25,-56,4321,-1968,-2034
103,-110,-115,3689,-2828,2023
85,-60,85,3056,-1298,2012
-24,-18,63,2180,-1014,1402
78,115,43,3724,-1654,876
23,-76,68,2369,-2338,1150
63,-124,-103,766,-1778,1302
20,34,19,733,1643,39
-116,-74,-38,633,968,-913
108,25,-23,673,-281,-756
-85,-2,25,239,519,-71
-76,5,50,-1367,256,335
-106,-60,-31,-67,-490,321
-91,-91,-64,1045,-170,-139
-75,-74,-82,820,21,-412
-64,-74,-91,202,106,-91
-48,-76,-110,-144,128,206
-32,-93,120,66,123,195
-27,-98,109,310,-43,34
-28,-93,111,210,-220,75
-26,-102,116,105,-235,131
8,-99,115,11,-172,482
34,-75,112,-169,-202,586
34,-70,109,124,-247,365
18,-65,114,135,-289,82
76,-81,121,287,-220,158
47,-69,118,145,-373,452
-7,-36,-119,-519,-526,342
51,-30,-117,-893,-61,372
82,-54,113,-153,165,68
81,-77,87,856,38,-291
66,-74,66,820,-134,-392
66,-60,70,-40,-238,-63
18,106,-94,3234,2265,-3959
28,-43,-15,3444,5232,-6225
-9,-20,-49,2115,7332,-7760
-93,-77,5,-2086,8346,-8417
28,1,33,-3,8887,-8347
-101,69,-56,1156,4289,-10230
127,-34,-63,1798,1238,-10141
-35,-60,127,3227,2572,-5757
91,-65,-28,8033,-364,631
3,-110,109,4497,-4124,4989
-46,-91,40,895,-4402,4394
54,-30,-93,-559,-5343,5134
40,-78,96,1456,-6041,4773
89,-57,108,-3074,-10105,5439
-27,82,45,264,-6173,1866
-88,-87,104,-989,-3757,-617
2,14,-11,-495,-2573,-6645
-112,-95,-63,3941,-4640,-2235
-4,-72,101,-486,-2905,1490
103,-58,55,1410,-994,-478
-35,-80,66,3399,-2039,-1234
67,-122,-85,3190,-1352,798
112,-35,-82,727,-947,1770
56,83,105,2281,-293,683
-16,74,70,1982,-1011,275
-81,-40,83,2630,-1134,-40
119,-74,7,1678,-212,-92
-128,117,-4,1554,-276,195
-113,54,-16,1559,150,231
-76,13,51,1016,72,395
-95,-17,-3,1055,180,117
-96,-30,-21,505,-251,-150
-76,-50,-37,-471,-96,-9
-72,-102,-72,-481,444,-140
-54,122,-91,67,557,-314
-62,105,-121,492,286,-505
-52,93,122,596,187,-511
-46,89,110,337,132,-214
-28,105,113,-122,-121,383
2,-123,123,-578,-276,851
12,-108,118,-512,-181,702
36,-100,124,-151,-215,442
24,-98,-128,139,-91,63
32,126,108,663,74,-405
36,98,101,1058,-136,-328
24,107,110,612,-375,161
22,-127,123,-91,-340,608
52,-105,120,-390,-104,785
72,-107,107,95,-113,594
69,-97,96,330,-244,124
-99,-3,-120,1355,3102,-5053
102,-35,-29,805,7385,-7264
-7,-21,-94,26,8076,-8209
-76,47,-107,-3163,9130,-9613
-108,-117,109,4035,4446,-11467
-113,-56,-36,3179,18,-10755
30,-102,48,2582,1574,-6441
90,14,83,5980,136,3178
14,-24,57,4039,-4978,7203
44,-58,18,253,-6963,5416
-46,78,126,2909,-8886,4832
43,94,-23,-1332,-11491,8492
24,109,-24,-4070,-9530,7425
-13,91,112,-402,-147,-2205
-125,14,103,-1013,2158,-10563
-93,113,34,5727,-1301,-6082
-71,-51,-6,6966,-4670,2336
56,29,-94,1175,-2601,4397
78,38,-79,73,-1181,2344
12,-31,-89,3090,-1520,1530
-58,25,-113,3392,-1684,820
96,-95,78,2801,-1044,118
1,92,-11,2612,-647,679
-45,-81,-3,4361,-1567,-1578
38,-35,87,4554,1196,-2713
-57,-57,-14,-3613,711,943
-126,-11,127,-1485,-33,430
-99,-81,-115,-203,712,-354
-73,-126,119,853,767,-1398
-52,111,105,1299,404,-1319
-24,112,118,670,-56,-867
-18,97,122,110,-77,-504
0,73,119,130,104,-478
-22,34,119,597,-282,-292
8,21,-117,1031,-363,325
44,94,-85,304,-445,1411
48,122,-108,-273,236,1359
49,112,111,270,219,817
60,114,99,574,-203,669
70,-127,110,474,-419,747
57,124,99,966,-326,133
84,-104,107,373,-299,185
77,-104,103,-403,-85,97
56,110,91,-249,-277,-133
74,114,105,-503,-292,187
76,124,88,-588,-256,240
95,-110,85,-745,-235,296
100,-100,65,-704,-116,86
105,-94,58,-510,-334,360
82,-25,83,-1200,-454,781
18,98,-17,1078,4447,-4637
-85,76,-44,-1095,7857,-7180
11,64,-23,-2270,8807,-9256
71,80,-36,-1973,8375,-9894
2,66,-86,2351,4352,-9521
-66,-50,94,3139,1199,-9612
-44,-79,111,2143,-331,-2274
-66,28,-70,5443,-3736,3877
100,110,81,1217,-4039,3363
-122,23,-3,1915,-3298,5446
-100,-32,-64,819,-8832,6051
-85,97,-68,-5209,-12464,7346
-41,-96,22,-521,-5585,1026
81,-120,119,2894,1298,-5832
47,-45,120,-417,-2574,-6376
-60,61,-42,2778,-6349,1027
-49,-59,-43,893,-5835,-281
-75,-36,36,2389,-1043,-1556
-84,31,-70,3045,592,-1171
111,-59,-41,2429,-1856,1907
-19,7,30,734,-2868,2565
120,78,-120,2175,-180,657
31,67,-8,2564,1211,-20
-81,-13,-102,2222,738,-236
-57,125,-56,3442,-1358,99
-26,93,-28,3407,-2492,1013
-5,-102,33,847,-1998,1569
-56,-90,49,-1434,-604,916
-120,76,42,-776,318,-651
126,-28,20,186,556,-1283
-120,-66,0,1055,258,-1335
-116,-107,-58,1382,438,-1317
-105,-126,-81,846,434,-1123
-79,117,-100,236,429,-681
-48,117,-108,-633,202,-170
-40,102,-124,-907,174,51
-37,79,110,-243,179,-205
-32,63,96,677,26,-261
-15,83,103,591,-121,47
-6,96,102,425,-222,337
-3,104,116,602,-360,571
11,-123,126,184,-378,950
38,-86,124,-333,-205,1070
48,-64,110,-363,-165,832
50,-70,112,75,-300,278
59,-74,124,463,-85,-192
57,-67,121,-150,-109,13
58,-76,108,-466,-127,216
62,-89,88,-193,-99,121
76,-85,84,-115,-148,89
-17,-52,-44,4569,836,-2863
-124,-104,42,4030,5582,-3947
39,91,-6,-333,9332,-8074
70,-79,-5,1454,11506,-9299
-90,52,22,823,7639,-11659
-49,-125,26,3396,2351,-11643
-14,-20,-112,1319,3783,-9262
127,57,76,4803,2277,-1156
-59,68,24,6712,-1160,3527
19,-1,77,3383,-4691,5306
11,97,11,3371,-6197,4681
-91,-37,19,-1789,-14095,6617
85,37,-123,-7746,-14105,8310
-117,-113,116,7950,-5913,1265
-101,-105,38,-3656,1052,-8238
-65,-19,-34,-1988,1393,-8095
115,43,32,7919,-8959,100
-128,-63,61,528,-4200,2352
-14,41,3,2988,1251,-817
-112,-48,-115,2869,37,-353
-22,-17,17,5079,75,1046
-65,-7,21,3088,-1890,2343
-125,-124,14,2393,-1564,800
21,37,-1,2494,-922,-40
-44,-109,46,2858,-563,-344
-51,-117,24,2304,-369,118
-66,-113,-9,727,-585,420
-99,110,-28,-949,-49,-32
-108,11,-66,-341,285,-335
-98,-65,-96,-89,715,-720
-82,-93,-124,367,621,-1106
-48,-125,107,638,257,-1058
-14,112,107,643,75,-984
9,88,97,468,110,-908
5,90,115,-169,-293,-497
-4,86,-118,-353,-428,-240
4,88,-99,-419,-405,88
11,87,-103,-98,-109,312
12,99,-109,167,-72,590
19,-125,-114,123,-149,849
39,-97,-111,-27,-217,1102
52,-76,-124,-35,-141,1094
61,-58,116,33,-147,875
64,-53,107,115,-232,597
63,-46,96,142,-354,321
67,-40,92,161,-413,212
54,-38,91,-43,-439,51
56,-50,87,-31,-413,-51
70,-62,73,-11,-377,-163
68,-68,65,96,-460,-283
25,-32,-34,-1833,11791,-7959
-34,21,104,-1845,15320,-11168
-17,81,-32,-1176,11368,-11360
-124,-47,5,3174,6302,-10049
-72,120,-108,2133,5142,-7459
97,-63,40,801,4410,-984
91,84,-55,2947,254,11002
35,56,41,7020,-5804,10971
-126,115,-96,-577,-7493,6321
16,-9,-114,-835,-11741,6424
69,-97,-27,-3469,-17854,8136
-115,103,-15,4407,-523,2177
-92,-11,-57,3371,1648,-3421
-36,-98,90,679,-2667,-1062
127,-33,-92,6009,-6243,768
124,92,92,2120,-1134,3426
40,18,120,-2805,-3186,4516
-68,103,-103,4175,-1977,980
2,-53,9,2506,-634,223
22,-127,24,829,-654,604
-20,32,-18,718,135,741
-94,-47,13,1835,-752,-822
-80,97,-3,5860,-1464,-2348
37,-54,19,1617,1596,83
-78,-66,9,-3977,343,1017
-109,1,-125,-2862,-724,522
-46,-76,113,630,499,-679
-22,-47,125,907,533,-1459
29,-26,110,0,289,-1492
40,-60,95,-269,196,-1196
48,-108,90,106,163,-1241
28,99,81,736,137,-1165
16,93,84,679,0,-808
11,87,87,334,-147,-185
13,89,94,55,-261,545
18,98,96,44,-282,1065
41,120,111,278,-335,1488
73,-120,102,640,-77,1688
105,-99,82,790,125,1608
-113,-66,88,873,500,1132
-123,-34,104,112,-307,1052
93,-49,96,518,-1070,512
80,-43,103,-249,-795,431
83,-58,93,-521,7,198
77,-74,74,-298,163,-23
81,-69,74,-167,-130,-203
104,-71,67,-134,-185,-377
-123,-76,61,-346,-79,-470
-128,-84,64,-394,-105,-657
-124,-79,70,-763,-193,-453
28,44,-123,1891,2776,-3521
35,80,-24,92,13182,-13501
-67,-44,4,1700,11732,-3419
70,-87,114,2898,4379,-5181
22,86,-50,3314,1392,-9431
-109,-69,56,3202,2272,-10168
-32,-73,20,2160,3298,-8267
-123,-36,-52,2731,4759,-2657
68,-80,-100,4863,-155,3767
-25,0,-74,7904,-6383,10171
48,-34,-116,-3112,-9492,5710
-111,-38,-76,2831,-13539,5336
42,18,-78,6002,-13614,9644
28,-32,77,-3150,-7309,12365
22,61,-54,-6625,2813,5726
106,34,-104,-2103,5199,-8650
-19,1,30,7206,-6048,-9271
7,-125,5,-686,-6676,-747
-52,73,120,171,-1318,2720
-78,-44,-124,-521,2773,-555
-77,34,-63,3131,-1340,-1941
-42,-68,29,375,1537,-945
26,51,89,642,1602,-1232
43,84,76,-83,12,-377
-97,75,-105,-291,210,235
-36,17,-27,556,-28,-112
-39,49,-37,630,-426,470
-24,35,-80,164,85,162
-71,-25,97,617,-631,76
-47,-19,67,29,154,232
-68,-34,22,152,-242,103
-54,-55,27,60,-376,390
-40,-70,22,34,-15,146
-22,-66,6,-108,-215,212
0,-89,5,111,-142,250
-1,-95,-7,68,-101,80
7,-123,-26,81,-241,286
7,106,-38,92,-289,382
23,110,-49,-107,-425,690
25,87,-65,47,-448,640
19,75,-98,127,-778,767
38,78,-103,239,-762,575
55,70,-107,371,-742,519
33,56,-117,266,-829,468
83,67,-85,-241,-126,394
118,48,-67,-60,609,17
-86,63,-66,-2,887,-269
127,28,-81,1097,-332,-47
-121,10,-84,1254,-594,166
108,-13,-108,1217,-560,-124
-21,62,30,1953,2670,-3777
-100,-37,-80,2334,4936,-4515
-73,-37,-117,280,5427,-3420
-125,92,51,643,5877,-4635
-116,21,-85,847,5145,-6307
-125,-3,58,923,3517,-5818
58,-56,-83,2029,2861,-7420
-128,47,127,1360,-261,-6914
-113,-123,73,1186,1083,-3065
111,-78,-33,4038,236,-2880
-90,-20,-59,1831,-250,-2391
94,-9,68,2350,193,-1285
104,-36,-60,1546,-130,965
-78,-75,29,2715,-2125,2657
48,11,9,1923,-6242,2662
33,21,107,778,-8185,3300
-60,-86,52,158,-8625,5508
25,-101,-125,631,-7987,6094
119,-73,77,4399,-3669,8012
-74,90,-119,-2295,-1574,305
-124,12,111,-2413,-2943,-4612
78,-5,43,-1114,-1872,-4708
44,46,50,-782,-3207,-893
-91,66,57,253,-3453,190
32,13,-106,-1691,-2354,917
88,96,-38,758,-2009,-288
-51,-118,-68,3753,-3014,-1171
37,1,-22,4473,-3870,-712
-13,50,-42,3389,-1473,-473
-96,125,-24,1411,1289,560
-116,-39,-89,2432,-275,107
76,-96,-20,3811,-2176,-692
53,33,107,7790,281,-4647
-82,-123,-99,-1810,719,-119
23,108,35,834,-1636,228
76,119,25,391,242,875
51,-116,1,-1053,966,428
49,102,-61,-1109,894,274
90,84,-92,236,586,173
-108,97,-90,462,368,-123
-102,84,-95,340,96,-667
-94,66,-66,390,-593,-476
-82,74,-39,135,-462,-187
-100,49,-57,60,3,-443
-77,24,-78,257,89,-249
-30,33,-97,186,-387,504
-37,98,-54,-495,-894,1016
-34,127,-63,-741,-270,655
-26,110,-100,-233,369,45
-36,82,-119,671,84,-185
-41,99,2,631,4520,-3047
-120,52,84,2474,7426,-2451
21,63,-84,2543,11987,-5513
86,3,-96,867,11362,-1323
112,92,42,-142,7708,-5361
75,44,-47,4448,5381,-6693
-113,-8,-106,5911,2669,-6052
-2,51,-103,5388,1430,-5566
125,-83,1,3841,-963,-1022
-17,-117,101,3080,-1785,1940
114,54,55,2054,-2354,4402
103,66,-16,591,-5206,5015
56,89,67,1950,-11390,6797
93,108,92,-1423,-11659,6986
-72,65,78,-3284,-2842,5641
-108,-81,54,1330,-2956,-1214
-22,24,-65,3219,-4848,-3108
71,123,-1,1123,-5062,-3383
8,126,62,2656,-3648,1666
-49,-96,102,-2236,-1409,1880
-97,127,-88,2056,-1253,-605
-46,-30,-115,3299,-1185,-565
64,73,-112,1858,-2145,835
107,33,-59,1266,-1468,446
46,-24,118,2174,223,-291
-116,-27,87,1344,113,42
-118,-67,48,346,291,680
115,93,-43,879,312,425
95,44,-30,683,-989,181
-116,33,11,1712,-1214,29
-20,-67,89,4710,856,-2166
-60,120,109,-2236,355,479
-125,-74,-58,-380,-665,743
-109,-80,-67,-311,79,212
-87,-100,-109,-133,756,-250
-64,-111,126,212,459,-346
-46,-118,120,364,-140,-185
-40,-119,123,147,-275,-88
-31,-124,121,10,-154,-69
-27,125,120,-48,-255,72
-20,119,123,230,-406,215
0,-107,125,127,-344,397
2,-89,-118,-105,-366,358
62,-81,-58,484,423,64
40,-104,-82,1170,-458,143
44,-93,126,459,-295,311
52,-86,87,-400,216,389
34,-77,82,-610,-258,627
15,-64,93,-537,-584,415
58,-53,105,-549,-153,268
81,117,79,2091,2869,-3164
71,-45,-51,1407,5260,-4278
-98,-67,11,657,6347,-4389
-53,-106,127,-2234,8091,-6456
125,92,-47,-339,7093,-7903
32,13,109,89,4768,-10431
-111,-42,18,2526,1762,-9263
-41,-74,7,3807,1100,-6666
-59,-3,-98,6808,-2772,606
114,76,-68,3263,-4552,-1121
28,-53,-24,768,-3213,1292
-47,5,35,2755,-4432,3612
114,92,-61,937,-3176,3965
-81,105,-69,3030,-5078,5060
-115,70,109,342,-6474,4370
22,-127,-107,-3178,-6019,-502
43,-63,27,626,-5012,-4374
-77,97,-32,1424,-5841,-1465
13,121,75,599,-5850,2281
44,91,54,1246,-1456,-1084
98,5,93,1347,-2074,-1069
44,-24,83,4518,-677,-1355
-30,120,73,4394,-2116,721
-32,17,-73,610,-1335,1750
12,-2,70,1989,493,148
-68,-79,108,-893,-2251,1535
-36,-91,87,11278,-986,-4424
96,2,-89,473,801,-3170
-85,108,60,-4872,1852,1303
41,-107,-88,-859,451,749
64,-79,-59,1192,-46,1111
116,-9,-62,523,-190,458
-100,5,-85,-128,-49,-120
-76,3,-85,-514,-89,-346
-77,-54,-86,-329,-75,-819
-71,-98,-92,48,-18,-1025
-69,-86,-67,-1260,-426,-264
-58,-73,-54,-1880,39,510
-35,122,-76,711,161,231
-41,-108,-105,2030,-237,-183
-26,-89,-123,2201,-498,-55
-15,-69,-120,1214,-349,233
-1,-39,123,-546,59,595
-4,-48,103,-954,-72,824
-10,-64,98,-168,-352,571
5,-60,105,499,-462,233
27,-33,124,240,-302,43
55,-15,-100,-644,17,147
43,-38,126,-697,-188,340
40,-49,99,-246,-216,67
-121,-23,62,2398,4747,-3948
-122,-6,-36,514,9313,-3933
18,100,107,-4971,15627,-5176
-70,-51,-122,2028,15950,-8073
9,98,-21,1833,9947,-7862
116,109,-12,4460,1549,-4516
-66,99,104,7113,-1077,-1622
-51,38,-20,4098,-1814,735
-126,124,57,1646,-2688,3269
-121,-107,20,3546,-5688,3229
89,123,-79,845,-10745,8637
-109,-91,48,-1190,-13726,8256
-97,-121,-46,5394,-6430,3020
-68,14,-25,-6000,-1696,-3499
125,-36,-26,263,-1962,-4116
31,100,-6,1679,-2238,-616
-120,-6,100,1722,-1525,51
121,91,-107,1438,-1548,404
-77,44,57,3439,-232,134
69,-106,-45,1320,435,212
1,44,-63,2047,-58,250
-41,-29,-54,1564,-767,526
-89,-114,-3,1530,-1450,246
-28,74,-43,1491,-520,320
-64,0,-47,1300,-363,364
-34,-35,-43,939,-280,425
-39,-62,-76,910,98,422
-37,-37,-72,-58,-80,338
-52,-92,-86,60,43,-214
-58,107,-90,607,-8,-352
-39,87,-109,456,196,-212
-39,90,-118,68,128,33
-25,79,119,-59,50,217
-14,85,113,-126,-77,377
-3,88,100,23,-118,330
5,102,91,17,-161,225
15,102,93,88,-191,136
24,110,94,15,-236,221
27,115,95,-34,-248,257
38,120,90,11,-186,212
52,-126,83,-93,-218,220
57,-119,78,-181,-187,243
56,-125,79,-6,-248,81
63,126,84,197,-219,93
64,-117,84,-11,-179,142
75,-116,79,58,-162,189
84,-111,74,153,-154,153
91,-101,66,92,-158,161
96,-92,60,-33,-143,177
96,-96,53,7,-158,128
-123,77,23,4152,-1542,-2618
-121,-36,-5,6362,1607,-4591
53,17,67,-3397,7511,-5593
-62,110,-11,-2465,9346,-8606
-80,-27,-42,-9462,12371,-7259
79,-55,-65,-2962,12154,-9190
68,-31,58,1148,8624,-7849
4,-6,-18,4548,1376,-3579
76,-32,-58,3452,-771,2947
-59,125,-35,3825,-5459,5431
77,124,-100,4095,-9233,7124
-23,-16,-34,661,-12391,9933
-1,75,59,-4386,-11218,8772
-112,-105,-97,5425,-1442,-2128
28,-46,-10,-3004,-2570,-7341
94,-126,-96,1139,-2572,132
6,25,-6,973,-3310,2747
8,4,-54,-1428,-292,1144
-24,68,-5,1363,-337,-1405
87,30,-101,2414,-521,-1910
-124,69,-28,1930,259,-1390
-81,47,-41,665,-33,-174
-116,-61,-28,1728,-1065,124
-59,-63,-44,1700,-887,398
-80,-77,-9,1197,-1220,783
3,-110,-47,877,-192,861
-41,66,-94,1226,377,361
-55,11,-108,1484,-190,422
-11,17,-88,794,-591,971
1,0,-88,718,-389,1023
7,-5,-99,424,-80,701
-20,-76,-115,612,121,465
-12,-96,119,458,314,526
-12,-106,109,162,213,544
0,103,100,418,68,295
28,80,113,827,-229,236
34,77,101,639,-159,109
36,76,104,256,-162,-22
48,51,101,323,-75,-127
60,33,94,412,-124,-47
53,39,100,305,-256,83
56,44,100,142,-244,168
63,50,96,-33,-237,239
75,49,90,42,-186,252
76,57,83,66,-247,225
78,64,75,129,-189,102
86,64,77,149,-235,54
92,62,71,184,-188,76
99,69,67,79,-203,104
99,66,65,147,-182,56
-30,-119,-100,3319,1852,-3031
13,-77,-50,5990,3473,-7223
71,-61,-98,3159,10372,-9518
77,-98,-12,-6268,9286,-6391
-10,-115,-123,-4088,8600,-10178
24,-60,105,2890,3660,-9665
-14,114,29,913,2107,-7989
-15,-1,99,2827,-1441,-3033
126,68,25,3958,-609,1634
84,97,-49,2666,-3319,5386
-110,123,-15,1831,-7871,7030
120,127,73,-133,-13513,10952
12,95,23,-1769,-10491,9744
45,-12,-80,2033,131,166
11,-78,18,-3369,572,-10347
35,3,-23,2839,-1371,-5256
-18,-29,5,4175,-5371,2413
103,10,-50,-208,-2640,3553
53,-116,-52,203,-801,236
42,16,-73,3450,-1839,-1308
-94,-114,82,2413,-1277,423
52,-128,97,1499,-1267,1125
31,8,-1,1536,122,626
-43,-31,-22,1565,-58,409
-45,-123,-32,1820,-574,155
-53,88,-77,1915,-89,421
-81,54,-81,1455,-320,317
-64,-7,-66,1433,-408,330
-47,-71,-98,1440,140,246
0,-78,-95,844,149,226
-53,-106,-97,695,-264,-49
-52,124,-86,406,-538,-287
-47,87,-95,664,-102,-288
-35,81,-105,302,227,-123
-37,74,124,-29,352,58
-7,69,104,-206,152,173
17,62,85,89,22,-14
20,67,94,105,-292,-147
30,63,106,73,-180,-185
37,55,98,170,-80,-149
37,58,96,86,-185,54
45,69,92,-69,-192,253
59,77,87,-34,-225,329
62,87,80,13,-262,333
72,106,80,0,-278,308
72,117,82,-66,-266,290
77,122,79,-29,-211,269
82,-122,78,-19,-253,273
90,-113,74,2,-204,192
96,-107,73,0,-171,108
-110,87,-25,4314,8184,-6953
-34,12,-60,-2386,11198,-8628
-118,-66,-50,-4426,9279,-6722
81,126,-100,-2231,7211,-10202
7,113,65,2768,4785,-7605
-59,-36,89,1939,-220,-6427
-54,-49,-24,3189,-1432,359
-14,-94,-45,4208,-2818,3129
-60,0,-51,1307,-3291,5012
84,102,31,443,-6394,7274
-6,0,55,-3464,-10667,7792
63,96,-108,-1228,-11681,5312
-125,67,-32,7750,-3005,-1573
19,47,-97,-1870,-277,-4498
9,89,24,-1595,-2410,-2638
43,-107,53,4847,-4693,635
-42,88,81,3930,-2254,1777
-18,61,-122,29,-1133,940
-91,-116,99,3484,-1366,643
82,-43,94,1345,-1305,969
-18,85,66,1374,-689,418
-43,-17,30,1303,190,66
-106,115,-19,1717,294,2
-90,76,-65,1428,460,162
-75,44,-88,990,351,429
-82,-9,-89,717,-151,516
-95,-57,-86,834,-617,305
-83,-88,-66,707,-691,293
-70,-97,-65,599,-248,168
-59,-100,-83,371,187,29
-50,-108,-117,-27,278,-50
-43,-119,124,-368,218,12
-36,106,109,-169,72,-152
-24,94,99,188,16,-279
-14,102,99,76,-50,-147
3,104,94,-22,-2,-64
12,100,83,44,-24,-14
22,101,79,138,-128,48
33,115,79,-34,-215,134
37,113,78,8,-221,207
49,120,86,42,-272,337
55,-121,85,-2,-198,417
62,-111,82,71,-211,371
75,-100,79,30,-219,371
77,-101,71,117,-225,276
87,-96,72,247,-245,228
83,-84,72,60,-189,149
91,-93,67,96,-152,128
95,-96,64,108,-174,121
101,-92,59,51,-179,122
-44,68,-98,-5692,-843,1789
-29,-125,-105,2495,1799,-1305
123,47,-55,2677,-1107,-1481
-15,-95,37,1633,8490,-7824
-116,-118,80,-8037,14149,-7070
-100,40,80,-9895,16765,-5579
-102,56,-32,615,14066,-6389
-75,44,-80,3349,2425,-3389
-30,-17,61,6861,-4398,1361
-40,-23,-95,4078,-1953,3557
18,-4,98,3598,-2959,2806
91,-113,-5,1201,-8137,6677
-69,-14,75,-5546,-14174,7642
107,27,-120,-2146,-11499,677
-34,91,61,7711,-43,-4488
-55,-52,-51,-1341,-280,-4834
51,-111,-9,3140,-1574,841
115,18,18,3933,-6328,4530
24,72,31,-294,-2037,3419
-71,-111,89,2365,-1309,1166
19,-122,13,3302,-1323,531
-103,73,-24,3152,-1179,603
76,44,-49,2034,-1194,930
-2,-90,-20,1361,-149,-97
-2,-112,-95,632,841,-535
10,87,-109,-774,860,442
-65,0,-98,446,-277,-249
-94,-44,-92,1102,-655,-617
-91,-56,-103,995,-324,-517
-59,-45,-110,-2,201,-155
-34,-48,120,-440,433,60
-19,-84,77,-49,408,-337
-11,-108,63,449,166,-789
3,-98,70,-217,-191,-526
23,-97,75,-789,-227,-244
36,-92,81,-600,-326,39
19,-101,84,-79,-256,-244
28,-96,87,139,-333,-118
32,-74,89,-162,-310,258
36,-56,88,-493,-315,671
46,-43,88,-226,-363,609
60,-29,88,387,-341,395
94,-10,115,1113,341,-500
91,-3,103,989,-191,-81
78,-11,74,-6,-297,353
83,-25,57,-266,-23,352
96,-13,49,-864,90,553
96,5,47,-1248,-39,654
99,-47,42,432,-330,97
117,-31,54,604,-290,-58
86,-106,-103,-3957,8270,-6750
72,-110,-123,-8578,13388,-5590
-3,-7,-67,-5773,10596,-4522
-116,63,93,-1786,6185,-3818
59,8,-27,3501,-323,-2310
-43,-9,-54,3715,-1740,-382
35,91,117,2422,-2760,1230
56,98,116,4680,-7406,3883
23,-97,89,2664,-8015,6236
-34,-113,68,-1249,-9776,4043
-63,1,-9,-405,-2636,-2774
77,84,-63,397,-5771,-2491
112,-11,5,3592,-4608,-1637
115,3,23,1645,-1328,1201
46,-119,48,823,-1565,2479
55,79,35,2707,-1693,1749
23,-110,-18,1311,-1434,1188
102,10,18,2092,-1918,146
68,-61,-35,2015,-759,-203
-48,118,-11,1439,-571,-194
-68,-15,-68,1617,506,-212
-89,-51,-121,1829,742,123
-63,-50,-110,938,284,585
-18,-41,-83,235,-551,1206
-34,-25,-85,310,-948,556
-43,-67,-63,1018,-278,-925
-31,-93,-38,-323,348,-725
-37,86,-71,-418,568,-766
-43,-11,120,1466,379,-990
-29,21,-125,1171,50,-502
8,63,-124,-100,116,-31
26,36,102,-383,222,-64
38,7,79,191,-68,-28
39,58,108,-200,-576,375
39,109,120,-1157,-377,655
19,118,113,-1025,-528,421
60,97,-108,482,-178,-115
99,-108,-59,511,-152,65
45,-106,111,350,-884,391
40,-61,87,-1085,-369,701
41,-53,65,-1550,142,804
49,-56,51,-939,0,532
69,-54,43,86,-290,164
79,-46,40,555,-290,-81
89,-33,36,285,-104,-57
118,-38,19,91,-34,146
114,-41,12,31,-149,284
112,-45,9,178,-183,226
109,-37,12,89,-204,254
104,-35,18,-24,-225,252
96,-40,-68,4900,4981,-4212
127,25,61,-1500,7187,-6401
41,-62,-42,-8223,10994,-6134
89,-53,92,-7886,12463,-7575
-53,96,-71,-1887,12702,-6824
15,83,80,5000,1956,-4741
47,14,-73,7544,-5281,756
73,109,30,5036,-3046,2924
66,-120,23,5009,-5262,6847
16,-70,-48,-340,-6564,11520
100,1,8,-8302,-11168,10012
-95,74,-109,-627,-3377,-1887
127,-77,31,2806,-653,-10267
18,-3,-16,5935,-4708,-6182
-113,21,-77,7406,-7090,6353
93,16,-89,-1390,-89,5620
105,-15,124,501,1215,2581
-19,-56,102,9196,-2007,-179
48,-6,-34,4063,-3173,1872
-85,38,78,12402,-1545,-6904
-2,-88,116,-4950,2553,-237
111,-90,-72,-4140,30,2287
56,74,105,-1786,224,2168
-97,-33,117,-2815,639,1778
-46,-20,71,-1700,1180,787
-4,-26,26,-174,1126,-774
27,-62,50,915,10,-2181
69,107,58,2414,-651,-2851
17,15,65,3109,-1036,-2939
33,12,-121,1345,-1280,-1951
56,41,-58,-1035,-1032,-125
18,53,-64,-2155,-483,1458
-2,70,-79,-1082,-800,2199
9,-18,-105,-1352,-500,2299
-2,-79,-121,201,167,770
23,-79,115,1105,483,79
57,-67,85,1582,89,484
75,-46,69,874,-125,790
78,-73,51,301,21,666
75,-62,51,-449,-139,464
61,-66,34,-421,-347,566
69,-59,50,-818,-168,618
64,-79,52,17,-189,13
85,-53,66,-63,-180,191
86,-41,70,-625,-229,189
101,-41,72,-698,-247,274
-117,6,112,-2067,168,581
126,-16,83,-1005,-46,416
110,-43,72,608,-321,-163
124,-10,82,627,-245,-176
-95,66,118,5576,2917,-195
64,4,40,-901,6296,-6687
102,-114,92,-5975,16471,-10228
0,25,-57,-6347,19595,-9564
110,-119,21,4677,12007,-8487
-120,-2,-64,1514,-1872,-1656
-43,-72,7,9571,-2224,366
-110,-42,-3,3146,-8082,8605
82,-27,5,-1774,-10342,8517
-101,-18,89,1990,-12964,8441
-36,-119,79,-3579,-5214,7145
-65,-45,15,554,-866,-2962
-94,-32,-118,-3329,-165,-8770
-104,-79,-15,8023,-6385,-3938
-13,117,-92,2317,-4952,3760
41,-77,-108,-505,518,2924
-99,44,75,2931,1075,1349
-45,23,62,5501,-3799,1095
53,112,-62,3968,-359,1924
-112,46,-65,2604,290,1172
-3,-117,-87,3838,-1489,-984
10,81,-60,729,-1740,1855
-41,94,-59,-1714,-395,1116
-79,-38,118,-607,1009,-514
-63,-120,93,423,1057,-1816
-26,101,109,800,-7,-2158
46,71,119,278,-501,-1384
71,18,113,494,-131,-1837
67,-5,111,413,-70,-1588
87,-14,-124,-297,-215,-1202
87,-21,-127,-319,-290,-625
63,-15,-113,-370,-344,-114
57,-7,-119,-321,-60,278
65,5,-117,-80,-11,786
84,42,116,6,297,1366
88,44,94,867,112,1343
109,56,77,1751,-218,1032
-121,88,63,2066,-222,640
-93,-118,82,288,354,782
86,53,64,2328,-295,-982
-123,96,118,-920,223,1016
93,81,97,-1794,70,1073
93,33,64,-42,-15,506
122,73,74,284,-318,48
-117,97,78,-377,-408,29
-98,90,97,-987,-33,69
-48,73,-85,-1841,876,611
-65,41,-54,-1368,136,506
-107,83,60,733,-742,159
-92,-126,78,1001,-822,-350
87,105,-21,3968,2063,-5055
-96,107,16,-3133,5604,-7007
-66,105,-58,-10282,10612,-4750
103,-89,-21,-11396,14113,-3782
-59,-12,-9,-1367,7754,-5315
36,-78,-95,5924,2886,-5794
7,-112,55,8844,-6372,-2106
49,-89,-41,5195,-3810,3497
37,-126,-64,7882,-5335,6336
86,94,111,-3945,-3684,13730
64,32,-113,-8955,-4201,6351
48,108,27,-1226,-2178,-9676
-126,41,-122,782,-2308,-8477
23,-57,28,5808,-6800,-690
23,-60,3,3346,-4548,2584
47,117,-16,1644,-1240,1584
-109,-37,110,2168,-1230,1542
69,111,-9,2557,774,-43
48,24,-87,1409,541,-532
-78,-104,-77,2296,-249,-243
-78,77,-81,1890,-195,-508
-65,-84,85,2448,623,-981
-42,117,69,2247,548,-790
22,90,103,1819,-275,42
66,-117,-83,472,-1220,1227
36,-58,-53,-2041,-851,2373
-45,-99,-73,-1023,-391,740
16,115,-82,-26,247,321
9,81,-112,893,781,-580
-16,54,114,1236,300,-622
-21,57,124,731,-77,-233
-14,63,-122,-55,-123,261
31,66,126,-523,173,539
67,44,82,11,536,345
67,67,73,-99,124,291
64,100,79,-493,-397,217
65,92,97,-342,-479,70
70,97,106,-40,-260,86
86,105,98,-3,-169,19
107,125,97,-218,-362,219
108,-110,96,-470,-340,117
111,-123,99,-141,-313,22
110,-111,110,-111,-251,138
120,-105,97,16,12,142
117,-95,85,36,-137,237
124,-75,80,-244,-272,381
-127,-63,84,-285,-109,307
-120,-74,73,170,-20,106
126,-65,73,109,-233,125
-123,-59,76,73,-190,214
48,-92,71,371,4265,-5457
-93,-47,-87,-7064,13744,-9522
-58,-39,-17,-12944,17972,-5935
79,79,-92,-568,6141,-5905
-2,-92,68,3254,-1223,-4115
-28,-69,-96,8556,-4730,-1933
-105,13,-69,6257,-6722,5006
104,6,-51,3967,-4427,7592
96,10,-59,-5131,-7309,14467
25,44,-34,-2521,-422,-1931
-18,-51,-39,-971,-4373,-8239
121,-20,-86,4186,-4436,-2658
19,-125,104,1444,-6350,3509
49,16,34,1881,-1448,1392
92,-46,126,1298,1887,565
24,-37,21,1848,-1768,1235
13,115,-37,1703,-973,847
-3,10,-87,1312,-1026,333
-49,127,-73,1699,-512,-92
-63,48,118,2111,230,-265
-49,-37,56,2628,510,-656
-6,-60,71,2240,-224,192
31,-84,102,1465,-431,449
22,-114,114,1079,-671,179
1,-122,-128,207,-266,-103
-2,101,-117,-287,107,-426
-1,38,118,12,304,-474
-10,32,103,269,136,-441
17,29,82,232,147,-464
39,21,67,198,176,-593
55,0,60,467,11,-788
96,-12,74,474,-158,-828
104,-29,72,495,-29,-748
107,-41,90,446,-237,-362
-69,-31,104,399,-197,564
29,82,-104,-1166,-595,1432
106,40,98,-1055,172,481
-81,50,68,-20,475,1069
-123,125,51,-539,-126,877
101,105,30,382,-413,291
98,-125,63,191,-397,168
123,-127,61,147,127,96
-111,109,49,293,183,3
-108,86,38,734,-216,-38
-113,95,46,488,-523,-11
-83,124,55,-110,-667,709
98,-101,95,-923,-621,401
-43,-107,85,-589,222,487
-40,-68,66,-850,82,337
-96,-96,40,-173,-178,-354
-116,-60,123,4042,1580,-4145
-75,-39,-115,-2255,6828,-7762
44,-3,119,-8085,12471,-11565
-125,49,100,-6494,10123,-12017
-28,-111,-88,-5179,1985,-4434
-39,-4,-88,3956,22,-1597
-88,102,-35,4794,-283,1973
-115,21,20,422,3629,6216
-106,-37,-41,396,-15650,9961
-73,-38,-69,-4613,-13797,7172
-70,-105,-99,7342,-12774,2888
118,-41,-13,-18,1409,-2369
-90,20,51,-3654,-3186,-3494
95,-101,-58,6404,-3112,207
117,50,67,-321,-3013,3412
54,-38,90,52,-447,1380
-61,100,13,1375,-81,-425
87,94,77,989,-1451,244
-32,-34,-26,1044,-206,-102
-73,-100,-69,1108,308,-360
-53,99,-102,1260,237,-144
-35,119,-119,596,93,90
-30,86,123,610,157,-403
-8,53,114,737,174,-372
-3,42,113,204,380,-296
1,7,111,133,211,-50
12,-7,110,30,398,-16
19,-40,96,235,73,81
40,-45,91,-70,183,294
49,-66,69,192,61,154
68,-69,71,147,81,276
83,-66,65,57,45,278
86,-64,89,216,-252,174
106,-54,68,297,130,32
115,-72,90,193,841,-332
-126,-68,102,387,99,-123
-81,-39,116,-89,1048,-173
-108,-75,109,1044,-465,-695
-65,-22,-115,-115,961,-643
37,100,-87,-2634,2245,623
18,22,-38,-534,388,547
43,35,5,14,105,164
15,3,13,822,-526,-126
22,-4,25,1103,-503,402
41,-9,14,864,237,195
-7,-36,10,1120,-723,131
9,-67,-6,1685,-704,241
18,-60,-17,1322,-268,85
-6,-86,-42,648,-241,-259
-3,-79,-37,424,-482,189
-16,8,35,-1406,5578,-5590
26,-56,-76,-5375,8365,-7206
22,127,-86,-7839,11545,-8205
-42,-68,-115,-2856,8735,-7688
-49,95,-24,-954,2185,-5282
-84,-124,-66,2256,-1863,305
0,-74,109,4594,-3709,3100
-51,-97,36,1457,-4492,6239
19,104,72,593,-7978,5383
0,-119,-83,-4134,-12513,8367
-90,-19,41,4725,-1212,-1092
-30,57,44,-2507,1328,-5057
-2,-54,15,-77,-3796,-3838
-44,91,91,4725,-6310,873
-30,54,84,1463,-5462,3514
83,107,125,-235,-2363,1672
-88,-7,-47,3371,-1821,392
36,47,75,3333,-533,217
-105,46,-15,1559,52,196
49,-118,-66,2840,364,-38
-56,64,-59,2578,-934,-124
-56,-42,-48,2555,-696,-13
-33,-48,-76,2096,-35,283
-41,-94,-13,1791,-1135,32
-43,-100,-20,845,-515,123
-42,-104,-22,-80,215,-299
-55,113,-68,-854,457,-144
-64,78,-90,-832,87,-63
-59,52,-109,-168,-70,-181
-45,57,-128,117,-47,-314
-28,63,111,137,45,-388
-5,62,92,-24,31,-344
6,65,84,-303,20,-131
10,64,85,-323,-249,-52
22,75,85,-249,-420,177
30,89,78,-219,-236,350
34,108,71,-246,-205,503
38,-126,57,-75,-226,651
47,-105,55,-63,-205,634
60,-97,44,129,-74,548
66,-89,33,302,-57,394
64,-83,20,276,-76,311
85,-83,24,43,-237,119
88,-98,36,164,-328,86
90,-101,64,181,-171,62
104,-109,76,230,87,-77
-103,103,41,849,553,-300
-71,86,12,1095,173,89
73,114,53,537,-639,125
115,97,90,412,-211,-105
49,-6,50,-5862,1510,2031
-22,9,-79,-179,-294,308
52,84,10,3306,-1257,-1104
-127,18,46,284,60,115
80,-27,-5,96,406,-60
19,-113,-50,984,-279,-281
28,-63,-45,-445,-852,477
16,-99,-41,-574,-385,383
23,105,-73,330,243,-21
34,121,-98,181,387,-118
17,104,122,308,-10,-135
-1,88,125,226,-470,31
-2,95,-119,20,-602,463
-6,62,-125,364,-352,204
-1,2,108,893,-271,-229
-74,-127,112,2590,-526,-789
24,-23,95,129,-215,-788
29,78,-90,-2622,-1681,911
46,59,-16,-986,-3174,934
25,71,-21,5796,1121,-2708
-96,-125,104,-230,5722,-6186
4,120,-1,-8846,12686,-7418
-107,-44,-52,-9005,15554,-8740
-61,-53,81,-1095,10101,-7340
38,-87,-116,4126,2618,-5152
14,102,1,3252,-971,2220
-104,-45,-77,1362,-4253,3975
89,36,-7,3494,-6576,3999
99,-110,115,3226,-14661,6095
-127,-89,-84,-6643,-12254,11338
-1,-67,-83,1549,-2892,207
-99,44,-34,630,144,-7778
41,52,-71,510,-478,-4280
-45,-34,-112,5375,-6929,3914
-77,17,-46,-958,-3640,3775
-91,-86,-69,1428,286,250
25,41,62,3135,-1342,-928
-119,-2,33,3821,-1483,89
113,-15,43,2192,-1885,1055
25,62,6,3292,529,-262
-51,41,126,2856,1730,-1639
-49,-46,99,2155,1117,-1395
-13,-126,120,1238,590,-455
-6,120,-121,-395,-32,390
-43,61,-120,-190,-630,63
-32,16,-115,643,-641,-137
-12,41,-100,149,-245,40
-6,56,-108,-456,-513,302
2,45,-124,-490,-463,261
6,45,-122,-246,-272,63
-108,86,121,647,5368,-4458
70,-122,-55,-3831,8729,-6297
-43,34,97,-6864,11263,-8018
54,-57,81,-3282,10919,-9280
96,21,17,-1195,2661,-5259
-6,-46,71,2792,-2806,81
-120,-6,-16,7406,-6640,1695
-4,22,-50,903,-10325,9094
117,26,85,-2188,-11296,7115
107,-18,-68,-31,-2063,3870
12,117,20,1070,-1767,-5936
4,92,-17,-575,-2091,-6652
-36,16,67,3611,-5253,-1434
46,-119,36,292,-3805,3148
33,121,73,-264,-848,1663
-8,5,-98,2028,-1922,-197
-92,90,52,3543,-1497,-332
-47,-81,-40,494,-124,228
38,2,-15,1359,-782,160
17,-101,15,1229,-1076,124
-36,98,-28,1773,-323,47
-50,69,-67,1137,152,-6
-46,8,-73,1337,39,45
-19,-8,-80,900,55,192
-23,-44,-97,683,255,145
-17,-99,-117,791,399,-109
-10,74,109,1419,605,-501
28,21,96,1846,507,-685
33,8,127,1564,33,-258
57,-8,-109,938,-176,98
54,-24,-111,535,-48,401
42,-25,-104,104,-59,693
52,-24,-114,117,99,725
50,-34,119,622,106,453
56,-12,116,595,-113,492
67,11,-120,99,-174,481
68,21,-107,-52,127,108
-128,-21,116,427,296,-465
-114,-28,111,498,-74,-397
-106,-23,127,298,-467,-275
105,28,-101,-751,-491,346
96,61,-85,-1932,-129,399
-89,63,-112,-1222,314,651
-68,96,-128,-381,49,641
-93,120,104,-53,-58,216
-96,-98,116,-297,-133,-77
-76,123,120,447,-110,-245
-69,105,96,869,220,-631
-57,88,80,845,70,-608
-31,80,75,503,-102,-137
-54,107,95,-582,6665,-6278
73,-116,67,-2621,6287,-7153
49,93,-14,-8784,9581,-6405
-44,-118,48,-1412,7881,-8926
-57,91,-23,950,3067,-7453
116,-19,7,1015,-2191,-2215
74,60,28,1598,-1348,-978
15,46,-103,3564,-5917,2574
91,15,12,-481,-5368,4281
-80,-5,42,-505,-7373,3788
48,-72,-82,-1604,-9942,5079
60,-44,-21,-1150,-2617,1723
-2,75,-78,1021,-164,-5230
-47,105,-26,2174,-1603,-5086
-98,96,58,4556,-4336,-79
18,36,-78,3341,-3872,3485
119,115,-55,1768,-2144,2675
-66,106,9,1621,-3031,1570
88,-84,-51,5093,-377,25
111,-2,-82,4667,214,-1272
-45,-72,119,15896,-740,-6561
68,75,-85,-2093,1372,-877
-85,126,89,-3274,-764,900
-89,16,-38,-2450,-287,3442
122,97,-91,-3585,-632,2235
-53,-46,97,-3926,415,2036
-22,-37,61,-2661,1245,642
9,-68,68,-657,1024,-974
28,122,82,1874,156,-2561
34,88,91,2389,-426,-2625
38,57,117,1588,-415,-2180
47,67,-125,-582,222,-1059
22,18,-114,-592,-219,-208
5,29,-125,-833,-266,693
18,60,-126,-661,-423,1491
43,83,-123,151,-512,1826
98,-114,-128,568,-432,1969
119,30,99,-1819,165,1965
-124,29,72,-1205,-223,2274
86,9,75,-514,-635,954
78,-23,88,985,-882,318
77,4,94,942,-723,186
68,4,92,857,-480,229
54,-13,83,795,-410,8
59,-16,69,288,-243,-144
75,-16,65,-342,-138,-236
86,-32,55,-531,-95,-419
106,-46,49,-678,-109,-381
112,-52,49,-612,-28,-538
113,-52,49,-603,24,-511
26,-88,70,2356,3459,-3527
-79,-22,-90,1676,3697,-5026
-111,-20,-8,-2435,5795,-7163
86,51,-45,-6354,9300,-7359
35,-128,91,-5480,9880,-8701
-106,63,46,1043,3579,-8174
107,-79,20,3914,-1767,-4099
73,106,64,2002,-315,-1358
-75,-64,-37,3455,-4808,3243
35,-123,52,990,-6073,5953
-11,42,-120,-1084,-8521,6424
-82,-76,-1,-4311,-9305,6401
-54,123,71,-304,281,-173
-25,121,9,-389,-1684,-4808
6,-6,-49,3780,-2663,-4939
100,-4,33,4923,-5651,-561
-39,-31,-29,2889,-4056,1864
46,18,-85,2608,-1116,1423
-127,77,-113,2080,205,1488
11,-17,-38,2534,-728,1301
-60,108,-70,3335,824,408
36,4,-83,3890,761,101
32,-40,-42,4767,-1481,925
20,73,24,1760,-967,1940
-24,-92,48,-4360,-127,2646
-97,35,-45,-3247,-265,1614
-105,-69,-66,-690,14,-26
-47,12,-65,-2173,1274,-587
6,-24,117,-1709,1888,-779
28,-92,91,343,1113,-1154
34,-78,86,569,279,-966
27,-114,72,1349,35,-1174
43,104,61,1766,131,-1810
61,113,79,691,-164,-1166
83,-107,95,-1348,-54,-222
73,-81,75,-2522,27,726
44,-123,72,-817,-530,760
48,-91,101,-245,-820,883
63,-30,-127,-431,-939,1192
93,-109,-61,3451,-2216,1031
-68,-125,-33,5234,624,-1267
-105,94,114,-2630,1856,897
94,122,75,546,-180,848
91,88,66,1516,-945,395
92,-123,77,390,-587,320
93,-119,94,126,-391,363
102,124,84,-14,172,504
92,123,81,-26,-184,250
109,-126,88,-192,-459,192
123,-117,86,-406,-330,-42
44,-46,59,-330,5628,-3948
30,-27,63,-3331,6908,-4832
25,-122,-45,-7848,10160,-5791
25,-94,-54,-2616,10489,-8451
-49,62,-99,2080,3816,-8897
-64,32,72,1746,326,-3724
76,-127,-40,3146,-4100,4257
-57,-72,-48,849,-4719,5737
69,76,-115,1896,-8716,6371
61,-86,57,-1211,-10286,4987
110,-41,35,-1137,-3418,3303
-30,88,27,-420,842,-3473
-111,-119,-88,81,68,-5226
-69,66,48,3968,-4636,-2191
8,9,18,4135,-6189,3100
1,69,45,1302,-3781,2752
-54,50,64,3027,-2154,1260
-97,-99,32,3264,-720,1857
6,83,21,1882,-427,1181
68,81,-67,4519,-451,310
-23,29,-84,4378,-614,-499
-6,-28,-8,5644,-714,-2001
76,24,-126,3407,1620,-2118
-42,-6,114,-2950,-875,1536
-80,-98,8,-4767,-651,2141
-118,126,-111,-4042,-322,1839
-74,124,111,-2091,712,855
-33,126,97,-413,1126,-419
2,-119,91,668,686,-1423
23,111,88,1361,-37,-1658
22,84,90,1188,-252,-1517
27,60,102,436,-209,-1174
28,48,118,-84,-276,-450
22,58,-123,-655,-442,493
21,79,-122,-791,-519,1121
35,102,-122,-441,-608,1465
53,-114,123,-197,-229,1564
74,-121,127,1119,-533,1073
96,-47,-123,448,-174,543
87,-60,95,850,-222,249
63,-73,87,797,-368,187
66,-58,91,-379,-112,390
59,-53,75,-763,83,419
59,-72,60,-132,-172,188
76,-62,57,-257,-165,143
91,-55,54,-593,-101,11
99,-69,49,-345,-192,-245
106,-64,56,-330,-259,-221
112,-50,72,-839,-214,-205
-122,-31,89,-1644,104,324
125,84,-87,5029,2339,-3203
-7,-26,91,830,6221,-3045
31,76,40,-3703,8301,-4323
-18,99,122,-2817,9814,-7517
25,123,109,-7672,10652,-6295
109,-54,-57,555,8100,-6937
87,6,-81,2931,-2107,-2588
-44,-117,110,3730,-2928,-298
40,72,116,6173,-5034,1703
-115,-61,112,3908,-6524,4884
95,-68,-32,5559,-7845,6628
114,-123,6,-5144,-4661,11732
106,-88,-20,-5119,-1805,1738
-20,-88,100,-4555,1080,-6807
50,4,92,4028,-4587,-5762
-118,-45,79,5120,-5360,989
61,107,-39,1622,-2522,2037
-32,12,-25,2453,-487,311
76,3,-109,2890,-425,304
-60,-74,-87,3337,-937,908
-120,-106,-80,2344,-690,841
-1,-67,-104,3855,-135,-57
4,-42,-102,3366,-127,-170
-26,-21,-23,2181,-1458,751
-30,-4,36,-92,-350,-230
-22,-24,-32,-3162,489,1511
-95,-103,-95,-2526,556,556
-60,103,-122,-612,471,-296
-29,110,113,380,522,-1112
22,126,92,-189,394,-1087
31,103,78,-321,424,-1377
61,58,57,228,281,-1454
61,45,71,474,5,-1314
59,28,70,575,-84,-1025
58,23,93,341,-347,-404
58,17,98,343,-298,129
59,32,112,91,-344,773
76,45,117,78,-277,1284
96,85,111,-292,-13,1704
120,124,89,-365,-52,1954
-111,-22,73,-1901,692,1880
-124,110,78,-3795,-244,2584
104,-12,123,73,-1344,774
121,26,-123,944,-1176,306
110,71,122,-242,-613,367
99,-2,100,1028,-69,-198
105,19,84,583,233,-441
111,-12,74,435,-170,-637
-107,-28,80,-233,139,-440
-113,-36,83,-944,319,-378
-54,-106,0,4140,3729,-4864
-34,-20,66,-1692,7197,-6719
106,-38,-10,-5027,8665,-8213
-14,93,56,-10492,10546,-7200
60,-67,21,-2374,7796,-7533
52,47,-77,1854,-1153,-3544
112,112,127,4234,-1282,-1196
122,-72,-110,3840,-1059,1586
110,62,16,2781,-424,5237
-120,87,63,396,-6940,7250
23,-70,-3,-4262,-10172,1369
97,72,21,1801,-5754,-2149
15,-75,6,1578,-2985,-1142
-36,-44,49,-179,-1618,1270
-92,55,-45,2305,-6004,3508
55,37,-98,6295,-3628,1495
-57,-89,68,2115,-382,2009
86,43,117,1988,-1140,822
110,30,42,2707,328,-603
-46,-69,-25,1198,336,-351
-43,-34,-80,2490,212,-108
-50,-79,105,2837,185,-346
-59,-103,-104,1655,-867,-232
-50,80,-66,1459,-978,7
-36,99,-60,411,-263,648
-46,88,-31,-348,-606,912
-47,75,-63,127,-254,621
-35,127,-68,-847,-6,470
-16,-115,-113,-1422,241,270
13,-79,119,-2452,813,388
8,-118,59,-1107,597,54
-5,107,56,841,14,-626
-12,116,59,1241,-332,-907
23,63,55,1890,-391,-1019
47,69,65,1015,-99,-404
49,87,70,-508,81,379
44,79,60,-717,-136,641
61,84,55,-328,-300,650
76,117,61,-241,-300,635
80,-114,70,-349,-285,621
84,-111,71,-17,-140,503
88,-91,73,21,-100,486
94,-69,73,-251,-84,569
100,-67,67,-169,50,480
114,-65,57,22,103,300
125,-69,56,220,68,91
-93,-91,41,529,313,-119
-87,-100,41,693,-78,-103
111,-87,76,-85,-125,-495
-110,-120,108,-15,317,-544
-44,-79,-20,-360,3804,-7209
-38,9,-97,-8890,11650,-8663
-125,94,-120,-11463,15901,-8350
-95,-87,-63,-3298,9465,-7350
-24,-65,66,1703,-2422,-3711
57,125,-127,7695,-1932,543
-45,75,59,5670,-4182,6245
-22,-111,-86,588,-5370,8824
120,15,104,-3713,-9562,11443
-109,68,-83,-3210,-2742,2309
37,-85,-110,1689,-3164,-7254
-128,101,-45,-2929,-1246,-3891
-91,-67,14,7332,-9303,3639
27,-31,54,-4573,1210,1962
-91,-111,38,1610,-1301,-617
99,-22,120,3492,-2923,-241
-34,121,77,125,59,57
-109,-22,33,42,1090,-675
56,-84,-11,565,238,-216
-42,89,-90,805,-72,-560
-111,-6,62,904,92,-658
-115,-72,11,962,55,-368
120,-108,-14,977,-1036,356
-59,-42,-93,508,-2797,1269
122,85,-3,-275,-602,1476
72,71,-65,-23,1070,341
12,6,-113,249,285,114
-48,-38,103,365,-267,248
-62,-85,88,423,-309,234
-41,-93,78,383,-49,305
-36,-112,62,264,91,390
-21,-126,58,189,-212,453
-1,115,51,665,-119,362
19,123,72,630,-297,372
39,126,90,414,-286,307
67,101,79,799,-18,-47
33,62,60,1271,188,-360
45,60,82,950,-180,-204
55,50,84,779,-256,79
69,58,86,269,-172,231
80,53,85,72,36,24
96,62,88,-128,55,2
100,50,82,103,-62,-204
125,54,93,54,78,-244
117,42,73,431,-249,-261
-116,63,82,41,54,-16
-119,57,68,41,-115,-79
-112,58,67,22,-164,-24
-104,65,62,-39,12,18
-100,71,62,-9,-175,119
-34,6,-87,2249,3582,-3410
-108,-34,71,2126,4668,-4436
83,-112,-75,37,4713,-7328
-80,-28,-105,-2727,4829,-8452
-4,-88,17,-4771,3320,-10660
76,-28,-71,-3332,-377,-9377
43,-98,-16,-2020,763,-3394
9,-92,83,5145,-1002,-627
-63,71,27,1082,-2164,4953
113,25,34,1090,-5007,5255
-118,-120,21,2244,-6546,6219
-6,-103,91,-2737,-8439,7270
-19,-118,120,-1826,-2863,4260
96,-32,-76,-1810,-1424,-1005
75,112,-17,2325,-4241,-3556
-119,30,-40,1945,-5470,-1178
69,-98,-11,889,-3135,248
41,-84,71,804,-2316,496
-56,112,15,2085,-2141,-126
-23,-63,28,1842,-1520,322
85,-62,-24,1688,-739,303
77,-105,-10,1954,-1002,94
-27,-127,-52,1715,-436,-763
-76,81,-57,1106,-216,-318
-103,17,-72,656,386,-237
116,-32,-91,678,-98,-155
-99,-41,-100,490,62,87
-93,-57,-84,38,-253,383
-73,-101,-98,-185,668,145
-66,-116,-101,-80,392,438
-67,-116,-113,-303,127,353
-40,126,119,454,-178,394
-21,-94,124,-72,-179,376
-21,-115,105,185,104,-146
-10,116,100,556,137,-575
16,-117,96,66,355,-443
38,117,100,382,36,-255
42,-128,99,259,-87,-59
49,105,97,586,-229,-109
59,117,101,257,-220,108
64,-126,94,-61,-114,263
64,95,82,675,-305,48
73,98,83,798,-343,25
85,120,85,243,-260,180
89,125,83,-241,-159,298
93,125,79,-278,-164,288
92,118,76,13,-190,131
100,125,77,58,-173,82
103,-125,71,-52,-130,121
110,-125,64,-54,-132,135
47,-19,45,857,3029,-5568
8,-76,17,1107,3030,-7686
-52,-75,-87,-3844,4866,-8895
89,-85,-47,-6724,7791,-10197
50,-66,92,-1592,6211,-11548
122,110,4,-1767,600,-6808
19,-124,-51,1814,-256,-1245
67,-3,70,4111,-1865,2035
-86,-74,-72,1030,-4979,5914
-66,-119,-27,-2353,-10769,9348
-91,-84,-35,-3330,-14703,8074
110,-91,-69,-1424,-74,2839
-81,-90,-87,-1870,1512,-4843
-57,1,122,1459,-1100,-7712
-92,-11,-51,6134,-5992,-2944
102,-124,-67,1365,-4334,2511
-20,-97,-67,267,309,1764
109,70,98,1558,453,202
-101,50,111,2402,-757,992
110,11,-55,2899,184,878
15,-31,-106,2376,-125,672
32,108,-58,2977,-826,401
17,86,-100,2112,155,357
1,1,-121,1892,23,544
-1,-71,-98,1409,-687,738
4,-119,-105,1405,-763,723
15,123,-90,894,-674,467
20,-122,-77,-246,-186,203
1,115,-90,-933,158,-123
-13,35,-115,-177,152,-580
-8,15,-118,511,2,-784
4,10,-126,648,8,-810
30,8,123,446,66,-617
51,16,119,-210,123,-107
51,5,104,-235,33,8
58,-6,89,174,-83,40
66,11,90,106,-145,257
73,27,87,73,-175,377
79,52,89,-36,-285,644
84,67,88,-122,-256,733
87,84,91,-73,-250,705
96,101,87,13,-153,528
100,112,81,0,-178,383
103,121,74,-36,-162,257
104,124,69,-34,-169,52
106,119,66,32,-182,-34
109,123,65,-70,-169,-51
118,122,59,-81,-134,-95
121,121,55,-61,-167,-134
127,124,51,-97,-178,-118
-42,-92,92,2584,2404,-4759
-51,-8,-8,-195,6789,-8498
78,-61,100,-6676,8455,-8878
-65,-61,118,-7834,11795,-10679
64,-60,79,-3636,6109,-9206
-38,6,115,1610,-569,-2840
50,47,95,3317,411,745
106,-47,81,3781,-2861,4758
28,-50,58,4742,-5806,6160
87,-57,-119,1212,-10209,9604
70,-8,-52,-4732,-12601,9029
114,-89,-82,-3926,-2695,4739
11,-100,7,-947,1663,-4638
80,43,-79,2760,-2000,-5757
-98,14,-70,4727,-3581,248
113,-70,93,1482,-2627,2094
126,-86,73,262,-49,319
107,-88,67,4157,-647,-472
80,-34,-5,3741,-42,371
54,5,-84,2180,1371,974
3,123,-94,1993,627,1118
-5,83,-66,731,-664,1480
0,0,-88,364,-1135,1290
18,-99,-107,1676,-888,533
47,-110,-113,1558,-397,288
31,-66,-124,-143,402,139
7,-87,115,-977,576,-217
-3,68,84,116,360,-989
22,44,95,769,-5,-1314
42,44,99,562,-56,-1123
74,38,107,10,-39,-720
79,34,104,-256,34,-405
62,16,106,11,-169,-207
60,9,113,610,-255,-12
80,46,119,303,-244,371
99,66,123,396,-8,347
106,71,103,493,-126,474
109,86,107,375,-266,693
114,111,102,119,-230,784
113,113,95,-77,90,379
-118,74,60,192,161,-11
102,78,98,132,-577,400
-106,101,97,-157,-117,369
-128,94,76,261,150,-86
-112,63,58,406,-188,-14
-92,96,67,67,-264,351
-98,84,74,144,86,-141
-108,76,77,280,150,-101
-84,103,94,-215,61,154
-70,-111,92,-359,-253,359
-14,-30,-116,365,4154,-5893
13,-83,-124,-3435,5029,-7351
-60,57,-59,-6614,5862,-9415
112,-108,96,1075,5396,-13448
87,59,-88,-3109,371,-10128
-41,121,1,-2551,1672,-4393
8,25,27,6741,-445,1247
-96,-64,26,585,-1984,8842
66,45,-123,2049,-6150,8865
-100,117,58,537,-8853,8662
46,-28,-108,-4545,-12089,8375
12,59,-105,1361,-3497,2970
-50,3,116,-2472,1574,-4630
-92,-87,-1,-1352,726,-6047
44,38,-20,5818,-3210,-1586
68,-106,81,3559,-4654,4370
118,67,118,-1992,-2258,3693
7,-47,94,1941,-1387,541
10,-35,3,4646,-588,850
-56,33,-35,3205,-1066,1080
83,-118,-126,3960,-430,618
14,123,80,3119,-221,741
-3,76,-102,2118,-1801,987
30,114,-7,-74,-1903,1837
-41,118,-6,-1470,-569,1037
-101,-18,-37,-145,661,-1033
-84,-68,-54,736,968,-2204
-45,-87,-113,34,819,-2056
-7,-114,112,-628,748,-1373
21,-112,77,-1932,26,-289
22,113,67,-1249,289,-438
16,-128,44,-1391,-279,-174
7,102,60,1001,534,-1705
5,-114,90,512,-578,-945
11,-111,98,162,-592,-245
5,126,105,154,-309,280
2,-122,99,84,-172,813
10,-100,90,-39,-369,1265
35,-64,84,5,-456,1605
55,-65,66,1191,-665,1135
84,-12,67,759,-231,953
91,43,60,-768,47,1212
73,42,52,-1439,79,1480
59,22,46,-746,-232,970
64,21,54,277,-295,289
86,52,59,152,-142,56
117,66,48,-285,151,-79
111,32,29,83,180,-578
107,-3,22,589,-73,-942
124,-20,19,393,-79,-1017
48,-81,81,-2917,4950,-6798
117,41,127,-6698,8777,-7261
-101,117,76,-9000,11422,-8158
-101,-11,19,-4715,5540,-7627
-60,-14,101,-2521,1492,-4449
-57,93,-49,4145,-560,38
21,-109,-119,2186,-3174,4836
117,102,110,2707,-5238,6096
-113,7,-67,3025,-7288,6001
96,-35,-30,-964,-10114,9425
-92,69,108,-430,-3863,3686
-54,85,54,-3309,-724,-4778
16,-120,74,-126,-1233,-6456
-4,-48,-6,5883,-5079,223
51,17,88,1916,-3432,3819
91,59,121,214,-214,1594
102,55,13,5364,883,-548
69,-29,110,4735,-801,1838
-33,-104,37,3297,-296,1777
97,102,4,3706,716,1014
-9,28,-25,1409,-739,1869
-33,17,27,-585,-1919,1518
-8,12,-23,-1978,-365,932
-72,-88,-114,-1328,1545,-972
-60,81,122,-598,1716,-2437
24,-22,102,866,839,-3319
84,-67,106,2138,-132,-3126
126,-58,-125,1435,-537,-2307
-74,-39,-85,-525,-528,-1463
-111,-68,-85,-1129,-547,-766
90,-82,-78,-591,-738,-5
52,-62,-74,-368,-485,797
61,-28,-75,-224,44,1990
106,7,-111,184,1117,2898
-123,62,-78,-732,1071,2388
-59,23,104,1479,-786,2089
-46,113,94,1890,-1541,1754
-109,-43,117,-758,-1052,1787
68,-15,78,-2769,-120,1071
25,-54,44,-2161,388,311
46,-49,75,-954,-156,-95
59,-37,90,-4,-555,-326
86,-12,102,-374,-139,-656
-64,-84,-66,-6114,1001,3424
95,-36,62,-3109,340,1955
74,-58,28,2666,43,-1750
67,65,52,378,-820,-1430
-101,31,66,-17,-348,741
-119,42,58,1015,70,33
108,43,32,1644,13,-889
-32,-14,84,3298,3490,-3324
51,-61,108,-2495,6157,-5118
103,-12,-122,-5366,9665,-7450
1,40,-12,-6476,13311,-8509
53,25,68,-2675,4307,-8673
111,106,59,-1358,-2781,-1140
46,45,87,3598,-1360,2174
46,-115,43,1851,-4920,3085
110,100,-30,999,-8876,5529
73,-15,-90,396,-10439,4970
-96,33,-57,-5663,-8680,7388
-74,-39,-3,687,2099,-5417
-127,64,-112,-1770,-2375,-8066
-42,119,25,3952,-7220,-583
41,-18,-32,366,-5227,674
-106,-83,54,2494,-194,-929
-24,49,-58,2553,372,-238
104,-121,-126,2026,-1534,1523
-123,-107,-126,4063,926,466
81,-103,127,3971,-447,273
28,63,-105,4372,-774,100
-58,40,-102,3186,-1916,61
14,70,-15,-1032,-1350,1912
-65,41,-32,-1837,190,397
-99,-58,-92,-870,572,-304
-83,-71,-78,-897,214,-284
-76,111,-112,544,96,-1157
-57,86,121,1462,132,-1509
-34,82,114,804,87,-1477
5,51,102,249,157,-1091
12,47,100,-313,32,-560
4,46,96,-645,-119,-252
15,35,78,-463,-96,-29
20,43,70,-227,-92,286
28,71,62,-275,-122,673
40,111,49,-403,-191,940
46,-118,46,-362,-256,1045
49,-85,48,-359,-272,920
46,-63,46,-225,-296,651
66,-64,49,78,-313,448
89,-51,57,264,-265,512
63,-39,40,74,-174,231
54,-51,61,292,-590,15
40,-63,76,507,-249,-83
67,-62,64,-82,44,-92
98,-62,55,-202,-118,349
84,-57,34,-326,-59,-7
90,-87,17,256,-211,-277
84,-54,51,-350,-655,322
113,-22,62,-1177,105,425
47,-56,-59,-4579,6886,-8229
76,-18,55,-9913,12539,-7145
-49,-62,-79,-7791,10604,-6071
-81,-83,79,-3446,4084,-3928
14,-22,-94,398,1184,-3327
79,-68,-53,-1057,2114,-241
-63,-115,-115,-321,-1541,4116
-39,-99,-11,101,-6786,6034
-28,-41,43,-50,-10300,7295
-17,2,-119,-1609,-10925,4891
-114,-7,104,2539,-3730,823
-43,-112,-88,-2216,604,-3841
20,9,126,378,63,-4808
64,37,68,5523,-5028,565
-5,85,104,2825,-4388,4087
-128,72,-104,582,-1889,2400
-80,-57,-59,2828,-1166,1860
-122,-111,-67,3586,-444,1443
24,-125,112,2735,-107,1398
-86,57,-87,2516,-571,1032
-13,-104,-105,6000,-1492,-2329
10,-122,-31,6461,-381,-3621
78,6,99,-1590,651,126
-41,34,20,-2817,-204,672
-39,-48,-43,-752,-81,497
-3,-12,-40,-1421,215,592
28,-7,-89,-1849,194,402
43,-19,-121,-1280,62,-11
48,-40,-124,-159,-228,-789
54,-39,-123,372,-505,-535
41,7,-120,-1108,-404,612
11,43,108,-1707,-50,871
55,50,84,53,-121,382
76,127,104,64,-415,534
78,-70,100,-392,-214,253
84,-78,91,-401,-85,88
84,-92,87,-133,-200,79
91,-87,83,-87,-147,173
102,-67,80,-308,-117,334
106,-36,78,-511,-163,395
94,-6,122,-791,-119,162
117,-16,-96,-793,161,107
117,-59,84,89,-167,205
-127,-37,59,396,-146,283
-125,3,63,-117,-126,381
-124,8,54,-446,-235,61
-115,-13,73,-300,-136,21
-90,-36,120,225,-56,80
-95,-24,119,575,-214,107
-102,-4,96,423,-248,53
-18,-85,88,2999,3551,-7459
-6,-14,28,-541,4380,-7420
74,38,-113,-889,5912,-9650
99,108,-99,-101,3073,-12907
15,-29,87,-2855,1008,-11684
47,-6,124,-1309,1228,-9235
-15,61,3,-1209,2352,-302
-96,-5,101,3102,-422,2576
41,26,-42,264,-5413,5726
-83,40,51,708,-6701,6458
-87,-22,89,-1234,-8503,6110
-30,-109,-64,-3749,-9133,4496
102,-8,87,-19,-10687,3661
73,97,-26,1774,-1588,3219
-72,-74,101,-7233,885,-2138
-125,28,-23,1910,-177,-7299
-57,3,68,8066,-5482,-3376
-13,75,-119,2290,-3557,1136
-57,-39,106,2634,-1715,735
29,127,-16,4505,-18,818
-21,113,-75,3263,99,3737
48,83,-96,2806,611,3156
-13,-39,10,4454,74,1938
82,29,45,2684,-5863,1164
-124,43,-113,15589,-2319,-3723
-53,-33,112,-14375,3045,-1352
-58,-100,0,-5590,1285,118
-109,-1,63,2194,122,1012
118,-120,-81,1858,-581,-357
-84,-81,-113,1085,-269,-575
-36,-62,104,-237,328,-389
-32,-80,111,-1195,-220,-407
-11,123,97,-363,-476,-425
0,-127,113,-135,-656,-206
-35,-93,-122,-777,-742,18
-51,-101,-118,-637,-683,24
-53,-100,-67,-361,-1077,204
0,-128,-37,2230,-1222,664
67,-33,-38,2290,1243,-761
7,-9,118,-1571,412,699
7,-12,78,-2786,229,1431
12,-45,40,-1280,72,1145
19,-22,66,-56,-241,642
32,1,72,440,-355,338
58,32,70,315,-294,204
62,41,67,-21,-277,157
62,26,69,-59,-341,24
65,19,77,-239,-365,24
76,33,107,-977,-173,102
-121,41,-85,-1533,245,563
19,58,-94,1773,3449,-3756
68,-65,-59,125,4266,-6028
-66,-59,87,-6790,7995,-7870
124,-54,-64,-5676,9398,-10904
-54,103,61,-3488,6842,-10310
-31,3,-106,-405,-1023,-5205
112,45,111,4636,-604,-2096
87,110,49,3690,-1148,1652
30,-100,-92,1152,-3145,4520
123,-2,35,3731,-5484,5074
36,122,-74,-2402,-7235,8427
-50,18,82,-5146,-8380,5543
-101,-125,-14,3847,-1987,-1376
-29,94,15,-1592,-971,-3694
-36,68,-48,3467,-3489,-3796
58,101,-17,5304,-3772,1665
116,79,-27,3176,-3350,4106
-94,-74,-41,1291,-1801,2696
-65,37,38,2969,-1941,1278
-27,-16,-42,3301,-786,1254
100,-43,-15,1615,49,686
-27,82,-56,2407,-348,-26
-52,87,30,1627,-1867,-76
-69,23,-118,2587,-1728,-1047
-77,-30,83,3393,818,-1524
-97,34,104,-1742,723,-82
-97,-97,-8,-3063,319,715
-64,116,-80,-2076,657,129
-13,-121,-124,-1352,721,-380
38,-105,93,-768,591,-987
46,123,81,-52,438,-1434
61,84,71,648,331,-1713
51,53,66,905,112,-1636
43,38,75,630,-166,-1190
28,30,91,124,-469,-441
22,40,103,-442,-653,416
20,54,106,-555,-713,1049
41,95,101,-678,-346,1637
57,-86,122,-1389,-566,2102
63,111,-75,4041,-2620,2203
-111,114,16,9993,200,-5042
-112,58,-106,-3016,2284,-600
122,81,67,-4070,664,2182
63,68,36,-2835,99,2095
46,78,18,-308,-560,1194
85,-103,60,739,-366,651
105,-51,56,-369,-226,562
95,-52,44,-173,-276,-23
110,-60,55,-158,-580,-215
102,-67,65,-537,-695,-400
57,-92,126,5411,-338,-6002
-72,-93,12,-469,3703,-5032
-28,54,-116,-6363,7187,-6936
-36,-39,-27,-3644,8018,-12057
-73,-128,46,2641,5917,-14123
-124,-65,87,-843,-939,-8313
15,-98,52,-1258,-255,-6204
-110,91,10,1640,969,-1568
-44,38,-95,2023,-122,3788
87,43,-88,535,-3232,5771
-112,-3,-122,-649,-7072,6390
4,-4,-92,-2075,-8428,8435
-105,36,102,-1982,-10539,7589
-61,-98,-15,-3059,-9321,6762
-119,-70,127,1358,-2052,1342
-113,4,85,-2702,1286,-5779
-101,41,78,1653,-152,-6626
-112,61,-47,6049,-3282,-1781
-112,106,-67,2920,-3054,2962
-68,-108,24,-255,-2412,3077
2,46,106,2288,-2826,1852
36,-7,59,3527,-1304,163
-63,-114,2,5536,1080,-1379
64,124,43,5665,1380,-418
-15,-75,-54,2008,-254,1082
-74,105,31,-1083,-1682,538
-54,-79,15,741,-1514,-80
-75,-109,4,1242,-355,-540
-83,-82,5,-1122,321,-256
-74,-126,-67,-1547,426,-41
-52,121,-103,-1282,117,-140
-34,-122,-121,-1002,-93,-289
-7,-120,117,-640,28,-585
5,-124,104,-300,173,-666
-3,119,89,91,70,-668
-15,114,83,274,-123,-477
-5,120,79,45,-161,-54
19,-108,73,-469,-154,496
30,-95,59,-565,-152,746
33,-80,54,-322,-288,776
43,-53,56,-102,-320,762
53,-28,61,-172,-291,723
57,-18,57,-73,-251,576
53,-19,59,197,-303,335
60,-29,60,504,-257,245
68,-27,59,353,-226,333
76,-19,52,125,-222,455
75,-10,54,-138,-291,452
76,4,65,-358,-276,363
79,2,81,-244,-172,136
-57,10,-89,6208,884,-2760
-88,-126,37,-750,4804,-5624
92,-122,-82,-3580,7210,-7428
85,-2,36,-10273,10494,-6939
92,-31,-103,-5891,13278,-8507
79,-65,60,821,5537,-8023
110,-83,-60,-2074,188,-347
4,-83,81,4758,-1482,1679
8,-36,20,4596,-5683,3305
-78,85,-14,1888,-7090,4660
-89,-95,-87,-503,-8626,7475
110,-114,-81,-3358,-9790,8019
110,8,100,1505,1726,615
14,126,50,-2234,114,-3950
42,32,-43,2372,-2917,-4675
-60,79,30,4912,-5417,-939
104,-113,-128,2615,-3703,3557
45,89,-113,-512,-1029,1519
8,-75,13,1552,-2962,1044
57,119,-35,4451,-1831,1309
7,11,-30,1133,-787,1977
-58,94,-14,2875,13,1488
87,61,-106,3344,753,990
21,23,-2,3544,-1847,1142
14,61,-7,2551,-2015,1177
-64,33,49,118,-1416,-32
-84,-56,31,-210,150,-1025
-72,95,-45,-107,1505,-1587
-40,85,-83,-1403,1365,-1526
8,52,-77,-1401,-41,-1157
51,-46,-122,726,-49,-1322
50,-38,-89,1195,-384,-1695
59,-32,-95,550,-73,-1612
83,-28,-94,-479,-49,-1045
80,-38,-111,-843,-92,-408
60,-59,-107,-227,-365,112
50,-54,-119,305,-212,533
56,-14,-117,78,-218,1079
67,19,119,-33,-141,1607
90,50,104,-265,-244,1948
115,99,93,-439,-426,2131
99,124,85,447,-587,1254
92,-117,72,1528,-517,92
104,-69,112,497,-345,297
62,-112,126,1734,-70,-1097
78,-71,-86,-405,-251,331
64,-68,-124,-2070,-22,858
89,-76,66,-2099,325,949
112,-70,51,-1766,430,254
126,-95,44,-236,144,-718
-91,-114,41,1828,3315,-3288
11,-4,107,2873,6284,-5122
-46,-112,-30,-1470,6433,-5550
41,22,-64,-4812,9290,-8188
-38,102,-18,928,8191,-9891
33,97,-29,1180,3798,-11221
19,-128,6,75,1900,-6002
107,-73,81,3154,1485,-411
-4,48,31,2842,-2321,3229
-58,74,-19,226,-3653,6232
49,80,51,1004,-7189,6411
-55,54,-27,-968,-7488,5970
-95,86,106,-703,-9032,4080
-76,-40,29,3591,-7382,3139
59,117,98,2438,-3323,1947
47,18,-45,-2889,-916,-2446
-80,6,-33,1686,-470,-2924
89,48,26,3869,-3351,2797
34,-49,69,644,-4688,4030
62,93,-99,644,-3160,850
33,83,10,6047,-54,-204
7,-26,-58,4240,796,1275
118,-120,54,4192,1177,1626
33,105,-8,2060,-1579,2199
0,89,7,566,-2065,1868
-50,-96,-4,-1475,-653,2523
-111,-112,-41,-2307,451,1228
-122,127,-44,-1682,546,293
-90,109,-44,-1203,462,-727
-62,52,-74,-99,578,-1754
-32,1,-111,344,642,-2331
8,-19,119,-288,669,-1910
19,-16,98,-3028,11,-484
-30,-94,3,-9019,-872,3173
-85,15,-37,-2390,30,2791
-77,82,115,-813,724,55
-52,-127,-71,473,69,-1430
-14,88,-82,2909,-674,-1145
-8,75,-89,3848,-526,-1091
9,24,-127,5013,-223,-1058
8,29,98,3750,-311,-604
26,54,85,855,47,352
37,82,97,-1759,95,1767
16,98,93,-2797,-318,1947
42,90,112,-1480,-414,1182
61,50,95,646,214,115
62,72,95,650,-21,-619
83,41,93,705,-5,-1065
-91,27,107,197,1573,674
119,-127,109,1245,1301,25
105,-74,-9,-1824,7927,-8640
-62,65,99,-6486,8699,-7665
19,-6,124,-2755,6614,-10730
-11,45,48,-355,4212,-7974
28,15,13,-3378,1361,-3089
-7,119,-128,4441,-1641,-1570
121,-84,81,-561,-2990,3615
-7,-99,-61,1415,-4778,3420
24,-52,85,231,-5559,6482
-65,96,-128,-817,-7602,5274
1,76,73,-1006,-3660,2515
67,-15,-68,578,-3735,-966
-55,-107,-109,482,-3022,-5023
-62,63,57,3156,-2928,-2746
-69,-53,28,3456,-3163,2557
-51,93,0,728,-1585,3638
-81,-31,14,2471,-1811,2130
43,76,-94,3961,38,368
11,-75,-40,6847,558,727
-125,-25,110,3153,-605,3388
-71,89,33,918,-2311,2688
105,20,-18,2218,-1646,1916
-17,64,-26,1066,-428,813
-100,45,-11,-1191,-29,-766
116,108,-53,397,384,-1928
122,62,-63,1422,-188,-1854
-103,77,-36,411,-612,-1037
-39,107,-49,-1181,-365,-36
-1,111,-99,-2408,234,-77
29,100,114,-2311,357,-367
38,99,64,-1963,256,-654
29,100,43,-1436,303,-1003
24,98,71,-718,108,-1246
21,86,73,-41,-209,-653
10,71,70,1390,-51,-613
-1,98,75,1325,-193,98
6,115,72,560,-220,869
36,-106,67,-214,-165,1390
62,-86,61,-359,-458,1570
86,-50,67,-410,-394,1341
81,-21,69,-431,-243,1310
75,-43,67,345,-336,638
68,-48,82,1148,-456,305
83,-19,90,489,-219,296
86,-25,79,2,53,195
105,-63,72,186,118,-6
99,-79,67,466,203,-291
121,-79,69,269,329,-405
118,-80,78,5,264,-368
-89,-105,54,4,140,-294
-57,-31,-29,2746,879,-4429
-67,-120,-26,-2218,1811,-4131
18,104,64,-1401,3581,-8656
110,67,61,-8983,9548,-10419
65,76,-59,-5661,9627,-11684
57,-51,-108,-1041,1504,-7762
39,15,-121,247,-363,-2397
26,55,82,3439,-816,1722
-16,-5,-72,644,-1921,3707
-84,75,-99,4133,-5564,5693
-62,-44,-87,-2085,-6604,8347
105,-27,-110,-2243,-8750,6017
35,81,18,3814,-1085,-351
6,-115,-79,-4013,-1661,-889
38,6,-75,1599,-4589,-2147
-37,-63,-102,4639,-4901,471
71,67,-60,1803,-2149,2571
86,-71,-127,489,-639,2267
-119,53,58,2151,-2382,1303
-3,-92,-86,4253,337,550
-114,-95,-45,3224,-131,735
94,-53,-77,5256,-34,785
31,-25,-117,5166,89,932
24,84,23,1078,-869,1419
-33,72,-33,-2397,104,1779
-89,-60,-67,-2097,247,209
-98,59,-124,414,876,-1611
-41,56,-119,1147,357,-2215
10,66,-118,384,-214,-1874
68,50,-112,-612,-339,-1467
84,22,-121,-1052,-190,-1261
76,8,126,-939,-241,-1049
71,8,127,-671,-405,-776
53,18,124,-417,-433,-403
34,43,122,-567,-521,73
44,66,-100,-359,-649,654
44,75,-117,204,-133,854
68,106,-111,195,83,1064
88,123,122,454,65,1373
111,-98,117,151,141,1582
115,-69,101,70,-189,1459
114,-27,82,-60,-416,1135
119,-3,82,-574,-460,1042
98,0,77,-668,-272,653
82,-11,73,-468,-351,206
83,-13,79,-71,-345,-126
101,-11,77,-269,-174,-407
115,-13,73,-491,-103,-406
127,-31,87,-762,-112,-542
-78,31,-112,-4112,546,1299
58,36,25,-3738,-2124,3251
-98,-69,78,-597,-3130,2364
-116,-97,26,1059,-2278,-919
49,-8,-44,3204,549,-4673
-24,-75,-55,-2226,4181,-7328
97,83,-122,-5410,11298,-11686
-125,112,84,-10157,14708,-11318
55,-111,13,-4344,6083,-9597
19,69,-84,-1609,-2477,-1159
-75,-101,-63,3271,-697,122
-123,-1,38,3179,-3897,3746
-44,-30,-119,604,-4368,5504
-124,60,-24,3255,-7028,5376
120,80,104,-3149,-10107,8811
-120,-119,70,-3295,914,-969
-47,17,76,1976,-2020,-4873
-44,-78,-66,622,-5236,-1923
36,32,-47,2162,-7966,68
-26,-82,106,2126,-3606,615
57,0,54,2262,-721,1284
-124,51,-87,1248,2248,620
31,88,-85,1452,754,920
43,12,-127,1433,-2348,1357
111,-61,-51,2979,-803,1816
-18,-47,62,1985,484,1072
-39,123,78,1794,-187,287
-18,-11,109,3412,-1970,-123
41,-56,-99,3950,-2728,407
31,47,-52,142,-1035,567
-33,2,-20,-2409,299,-621
-5,96,-67,-586,1127,-1925
25,25,-89,573,903,-2588
60,-14,-106,899,437,-2666
84,-21,-123,886,385,-1858
94,-31,119,369,397,-1077
86,-27,106,-283,443,-444
86,-28,93,-363,128,31
104,-12,94,-250,-365,798
105,18,95,-213,-400,1152
111,56,93,-284,-332,1355
116,83,103,-247,-497,1546
-127,110,106,-140,-515,1551
-127,-104,126,-135,-599,1374
121,-102,-121,97,-518,823
-126,-105,-120,356,-264,287
-113,-96,-124,262,-17,-20
127,-79,-123,-280,-43,-27
107,-103,127,-36,53,-369
115,-126,101,196,267,-666
-122,-122,90,1,80,-545
116,117,74,-2666,4249,-6226
51,101,120,-4395,6417,-8635
98,57,32,-6581,7097,-9542
-75,30,7,-766,4419,-9934
-106,59,12,-1059,163,-5678
27,45,-89,348,-722,489
-43,102,29,933,-1162,2206
-15,-73,-24,1054,-2435,2603
51,-102,104,1709,-5398,4266
-111,-13,-32,126,-7969,6629
-18,20,-47,-5556,-9272,7318
26,73,100,-3249,-2046,1186
60,125,-126,79,-265,-3819
-31,15,118,3374,-2165,-6365
-96,15,-88,6999,-2120,-2742
-88,-123,84,5622,-1774,1989
127,23,-90,4122,-1125,4372
-104,-38,76,1353,1124,4019
-100,42,-114,3074,-319,3324
-14,-86,118,4847,-1400,3090
63,-90,-77,3066,-2769,2318
17,-16,8,-941,-2539,2176
-32,7,1,-2465,-772,1522
-108,59,-62,-484,1358,-1243
-123,-49,-76,570,1690,-3840
-44,29,-96,1096,1035,-4919
34,-100,-103,2201,331,-3737
-85,56,-81,-959,161,-522
-94,26,-92,-2395,-546,-244
-123,-20,115,-1079,-504,-1108
51,-19,-121,-323,-359,-1218
33,13,-111,-288,-191,-415
2,36,-120,-25,-56,642
4,67,124,-32,4,1350
31,91,106,227,-223,1773
86,118,93,762,-600,2032
121,-99,108,620,-795,2046
123,-62,108,196,-532,1783
83,-69,92,418,-229,975
66,-63,98,333,-267,299
60,-57,100,165,-265,108
53,-81,101,312,-187,-251
63,-105,89,491,-76,-594
82,-115,83,293,-52,-675
96,123,70,91,-83,-852
101,97,69,193,-187,-1044
104,87,77,21,-300,-902
112,87,85,-206,-311,-512
116,85,86,-177,-260,-125
109,98,83,-220,-210,190
-21,-87,-86,5473,-3404,-2861
76,30,-12,-834,0,-2385
31,36,75,-5073,3140,-3702
-3,82,102,-6067,7900,-6129
24,104,124,-8943,9904,-5500
-59,99,-97,-4963,9042,-7182
-85,-8,-7,-2211,4590,-5775
-59,-109,46,267,1530,-2839
43,100,126,186,-1787,3057
125,-50,-70,2407,-3361,2162
22,-84,76,2910,-4909,4579
-41,123,113,-2763,-6913,6806
38,64,-9,-1611,-4790,1400
-81,-56,3,1972,-2427,-2586
-25,72,-101,530,-3227,-2211
20,-112,34,1991,-4396,-234
20,-30,59,2462,-5388,3026
80,29,90,3095,-2731,2121
5,48,56,3886,-2108,1831
25,-100,0,2677,700,1958
-26,72,-28,2027,-194,1438
100,-6,-89,2046,86,1384
-12,-59,-58,836,-1580,822
-44,88,-71,1111,-1207,-75
-58,-25,-113,2155,-733,-741
-53,-25,-73,1335,-554,-896
-45,-84,-30,1156,-671,-1081
-45,79,-50,1433,180,-1588
-3,84,-50,-75,453,-1436
40,34,-92,-1406,162,-475
28,-28,124,-596,328,-718
43,-28,125,-156,116,-444
30,-39,123,1167,-47,-495
28,15,124,-856,-306,623
26,-18,88,551,106,-23
46,9,107,1213,-350,206
76,65,126,275,-547,1039
83,96,118,-452,-267,1111
75,102,94,-429,-13,769
69,100,87,74,-295,365
69,112,85,285,-419,75
71,122,89,83,-288,-46
77,117,86,-16,-173,-106
106,104,70,71,-144,-103
113,109,63,121,-149,-187
102,103,62,292,-119,-508
90,91,78,287,-126,-629
95,78,81,278,102,-535
-119,59,67,378,257,-397
-90,86,51,214,74,283
89,-39,-128,4322,1249,-5875
120,32,-75,-1161,6022,-7546
92,-71,126,-2834,6109,-8594
-82,34,81,-8375,9153,-9463
-116,-82,-123,-4668,8792,-11064
-85,-25,92,-649,4104,-7885
72,4,-31,-336,208,-1043
-3,-47,38,3569,-799,500
-2,-19,-77,2971,-3672,3788
-50,110,123,917,-5560,5614
-123,94,57,593,-7391,5656
-56,-13,-85,-1449,-10093,6427
-28,-33,-34,1896,253,1360
127,104,34,-883,-1828,-764
-98,123,-51,1973,-5141,-2097
6,0,105,4904,-5402,-15
74,40,29,60,-3079,3104
121,-28,15,454,-1207,2443
56,-66,124,2360,-2518,1545
-65,-61,67,2528,-1408,857
-25,-47,71,1592,-250,891
32,67,-50,2611,733,465
-58,43,-87,2219,152,502
-59,22,-22,1385,-1486,1095
-66,-16,-33,815,-890,479
-83,-61,-64,904,-362,-439
-71,-106,-36,338,-400,-1242
-57,73,-52,946,-266,-1569
-32,27,-63,946,-106,-1653
-33,-13,-61,695,-154,-1344
-22,-29,-65,9,-164,-465
-28,-40,-78,-328,-335,-41
-25,-35,-112,-434,-314,530
-31,-34,122,181,-159,396
-32,-8,124,206,-331,358
-3,20,117,72,-222,504
2,38,104,-205,-67,542
27,35,82,70,63,482
4,57,75,201,-84,489
-1,74,81,66,-248,428
24,99,81,-122,-150,445
31,113,71,-406,-2,356
34,-128,63,-444,-80,270
31,-118,56,-409,-84,-28
47,-119,49,-274,-33,-230
63,-113,40,-363,-38,-306
67,-113,34,-411,-117,-393
75,-113,34,-336,-115,-407
89,-117,33,-193,-37,-379
87,-120,25,-17,-62,-254
-64,-114,-19,-2223,4478,-6248
-94,-94,-19,-8496,9783,-6125
-71,14,-5,-5782,9273,-7443
52,38,-76,-2653,6742,-7731
-10,-106,22,-3023,37,-2558
-15,-122,16,2216,1534,-1742
-120,-83,-102,1981,249,-733
79,-60,124,3411,-5018,3087
59,42,-101,-1899,-8366,8100
-48,23,-35,-2932,-10080,3833
-50,-22,55,160,-5043,3457
120,35,-43,-1653,-1828,-1433
-33,3,-34,3396,-2294,-7475
-37,107,-128,8018,-6553,-3338
48,98,92,1749,-4332,4333
39,56,-89,450,-754,2766
-7,-76,-71,4144,-2422,1189
40,69,-54,3788,-805,1300
-31,36,118,2597,-323,802
90,-84,-87,2744,-177,486
-31,87,-116,2624,-771,421
-61,90,-26,980,-1703,1032
-111,47,-31,636,-825,1131
-119,80,-5,-365,-395,793
126,53,-20,-440,-107,-16
-102,-12,-27,-105,153,-1281
-34,-67,-38,55,369,-2222
50,118,-59,206,840,-2823
66,8,-124,462,1053,-3250
86,3,-118,-547,744,-1655
74,-27,102,202,366,-1032
53,10,91,-317,127,-138
74,23,67,-467,-15,-56
66,11,53,232,-191,-70
68,28,68,61,-616,105
89,43,89,-64,-763,758
92,72,119,-293,-822,1279
110,68,126,428,-495,1575
115,103,122,794,-138,1795
88,-110,127,730,-399,1397
102,-92,111,898,-462,1153
99,-82,107,364,37,798
108,-89,90,-295,-4,828
62,-89,78,-42,-204,622
39,-70,93,-246,-347,239
61,-70,86,-388,-5,-215
127,-104,67,-19,259,-854
-128,115,56,684,106,-1492
-127,82,57,904,-118,-1732
-108,60,67,748,-155,-1475
-118,22,38,1305,4050,-5375
-103,3,99,-5104,6699,-5937
-91,75,36,-7774,9203,-6562
18,-63,18,-3120,10177,-8518
-57,-59,-61,1353,1914,-7534
47,-1,96,1017,-1158,-3602
47,-54,36,1554,-1,-907
115,-68,-7,1596,-2404,2364
-100,116,90,489,-3028,3839
-109,-59,5,62,-4417,3731
-58,11,-119,238,-5514,3797
55,85,-64,-838,-6857,3186
63,-62,112,-1551,-5345,2263
-123,2,-27,758,-1131,-1743
-93,124,60,1616,-1387,-5575
-61,57,-119,5180,-3979,-1384
-61,-24,-124,2526,-4583,3445
47,5,-107,1430,-2987,2754
54,-126,16,4430,-1592,1260
-106,-42,-3,4809,151,1363
30,-32,-128,4904,634,2084
-124,21,8,2186,-2146,3006
-5,-63,66,-339,-2966,1913
-35,110,52,241,-1745,959
-99,82,32,1155,157,258
112,-119,40,-250,461,-291
81,45,27,105,-28,-1131
106,-46,-8,1083,-24,-2103
-82,-97,-32,669,341,-2633
13,75,-55,123,460,-2861
54,18,-63,-66,385,-2729
99,-31,-67,-524,133,-2131
85,-66,-76,-272,-150,-1592
53,-64,-77,-190,-187,-784
0,-44,-85,-509,-49,306
-28,-42,-101,-36,-76,972
-33,-10,-127,338,-90,1739
-56,37,-100,160,-1158,3057
-100,16,-27,-2202,-1753,4677
-118,111,71,-2168,581,3645
75,64,21,-608,1283,701
17,-22,82,1005,135,-1841
7,-125,93,3324,-1248,-2595
26,-116,-112,3119,-1762,-1176
70,-74,-109,635,-103,-133
57,-80,86,-1980,1228,-37
63,-127,63,-1846,378,51
57,107,78,-337,-698,97
69,111,84,822,-741,-176
113,-124,78,497,-83,-393
-36,-109,-105,608,4226,-4133
111,110,42,-4273,5974,-4261
82,94,77,-6195,8052,-5711
-43,-16,38,-6008,7445,-7331
-84,-1,-49,-2950,2664,-6154
67,111,-32,2570,-2678,-1959
-42,-98,104,629,-1813,1138
-28,124,25,2189,-2880,2415
100,-35,57,1479,-3294,3019
-92,5,33,1355,-4026,3315
-100,-24,-5,-1977,-3532,2578
-104,-76,-118,-514,-2244,-2045
-3,-19,-15,1175,-5742,-3082
109,16,115,2231,-3183,853
-108,18,-31,-1708,-3145,2307
118,-69,-4,4151,-4012,850
67,118,-13,3787,-1267,164
48,12,99,4412,-313,1411
-55,-69,12,1736,-345,863
-39,93,58,3241,-458,513
-58,45,93,712,-1148,567
-118,83,-14,1870,173,-758
-107,-43,-93,2436,339,-1276
-78,-91,-104,1170,-192,-695
-12,94,-96,1078,-212,-568
1,43,-98,854,-121,-906
46,31,-62,-418,-219,-924
51,-31,-46,5,-594,-755
65,-38,-41,-244,-352,-517
52,-41,-66,-317,-202,-86
38,-22,-77,-496,-361,359
32,6,-88,-290,-524,714
69,65,-110,-130,-369,659
84,78,-128,340,-238,421
111,112,108,80,-74,197
103,80,101,761,-286,-76
101,76,99,641,-234,-166
98,84,105,37,-210,91
106,66,95,-127,-146,184
99,69,89,-167,-161,257
80,61,79,38,-254,126
77,78,81,-116,-199,235
68,88,80,-182,-271,293
73,109,67,-353,-198,300
102,-128,46,-698,-157,467
93,-113,46,-573,-397,408
85,-118,59,-99,-319,34
106,-107,75,58,-256,214
100,-86,68,-126,-54,203
94,-75,44,-149,-118,255
54,-56,7,5445,-2667,-864
-98,-111,8,2501,-2442,-1322
-62,113,19,1208,-2276,-761
-44,81,-38,935,-2311,-338
-1,108,-69,121,-454,99
-38,91,-85,-488,-176,432
-50,84,-96,-697,-47,607
39,-105,-85,-8741,2175,4173
37,-52,-13,-13737,2323,6176
-73,87,-77,-10968,1539,3139
86,27,71,-5184,1021,1103
-20,-68,112,-3600,1700,1143
-18,-64,2,-4507,483,2371
-105,42,77,-481,-3311,218
-52,111,56,-552,-1532,931
-108,58,11,975,-2099,684
-73,55,-48,-692,-125,845
-8,2,-88,-173,-403,405
111,8,126,-161,-491,-216
-113,-10,-47,1951,402,-3325
75,95,33,2723,2052,-4297
106,-105,4,3016,888,-4312
102,116,-41,-4460,4193,-4156
-22,-5,-112,-5006,2690,-5251
75,-45,-73,-4173,2465,-8647
-127,97,84,-3068,912,-8577
52,10,-28,-3847,141,-5174
103,94,49,593,-254,-1618
-40,93,-46,1546,-1667,1528
-118,125,-27,898,-3521,4479
64,-113,80,2004,-3573,4276
85,63,-39,4249,-4117,3684
82,-50,-63,-3579,-2354,5744
16,-23,0,-4757,-3476,-216
-76,-89,25,2734,-3084,-5542
93,-120,-107,2969,-3903,-1265
83,61,-27,-557,-4575,2591
-35,-112,-46,2662,-5143,1513
-106,-32,107,4239,-2301,816
107,108,-95,1623,-1438,1908
53,67,9,2035,360,2128
-107,-22,3,1848,-263,802
53,61,-44,4084,-851,257
-22,74,119,3375,-612,373
-58,48,-96,1677,-1117,458
-63,6,-54,340,-962,648
-78,0,-56,-474,-526,580
-88,-12,-54,-803,-334,93
-76,-60,-63,-243,-287,-697
-67,-93,-83,168,-115,-1259
-31,-91,122,3375,4520,-5327
76,52,-116,-2281,5416,-5471
-2,2,35,-5299,8248,-7832
37,-42,-128,-5284,10278,-10224
-121,-51,-36,-688,7062,-11282
-12,-96,-92,-1603,203,-5160
-1,-90,92,1643,177,-1092
27,-100,-9,3924,-1829,1159
108,-85,-124,1333,-3477,3210
10,119,103,1199,-6433,4569
109,0,-21,-350,-7378,6521
121,-57,20,-3817,-9586,5431
94,-67,7,2878,-1825,62
-82,-115,25,2349,-823,-5097
127,25,-18,397,-4056,-2738
52,14,-16,4783,-3563,1475
51,39,28,615,-3893,4195
-63,61,127,1107,-2542,2555
-64,-68,68,4372,-1143,718
47,-3,-35,4411,318,1476
-73,92,-91,1672,364,2616
-17,-116,-36,1558,-1099,1424
-69,76,15,1191,-2669,790
-60,25,25,1843,-1862,619
-52,29,24,1793,-432,245
-120,38,15,677,241,-627
120,-27,0,461,166,-1509
-74,112,-32,580,278,-2303
-32,49,-57,405,358,-2592
19,18,-59,-619,317,-1631
41,-61,-88,194,165,-1936
51,-72,-99,250,-33,-1525
52,-72,-100,231,-177,-1079
40,-77,-101,87,-316,-500
31,-65,-98,-60,-374,422
27,-30,-100,-381,-351,1277
33,0,-116,-465,-278,1589
65,46,123,-293,-319,1995
80,90,111,83,-445,1578
77,-96,100,-103,-295,1397
53,-63,106,-492,-544,909
47,-45,112,-87,-457,581
41,-10,-126,-531,-287,345
45,-10,125,-463,-48,166
86,24,-124,-1419,198,418
78,-24,98,-777,380,-549
98,-70,79,506,442,-1292
112,-78,70,733,230,-1346
123,-95,49,646,125,-1174
124,-102,49,294,14,-831
34,-127,86,4209,221,-3625
-122,-21,104,-2479,6547,-7029
49,76,-35,-5240,7035,-7367
11,21,-84,-8165,10016,-9198
-86,57,11,-1489,6900,-10476
-112,99,-83,-2024,-122,-5292
-73,67,70,2189,-1336,-1629
109,-87,-19,3850,-2918,1692
60,-73,-84,1595,-3216,4079
-59,-102,41,1777,-4511,4213
11,126,98,2692,-5971,6148
45,-91,-23,-3706,-7725,9391
-36,-24,-25,-11257,-3648,5465
-63,-116,20,3616,299,-7394
21,-42,29,3123,-1235,-9762
49,-18,-43,5742,-2963,-1558
-78,48,6,3187,-3015,4799
-35,-115,66,-754,-1326,2315
36,98,3,5635,-1590,1804
18,-58,50,5081,621,1820
-20,-22,-75,2462,-1083,2399
89,-97,-86,436,-1414,1912
-2,-81,-21,-1139,-1898,1318
-75,75,-18,-715,-943,-84
-115,-16,-7,1565,-190,-1191
-126,-23,-24,1722,-284,-1383
-101,-6,-15,417,-114,-1112
-41,-49,-60,-388,534,-1290
-3,-115,-108,-448,882,-1609
40,116,92,-1536,717,-1067
47,42,64,-181,690,-2225
90,62,77,-596,92,-1416
70,45,72,264,47,-1562
59,36,77,467,-203,-995
44,37,85,360,-252,-328
29,40,86,249,-268,282
26,44,84,221,-334,777
48,68,82,116,-425,1453
72,96,88,16,-607,1960
103,121,87,662,-350,1784
-124,-90,55,1088,86,1423
100,-66,63,1306,72,1060
116,-10,104,-1671,443,1546
68,-62,89,-878,-218,604
66,-80,90,305,-777,227
72,-60,86,588,-829,37
77,-49,73,-70,-273,-243
116,-69,78,-160,295,-790
88,126,56,417,312,-1223
117,126,60,37,21,-1169
68,-68,-127,841,-5775,2153
15,-37,65,4046,-793,56
22,95,-50,-3471,5557,-2707
108,8,16,172,4822,-4307
-29,-48,-52,-3911,3495,-3893
106,89,81,-5870,9106,-6421
-95,62,-14,-6753,8820,-6040
-57,105,-67,-1445,7854,-7586
6,-10,-80,-224,2589,-5877
-22,1,-106,254,-1003,-1123
125,107,13,3586,-3510,951
-13,-128,120,3571,-4694,3227
3,-5,16,6985,-8719,3292
-52,32,-91,1985,-5960,7103
98,-55,-65,-6043,-3757,9242
-3,90,94,1561,-3478,-2168
-27,-73,51,-3506,-3517,-6993
-61,-51,21,5842,-3204,-4529
81,-62,63,1133,-3286,4098
-97,-54,3,125,-1444,2463
-68,-19,26,3514,-1724,1129
21,-7,-58,5069,-1677,679
80,33,-110,4185,-149,983
-96,26,-10,2456,-1108,1211
48,-125,119,1875,-1665,538
-41,85,56,2262,-745,-596
-31,-4,-3,1083,351,-234
-122,-112,-22,723,-48,-1158
-113,60,-27,998,-33,-1582
-75,4,-50,846,144,-1646
-26,-52,-48,411,13,-1146
-32,-67,-42,36,-362,-625
-20,-92,-63,-258,-341,-284
-1,127,-89,426,-29,-68
-5,-123,-99,858,-290,194
12,-45,-70,458,-600,1033
17,22,-63,-655,-594,1610
-4,64,-90,-1057,-92,1414
-14,94,126,-818,241,824
-12,87,102,-107,94,-14
-4,73,86,423,-178,-564
-3,74,96,217,-412,-525
7,70,101,-11,-312,-330
26,64,96,-251,-57,-282
28,48,78,-40,11,-346
30,40,70,161,-170,-292
38,61,73,-84,-271,57
58,97,79,-533,-201,370
71,105,68,-233,-45,248
68,118,63,-16,-111,77
