AccX,AccY,AccZ,GyroX,GyroY,GyroZ
38,104,79,-4850,3130,-491
-43,-55,-102,-3610,3048,-342
-31,32,-25,-1707,5795,-1414
-90,66,70,-291,4132,-1409
-76,88,31,820,3776,-1264
-66,118,-8,374,2634,-429
-40,125,5,1467,1765,1752
63,31,-43,3608,-448,3739
42,76,67,4173,-4031,4489
-76,14,94,3303,-12588,7641
76,-31,87,-5437,-18954,6150
50,93,7,1731,-12680,2105
-91,-38,122,-2360,1793,132
-116,49,57,2577,-1499,-4137
35,-117,-80,-3966,-2267,3658
97,13,118,1504,443,-1120
-45,12,-75,-1824,1686,-1480
-53,-80,-15,-127,1552,-1089
-61,-115,2,232,439,-961
-98,-122,-87,1258,-301,-351
-81,-100,-42,629,-1397,423
-48,91,-8,894,-968,843
90,-63,-8,-131,50,1388
-111,-80,37,342,638,-26
-125,115,68,1610,-125,-126
53,-94,93,-289,-324,326
34,53,19,887,-261,171
19,107,-2,-1026,-273,16
7,19,-56,-306,-314,-657
25,28,-79,-568,-19,-843
51,-12,120,214,618,-775
44,-7,108,16,557,-1017
43,-49,68,425,321,-1390
113,73,93,-2485,1281,-273
72,-39,42,-460,652,-913
70,-63,40,547,257,-1137
113,47,70,-1567,513,-275
122,-3,47,-507,500,-51
123,25,63,-760,296,-333
-111,44,62,-561,65,-383
-104,47,62,-310,159,-438
-88,90,73,-929,455,-249
-102,73,66,-537,302,-368
-102,73,68,-223,106,-391
-98,76,64,275,20,-601
-80,112,65,-768,371,-363
-70,117,62,-867,494,-309
-83,78,55,169,255,-726
-75,98,59,-157,322,-629
-68,124,63,-843,473,-412
2,-55,-104,-1338,4094,-2911
-75,2,-100,-2559,3946,-2281
79,-15,123,-2319,4276,-1773
-29,-127,-110,-2905,3833,-646
69,126,-100,-3387,4149,-218
-121,-112,-27,-3873,3021,652
-54,77,93,-3749,1895,1082
-52,39,-107,-3705,1483,1093
-86,-107,-16,-2955,659,999
4,-84,-50,-273,2425,591
-39,4,76,-3691,1758,1049
19,-18,1,-865,3047,915
-81,46,39,-2050,4053,-144
50,-48,-43,-1895,4397,-538
-44,88,6,-1067,5041,-1865
-112,47,97,-255,3859,-1815
123,-19,-121,1612,3272,-1071
-39,123,67,809,3788,-873
-119,-23,-14,1239,3534,796
111,3,2,327,2932,1594
-65,-102,-128,-28,1303,3219
58,8,-71,5460,-2345,6476
82,111,86,3887,-10780,8598
26,-101,-120,-1478,-19315,7642
-70,109,66,-2904,-11301,1455
44,-112,-17,490,-5709,4049
83,-11,87,-1216,-1608,-3436
-1,-58,-97,-558,-2634,1433
124,7,12,436,-3234,1298
-67,110,-20,-451,-544,-737
-71,-103,40,-37,2328,-1295
43,97,63,79,1405,-1574
-72,42,-99,1974,1087,-1223
-92,-73,-47,-412,-228,-141
-104,64,-45,300,-698,-85
-102,-20,-53,1355,251,-224
-94,34,-115,432,304,-481
-31,79,-86,-719,-298,134
-33,12,-122,86,80,-384
-33,38,-125,-682,413,-380
-35,13,117,-340,114,-324
-13,21,123,-513,278,-291
-3,22,119,-569,392,-396
15,-37,106,384,350,-816
29,-1,104,-776,735,-527
26,-27,67,-804,572,-537
53,-21,57,-1306,471,-211
57,-20,31,-747,486,-367
58,9,21,-458,409,-540
72,84,40,-1751,218,-194
-13,-68,122,-1564,3082,-3607
-1,-24,95,-1652,3574,-3614
-81,49,92,-2547,3749,-2443
124,126,42,-2576,4657,-1314
2,-79,10,-2405,5048,-1262
-116,-50,69,-3827,4773,30
-17,101,109,-2564,3967,27
87,101,-9,-4437,3785,649
-3,-120,31,-899,3510,-233
-112,-52,-68,-3893,2918,-50
123,46,-30,-3674,2508,105
101,119,3,-2834,2696,-222
30,-53,-66,-1863,3927,-844
-75,102,98,-834,3754,-1683
124,46,-62,-1229,2966,-1951
109,-64,58,-90,1405,-1799
-61,-10,-75,867,1836,-1120
-66,111,-35,1583,2306,-1481
-53,54,-21,501,2852,-756
-36,-110,84,1457,3449,-178
-91,67,76,-441,1762,999
78,92,58,2418,-1602,3983
-5,-51,-5,4339,-6048,6974
-102,-92,-39,4220,-11373,7604
64,-95,115,-2996,-17848,7106
-76,85,-21,-2060,-13127,4921
-15,-88,-59,-1788,-54,-753
-96,37,-104,3738,-4122,-2086
103,93,89,-2370,-4394,2801
-66,44,-104,-416,-1090,-56
94,-39,73,2853,724,-2406
115,-20,-69,-666,2089,-1007
-57,-77,-20,-285,529,-170
-97,85,-35,1710,-481,-635
-113,-111,-51,293,19,-534
-97,68,-78,419,597,-943
-87,12,-116,778,698,-1206
-69,3,122,219,748,-1048
-61,-51,111,384,655,-1060
-32,-62,99,-149,760,-880
-10,-98,78,58,586,-756
4,-97,81,-157,395,-646
34,-90,85,-484,545,-449
49,-112,67,-150,495,-542
60,-72,67,-741,372,-258
67,-54,60,-1015,267,-189
78,-49,44,-732,327,-355
97,-25,37,-951,492,-370
105,-1,29,-887,373,-375
121,10,26,-857,517,-510
-36,11,-107,-2191,3365,-3240
-18,7,-102,-1373,4165,-3216
116,35,-113,-1515,3925,-2550
54,70,63,-2090,4587,-2304
11,89,-26,-1873,4817,-1352
-45,79,9,-1963,4906,-977
32,114,72,-2046,4519,-613
-98,-46,-95,-3967,3873,-30
42,100,-20,-3243,3336,-8
-92,-58,65,-2269,3391,-339
123,119,-113,-3410,3401,-607
69,-62,-99,-2270,3490,-47
-7,-86,-65,-3583,3718,-75
-27,36,118,-1710,3115,-1413
-78,-15,18,-918,2590,-2068
124,3,79,-671,2125,-2142
78,-109,-8,1046,2218,-3153
-127,-19,-42,760,1813,-2106
-36,-26,-123,1207,2292,-1672
19,93,-122,666,1813,221
-112,-49,-54,1588,626,2458
86,21,95,3315,-1837,4784
104,-50,-75,3807,-5693,5395
84,-111,24,1477,-11922,5546
-101,-5,-112,-5045,-16128,3925
-68,-10,-22,4381,-13599,2066
-44,55,-127,-3010,-1023,1696
-84,32,111,319,-2786,-2248
112,44,75,-458,-4788,2235
37,89,15,-100,-2197,854
-80,98,-23,744,1136,-1497
-77,-54,38,-489,2517,-1759
-56,116,68,936,677,-1486
-61,-110,-40,1249,365,-715
-116,-55,-75,-496,230,-554
-110,106,-94,-459,437,-1005
-95,45,-120,-48,1042,-1515
-88,-7,105,536,1093,-1610
-77,-50,75,981,778,-1542
-46,-28,75,-148,971,-940
-30,-98,46,410,835,-693
-1,-60,32,-327,873,-211
11,-97,4,544,397,-182
41,-73,9,212,220,148
66,-51,13,160,22,423
88,-116,32,2112,-240,-293
106,-5,38,-285,351,-144
95,-24,22,-771,531,-416
100,-94,27,-75,50,-582
114,-26,38,-1474,299,-121
-72,-8,41,-1007,4876,-2181
-117,95,100,-1831,4593,-1447
23,106,98,-1413,5268,-1247
-101,-31,-61,-3584,4621,-389
29,109,-27,-2694,4448,-265
121,50,47,-2125,4171,-588
-20,-66,96,-1831,3780,-1249
-81,-96,-62,-3751,2994,-775
72,61,-19,-4624,2146,-796
50,-119,-78,-2094,3549,-2066
-54,-5,-124,-1332,3516,-2420
122,92,-1,-961,3041,-3254
54,-32,112,29,1845,-2882
28,-94,-18,1121,1797,-1860
77,67,-2,1240,2334,-1402
87,32,-37,470,3105,-86
35,-27,121,873,3266,900
49,56,65,2316,1548,2710
-116,-82,104,5144,-2423,4814
41,-31,-41,5377,-8105,7369
56,-88,-102,187,-15575,7763
1,-111,99,-5884,-13383,4603
44,69,61,2426,-5669,238
-118,-40,76,-1526,-903,-4670
-94,121,108,890,-5757,3148
91,90,103,-591,-4795,2419
34,-46,-91,-679,-1368,-669
-66,121,-111,1249,645,-1490
-61,-89,-108,863,833,-1262
3,-13,-34,147,1407,-841
-105,-25,25,-615,260,-1007
81,76,-52,394,1140,-1694
126,49,-98,-260,1463,-1959
-98,-17,79,644,1825,-1596
-112,-17,53,437,1354,-1090
-83,-57,50,639,1103,-836
-37,-68,29,897,760,-424
-18,3,60,-353,55,-36
7,0,81,-758,-63,-124
21,-25,74,-306,443,-340
57,-44,47,-45,880,-734
108,-25,37,-145,636,-430
79,-25,16,-269,487,-379
76,-39,13,-179,229,-287
109,1,32,-724,129,285
127,7,15,-791,285,91
-99,20,6,-857,374,-136
-99,8,-1,-454,303,-500
-89,33,2,-977,380,-428
-84,39,-2,-1072,379,-348
-12,46,-121,-2534,3324,-2585
-109,28,-111,-1748,2522,-2874
72,29,122,-1545,3222,-2850
-12,8,106,-3532,3608,-1862
-65,-97,81,-2493,4002,-1098
91,-74,58,-2681,4075,-558
-67,78,29,-1421,4045,-513
78,-50,97,-3822,3408,1049
-10,70,-61,-2037,2049,1260
-17,-88,100,-880,2681,963
-5,4,-44,-3150,3024,1815
-23,-67,-19,-3044,3129,1602
-79,109,7,-2613,3715,294
99,55,28,-3760,3460,562
69,-7,-86,-1762,4265,-1830
5,-52,62,-1173,3109,-2358
-53,-105,-36,-1261,1808,-2530
-123,47,-18,837,2432,-3657
125,-104,-89,1576,1683,-2317
-5,-18,-99,1395,2326,-1963
-16,-109,28,-25,1587,313
96,-50,71,1293,1406,2304
-11,47,-98,4894,-1299,3374
64,11,-23,4999,-4833,5299
67,89,-65,954,-11595,5706
71,9,88,-5018,-14347,2615
123,123,-77,463,-10989,-1835
-25,-111,42,-364,-4424,4267
-105,123,-83,-5376,1175,-3446
90,95,-97,5905,-3049,-2662
39,58,-35,-990,-4384,3052
-10,-83,-57,-268,-1444,1312
122,10,-44,2832,-705,-2098
-1,114,14,3103,1220,-2650
-60,22,3,-61,1245,-798
-89,-57,-7,-1457,816,-262
-122,39,-58,434,907,-1512
117,-46,105,1115,1735,-2622
-81,-44,61,-97,2283,-2260
-60,-81,36,-58,1730,-1438
-47,-91,46,-331,681,-678
-14,-87,62,-532,-92,-168
24,-66,86,-846,127,119
32,-57,51,-556,625,-63
44,-37,48,-615,496,-330
83,-5,50,-789,241,42
86,-6,51,-464,315,-90
105,-6,22,-107,659,-468
114,4,12,-260,450,-508
104,0,16,-316,282,-567
30,79,22,-3740,2575,-3200
29,5,-56,-2122,3439,-2953
-125,25,-62,-2422,3774,-1950
44,103,-64,-2439,4319,-1110
-54,44,-51,-1231,4126,-712
100,-35,1,-3323,4596,1092
-26,91,50,-917,4113,579
104,99,-109,-1256,4424,470
80,95,-21,-1194,3949,332
86,-102,90,-3945,3724,1332
56,-79,-103,-2625,3751,884
-17,121,-25,-2393,4244,-181
-88,15,-7,-2224,4632,-764
7,113,120,-812,5680,-2152
-86,109,88,-2251,3395,-2128
88,125,50,-433,3424,-2937
29,33,-97,892,633,-2009
120,33,66,1261,1193,-1737
-61,124,34,2245,-109,-778
4,66,97,1648,621,155
68,24,-112,1403,434,1084
28,-90,86,2581,-1342,3331
-82,-19,73,5018,-5594,4841
79,-25,117,837,-12415,5956
-14,-91,92,-2199,-11269,3488
-75,64,-15,-3751,-10864,4129
-8,118,-2,2891,606,-3308
-47,97,-44,-3618,-4117,-84
-68,-104,85,637,-4859,675
-88,127,42,2197,-1427,951
-126,-71,31,-738,-962,1221
-60,97,-123,2673,290,-550
1,-71,41,2980,-699,-769
-76,52,-1,-563,202,-424
-81,-67,-24,-10,555,-697
-105,76,-104,1175,875,-1914
-70,81,117,111,1400,-2019
-45,-22,82,328,1106,-2176
-14,-54,95,-351,1084,-2172
27,-103,98,-509,1320,-1675
30,123,82,-494,1045,-1168
25,123,58,-235,849,-833
47,-93,60,-684,380,-167
52,-72,48,-705,16,208
77,-53,46,-634,-74,227
104,-27,55,-322,-348,310
121,15,72,-981,-200,355
116,44,80,-1061,-132,197
101,56,60,-766,546,-318
107,61,17,-703,796,-727
-92,54,-17,-2028,3379,-3104
-102,56,-4,-1802,3340,-2881
28,40,-13,-2581,3516,-2147
-20,92,11,-2867,3323,-885
-70,101,-1,-1819,3755,-926
111,-91,61,-2047,3607,-213
51,-91,115,-2158,3690,-223
-40,13,-107,-707,3695,-454
-89,79,-24,-2587,3423,114
124,40,43,-3378,3319,509
30,-44,127,-4097,2910,623
-6,57,-43,-2869,2088,894
-26,-64,23,-2645,3037,60
-126,65,29,-1558,3940,-973
43,13,-33,-1456,4592,-2499
-42,-113,94,-728,5312,-3656
63,-11,-87,-293,3560,-3620
95,1,-13,-17,2644,-1039
-90,50,45,473,2960,-1031
-63,111,127,-1985,1835,1008
5,-83,-107,295,1372,2020
122,46,-15,6049,-1806,4016
-78,51,-83,3487,-5707,5519
-23,17,97,2173,-11300,5479
64,-108,-51,-1415,-16401,4934
82,33,37,-6170,-12335,4908
33,-92,-76,2614,-6633,1840
-16,-124,-31,-2507,564,-3862
-77,62,43,-1206,-5247,1799
61,10,71,2233,-4987,1693
-73,25,-113,-165,-10,251
89,111,16,1034,1316,-1390
99,-68,31,1519,402,-1852
-18,-45,71,1358,-1182,-961
-93,-45,37,562,-145,-831
122,-99,-59,262,1654,-1371
-116,78,-112,342,1818,-2345
-46,-23,50,949,1869,-2807
-73,-66,42,1126,975,-2796
-25,-78,79,-921,742,-2045
9,-94,77,-1660,835,-849
9,96,65,-468,553,-967
38,-108,66,-560,401,-684
47,-46,62,-819,-14,-561
33,-51,44,-576,-41,-787
55,61,57,-2400,457,-6
48,25,23,-1117,241,51
48,72,27,-1027,5,-84
87,-127,30,-1293,70,-2
97,-120,28,-1188,194,-128
-69,-37,40,-1709,2951,-4569
-98,4,36,-1178,3572,-4569
97,81,77,-4801,3706,-2909
104,-73,-5,-4652,5049,-1653
24,109,-38,-3436,5239,-1130
89,119,-50,-3178,5285,-642
-108,-123,35,-3589,4337,-843
39,60,92,-2950,4204,-382
-101,-48,39,-1555,3269,-1507
70,-32,-119,-3850,2503,-923
48,-113,-126,-2252,2879,-1797
-40,-1,-85,-794,2656,-2278
125,110,-87,-949,2641,-2644
43,-79,101,-844,1355,-1656
74,47,-4,-260,1906,-1257
74,-85,-67,484,-122,125
-108,69,66,1016,588,-703
-84,-7,80,615,570,-658
-1,60,-17,1673,738,-345
70,-33,-10,860,-2,1019
-36,65,-100,2818,-1295,2440
-37,-44,67,3369,-4109,4654
-29,-92,-28,1849,-8581,5866
10,38,-119,170,-9860,3461
6,117,-123,-4882,-11985,5470
36,-52,11,44,-4146,-912
-81,-5,-92,-761,-2971,-2078
101,-117,-13,893,-4927,1436
7,15,-26,371,-2631,655
15,-57,-10,365,-2134,182
45,-70,-25,777,-42,-481
55,-35,-128,217,383,-1379
-68,62,80,2707,447,-1579
-123,-5,10,-751,989,-407
86,-85,3,-757,380,-580
112,15,-45,1581,379,-1187
114,72,-72,539,861,-1431
122,21,-120,-177,1220,-1585
-111,-47,97,-71,668,-1641
-97,-75,72,-333,521,-1058
-80,-77,91,-600,399,-458
-96,-86,74,-431,704,-649
-65,-104,36,-17,607,-614
0,-54,55,-750,316,-31
53,19,82,-1424,-140,565
46,42,73,-1262,-26,396
31,16,28,-664,745,-484
58,-7,-3,9,1347,-1192
77,33,0,-527,812,-666
84,37,-20,-519,522,-412
32,-14,0,-1595,3883,-3033
10,-23,-19,-1499,5002,-2432
-91,80,-123,-1668,5156,-2260
78,-60,89,-2623,5557,-1357
96,122,49,-612,5377,-2162
55,-56,88,-2683,4654,-1758
6,-67,-95,-4598,4127,-561
-49,56,-14,-4381,3447,-84
127,114,80,-2785,3094,-259
78,85,-41,-3574,2901,5
-20,-114,46,-2185,2719,-492
-54,71,50,-2421,2510,-842
-79,-126,8,-584,1434,-1822
-99,-122,-22,-1133,1583,-1940
-126,24,-91,689,791,-2251
101,115,110,599,1004,-2074
82,-101,47,1673,1159,-2533
56,125,-44,993,2045,-1801
-124,-59,101,1423,2480,-1388
-44,-31,-6,3924,1502,212
-64,-90,59,3209,367,3456
-26,-50,-5,4960,-3990,5160
-77,-127,12,2124,-9028,7519
-61,116,-112,-868,-15074,7261
-11,-17,111,-3616,-12199,4262
-77,-60,112,2197,-6425,3301
-89,78,1,-4510,1059,-4035
74,-22,5,2502,-1346,-900
15,127,-16,1694,-2934,1431
77,-123,-80,-1999,-964,767
101,107,-106,1702,249,-2086
73,-21,46,172,1717,-1560
-29,-32,25,240,1053,-1218
-113,-62,-3,8,378,-1014
-87,-123,-44,-258,1252,-1066
-125,46,-105,93,1457,-1514
-123,24,-112,-39,1017,-1177
-98,8,124,-165,1013,-635
-75,-19,81,56,1107,-721
-42,-11,60,-84,805,-590
-35,5,48,-535,533,-453
-40,10,40,-817,289,-303
-24,15,42,-709,126,22
-3,10,31,-69,153,-219
25,31,34,-99,142,-337
70,40,44,-191,320,-466
77,41,26,-338,652,-741
61,20,14,-66,486,-858
68,38,8,-427,396,-524
112,57,17,-1054,-158,-26
-102,8,-119,-3141,4288,-2951
-55,3,102,-2186,4661,-3085
113,124,22,-3407,5447,-2650
-86,82,-101,-2581,5342,-2089
-85,-101,35,-2684,5393,-1216
-94,106,35,-2531,4292,-234
-36,-95,82,-3277,3845,597
39,81,123,-2703,3851,159
-52,70,-47,-4336,2841,712
-63,-120,113,-4133,2312,676
-23,-49,-53,-3261,2580,-353
-26,-127,69,-3783,1856,89
-29,38,-60,-1120,2726,-1174
-59,43,-92,-1060,1140,-1134
-72,-89,36,-583,880,-1210
-66,-87,-11,-155,419,-713
-69,97,-62,466,1159,-868
-67,83,-110,1741,1542,-897
-64,117,-87,449,1360,-497
78,33,-7,-1170,737,1108
115,46,16,3449,-2296,1562
-28,3,-44,6561,-5611,1829
13,-75,-83,2484,-10131,5368
15,-64,-57,-1040,-14975,4016
89,-64,-39,-6980,-14119,4383
57,35,-33,5269,-8543,1737
111,27,68,-6631,2096,-3810
42,64,3,3483,-2524,-589
42,36,62,91,-4125,1409
56,104,-77,950,674,-216
67,-45,-106,411,1373,-2005
-83,-127,100,2147,980,-2283
-93,-26,103,-12,683,-961
105,97,2,-48,1494,-1688
-125,9,-77,205,2206,-2506
-93,-55,113,351,2297,-2653
-71,-104,77,109,1552,-2367
-61,-94,78,-983,1034,-1700
-36,-111,50,-1136,857,-933
-7,112,39,-364,750,-801
7,-114,32,-554,691,-394
28,-67,9,-605,309,82
53,-39,18,-640,-168,382
72,6,27,-791,56,498
69,-29,5,291,319,-113
85,-13,8,375,359,-123
83,-3,6,289,261,96
79,-4,-4,215,-39,67
98,8,2,-103,-119,265
107,2,11,-14,-212,131
-103,87,-88,-2014,3181,-3419
-93,-120,-93,-2101,4163,-3224
112,-59,94,-2318,4929,-2558
48,38,65,-3597,5341,-1425
-70,-54,-5,-2575,5793,-1389
-37,-54,-64,-2913,6250,-1033
42,10,-19,-6991,4113,-239
49,-87,21,-5587,1737,936
78,66,-99,-1932,2722,-40
18,75,78,-4008,2018,-502
26,41,-108,-3380,1576,-493
3,-79,-101,-2209,1898,-774
-75,53,115,-1697,2376,-1604
-103,-36,57,-731,1663,-1591
-114,-125,-35,-26,2321,-2574
-70,-108,92,1034,2233,-1843
-36,-96,28,1647,2040,-1558
-85,22,-96,2896,2616,-756
-93,-2,-118,1111,2055,-77
62,102,-120,663,1457,1957
-46,-46,-29,2126,-872,3758
-41,-58,-85,2777,-3770,5820
105,-11,0,6033,-7860,5277
-126,-114,85,-189,-12633,6434
104,-52,47,-1723,-12502,5240
9,-127,-39,-2130,-9764,5097
-112,66,121,-1424,-43,-2315
80,59,78,-9,-2826,-800
35,-72,75,424,-4769,1470
29,-31,-68,1027,-2015,763
127,91,-55,657,787,-663
102,-51,104,395,1001,-1899
8,-115,94,645,1009,-2062
-120,122,26,-94,1509,-1442
99,70,-34,-834,1859,-1534
112,-31,-123,-138,1760,-1707
-114,-27,113,-60,1223,-1362
-84,-43,86,-48,744,-1108
-40,-35,91,-783,688,-926
-24,-65,82,-678,664,-994
-9,-69,71,-776,694,-808
3,-57,88,-995,494,-473
17,-25,83,-910,197,-26
16,12,78,-739,21,-23
26,54,69,-732,70,8
48,-122,61,-1361,205,68
73,127,40,-871,286,-207
103,-117,40,-571,261,-460
120,-120,29,-254,444,-557
94,107,6,473,637,-1028
-5,-6,111,-2510,3547,-2177
84,83,-87,-2690,4178,-2258
26,75,-102,-2966,4594,-1695
-19,-110,126,-3331,5175,-952
46,-96,86,-3525,5631,-1088
89,-63,72,-3653,4286,-45
87,-59,44,-2103,3166,502
-97,-4,50,-3530,1834,1094
71,118,65,-3117,1292,1393
-27,68,-124,-4465,759,1751
-37,99,-101,-2672,302,1627
-3,43,7,-3621,-55,1746
85,41,67,-2610,403,1240
124,-38,95,-2662,906,1126
122,85,20,-1922,1435,343
106,57,-56,-1304,2535,-298
81,-17,126,-258,3132,-1168
29,-2,32,-986,3957,-1660
35,-43,-17,-791,3428,-1581
35,-74,-83,545,3639,-1191
30,25,4,621,3282,-271
20,91,-85,1557,3157,586
-10,80,107,1093,2788,1439
23,-27,60,1688,1232,2709
-122,108,12,3153,-1056,3801
-8,18,-101,5404,-4255,4399
-19,-39,-70,4772,-9685,6473
-40,-81,30,-375,-16314,6850
92,-89,-80,-5295,-13505,2613
-80,36,-4,2118,-7971,4284
-34,6,-108,-5213,2676,-4818
82,63,-122,707,-1867,-857
53,-10,-73,-973,-5501,488
63,-56,-35,502,-1517,217
-125,38,40,-466,774,-297
102,71,98,105,1027,-1500
34,-113,-67,-743,199,-910
-59,75,116,-72,610,-1316
-126,47,32,-413,1590,-1767
118,43,-18,-1132,2170,-1418
102,-4,-86,-650,1789,-1376
-108,-61,88,637,1677,-1311
-79,-18,58,-137,1579,-966
-63,-49,18,172,1257,-830
-40,-52,15,-30,999,-654
-24,-68,0,139,553,-261
-16,-64,12,-276,91,124
12,-74,13,178,392,330
47,-68,11,767,304,294
74,-55,14,1142,63,332
-47,107,22,-2781,3110,-2320
-15,64,15,-2070,3948,-2206
-85,81,13,-2431,3924,-1892
81,-118,-6,-2586,3996,-1249
-25,-99,-52,-2044,4293,-1179
44,-50,-66,-2640,3697,-279
-70,-50,-78,-3447,3538,478
47,-53,-17,-3554,2663,1232
-52,71,81,-2674,2426,1731
-64,-14,-88,-2284,2396,1568
-96,-41,-20,-2880,2057,1818
-119,-115,1,-3303,2146,1150
123,-51,-12,-1388,3005,6
81,102,-26,-192,2952,-409
43,65,-58,-1438,3191,-1624
-10,-104,95,-1454,2198,-1778
-45,-35,-7,-407,2294,-2120
-80,-119,-53,481,1565,-1379
-51,-76,117,487,1201,-1354
-57,-31,28,1764,1380,-1082
-48,118,-103,2444,1983,-1395
-75,-22,31,2263,2230,-1192
-51,-113,-99,1858,1748,-154
95,-85,109,1643,1018,1090
38,45,-46,-2,-815,2892
-66,-35,-33,3943,-4413,5643
83,-32,-88,4017,-8802,7606
-54,0,98,-4354,-15590,8241
100,22,-4,-8076,-14574,4071
79,117,56,202,-5472,195
124,-106,35,-909,3670,-6584
43,-74,-30,5740,-7955,2762
40,62,-44,-2372,-5336,3620
108,29,-89,1480,-1258,-724
120,-77,-17,1941,-822,-2825
55,-8,67,517,-247,-1467
-67,-24,29,-557,1479,-1198
86,79,-103,-98,2743,-2449
92,-24,1,839,3641,-3790
-125,70,59,2281,3192,-4377
-36,79,32,1138,2575,-3577
39,73,69,-491,1792,-2437
93,55,71,-1461,796,-1207
62,37,48,-1359,412,-1094
42,35,36,-981,223,-526
38,114,58,-1539,-133,386
68,125,72,-403,-371,637
81,-103,25,295,35,462
100,-30,62,-541,-445,637
109,-32,23,-399,-98,476
-60,111,5,-1527,3982,-2952
44,-127,-128,1456,3438,-3919
54,-46,15,-1819,4019,-3949
-31,55,-26,-3332,4416,-2293
71,-110,-1,-2236,3830,-1630
-29,-17,125,-4469,4052,92
-43,21,-43,-4604,3518,1721
-83,6,46,-3767,3231,1050
-128,-24,-29,-2505,2875,731
105,-84,89,-2906,2585,-189
96,-81,91,-2625,4381,-1048
22,-43,96,-387,2220,-3700
-49,-94,87,-1924,2702,-3828
109,-82,67,-1237,695,-2856
110,94,39,6,711,-1592
-123,96,-117,1875,1403,-1758
-128,55,-22,1218,1226,-2043
-78,108,52,1639,1909,-2041
30,84,-52,75,2042,-583
-107,29,-17,-1467,1522,1938
61,105,-26,861,-1153,4115
102,-28,-116,4150,-5227,6838
5,33,108,2844,-12200,7681
-8,118,25,-1628,-16921,8207
-6,73,69,-3588,-16136,9139
117,-32,-77,-1239,4361,-3605
-112,103,-54,1039,-1500,-1576
108,104,95,-3205,-7666,4201
-4,127,-57,5460,-2271,-572
-128,58,-43,-24,-419,-1150
-88,32,115,-103,-799,-652
-15,125,-39,2500,-1369,-1353
-109,-22,124,635,797,-1861
-103,-35,71,-1423,2432,-2144
-50,7,-102,-1222,3840,-3262
-2,-95,36,-221,3646,-3821
63,-124,1,-37,2441,-3479
-119,-106,0,-1354,1807,-2604
127,104,1,-940,1187,-2088
102,122,-1,-1327,1007,-1655
85,-112,8,-1287,665,-1029
77,-89,10,-982,235,-400
72,-70,5,-469,68,21
97,-51,2,42,-289,516
-118,-20,15,-117,-539,1403
-91,28,28,-724,-982,1654
-68,16,21,205,-1206,1518
-45,65,39,-223,-866,1322
-74,60,27,297,-385,485
-101,60,24,377,129,-369
-21,-104,-81,-2710,3418,-3026
-111,44,-100,-1790,4004,-2618
22,123,-90,-2858,3682,-1460
-88,-72,-128,-2768,4381,-1067
64,24,-82,-3892,3886,253
-78,20,-61,-3094,3449,447
-10,50,17,-5542,2620,353
115,101,83,-3812,428,1513
92,-39,-58,-3789,548,821
-117,-30,-7,-2581,151,1306
-30,81,90,-4143,-471,1418
23,-97,50,-2857,-157,1444
72,42,43,-2247,472,985
32,-3,64,-2751,1544,137
-38,-125,-56,-1832,2482,-1073
-58,120,-105,-2335,2951,-1933
-17,47,53,-1279,4056,-2479
-23,56,-22,-861,4166,-1833
-77,61,-118,-146,5813,-1550
53,-111,45,57,6250,25
-70,20,-93,-498,6037,827
106,-52,-39,1039,5411,3558
-116,13,-77,613,3207,5589
-18,61,50,4823,-2888,8113
92,4,121,5079,-9239,7242
-70,64,81,2043,-15839,7093
78,-79,-126,-5308,-12837,3781
58,-93,97,1135,-7943,2644
-43,92,11,-3608,-480,-4012
-117,27,-60,3097,-6774,607
37,9,-11,-896,-2953,712
6,-37,-122,600,-680,-21
42,-26,41,1605,361,-1704
-109,116,-116,168,1486,-290
-10,-100,25,-658,434,-763
-98,-12,-35,1397,706,-1955
-55,51,-99,-894,2169,-1676
-58,-96,85,547,2080,-2312
-52,89,29,1026,1823,-2589
-8,-103,35,-443,1564,-1512
22,-125,22,-363,768,-802
77,1,40,-2186,373,292
58,-32,-1,-1267,242,-132
89,-46,19,-255,422,-468
111,4,32,-356,582,-592
111,0,49,-386,354,-625
-102,19,73,-568,369,-33
-116,5,85,80,273,-113
-124,-12,61,611,482,-454
-95,4,59,493,246,-120
-109,-46,-1,-1758,3866,-2381
103,-94,-106,-778,3860,-2192
65,-96,36,-944,3860,-1618
27,-111,126,780,3178,-1006
17,41,21,906,3017,-135
4,-79,-51,1384,2788,813
-9,96,98,1944,2741,1589
34,60,15,3232,1078,3435
-41,-20,-76,4639,-793,3442
-7,93,-107,3447,-3343,4201
-8,-67,-3,3165,-8969,5591
-2,127,0,839,-10062,2120
44,-47,0,-3251,-11164,5876
-68,-32,86,311,-8924,2271
33,-94,-3,-1990,-1867,-1692
26,99,55,424,-3220,-235
-38,-30,29,88,-3589,981
-53,17,-127,123,-982,-239
-82,34,67,311,669,-850
3,102,-61,-513,1546,-995
-116,40,112,1476,1421,-1499
-122,-105,31,-1029,1523,-817
110,48,-100,-206,1648,-1414
-124,-16,106,310,1978,-2225
-108,-51,40,210,2205,-2029
-84,-85,20,-220,1674,-1409
-58,-97,20,-177,926,-502
-26,-111,19,-120,577,-315
6,-94,15,-212,403,-42
29,-87,50,12,115,368
33,-24,50,-248,125,478
33,-60,25,246,423,-389
76,-41,26,204,566,-280
62,-18,45,-311,-1,36
63,-36,76,34,-172,139
113,-57,54,426,426,-165
-122,-46,70,146,387,-394
-109,-70,47,55,831,-747
-100,-89,32,-252,848,-829
-94,-106,30,-78,448,-600
-93,-110,44,-231,164,-184
-65,-83,77,-364,25,381
-30,-94,38,106,522,-306
-20,-62,14,-340,853,-834
-35,-65,19,-567,615,-772
-25,-59,30,-697,510,-405
-4,-72,4,-168,573,-585
-3,-50,3,-371,161,-429
3,-9,80,-883,-465,314
35,-31,75,-464,390,-164
-120,-111,58,-2473,3607,-2703
61,-61,59,-2684,3797,-2407
-11,26,63,-3610,3810,-1377
94,-41,28,-2923,4095,-1376
-74,-104,76,-3087,3362,-549
58,118,117,-2581,3176,-226
-53,124,-65,-3018,2715,153
-70,85,65,-4029,2049,952
-64,-61,-107,-3698,2233,1013
-67,74,-98,-2108,2086,885
-94,6,-75,-2593,2079,258
-128,-82,-36,-2848,1470,505
120,9,-38,-1903,1730,118
55,-63,-7,-2069,1939,-784
46,103,-42,-1250,1795,-1218
18,13,123,-848,1872,-1816
-9,-9,69,-311,1413,-1888
-35,-32,10,178,1224,-1951
-66,1,-68,757,1177,-1961
-87,82,-125,854,1499,-1673
-87,-87,29,1072,2377,-1476
-64,-4,-84,1956,2542,-660
-14,-43,107,1801,2423,1023
-106,73,16,2462,1915,2635
-108,10,-90,3001,-1371,5015
-18,-79,-104,1505,-5597,5817
-93,93,-119,-285,-9375,4501
-128,-38,126,-5106,-10142,4134
-115,-116,55,2286,-3009,359
76,-7,-57,-2025,-2222,-964
-33,-2,-49,142,-4669,1568
15,-128,82,195,-1633,166
127,79,120,-1862,-1680,852
84,50,-47,1296,-829,-685
-58,-86,75,-1360,-1123,643
-94,24,23,1420,-817,-1000
116,-94,53,-1516,-1288,853
95,-6,-39,863,-1369,134
31,125,-29,-638,-994,48
-1,10,-33,392,-226,-560
-49,116,-37,-804,-175,-468
-85,0,-59,378,48,-941
-87,109,3,-457,-534,-603
-107,4,-83,687,1099,-1623
-89,-34,-35,338,1129,-2161
-106,-42,104,-140,1891,-1663
-43,122,96,468,1602,-1516
-46,-103,10,257,1632,-931
-13,-116,20,-60,1626,-638
-25,-123,-24,545,794,-579
-120,-101,97,-3604,3068,-2144
-40,-105,44,-2238,3310,-3224
46,79,0,-4021,3995,-2781
-16,-24,81,-3516,4745,-2622
31,-71,47,-4758,4268,-1261
124,-125,-74,-4215,4557,225
-102,56,-53,-3771,4002,645
122,124,0,-3992,2457,1495
-5,-68,-96,-5774,1409,1702
-98,41,-7,-3623,635,2117
-111,47,28,-1866,1615,750
-107,-4,124,-2105,514,1371
-25,65,-79,-2549,1321,945
5,-77,-83,-1726,1573,383
19,-104,-98,-1992,2431,-126
1,75,60,-1086,3314,-1060
-38,117,-20,-1036,3208,-1069
-93,95,28,63,3217,-1321
-114,-102,-25,951,2215,-1265
-34,-2,-41,1288,2442,-611
-3,94,-51,1908,2071,250
18,-41,74,2351,892,1996
-53,62,14,4385,-1569,3760
119,47,8,4062,-5087,4328
98,115,16,3183,-11847,6085
17,67,23,-2897,-13851,3704
-31,-88,80,-3222,-13327,4819
-120,-70,-84,-181,-1686,417
45,64,-12,-4646,-1175,-4089
40,49,-51,2028,-5686,77
-68,61,-17,1129,-2781,-202
57,33,-112,-848,-1227,-183
-37,-21,64,1390,2143,-2296
-86,40,-76,2101,5060,-3703
35,-100,14,-741,-854,-116
-92,103,39,-1281,526,568
-97,72,-82,-1775,2132,-1269
116,-83,11,828,3056,-2643
105,-55,6,470,1766,-2434
-98,-58,44,83,549,-770
-82,-22,76,-616,54,389
-63,-45,75,-39,60,70
-9,-33,100,75,115,-126
-1,-31,111,203,337,-248
18,-24,94,19,614,-400
45,-29,106,195,436,-201
38,-46,80,607,518,-390
71,-13,103,-92,181,-127
95,-14,106,-249,303,-107
111,-45,74,-156,547,-723
114,-55,121,-1924,4254,-2714
-114,29,67,-2697,4730,-3124
23,30,16,-2121,4742,-2541
91,-108,32,-3150,4432,-1518
99,-67,34,-2289,4013,-720
-100,-25,52,-4495,4119,497
-40,3,89,-4961,2661,1759
-123,119,-117,-3490,2974,1316
55,110,24,-4952,1428,1692
102,52,110,-3404,1816,1509
72,-55,-89,-2890,1373,1710
56,-70,-69,-2472,2461,621
61,94,-84,-1609,3239,109
20,25,5,-1259,5499,-1027
-73,-89,-30,760,3509,-1803
-128,-28,35,2096,2964,-917
110,-120,79,2780,1900,-491
-72,77,-35,2869,2949,422
24,4,-91,1958,2882,854
-81,-86,87,675,225,3187
-98,-20,40,1981,-3473,4857
36,-59,96,3430,-5963,5087
21,-43,52,2170,-11593,5974
-69,-32,-60,-2852,-13595,6002
97,-24,-6,-761,-13003,8462
-115,-41,72,-5678,362,-377
-109,37,-16,-1052,-1295,-1963
48,-34,-122,898,-4861,963
-47,9,105,1717,-2992,803
119,-79,-39,22,619,-27
-93,85,50,1848,-174,-1325
48,127,-119,2273,646,-1568
-71,-19,0,-152,1739,-2313
-94,90,-63,-315,2169,-3258
-62,-57,58,644,3225,-3442
-4,-93,-7,-382,2752,-2956
-8,121,0,628,648,-1507
-33,-114,20,55,-47,-458
-34,-77,61,-1164,51,-92
21,-58,91,-1217,-16,174
49,12,94,-1378,-124,166
30,-9,117,-480,-283,-309
49,24,104,-656,305,-364
72,54,-128,-1123,252,-138
81,47,-127,-611,141,-303
83,7,82,377,845,-1100
109,28,51,-29,803,-963
-128,59,40,-671,194,-178
-119,89,85,-1242,-603,578
122,90,74,-879,-50,262
-85,68,-33,-2256,3510,-2318
-117,42,-34,-1979,3808,-2292
70,95,-33,-2870,3818,-1305
5,-98,-34,-3008,3726,-1123
116,-100,-67,-2591,3505,-344
-37,-109,-91,-3307,3161,388
81,-96,-74,-2982,1849,1234
-9,30,28,-1662,1499,2058
-50,47,-102,-2421,1214,2356
-75,-21,5,-3239,1248,2318
-97,46,51,-2775,1105,1802
-89,-50,112,-2991,584,1778
-46,0,-114,-2704,1381,988
-41,125,-118,-1143,2280,78
-52,-127,113,-2020,3177,-1266
-86,91,20,-1842,4163,-2391
109,93,-74,-2298,4299,-2417
-96,-58,-29,350,5148,-3302
-86,21,110,-415,5031,-1562
-123,-36,-121,1470,5080,-583
14,102,-11,1821,4501,1776
-40,-124,-58,1249,2910,3949
-72,-77,39,2272,953,5781
-67,-80,-126,4277,-6696,7194
-50,-76,-75,4475,-12723,5389
-38,3,102,-3151,-22303,10249
116,-74,-106,-9159,-7260,3430
-4,-21,27,3635,1237,-10056
126,69,43,223,-9717,2979
39,-60,-4,-1807,-4240,977
8,-22,-100,437,-380,-2664
111,24,104,629,-852,-1553
69,-121,-95,2162,327,-2440
-28,-107,97,-1562,1440,169
-85,81,-12,-1022,658,-82
82,18,-43,-251,429,-1368
106,6,-96,-363,1741,-1635
77,-61,118,349,1070,-1319
75,-107,86,398,559,-606
85,-108,17,391,1153,-915
84,-108,-10,30,1074,-1048
103,84,-22,781,1241,-1260
-125,76,-11,707,822,-551
-97,109,-26,246,798,-45
-62,122,-42,186,664,-197
-30,-123,-39,258,561,-285
-2,113,-42,526,597,-619
25,115,-29,474,561,-575
43,113,-24,298,516,-352
71,-124,0,-102,228,-181
74,88,-70,-1912,4944,-2511
66,32,89,-991,4206,-1804
84,-32,-103,-5,5425,-1700
56,-17,38,1575,5456,-374
11,65,23,2384,4347,1003
-90,-118,-108,2835,2507,3111
-64,-1,21,2377,471,3320
-66,-52,34,3978,-2470,5375
60,-2,-32,2144,-9119,5943
12,102,64,3757,-16475,5694
13,16,50,-8044,-12368,3755
38,84,-21,4181,-13080,2063
-87,107,28,-3560,-1009,-2348
127,-2,-98,2008,-6803,1692
86,-49,-117,-2460,-2933,1616
50,115,-98,639,1099,-2445
98,-5,1,1526,243,-1523
-99,98,117,867,1295,-1043
-38,-54,22,-1207,1456,-859
-79,97,-49,-133,1272,-1763
-101,-34,102,1675,1880,-3057
-126,-49,22,444,2393,-2939
-67,-77,53,196,1482,-1083
-109,107,-10,305,1136,-1273
-82,-109,-14,76,864,-925
-44,-62,-5,-240,826,-429
-12,-27,48,91,231,-324
5,-37,38,1106,719,-623
15,1,56,126,673,-1024
60,-63,71,613,456,-914
106,-56,80,66,706,-507
-116,-22,84,-787,445,-25
-104,-46,76,-363,223,-71
-85,-32,67,-466,277,-158
-71,-11,70,-697,333,-285
-70,-50,49,-163,297,-536
-56,-10,50,-776,150,-199
-46,13,42,-1175,179,-133
-48,-3,22,-847,295,-375
-47,31,20,-1258,243,-314
-44,35,12,-1233,181,-348
-32,72,13,-1749,203,-86
-22,107,32,-1927,197,120
-28,88,30,-709,151,-338
-9,-99,41,-1391,286,-407
-1,-97,35,-1274,415,-460
-16,-106,42,-778,280,-593
-17,-78,48,-842,329,-470
-15,-63,53,-828,403,-430
-10,-54,52,-704,349,-459
-128,102,9,-1787,3830,-2587
78,45,126,-1604,3370,-3514
12,-81,-41,-320,1365,-4043
-6,121,67,362,3496,-3946
46,-35,-29,1827,2903,-1735
53,-122,61,2917,4144,-984
7,104,30,2700,4102,1338
122,48,-118,3161,2733,3642
-87,33,79,2672,-1700,7041
-118,44,-92,4192,-6862,6574
121,-100,-113,90,-12895,6145
-21,-44,-102,-3058,-16151,6051
41,-1,114,-2048,-9850,3804
-82,-36,75,-2858,960,-4429
124,-57,48,1553,-2867,-991
50,102,-81,-3039,-6022,3037
-108,60,-1,788,-294,-750
-1,25,-22,611,1572,-1905
36,119,-126,299,1544,-1074
-45,-87,99,-594,1007,-750
-53,98,-64,-379,2049,-1423
-64,41,103,199,2721,-2137
-69,-9,21,588,2505,-2190
-41,-8,1,446,2184,-1371
-46,-48,-23,666,1645,-1137
-32,-60,0,7,1103,-943
16,-79,45,-61,700,-434
47,-88,65,158,327,-158
96,-35,94,-213,48,204
82,-64,93,424,-289,-101
-128,-79,99,940,128,-289
-113,-21,86,-386,520,-199
-86,-8,71,-503,158,40
-65,-14,66,-355,-272,-26
-117,6,68,-584,101,-378
-115,-18,51,-384,496,-716
-71,-10,31,-321,249,-501
-67,27,42,-908,-202,-191
-86,38,53,-1251,60,-202
-61,32,50,-989,388,-277
-49,49,35,-764,284,-302
-66,91,13,-1054,327,-447
-61,103,14,-1172,409,-314
-65,124,8,-1089,323,-231
-63,-118,1,-826,260,-288
-64,-97,0,-770,335,-413
-46,-82,-5,-1044,715,-788
-14,-64,4,-736,618,-670
-23,-61,17,-494,234,-628
-27,-59,35,-663,308,-603
-16,9,79,3691,917,4677
-22,-26,-8,3111,-2610,5625
-37,19,-17,3548,-7208,5904
-79,40,40,-955,-14064,7303
92,93,71,-8077,-12994,3517
80,-27,-125,-1315,-10178,2400
-115,-12,1,-1019,878,-2965
66,-95,-30,-2826,-2795,-2722
-77,53,-35,1339,-5648,879
84,91,53,1462,-998,-1060
44,-109,72,-2266,2996,-995
43,-48,45,2791,220,-1784
-84,76,-38,2204,-263,-578
-91,-70,-93,-207,2014,-1457
-112,-92,15,-2230,557,224
-84,85,70,-1206,778,-427
66,24,84,-800,526,-1639
110,-19,78,-32,1189,-1436
-123,-43,55,641,1182,-913
-101,-56,47,1076,535,-560
-53,-80,35,1403,505,-634
10,-78,34,859,575,-674
14,-89,48,61,477,-704
14,-113,69,-689,535,-499
44,-36,73,-2850,1224,646
14,82,18,895,446,74
71,-101,27,603,584,126
121,-52,12,426,537,371
101,-98,-26,1193,287,-282
89,-56,16,-34,-63,-15
115,-54,9,-656,220,101
-95,-116,6,395,-48,-303
-77,-76,55,9,-318,-73
-125,-71,76,-415,113,-716
-99,-84,73,-1155,911,-1195
-78,-90,59,-1014,1156,-956
-58,-87,11,-700,1235,-1037
-13,-51,-32,-785,1090,-713
-24,31,0,-1389,-289,88
-59,52,16,-1269,-281,-200
-13,63,14,-1433,877,-963
18,41,-3,-472,1282,-1412
-1,44,0,147,737,-1450
10,103,-8,-756,695,-941
-10,115,11,-1190,-131,-329
-40,-117,60,-1435,-745,46
19,-109,109,-1397,-189,61
23,106,67,-49,752,-816
-18,-126,73,62,463,-853
-7,-43,87,-1336,201,50
-64,-128,93,-3372,4043,-1542
-93,9,121,-1781,4496,-1647
104,-25,-82,-600,5322,-1227
26,-67,76,573,3850,-2251
-29,114,-6,759,3638,568
-87,-97,-7,2315,2691,44
-41,-22,40,262,2190,1792
75,56,-96,3032,1033,3124
46,24,-8,5780,-1271,3319
-67,-19,85,3901,-6465,4130
79,90,-76,2532,-12028,5752
-86,-13,58,-3329,-14534,5029
-39,-101,123,-2453,-11006,4218
-102,-99,-117,163,-3052,-461
87,-75,-37,-2447,-2683,-1761
32,-96,47,-1986,-3642,106
-60,-44,3,2919,-1487,-749
-111,-99,-69,-863,86,-72
-106,62,-43,1240,1667,-1527
-82,120,-105,547,908,-1932
115,93,72,-82,999,-1273
102,80,-24,-1123,1673,-1281
113,-7,-127,-797,1759,-1598
-117,-90,96,955,1561,-1858
-106,-92,52,883,1506,-1586
-66,-63,85,-580,954,-844
-23,124,63,108,714,-555
-18,118,75,267,480,-253
12,-85,85,-385,339,223
30,-91,76,-81,128,318
52,-79,66,79,169,295
72,-39,69,-346,59,341
48,-46,59,-69,154,54
40,-56,46,93,282,-382
87,-54,51,-10,313,-307
87,-47,56,-156,186,-259
98,-59,40,-32,458,-711
-126,-50,22,-365,607,-816
-111,-58,0,-379,420,-757
-106,-52,-5,-562,322,-565
-96,-21,-4,-988,212,-227
-102,-11,-6,-790,142,-274
-82,7,-8,-766,439,-472
-52,24,-21,-647,609,-615
-42,23,-26,-356,470,-717
-17,43,-18,-575,583,-652
-14,36,-21,-416,757,-793
-2,31,-1,-124,660,-876
-7,34,0,-109,1004,-1039
-20,30,-7,-127,726,-953
-122,51,125,-2985,3606,2092
105,28,111,-3196,2603,2542
-58,-37,-52,-4181,1391,2475
-96,-90,-26,-3961,1867,1586
96,42,34,-4137,-220,1665
-116,43,19,-2385,478,912
-84,126,63,-3093,-23,397
-58,-59,-26,-1759,1152,61
-72,120,-55,-2065,1793,-611
-89,46,-126,-1046,3116,-963
-100,80,79,-685,4163,-1610
115,-107,-17,289,4870,-1748
111,-47,-86,979,5555,-1766
61,41,118,1447,5927,-543
-24,-59,-12,1236,6082,-27
-90,64,121,861,5341,2157
-42,10,-3,-111,3419,2733
56,52,87,3111,-498,5486
-101,-74,6,6234,-5207,5635
70,87,87,4175,-11200,7452
26,114,48,-2492,-18710,6121
100,64,123,-2648,-13616,2357
91,114,104,1621,-1184,-733
114,-48,-56,-1573,-1175,-3343
-9,70,22,1533,-4104,201
124,-93,-42,769,-2514,1674
20,-92,-22,-1208,-166,-247
-95,53,24,1073,493,-777
-10,-93,-65,-314,799,-1076
-70,-126,39,-378,2213,-2102
-44,-117,121,-1765,2438,-2551
-56,-6,72,135,2348,-2484
-89,-41,52,494,1749,-2172
-74,-84,23,387,1877,-1554
-40,-66,31,-520,1387,-742
25,-72,15,-316,828,-61
77,-57,19,359,278,79
61,-43,47,293,345,-278
54,-81,33,434,1053,-582
70,-108,35,1494,689,-179
92,-101,37,1343,418,220
-123,-74,11,664,699,547
-123,-77,34,355,-240,583
-126,-97,75,148,-728,490
-82,-124,88,-43,-19,415
-95,127,59,-5,394,-49
-92,111,37,273,55,-551
-71,-104,54,-816,24,-280
-89,-119,47,-834,266,-441
-95,126,27,-502,378,-738
114,-28,47,-2542,3162,-2393
-104,-32,24,-2070,4073,-2088
17,1,2,-2760,3943,-1353
124,-25,-25,-2069,3786,-309
-91,-87,-3,-3044,3242,888
4,-88,70,-2580,2239,1696
-113,-65,-106,-2075,2284,1554
90,74,-69,-1515,2038,1552
47,27,-46,-2159,1772,1967
66,-107,1,-3126,1602,1923
32,-35,42,-3027,867,2145
67,-59,106,-1798,1406,1452
6,-122,-61,-2562,1162,1531
-52,9,-32,-2398,2092,960
-60,-76,-126,-2508,3912,-267
-99,-105,-64,-588,5970,-1341
67,-16,32,-315,6340,-460
-58,-67,68,1858,5354,-65
-61,57,-2,2420,3748,273
-73,118,-92,2084,2630,1360
-40,0,75,2915,2696,1889
46,-61,1,3488,1004,4410
83,109,-111,4282,-2558,5736
86,92,-4,179,-11255,7474
-126,-5,-26,-3249,-12753,3536
54,-30,-83,-5573,-13293,2816
16,-108,13,-3616,-8290,2570
-76,-39,-80,416,2241,-5508
-57,30,58,2128,-320,-938
-93,-11,-101,-1792,-7047,3854
-13,-34,28,5164,-1681,1132
-90,-77,123,8,563,1379
80,53,116,1165,1327,-432
-23,46,37,2468,-186,-485
-94,31,-36,2105,-243,-833
-109,-71,-117,2588,751,-1299
-103,-85,122,1642,620,-1243
-68,115,126,733,295,-911
-37,104,-86,31,-162,-463
-9,87,-77,-351,-209,-740
-118,62,-69,-1088,247,-804
64,95,-75,-1280,-125,-640
-53,124,-108,-1095,-157,-926
4,-88,-106,-1972,252,-511
119,-41,-110,-2886,541,-27
-7,18,-128,-2284,983,519
-65,9,65,-249,1404,-1007
-122,5,41,1187,891,-1990
117,17,48,690,709,-2310
-72,-29,16,-39,1433,-2310
25,8,-124,-2710,3674,-2385
-19,7,52,-2178,4217,-2195
104,97,5,-2767,3870,-1543
-66,-26,-49,-4550,4021,-695
-27,11,-101,-2574,4060,1134
89,18,-127,-4211,3881,891
-122,-122,-92,-1582,1917,1869
94,43,40,-6010,1238,1750
33,-47,-122,-2753,-27,2875
76,11,-2,-3506,312,2564
85,-127,23,-1541,-8,2329
117,65,94,-2121,710,1630
-98,117,-119,-1301,1961,228
-104,-120,-114,-2456,2913,-663
114,19,-33,-954,4346,-1579
65,94,113,-991,5221,-2084
35,68,22,-1159,4609,-2730
32,25,-59,241,5371,-1534
-74,119,58,924,4721,175
75,46,70,1311,2730,1795
-98,117,49,2498,2258,3393
-101,40,-41,5977,-514,5553
-71,60,12,5236,-4622,6350
74,41,119,4470,-10784,8547
-93,-29,37,-2637,-16387,7049
-64,-50,-58,-4919,-12790,3112
86,-21,-40,2453,-3084,1012
64,97,23,-6069,717,-4959
23,-48,-128,2161,-527,-2002
6,-108,114,2565,-2808,1498
54,91,-44,-16,-354,1140
125,87,4,1962,1273,-240
-51,-84,-84,1397,851,-923
-105,-81,26,491,1444,-776
117,106,-60,-36,1554,-858
-118,10,72,1351,1507,-945
-97,-2,48,804,965,-885
-54,-69,48,902,815,-1051
-5,-106,64,103,597,-987
16,121,99,-154,60,-633
19,98,-125,-322,86,-536
103,91,115,-582,589,-234
84,102,-128,-101,179,-57
59,116,109,-50,618,-289
89,-122,88,-341,842,-383
-128,112,51,514,538,-354
-114,-73,68,-472,162,22
-127,-76,55,-530,229,-7
-117,-59,38,-552,204,2
-124,-34,35,-810,-24,142
105,71,-62,-1639,4225,-2653
62,-40,6,328,4863,-2225
11,31,-84,1045,4829,-1751
0,-96,24,1413,4533,-939
-13,-33,-101,2508,4628,255
-55,-91,77,1415,4486,814
34,51,-37,2015,3199,3396
2,-6,125,1645,1016,5795
-37,-74,-50,4898,-5693,7852
110,-70,86,2974,-12753,9118
-15,68,122,-4314,-17543,7990
69,55,8,-3403,-15417,7252
84,-48,-49,-514,1512,-1370
94,-46,17,-2706,1860,-5343
-3,116,-76,903,-6965,1601
61,-8,86,2803,-1821,-53
10,111,23,-87,12,-316
-128,62,-58,1525,537,-333
-46,-79,-103,1102,-309,-434
-83,-67,100,113,598,-799
-120,122,30,222,1358,-1895
-112,-3,-97,707,2122,-3121
-72,-57,105,720,2212,-3005
-34,-111,55,376,1967,-2600
-6,118,42,-444,1597,-2086
8,98,50,-765,862,-1232
17,63,61,-400,335,-859
89,39,51,21,868,-829
117,46,44,168,1104,-561
93,19,31,1057,718,-325
100,52,36,751,508,361
-121,107,32,-379,415,1116
-73,76,-11,800,-2,1450
-95,104,-1,1300,-155,1206
-96,104,-10,1254,237,683
-93,115,0,707,242,439
-109,92,9,710,-68,334
-120,82,26,373,-254,154
-125,87,49,-132,-226,85
-125,79,77,-200,-406,-280
-117,58,86,-151,32,-1104
-101,57,80,-591,395,-1524
-63,83,69,-1514,763,-1346
-33,112,46,-2293,1047,-1024
-17,107,-10,-1659,1189,-1288
13,-118,-40,-1013,1101,-1488
28,-62,-43,-1102,893,-1330
27,-21,-49,-1242,719,-1207
32,23,-56,-1402,591,-1034
16,57,-48,-1476,333,-719
-29,73,-95,-2253,3766,-2953
105,-112,-89,-3152,3807,-2006
12,-58,81,-3533,4390,-1061
-115,-103,2,-2407,4569,162
9,-34,-61,-2827,3881,661
62,-27,26,-1936,3042,1331
-42,114,60,-828,3403,1088
-122,-69,-72,-2704,2315,1704
-91,55,55,-3378,2451,1964
-77,-126,103,-1513,2908,1202
-85,68,-16,-2088,2698,1001
114,-69,36,-1228,2861,178
115,-111,123,-2021,3028,-789
88,34,65,-1500,3550,-2210
32,-36,-39,343,3254,-2618
-30,-89,85,1624,2394,-3861
119,-71,92,1640,2571,-3492
118,-58,9,877,1681,-2425
-92,-113,61,3061,2240,-1743
-30,21,-16,2865,3680,-319
117,-84,107,2420,3126,2228
109,-48,-42,1512,-28,5268
-97,104,-82,1824,-5108,7069
38,-114,65,-1359,-9964,5882
-120,-39,107,-1379,-11597,3903
105,-119,-9,-3567,-8768,4699
109,-36,20,-1215,-3460,541
75,126,-71,-3830,-461,-2410
8,-106,-44,-592,-239,-2999
-40,119,66,2132,-4549,519
121,84,-24,-1385,-3446,1560
88,-96,77,2832,781,-919
-121,-5,-122,-478,28,-351
58,101,-60,960,1520,-618
-117,96,31,1746,1171,-1173
124,-107,-17,758,941,-530
115,111,-78,877,744,-560
126,72,126,831,821,-877
-112,34,102,806,880,-1231
-107,-6,84,490,673,-1369
-68,-9,113,-773,587,-769
-67,-70,108,-188,392,-760
-35,-95,111,-70,625,-730
-19,-101,110,117,425,-398
34,-76,96,-247,475,-77
38,-84,81,257,248,-266
36,-54,83,-245,627,-416
45,-99,35,446,666,-665
66,-93,21,549,226,-288
78,-56,37,-227,-176,184
19,65,48,-4774,2273,2541
-76,-8,-81,-2181,1427,2307
-89,-97,-24,-2753,1466,1779
127,-50,17,-1720,587,1732
-92,28,106,-2261,901,1614
-116,-124,-113,-1168,1358,1483
60,37,-64,-939,2519,427
-26,38,-77,-985,2994,-682
-42,6,-80,-289,3794,-1567
-67,-124,-73,-2822,4259,-1915
-118,14,38,-1035,4663,-2677
53,2,60,146,5485,-2571
-18,41,-68,1074,4663,-1934
-59,116,-5,2246,4742,-1100
-66,49,-75,1578,4175,599
-52,-55,-108,1449,3793,1504
-121,-121,73,2720,2081,4506
-96,86,-35,4006,-1090,6526
59,-43,74,4041,-6443,6779
112,-4,-30,1279,-16650,8015
-124,-64,-118,-8931,-16837,3507
-113,-48,-11,2149,-11395,2726
60,-122,-58,-4063,5978,-4804
70,-112,-85,-378,1055,-4499
117,28,93,6763,-6778,3493
-114,111,27,-2356,-4364,2815
-120,15,-18,1241,-484,-1024
15,-16,-102,1695,2279,-3169
21,35,-69,1951,1429,-1650
-77,56,53,44,1836,-1090
-64,-32,-57,-185,2094,-1541
-36,107,62,973,2365,-2270
-53,108,49,1050,1939,-2008
-29,89,38,731,1547,-1747
50,11,-11,839,1660,-1932
123,-16,21,512,1430,-1192
-103,10,99,38,310,460
-127,16,104,161,-185,785
123,-14,62,882,332,133
-79,-32,12,1155,1024,-140
-44,26,55,371,34,1266
-66,112,87,-1059,-801,2195
-96,99,51,-604,-653,1636
-105,111,19,-169,75,539
-114,97,-6,626,338,-696
-105,127,43,-212,7,-715
-123,-118,69,-1152,131,-561
122,85,83,-647,265,-884
-110,-122,93,-1547,633,-860
-41,-91,46,-1939,1137,-809
-121,15,54,-1876,4391,-2863
59,-37,-102,-271,5903,-3381
-31,56,47,-305,6018,-2502
-105,59,-21,1698,6993,-1200
21,-25,102,1661,5629,180
56,-71,-73,1477,5164,2165
-57,115,-84,1546,2459,4767
-124,67,4,3593,-1126,7789
87,64,-67,5594,-8903,9149
-12,40,-94,-872,-18379,8146
-33,-81,40,-8348,-14921,4516
108,33,-126,1628,-9089,2668
78,103,-92,-2844,5886,-6844
66,56,-55,3793,-1463,131
-34,-79,-126,826,-7945,3351
27,44,80,2683,-1623,815
125,65,-69,-269,1223,-1563
40,-104,121,1871,1761,-1629
-39,-20,55,109,1174,-1209
-94,120,-30,-6,1288,-1707
-62,21,-93,-60,2221,-2233
-76,-122,105,353,2062,-2467
-47,-98,123,-65,935,-1098
-54,-110,-126,-686,479,-664
-38,-107,77,-874,879,-559
-52,-98,71,-240,572,-387
-37,-61,53,-195,391,-571
4,-64,56,-339,468,-462
58,-15,67,-770,94,35
45,-8,61,-509,32,-229
91,-30,63,56,410,-499
-107,-7,46,340,220,-182
116,10,68,411,25,-199
73,5,69,-42,386,-579
121,-20,54,-91,681,-429
106,2,61,-336,-94,-155
93,-12,36,-223,80,-488
-125,20,67,-1136,24,-158
124,13,52,-731,233,-148
122,40,39,-1035,380,-542
-104,75,33,-1530,483,-378
-97,63,15,-995,393,-598
-84,74,9,-745,586,-818
-71,82,-3,-405,716,-959
-86,92,-4,-555,578,-916
-87,109,-8,-738,466,-683
-76,106,-1,-511,181,-428
-70,-113,4,-831,184,-147
-49,-105,12,-751,185,-142
-23,-101,29,-528,443,-164
50,-120,-12,-3896,4279,-1823
49,81,16,-1456,3706,-2212
-71,-75,-34,-1203,4107,-2251
28,30,-54,-2537,4416,-1219
-119,42,-113,-2097,4640,-441
34,114,99,-2249,4498,915
71,-123,87,-2081,3102,1654
-85,122,-89,-1958,2413,2011
71,42,-11,-1461,1049,2830
67,127,116,-3849,433,2900
112,77,-116,-227,367,2129
-53,117,11,-3481,564,2084
1,54,-11,-841,1270,1558
-48,28,92,-2516,1779,726
-65,87,78,-1457,2974,-213
-80,88,103,-2939,4149,-1111
-79,-2,-33,-1725,5412,-1481
29,-72,7,-589,6210,-2078
-67,-31,66,406,6757,-1278
45,42,-59,2121,5909,-863
14,-72,88,-383,5356,1242
126,-93,-53,2879,4607,2121
-9,-120,84,705,975,5071
-108,-8,-109,6821,-4116,7387
-21,82,-88,4268,-10562,6690
-21,42,13,-2437,-19071,7755
-18,-121,-47,-5813,-12086,2386
-101,-77,37,3621,-5877,756
-118,-75,-72,-6782,2193,-4424
72,27,-1,5738,-2757,-464
46,-74,-114,-1121,-4775,2318
22,108,-40,702,-2587,1588
8,34,-22,2850,-1022,-1547
63,-24,-53,1515,-396,-1344
40,0,-42,-41,454,-803
-72,-64,120,-444,1411,-1489
117,67,44,-282,2345,-2395
125,-53,-58,516,2875,-2992
-105,79,60,950,3085,-3083
-66,63,62,687,1406,-1529
-56,99,125,-963,138,-234
-9,58,83,-1359,356,-245
39,77,76,-863,553,169
-19,-111,113,-870,-7,504
-70,-73,96,-449,234,235
-16,-105,32,719,1110,-469
3,-60,39,812,634,-264
17,-48,58,571,166,-358
76,-86,38,582,936,-848
-103,107,-10,1130,1107,-1095
16,-121,-113,-2992,4820,-1809
36,42,-52,-2191,6776,-3111
-128,-79,-12,-637,7093,-2677
-66,-107,115,22,6119,-2257
100,-71,-14,205,4726,-685
69,-125,-82,147,4833,1589
105,-112,-112,-339,3581,3725
-77,68,-88,4477,806,6391
-87,60,-110,6389,-3461,7185
-92,46,78,2155,-13009,9429
-81,9,76,-5638,-16428,5677
-124,-84,-47,1228,-13319,5051
105,-49,76,-1548,-2490,3627
-87,53,30,-2598,801,-3994
124,-18,126,642,-3552,1039
-87,31,-104,2294,-3798,1059
-91,55,10,676,-2713,770
-124,-122,-76,1031,-94,-35
72,-81,-69,1844,-342,-1885
-52,106,27,3587,326,-3545
-86,-108,-72,551,1931,-3568
-38,0,107,-317,3076,-3130
-24,-102,58,-147,2192,-3019
17,56,66,757,679,-2852
48,48,72,87,477,-2512
70,38,100,-1272,1006,-1966
67,10,53,-1437,1330,-1445
90,20,72,-1152,506,-379
94,82,72,-689,186,725
112,-107,85,-1056,83,877
114,-62,46,-923,802,538
-92,-44,-22,-14,1085,223
-72,-8,-1,369,-136,745
-56,43,3,-88,-417,927
-96,15,2,5,-301,263
-100,-4,15,91,-336,-78
-94,-27,28,259,-201,-96
-68,-33,32,46,26,-14
-71,-38,17,-108,79,-149
-76,-43,15,-248,43,-349
-74,-34,19,-761,220,-484
-53,-29,9,-1079,439,-513
-26,-20,-3,-1036,441,-429
-39,9,-1,-1141,546,-562
-40,27,-14,-1136,898,-1040
-11,37,-26,-1179,1096,-1267
-14,54,-35,-977,1036,-1355
-30,82,-29,-792,685,-1171
-25,103,-24,-896,499,-894
-8,127,-16,-934,379,-604
-71,-88,13,-2698,2535,-3067
-90,-74,32,-516,3431,-4187
58,123,119,-2069,3307,-2901
-61,123,-96,-1957,2773,-1281
-128,-49,-68,-2767,2648,-761
79,-43,-45,-2850,2721,371
67,-90,-53,-2288,3541,160
-33,-89,9,-2683,3240,588
-105,-107,24,-3193,2290,1118
88,79,114,-2828,1612,1281
52,-72,-20,-2876,1431,1017
61,48,83,-2824,1350,683
42,-57,-68,-3018,1048,752
58,1,-24,-2885,1499,409
57,-84,-66,-2721,2112,-138
33,70,-125,-1809,2433,-324
-40,30,121,-2278,2906,-1043
-98,5,-80,-2596,2731,-728
-81,-107,90,-978,5280,-882
24,-18,-111,-293,7066,-1448
-74,66,109,639,7313,-397
96,-110,-73,1609,6539,361
70,-5,-33,2060,5272,895
-102,-27,-104,1386,2533,4439
-85,91,-66,2040,310,6021
-53,79,100,2928,-4383,8792
-61,-122,-101,3056,-11861,8991
-105,105,-51,-4340,-16071,6879
-74,-8,116,-5398,-13380,5129
-98,-8,-84,1927,-6678,1875
3,45,71,-6202,4846,-4079
102,24,-31,3861,-1628,-1167
109,30,44,714,-6561,3044
-27,96,-99,1460,-1881,1400
1,-49,-76,998,-1011,-668
-119,126,-92,2927,-436,-1112
-11,35,74,757,1084,-1169
-70,-53,-21,730,1542,-2068
-61,82,-123,639,2262,-2762
-67,-13,59,1389,1965,-2949
-35,-64,60,421,1855,-2581
-51,63,45,333,1056,-2163
-17,76,81,-480,621,-901
-25,39,90,-236,138,-619
18,66,107,-31,103,-98
66,-123,120,-401,-13,296
66,-119,-123,113,62,-209
77,-89,-109,6,599,-673
107,-93,-107,-423,865,-728
-125,-123,119,-137,961,-549
-54,-55,-91,-3605,2766,-2012
-13,-88,-54,-1890,2957,-2716
-105,-4,-60,-2428,3519,-2065
27,37,-74,-1916,3928,-894
98,49,-121,-1489,3961,210
79,110,-100,-1148,3875,837
39,7,-81,-2769,3918,1807
-39,48,-71,-3279,2999,2207
110,-19,-10,-2993,2169,1998
15,17,90,-2549,1422,1636
10,-121,-61,-2702,1204,1628
41,51,-46,-460,1283,1285
4,92,97,-3770,956,935
-33,83,89,-1818,1277,341
-27,64,118,-2013,2426,-584
-102,10,91,-1029,3260,-1310
-99,32,31,-1187,4788,-2826
-107,-27,-36,-1155,4954,-2962
103,-97,55,-694,5142,-2169
33,-76,94,768,4314,-524
-35,105,-80,1597,5531,235
-105,-125,62,1359,4503,2031
49,47,15,2038,3192,5130
-110,-30,-111,4398,-162,7009
-24,-34,71,4856,-6551,8315
82,-56,17,-1494,-17984,9695
-116,-115,97,-9781,-14661,4429
-95,35,-100,3540,-12942,5543
-26,-65,26,-6724,8866,-7123
110,78,15,5982,-1429,-1526
111,106,-25,-943,-5881,3044
59,-20,32,706,-1378,2669
-8,-90,92,-103,700,-985
60,-86,-28,662,-82,-1062
41,-93,-65,63,501,-679
-24,-97,71,-490,1661,-1113
-81,36,-31,924,1928,-2095
-79,-41,-126,2114,2004,-3029
-33,-53,82,1303,1901,-2875
34,-104,39,283,1838,-2452
53,-127,48,-808,1384,-2068
74,72,54,-423,912,-1566
78,57,51,4,894,-1248
78,87,60,-622,856,-783
95,84,51,-258,310,-8
101,86,35,421,261,307
-90,113,22,392,405,518
-75,-99,47,-119,-45,1011
-54,-97,35,150,159,956
-58,-58,37,97,217,898
-58,-115,120,-3728,3833,-1025
88,-95,-111,-3431,3304,-92
2,-86,-104,-2765,3498,239
-97,-59,-89,-2430,3068,662
114,-53,-55,-2591,2754,1144
-46,-72,40,-2596,1127,1730
-80,69,-107,-2431,636,2233
-88,-23,43,-2477,146,2525
-32,48,-102,-2246,1143,1507
-25,-63,-51,-3389,725,1260
1,-45,-100,-2406,1247,590
15,83,-87,-3490,1573,-5
42,-45,121,-3658,2321,-499
22,-58,41,-4722,3418,-761
53,108,62,-1502,6115,-1349
-100,-84,26,-1324,5557,-998
-127,127,43,254,6851,-147
-20,31,-86,1088,6573,1296
-95,-81,52,1326,6376,2127
74,0,-87,481,4495,3559
-8,89,55,1333,2484,5415
21,-57,-103,4587,-3022,9012
52,122,-44,4161,-9588,7999
-36,-84,-10,-1034,-18243,9146
92,55,-52,-9278,-17205,8513
-24,31,28,4021,-4146,-743
30,-79,61,-7306,3890,-6129
-117,83,25,5457,-5669,1998
-17,29,-27,-955,-4534,2562
67,-127,39,-579,-315,-1689
104,-56,99,4376,2091,-4262
39,8,49,-1367,2036,-1204
-100,62,23,-419,486,-478
118,17,-49,1067,78,-830
-64,114,-56,-1492,808,-784
-55,-33,77,260,1794,-1431
-92,-11,56,-175,1099,-1851
-80,-14,67,-543,367,-1351
-31,-54,56,189,488,-756
-2,-43,33,64,1132,-665
30,-52,9,120,950,-733
37,-55,9,162,373,-662
42,-14,50,-881,185,-291
75,-28,33,-405,618,-242
73,-22,44,54,295,-313
95,4,37,-67,539,-282
115,26,30,-801,623,-235
125,15,27,-572,265,-247
-100,-28,63,203,320,-485
-98,-27,34,294,740,-548
-122,1,-77,2568,4419,-1101
104,29,58,1613,3447,348
-115,46,-3,2919,3248,510
-49,-81,-103,1881,717,2383
-41,-43,-69,3203,-2894,5446
-78,39,-72,3089,-14408,8089
126,112,-86,-3738,-18039,6216
122,74,-74,67,-16755,5600
76,4,7,31,-192,931
97,-17,1,-2563,4827,-6308
-128,-79,123,1746,-6147,2226
-81,0,109,351,-3145,1834
-85,114,-62,25,1174,-1265
39,-26,-64,3848,924,-2678
-14,-117,38,2568,1492,-1862
-96,-64,-108,-426,2543,-1775
-68,10,82,700,2244,-2338
-43,-77,16,923,1956,-2384
-37,-89,11,296,1407,-1851
-29,-127,22,-3,849,-1402
-2,117,55,-690,473,-645
4,90,79,-306,118,-284
84,53,69,878,216,-150
121,-122,108,-173,-18,276
110,-108,101,-383,53,124
94,122,85,48,551,-248
119,-120,63,310,561,-147
-126,-62,72,-177,-21,203
-125,-38,76,-649,92,128
-122,-62,57,-366,495,-412
-102,-56,52,-512,627,-558
-96,-44,53,-535,397,-478
-91,-63,17,-217,542,-970
-80,-34,28,-985,245,-601
-63,9,70,-1431,42,-133
-43,-34,3,-495,969,-1410
-46,-27,-12,-372,790,-1520
-30,62,6,-2184,-111,-227
-53,83,18,-2196,-1055,712
-42,97,46,-1656,-568,912
-45,115,50,-1239,532,16
-8,-93,50,-1050,726,-279
-4,-43,62,-986,333,-504
-41,-47,46,-973,619,-946
-66,-26,60,-1472,643,-800
-55,-6,97,-1514,273,-285
-51,-6,93,-1093,289,-430
-26,34,108,-1373,446,-429
-33,52,119,-1294,376,-657
-34,55,123,-1314,633,-840
-83,-18,-28,-1899,3900,-2217
-110,61,-9,-2649,4044,-1398
37,-105,-11,-3462,3614,-836
-33,-44,-4,-3640,3556,389
104,-19,27,-3354,3453,640
-114,19,107,-4207,2287,1494
8,-82,-124,-3675,1131,1680
-106,5,-29,-3282,-291,1739
-103,25,76,-2564,-856,1925
-36,-97,94,-2096,-709,1634
34,3,98,-2292,-556,1506
89,-118,73,-1885,367,884
99,29,78,-2397,753,786
112,-58,50,-2952,2597,334
24,-126,-63,-3043,2955,201
37,69,48,-2550,4855,-125
-24,52,-25,-2044,5368,-125
-31,93,38,-775,6053,262
-116,-15,-92,902,5673,1228
2,-116,-18,1197,5036,2439
-35,26,84,2208,5416,2894
-78,-24,45,2219,2623,4395
-103,-127,-22,3533,-96,6311
-7,97,-28,3620,-4223,7427
-77,-29,122,4087,-9721,8011
-70,-55,-40,-37,-12672,4200
-26,2,-92,-5349,-9839,4833
-17,-21,11,239,-6269,1638
107,-125,-20,-248,-1738,-2690
-72,-56,14,467,-3215,839
-32,-30,126,746,-4942,2325
11,24,53,520,-1622,1112
33,-14,-53,183,236,-1192
42,21,-85,2529,-706,-2314
-16,-109,99,-298,1001,-495
119,-11,42,884,510,-1368
-112,-24,-30,7,1550,-964
-54,-74,120,-205,1776,-1162
-14,-69,45,-544,1421,-1179
-50,-107,75,-305,191,-1134
-14,-116,67,-664,464,-736
19,-90,77,-858,160,132
-7,-85,69,-101,476,11
-15,-43,11,-954,970,-969
86,-81,0,-771,992,-915
87,-55,-24,-167,483,-115
80,6,16,-1145,-313,-190
113,-20,4,-372,391,-291
106,-31,5,68,449,-751
124,4,25,-395,292,-417
-17,-73,-73,2071,1893,4829
21,-64,85,4583,-1309,6701
-54,-90,98,3849,-6210,7080
-15,-76,28,844,-11176,6076
21,-28,79,-6101,-13356,2370
83,127,110,-4492,-10789,1231
29,56,-3,4221,-4970,820
98,2,78,-2643,-1660,-3291
-99,-126,58,963,-3452,922
103,-3,40,116,-3696,1220
16,-1,47,1364,-1253,-170
-86,119,-47,986,302,-1109
77,-120,-26,5192,-258,-1117
-30,-103,87,1036,998,-222
116,-95,-5,-1637,920,-534
-61,8,-96,459,893,-845
-14,14,68,-69,1859,-1252
-38,-102,13,910,1491,-2083
-25,115,16,924,1290,-2106
21,116,31,-243,1235,-1315
40,83,66,-603,327,-609
61,54,85,-361,31,-220
-122,91,94,-630,35,240
121,-94,-57,-942,-1207,900
83,125,116,-267,315,-115
89,-97,74,-887,1518,-908
-121,-87,51,-293,964,-491
-110,-69,44,-47,234,-268
-111,-20,37,-695,157,-155
-103,-37,39,-603,256,-380
-97,-36,40,-366,196,-513
-96,-34,35,-13,76,-646
-62,-21,21,-71,84,-683
-43,25,31,-1165,193,-245
-49,59,31,-1752,239,-183
-66,42,16,-1024,233,-553
-50,59,18,-931,455,-570
-43,94,7,-1131,387,-450
-34,112,3,-1218,173,-168
-57,-98,45,-1513,3,88
-90,-80,42,-1309,593,-510
-38,-80,31,-1089,921,-781
-18,-53,24,-1025,601,-428
-28,-30,39,-1018,315,-288
-34,-17,45,-918,558,-595
-22,-14,48,-654,686,-839
-42,-16,48,-333,441,-892
-23,-12,36,-448,506,-843
-21,25,69,-1330,202,-349
-53,-1,74,-838,-63,-480
103,124,-74,-1594,5259,-1950
52,-123,37,-1128,4635,-2084
104,-124,106,-132,5674,-1064
37,-40,-31,1066,5122,-135
-48,-93,41,58,4995,960
117,91,-27,1410,3170,2414
-2,-14,4,3455,1389,4872
86,34,63,3418,-1609,7247
-45,117,-114,4343,-6633,7613
-110,-56,-60,1176,-14138,8876
40,96,110,-4307,-16804,6045
-26,30,62,-106,-12443,6528
96,1,56,-4354,632,71
-128,38,-93,213,-1655,-2410
77,-97,-112,-291,-1675,-100
103,-98,127,810,-1278,-188
-70,57,76,2092,2352,-1423
17,15,-87,737,2048,-2153
-48,-57,98,-867,1119,-733
-86,69,-57,276,216,-550
-10,82,-128,-434,770,-721
-3,32,57,-92,1173,-1455
2,-46,15,781,1405,-2090
25,0,28,-607,946,-1224
26,-24,56,-1079,235,-660
49,-60,71,-360,13,-358
60,-22,95,-461,-91,-185
78,-11,100,-325,-171,-527
92,-11,48,-482,825,-885
96,7,57,-984,760,-534
96,-16,46,-203,337,-103
-124,16,44,-183,210,251
-109,77,39,-662,179,130
-126,48,29,-148,336,-537
-121,40,21,-39,545,-745
-121,54,22,-353,231,-287
-117,88,28,-923,54,229
-83,108,37,-1267,122,250
-51,116,45,-1193,287,-92
-38,-123,41,-1005,801,-541
-63,91,28,84,560,-1001
-60,-121,34,-463,501,-745
-52,-105,33,-1126,501,-417
-54,-115,35,-1059,392,-409
-29,-50,50,-2076,722,-208
-24,-97,54,-983,393,-544
-27,-88,77,-419,293,-627
-29,-62,93,-511,394,-492
-39,-71,86,-87,270,-619
-22,-32,97,-755,445,-368
41,118,-51,-2745,3568,-2126
-13,104,-76,-3202,3690,-2643
-30,-24,85,-1598,5418,-3077
111,-87,70,5,6803,-3373
67,-50,-74,257,6259,-2368
57,-53,125,1919,6766,-1013
-17,-56,-25,-310,5514,1306
-27,-22,78,1079,4526,2692
-59,100,102,345,1275,7234
75,3,13,2576,-3998,8330
-117,-34,-111,1885,-10578,9501
66,72,-71,-2874,-17864,7751
79,-15,-7,-7735,-16393,6221
-82,-37,-108,1380,-4923,1499
-70,-53,-28,-3807,4947,-7525
-98,-89,-122,2113,-6050,2243
-20,12,24,-1588,-4253,1883
15,-54,40,756,218,-1646
74,72,18,393,2035,-1744
34,-90,-103,-574,1307,-1147
-46,83,70,765,728,-1081
-124,-107,-76,-605,1340,-1365
-105,123,-119,-1339,1448,-1534
-90,-9,95,905,1196,-1998
-49,1,22,1286,1529,-1405
-46,37,24,246,928,-640
-36,16,46,-466,251,-465
-17,-8,55,-385,452,-386
4,-18,57,-168,477,-412
25,21,70,-365,200,-204
42,38,64,-728,240,-289
56,19,75,-276,154,-491
77,8,59,71,555,-619
106,56,58,-758,481,-395
106,54,50,-888,507,-311
91,37,45,-525,637,-580
101,43,32,-297,997,-608
104,35,-14,56,1221,-913
118,26,-46,356,839,-949
-100,44,-34,-28,77,-355
-52,60,43,-430,-599,200
-45,9,23,659,461,-309
-58,46,13,-231,741,-881
-33,53,15,-762,491,-360
-43,44,0,-765,277,-207
-46,44,-18,-606,227,-141
-39,65,-17,-740,168,-54
-25,78,-20,-742,142,-60
-43,81,-16,-537,43,-261
-42,77,-20,-403,145,-431
-52,88,127,-1668,3213,-3230
-71,118,-103,-2110,3333,-3048
102,-103,-125,-2408,3376,-2621
23,-20,111,-3891,3679,-1625
-57,24,102,-4233,3856,-739
46,6,-103,-3730,3246,-102
-76,-22,-31,-4157,2994,344
-51,-116,119,-3903,1049,998
-90,25,-41,-2983,928,1166
-101,-100,44,-2821,312,1301
-66,44,-107,-3821,80,1778
-9,93,-122,-2629,832,1330
-11,6,-117,-3122,715,1091
0,46,109,-2481,1284,860
-40,-23,111,-2970,1965,104
-109,30,-49,-2010,3091,-957
123,1,109,-854,3844,-1716
77,47,81,-877,3749,-1720
68,71,-61,804,4431,-1348
0,-74,-63,757,4790,-1449
6,25,-1,1697,6215,-144
-120,125,93,1989,5362,1092
-75,102,4,1767,4527,3292
118,-117,-1,1657,2613,4718
-89,55,-82,2009,-475,6875
-98,33,83,2611,-7606,8053
-8,17,-73,-1147,-13592,7429
-15,-32,-36,-6069,-15868,4244
52,-38,42,-620,-12306,4783
-105,-82,57,-3067,-132,-1390
122,91,21,1257,-1394,-2340
-93,-71,-110,-484,-4558,934
-117,45,-46,-223,-1707,1244
120,52,110,922,61,-1129
-121,-67,-125,-687,1899,-1631
-50,122,84,-512,798,-1127
-92,114,34,-740,380,-816
-103,97,-23,-1425,1040,-902
-96,17,-70,-102,1536,-1431
-105,-23,-128,823,1584,-1900
-67,-15,46,738,1747,-1683
-29,-10,8,458,1434,-1055
-12,-7,5,-118,724,-600
-11,-21,8,-503,342,-503
-6,-35,6,-468,304,-477
8,-34,23,-444,130,-251
25,-25,29,-416,109,16
48,-13,31,-278,403,211
74,-25,21,324,622,66
111,-38,14,603,410,-120
125,30,12,-3512,3466,-1503
28,-122,23,-1332,2335,326
-58,-124,31,-2824,2739,667
-117,76,71,-1438,2233,1804
113,-118,-90,-2201,2021,2473
-104,57,0,-1664,1914,2974
-58,-52,46,-755,1997,2781
-57,-97,-54,-1555,2259,2544
-82,66,24,-1373,2258,1852
-111,-41,-67,-2620,2246,1388
-127,11,-60,-1643,2620,443
87,-54,-25,-1510,2527,-142
15,-86,-45,-2141,2957,-1206
-9,120,-76,-1706,3320,-2603
-47,67,89,-1265,4074,-3878
118,-87,-77,1370,4149,-6367
-116,-87,29,670,4098,-5651
-127,-117,-49,849,3703,-2925
-21,115,-33,2047,6121,-2699
-127,68,71,391,5667,-710
-37,24,-35,-2101,5601,1999
-113,35,90,-1064,3290,5773
104,118,94,1572,-731,6868
-30,124,39,3089,-5203,7897
53,1,87,-2070,-12044,9513
-117,-127,-56,-7680,-14010,5191
14,-103,-92,-3733,-11815,6143
-128,-46,35,-791,-1911,-1202
126,-70,-128,-345,-2289,-1968
63,120,63,-335,-3980,1113
123,-114,-116,264,-2012,-280
-87,96,-126,-369,1002,-436
111,71,45,732,960,-1576
2,100,-38,740,629,-1169
-44,-107,112,-1071,1165,-1575
-23,64,0,-662,2191,-1725
-21,-25,-109,-186,2814,-2152
-26,-71,74,555,2765,-2362
-4,-79,27,413,2582,-1806
2,-69,-24,703,1814,-930
15,-80,-20,1205,749,-675
57,19,42,-1093,580,12
83,10,56,-1363,317,415
73,80,81,-2470,228,688
70,-46,50,434,-24,-310
105,0,77,404,-18,-145
109,66,115,-605,-340,657
114,24,-125,550,-460,579
-110,84,-116,-270,37,604
-84,-12,107,1145,-150,18
35,31,28,-3893,2356,2327
18,21,-123,-1823,2049,2120
22,25,1,-1871,2057,1200
-12,-91,-110,-2050,1904,946
-21,87,-57,-2263,2017,281
-52,31,-34,-3168,2117,252
-66,119,108,-2458,2943,-860
-85,111,23,-3094,3989,-1789
-91,-9,66,-2512,5640,-2038
-108,125,-121,1050,6578,-3222
40,11,41,-141,4560,-1381
-13,66,61,57,3359,608
-79,-22,-50,1080,3095,1578
-113,-25,28,1785,1416,2983
-88,-50,-104,3343,-100,4096
78,-115,116,3994,-4065,6538
34,-75,-117,3242,-10630,6040
58,4,-126,-5699,-15735,4177
-69,125,-34,-4293,-16575,2236
-9,-10,95,1120,-7441,1431
-88,-33,36,-5832,-816,-2157
109,-27,52,1956,-3400,-1126
-8,74,-58,-523,-3417,187
-9,-1,45,-1229,686,-81
-83,28,40,279,1265,-1371
4,54,-1,1026,401,-1242
-50,-109,-86,-387,1044,-504
-43,-74,-2,-1633,1890,-785
-46,100,-60,-549,1722,-1730
-88,12,114,1035,1747,-2497
-67,52,88,-330,1994,-2023
-39,0,54,225,1862,-1239
-56,-35,25,659,1190,-960
-33,-31,36,23,811,-632
1,-61,44,195,794,-268
1,-45,25,-85,384,0
30,-24,49,-549,-192,380
98,-18,46,69,-107,614
-126,-1,32,363,158,430
111,31,60,564,-240,458
71,33,69,296,-137,-257
88,-22,53,598,506,-637
84,-47,57,558,458,-594
93,-44,59,98,232,-375
122,-55,55,-274,437,-613
-106,-114,32,384,614,-848
-100,-99,43,-92,479,-580
-84,-83,58,-683,440,-458
-71,-96,36,-177,360,-462
-57,-54,31,-962,439,-216
-87,-19,12,-1912,4662,-2515
-100,-68,-90,-1330,5905,-3328
98,58,34,166,5327,-2755
76,67,111,605,5325,-1650
4,-65,27,363,4514,-43
-74,82,-56,179,4229,839
-101,38,126,955,3186,3242
17,27,-95,416,897,4745
27,125,-112,2422,-1730,5581
-34,5,72,2552,-5821,6073
-43,-14,-62,-132,-11150,5819
-116,44,-78,-3418,-15647,5333
42,-42,15,-1054,-15797,5076
-81,85,105,506,-3004,3367
-100,95,122,-2675,53,-3772
34,-21,127,420,-5445,908
-62,-47,-77,1163,-1664,-95
120,-63,47,-1485,894,-643
-113,14,121,1095,2047,-2165
-42,94,53,756,865,-1392
-90,117,-11,-346,614,-519
-103,27,-90,548,751,-1022
-110,75,-117,-850,743,-795
-103,28,127,-673,817,-933
-72,-52,86,571,1228,-1441
-20,13,69,-559,1295,-768
-22,-4,55,-420,795,-685
-11,-42,26,153,575,-1050
7,-44,43,52,285,-908
36,-34,28,-468,836,-535
43,-29,26,-614,404,-375
59,-31,23,-436,341,-323
87,-12,32,-661,529,-230
80,0,41,-419,344,-238
94,-5,46,102,234,-454
119,-1,23,209,588,-534
125,66,26,-995,452,-137
119,22,13,-374,252,-445
-111,48,28,-811,402,-416
-104,55,22,-853,481,-352
-113,32,7,-255,410,-724
-87,68,13,-832,443,-524
-84,64,5,-681,447,-517
-82,37,13,33,301,-658
-71,89,30,-768,332,-355
-64,71,30,-362,414,-480
-58,65,20,36,437,-653
-49,103,24,-745,418,-388
-43,117,20,-968,466,-250
-51,94,14,-391,458,-506
98,44,-78,-4558,3478,-782
23,-46,127,-4272,2323,-951
-26,-80,-29,-589,4718,-1399
108,-2,9,-1332,4742,-2026
102,24,91,-2413,5293,-798
-10,-22,42,-1025,4451,282
-106,74,-122,679,4915,235
56,41,78,1106,4050,577
42,-102,33,942,4221,1429
78,-55,-96,1829,2943,1887
53,93,82,4364,605,5632
-68,69,30,5588,-3356,6567
-86,46,-34,3411,-10722,7207
124,-110,24,-3553,-18721,6598
33,-113,-110,-3094,-13031,910
-104,114,-8,5507,-4400,1538
-104,75,46,-5133,-186,-2569
96,-86,85,3509,-4805,1168
114,-18,-125,235,-2104,500
124,34,110,-233,738,-803
-65,7,-42,-506,2204,-1408
-11,59,-118,1480,1286,-2142
-53,84,-5,352,1549,-1243
-90,46,119,-741,1191,-1039
-99,-26,124,-200,222,-903
-78,-47,99,-220,680,-536
-73,-19,82,-1079,594,-222
-62,3,95,-1313,-63,256
-25,-15,107,-518,107,119
0,-6,83,227,524,-168
23,24,74,79,522,-184
13,70,45,-800,696,-213
47,32,56,-271,296,-52
66,39,82,90,-36,23
82,38,69,57,493,-379
68,26,68,50,499,-608
92,6,72,-108,366,-469
105,6,79,-374,401,-262
109,-16,66,49,428,-536
127,-27,58,200,479,-632
123,-4,62,-496,449,-452
-105,-14,64,-615,507,-326
-99,-14,51,-484,512,-359
-83,-2,38,-364,491,-436
-78,34,33,-863,432,-406
-67,42,37,-930,457,-399
-71,39,38,-596,487,-620
-65,42,47,-461,546,-611
-57,68,55,-798,436,-489
-26,91,50,-966,576,-549
-52,51,87,1491,3518,-3481
-45,112,42,2068,3998,-4460
12,-104,36,-1925,4978,-3682
-14,-52,-4,-2257,5088,-3228
-101,-53,-14,-3341,4509,-2134
24,-124,-51,-1977,4271,-2001
102,125,-11,-1850,4267,-2112
-24,115,83,-2452,3588,-1508
-114,34,111,-1506,4037,-2053
-4,-3,-23,-2880,3018,-1614
-36,-110,-23,-3202,2805,-1411
127,82,62,-5064,1898,-790
12,80,47,-2307,2118,-562
-63,100,118,-2854,1520,-949
-55,-5,-119,-2827,928,-1405
-59,47,66,-754,1492,-1630
-68,51,72,988,934,-2363
-90,106,67,1024,1258,-2305
-103,-111,9,852,848,-2891
-26,-108,-53,1445,1620,-2940
34,-107,99,2603,2172,-2996
52,120,0,2489,3125,-2894
14,110,24,2246,3790,-1920
24,-22,17,-881,3452,-626
-126,106,38,-2754,2738,2454
32,-5,-74,129,-689,8083
30,-111,-101,4945,-5735,10380
-9,41,-115,1225,-13912,10706
8,-108,-25,-4963,-19865,7834
-66,-52,101,3917,-9341,5758
111,4,-82,-7719,5837,-4818
101,95,13,7223,-5782,-1136
-20,-116,-83,-2136,-4765,3996
51,110,-126,604,1651,326
99,-84,45,241,1682,-1708
-47,59,52,2522,998,-2569
-68,-128,48,113,654,-1169
-96,36,-74,-905,1326,-816
-72,-22,-124,-997,1227,-1201
-43,-95,78,-309,1048,-1402
-105,-64,91,-758,793,-795
-94,-16,89,-1376,494,-164
-20,-47,95,25,464,-93
3,9,72,-128,511,-447
45,56,69,-898,287,-679
61,48,69,-812,340,-622
43,42,46,-234,507,-937
78,44,18,-20,879,-1021
104,63,-4,-548,898,-796
86,44,-22,-27,306,-686
-35,19,-111,-3124,4021,-1250
-93,42,-25,-275,5226,-2625
104,33,97,-588,5070,-2802
-87,-38,-109,544,5036,-2529
-100,-1,21,1158,3752,-1318
-127,83,89,2083,5241,-714
-11,55,-27,826,4130,538
-3,127,52,2176,4345,2035
16,-73,-58,701,2731,3121
-39,52,-13,868,1197,4729
-116,-45,-114,2072,-5047,8597
-63,-85,9,2192,-11296,9293
-93,-62,93,-2126,-19763,9548
-80,-76,-114,-7596,-15633,11526
-74,-40,61,399,231,-2414
-80,-85,-55,152,-608,-5430
14,10,81,-2739,-4526,2606
-68,94,62,976,-1296,261
60,-56,14,-1891,1206,-1237
-70,-22,109,1038,3010,-2434
-8,90,-16,74,2227,-1657
-54,121,-71,-391,1310,-686
-67,101,120,-616,941,-894
-38,49,81,196,994,-1023
-30,20,47,852,1073,-1091
-28,9,25,782,1088,-1113
1,16,59,-8,494,-565
32,-33,86,457,328,-296
34,-24,98,220,193,-177
78,11,105,-530,273,-197
108,-36,96,87,515,-556
93,-13,94,26,414,-582
-124,-21,59,-105,652,-595
-79,17,63,-593,188,79
113,39,46,-526,143,-197
-103,34,50,-53,671,-623
-90,42,31,-132,600,-568
-98,81,42,-907,30,-163
-84,87,54,-1247,264,-196
-56,61,52,-659,504,-531
-47,54,40,-377,538,-761
-53,63,36,-612,431,-663
-54,57,36,-629,408,-500
-50,67,37,-754,470,-356
-53,71,30,-590,376,-316
-32,88,27,-569,297,-213
-22,106,27,-654,318,-161
-23,110,25,-446,383,-321
-18,121,25,-337,342,-372
-18,-128,26,-433,332,-400
12,106,53,-1777,4784,-4106
-17,-88,101,-1938,4797,-4420
-72,-45,110,-2030,5095,-4257
8,24,43,-2842,5177,-3739
123,75,16,-4410,4145,-2732
-54,-15,-87,-3595,3231,-1616
-66,27,-100,-6194,2217,-901
47,-95,-122,-4442,1686,68
-39,55,28,-5484,1190,-583
-31,66,70,-3086,1500,145
-66,-31,-126,-3686,938,-229
-5,-8,108,-3765,575,-508
21,123,97,-2194,745,-29
-3,-22,99,-1784,1640,-635
-60,-109,30,-1192,2024,-800
-84,97,-49,-459,2547,-1283
-69,-110,122,485,2747,-1214
-28,-45,48,1247,2738,-1310
64,34,-110,1749,3014,-689
69,-64,28,2179,3217,609
24,-82,-74,2308,2997,968
25,90,-61,1914,2154,3007
-60,65,-87,1656,603,4658
-70,-41,96,3175,-4896,8053
-99,-31,124,2403,-13612,9477
62,89,119,-3614,-16793,6886
72,0,85,-6699,-12473,6636
-74,-90,-116,1816,-1616,-3029
-126,-20,111,-1227,-3381,-839
93,-36,-74,-1758,-4543,313
-9,54,-91,1714,-416,-486
-127,-76,-104,-1983,835,-906
35,-21,-45,1440,1603,-2043
-55,-110,95,-801,1744,-1005
-92,100,-74,-987,1802,-688
-110,63,117,-369,1231,-1134
-117,15,68,991,921,-1233
126,2,62,1269,1189,-1032
-100,6,48,643,1561,-241
-82,-31,42,495,638,-2
-72,-63,45,697,306,-240
-32,-57,87,419,85,-215
13,-49,89,259,94,-311
58,-35,98,120,322,-412
65,-13,102,-874,568,-494
60,-45,96,-684,347,-404
75,-48,91,-604,367,-417
96,-26,88,-809,352,-385
94,-23,85,-684,375,-500
98,-8,96,-836,509,-583
127,65,-56,-1872,2956,-3787
124,21,-110,-1822,3994,-3084
49,82,-113,-2568,4132,-2728
-2,-125,83,-2659,4751,-2269
-67,-83,82,-3003,4868,-1476
56,-108,45,-3712,4787,-1354
-92,-39,113,-5750,3639,-687
28,52,-89,-4691,3610,-771
127,-27,-1,-4977,2253,-631
56,4,7,-3708,1991,-710
-49,59,-123,-2566,921,-556
-28,-25,-84,-2294,1263,-938
-36,100,-98,-2041,1231,-1005
-47,54,96,-1657,1992,-1150
-69,-21,14,-451,2158,-1946
-20,-6,-92,-688,2364,-1628
14,-62,56,1014,2346,-1140
39,84,8,21,2409,-1043
29,-3,-30,514,2112,578
60,117,8,1677,1237,1410
-101,-64,-67,2816,-119,2878
-124,73,-66,3467,-3414,5479
32,-117,-15,3817,-5796,5237
-99,-27,-85,1354,-12433,6606
99,64,97,-3621,-14816,4669
39,-4,91,-760,-11668,3460
75,66,-96,-2203,-2059,1639
88,122,-123,-2522,-1733,-3131
28,-116,-12,-386,-3679,740
50,120,40,974,-1417,-783
-108,68,119,-801,129,-725
-1,-15,-81,862,2115,-2204
-68,18,-113,1225,2021,-1935
-124,92,18,-741,1387,-839
81,49,-116,-908,918,-617
94,-12,74,-37,1158,-1022
107,-23,61,345,963,-862
-105,-32,56,622,850,-424
-67,-26,46,448,846,-284
-38,-17,60,134,341,-214
-14,0,71,-718,502,-300
-3,-62,52,-36,631,-724
20,-66,52,23,579,-592
42,-42,40,-523,604,-229
50,-60,23,-120,438,-365
72,-44,13,-232,515,-487
90,-27,16,-681,408,-334
104,-43,13,-401,312,-404
120,-34,25,-347,412,-494
-114,-29,21,-415,498,-570
106,-121,-75,-1556,3482,-3515
49,-117,-82,-2469,3912,-2489
13,-64,-94,-3097,4163,-2462
-44,-78,-113,-2622,4353,-1672
88,-47,125,-2601,4522,-1985
-58,113,-121,-1856,3706,-1543
62,-86,-73,-3975,3600,-1541
-20,34,-48,-3402,3193,-1126
-112,-9,1,-4844,2902,-868
37,-60,-41,-1332,3094,-866
-62,-106,-24,-972,3024,-1175
101,-127,49,-3216,1349,-1568
85,-79,22,-2214,1390,-1531
85,118,-3,-1119,571,-1534
78,56,-64,-1202,1061,-2048
89,15,69,722,1661,-1929
-126,63,31,603,678,-1806
30,-81,-97,1340,1464,-526
47,74,-122,1322,1071,-167
120,30,111,1095,799,991
-28,-91,-122,2016,-1850,3737
51,0,26,3425,-3272,4413
-119,-100,-36,3518,-9790,6311
79,18,-96,-529,-13404,3890
63,-85,117,-2524,-15577,5206
-107,19,26,-110,-6858,3456
-106,-36,-37,-3513,2442,-5366
108,81,-112,2531,-1417,-684
63,-35,-79,60,-5634,2742
125,-73,80,-655,-846,-36
-98,103,-101,1126,2468,-2122
-105,-88,50,538,1175,-1821
-116,97,5,1108,427,-1175
-97,-114,-94,-836,1146,-608
-105,90,-119,-1286,1011,-815
-104,23,124,-312,511,-1029
-92,-19,93,257,898,-1028
-106,2,93,-130,906,-763
-80,4,48,-493,1051,-613
-48,-9,15,-268,791,-720
-13,-25,0,38,474,-686
18,13,34,-497,138,-179
27,27,46,-866,361,-122
33,7,41,-309,586,-443
60,-3,18,167,772,-696
73,3,-1,111,735,-681
72,19,-29,-490,850,-645
91,-19,-50,124,240,-681
-128,-33,6,695,-50,-174
101,77,20,-1154,136,105
-95,84,-101,-1229,4210,-3861
96,-112,-89,-2013,4099,-3728
62,-8,-127,-3072,5439,-3593
-38,-19,87,-2655,4682,-3145
91,45,60,-4553,4488,-2609
-62,-19,36,-4085,3472,-1590
40,-39,110,-5164,3111,-777
94,-102,-59,-5146,2229,-669
36,-31,-3,-3790,2472,-603
-68,72,37,-3971,1761,-592
-120,-84,-128,-3490,932,-808
-81,-51,-69,-2987,1838,-664
118,85,97,-1383,2418,-1328
76,73,7,-2258,2535,-1505
5,113,66,161,1286,-2309
83,-14,49,-1225,1259,-1793
4,-2,-17,1206,1715,-1104
37,-122,-19,1041,1866,-725
-12,-17,-71,1303,1995,439
-67,-44,-98,1755,1142,1514
32,50,-121,3837,-108,3096
-21,125,102,4725,-2699,5417
-44,-16,-103,5046,-6756,5742
6,1,82,808,-11110,5788
-113,-100,-83,-3294,-14482,4597
96,-117,-90,-1224,-12038,4489
-90,-4,101,-1124,-2607,1859
-128,95,10,-1288,116,-2966
48,6,-31,1016,-2630,-596
76,-71,-2,1194,-2525,-58
34,-66,46,202,-592,-809
58,-121,-110,1989,2475,-2497
-2,-62,-108,-1723,3639,-2334
79,21,-71,548,247,-1819
-123,11,59,-136,1077,-1659
-87,16,36,-878,1813,-846
-96,-53,19,251,946,-789
-73,-8,47,-295,202,-149
-24,-41,45,508,-207,-81
39,55,97,-746,-660,736
-18,48,88,-501,-4,203
-11,-19,38,-74,1173,-1354
44,-30,16,147,1460,-1191
66,23,20,-607,677,-215
54,5,27,-421,-74,-22
81,-9,8,-165,490,-207
113,11,-7,-340,785,-198
96,3,-11,-7,291,-144
113,35,3,-507,260,27
-127,22,17,-290,459,-419
-120,122,103,-2530,3891,-2314
87,-103,74,-2727,4361,-2218
42,3,47,-3910,5821,-1443
-94,-63,-9,-2075,5093,-1177
28,-36,-89,-3220,5577,-1466
-97,-38,-6,-4877,4385,-861
42,-16,57,-6435,3475,-229
-104,-23,-124,-1653,3305,96
45,79,15,-3880,2256,324
-74,82,56,-1654,2740,-573
-88,94,117,-2735,1856,-706
-98,-103,38,-1557,2507,-1651
116,51,-18,-794,1259,-1702
99,43,62,-6,1994,-2028
72,86,-43,1211,588,-2036
101,-80,125,2134,2041,-2192
109,27,37,2885,1976,-1802
125,87,106,2028,1995,-782
-84,87,95,3302,2171,-388
53,-25,107,1761,-65,3272
-5,-52,41,3474,-3520,6053
112,16,-12,4512,-7762,7564
89,-28,-39,48,-13435,6227
-5,-56,-14,-4485,-13930,4417
-23,19,-84,1052,-9584,3861
-107,39,-76,-5683,810,-3267
113,-56,-80,3221,-1626,-1475
15,89,40,600,-3837,1689
-66,-49,96,-95,-609,144
9,49,68,-450,1188,-779
-51,126,-64,2057,1240,-2615
-107,98,66,3449,1255,-2162
-114,-17,-54,-1909,1438,-970
-128,65,-119,-570,700,-1178
-99,29,-128,14,654,-963
-84,-16,99,255,908,-1134
-68,-26,99,220,690,-1009
-23,-22,88,-431,790,-696
-1,-34,73,-622,690,-641
9,-32,69,-622,523,-556
29,-32,56,-578,654,-571
44,-27,53,-459,599,-403
81,-7,47,-357,651,-218
99,0,46,-98,597,-296
91,5,32,267,701,-666
95,0,-1,335,754,-866
91,32,29,-517,32,-200
92,51,57,-1017,-190,243
117,53,53,-838,162,-143
-96,32,33,-326,593,-654
-38,47,-120,-1903,4409,-3085
-109,-2,77,-1657,4320,-2962
115,105,1,-2947,4872,-2077
33,124,-44,-2013,4528,-1771
-84,-73,-86,-2642,4931,-1563
20,112,-71,-2142,4258,-1264
-92,-86,3,-3973,3946,-1049
12,49,72,-3857,3490,-822
-83,-55,-89,-4040,2584,-591
127,11,66,-3731,2616,-127
57,-123,-125,-2805,2640,-344
-22,42,126,-2538,2744,-696
-58,-108,59,-1225,2384,-1157
-76,62,-13,-109,1034,-1868
-91,99,-76,-797,1467,-1814
-123,54,73,1173,757,-2747
106,-107,19,1058,1922,-2340
-70,-28,-80,1128,2354,-1847
-70,91,115,1105,2022,-367
-23,32,-104,352,1312,1300
124,40,94,3633,-1019,3227
27,15,39,3592,-4237,5559
-51,84,-51,3032,-9552,5509
42,-6,-81,-2462,-14582,5908
-9,42,-69,-1887,-10483,954
-55,124,-2,633,-8171,3421
-112,34,-29,-4265,-1214,-1310
89,71,-94,1418,-2056,-1843
-106,122,11,-27,-2372,63
-9,13,-32,1676,-1009,-280
95,26,-93,-446,1509,-975
-64,-84,-85,-629,568,-1515
-124,-3,108,1896,764,-1063
-119,116,17,-144,1540,-796
-101,104,-48,-617,923,-682
-94,81,-63,-741,581,-680
-112,-15,87,489,2103,-1766
-77,-84,19,1064,1910,-2067
-56,6,108,-64,310,53
-61,24,-104,-862,-655,780
-19,-38,75,-149,658,-320
40,-71,18,760,1326,-1273
63,-35,37,134,414,-704
38,-28,91,-276,-353,-14
30,-39,77,-195,210,-301
72,-26,54,-340,736,-415
94,0,38,-584,624,-242
81,-25,20,91,367,-446
94,16,28,-567,430,-342
113,3,21,-394,448,-311
9,-128,-107,3295,-5297,5540
-6,56,-1,3369,-9644,3959
67,102,-30,-1429,-14362,3131
-15,-107,-63,-1967,-13148,1592
112,69,-30,414,-5240,1446
104,32,-11,-3203,357,-3259
36,87,-74,3544,-4708,-1058
121,-16,111,-849,-3770,1773
-19,33,114,1432,1796,-1501
102,125,117,1273,749,-2276
-26,-15,-102,3269,1334,-2019
98,-102,39,-514,1636,-1040
114,47,-78,-1436,1809,-709
120,-7,111,-947,1026,-690
-118,-94,92,235,628,-932
-100,-108,56,1062,970,-895
-39,-124,82,1270,979,-799
-20,-96,44,535,1051,-685
1,-88,54,-659,557,-479
24,-109,41,-669,480,-163
30,-104,23,-721,318,-37
35,-59,31,-1123,114,318
50,-69,18,-384,36,123
88,-47,24,-152,-61,-112
103,-40,47,-216,-74,-278
97,-41,50,-422,359,-525
108,-35,47,-863,524,-612
122,-62,28,-552,479,-635
-123,-29,23,-923,576,-358
-125,-34,-3,-540,577,-430
-115,-10,-12,-546,387,-358
-92,28,-11,-968,446,-167
-80,23,-29,-516,460,-482
-64,47,-26,-684,465,-571
-53,62,-25,-788,468,-624
-56,58,-24,-605,486,-777
-52,71,-18,-766,513,-731
-51,78,-16,-697,412,-664
-51,82,-5,-583,328,-615
-40,94,1,-588,396,-503
-36,110,6,-577,312,-435
-35,120,10,-589,312,-423
-25,-109,16,-921,418,-294
-27,-118,13,-536,354,-383
-20,-100,14,-494,422,-418
-22,-88,15,-592,394,-392
-21,-86,14,-526,398,-436
-18,-77,18,-509,360,-436
-15,-66,23,-663,410,-398
-9,-61,27,-674,413,-407
-10,-12,82,4943,-1441,4804
-124,-7,-32,3364,-7681,6470
23,105,-20,2057,-13054,5383
-69,-112,-24,-2748,-13629,2498
-9,7,-51,-1166,-13219,6206
121,-37,-78,-2836,-1768,540
-114,12,45,-2448,117,-3241
85,102,49,1305,-3252,-284
-110,102,-93,3345,-1417,200
-12,-72,100,-3885,195,509
19,-127,-22,4948,894,-2061
-54,-95,108,2476,319,-1216
-48,118,63,-4356,1335,-393
-96,10,-77,938,1117,-2061
-118,-70,76,2484,916,-3345
-116,-25,65,1017,983,-2510
-51,-50,59,-290,1225,-1516
-34,-85,36,-1269,992,-845
-7,-28,40,-3088,856,-125
0,-82,-1,-798,321,-82
14,-86,24,652,11,-450
83,38,54,-954,371,116
82,28,21,-629,498,-340
56,1,35,-147,393,-722
52,50,61,-808,338,-49
44,51,52,-472,395,-92
97,32,18,220,597,-649
-94,69,15,-362,478,-619
-108,45,25,-262,272,-791
-109,13,33,39,553,-1015
-110,33,54,-599,507,-745
-121,36,67,-661,442,-442
-93,52,67,-638,634,-301
-44,45,28,-32,1090,-514
-40,63,4,163,751,-585
-74,87,16,-234,75,-471
-61,-124,41,-1260,-14,176
-32,-115,48,-1447,106,77
18,122,32,-903,358,-286
2,-126,45,-742,422,-530
-46,123,42,-705,698,-808
-43,115,42,-553,729,-743
0,-122,23,-604,825,-557
10,-119,8,-220,422,-674
21,-111,2,-277,410,-709
0,-66,50,-1174,216,-249
-20,-95,51,-657,478,-430
-15,-90,52,-335,249,-387
12,-33,66,-854,95,45
29,-13,79,-1345,217,10
39,26,-120,-1170,4413,-2964
-24,59,-118,-1185,4275,-2751
-101,-111,83,-2511,4257,-2269
65,-31,59,-3464,4111,-1486
-10,-14,32,-3419,4305,-612
76,-2,73,-3614,3984,14
-97,-60,-105,-3984,3053,341
57,-12,-36,-2377,2835,953
-59,-61,99,-3663,1477,1355
-95,20,-53,-2541,757,1613
116,120,68,-2182,1201,922
-112,50,106,-1555,1240,258
-100,-32,-98,-1634,1977,-707
-118,-128,-71,-1321,2782,-1602
102,113,-110,-1681,3878,-2154
34,26,10,-121,5176,-2948
-110,18,2,207,5511,-3243
44,25,53,2003,4683,-2112
-4,-78,73,1846,4607,-1057
110,75,-41,2219,4232,916
-54,89,-52,397,2761,2895
31,-46,-35,1513,-580,6120
-1,20,82,3620,-6036,7517
48,125,112,258,-11225,6964
-14,-122,23,-4197,-16027,4609
-92,-26,57,-4203,-14676,3599
-116,34,-100,1478,-2085,-282
-77,-18,56,-5975,2284,-4189
58,33,109,2985,-5928,542
17,59,13,118,-4512,786
-46,105,-121,-108,2240,-1622
101,-126,-42,582,2794,-2380
-88,-100,-90,1111,11,-896
105,-80,51,386,48,-500
-119,-76,-15,-983,1117,-508
-116,-116,-65,-683,1007,-789
-125,69,-118,77,948,-1473
-110,41,104,366,1290,-1565
-96,41,82,-273,1277,-1038
-81,1,69,157,348,-682
-58,13,71,-217,99,-347
-16,45,77,-1013,689,-173
-21,-8,56,-21,682,-716
2,20,65,-98,399,-335
4,42,53,-322,422,-275
16,37,57,-149,313,-297
47,44,38,-186,621,-353
47,55,34,-464,275,-378
79,-8,48,520,380,-632
88,26,22,-239,734,-606
