AccX,AccY,AccZ,GyroX,GyroY,GyroZ
-85,105,-92,8827,2944,-1603
92,13,25,8334,1215,-1341
-40,-91,48,5766,1561,-1707
8,121,89,6590,2764,-3750
0,92,45,4221,3984,-6724
6,-119,-14,-330,121,-7597
-10,-73,112,-1975,-2240,-6691
111,20,71,500,693,-6738
121,57,46,1834,572,-6107
117,-103,-101,2429,315,-4599
-122,98,4,4135,440,-5138
-50,-120,-2,4740,645,-4855
-74,-62,125,5354,3012,-2575
39,60,-25,5348,2092,351
-51,-21,87,3679,-236,2883
103,12,-83,1776,-4411,3993
57,49,43,2001,-6573,5598
73,90,-61,2423,-10328,5364
113,-2,111,-668,-4909,1832
-43,69,13,4111,-584,329
-12,106,-104,-241,-2182,-1133
-2,-88,-100,129,-680,-378
-116,127,119,687,150,-506
-87,36,84,2297,-358,-1591
55,-65,61,2272,-2822,170
-40,110,-8,2817,-2605,2518
13,-13,-120,3616,-3833,5630
-88,52,83,2978,-4963,5698
-18,-4,17,3090,-1073,2521
8,-125,-120,4381,1468,4970
9,-3,58,2381,462,2849
-13,65,-7,3163,-923,-806
-42,123,-96,2353,331,-2287
-37,118,-115,-391,1312,-1213
-91,-31,-109,73,148,-713
-113,-112,-78,2202,-493,-742
-68,-115,-70,1675,283,-1218
-24,125,-70,530,71,-1136
-7,113,-27,-131,-786,-679
26,74,-49,-123,-196,-836
41,45,-68,125,98,-877
48,44,-71,168,44,-718
59,54,-95,-144,107,-572
63,44,-119,-71,81,-453
61,48,125,-90,-70,-184
53,77,115,-298,-122,114
83,89,95,-76,-10,218
59,107,88,92,-179,266
42,126,99,69,-250,335
66,-121,113,86,-20,387
111,-92,-21,5768,1702,-1901
111,85,-17,8087,1799,-4025
-2,78,-107,4060,1662,-3895
74,-112,-115,4180,1901,-4946
104,94,110,5334,822,-6346
52,71,72,2267,-70,-6102
-43,-82,-22,-914,762,-5282
93,108,97,-57,1287,-5132
-61,71,24,-3032,-675,-4830
-119,-98,-96,103,-598,-4736
6,89,-4,720,-698,-4221
86,65,62,1558,210,-3363
-52,-63,89,3991,200,-3092
100,-10,13,5097,1038,-3145
20,-94,-127,5745,2266,-1395
-108,-44,77,3944,1270,682
81,-100,69,2482,-2607,3105
-37,-13,-94,2796,-6271,4793
113,23,9,3561,-8021,5397
29,-117,124,2329,-7412,2812
-73,-49,89,1225,-7454,2378
97,-25,73,1917,-41,-1668
28,-92,-4,2343,-1040,-738
-54,-82,-13,-524,-522,-677
114,0,-105,1882,2154,-1191
117,-126,100,2936,1499,-1574
66,15,-71,2493,39,639
-69,-56,5,1799,-2449,2570
5,-26,-11,2987,-1825,5329
115,-92,-32,3555,-4209,8971
111,-78,-33,-1372,-2618,6912
-107,-50,94,3953,-2651,716
-99,-123,89,7019,1499,1474
-11,-88,57,2403,1005,-1353
-119,12,-9,557,1088,-758
76,78,-25,1115,620,-528
-119,-49,-78,2456,953,-1696
-61,99,-113,2710,1079,-1782
-70,82,-74,1806,532,-976
-46,38,-21,1031,-34,-258
-18,6,-7,824,-224,-125
7,-11,8,952,-152,20
9,10,7,312,4,167
16,10,-17,300,31,258
18,22,-51,377,9,268
17,40,-62,110,-100,140
39,48,-77,32,-3,82
40,37,-87,455,19,-180
49,34,-85,433,103,-344
47,38,-83,108,47,-316
90,-101,-97,5658,1376,-1778
115,46,-70,8319,2559,-3429
-100,-70,57,6523,3175,-4262
-44,22,-91,3889,1611,-5550
95,-107,-107,1515,738,-5402
-111,-82,53,1658,1286,-5160
-7,-4,63,1378,986,-4596
-126,-125,41,385,413,-4594
-7,-55,-52,-202,-898,-4587
-5,-48,-95,-1514,225,-4049
30,-125,-62,1538,-5,-3492
118,-118,-108,1828,1301,-3594
15,-121,124,4812,1128,-4162
49,-71,-76,5170,2458,-2492
5,104,58,5197,3077,338
-25,-70,-52,3770,2265,2272
-69,91,35,2136,-1619,5104
84,60,-21,1491,-5265,4718
63,66,61,404,-5367,3853
-75,75,-49,153,-9244,3964
-10,91,117,-792,-10964,3864
-112,30,56,-195,-1019,-389
46,85,-27,4214,-41,-765
-105,7,-93,23,477,-283
-75,-27,-123,308,935,-599
66,-124,-29,2987,1248,-1271
87,80,-3,2355,26,-1594
65,31,2,1379,-1663,321
3,-9,4,1620,-1690,2549
-41,55,48,1857,-1865,4808
-21,22,-99,3633,-3784,7065
-58,84,-12,960,-2771,5645
-123,-4,-28,2358,-2030,2845
77,15,-86,4389,903,2914
-80,8,46,2855,1087,1667
91,18,87,1805,-468,2053
-45,-43,21,836,50,266
-94,103,-3,1088,272,-1241
-104,-5,-44,1403,432,-1389
-88,-40,-60,1065,318,-964
-95,-63,-48,525,-146,-751
-51,-121,-51,546,-9,-1108
-11,108,-39,295,-148,-1275
2,80,-33,33,-155,-1223
1,59,-23,-330,-180,-1096
10,43,-28,-179,-54,-780
31,20,-65,407,271,-464
28,27,-72,522,68,-239
28,47,-80,239,52,97
31,56,-94,185,-25,339
46,105,-25,5729,1055,-1633
74,118,28,5857,1610,-2147
-105,-111,109,6264,1567,-2852
-19,110,-82,5053,1483,-3666
11,-12,-63,4030,92,-3963
72,-112,88,1649,-648,-4576
42,-57,30,136,436,-4172
-60,-35,-25,-792,1313,-4355
70,57,114,-1982,1091,-3099
-61,121,10,-1272,-906,-4472
-25,-79,38,2131,-1872,-5112
-9,-3,61,3514,-210,-5354
45,95,-116,4591,-805,-5498
120,97,-109,3372,466,-5511
-4,127,61,4444,2955,-3200
86,45,-53,5251,3938,196
-97,20,118,2979,-897,5187
-123,52,-85,1173,-5493,5246
-88,122,16,504,-6058,3665
92,-68,-117,516,-9637,5249
110,-127,-33,292,-7086,2528
20,109,105,1320,-2513,236
96,-28,-41,3237,-1233,-833
-10,110,-77,484,-587,-346
42,113,-102,-732,1128,-1244
21,-39,-48,1538,986,-2377
20,126,16,2541,-807,-1595
-52,37,27,2595,-2410,384
-113,64,41,2261,-2850,2939
-88,-54,-111,968,-3899,4125
18,122,-57,-16,-3491,3782
51,-51,-122,1966,-3995,2659
-56,87,96,4783,-1443,2423
53,-83,19,5605,371,3489
115,50,9,6295,2626,3837
-118,-85,-41,4953,318,2455
83,-128,103,-16,-2276,-837
-81,-67,48,-1347,-116,-1953
-64,-47,4,1291,1241,-1237
127,-72,-5,1695,758,-2117
-78,-56,2,-32,867,-2205
3,106,1,-373,202,-1618
13,-3,-1,614,-291,-1136
42,62,-10,-359,-351,-749
47,73,-36,-814,-404,-695
40,74,-33,-479,-305,-289
13,63,-56,285,-146,-209
18,83,-54,201,13,-14
26,108,-70,58,-19,319
33,117,-68,201,-190,548
109,101,57,5405,1286,-1955
-105,-74,119,4715,1376,-2804
-25,63,-40,3741,823,-3575
22,-116,-19,3888,774,-3843
50,92,30,2612,384,-4209
17,-74,9,935,1079,-4567
-45,-31,-67,306,1825,-4190
46,114,-34,1008,1064,-4443
113,-36,-84,2390,-1625,-3826
41,17,69,-597,-965,-4495
-64,23,18,-1752,-1437,-3832
-74,103,40,2086,-759,-6143
91,-1,94,4232,-1214,-4799
9,9,-105,4454,-949,-4887
-113,80,85,5346,2121,-3267
-32,54,105,4375,3874,-207
36,65,-22,2927,-1301,5525
81,-53,-119,2303,-2989,5399
-2,-35,46,1086,-3748,2487
122,2,-124,1150,-5053,4220
64,-39,-70,2632,-7278,5330
-10,-46,10,783,-6318,2678
-45,-22,30,-358,-2747,565
-104,121,-30,2706,-1653,211
127,-43,-81,1517,719,-640
123,-81,-118,971,1757,-1522
98,16,77,569,771,-2253
-127,112,-38,1627,-447,-1062
46,36,-75,1834,-2109,1605
-100,-105,61,1617,-4384,4533
30,6,45,3104,-3150,5015
-2,1,120,2115,-1770,3875
85,66,-110,1558,-1943,3298
-65,-29,-88,3142,-150,1863
106,-18,-119,3026,479,1581
39,-34,82,2467,491,1204
-68,-91,28,2073,74,-77
-116,122,7,-140,18,-626
-112,58,-27,-1043,246,-532
119,-30,-39,-113,13,-509
-110,-53,-59,693,397,-724
-82,-74,-84,917,491,-1052
-56,-89,-97,561,379,-1337
-28,-124,-100,220,149,-1463
10,84,-98,-37,235,-1360
20,58,-111,-6,176,-1131
-1,29,-104,243,-2,-814
20,22,-108,407,74,-314
12,41,-115,129,4,179
-4,76,-118,-315,-399,605
-105,50,-4,5201,1528,-1780
-8,26,88,5980,1766,-2551
29,125,-97,5313,1816,-3073
52,-7,28,4386,1476,-3201
70,91,118,4979,1708,-3954
54,1,-118,5183,1919,-4477
-13,-90,114,5130,2060,-4882
77,118,-70,3727,2319,-4676
-40,99,-28,1385,2058,-3991
105,-122,29,-119,-2401,-1116
7,56,42,-1375,-2307,-2239
-50,-50,-42,-2316,-4503,-2332
-118,104,68,512,-4510,-3650
78,-44,63,2256,-3450,-5126
-52,-122,-25,2984,-2871,-5107
-107,-22,-45,5519,-1417,-3862
104,50,45,5431,34,-1759
-17,-28,-68,5481,-1543,-44
71,-4,-42,2812,-4898,4619
-91,-73,-118,2785,-4247,742
104,101,111,1511,-4966,1722
-38,30,-123,-2344,-7910,4418
-87,122,47,2442,-7913,2792
56,19,21,3117,316,-812
-56,79,-67,1432,1031,-1164
18,6,-107,-284,198,-744
104,-81,123,301,1743,-539
-105,66,98,2205,1467,-1423
-98,-52,-125,3111,250,-1424
120,105,49,2965,-684,-34
68,-120,-114,1432,-2111,3203
-6,-57,-19,1958,-4174,5652
-57,-117,74,2651,-3302,5339
-64,-73,-122,2881,-1001,3645
116,-49,18,3212,360,4422
-72,12,14,3479,267,3959
-73,24,13,3123,-1008,1908
-41,-71,1,1211,-530,-1024
-52,1,-54,1663,1047,-1900
-58,-76,-101,1546,1450,-1598
-47,114,126,769,685,-1433
-39,87,-103,276,-551,-994
13,59,-75,-11,-722,-902
56,42,-49,-248,-240,-1077
68,-18,-66,882,93,-1473
77,-23,-42,612,-259,-1265
81,3,-44,-608,-283,-658
77,-14,-74,-507,-192,-200
84,-10,-107,-53,-42,38
85,22,-120,-25,-17,141
30,-100,74,5359,1690,-2949
46,-23,-25,5442,2343,-3842
47,-96,65,4055,2663,-3664
38,-29,94,4166,2433,-3785
14,-84,-118,3177,2121,-3621
-41,45,57,2192,2772,-4143
54,84,-63,2495,2145,-3699
-112,-57,29,433,998,-3401
88,52,106,-3641,278,-3710
18,-72,-6,-978,-1731,-4588
-39,-45,27,-111,-1345,-4189
89,0,91,3678,-552,-5223
-13,-62,28,5555,-875,-4870
-87,-124,48,5197,717,-3892
79,43,-34,5143,1713,-1625
15,88,31,4287,1280,432
-24,10,-111,3960,-1846,4014
-100,69,10,2385,-5792,3909
-78,-125,45,1811,-5575,3054
-86,-76,24,1464,-9215,5111
-99,100,0,2133,-5284,3777
123,110,94,2989,-4308,358
-108,-92,-25,-603,-594,-1378
22,9,-73,489,-380,-324
31,-96,-96,822,1034,-562
92,125,-8,976,1894,-681
118,-36,24,2073,291,-1290
124,73,88,2659,-275,-555
18,50,-97,2068,-2117,2150
-10,-114,30,1839,-3878,5614
93,94,-68,4058,-5121,7250
-10,114,82,2218,-582,3965
108,57,72,2881,915,2923
5,33,20,3602,692,2384
39,-23,-59,3000,179,-31
-63,-103,-60,1050,155,-908
-77,-6,-102,653,743,-1083
-59,-63,-110,456,524,-773
-92,-83,-102,225,-199,-227
-71,-14,-65,-2126,-385,-14
-53,-71,-85,-801,-599,-626
-23,115,-83,1227,-237,-1136
14,-106,-49,303,237,-1171
30,-122,-75,-395,424,-991
27,94,-86,-389,-155,-802
37,92,-102,-392,65,-590
52,95,-110,-144,645,-817
50,106,-123,-11,321,-387
61,94,99,435,413,-247
79,93,86,877,256,109
8,-106,108,5353,2678,-2744
12,0,-51,5927,2301,-3341
4,-66,27,4771,1837,-3169
19,-103,-20,1664,1946,-3018
-45,22,96,1619,850,-3462
-116,-115,-37,479,-561,-4466
43,-29,73,648,-1308,-4065
-48,115,36,-2096,-2424,-4167
-35,-15,-128,1690,-2091,-5274
-110,-93,-14,1097,-1349,-5394
70,115,-11,4241,-1394,-4294
-69,-93,-74,4684,-938,-4200
-87,100,120,4533,449,-2224
105,-52,-19,5366,1601,-1430
-116,-10,-100,3913,1155,-582
63,109,-91,2800,-1207,2944
-106,96,2,2487,-3456,4105
40,-99,-116,1942,-4625,4328
-92,-90,111,1598,-8545,4515
21,-121,125,1030,-5242,3230
-122,-36,-67,1926,-1835,2200
-63,31,-72,1068,-702,819
-116,43,-102,419,1593,-1024
-63,-75,117,146,1221,-1117
124,23,52,681,1349,-2073
-98,-121,-118,1204,110,-1418
62,-13,106,1539,-1361,163
-31,-23,105,2086,-1825,3320
-63,60,-32,3901,-3402,6594
-27,18,1,1780,-5388,8166
-8,-124,-20,1808,-2666,2789
-58,-72,-109,4883,538,1752
19,28,42,2356,1767,2695
113,-27,-7,2324,320,1905
-11,96,10,2631,-953,-404
-19,15,-36,1440,747,-829
-55,-42,-107,795,1794,-678
-124,-119,-122,1158,573,-495
54,-99,-79,-18,-1184,895
89,-14,-11,-1477,-1900,1448
-56,16,20,-983,-1325,880
-9,-67,-52,1018,937,-1719
-16,91,-91,2276,1428,-3108
14,99,-86,922,810,-2477
52,85,-90,-530,120,-1543
53,17,-119,-207,-99,-1403
70,-9,123,-42,-25,-935
79,21,122,-417,-209,-337
72,26,119,-173,-310,-187
79,42,117,110,-109,-33
-34,-40,-26,9664,2506,-5323
-23,-105,25,8176,2786,-4625
5,-109,-122,3433,1703,-3245
64,42,57,5436,2335,-4199
91,-19,43,5464,2389,-5661
4,-102,-34,5968,1657,-5589
109,23,-128,4720,-40,-4373
23,-117,73,-591,-163,-2319
0,71,72,-383,354,-2041
-47,-114,-106,-611,-2216,-1321
64,-22,-7,-1828,-4227,-670
-34,83,-5,-1157,-3758,-2692
100,8,53,1014,-4355,-3629
-52,-67,-5,5723,-2652,-3116
-112,104,-64,2278,-3110,-4261
74,-5,-41,4272,-766,-3419
92,-118,97,6148,2517,-2394
4,68,-3,3853,3110,213
-106,92,-59,3912,1921,2612
-92,63,27,1559,-1669,5082
104,75,-106,1684,-3117,5096
-56,77,29,1008,-4892,5089
96,-29,106,-49,-8697,4484
-7,97,-83,-2606,-2915,623
6,93,-111,3423,2188,-1414
-118,35,99,-58,433,-883
11,-43,82,-650,-649,226
-104,-104,-76,832,-918,88
-3,109,-6,987,-946,-489
82,9,109,1609,-1336,-317
50,-52,-119,1666,-1462,773
-44,-1,-28,1244,-2396,3202
-52,111,83,2942,-4260,5021
-105,-47,-103,2291,-3295,4673
67,-60,81,2187,-3358,3322
-89,77,-40,2720,-28,2300
108,6,111,3135,-434,1806
11,-47,-69,2978,-1263,2025
4,-127,99,3540,480,1052
-57,127,100,2835,244,840
-115,-118,101,1389,39,781
-94,108,47,912,788,215
-128,39,-18,1615,719,-468
8,-8,-9,1414,-167,-1409
94,0,15,-645,-65,-1252
-5,-44,-29,-1371,430,-1285
9,107,-62,534,477,-2371
34,47,-46,1023,275,-2842
76,65,21,-783,166,-2637
-42,-36,-73,-307,1109,-2044
118,-24,-4,4860,1905,-1926
-85,-28,35,5949,1727,-2774
-22,51,105,6055,1759,-4329
6,-86,-80,5672,1526,-5411
43,44,-47,4691,921,-4908
75,-30,-39,2706,536,-4304
24,7,124,3361,245,-5497
-9,47,-8,2850,955,-5265
-71,-38,19,893,567,-3676
-80,115,82,-2111,2664,-3048
58,50,-15,-4169,-1920,-1012
110,29,19,-1213,-2047,-1468
-18,-10,-61,1062,-2822,-1103
45,-53,25,1229,-4133,-2452
108,58,-91,3929,-3445,-2229
-96,-61,57,3546,-3640,-4008
-83,-67,27,4805,-1099,-3060
20,90,-83,6333,697,-1826
-94,3,-79,5065,2219,-914
-29,70,-36,3720,-1339,5257
-77,-27,-49,2383,-3457,4128
120,-32,118,1173,-5190,4975
68,-65,-45,1837,-6927,4192
16,58,54,2170,-3262,1947
-31,-101,-103,3496,-605,-462
88,-44,-112,400,-1069,1084
-100,101,-126,-86,1134,300
-5,8,-106,518,751,187
51,-47,-55,-385,-1375,175
62,99,-57,395,-3827,906
18,114,-11,627,-4863,2900
77,-4,122,544,-3329,4059
-22,97,14,2938,-3344,3207
-68,74,23,2504,-1241,2368
-16,123,1,1119,-336,2256
-105,11,-78,3593,-1260,2087
32,36,-20,2735,-499,1607
-47,-25,-90,2742,367,751
-120,-52,89,1899,475,342
-104,-111,6,1128,740,-46
-114,68,-68,1839,710,-490
-126,12,-91,1933,88,-562
-108,12,-53,687,-389,-678
-66,-3,-39,-347,-368,-1065
-11,-73,-49,-555,-109,-1655
18,-119,-64,-287,192,-1817
29,95,-81,-32,131,-1669
20,73,-97,-19,-167,-1230
36,79,-101,-319,-199,-677
41,89,-115,-418,-129,-193
77,5,116,3458,2225,-2988
69,-19,-96,3917,2752,-3135
54,4,-80,5073,3180,-3580
49,81,-42,5113,3262,-3716
2,-38,32,4461,3166,-3416
-50,24,41,4303,3556,-3458
-111,-80,43,2536,4481,-2684
46,26,-99,1735,5008,-2071
-102,-32,-37,1145,4406,-3522
0,-58,18,3086,-4167,-1701
76,-7,122,-1850,-4121,-2140
-42,-42,-123,-368,-5420,-1973
125,78,-84,313,-5459,-2921
-124,-38,-60,1772,-4946,-5376
28,-90,53,2575,-4965,-8316
-21,-10,123,3761,-992,-5765
-53,41,-33,4072,3581,-2741
112,-93,43,3290,3416,-114
-4,-90,49,2326,1165,2450
-79,27,-58,502,-8538,4442
44,-88,-88,2177,-9655,2881
-17,8,-4,655,-8576,2744
-46,-47,-55,159,-3945,-94
-77,-88,44,2014,722,-169
-77,118,-46,2558,-406,-496
119,-56,-113,314,-473,-53
-110,108,-73,1287,222,-94
48,-22,-9,3331,-896,-715
56,22,89,3341,-2384,1130
62,77,114,2099,-2390,1803
-93,-103,-101,1982,-1803,2471
0,-51,-47,2469,-1184,1899
42,-72,-70,3482,-929,1511
53,-7,-23,1926,-48,1403
23,-103,92,2400,1013,833
-38,-115,117,1425,-423,1035
-58,69,90,911,251,532
-71,-65,-15,1436,809,341
-71,-107,-36,1235,446,488
-57,-122,-54,695,60,836
-8,-98,-17,-287,-506,1164
-17,-113,-50,43,-154,563
9,113,-62,392,78,-676
64,81,-63,757,147,-1115
55,38,-36,685,-9,-1176
67,21,-39,241,336,-936
69,7,-60,-75,320,-544
63,-5,-81,-36,124,154
54,13,-95,-24,-31,577
58,68,-112,-347,-69,790
-67,-63,83,5680,2865,-56
1,-111,86,7543,3577,-1753
8,-92,-22,6833,3287,-3016
55,32,-56,5535,3269,-3377
123,118,52,5440,2558,-3871
20,97,-22,5148,783,-4329
-14,-49,-127,4204,2883,-5169
108,92,22,3293,2605,-4129
-30,94,-111,1984,1862,-3674
124,28,58,697,950,-2984
7,-104,-34,691,-423,-1851
3,-73,37,-450,-283,-1211
-112,18,-39,157,-2673,-1674
-89,106,-108,1423,-3105,1356
75,-15,89,481,-3159,808
-64,89,-106,1143,-4745,-3612
-70,116,115,3776,-4622,-4319
83,-95,-70,2343,-2816,-4818
-82,5,-83,4112,169,-3833
49,-93,-33,5447,2291,-1234
75,-35,47,4239,1106,2841
-5,116,85,4392,-2214,1606
66,92,-7,1926,-4944,3361
-52,12,-127,1521,-7088,6540
62,42,-97,1646,-9561,5282
108,-4,-6,-1204,-4700,3526
-118,18,-14,5164,2269,568
-44,-103,-126,466,-596,-785
-63,88,124,-1493,164,-892
59,109,-21,981,19,-1391
106,32,46,2121,-1226,-1806
35,-54,-16,2443,-2743,66
-21,-69,7,2728,-2584,2138
-31,-40,116,2712,-3405,2869
120,102,-85,3783,-2229,4004
50,-29,-29,4265,-1166,3248
-95,118,56,5046,1863,1796
-25,-41,75,3295,3145,2188
108,36,-45,187,307,3659
74,-82,-101,937,-92,2933
45,-113,-109,1066,573,1250
-43,75,116,1413,940,-883
-72,-57,74,1964,1049,-1763
-2,-105,75,1624,722,-1196
-11,-110,109,844,-112,-150
-54,-115,-86,-50,-612,-492
10,111,-107,46,-182,-1197
66,83,-104,-104,-252,-1557
110,73,-95,-361,-809,-1337
101,81,-72,-941,-854,-1196
-90,-90,-73,5287,1664,-1653
-49,-124,15,5894,1691,-2265
-38,-110,-103,6041,1695,-2815
3,-83,8,6780,1957,-3408
26,-27,74,9867,2130,-5106
7,-125,44,5106,3500,-5540
-47,52,83,431,2752,-2962
-116,-118,-49,993,1225,-2174
6,115,-63,3098,-606,-2786
-9,113,86,606,-1452,-2066
-108,-59,102,-736,-3523,-1903
-59,-65,45,-803,-4564,-2952
-25,-51,-66,1164,-3892,-3768
-123,28,116,1929,-3539,-4582
70,52,-44,3196,-2247,-3934
101,82,-68,4364,-426,-3106
-38,45,14,4788,1084,-1299
106,-68,-69,4427,-100,681
1,99,-28,3063,-1583,2367
-126,81,21,2467,-3443,2811
-67,30,-120,1306,-5290,2705
-93,-38,-32,1669,-7426,3308
-98,-13,-66,1035,-7770,3699
16,12,-18,428,-3775,2688
-23,-41,-46,2470,499,-50
-62,41,-102,232,-50,44
-33,-61,-120,-189,621,-507
1,-115,108,850,816,-854
75,64,41,1447,1020,-2045
97,-42,-71,1763,-304,-1643
12,99,118,2165,-1432,578
-10,-114,-26,1421,-2683,2587
-56,-71,50,1881,-2880,3658
77,93,-128,2858,-2249,3900
5,19,-52,2071,-1466,3319
120,61,37,1874,-698,3198
-106,-95,-73,2652,1563,2522
-91,95,-34,3389,1477,2730
71,-124,17,1500,-968,2745
35,-126,52,-71,-1604,2080
15,75,2,543,11,986
-34,0,-14,2127,745,-656
-56,-20,-32,1966,645,-1143
-32,-69,-50,962,581,-1566
6,-121,-63,397,311,-1819
71,49,-64,683,3,-1953
105,5,-44,944,-47,-1870
105,-35,-7,758,-252,-1538
107,-37,-13,159,-6,-836
99,-30,-1,-357,-407,-272
-41,42,121,4769,2234,-2269
24,67,-97,6563,2823,-3076
-4,-4,-53,6944,2712,-4626
-23,-15,84,6280,1457,-4438
89,-88,33,6056,1660,-5372
53,-84,-66,3706,920,-4255
-34,-21,-99,3121,-1228,-2989
-18,19,-33,-59,-316,-3469
-30,39,-32,-2583,300,-5801
-28,63,-105,1185,-5881,-4773
113,-86,-69,-305,-3304,-804
-27,-63,-49,-1074,-3068,-2404
-67,31,34,2211,-933,-3356
-93,104,-80,4137,681,-2158
59,-36,117,3668,234,-1868
7,-43,23,4854,601,-1203
-68,-16,-41,3911,-128,697
-10,-30,104,4081,-996,1115
-13,41,-72,3980,-2765,-203
-68,-9,41,2594,-4125,2023
78,-47,-126,2459,-4494,3140
-75,-53,-50,2159,-4677,3005
36,-32,82,2091,-5439,3511
98,-4,-66,1841,-5129,3006
-32,10,-29,980,-4460,254
115,-20,-32,168,-656,-1431
115,114,-52,504,126,-1165
55,85,-11,302,-633,-1377
94,-35,85,1474,-1218,-2091
30,19,14,4112,-1774,-1011
-25,105,-102,3003,-3204,2720
-125,-2,62,2194,-3814,5420
-23,4,-63,5456,-1114,4001
6,-105,21,6128,3312,2629
-44,61,7,7532,3155,3982
58,103,35,3321,-1672,2739
27,7,23,-2320,-1221,143
13,-120,-92,-807,1439,573
-93,0,-124,2305,1190,210
125,11,106,3051,210,-299
101,41,-122,1359,-473,-662
-91,-22,-104,479,-548,-1584
-1,-72,-55,53,-950,-2012
42,107,-4,-257,-1137,-2293
17,62,20,-344,-819,-2147
56,-17,-23,391,175,-1754
107,-36,-20,989,53,-1101
74,11,5,51,-563,-521
-9,21,-2,-994,-358,-639
7,-20,-65,-516,319,-508
-75,43,23,5737,2200,-1591
-3,114,110,7658,1925,-3269
-53,-58,50,11487,291,-5416
-101,-82,-59,6272,1747,-5748
96,53,-40,1521,3032,-3512
3,-76,-128,2420,426,-1740
-125,-23,-126,3581,-1838,-2286
7,111,112,1729,-1696,-2269
-84,113,-8,190,-2722,-1657
-56,-98,-18,-1446,-4510,-1752
38,92,8,-5588,-5335,-1259
-72,68,106,1432,-2483,-2626
-52,119,116,3162,-1960,-3943
93,-93,-124,3581,-1479,-3608
17,87,-98,4049,-207,-3548
-76,-95,-13,5455,1099,-2069
-107,-15,24,4216,1801,-814
-50,102,7,3486,-3182,3655
-103,26,-99,3756,-6241,6746
80,57,-33,1202,-5705,2887
-116,73,-97,1085,-6738,3742
100,85,-41,1604,-6059,2161
118,17,-34,2732,-870,-466
75,13,-59,1946,-649,-392
15,23,-84,-779,-158,-36
24,125,-105,310,1250,-659
86,25,74,1214,2062,-2119
-128,111,125,2617,379,-2724
88,-43,93,2568,-1500,-417
3,62,-101,-1874,-2020,2779
-72,-1,-62,1962,-4347,5230
-126,33,85,5782,-5750,7269
-47,107,-9,2361,-1580,3382
23,-56,-46,4208,288,4179
113,-43,-82,3159,562,2704
-30,27,114,3632,-675,-232
-85,-96,48,2038,474,-1206
-84,84,-23,307,1410,-559
108,-1,-63,-243,618,85
92,-42,-84,1000,-24,101
124,-38,-93,1057,178,-578
-79,-63,-88,915,193,-1223
-30,-109,-90,920,24,-1445
3,118,-81,-4,-235,-1558
22,89,-70,-492,-504,-1373
41,67,-64,-555,-264,-1168
17,36,-78,-207,-200,-1074
34,46,-66,-303,-198,-729
68,52,-96,-158,150,-491
31,39,-98,322,81,-535
-69,40,-25,6502,3095,-1959
-30,-125,85,5350,2992,-2267
22,-104,-3,4990,2230,-2513
-107,-74,52,5885,3112,-3596
-124,56,74,6921,2711,-4607
96,59,113,5433,2228,-5482
-49,-8,38,4682,3097,-5592
60,65,96,3914,3553,-4325
-68,46,51,3215,-646,-3573
74,-72,-112,-4123,-4403,-925
109,-88,77,214,-1447,-1515
127,113,99,1149,-1938,-2443
104,-33,75,2618,-639,-2144
71,16,94,2786,-2900,-2875
-5,-119,73,3817,-4096,-3326
-62,33,-117,3592,-1638,-2732
-16,-95,70,5096,169,-567
93,124,-108,4179,807,915
125,98,98,3855,-1189,2509
-94,-74,110,2770,-4789,3523
-111,29,-38,1065,-4870,742
-77,-47,117,1325,-6541,1982
-63,-64,62,945,-8055,3481
-57,-112,-10,1467,-6840,2640
-114,47,96,3353,-671,-621
-95,-64,-23,2097,501,-919
0,-9,-66,-399,87,-56
-13,-126,-105,-186,1379,-929
-16,106,-97,-257,365,-1739
112,-57,112,1215,204,-3091
58,65,-121,3015,-1585,-1575
-12,34,-48,2755,-1932,1231
-77,76,119,2552,-2663,3891
-41,-88,-67,4503,-3425,5323
76,58,-112,4390,-457,3283
-100,18,-86,4589,89,2729
61,-85,27,5089,2157,3455
43,-22,96,4920,2972,3571
121,-45,-59,2910,27,2003
51,-121,-29,1156,-627,666
-2,41,-98,228,855,-8
-104,-7,-103,494,746,67
85,-44,-103,1134,127,52
116,-27,-78,980,-65,-509
-119,-63,-64,855,-34,-1493
-38,120,-63,654,116,-2234
21,74,-39,72,-525,-2424
75,36,-16,-818,-925,-1968
69,33,-17,-1389,-931,-1443
65,-1,-38,-939,-645,-1197
5,8,50,3772,1894,-2551
12,89,74,3617,1550,-2947
6,-104,109,4205,812,-3397
26,64,103,4507,568,-3851
-42,-42,48,4449,310,-3856
102,-93,-111,1629,1351,-4667
-60,-120,51,1896,-1134,-2782
84,49,-50,36,-878,-1757
17,38,-84,210,-977,-1285
17,-119,78,1211,-1196,-1516
-92,-8,21,202,-2062,-1690
-61,-119,-90,1710,-1623,-2113
-115,-121,111,1016,-2496,-1925
-117,-96,-105,1233,-1465,-2788
17,-99,-74,3132,-847,-2485
-62,-78,-91,4558,-211,-2211
-17,-101,39,4791,1714,-1461
-33,66,-44,4593,1369,-234
91,101,-20,3073,-711,2481
-21,92,97,2225,-3878,4712
62,98,-40,1964,-5615,4346
119,-88,-100,2686,-9199,6965
114,-69,-5,1403,-10414,4953
-69,32,97,-1816,-4713,2077
-43,92,118,3478,-493,-2501
123,13,74,2,-4,-650
17,-105,13,-1102,474,-728
-6,-8,-43,883,174,-1902
-42,103,89,3013,-1261,-1447
112,51,-117,3099,-2501,533
-87,-80,52,1681,-3130,3334
92,74,-91,1502,-3118,4046
56,-24,-122,3597,-1705,3010
-53,-25,-22,5397,842,1136
-123,-15,-44,5707,3128,1313
48,63,-75,3230,2454,2184
-49,-88,119,2621,376,1500
-53,-113,-74,1128,-958,1271
-7,-109,-44,-326,-514,1352
-80,89,-47,887,181,387
-95,-53,-125,3087,716,-1321
-73,-62,-67,3087,-110,-871
-53,-51,-39,972,-28,-980
-22,-104,-39,107,36,-1336
45,77,-36,227,-372,-1610
93,42,-28,249,-166,-1903
104,-27,-63,519,116,-1919
84,-61,-34,768,-651,-1092
25,-28,16,173,-619,170
12,-17,-37,-177,296,400
-90,86,108,5702,967,-2474
7,122,-78,6247,2617,-3272
55,99,-15,8967,3279,-4324
10,14,-20,10408,2458,-6161
-45,123,-13,3639,2358,-5362
-62,125,-37,1592,1581,-3678
110,37,29,2788,853,-2906
43,33,-56,3835,-1453,-2835
43,68,-113,1534,-1967,-1931
-8,5,50,1324,-2126,-1742
-79,108,18,-258,-2323,-1224
-88,-127,75,215,-1508,-1835
78,103,72,1423,-1491,-1721
-103,-128,94,971,-2760,-1953
33,56,-32,3237,-2448,-1734
3,52,-107,3383,-825,-2231
-43,3,78,4330,-117,-1229
0,1,9,3101,60,-907
-20,-9,107,1358,395,-1439
-25,90,-120,2761,-1866,1586
78,13,-79,3731,-4095,3777
-87,-118,24,3502,-6082,4273
113,31,-117,2755,-10612,7079
-31,-128,39,919,-10531,5414
-58,70,10,-1421,-6432,2492
0,90,-71,-1102,-4202,1032
122,8,120,2341,-748,-4438
40,-13,-63,4474,-1372,-4181
22,-112,0,2233,-2153,152
112,84,9,1698,-1728,2009
58,22,-122,6429,-810,2495
-62,-66,63,9029,3592,2346
11,111,1,10386,5571,1177
-92,103,2,4534,1111,1965
-114,21,91,-3114,303,2002
56,-87,9,-3029,345,1407
23,86,14,1129,143,1028
-30,18,6,3791,319,-545
-7,1,7,3409,4,-1383
67,-50,78,2311,-363,-1005
37,-86,-107,714,-997,-1252
85,-111,-58,-480,-1271,-1281
124,105,-65,-980,-926,-1239
109,53,-59,-54,-786,-1328
110,35,-41,497,-548,-1144
117,44,-60,156,41,-873
114,53,-78,-214,-219,-337
88,92,-81,-808,-449,133
90,112,-101,-846,-51,195
92,-126,125,-567,206,-96
-102,-127,-48,6780,1855,-2572
21,85,13,8002,2339,-4513
62,-93,49,8917,200,-5522
-49,-81,21,7633,1898,-6492
29,-106,-82,4839,2229,-6579
-84,35,-7,1447,1135,-6483
-43,6,-62,1341,-978,-4604
101,113,68,2368,-1516,-3520
-57,111,65,631,-1858,-3232
32,8,43,-313,-1446,-3414
-114,50,36,-64,-1820,-2410
-29,-101,74,1177,-2399,-2501
57,52,122,2988,-1993,-2505
79,-2,66,3049,12,-2083
38,-30,-42,4133,1043,-1017
54,-89,20,4816,1310,917
-48,-34,114,4908,862,4072
-3,-47,82,3983,-2895,3332
-57,-46,-121,786,-5992,4286
38,-59,54,888,-8960,4316
99,60,-43,-714,-10180,4751
92,-116,87,-3136,-5473,1580
-120,-116,-37,986,-3625,-1259
70,77,65,3330,-207,-2509
-97,-109,-28,2718,-1977,-1710
-107,104,12,2592,-3819,891
-4,-67,-84,2338,-5166,3139
72,-126,102,5139,-2058,2146
-9,99,12,6701,-189,2675
-56,-109,102,4551,1626,2893
72,19,-121,3921,-1030,-324
-17,-7,-32,4437,1033,-1963
-52,96,89,3682,2777,-1826
-24,-114,5,2419,2821,-1646
3,100,58,1785,1445,569
-10,93,103,433,328,1342
7,114,113,-609,-250,1053
31,-104,-123,-1066,-555,899
56,-123,-116,-86,-684,184
61,83,-101,1273,-368,-833
79,81,-69,927,-85,-1097
89,65,-47,134,-182,-852
72,82,-20,-702,-427,-44
54,69,-84,-665,146,-135
56,94,-94,-529,52,-115
110,118,94,-429,419,-533
126,67,71,763,367,-910
-128,67,113,807,-364,-335
102,-98,-89,-855,-141,209
102,109,121,-253,465,-638
68,-99,-109,5887,790,-2011
111,96,-69,7147,1827,-3446
-32,-121,83,6854,1040,-3621
26,-22,-89,5342,1937,-3870
86,-123,-7,5492,1865,-4326
43,39,-34,4768,1291,-4668
48,-24,-98,2087,1300,-4257
-3,-48,72,1228,187,-3676
-62,-22,-74,1799,-555,-3614
-74,55,102,1689,-1708,-3782
88,-40,105,-1748,-3021,-2698
-26,88,101,-494,-2748,-2760
11,-2,71,318,-2195,-2765
-40,62,26,1659,-1125,-2312
-123,-104,-30,3030,-1023,-2627
43,-60,-44,3980,-821,-2251
37,-114,-118,4041,841,-1562
-27,10,65,4146,1118,-501
-9,125,22,3403,787,2023
63,-99,15,2030,-958,2320
-75,-98,-90,750,-4139,2222
19,-89,41,592,-6022,2274
-47,-120,-99,1282,-7673,2619
-4,3,-6,2221,-11844,4610
-128,76,103,-1379,-9076,3580
101,5,-22,929,-54,-2541
-43,-37,121,2015,589,-1370
41,50,54,-285,402,-580
-13,55,21,-1209,256,43
25,17,44,359,1880,-1008
12,103,-95,2962,2739,-2661
-27,-24,96,5392,1128,-1922
-73,61,-70,2139,-1009,1351
-128,62,55,1980,-2103,4949
-86,-14,-58,4580,-2677,5802
-41,-44,-8,2248,-1242,3814
90,-80,13,2978,256,2519
50,42,84,3342,1863,2144
-55,-17,122,1607,-387,2560
-42,-102,28,1004,238,1751
-15,89,2,1678,250,570
-54,3,0,1914,189,-844
-61,-57,-5,1723,892,-1209
-78,-105,-12,579,1141,-1047
-73,102,-38,663,611,-618
-33,86,-27,645,76,-263
-4,83,-23,329,-132,-368
10,88,-23,-172,-213,-451
35,90,-16,-516,-676,-239
24,73,-29,-322,-875,-179
-71,84,-91,5896,1504,-2263
-17,-115,60,7590,1566,-3314
4,111,77,7362,2573,-5041
-104,-68,74,7107,1975,-5522
115,-63,-44,2988,1236,-4714
87,-25,85,1215,-507,-4175
55,-89,125,1476,-954,-3997
11,-60,14,1142,-2395,-2719
14,21,-34,-1221,-3468,-3179
-98,-127,30,2366,-3055,-3520
20,20,-102,1224,-2480,-3651
83,33,-93,4373,-963,-3731
-112,-7,100,4659,-895,-3359
-111,125,31,4092,671,-2301
118,-54,127,4680,1719,-484
101,-76,-95,2790,372,1811
105,-77,-124,2114,-2004,2771
-73,29,-11,1870,-6397,4005
122,21,-103,2984,-11410,6686
-32,51,-103,-1622,-7392,1241
-22,100,47,1893,-1020,693
-114,77,8,6411,-2486,455
68,87,-102,843,-4536,916
83,-98,12,-705,-3277,-66
117,-38,83,2518,-2486,549
-93,-7,116,5014,-2725,1091
102,-72,-1,5096,-758,2240
-14,-105,-25,3669,365,2263
-10,34,16,4688,2026,1923
-107,45,-49,3590,1260,2357
91,-31,-65,2622,516,2056
108,-108,125,2686,549,1506
39,121,-124,1379,204,1092
-6,88,-126,1071,122,802
-52,58,127,499,-12,185
-87,30,-124,305,-224,-398
-55,-3,-127,67,-327,-1116
-15,-34,-124,-189,-539,-1709
34,-50,-111,-807,-691,-1911
98,-86,-98,-1013,-496,-2200
117,115,-110,-143,-15,-2592
-124,62,-121,402,43,-2742
-105,17,127,405,-109,-2093
55,29,-99,-313,-800,-612
-45,55,-87,-1123,-899,603
-30,56,-126,-512,-167,1218
1,100,-117,67,-234,1912
73,-51,108,59,312,2369
-126,-9,63,519,590,1936
116,16,62,692,97,1108
-16,-11,41,5611,2425,-2540
63,-91,56,8970,3342,-4590
120,51,-25,10969,2694,-6049
112,99,75,8862,2134,-8514
-23,-38,-4,4538,1659,-7220
89,1,-119,1930,1331,-5305
-19,83,-73,2009,1000,-4503
100,-16,-120,362,-355,-3860
-26,-89,66,-804,-2129,-2087
-19,-2,-8,-1953,-1467,-3832
30,20,90,-1236,-2997,-2687
-95,31,11,2347,-2583,-2471
-98,77,5,5853,-833,-1063
-97,-58,-6,4328,-630,-1689
-114,-20,-97,5202,-81,-822
-87,-89,62,5036,171,357
83,109,53,3485,-1542,3032
-59,73,-59,2817,-3605,3602
86,107,-124,915,-4088,3709
120,-73,6,1890,-8344,6594
-32,-18,5,1207,-10012,5177
16,111,-22,-2417,-2084,886
-59,-99,-38,3796,691,-1576
11,86,-97,-582,6,-634
30,-64,-110,-688,718,-322
-122,69,16,1228,859,-754
-60,7,18,2375,452,-1318
-88,101,-110,2982,-121,-594
95,97,-89,1736,-199,2333
51,-115,-93,1122,-1263,4622
-38,49,-78,4395,-2667,7591
127,107,78,581,-3075,6218
-113,-4,26,1340,-1283,4486
61,103,-7,3160,-417,4640
-73,70,25,2854,-1886,484
-2,-98,91,2803,-1965,-2015
-23,36,18,1959,959,-1780
-73,-32,-44,993,2253,-1249
-94,-74,-50,154,538,-940
38,-83,-38,-809,-990,-723
24,-67,-16,-1747,-553,-737
-40,-35,-111,27,743,-2432
98,-30,-121,-56,1003,-1829
-123,18,-108,-172,-84,-797
86,-23,113,524,-269,-848
85,-14,-104,-248,-157,-602
91,-8,115,2,155,261
65,64,-121,-287,-513,625
79,104,-122,-353,-310,527
80,118,-123,254,-82,567
-104,-52,-19,5013,1446,-2703
-20,92,3,7025,2815,-3914
53,111,50,9177,2537,-5398
100,-95,-109,8763,1244,-7735
-110,54,-79,3484,806,-6694
-105,83,67,2671,191,-6194
30,30,-48,1981,141,-5995
-112,-123,119,2136,611,-5191
-42,32,11,635,-7,-3917
44,-19,-72,-2028,-1866,-1129
-56,92,-49,-497,-1596,-1610
55,91,127,-851,-3030,-1758
-45,-56,106,3092,-905,-1826
-64,-75,-28,3662,-1122,-2814
-4,-56,23,4567,207,-2810
25,108,-70,5271,1607,-448
-18,-52,-23,4020,65,1773
-102,-50,73,2442,-1641,3942
-9,-22,-26,1620,-4122,3800
115,-45,-124,1793,-5743,4728
25,124,-100,2674,-9684,6577
55,-81,13,-1790,-8108,3508
108,118,109,1825,-1226,-504
119,82,5,2076,689,-1554
-23,-101,-37,-388,-169,67
-44,25,-70,-58,544,-631
-16,-8,101,1275,713,-1322
79,-119,89,2129,910,-1610
71,42,-12,2701,976,-436
8,85,-23,992,-420,1774
-60,81,19,2567,-1496,3678
-23,-6,66,3701,-530,4536
42,73,70,1417,-1100,4273
122,107,-122,1298,-1126,3849
-42,-20,-125,1505,-33,2532
84,-58,63,1844,1133,2007
42,-117,-10,1284,536,1450
-15,58,85,1282,-897,1496
-2,-23,46,1946,200,1063
-43,-23,68,1521,-163,486
-44,-8,43,-183,63,218
-33,-89,6,-45,145,-231
-67,87,-35,897,55,-242
-52,76,-49,899,11,-215
-23,75,-64,740,158,-358
-27,65,-60,444,-27,-574
6,32,-63,319,38,-614
46,42,-55,213,20,-331
36,29,-59,259,-96,-415
38,39,-58,-23,14,-352
-44,-30,10,4284,2698,-2842
48,-81,32,4561,3319,-3602
91,-52,88,4437,2860,-3938
-96,64,-10,4242,2354,-4145
-47,-93,70,4431,2933,-4946
-8,63,-98,4846,3399,-5630
-119,-10,36,5621,4012,-6870
-46,-77,-70,3555,2121,-5855
92,-72,-6,201,387,-4385
18,-44,100,807,108,-3465
68,-3,22,2160,-696,-3053
80,-30,-50,-1045,-879,-2130
37,-94,-105,752,-1174,-89
-31,-48,9,-1888,-1736,-42
29,-60,-86,1551,-4051,-1102
45,38,-48,2575,-2536,-1902
94,72,17,3991,-2125,-2910
-54,92,54,4236,-613,-2683
-115,80,23,5163,1012,-1583
-121,-46,21,4454,1058,560
69,-109,27,3860,373,3703
-1,-76,74,1416,-1291,3763
78,-34,8,120,-3736,4258
-70,-65,-122,1873,-7165,6656
-50,67,-87,-1253,-6531,5305
-104,41,-86,2061,565,434
-95,-48,126,1804,-1052,70
-87,-55,111,211,-151,-427
-73,-106,102,-773,-371,-385
36,-1,24,1123,115,-1331
-90,-39,68,797,223,-1634
-44,98,2,986,-192,-558
-103,-14,-110,1764,231,1522
47,67,-85,1501,-931,4005
6,9,-17,1774,-2483,5699
-126,-54,-61,2426,-1834,5989
1,-117,-120,494,-2762,4218
-79,80,-66,1662,-2279,2502
-61,-13,-87,2195,-219,2019
108,-76,112,1662,-191,1329
-60,111,-101,783,-1270,572
-107,69,-97,236,-829,467
122,3,118,718,525,241
126,-46,40,1704,1131,-609
-85,-62,-13,1347,879,-1150
-26,121,-73,344,696,-1739
-1,46,-81,-128,509,-1729
3,-59,-93,804,257,-1224
17,-55,-72,660,85,-401
31,-8,-82,-167,213,-109
-13,-86,-29,5534,1520,-3337
26,45,64,4202,2077,-3687
-58,21,-96,5603,1056,-4637
51,112,-62,5451,1154,-5398
117,44,-100,4540,949,-5021
-96,6,-7,3764,363,-5349
113,-12,90,5495,-1601,-4844
-26,95,117,1444,-2504,-3301
69,-74,93,-1141,-931,-3653
36,100,-47,1127,-1407,-2544
-76,-17,-103,-789,-2987,-1862
109,-88,100,348,-2915,-2433
117,-90,-122,904,-3051,-2577
47,-15,60,3579,-811,-2262
17,0,-67,4523,653,-1024
-106,4,69,4600,1379,793
-12,-4,122,5116,1890,2176
107,33,67,5037,-1341,4783
-53,-46,-51,2423,-3817,1483
118,-119,-79,-36,-3525,3536
-81,-95,60,3620,-5787,7800
16,37,14,3080,-9311,7399
-9,113,3,-2794,-4906,2613
111,92,79,2956,-1199,-2069
-17,34,58,-476,165,-1868
11,96,16,-714,154,-1204
23,-44,-54,523,769,-974
4,3,-76,1614,351,-1388
-56,-19,122,2488,305,232
84,48,-115,1152,-885,1996
99,75,120,2779,-1215,3612
-74,3,87,3450,-591,3672
-21,4,-43,1323,-1616,4581
97,50,-42,1905,-1323,3417
-24,-6,-110,1932,562,2301
15,-80,0,1310,515,2240
88,-24,109,562,-1948,3196
93,-90,69,2552,-1652,1732
-73,111,52,3507,-670,-675
-118,82,15,1892,676,-1916
-97,42,9,386,976,-1171
-114,-60,-8,756,378,-1158
-72,96,-50,709,520,-1035
-57,109,-73,337,392,-508
-18,96,-90,103,187,-840
31,34,-123,602,371,-1192
55,-2,-128,570,427,-1154
66,-16,-115,44,94,-543
61,13,-105,-306,-254,218
43,13,-106,-73,-138,143
-91,-22,-126,5256,1230,-2081
-23,-76,-6,6875,1417,-3845
-75,-75,102,7349,1222,-4491
24,-100,11,4320,1567,-4023
88,-26,30,4484,1364,-4163
72,76,-28,5365,1327,-4946
16,-54,110,4286,1103,-4914
-110,-8,10,2896,-93,-4153
-69,-62,116,750,-279,-3452
84,-112,22,-1143,-1728,-3188
17,18,104,355,-1873,-2155
-83,-31,48,-1283,-2636,-1967
-84,49,104,-1394,-3338,-3661
113,-27,119,3925,-1582,-1679
17,-85,96,4765,-164,-691
99,-48,52,5185,-147,-1732
-87,122,-114,5985,2146,-1341
-17,-45,101,4376,1571,1189
-119,-126,-72,3431,-711,2892
61,125,-55,1902,-4342,4110
-103,-66,13,2933,-5635,4500
-65,-12,98,1271,-6011,4924
-63,-3,-88,1042,-8816,4966
16,-70,-8,-1861,-1838,-45
-32,-120,1,4078,1099,-2196
-116,-56,-44,676,960,-1426
-47,-117,-84,559,663,-938
39,-13,-113,2313,-703,-1197
-19,-88,95,2290,-1469,364
-111,-62,91,1556,-1958,2415
-122,32,113,1730,-2529,3901
100,20,0,1474,-2959,3374
26,-31,123,3292,-2744,3568
112,11,-88,2169,-1860,2323
-7,18,-78,2550,-1096,2068
-12,-88,96,2593,606,1712
10,119,-35,3458,1956,1964
-71,-43,-128,3117,792,2432
-111,87,-74,-302,-983,2461
-101,60,-114,-940,-294,985
-100,-19,62,291,1808,-1162
81,-120,0,1411,1151,-2118
97,114,-24,580,553,-1750
124,60,-55,100,436,-1514
-89,-21,-84,237,146,-1635
-73,-58,-88,259,-74,-1705
-40,-90,-79,-266,-211,-1670
-38,-124,-76,-375,-383,-1446
-50,106,-63,-339,-572,-1084
-70,89,-40,-321,-481,-704
-57,89,116,5294,1844,-2165
-50,107,-73,6937,2155,-3430
-45,3,19,5951,2353,-4673
39,44,-24,5433,3451,-5989
-89,33,-39,4051,2032,-5171
49,-102,-3,1065,1152,-4115
25,-99,41,853,1299,-4283
-43,48,-95,1076,-714,-4478
26,102,-56,396,-1663,-4430
105,6,-83,1972,-2540,-3572
59,-23,-81,2038,-2554,-4358
-55,12,-17,3420,-2873,-4894
83,-63,-47,3656,262,-3944
78,45,-75,4793,1302,-2271
97,-79,-53,3512,-519,-232
-55,-80,-70,2417,-2511,2725
122,65,17,2027,-4009,3164
8,-125,103,2582,-5319,4683
-50,-83,-73,3171,-7031,5717
46,-49,42,1680,-7519,3504
-32,94,-63,2487,-1197,-913
86,66,-110,677,735,-1541
38,-107,110,694,1135,-550
-10,-91,90,-379,583,-201
32,123,101,-506,567,-1717
118,31,-85,46,110,-2312
-121,71,68,2714,-943,-1532
20,90,-95,2492,-2488,1738
-25,-124,3,2015,-2583,3556
15,-13,61,2784,-2848,4191
-90,-41,-128,3132,-3460,4688
75,73,-118,1919,-1906,2259
-38,-85,-123,3873,-141,1804
-55,-92,58,3970,573,1867
107,-43,100,2069,490,2934
60,-117,13,1643,1722,2631
-4,106,-9,2208,288,1698
-95,-65,32,320,-421,861
-107,127,19,-1036,131,-1181
-62,-67,-87,347,1145,-2625
-32,-115,-79,918,531,-2661
2,124,-84,323,-124,-1945
36,118,-78,-877,-413,-1756
71,81,-75,-833,-382,-1704
112,45,-79,-373,-34,-1672
118,47,-77,-367,-225,-1585
64,62,-34,-1114,-1023,-1221
33,45,-47,-943,-441,-296
33,46,-95,-134,308,385
-4,78,-119,370,734,135
-91,50,30,5851,1874,-1869
-8,19,112,6877,2059,-3031
83,-86,55,5521,1899,-3228
42,7,-91,6360,2403,-3200
-17,125,-98,6948,3159,-4312
-26,-42,38,6107,3747,-5253
58,-112,106,5765,1686,-5519
-81,-118,-34,1831,-652,-4109
109,100,-53,-2434,-523,-3679
-127,-70,-59,-6751,434,-2404
-50,90,105,4247,-969,-4632
-75,121,78,2426,-3229,-3351
102,-107,-125,5485,-2159,-2541
114,24,-95,4019,-2188,-1933
10,95,77,5045,-1876,-2528
-44,66,-71,6477,-359,-1695
-97,97,24,5683,517,1255
70,-1,-27,4565,-2701,2446
57,103,27,1271,-4561,2372
-59,46,-82,1331,-6015,4248
54,104,70,1031,-8791,5507
58,-75,109,1147,-8302,3417
4,-61,24,895,-2437,1436
-16,-122,-28,2445,1257,-3275
-113,-14,-94,429,648,-761
108,-50,-41,-174,516,-722
66,-8,-21,1844,-926,-2133
18,-95,-68,3866,-1578,146
-14,47,1,1556,-2318,3095
6,97,96,2775,-3872,3972
-8,19,54,3783,-2160,3548
-74,-88,126,3076,-2295,3047
-98,50,7,2956,-192,1791
122,-10,56,2365,317,1636
100,104,-94,3135,1431,1113
70,114,-126,3552,1158,1339
20,117,-85,1780,656,1481
-52,84,-48,-743,-70,681
-80,19,-85,-62,-30,-107
-79,-42,-108,1250,316,-667
-73,-44,127,1092,544,-1106
-44,-54,119,411,235,-1284
25,-91,104,-24,-27,-1617
46,-102,106,-306,-385,-2274
87,112,104,-128,-556,-2823
107,104,105,-125,-942,-2541
98,86,96,149,-524,-2112
62,27,95,1323,208,-1927
41,-6,103,2925,-2,-1376
16,20,116,2429,-270,-795
46,-118,15,3556,3402,-1497
73,58,-53,4882,2600,-2336
-112,-19,21,6577,4462,-5354
40,-63,-83,6423,1759,-5518
39,26,37,-1110,711,-6679
-37,120,64,2019,-1067,-4433
-76,-82,-34,2433,-1469,-4233
126,20,86,1129,-2328,-1829
77,-7,38,1857,-1469,-1291
106,30,98,139,-2518,-1451
62,-85,32,1416,-1469,-2741
-10,-119,0,1067,-125,-4149
16,51,124,3880,999,-2732
-32,69,114,3039,485,-1916
-88,54,71,3065,1302,-1177
-100,-23,-4,2583,3229,-2040
-120,109,-76,3183,4641,239
-12,-31,-81,2343,-527,5577
-83,-4,-119,1465,-4044,6703
-115,44,49,775,-5730,5871
-96,-108,-46,-207,-9012,5705
31,101,77,-2104,-9809,4883
-9,-41,-51,2458,1480,-963
50,22,-118,5431,-524,-1786
-49,-29,118,-477,-666,-97
93,-51,-12,-2820,458,-329
-89,-32,-99,836,78,-2259
-97,17,117,3580,-2025,-2247
33,35,-18,2823,-4070,1494
118,-114,43,1214,-3233,4759
57,-92,25,3549,-3263,5122
68,-81,67,4473,-2701,6297
90,-88,-116,4970,-44,5423
-14,116,-56,10275,-4850,2083
-12,-35,-26,1458,-2967,1338
104,117,50,-2800,3341,-500
97,55,-73,1610,5065,-1059
54,-17,-102,6920,1902,-1655
95,-19,81,7034,385,-2056
-55,92,81,4619,643,-4277
-6,4,-11,1385,-107,-4149
-117,-56,50,-793,43,-2576
-30,80,24,-576,-269,-380
54,88,77,453,-1536,1625
-12,120,-125,1015,-1627,2132
67,-50,114,235,-539,1928
-123,4,50,-23,431,1359
112,26,-28,516,885,830
61,-23,-77,1769,711,81
5,4,-15,1491,-668,393
99,104,56,6826,735,-1521
-43,82,-73,8117,1303,-3709
-52,10,34,7303,1316,-4603
-42,-2,100,5273,1304,-4306
-54,-47,23,3169,1323,-4249
-104,32,-92,1201,-90,-4011
123,101,80,180,-2695,-1929
-18,-86,-106,-2915,-2535,-3645
-29,-119,70,-136,-2324,-4162
119,0,68,258,-2320,-4899
-95,-23,-124,470,-1486,-4963
72,15,-66,-2424,-665,-4914
-52,84,-16,991,983,-4144
-69,62,11,4840,743,-2723
-15,-30,-23,4668,715,-225
-29,94,108,5065,1688,-713
106,101,-38,3683,865,1199
41,68,-87,2873,-1892,2282
7,3,-67,2018,-4639,1403
-11,-36,58,1812,-7526,1853
-55,-72,-125,2604,-10193,3694
16,28,-7,2865,-8952,1970
8,-57,-15,-2558,2074,-1567
-87,-63,-29,5217,-323,-376
34,-65,-91,-1974,-461,-912
-104,-34,-114,422,1042,-848
-39,0,-112,990,681,-994
10,100,-43,3485,-936,-1583
-84,-10,-69,3205,-2321,-340
-95,125,-21,775,-393,1312
-60,-108,-104,1986,-3139,6025
-42,83,63,4875,-4139,3882
-63,-73,-38,1010,-1927,3472
83,65,7,1259,-2163,1885
49,-122,-80,3306,47,722
-50,118,46,3122,810,1049
99,84,-111,2562,305,852
127,43,76,1898,-78,410
-70,12,14,1384,475,197
-90,-35,-28,1353,954,9
-105,-86,-50,2116,803,-275
-102,-121,-72,2106,679,-357
-101,115,-75,1524,531,-408
-82,85,-59,1016,52,-264
-58,48,-45,1305,175,-321
-37,49,-16,1053,-261,-299
-6,75,15,-166,-422,-217
-23,71,22,-639,-473,-410
12,49,2,-554,-109,-525
22,35,-36,-125,219,-691
122,20,-46,6211,1508,-1451
-77,-36,28,9049,1471,-2469
-61,-125,-68,7039,1257,-3015
5,58,56,5782,1762,-3443
-29,-5,53,5436,895,-4087
-33,-39,-2,4522,-369,-4655
-50,-53,-108,1533,-702,-4247
-69,-55,43,446,-1041,-4042
-70,-65,-49,1610,-1521,-2694
68,-111,111,2364,-2226,-2132
-49,122,-106,2553,-2199,-2926
20,-84,-51,3327,-3539,-3261
-46,95,-109,2456,-3621,-2318
-86,49,-39,2165,-3387,-1834
74,-74,10,2550,-2228,-1960
-92,-72,55,3492,-582,-3067
70,-94,57,1333,1079,-1708
-59,76,35,840,1669,662
81,-125,40,1586,-2311,3841
51,16,-73,819,-7482,3894
3,11,-91,1476,-8334,3695
-33,-78,-25,2713,-7636,3821
99,-95,-7,4016,-5400,2294
44,71,3,1619,-1110,164
105,56,-56,1196,478,-214
-12,-4,-101,96,496,-392
47,-55,109,201,2259,-1324
106,90,60,1280,2023,-2707
-110,-102,65,2926,602,-2590
107,-116,101,842,-1661,-276
-40,32,-102,1041,-2420,2953
-100,57,-28,3478,-3293,6115
91,82,-73,2157,-2480,6496
23,67,85,2308,-1747,2778
89,-69,-34,1954,-146,3663
12,-63,-61,4181,1657,2754
30,113,73,5491,-74,2813
-112,-122,-33,3210,632,2877
61,-73,-32,177,-77,1828
-77,125,-27,-1128,-857,-505
-85,-85,-42,284,-278,-2292
-38,124,-37,881,534,-1940
-53,91,-38,732,295,-1524
-20,46,-62,600,20,-1382
53,47,-67,-5,-252,-1041
57,74,-65,-1082,-516,-897
79,54,-75,-929,-293,-980
73,16,-106,83,272,-1038
58,-5,-111,849,189,-823
35,5,-105,432,-199,-264
-90,-110,-122,5293,2504,-1414
-15,99,-52,6346,3092,-2181
57,105,60,7753,3517,-3115
107,104,18,7844,4196,-4829
32,-49,119,6109,4247,-7135
-92,2,79,4297,3282,-5984
126,37,-65,3633,1312,-5349
-63,-74,116,-1984,858,-5357
-120,107,-75,-3298,1274,-5733
-103,-113,-128,3792,-1323,-3373
-107,117,46,2777,-1770,-3191
117,-23,7,3385,-922,-3192
-126,97,-56,3691,-112,-2631
78,-9,-91,3796,-79,-1511
-5,102,120,4627,761,-1262
-6,-123,77,4644,1364,-853
81,5,122,4908,2053,1046
29,-70,-53,3765,-384,4065
-39,-3,-72,1874,-4399,5608
-86,75,79,1686,-5985,6500
51,-75,33,2227,-11296,7763
-97,-75,60,-4882,-5128,2214
38,-38,-11,3786,563,-2380
67,-78,-115,1435,48,-1575
25,-83,120,-940,227,-341
68,70,63,663,-1049,-1023
50,0,7,1746,-2074,-607
3,-92,-50,3326,-2457,829
-60,-22,85,2617,-3879,2745
61,32,56,3494,-2436,3860
-97,73,121,3749,-2750,5081
-120,-120,110,1492,-1734,3430
-88,75,-113,1386,-712,2590
-79,-87,58,4202,-237,646
118,124,23,3958,158,56
2,-108,2,2146,881,961
-95,-122,-14,1047,894,1355
118,98,-71,1491,845,850
-122,92,-104,1715,461,193
-105,104,-120,1125,514,-713
-47,13,91,1188,587,-2371
41,-94,79,1361,139,-3353
122,115,111,462,-465,-2998
-103,86,-89,-725,-1190,-2339
-96,41,-71,-796,-936,-2122
-84,-9,-60,-36,-471,-1745
-90,-8,-39,85,-337,-1418
-113,-4,-28,-218,-321,-1029
111,-6,-42,-474,-69,-377
88,-18,-96,256,530,510
32,78,-67,8069,-314,-741
-22,-96,-101,8887,63,-3559
-12,124,-59,2698,437,-4013
-1,24,18,-834,201,-494
-38,-106,-28,-1057,714,341
-82,-6,-57,-4174,485,1002
126,-69,116,-5594,-237,1058
-98,84,40,-4034,-609,627
-74,111,28,-2309,-253,248
12,-57,25,-1069,50,172
-31,-26,13,1191,408,-403
126,-16,50,1776,581,-261
78,81,-88,243,-788,1299
22,111,-52,-1820,-435,822
86,74,-2,-925,-620,69
55,2,-64,1402,364,-349
27,44,-71,1255,86,-120
63,117,-81,-488,-202,341
57,110,-126,-649,259,280
22,68,85,245,624,-666
24,67,79,553,382,-822
39,86,80,246,90,-522
45,105,76,-294,-107,-301
45,117,72,-395,-275,-358
20,126,94,-423,-442,-470
22,-128,98,-291,-235,-438
106,-65,-120,-864,-574,157
-47,-38,105,-1432,-8,-167
-32,-80,53,-428,425,-787
65,-29,37,-246,-23,-48
-10,6,53,-662,-350,1
-46,-30,36,251,181,-330
-15,0,46,18,-166,86
1,23,56,-272,-312,323
-5,43,70,-422,-241,226
-11,47,75,-436,-299,29
41,54,72,-435,-41,291
-16,71,85,-290,-213,297
-71,66,84,57,340,-263
-28,38,41,620,690,-578
-28,33,25,724,309,-450
56,36,-9,503,261,-172
-61,20,12,407,-299,-541
-39,1,33,178,-397,-542
40,22,57,-498,-231,-29
-33,-22,55,590,-187,-309
-55,-16,70,463,-111,-224
-21,23,79,-463,-424,318
-39,18,78,-323,-184,137
4,29,78,16,3,-3
107,57,69,6631,1127,-2009
27,15,87,9196,3051,-4660
37,63,69,7432,1756,-4161
34,15,40,6087,2643,-5176
14,41,-11,3193,558,-5403
86,83,39,2183,-1354,-5188
23,-120,36,-118,-2162,-4542
28,120,-47,-3105,-1387,-4750
73,-100,-114,2516,-3520,-7978
97,-41,58,2121,-1519,-5712
-22,-69,20,1710,665,-5998
7,-8,-22,3466,765,-4412
-95,114,84,3875,2703,-2059
24,3,21,2871,3670,-1346
111,-48,-122,2655,3647,2220
81,-96,-54,3315,2143,3616
-41,-87,-110,1992,-3383,4136
-74,-7,-117,1666,-9186,5646
-53,52,18,2541,-11089,6753
-65,-91,-100,1036,-9061,4698
18,68,127,-1397,-5683,2156
-74,-86,-83,-1980,-4725,1721
-124,54,47,3246,-1660,-3085
101,63,87,4881,-2313,-2863
123,52,-2,1074,-3885,1860
-11,116,-27,2728,-2605,1567
-121,88,38,6821,-452,1439
-121,111,-92,5645,638,2605
60,119,13,5566,1391,2146
-104,50,106,4962,926,758
82,16,123,2348,708,823
27,-83,58,1321,1380,1065
-42,-120,40,1442,711,754
-67,123,48,1065,-184,26
-47,105,78,134,-884,-955
-12,92,-110,-931,-1386,-1595
21,79,-75,-1826,-1177,-2173
-118,7,-103,-1883,-156,-3140
-83,-68,-109,-807,43,-3447
-96,-128,-109,144,-47,-3017
83,96,-112,256,-59,-2236
59,79,-123,-166,84,-1437
-29,65,124,-327,-372,-298
-92,98,-113,-659,-1111,964
-88,-72,-93,-1125,-1018,1790
-9,-30,-114,-459,-193,2122
95,0,99,880,426,1963
-108,83,79,1270,295,1561
73,101,99,575,-351,682
39,112,116,-360,-215,222
-46,63,80,6844,2460,-1392
-100,-55,-35,10177,1924,-2311
-98,-72,-96,7579,1706,-3918
9,122,73,5081,999,-4207
44,33,-118,3728,1290,-3941
-43,-17,32,4143,1201,-4210
-4,33,-81,6865,-178,-6496
-26,-63,-126,437,-1804,-3965
43,-21,90,-1296,-1889,-3425
64,-68,37,1294,-1936,-3960
-81,20,64,-84,-51,-6428
-7,-84,-67,4203,-2262,-4709
-21,-101,-61,3326,-1906,-3338
-122,-111,-68,3178,-505,-2149
73,-121,-107,3012,1357,-1249
-49,112,25,3727,1693,-598
-32,-11,110,3372,1371,626
-105,-55,-22,3469,2245,1639
-8,-61,-67,2727,1520,1953
-79,-47,6,1699,-551,2184
-17,34,-98,797,-4387,5591
8,73,7,1889,-7264,8739
-36,68,104,2181,-13347,8083
-56,-83,-123,-3726,-5572,2154
-4,62,78,3682,28,-128
72,-23,-24,2080,13,-1464
10,119,-51,-3109,406,-181
-37,98,-104,-900,711,-1917
7,-46,-83,1609,494,-3333
-39,6,-120,5041,-2311,-1989
-84,121,74,2487,-4734,2898
6,-78,-6,2181,-4867,5718
-53,96,82,4324,-3645,5714
127,2,-98,3960,1403,3743
-48,-20,105,6827,2699,4435
113,-72,-62,5631,-4814,1613
17,-118,122,-1111,-2436,-715
-2,-68,-56,-1071,2903,-370
-98,44,-84,2301,3150,-632
72,-8,108,4542,842,-820
-123,37,82,3167,-94,-404
-72,32,92,415,-251,-1211
-32,-48,112,-698,-830,-1790
54,-108,-107,-596,-1422,-2099
114,104,-50,-212,-1464,-2017
58,45,25,247,-1016,-1860
44,28,22,-116,-241,-1753
91,17,17,-865,-24,-1113
68,11,-24,-635,-7,-132
-3,14,-83,-189,-53,291
-100,-113,-67,4894,2013,-1370
21,59,-37,6527,2531,-1733
-71,63,-74,7636,1698,-2089
-44,-29,48,5816,2045,-2401
30,-76,-73,4544,1754,-2285
-35,10,125,5394,1860,-3224
-87,66,18,4486,614,-3684
-98,-2,-40,2855,-1936,-4209
-49,65,116,286,11,-5223
95,-47,27,3510,-963,-5241
94,-45,44,2748,-1747,-2531
-63,-28,118,-1768,-2948,-3250
-77,-28,-108,1503,-3104,-4174
-27,120,60,2376,-1357,-3002
113,-119,3,3481,-971,-3092
10,25,-45,3176,-288,-2489
9,-48,110,4742,909,-1385
47,-92,35,4288,1585,-1046
-112,-17,-56,2770,1843,948
65,25,-39,2235,-1126,4440
-17,-58,-95,1806,-4958,6018
96,-40,29,1366,-6801,5471
-96,-121,45,-601,-8632,5081
62,106,6,1686,-7230,3112
25,-9,-39,3201,1846,-989
85,60,-122,1018,542,-385
-99,-12,112,-504,423,-588
12,-82,-58,-274,448,-915
107,-38,-128,2352,-582,-1799
52,-115,-127,2126,-1735,-143
-31,-124,-49,1403,-2922,2406
-112,15,-118,1156,-4967,5028
90,-115,-55,3187,-4909,4967
-25,67,12,3502,-2039,3779
24,17,120,2730,575,2015
80,-11,22,3424,1058,2715
28,-25,-46,3628,-292,2777
-118,-55,-13,2939,-1237,1467
89,-90,-18,1798,-83,879
6,63,-56,2053,813,261
-60,24,-70,2825,487,73
-122,0,-69,2218,143,-343
-105,-6,-49,619,194,-759
-65,-49,-51,-310,-185,-1259
-18,-86,-65,-834,-303,-1863
38,-122,-85,-1037,-311,-2275
90,105,-108,-1298,-494,-2474
120,105,-103,-1439,-716,-2195
-123,114,-105,-1624,-758,-1805
112,117,-103,-1489,-458,-1525
-77,116,-50,5784,2283,-1243
-48,81,71,7033,1915,-2532
-20,110,9,7985,1704,-3853
32,62,-114,6718,1985,-4511
84,-87,-123,4242,3133,-5464
54,79,49,3147,2074,-6293
-126,70,-44,3329,34,-5764
12,87,-81,-5757,1094,-4436
-16,103,116,667,1922,-6026
85,-14,-49,4418,-334,-5349
-33,25,-109,3614,-896,-5030
-6,-112,-62,4186,-1723,-4620
-112,25,-98,3384,775,-3121
-87,116,15,4624,2469,-1467
127,67,65,4218,3374,-1059
-94,-55,-34,4357,3640,1112
79,27,-57,3133,334,4002
37,-123,64,2140,-2614,3870
-93,-56,-73,1459,-5170,3305
-97,-50,34,1984,-7138,4249
-122,-28,36,1672,-10162,4375
45,-4,78,557,-6610,2602
79,-28,29,874,-263,-488
31,50,-37,2131,-458,-1264
5,-80,-71,-1424,312,-129
8,-123,110,-898,925,-241
33,0,9,1991,1100,-1836
13,126,88,5072,655,-2243
-76,-116,-127,4020,-2223,1332
-85,-33,31,2252,-3987,4777
11,38,-93,3164,-4570,5233
94,-81,90,3715,-1458,2670
15,-123,101,4971,448,2634
-77,-104,-94,4949,2278,3902
-39,58,-119,4819,1558,5101
-119,15,23,3905,-2314,2964
-52,30,117,-1498,-2372,87
-39,109,-4,-231,1199,-346
94,-14,-50,2600,2001,-290
38,56,-58,1795,503,-640
77,66,-85,577,-119,-1063
-69,-21,-100,14,-163,-2362
14,-115,-95,510,-209,-2887
96,52,-54,410,-611,-3130
-128,8,-39,91,-659,-2688
-125,-3,-4,-608,-902,-2092
-126,-35,-7,-1034,-661,-1625
96,-54,-35,-789,-375,-1104
46,-42,-59,-1008,-562,-645
7,-8,-88,-1309,-799,209
106,45,-120,5197,1921,-885
101,-60,-62,6896,1583,-1320
-71,-71,89,7857,2160,-1612
-48,29,-35,8272,1918,-2538
-55,-6,118,7001,1149,-2992
-24,76,-48,4137,393,-3368
-19,-49,-86,3109,648,-4091
-90,-107,74,2190,542,-4249
78,-13,-35,886,801,-4653
69,80,108,1644,227,-4639
-26,90,-26,-1166,-1301,-3377
121,5,-29,2187,-4243,-6131
119,109,-115,-1558,-968,-4888
21,110,-41,1158,661,-4159
-100,-112,-106,2433,414,-4381
23,-128,4,4041,107,-4261
-15,50,-45,4168,382,-3676
-45,-19,114,4525,1901,-2153
-115,70,-55,4556,2451,-584
-2,97,114,3049,776,2956
-103,-52,-73,3066,-2628,4460
-102,-122,85,1939,-4805,4014
-45,120,-50,3084,-8016,5251
-92,110,126,870,-6839,1771
108,-12,-26,-41,-3206,2420
-99,-101,-51,3857,-235,-437
-61,46,126,265,-451,-338
46,-47,83,967,170,-987
79,-102,109,1232,-1104,-1381
69,-29,-1,2345,-2257,-971
-73,-87,1,2519,-3147,834
-103,-17,-33,1526,-4507,2829
41,11,-46,2908,-2287,2865
-62,-49,33,4079,-1959,3509
97,43,-29,2869,-600,2008
107,2,-125,2832,504,2308
67,-55,88,2116,-179,1802
59,74,32,2291,83,1726
43,16,-37,3491,822,1427
16,2,-89,3658,742,973
-45,35,-38,1824,-163,729
-97,17,-12,161,-304,168
-78,-54,-73,-24,569,-890
-43,113,-68,816,-354,-795
-92,-59,-7,-371,-444,-18
-53,-116,-77,-189,421,-1719
48,56,123,742,377,-2272
52,48,-89,314,-753,-1741
20,98,-26,-1336,-1153,-711
17,92,-84,-1868,184,-1152
-50,92,64,7123,3446,-1478
71,31,80,2890,620,-278
-87,-32,-120,3144,1257,-809
-6,78,-81,6817,1939,-2313
30,-16,23,7894,1890,-3267
-35,-5,-90,6650,1134,-3522
27,42,-35,3266,1302,-3487
-9,-4,94,4184,983,-4469
-43,-94,-87,2658,673,-5213
29,63,101,-1148,-191,-4080
-38,-118,-29,517,-2114,-4346
-32,-22,16,1243,-766,-3987
26,-11,-9,1855,-1371,-4119
34,-44,-22,2053,-1882,-3885
-116,-71,-81,1340,-453,-4012
-117,98,102,3620,991,-3863
52,-114,-8,4454,734,-2198
43,62,-48,4401,1827,-1252
-44,-99,-116,4114,2367,139
-73,37,24,4129,2228,4249
66,-118,-27,3233,-3637,5459
-24,19,-88,2657,-5672,4186
43,105,9,977,-7532,5106
77,20,-24,-500,-8249,6758
127,-99,-105,-417,-4427,1486
63,76,25,1599,425,685
106,120,-72,2572,-843,-1769
-14,-33,-100,-1462,-830,-1163
112,-108,-102,-620,-1309,-2020
104,-29,-28,1996,-2631,-1612
-56,-67,-117,3393,-6167,988
53,-119,-48,1190,-5307,3207
73,-34,-109,3514,-2756,3007
-110,95,115,3500,-1265,1395
21,74,-106,1778,-259,-116
-69,-94,14,2009,-235,471
-109,113,-70,2566,-799,1192
-44,101,104,2881,-221,2164
10,-118,113,2543,-172,2598
60,118,46,3205,324,1431
3,105,19,3485,-325,11
-56,80,9,1622,105,-1423
-37,-24,-46,592,985,-1773
-1,-125,-81,1303,910,-1597
-19,86,-101,1725,590,-1094
-26,44,-115,1482,183,-789
9,41,-86,996,25,-313
53,22,-78,993,-109,-139
46,22,-54,814,-209,-89
24,48,-33,-138,-458,32
-98,-31,46,7754,1941,-2571
19,-128,-102,6614,2504,-2618
61,-6,21,5537,2055,-3495
81,70,82,6670,1691,-4812
80,113,91,5489,1321,-5652
2,-76,28,5158,423,-6130
105,97,-27,3761,-362,-4227
30,95,3,321,2025,-4075
-46,14,52,2116,221,-3309
23,28,-68,1211,-1622,-2767
-46,-105,-111,1552,-1455,-1507
57,113,46,1670,-2850,-1008
6,66,105,185,-4012,-353
-123,124,-37,2975,-2828,-405
126,-3,-74,3354,-2499,-854
41,42,-29,2208,-2884,-1424
40,58,20,3142,-2084,-2440
-25,41,91,3900,274,-2124
96,-107,45,3685,2838,-1362
89,-59,-13,3404,1789,1427
-14,-60,-44,3287,-2605,4768
1,77,25,3357,-2471,5638
16,-80,-3,1828,-5204,6371
-57,50,16,-872,-8273,7414
-75,95,91,-2174,-6014,2402
23,4,2,4801,1693,-2413
46,-67,-74,1259,1023,-415
-74,-74,-112,-1497,443,248
-39,75,120,373,916,-229
0,68,1,357,1460,-1541
-101,-16,-103,458,1673,-2466
-52,64,102,1413,-672,-1987
-96,13,-123,2144,-1334,1382
6,-59,78,2505,-1458,3514
-51,-62,57,3157,-3007,6953
100,-52,75,4116,-2021,5265
-9,-115,122,3744,-1232,5119
119,96,-105,2366,-890,3176
-87,-91,42,2826,1223,1241
-117,88,-45,3477,1603,1256
14,117,19,2398,-152,1176
-72,58,24,1101,-590,-378
-108,-97,4,1183,519,-1560
-102,87,-20,1441,970,-1553
-99,76,-19,956,430,-726
-67,97,-9,-158,-141,-314
-24,77,-19,-543,-105,-927
7,36,-34,-384,125,-1284
13,13,-37,-212,9,-1336
25,1,-44,-155,100,-1240
76,27,-118,5801,1755,-985
91,0,-54,6929,1739,-1630
-121,41,73,5870,2728,-1827
-32,-74,-57,4176,3813,-2577
-11,-29,1,6307,2551,-3695
-27,-12,-122,5084,1229,-4708
-1,105,84,2156,2015,-5504
-17,-59,-31,3689,910,-5372
-97,9,-33,1857,-521,-5204
100,-22,43,-118,-1572,-5392
71,127,123,4028,-3968,-5430
-112,67,87,2601,-1550,-3879
-68,63,-68,4206,-1201,-3820
-6,28,84,4714,814,-2760
-117,-73,-25,5121,1537,-734
-93,6,57,4592,1673,996
61,52,68,3057,-1116,4033
-72,106,-66,2352,-4419,3227
-11,-107,84,450,-6027,2344
-20,-126,61,-230,-8408,5155
1,37,17,101,-6950,2393
50,24,-39,2084,764,-359
-105,-1,-115,2414,-909,-597
-101,82,121,-291,890,-470
-65,27,97,-372,719,-1114
70,-36,-83,1499,927,-1931
-114,-110,-15,1405,-196,-1841
-95,68,-92,2514,-484,-476
50,32,-111,2203,-1044,1131
-87,83,-36,2564,-3009,4007
-84,-50,89,4801,-3316,6567
61,65,-25,2476,-2651,4752
-43,-94,113,2290,-1816,3415
71,60,124,1633,1312,3140
113,-117,-120,3316,2364,2925
106,-78,28,2766,179,3053
68,-68,59,1264,-1830,2545
1,-66,52,-339,-572,349
-64,61,6,778,1227,-1608
-79,-68,0,1583,892,-2052
-79,-96,-25,1305,408,-1425
-48,114,-14,474,-118,-1183
-30,83,-5,-521,-48,-779
22,30,-25,302,336,-843
47,38,-20,301,141,-811
62,54,-16,81,-106,-783
43,56,-5,213,-81,-690
36,37,-39,606,187,-744
61,51,-45,358,345,-234
64,46,-84,438,382,-72
-99,-32,107,7567,1833,-1602
-93,51,-18,8118,2033,-2937
-118,-47,62,7561,1972,-4131
-111,-48,102,5965,1624,-4175
-118,-21,-124,4221,794,-3736
122,-87,35,2667,-62,-4008
-76,-107,-105,3,-619,-4488
25,69,-128,446,-638,-4527
-116,63,-35,540,74,-5633
-119,23,59,-228,-1077,-4772
97,-104,-16,1221,-2109,-3980
50,37,85,3610,-2771,-3652
-108,-12,108,3757,-2492,-4639
-101,31,-118,4322,-1294,-4596
-48,-55,82,5426,918,-3179
-22,119,33,5109,2055,-1950
101,-29,-25,4267,2814,569
1,-38,-108,2192,2789,1052
51,13,57,2233,-2616,4050
50,-44,96,2971,-4928,6090
-3,-78,-40,2713,-7124,6088
-8,28,-44,-592,-8636,4492
76,-95,-43,-3146,-1401,63
91,-68,-75,4703,2028,-1326
127,102,109,57,-281,-145
-64,-126,101,-269,-55,-214
91,46,-73,1860,1289,-2203
-94,-45,-34,2834,896,-2786
-44,78,124,2786,233,-1529
-114,5,114,2184,-576,378
9,39,-25,895,-2500,3411
-70,94,105,3342,-4046,5706
-100,-55,45,3435,-3554,5206
96,-97,-102,1882,219,2505
67,123,-54,1868,158,3391
21,-39,29,2642,409,2652
14,102,-108,2904,832,2828
41,38,15,4542,1993,2009
6,54,36,3806,819,1581
-74,122,41,-47,-295,-58
-51,-21,18,-224,-36,-1341
-20,84,-8,713,300,-1485
-18,51,5,658,57,-1348
-12,25,12,373,-68,-1243
19,4,26,168,-367,-946
37,-28,15,896,-514,-971
68,22,56,-45,-834,-663
85,30,32,-829,-252,-464
89,1,7,-472,228,-519
86,-20,-13,341,509,-199
-62,-22,23,5797,1928,-1004
28,-124,49,8621,3597,-1482
75,46,-52,9531,3364,-3308
-127,-127,48,7529,2987,-4503
52,-5,31,4890,1448,-6040
69,30,98,2128,2311,-6143
-56,68,-22,2343,-227,-5167
-2,-110,-73,3386,-2332,-3112
61,119,-15,-47,-5474,-4484
0,-51,7,2275,-3791,-4998
19,11,-70,1297,-2389,-4375
80,-38,114,3036,-2081,-4471
1,-76,23,3911,480,-3724
15,30,56,4886,1098,-2188
-83,-97,-47,4842,381,-355
46,-29,-83,3806,729,2779
-57,-16,-75,1733,-1252,2426
104,19,12,1659,-4199,4080
54,79,-127,1537,-8277,4804
-20,-46,-97,-2695,-11873,2686
106,55,23,-174,-3186,-927
33,86,36,5146,2057,-1990
-5,97,-80,337,-70,70
-35,-85,-92,-467,-556,-200
73,95,-17,1398,783,-1553
62,-29,-3,3434,284,-2039
-16,-108,-30,3160,-1599,-205
-48,121,7,1740,-1804,1430
-72,118,63,640,-1819,2406
46,41,-80,4125,-4038,5201
90,-2,-54,5119,-625,2742
-100,-8,33,2948,-449,2461
-122,47,-13,2743,722,2349
71,-125,72,4778,1640,1940
-45,116,50,3120,717,1928
-55,83,57,1190,413,1351
-83,32,24,466,312,562
-95,-14,2,920,355,-273
-91,-39,-8,629,319,-839
-65,-76,-27,-53,127,-1251
-25,-117,-28,-161,15,-1605
30,81,-42,245,0,-1817
65,60,-36,271,-280,-1799
101,43,-33,73,-603,-1548
108,29,-39,-467,-721,-1453
109,3,-41,-525,-123,-1293
78,-37,-60,16,220,-850
61,-43,-53,533,175,-142
67,-20,-70,564,462,603
75,9,-100,684,330,1151
29,5,123,6664,2253,-1858
-47,-88,43,7704,1512,-2360
-28,-104,-111,5571,1190,-2903
22,46,-94,4831,1574,-3202
31,-12,90,3798,1783,-3566
4,-116,63,855,1849,-2793
87,118,32,1043,520,-3181
118,-97,-91,1741,-755,-4005
73,-103,96,2442,-804,-3936
-99,124,-18,3669,-1646,-3334
-105,-50,-1,1168,-3415,-1427
122,117,6,918,-3618,-2131
-119,110,-21,976,-1897,-2096
-99,65,124,2197,-1297,-1866
9,3,16,2961,-2256,-1463
124,44,-7,1818,-2111,-1021
-99,-35,-15,3553,-1245,-1909
-41,67,-43,3457,148,-2342
100,-70,102,4861,2164,-2941
-85,-5,-50,3208,3102,-928
-79,-82,-76,1793,869,3093
-123,26,65,1239,-2813,5347
113,124,-66,1621,-4512,5646
-80,-107,-112,1533,-8246,5211
30,64,-110,-2923,-10300,4056
-92,84,-41,-1512,-6236,1397
-123,-78,29,6285,2224,-3158
-116,-4,-91,-1082,1462,-1411
94,125,-123,-895,579,-109
-50,-22,107,1192,845,-742
94,-51,-33,3204,1104,-1251
112,112,-93,2345,-864,-1082
86,47,115,1523,-748,1238
-58,50,-33,1639,-3711,4278
-14,-28,38,3690,-3521,5930
-30,64,-44,4556,-2392,5126
95,-69,-27,2452,-1523,3320
-51,80,-91,3079,788,2869
-107,36,84,2366,358,2649
44,63,-29,-338,-1310,2291
25,-81,-113,1156,397,778
-20,49,17,3528,1685,-619
-63,15,-69,3583,1476,-1398
-88,-35,-106,2637,1120,-1107
-99,-114,-110,1362,475,-742
-83,124,-91,274,-151,-225
-52,114,-62,-124,-515,-276
-18,107,-53,-207,-653,-916
42,86,-38,-212,-349,-1401
88,42,-54,249,98,-1581
-35,-25,123,7401,1378,-2836
23,-126,-89,8463,1713,-4562
84,19,-39,5916,1847,-5394
41,-102,-30,2739,1483,-6105
0,-45,-93,1623,1446,-5121
-86,-40,20,1434,1721,-4966
-52,-55,-127,-3697,1052,-3530
52,100,-30,3996,-1904,-6759
113,-109,-53,2289,-2280,-5671
-23,24,126,1328,-234,-5233
38,33,35,3682,-528,-4117
-88,-71,63,4369,573,-2362
13,-90,16,3871,-122,-1447
81,-99,-47,4213,1319,257
106,-123,17,4624,2074,900
-100,-79,26,2463,-721,2959
96,41,83,3101,-2956,5181
-126,-72,-31,712,-5077,1390
94,77,-38,-1336,-8020,3450
76,21,119,-614,-10383,4021
112,127,-1,839,196,-1546
52,33,-71,3908,1816,-1037
17,44,109,212,-247,-556
111,80,113,-1116,-662,230
7,-40,-68,1769,117,-794
51,-60,-23,2643,-179,-1096
18,-92,-40,1453,-1295,-325
14,101,-47,2188,-1680,1448
-30,-100,58,2187,-3031,2853
96,-53,44,4838,-2880,4257
-58,-61,-45,4092,-4509,5225
56,-81,94,3480,-1274,3547
6,-60,-109,2804,-228,3854
-128,-85,-18,3483,1214,3360
-22,54,-37,3432,-526,2629
14,-1,37,2238,-1471,12
-51,80,8,2280,-248,-1764
-93,-4,3,1722,1134,-1211
109,-38,-9,1192,860,-638
110,-79,-31,1041,399,-722
-99,-111,-65,611,102,-1076
-88,121,-51,-125,-324,-1380
-23,88,-43,-624,-307,-1287
5,73,-54,-777,-168,-1359
43,44,-71,-337,-81,-1518
54,15,-80,151,-231,-1640
49,2,-77,128,-143,-1520
15,-11,-90,-75,-176,-1212
5,-13,-86,-304,-351,-655
18,1,-90,-311,-417,175
-74,75,32,5317,1847,-1072
-24,76,123,6100,2020,-1622
48,76,-27,7193,1828,-2442
72,-86,108,9401,1706,-4006
27,53,12,6337,2315,-5310
-58,50,13,3708,545,-4374
-89,-121,-36,2043,-1896,-3204
-16,-113,92,102,-2291,-2843
-38,118,-116,1530,-1555,-4468
41,-78,104,2483,-2293,-3315
65,41,6,2787,-3345,-2966
-55,16,54,3440,-3548,-986
7,37,-76,2306,-2756,-644
56,-121,-76,1527,-2716,-1215
-122,-48,-19,2750,-2402,-1499
78,-69,14,3557,-1365,-1937
97,-77,-17,3258,580,-1855
-116,108,69,1433,810,-535
-101,95,75,1248,-1224,3474
80,-38,120,-610,-6057,5588
24,6,-30,-291,-8624,5421
-92,98,-12,-1803,-5361,1041
-93,-58,-48,2458,-2051,-425
-33,-29,-104,2924,292,-1422
12,91,109,-206,-1310,602
-88,84,109,525,852,-507
1,50,65,1837,1307,-1222
124,-1,15,2747,810,-2590
-72,112,122,2304,-365,-2199
-95,6,107,1328,-946,328
61,-112,4,2143,-346,2839
6,91,-81,2847,-2729,8134
74,-104,71,4562,-4494,9980
-76,-94,24,1647,-1145,4705
-107,114,-82,3300,-1616,3067
-47,-68,-34,4475,2085,3106
97,84,-95,3157,1284,3592
-9,61,30,389,-1989,1099
-85,-95,50,-424,-1563,-1004
-72,-6,-21,2651,990,-1020
118,-16,-50,2197,1325,-1347
-121,-59,-62,1206,441,-1597
-73,-117,-49,799,-239,-1524
-33,88,-34,297,-298,-1644
24,46,-19,-308,-240,-1621
36,18,-23,-498,-220,-1539
60,-11,-38,-438,-126,-1337
53,-32,-65,-57,114,-1081
27,-24,-74,-191,-56,-641
14,8,-97,-577,-108,59
-96,67,-57,5412,2211,-1646
4,81,56,5308,2934,-1766
12,-92,-78,3654,2455,-1333
53,-60,43,3610,2786,-1410
73,-2,113,6211,3626,-2714
25,94,-70,5623,3624,-4672
21,125,-123,4952,4044,-7011
102,-125,-125,5163,1181,-4721
77,-81,-35,2207,-338,-3595
36,120,100,941,-1854,-4179
107,30,-105,1878,-796,-3707
90,68,-115,2362,-3140,-7131
4,-10,-79,4306,-2364,-5569
7,120,-43,4402,221,-2724
-110,97,-117,5084,957,-1468
11,0,95,4010,1130,-835
51,-122,-119,4249,2186,2152
121,-88,59,2350,-444,2323
-32,84,23,1702,-4517,4453
-118,34,-93,2033,-6067,4560
92,19,108,1799,-10450,5051
91,16,-86,1260,-8681,3129
-4,-106,21,543,360,-278
-96,-106,-40,5034,477,-743
-18,102,-119,-84,274,-516
46,-36,114,-161,1093,-775
-124,49,0,2130,1023,-1632
89,-36,-58,2425,-1326,-727
58,-79,-75,1581,-1481,1596
-4,116,-14,2705,-2783,3716
31,14,112,3477,-4245,5975
21,-33,98,3352,-1916,5120
31,-117,-97,2376,-732,3559
76,108,8,2924,654,2713
109,101,113,1428,-868,1249
47,-58,34,2224,519,-495
-20,96,-33,2011,1127,-1208
-111,-15,-65,1312,713,-1434
-104,-68,-78,560,366,-856
-101,-108,-98,244,-56,-200
-69,-115,-109,74,-399,174
-29,-76,-93,-405,-416,11
-6,-53,-75,-825,-367,-692
15,-104,-105,-178,249,-1645
56,102,-124,535,473,-1865
64,62,123,787,287,-1707
64,64,-113,140,-65,-1243
73,45,-117,-117,145,-858
63,27,124,209,96,-610
59,34,123,134,11,-225
-108,121,-23,6089,1760,-1683
-85,-48,56,8225,2567,-2766
89,-62,-94,10510,3329,-3433
72,26,110,9523,2570,-3968
-49,-25,-91,7196,1786,-5010
115,-47,43,3372,1209,-4911
59,16,127,2510,-526,-4873
94,82,-67,824,-2945,-2964
-89,-5,-2,-6476,-3037,-2700
-65,15,76,2549,-1213,-7302
-96,95,16,2406,-2414,-4286
9,0,-35,2682,-2725,-3859
30,-52,110,3275,-1683,-3946
-32,-115,0,4273,1352,-3321
-124,-100,63,5187,2084,-1900
118,-6,76,4303,1267,519
1,23,107,3351,-4763,4658
-91,75,53,2893,-8729,4977
103,-97,13,731,-11563,4309
-58,39,97,-4777,-6225,814
-13,59,-60,3079,-689,-1339
-24,-4,26,5319,686,-1656
70,-42,-62,412,-1415,-237
93,-78,-25,-1036,-937,-1
43,16,93,2440,-1260,-543
12,-13,78,4964,-2685,820
82,-89,-80,3373,-2873,3314
-61,-71,85,3741,-1937,3053
79,0,114,4609,-57,1551
51,53,27,4160,-2017,2253
108,101,31,2134,-1423,3126
-60,-24,50,1371,358,2137
-98,91,-37,4287,666,943
90,92,-43,4671,562,609
-35,32,-81,4263,435,-998
-66,35,-80,1817,800,-765
-105,-94,-105,1141,888,-1439
-50,119,-100,-303,1610,-585
-56,29,-104,782,273,-1190
-7,35,-93,462,-466,-1042
26,47,-95,-779,-351,-1153
92,18,-123,-969,-424,-1175
94,17,-93,-687,-633,-1317
91,-59,119,1051,83,-1771
86,-72,-67,1250,-653,-1569
124,-33,-56,-325,-539,-518
103,-12,-60,-1074,-555,202
52,-46,-103,-389,-262,297
66,-14,-87,283,-201,974
74,42,-100,273,190,1085
96,-68,-86,4165,3784,521
36,-101,8,5107,3653,-182
22,-117,-78,6569,3330,-1565
8,21,58,6625,2957,-2799
-19,-60,-100,6501,2553,-3489
-125,125,-97,4821,2257,-4175
50,120,51,2519,878,-5259
32,-55,-91,-607,-279,-5761
-95,-12,79,-1389,-534,-5333
-126,-105,19,1681,-1632,-4575
44,-56,8,932,-1023,-4810
-54,-108,50,878,-1212,-5303
85,92,-114,1768,-1402,-3913
-97,123,-52,3242,-444,-3685
13,-115,-36,4151,-473,-3074
75,90,106,4542,501,-2645
127,60,-5,4717,392,-1520
-32,25,-124,4239,-554,1020
-104,-103,-16,2640,-4787,3726
63,113,6,2743,-6084,3687
-48,-32,25,1108,-9245,4844
123,91,-49,-93,-4199,409
-87,-104,-37,1935,1171,-1011
40,-123,-105,1001,-356,-1055
22,98,-123,-113,409,-475
102,111,111,834,-519,54
-80,90,97,2116,-560,9
-54,-27,105,2712,-570,-645
72,-81,-68,1776,-1995,166
-89,-122,68,1005,-3835,2384
116,-110,18,3542,-3255,4436
-104,-117,67,3722,-2443,3167
-32,59,56,2000,-686,1115
-118,111,67,3256,-1051,707
12,-83,-21,110,-2795,2069
54,-8,-96,866,-161,1692
61,-114,-40,3782,1787,166
39,-119,-37,4653,918,-330
16,98,-64,4521,552,-364
-16,83,23,2765,348,-161
-57,6,28,1718,825,-165
2,12,56,977,327,570
-40,8,48,895,254,461
-65,0,53,793,258,-158
-30,-2,37,610,319,-444
-36,-7,38,87,-175,-428
-23,5,30,-832,-201,-378
10,-4,0,-1007,-273,-380
45,13,-23,-1123,-265,-148
6,42,-38,-1148,1,-408
125,33,-108,6424,134,-1491
122,-68,-91,819,1289,-1441
102,110,-67,-2071,561,-153
68,44,-127,-2664,-67,554
76,26,57,-2648,10,521
78,90,15,-2595,-97,915
88,-102,7,-2120,-198,1111
-112,-34,1,-1011,-51,917
-75,-18,-1,600,207,140
-83,-56,-4,1998,72,-1200
-104,-76,25,1457,-398,-1451
-111,-94,65,283,-624,-1012
112,109,104,84,-566,-235
89,85,-123,587,-352,351
112,123,-95,522,90,1007
-102,-94,-114,215,564,973
-65,-92,101,645,886,432
-8,-110,44,1153,1050,-192
-17,-113,46,914,471,-248
-110,-112,75,-76,-33,-310
-85,-100,75,-1057,317,-268
-53,-123,47,-306,403,-421
-57,121,45,529,121,-658
24,-52,74,-905,-26,-439
10,-25,119,-1220,-198,-1017
-16,102,83,1485,1085,-2412
18,54,112,2306,780,-2629
28,103,-90,771,259,-1195
5,-110,-82,-1290,14,219
18,108,-125,-741,253,573
25,106,122,477,441,980
22,109,89,1332,807,762
31,114,85,1353,476,694
48,120,99,1088,408,795
51,117,-128,995,160,770
62,78,125,1515,356,270
65,47,-102,1676,415,-30
48,48,-71,995,355,-31
53,22,-67,892,351,21
43,-4,-53,1011,274,-105
38,-2,-43,774,295,-200
47,-25,-45,909,368,-362
65,-39,-34,1146,303,-428
105,-37,-18,996,282,-361
63,-68,19,1330,514,-651
-120,-125,45,2381,1060,-1013
-65,49,82,3867,1440,-1284
-38,-16,-102,5993,2196,-1463
17,72,-12,6818,2596,-1688
-24,-83,103,8536,1657,-2920
-25,-98,-93,6486,1272,-4055
-32,-99,-107,4425,1407,-4137
16,15,110,2776,1373,-3700
-30,117,52,2879,1324,-3118
-31,-83,-32,445,-646,-1617
-37,106,5,-350,-620,-4507
53,-47,-54,2029,-2773,-4098
9,-60,-47,1433,-2684,-4187
73,-91,-24,1558,-2076,-3942
77,91,-47,887,-879,-4832
-19,5,90,1887,-91,-3070
-49,75,68,1733,-1078,-3184
109,16,-15,2960,-3161,-3008
-41,-126,-4,3471,-850,-3224
80,-8,37,3620,538,-2062
8,-84,-73,4118,2650,-461
-64,73,-21,4815,3655,1281
10,11,90,4547,3956,3109
113,61,99,1565,-60,4014
-21,-94,77,-78,-4054,4796
-88,111,91,-612,-7241,6516
-39,58,10,-1804,-11933,7346
82,59,62,1372,-1664,-122
-50,-101,-85,5508,2433,-2781
-65,24,98,-386,-1228,-443
66,-113,-75,-1338,-69,-678
85,-38,-18,1232,-1915,-1299
62,-121,-18,2706,-3483,981
-45,-56,-113,2062,-5292,3262
83,110,32,767,-3693,3089
28,-90,48,3550,-1695,1891
111,22,-122,4242,-1373,2121
92,59,25,2189,-830,1430
50,-73,-45,2260,150,638
12,79,-78,3079,181,309
-29,-37,40,3687,1751,-61
-67,-34,-28,3286,1798,353
-63,-36,-38,2495,1135,1064
-78,-52,-48,1745,295,1364
-77,-48,-22,989,-257,1005
-120,-60,-35,899,-265,189
-124,-85,-18,479,-351,-857
-75,-101,-14,41,-345,-965
-51,125,-12,-503,-610,-1315
-6,111,28,-774,-706,-1472
67,74,3,-326,190,-1566
88,55,-44,-72,664,-1940
87,43,-90,-170,543,-2048
106,25,97,-435,467,-1965
96,8,74,-437,26,-1469
71,-117,-127,3931,2117,-1967
-63,-71,-63,3499,1672,-1468
-3,-126,-15,4199,1125,-1448
-62,76,-73,5185,1262,-1908
41,76,-15,6940,2953,-3434
106,-10,45,7883,3671,-4587
26,-55,18,7367,3536,-5468
8,-108,123,2945,2106,-5520
-103,-39,-49,-659,977,-5511
-38,-33,26,-1773,-1715,-5175
56,90,103,1715,-2452,-5241
-108,-1,109,1799,-1693,-4957
-35,-30,-81,2917,-1509,-4504
20,-40,-64,3279,-1386,-4497
-42,42,61,3553,-266,-4236
-4,-112,96,5010,1190,-1815
-38,-43,-31,5278,1565,800
18,-97,96,5457,3447,-838
45,73,-101,4144,4084,-567
-122,-73,100,2622,-78,3243
-102,29,-126,2033,-5345,6983
117,102,5,1433,-7288,6860
-42,9,-14,150,-11269,6417
-122,-1,-77,-4844,-4303,1363
-88,47,27,7021,2827,-2197
50,-26,-102,150,-373,-1689
88,-105,-112,-2047,-393,-482
-71,-75,-121,808,147,-442
9,-87,-97,2751,1162,-1405
59,127,-125,3308,265,-2008
39,39,-109,1988,-1290,-735
-24,-28,-96,2690,-1891,1601
105,109,-109,2099,-4024,4145
9,7,-68,2826,-2130,3431
-51,-30,5,4475,-1891,3420
-26,71,25,2911,-1205,2680
6,-106,-123,3711,1207,1587
35,118,67,3034,1684,1961
37,127,44,1998,988,2527
21,102,14,2273,255,2046
-50,89,12,1895,-300,640
-110,79,24,893,69,-37
86,38,6,-135,549,-336
83,-22,-38,216,533,-562
96,-53,-60,860,208,-482
-121,-26,-61,408,-43,-748
-60,-40,-63,-118,24,-1469
-27,-94,-60,-304,-124,-2017
20,123,-58,-604,-23,-2246
50,53,-94,-329,284,-2160
-24,107,40,5354,962,-1871
5,-41,-38,3901,1081,-1746
57,-41,-21,4254,2518,-1479
48,64,-32,5030,2712,-1909
7,58,-76,4161,2312,-2652
-69,-49,-99,3696,1216,-3014
92,-94,108,1749,479,-3119
74,-50,20,1444,390,-3869
42,15,-102,1453,325,-5630
64,6,-55,1207,-1548,-7327
-64,-90,79,558,-4707,-4623
-112,-25,87,1483,-1188,-4511
-94,-124,67,5087,362,-4087
67,-75,25,7209,997,-4668
-106,-122,-118,4929,185,-3190
-27,-64,94,4846,716,-2207
-50,-7,-5,3963,3438,-236
-116,-74,36,3223,3671,1172
107,-40,-65,2215,785,3405
67,41,-5,2904,-2485,5426
-35,-108,-51,1503,-4680,4730
-90,-117,74,1272,-6895,4904
-114,-62,-23,1652,-9789,6171
25,33,82,-44,-9507,5472
-49,-56,-112,-2924,-8224,3716
107,100,9,4285,-2552,-3188
74,99,-51,2286,3260,-4116
91,-88,71,-2304,2593,427
44,-72,4,-1953,724,-134
54,29,117,929,604,-2306
4,-115,-28,4265,234,-2640
-44,118,-42,5316,-750,-415
25,-37,23,2729,-675,2700
-32,-20,33,2942,-1120,4822
82,30,-73,5507,659,5821
-109,9,25,5846,1908,6135
-59,-127,-94,4451,-991,3877
122,-8,39,1249,-3182,32
101,-100,-64,-233,624,-644
29,0,78,1171,3305,-180
-121,-74,104,4162,1102,115
45,-57,-115,3870,-450,344
125,-23,-84,1022,-85,-369
-97,-33,-36,-193,-707,-849
-21,-122,-14,-309,-1177,-1986
58,101,2,-697,-936,-2431
-118,32,-2,-727,-692,-2725
-63,-21,-14,24,-820,-2187
67,9,17,-474,-877,-1349
69,-16,-98,-652,34,-1591
46,10,91,4093,1996,-2772
-23,-98,100,3939,2362,-3140
-89,50,78,3310,2014,-3417
72,-83,71,2440,775,-2812
9,-39,-28,1756,-453,-2362
-4,3,111,2125,-1184,-2296
-27,-43,8,309,-1467,-2415
-57,19,-14,199,-1838,-2940
-113,77,-62,220,-1532,-3636
25,11,-63,1671,-1530,-4461
-49,18,16,2236,-634,-5385
119,-103,98,4469,1378,-5336
-2,-92,32,2716,599,-3611
-95,-28,84,3649,-942,-2235
127,51,-40,3928,586,-1492
79,83,108,3309,2293,261
69,-40,51,3254,2009,361
-16,-84,53,2117,459,2310
-117,-116,100,2603,-1881,4031
-51,-65,-8,1601,-3810,4335
-10,-36,93,1016,-4673,3981
-109,66,12,2166,-8942,6595
77,32,100,610,-3522,2036
96,110,-71,1891,339,251
88,-25,-100,1078,-736,-642
111,-128,-118,-876,802,-706
-118,-36,113,-57,264,-500
-29,-113,35,886,1136,-461
106,114,-29,1683,880,-680
114,44,-107,1570,-1151,-869
121,-74,106,2161,-2037,695
110,-76,109,1905,-1800,3047
-116,14,-18,2614,-3284,5545
58,21,-53,3607,-6037,7971
29,-19,92,2884,-1812,6613
-99,117,36,3654,-150,3868
24,-93,-65,4120,-2471,550
3,14,-78,3981,-1158,-1611
-108,-112,10,3918,2518,-1800
-121,69,-86,2390,3403,-2325
-105,-55,-123,2418,2028,-1806
-122,78,-125,2648,558,-786
106,73,-79,1072,-288,-2
-110,-110,-41,-1514,-416,518
-74,-89,-71,-1944,-558,386
-61,-116,-69,-379,-857,-584
-26,110,-42,576,-511,-1691
13,94,-43,287,-91,-1927
21,61,-15,-222,-477,-1767
18,25,-35,-155,-365,-1418
-93,67,11,5208,2199,-981
-55,56,76,6293,2768,-1367
-27,54,-93,7139,2707,-2058
-83,-117,49,8853,2676,-3799
-110,32,45,6389,1896,-4894
15,113,71,3278,368,-5326
17,-7,8,2000,-589,-5071
58,65,30,521,1550,-6325
-35,85,90,610,-975,-4364
116,91,-101,147,-2157,-4542
-81,84,43,528,-1031,-4569
75,104,-24,1499,-1636,-4639
7,50,100,1292,-262,-4891
-6,91,109,3424,-74,-2036
49,-99,27,5475,1560,-1654
-27,60,-92,5538,1903,-1313
-11,17,42,4843,371,1700
85,-57,-104,3681,-1830,3034
-99,-106,-36,2058,-1398,2043
80,48,40,3182,-4790,5568
-96,40,-119,4360,-8918,6907
-50,42,53,-261,-6903,2513
119,97,-79,-455,1763,-1305
-124,108,127,2327,-533,-436
44,-105,101,-45,513,145
112,101,84,870,585,-209
38,96,46,1467,1150,-1253
-15,29,-12,1264,1124,-2358
57,-125,116,977,-663,-1838
-38,17,80,1870,-1737,988
32,43,-85,1890,-2300,3892
-51,119,-13,3553,-2315,6277
98,-123,-100,3188,-1792,5029
-124,-74,-17,4123,-728,3975
-26,-66,-36,4231,4599,4042
-25,95,-63,3634,4422,2615
47,-44,-23,1139,519,3629
10,122,-53,-5,-632,3571
31,47,123,1537,413,1737
-16,26,-126,2420,563,555
-91,-27,-97,2120,-10,-1055
-42,-115,-41,1859,-516,-1666
-27,57,32,1166,-794,-1552
-14,82,93,-723,-1304,-1037
47,57,83,-1373,-911,-1201
102,-15,53,-533,-605,-1394
89,-26,38,-238,-188,-1327
77,-14,10,-361,116,-1106
78,-25,-48,-82,269,-1065
83,-20,-62,68,-39,-849
127,52,71,5489,1731,-1565
-81,99,-29,5987,2067,-2139
-37,16,33,6119,2679,-3004
-75,63,-15,5387,2719,-5301
-11,-99,-87,4271,-169,-6728
99,51,111,-1000,-884,-5005
68,-10,-7,-219,-391,-5723
31,78,-42,916,-1063,-5994
-70,77,-80,1637,-839,-6299
35,-8,104,2124,-712,-5051
-51,-48,6,2704,-2576,-4315
46,-123,-42,3201,-724,-4403
69,30,117,4066,1017,-3071
34,-110,-73,4597,1991,-1321
106,104,84,4478,998,1788
78,-45,113,3130,-1580,3748
-72,-21,-25,1741,-4608,3510
125,17,47,1517,-5191,3870
47,69,61,1646,-10081,4338
-66,127,-75,645,-7281,2815
10,31,37,2737,-5211,-1172
6,7,11,166,848,-2506
-114,105,-21,210,5,-804
16,11,-49,-181,273,-498
23,8,121,603,606,-712
53,-54,0,1874,1528,-891
51,81,-85,3423,777,-1097
16,35,-92,2728,230,-145
-91,58,-36,728,-698,2443
-54,95,-46,1717,-556,4599
70,38,85,3644,-2979,5369
123,22,72,2749,-2185,3900
33,-33,79,1704,-2740,2906
57,-2,-27,3893,1803,486
-48,105,-110,4350,1476,-406
18,44,37,1699,1220,47
71,-65,15,1530,-285,-9
17,115,-42,1286,467,-91
65,43,-79,2012,1039,84
20,20,-96,2177,1266,-48
-37,-12,-90,2295,1173,106
-69,-57,-67,2479,959,369
-75,-79,-49,2811,733,427
-63,-56,13,2010,242,481
-53,-45,54,981,-359,294
-33,-30,98,17,-521,253
15,-80,108,672,-307,-14
8,-73,-127,907,31,-295
-14,-93,103,843,607,-1030
13,-97,78,463,627,-965
-89,-120,-21,8111,2032,-2333
-38,-78,104,9309,2518,-2581
3,-52,27,6855,3205,-3241
-39,-104,-71,6549,2316,-4284
-31,-30,-128,3769,2359,-5774
17,3,10,3557,303,-6652
-14,91,-88,1929,-937,-4916
-111,-116,75,-3710,-1243,-4788
-14,-60,-68,1493,-756,-5863
-77,78,-11,2031,-1882,-5748
22,-37,98,2816,-2636,-5201
96,-80,22,3879,-488,-3458
-100,-39,-56,5327,-239,-1697
110,64,73,4956,1269,-2503
25,1,-94,5143,2074,-1794
106,58,-9,3854,1202,2609
-30,-13,82,4017,-2107,6804
-21,-18,-114,3191,-1895,2479
12,19,97,531,-4951,5380
-17,-31,-127,829,-9962,6633
-36,-114,-79,-2366,-8246,3965
-101,-47,-35,-187,1236,-506
-49,118,-82,2844,37,-2050
-54,-32,-117,-1406,782,-906
-17,106,125,-1176,487,-576
94,-13,-27,1720,714,-1042
-90,-51,-58,2275,499,-2073
-88,114,-94,1662,-820,-1160
81,53,-66,1260,-792,1455
35,27,-106,2921,-1029,3169
-7,60,110,3470,-3960,5526
-1,10,53,3680,-1491,5257
75,-94,91,2032,-1857,3068
91,-84,-75,2664,-1149,2405
-110,-109,50,2356,1176,2308
101,90,47,2283,17,1979
29,115,59,2012,-927,1847
-34,126,73,836,-450,373
-60,62,13,242,796,-1207
-77,-36,-22,747,913,-1922
-88,-93,-39,847,448,-1941
-43,114,-55,644,277,-1824
18,48,-68,1094,404,-2088
73,10,-63,832,175,-1991
100,3,-48,51,8,-1722
101,-22,-50,-324,-106,-1510
95,-41,-62,-441,-88,-935
64,-43,-66,-126,-74,-443
54,-38,-82,298,318,77
102,-8,-106,412,285,694
121,1,-4,8189,1839,-2453
-37,80,-119,8599,1892,-3511
-17,32,15,7992,1157,-4594
15,-116,65,4713,1399,-5083
5,73,46,3300,1085,-5317
-45,-124,-21,2519,916,-5327
-113,-121,107,3345,428,-5268
47,72,6,3269,-731,-3996
5,5,-65,-1884,-1380,-2316
-65,109,-66,2489,-1407,-2597
91,-39,-70,694,-2611,-1943
11,-35,18,1639,-3053,-2573
76,-91,116,2747,-3391,-2714
24,16,84,3013,-1765,-2005
-80,-67,-71,4263,1056,-860
125,-46,69,4878,1072,481
-45,-68,-12,2582,-359,1345
-99,-49,-100,795,-3741,4166
84,10,28,337,-4710,4070
-118,106,20,-253,-7602,4624
23,-41,66,-2230,-11530,3905
57,-54,-40,-1207,-3886,813
111,47,-46,4516,1012,-2569
-69,-43,-119,-940,167,-1284
-97,-122,-114,-1319,-517,517
20,33,-121,1360,761,-547
62,101,-97,1565,1159,-1740
-80,101,-102,1185,454,-2060
-103,-91,97,1788,-1341,-1748
-46,-38,-91,332,-3393,325
15,49,-92,2516,-4120,6530
-29,60,-116,3982,-6392,7092
-26,-80,-32,3040,-3530,3735
63,31,19,1563,-1552,3862
65,-77,82,2622,-3205,1503
89,91,24,4340,-1352,-1832
-8,84,-117,3252,1669,-1424
-116,119,72,41,1747,-236
96,38,45,257,211,233
113,-26,-24,747,71,-606
-63,-56,-80,758,758,-1321
-19,-78,-94,529,394,-1301
-42,-86,-92,-783,-123,-1525
-37,-86,-119,-1325,129,-1491
10,89,120,137,-237,-1353
16,99,-102,372,-708,-738
17,120,-45,-128,-828,-298
5,122,-46,-356,-169,-311
17,-107,-75,-1228,305,-253
21,-118,-122,-405,116,77
-14,70,4,5757,1894,-2203
-60,12,-99,9280,1141,-3217
14,-61,-72,11226,1027,-6463
-34,-51,-73,7232,759,-6982
-34,2,71,3797,1670,-6206
-115,-6,-66,3527,414,-5107
-6,-37,78,4019,-2992,-3287
-8,-15,-8,-2854,-2378,-3121
-84,119,67,-2876,-1191,-5516
87,73,111,-5855,3257,-7905
119,26,-28,7486,-2990,-3579
12,-75,51,2493,-2949,-2657
-54,14,-106,3899,-2410,-2426
81,-12,-77,3991,-13,-2507
-58,127,82,4605,1535,-1701
31,-12,60,5459,2375,285
25,123,121,4473,1261,1479
93,75,100,1371,-1649,4511
-124,45,15,1471,-3301,5952
96,-12,-96,-207,-5066,5138
-8,18,101,-308,-8338,5653
32,-86,98,995,-8275,1174
-63,-21,-68,2681,-1382,-2139
80,55,-121,370,2195,-1105
-58,-105,106,134,381,-340
-57,-111,94,418,351,53
17,116,-30,652,807,-1382
-67,88,-106,447,693,-2927
-3,-59,102,2221,-500,-2843
-93,-112,123,2029,-1214,-681
-14,53,-29,1886,-2245,2061
-35,-104,118,2166,-798,5398
-9,103,39,4793,-2336,6251
-75,72,-123,5195,-2896,4968
48,-44,80,2447,-551,5039
54,32,-69,2152,-1344,3289
-113,-82,64,1305,-1034,3155
88,36,-98,835,-243,4611
38,70,94,1176,-427,1188
-98,52,73,2514,75,-4216
-51,-124,19,2982,1157,-4208
-43,-116,-9,-88,1499,-2051
-94,53,-4,-603,-287,-858
-32,-20,-54,205,-80,-653
0,8,-70,185,335,-625
4,17,-83,119,106,-812
23,16,-92,-130,-193,-939
55,12,-86,-333,-191,-714
60,4,-92,-328,-38,-509
37,-16,-106,250,122,-368
-117,-81,26,6102,1299,-1030
-81,11,-56,5897,1937,-1793
-52,84,22,7093,2104,-3229
-31,92,106,6377,2030,-4015
-78,-68,-115,5635,943,-4009
-103,-58,55,2098,-166,-4295
-89,8,-52,153,-928,-4102
-45,-102,34,2009,-3458,-3713
-7,34,-51,-3206,-3339,-2720
-66,-68,-4,-2947,-983,-4042
-46,108,101,600,-55,-5551
32,-3,-113,1476,303,-5765
31,-50,121,2694,388,-5697
-86,-78,13,1870,140,-3315
52,93,-2,3546,-1559,-2757
16,124,-104,3713,510,-2564
-70,-31,74,5207,1955,-2173
-61,-72,-76,3149,1782,86
61,-122,-48,2440,-967,2319
-19,-109,101,2283,-4341,3882
-87,-86,-46,1611,-5704,4234
10,121,-100,592,-11156,2654
-28,-70,61,-3257,-3652,31
-119,-121,33,2240,-279,-406
-43,-117,-72,2895,-106,-722
-118,7,-111,-447,-430,-89
-54,-6,-111,-703,108,-232
23,-17,29,808,438,-998
116,-39,-67,2389,1634,-2370
84,111,100,3205,617,-2984
69,61,82,3743,-106,-186
16,75,-94,2849,-2215,2832
43,-126,-24,3611,-3544,4966
119,23,120,5592,-5499,7825
121,3,46,2635,-3931,3509
101,116,-36,3352,293,2095
-35,-75,-93,4996,32,1951
-73,21,-73,2745,-386,3357
10,10,95,1581,57,1673
-125,-70,108,1903,-591,-812
118,106,88,1442,173,-1879
125,-2,44,658,876,-1940
62,-63,45,572,133,-1314
53,-77,57,-318,-336,-816
-118,-75,23,-1283,262,-1019
-57,-104,-21,-1440,212,-1189
-33,80,-72,-603,166,-1696
-42,85,-87,-1610,-291,-1129
-22,-17,114,287,845,-2330
20,53,-73,702,800,-1453
15,-41,-41,8564,1998,-2274
78,-76,-85,10507,4284,-5143
54,64,4,4868,3263,-3611
83,42,-61,3595,2973,-3772
-37,-98,118,3897,2343,-4169
-121,94,-87,700,2832,-4408
-111,-125,22,-1737,-520,-5290
121,121,90,1312,-1753,-6369
-29,-39,40,1456,-1520,-5323
72,90,30,2031,-1515,-5541
122,116,6,2727,-862,-4690
-78,30,-30,3164,-403,-3866
6,-82,109,3646,787,-3046
-59,-118,122,3007,2979,-2416
-61,65,51,3608,988,1238
92,-109,24,4421,-836,1951
-40,-117,90,1882,-2654,1496
123,-116,-31,1888,-5462,2988
14,95,-117,1488,-9133,3145
70,102,86,-1299,-10059,571
21,-78,56,1602,-4096,-33
-83,87,-32,4453,-230,-1359
127,106,-90,-289,825,-247
12,-112,-100,-819,-606,940
35,36,-119,1907,661,-386
23,91,-55,1141,728,-1348
58,74,-18,553,155,-2254
82,-2,-40,967,-1158,-1669
19,-98,23,1474,-1962,139
54,-126,-101,3080,-1161,1547
121,119,-12,4224,-2352,2265
6,-16,-18,4314,-1872,4336
-62,-94,-3,2134,-4825,5218
-103,-93,-101,1466,-592,3224
74,89,46,4332,1283,1274
-51,5,-59,6431,446,-106
107,13,-23,3434,109,615
42,-13,-2,844,488,1575
-82,-50,18,455,80,1937
-53,-58,-19,2047,267,1563
-114,-33,5,2782,-119,736
59,48,103,583,-627,-318
110,-1,92,-412,128,-1181
-41,-96,15,-350,1041,-1965
-19,102,-37,-248,535,-2686
18,69,-75,-488,102,-2738
57,44,-126,-1061,-337,-2539
117,33,108,-1214,-885,-2138
-118,52,103,-1492,-1260,-1615
83,67,103,-1654,-1322,-1545
-51,-2,-19,6332,2978,-1645
0,101,101,6998,3119,-2250
-39,25,-17,6743,3058,-3471
-43,89,104,4090,3136,-3722
126,-26,59,4198,3300,-4195
21,71,-75,4158,2577,-4776
-87,-85,45,3091,1201,-4229
20,-97,-21,1785,-853,-3186
32,1,78,-1215,77,-1572
104,116,112,748,-2459,-4085
-105,-112,-71,334,-921,-3440
83,-114,-80,3071,326,-3458
-60,-76,84,3930,-41,-4034
96,72,42,3545,-1888,-2923
74,-82,12,2895,-1578,-2491
37,-36,-38,3723,-1423,322
-3,100,10,3268,-661,-1378
63,86,-78,2826,1287,-1306
36,6,21,3483,1307,-168
92,-22,-5,2833,-361,1267
2,-44,52,2261,-2111,1331
35,-7,-66,1364,-4606,2724
117,-53,29,1368,-6135,3479
39,80,-68,2125,-10470,3903
-83,55,-73,-2410,-203,1494
-105,-120,-100,6218,1452,-1523
60,41,78,-238,-485,-1255
-118,-11,88,-533,-648,-19
-43,-68,85,1119,255,-272
51,-15,-67,2472,677,-777
-109,-23,-33,2056,-516,-2079
-59,98,108,1535,-777,-2734
-119,25,-122,1455,-1248,-971
100,-91,70,3922,-938,1734
11,83,104,4554,-3689,6724
100,-113,-95,2865,-2250,5230
29,99,85,3382,-2727,3750
114,-10,114,883,-62,2535
-108,64,-19,1798,2482,2530
64,-102,54,5347,653,2425
108,71,120,3324,-1208,3368
47,-34,115,-1326,-767,2028
-113,80,59,-1217,-66,-612
-114,-99,25,1805,787,-2076
-128,118,-2,2207,685,-1904
-112,-115,-8,782,250,-1070
-95,-126,-16,-507,-259,-749
-109,86,-19,-526,-426,-1293
-19,39,-30,145,197,-1503
26,11,-35,530,-144,-1526
-124,-117,-26,5210,2058,-1126
126,115,45,5820,1569,-1437
-91,106,-70,6275,1809,-1908
-58,-64,37,5754,1937,-2357
-34,-8,101,5645,2088,-2678
-27,86,-78,5942,1928,-2886
-26,-8,-87,4978,2237,-2989
-111,-122,-117,3806,1539,-2877
61,42,60,2238,156,-2017
61,-110,-88,-563,34,-2892
-116,-65,-53,1617,-1886,-3908
-24,-14,-28,1492,-2118,-2464
75,56,-103,-1020,-1075,-3529
-48,-68,-77,968,-2100,-3731
-24,-79,-80,2125,-2221,-3863
-83,-28,-110,3217,-2976,-3583
84,50,-89,2872,-2649,-3919
-40,-12,-72,4073,-1227,-3132
-104,76,82,4522,160,-1684
-128,-32,17,3958,488,-963
98,104,-111,3040,719,652
123,-123,-111,2071,-745,2673
19,-31,51,956,-3176,3406
-18,-35,-2,2048,-7325,4743
3,-80,79,2189,-10092,5369
15,-52,37,-790,-3963,1747
-15,-79,-63,2089,-1524,827
123,-69,-102,1904,-173,-113
4,-38,114,1171,-829,-220
61,-39,101,-488,1299,-239
1,112,69,323,984,-607
19,108,-98,124,985,-1176
84,31,-77,202,821,-1891
103,-82,-116,1600,-256,-1962
110,123,-128,1485,-604,-401
60,49,-87,1697,-1575,2242
55,74,-14,2982,-2393,4913
42,61,9,4248,-2522,5698
-49,84,37,1719,-786,3712
-12,120,-119,1394,-2230,4178
-36,-50,-122,1764,-601,2746
-71,-119,-96,2420,-367,1961
-93,-75,108,1137,-495,1995
-83,68,121,1178,-170,311
-25,-56,38,3451,884,-534
-37,-88,-7,3226,766,-770
-79,-81,21,1158,304,-528
-88,-89,39,-529,-53,-386
-21,95,9,-407,152,-591
4,77,-26,-48,298,-1197
-29,-74,115,6546,674,-1960
-48,24,-116,3885,464,-1513
-94,-32,-24,-3400,494,271
-87,-127,76,-4742,301,609
-48,-113,-32,-4254,-149,191
-12,-127,-33,-1427,-687,-482
-28,-118,35,1476,-386,-372
119,-89,87,1474,-100,-1061
-109,-97,91,756,95,-947
-62,124,120,1005,-184,-227
-32,109,-121,1151,-66,473
-37,125,-68,1151,-206,738
-6,-104,-86,6779,248,-491
21,-17,-123,5679,1756,-1593
33,106,-87,502,2030,-983
-4,77,-72,-3270,505,808
-41,-121,53,-6703,-394,1943
-50,-44,-84,-7149,-1060,1235
-89,-86,-92,-2230,-736,-31
-51,124,18,2893,8,-809
-82,-107,15,3554,514,-1140
123,-86,33,1839,-567,-987
-98,-14,123,-1837,-1634,389
-108,50,-122,-3594,-1579,616
-83,-1,-126,-1394,-761,-304
-19,-87,104,1814,1017,-1424
-48,-80,69,2456,1587,-2430
-33,-84,52,1511,1164,-2311
1,-97,50,208,635,-1250
-32,-110,54,-485,146,-205
-12,-100,33,-640,315,487
3,-71,15,-335,436,871
-33,-60,31,374,436,636
7,-78,30,1389,657,-41
46,-121,23,2261,1069,-679
32,93,57,2411,681,-614
65,34,120,2644,912,26
124,22,-103,2871,1679,231
-86,-29,-70,3830,1946,-418
-62,100,12,5729,1993,-1878
-20,106,-68,5830,1856,-2792
-62,-115,33,6155,3464,-3752
127,52,-119,6245,3324,-3558
-7,19,-114,4818,3265,-4130
-41,38,102,4188,2004,-4508
117,-55,-50,2951,630,-5580
-114,54,-66,-2506,-2927,-6788
-25,-47,-89,1543,-2545,-5568
-19,-58,76,-589,-1602,-4416
92,59,98,886,-366,-4642
42,33,71,2280,1225,-5896
-50,62,111,1242,2418,-7376
-59,-128,77,4305,735,-1703
36,56,127,4071,3207,-278
116,7,-59,4249,2658,1601
-43,60,39,3380,1233,3720
-100,-64,-73,1941,-2192,4345
-91,50,91,902,-5073,4434
-10,64,-24,565,-7399,4479
-124,-17,37,1644,-10180,3512
-101,66,68,-533,-4852,724
-87,127,-57,3321,-4086,-562
-68,-60,-72,1115,763,-531
77,-62,-114,129,-144,-382
78,-97,118,-272,1011,-533
124,125,-56,653,3127,-2085
-76,-40,59,2786,348,-3502
-81,53,58,3902,-2038,-1207
-124,-45,109,3867,-2981,3072
43,75,-92,3751,-5330,8506
92,52,-26,5741,-1667,8386
86,-21,-26,5550,553,1711
-113,-45,-49,3673,2895,2299
51,108,-14,1174,1153,1884
-78,119,-44,2104,247,78
-81,1,-98,1913,859,-558
-90,-43,-114,1229,981,-463
-113,-97,-124,1192,319,-213
-123,-117,-109,1086,-427,-654
-81,120,-76,846,-611,-1080
-21,91,-10,1097,-1101,-1233
8,101,16,-549,-1025,-1353
40,78,1,-1822,-533,-1312
40,28,-46,-1237,-192,-1356
80,13,-70,-774,-461,-1249
1,41,-67,-1018,-636,-812
-52,12,-103,-591,-252,-633
-19,13,126,153,-169,481
0,77,-127,193,-503,1450
-9,-66,-100,-621,-876,1969
18,35,-80,-1729,-681,1933
23,45,-112,-736,111,680
6,-31,-116,1692,569,-786
12,-29,117,1899,963,-1041
69,-47,90,1447,846,-752
10,-74,82,1008,480,-505
1,-112,71,761,287,-818
79,-116,65,79,105,-429
101,-111,61,-135,-219,-234
92,-104,60,-143,-261,-498
52,-55,50,4153,2316,-1566
-76,87,-103,5865,1950,-2289
-64,79,-21,5431,2656,-3367
-27,-32,-4,5286,3217,-4096
49,92,92,5906,3646,-4828
-13,103,-122,6916,3812,-6329
51,16,106,3358,3220,-5585
-120,-12,91,809,458,-4118
-49,-96,82,1578,120,-5361
-91,79,-111,4287,-1035,-5579
127,-75,37,3732,-2396,-3706
106,63,64,4183,-2096,-3786
5,-89,5,1710,-2691,-2945
87,-128,-113,784,-1982,-2170
-106,-65,-50,3389,-2402,-1995
63,-70,-44,2316,-406,-1773
-72,-40,107,3361,685,-982
-39,125,-41,2850,1751,61
105,66,103,2568,865,1576
-16,-127,-88,819,-639,2999
-120,-77,19,131,-2601,4503
-62,-40,-16,236,-6478,7895
-59,-118,-26,-779,-12468,7317
96,-112,26,-1544,-6803,2214
-55,-84,-14,3326,48,-2139
-127,-50,-108,1984,802,-1358
30,-16,115,-940,-165,299
76,-83,119,-395,69,-248
109,-105,-124,-61,1326,-2311
-43,-16,71,1854,1169,-4459
111,103,-123,3608,-1334,-2972
15,-126,-72,3750,-2145,2449
-76,-58,120,3015,-3285,6038
44,-69,-51,2013,-2765,5097
12,123,0,2053,-1763,3127
97,15,-23,3790,59,1838
87,-112,92,4715,533,1887
100,35,15,3540,1422,1876
-49,-73,50,4355,3460,2095
-62,-15,120,3914,1495,3295
16,85,63,385,-1949,3159
-92,107,75,-2928,-2365,1102
-114,-12,47,-1084,-188,-618
-89,125,32,1335,1029,-1657
-96,-117,20,925,477,-2100
-49,-101,1,-408,-49,-1742
90,-112,-43,-1427,191,-1976
108,47,-107,-557,651,-2538
82,-27,118,965,732,-2774
117,-46,110,1108,375,-2380
-49,69,35,6420,2265,-1159
-75,56,-101,7172,1962,-1544
-45,-67,77,6601,2342,-1504
-27,87,-59,6403,2372,-1793
-68,9,-87,6236,3875,-2626
73,85,30,4859,3515,-3028
40,-66,-80,4952,937,-3638
-105,-76,-115,1702,-1860,-3579
10,-95,118,706,-1970,-4622
-34,123,3,3422,-1687,-3707
-20,-115,-1,2844,-3168,-3030
19,80,-75,1622,-938,-4145
66,-87,112,4518,-1626,-3491
14,104,-125,3646,-2317,-2331
-84,82,-22,4018,-1938,-1120
-81,69,27,2881,-1403,-1284
41,-88,-53,3892,-189,218
-42,66,41,4225,313,1249
-17,73,-112,2235,708,471
56,92,-128,1804,-1236,2086
-19,-83,-56,642,-2452,2031
-30,-38,-74,550,-6526,3528
75,-38,10,379,-10216,6054
-30,-73,10,-2231,-9683,3631
-112,-128,69,1338,-480,-2745
-11,-30,-11,3521,1608,-2104
24,-122,-103,239,-14,-469
8,-73,-121,-1201,-433,65
38,106,-44,127,-565,-1404
35,22,93,1352,-777,-2069
-20,-17,-115,2366,-1868,-827
-31,-58,-103,2749,-1795,237
12,-42,-88,3028,-1450,975
26,17,-61,2815,-1649,1604
-127,-103,-41,2209,-1623,2180
-12,-119,-30,2781,-1152,1922
15,-114,-59,2323,-1016,2227
44,60,-116,2382,45,2435
92,-48,-31,4078,1341,2104
-104,-45,-81,5073,1036,2540
125,24,-61,4281,336,2812
20,72,31,1467,-1193,1783
-46,65,86,-290,-1421,561
-120,-60,93,324,-502,-716
-105,122,55,1222,771,-1400
-87,114,15,678,689,-1390
-57,-94,-6,-988,-22,-1088
-21,119,-57,-1382,-262,-1780
38,45,-113,-888,-107,-2093
35,46,-118,-891,-344,-1831
-82,27,18,6949,2742,-1019
-79,33,-109,8124,2864,-1895
-87,-29,78,7584,2735,-2870
-9,39,-123,4297,3282,-2648
-34,79,99,2015,3192,-2973
24,-111,24,2891,644,-5130
103,-73,-24,2399,-1271,-4760
47,-84,119,746,-2683,-5070
48,-75,65,1179,-3449,-4829
123,-77,-121,3115,-3693,-5512
-67,14,-89,2933,-2207,-4779
-48,63,-47,2308,-881,-5634
-5,118,-26,2779,-68,-5338
-72,-89,68,3614,1919,-3120
122,99,-119,3655,3447,-580
57,-6,-76,3195,2627,869
-49,-76,116,1920,-20,1991
-92,123,-42,1202,-3194,2725
79,57,-69,247,-7619,6300
-48,58,-65,1083,-13318,9019
-14,67,-89,-4694,-5345,-1839
-4,110,-17,3972,2928,-124
-54,-41,-121,3633,-1301,-1215
11,-55,54,-764,-1757,178
42,75,126,-265,-2511,-435
51,-100,59,2638,-2374,-693
-23,116,127,4429,-3267,980
69,-15,-11,3638,-2921,2998
-35,-100,-40,2953,-396,2794
113,-67,-50,4523,5,2026
-32,125,-101,5212,1768,2010
60,17,75,7343,4951,2298
-14,35,52,6869,3753,3527
-84,119,-27,1364,1462,4734
-118,-98,-60,-2027,877,3895
-5,115,122,-657,86,1831
-86,-53,-82,3390,-530,-1505
-86,-88,-53,2822,-174,-1959
-84,-81,-51,-181,33,-1113
-77,-85,-15,-1750,-1280,-332
4,-43,7,-3375,-2128,-1333
79,-81,-8,-2992,-1207,-2769
-90,19,-47,-754,239,-3576
-57,-39,-61,985,762,-3124
104,-26,-49,673,-77,-2148
21,-3,-75,-716,-352,-995
2,-12,125,-963,-286,-466
9,-21,115,-142,-720,500
12,17,126,365,-627,1452
8,81,-107,152,-484,1795
-41,74,-4,5503,2572,-520
21,99,19,9622,4775,-1851
-104,-98,3,6867,2114,-1127
-45,120,-43,4951,2071,-2617
-28,34,-97,4466,2447,-4479
5,126,62,3148,2465,-5383
107,34,-46,2169,1769,-6249
75,-37,-109,-3082,47,-5256
79,-117,-114,3027,11,-5715
121,20,31,4329,-1110,-5012
74,81,-6,3793,-946,-4694
-118,41,10,3972,-836,-4617
-108,-84,-78,3665,542,-3116
77,-12,54,4210,1505,-1710
8,-124,108,3801,1955,4
-126,61,-31,3521,1577,1014
-69,24,114,2784,546,1866
69,1,119,2030,-1864,2986
-120,57,-2,969,-6123,4004
-67,109,-128,1448,-8879,5570
-16,-8,20,-1577,-11365,4924
0,18,-42,-3077,-4125,1329
-82,50,-67,3973,-276,-2656
87,84,112,183,-471,-2807
114,103,32,-1379,-703,-2369
18,71,-51,1890,-1501,-2218
-24,93,10,3534,-3811,235
47,-54,125,2581,-4053,2025
-73,-16,99,2962,-1913,1576
11,68,8,3863,-368,1138
45,125,119,3908,270,1213
55,-77,90,2471,-538,1988
91,-97,60,2253,-1323,2586
121,-113,-107,2774,-1796,2152
-127,61,34,5250,141,481
28,67,22,5627,143,-135
-112,100,22,3145,589,-379
99,14,10,1169,1160,-949
-72,-104,-53,1627,1363,-777
106,103,-45,2037,523,-215
110,77,-54,1782,534,-787
-36,56,-68,1500,692,-845
18,7,-52,1665,263,-1043
17,-32,-31,1394,44,-1415
62,-64,-3,596,-71,-842
41,-67,15,174,-321,-157
14,-92,13,423,-157,-316
46,-105,18,856,83,-110
75,-89,25,811,218,113
81,-84,20,967,443,102
126,31,45,4806,2257,1033
-99,-44,44,6023,2764,98
116,115,-46,7150,2251,-1357
-113,65,29,7832,3344,-2537
-33,-70,-15,7901,2547,-3018
-63,-65,-102,6994,583,-4150
-43,-94,-36,3221,94,-4719
100,120,79,2384,706,-6341
-115,-76,1,-1511,540,-5750
13,-60,-114,1593,204,-5184
-107,30,72,2248,-551,-4996
95,115,36,4085,-1544,-4907
-18,94,-122,2646,-1915,-4683
-43,91,-63,2584,-950,-4104
70,-34,-125,3923,40,-2697
4,-100,-55,4305,1728,-1411
-21,12,-66,5341,3893,-953
78,16,-11,2621,3407,1292
-5,92,110,2111,-2929,4286
121,97,55,42,-4724,2348
-71,91,-22,-150,-6522,2781
124,-7,76,-517,-9378,4155
57,81,51,-1502,-8798,2422
-1,116,-8,6399,974,-2204
40,-5,-123,3403,1552,-2121
-67,-63,91,-1464,183,-236
-16,34,-126,593,902,-2013
-22,-73,-15,1665,-324,-2677
-54,52,-50,3601,-1887,-970
-50,117,40,2466,-3361,1916
-105,-126,106,2003,-4195,2757
39,-34,116,2446,-3221,3343
-53,96,-32,1512,-4836,3393
-84,70,-76,949,-1710,2534
-65,-75,24,3880,-1571,1395
114,-93,30,8154,2144,1488
4,-79,25,9473,1847,2165
26,-49,8,89,-3540,3728
-97,63,-71,-4625,-1311,1390
-75,-13,90,2192,1786,-236
-95,42,20,2873,2037,-1506
116,96,-21,1543,860,-1829
75,-17,-43,1323,312,-2357
-77,-112,-74,979,758,-2803
60,23,-92,1210,984,-2895
52,-34,-75,1436,108,-2381
12,-44,2,376,-865,-982
1,-40,15,-668,-999,121
-27,-42,29,-626,-558,677
4,-41,-21,501,302,1034
-54,3,-37,6838,1347,-1465
-79,97,86,7033,2539,-3381
53,106,-46,5159,3636,-3792
74,49,-52,5710,3890,-4692
-16,-111,-81,3486,2326,-5255
-30,-116,28,783,120,-5414
-38,-69,-81,68,466,-6988
-54,115,-111,1191,-150,-7258
-7,61,1,1896,-381,-6629
49,49,51,2177,-294,-5877
-80,0,-47,3298,-391,-4712
30,-84,50,4013,373,-3042
-17,117,121,5303,1589,-2320
-17,48,-123,3815,3130,-1598
23,-86,-103,2919,-111,4131
-26,57,91,1941,-4206,5354
11,100,-15,653,-6434,3711
19,110,-64,911,-13209,4694
88,123,-12,-2992,-5176,876
-75,-50,32,5497,2967,-3025
68,-59,-117,3791,-179,-1492
-4,30,102,-2884,-86,1204
48,83,60,146,249,-980
-119,80,55,921,535,-2472
-93,-8,-84,2304,426,-3039
91,-91,-86,3088,-836,-1436
0,107,-95,3042,-1770,986
-83,-116,41,2576,-3610,3548
29,-107,35,3810,-3123,4523
-45,-71,-82,3557,-3336,4667
-93,41,-77,2738,-1526,3425
104,-80,-62,4672,-841,3302
120,12,51,3543,385,3327
-67,11,-77,2410,-1375,1927
-30,-119,-117,2710,-812,-682
-93,-5,84,2370,1084,-1883
-114,-33,43,828,1720,-1020
102,-65,17,329,776,-53
99,-59,8,-297,-276,-13
-85,-76,-25,-481,115,-1062
-25,127,-48,-404,292,-1773
14,81,-59,-152,247,-2053
32,42,-75,-104,205,-2012
38,25,-81,-530,-51,-1574
34,20,-86,-655,-209,-1074
21,15,-97,-539,-211,-617
14,24,-99,-317,-222,-158
10,52,-100,-268,-203,226
17,86,-107,-62,-128,512
22,122,-95,-68,-326,819
-111,76,-91,5130,1382,-1513
-112,-73,-21,7648,2029,-2043
-56,90,-106,5233,3279,-1361
-60,-49,52,4109,2996,-827
32,-21,100,7257,3478,-1923
-38,28,-104,6955,3287,-3219
-53,-71,-62,4674,3368,-4284
-76,4,-18,3669,3450,-5667
-8,-72,-86,1792,-4724,-7203
43,-123,-100,1486,-2811,-5867
-15,18,-117,2774,-1083,-6180
30,-32,-121,2949,-1231,-6303
99,-70,127,3304,-502,-5290
-81,24,55,4045,595,-3651
0,-46,-34,4128,1263,-2079
-63,-116,36,4397,2377,433
-81,-105,-63,3250,1608,1660
47,-98,-46,2368,-1117,2904
25,-37,96,2123,-4778,4552
-101,-22,-50,1485,-6974,4699
-65,36,-104,-423,-10437,4174
24,-116,90,-3676,-6160,3468
3,-71,0,3388,-2560,-150
-57,51,107,2207,487,-2618
-71,55,28,-2231,233,-1606
-116,119,98,-1022,-417,-3296
80,-60,85,3624,-1716,-3125
-16,126,68,5467,-3293,-761
84,-29,-32,4168,-5030,2969
-99,80,42,6109,-3721,3723
-104,-93,45,8125,1127,146
62,-100,120,2876,877,2901
-48,107,-119,655,1617,3836
101,124,-1,3376,1541,2614
72,123,-108,3551,1988,1901
23,-109,115,2670,1330,1656
-49,99,96,1930,443,536
-84,-32,104,3176,-60,-1246
-69,97,-97,3232,-201,-2075
-14,65,-42,1745,-184,-1815
31,-18,26,806,-590,-1420
25,-35,106,43,-1403,-766
36,-36,-84,-624,-1677,-212
109,-88,-117,355,24,277
77,-81,65,748,899,-455
127,34,67,4589,1015,-1537
-128,-40,7,9301,905,-2998
59,58,109,1534,2269,-2169
-103,-43,71,-2265,2358,-734
-70,-103,28,-3075,287,1716
32,20,61,-5241,-1806,1367
76,86,14,-3604,-1424,1115
79,117,51,-235,-832,129
62,116,90,1367,-387,-1008
84,-91,103,766,-371,-1355
60,-71,113,-919,-944,-1096
60,-88,112,-1338,-1050,-967
77,-98,118,-1149,-634,-818
61,-111,122,-269,-237,-830
41,-110,119,379,154,-922
57,-111,86,388,212,-1043
49,-115,83,92,-143,-574
18,-93,77,-566,-220,21
18,-77,71,-734,-244,433
25,-52,64,-502,-215,655
36,-2,66,-403,-138,670
39,5,66,257,-725,95
49,58,23,369,-207,87
49,66,17,-88,388,-271
40,32,10,114,477,-330
52,10,40,58,146,-416
52,-11,40,445,51,-556
81,-29,32,618,155,-374
79,-15,41,149,-214,172
49,29,57,-837,-406,448
41,50,72,-1111,-363,420
76,53,71,-532,4,271
96,66,73,253,214,107
102,84,60,272,409,-238
110,69,30,434,497,-824
103,35,15,597,311,-1081
90,6,8,371,70,-891
78,2,17,-225,-205,-228
84,19,19,-548,-312,243
94,37,19,-416,-296,181
103,68,28,-398,-296,5
-103,90,33,-455,-178,-42
-128,96,40,-211,-35,-415
-106,55,25,571,292,-830
-94,58,21,295,112,-478
119,66,37,-263,-78,-275
-116,56,51,-203,332,-210
-101,30,41,620,571,-241
-90,4,36,1239,572,-214
-65,30,40,579,818,15
-41,6,11,616,966,-33
-41,-51,13,1290,595,116
1,-41,31,1155,763,395
-21,-62,59,1289,637,27
-56,-83,86,1075,504,-150
-20,17,40,5491,1866,-1404
-3,-122,-127,9035,2118,-1661
-92,-5,-83,12503,3555,-3494
-62,3,-53,8709,2678,-5616
-128,42,-41,2970,2383,-4696
27,95,91,2320,-1037,-4626
54,-60,-32,-1708,-3457,-2715
18,62,113,-1647,-2665,-5012
-16,-5,103,1313,-2313,-6008
61,59,-20,1957,-1581,-6444
-74,24,29,3466,-55,-6442
-36,-50,-94,3786,157,-4568
-83,84,-69,1965,1153,-3191
-14,-76,28,3274,640,-1176
-14,75,-60,3910,1344,355
-52,52,110,3031,-366,2037
90,80,-101,2286,-3093,3008
55,-87,126,1205,-6996,3830
-111,-14,68,2607,-12731,6863
-12,101,-40,-802,-7880,3407
104,55,-71,-820,-2273,-1961
-44,33,7,3807,1007,-3023
69,-18,82,184,-716,-1685
77,-64,-119,-440,-1691,-1324
47,10,58,2511,-3207,-636
13,-39,104,4899,-4712,1028
-123,-126,-3,2921,-5294,2806
-116,-7,26,2799,-1488,2416
-25,-71,-64,5121,-797,1448
59,-80,0,5705,1005,2123
-8,-122,-14,8490,3305,2806
-91,-8,5,8330,1038,4132
37,8,21,-2008,-3329,3471
-19,-94,123,-4841,1827,319
-80,56,29,2499,2172,-1795
-81,7,-100,3002,1253,-2690
-37,-11,122,485,-251,-2145
-12,-73,88,-456,-84,-1802
42,85,47,245,120,-2204
111,59,80,963,-370,-2304
-122,4,-127,1591,-631,-2119
113,-35,-93,1420,-712,-1666
74,-30,-42,232,-1050,-531
36,23,-4,-1203,-1461,850
38,41,-26,-1295,-926,1261
47,35,-72,33,-176,1188
51,100,-87,504,195,939
57,-104,-112,-49,359,754
54,-72,111,-256,258,902
20,-39,98,-599,103,867
-12,-122,80,5114,2512,-1040
78,-75,-109,5348,3450,-1826
13,-30,-35,6397,3584,-2432
-54,-87,112,5339,2780,-2348
-83,100,-79,5569,1906,-2324
110,97,108,3963,1753,-2711
-3,-101,-35,519,2192,-5236
81,30,45,1442,62,-8037
-83,-78,-89,2287,-4145,-2774
106,122,-84,331,-1679,-4981
28,36,-121,4830,-428,-3879
-91,86,126,3700,-1352,-3570
30,55,66,3542,-1517,-3541
-69,-26,91,3087,-1365,-3697
90,85,72,2508,-587,-2982
35,-121,-69,1966,-403,-1162
-19,75,80,3317,-708,1445
-10,-91,66,3292,-731,1477
84,-67,-93,1891,-2590,662
-14,-37,-24,1512,-4622,1551
95,-60,91,1825,-7519,2561
-40,88,-15,2601,-12194,5504
-41,-18,-109,-619,-8843,3077
-62,-112,-125,2646,-1902,-1496
13,24,-51,73,1295,-4307
-42,-63,-7,868,-1609,-4036
-80,-102,105,1436,-3924,396
-75,119,88,1562,-4126,1560
-28,27,30,3591,-2414,2
68,95,121,4690,-201,-750
-79,-30,115,4794,-1435,1006
-47,65,38,3233,-1867,2789
-128,25,118,8944,3729,-535
-62,-111,-14,8451,2270,-1249
-97,47,53,-162,2355,278
-50,3,-117,-445,-59,199
-74,80,-103,1039,-400,152
-102,84,-121,704,423,-98
1,79,99,164,710,283
48,-73,-127,-907,-519,1647
-78,-55,125,-607,-1078,517
-92,-85,-98,-47,-748,-1128
-33,114,-101,524,266,-1970
14,95,-104,309,239,-1833
52,86,-117,-280,-177,-1534
78,75,-116,-350,310,-1373
83,18,110,282,621,-1660
67,-28,99,864,117,-1618
41,-1,-123,97,-440,-329
50,46,-114,-1147,-318,889
125,6,125,5923,1751,-1374
0,109,-35,9423,1475,-1938
102,116,65,10889,3507,-3636
94,-49,103,10372,3662,-4612
-98,-25,7,5074,3151,-3733
72,-27,-55,2017,1224,-5064
77,28,48,5213,-130,-5546
79,54,-122,1406,-2534,-4715
-86,-118,-61,-336,-4652,-5250
93,-52,8,3215,-3163,-5713
81,-93,59,3327,-2008,-5662
-98,-68,64,3459,-1885,-4996
-16,-58,-55,4007,-1184,-3021
45,125,51,5557,-758,-1664
44,-4,47,4799,-301,-71
66,-121,78,2458,-338,770
-42,-98,-121,1315,-1854,3680
100,1,-47,1029,-4554,4502
-11,-24,-63,1289,-10480,6219
25,55,-128,-1346,-7389,2245
78,88,121,3135,-597,294
-76,-37,-38,3768,-1892,-1351
-14,95,54,-231,-1374,-1131
-67,-112,110,67,-2118,-1684
-88,33,-99,2932,-2741,290
108,47,-2,3286,-3775,2052
67,-114,37,4765,-1430,2590
-94,93,-7,4829,89,2887
-92,93,-121,3518,-69,2336
-105,-16,20,1865,823,2673
96,-58,17,914,-223,2635
97,103,-66,1714,226,1697
63,80,-96,1988,3,958
-23,96,-91,929,-300,171
-64,57,-62,31,-655,-756
-21,16,-55,-469,-417,-1052
3,-13,-48,-519,-271,-1412
11,-102,-80,416,252,-2345
86,104,-117,588,690,-2936
-72,78,127,35,330,-2442
76,72,-84,-511,-411,-1311
8,13,122,38,434,-1260
62,-19,96,862,575,-522
54,21,111,1203,57,773
32,109,-111,299,-246,1242
88,-88,84,19,733,738
93,-79,87,559,342,709
81,9,95,-54,-216,912
10,24,-88,-424,-787,654
45,11,-125,-505,192,345
119,4,-35,6882,1300,-1740
-54,-44,112,9468,1756,-2928
54,20,-124,14836,809,-6393
-61,77,-118,4717,2533,-6490
-39,-10,-88,160,2604,-4164
62,-26,110,1651,-1002,-3425
-81,-86,36,307,-790,-5215
-1,85,93,-24,-1500,-7993
37,-65,-34,3470,-3907,-9164
-103,58,-110,4272,-1829,-4328
-122,-122,40,3804,-704,-3374
15,21,-21,3430,-1007,-3358
117,87,-80,3023,135,-2684
30,-49,50,4129,2113,-198
12,-63,-79,2895,1581,2858
66,26,-24,2898,-1172,7106
-16,75,49,1475,-3797,177
34,123,120,-543,-6027,2213
74,29,109,-1699,-10363,5329
8,27,-118,-2434,-7207,274
-118,-7,68,766,297,-550
-93,-5,-86,5093,1833,-1797
89,108,-98,3358,-1072,-1863
45,99,-111,734,-2280,-208
-3,-57,-74,1867,-1827,1406
-1,-77,-52,4746,-826,2564
117,-81,-44,5024,685,3241
-68,51,41,2224,88,2487
113,-40,69,333,-325,2356
-63,-42,-63,3158,978,1418
-82,21,-59,1577,918,1472
-64,-69,88,899,1139,1147
-83,106,72,1296,834,679
-53,30,26,1071,731,637
12,-33,44,129,317,886
83,-77,40,53,464,1118
113,111,29,1170,230,1015
32,37,30,2176,411,654
-1,21,57,1846,406,965
12,21,57,1070,-45,1512
25,62,56,131,-519,1865
126,64,15,137,-417,1813
-90,92,35,50,-400,1327
55,0,-16,1235,451,-848
41,-56,-30,1911,791,-1558
22,-12,12,848,-192,-626
45,50,43,-1115,-1105,71
74,72,21,-2105,-1049,-76
-122,27,-45,-824,27,-767
-85,6,-71,753,432,-1195
-58,-70,-26,8977,2790,-2531
6,68,85,9241,2966,-3996
-31,-88,111,4931,3474,-5222
-15,-85,-91,2960,3042,-7315
8,72,-104,2539,3061,-7639
87,-17,90,3406,1940,-5831
-19,-48,-11,3309,-292,-5078
-15,-72,91,2280,-1248,-4899
-113,58,-27,3089,-2086,-3451
103,-23,-70,3278,-1714,-3824
-79,-81,-78,3319,-264,-3616
126,65,82,4328,1647,-2536
100,-78,-80,4579,3063,-1655
63,6,37,2673,3239,-1624
-67,-44,-45,3314,2475,4537
-97,80,22,1218,-1486,4359
-46,-101,-77,1578,-6035,6596
77,-75,83,1695,-8181,6342
-111,-8,-31,-1047,-8230,4176
121,61,88,83,-3655,879
67,21,-76,3678,317,-760
68,51,111,1301,830,-301
-125,87,84,507,1191,310
-68,85,45,780,902,-322
-119,20,127,1971,1204,-1702
-57,-92,86,1714,-1462,-1554
-109,32,58,1923,-2176,1144
39,25,-126,2816,-2092,4471
-39,-124,-11,4006,-2798,6238
-76,95,110,2864,-1758,4895
106,41,36,1146,-1794,5102
-22,76,-63,2391,756,4319
6,76,-45,2171,-565,4338
-6,-10,-54,3019,1216,2593
0,6,68,2307,-1593,968
-103,2,76,-1125,-874,-553
-112,88,20,-224,1081,-746
-109,18,-36,1220,1487,-1246
-65,-7,-118,1124,857,-1877
-22,-20,-109,361,-6,-1867
12,-79,-112,102,111,-2481
118,97,-103,89,561,-3155
-96,75,-94,427,525,-2535
75,30,-70,514,-550,-1779
42,37,-34,-574,-1419,-674
-11,73,0,-1594,-1683,721
-28,108,-58,-1329,-654,1402
11,97,-97,404,86,1072
52,-88,-103,713,293,1104
78,10,-123,78,628,602
-91,86,-128,5688,2289,-255
-93,1,-57,7164,1889,-921
-44,-52,43,8643,2244,-1577
8,104,-31,7517,2580,-2157
16,81,56,4584,2329,-1913
37,-50,-86,6042,-37,-2110
-73,29,107,2180,493,-3988
24,-103,-14,160,238,-5386
32,104,21,-926,-492,-4537
-50,-111,26,-2995,-1523,-5224
-95,-15,-87,127,232,-5972
-21,-28,31,3226,266,-6233
80,35,16,2803,-167,-6269
86,26,-8,3107,-597,-5486
-102,-117,-97,4717,749,-5346
10,-58,-86,5239,2570,-3702
-76,0,101,4334,1421,-2170
-81,94,-97,2889,939,678
-126,99,42,3237,1040,3152
-83,125,83,2114,-2474,3386
0,-84,-78,1021,-4374,3265
91,-64,-29,1136,-5321,3248
88,-62,-74,1760,-9564,3437
19,3,-78,-1913,-6344,686
-12,-8,20,4238,2301,-417
-85,57,-114,1538,1487,-1602
100,118,117,-856,-125,-221
-23,24,96,801,49,-336
117,2,-105,2557,-80,-645
-93,-121,-114,3770,-80,-1417
-127,-123,99,2809,227,-315
91,-97,-114,2134,-640,2377
127,111,108,2063,-575,4109
35,114,-102,2935,-3513,3890
-76,50,-39,2784,-684,4807
-73,-46,-101,1296,-375,4239
123,9,85,1593,-996,3251
-39,104,-48,2469,-199,3176
73,40,119,2885,-1085,3136
115,-69,-89,25,-999,2296
7,-59,107,-1056,683,-434
-72,-43,86,1414,1040,-2261
-60,-99,54,1572,610,-2039
-59,-114,16,452,473,-1335
-37,103,-33,-245,114,-891
-14,89,-62,-233,61,-789
29,99,-78,-354,168,-1006
55,83,-94,119,104,-1222
73,78,-80,126,-48,-1137
77,85,-66,-234,-556,-867
67,69,-119,5387,1970,-690
-75,-3,-62,6984,2152,-1531
-66,-76,107,8402,1879,-1703
-15,-67,39,7057,2399,-2040
-119,-67,-66,5002,2119,-2466
72,24,70,6577,3601,-4076
67,54,119,5671,897,-6133
-72,-28,-44,923,-2798,-4923
71,54,61,2742,-2596,-4633
-6,89,22,2035,-2687,-4551
-54,-76,-34,3031,-2647,-4073
24,38,-33,4059,-3631,-2535
-35,-87,12,3533,-3629,-3942
-79,25,52,3388,-1177,-4371
89,59,-47,3771,969,-3406
71,-5,5,3834,1800,-1753
104,73,-2,4602,1546,1848
-86,-85,37,2579,-810,4271
38,55,-29,815,-4270,4564
-106,-78,122,-641,-7092,4792
51,-106,62,-2304,-8540,5331
115,14,77,-3714,-10057,2239
-60,96,-88,5611,-585,-439
-98,-46,-15,5990,296,-2219
17,89,76,-903,-949,-306
-123,-119,-42,521,-1048,-2327
115,63,84,1571,-4271,108
-119,64,-58,3060,-5721,2963
125,-63,57,3731,-4506,3131
17,54,34,1737,-1721,1312
105,-1,-48,2429,-242,1010
32,-76,21,4242,-1118,2242
-96,32,-16,2182,-760,2761
88,-31,119,2820,187,1429
107,-76,31,4372,248,517
-4,-84,-67,3320,629,-101
-4,-127,87,1731,1347,-336
5,74,44,1127,1026,-320
-82,24,64,1170,-301,-432
120,34,117,-530,-561,-830
-47,24,109,-1729,238,-1337
110,-47,77,-228,-202,-1661
115,-39,113,294,-957,-1699
67,-27,-117,-698,-1014,-2150
97,-17,-105,-2194,-700,-2436
-126,-48,-121,-2192,-317,-2359
107,-94,-127,-1080,-69,-2164
61,-126,-119,-12,31,-1640
15,-121,-123,142,179,-1016
-32,124,-118,382,119,-355
-101,-17,30,6920,3491,-1125
-100,-37,27,10197,3705,-2351
54,-61,48,9841,1244,-3152
-9,-127,-98,3031,1838,-5497
30,-22,-55,2976,2247,-4941
-94,-97,23,2528,4039,-6850
-119,-69,-80,2858,-185,-6121
-59,122,39,-49,-3121,-4932
61,-55,-24,-293,-3283,-5035
112,-65,59,1633,-1024,-6287
1,14,-107,977,-661,-6449
117,71,31,2265,478,-6122
-103,73,13,3153,1213,-4993
20,-97,-67,4176,2760,-2610
65,64,21,3839,4118,-1355
118,-59,127,3560,4202,1933
24,103,80,4061,-788,4042
126,51,-63,2319,-3704,4170
105,26,44,3866,-7696,6620
3,114,-117,2269,-10851,7279
51,-125,67,-5331,-6625,1505
27,106,73,5886,2291,-1948
71,-106,-91,2662,197,-2179
40,-23,125,-1147,1098,13
97,111,41,2018,1122,-1431
75,46,-103,1837,-1608,-1248
52,-97,-89,4162,-2403,512
-2,-101,-29,4093,-3770,3049
6,84,-30,1992,-4389,4216
-76,-26,42,1692,-3239,3131
-13,-15,-116,2345,-2095,3596
29,49,95,2759,-489,3507
-74,-53,67,4876,1211,460
28,4,30,3548,430,124
-35,-75,4,1564,437,-261
-102,61,9,1136,280,8
123,14,-23,1110,664,-66
-127,-44,-91,1700,975,-668
126,-107,118,2226,623,-894
-104,-82,-87,1042,-130,-320
-99,-100,-43,127,-498,-736
4,56,-43,964,115,-1556
107,-28,-88,2508,942,-2249
88,-98,-80,2699,376,-1847
12,-64,-3,1134,-787,252
-54,17,53,-1419,-1574,1682
-70,96,-11,-2795,-1195,1933
-38,121,-68,-2129,-486,1182
23,-96,-110,-1127,306,302
40,-60,-112,-563,450,-323
98,19,46,8131,2069,-1756
-128,-28,-15,8806,1382,-1957
-1,32,-15,9959,2083,-2608
-5,-38,-110,6422,2079,-3162
3,-61,-113,4295,2337,-3748
-83,83,-22,3705,1476,-5075
-40,-107,-62,1209,-636,-5197
38,-34,36,2394,-2245,-4689
6,59,-1,-625,-2075,-5604
-52,-11,-84,1841,-1314,-7122
-87,-28,25,2398,-2532,-6846
73,-126,-20,3799,-1723,-4921
44,32,51,3577,-1611,-4279
-80,-88,-38,4033,901,-2761
-69,88,104,4056,2386,-1127
-41,40,13,3728,1971,1102
59,-123,-63,2190,292,3534
6,-63,-14,1619,-4485,4420
-43,42,107,1085,-7085,5771
123,-94,-36,2611,-14431,7469
75,-40,-58,-3142,-2058,345
-68,60,51,3981,665,639
-6,70,-95,2283,-1246,-1790
105,-113,-124,-1790,173,-537
-115,-63,-58,461,-630,-1218
116,93,10,2313,-696,-1563
-115,-30,-23,3912,-1250,1035
88,89,-106,2485,-3773,5091
-54,-101,-70,2816,-4223,5595
-32,-43,95,3104,-147,2533
52,102,-118,5033,1644,1754
104,-28,-57,2854,-18,4129
48,-44,-41,1662,-1111,3906
-69,-6,52,115,-685,2358
90,-126,32,601,866,5
41,-13,15,2993,637,-687
-17,-39,-43,1884,731,-1196
25,-120,-48,1100,215,-1027
2,78,-40,1437,-323,-393
-22,35,-81,1314,148,-527
-21,24,-114,1016,204,-894
28,16,-121,638,-305,-1021
126,38,-36,-77,-1517,-404
85,87,6,-1273,-1647,-348
90,62,-18,-870,-445,-1269
-70,-49,-115,856,630,-2601
-63,-45,-63,893,-66,-2067
61,15,-33,-838,-561,-596
63,24,-95,-1824,169,2
-118,-3,81,-378,804,343
121,12,-58,5069,1699,-1378
-20,-1,70,8884,2638,-2096
22,81,-87,11814,3851,-2543
10,90,-47,9614,3013,-3037
-66,10,-66,5497,2070,-4852
9,-110,-3,4054,1394,-6312
-79,71,43,1753,-1249,-5507
52,-85,-18,-1168,-2056,-6035
-99,-98,-4,1877,-2129,-6973
90,75,85,2923,-1348,-6043
-8,-61,55,6427,-1014,-3980
38,112,99,3352,-2464,-5832
68,113,3,4936,509,-2373
-92,-96,-52,4938,824,746
114,26,-39,2938,-812,1309
-22,46,19,1963,-3239,1967
-6,122,21,2601,-4216,4352
-79,-68,-5,3375,-5907,4948
89,9,75,2906,-9784,5995
-12,55,20,722,-7360,3489
-66,71,72,1865,-3626,1617
-113,-124,-108,4212,-3974,-699
84,-17,-68,-144,-334,131
-106,43,-105,2040,-595,388
88,28,-62,2517,-310,-203
41,31,23,1748,512,-124
-9,-82,-39,1852,-670,-95
-49,14,73,1193,-525,1237
9,-97,8,2498,391,2090
70,-36,-28,3051,1014,3341
-124,49,-106,2963,1008,3367
-88,68,101,2558,811,2777
74,43,-109,1590,-192,895
37,-26,-121,1090,421,-620
70,125,104,1472,980,-1206
44,103,125,1141,428,-1011
9,61,-106,1080,241,-1143
47,34,-61,772,674,-1426
104,-16,-48,898,23,-1557
-70,-59,-16,501,-580,-1019
-62,-34,-8,-572,-645,-585
-71,-39,-35,-417,-445,-714
-100,-35,-56,45,-70,-731
-110,7,-74,-375,106,-521
-116,32,-118,-345,-276,6
116,69,-121,-701,-629,326
-111,117,121,-955,-539,428
-117,-109,-124,-805,-417,592
-117,-86,108,-192,367,205
-108,-41,75,-37,369,-421
-94,70,71,9196,1354,-1705
-48,-53,-112,13266,2567,-3110
77,24,0,10335,462,-5669
-109,-4,54,2016,152,-5245
127,17,83,-3534,-4,-5074
-43,-120,-36,695,-988,-6349
55,117,55,5339,-688,-6802
45,-37,62,619,-1447,-5845
-92,34,115,164,-228,-4240
-123,94,40,5943,142,-3339
56,-118,91,4013,-1945,-3971
-124,-109,-9,3720,-1395,-2732
81,-74,-82,4086,566,-1996
30,26,27,4313,1599,-13
48,-5,23,3335,1221,1164
-124,-9,-121,2989,1428,2481
-112,48,100,1082,-1472,3896
-54,112,-2,1101,-4960,5418
11,-116,-125,953,-6334,4751
-66,5,59,-914,-8743,4402
-4,25,-44,-1683,-6563,2203
22,113,-3,2683,-465,-79
59,93,-115,5587,-187,-891
-37,88,84,-252,1257,-841
-11,-86,79,588,835,-443
106,33,-122,2363,1077,-1271
93,-68,-109,1571,-218,-1143
101,-95,-90,487,-1494,760
64,102,-89,1226,-1787,2657
26,-82,27,1839,-2904,4811
123,69,104,2376,-3548,5836
-40,-68,101,1429,-848,4040
80,-110,12,2393,981,3638
-126,-73,-48,2258,29,3841
-30,22,56,1221,-2238,3151
115,-68,78,2063,-1140,436
40,74,51,2878,501,-1126
-31,-16,-7,2651,631,-1320
-32,-71,-6,1741,431,-916
-11,98,2,1305,106,-605
-15,91,39,443,-74,-275
-8,43,28,547,402,-700
67,16,-9,584,872,-961
90,-20,-35,1042,670,-1397
98,-32,-31,888,721,-1414
124,-21,-27,481,454,-1018
-122,-22,-19,166,159,-919
-103,-39,-42,294,292,-691
-126,-30,-32,396,28,-287
-113,-12,-38,178,125,39
-48,-120,110,12434,4252,-1276
50,70,-9,13252,3348,-973
6,84,55,3928,2009,-4386
-36,-48,-85,5862,1838,-4669
-103,-17,-128,4742,-185,-4756
-43,-94,-119,1930,-3306,-3384
34,40,-81,3706,-3623,-3448
34,-85,19,2041,-3438,-4015
14,-37,-126,1078,-3836,-3509
-69,35,84,1725,-2046,-5171
-50,-124,-16,3497,-736,-4361
61,88,-81,5782,-2675,-3799
-117,57,19,2338,-1183,-3644
-96,37,96,3445,1810,-878
-53,-53,-61,3202,2793,2293
107,-10,43,1980,963,4313
-55,67,-78,214,-2794,4357
-79,-14,34,-217,-4503,4243
112,-42,113,279,-7007,9675
46,87,-69,-1807,-7628,1446
73,96,-76,-473,-410,1556
18,-123,-127,2622,-811,-206
78,28,93,-472,236,107
120,-63,89,119,41,-189
-5,58,97,1822,312,-1135
95,60,-57,1059,-620,-1466
-125,-54,-92,1254,-1646,-1091
84,96,-73,1684,-2657,1104
-4,84,15,2332,-3402,4003
96,61,-127,3384,-1643,3997
92,54,-16,1073,802,1150
-93,29,-105,96,-547,2639
-89,-75,40,3085,-547,4024
7,98,-91,4940,-446,5208
105,-120,72,3157,174,4569
88,-90,11,1158,-297,2987
-6,-101,10,221,-907,814
-63,15,2,1315,-177,-1623
-42,-49,-6,1494,640,-1701
-34,-64,-27,300,454,-1496
-12,-101,-48,-498,-331,-1810
43,109,-61,-527,-375,-2004
76,46,-76,-184,-246,-2160
69,19,-65,129,-231,-1796
92,-13,-91,538,263,-1238
112,-14,-74,876,195,-527
-122,0,-77,863,131,-81
58,30,-54,-98,-201,94
37,9,-82,-142,135,363
51,12,-105,243,79,1057
-125,72,-46,4779,1933,-2351
42,12,-16,6331,2759,-2497
-50,-121,-90,6507,3205,-2990
68,-13,-31,4324,4161,-3967
-123,-41,-73,7674,2089,-6035
62,72,110,2739,732,-5476
31,-76,64,-150,-805,-5090
-79,87,53,1249,-2760,-5996
-57,117,28,1302,-1783,-5841
-18,103,106,1614,447,-10702
29,-36,-116,2600,-181,-6882
-44,-10,3,3785,1573,-3885
-42,94,-120,4059,2535,-1639
-94,-68,-94,3604,3295,64
-103,-67,57,3174,2114,2805
81,-54,50,2095,-173,4165
-97,-44,-42,1692,-3449,5766
-43,26,79,1528,-5980,7075
-121,-37,106,1478,-12737,8374
-12,-70,84,-4472,-5733,1061
18,-88,-16,1185,2681,617
53,-45,-111,5827,-2319,-2034
-56,66,112,-2140,1235,18
37,86,-2,-49,288,-1138
124,-25,82,2667,438,-1957
-58,58,116,4608,1343,-1909
25,-125,-53,1142,-1251,1911
22,127,-120,2254,-1734,4994
101,91,63,3985,-3584,6202
-10,-121,43,2253,-2200,4250
117,112,59,3132,560,3094
109,-26,-102,1195,-1081,3643
115,70,94,1264,-162,2650
23,-1,111,1536,-594,1641
-62,-73,67,1583,-90,-56
-89,93,27,1545,685,-730
-67,33,-40,577,866,-809
-72,4,-47,-164,202,-722
-108,-33,-45,-519,-255,-951
-47,-89,-71,-574,134,-1123
-19,-117,-98,-183,354,-988
-44,117,-111,177,189,-784
-31,-124,-118,-116,139,-475
-3,-107,-127,-341,100,-140
4,-101,118,24,152,-231
8,-102,111,324,251,-405
46,-97,107,258,179,-225
66,-108,108,646,213,-19
1,-87,-126,184,97,-139
37,-34,-102,-854,133,-77
-12,-22,-28,4166,1404,-2451
-12,18,25,2678,-436,-525
-41,-53,80,2834,-367,-53
-83,101,65,6263,-116,-1450
-98,-46,88,2939,857,-1251
-61,119,65,1328,1438,-446
-68,109,70,372,562,565
-69,-103,46,-2398,74,569
-14,-126,-24,-4249,-21,591
-21,-116,-43,-3530,-427,918
-56,-101,49,-30,-804,794
7,98,94,5185,1044,-1415
35,-112,104,5632,1421,-2404
-28,-59,-94,2375,1025,-1076
-27,88,114,782,1064,-1058
119,-54,120,3327,385,-901
-99,-97,-104,3186,977,-1005
94,-107,-63,915,1305,-918
127,-85,23,-387,391,80
-92,52,45,2159,837,-342
-88,78,105,4036,1168,-698
-29,90,-68,5191,1551,-1412
36,46,1,9831,1854,-3037
-18,15,98,13395,694,-7160
111,-122,-116,3726,2500,-6519
80,127,33,-3520,-1322,-2064
125,-111,-87,1,-3921,-3204
51,-35,-10,843,-2676,-4298
0,-93,-47,1938,-2349,-8865
-74,-25,91,2725,-4162,-4172
-72,3,13,2618,-2486,-3379
61,-54,35,3560,-883,-3147
-108,51,81,2436,-1210,-4171
-123,112,-27,3011,-162,-3000
73,-67,99,3360,1204,-1084
-61,117,25,4131,340,1664
-87,-108,0,3728,-153,2537
-19,-19,-3,1514,970,665
-124,-12,-65,584,1122,854
-10,-105,11,1625,-2731,1303
63,92,78,824,-6087,6403
115,-124,-1,2776,-10121,7855
43,-113,-94,-3889,-7722,2538
19,75,-7,-1205,-1936,-723
-95,39,29,3248,961,-1528
64,-71,-90,2099,42,-1633
102,79,118,2643,431,-968
121,-83,-56,6258,749,-24
52,-14,-19,4385,-1515,2648
127,-99,93,2635,-1182,4882
-6,84,-51,3104,-1511,5025
-68,82,118,3736,1261,2818
-94,44,34,4233,1581,3390
70,-14,86,2366,124,2908
103,126,-22,1044,1260,2306
58,37,-70,1876,1314,1445
4,-28,-95,2511,835,414
-31,-78,-80,1693,508,-523
-24,117,-77,1242,594,-682
-45,59,-76,1074,269,-688
-35,45,-59,538,-285,-337
-6,73,-43,-327,-734,-485
80,99,-33,-1014,126,-69
58,30,-30,-510,-140,-1240
66,21,-4,-312,-782,-1506
-112,57,3,-1213,-787,-1581
-126,64,-30,-999,-283,-1200
-113,56,-90,-762,1269,-814
125,18,-107,-203,1330,-1013
110,10,-98,443,274,-665
119,35,-103,714,-293,64
123,61,-115,514,-457,548
-125,98,-108,-14,-400,916
-106,127,-115,-69,-273,1366
-112,-104,-96,110,-572,1419
-126,-69,-94,207,-504,1282
52,-25,-74,-348,-670,928
59,50,-24,-1795,-665,1298
107,80,-60,-1256,-89,801
-71,70,-108,462,699,-579
-70,61,109,976,1009,-2080
-78,0,85,958,880,-2803
-45,-56,77,901,940,-2935
-31,-121,62,999,792,-2368
-67,122,85,718,296,-1664
-75,100,90,548,170,-1234
-84,89,109,300,-2,-639
-73,88,108,359,-139,-39
-119,93,-118,283,-542,503
-106,90,-119,676,-75,1076
-64,96,125,1166,172,1733
-1,-110,-128,910,105,2183
12,-70,125,483,28,2091
-36,-51,111,271,39,1360
-61,-40,125,-56,19,726
124,-39,106,-207,372,205
-128,-42,89,-242,181,60
-93,0,75,-446,310,-239
-92,-60,21,1007,570,-1934
-37,-87,47,983,29,-2638
20,-5,107,7046,2764,-1768
-4,57,-48,8714,2731,-2799
24,-65,125,6533,2821,-3831
34,-36,-12,3608,3571,-4964
84,112,-47,3908,1348,-6076
35,-112,-91,1663,-782,-4775
-35,-27,-108,-1464,-1272,-5510
-112,41,-88,3986,-1613,-6063
-96,110,126,4019,-2379,-5546
-21,110,92,4040,-2833,-4365
-33,-7,-115,989,-2450,-5125
41,55,-108,1198,-27,-3129
37,-41,52,3635,1125,-1585
-74,-14,-83,3415,2578,-1149
-66,118,-82,3457,1951,64
-122,37,82,3325,-797,2093
-4,-47,-107,2835,-3928,2651
63,-79,80,1994,-7898,4482
48,85,61,2026,-11765,6520
52,39,-67,-1375,-8822,4187
44,20,56,-698,-6100,1759
50,-74,48,-172,-1256,-1825
-30,22,-94,1308,2812,-5567
50,-101,-104,4738,917,-4914
40,125,94,4446,-3382,3185
-116,-75,39,4052,-4663,5001
-72,-29,-12,4368,-2759,3022
-98,79,127,4606,-638,1609
53,-112,42,3826,-210,1450
-73,-120,-79,1266,-1306,1317
125,-47,64,2144,390,792
35,-86,6,2750,972,278
-56,-86,-25,2590,759,377
-111,-96,-73,1588,755,71
-100,125,-89,1085,700,-393
-80,44,126,1349,680,-1261
-52,14,121,534,322,-1822
6,-25,119,-374,115,-1922
68,-75,-115,-678,-204,-1862
80,-120,-109,-255,-81,-1987
100,91,-108,202,179,-2036
97,87,-92,-30,-129,-1799
103,86,-78,-449,-212,-1373
90,84,-91,-716,-80,-865
55,66,-121,-264,2,-397
21,70,113,155,-286,252
13,124,113,42,-621,1215
44,-95,121,13,-641,1775
98,-46,-126,453,-175,2003
118,-11,-123,693,-393,1603
14,-67,-67,7722,3411,-1744
35,-4,62,10694,3498,-2880
19,94,-21,7437,3228,-3805
77,86,56,5597,2141,-3894
-63,-119,29,3031,636,-4837
118,11,-44,2278,-516,-4620
-78,45,56,-464,1035,-5386
-56,-45,112,3405,-1133,-5104
93,-73,13,1604,-1917,-4619
-45,53,67,2511,-2727,-4007
50,-7,75,3594,-2342,-4232
20,110,20,2952,-1472,-3865
-54,-35,103,4097,-398,-2182
52,-127,68,3630,-243,-2638
-24,12,-30,2846,788,-1514
26,-71,-68,2578,725,569
-127,-92,-81,1995,-539,1953
-3,34,36,583,-3520,3881
103,-89,-105,712,-5426,4661
78,15,-108,1101,-10359,5341
-18,-121,13,-1814,-9456,3779
-76,-46,40,2150,-658,-413
113,116,-53,3509,1478,-2133
-41,70,-117,-1286,-267,-290
-19,-72,-107,-765,-295,-49
50,119,33,1013,589,-1326
98,103,-1,1569,1315,-2594
109,-45,-126,2586,46,-2497
107,-52,-111,2481,-752,618
-3,-95,-22,2382,-3206,3065
92,-47,15,4394,-3714,5652
34,113,17,4821,-4116,5161
8,97,17,2347,-2297,4319
103,-10,-127,2583,-1333,3251
-106,-54,-23,3600,619,2634
-55,72,-106,899,-1633,2453
-17,-69,110,607,-792,-88
-67,43,54,2474,840,-1503
-118,3,-12,2355,1642,-1589
-94,-39,-107,1906,1681,-1084
-100,-64,-104,1718,459,-480
-116,-48,-64,276,-592,-668
-27,-62,-73,-1141,-119,-1644
33,115,-100,-718,194,-2124
61,34,-122,16,-11,-2345
46,33,-103,-349,-468,-1811
19,41,-82,-772,-528,-1047
54,21,-115,-273,312,-693
63,-2,109,1023,377,-480
14,37,127,714,-417,-65
-65,-44,-122,5398,3202,583
-116,106,-120,10896,6180,-310
120,-54,-69,13402,6323,-2635
-58,78,-124,6989,2916,-2115
102,25,-93,4814,2268,-3950
30,-54,-17,6096,-211,-5073
102,71,-8,3236,-2037,-4674
61,-76,-69,-598,-4028,-3858
-74,89,120,142,-7230,-6138
70,-20,-3,1241,-1967,-5630
67,-32,-119,2569,-1575,-6485
-118,108,-84,3439,-908,-6216
-101,-34,105,3354,551,-4188
50,40,-86,4427,1252,-1623
-91,-41,84,3691,1024,-489
-53,-108,-1,2456,1954,1055
-75,-56,9,1444,-769,4223
119,-54,119,2016,-4183,6175
-8,65,-32,1765,-7704,6309
-79,-108,77,195,-9001,4610
-66,-19,18,-2631,-640,-489
115,82,-65,5010,605,-1175
-84,-35,107,122,-463,-970
12,-89,108,-248,68,-630
111,31,-109,2057,66,-719
67,126,-116,4093,-1029,-930
39,-57,-23,1158,-1265,1399
-48,-16,103,859,-2368,3852
43,13,92,3540,-2554,3942
-25,-115,77,3890,-1290,3513
-91,-12,63,3130,-678,3436
-126,11,57,731,-1211,3214
121,74,21,1553,-548,2359
-86,62,66,2028,-1042,2498
-89,68,94,2439,-673,1749
104,29,69,3086,322,-79
-70,-46,37,2602,688,-1437
-60,-109,14,444,1131,-1484
-16,77,-14,649,960,-685
-9,-7,-57,2003,729,-271
-21,8,-56,1655,645,-268
2,23,-53,959,359,-247
36,-4,-27,1075,120,-544
50,-16,-15,845,297,-836
61,-36,-7,515,237,-814
120,-42,-11,110,1,-350
96,-41,-22,170,-77,-49
58,-7,-10,-130,-30,-81
97,-2,-34,117,439,-220
-115,-10,-71,962,522,-455
2,-24,-79,7485,2065,-1913
-115,-30,-86,10616,2013,-5047
-13,-124,76,10766,713,-5648
-91,94,11,3862,2613,-5556
-59,-67,88,4316,2420,-4964
-62,73,-61,2238,-1542,-4361
104,-53,-76,-1831,-1237,-7376
87,-72,-44,2314,-5851,-3679
-40,-40,122,1329,-5149,-5355
126,-81,72,3038,-2437,-6053
66,64,-104,3377,-1919,-5664
87,-103,99,3541,-490,-4019
-26,17,20,4414,536,-2519
77,0,-24,3093,1832,-1479
-37,1,-65,3209,1796,2866
118,-28,-42,2103,-844,3146
-92,-22,-79,1379,-2411,5002
-116,89,3,2229,-5730,7049
-111,-34,104,857,-12873,7006
64,24,-115,-3173,-5814,3468
113,-115,2,3935,2349,-1933
95,9,-116,1943,-320,-2930
-69,21,121,-2253,471,-791
-25,31,45,117,-345,-784
-3,-39,-126,2643,-102,-1426
66,-72,-72,2938,160,-1265
76,78,108,2894,-827,391
42,-114,-57,1498,-2626,3850
121,20,66,2255,-5015,6417
117,21,-80,1581,-5344,6616
-70,103,-15,3257,-3405,3368
89,-66,-111,2976,-236,1303
88,74,-24,1626,-422,-83
9,-9,109,2103,543,570
-24,-27,62,901,257,39
-78,-106,31,1644,-84,-181
125,-124,16,1267,122,-414
-127,84,-13,781,228,-939
-114,24,-26,531,250,-1380
-32,-42,-35,528,421,-1563
6,-114,-58,1238,678,-1795
-46,104,-68,1137,601,-1780
