AccX,AccY,AccZ,GyroX,GyroY,GyroZ
-31,34,-84,-3656,2732,-1805
8,-104,-92,-1932,4549,-2262
26,-127,-100,-1609,4007,-1638
-90,42,93,-960,4649,-1148
76,-8,22,-141,4630,-638
49,-34,-122,559,5879,-524
-37,-88,29,1902,4920,616
1,95,108,2426,5884,574
31,22,-45,3216,5138,2354
69,52,-31,-803,5098,3969
35,57,-75,-219,746,7859
-107,-35,-42,-2356,-2526,6790
-126,108,43,-6481,-8227,3877
39,102,36,-8810,-5849,-2098
82,4,64,-9578,-1752,-5969
-106,13,119,-6151,2707,-5029
88,93,-2,-954,4687,-4576
-102,111,-98,-384,4392,-3688
-41,-111,83,3140,3670,-3196
-121,119,114,2986,2733,-2558
-5,-127,-87,721,4462,-1222
-61,-120,-88,-317,4754,243
4,19,120,2665,6375,-571
54,-22,52,3014,4960,-31
-41,117,73,4428,6135,777
68,-122,2,1360,5680,710
-67,29,-109,3370,9182,1507
105,-49,34,-14962,6244,13551
88,-86,123,-1769,-6023,1589
-106,108,45,-2207,-8807,-1076
73,-6,-35,-153,-12153,1118
-114,-60,95,-1432,-14350,1334
-88,-77,85,1056,-5287,2849
-10,-64,12,-1002,3012,-411
88,-22,34,686,1434,-2260
65,14,-14,-416,2121,-2287
2,-74,22,-1199,647,242
37,-113,-40,-302,689,-632
-73,3,4,-1226,1397,-108
11,0,8,-825,780,-263
71,-48,120,-602,1194,-33
-50,35,-79,-2138,2646,1192
-8,27,-72,-2353,3209,1693
-4,81,-117,-1800,4161,1623
46,-75,88,2440,4224,678
-58,-105,-53,1192,4257,1032
-22,17,-118,-353,4740,983
-14,95,101,-737,3814,140
0,-29,-92,-1203,2606,2154
-11,94,-17,-2395,3605,1542
-28,-30,68,-3942,1929,2615
-81,14,54,-4007,1874,1657
-97,5,54,-3636,1228,2179
81,18,41,-3770,66,1410
95,-34,-41,-2164,266,12
113,-68,-66,-385,447,-872
124,-59,-88,-130,183,-1347
-111,-55,-117,-348,190,-1400
-74,-48,103,-419,319,-1136
-63,-43,86,-652,577,-991
-48,-33,69,-796,361,-873
-17,-5,57,-964,258,-579
-8,17,45,-1015,382,-581
2,41,32,-860,316,-457
9,73,35,-949,257,-239
15,104,29,-987,365,-224
27,-127,20,-791,489,-280
32,-114,15,-496,470,-329
36,-86,8,-444,445,-323
42,-64,7,-625,444,-262
51,-49,7,-608,423,-237
62,-30,2,-529,429,-348
68,-17,5,-543,384,-409
71,1,8,-572,373,-501
68,3,11,-488,374,-571
71,18,15,-617,452,-482
73,29,13,-595,427,-429
74,46,14,-645,335,-371
84,67,16,-758,388,-410
91,76,15,-582,420,-562
91,88,18,-630,397,-554
87,101,21,-737,375,-516
85,108,27,-629,395,-542
85,122,31,-717,399,-482
91,-103,44,-1086,410,-396
87,-109,46,-800,428,-450
89,-110,48,-393,403,-457
86,-75,53,-693,469,-392
80,-74,51,-620,362,-347
81,-56,52,-915,379,-176
84,-85,112,-4280,77,933
109,42,-26,-6377,-739,1357
52,114,-43,-7316,502,1284
73,-84,75,-5357,3524,112
2,-36,104,-3013,5581,-1315
-50,-31,39,-191,5907,-1468
-43,111,-46,-725,6390,-1077
-122,122,112,11,7382,-459
-21,83,34,1350,6675,436
-95,38,120,2302,7327,894
60,50,-32,1235,7293,1854
109,-76,2,-4544,6552,5017
2,122,-34,-4567,-819,10309
115,122,71,-4047,-4266,9794
-107,42,-86,-11748,-10581,6733
-100,-73,-81,-3663,-6516,-7889
22,89,43,-18865,-3502,-1991
108,14,32,-465,4413,-4164
110,-24,-50,1456,9570,-5309
80,-106,-51,3015,3787,-5714
-30,-49,-23,1583,5010,-5997
-113,-40,17,-216,4363,-4111
-121,82,-11,821,3980,-3132
-24,110,106,-146,5002,-817
27,-71,124,-1604,5728,950
7,-118,8,4292,5561,1282
-48,-124,-66,6463,4878,838
100,113,-95,4523,7684,-1512
-81,109,-12,2622,4780,167
-26,-43,-9,-11330,15640,7488
-119,48,-23,-4930,-8418,9288
96,113,106,4770,-8666,-2900
-59,-114,26,-3256,-9606,5876
48,-52,69,412,-12628,2310
-46,90,122,-2513,-4358,4950
11,126,-96,-1056,2905,-1851
109,59,14,872,1776,-2721
107,-1,120,-471,1453,-2120
-32,-112,-36,-858,834,-255
113,-56,-39,-1055,1451,-45
-93,-20,10,-886,851,-377
68,23,-10,-862,1831,-540
104,43,72,-1218,1135,184
-86,32,56,-551,1752,-24
-86,-96,95,-1267,2313,340
-66,-125,-127,-1070,1962,701
16,-22,-128,-1983,3507,1196
21,122,-67,-1641,3476,1446
-125,80,-117,-3935,3619,3740
85,81,-56,-1449,2997,3045
-60,-104,26,-2057,2767,3947
-33,-109,28,-1923,1883,4145
-2,10,82,-755,1922,1654
60,39,-6,-1195,1579,1853
2,40,79,-2753,27,1957
-65,-87,-17,-1616,655,1288
-116,-108,-16,-808,520,604
127,-106,-34,-683,270,-288
-118,-110,-57,-475,358,-683
-104,-121,-88,-306,580,-1046
-102,-124,109,-6397,1415,761
35,59,89,-6281,2527,-232
59,-25,-25,-3051,5891,-1036
40,-79,-116,-1541,6512,-1492
-34,108,14,822,7355,-945
-3,109,15,902,8516,-684
-44,26,20,912,6867,594
-34,71,31,-711,6820,2438
-110,-87,119,-2182,4500,4297
4,8,59,-3181,-843,7168
28,68,105,-4850,-5026,7401
-128,-92,4,-4596,-10236,5772
-115,-1,-68,-3180,-7754,-2137
87,21,-121,-7692,-8807,-2253
67,-69,-111,-14273,135,-3032
-28,-61,-1,992,8820,-5001
-107,-47,-106,-491,9047,-5599
-92,-99,71,2862,5204,-5168
-39,-122,59,2525,6305,-5739
65,16,-89,3120,4004,-4143
47,90,-21,5350,1991,-2244
-64,94,0,1682,4247,-127
-45,-36,-103,-2072,10051,3085
115,12,-1,7119,6552,3369
-2,-93,86,14447,815,-7158
62,32,40,-10781,16656,4815
86,-52,-28,-10387,-3517,12250
-55,127,50,5983,-8036,-3472
20,51,67,-6383,-10643,6115
-114,-116,127,481,-13341,-31
-108,-40,70,-3066,-5065,3740
69,125,98,-603,4951,-2019
-27,-111,-17,626,1407,-1482
42,85,-85,750,2418,-2159
-39,50,-10,-740,2666,-224
78,103,-41,-1979,3944,531
-95,105,0,-1161,3649,1052
33,-92,-9,-899,4849,1198
5,-97,-54,-57,5463,887
-118,20,97,-5468,5835,3446
23,-108,60,-272,3004,2489
-87,-80,-77,-2266,3191,2761
-111,-35,68,-4159,1843,2500
119,-111,83,2353,813,274
-60,34,-24,188,614,-119
-39,122,12,-4394,850,753
-81,-6,117,-4965,782,717
-73,-83,49,-2481,676,58
-69,-59,26,-1175,645,-568
-56,-12,58,-903,269,-699
80,19,-106,-7370,362,1479
2,0,85,-7862,2224,844
28,-80,57,-3866,4927,-899
-97,-11,61,-980,6647,-1961
8,-120,-83,2175,6991,-2239
-64,-12,95,1968,8128,-1089
46,-53,66,761,7026,982
-1,80,107,-1782,5521,3746
-113,-71,-9,-1768,840,6277
92,88,78,-3839,-3266,7201
51,43,58,-3437,-7183,6245
11,100,-8,-4563,-8893,1825
-28,-84,31,-2340,-5436,-2740
0,118,9,-10118,-4711,817
104,14,57,-5677,4695,-2766
41,-121,-2,452,8633,-7716
-82,-22,-29,-846,6602,-6976
-94,127,-45,-394,5947,-6148
14,97,56,732,4425,-5557
86,-11,-119,2908,2535,-4259
30,52,-19,5497,716,-2203
29,72,-17,-3288,5549,892
-59,-118,57,3281,6501,3639
-36,24,-79,8356,7362,861
114,-19,79,8925,2860,-2202
-111,-38,15,1130,9883,-2192
-23,-27,-77,-8933,4884,12073
-118,120,77,467,-9229,2140
-91,80,-10,-3414,-9782,3558
4,-127,81,-2542,-12867,775
-84,-31,28,-93,-9748,3174
45,81,-112,883,7439,-4013
90,67,-68,-1903,73,1586
94,114,29,1142,1139,-2281
-90,31,-61,-1948,868,907
-63,17,-100,-1186,315,-185
121,-52,-11,-546,289,-1242
15,30,15,-2587,1309,79
10,-63,-20,-1184,1435,-546
90,-98,58,-3429,679,1544
63,104,50,-3020,2097,1918
-117,-56,33,-3070,2654,3000
-128,86,51,711,2572,1296
11,-47,-97,-168,2548,1869
88,-8,-71,-1672,2879,3637
-51,58,-45,-2944,2547,4960
-28,119,103,-3394,1867,3852
22,122,40,1747,670,2684
93,72,18,2455,-1356,1187
-92,-10,-43,-969,1698,1036
-61,96,53,-8143,-58,2613
-39,-29,-87,-6948,2016,1474
-1,-70,97,-3976,5607,57
-82,96,99,-2565,6315,129
-97,-38,20,1506,6274,568
-95,-87,-88,221,6656,1151
80,-116,53,70,6032,2142
0,-106,-94,-282,4739,3523
107,-34,75,-858,3063,5010
10,-21,35,-551,728,5678
-33,74,10,-2423,-1975,6151
72,109,-43,-2102,-6353,5070
7,-48,-66,-1742,-9320,4130
-10,67,14,-3670,-8270,1583
106,37,11,-5236,-7409,-3759
-6,111,0,-6745,-5154,51
54,-23,94,-9929,8961,-4171
-119,-30,47,2713,6109,-9327
45,83,-8,-664,5377,-8863
14,9,-81,-829,3830,-6859
-22,81,11,1070,3104,-6304
-54,-40,5,3177,601,-3606
-89,39,126,-295,3138,-1289
59,-44,-67,711,4988,1253
47,-78,70,4412,6974,2095
-83,-89,125,4765,10447,-738
61,-83,109,7481,3866,-2933
-72,-26,-12,-2735,11036,1595
91,-110,-15,-14505,3331,14712
-14,-25,24,3462,-10754,-2421
94,72,-36,-3866,-10231,3318
-73,69,103,-4674,-10520,851
76,89,101,1536,-11011,184
12,-38,102,-3171,3708,2013
96,1,98,301,3686,-1916
-105,-63,-43,1030,1092,-1996
63,-88,90,-473,1641,-1067
-71,-19,6,-1590,2239,28
27,126,67,657,1523,-456
119,61,-3,-1374,2391,1177
-71,-83,-56,-484,4887,562
4,97,-25,-2101,6014,2135
-120,43,-47,-6615,6954,4674
9,-124,57,-1183,1886,4267
-28,7,17,-4033,2243,4437
-55,18,0,714,1254,1978
10,-65,-122,1342,1651,-436
-81,-116,-56,-3221,1420,1504
38,14,-87,-4055,153,1115
-18,84,102,-294,-297,-203
-22,69,104,-2628,4034,-2723
-32,73,-69,-1671,5427,-3364
-19,117,-40,54,5644,-3654
117,-104,19,1290,5516,-3476
101,-41,-3,1020,4833,-3029
-84,80,103,2251,3834,-1910
44,-2,59,1685,3863,-1015
-9,120,-52,-2,6168,350
-116,-9,86,-2262,5008,5419
65,22,33,2786,5139,7096
76,77,-66,-356,3970,9650
105,57,41,5759,-2685,7113
30,13,122,-17604,-3400,9411
113,-82,-96,-4559,-5369,-5021
71,-11,72,-8841,-2718,-4363
16,-42,86,-870,-2530,-8543
20,-119,91,-3997,-1894,-5836
108,127,55,-2743,383,-5451
112,105,-46,-2186,137,-3237
-25,-68,59,-2104,3694,-1830
-78,-41,30,-1033,6884,-702
-87,17,41,659,9399,671
76,54,93,5505,8091,-1111
-93,28,25,5204,5567,-1517
-47,-44,122,-2378,10813,469
5,-53,3,-8843,1433,9864
-72,-70,-49,3246,-6657,1228
-28,-55,114,-3502,-9086,5849
99,115,-39,-1542,-9008,2912
-111,2,75,-1222,-11147,4854
-109,52,4,-1439,5981,-734
-78,-17,33,523,782,-1205
-13,-8,25,1172,1395,-1534
-93,-16,-39,-314,1712,-841
-80,104,109,106,2482,-1256
-21,8,-90,-1866,2704,822
69,-121,-22,-293,3582,172
102,66,35,-1765,4482,436
-109,-60,33,-752,5017,121
-69,76,106,-2260,4676,876
-77,-76,-118,-30,4307,560
-65,-45,-109,-4366,3417,2173
-92,39,92,-2686,2350,2847
-80,54,18,-4270,1825,2148
-100,95,-8,-3050,2441,849
-74,103,0,-2482,1189,763
-87,-120,25,-2456,-338,963
-80,124,-32,-1764,-343,510
-59,76,-68,-667,554,-870
-44,51,-96,765,900,-1646
123,119,-117,-5342,1988,-1180
-119,61,86,-4554,4250,-2047
-114,-4,80,-2834,5308,-2831
87,-82,-120,-676,5697,-2464
-59,-77,-39,1960,5973,-3269
-29,-117,93,1725,5115,-2297
98,-45,115,3298,5604,-2164
-32,-65,-109,2316,5513,-907
-66,28,127,-1834,5430,2813
-73,-75,88,-320,4002,6726
-126,33,30,5534,753,7752
-118,-117,-105,4705,-958,7320
-8,68,26,-6720,-3434,9743
63,14,64,-9684,-3908,3555
74,62,43,-11448,-1750,-3712
109,-65,62,-1015,274,-9008
44,-12,51,-3963,-271,-7177
101,-34,-52,-1565,376,-5886
42,-104,-29,-973,633,-4250
74,48,52,156,1105,-2652
21,93,109,565,3098,-1512
66,-104,110,555,4664,-1393
-30,-92,31,5235,7572,-1956
43,-88,110,2461,8117,-4339
-29,-93,82,3000,6099,-1716
-32,-67,11,-3182,8215,4322
53,28,82,-6202,306,9880
-69,-43,6,666,-7085,2004
-90,11,-87,-1648,-6025,2270
30,-70,-106,-2031,-7178,1265
-40,65,-105,1569,-9375,1182
107,4,85,-3770,674,2440
22,-98,-92,955,1774,-1942
-22,3,125,1085,928,-1054
35,-8,9,-636,2774,-949
67,-9,80,-1306,3012,189
-117,83,117,227,3089,-102
103,-36,-122,-3943,4894,2346
53,12,62,1518,4943,-968
3,-122,109,-2633,5401,1520
59,-112,121,-3909,5326,3027
-22,-64,86,2764,3030,641
93,102,119,-602,4330,-705
93,119,26,-3812,3544,1275
7,-63,71,-1720,1163,1684
21,-76,123,-1534,253,1130
33,-95,107,-1566,135,586
30,-111,93,-1971,153,201
30,103,59,-1982,156,-274
46,62,26,-1068,355,-773
-49,-78,-60,-6894,-170,1414
-76,-38,34,-7127,2189,2
-69,71,-47,-4595,4692,-1989
-125,-35,30,-2270,5868,-3154
-3,95,30,-187,6460,-3314
107,79,-60,2755,5870,-4208
8,34,-12,2017,5611,-3272
-45,-89,-110,-2908,6871,-350
-36,54,17,-1654,5277,2385
91,-40,-15,-2535,3488,4879
59,36,69,-3875,-381,8203
-60,36,-49,-3694,-5282,10073
75,72,-29,-5345,-7069,4602
47,-16,-41,-4065,-7623,-2559
108,52,-38,-14177,-3847,-1090
86,-80,-61,-4103,4853,-4582
-3,-77,35,1620,8005,-8987
2,-60,-96,1914,2793,-7249
-88,-20,-117,853,4003,-6732
61,-98,-83,758,3499,-5538
-45,38,-105,2922,1386,-3384
15,9,-81,2819,2115,-1679
-21,41,55,1671,4030,174
-12,24,-108,1644,8426,943
-2,-86,-66,3942,7600,1320
-1,-17,-41,11296,86,-4732
-17,-124,101,-5557,12917,247
-28,-73,98,-2180,750,7070
32,46,107,-4422,-2948,5850
40,-71,10,-1207,-6525,1665
-84,114,-109,-1272,-9309,1523
95,-102,-80,-2782,-9061,968
96,-127,9,364,-8954,1741
33,14,95,-1684,5325,-756
-2,40,-5,620,2223,-1358
-104,-34,52,921,2355,-1922
-7,-122,-81,-592,2928,-1135
90,119,114,-1069,3200,203
-38,81,-123,-633,4163,170
59,49,-118,-2540,5097,1012
96,37,55,414,5306,-814
-20,-4,-105,-1954,5187,992
-48,112,33,-3142,4072,1912
-99,97,95,806,3410,128
-82,-3,52,643,1294,-808
23,-71,47,-3303,1583,835
-17,109,56,-1621,2684,165
21,-80,102,-2103,2168,623
42,-92,96,-2913,1324,908
48,-116,70,-3317,299,996
-61,-60,-39,-7419,-115,2335
-77,10,-112,-6591,2023,330
11,-20,123,-3343,5346,-2373
97,-122,76,-1647,5924,-3348
49,120,44,-1153,5501,-3300
18,-19,-47,512,5539,-3521
-93,47,101,2571,5201,-3703
94,-3,-63,2642,4836,-3487
119,-88,-18,2020,4989,-2482
16,29,-127,2449,4593,-1054
58,41,-83,1005,4638,1427
99,1,68,1334,6455,4726
112,19,-19,984,6249,7259
64,-1,7,869,1806,8776
59,-99,119,1593,-28,7451
-23,-73,35,-20620,-3265,5889
51,117,-36,-2738,-8370,-4565
-105,-86,-32,-7411,-17,-6103
50,78,-75,-1352,-1399,-7631
-64,14,-86,-3768,-344,-6098
28,-44,-79,-1808,752,-4919
-2,10,20,-333,899,-3668
108,37,86,-187,2705,-1519
71,79,107,-293,4770,-622
44,70,97,610,9124,-84
-6,34,11,1931,9557,-205
-34,-16,97,8785,4165,-2067
-104,117,101,-4779,11911,-77
-1,-112,-109,-6777,818,9347
21,28,105,-1169,-4942,2727
-103,104,-14,-4225,-8301,3289
114,-6,32,-3127,-7538,-785
40,84,-57,525,-11287,-789
-100,-112,-81,-651,-6671,-2862
46,103,69,-1294,2602,2510
13,73,-68,-331,4915,-1984
75,125,-78,-377,3085,-1146
-126,118,-33,1288,3274,-1613
-6,-46,44,-1072,4245,-409
114,-10,6,-1185,4967,445
-105,-30,79,-878,5107,-386
-26,1,1,-788,4233,-167
10,-45,-106,-283,4308,-118
-30,53,-4,-1669,3998,108
4,-90,-69,-2679,2988,940
-33,-92,13,634,3186,-1042
13,108,-103,-2479,1796,45
48,-2,-36,-2263,900,931
44,-59,-33,-2069,998,591
34,124,-17,-783,460,-65
-35,33,-80,-7773,2541,-1308
27,-79,-61,-2677,5017,-3169
-46,-80,124,-905,4319,-3793
-112,-123,121,32,4896,-4383
24,-70,85,1201,4603,-3619
-30,27,-125,2160,4815,-3150
-110,-4,-55,767,6099,-1486
51,-20,26,-729,6546,513
78,17,-109,-1546,5735,5082
-23,-12,56,-4928,2972,10414
106,117,-26,-1528,-4249,10441
28,-100,-1,-8190,-8518,5091
32,-76,-69,-16823,-6088,1728
29,4,-103,-9712,8222,-6891
-82,-24,13,4381,6671,-8579
38,-64,127,1696,3549,-7528
-59,68,6,1984,4021,-6704
48,-126,82,3643,1611,-4976
2,55,-27,659,2202,-651
-111,35,-23,1225,5950,-52
-30,0,70,-786,10132,3142
-44,-54,59,5603,5038,4449
-66,-27,87,9718,3692,-3063
3,-117,-116,4405,6861,-2277
-119,93,74,-13767,2302,13443
-104,-78,123,3531,-8554,-3131
-122,-2,-74,-4365,-8130,2713
-2,-47,-36,2524,-11595,-2686
61,-82,-32,-1499,-10502,2733
-71,-53,-61,-1032,7032,-69
49,117,-66,-224,1925,-1514
-120,0,-10,2760,-195,-2164
-87,38,32,-2414,1904,1060
82,40,13,530,2459,-677
44,-115,-60,-2354,3170,289
109,-114,-4,837,3057,-260
6,102,23,-1913,4572,831
-80,-99,43,-2611,5092,1592
-37,79,-7,-1039,5027,539
32,-13,35,1393,2619,857
-89,-57,104,-6093,3378,3883
15,103,-44,-1663,2123,567
105,-62,-92,671,3267,-602
-83,59,95,-1469,2841,766
-79,58,-115,-2934,1183,2076
115,-88,108,-2717,-107,1274
124,-82,54,-3106,-130,437
-126,46,-14,-897,162,-738
-97,-122,-20,-1775,852,-950
-92,-108,-53,-1722,720,-662
115,-29,-12,-7201,721,745
-79,-122,-89,-6280,3061,-640
69,-80,-41,-3223,6217,-2560
6,121,56,-823,5533,-3279
-34,73,41,895,5758,-3973
-35,-36,-5,368,6395,-3412
-30,75,82,-749,6949,-1571
92,90,-71,-2282,7213,865
-85,-62,14,-3716,6233,3863
-72,84,31,-5054,801,7916
37,89,-33,-4884,-4731,10470
-75,13,-23,-7022,-12234,9635
-98,-6,-76,-5534,-6338,-4720
-36,116,93,-12088,-6806,-563
-101,-109,54,-6378,2428,-1755
102,-109,-1,-1640,11246,-8305
63,90,63,5728,3748,-9269
-73,-121,3,355,3074,-8132
85,-1,67,-1753,4519,-6572
75,82,-97,1314,3309,-5275
86,50,-97,2297,1755,-2511
51,61,-91,955,2985,-1104
81,83,-38,439,3646,-173
-68,22,126,2148,9163,95
-47,120,61,3367,10254,-2136
21,49,38,1967,7747,-1772
9,-110,13,-2026,7967,1117
-93,111,-20,-13281,5283,12385
99,13,123,2133,-6110,586
85,-37,78,-2277,-5754,612
94,-74,-5,175,-8434,583
-7,42,-101,292,-9302,946
10,114,-9,-210,-12692,2292
88,-82,9,-3635,3095,2557
3,-25,-71,-941,1008,-2335
115,74,-85,2231,-1360,-1932
-29,-102,117,-725,787,-782
-74,-90,48,-1686,365,368
-124,113,44,178,-103,-418
-63,-41,115,-1081,1462,-11
-92,-52,116,-854,1625,-363
5,-30,-126,-678,2895,375
17,-8,74,-636,3516,-197
98,-106,40,-1099,2779,-537
121,-1,9,801,2649,-1439
12,-46,100,-1750,3132,-341
73,42,123,-615,4802,-1107
42,-116,114,-817,2745,-702
-106,-128,-91,-940,3769,251
-93,-47,50,-2599,3768,865
-34,-7,-65,-3138,3827,1299
-77,-98,-62,-4827,2596,1953
-98,25,-89,-5123,1933,2691
78,-68,-113,-4550,312,2469
61,-100,-124,-5006,-439,1864
74,44,4,-1776,551,1086
57,112,13,-1306,456,-58
65,112,-27,-520,245,-971
96,119,-40,-233,329,-1091
110,-118,-65,-519,521,-1145
123,-112,-98,-796,581,-1061
-94,-93,125,-1009,572,-787
-55,-72,82,-1008,594,-665
-53,-69,56,-693,612,-991
-28,-50,35,-524,592,-1100
-7,-32,26,-617,580,-962
6,-13,13,-645,471,-682
14,24,7,-710,284,-311
21,47,3,-769,251,-192
39,81,3,-783,257,-53
46,104,4,-762,279,64
44,-128,5,-716,289,48
53,-102,5,-619,328,28
66,-83,0,-593,488,-64
70,-71,-15,-330,589,-351
74,-60,-18,-246,508,-547
75,-49,-19,-376,514,-553
75,-42,-17,-458,461,-495
80,-54,-16,48,560,-358
66,-20,-32,-74,517,65
116,37,52,-4166,-270,1960
-59,26,94,-7312,-18,1563
-64,-35,-48,-5380,3058,-763
52,90,63,-3906,5810,-2543
74,67,21,-2577,5644,-3339
10,83,70,-1587,5433,-3122
-76,-51,87,49,5559,-3583
-89,78,70,1035,5177,-2719
-8,98,14,-745,5601,-1307
35,-23,-118,797,5317,102
-52,-118,80,-1980,5412,3189
75,-77,120,-3530,954,7562
7,43,69,-1157,-2762,9550
53,56,117,-6811,-6974,10174
63,-118,-23,-7590,-8015,-1086
-123,126,-36,-3437,-6480,-730
73,8,42,-17057,772,-806
122,20,63,2184,7601,-5635
-128,124,-36,-1132,7605,-5785
45,110,-123,1800,3932,-4608
57,-51,-64,1415,6055,-5484
-55,70,62,2377,4600,-5343
55,-41,9,3774,2025,-4305
-83,-105,59,4065,1185,-2491
73,84,-21,2842,1870,-1505
29,65,-53,1878,7017,-1877
44,-6,-105,1211,10303,-1774
-74,-10,73,5056,6668,-1269
94,23,46,431,10908,-2944
32,103,-11,-9522,7958,8478
-36,-121,15,576,-3174,3269
125,106,-35,-5012,-3629,3590
87,10,93,-273,-7994,-1595
-4,60,57,-622,-8246,602
-45,1,-66,-955,-9460,1425
106,32,126,-651,-10179,2102
76,-85,-22,1310,-6833,1752
-55,-13,-45,-1342,2938,-514
104,-49,-95,-502,1624,-786
-65,-65,14,400,460,-1190
36,-67,86,-489,1848,-1124
84,-68,96,-748,632,-485
125,-88,124,-167,1168,-193
-67,-32,-64,-105,1860,40
-29,34,-100,-320,2524,-87
76,90,-16,-621,3007,624
-99,101,-19,-1091,4524,501
-66,-12,-55,296,5041,-334
15,-87,-124,-1384,5085,429
4,-122,-64,-1363,4601,653
51,-87,-35,-2305,3710,1576
105,79,-112,-1936,5108,1821
87,-122,60,-2748,3715,1572
-108,-60,-110,2734,3757,1163
93,76,-33,382,1713,52
-122,-111,73,-4345,1537,1245
94,-88,104,-3759,1735,2034
39,-95,119,-2155,74,1579
1,-89,119,-2542,-445,270
34,-98,47,-2714,97,-200
33,120,-6,-1812,637,-368
36,89,-54,-465,829,-756
49,96,-65,407,619,-1083
77,112,-75,296,537,-1094
-120,-111,-85,-564,597,-767
-108,-119,-116,-730,637,-667
-71,-125,106,-528,596,-566
-61,-109,91,-395,622,-530
-53,-92,76,-401,640,-570
-10,-69,54,-541,676,-421
-77,-115,-90,-7420,-386,2152
68,-22,37,-7819,-3,1188
14,-122,-111,-7207,4772,-61
-82,60,-39,-3911,7072,-1915
55,111,74,375,6205,-2031
-85,124,-69,293,7826,-2808
47,-36,110,1862,7035,-1626
-94,40,-73,896,6088,231
55,-69,-34,3468,5731,452
16,-51,-105,4238,4941,2314
56,-72,-47,-7392,5733,6797
-71,-63,127,-4422,-2015,11432
-110,112,-13,-9510,-6224,9643
-107,-95,106,-6169,-8276,468
110,72,89,-11119,-7443,654
70,-86,85,-11427,6782,-3336
51,-69,109,-698,8103,-8072
2,-122,-121,-54,6562,-7144
-47,20,-34,101,4923,-5264
62,-1,-13,1482,5990,-5295
-34,16,86,2512,4034,-4421
-30,-17,56,3151,2153,-2780
-122,-59,35,1703,3174,-1464
-50,-79,119,88,4538,94
-72,118,-81,836,7962,809
-66,-94,23,4482,7712,499
57,-10,-65,5000,7290,-2559
-71,-103,88,-1542,11553,539
-4,33,-10,-7412,4534,10070
9,62,-46,797,-4465,3441
7,-54,-76,-2988,-4432,3507
56,-104,70,-3126,-10359,2170
-36,-6,-20,956,-9765,26
15,-22,-15,522,-9575,2311
-61,-71,-13,-2982,3064,-800
2,-34,-110,-1954,-18,-465
-28,-55,-14,1962,-2131,-820
115,83,-53,-1133,515,-283
16,55,84,-412,-109,45
-18,-102,86,-1466,521,310
-45,-80,110,-742,48,-281
-76,-112,-79,11,-131,-558
7,-115,-61,-439,1229,-602
80,1,-5,-1814,2517,176
-3,-78,1,-175,2632,-713
-87,6,-107,-710,4627,-709
-29,86,-45,-670,3841,687
26,64,101,-717,5778,102
-3,-5,-29,1859,3422,714
112,-52,-22,-2026,5629,1158
-73,-96,-13,-2496,3790,1863
-97,-16,53,-1262,3696,616
-49,-39,22,-766,3708,432
122,72,-112,-4864,1667,1103
49,-99,-105,-5064,827,859
31,-94,46,-6564,1087,1108
16,120,-89,-5837,939,972
20,86,55,-2543,752,224
42,85,76,51,577,-600
90,26,106,-2208,930,-468
106,-48,57,-654,511,-637
117,-71,54,471,481,-844
-110,-24,64,148,527,-681
-93,-28,57,235,402,-522
-75,-6,63,-293,331,-266
-53,34,61,-1137,337,4
-45,43,52,-1145,272,79
-43,73,58,-1249,324,64
-55,88,47,-797,450,-237
-43,108,45,-661,767,-428
-28,106,27,-6,563,-602
-1,-102,28,-621,636,-610
5,-123,18,-196,599,-719
5,-120,30,-75,440,-612
13,-90,44,-563,435,-422
24,-105,35,123,375,-624
44,-89,35,200,302,-481
50,-42,52,-722,243,-76
20,-23,66,-933,66,83
19,4,71,-1096,316,181
23,105,87,-2167,125,503
66,113,-85,-4963,-123,1067
-60,-2,-35,-6191,846,530
-43,-75,124,-4858,3287,-925
-21,106,-87,-4097,5888,-1497
62,-15,123,-1645,5925,-2068
-61,-40,109,-564,6564,-1686
-39,-116,70,117,6783,-967
-58,22,-53,1120,6893,-379
70,-24,-100,-2607,4755,3358
-116,-23,50,-2758,2323,6812
66,-108,67,-1898,-1274,6931
121,82,13,-2842,-7503,7687
75,-26,-104,-2972,-10635,4918
-4,-81,-62,-5908,-6670,-1784
124,-33,-61,-6176,-6031,-2089
114,57,18,-12513,791,3420
-108,18,-30,478,11354,-7455
97,41,-23,183,7241,-8612
-19,120,90,142,4451,-6133
0,30,-41,-1137,4988,-6043
-23,-4,-42,331,2862,-4810
42,-125,99,3875,601,-3351
126,1,-99,5486,530,-4079
-68,47,47,3128,2862,-3999
126,-128,25,-627,9145,-1460
-110,94,54,-1418,11918,1944
45,-16,75,6129,6908,-1337
85,-111,5,6490,8512,-5639
113,-89,-44,-11726,7787,10675
4,82,-17,-1019,-4725,6320
1,-122,-98,-333,-5045,1898
-79,104,62,-473,-9222,953
102,-13,-32,-742,-8725,1214
-127,-42,-113,368,-8039,-149
17,51,-48,1433,-2911,167
53,66,-107,-3966,3159,1185
115,-41,-33,2064,-1491,-1042
-115,-42,-74,-35,1379,-1636
-39,-77,113,-1322,1457,-466
-15,-119,34,-557,1839,-581
14,-2,103,-1280,1627,251
69,-87,116,-709,2335,-167
-128,42,-89,-1930,2843,490
-75,101,-126,363,3693,-971
-66,67,-119,-2133,4062,139
-51,-60,69,-116,3337,-594
52,108,-55,-953,2796,568
45,64,-91,-1283,3786,285
87,-42,49,-2673,3327,1280
81,34,-42,-37,3271,13
-108,55,53,-938,3479,176
-114,102,-79,-3035,2442,1439
-66,35,87,-3885,3100,2851
105,-92,113,-2459,1605,2093
114,121,-108,-1806,1267,1064
111,-68,97,-3662,1517,923
63,-112,17,-3883,790,541
43,74,-43,-2363,-117,-436
84,29,-71,-179,262,-723
82,74,-49,263,369,-935
98,100,-64,-258,610,-979
-118,105,-92,-520,620,-799
-64,110,122,-496,628,-524
-55,-125,106,-651,396,-519
-32,-107,89,-745,416,-638
-20,-107,76,-458,501,-737
-10,-89,72,-521,443,-613
10,-51,56,-901,393,-316
17,-35,40,-943,398,-218
23,-95,-106,-5920,-759,1764
85,121,14,-5640,2607,744
-67,-86,82,-4980,6547,-1013
-125,-78,25,-646,6474,-2446
-105,-101,52,1033,6455,-2254
83,-83,-111,-498,8168,-1010
122,82,6,-765,7260,1654
102,-49,31,-2329,5610,4091
-76,87,-3,-2923,2462,6843
95,119,37,-2575,-1625,7717
58,117,36,-1407,-6410,7242
-55,98,-37,-2122,-9442,6601
78,116,68,-3434,-8610,421
101,-102,34,-7828,-6429,-519
31,-89,-95,-6969,-3191,281
108,34,-34,-9524,9519,-4620
-97,98,-82,-528,8753,-8757
-29,94,75,-127,4147,-7307
-103,60,-43,-2027,4280,-5232
-67,-104,101,166,3596,-4824
101,-45,113,1199,1747,-2877
-56,-25,-121,722,2326,-2083
-86,42,-14,-59,2704,-526
-41,107,-89,4162,4099,1553
10,79,98,4740,8914,324
3,90,-57,5350,6820,-15
-89,-35,35,8153,5558,-4532
117,33,71,-5491,13807,4775
-22,1,-125,-7554,-3675,9411
50,32,18,3058,-7951,493
-114,49,-54,-4514,-8631,4600
-107,-122,34,1975,-11557,-1494
-118,-108,93,-477,-11348,2164
86,58,114,-3429,3748,1070
54,52,-13,539,-1427,-57
-61,95,51,496,-242,-576
108,-103,-2,81,822,-983
-20,118,-93,-390,1999,-760
40,-4,104,-2246,2558,566
103,109,80,-458,4561,-165
20,119,53,-3328,6178,1993
-44,-26,49,-2510,9709,1992
-25,43,41,-5921,4933,5202
49,106,60,-1504,3522,5489
-98,126,-8,654,1893,3013
26,15,-25,-2694,2570,3338
-69,-18,80,979,272,1002
56,70,-94,-1283,646,1577
-32,20,120,-2601,1331,1081
-69,-43,-121,-1885,234,778
61,11,75,-8806,-356,3585
-17,-24,-23,-9102,-147,4659
-97,-4,-47,-5540,2620,4015
36,-34,-113,-4526,8010,524
-70,94,-123,1486,6234,-1939
-69,-119,111,3181,4830,-1586
-91,117,-73,136,7408,-493
-13,-32,-4,1978,5995,408
-123,86,104,496,6362,1778
10,-77,-21,-196,4491,3818
-110,-118,-118,-1750,1990,6322
75,105,-73,-1533,-3316,7566
-114,110,77,-3173,-7612,8029
-10,-120,27,-4586,-11930,5358
122,117,-109,-6091,-5207,-3773
-64,100,25,-13024,-5709,1478
68,-120,-121,-7838,8696,1669
27,-93,55,-1715,10882,-5698
90,88,-75,2553,6115,-6770
26,29,54,720,5985,-5758
-95,64,-38,772,5102,-5469
-55,7,-66,1785,3314,-4373
-85,-52,69,3210,1350,-2980
-60,98,-80,-1646,6169,-726
64,-82,127,-3475,6982,2934
33,-8,41,4190,7029,4774
64,82,16,5988,5432,3310
116,-51,28,7797,6410,-588
77,16,40,701,8718,6031
-105,-31,10,-21559,1947,16403
93,45,-117,8997,-6569,-6574
-94,-101,-31,-4729,-6400,-340
-90,-30,-87,850,-11235,-2140
6,-79,11,1481,-11544,-1085
-70,-10,105,-963,-14096,2116
98,-125,-103,-1943,5116,2230
96,-65,-86,-776,2016,-1066
-83,-28,-44,869,-554,-2104
4,54,-49,-722,2164,-1342
-50,33,60,-1354,2493,-234
127,31,-42,-625,2579,-107
-50,-101,-25,-1926,3432,794
-55,-91,88,1536,4499,-1588
61,-19,-85,-2107,5245,-288
-117,56,39,-1335,5116,134
-115,-8,-116,-2215,3295,1421
33,-82,-17,-1149,4740,1530
9,-97,116,-438,2680,447
103,64,72,-3242,3474,1725
61,-88,46,-3247,3456,2162
56,88,88,-5174,1373,3354
-29,-96,36,-1972,1366,1164
33,108,-125,1722,-17,-414
109,65,-78,-1434,473,211
75,-19,123,-884,213,-508
94,-27,111,-898,281,-838
123,-58,69,-342,696,-1019
-125,-41,57,-547,750,-1056
-103,-60,20,-402,841,-1080
-61,11,15,-1497,360,-511
-49,-20,-15,-840,486,-693
-28,-21,-22,-81,473,-762
-11,32,-16,-545,521,-467
-25,52,-27,-734,349,-551
-6,75,-23,-754,244,-488
24,91,-18,-511,445,-404
36,96,-39,-75,532,-365
21,-83,-22,-977,186,-77
35,-60,-24,-1402,112,38
47,-44,-28,-1245,300,-116
42,-52,-48,-456,540,-589
54,-33,-49,-356,602,-649
58,0,-43,-838,400,-358
68,19,-39,-900,351,-244
89,31,-39,-695,472,-382
80,37,-37,-291,420,-604
71,50,-27,-411,337,-556
71,65,-18,-639,382,-372
75,66,-17,-493,473,-275
96,82,-20,-549,462,-190
92,103,-21,-581,422,-282
80,107,-17,-474,469,-540
92,97,-26,-235,573,-530
93,115,-28,-412,336,-192
84,-104,-10,-1060,130,84
106,-86,2,-1162,355,-57
119,-98,4,-517,549,-507
114,-96,0,-221,429,-720
105,-79,3,-568,331,-570
98,-75,12,-778,350,-398
100,-70,21,-719,404,-334
100,-62,22,-623,427,-455
99,-65,25,-549,471,-430
94,-67,24,-461,410,-401
95,-55,25,-628,400,-239
91,-48,29,-747,358,-71
89,-27,35,-974,257,93
93,2,51,-1184,267,162
102,26,64,-1379,242,191
106,57,82,-1617,253,195
-108,-101,68,-6512,796,1520
-117,-128,112,-7461,4005,1167
79,80,-95,-5433,6664,-247
29,84,58,-3262,7503,-332
-75,-1,-116,-918,5493,554
-31,34,-104,-975,5669,2099
67,25,-25,-358,5015,2714
-107,55,-120,1844,3655,3022
29,-5,4,952,2950,3696
42,78,-55,84,911,5557
64,-89,-108,-1564,-2202,7212
-82,82,-3,-3057,-7795,7740
46,-100,-22,-3898,-11179,4325
-63,-100,22,-9545,-5213,-4836
5,106,-8,-16126,-3849,1257
-52,-10,-60,-8149,11368,-733
16,-95,13,5995,9555,-8310
-94,37,39,-582,7276,-4435
75,-25,-79,1551,6297,-4523
-45,29,90,-2162,5657,-2164
-25,14,-117,382,3054,-778
47,-6,18,3949,2175,-1052
-101,-103,-127,2362,3457,375
35,88,-55,2939,6479,3804
-56,107,60,2365,7976,5087
-4,-106,-51,11830,2300,2030
-3,5,82,11985,4981,-3096
99,112,101,-17318,11805,11873
76,-54,-49,-515,-4733,4951
-68,12,-64,708,-7594,847
-124,-41,124,-4452,-10639,2449
27,-76,-102,3632,-13553,-1927
-51,116,31,-97,-14086,1309
-102,96,-27,-2608,10010,-73
-93,-102,51,-1353,2168,717
1,70,-116,2578,1721,-3662
71,118,69,-2329,2074,16
-111,-11,-27,-1560,3403,-875
36,74,-19,-1920,3567,176
-108,100,-50,-2861,5729,1014
-40,-119,59,-3512,5825,2489
21,-115,-91,-5457,5845,3912
48,-54,-97,360,2924,3070
-92,105,-91,-4950,3754,4694
43,-40,37,-3203,341,3391
100,17,-76,731,580,978
-110,-96,97,-1169,186,1344
-107,61,48,-664,1185,517
-83,18,57,-503,763,-52
-78,16,69,-889,14,-263
55,5,14,-8730,1155,3145
40,98,-24,-4405,1785,276
87,-100,-76,-7058,5964,-1173
-117,7,61,-2313,7910,-3573
-31,-89,-99,-3612,7560,-2821
32,-128,-6,-975,6491,-1076
-113,-115,88,208,6960,-904
44,55,-31,-2102,5466,1073
87,-103,119,-1845,4306,3460
3,42,34,-1980,2878,4259
-61,-17,120,-3597,-305,6700
-78,46,105,-5497,-7650,7536
-26,107,-59,-162,-11377,5499
51,-108,70,-8429,-7386,242
99,40,22,-3054,-7305,-6613
-123,18,-71,-18001,2801,1608
87,-31,58,1119,9547,-6693
-100,-30,-33,-1294,9508,-6674
64,9,52,4734,4667,-5853
45,-96,29,1639,5435,-6066
-123,67,92,1443,3468,-4649
101,63,64,4580,2766,-1866
-7,-54,110,1487,3081,1128
-52,-35,-121,2251,7835,3878
-32,-26,-102,3860,11825,3523
-127,26,24,21453,-709,-3865
88,126,-100,-18241,22266,2812
-99,-124,-66,-3464,-12026,10790
93,123,-56,1015,-5756,-3062
83,-68,-102,-4868,-11213,2325
-40,31,-95,1328,-11633,-2013
-36,22,89,491,-12853,1083
-115,-18,30,-3045,2486,4114
-80,-8,90,410,4615,-1182
100,-76,73,1035,4573,-1978
-109,108,41,362,6097,-2316
8,-64,-57,-472,6023,-878
120,-34,83,-4627,6559,2960
52,8,-22,-831,4789,1545
-58,83,70,-1448,4415,3097
-96,60,85,-584,2683,2061
-93,-75,-46,-2463,2789,1720
-25,30,-127,-1813,2030,1347
38,82,-76,-2329,1659,1588
73,35,-30,-1946,1399,984
-121,31,8,-1907,1034,643
125,-77,27,1387,-419,-580
-92,27,56,-761,128,-655
-65,-32,31,-724,601,-899
-68,-73,31,-117,470,-977
-94,4,-79,-6891,1566,955
54,90,102,-8122,1367,-695
-54,-55,-33,-9632,2658,-2148
-18,36,-25,-7207,6063,-1434
53,-34,-1,-3683,6448,-1243
55,57,-127,-1079,7094,-406
-85,43,83,-772,7034,567
105,120,90,-530,4970,3055
17,56,-74,-980,4385,4306
115,42,97,-1283,626,5843
14,-35,24,-5592,-4971,6998
-94,-28,-100,-464,-11473,5330
55,-93,56,-4918,-8743,2181
80,-53,65,-4688,-5490,-7028
54,-76,33,-12339,-2461,-313
-56,-101,-47,-4419,8725,-4692
12,-78,64,4095,8532,-7523
-26,-77,47,446,5695,-5206
124,-106,81,1790,5221,-4538
-109,28,-61,2071,3343,-2661
-82,-47,-46,-444,3950,-405
9,-73,-2,3630,3029,-138
-84,86,-73,2505,5387,1719
-37,-34,48,4483,5593,1527
-70,5,83,7216,2910,-428
17,-110,-99,5125,7177,-677
-101,-54,-64,3657,6136,1465
-59,38,-72,-8883,214,10849
30,12,102,1750,-6893,2074
15,126,-118,-1526,-8497,3334
-76,114,55,-535,-10984,388
71,-12,33,-2799,-10474,4840
105,115,-59,-758,6587,-1389
-67,-86,1,-357,2268,-968
80,53,14,900,679,-1482
76,41,41,-749,3143,-479
22,62,113,-825,3744,-493
14,114,19,-1911,4231,638
29,-71,4,-2922,5401,1725
125,-1,-71,-3949,5719,3131
50,92,15,-3365,4914,3879
-128,-72,84,-1621,1776,2604
-64,12,-125,-2892,1246,3600
-64,-75,41,-2200,1728,1917
8,-105,25,-967,982,1769
50,-93,95,-942,-32,1056
114,68,-126,-309,53,474
127,36,114,-422,1019,-242
67,-37,107,588,213,-796
126,-44,106,55,411,-573
52,-47,62,-5864,2477,-1153
-106,104,121,-6157,4564,-1516
-49,-26,-63,-2876,4510,-2547
-2,71,99,822,5872,-2857
-18,6,-96,561,6335,-2738
-128,65,19,2825,7072,-2297
118,-91,105,-744,8098,-643
58,34,-65,-504,6027,3245
6,30,-104,-4438,2455,9114
-21,42,-92,-3524,-3706,12945
-33,10,-30,-12824,-8834,3984
-74,-43,-124,-2250,-9135,-4591
-110,-28,-95,-14809,612,-406
7,100,76,-3195,7677,-5316
122,108,-65,3114,7145,-5994
45,-34,88,3796,5183,-6567
79,-6,100,2045,5133,-6387
-25,-90,-28,2864,2523,-4831
22,-44,37,4644,390,-2955
-20,45,83,1184,1776,-1592
-95,82,98,404,6670,-293
-4,-85,58,2360,11706,-501
-59,-56,69,10334,5222,-2640
63,-38,-105,-1328,9852,-2358
-83,34,-20,-8491,4504,9496
92,98,-126,-148,-5558,3267
38,-109,111,-842,-7242,2321
-72,4,16,-3262,-9659,2789
43,-108,-40,1665,-10058,-761
-44,-90,73,-875,-9331,4334
35,-68,-97,-1520,5701,-1148
-7,21,-14,-161,2080,-590
62,117,-15,1438,1784,-1839
70,-101,-92,-1135,3754,-711
-13,42,-23,-938,4195,-442
35,-125,-75,-1348,4416,433
-121,-42,-89,-3684,5971,1334
98,-26,20,-3423,4535,2505
-37,-95,66,-4744,4639,4360
-126,-117,41,-1874,2194,3201
7,-14,-31,-4095,1985,4260
7,-98,-50,-1039,660,2948
75,-124,40,-991,782,821
127,43,70,577,738,184
124,1,-121,842,166,-286
-124,-36,-124,267,515,-328
-105,-62,-119,-449,459,-225
-95,-86,124,-567,468,-277
-90,-108,103,-431,403,-369
-72,-104,77,-333,613,-490
-53,22,75,-8316,1879,-11
-118,-102,-39,-8792,3968,-822
-5,-55,-91,-6053,6012,-2097
51,111,-100,-1758,6124,-2627
-40,-85,36,-206,6322,-1823
29,26,88,1694,6752,-577
5,98,52,703,7906,1394
-89,33,-60,-1335,6244,5165
50,-76,-84,-2925,1986,8244
98,-87,6,-7252,-4121,10084
97,-120,-66,-7998,-12026,4843
100,-127,-30,-3923,-7325,-5388
-117,-24,59,-11870,-3375,-985
-109,63,-5,-11136,2693,-3159
-1,50,115,5507,8402,-6789
-3,-46,-60,315,8395,-7126
55,-75,96,2525,4138,-5413
24,-1,108,2629,4712,-5711
34,86,45,4703,2474,-5376
89,-33,17,-524,3914,-274
-51,71,-40,-5845,7657,3594
90,74,-120,4,6719,6735
-126,11,54,7900,3987,4374
22,7,-67,12118,2050,1690
23,-53,78,-1919,11703,-574
87,12,-34,-2972,-1750,6964
-92,-7,-12,-2065,-5049,236
119,68,-43,-2318,-10765,2311
64,-55,-45,-173,-10743,-421
29,-19,14,-438,-10948,901
-123,-113,-46,1463,-9793,2262
17,85,86,-2956,3869,1552
-123,-40,38,-814,2391,-1259
-43,24,-54,1258,1293,-1501
-115,33,-62,-366,3697,-745
23,-21,-85,-601,7186,-710
85,-104,-103,-3072,8218,1569
-40,39,58,-4290,7890,4789
-100,-99,-114,-4291,5737,5782
-27,17,-114,-3067,2632,6495
-34,94,-61,797,769,1545
19,-73,-110,-1298,748,1760
-5,-10,-38,94,572,-156
18,-82,-1,-724,576,-926
39,56,37,14,308,-1079
39,-32,68,292,373,-1249
80,-39,53,6,623,-980
125,-33,44,-711,599,-565
-96,-33,11,-691,438,-376
-99,-22,-4,-831,314,-790
-92,3,-29,-5986,-499,1841
32,96,32,-7928,-360,1274
31,35,111,-8219,2692,426
-73,-70,68,-6258,4593,-815
26,-47,27,-3017,4783,-1278
-15,42,16,351,6299,-1676
98,25,93,1216,7273,-1692
-91,-38,91,1005,8057,-73
2,122,97,-2529,7313,3217
-9,-76,-42,-1928,1594,6657
125,18,-117,-3073,-1794,8286
57,77,-45,-2410,-7895,6805
-97,-38,6,-5319,-9858,1659
-127,-66,60,-3574,-6052,-5781
16,-3,-27,-8917,-4393,-514
118,-3,51,-13857,5165,146
69,-56,-90,3435,9683,-6550
33,50,100,273,5860,-3900
101,8,-1,2602,6887,-5428
-54,-122,25,1118,6127,-4116
-75,18,-107,2799,3768,-3149
64,32,43,2248,2066,-174
105,73,64,1065,5444,1613
41,-122,60,626,8767,3581
-66,-100,-39,2509,6864,4065
59,38,-29,10405,837,788
-29,105,-61,13714,3605,-4175
61,87,87,-19338,8234,14669
-22,20,-128,3815,-7993,-410
0,108,-100,-2065,-8247,929
-108,-51,76,-1777,-11392,-630
-12,113,-81,866,-10883,-356
-69,104,123,-1289,-5572,4505
39,-55,-90,-1622,5467,-1120
-93,-67,-42,-454,2946,-687
-47,17,-74,217,5730,-24
-37,-88,-26,-819,7076,576
113,7,-75,-4026,10023,4474
46,-76,-23,-8008,6364,9290
102,-111,92,-3156,1465,8761
-33,-51,-27,-1103,-136,1253
0,-58,-100,751,-442,2097
62,68,-78,2865,814,-1537
119,84,-28,-916,1281,-834
126,122,-23,-101,919,-788
-109,26,-13,1123,533,-1386
-52,13,28,428,537,-908
-18,-21,45,-20,445,-931
-9,-43,30,216,449,-953
0,31,35,-990,208,-279
-9,-61,94,-5298,3253,-695
-42,-127,-113,-1449,5144,-2649
-12,-67,-68,-757,4942,-3544
47,-115,-100,1463,5501,-3471
-47,69,-74,2058,6159,-4154
52,-79,-16,2785,6208,-3500
-39,98,18,991,6780,-2045
-108,59,59,-1097,7237,1112
91,13,-17,-4964,3105,6693
40,-24,-16,-3082,-2128,9708
-77,98,-15,-9169,-9139,9298
-32,-28,74,-7131,-5749,-303
-83,-61,-103,-11463,-3254,282
-48,78,-127,-8421,2861,-2243
-5,6,-88,3022,10426,-7912
11,116,16,282,6562,-6096
-84,-114,82,2386,4442,-4780
-6,-73,101,2267,4973,-4788
59,68,117,3747,2019,-3518
-71,-9,-72,3759,1300,-2300
2,-59,-16,3357,3121,-1629
-92,-122,119,1971,7661,-2756
108,-34,-94,1665,8174,-1794
76,45,-13,4072,5339,-1373
-47,-3,-127,2960,7842,-1859
-108,15,-66,-8104,7181,9064
-113,83,-123,-2157,-1425,3756
101,-87,92,-755,-7220,835
79,-45,40,-3156,-6553,1208
8,-74,-33,-111,-7645,-1195
86,59,-65,760,-8375,-298
-75,-51,51,-31,-8089,1324
33,3,112,-3040,-808,3406
-107,95,14,25,574,-1070
27,109,-60,300,1375,-564
-114,86,99,-22,2922,-969
62,75,-53,559,4937,-870
114,-91,40,-720,6276,-75
-107,37,66,1052,6771,-767
4,-99,50,-4035,6498,2270
-10,-5,25,-3162,5937,2808
-43,98,-14,-772,3012,2890
56,-3,-48,-2132,2511,2540
-20,-43,-60,-2595,2203,2262
-1,2,63,-846,2360,588
43,64,-82,-3253,1305,1538
57,-33,-105,-1957,640,1174
74,-68,-102,-543,227,219
89,-85,-76,-152,410,-508
102,-98,-77,-182,257,-551
-82,-15,-124,-5820,4382,-429
-2,-95,-18,-2153,5240,-1710
-3,90,-40,1311,5877,-2736
67,-57,49,-207,7444,-1183
-122,105,-19,-204,8026,1213
96,-109,-11,-780,7176,3275
9,23,-73,-2434,2595,6456
17,-85,-123,-2272,-2487,9960
-54,91,102,-4667,-8434,9455
58,-52,-70,-8454,-9689,-705
-106,115,83,-679,-6513,-6216
-32,83,35,-14238,-3897,4278
-64,-46,126,-7972,9450,-3843
-30,116,-4,5252,8464,-8969
49,-123,-29,-309,4030,-5167
-88,2,-52,333,5505,-5114
79,-77,-128,1467,4616,-4368
36,76,54,2858,2747,-3709
-9,54,-95,2470,2038,-2633
61,74,-44,660,3567,-675
-46,35,79,687,6587,1558
118,-48,-27,4012,7944,390
-112,-3,81,8058,4528,-1942
114,-70,-102,3988,7680,-4026
-120,56,-80,-8540,11299,4537
-95,-62,-80,-5007,-4796,9053
21,-20,75,1607,-5447,-1538
-41,-95,64,-1703,-7542,964
59,-79,-56,-1526,-9002,1499
86,-98,123,843,-8633,-2057
3,-121,-70,691,-10598,1847
74,-67,-58,-1516,812,2399
108,-128,-85,-1650,3546,-1646
59,106,121,1556,-227,-84
-20,92,72,235,4143,-538
-127,72,-81,-431,6005,-1011
-1,105,64,-714,8554,-142
-65,-103,88,-1186,6113,667
-21,78,70,-600,5419,1751
-17,46,19,-1701,5526,1842
15,88,-119,386,4176,1241
-69,-124,97,-3342,2597,-246
26,124,115,-1208,2794,787
41,126,-37,-6402,2141,3151
5,-80,58,-2773,800,2571
29,-55,-117,-2354,-2,1186
62,-78,-110,-1669,413,-158
73,-99,-109,-679,817,-648
89,-122,-110,460,437,-1255
120,-110,-118,200,365,-1302
50,-74,85,-2195,5713,-2073
112,-117,-110,-515,5390,-2422
-82,-60,-122,112,5716,-1145
-128,-88,24,955,5840,-643
30,-101,-121,1470,6399,402
-42,-54,-13,1288,5744,1998
106,44,109,230,3781,3973
99,91,80,-409,334,6353
-83,-74,45,-2535,-3211,7866
98,-121,-118,-5627,-7584,7290
-76,-88,-111,-5089,-7837,-2404
29,97,1,-8569,-5138,768
-42,39,14,-20871,3690,2931
-127,107,-55,8977,9897,-7974
-69,29,-56,-4751,6475,-3518
18,39,-57,1855,5192,-1414
-92,120,32,1034,5732,-3019
81,-3,-40,185,4648,-684
-105,-39,112,1946,4471,-340
-43,-64,13,4448,2888,-202
-74,65,-38,7001,1626,-231
33,-97,68,8213,3172,-1751
55,46,-113,7760,7832,-3329
-104,90,-14,7670,5718,-2857
-39,69,-17,-8809,11554,2532
9,103,94,998,3544,4423
-112,48,-86,590,-5911,2554
-38,32,102,-3673,-5637,5934
70,-94,10,-156,-10749,2994
-36,66,-110,217,-11683,2022
-99,83,-4,692,-7831,2185
-5,-88,-22,-3101,5408,-1950
126,-56,58,1111,302,-82
85,110,84,271,1024,-614
3,109,-53,-879,2849,-931
-3,81,97,-1201,4150,-426
-121,121,22,-2182,3564,993
-6,125,-102,-1532,5621,857
-6,103,-45,-5543,5336,3471
29,-65,73,-6440,5767,5560
11,85,42,-1906,1246,5140
-113,-10,67,-6044,1364,5710
86,-26,-22,-2240,-452,1849
-51,-41,82,-169,180,2143
-51,-89,105,41,-28,782
-77,-122,86,-100,499,-15
-108,84,62,-144,597,-589
-111,67,60,-775,517,-872
-106,6,30,-222,752,-1003
-84,-13,16,27,759,-895
-69,116,110,-5879,-830,1526
123,77,-76,-5972,671,1524
-107,27,6,-3467,4683,-862
36,-12,-19,-3478,7264,-2615
93,-112,125,-996,5576,-2677
69,-98,72,1398,4993,-2691
97,-103,-117,1836,6347,-3099
111,-122,55,4707,6417,-3714
29,53,122,4511,6032,-2852
-2,-39,-125,3008,4791,-679
-104,-60,112,-1080,6698,3566
45,-23,-75,-2339,6250,8056
-36,-86,86,-3002,-736,11630
-14,-53,37,-5178,-6581,7943
-12,-63,35,-18920,-6404,3184
113,-37,-112,-16396,4403,-4033
21,-110,-121,3492,8258,-6556
-105,9,115,2868,4322,-6294
124,-110,-18,1074,4847,-5603
9,94,-12,1507,5264,-4443
127,-4,-73,3457,2355,-3358
-26,-30,66,2786,2814,-1211
59,8,-94,-489,5859,460
1,94,51,3943,9570,3394
10,51,-78,11361,6389,841
76,101,-104,2331,7651,-3938
-60,-77,118,-7951,5934,9044
-85,48,87,-538,-3630,356
110,-48,4,-2428,-8896,1993
-126,71,-80,-1742,-9852,896
45,-25,109,3249,-11335,-1106
-102,-127,-31,-1347,-15333,4509
80,93,-28,-1669,8269,-1484
-65,6,9,-1519,4427,-1187
-105,89,60,1805,806,-750
-51,75,73,-629,3198,329
-1,53,-28,-2335,6291,1812
100,60,-109,-1371,7288,2359
-60,-121,-59,-3898,7102,3625
119,91,15,-354,2827,3202
95,86,91,-4136,2137,4066
44,-91,-41,-932,300,4093
29,22,0,-3955,2096,1532
98,-9,-63,222,2763,-726
-71,3,8,259,1515,0
-31,61,40,-1282,234,490
-21,47,14,-2165,173,-36
-31,-17,-4,-866,230,-693
-15,-53,0,301,565,-1186
-16,-88,3,1658,334,-1368
-22,9,89,-6254,-259,1791
12,72,-121,-7915,1431,1440
-12,-54,17,-4524,5067,-151
5,-44,13,-2195,5992,-1658
29,56,-112,0,5645,-1497
58,93,-7,-387,6370,-159
125,-40,33,1433,6281,370
-1,43,-37,503,6482,1952
-111,-41,117,-1763,2569,5084
-13,67,42,-1485,-244,6685
-18,-82,54,-2604,-5021,7174
95,74,116,-5220,-9243,5827
-61,-96,65,-8033,-8351,-1795
112,-91,-31,-6447,-3659,-7047
-97,116,91,-19821,3238,4620
44,43,45,8004,16698,-9209
53,-22,119,-1284,3588,-1038
-86,-44,-83,650,8732,-2737
-75,2,-55,238,4190,-77
26,55,83,-572,4285,1153
-89,-66,-43,-506,1751,3385
-23,-4,-114,328,683,4676
-26,-97,-70,1703,-685,5249
-121,6,32,7103,-2160,2337
69,-115,119,9126,791,2239
124,-49,-30,8852,284,2016
5,63,82,23205,-1223,-5441
72,-124,-80,-22076,14340,8057
16,13,-26,4193,-12253,1750
-102,-120,-44,-4106,-13992,4834
88,-74,-73,5451,-13718,-3659
-61,-6,86,-4422,-10736,7979
104,116,64,20,6662,-3114
-110,39,-7,16,4989,-418
-124,96,98,678,4743,-1467
122,-98,16,59,7449,-1733
-39,50,-74,-3492,6994,2024
-121,-98,10,-2247,6610,1589
-96,-11,-58,-2281,3889,2136
-83,-66,-66,-3063,5007,2319
-66,-85,-28,-4597,1732,2318
-27,-6,71,-6221,2168,1689
67,107,67,-2612,1718,926
-97,4,-44,-3320,713,761
-86,-69,-38,-963,-190,233
-73,-92,20,-106,-493,-85
-69,-108,18,-365,259,-447
-41,127,13,-429,772,-509
-24,-108,14,-880,691,-277
-14,-93,9,-935,284,-314
-35,-64,1,-5933,-1195,2459
-102,109,-46,-8472,-2365,3752
20,56,-12,-6239,1137,3516
33,67,-82,-7270,6758,1662
-102,-48,101,-547,5879,-844
67,93,51,3974,5431,-3252
64,-77,124,1125,6818,-2442
11,118,108,492,7821,-1174
87,-28,2,1511,6084,-646
7,5,-107,665,5399,728
-111,41,45,607,4177,2992
112,86,14,930,1715,6217
9,-79,-93,-100,-1400,9756
99,-13,78,-1481,-8920,11132
36,-18,63,-7359,-6845,974
31,37,-24,-10163,-7812,2578
72,46,53,-13503,5352,1297
59,83,110,-2440,8228,-5613
98,36,14,-780,6289,-4251
26,-85,-17,-354,6950,-2606
99,59,14,-155,6383,-2110
124,-83,-76,1125,4307,-1798
-92,115,-56,3378,2560,-2125
92,88,-4,3833,1885,-1974
111,-69,28,4786,2987,-1877
1,1,-36,6346,4112,-2053
59,-105,72,4049,8509,-3226
-110,-51,13,3026,8246,-2294
62,-36,-8,4399,6559,-2088
43,87,-12,-11644,9079,13871
4,58,101,3798,-6927,1300
-49,-31,-96,250,-5848,2360
6,-22,75,-3933,-7664,4729
-26,93,-30,1004,-11487,151
-84,-24,104,-305,-12915,3481
114,97,-27,-2043,1492,2612
33,26,18,220,5827,-2345
-111,-114,-27,975,2979,-2048
74,70,116,966,3935,-2899
-126,-15,-88,-860,6162,-1798
-128,-23,43,-955,5747,-858
-42,126,108,-1682,5160,336
31,-14,-69,-2251,6068,1539
-35,22,70,-2576,5506,1017
-5,120,10,-1462,3641,1014
31,114,60,-4360,3632,2961
-119,111,56,-2309,2707,1111
-40,-69,-96,-2802,1182,1268
-3,41,-108,-4937,1295,2158
-27,-38,49,-3328,690,1412
-35,-27,-3,-6012,-1570,2078
-14,56,27,-5771,1592,682
122,-79,69,-5306,6358,-645
-49,-114,-62,-2646,6298,-1635
-18,112,-71,-778,6062,-1472
-45,-123,111,-928,6185,-173
-74,74,-78,-788,5990,1785
73,117,-20,-766,5094,3209
-54,-13,109,-1097,2990,4884
30,-102,78,-1408,-426,6581
94,-71,74,-930,-4025,6502
107,45,-78,-1676,-8901,6069
92,-116,52,-5844,-9331,51
-112,-26,-90,354,-6232,-8099
-107,118,31,-8160,-7788,1576
54,49,89,-9848,7648,208
-30,-119,-42,895,9064,-8961
40,-49,44,2116,4090,-7003
37,-9,-43,-2743,3511,-4555
-95,-100,-60,516,5109,-4908
-126,96,-73,2429,2729,-3716
-7,24,-98,3155,2262,-2800
19,-23,-7,2780,2746,-1330
-51,-48,-5,2007,5342,-102
81,-95,-4,1174,8718,-784
-17,-2,0,4377,7263,-1273
-5,102,-37,1338,8114,-2305
95,61,-87,-2158,6459,2245
88,64,-80,-5390,2624,6375
87,46,107,-1402,-6118,2762
68,-28,55,-837,-6930,1312
15,75,-39,-2239,-8850,2246
88,63,-115,667,-9057,-1148
-31,91,-22,-537,-11286,475
69,55,-19,-287,817,3002
116,-79,-64,-927,4704,-1413
106,126,-116,1452,4605,-1965
-29,61,92,319,5801,-1256
27,47,-72,-1002,6831,229
62,-78,-126,-2231,6323,2265
32,-15,47,-2207,5921,1621
83,-97,-84,-2647,4676,2879
40,-48,-35,-5549,3809,3211
-6,-93,-7,-5950,1487,4686
-29,-66,-126,-3074,1305,-120
81,-87,6,-2242,762,-70
99,77,55,-1185,395,-7
123,49,40,-418,572,-206
-117,43,41,-415,164,-305
-64,75,52,-832,-10,134
-47,103,112,-6654,1985,263
-104,122,-92,-3693,5120,-905
-110,43,-53,-2239,5658,-1649
-77,-33,-122,79,6048,-2078
-109,-22,14,694,6482,-1696
94,-47,100,28,6189,-975
10,96,-80,540,6666,25
123,-91,46,-1217,5397,1587
-79,76,-14,-3927,2696,5125
-107,55,-13,-2183,-1118,7440
78,-103,-11,-2974,-5620,8731
-38,123,-107,-4895,-10046,6553
86,53,97,-6253,-6996,-3495
-32,100,-34,-3655,-4615,-3580
-79,67,61,-9416,3612,176
-127,-3,-107,-3391,8332,-5396
-12,108,17,4794,7727,-8148
114,8,-11,3205,3453,-6705
-41,-49,-73,4346,1786,-7385
-111,-78,46,2903,187,-4845
13,-64,89,268,2030,-1786
25,4,102,-931,5052,-314
-87,-61,68,1798,7785,-10
40,122,-33,4394,7126,-1049
-35,-12,-118,6447,5835,-2602
49,98,-88,634,6908,-1719
114,38,-68,-1804,8271,3802
10,-7,-44,-3920,-2250,6606
-95,82,111,-90,-6900,2625
-108,51,34,-1569,-7509,3149
96,-38,-83,-2253,-7801,1397
99,62,-57,2213,-10452,-688
-53,-15,-3,-3031,-3086,4618
58,69,81,-853,3644,-1127
-52,124,-107,810,3066,-1725
-48,103,-83,109,5322,-1600
120,19,33,229,8062,-1588
-54,57,60,-1583,7954,-58
-19,-58,-77,-1966,7408,1466
-74,-18,43,-1952,4896,1636
120,127,14,-1313,4422,2580
11,-62,-21,-4880,2202,2694
-43,73,33,-6046,1786,2625
-14,-106,78,-3118,1598,1640
10,-86,-114,-2085,1393,426
42,98,-124,791,594,-705
108,-52,-80,-992,549,-866
-121,-84,-105,-1561,372,-891
-108,-124,-122,-1012,217,-951
-77,122,119,-402,301,-929
62,-27,-87,-4911,3962,-635
59,120,-17,-3185,5632,-1911
117,33,77,-776,5061,-2429
35,-14,60,1057,5069,-2839
59,-36,-57,1886,5424,-2768
122,-110,86,2224,4810,-2354
7,119,-120,1665,5116,-1403
-5,-111,36,-495,6016,833
-20,-86,-20,-1692,2803,4657
39,-28,-124,-1293,-625,9284
22,-25,-122,-3384,-4627,10082
-86,-84,-85,-6876,-8310,1805
83,-47,2,-2945,-6100,-3653
-60,-116,120,-15990,1814,-2613
47,24,-59,1389,5568,-6345
-70,99,-121,422,5807,-6439
110,-11,88,1232,3555,-5261
0,-26,-125,1522,4678,-5041
-64,-78,117,2710,2314,-3822
-3,-105,-75,1648,2272,-1895
22,-115,-3,677,3503,164
-39,59,79,1463,7130,190
-96,-78,68,3850,6825,298
-74,-26,-31,6969,5434,-1500
118,-47,-12,1835,9723,-1749
-57,-116,-114,-11150,6360,10483
-121,-18,89,3379,-6983,1047
-55,-118,23,-2994,-7411,2477
67,-79,-114,-3659,-8622,1231
-60,31,113,348,-8822,-2615
-38,120,96,525,-10669,685
4,81,-45,-1931,2228,2997
-108,-89,-11,-190,5166,-1206
-51,-33,-94,135,5826,-662
114,72,67,588,6726,-878
10,-102,-14,-247,7111,1062
79,-112,-114,-3719,6364,3642
47,-26,124,-693,5820,2226
-65,10,-48,-3626,2698,2727
-93,35,23,-4037,1112,3539
51,32,-33,-1098,1537,205
-116,94,86,-2878,1055,846
-107,-26,103,-890,733,297
-35,-116,89,624,1357,-455
-15,-89,-106,350,421,-663
12,-88,-86,-83,97,-513
54,-73,-81,-1169,201,-181
39,-59,-92,-1721,156,43
41,-78,107,-1157,369,-337
54,-85,75,-599,650,-795
-59,-75,-69,-6435,-180,1963
-99,30,114,-7623,213,1641
-125,76,-31,-5618,4092,-762
66,113,-116,-4578,5710,-1939
47,69,-59,-3930,5442,-769
70,118,-59,-1292,6155,-1020
-102,92,107,-24,6644,-470
-123,93,-48,20,6187,374
-89,77,25,1304,5239,1295
-22,51,-114,-1048,3954,3002
118,101,119,-1689,1452,5064
60,-93,112,-1578,-2388,6646
-103,70,70,-3365,-7063,7907
97,121,-16,-4513,-9823,2767
37,-102,-101,-3714,-6769,-6712
40,-100,-57,-13038,-2689,-1124
89,-108,-56,-13085,4145,-2204
55,-96,-27,4560,9740,-3247
-105,67,-71,2927,6760,-4507
124,42,66,2917,5063,-4107
34,23,-77,2090,5396,-3639
52,57,-96,44,5314,-1592
-76,89,75,-928,2969,3069
-37,-124,83,554,4217,4858
124,-102,63,5817,3064,5720
-91,-87,-48,3829,4620,3289
-93,-107,-103,3595,3249,5063
70,-19,31,17125,-2847,-1593
-113,32,-4,-16493,10370,5678
109,127,118,5719,-8822,758
61,120,-126,-2710,-6875,197
-66,102,-67,-218,-10470,1491
118,-38,-59,1000,-11248,-1411
-55,16,29,-1243,-11613,1731
43,65,19,-3048,3822,3300
-80,-50,-3,-1741,4164,-1584
116,-21,-7,2628,1947,-1995
51,63,87,-105,4062,-274
122,64,92,-848,5379,1002
-109,87,118,-800,5860,1214
-26,-12,-3,-1811,5265,1760
108,17,-6,-1190,5517,1557
-86,55,89,-1470,4261,2427
-46,-35,105,-2220,3690,3345
113,40,23,-881,2006,334
-54,125,-77,562,576,-500
-58,61,33,-1137,1547,-440
-17,-38,102,-2224,2001,382
-1,-33,109,-3285,1180,1243
11,-33,71,-3553,842,1247
-53,-99,45,-3669,3348,-1212
126,126,109,-3865,3792,-855
-61,11,-99,-2667,3832,-1085
-79,-78,-33,-581,3031,-1342
54,-82,-23,922,3311,-1814
95,-96,114,2475,4004,-2345
-42,117,-19,4263,3904,-2650
90,9,-11,6398,4274,-3232
51,111,-92,7527,4985,-2697
-16,-89,-24,5499,8256,-1665
-82,-121,-126,-1569,10742,2778
-96,68,-66,-960,1373,14041
39,-45,112,-22807,-3510,9410
51,-80,-77,-10158,-7344,348
-106,53,11,-10392,5100,-3074
122,-20,5,-6943,7870,-4049
58,-82,-109,2525,3964,-4342
70,39,78,2,3322,-3349
-21,-14,-32,224,4041,-2394
44,-85,-40,2319,3057,-2050
-104,126,-79,4173,2774,-3071
64,3,108,5872,2834,-2907
-51,-85,41,5044,5503,-3280
-115,29,-33,2922,6784,-3721
5,42,79,852,8928,-3378
-31,125,115,2750,11096,-2782
-95,124,73,-7632,9226,3997
30,26,-64,82,-131,1490
39,45,-88,-2308,-7060,6586
60,-90,48,1210,-9046,1751
-96,75,-90,-124,-9548,2668
-119,88,41,1525,-12127,1720
-65,63,-10,-2438,-4669,6130
-31,80,-10,-79,4596,-1408
-72,79,-32,993,3241,-2272
-37,43,75,140,4550,-1494
37,127,-66,-847,6171,-462
-89,92,81,-1057,7746,1
-123,110,-26,-1665,5281,926
-14,14,-30,-1194,4445,528
63,90,31,-1489,3979,134
21,53,-86,-4366,2195,2688
81,55,21,-4858,2266,3375
38,108,17,-970,1713,604
-99,26,-86,-3605,1700,812
-117,-78,-100,-3295,-295,461
-43,-55,101,-2133,491,355
-37,-58,110,-1440,774,134
-24,-60,126,-708,727,60
-18,-57,118,-139,906,-185
-63,-72,0,-6865,-765,2639
55,-91,67,-7417,-1286,2900
27,21,-119,-7127,1406,1701
9,-44,-56,-5003,5546,524
69,66,73,-2792,5928,-712
40,57,-124,191,4365,-5
-17,-25,-96,-456,4197,797
-93,73,108,2141,5411,175
-32,-85,-40,2034,6147,-175
28,29,92,1329,5801,1258
-33,13,-40,2192,5657,2794
55,-90,64,1709,4660,5850
-82,-30,-89,4754,893,10654
-118,-105,-84,-4282,-3629,11936
-35,-62,-75,-12265,-11418,3181
-105,48,55,-18204,-4360,-1244
110,9,-13,-11350,1807,-2312
119,-98,89,-2165,11480,-4297
-68,-118,-35,-146,4577,-2947
-82,76,90,2758,2745,-3237
-1,20,-54,3702,3432,-3952
69,-45,-24,3334,1287,-4868
14,-91,-6,1102,2321,-2282
-31,-11,-11,1654,4147,-2758
6,-112,-102,2379,4789,-2601
-46,-79,-49,4045,4743,-4351
-7,90,-113,2777,7847,-4179
-20,-28,30,1999,6536,-2341
-47,-87,-79,2011,9863,-1487
50,-68,66,-1372,6109,4414
-96,119,-71,-3550,-138,5471
-35,-94,118,-2767,-5058,4702
-101,-38,-8,-714,-7296,-900
84,-119,-84,-2173,-7400,878
20,114,-108,709,-9236,-1023
65,36,-106,-458,-6244,2302
114,-1,49,-2594,-289,1911
12,12,67,1240,-410,-183
118,-57,62,-406,2762,-825
118,-80,-107,596,3731,-513
27,-82,12,-648,4523,-490
-112,-121,81,581,6413,-865
22,60,6,-1930,6485,837
38,75,-47,294,6374,-474
-47,14,54,-3757,5141,3172
69,-91,77,-2103,3552,1240
-100,62,-67,-2684,2968,2738
77,98,111,-4467,1546,3164
54,-27,-125,-3473,1999,1924
68,105,-106,-985,1596,515
-83,48,-115,-5735,1133,1198
-1,-87,-111,-4942,4203,152
79,100,-40,-4543,5666,-741
-57,-32,72,-2376,5713,-1492
-62,-53,78,1059,4861,-1373
-118,63,8,1138,4335,-1393
37,81,-62,-898,5407,-1061
69,-119,-16,1344,5865,-1056
7,-51,100,179,7123,221
-54,26,46,-1287,4150,4296
9,-96,0,-1677,-251,10244
43,116,-103,-4519,-7489,13234
-111,-109,92,-13768,-11656,32
-15,39,111,2255,-5409,-6712
-52,-18,30,-12372,110,994
104,-47,83,-2955,6795,-6247
-64,6,92,2081,4706,-6626
20,-128,-5,1465,4795,-7408
101,-30,75,1364,4689,-7038
-78,114,31,1595,4174,-5686
-123,0,-87,1464,2160,-4521
-103,-1,13,1379,2277,-1232
-11,50,-8,-316,4572,50
-64,-59,-14,-813,11446,-1258
-112,67,11,3414,4841,-1010
-100,89,38,3704,8916,-4144
81,54,10,-7344,10818,6976
-65,-113,-32,-1037,-2022,2350
-83,-106,-63,1963,-5692,2987
-128,98,103,-642,-7748,3499
8,96,-35,-370,-7924,1509
-35,108,120,-1178,-7870,1299
-21,-110,-33,384,-8090,334
-117,12,51,-2045,-3971,6174
-110,6,-84,-503,4531,-1136
-22,-122,99,218,5331,-512
-36,94,49,223,7706,119
28,91,-112,264,10186,472
12,116,50,-5750,9519,6656
94,86,118,-4013,3327,6593
49,-52,-110,-1907,350,5512
-17,7,-85,-1604,1502,1980
46,15,77,-813,1077,-1293
85,-63,-30,-922,-89,-115
67,4,-110,603,991,-391
101,3,-87,-945,837,-436
-117,-39,-106,-1156,108,-383
-93,-70,-120,-899,18,-604
-66,-84,123,-784,-10,-845
-58,-87,109,-502,223,-802
58,-51,-122,-5454,4444,-427
-37,-46,-90,-3576,5136,-366
-73,106,-120,-442,4456,-512
-77,-29,97,-198,4300,79
-18,-17,5,1701,4907,948
-79,47,109,2016,5078,1721
-68,-124,-38,1556,5030,3388
50,-71,105,1223,3979,6484
7,4,62,735,172,9861
-80,-69,105,-1537,-3982,10676
-34,120,51,-8995,-13757,192
-78,19,70,-16868,-4947,-459
59,14,26,-9686,2666,-7943
38,-121,94,70,10347,-6777
-26,-32,43,-653,4505,-5079
-115,-77,-59,2681,3652,-5910
-18,84,100,1216,3798,-4295
83,-49,-19,3702,1919,-4549
-34,-11,86,3121,2000,-2487
19,-66,-113,-154,5451,-2546
53,12,-53,1023,7465,-1550
-32,122,57,2928,7019,-2316
-38,63,23,1708,8766,-2739
-81,84,3,2513,10717,-4322
-67,42,-89,-9660,12098,3403
27,-118,56,-6008,-4025,9742
-73,-53,-35,-102,-4500,1537
4,-62,-94,-3719,-8257,3278
-26,31,32,592,-9579,1818
61,-120,68,342,-16149,4895
-80,-40,-9,-3738,-338,1086
85,-116,0,815,4035,-1411
-63,-61,-56,774,1762,-1002
-73,-38,48,-53,2077,-299
-35,118,69,-870,4371,-822
10,35,7,-355,5196,-775
11,-95,-85,-2513,8073,727
30,100,116,-3032,6555,433
85,-12,73,-2934,4789,2517
38,46,19,-5655,4380,2251
-34,86,-119,-5191,1371,3436
-116,-5,-64,-1712,541,2103
-100,20,73,-1731,667,227
-88,44,120,-2815,513,379
-88,-65,76,-288,276,88
-93,-79,108,474,201,-655
-69,-49,100,-55,466,-896
-49,-41,90,-624,536,-702
-48,-73,71,-21,168,-915
-1,-71,69,69,241,-880
-124,-80,-52,-6331,-575,1593
33,88,73,-6342,-498,2132
18,54,-91,-4486,3323,322
-16,116,2,-2050,6763,-4117
61,82,37,2075,6214,-4952
-71,-26,-121,4199,5045,-3941
-8,-75,93,3504,6476,-3786
91,-76,25,4205,5528,-3252
91,-42,88,4872,5462,-3362
99,46,92,4009,5066,-1579
77,-67,103,51,7715,200
-68,-21,-115,2747,7103,3576
40,7,-44,15151,8084,866
49,96,-109,-26822,2439,13099
107,42,-79,4886,-6729,509
112,-58,-73,-8911,-4893,520
56,-51,25,-9579,-6659,-3805
-68,-106,116,-10244,-2034,-5614
5,-45,93,-4758,562,-5174
18,32,-60,-1713,1837,-4061
104,-15,0,1025,2083,-2431
35,109,61,-193,3123,-1162
-69,-73,-13,2344,5030,-1177
13,-64,-64,4367,8081,-1664
-107,-125,79,4836,5825,-3203
60,116,1,769,7898,-2890
103,-83,86,732,6420,-287
102,-20,-108,-5540,6883,5618
97,105,-80,-2906,-2120,4998
16,-80,114,-1184,-5526,1722
111,35,13,-3099,-7429,2591
-29,-29,114,-682,-10183,-298
-37,-76,-114,1421,-11955,-195
-105,34,90,-1833,-1255,3861
28,-23,73,-2479,3906,160
-3,94,-82,1279,4613,-2372
15,-27,19,-124,5013,-888
-47,-98,125,1071,6663,-1183
93,4,-116,-4246,7879,2244
38,26,79,-1844,5233,2618
-10,-38,-56,-1553,5029,1563
-120,55,46,-3978,2944,3172
118,98,118,-4465,3326,1829
66,-36,67,-5824,188,2853
120,-111,98,-1079,1513,136
-74,-43,-86,-1061,1258,-234
-30,-13,-84,-1738,502,233
-16,-70,-121,-982,88,-12
-17,-87,122,-597,114,-459
3,-88,107,-527,325,-709
