AccX,AccY,AccZ,GyroX,GyroY,GyroZ
60,5,67,-1843,2903,-4928
-116,-79,51,-2893,5024,-5769
-28,47,93,-160,4818,-5217
93,-52,77,-955,3376,-3539
-114,83,38,-1157,3444,-1195
-53,-90,94,-2335,3134,758
-6,-21,18,-2537,2132,4784
-42,-86,81,-648,606,7855
-31,101,98,-1914,-2170,10250
56,-3,21,21,-3526,6359
-19,-98,-117,-1513,-6652,-422
8,-105,118,764,-7067,-4240
-92,-61,-63,-1968,-4734,-8596
-56,0,111,-3642,-1818,-8989
-122,99,45,-4113,2247,-6282
85,-19,36,-1573,4771,-2855
13,108,78,-796,3527,169
-90,90,111,-1937,3432,2568
-94,77,-26,-4098,2566,4989
-19,-10,107,-2852,3789,8477
30,3,-15,202,3691,8095
90,-119,-65,-6402,-2525,10863
61,-125,7,-56,-2641,-686
105,43,-8,-2591,-10630,-2432
-56,70,2,-1417,-9839,-6501
-90,22,-41,201,-7937,-6578
-72,-58,-14,-2100,-6431,-6127
-14,-3,58,-2871,-3686,-5615
64,-60,62,2079,964,-919
-113,85,91,-319,-468,857
71,-59,-101,-2328,-608,891
-79,88,-100,-1774,115,1004
42,-118,-126,-1450,277,1698
-106,64,-91,686,1224,3813
-12,-28,17,-1260,1270,6539
36,59,80,1305,-952,10044
103,29,46,-1349,-1548,8580
-114,-38,-9,-1030,-2129,6299
-80,-55,-86,1027,-1546,3672
-122,8,33,3295,2832,1818
-74,59,37,2921,791,721
12,-46,77,470,-422,-726
20,20,75,953,92,-1657
38,-63,76,584,474,-1737
84,-127,104,58,147,-1436
118,71,125,-40,-79,-1292
-120,12,-110,-16,-152,-951
-122,18,-115,-269,-72,-788
-108,30,-124,-548,-12,-694
-109,42,106,-367,33,-278
-95,34,90,-1354,5178,-8070
33,-69,2,-1808,3773,-7916
84,-82,54,-5534,3341,-5439
55,-120,83,-3766,2814,-2577
84,-126,91,-4874,1503,-1621
-91,-126,100,-3261,3273,2001
-73,-44,9,-859,216,6327
-128,-62,17,-390,-2131,6651
127,23,-26,-1222,-6962,8782
-97,-18,79,-476,-8433,7531
-71,-34,-53,-1373,-5850,-927
-65,102,93,3058,-3098,-8370
-23,13,88,-2152,-2099,-9989
-26,-44,65,-3591,554,-9572
-86,55,33,-3509,3405,-4824
38,-106,30,-3216,4324,-1560
11,67,17,-3658,3580,1934
-77,-16,21,-5457,3734,6265
50,108,-68,-2217,2320,8075
101,-45,-80,-4015,-364,10267
-34,-66,-48,-4110,-1319,7059
-127,10,41,212,-5776,4956
-34,-67,70,-5271,-9093,-984
-111,28,91,-7939,-8359,-7645
26,9,63,3213,-3715,-13812
84,42,-80,514,-5971,-9892
-23,-4,-120,-4646,-5307,-7768
-123,-10,75,-2099,-1473,-5589
-61,-61,-10,-698,-39,-2229
-27,-93,36,-664,-899,1217
-74,99,-76,-705,211,753
78,-72,-103,205,-522,2440
95,69,-114,168,-592,4165
110,-17,82,392,-433,5952
91,-103,82,2649,-2468,9522
-95,-60,-61,5820,-266,5671
-26,-40,72,7841,1836,3165
63,26,-55,-6647,1382,4939
-91,-14,121,-2447,-3182,4701
32,122,-34,-2396,-1181,4201
75,-24,-69,-14,1269,1789
68,95,-70,3471,1137,-423
-7,107,-126,4241,114,-881
-16,-116,-101,905,-181,-650
0,73,-125,-798,533,-753
-4,-11,-121,-603,-23,-871
13,-20,-110,-663,-125,-1298
62,-34,-116,-1302,254,-1407
62,-47,98,-2711,-237,-1018
56,-36,56,-3611,-602,-169
-25,63,-57,-1432,3184,-6195
91,103,58,-641,3870,-8503
-126,85,11,-3668,4666,-7609
-41,59,-9,-552,4281,-4587
36,-26,-90,59,3559,-2204
-23,-87,-39,604,3254,-66
19,-46,-89,-3616,1483,3310
-80,-43,-116,-376,1022,5967
104,-35,78,-3229,-1164,9241
-128,124,84,257,-3290,12698
99,-97,121,-5715,-7350,-2377
106,58,75,-274,-9142,-5362
-7,75,-88,-2928,-2310,-9949
-73,75,115,-2353,2059,-8564
24,3,45,-2644,4501,-4548
11,84,27,-2717,3701,-1667
-14,7,-32,-2204,2853,1482
-64,-59,45,-20,3591,5305
-56,-120,-104,2192,5000,6146
99,-2,-47,-3575,5755,9262
14,40,-23,628,6151,8018
65,95,49,-13772,-3374,4872
-109,-104,-53,-1860,-10072,-844
95,-103,-20,-3613,-8660,-7846
118,117,121,1704,-8787,-8818
117,45,-21,-5157,-5487,-8800
-62,-11,-98,-2713,-3039,-7855
-27,57,-56,1886,-855,-4485
-111,-59,-22,2729,-270,1935
-24,10,-81,466,-939,964
-97,31,-74,-415,452,1864
-21,120,84,297,1605,2388
-38,-25,-22,-811,1481,2962
-11,23,58,-645,2055,4658
78,-113,121,2038,2378,6835
-127,54,1,-2455,1599,7052
45,-40,61,552,-590,5069
-111,-98,-44,759,561,4114
-54,-65,2,106,2840,1690
-12,84,26,438,2797,1323
-25,66,69,403,656,2062
-111,-16,110,-184,-620,395
-127,-77,115,-43,-657,-750
111,-124,119,75,-118,-760
105,113,116,117,460,-629
111,111,125,29,113,-476
-115,-126,-118,-519,-267,-510
-97,-120,-119,-769,-159,-785
-69,113,-128,-410,-10,-1032
-69,108,-124,-82,-56,-929
-41,-9,-49,-1555,2179,-6874
30,110,-32,-4212,3633,-7501
-14,53,-63,-3963,4470,-6983
119,19,5,-688,3002,-3433
-34,50,-64,-1456,2742,-2264
-81,96,-109,-3391,1381,-1236
-36,83,122,-355,1167,2103
61,126,23,179,1156,3815
86,-19,125,-1338,612,5855
61,43,92,-717,-1756,8960
43,-111,-69,910,-5862,7959
-64,111,80,-2944,-8542,-6264
-54,109,56,2140,-3719,-7541
106,60,126,-3941,-1191,-10159
125,-124,42,-1968,2720,-6209
48,-80,34,-2731,2824,-3002
97,95,-74,-1842,2817,277
-3,-55,-49,-2254,2566,2966
68,-97,62,-4361,1859,5834
2,31,-18,-3011,1481,7938
101,-81,-111,-1003,1768,10213
53,73,-111,-1931,-1327,7683
-74,-125,58,-1328,-4013,3310
-73,-118,-77,-3707,-8014,-1195
51,-75,120,277,-6081,-7668
-45,116,-110,1585,-5791,-9354
-38,63,-61,-3367,-6187,-8687
-20,103,-92,-3760,-2794,-7204
-6,1,-81,452,-769,-4698
63,35,-119,-648,-460,821
-58,74,-15,-1068,-169,159
50,97,-59,-223,300,1765
51,-21,-69,-135,149,3645
113,-39,-114,-603,347,5344
-43,82,114,393,-776,7950
97,-46,21,2152,209,7294
89,-11,-9,389,345,6015
43,50,76,740,231,4944
68,-127,63,1249,766,3254
47,-12,-114,1927,846,2665
-8,-90,123,1459,670,1548
125,88,-99,561,-209,570
101,-69,-94,1610,-19,-732
103,108,-81,1666,676,-942
103,50,-49,843,718,-956
111,20,-30,358,290,-608
117,-1,-17,54,-8,-413
-121,17,4,-682,-383,-164
-94,25,-9,-858,-159,-258
-58,16,-42,-82,44,-535
113,-113,34,-1473,2135,-7971
-76,91,-109,-1686,930,-9169
117,-120,-62,-4172,614,-7270
90,-17,113,-4078,2496,-5053
43,4,27,-2332,3335,-2667
-84,-35,-121,-1312,3224,-1929
16,-113,114,-1084,508,2146
-51,109,-59,-3142,962,4849
68,-105,69,-1579,-532,7654
-71,11,75,109,-905,9976
63,-88,-90,-791,1208,6118
-7,26,-54,-469,-7490,3893
-103,-14,96,-1815,-9845,-5752
-87,-5,117,-236,-3880,-9248
-27,-12,-119,-2592,-1936,-9502
57,-1,78,-3394,1147,-6616
71,43,30,-3561,2531,-2875
-79,-40,0,-1312,2894,483
-98,104,106,-6057,2672,4092
-109,19,-41,-7101,1452,5899
-16,-116,28,-4170,583,10666
-67,-58,-126,3473,3078,10719
-91,-50,-32,-3594,-139,9489
92,-113,91,-11128,-7095,1472
71,67,-95,-5533,-7948,-6323
90,-112,40,955,-3245,-13038
25,-85,63,4488,-6238,-11009
-127,-62,-9,-2824,-5806,-8871
-52,-120,-56,-2570,-2786,-6456
98,63,43,-2441,-1093,-3180
2,84,15,754,-26,-459
73,10,48,-812,-33,68
-88,-67,97,-2439,-1029,1907
-24,127,39,-2338,-472,2488
103,36,-81,-1889,331,3713
100,-102,89,812,-1543,5285
-119,-26,82,3797,-2630,9045
-83,-3,-123,807,-3899,8810
-6,-10,111,917,-1968,5216
109,-95,-92,2614,498,3034
-68,-114,-29,1793,2025,3734
61,25,80,2453,1891,2695
108,-19,-83,447,-775,1220
48,76,-96,785,-849,-1198
54,-62,111,1030,870,-1924
77,-97,125,67,1245,-1688
86,85,-92,223,176,-919
105,59,-73,323,-383,-618
123,55,-56,90,-249,-551
-113,71,-51,-329,-61,-415
-118,49,-36,-1369,1265,-6834
-76,116,-44,-2707,4477,-8985
-27,-20,70,-2093,3563,-7089
-38,-111,-64,-2594,2546,-4463
24,72,110,-3168,2579,-2049
118,-128,-53,-1859,3454,-405
90,94,13,-1569,1870,2587
70,83,58,-1529,84,5896
-29,-75,25,-2039,-2563,8995
-95,4,-59,540,-1489,11683
-50,24,123,-2462,-3539,6530
1,99,110,-1708,-8754,-5468
32,51,54,-307,-3860,-8474
29,11,-127,-206,-2543,-10882
-4,-5,101,-4997,-32,-8841
-25,-33,38,-2606,2976,-5109
-80,65,-118,-1663,2312,-2248
-126,-42,113,-4648,2009,1838
-17,-109,-33,-5305,1373,4965
111,-73,-95,-5528,1928,8208
11,26,-116,-2029,1609,9082
-80,61,-128,607,2209,12153
-99,-15,-103,-5729,-1544,7370
-125,-114,-38,-18,-4788,1041
27,-80,93,-6915,-10874,-7405
97,-23,-16,1694,-7870,-9425
44,69,71,-1774,-7474,-9521
-124,-125,-60,-3371,-4191,-8377
-45,38,47,-1327,-1439,-6939
-40,-39,-51,-1793,-715,-1566
71,29,50,-1216,-568,394
89,7,2,-2045,-420,1596
3,60,-96,-1100,-380,2697
71,-13,-104,-493,-688,4429
106,-88,-105,424,-1395,6640
-77,18,119,3558,-3238,8219
29,-16,64,-111,2506,2905
-111,92,39,712,-11,4638
68,89,-10,824,-1096,4536
123,98,12,118,-223,4230
-31,-74,123,2945,1672,3050
-31,121,64,3615,1242,1783
-114,39,-124,2102,-728,-573
6,-61,-82,913,-1095,-1596
72,79,-99,273,114,-1549
-120,48,-108,136,642,-742
105,36,-78,165,-398,-473
115,62,-64,-651,-542,-509
-114,75,-75,-1244,-93,-645
-84,48,-115,-600,106,-754
-53,39,85,-5178,951,-5372
121,-70,111,-2408,1055,-9695
-102,-14,6,-4519,3345,-8156
-30,-46,-101,-2461,3860,-5287
127,2,-93,-2278,1894,-2874
-110,-18,11,-3105,2098,-1058
-29,126,14,-605,2632,1723
122,44,-23,-3584,2454,4472
-121,-110,-30,-1149,1132,7285
118,-16,-67,-1746,-1772,10652
120,99,85,-1204,-3836,12593
-14,-49,-13,-3198,-5043,471
40,84,-49,-1654,-8594,-4838
-14,122,-63,-2121,-3941,-10561
74,39,120,-2692,-830,-11531
127,-58,80,-4300,1670,-7537
127,17,83,-1199,1512,-3263
91,-11,-55,-4323,109,-306
118,-17,80,-3858,1740,0
79,-27,105,-1285,1939,3284
-89,31,-98,-1379,2672,5840
-53,-46,38,-1244,4049,8060
-33,-23,-117,373,4627,10174
97,47,-86,-425,5136,9928
0,-89,111,-18218,-6843,6476
74,84,-42,-2162,-5747,-4856
-1,112,99,-694,-8646,-10232
0,3,-41,2694,-3565,-9230
68,36,-109,1757,-5242,-8391
-98,-91,2,-3684,-5500,-7629
-37,-118,-33,-2226,-2347,-6435
46,-83,19,-525,-763,-3257
-85,-105,66,2152,556,-704
64,122,-29,-786,-875,1404
-54,-53,8,-1454,-150,2277
-28,70,-92,-969,840,4125
-2,-1,-5,22,199,5515
40,17,14,1438,744,6784
68,88,-77,1297,-527,6960
39,-3,-125,1108,-1067,5919
67,-105,-53,1767,-409,3734
123,84,-31,1074,1461,2791
83,14,121,-286,191,3820
86,6,127,-2043,-7,4214
91,5,113,-792,-564,3390
19,-45,102,1479,-84,808
-26,-67,-119,808,437,-867
-26,-120,-115,-1836,320,-1351
-24,63,116,-1413,250,-1427
-9,12,100,-451,384,-1667
18,-28,-126,-2369,3714,-6483
60,21,4,-1391,4538,-10721
95,-86,68,-2816,2905,-6554
-94,-121,-39,-4137,2503,-3435
-79,118,-35,-4467,5364,-1331
23,-94,2,1332,4977,-477
-15,-86,-118,4219,4597,1126
109,5,-47,-6218,3577,3939
-13,74,51,-2119,824,8359
69,-3,88,-3000,-515,10409
106,-41,-54,-5601,-4877,5983
11,16,-65,-511,-5439,-2637
1,6,42,1549,-5689,-7039
45,12,-101,-143,-6259,-10025
36,36,83,-4263,-4232,-9587
-104,-41,34,-4886,3151,-4751
21,58,25,-3466,3460,-1048
22,76,-13,-3847,3094,1742
-53,40,65,-1122,3784,4978
-119,57,0,334,4820,6102
-9,-111,-59,-1361,5997,7147
-35,35,-14,-2322,7441,8311
-91,-115,44,-9782,-457,8213
2,106,99,-8520,-6274,2764
-118,-54,67,-1636,-6456,-3759
46,-3,-102,-1419,-7251,-6419
103,-36,91,-2838,-5143,-8238
88,-112,127,2023,-2472,-7951
-110,-12,-54,1459,-3039,-6962
88,12,34,-1225,-4229,-6801
-3,-99,-32,-1388,-3085,-4758
-99,38,-2,-1386,-1302,-1561
88,-48,23,-827,-773,14
10,100,23,-947,-419,1362
-3,-57,-5,-659,-68,2217
47,37,-94,523,690,3929
-118,96,92,2111,1529,5848
-22,-48,30,2961,552,7963
-117,57,62,1974,3245,5171
6,-120,-67,248,999,6222
-67,76,-89,-517,471,5640
-91,-110,91,-816,-443,4883
-53,4,3,-445,1695,3785
-108,-100,2,2482,1471,2773
70,-109,52,2754,424,844
-63,91,89,1439,-412,-865
-44,17,118,386,-191,-1522
25,-49,-124,-290,115,-1777
86,89,103,256,75,-2132
79,74,-108,-55,-732,-1881
36,66,-1,-3808,-2858,-5279
-98,-21,92,-4133,-525,-8997
-116,51,-19,-5220,1695,-9195
-72,50,37,-2064,1122,-6713
-34,68,85,-4347,1253,-4222
-17,116,29,-1169,2874,-550
-121,34,-83,-497,2951,1310
-75,116,25,-3145,3612,2742
108,-35,-68,-2369,2135,5587
-32,68,94,-2213,1075,8716
113,51,39,-1500,-560,12684
-15,86,-69,-5458,-5705,6278
-69,127,-88,-1819,-10364,-3759
-93,127,62,-3387,-8338,-7896
8,105,-76,-73,-2133,-9477
65,-65,-72,-2427,592,-9280
-23,66,105,-2942,2039,-5052
-95,27,-18,-3618,1924,-2439
-117,-117,108,-2685,1958,670
-115,-70,65,-3655,2336,4097
-89,92,-7,-3253,2290,6663
84,-24,-41,-1927,3063,10076
-127,-49,113,1199,5980,11459
-106,-56,-40,-12674,-4425,6434
67,-114,-37,-941,-8925,-2027
-54,126,34,-3517,-7389,-6825
23,-126,123,-825,-5297,-9903
-74,-88,-62,514,-3966,-8587
18,70,20,-1571,-3226,-7167
-27,27,9,-354,-2217,-5978
37,24,80,-1198,-1986,-4204
-40,90,122,207,-391,-1714
73,123,-95,623,-756,218
-18,31,-77,-577,-1417,1512
-40,-20,-121,-2503,-1265,2864
8,-40,-48,-656,772,4339
-120,72,34,2829,1725,7041
-11,-117,20,2535,79,10725
87,-29,-36,7,-878,10390
-42,126,-100,2758,499,6110
-37,-94,112,2007,-1133,6498
-25,-67,91,-414,148,3290
118,7,-84,-628,-92,-344
-15,-14,-101,1569,892,-2180
-62,38,82,2634,1533,-3063
-25,16,78,1301,507,-2131
2,-44,-108,118,-662,-1063
46,-100,-98,-613,-562,-1423
91,115,-109,-778,-22,-1411
90,87,-95,-575,-339,-1059
115,67,125,1504,-5700,1458
-108,-113,-39,-3980,2145,-5556
-78,43,43,-1522,3844,-7987
-33,6,42,-2456,4362,-7834
104,-19,126,-3472,4047,-6317
-120,-128,67,-2508,3018,-3927
49,-128,-25,-2271,1177,-1232
-59,86,32,-3520,1506,2100
21,-85,-58,486,878,4654
95,-30,-115,-802,23,6532
-6,110,97,-780,-2017,8707
-59,-34,-79,-1411,-2905,13319
53,-118,8,-6550,-5556,-2638
-38,-101,-50,576,-5760,-5848
63,126,111,-1986,-1936,-9897
-77,60,58,-2128,2003,-10244
-49,-5,37,-2131,4490,-6510
108,45,33,-2479,3950,-2986
-21,60,50,-882,3153,532
-64,-6,11,-4230,3019,5442
-23,-84,-78,-2625,3940,5118
-37,-67,79,-579,2419,7615
-80,-73,-115,-2038,1942,8080
-5,-114,-96,-4487,48,8248
-30,64,-33,-5006,-1742,2757
-48,-15,-39,-7436,-6265,-2599
61,-110,-95,-2731,-7250,-8750
87,66,-104,2197,-1746,-9111
85,-89,-119,834,-3326,-8728
-108,-91,56,-3794,-2934,-7983
-18,-11,-36,-2146,-894,-5800
62,121,-113,-1091,-1066,-3667
-58,-83,-66,-1286,-1388,-498
125,-101,-68,-407,42,-435
20,-103,-33,-106,-218,1132
22,93,-72,-537,-225,2769
92,-98,64,493,36,4402
-99,-36,110,241,-1492,8216
88,98,-46,3855,-3816,8358
6,-63,-101,1473,159,5705
-97,-7,15,777,-1655,4221
-62,-47,-33,527,12,2749
-60,26,76,594,-172,1868
123,-104,-7,2102,1092,258
8,97,-65,1196,1288,-811
3,95,-70,-450,538,-692
-7,-99,-104,2193,305,-1224
53,117,-119,2274,14,-1287
108,-74,-64,-697,-157,-523
97,-98,-51,-1650,-303,-238
-106,45,-120,-3283,3129,-8060
-121,-114,23,-3566,4434,-8992
-113,115,-56,-2755,3997,-4366
56,30,-119,-2380,2963,-2845
-57,-25,73,-1025,4044,-1742
-113,-113,39,-1693,4723,-574
-59,86,-120,-2809,2785,3572
59,-9,79,-289,820,7120
49,73,27,-1108,817,9057
122,71,-93,-2057,54,11018
42,-32,-55,-4603,-6653,801
95,-108,-27,2003,-10086,-2940
8,-39,-123,-8622,-9006,-9167
-47,116,97,-4016,-77,-10153
-75,-107,54,-2538,4447,-5565
61,-31,-11,-3470,3611,-1840
-57,62,-56,-1521,3537,570
-24,27,71,-1674,3502,4068
-106,-44,52,-3438,3679,5756
-39,-49,-44,-577,4651,7988
-117,-110,117,369,5893,8522
-69,25,-48,-7346,1386,9474
-9,105,121,-11239,-5752,2471
-97,-88,-103,-6339,-9680,-1548
95,94,-76,-5223,-4930,-9502
29,3,96,8133,-4437,-9773
59,31,-67,1482,-6457,-6823
-94,-118,99,-4004,-5846,-5358
-93,121,114,-526,-3701,-4252
-45,-89,85,-1975,-3233,-2176
-112,-29,-102,-1831,-435,-621
-5,-45,-122,-64,-45,88
126,124,-96,-238,403,1523
-97,11,121,-956,403,2400
-7,84,42,-608,1546,3589
-127,-113,-117,1225,2380,5265
30,-46,34,744,2639,7832
-10,19,54,1094,3059,6602
26,107,44,-1891,886,7042
-38,-68,-119,25,-590,4917
-67,-91,80,-1406,101,4739
85,-5,34,470,994,3429
-67,-30,116,1324,-266,2282
56,-90,-100,1571,-720,681
16,114,-87,822,-328,-968
16,22,-98,644,91,-1733
69,-64,-110,190,285,-2282
-115,-95,-112,-504,97,-2336
-92,-124,-124,-1000,-142,-2372
-46,109,115,-1496,-487,-2201
-29,-18,9,2084,5143,-3394
96,54,-126,-884,3343,-2564
-73,-125,127,2637,-1229,-7640
-73,-121,-90,-6292,272,-8085
122,-61,42,-4686,3172,-6515
108,42,70,-2050,3062,-4384
-119,110,42,-2421,2556,-1983
64,22,70,1630,3027,286
27,77,90,-2396,1573,3279
-81,66,68,-1801,354,6544
-79,-34,45,-1302,-802,8870
87,39,63,1302,-3011,11977
-22,44,-104,-1135,-6981,4138
-31,-27,-90,-536,-4911,-3462
43,2,-13,-2950,-5294,-8202
-55,51,113,-2298,-826,-10492
-6,-18,60,-2956,1124,-7930
-48,67,28,-4622,858,-4046
51,-101,-24,-5195,548,221
-55,51,-42,-1320,2475,4923
-114,72,-3,-4079,2671,6450
72,-88,107,-1622,1829,8250
-68,-55,-111,4157,3009,9389
-119,-90,-60,1437,2985,9402
61,-85,92,-14285,-4107,4804
-62,-83,-14,1260,-8487,-2041
-36,-86,15,-3199,-7646,-6818
-102,-105,122,2430,-5786,-8881
-115,48,-3,1878,-6264,-8551
-19,91,8,-637,-6669,-6424
40,-24,103,-511,-3930,-4576
29,50,-21,-811,-1694,-2004
-48,-54,11,-253,-657,-856
-73,-2,-10,898,429,504
98,-37,-43,-105,637,1193
99,-123,-110,-576,518,2288
42,-119,42,-765,1660,2643
-103,84,-70,951,1635,4371
-7,1,99,1863,3248,6914
-71,-69,-83,7433,4267,2938
-12,120,-10,-5760,1864,2851
-37,111,38,211,314,3448
67,33,118,-723,1877,2313
-78,6,-55,1825,5736,1629
-97,-20,-5,4882,2357,1861
-22,-22,-1,35,2671,971
-120,-61,46,-3284,525,705
111,38,68,-1234,-245,470
111,3,109,-532,89,-200
113,6,-109,-669,61,-489
-14,-39,-68,2206,6191,-8734
-85,-120,-92,-1389,4013,-7125
-1,17,12,-2944,2703,-5237
-118,110,-25,-2586,3587,-3035
-72,86,-48,-2475,3287,-392
50,2,-124,-1491,3173,200
-55,-79,-85,-1461,106,3227
103,36,120,-1821,-71,6696
-47,16,-45,-87,-286,9246
-88,23,-89,1213,-535,11370
-9,-84,124,-220,-460,9640
68,-74,-4,-6338,-7060,-3946
-91,-96,101,-5050,-7498,-5106
88,73,125,-4789,-3220,-10371
-120,49,104,-2415,1137,-10095
-27,115,53,-1516,3121,-6852
-58,-127,-45,-2801,2639,-3785
20,84,-49,-3040,2471,-1244
117,-59,22,-403,2702,1489
22,-31,89,-523,2756,5320
-105,-111,26,-2041,3921,6020
-36,68,-52,1103,4561,7682
0,-54,-74,4516,8565,8172
-47,51,-41,-11994,3318,6820
87,-67,-126,-3252,-7852,1119
33,-97,-69,-3399,-10514,2144
101,-85,94,-4357,-9660,-6462
15,40,77,35,-8131,-6766
107,73,-105,-2345,-6016,-6252
-74,75,29,-4905,-5308,-5645
-105,-61,100,-4672,-2800,-4926
-120,81,-100,34,-342,-2340
-79,-65,17,-165,-1,-733
68,-65,53,339,-22,606
51,95,50,-104,398,2323
107,-42,-15,-354,568,4060
-69,5,-119,275,1508,5935
-71,34,-26,1253,2320,9425
-38,-15,80,610,1450,9014
-32,95,10,-1779,1193,5700
59,39,116,558,-2595,7191
-38,-58,-92,-1018,-1271,5191
-72,111,-44,561,-947,1430
101,-1,27,1687,-746,971
-41,4,14,477,36,564
-93,-35,-29,119,632,-73
-109,-99,-68,602,650,-772
-39,113,-112,411,748,-1675
48,60,111,242,804,-2352
-99,-25,96,96,566,-2981
41,-86,-20,319,3848,-5720
78,50,-61,2865,3499,-7370
37,-17,110,931,2070,-8069
-70,97,-108,-5680,380,-6748
-16,-121,-27,-4523,772,-4218
77,86,4,-2708,900,-1079
-28,88,14,-1527,1853,2385
72,-43,-74,-1197,1705,4673
8,-127,104,849,-6,6542
-6,46,-15,-1221,-2454,8302
-29,-60,95,2097,-4036,9479
44,80,-15,-6133,-7512,705
-47,107,-6,1308,-3832,-7889
-6,43,-122,-63,-942,-9350
-92,40,71,-2357,425,-9122
127,-29,39,-4434,2443,-5961
69,-117,-14,-3380,3119,-2301
-91,-84,28,-5406,1635,32
71,-128,47,-4428,667,4429
-92,-120,24,-2688,-975,7113
-51,-43,18,-909,-1909,8900
111,102,2,-69,-1029,10798
63,11,-35,1401,-3227,9279
56,34,46,-8799,-1064,729
-112,73,44,-739,-8916,-4260
23,96,92,-4821,-4457,-9241
34,26,-88,1040,-3303,-9414
51,-113,-63,-296,-3072,-9531
-94,16,-29,-2912,-2420,-7776
104,-124,-127,-1882,-1500,-6110
112,32,105,-1197,-1463,-4382
-43,18,-59,-1621,-1064,-1517
73,-105,-65,611,353,128
-31,-3,-25,769,-90,1594
30,-84,-9,-17,-347,3005
-114,-34,-47,671,423,5402
-106,-104,45,2232,1731,7964
-22,84,-85,2984,987,10819
-75,121,-78,-1408,-1105,9108
30,-91,-57,-1970,-1824,7396
5,-117,-91,1313,-1795,4835
92,-62,14,1622,-1576,3387
-23,-67,67,1860,-1865,1145
-8,-73,30,3279,-740,-2060
-31,-113,-57,2187,1595,-2092
-88,95,-92,448,1780,-1604
-98,25,-89,-787,249,-1390
11,-16,-98,-1031,-667,-1779
-125,-31,-103,-1615,-290,-2361
13,-75,-119,-1582,166,-2912
-116,-5,116,-985,3561,-7785
-46,98,27,-3494,3297,-6713
-70,-31,-55,-1367,3350,-5351
-32,-2,115,-1867,3038,-3860
-29,-118,-65,-519,3402,-1792
12,-29,113,-3248,3781,506
-42,-65,-15,-2396,1363,5432
114,-17,-108,-1263,211,7253
127,59,-56,1723,-1445,10796
100,28,61,2078,-4139,8914
-17,-80,-87,-2890,-5075,-1255
76,-74,93,-1909,-7733,-4982
-93,14,-71,-2014,-3338,-9597
-15,23,97,-2569,205,-8990
112,85,47,-4812,2142,-5680
-92,57,-92,-3430,2318,-1782
-56,-21,-113,-3332,2132,1963
0,45,96,-4696,1765,5950
-73,119,-15,-1328,2225,7863
-27,-13,-58,58,2748,8961
50,-7,-115,2935,2857,8543
98,67,53,-7772,-1483,7829
1,-120,-106,-3406,-3482,51
-38,-123,-111,-1025,-9061,-3375
-70,-64,-123,-6388,-8165,-8874
71,-89,0,675,-5835,-9503
95,29,21,-4311,-4631,-8241
-120,35,10,-2908,-3050,-6762
89,-58,-123,-2433,-1041,-4564
109,-91,-15,-1181,-518,-1633
116,33,-21,347,201,-606
-56,-52,2,-937,99,1776
-45,-125,-70,-572,75,3686
39,53,-128,23,181,5212
15,26,51,1295,190,8056
-59,123,77,2692,-3560,10821
-101,60,15,-2282,796,3867
95,-17,6,521,-3045,3475
66,-120,73,1613,-1289,2846
52,72,-20,3677,1476,2667
35,45,90,5137,2104,3093
-4,-84,-87,1682,552,3831
-113,65,-56,-3403,-259,2810
45,-47,-117,-2384,-276,-48
39,-26,113,1338,625,-2411
61,-59,110,1821,915,-2993
88,-78,110,861,414,-2446
-126,-105,112,-551,-411,-1767
-93,-96,-128,-1424,-1010,-1504
-61,-76,-91,-2033,-1127,-1538
-96,73,-56,-283,5033,-6627
-9,48,-85,-2776,3768,-7548
46,22,-80,-3025,3396,-6402
41,-63,114,-1953,3543,-3864
-16,38,70,-1786,1879,-1447
-114,-108,-63,-502,1518,384
115,8,41,-1655,2224,2288
-94,-20,36,-632,1410,5443
81,62,-42,377,1024,7504
32,-99,49,869,-1003,11864
-101,-55,-63,5532,-3177,8212
20,83,108,-7923,-4911,-3028
3,113,-12,-1617,-10785,-6004
24,-79,76,-3195,-3727,-10661
-65,106,-106,-3729,-30,-8361
123,33,39,-4575,2238,-3989
-88,66,38,-3263,2385,-1461
-126,-78,97,-1840,2251,1884
-49,25,111,-2528,2516,6363
34,-90,55,-2637,2964,6900
-38,-46,-41,-181,3927,9052
-108,-38,-3,3421,5974,9502
-61,36,-111,3293,1365,3287
28,-49,-89,-3695,-3318,5065
10,23,-116,-8187,-8513,1965
44,46,8,-3994,-9386,-4312
-120,65,-45,79,-8023,-6221
-115,29,-100,-2768,-8032,-5974
-55,31,109,-4625,-6496,-6434
-52,85,-5,-4263,-4531,-6299
-9,-22,-26,-1015,-1794,-3650
-37,77,-47,464,-803,-1459
89,-86,-38,1950,-520,102
-56,32,79,1802,-210,1773
39,-43,-7,501,1993,2938
-108,-33,60,1219,4030,4079
-78,-72,71,67,5880,6549
-83,64,-25,1410,4094,9254
-107,-43,51,-224,3738,8142
126,-87,-37,-1259,2145,6967
-17,-67,-112,-2564,-72,8397
-7,105,-29,-1636,-2484,7382
-75,-66,-96,3803,-3479,2184
-29,116,-96,1937,297,-2508
100,-67,77,1155,3098,-3195
-110,76,70,460,1073,-3465
42,-21,-121,270,-936,-3339
-16,100,-38,-1283,-1655,-3714
17,41,-31,-2221,-917,-2932
5,-30,-36,-1516,-558,-2027
90,-83,-16,-2341,3456,-4596
113,-8,49,560,3422,-5863
-103,-49,71,-4271,3678,-5943
-111,-19,34,-1963,2379,-4299
-105,-73,26,-2341,1163,-2565
98,-102,-85,-4802,515,-806
31,-31,-91,-1933,2048,49
-16,7,118,956,1509,2752
95,-121,93,92,120,5497
30,-12,-23,882,-1272,7323
-51,-105,-56,-514,-3425,10633
-108,45,35,-450,-6085,8435
35,108,-53,-983,-2393,-6167
94,41,84,-2535,-5103,-8214
-93,62,69,-1594,-284,-9884
-122,-95,56,-2149,2403,-8031
-91,-57,36,-2143,2500,-4824
5,-74,-13,-4870,1555,-2130
106,63,-6,-2803,1597,1589
103,88,-44,-2212,551,3995
5,-2,-59,-2044,472,5708
63,83,-84,-2001,72,6962
99,51,79,1038,494,8789
25,-116,44,3631,2510,9339
-89,-29,-104,-2172,-1763,7525
-48,-83,5,-12878,-5072,1232
0,-127,-10,-2052,-6100,-5341
-16,65,-22,-2931,-5175,-11061
0,84,24,2358,-3890,-10021
119,27,43,-233,-3478,-8980
-44,28,-40,-2555,-3497,-7104
-90,125,121,-2906,-2118,-5064
-41,-125,-108,-3783,-310,-2359
69,80,-109,991,-105,-179
-21,69,3,-935,-379,1394
-30,-25,12,-1460,-598,2534
52,117,-83,-293,-58,3906
-95,-35,106,968,127,5376
28,9,89,1171,-1288,7312
-100,-124,-91,981,-3777,7829
68,8,118,-306,-691,4477
127,-71,-53,1240,-1231,5431
9,-25,97,612,-3041,6697
7,-15,29,447,-950,5379
-19,116,7,2573,-982,2540
85,-124,54,1823,-894,671
-68,12,3,1271,181,-1488
-64,123,-61,1171,1279,-2723
-26,-4,-96,1167,1040,-2946
66,80,-78,810,705,-2530
107,90,83,-3042,-865,-4486
36,17,64,-4084,1107,-4836
-23,96,53,-4059,3977,-5407
-64,111,14,-3805,4402,-2885
72,-113,-95,279,4875,-1482
-122,75,-127,-2681,1840,2448
-99,54,-49,-1615,2021,4057
105,96,109,-405,1425,6930
9,-74,62,-272,1489,9169
52,121,-127,-2992,-1735,8500
10,73,120,86,-8938,-4186
25,4,-53,1106,-6245,-6484
94,13,-67,-856,-4458,-9608
101,62,60,-3148,928,-7961
0,127,37,-3582,1841,-4710
-31,21,-71,-3293,2313,-1455
77,-122,-45,-2825,2607,2538
19,-36,78,-3965,3032,5107
14,-33,9,-2125,4047,7489
-72,-11,-90,-2004,4611,7041
42,52,-64,-3334,-709,7617
17,-96,-4,-2759,-3891,4259
63,112,98,498,-7637,18
-25,84,-42,-373,-8724,-3351
51,84,-82,-228,-9583,-6614
-74,68,-2,-41,-6754,-7672
-54,33,-41,-707,-5377,-6889
122,107,85,-1638,-2465,-5444
-86,-95,-106,660,-1071,-3266
-102,-112,-11,1780,296,-1733
-10,-106,114,-1207,-1092,704
-6,97,35,-2384,-386,2058
103,-23,85,-938,727,3299
-38,102,-68,-242,1715,5542
62,98,125,-371,1298,7687
10,95,-73,1883,72,9803
73,25,41,-278,555,7928
16,13,105,-1194,699,7506
-55,80,84,1679,-1328,4501
78,16,48,1070,257,2152
-128,-80,-87,-393,113,698
-34,-32,-92,-803,-69,-745
-29,54,-91,455,161,-1632
23,-65,-115,1504,792,-1344
62,-106,101,1310,1016,-1648
76,-119,-125,414,174,-1458
112,119,-103,-637,-654,-962
-88,-125,-73,-1372,-306,-519
-120,-113,-76,-1369,-178,-374
-116,-125,-90,-471,52,-616
115,-127,-89,-1184,2028,-5074
62,99,-19,-1091,1642,-6188
113,-102,-36,-3122,1291,-6545
-59,-95,-80,-3275,2031,-4932
-12,83,23,-2891,451,-3773
-58,-78,96,-4493,837,-1835
-4,121,45,-1088,2038,1177
-16,-7,-113,-170,3625,4209
69,53,-9,-3310,2748,7103
125,4,57,632,2051,9525
39,-127,117,1159,1431,10242
-74,-112,57,-4904,-5083,6890
-73,68,76,702,-8018,-1507
-119,83,86,-3342,-6648,-5210
92,-116,-105,-2305,-4951,-9236
54,-47,-121,-5729,-1435,-10820
-21,0,58,-3419,-391,-5676
-5,-33,26,-2605,1338,-2030
119,-107,44,-2559,2515,1400
-128,119,56,-4002,3590,3365
-9,-49,13,-3300,4010,5356
99,46,122,57,5299,6965
-49,-89,-62,1538,4521,6485
-65,53,74,662,3113,8539
-110,123,-102,-8599,182,7686
42,49,57,-9691,-4913,1710
-15,23,8,1610,-8486,-3284
-26,93,108,-3110,-7606,-4550
126,6,-5,-3061,-6894,-6822
106,12,120,206,-4272,-6708
60,-122,43,-2427,-4201,-5996
-15,-13,-88,-2581,-3046,-4836
-46,38,-73,-4921,-2244,-3347
-55,83,56,-2615,-1603,-1165
87,35,-127,428,-147,45
-40,-49,-41,-531,-228,1369
-113,31,-95,497,-86,3596
114,-99,-118,2091,-460,6290
113,89,-12,1586,-1404,8311
110,34,-53,1795,-1358,5252
123,88,18,1055,-2232,5605
-105,2,15,512,-1360,3242
-36,98,35,1083,-462,2092
2,-109,-10,1255,1278,992
55,-48,-125,2060,2569,575
83,-109,103,3023,1802,1372
-128,-97,119,2259,806,2571
105,-49,-105,-94,137,2194
72,-63,116,-455,228,1181
51,-104,-124,742,-71,306
-18,-123,-71,-1138,2473,-7911
110,106,-110,-3451,1818,-7900
99,9,-48,-4240,2084,-5438
-80,30,-22,-2336,2425,-3275
-38,-5,-31,-2913,3503,-2118
60,51,-96,-1696,2673,811
-2,-113,-88,-2737,457,3988
123,-52,85,-1533,732,5812
-100,-26,29,-773,482,8410
92,117,127,1300,-406,10935
-112,7,22,-4903,-4507,5397
87,-66,112,3104,-6158,-2742
4,116,52,-1901,-7738,-6113
118,-51,121,-4958,-4593,-9973
53,-49,102,-2437,445,-8010
111,-93,45,-3585,1164,-4928
57,51,72,-3030,1484,-1835
82,-18,127,-2660,1386,1099
81,41,94,-4319,1363,4406
-2,19,-22,-1369,1775,7804
49,26,-28,-1774,1982,9781
20,60,-56,2063,3138,9445
0,127,80,-653,1062,9165
108,118,-10,-11409,-5489,4082
125,9,10,-2109,-7871,-4340
3,20,-66,-4741,-6180,-9078
41,-49,-18,1444,-4017,-8231
74,-48,33,-321,-3868,-8699
-114,3,-120,-3438,-3833,-7685
102,21,-112,-2103,-1454,-6573
108,124,-75,-202,-482,-3939
-33,59,-16,-77,-556,-865
-3,97,37,-451,-778,1430
-30,33,46,-647,-504,2962
9,-36,34,-640,-92,3843
-68,-126,-101,536,1217,5611
96,120,66,1522,376,8038
40,46,-29,1088,-1597,9479
39,0,123,-318,-511,6314
-100,127,122,-1480,-2786,5767
-77,-40,26,-2660,-2668,5068
-70,-115,0,-442,-937,3733
-8,99,72,890,-1111,851
74,-36,49,2452,-635,-1492
-23,-118,3,3073,318,-1853
-96,91,-56,1720,1314,-1342
-61,50,-81,689,1288,-1026
24,-50,112,1413,1216,-1603
99,107,70,1864,611,-2313
67,-77,-114,-965,-1054,-1819
56,52,-124,3006,3112,-8064
74,58,-39,-1124,-1260,-7374
90,-69,-58,-8319,136,-7837
-59,-94,-80,-3295,981,-5477
-52,-46,16,-1247,3224,-2806
86,-29,60,-89,3085,212
109,-112,-14,-1341,3020,1580
74,-12,75,-4644,690,5131
-32,93,-29,-21,-555,8989
-19,-38,-125,-811,-428,10353
117,-43,-48,-440,-4994,4059
-124,60,-92,-2389,-6906,-1636
101,75,80,-1410,-6004,-6516
100,115,117,-3875,-2366,-10364
-75,73,69,-776,1252,-9119
2,41,47,-2052,1641,-4688
-23,-104,-87,-4141,2018,-1897
49,70,-89,-3220,2288,906
18,-89,59,-3201,2221,4919
-77,7,83,-2743,2786,6971
57,27,-2,185,4662,8050
-46,29,42,2564,5619,7693
45,-8,-103,-1513,4298,9329
22,9,6,-11391,-1168,3598
23,-85,85,-2849,-8492,839
-37,63,82,-5699,-8426,-2877
69,85,-4,-2944,-5717,-7151
-24,-71,123,2023,-5010,-7868
70,-125,0,-2132,-5291,-6950
26,3,-2,-2858,-4608,-6057
-80,-112,84,-2443,-3413,-4449
13,-32,-76,-1294,-1585,-1507
84,-13,47,-2097,-798,-64
-56,39,39,-1148,-47,1032
-61,-108,4,-402,97,2435
-43,-4,-67,718,801,3778
0,-50,78,1717,1657,6055
38,127,1,2016,818,7336
28,10,-68,-80,786,5132
1,-69,-11,1447,-286,5031
46,-26,17,46,-570,4754
18,-91,-77,723,-1092,3621
24,68,-94,604,791,1909
35,-120,-84,603,1740,292
73,-66,119,1706,1713,-50
89,-95,110,1690,1123,479
79,-115,120,680,567,486
85,124,113,-466,286,366
81,96,104,-71,222,204
83,58,105,885,257,-81
-72,9,92,-2586,4670,-5008
-32,-98,-6,-198,1419,-8883
18,-24,102,-2729,1389,-7923
-61,54,90,-3685,2021,-6966
-122,-32,72,-4052,4426,-5038
13,-15,48,-1837,2170,-2275
-50,-126,-95,-1941,1418,-296
-44,-122,35,-1373,1382,3143
104,72,0,-2646,-98,5925
-79,-46,20,19,-1416,8286
53,68,25,638,-3075,11497
53,48,98,-974,-3526,7017
59,72,-113,-3059,-8587,-4698
-92,77,46,413,-4937,-7231
67,39,-116,-2778,-2488,-9649
-122,23,77,-3027,982,-8037
51,82,42,-4150,2427,-5308
-94,114,94,-3544,2539,-2013
30,-11,118,-2973,2504,1601
33,71,58,-5377,2122,4900
-124,-29,-55,-4008,1451,8282
-4,13,121,825,2443,9951
121,26,-92,3254,3018,11475
124,-18,58,-14898,-1720,8527
-53,-98,100,3195,-8338,-1173
105,8,121,-5512,-6173,-5330
99,32,54,-1072,-7359,-9036
-9,-128,21,-1452,-6027,-9477
76,-59,-31,-2183,-5473,-8440
-78,-46,110,-3386,-3134,-6518
-97,2,-103,-1656,-1679,-4914
-78,-94,-25,-552,-1184,-2032
85,-16,25,489,-559,-100
-60,-73,-128,-1425,-1033,1746
-70,90,96,-737,-315,2984
-21,32,-18,619,550,4647
80,-41,104,1769,554,5594
107,-56,-51,3816,-638,7294
90,-32,62,1788,-525,7059
46,-40,48,2518,-142,5669
113,-102,83,2425,-984,6036
-8,14,-121,723,1498,6044
88,10,49,-1144,1721,3749
60,-78,-30,-2357,-1035,-128
-42,6,-26,2485,-754,-3684
-18,-101,-102,3802,1209,-3218
18,-63,-127,500,1863,-1953
-9,110,-106,-503,553,-431
-29,67,-116,278,-406,296
22,87,123,-171,-26,131
-91,118,60,1618,3030,-6156
-3,-121,42,-1768,2222,-7115
-121,-73,-110,-3471,3873,-5832
47,70,3,-1370,2692,-3703
-58,-6,-128,-2558,2372,-2071
45,-34,-101,-2753,1980,-126
-111,-35,54,46,911,2720
-29,50,24,-1231,66,5256
-68,83,-83,-321,-434,6099
100,-100,-6,-1326,-1051,7010
99,-79,87,-1252,-10132,10589
3,124,52,-5424,-6575,-1526
12,-118,-81,3342,-3015,-11216
-125,26,99,-5471,-1712,-11605
-45,-41,60,-1447,2856,-9022
-83,-89,33,-3338,2952,-4004
-9,15,35,-2640,2269,-1368
-52,-73,-24,-3473,1484,2251
-52,-74,-58,-6486,641,5479
-89,-72,-67,-2904,-402,7111
15,15,-15,-515,-596,10207
-69,17,-8,3618,1906,9098
110,2,85,-835,-1469,10575
15,-51,-32,-9981,-7366,484
-124,29,69,-2197,-5467,-6272
79,-11,-122,-789,-5539,-13181
86,28,-58,1822,-4518,-10042
-58,-23,-22,-1313,-2996,-8337
-102,123,103,-2587,-2354,-6903
56,-106,-40,766,-1353,-5198
38,-87,-45,101,-1151,-2099
64,121,-13,-1380,-999,122
-12,-52,36,-448,-1303,2409
13,-23,37,-1042,-49,3698
100,106,-50,-58,804,4657
-10,-107,47,1070,377,6946
19,-106,-12,2955,-1907,8211
9,-47,-118,1752,-1431,8314
-3,71,-93,2266,-2323,7262
-93,101,13,102,-882,5225
-46,-41,-120,2289,-235,3508
-47,103,-96,1862,1096,772
43,-18,123,1079,1737,-804
-63,24,125,1270,836,-1707
-53,-27,-126,903,165,-1087
-20,-119,-120,223,-100,-1319
53,93,123,-439,180,-1560
91,48,121,-276,-39,-1275
86,18,-116,39,-330,-807
87,22,-108,-93,-88,-596
111,62,-103,-3142,1474,-5586
-23,-112,-124,-1906,475,-7578
96,59,44,-4687,2920,-7341
33,35,-79,-3627,4787,-5820
-55,73,-90,-1248,2900,-3793
80,83,-84,-3354,23,-1434
42,-107,24,-681,1705,2637
91,40,11,-2006,1132,4349
31,-51,125,-631,134,6130
40,21,93,112,-1390,8838
79,51,-91,4233,-1472,9380
-85,81,-127,-4556,-8820,-1338
57,0,29,549,-7138,-5704
-16,11,125,-2005,-4529,-7553
-58,61,106,-2791,-54,-7692
-73,-80,45,-3422,2057,-5299
-82,44,-37,-2825,2228,-2675
92,-124,-101,-2912,2185,-422
-115,77,30,-2131,2536,2480
-11,78,-64,-1604,2895,4630
-54,87,-93,-1770,2702,7617
-105,42,-101,-3155,2192,8927
-2,87,-113,2273,2182,11009
-82,-115,-3,-8427,-2973,5456
-55,126,-46,634,-6102,-1
-21,95,-21,-2433,-8635,-5023
-87,109,88,1003,-7130,-7532
-113,31,90,-399,-6471,-7045
-43,-88,-119,-3930,-6492,-7230
-51,-33,125,-1450,-2719,-5351
122,91,61,587,-1273,-2457
-24,65,-85,124,-653,-1165
-48,125,10,-224,-465,620
88,127,-32,-824,150,1675
-43,7,125,-465,1014,2874
77,68,6,23,1861,3842
-82,26,72,216,1870,5043
-31,64,-47,856,662,7644
33,-50,41,-1274,1216,5906
-115,-4,115,210,-1231,4884
50,-124,61,47,-2068,4541
34,-122,-17,914,-611,3285
48,-13,-88,1227,1567,1211
23,100,-103,703,1098,1176
5,20,-127,553,396,1159
9,-20,112,286,375,593
12,-79,89,448,334,-180
41,-99,95,271,136,-447
87,-123,98,200,192,-426
88,111,95,477,168,-536
-30,-126,-1,-865,3153,-7982
13,127,36,95,1986,-8780
55,-62,46,-3083,662,-7083
-17,-35,37,-4775,-1040,-4708
34,83,-18,-2481,1096,-1077
81,91,-37,11,1978,2097
10,-66,124,-2037,1820,2897
-108,-100,-105,-721,1016,5514
82,105,-52,-67,-597,8623
-87,-53,-128,2544,-1568,12420
121,-124,93,3307,-5872,10322
-123,-91,119,-8399,-5124,-3830
-25,-72,-70,-413,-6088,-7635
-50,-79,-50,-3889,-2329,-9343
-73,14,-8,-5879,400,-7449
-1,-84,-120,-4130,1504,-4407
-29,120,-113,-2821,2458,-697
-115,70,86,-3699,3131,2317
90,95,6,-4296,2036,4941
-77,-119,20,-2137,1123,7647
16,-77,17,-280,1702,9466
93,-60,1,547,1759,10645
33,102,43,-6599,-2613,8264
79,-56,-46,-73,-3651,527
-12,-67,84,-3524,-7137,-4771
105,-24,51,-4905,-5647,-10626
95,66,-22,2358,-5357,-10121
-105,-50,-10,-2449,-4784,-8522
-55,34,-12,-2379,-3663,-6893
-32,-62,86,-1817,-2389,-5557
-121,51,65,-1987,-818,-2421
-55,-119,-36,470,-43,-1087
-19,-63,42,-1038,-1004,1839
-63,-109,56,-1286,-863,3737
1,80,7,-143,244,4485
-55,72,-115,1612,1303,6297
103,67,14,3507,750,7703
-19,-93,87,2241,771,7520
-40,68,-93,1816,893,6714
93,91,-97,276,-2213,6315
-99,8,-127,53,-857,5543
-1,-105,126,428,646,1717
73,-49,-97,2103,813,-1070
-5,-87,-118,3453,955,-2832
20,-126,-119,2039,1031,-1774
32,75,-100,447,739,-905
49,24,-95,-408,-25,-91
59,4,-106,-156,-292,-94
84,27,-95,-536,-314,-304
87,32,-95,-715,-365,-242
-49,38,-61,-2512,3127,-6867
89,50,-4,-2935,4808,-7309
27,11,-36,-2532,4863,-5796
-106,89,-35,-2384,3081,-3782
-91,38,-39,-2909,4034,-1526
-42,-67,-99,-1195,3981,377
56,119,80,-647,3166,3405
-121,-74,-17,-965,-587,5686
-99,-115,94,-1996,-1576,7605
-110,46,112,-793,-2559,9533
-68,-112,77,-85,-2579,9937
90,82,88,-8496,-6309,-5106
-21,98,55,1161,-6443,-8357
127,102,-109,-3467,-1739,-10737
-91,10,71,-895,1127,-9131
119,-91,37,-3842,1527,-5593
-116,61,27,-3927,381,-1557
-60,-114,-95,-4391,1395,688
125,50,22,-1093,2235,2962
93,-76,4,-1576,1899,4384
123,-9,14,-2826,1266,7197
-4,62,-99,338,1648,9433
63,-90,-31,2383,1828,9942
104,55,-114,-2449,181,9719
86,-53,112,-16795,-5816,3131
-92,-47,10,511,-5440,-5857
-50,-122,-64,-2174,-3971,-10297
-2,-62,-119,3970,-3959,-9419
41,61,47,-723,-3983,-9824
-53,-106,62,-1316,-3795,-8502
-53,69,-35,-1126,-1847,-6405
-87,52,-80,-173,-564,-3721
100,-35,33,-1791,-530,-851
82,40,6,-207,-97,-250
-24,109,108,-1085,-848,1923
29,30,106,-1555,-39,2618
98,86,1,-260,354,4334
-95,11,-109,200,-288,6038
-43,6,77,2006,-1848,9104
79,127,22,931,-1036,8928
92,-3,-24,1626,-950,6375
-9,-41,51,1598,186,4965
3,77,67,1699,1243,3643
96,56,76,2032,498,2878
118,2,113,1766,-56,965
-18,57,-113,1786,306,-1224
-25,-59,-116,2564,683,-1868
18,89,-95,1594,715,-2078
71,31,-78,690,361,-1769
96,-23,-58,407,-138,-1342
-105,44,-83,-1790,1409,-5166
-97,-49,62,345,3029,-8777
-18,-117,36,-2406,2725,-7964
114,113,81,-2294,770,-7527
44,-44,-1,-3104,1856,-4313
12,69,-83,-3510,2122,-2380
93,-64,-27,-2171,2061,348
16,-52,96,-2814,1378,2649
116,-80,-71,-2989,-1323,6205
42,-2,-56,-1843,-3097,7857
27,-14,-121,1284,-2882,10430
-88,48,47,-603,-1435,9823
-92,34,-128,-6968,-8383,1260
68,124,56,781,-7456,-9106
61,55,-77,-3571,-2512,-9777
99,3,-115,-3329,-413,-10396
-94,-82,65,-4156,2714,-6938
78,-83,-97,-3254,1916,-3664
3,-53,-125,-5270,1853,-462
126,-62,81,-3953,2290,2530
-26,-72,-32,-2374,2066,4608
-40,14,-50,-2598,1200,6902
47,125,-73,-2708,378,8679
106,-92,51,1191,1013,9780
6,-107,24,620,-882,10291
96,-82,22,-13104,-2356,6325
119,68,-7,-2230,-8789,-4304
-59,72,-69,-5428,-6363,-7846
-44,0,123,-2872,-4065,-9538
-18,118,46,1647,-954,-9073
99,35,-83,-2059,-3626,-8360
-41,-90,67,-3678,-2393,-7081
94,100,22,-1511,-2150,-5767
-42,72,-110,-1834,-931,-2954
-91,30,-16,165,955,-1120
48,79,7,135,132,1894
68,-107,-44,-1421,-324,3596
-70,6,95,129,230,5205
87,-29,22,1218,236,7927
-21,114,-22,2920,-974,10815
125,-74,-119,1042,38,8100
21,3,1,714,-1981,6203
26,42,120,615,-1174,5040
-98,127,-32,362,80,3099
-54,17,0,2150,-270,1263
38,-94,-6,2808,-363,-569
-39,65,-36,1540,642,-1351
-56,4,-83,434,1304,-1096
-62,-51,-116,-41,722,-905
-14,-91,108,-511,-57,-1116
-5,-76,-10,-4103,-1233,-4209
-118,-47,53,-2877,881,-10558
-54,-11,123,-2029,3754,-8846
-44,-109,-13,-3967,3283,-8262
58,-105,-60,-4362,4165,-4552
73,-2,118,-2687,1632,-2604
6,-102,42,-2214,1187,-492
-84,22,-44,-1612,1931,1549
-7,-118,-56,-2946,689,4249
43,111,126,-991,-2372,7623
-112,55,-22,1765,-1793,11286
-114,-2,-83,1707,-2524,13934
-4,41,95,-6549,-5293,4286
-80,121,-67,-1411,-6433,-7756
-77,77,-27,-2644,-1783,-9983
-118,35,105,-157,967,-9437
-58,-89,88,-3124,1224,-8322
125,-78,99,-315,1873,-4249
79,-15,57,-3526,323,-2188
-59,-97,72,-4717,1288,-703
127,15,2,-3265,1087,1767
-45,99,42,-4047,-466,4253
71,101,72,-2953,-903,8151
58,47,5,1374,584,11609
-55,-58,89,3166,3055,12236
85,-81,86,1984,-2522,7942
-60,35,-7,-8049,-632,3327
10,-77,-62,-6284,-7754,-2867
31,5,6,-5386,-6427,-9677
16,35,-78,2552,-3506,-9962
-120,73,-113,-160,-4624,-9045
-21,123,-114,-4632,-4169,-7460
-15,100,60,-3212,-2321,-6037
-45,19,88,-661,-1497,-2589
-84,39,-26,-1806,-1564,-943
3,-51,-36,-172,-21,796
15,127,-31,-188,-47,2150
105,29,-112,678,673,4034
-47,115,61,1826,1401,6093
10,-99,-8,2217,55,9392
-76,-83,56,4318,-1027,7438
11,38,-112,2988,1973,5220
-72,61,124,600,697,6778
-65,124,-31,1446,780,5339
-114,-5,24,4538,1537,2578
-68,36,6,6206,-1007,864
-128,53,-37,-4781,1130,1567
101,0,-69,653,-462,-984
-117,-51,-67,1550,141,-1251
-85,-40,-61,-713,168,-2182
-119,-47,63,-737,1872,-7685
15,40,-73,-3908,4075,-8934
-23,-35,62,-2126,3597,-6328
-78,-103,30,-764,3625,-4217
93,100,92,-3297,2889,-2224
-30,63,-66,-2767,1464,-833
-75,-62,84,-1524,425,2161
24,-48,91,-1503,-354,4330
-116,47,65,-1622,-1294,5853
-96,101,17,-199,-2160,7759
-42,19,-109,3154,-2421,11559
60,63,127,-2900,-4079,5706
50,59,120,-3685,-8739,-5506
-56,57,-21,-1300,-4205,-7940
114,-7,-21,-1280,-2422,-9649
-126,-84,-127,-5136,213,-8424
24,-58,56,-2310,1667,-5200
11,-7,114,-3838,1799,-2115
48,18,-121,-3331,1956,507
-59,-16,57,-2087,1477,3030
-60,97,15,-2317,1538,4575
-71,127,40,-1821,2397,6518
107,-31,-46,-1148,2957,8556
-123,-64,74,1964,2491,9791
25,-88,18,-3519,-102,9378
98,-80,85,-6245,-3878,3893
-36,-75,99,-203,-7267,-2746
-127,-96,116,-2585,-8332,-5189
25,101,-107,150,-7841,-7478
60,12,96,-1537,-6902,-7525
-82,-15,-17,-2467,-4719,-6899
-90,29,-2,-1927,-2637,-5201
100,-23,22,-938,-717,-5197
56,-55,-125,1668,-957,-1350
88,-124,16,-1082,-729,-275
-22,127,48,-372,-4,1622
-8,109,-9,-1214,481,3095
111,45,113,-2278,2023,3484
-3,-105,-46,-411,1280,5354
42,77,105,-1428,-525,8168
100,58,5,2151,-3622,8825
72,-37,0,-1531,-1618,6136
26,13,89,508,-1374,5040
0,-103,-78,1225,-844,3772
-27,-5,-110,2428,1234,2479
-78,8,104,1787,961,2337
65,-12,-97,647,-57,1884
-30,-111,-85,678,-490,395
-54,75,-84,470,-1,-897
-12,-9,-104,227,621,-1262
-30,87,76,3143,-2715,-2776
-62,-102,18,-5369,6501,-7857
24,31,-87,-2111,3256,-6754
16,53,-80,-3661,4059,-6043
6,-114,-36,-3440,4625,-4530
-8,-7,-10,-1159,4961,-4270
-44,-35,29,-1235,1678,-180
-47,-119,-29,-2291,394,1999
-37,93,-24,-1912,-1750,4281
-87,-120,-77,-685,-2190,6806
-80,-54,127,883,-2393,8940
71,-126,-96,1511,-892,10611
123,37,-48,-9397,-7991,1666
69,125,-112,1505,-5893,-6878
-70,65,-71,-963,-1829,-8588
56,38,85,-4511,762,-9483
37,69,48,-1968,2357,-6840
-11,7,27,-4391,2910,-3703
66,17,52,-2416,2364,-1058
77,-35,51,-2881,1351,2701
76,-111,51,-3972,58,4738
-64,-59,16,-1817,-165,6964
-15,2,-10,1007,611,8959
41,-128,64,3227,1701,9909
-94,-114,-79,1129,1225,7695
-98,-114,61,-8811,-3416,4159
-9,-90,-80,2196,-5856,-603
71,-120,-38,-5387,-9027,-6729
61,-116,42,-1514,-7563,-9008
101,-60,94,-1145,-4437,-8140
-81,87,-113,-1872,-5343,-6789
42,97,113,4,-3051,-5875
85,-124,71,-1532,-2418,-2599
55,124,-83,-45,-556,-1492
48,-112,6,-510,-109,853
-16,108,-55,-832,-412,1618
64,-7,18,-74,810,2191
-65,2,123,1958,2368,3525
21,-97,74,1840,2204,6229
52,-105,-105,2835,1104,8943
-91,-72,119,-106,-137,7838
122,-100,-77,1202,596,5974
-91,54,-128,350,1328,3967
-101,36,15,2353,3874,1859
90,-63,51,923,2317,1690
-44,-91,-87,-2643,-1069,1378
-81,39,-70,-1355,-2054,-279
-8,-121,-97,1787,-596,-944
25,-126,-79,1444,1093,-1236
23,114,-66,587,757,-983
96,-98,-46,1614,1388,-5856
-55,-125,49,-2876,2943,-6749
-4,-14,89,-3477,3231,-6912
-97,-73,53,-3481,3655,-5218
87,61,-36,-1967,2737,-2999
-79,-24,-46,-1727,2326,-414
78,1,-118,-849,1604,1761
104,-14,108,-469,878,4347
-17,104,52,-370,1162,5532
-96,90,-5,942,903,7314
-67,-76,-32,3915,1742,9768
-93,-116,-107,-4043,-3412,5754
42,88,85,4256,-8364,-663
84,29,9,-4602,-7451,-4164
-39,110,116,-3670,-6416,-9101
20,-78,-87,-6765,-872,-8178
104,32,37,-5428,1626,-4242
39,45,119,-5564,3199,747
-20,11,-42,-4330,2035,5687
-111,-59,24,-2492,2597,7391
9,92,-15,-1587,2253,9290
-1,13,-14,2024,3697,8047
-87,120,103,4527,1832,7922
39,1,95,-11872,-846,4848
-81,43,114,-4089,-8991,1248
-17,-60,-18,-3315,-7518,-5040
89,-54,-117,-2273,-6971,-7992
52,69,-20,1355,-5388,-9147
-121,18,97,-2626,-6294,-8534
-25,4,124,-4136,-4068,-7429
127,-9,-105,-1171,-2626,-5000
-41,-127,75,-335,-389,-2144
-115,12,-80,935,1431,458
58,-47,111,103,624,2229
106,-5,55,-1719,652,3976
-32,88,-81,-201,1265,5744
49,67,95,1319,557,8076
-80,-107,-123,3060,-433,8904
-126,71,43,1104,595,5382
93,-4,-30,-843,931,4954
-37,75,-13,1333,1771,5081
-35,24,-73,1538,3451,4657
61,-15,28,940,1348,3685
100,-106,-88,522,-1182,1071
20,124,125,893,-801,-326
-11,20,-124,954,-21,-1553
47,-25,-119,-159,139,-2200
116,-89,-103,-579,-476,-2471
-93,93,-98,-389,-816,-2608
-86,91,-88,-815,-711,-2245
74,48,80,-7673,1052,-2674
-82,-37,-58,859,3747,-7281
-74,-126,-33,216,3495,-7535
-123,-25,-122,-4422,3432,-6049
-124,69,120,-1908,3944,-3099
-110,42,-16,3896,2284,-894
105,22,-75,1714,2001,2310
94,23,74,-2849,3092,2932
-75,59,-19,-2198,2147,5975
106,1,106,1535,2312,8600
109,125,-76,-353,2930,9798
-4,-32,-43,-10445,-5517,3984
-117,29,121,-73,-8240,-3877
-98,49,45,-4642,-3107,-8044
-103,114,-127,-2314,-331,-9973
-45,38,53,-1768,2297,-8410
-45,53,32,-3333,2367,-4779
-3,-121,-119,-3487,2019,-1813
115,66,-72,-2112,2005,1911
92,92,100,-1919,2481,3979
-40,-22,74,-2501,2377,6320
-22,-45,-2,238,2558,8373
3,-126,102,2313,3644,8210
25,-107,-34,376,3401,7498
-5,113,-52,-6621,-1541,3472
-81,8,103,-1321,-6459,2517
-47,84,74,-4700,-7753,-952
-33,-90,-83,-6074,-8304,-5344
14,54,106,-2255,-4857,-7718
34,-49,-55,-141,-3401,-6907
57,-59,-67,-2677,-3679,-5521
-22,-111,88,-5361,-3865,-6093
127,67,-109,-2504,-1190,-5323
-9,31,8,1232,-226,-2255
81,-96,103,-1066,-230,-11
4,-101,55,-486,-116,2264
-9,112,10,-28,-148,4700
53,57,-43,508,555,6686
-81,81,105,2209,-376,9536
105,24,107,1388,785,5834
84,-74,27,2127,160,4810
-65,50,-100,1447,-514,4678
115,-86,-88,803,0,4065
123,-68,-94,1030,1489,2610
-96,-112,-127,1557,1428,2220
93,-112,-101,-47,172,1570
19,78,-68,-404,-801,156
31,-35,-79,1046,236,-951
48,-113,-73,1475,407,-925
25,111,-60,917,231,-529
-104,-18,65,6631,3362,-6478
-64,126,-42,10623,-476,-7099
-88,90,-70,-3016,-3537,-5405
-104,-123,70,-9355,-2753,-7245
46,-118,85,-7478,-133,-6073
-35,76,58,-848,863,-1376
34,121,-62,719,1116,1916
29,35,112,-2639,1636,2775
105,75,-29,-1286,1426,4775
22,-90,-82,-816,2089,5902
65,-75,-106,-2330,1095,8225
-40,32,-82,1782,-3042,7429
-10,-6,13,-2811,-6444,-715
110,-39,117,2682,-5649,-5345
86,-42,-96,-929,-3450,-9041
-97,-8,119,-2904,-2382,-9049
51,54,51,-3811,665,-6030
-4,-78,23,-2391,1413,-2366
-95,90,3,-2928,836,82
3,106,20,-1092,1179,3328
41,33,72,-2483,2095,5339
-24,88,6,-892,2844,7034
-6,73,114,2434,4480,8105
80,14,8,4513,6549,7191
21,1,56,-4961,522,6631
-118,57,126,-9764,-6481,2546
113,34,-52,-1452,-7960,-78
72,-81,86,-3673,-7022,-6426
65,-100,56,-5951,-6454,-6761
59,-28,-107,1867,-2451,-9661
-91,64,-7,-2306,-4789,-5869
-26,-38,-2,-3805,-2993,-4572
62,-48,73,-2165,-1752,-3490
-73,123,-35,185,-282,-2178
41,-121,127,-218,-208,-6
-49,-89,-94,-441,173,1715
14,-93,99,-3118,-111,4179
-106,90,-125,58,-85,5553
24,-80,29,3841,-2177,9735
18,-45,-18,305,-325,6127
-116,88,75,1996,-2006,4247
-24,53,-55,1534,-493,4882
-98,-13,39,1080,-109,3629
-90,1,-65,-863,-144,3250
-109,41,-50,355,2329,971
46,30,106,2853,1339,-472
25,-22,125,2778,18,-378
24,-80,117,1919,283,-131
29,112,-105,862,108,-216
64,87,-76,471,-71,26
70,87,-67,6487,-598,-2057
99,64,-1,-39,1238,-994
116,-53,-32,-188,485,-317
92,-104,-53,546,-767,-299
124,-85,-57,-408,-313,-535
-124,108,-59,-252,-420,-226
-92,-110,-67,-641,451,1022
-60,-88,-22,-406,1348,2161
-45,105,60,-1573,491,343
-50,89,21,-144,-179,-781
6,-115,9,-824,372,49
11,-125,-1,-893,396,524
66,61,6,2024,-24,1105
4,99,75,2164,89,970
-32,-77,80,-1313,1132,456
95,113,15,-1104,1418,891
60,-89,12,-1676,845,1441
12,-60,9,-2028,303,861
44,-72,17,-1054,-99,231
69,-84,27,321,-186,-74
46,-77,56,530,-193,-204
61,-54,73,38,-47,-104
47,-47,80,-494,-13,43
54,-53,77,-496,-89,44
70,-30,105,-695,-267,218
58,-21,102,-735,134,33
32,-35,78,-266,307,-26
18,-9,76,-358,4,-67
36,-9,51,-280,184,-262
20,-18,38,-49,-20,-278
18,0,39,-385,-233,-98
26,12,47,-575,-321,-130
6,11,53,-435,-654,-196
-24,22,60,-351,-977,-218
-14,66,65,-634,-411,110
-8,106,74,-970,211,-236
-2,116,-125,121,198,-184
-10,-89,-59,1468,-1544,-820
57,-103,14,-142,4092,-5114
22,-54,110,-1247,3531,-5503
-124,7,-55,-3030,2920,-5263
-42,-65,120,-3083,3834,-3990
-29,27,117,-1240,2983,-2362
19,-31,-125,121,2412,15
105,0,77,-2159,2274,1431
34,53,49,-872,-23,4317
-99,-57,-27,1697,409,6468
-101,-16,-61,1737,1519,7865
-115,60,-48,5844,4392,10459
31,51,29,-15894,421,9077
-87,55,-105,-2578,-7136,-8876
-98,-59,-116,-3547,-8600,-7571
12,-25,116,-3129,314,-10273
3,53,63,-967,1202,-8184
13,-2,25,-2761,1881,-5211
102,61,38,-2755,1755,-2202
14,-71,36,-1742,1050,1227
-64,21,22,-2324,1139,4226
-22,107,9,-2276,1677,5239
-9,58,-41,943,2315,6955
57,-33,98,5221,3614,7896
-81,-40,14,10534,6099,7718
-47,-15,-16,-12062,4885,2206
-38,-16,19,-2331,-8176,2727
-42,59,88,-3214,-8644,913
-43,2,-77,-7377,-9177,-3565
18,6,-30,-1730,-5497,-5037
-71,-110,-78,-2486,-4535,-5247
21,29,122,-3214,-4436,-5383
-101,101,-24,-2761,-4127,-5499
-72,-126,-124,-3836,-3321,-4792
-3,-121,-91,-2725,-1319,-3318
61,18,14,1023,-610,-878
59,-95,-117,12,-253,1784
32,103,61,217,807,3658
93,-8,-81,1295,2564,5984
81,-84,49,631,2029,8839
48,-12,106,3688,-36,6498
59,-57,116,1021,-471,6327
-88,-126,-68,-616,-2102,4743
35,78,127,159,1329,3193
82,-65,-25,1432,1339,2815
106,-125,-76,1381,1590,2266
61,119,-3,229,-396,1289
87,75,-23,-526,145,861
120,-55,-93,1073,927,190
60,-116,-97,2074,541,-513
15,-104,-95,1016,382,-140
15,-98,-110,-234,436,242
36,119,122,-111,194,-261
86,95,124,172,-254,-574
95,98,-111,-168,-429,-693
94,94,-72,-421,-585,-584
-90,94,-55,-320,-47,-384
-85,65,-104,450,710,-776
127,17,-110,1121,167,-955
-125,55,-88,162,-140,174
-123,83,-102,-781,-20,907
108,111,-109,-855,-457,1294
126,-102,-88,-957,-804,1526
-28,24,-74,-1649,2864,-5882
56,9,-87,-2110,5238,-7414
-61,-118,125,-2588,3182,-5923
-108,-102,8,-3819,4000,-4352
-56,-22,48,-2974,2888,-1795
19,0,-103,-493,3683,-737
-127,-78,95,-1555,2048,1356
85,79,70,-1303,452,4411
-18,106,-57,-265,-255,6897
-27,-93,-114,123,-2032,9628
-20,45,13,1690,-2655,9779
-12,31,-97,-6338,-6068,-481
32,-13,-116,-503,-7330,-7458
63,61,-62,-2793,-976,-9517
45,13,60,-1604,1283,-7973
-22,71,37,-4533,1980,-5640
57,103,-106,-2572,2907,-2101
-36,-54,116,-389,2182,1100
56,74,101,-3333,1869,3595
35,0,68,-5126,1529,5084
77,-49,54,-1537,1172,8542
-78,-117,-24,-349,1614,8731
-128,11,-105,-55,-53,9205
-63,-32,-88,-2187,-744,7499
-122,-122,-21,-4970,-6205,1607
-22,-56,-90,-7465,-7313,-5464
54,32,-82,-5547,-5347,-8651
44,-52,15,2187,-940,-9151
102,64,-9,3535,-3892,-8905
-57,110,122,-4414,-5096,-7504
-23,-121,15,-4499,-2675,-6731
-13,110,20,184,-1107,-4826
-56,-25,-24,-1152,-1493,-1577
38,-1,-7,-1826,-1535,151
-42,76,-13,-1483,-1373,1325
-39,31,-39,-980,-925,2543
-40,-113,-43,305,-654,3750
-6,-19,-90,2374,354,5714
95,52,75,4399,-194,7835
-34,-1,65,788,-948,7065
66,-15,-16,2519,-512,6507
71,-95,120,1574,-1922,4767
63,18,24,2428,-143,3791
59,-58,83,1940,630,3436
74,118,19,2322,1056,3365
-3,-10,-108,1432,-717,4329
35,48,-23,57,-1254,2353
-53,-107,38,381,-446,-1131
-106,-77,-1,1982,1102,-3206
-19,107,-81,1731,1976,-3418
109,109,0,5027,701,-7482
72,-7,122,-6291,-932,-7992
-10,87,110,-3378,-177,-5953
56,-43,-81,-6943,320,-3933
-17,-73,-72,-5918,838,-1652
48,10,119,-1191,1047,-179
-72,-63,93,406,398,1022
33,-100,62,-1175,1237,3439
108,-15,-43,1067,1021,6576
112,34,-77,1474,-54,9676
-94,11,97,1399,2020,14189
120,-58,39,-5605,-7365,1011
-12,-103,-56,1514,-6676,-4615
103,-91,-8,-3010,-7242,-9180
9,-13,-124,-4782,-692,-9719
-116,-88,62,-3560,1989,-8032
-11,-124,-56,-3803,2308,-4635
-121,33,-108,-3412,977,-1868
99,122,-61,-2112,700,1223
-59,-94,-5,-3264,930,4934
69,-72,40,-3049,1798,7149
-75,50,108,-328,5290,10046
101,76,120,2409,5583,9265
-68,-28,-42,-1592,-1305,8605
35,5,74,-7376,-2518,6860
-41,69,11,-4729,-5788,-1472
-106,-117,-5,-4529,-8361,-7642
115,-4,24,-273,-7942,-7554
92,45,-57,-878,-4893,-8347
-51,59,106,-2696,-4705,-7997
60,-127,-127,-1970,-2504,-5691
-88,-107,-96,-1981,-2079,-4161
-125,-48,-85,-1662,-1049,-2657
2,14,-31,0,-249,-649
127,-4,-11,423,-13,1356
27,-120,-15,178,-320,3962
50,6,-56,-42,540,6720
-68,-118,47,2871,337,9882
-70,-51,21,8790,5371,2749
-44,-73,-42,-4207,-354,4614
12,41,-83,2102,-50,4675
-3,-55,-91,-298,-295,3398
13,13,-88,-1442,710,2268
92,115,-79,-1035,504,2034
-111,87,-107,-1058,1104,1538
-52,-108,84,2547,800,1023
34,-113,99,3455,544,1025
100,-9,-109,308,677,864
105,-51,87,-1071,99,-502
101,117,99,-32,-604,-1097
23,91,126,-1077,4303,-6769
-127,-91,99,-2231,3817,-6945
-123,10,49,-2805,3842,-5673
7,-95,-88,-2086,3084,-3780
-36,103,-90,-2722,1676,-1975
72,48,-112,-2896,2093,-629
-73,110,112,-1304,2042,1485
-89,-101,125,-1557,985,3664
-12,-84,34,-669,926,4212
9,6,42,-412,-947,7462
15,34,-71,1228,-1551,11352
97,14,-41,-3253,-4800,6742
73,-7,101,-138,-6141,-5342
-44,6,92,-3955,-5609,-7318
44,104,83,-3846,-959,-8829
-86,96,42,-223,1667,-7011
-6,-67,33,-5211,1882,-4828
29,-10,-111,-2510,2680,-2496
-16,-127,-45,-1418,2369,-121
71,16,68,-1677,2198,2246
64,-113,87,-3584,2108,4733
57,-103,18,-1958,2174,7464
-90,-86,-70,1898,2162,10205
-11,93,109,155,2501,10102
24,12,104,-5568,-1497,8873
123,-127,-11,-8422,-5004,3108
66,-41,98,461,-5847,-3778
-9,-59,-33,-5793,-5912,-7966
17,52,-20,274,-6914,-8961
99,116,63,-3594,-5120,-8961
-68,-30,48,-2692,-3126,-7408
-62,3,69,-2355,-2389,-5990
-100,-52,119,-1709,-722,-4306
78,19,-56,-629,-143,-2302
121,125,-27,452,-271,-1125
-9,111,76,-630,-812,1756
35,-29,62,-360,-267,3882
-6,-67,-71,865,1220,5861
-120,15,24,1798,1861,8098
-37,-14,-84,1929,-19,8751
-74,9,-79,-948,-10,4962
77,-59,76,1886,-1602,5448
43,-49,-42,179,-1003,5078
77,32,-76,1074,578,4933
57,6,-117,726,990,3346
-126,-41,22,-3180,-914,2881
-4,-76,10,1044,-1112,-838
16,-2,-37,3562,595,-2195
-16,-34,-78,2069,884,-2391
21,-75,-75,108,646,-1536
50,-27,16,-3337,4118,-5515
40,-71,-62,1794,3599,-7627
18,-74,75,-2082,1869,-8026
-18,-31,-105,-5028,2252,-6137
98,86,-95,-2815,3036,-4012
95,0,-92,-1026,2110,-2200
-65,-27,-118,-2280,2251,-1154
91,122,-96,-2952,643,1361
-120,72,-75,-1322,-1428,5590
-110,-110,-97,-715,-913,7146
86,20,108,-382,-1937,9842
-96,6,-118,3281,-1114,11920
28,84,6,-7483,-6261,1994
116,53,52,1149,-5633,-6064
-61,21,-101,-1110,-2711,-7577
82,27,110,-3106,-571,-9285
-11,64,64,-1278,1223,-7905
-68,84,42,-3126,916,-4776
23,104,90,-4182,1122,-1046
43,110,117,-3632,654,1880
58,110,14,-3126,1264,4315
-106,-65,-22,-2482,711,7264
-80,23,-107,981,1478,8782
104,-11,56,2610,3162,9319
-53,93,66,-332,-251,10005
20,-100,89,-12107,-8341,4853
-47,32,101,3269,-7694,-4623
22,-55,-93,-3450,-4946,-8051
37,35,96,5665,-6819,-7252
116,-68,49,-2369,-8367,-6214
-59,-97,19,-2925,-6604,-6612
-33,-89,-89,-1467,-4496,-5668
-11,20,83,-963,-2421,-3392
112,49,-57,40,-1270,-1439
97,-102,73,-1313,-788,487
72,57,10,-1188,199,1864
74,-93,-114,-390,1163,2976
93,5,-34,1173,2391,4561
-118,-21,97,1069,3220,6901
-64,-44,116,366,2515,6976
-39,115,61,-468,1425,6201
-45,83,-81,85,793,6649
117,11,13,906,1277,6526
27,-69,-9,2233,1930,5239
54,16,-79,2244,711,5844
-93,-104,18,-1273,-2234,-135
-106,-84,117,771,-576,-3221
-23,65,-25,2409,1766,-3657
12,17,-37,1100,1724,-3358
-110,-41,-13,25,257,-1725
60,82,-74,-1626,3472,-6478
120,6,45,-1611,2369,-7616
32,105,35,-3958,3214,-7473
-14,-94,117,-3870,3674,-4942
-69,4,44,-1604,3214,-1648
103,49,-17,-2558,3019,-1040
15,-74,47,-2037,548,2419
59,112,-20,-1307,223,4689
-84,-86,-64,-1860,-1776,7229
107,-24,-54,-1187,-3804,10396
-46,20,81,1255,-5083,9546
-92,-111,-87,-5744,-5579,197
-27,90,-45,419,-4935,-6215
94,88,122,-5292,-3028,-8792
-58,12,87,-980,1670,-9461
-79,2,56,-2960,2552,-6308
-102,-100,-2,-3472,2401,-3438
111,7,111,-2940,1963,31
-38,120,4,-5156,2088,3121
-14,-73,20,-5467,488,6184
-7,-71,54,-1447,-1101,9190
-105,-51,28,331,-263,9410
-110,101,-64,-535,-328,10034
-102,24,29,-12727,-7500,5589
-1,-120,92,23,-3058,-3731
117,-30,56,-1764,-4999,-6220
56,-55,37,-4669,-2287,-8830
-68,89,-13,-983,-1261,-9669
-27,-74,-75,701,-192,-10053
-126,-30,-46,-1266,-1596,-8863
84,-112,-53,-2020,-1099,-7044
54,73,-110,-2395,-384,-5024
89,-58,76,-2427,170,-2798
-103,97,47,-557,-549,-915
60,-94,80,-355,-751,646
23,23,115,-846,-1506,2321
29,77,94,145,-1372,4021
72,-59,56,2126,-1425,6982
96,92,-127,3733,-4032,9810
-65,40,-97,1937,-1745,6598
25,-31,49,1276,-3220,8146
-24,-70,53,1506,-2388,3860
56,-1,52,3319,-939,3011
87,-13,-44,2726,2218,3098
5,2,-123,2528,1426,2815
-120,26,-23,647,-963,1384
17,112,-19,1453,-1123,-1138
-127,-50,-1,2046,-93,-1587
-112,-27,-38,251,1594,-656
-45,-60,-121,-229,1685,-527
-65,117,114,-2778,3770,-5212
-11,97,5,3778,2260,-6339
22,87,75,-3892,577,-6910
-13,61,53,-5063,966,-5772
-116,-27,-128,-4049,1066,-2927
127,105,6,-1758,2038,-1275
93,105,31,-1827,1903,2457
95,53,36,61,3389,2340
112,46,-107,-1201,143,6571
92,36,-100,-780,-1445,9581
-88,44,-41,3343,863,10286
-25,1,-100,-4830,-4464,4370
-82,-76,80,-1283,-8197,-4567
7,-46,-67,-984,-5195,-8409
122,-25,-81,-1774,-2387,-8932
-33,-93,98,-3537,-682,-7762
-111,-99,26,-4267,635,-4316
18,-121,53,-3494,1080,-1315
47,-123,-117,-2193,1337,2448
10,108,-121,-4094,1502,4955
-103,-3,49,-3050,1544,7096
-35,88,-19,-20,2130,8918
25,-17,51,2393,2372,9057
-40,52,-95,1680,2885,7957
118,118,-20,-9154,-2168,5332
83,-90,88,-1774,-7624,-1557
61,-85,11,-3357,-7849,-6810
113,-75,-53,-1674,-7006,-7696
75,85,-118,-2647,-3607,-8322
127,-42,110,-1511,-2761,-7029
36,-37,85,-1762,-2533,-5774
52,-38,87,-2247,-2414,-4474
79,47,117,-2454,-1230,-3386
119,-44,-75,-537,-83,-1192
-40,-85,38,-60,86,1131
-36,104,26,-483,-134,2974
38,55,-67,65,723,4661
-30,-83,40,2290,2046,6398
94,47,-37,3730,910,8632
112,63,82,3470,903,7226
-23,-44,-101,-1702,514,5260
-31,-23,50,1793,-96,3894
-35,69,51,-33,1078,2130
-96,97,-127,1145,3103,1613
68,1,-95,1584,1059,2447
110,74,-106,-895,478,2412
71,67,112,-1643,254,1156
32,-81,79,622,197,-811
48,94,-114,2500,-240,-1497
111,30,-102,2434,300,-1614
100,-117,-103,-3188,1545,-4639
-91,-37,0,-601,-3169,-7935
65,52,107,-6355,848,-7323
116,-54,-105,-7659,1946,-6732
61,91,82,-5293,4232,-5411
-11,-94,28,-1850,1271,-2060
-24,-9,-79,-4218,-327,3057
44,-114,28,-755,434,4763
115,-80,-30,-1473,-703,5585
114,-113,99,1399,-1374,7927
6,-58,-33,1665,-1551,10333
-28,71,-10,1840,-3213,7851
124,-54,-115,-4733,-4825,333
114,-25,126,1733,-6688,-7824
73,-13,-106,-1887,-3025,-9613
16,-44,79,-2622,631,-8626
7,-124,41,-3393,1583,-4480
5,-54,7,-3646,1346,-1746
-23,-84,-120,-1763,956,1847
-97,72,93,-4269,1026,4516
116,-12,-42,-2246,4,6726
47,83,-62,-555,296,7636
-12,-104,19,3928,1140,8297
16,-116,5,2926,1083,7061
-75,8,25,-450,-2602,5618
93,93,-28,-369,-7344,-985
-93,44,13,-654,-9433,-3340
-91,17,-69,165,-9210,-5267
-110,-12,-68,-842,-8172,-5352
-32,-123,0,-3118,-7249,-5434
-114,-84,44,-1063,-3791,-4552
-37,-118,104,230,-1500,-1648
54,41,-127,669,-152,-615
-13,-111,68,-406,-491,1252
9,110,14,-731,51,2070
76,8,-79,75,1148,2827
-58,60,9,1363,2573,4387
41,124,94,618,3545,5799
-76,125,126,-2250,3357,8005
-120,-12,31,-443,164,5917
-77,-15,15,673,282,4785
119,4,73,-762,-550,3934
39,-82,81,1800,1406,1152
-29,-60,80,2062,1708,-39
-76,109,-119,-572,-103,48
-39,85,-115,-2850,-1141,7
-39,-22,81,-1705,-691,-685
-15,-77,71,107,54,-1081
8,-120,67,719,379,-1007
33,-76,95,-435,681,-453
-97,-37,67,1593,3323,-4070
21,-86,46,-1071,4006,-5417
115,-25,48,-2115,3086,-4595
66,-32,-127,-2867,4372,-4411
44,19,39,-1945,4161,-2816
93,-124,63,-3982,3784,-2441
-54,121,91,-2721,2330,61
-98,60,68,-135,-320,3675
58,-10,16,-128,-359,4122
9,-56,-12,887,-2297,7390
43,-36,-69,-22,-1650,7679
-41,-76,66,2442,-1823,9657
54,-6,-33,-5963,-7865,1812
-30,-29,50,1791,-4728,-6891
119,-68,-71,-851,-3443,-7361
6,-30,121,-1859,603,-9643
-66,-128,90,-3071,-122,-8081
-67,-113,-21,-4323,1259,-3732
66,72,-66,163,1465,-181
126,116,-107,-2410,1293,2433
52,101,39,-3520,270,4362
-98,-95,0,-2117,552,6968
-124,-58,-38,619,1263,8902
-37,-92,-34,2361,1383,9906
-46,-27,-53,-4833,-1221,5788
14,-25,16,-2672,-5654,2538
74,-17,63,-1150,-5505,-3193
-47,-36,54,-2668,-6056,-7566
-107,-98,60,1015,-5178,-9853
121,64,9,-833,-3871,-8957
-4,-21,-47,-3720,-3776,-8775
-89,9,40,-3100,-2140,-6914
-88,91,25,-295,-869,-3921
58,-28,-101,-1297,-819,-551
-50,-124,-114,693,-155,973
82,88,-48,-82,-489,3281
93,20,-52,27,-664,4950
-91,-72,-94,1260,32,6476
42,52,81,2175,-600,8377
122,29,-94,182,-1534,6783
119,-35,-16,401,-1848,6670
87,103,110,666,-2269,4982
101,-62,121,1202,-221,4207
80,-63,-71,4668,2104,3434
-32,-52,-87,4253,535,2673
103,12,-48,407,-333,2217
-51,-17,-46,-1897,-334,885
-91,102,-54,287,-348,-469
-49,19,-49,1131,10,-1831
60,-62,-26,1854,-220,-3245
117,-49,6,5587,-915,-4338
-100,64,77,5233,-1135,-4382
-40,-55,-83,-1072,-248,-1401
-56,-67,91,-3508,396,261
-122,125,-97,-3637,156,414
-122,-83,87,-2426,151,831
-111,-37,85,-311,-20,1090
-51,-30,74,1924,391,991
-102,-3,102,1996,58,1103
-93,37,-106,736,-90,1793
-67,70,-103,-176,65,2412
-66,77,-105,471,-650,2171
-72,-94,-114,753,-472,2100
110,-51,-83,44,-206,1239
53,-27,-76,-738,67,711
25,-75,-101,-141,382,-531
67,-125,116,589,661,-1124
85,105,93,502,65,-1643
89,110,81,-64,-568,-1813
-117,111,60,-505,-643,-1826
-99,118,38,-731,-660,-1549
-82,112,33,-857,-539,-1280
-84,95,17,-525,-385,-1131
124,97,34,-379,-541,-539
127,121,60,-822,-206,22
-110,-113,81,-914,-154,253
-125,111,37,196,508,119
-122,93,46,1155,269,505
-94,-113,53,392,352,1272
-97,-57,63,-361,138,1703
-96,-31,61,-552,59,1836
-90,-24,41,295,-82,1203
-104,-14,41,464,126,277
-65,-22,31,26,396,-116
-49,-42,31,-132,439,-414
-104,-99,47,340,319,-916
-62,121,48,443,365,-613
-36,-121,85,-254,-51,15
-48,-99,95,-706,-334,243
-47,-100,101,-674,-73,57
-23,-104,83,-197,176,104
-12,-45,102,-108,201,211
-49,-32,68,-45,-11,38
-56,-36,57,-224,22,87
-43,-30,55,-442,89,-27
-40,-12,58,-184,568,-339
-62,-2,78,824,-1290,1026
-57,-29,39,-366,-806,486
-58,-10,29,-1321,-631,700
-94,-33,-1,-541,-688,790
42,105,30,-1741,1204,-6479
122,-96,-30,-6308,4931,-6194
62,-115,35,-4293,4136,-6074
45,114,-17,-2525,2921,-3108
27,-73,-86,-570,3410,-1650
-29,117,-75,45,1458,1187
-8,-105,69,-1293,-408,3291
57,56,-95,-815,1265,4447
-42,-18,57,557,56,7167
-100,-121,3,227,-2117,10076
-99,-45,-113,1538,-2550,7860
-86,74,31,-3831,-5568,-4470
36,-9,-119,3452,-6210,-6668
112,-66,97,-3426,-4975,-9899
-24,-53,-106,-6016,-746,-8694
-6,6,38,-3159,1539,-4575
39,-56,-128,-2119,1400,-1356
42,3,98,-1692,1399,3131
55,-22,63,-2930,1783,5435
5,35,-10,-2002,2735,7717
69,41,120,-585,3698,10197
-52,17,52,3250,4411,9160
-49,-90,-63,-6936,275,6880
-90,-48,20,-6156,-5935,896
-80,13,-70,-3160,-8019,-3267
109,82,49,-3464,-5677,-7238
-20,-115,65,1668,-5800,-8784
-16,61,2,-1436,-5515,-8291
91,-104,-104,-4628,-4384,-7378
-31,-64,116,-4819,-1859,-5369
-70,120,41,-2548,-1122,-3276
90,102,63,-1751,-1031,-1435
-24,13,73,-208,65,-121
-102,87,112,212,15,2369
-44,-73,103,652,357,3198
-127,-84,73,1514,1792,6395
54,1,-48,1811,879,10266
-128,34,-28,458,-1022,9438
-59,38,120,-4019,-1200,5875
-63,6,56,-1088,-3860,5620
-98,-110,70,1395,-1841,3569
72,-48,-52,4928,87,1424
-93,24,-62,3024,-120,1306
21,-17,-48,815,412,900
-43,-75,-79,318,336,255
-46,-122,-101,186,248,-653
18,49,118,177,402,-1738
92,-9,111,75,245,-2411
-83,-85,104,-56,4,-2643
-70,-107,-125,-492,-480,-2324
90,23,69,-1174,5269,-4573
-126,-5,42,930,4660,-3428
-79,-77,96,1500,4173,-2496
64,-5,33,535,3309,-1354
-32,12,79,-2670,1974,1512
-104,-12,89,723,796,3063
-86,101,-96,941,102,4425
-121,1,36,2432,783,7539
44,-84,41,-5426,-2882,8150
-83,30,59,-786,-4811,-6733
-34,38,83,-645,-4149,-8859
82,51,123,-336,-429,-9623
-66,68,70,-3986,-1904,-7915
73,-10,55,-3557,502,-4578
113,-74,77,-3035,234,-1849
3,-118,12,-4731,-80,166
-30,-115,-127,-3735,137,2502
40,115,-69,-590,792,4908
-125,-25,64,-29,1437,7322
-123,37,-62,706,1046,8298
57,-59,-18,2461,1143,9184
-55,-8,21,3875,794,8026
91,99,47,-4597,-1566,4261
-11,56,-128,-21,-8245,-1959
-7,56,86,-2843,-9019,-5701
-14,45,77,983,-8168,-7192
-42,20,-126,-2187,-7228,-7649
-124,-105,30,-3462,-4733,-6813
127,55,97,-1204,-2793,-4856
67,-110,42,-1359,-967,-1565
-6,-35,28,94,-296,-994
5,8,119,-790,-380,486
13,51,125,-1052,246,2950
107,-24,-9,-356,975,4507
-21,-46,64,938,931,6653
-124,2,-31,1522,595,9117
82,-98,-97,-2,-604,8642
103,-93,82,1373,-410,6505
51,83,-121,942,71,5211
104,-25,110,967,-1753,4108
-11,60,109,949,550,2216
114,-69,-76,2332,272,246
32,105,100,4128,205,-17
-27,90,-115,-92,1153,12
-70,-54,-106,324,445,-1169
-1,-106,-113,738,-68,-1615
91,-111,-98,-439,-121,-1845
-104,115,-89,-1204,-103,-2086
-58,56,-105,-678,92,-2467
-8,-13,-128,262,295,-2284
19,-75,60,-2255,3712,-8335
59,-13,-97,-964,3863,-7850
-55,-55,-57,-2678,2948,-6523
-94,-46,-15,-3607,2621,-4102
-103,54,15,-2898,1855,-1885
9,-52,-53,-764,1353,159
-71,107,-97,-624,150,2413
1,-99,-76,-2574,-822,5549
-28,127,68,-8,-711,7426
-116,-51,-93,1570,-800,9661
82,-70,-116,-1069,-2479,9829
88,49,-60,-3720,-6711,-2555
-19,43,103,268,-5724,-6102
90,70,30,-6336,-3622,-7871
-46,56,91,1575,1056,-8803
126,-97,64,-4556,1494,-6172
112,-100,-13,-1884,2557,-3283
-123,25,-126,-1801,1853,-621
67,52,20,-3565,1646,2361
-6,-87,18,-4566,561,5109
-91,-67,0,-2303,289,8097
-111,40,-26,-299,-12,9109
-111,-66,31,3898,626,8316
-21,-95,72,-1823,1065,8175
72,-127,75,-1107,-1464,5758
119,-128,-105,-3475,-6056,-348
-118,-97,-22,-4092,-7676,-6843
78,47,123,-732,-6201,-9672
100,-3,35,540,-7090,-8000
-75,-61,-22,-3581,-6239,-7093
2,70,36,-2581,-3397,-6692
-72,107,-62,404,-1723,-4764
-62,70,-60,355,-848,-1982
-109,47,9,-525,-535,537
71,-9,-47,-1453,-612,2466
66,-48,35,-1174,550,3727
115,72,-93,186,1506,5524
-112,90,0,1959,1094,7704
-42,-49,99,1843,-370,7748
101,0,58,1312,-700,5978
-128,18,-72,1243,-423,5834
114,-95,125,42,-535,4391
-18,44,-103,1038,1233,3629
-61,-106,-119,1833,1574,1970
106,-71,-111,1387,264,1495
15,122,-91,715,-477,-399
42,-52,-94,350,187,-1934
-21,113,-90,513,496,-1733
-13,78,-89,80,485,-597
46,102,127,-891,539,-11
82,-3,-21,-1581,2823,-6519
16,-42,11,-4730,3965,-5432
-56,39,-22,-2073,4207,-3702
17,99,115,-982,3701,-1613
106,19,22,-405,1428,-385
9,-45,-87,-761,807,1029
14,-106,125,99,401,3093
122,113,33,613,569,4665
-8,58,-57,1416,-23,6823
37,3,50,3058,149,9950
122,-98,40,-4376,-2835,1807
-126,-85,120,1991,-9947,-5900
8,-77,29,-2276,-4604,-7625
-13,-30,-83,-1852,-1999,-7236
-20,-112,79,-4513,-331,-5276
-80,-7,-66,-4915,964,-2107
76,-127,-44,-3759,856,302
-104,-127,99,-3477,558,3459
-45,-97,102,-2214,986,5440
116,-82,103,-570,1522,6450
-35,-43,31,1393,2468,7952
26,22,95,2887,3463,9434
-58,-3,97,-1487,625,9553
-72,-55,-44,-9302,-2396,2680
-42,21,98,3224,-6462,-1141
17,-97,-106,-6369,-7478,-5587
73,99,-89,-2917,-7318,-9243
62,-113,111,-833,-4670,-9538
-87,86,-56,-445,-3896,-8567
-24,-98,-88,-1849,-3420,-6954
65,80,-93,-690,-3061,-5480
75,-66,47,-403,-893,-2326
126,-99,109,530,-183,-890
-90,-7,-60,-53,-78,1422
-52,119,-74,400,812,2690
43,29,-121,-115,1917,3799
-72,-45,4,-514,3036,5442
45,-91,88,-397,3573,7322
-66,-50,-38,1030,1894,7504
-53,-26,114,-911,414,6995
109,-116,-109,1028,254,5574
86,71,29,421,514,4611
64,-47,59,-436,1239,3712
-1,-92,55,172,460,3247
-126,-94,98,624,-358,2136
-13,38,-63,735,-1025,-264
-2,-35,-35,533,-500,-1026
-4,-66,-34,-55,548,-624
8,-83,-53,-764,401,-909
55,-98,-84,-1023,153,-1202
117,121,110,-2485,2699,-4104
-97,109,-94,2817,1730,-9655
124,80,-61,-478,-1014,-7681
-20,-48,-121,-5292,-324,-6350
-82,63,32,-4435,2034,-4324
60,118,49,-39,1170,-2283
64,97,66,202,1051,-917
69,-46,-112,-2810,1459,1055
66,-127,-117,-1420,413,2386
-23,127,-127,-562,1551,3976
-39,-19,80,488,2190,7110
87,73,115,1,3064,9605
13,119,-53,-3999,-7063,7529
50,22,104,-1887,-6411,-1135
117,22,38,1255,-4821,-6605
29,-9,-117,-148,-1508,-7857
42,-26,106,-528,-1179,-7668
58,81,44,-4242,-428,-5365
33,-103,-26,-3011,-914,-2115
-15,-104,-127,-4598,-1367,495
33,-94,73,-4120,-190,3000
82,-125,34,-1125,2579,3075
36,-36,36,1207,3226,6008
-29,7,-89,2831,5995,7983
123,-82,102,410,6525,9348
14,14,113,-2927,3343,9012
70,88,-94,-11429,-7221,1509
-42,117,-67,4057,-6137,-230
-2,86,-120,-463,-6858,-6168
-19,53,-36,4489,-7926,-6650
-41,-11,-44,1256,-7698,-6743
-84,-104,81,-2670,-7958,-6519
63,-63,-33,-2337,-4345,-6082
-86,126,87,-139,-731,-4036
-92,118,-32,2230,1508,-1772
104,-90,16,753,243,608
89,86,42,-1245,-447,2435
-103,-49,-23,-1166,1346,3535
5,102,72,-1322,2625,5440
124,-11,-97,-919,3015,7953
63,-88,120,825,3704,7656
118,63,11,1014,3522,4703
87,-109,67,-3762,1081,4518
117,65,-84,-222,-135,4253
-125,-33,8,-737,1854,3420
62,34,35,-382,1290,3579
-4,119,121,-985,-512,1649
18,30,-122,-399,-928,-381
57,-19,-101,-238,-289,-638
48,-66,-88,-152,-120,-1047
-123,102,-127,-1091,3772,-3870
-12,-75,-115,-1550,3168,-5438
-32,67,102,-3873,5324,-6122
-93,-24,-16,-1075,3449,-4754
-122,62,78,-3092,4154,-3997
-23,-98,126,-5628,2369,-872
-62,19,85,-222,2480,657
-96,-47,106,-179,-663,4932
-78,-92,20,-2127,-936,6066
-108,-26,-13,-1716,-2992,7623
-20,77,124,816,-3934,8504
-72,-29,114,5263,-276,6961
-84,-69,-101,-4945,-3975,1392
-19,-54,-128,-5349,-7007,-5749
30,34,15,-6864,-3406,-9370
-73,107,111,-3337,2448,-10342
-79,119,39,-1435,2363,-6352
-83,-45,124,-2908,2315,-2910
-81,36,-61,-3284,1377,607
-16,-15,121,-887,2300,3278
65,-60,29,1064,3325,5282
6,58,-25,318,3659,6954
82,18,-119,829,5033,8883
-1,59,-120,1439,3665,10976
66,-45,45,-1095,4788,8946
117,-105,-51,-12107,-2263,2693
36,53,-46,-4670,-5952,-1169
-104,-14,13,-3669,-3798,-6548
-11,13,-115,-4694,-4514,-9287
-55,124,-5,2904,-4463,-8536
-1,123,58,801,-5721,-7748
124,27,-30,-5832,-4346,-7042
124,89,-115,-2927,-2057,-6053
-29,-96,8,-1758,-1346,-2480
43,-9,22,-2325,-930,-896
-34,-33,-30,-679,285,534
-56,62,-45,258,562,2633
45,-6,-80,-476,927,4463
-12,-75,96,-1159,502,6770
62,33,-50,-936,-3970,10237
-21,126,-84,4323,-384,5468
-91,-115,-100,-3071,1222,3266
41,-50,122,442,-649,2927
44,114,-85,402,-1089,3492
114,-74,104,417,-169,4515
88,76,81,4217,-884,2643
4,-127,-99,2254,-1741,1776
68,8,67,-2634,-2386,1458
-42,-115,29,-1042,-881,699
-58,-46,-27,2393,1105,-1119
100,-73,52,-2350,3380,-3066
-122,-46,53,-1932,3836,-6560
-53,-95,-106,-2307,3351,-6125
107,-7,-61,-2838,3696,-5132
-107,24,-106,-3260,4017,-3932
-73,-103,-107,-3573,5402,-2922
-18,-32,77,-568,1289,431
-45,-61,-4,-1902,485,2202
-7,-10,-6,-2684,-1120,3898
-125,-39,-52,-734,-1966,5685
97,0,-120,-825,-3302,7718
72,26,112,-343,-6147,10519
14,-127,-73,-3487,-8206,6079
100,-10,-55,-4455,-3738,-4687
103,-104,-113,2177,-1834,-8499
37,29,101,-1140,-23,-9584
-66,71,101,-3153,-61,-8438
-57,75,57,-2988,1677,-5340
-25,52,-72,-3464,1488,-1960
-121,55,-61,-3577,1263,1201
46,-43,82,-1869,1507,3762
-56,67,41,-1567,1868,6573
123,-80,24,-1106,1707,8539
-93,26,39,1533,2748,8662
75,-22,110,3954,2867,8448
-118,120,23,-5220,1155,7399
67,-75,29,-5756,-4848,322
94,-33,110,-1495,-7842,-3974
97,-52,124,-2910,-6709,-7661
-21,-55,-75,-844,-5267,-8567
64,-21,6,-592,-5574,-8727
-93,-95,118,-4367,-4791,-7563
-80,61,61,-3353,-3084,-6533
100,-83,-120,-2333,-1764,-3997
79,-50,-87,-1461,3,-1968
69,73,-90,379,-152,338
38,-123,-58,590,-194,2347
62,37,-8,-203,-399,5295
-53,-35,-47,-521,-467,7727
61,-113,112,214,-500,8947
123,-48,14,4735,-1087,6153
-111,94,35,2033,-380,3934
-56,78,-119,4351,-624,1985
127,61,-73,3619,1622,2112
32,-11,126,439,3201,2353
-70,-79,80,208,1396,2243
-95,122,-108,-1499,631,1916
-80,14,-77,-2503,214,1635
-12,-26,-69,-1824,-670,2221
76,-11,-56,124,-2124,1718
-53,46,-67,-396,3319,-4474
-109,23,-49,-2334,1752,-5313
-82,-81,-108,-4174,3466,-5243
-21,42,120,-4047,5171,-4643
-71,103,113,-2932,5052,-2564
-64,33,73,-2070,4009,-1122
28,74,35,-2127,2270,1616
-26,77,-45,-1257,77,2865
37,43,-80,-910,-143,3803
-47,-83,-118,-227,-1643,5891
-5,-120,88,132,-2219,8158
-113,-76,13,1088,-2543,11678
39,-103,81,-7217,-5331,1967
125,48,50,933,-6276,-6461
126,-19,-95,-3334,-3831,-8898
-125,23,89,-3474,968,-9474
13,91,57,-1540,2552,-6879
-51,1,37,-3429,1755,-4300
-3,-112,38,-4526,161,-1309
2,120,124,-4210,-1199,2261
92,87,93,-2934,-2239,4977
-61,112,29,-50,-1654,7277
9,-43,-109,2843,260,8206
113,71,-35,2739,2439,6467
-127,-106,-33,6637,2291,7443
96,52,-104,4110,3766,7956
31,-124,-52,-18158,-5031,1460
-52,-21,-27,1222,-10868,-4319
56,-35,69,-3650,-5232,-8127
11,99,-125,-780,-5765,-9160
91,110,-112,-331,-4232,-8793
-57,-128,-78,-2834,-4029,-7134
-2,39,92,-5350,-2970,-5894
82,-102,-52,-4442,-1830,-4538
48,42,-56,170,-321,-3298
66,-63,-90,-43,-292,-15
38,-8,-40,51,-724,2607
74,-45,-40,196,-423,4551
-40,113,-122,1279,495,6313
-124,-17,42,1630,688,9749
-58,-109,14,4014,-2391,9165
-97,102,-15,184,-268,8120
-40,126,94,-1532,-4847,4391
67,-91,-69,1391,-3953,4778
-36,-31,62,2173,1597,1698
-125,69,-126,5747,3184,-753
32,79,114,5066,1046,-755
-7,63,-57,426,211,-220
5,-73,-70,-846,277,-303
-27,97,-84,-29,122,-61
72,-48,58,-817,4445,-5631
-126,101,-28,-1807,3888,-5609
-23,-35,-44,-2668,4667,-5934
-11,-26,90,-3145,2475,-2422
83,-104,-2,-1637,1195,-467
-26,111,-5,-1337,1334,533
125,62,-75,-1190,2032,1603
-125,-102,-70,-387,1465,2667
28,124,-17,1303,-643,6699
100,-92,-125,485,829,7589
-14,-74,53,2519,278,10862
110,11,-55,-1331,-3858,8043
-18,-92,-34,-6721,-6947,-2737
-61,-41,-62,-1062,-4056,-6957
-62,-14,-55,-2546,-955,-9783
68,24,76,-2272,1460,-9559
-52,91,41,-3566,1419,-6525
-32,89,69,-4048,-2548,-3101
93,-91,-21,-7661,-3383,430
9,-126,-25,-2300,-771,4938
-34,-88,-57,1584,232,5686
65,-127,-92,1292,727,5780
-77,24,70,3031,1887,6315
-106,-11,-45,4813,2205,7112
9,-64,96,7788,3745,8717
61,56,43,720,2599,10182
24,97,-86,-8949,-278,3017
51,77,-77,-1355,-10562,-3963
47,-8,-112,-3580,-6585,-4183
85,-31,87,-387,-6584,-6893
-108,126,-124,-728,-8616,-7217
-13,10,58,-5506,-6543,-6687
-110,103,-1,-3455,-3483,-5554
86,-116,112,-1535,-2946,-3041
-32,84,-9,-2103,-878,-1444
111,62,-22,-559,-136,-242
49,-76,-10,-512,-273,1029
11,69,-28,-516,-299,2638
11,96,-80,302,579,4306
24,-9,74,2337,891,7413
97,37,87,4951,-2186,9298
-46,41,-86,3586,1725,4324
-60,50,-63,208,276,5021
-126,101,-89,916,-331,4816
114,-99,-67,572,1195,2931
92,3,74,2260,2420,1273
99,-66,126,2727,1476,1712
78,-63,-91,1007,676,2027
32,-72,-71,557,-131,1542
-15,-77,-33,80,-299,656
-35,88,-56,-773,3777,-4451
-124,-52,81,1171,2738,-5578
86,51,-99,-4210,3701,-8064
96,-9,-39,-4398,3264,-4834
-117,67,27,-3118,1262,-1592
-55,71,22,-2239,-131,924
-98,0,-43,-2358,1280,1604
-116,-55,-29,-841,52,3730
45,-42,100,1435,345,5278
-50,7,23,886,-1466,6764
-62,116,-79,1059,-1720,8097
-81,-23,-12,5540,-3170,9630
-7,-85,112,-1002,-2969,3404
-127,100,-63,-1489,-6749,-3681
-31,108,-39,-4788,-4688,-7602
7,-103,64,-2934,-2646,-9543
-1,-86,97,-4426,287,-7790
75,123,-106,-4664,699,-4405
-45,-120,44,-5742,111,-414
-112,69,83,-2660,828,2391
107,-93,58,-2177,303,4335
-27,15,62,-2384,347,5525
-37,-9,22,645,232,7117
7,-8,-71,3387,1139,7860
-34,-128,-127,6362,1909,7970
33,-84,50,1877,991,7666
-63,31,127,-2464,-3285,1946
86,30,49,-4202,-10142,-904
-122,48,-28,-1293,-8160,-4979
102,21,-26,-1796,-7874,-6658
-64,119,115,-3752,-7481,-6659
-64,112,88,-4433,-3573,-5810
75,52,64,-226,-2865,-3555
40,58,-52,-1535,-1181,-1964
113,-24,65,-1059,-359,-532
1,-52,-69,-187,450,1752
38,96,-82,-566,1262,4019
-85,29,46,-289,2404,5848
-124,23,-6,2064,3160,7657
73,47,36,1914,1610,8245
13,-69,-104,-628,1656,5121
118,-92,-65,1281,91,5124
82,22,-86,906,235,4494
38,84,123,1691,1944,2757
1,108,-77,-487,1619,2601
-58,28,102,498,1496,2214
63,-24,-126,2124,136,1189
20,-51,-97,1964,331,-178
10,-123,-58,1344,213,-720
35,101,-23,527,-367,-676
-57,-127,-106,-164,2946,-5852
86,19,121,373,650,-5356
127,-114,27,-3616,-86,-4413
20,-14,7,-4610,222,-2199
-84,-36,31,-1320,539,189
-28,-92,2,-659,1182,1981
4,-111,-105,-1366,978,3729
72,122,99,-282,903,5918
88,-90,61,188,757,7867
-111,24,-113,6757,137,10606
-19,119,-77,-6098,-1005,6455
-60,-75,39,-2731,-7115,-426
-122,-95,-123,139,-5182,-5814
-33,-71,118,-3665,-3850,-7874
37,-11,-114,-2182,-757,-8572
92,4,63,-2176,453,-6155
-88,112,-2,-3353,556,-2881
113,-121,72,-3947,1314,231
125,113,-61,-1889,2291,2384
-109,116,-128,-1543,2682,4265
40,-40,25,-1881,2862,6295
103,126,-62,1251,3406,8480
84,120,-71,4265,4739,9688
125,55,94,-5200,733,5065
51,-56,-40,227,-4239,2279
41,101,-49,2,-6110,1624
-90,45,-16,-1798,-9860,-1104
125,12,85,-1300,-9485,-3052
124,-68,29,-711,-8600,-4641
-69,12,17,-3111,-7539,-4666
-93,127,2,-3343,-6127,-3958
-123,105,47,-3276,-2838,-2737
89,-77,98,-1133,-764,-1430
115,-93,-117,-299,-200,-95
71,-34,-122,-402,201,1134
86,121,65,-955,551,2413
-94,-35,-97,247,1315,4857
-35,106,61,1617,2098,7446
67,97,-113,2823,1888,9450
81,55,-17,-1279,1856,4408
19,30,106,1927,551,4496
-4,-11,0,272,386,5844
-85,-48,82,-780,670,5556
106,-74,116,-443,-347,5596
-45,-73,-10,-2548,-1333,3286
-64,-24,-2,-726,-937,-1275
-29,90,-36,1688,910,-2268
-43,47,-87,1397,1432,-2507
-2,28,-114,-111,834,-2023
93,-37,97,-569,414,-1676
66,-59,-115,-1944,3672,-5651
-120,-113,14,-2535,3629,-7150
83,70,7,-1577,812,-7029
10,-18,-69,-5548,3090,-5045
-47,-44,-66,-4146,3004,-3277
114,80,-17,-3129,2811,-1423
40,-42,-19,-1553,2063,102
-78,-76,6,-2471,-406,3373
29,111,-74,-1227,-667,5477
-23,-76,-121,-393,-1704,7486
-34,-1,-56,769,-1712,9284
-93,-79,19,2882,-2529,8917
-119,-9,-1,-3448,-6192,880
-80,-55,-83,-1000,-5821,-7365
13,-8,-107,-2697,-2690,-8630
90,59,75,-2275,1224,-9473
-83,67,42,-3232,2136,-6346
64,104,-57,-3112,1736,-2722
32,71,-56,-2768,1436,86
-69,-62,88,-1997,1623,2970
-125,124,95,-3492,874,5293
16,-53,72,-2388,705,7814
74,44,-7,480,641,8925
-1,-78,36,1930,956,9754
-65,68,-123,1336,-1305,9272
104,-86,2,-8989,-4842,1370
-91,-88,-92,3788,-7477,-3486
4,105,9,-5175,-6380,-7242
108,88,-59,-1281,-6349,-8444
-109,-19,71,-1412,-3797,-8257
3,82,126,-2687,-3260,-6810
45,99,58,-3149,-2664,-5402
-102,13,32,-2082,-1081,-4198
-24,109,-111,265,-446,-1012
70,110,-24,-303,-127,257
-31,-23,65,-612,-624,2951
60,-16,47,-960,-73,4249
-64,-66,-42,-344,739,5575
-88,-11,58,1341,339,7437
55,73,-85,3634,-10,8525
18,-16,121,153,-1391,7638
35,112,93,-211,-4113,6207
99,-40,-42,573,-2190,4631
16,-6,22,1200,1151,1587
-61,-116,-71,2633,2082,569
78,-79,-58,1551,126,1287
-61,123,-26,-149,-877,265
-35,12,-55,148,14,-958
-10,-58,-84,390,721,-1342
23,-107,-104,269,412,-1469
76,77,13,-1770,3121,-6053
8,-6,-53,-875,418,-6582
46,-49,48,-5272,2241,-8083
-41,94,46,-3454,5312,-6659
74,11,45,-3561,1786,-3236
11,-104,81,-3597,3275,-789
-30,-99,94,-2420,-145,4296
83,15,-90,-1404,-2283,6124
36,113,11,-1080,-855,5911
-27,110,-10,818,-1514,7476
-99,-87,-19,4206,-2220,9152
78,-19,117,-784,-5032,4893
68,-109,-62,-488,-5375,-4894
108,-76,96,-524,-4377,-7680
30,-27,-108,-3225,-2354,-9129
-41,43,66,-2728,-686,-6698
-21,116,-4,-4197,-349,-3429
-27,-87,68,-3822,160,-862
41,94,-92,-1397,1411,2747
83,110,-126,-2509,2324,4343
-78,-22,-12,-1438,2328,6043
-106,48,-84,-1007,2111,8156
71,24,-11,4194,2789,9667
-16,85,45,-1254,1167,9201
80,92,111,-6600,-5411,5722
-117,113,-93,82,-5778,-1530
67,-120,-30,-4229,-7665,-7526
-115,103,103,1390,-6115,-9077
-86,33,-45,-1252,-6077,-8903
-112,81,50,-3937,-4949,-8030
-101,-127,70,-4056,-2341,-6130
47,90,36,-1362,-580,-4252
38,11,-60,-340,-319,306
-55,-78,-19,-362,16,1285
110,68,-2,274,106,4037
-84,65,-61,-264,361,6210
-120,94,15,728,511,8316
65,80,-46,3133,-1389,10549
-95,110,-106,82,436,6352
-118,79,76,2426,-3596,5491
-2,-17,6,547,-1115,7566
-83,125,95,919,1926,4302
38,115,-90,1118,932,2750
66,64,-83,1719,-655,222
-51,-110,-103,1149,-5,-2557
31,3,-122,867,1264,-3123
65,-112,125,1172,550,-2637
96,90,-93,364,-392,-1846
99,74,-82,-729,-567,-1554
123,79,-78,-1264,-556,-1003
-116,-15,27,-1255,-158,-6814
-38,99,115,-2383,49,-6815
19,31,20,-5325,2246,-6467
100,76,14,-3757,4628,-5314
127,75,42,-1467,2720,-2816
-87,122,-35,-2532,252,80
115,48,116,-3707,2351,391
112,-111,-91,-1464,1101,2883
-47,-76,-40,-660,-1708,6355
65,5,105,197,-875,7957
-110,18,5,1136,-2191,10173
-69,-110,-54,832,-3307,7304
-37,-5,-58,-6804,-7688,-2199
119,57,74,-1018,-5903,-6008
59,95,-101,-3259,-952,-8585
-114,-52,66,-571,2403,-8471
30,56,46,-3120,2829,-6143
-44,-90,-19,-3095,2276,-3453
-88,-122,50,-3516,1742,-660
0,70,109,-2105,1669,2179
69,101,65,-622,1172,4669
-34,118,40,-211,2268,6026
29,-101,35,-211,2490,8077
101,-54,-67,47,3082,9824
19,-41,-1,-2715,-975,8093
-118,-64,102,-5945,-4513,4905
9,-97,17,-1760,-4142,1260
-15,-14,80,-3448,-5625,-4104
-57,-33,-49,-2801,-5078,-9283
48,85,82,2182,-3808,-9026
-81,-43,-101,-1131,-4222,-8352
-23,55,120,-2368,-3608,-7000
69,-67,110,-2056,-2689,-4696
-124,-44,72,-1968,-2196,-2548
-42,-86,-123,-2264,-1954,-1173
56,38,-77,-578,-973,360
-34,72,20,147,-87,2082
-21,-33,16,-100,673,3789
82,-15,86,-2,1653,5341
96,-37,-36,2659,133,7333
74,38,-30,3234,-1841,7196
79,22,89,116,-1422,5233
70,-37,-1,239,-2011,5695
107,-43,44,527,-965,3694
88,62,66,24,520,2298
57,91,-56,2211,1794,1288
-10,-66,-105,3220,1149,995
45,-5,-76,1170,370,2127
37,38,-74,-1004,-46,1724
26,-16,-83,-378,-456,44
-89,77,-68,-1314,3901,-6250
91,-113,81,-951,2583,-5608
74,-70,122,-2166,3658,-5615
57,-43,106,-2491,2927,-4885
100,-122,-55,-3290,2271,-3281
-6,111,6,-4282,1919,-584
-93,-8,-1,-1678,1538,497
-110,-117,-65,-259,1101,2542
8,-55,-67,-817,-760,5229
-1,-43,95,-571,-487,6760
127,-116,-23,805,-1865,10050
-60,98,24,2093,-1199,11059
84,18,68,-6897,-4011,768
-107,-32,107,396,-9435,-5703
74,-24,84,-4274,-3019,-8692
-14,14,-103,-1624,-385,-9635
-29,107,71,-3490,2044,-6982
-102,72,-42,-2943,1642,-3639
-17,91,-7,-3615,1470,-912
44,-45,67,-1103,1693,1447
16,-56,35,-869,2254,4594
-117,113,59,-3138,1972,5950
-43,-83,-15,-1925,2329,8360
-110,-3,-124,2123,2369,9974
81,-52,101,-2738,1204,9301
25,-59,29,-2745,-2883,3924
-120,104,-96,924,-5599,-207
32,105,-59,-4510,-8553,-7501
-105,94,125,692,-7139,-7490
-92,39,99,-2664,-5568,-8336
-30,58,-107,-3712,-4056,-8113
109,-33,120,-4866,-1890,-6758
-114,-42,27,-1330,44,-3920
81,64,96,65,-28,-2157
63,-66,-106,-481,140,-141
44,-57,-39,-601,-484,2600
89,122,-33,-1063,-430,4438
13,-107,99,-150,-265,6383
-73,121,20,644,-1494,8709
124,19,72,2849,-4183,9557
95,59,125,93,-1817,6641
-47,-107,-52,198,-2602,6304
-25,8,8,-119,-1547,5742
30,-47,19,326,-1747,3991
83,-91,86,789,-2288,2235
-109,73,91,2000,-1857,1016
-59,3,90,2439,-530,118
118,26,40,1098,670,-562
-122,-42,-26,48,1070,-1694
-5,79,-80,749,1038,-3199
-75,65,56,-437,2963,-6839
52,-103,62,-1430,4410,-7983
-73,23,69,-2116,3322,-6705
64,-23,93,-2147,2081,-5132
80,125,-127,-1166,2184,-2727
-37,59,-8,-3179,1450,-716
124,24,99,-2665,721,2481
90,-112,107,-2280,-631,5114
-63,2,53,-1258,-1571,6412
-50,-98,25,-700,-3062,8020
-94,5,-109,-149,-4069,8043
-73,-128,107,-38,-4184,3889
21,16,-77,-40,-4682,-2930
-42,10,57,-732,-4808,-7682
-51,38,105,-2961,-1479,-9831
41,-37,59,-1674,1732,-7919
-80,-77,39,-3165,2023,-5089
53,28,-70,-2470,2648,-1781
99,-60,-34,-3218,2246,1691
-31,-111,127,-5275,1524,4187
-113,-126,-61,-3442,814,7614
71,-19,-86,7,733,9438
-83,-111,-95,3963,1071,9963
-78,41,36,-1758,-315,6653
-109,117,100,-1407,-4021,3126
-62,70,-12,-1252,-5902,530
82,81,-17,-1841,-8601,-4333
103,60,-73,-1880,-8529,-7187
-107,17,38,-2720,-6500,-8149
-29,22,85,-2867,-4681,-7671
-78,-104,-89,-2843,-3209,-6323
-77,79,56,-940,-497,-3834
100,38,-124,2409,675,-1128
72,-5,-27,-678,-55,670
73,-86,-108,-1658,-390,2396
90,-33,18,-447,198,4124
-75,79,-117,917,525,7286
34,97,92,950,165,9635
-14,-53,-13,1748,-386,8624
-88,-38,117,524,-557,6567
62,53,29,1277,-1123,5555
28,-14,47,669,-147,3258
-120,-13,-127,-682,457,2583
-59,33,10,-222,-614,-244
-15,82,36,1611,-290,-1442
3,51,-16,670,1062,-835
-71,-56,-80,520,755,-834
-67,-99,-101,641,132,-577
-15,-98,-112,-344,-90,-430
26,-105,-118,-698,-20,-523
67,-114,74,-382,2036,-6836
3,49,-64,-1972,1948,-7921
69,-115,-93,-4807,1920,-7024
82,80,-60,-5677,3389,-5100
-28,108,21,-4269,2471,-2115
13,-34,-19,-621,669,320
-86,-112,-105,-977,476,2096
-57,119,-103,-2159,-586,4940
118,-121,63,222,-1026,6977
-75,-77,-41,1577,-519,8263
-115,85,50,2812,-2388,11557
-28,-28,2,-5631,-3322,6588
107,5,10,-285,-4715,-3589
49,4,45,-6131,-7076,-6279
116,108,-123,-2220,478,-9899
-67,87,96,-1962,2024,-9108
-40,52,37,-3668,3349,-5435
-46,-48,80,-2015,2535,-1949
-30,-118,108,-1727,2371,1259
-81,21,81,-5285,2038,4047
114,-90,9,-4696,-787,7464
-121,-128,30,-628,-363,9172
-93,-91,-81,2450,965,9560
49,-59,17,534,354,8083
-93,40,-121,-1541,-1989,6180
127,-83,34,-6317,-6439,-442
4,-24,103,-5487,-7927,-8619
85,-9,28,-674,-1463,-11503
-87,-54,37,3297,-4141,-9659
-13,107,95,-3825,-4210,-7842
-103,120,11,-564,-2863,-6604
-11,45,-121,-576,-2212,-5119
-53,28,31,-505,-1125,-2405
-81,14,-69,375,6,-868
45,-59,-13,-1134,-592,2567
62,-109,-73,-987,137,4029
-42,-113,27,-341,1364,5481
-104,45,69,739,2425,6914
73,-26,107,2445,651,9441
-114,-100,122,-726,-157,9625
121,7,-55,603,-465,7479
69,54,-4,1178,-1384,5606
-114,-95,-53,-1185,-1865,4024
-122,-7,-69,2937,-233,-13
52,-85,-48,1933,628,-1307
-29,-3,-46,994,449,-2337
-8,-126,-50,1106,376,-1847
-5,81,-58,274,252,-1074
14,68,-69,-1098,-179,-460
57,75,-76,-1481,-405,-214
17,-68,-13,-2280,525,-6815
-41,-116,71,-2243,1222,-7500
94,-2,35,-1619,2218,-8909
-120,-34,-6,-3810,1648,-5230
15,-64,-2,-4137,1112,-2806
121,-43,-9,-4480,2377,-1181
34,42,-22,-1931,423,2353
27,84,122,-889,367,3437
119,-6,9,-1624,-1258,5730
58,75,-25,-1444,-2004,7072
-94,-126,-66,2139,-2587,9814
-71,-18,41,2766,-3735,9403
3,4,-64,-3962,-5518,-3942
-66,7,100,1448,-6239,-7055
-55,-19,-61,-2065,-3744,-9728
-42,-39,104,-2860,-1115,-8388
-59,33,48,-3947,16,-4935
74,9,124,-3294,704,-1807
60,-9,-73,-2091,1504,1379
-32,-49,87,-4570,1892,4108
49,-110,-6,-3415,1485,5802
-42,23,-2,-2042,651,7869
118,95,-73,1503,332,9366
10,-101,49,6323,930,10663
84,118,54,4340,2983,7071
110,33,-27,-5207,-3531,-1100
-83,-40,42,-290,-8977,2306
-11,64,-124,-6366,-7968,-4459
69,111,-73,213,-8820,-5293
113,-33,103,-3042,-6368,-6235
-78,-15,7,-4810,-5886,-5238
49,-114,29,-4400,-2879,-5320
68,-26,-93,-767,-1174,-3364
-67,0,62,-853,-170,-1582
-97,30,-60,-979,-297,1063
-80,15,-30,-763,-292,2932
38,-27,-101,-132,1213,3467
-37,100,-44,1214,2375,4017
-72,-42,-8,1255,3482,6318
41,7,69,926,893,9188
39,26,-27,20,-710,8760
-29,126,66,-734,-1497,6600
-57,-59,89,611,-868,5077
-52,96,2,879,555,3694
95,-2,-48,2843,1487,1953
77,-127,-54,3409,254,-1060
17,5,-68,1486,260,-2249
34,-114,-125,73,492,-2037
63,116,-122,-1881,1195,-143
1,27,107,347,-223,-357
8,85,-40,-2135,304,-6528
46,41,-86,-5376,1840,-6847
55,22,-56,-7170,4458,-6227
70,-120,-110,-2899,5235,-4948
-61,-107,-77,-386,2675,-2274
78,-91,-101,-2605,2466,-22
0,-94,-67,-3345,1785,2656
84,-117,-118,-1906,1518,4626
-28,-69,-110,-908,-85,6563
98,-80,101,-66,-894,9054
20,7,119,2120,-1391,11465
-73,-118,45,-9241,-5575,3940
127,-18,-95,1926,-8464,-5793
30,-39,-69,-1547,-4041,-8460
-107,-27,-125,-2094,-1321,-9690
-80,-115,79,-3040,565,-7248
-53,13,31,-4661,2033,-4019
27,57,82,-636,2706,-529
-119,116,-14,-3181,1960,3328
113,91,-126,-4313,1483,5013
83,-103,17,-1099,1709,7626
-111,22,18,-350,2177,8353
-24,-70,101,1928,2765,8993
-93,28,50,-2318,1596,6181
-64,96,106,-2921,-3895,3783
-57,93,-17,-2176,-7144,-2396
-70,109,-65,-2645,-8608,-6281
-100,78,-16,346,-7384,-8310
-93,-12,-72,-1981,-5391,-8208
-21,81,-60,-2246,-4249,-6861
18,-69,-50,-2070,-2677,-5367
89,-119,30,-2244,-901,-3051
-51,-62,97,163,173,-670
75,10,-112,-469,347,2222
59,27,83,-1404,94,3937
-55,100,-104,-206,533,5601
-47,-93,-109,-664,-1160,7327
0,54,-112,1414,-3941,8622
123,63,0,2503,-1133,6524
93,-51,-16,1042,1002,3805
53,86,93,836,27,4006
86,-96,86,1930,1087,3507
97,0,-68,895,-635,4298
-13,-5,-89,474,-416,2845
103,-12,-26,104,-797,797
15,118,-15,897,-297,-1139
27,-39,-47,1470,719,-1953
51,-60,-59,220,875,-1642
81,-111,-77,-450,267,-1319
109,116,-93,-627,-116,-1478
44,-56,-32,-1927,1469,-6101
116,74,-23,-3409,2933,-6963
-97,123,42,-4325,4524,-6663
-46,-87,7,-3800,3890,-3301
-70,-78,67,-2465,2617,-1678
34,70,-39,-907,2502,1122
14,34,-80,-714,962,3924
3,-120,82,-1836,780,5836
123,-66,19,-2242,-894,7854
-105,119,101,1420,-1309,11252
105,38,-91,-1913,-2249,7151
-86,24,-18,-3689,-8356,-3564
61,-4,-19,-1131,-4796,-6960
28,-13,-97,-1077,-2738,-9240
-6,-44,122,-3322,-949,-8841
-59,-70,53,-4426,1192,-5815
-21,0,-120,-2733,1510,-2761
-43,20,-103,-2997,1780,-98
64,-12,36,-3165,1870,2193
30,84,20,-2559,1706,4648
-111,-38,119,-2855,964,7054
98,64,-106,-1684,1216,8843
-52,50,26,2027,1113,9251
-8,-33,-39,-1661,312,7271
-78,-128,-95,-774,-1954,4926
86,111,26,-4071,-7411,-134
110,-118,-97,1297,-6307,-5421
-52,81,-92,-986,-7151,-8466
-95,22,66,1740,-6825,-8108
-5,-63,18,-357,-5481,-7505
-88,-51,84,-700,-4643,-6316
124,55,-104,-263,-2021,-4320
22,-84,-5,1264,-778,-2063
-127,28,29,-81,-670,-463
26,77,-18,116,-445,1051
-16,-58,59,-1566,-305,2693
97,-7,-23,-1168,495,4707
-37,97,91,-676,1706,5876
-77,42,-126,751,2530,7790
-91,-52,-70,2779,1489,10036
10,-72,-96,1770,4543,6241
100,-50,-36,114,2947,6927
-115,-56,87,-119,679,6946
89,-68,-127,-342,305,4807
59,-79,114,747,-955,171
82,5,-96,2617,-519,-879
11,-55,-56,2310,155,-365
-52,-59,-47,502,305,-342
-35,-67,-24,-739,-341,-319
12,-97,-24,-1256,-478,-1340
-84,-124,-34,4836,-2108,1085
-51,-85,-33,-4206,-676,-8512
-9,85,114,-1377,1582,-7708
48,65,-96,-3700,1309,-7508
-55,15,-90,-5283,2931,-4956
-65,-78,69,-202,1834,-2867
-83,28,-10,-1921,-2075,929
96,116,81,-808,-1050,3355
-56,-60,-35,-585,1995,5039
-5,69,-102,171,1439,6291
122,35,-66,3575,2260,7926
112,-11,99,3356,998,9686
-72,-9,65,-8555,-6337,665
-73,-4,-111,2428,-6668,-6845
123,-47,112,-507,-4108,-8044
-59,-13,-90,-3894,-2399,-8213
69,37,50,-4871,427,-5712
-52,79,-46,-2971,468,-2418
70,-85,-110,-2628,635,1352
42,-52,115,-3802,1571,4325
57,-121,87,-3541,1869,6187
-124,-97,-112,-1890,1819,8603
89,-112,30,1639,2751,7703
119,27,-24,2225,1637,6792
58,-126,51,2086,230,5924
88,50,124,-4378,-3735,4661
-11,67,-35,498,-5833,443
-97,53,51,-2841,-7945,-3694
-98,65,-119,-1599,-8330,-7046
-93,-27,-45,439,-6496,-7163
-43,119,38,-1483,-5805,-5715
-115,18,-26,-4037,-4058,-6803
-21,118,107,1339,-1951,-3967
-76,-14,59,-1986,-1410,-1633
25,72,19,-1211,-757,588
-24,-28,-16,-787,250,2513
0,-47,127,-944,684,3590
98,-50,-9,-419,1201,5345
1,118,119,449,1910,7022
-96,23,-16,1008,-238,7708
-29,21,116,606,-800,6717
113,-25,-73,1117,-1066,5571
-121,-98,39,909,866,4552
-58,-86,64,157,2838,3544
-35,55,-53,1193,-1320,2331
120,-3,-43,-1281,-562,1152
47,101,-58,-728,318,-563
37,-84,-66,1543,435,-1294
76,-76,-60,691,419,-1080
93,-78,-77,-519,332,-553
-19,-92,69,-2326,2025,-5842
-18,-27,68,-4559,2479,-4640
-38,60,101,-4545,2312,-2364
-89,-46,-96,-4913,1428,-323
-124,-90,29,-1274,2030,1449
115,119,-56,67,2851,4590
32,-11,126,-1357,2945,6531
-101,69,-77,839,2611,9238
56,-71,117,2169,2281,11092
5,-111,99,-9509,-5483,6541
-125,37,-51,79,-8385,-1460
-33,51,-128,91,-5785,-5600
90,103,85,-2906,-4367,-8750
-11,-69,-103,-3766,-1149,-8897
118,-28,61,-2551,862,-5762
115,56,-67,-5725,-722,-2679
-106,93,-26,-7085,-767,944
18,-18,50,-3560,-211,4980
-108,7,88,-1296,737,6130
-124,22,-10,1783,2311,6805
-125,9,104,3735,4333,7381
20,-124,-116,6573,5755,8296
-42,-75,-28,3265,5163,8249
43,32,-103,-11641,-1957,5232
-70,-6,-18,-3978,-9235,1821
67,31,-83,-3221,-7808,-3326
-111,20,34,-268,-7434,-6583
-23,127,-115,1662,-6411,-6723
-80,-60,29,-2182,-6822,-5100
94,44,77,-2524,-5133,-4138
95,-75,-42,-1567,-3884,-2792
-67,-28,-116,-3558,-1021,-2365
12,-53,-90,32,525,-927
120,124,-22,1065,1052,2310
-113,-79,-54,-1693,923,5039
53,-112,-44,-1160,1703,6953
77,16,-73,3389,3037,9259
-7,-88,103,326,2753,8017
-18,18,21,-2438,373,6317
-95,3,10,319,-1678,5769
81,114,-87,-461,-641,3773
-79,-6,-55,231,319,1757
109,-104,-48,707,761,385
34,71,-69,371,637,71
4,57,-77,-682,-60,-48
-7,31,-100,-960,-125,-257
37,5,-119,-1065,138,-740
73,-13,-128,-862,4,-1383
118,-34,116,-873,-134,-1723
-89,-54,105,-978,22,-1879
-117,-91,17,9101,120,-3340
-77,17,-84,3113,-560,-6883
-31,-53,61,-4571,-3378,-7164
85,55,-21,-8757,-606,-7314
63,37,56,-8370,3994,-5550
41,47,19,1992,1632,-1435
68,-99,-106,-891,-1817,2139
-92,-57,-22,-3843,3006,3516
-101,-11,-115,-179,2659,4576
39,-98,-113,-59,1692,7175
32,65,-4,6166,3214,11453
-29,-59,33,-1198,-3672,11148
51,57,4,-493,-8179,-5713
-107,111,5,-9669,-8279,-5144
30,9,-92,-911,-1360,-9805
-105,53,99,-2563,1663,-7839
103,106,46,-2846,1728,-4084
87,45,-93,-4710,1257,-638
115,-7,72,-3315,2838,3506
52,8,-102,-113,2686,6601
-115,-64,-107,-5288,3292,8639
-116,127,124,975,2323,9040
12,121,-65,2825,647,8207
115,65,90,-5864,-682,5637
62,93,-20,-3642,-7268,-753
3,100,-110,-2738,-10055,-5421
-98,-124,109,-2275,-7549,-7431
103,69,103,1041,-6287,-7716
-94,-27,106,-3238,-6573,-7140
-39,-63,21,-3931,-3526,-5823
76,11,123,-2482,-2163,-4374
-109,-109,49,102,-145,-1538
-34,24,114,-237,375,802
111,-25,-98,-1818,-224,4083
-115,-14,-16,-841,153,6506
52,43,102,209,229,8034
-55,37,61,1279,-1381,9173
-104,72,-72,2074,436,6453
-95,108,28,-973,-1180,5483
-97,67,76,840,-1766,5017
-40,106,-55,1557,505,4144
94,-15,-108,3290,42,3335
-67,6,-42,1733,-109,2446
24,-55,-43,799,-345,328
21,37,-117,1554,1098,-812
61,-105,81,2532,572,-1007
-33,-78,126,367,-506,-486
91,-99,95,-1507,-349,-470
-113,-89,118,-1544,-1188,-356
81,-44,-108,-1760,-1082,-948
-87,-105,12,-3011,2150,-7404
24,51,95,-3540,2839,-6428
36,-86,109,-4212,3418,-5481
59,-85,-104,-4290,4677,-4027
55,117,7,-5227,5149,-2811
24,-33,-14,-1565,3318,475
9,94,-117,-295,2531,2552
-34,-102,-74,-3299,-2474,5631
36,98,-37,-596,-2484,7667
-106,0,-45,74,-3188,9384
49,4,111,798,-3800,9131
-128,53,-119,-7692,-6149,2366
-39,-112,-35,-2250,-6286,-7823
86,97,-117,1638,-288,-9127
-72,-13,118,-925,-811,-9266
-44,57,73,-4756,1295,-8086
55,39,0,-2502,2212,-4096
105,47,-3,-3620,2281,-1430
-74,76,56,-3809,1949,1147
77,-114,-2,-3633,600,4018
84,-77,45,-2344,70,5862
28,-67,55,-686,346,7743
-54,3,-30,1520,741,9437
-98,-25,22,949,1924,8628
91,-14,-117,-3941,-4950,6615
-27,-89,-121,-1245,-4823,180
-16,-92,56,-838,-6256,-3600
84,-118,126,39,-5976,-7528
88,48,105,808,-6241,-7381
-85,116,11,-2210,-6592,-6504
-29,-15,97,-1992,-4207,-6050
70,-120,-78,-461,-2801,-5216
77,-57,-102,604,-1043,-2278
16,45,55,1206,-193,-1099
-88,-36,-84,-1784,-169,1111
-112,88,46,-639,720,2048
-42,19,-8,-987,1264,3343
-27,71,69,-65,2454,4066
94,-115,-57,-946,3426,5650
8,-95,80,-661,2508,8230
1,-66,34,-659,1968,8869
92,91,-59,1881,-955,4010
-65,55,-110,-82,1847,3324
-121,-118,79,-280,-181,2431
56,-91,103,711,789,1529
3,-5,-117,375,901,984
-12,-27,-71,-1201,521,1503
-12,-105,109,-41,-438,900
15,-81,-113,131,-615,478
54,-78,-110,-86,-292,-163
-35,-114,31,-624,1134,-6610
-46,107,86,-2528,1754,-7040
-121,5,84,-2897,2105,-6178
41,78,-39,-1944,1750,-3515
41,10,-74,-2062,415,-1516
-96,-17,-68,-2789,771,-338
101,89,-99,-748,991,1312
68,92,-89,-967,358,3153
-36,-87,104,-556,346,5326
-58,-60,-90,1548,548,6645
37,-100,-47,336,-2202,10157
21,-27,86,-1822,-5237,6452
-121,69,114,-2368,-5434,-4542
-29,58,-67,1206,-2313,-7136
-102,23,93,-1897,-1133,-7801
85,87,61,-1039,277,-6717
-117,70,39,-3524,745,-4560
-113,112,80,-1047,984,-2183
-58,77,-71,-1627,1114,-1045
-108,-104,-120,-3437,1463,1293
-59,-113,-111,-1784,2106,2597
-26,-73,-67,-1750,1766,4845
-96,-37,-88,-1796,1660,6973
-11,42,87,-1559,776,9206
-23,-103,-55,-744,744,9881
-67,0,-17,-6120,-1208,11533
-106,117,37,-14560,-7877,-3455
-75,20,2,402,-5369,-6700
32,125,22,-1917,1595,-11074
58,-24,-121,9715,-3803,-10156
-105,-10,71,-2435,-4847,-8833
-99,-72,-47,-3288,-3045,-7369
-45,-105,-102,-913,-2070,-5441
64,-61,-72,-1527,-888,-3694
-35,15,-41,-2667,-450,-1834
126,-43,-72,-1401,-414,1069
43,64,-65,-1109,-1236,2493
109,56,-90,-1126,-890,3947
-13,-91,80,511,-492,5625
90,-33,60,1392,-1552,8829
123,111,123,3385,-2282,8757
62,31,-18,-659,-363,7785
2,-79,-51,-329,-3727,7123
32,-36,95,608,-975,3890
29,-72,109,915,-903,2204
98,86,107,1965,-679,558
32,-46,24,2118,490,-223
-19,-105,2,658,291,-226
10,82,-43,554,415,-680
38,-25,-89,994,263,-1423
-82,112,19,1173,3315,-5352
81,-16,-106,-2707,3166,-5997
101,-9,-51,-3465,3175,-4942
-95,91,-48,-3677,3424,-3410
-50,-65,-45,-2628,2899,-1808
-6,68,-25,-1830,2068,-269
-60,3,-48,-1335,2109,842
-71,-59,-15,-1266,912,2667
44,61,-4,-445,-294,5228
73,-74,-67,1535,-124,8349
-98,-97,106,-1230,733,10006
32,122,17,-821,-2732,7619
79,-96,-88,-3993,-6843,-205
-120,-90,-38,-849,-5810,-6242
64,-56,-75,-1385,-3447,-7812
84,-12,-128,-1749,-893,-9177
-90,-13,66,-3523,908,-7237
91,-100,5,-3451,1241,-3943
29,125,42,-3399,1738,-1172
17,-1,111,-1573,1871,1038
-29,77,122,-2806,1383,3805
119,112,-112,-2865,1546,6065
-87,39,127,-685,2100,8721
-95,126,96,-1597,2251,9600
92,82,-58,2140,2799,9058
-68,-3,-116,-299,2810,6666
65,23,-58,-3841,-3480,2783
33,47,-112,-4279,-8594,-2940
29,93,-56,-3285,-7464,-7128
-109,-120,103,1851,-5897,-6500
-98,27,-93,715,-6085,-6741
-19,89,1,-2102,-5953,-6483
41,61,-22,-3041,-3941,-5719
84,-54,-8,-1259,-2521,-3856
-54,23,112,-939,-1096,-1605
106,17,-103,-566,-166,-156
60,64,-118,-399,324,1227
74,-6,35,-815,717,2792
122,46,-77,246,1370,4919
-15,-110,42,3023,2383,7894
-82,14,16,6696,2169,8830
-92,-78,-10,-4789,1664,3928
82,-22,-20,1638,-720,5865
-91,126,-73,1658,757,4866
51,79,70,348,3903,3685
-77,6,-5,2293,3083,4340
61,-83,89,1325,237,4837
-17,-74,-120,-1491,-1134,610
-57,-52,119,-358,-434,-2594
-26,118,100,1243,727,-1520
35,-12,-89,-1528,7571,-6586
73,67,-47,-3721,3230,-7279
65,55,-58,-1184,-607,-7935
4,66,76,-4021,2567,-3518
-102,-29,99,-3842,2315,-2713
51,27,127,-3458,2554,-542
-60,-40,123,-1547,2203,83
-88,-42,-80,-1747,1824,2414
-5,-73,-53,-1110,-316,5049
-10,-58,-125,-263,140,6876
-41,-77,74,144,-103,9601
125,-86,-88,-422,-2097,12503
-125,-31,78,-10571,-6566,312
-17,58,5,2326,-6770,-4800
-125,11,-101,-3042,-3310,-7582
-19,10,118,-1130,-1546,-8909
-15,-91,97,-3103,667,-8264
30,61,51,-2026,1735,-5134
-117,92,-102,-3002,1603,-2580
89,-3,-117,-2953,1593,232
72,-61,73,-1822,1761,3293
100,112,65,-2982,1840,5420
60,-121,35,-1388,2155,7850
-64,-21,-59,29,3170,8914
-8,90,-75,-572,1911,9250
-1,57,7,-3956,-2695,5470
-76,-84,122,-2607,-5142,1682
16,-90,52,-1652,-7301,-2709
29,-90,-68,-1485,-7721,-6883
44,68,-103,187,-6434,-7370
106,-123,4,-541,-5753,-6953
-59,-79,-63,-4202,-6439,-6550
80,-13,114,-4999,-2771,-6273
-107,1,101,-35,-686,-4142
83,109,35,-168,-990,-1543
-71,-18,117,-481,198,513
120,44,107,138,95,3287
-98,56,37,-299,474,5195
91,122,-121,162,999,7315
15,-91,-13,1804,969,9802
-19,115,116,1610,354,10069
-77,14,101,-834,-721,7108
-117,56,57,1009,-2395,6737
-64,-73,-118,193,5,5613
1,-97,-94,1690,-258,3714
-11,120,-34,2397,-1624,1753
2,125,11,92,-1365,-98
-58,23,-15,-657,266,-1042
-119,-107,-30,350,609,-1468
-67,75,-74,364,660,-1962
88,-85,2,-3727,1264,-5282
6,77,-73,-5024,3392,-6071
58,-88,44,-4847,3678,-5205
-4,103,18,-2857,1680,-2810
108,112,33,-4212,2878,-869
41,9,-9,-1865,4631,625
102,-126,52,954,1148,3216
113,93,-5,-1105,125,6047
68,45,92,-258,-1020,9262
122,-38,-5,1127,-941,10279
76,110,-30,-2776,-4416,4901
39,-56,-75,-1852,-7315,-1080
-22,-34,108,-3679,-6935,-4209
12,75,-108,-5002,-1267,-8928
-83,-16,76,-1988,2935,-9375
-60,34,37,-2706,1938,-5945
-113,99,82,-4135,524,-2431
-56,-82,-39,-3641,1292,-198
104,97,116,-759,2281,3202
53,44,63,-1463,2380,5088
-25,-37,-28,-2739,2053,6750
-97,-70,-120,-889,1340,8898
105,96,-5,1279,575,9164
-25,-78,9,-4429,-2874,6127
-21,-41,-110,2509,-4953,25
-39,-121,3,-2209,-7543,-2861
-44,-111,-54,-284,-7272,-6103
120,86,75,952,-5332,-6188
121,42,89,-2801,-5664,-7359
-102,-43,2,-4595,-3919,-7264
-122,101,-116,-1062,-1241,-5667
-35,26,-43,-1311,-1424,-3916
-80,-61,-24,-1229,-70,-1249
72,-120,-31,95,14,438
9,-38,32,-991,-655,2877
68,-68,-5,-1429,-795,4575
-93,-69,98,-1955,-588,4922
-90,3,54,-652,-2573,6458
-75,64,-27,3789,-3476,10260
2,-117,10,2385,-4465,9379
-36,47,-110,253,-3270,6330
-23,89,-72,2332,-849,1933
-96,-51,97,5734,-263,979
-32,4,-45,3222,-1120,1906
98,46,51,-108,-1305,2440
-36,-48,59,-187,-208,1410
-89,-104,27,1597,403,249
119,-88,-4,812,355,-492
-124,103,-55,146,493,-1427
-72,14,-112,68,697,-2324
-28,-121,40,-3992,2021,-6002
112,-53,-30,-4884,3194,-5176
84,43,101,-4431,5463,-4460
121,-125,-86,-1395,3336,-1682
-77,-31,-84,-2153,3184,-1402
92,-119,-123,-2183,3264,1947
69,-23,-115,-2080,648,5342
-11,0,35,-1863,952,6200
33,-27,10,-118,-3046,9776
-57,66,95,-23,-2059,9925
86,-31,65,-1919,-3709,3393
-17,-112,6,1614,-6151,-5478
65,-109,-113,-54,-4857,-7945
-44,-92,-33,1385,-3302,-9046
-76,77,-124,-3044,-1529,-6687
-5,31,53,-1835,315,-4065
126,85,-111,-3332,992,-1812
-43,16,23,-4182,1916,985
81,114,-85,-4053,1876,3772
-89,-37,88,-3581,1961,6368
-76,115,12,-2416,1752,8649
-9,91,99,-66,1556,8090
-86,44,71,-2294,-1495,4005
-10,-128,31,1143,-2049,4767
-124,-123,127,-2720,-4734,2061
-21,-122,50,-631,-6366,-3735
111,-124,26,-732,-6408,-7108
-66,111,-4,-536,-5133,-8313
-50,87,110,-84,-3840,-8716
-102,9,122,-1335,-2966,-7668
-73,110,5,-1375,-1986,-5748
56,-79,-27,-406,-861,-3145
-72,74,-21,-1511,-992,-1157
51,50,-11,-1689,-1391,419
-27,15,28,-495,-1177,2438
28,29,10,-569,-542,3901
-128,-15,-113,-195,-413,5535
7,0,69,712,-1298,6886
115,123,-94,408,-2192,7740
-121,123,23,1412,-4002,8379
-124,-26,36,210,-3501,6833
-44,-35,-80,-961,-2790,4624
32,-14,-22,1871,-1339,-223
-109,-57,-33,75,105,-61
-3,37,-92,-811,821,-760
-65,116,70,63,376,-917
-28,62,30,382,321,-895
-25,14,-10,626,482,-599
-26,-29,-33,360,114,-641
-2,-33,-43,-243,18,-334
47,124,-121,-3313,1756,-6343
-8,76,11,-318,2440,-9369
-59,-54,-9,-4275,2427,-7887
-30,90,-12,-5402,2896,-5349
97,48,-7,-2994,2134,-2375
-90,80,-15,-3190,3356,-1298
1,60,-79,-2031,2337,-28
-71,-30,-91,-1785,-934,3624
44,86,89,-615,-1602,5988
93,-120,-14,320,-2484,8259
-43,-15,-110,2185,-2542,10553
-89,-123,-15,3751,-1870,8951
-16,121,-120,1503,-5124,-3348
-75,84,30,-1176,-6888,-5744
29,-123,-44,-395,-4467,-8922
47,-69,-74,-3763,-2107,-8289
106,-33,68,-4607,153,-5212
111,-76,92,-2551,1127,-1785
-91,-95,-61,-3577,1592,1611
90,66,-123,-4303,1144,4464
-61,-95,103,-2020,1343,7467
-71,83,122,-2672,2162,9122
5,-78,-107,1194,3101,8868
33,-65,4,541,635,8190
-35,95,74,362,-1460,4648
-91,14,114,231,-8623,-1329
91,4,-78,109,-9825,-3125
-52,-6,34,-164,-9501,-3214
-63,-73,12,-2205,-7707,-5028
-24,2,100,1353,-4386,-4776
74,-51,25,-1488,-5551,-4505
-40,50,116,1299,-2338,-3525
120,-117,45,-385,-1790,-820
46,-99,-37,-1169,-871,683
-15,114,-100,-1032,619,1188
20,30,99,-1410,1423,2246
125,99,79,-1223,2676,3775
-58,-62,-107,-1339,1609,6502
39,-41,-44,-50,390,9584
117,19,-14,-1737,1167,8447
92,52,81,-1869,-1207,6655
-64,-59,70,778,-2148,5868
-64,-58,-89,784,261,4644
59,-38,-83,710,758,2183
72,79,-56,1839,226,-847
14,77,-75,2827,187,-2811
22,-40,-100,1837,470,-2514
68,125,-96,84,172,-1677
72,76,-93,-221,-420,-1196
82,52,-105,-619,-189,-564
61,124,41,361,3417,-5129
-28,-126,-106,42,2356,-4945
41,-66,100,-1627,3499,-5010
-25,-58,113,-2022,2825,-4300
-110,64,107,-3192,3552,-3674
-92,10,72,-1101,-837,-485
123,-34,10,-2376,194,1709
-18,28,-52,674,1147,3838
-102,20,80,2013,2116,5415
84,58,-84,2954,3358,5959
-59,-48,-115,-2286,3175,7259
-54,-57,-10,-3956,-4388,7689
117,-44,-34,-218,-8216,-4962
62,-35,-128,-772,-4654,-5834
49,-13,-113,-1887,-2517,-7798
64,77,72,-2448,-229,-6633
-45,-40,38,-1791,1504,-3397
0,73,-89,-3643,1150,-1687
101,64,42,-3387,1820,226
107,120,-76,-1091,3299,2978
-72,-76,-112,-1067,3471,4955
102,-9,53,-1001,3602,6392
-85,-37,19,386,4367,8618
120,-30,66,3147,5933,9366
-16,99,-17,-12369,-4054,879
-34,25,-70,-2309,-9097,-1365
11,90,101,2087,-6475,-3631
122,67,124,-287,-8277,-7493
53,50,58,309,-6437,-7977
-95,64,99,-149,-4581,-7625
-118,-6,61,-952,-3905,-6102
-101,16,9,-3676,-3090,-4491
-47,118,-47,-3283,-84,-1589
-29,-70,-120,81,278,494
50,-84,-83,-1381,-814,2032
95,39,-80,-764,-783,3327
-62,-72,-105,756,-456,5207
67,-19,-115,1026,-584,7483
42,-34,9,15,-2612,8178
52,13,14,1645,-1578,6270
-11,24,82,894,-2448,6067
-31,45,96,1402,-1832,6078
17,48,-5,1784,992,3605
-62,-14,-46,1641,523,2536
-69,-12,-33,1071,93,2579
78,-88,-54,1580,-406,730
15,81,-62,1522,21,-1154
-4,-30,-83,1138,607,-1746
36,-82,-86,569,437,-1724
109,-119,-80,-44,515,-1232
87,-124,-115,2427,1355,-7040
70,-34,48,-5095,3284,-7586
109,3,-127,-5931,2878,-5776
-71,0,121,-2423,3057,-4571
-73,-31,-17,-1881,3447,-2851
124,-122,9,-2613,3625,-178
64,-119,36,-2315,-580,4791
-12,121,-103,-596,671,6791
-50,-88,77,-545,1967,7564
-95,-23,-94,3269,931,12668
-21,-113,107,-8694,-1975,5741
75,120,110,1195,-6892,-1659
101,-128,-91,-1542,-7159,-6420
39,-61,-61,-2558,-3612,-9285
115,127,115,538,-35,-8325
110,23,73,-3967,216,-5125
23,-101,3,-2292,1342,-2865
68,-7,-102,-570,1719,-606
23,111,-80,-844,2490,2407
92,-75,-46,-2640,3264,5382
33,24,-120,-1692,3679,7252
-6,89,82,3753,4487,7616
87,30,-39,1942,4352,6936
-28,71,-27,-2635,2955,5181
-83,3,0,-4995,-1872,3844
63,77,60,-3498,-9956,585
-18,-108,97,-3033,-12486,-1832
110,-16,28,-956,-9552,-6386
-73,-53,44,-548,-11388,-6570
-106,-113,-108,-1648,-7011,-3875
-87,83,-17,-1523,-3891,-1693
-87,75,28,-2984,-1263,-1026
-56,0,-8,-1955,-197,123
-66,-60,-31,122,557,1575
-57,10,-25,1,1756,3578
-38,45,39,-886,2752,5763
-9,-29,43,1546,2981,8348
105,27,-83,2537,1617,9117
58,-90,27,238,2955,5140
-8,-119,-82,4006,1498,4403
12,-111,-72,-458,3409,3238
-120,114,-51,1929,1740,2019
85,121,-5,1576,1113,1249
-16,48,62,138,735,216
-53,-22,-109,-878,-242,125
-18,-101,-95,-717,199,25
18,126,-42,-874,59,8
61,77,-74,29,442,-161
98,32,-43,1066,338,-415
89,43,-8,1019,328,-615
-52,85,-78,1507,4497,-8150
-80,-70,49,260,1274,-6272
80,-78,108,-1936,67,-4621
78,76,-125,-4436,926,-3959
31,-56,-110,-4454,1836,-2564
10,76,116,-2425,2712,-782
-27,-34,9,-917,-93,2810
70,-15,-34,-2179,255,4456
-59,-45,119,-1333,-29,7448
100,-36,-93,-120,-216,10358
-90,-85,0,-7275,-3110,4760
78,-126,123,541,-6190,-130
-78,39,-20,1606,-5062,-6016
-17,25,127,2273,-1482,-6538
108,8,115,1093,-11,-7531
-100,41,103,-1494,311,-6413
27,74,75,-1687,746,-4109
77,-39,-77,-2434,-36,-1785
9,-59,112,-3131,183,-143
-32,79,59,-2498,379,2357
-9,121,-5,-2032,340,5460
-61,-18,-114,-586,1287,7155
56,-111,70,-719,2417,8184
-20,-112,13,743,2917,9526
-88,12,-113,-3852,2015,7611
2,-76,112,-2347,-4641,197
-61,-94,97,-2828,-8218,-2044
37,-70,-40,-104,-6396,-5306
113,-128,-127,1339,-5265,-6833
-116,41,-118,2819,-5092,-6939
-70,-4,10,-1623,-5789,-6764
-36,84,55,-2812,-3691,-6229
-117,-21,-1,-1688,-3060,-4620
123,-91,-21,-1276,-1454,-2773
-10,-8,12,-431,-843,-674
-107,-64,85,-738,-453,1410
108,13,73,-265,-36,4228
-60,-5,-19,242,823,6097
72,27,59,2198,2218,8150
-39,104,-30,3199,879,6203
-44,6,23,-3681,-813,4386
95,-10,39,-89,-3713,5259
19,8,59,694,-86,3460
46,125,43,1747,1334,3040
-97,-15,-107,4695,2470,3037
-17,-25,114,5075,2397,2664
-28,3,71,3009,2033,2204
105,29,-94,-1703,722,878
44,-47,-116,-2804,-272,472
3,-125,127,-1076,-452,137
27,16,-36,-1125,2952,-4055
-54,71,-63,-1708,3615,-4502
64,13,-117,-2092,3445,-4426
-67,107,45,-2623,3625,-3235
-50,-90,-49,-2510,2499,-2603
11,-122,5,-2870,1040,386
-39,33,-34,-1220,2007,1280
-29,-39,-60,-478,1494,2860
9,-32,110,-1465,378,4292
-34,69,32,3004,-342,7191
95,54,26,1505,-3972,10231
76,91,-96,-112,-6364,6495
-95,41,23,-378,-4102,-6578
-8,-25,-94,-194,-2375,-7072
-103,2,105,-1571,-616,-8516
-37,-66,68,-3281,2029,-7476
107,60,59,-4742,2082,-4363
28,69,-45,-3581,798,-1624
-105,63,113,-3950,-60,1052
90,112,-111,-4978,-2831,4154
-128,-37,-91,-1573,499,7933
-10,3,101,314,-199,9456
-49,-36,-95,1049,870,8763
13,-42,-33,6863,2039,8602
-47,-20,70,-5892,-858,7866
-120,57,-33,-184,-7687,496
7,50,15,-2841,-8312,-2891
-116,55,40,-999,-7636,-6274
-108,12,-66,767,-5027,-7571
14,-14,126,-1306,-6426,-6452
-60,61,-59,-4289,-5930,-6796
78,-84,23,-3607,-2618,-6262
70,112,68,-955,-1900,-5217
116,-22,-14,-1367,-1540,-1858
0,-51,4,-1294,-417,1194
-99,-121,-48,-1005,-700,2977
-122,86,-122,-321,-414,4230
-52,-11,45,1195,102,5729
41,-52,-72,3454,131,9722
99,46,-28,2701,-2016,8139
75,55,-32,328,-655,6430
-16,103,69,-151,-4437,6504
22,83,-122,898,-2440,4029
-118,-89,109,2450,1334,3019
84,108,-81,5266,2079,2569
91,-19,47,2216,-1140,2351
-20,-26,57,-1917,-787,824
-53,31,-46,248,970,-385
-76,-74,-99,1810,1559,-1042
-76,-75,-108,1841,605,-1167
-54,70,-123,107,3289,-5868
-12,-56,-28,-572,4595,-7372
22,47,-91,-1315,1875,-7084
41,-112,-112,-3246,2981,-5810
54,69,-84,-3012,3103,-3256
56,24,6,-2471,2336,-1221
-16,24,-23,-1189,2208,392
-78,-23,-54,-248,1876,1450
-8,106,-80,1068,1329,3740
-29,-120,-106,992,1829,6618
92,-116,83,-725,1238,9017
111,-24,-121,-1081,-2047,15138
-60,-102,82,-11044,-5763,-1235
13,-11,9,6856,-6369,-7582
-76,-96,50,-406,-2593,-7553
86,-91,102,1541,-2960,-7592
-54,-44,-111,-5627,-2652,-7897
123,-71,26,-3927,32,-4673
23,90,-105,-2412,482,-1484
83,-112,-96,-1819,1269,1734
57,-6,-121,-3418,1384,4565
71,-47,88,-4089,997,6498
111,-47,64,-766,546,9581
96,25,19,162,1648,10139
74,-47,13,2226,3713,7847
66,105,59,-2095,-2657,1382
1,103,61,-2983,-11416,-667
6,119,11,651,-6426,-5759
-97,71,-75,1326,-8328,-6489
-95,16,-29,-2069,-7012,-8308
-22,-112,30,-2811,-5089,-7113
60,-111,-25,-733,-2463,-5172
56,-124,-30,-1547,-2191,-2997
72,-39,-7,-1663,-1102,-881
-118,12,33,389,1001,88
85,109,74,-44,1085,3293
-94,85,2,-251,1321,5136
-74,104,111,368,1927,7437
-46,123,-13,124,2003,10347
-76,26,-85,-781,-852,9817
90,-113,127,-73,-241,6281
53,-127,-106,740,-2069,4809
26,-91,-10,528,-63,3294
51,-106,-34,2202,33,1133
-56,-109,-80,2078,799,-764
-35,50,-87,927,544,-868
3,-33,-83,245,420,-569
29,-107,-101,481,267,-385
39,123,-114,709,347,-847
95,105,-102,379,105,-1067
61,85,24,-1898,4211,-4383
122,-15,-22,1092,825,-6757
0,118,-126,-915,-10,-7296
18,79,-100,-4654,240,-5672
-98,116,-60,-6940,2093,-5062
31,-46,51,-2656,3037,-3553
47,-93,94,612,1547,-772
39,-49,-2,-1234,-89,3003
112,-4,-56,-2567,-364,6450
2,-17,49,1126,830,8586
-97,22,-113,3023,2034,10037
-96,-15,84,3537,-194,8999
-17,-62,-24,-8704,-10561,4377
-104,-91,57,-994,-9002,-1955
-40,-23,-55,-3698,-2313,-7704
-119,-12,95,-3334,-788,-8195
-85,-38,49,-5523,-193,-5847
120,63,-28,-4796,2224,-2795
86,-18,86,-3141,2710,-420
-107,108,-29,-1270,2838,1174
81,-89,-46,-2044,2806,4088
91,-19,-4,-3111,1910,6792
75,-6,-72,-1317,2268,8616
-77,56,17,2935,2810,8892
-19,12,116,5879,4529,8582
-83,84,65,-11840,-933,7230
47,78,-95,-4530,-8494,-29
17,-63,89,-4990,-5993,-4921
72,-40,-23,-2827,-4491,-7996
78,42,-94,156,-181,-8321
-62,61,-71,478,-5299,-9149
-4,-12,33,-3978,-4607,-7791
53,-127,-46,-1738,-1917,-6059
57,103,23,-1327,-2177,-3833
85,87,111,-4359,-2096,-2685
-87,29,82,-669,-440,-215
68,-21,-50,-717,-1078,3695
50,59,-76,-337,-806,4934
-103,11,51,2293,613,5739
-26,11,7,3622,324,8596
116,-90,9,3029,-740,6525
-51,-22,88,4274,180,5520
85,-87,39,-516,-1511,7091
37,65,65,922,-473,4797
-11,-60,-85,1491,717,3920
-106,27,-114,2481,2061,3030
-1,-98,-37,1292,500,928
-66,116,-1,-220,-867,120
-54,50,-21,-285,88,-133
-37,-19,-68,-342,461,-745
-125,127,-23,-3570,3017,-4481
22,-87,-4,-3284,4746,-4639
-76,-15,-119,-3860,4363,-3200
9,4,-109,-3172,2997,-1881
89,125,-115,-1779,3475,-1464
-47,115,12,-1424,2042,719
-30,97,5,-1386,1016,3151
80,35,7,-1365,1786,4281
49,-28,28,-1175,2750,6685
65,75,9,1680,1647,9665
-45,120,67,3418,6152,9391
-126,-77,122,-9094,-4302,6053
56,6,56,26,-10505,-4167
-9,32,-1,-1894,-8646,-5256
-82,-124,-108,-4079,-5024,-9656
32,-5,125,-4621,-1344,-8327
-25,-81,7,-4237,1229,-4556
81,7,-89,-3751,726,-1953
-82,-15,113,-2651,1302,356
-97,92,-45,-317,3595,3930
54,-19,-114,-1480,4452,5537
11,65,89,-2543,4166,6214
63,-60,10,-2226,4357,8220
-18,5,-31,-2514,2566,10789
76,-128,116,-8236,-327,10262
-125,-8,81,6580,-7089,1266
-78,37,-19,-9929,-6401,1194
10,33,42,-8254,-9209,-7193
-28,-106,-39,-130,-7041,-8051
75,50,37,-2118,-6967,-9214
-42,100,81,-5703,-4881,-8298
-11,102,-8,-2709,-2329,-6577
68,60,87,-379,-2213,-4374
48,100,-56,-2457,-1962,-1929
109,-88,-41,-2338,-55,28
70,-90,-51,-307,-301,2328
-128,120,-72,266,205,4314
44,-123,91,1452,1124,6203
-117,-113,9,1584,1402,9056
38,-69,-93,2902,-176,9590
-67,-37,-37,-2359,1001,8041
-40,55,75,-771,-1783,6364
-60,-39,-73,993,-3192,7674
118,-31,-2,-1489,-3486,7318
72,14,70,-2042,-4189,3709
-54,98,-23,1032,-3518,87
46,12,-38,3298,-559,-994
77,47,-102,2596,1160,-1050
77,57,110,608,1352,-1488
-82,-86,-37,816,2068,-3012
48,-46,93,2925,-4142,1752
-25,13,-128,-615,383,-4113
-51,97,-64,-3714,1983,-6447
10,-99,3,-4586,3653,-6795
95,-106,111,-4587,4988,-6476
-38,-117,-49,-2352,2805,-3774
-100,49,-85,-1820,3014,-2156
-29,7,-89,-3575,3116,1058
-46,76,103,-1141,-350,3133
23,74,87,-1134,-306,4946
-26,112,49,-465,-664,6957
31,-73,-82,1146,-2168,9308
-69,102,-14,878,-3485,9866
23,59,-79,-8767,-9161,-2680
36,-116,46,3554,-1726,-8608
41,21,-106,255,-1516,-9308
5,-17,75,-1771,337,-8230
94,5,47,-4373,1447,-5736
-49,33,-128,-2690,1725,-2293
-56,-83,-107,-2179,1719,875
48,78,106,-5108,923,3606
16,-80,62,-3862,26,6219
-22,-86,70,-1008,268,8201
44,74,122,1365,1196,9772
-67,80,-103,-1350,-1521,9368
72,10,-116,-5874,-6835,4174
-34,44,38,12,-4891,-3202
23,12,-115,-3134,-5950,-7424
-124,-22,94,1302,-4305,-8491
77,-126,119,-1461,-3295,-8402
-117,106,119,-2455,-3193,-7469
15,50,93,-1822,-1693,-5760
40,39,113,-2099,-1123,-3800
10,-100,124,-2400,-961,-2027
96,-5,119,-2553,-100,-1127
40,94,102,-675,-501,1951
39,115,114,-107,-1053,4820
-29,109,59,1682,-521,6545
-89,-108,-60,2634,-200,8640
72,45,-14,1292,-2412,8970
-82,-47,116,-829,-2472,4154
7,60,121,1754,-3822,4375
-87,50,-39,1452,-1728,3434
-118,-94,-94,1207,6,2126
23,-55,36,2431,921,666
-43,-104,-60,1950,1006,224
-72,114,-90,613,163,0
3,-24,-107,765,121,-399
3,-111,-120,1312,380,-398
-32,-119,-111,416,-258,106
57,-100,76,-1718,3754,-3240
-59,-93,-16,267,3372,-5179
25,10,-6,-3761,4182,-5186
103,59,123,-2649,3944,-4390
-65,-82,-80,-2491,2976,-2014
29,98,-9,-2818,1852,-733
-40,77,-25,-1846,2296,763
-102,-44,-66,1161,2027,1663
-43,-46,-71,1263,1649,4474
114,-81,-73,-163,1374,6170
-43,8,87,822,1513,8954
-43,-9,-93,3735,1180,12065
41,37,-3,-11381,-4707,5006
-33,-114,55,4698,-9051,-6128
104,102,-53,-7336,-4744,-6154
4,-45,102,-2160,-2181,-8650
-40,53,95,-2356,-223,-6915
-107,-123,-57,-4796,979,-4014
63,-62,33,-4450,1150,-1847
71,-93,-110,-3894,1219,1017
-4,-99,114,-2778,872,4376
15,-20,114,-1508,472,6073
27,-113,31,2141,1955,7697
79,37,-57,1606,3272,8244
7,113,51,6358,5121,7157
39,-28,117,-1492,1671,8032
-99,34,110,-6490,-7479,5539
108,17,-113,-252,-9137,-2596
-78,10,57,-2384,-10082,-4862
-93,127,-86,-324,-9069,-4354
-27,-106,-127,-5677,-7559,-5206
-118,-66,-91,-5649,-4398,-5265
44,106,-23,-2522,-2884,-4684
70,98,-73,-2236,-2005,-2019
-110,44,-57,-2127,-528,-158
27,-4,-93,-191,-129,910
-23,-96,-89,162,-102,2579
38,21,-99,621,290,4291
-93,-126,119,1904,1526,6317
111,10,-102,4810,2675,9328
-91,-123,-103,3200,218,8966
-10,-17,-54,-3703,-1353,7539
-69,123,42,1689,-4505,4399
-1,-44,-39,2098,1293,1826
-88,89,92,2691,4485,-228
100,-41,50,3192,2785,-263
50,-21,-102,1136,-194,1548
3,-52,-53,-1603,-1222,1143
6,-96,-88,-1643,-451,634
13,116,-111,146,327,404
107,49,0,-1024,2978,-4003
-64,-102,8,164,3660,-6777
-9,92,-35,-2780,3889,-7494
-63,16,-89,-3265,3490,-6679
-63,13,119,-3893,4165,-3845
-9,93,31,-1386,3622,-1529
123,-7,-61,-1889,2524,-626
-18,115,-109,-2722,-749,2563
67,60,49,-1158,-1750,5684
-27,-81,14,-1035,-2676,7240
-77,-32,-122,1548,-3199,10072
115,117,-72,1053,-3596,7952
24,94,69,-3590,-7277,-3224
34,50,117,442,-2945,-7689
116,47,92,-2296,-1240,-8461
63,-91,45,-2098,2320,-7222
-79,-52,36,-3239,2437,-4884
103,-29,-24,-3633,1785,-2103
96,-44,-10,-3521,981,416
-58,11,-48,-3673,188,2461
-57,-94,109,-1438,199,4852
-69,-27,111,-1560,203,7112
55,62,20,-992,168,8696
-120,107,111,3153,332,10148
-19,117,-86,-4101,-1852,9519
-68,-61,43,-1946,-5034,1248
112,-82,-33,-767,-6703,-3619
49,-94,-51,-1818,-6947,-8042
95,93,-24,511,-6557,-9027
-101,37,-18,-2059,-5351,-8845
18,-92,21,-1834,-3445,-7978
-114,46,82,-1163,-1992,-6392
-10,108,118,-82,-733,-4550
120,59,-48,236,-463,-43
21,87,-94,-1810,-695,3066
-41,55,9,-853,-117,4876
52,117,111,291,312,6855
-22,-68,6,1075,728,9544
82,109,-25,3011,-1378,10015
-5,105,-44,-365,-213,6529
65,-62,-123,1771,-1660,5078
20,93,-19,1076,376,3119
112,-107,-15,2046,1109,627
21,-7,-45,1026,1502,-14
-30,37,-66,602,986,-215
8,-75,-92,1148,92,-125
56,123,-91,470,-500,257
48,-127,-95,-293,-1,461
38,-100,-58,-978,-46,213
47,-122,-66,-412,41,-356
26,125,-8,-4100,4494,-7997
-111,11,-94,-375,4779,-7496
-121,85,-103,-3171,2331,-5698
-16,-11,49,-4622,3999,-4680
-114,-17,41,-1482,2877,-1644
65,-27,-55,-2873,3400,-709
-96,-72,-4,-2235,-749,2423
-5,106,-71,-832,-1483,4738
-87,-117,-58,-254,-1808,6453
47,-28,13,151,-2373,8858
88,-114,-113,3523,-3294,11741
89,88,70,-7333,-6725,-712
91,115,37,4180,-4409,-7385
-115,1,-128,121,-2507,-8702
37,-4,94,-1220,37,-9117
-38,104,64,-3423,1038,-6546
62,11,35,-3347,1071,-3245
2,15,49,-2136,689,-434
99,-93,-120,-2564,172,3090
-3,76,-104,-4381,-4,4717
111,-87,100,-1873,307,7222
-26,65,25,1467,1040,9063
37,-35,51,3504,2554,8789
-21,113,-95,-1915,-115,7503
-105,56,-48,-3842,-4121,7149
101,-66,60,-1534,-4528,-1211
-114,-69,60,-3232,-7700,-6850
103,-102,-112,2082,-6155,-8352
123,20,-99,-1193,-5545,-8572
-45,31,-85,-1655,-5125,-7426
-25,-108,-119,-4159,-3767,-5746
80,-81,69,-3436,-1877,-4283
-68,114,-63,-1311,-451,-1859
-81,56,33,-347,339,470
119,-120,0,-489,350,3054
-116,-24,-123,-410,68,5131
59,-89,32,1172,77,7158
-48,-38,-30,2555,-465,9668
117,58,31,1251,-1605,9136
-72,112,30,-694,-1086,5131
98,73,53,882,-1397,4788
120,20,-23,1758,1341,3362
18,-3,-27,1743,-149,3280
-61,28,-17,762,-675,3076
50,-33,-52,953,-167,855
20,69,-50,2405,513,-1057
9,19,-34,978,730,-1304
41,-50,-11,-507,298,-1151
67,57,-54,356,544,-1100
50,6,-88,-18,-130,-895
-21,28,13,2327,1422,-8916
-40,-15,-31,-3104,-278,-7648
43,110,-56,-9292,1173,-3630
-32,125,-68,-3183,3905,-2663
-54,5,7,-325,4825,-3674
-14,125,-13,-4623,1729,75
-68,-28,-45,-2129,-716,4353
30,-120,-75,183,-793,6066
100,5,96,529,-54,7244
-70,-12,-32,1229,845,9557
79,75,79,-1373,-120,9408
85,-125,-115,-1189,-8527,1846
-15,121,-55,-2526,-10056,-2960
6,-95,91,-232,-3097,-8378
-76,109,1,38,-2977,-9420
32,-118,-79,-5399,-1153,-7630
47,75,10,-3703,892,-4167
-99,-104,-7,-3772,935,-780
-41,99,40,-3960,677,2164
-96,-109,-27,-3859,1185,4924
21,45,26,-3468,1750,7836
96,49,-50,-637,2514,8910
-27,-37,75,1014,2650,8020
-120,-47,-82,1425,2295,6805
-18,-66,-12,-457,-843,5285
-86,-2,-54,-5106,-7149,2508
73,-15,-72,-1979,-9023,-1683
26,115,-52,-675,-6801,-4048
34,38,-41,449,-6541,-5149
84,-12,-68,-2150,-7625,-6364
-55,-38,62,-3188,-5886,-6479
-96,-36,111,-2436,-3901,-5530
-41,57,-99,-1244,-1974,-3094
125,113,36,-1268,-1060,-860
82,84,-118,-2041,-188,740
41,112,-96,-2292,-491,3528
78,41,12,-986,-44,5271
-38,-5,71,-702,-100,6575
92,-123,-26,2085,-1860,8033
-101,-7,57,280,35,5518
-44,104,-90,1069,-1370,5341
-93,17,4,1176,-1707,5822
-88,-91,58,-995,-1215,3270
99,-53,-99,1230,1268,2751
-41,-55,-90,1679,89,3049
51,-20,-25,477,-1387,2719
-15,80,73,-860,-1583,2556
-26,-21,-4,301,724,-148
-17,16,-62,2057,1872,-2870
110,89,122,2107,2250,-3165
-50,43,-89,-1683,1741,-4758
26,-17,-85,-1944,1281,-6018
108,27,37,-4989,2436,-4861
9,-52,-79,-3709,4902,-4654
-37,35,-24,-380,4316,-3802
54,127,50,-1860,2160,-826
-45,54,-41,-1703,2323,-63
-85,-76,-76,20,1980,1765
-41,-122,-75,324,1145,3943
-61,109,93,480,883,6221
-70,93,0,429,534,9083
1,-92,-78,2411,137,12724
104,-101,-12,-6755,-6561,829
-95,113,52,7045,-8964,-5479
-93,73,114,-2260,-5599,-7375
-93,112,-25,-662,-5000,-7525
98,-112,-55,-7440,-2398,-6501
107,11,-103,-4065,724,-3382
-61,35,-80,-2218,795,-916
-15,32,77,-2741,534,2227
-18,-116,87,-3766,1145,4396
96,-85,60,-2348,1438,6706
-7,-27,-20,229,3717,9522
-52,-100,-77,3594,5996,10122
49,-111,91,-6007,200,8996
-44,88,-110,-1023,-4452,5993
81,38,-98,-535,-5149,-549
110,58,53,-3152,-9363,-4011
119,55,-82,-1937,-8666,-7304
127,7,-45,-3076,-7438,-6964
-61,-102,36,-4597,-4380,-6644
56,-25,16,-872,-3020,-5581
-87,108,-84,-2160,-1915,-4013
71,-57,1,-1738,620,-2903
-83,33,42,355,162,294
96,-110,46,-500,236,2971
99,-106,-22,-691,245,4910
-30,92,-100,165,839,7392
-90,29,31,1142,585,9892
-111,13,-21,3286,1016,7278
41,56,-35,-314,2135,3962
-94,-21,54,966,-77,3737
-124,46,-50,-305,915,2740
50,-30,-64,664,766,2539
24,78,-63,401,313,2390
34,70,-70,164,361,2031
33,72,-78,381,69,1131
6,21,-101,1037,311,-441
38,-29,-57,617,160,-1109
82,-69,-49,-44,27,-1240
43,118,-15,-5814,4292,-8104
106,-32,2,-2165,2879,-7076
115,18,-28,-5111,3539,-6049
102,-71,-49,-3394,3631,-4337
-47,46,-21,-1103,2360,-1915
87,92,6,-1687,2364,123
-1,-27,-74,-1034,2022,1960
27,-30,-85,-2223,2251,3547
95,123,-89,-595,819,5611
-80,69,45,1126,1034,8586
-48,90,-50,789,194,11257
49,56,30,-1853,-2536,7406
-17,94,49,-163,-8259,-4476
66,90,88,-1017,-6274,-5247
3,-108,-60,-2123,-4063,-8684
124,-37,-119,-2842,-1814,-8473
-80,-39,62,-4937,828,-6260
95,46,-120,-1984,2435,-2897
70,122,-7,-3032,2293,1457
97,-99,63,-3479,3124,4334
-59,24,82,-1681,2285,7330
92,80,117,56,3247,9375
127,-23,102,1172,6819,8693
4,7,3,-6680,2229,8782
-85,-86,-70,-4267,-3839,6542
-44,-32,-63,-2432,-6033,-671
-25,86,-92,-3104,-9806,-4184
46,34,0,-1725,-8585,-7235
117,44,54,513,-7777,-6797
-34,-101,-96,-5030,-5794,-6754
-54,-86,87,-3903,-4075,-6160
-46,-128,-121,-1896,-1560,-3683
116,89,9,-1415,-872,-1328
117,-49,85,-194,416,1370
72,-57,67,-506,456,3310
-112,-32,-26,518,781,4889
-29,3,-107,769,873,5457
34,50,68,870,591,8525
-73,-81,26,1748,1312,7190
76,78,-110,-779,-1418,6474
59,46,16,689,-1339,5948
-4,23,-15,440,-731,3517
-44,-107,-123,1190,1326,1316
77,61,-31,127,193,508
12,111,-68,-1146,680,-326
14,-1,-99,-176,377,-195
25,-109,-78,1124,233,225
25,-104,-87,868,372,69
50,-91,-95,-266,270,128
69,-122,-124,-547,90,-1
-123,21,-59,5734,-1299,1274
47,72,7,-2711,2459,-5477
-113,71,79,-1259,-802,-7428
-33,-58,66,-3959,595,-7506
105,-122,-102,-4581,2800,-6809
75,-97,44,-2733,2572,-4789
64,-87,-118,-4144,2591,-2702
-21,43,-127,-1565,36,170
-73,98,-40,451,-284,2742
4,-101,-79,-2735,19,4584
-77,81,48,61,-37,7039
-68,-62,-31,927,-220,8652
19,-64,-36,6622,108,12756
82,98,66,-8810,-1894,8320
-67,-42,-3,4777,-6092,-5861
57,110,19,-4723,-5640,-5637
-92,-43,25,-4086,-3041,-9089
-8,-103,110,-3880,255,-8327
96,70,45,-3689,2242,-5021
-126,24,61,-2413,2977,-2000
-69,-90,-101,-772,2253,416
110,-31,3,-2677,2367,4161
61,-79,-115,-289,4458,6037
25,85,7,438,4833,7246
-25,-59,-16,663,6710,8427
41,7,-127,-6183,3629,8604
31,39,35,-12105,-1009,7660
-39,59,-62,-2081,-9627,-1741
-75,-60,-71,-4869,-5434,-5963
83,-99,22,-30,-4550,-7474
82,-83,66,810,-4531,-7795
-113,71,104,-776,-4956,-7794
-31,81,-104,-2683,-4181,-7313
-124,124,-114,-2249,-3059,-5587
34,61,-106,-3071,-2002,-3788
-66,35,-33,-1338,-614,478
-2,-45,8,-768,-401,1606
-84,-72,28,-800,-221,3123
26,-114,-10,190,430,4906
-59,7,122,1267,1205,6109
109,61,7,2102,351,8575
-25,-85,-18,2150,-158,8038
12,-29,14,-564,68,6567
-29,-12,-44,-830,-342,2464
-45,105,-7,1473,464,3805
-52,110,99,1653,-700,3280
-110,68,-21,1569,1595,1998
-10,5,-55,1156,738,823
-33,-91,-98,-441,281,216
5,43,-111,-29,-42,-558
-79,-25,-117,-1542,3982,-6638
-8,-114,116,-2684,2447,-5683
-30,-111,-27,-3619,3196,-4497
-35,28,-75,-2066,2487,-2211
80,-9,-15,-1646,1830,357
42,90,-68,-647,2864,1274
25,39,122,64,1201,4637
-63,52,-109,796,1330,5894
-26,58,74,284,-2632,10680
-18,14,-123,-1847,-3027,5752
-67,56,-110,-2723,-6935,-3131
113,50,102,-1066,-3353,-6887
-76,46,103,-1667,-1987,-7576
123,22,72,-796,74,-6879
93,-45,41,-3863,1741,-4664
-125,104,21,-2106,2659,-2094
87,97,8,-504,2749,1786
113,-56,-110,-1932,2555,4131
-34,56,74,-2274,3099,5692
-9,-99,53,-1708,3373,7813
-109,-83,106,1659,5106,8973
-105,-35,122,-3254,741,6471
-32,-97,97,-3890,-4810,4989
76,-107,-119,-2342,-4316,-629
52,109,-9,-440,-7026,-3623
59,100,44,-1080,-6918,-5854
-110,-61,-93,1842,-4799,-6145
-87,12,5,-3764,-9637,-6905
-36,-46,-52,-2407,-5019,-5754
22,34,52,-1105,-1827,-3123
-100,47,72,-1865,-1319,-1671
-39,-62,98,-1787,-919,-231
36,-114,116,-865,-231,1845
28,73,71,-832,350,3841
-101,31,-97,694,1411,5312
4,35,23,1729,2117,7176
62,1,-27,184,851,6370
-37,83,-6,183,-208,2514
-74,-105,82,556,1256,2580
9,-39,93,-3227,-13,3197
-85,18,80,-1878,-591,2441
-61,57,78,1149,899,2091
-44,-109,-50,3009,2154,1685
-106,-95,-100,1911,1003,771
-52,-121,-78,-40,-569,284
