AccX,AccY,AccZ,GyroX,GyroY,GyroZ
-28,-67,-54,2970,416,-7492
17,-19,56,-2571,1459,-6541
36,-36,39,-1707,3790,-4399
-51,-78,48,1047,4062,-3011
-7,120,-21,301,7421,-516
-121,-48,46,-2671,8724,2532
-111,99,114,-2658,2994,8679
96,57,52,-7448,-40,17384
-49,-40,27,-2375,-12207,-5862
4,98,-72,-7115,-17976,-5305
-14,33,120,-2180,6032,-7150
34,68,-107,2222,3938,-8671
43,-99,-95,-3609,10858,-4163
-21,-121,-128,-3478,12017,294
127,39,-4,-4163,5212,8200
37,-62,127,6276,5844,14194
-107,115,-49,-826,-1974,2998
-37,31,5,-9453,-4112,-1062
-95,-5,-10,2306,-10567,-2559
64,25,-38,-462,-11415,-1733
-48,-38,58,-2834,-14712,90
14,-58,107,-7021,-11436,1402
-23,119,105,-498,-3251,3880
125,15,40,-1344,1276,-181
-25,-42,72,-4247,1124,-3318
99,-40,-114,-3247,-1698,-2266
-49,-75,10,-61,-2766,465
106,-88,26,8097,-1198,1902
49,100,-94,10882,3520,3247
76,-107,59,-761,11401,6717
-79,-48,121,3679,3259,8026
80,66,-78,2650,1444,7240
-42,-43,-8,1765,-101,6852
-6,-11,110,484,-1048,5098
26,-40,99,-2464,1833,1433
-111,7,75,1166,-990,-4438
-95,89,98,1947,-532,-5554
-20,78,111,2832,-186,-2036
-50,48,-115,2212,-31,225
-63,111,-93,-540,-64,864
18,-81,109,-2065,39,948
73,-25,114,-4012,192,165
-83,83,-127,-13724,1429,1967
83,5,-66,2020,1608,-2278
42,-76,-119,1390,228,-2454
0,-59,112,4404,-1144,-458
-11,-74,41,5629,129,-1596
97,22,-121,2076,1264,-37
103,-111,72,4831,327,219
122,126,65,4569,312,-203
104,-45,-58,2067,3812,-7291
89,-110,31,3653,2348,-9184
80,105,68,3112,1312,-10823
54,-5,123,682,3986,-10177
-82,111,7,459,5260,-7823
17,-53,73,745,9595,-5649
38,79,-121,-767,11143,-2214
42,109,49,-9060,16990,5570
-85,-70,96,-11735,-357,14295
-122,61,-115,-9297,-12879,3664
34,4,-91,-10937,-9760,-79
16,48,-70,-5973,-3324,-11616
-82,93,-74,-3080,1278,-7051
-56,77,-101,2039,9962,-6913
-94,94,87,-1447,9287,-2444
-11,-123,-4,1161,9008,1104
-41,48,79,5306,12566,4774
-124,78,56,-892,11844,253
-32,123,-8,-13202,-1585,4881
-112,-81,102,-1685,-8761,-1033
126,-31,8,-1149,-9969,4151
74,-87,-91,-2324,-10451,4738
-19,-104,104,-5776,-10402,2592
-85,-104,9,-8770,-973,1992
123,90,2,-4917,-1710,660
87,-109,-24,-3945,-4246,-707
11,25,-41,-2316,-2311,-329
5,-32,55,-1432,-1100,-905
-94,17,-62,-705,-1905,587
-91,62,3,183,-463,2237
14,79,-85,2454,325,2679
-41,-21,21,3650,1049,4138
-86,-88,-95,1838,1245,4972
75,-119,11,2185,1576,5077
-9,5,-125,5595,2239,5137
-107,39,89,9309,1034,4302
60,-56,-75,5760,-2271,4609
-107,102,-14,-3100,-1421,3927
-6,-2,107,-5611,-284,461
-7,27,62,-157,970,-1447
-10,-21,108,3590,733,-1180
-89,91,-38,2688,-1023,-601
-55,110,-41,793,-729,-371
3,-127,-66,-911,542,-1013
98,78,-116,-994,849,-1698
-118,46,125,-763,279,-1882
-54,71,15,-10033,-260,849
-90,56,55,-4597,1874,2063
69,-122,8,989,1030,-2217
90,-39,75,2611,-1222,-1256
80,87,14,7771,-350,-2546
54,-17,48,2286,-554,-549
100,-26,84,-1018,576,514
94,-106,33,-329,601,356
105,-76,51,24,-439,546
124,-35,119,477,-881,369
-3,-4,5,1734,1481,-777
124,-30,-119,977,-977,255
-116,-24,101,-143,-324,106
-118,-12,67,-913,262,212
-125,-42,35,-391,281,-42
-115,-51,47,671,-137,-261
-109,-20,77,156,-203,-331
-64,16,125,-515,316,-85
-79,-26,112,594,-72,-156
-86,-15,97,531,-72,10
-98,3,91,316,-61,82
-90,26,75,101,31,103
-83,29,64,95,-217,90
-73,28,73,99,-98,-10
-65,8,94,168,113,-141
-55,22,107,-563,434,-111
14,-42,-101,-3314,-145,1153
94,-57,34,-1396,-1163,-18
-72,-78,51,4156,1175,-3576
63,28,-42,4176,1877,-5043
61,11,-124,2983,1632,-5769
-72,-34,61,3730,3395,-8598
10,-62,105,5947,2965,-10839
-52,115,-57,594,3555,-8555
-95,-110,-98,-4843,11512,-1943
21,10,-62,1400,11434,-923
-103,-92,87,-5184,10894,7234
-96,83,67,-12250,692,13032
-87,-99,-15,-4137,-14667,2976
-33,52,-36,-12607,-10147,1580
21,-44,-63,-3346,-645,-10961
-57,117,73,3132,-3330,-7635
123,-96,23,-7827,2605,-5114
-45,123,72,-124,7667,-4956
-17,-46,-65,2686,7270,-3809
-47,-84,87,-1104,10757,325
101,-70,-17,1326,14096,2859
90,-61,-19,1127,4768,1400
124,12,3,-16447,8127,12611
-120,-24,-115,-4863,-2211,-8336
60,114,113,-4800,-14451,-2345
94,120,-2,-411,-12301,-1657
-52,-11,-117,2037,-4299,-1011
97,-119,-119,-3450,-11783,2878
-31,59,36,-10918,-10531,3423
47,36,-2,-1132,605,-239
61,-105,-121,-3692,787,-1159
8,19,22,-4043,-1776,-369
-48,22,-48,-2014,-1862,138
73,116,-75,43,-3787,1526
-127,-119,112,2095,-2460,2572
34,70,66,8132,1670,3595
-108,-8,-41,618,5877,5654
39,73,-15,2404,1102,5995
73,-11,74,3551,1401,5170
-89,-10,-27,4473,1202,4175
-95,74,-23,4735,248,3826
-98,125,51,4624,-910,3234
87,-56,-52,2696,-2728,3543
110,37,-62,-1159,-623,451
-76,71,-107,-1057,455,-2932
-10,-62,-95,1168,344,-2709
-3,-47,-37,1564,-909,-724
-4,37,12,-348,-1353,843
-70,-93,-75,-5012,2485,739
81,48,-104,-3649,109,765
12,15,50,629,-1046,86
27,42,93,1613,-1087,-1846
57,-83,86,-2318,295,117
26,-115,-10,-1384,942,412
15,-85,16,329,-177,4
25,-79,36,1643,-448,-580
63,-52,58,1469,-106,-446
-105,-27,-116,-436,1450,-7
104,-55,-114,156,58,-437
119,-83,-115,914,-296,-86
107,-57,117,619,-194,-244
118,-49,92,646,-85,-163
114,-37,65,711,-46,-155
117,-33,64,478,92,-217
-126,-38,73,362,218,-164
-115,-42,87,359,147,-113
-109,-40,102,208,68,-107
-103,-47,107,268,-28,-89
-98,-54,94,524,-73,-130
-104,-55,74,673,-21,-168
-107,-48,69,636,49,-184
-97,-41,74,517,35,-104
-90,-33,80,378,-14,-76
-76,-30,86,311,-2,-90
-83,-39,81,379,70,-96
-91,-51,73,525,60,-239
-72,-47,82,552,40,-116
-70,-29,99,283,-125,-100
45,120,81,2632,927,-4985
80,115,56,1623,997,-7197
-62,71,96,5318,-934,-9801
69,-124,2,2207,1918,-10127
66,-111,83,2694,3723,-8271
-43,106,-100,-1736,7211,-5230
-96,-54,25,3745,9726,-3348
9,35,49,-3253,11890,958
-28,97,108,-14496,10879,9575
-13,56,-74,-4015,-10963,6061
15,41,123,-11065,-9255,4338
-49,84,88,-9078,-5120,-6211
-79,-3,24,-2325,-1762,-7944
-30,-17,-113,-471,1029,-8526
-91,-124,-85,-544,6342,-5763
-125,-88,-20,-127,7013,-4562
20,-91,-14,-2639,9020,-1051
62,-91,-37,-3089,8696,5139
-66,-65,-2,4840,13251,8629
49,62,28,-5487,3341,7063
86,68,8,-9966,-1252,-8179
60,26,44,-1321,-12812,-941
118,-113,34,3146,-10083,1733
29,25,-2,-4892,-10750,858
-35,-37,-107,-5627,-11824,1854
-45,7,-102,-5284,-14335,8066
-127,72,17,-2155,1724,1507
-9,96,-68,-7085,2426,179
44,-1,-114,-1928,-2161,-188
-41,-64,-34,-873,-1349,-571
-69,-24,82,677,-1140,745
-41,-28,122,2678,-371,2055
51,-59,-41,6349,2191,2455
123,11,-42,6029,6795,3696
127,29,14,2295,6966,5557
-25,-24,-81,-87,2545,5872
1,-56,50,3864,-84,4041
-35,43,-41,5598,-61,2368
51,-30,122,2675,-1524,1198
-49,-98,-87,-550,-660,389
-80,38,125,319,237,30
69,-50,-90,1764,-289,-219
65,-55,-36,2252,-797,-756
124,37,7,196,-423,260
-65,7,117,-24,962,-655
-75,85,-1,-1149,-559,-168
-112,23,-24,-1741,-1114,-16
102,8,-114,-1082,-767,-309
79,-22,92,293,-83,-720
105,10,94,56,490,-51
71,98,37,1881,-1420,-6752
30,-36,-89,5903,31,-8796
97,-9,16,1131,-1716,-6992
-122,42,60,68,4031,-6702
85,-22,-59,4873,3491,-6043
52,23,-90,567,4816,-5636
-89,40,77,974,6762,-3250
73,-113,121,-3609,8584,2007
-105,-100,-114,-3849,13058,7955
118,2,14,-8936,-1850,8499
112,-114,79,-7052,-7339,3498
64,-38,-82,-3982,-9201,-434
24,-67,-15,-6967,-6076,-7312
91,47,44,-4271,1043,-6026
22,109,-119,209,6680,-5612
32,32,-21,96,5472,-4090
-55,-103,-71,-667,7134,-2108
64,112,-93,-414,6757,1328
-14,40,-4,363,10017,5275
69,-25,29,1966,9575,7947
9,-58,59,-3038,-217,1675
-77,-81,-7,-8217,-8486,-3942
100,53,-95,2768,-9811,4100
95,0,97,-2737,-7372,5384
-104,54,78,-7148,-13683,6998
-36,-15,124,-6251,-10715,2460
48,126,12,-3693,-1946,-977
24,-44,-83,-1594,-4260,-280
-68,-124,-100,-1232,-6244,1175
-4,119,-102,-230,-2302,814
-48,-37,-42,273,-1613,1297
106,52,-47,699,-1449,2728
-45,21,-34,528,3,3890
-38,77,-112,4592,5884,1913
-25,-85,23,6368,8251,2520
-120,-100,-6,5092,6825,1835
-57,70,33,2906,5973,1932
64,-28,-19,4834,-1104,-2945
3,-10,122,4527,1642,-1604
101,47,116,1434,1734,-546
-95,-74,57,-1184,841,704
122,83,18,-1156,495,1710
-57,54,-45,-478,1224,3260
46,-52,121,-2,1613,4995
9,-26,-89,1269,-567,3846
69,116,-53,-1276,-250,2628
11,-109,91,-2218,856,1948
120,-125,116,-1098,-1102,284
-72,-22,-128,5977,366,-1941
-124,-122,37,1930,-389,-1783
54,-5,-26,3358,-1384,-6081
-93,17,-103,3317,179,-8245
119,-97,-69,1806,-825,-7262
82,-6,-33,-185,2094,-7745
-114,26,-41,2741,2569,-7185
40,83,-123,2397,571,-6878
-126,50,81,-2723,7428,-877
116,-36,5,-1989,9102,2619
-16,69,5,-1100,13893,4974
-41,-114,-119,-3017,6958,9506
126,98,125,-7046,-4735,2877
40,-30,-97,-5885,-4991,1081
74,-81,1,-5148,-10638,-4494
-11,88,-12,-6344,-7815,-4642
35,-14,31,-3550,-4266,-8197
-123,48,81,-699,1693,-4732
-88,5,-6,-2814,3530,-2378
120,6,119,-2808,6994,-788
-89,62,-75,-851,8566,1988
19,-128,77,-229,11224,4818
86,-109,90,3487,10082,3640
99,121,-8,-2100,-508,2821
-68,-105,62,-5575,-4936,769
32,-17,-25,6143,-7576,4589
68,56,-38,-6864,-10771,6397
-24,-1,10,-1943,-11618,3360
58,87,37,-1831,-5154,1475
60,-91,-121,-7181,-5612,1352
22,104,104,-30,-3958,642
57,-17,-49,-2597,-2810,499
1,-11,39,-648,-2637,-111
5,-31,-18,-1343,-505,1123
85,104,-50,-2809,1083,1360
41,-113,-125,1024,3159,2698
-52,-27,-68,2698,5627,4483
-33,101,-71,3734,2072,2840
51,25,56,3675,2644,2144
24,-46,-71,838,2628,1918
57,-94,55,409,1648,2085
-71,-40,61,2542,1728,2441
-9,-109,13,2662,1285,3034
20,7,9,1125,717,2247
-8,40,94,434,444,1508
-81,-6,51,1120,659,429
-89,-48,60,1120,562,-27
-86,-101,39,722,121,-36
-75,57,26,183,40,-555
-69,0,15,247,-351,-184
-61,-22,12,156,-151,-446
-56,-22,-1,418,-192,156
-102,-88,-127,7158,-509,-7183
-74,0,-79,6983,-2813,-7707
-79,-42,-2,3275,-2376,-7734
117,-100,-111,-587,1870,-6656
60,45,31,353,8085,-5284
95,14,0,-1078,8627,-1380
106,-11,-5,-4585,14949,2710
120,-19,-51,-6667,5580,9100
-42,105,74,-3167,-3224,3903
-83,127,-76,-6349,-10570,3579
-63,125,109,-10523,-10811,-2146
124,29,-128,-8848,-4841,-5696
118,126,-83,-1466,2236,-6061
-99,27,60,5069,4212,-6473
49,-74,11,-1608,7780,-3726
-110,109,35,-450,9082,-1840
18,-95,125,8627,12419,-206
124,-121,-115,-763,9647,931
125,-103,-55,-13338,2759,266
-55,-106,70,1829,-8231,3334
-53,80,-104,169,-3142,3967
-9,82,-61,-792,-5902,4449
126,-80,-8,-1959,-6058,5975
-18,-47,-90,-5139,-6997,9577
116,-62,-29,-7858,-9805,7069
14,-55,-17,-6785,-7562,1483
-89,30,67,-1202,-6042,1560
43,-56,85,-3460,-5232,755
-10,5,56,-2282,213,213
45,-72,-76,-1709,1980,-1098
62,33,78,4987,2177,-1382
-112,-95,-106,5038,6791,-180
40,16,104,3642,11820,973
-93,-102,84,-2147,11444,4541
117,72,-65,1555,7037,4226
11,116,-43,2076,350,3857
-56,-86,-116,-2475,3514,3236
4,25,13,2327,654,3486
98,102,-21,3353,-276,3726
-54,105,-14,-3708,2517,1928
110,109,55,1321,-1019,-371
114,78,-12,166,-884,-786
62,-43,68,-285,-652,-229
64,-57,66,-538,-225,117
6,-63,-5,-580,-1399,217
44,3,-61,-1820,-556,-936
-88,39,-128,-550,2313,-1377
-112,33,-66,224,666,-578
118,19,-70,940,-573,-83
-126,13,-81,1243,-636,397
23,29,-29,4151,-1000,-7865
41,-70,51,3758,-3629,-9334
95,-81,58,-177,-3341,-9644
111,-56,101,-558,5505,-3038
5,83,114,-1493,11989,-2288
-17,41,66,916,9678,1405
-88,78,92,-1845,14768,4723
108,-110,-5,-3891,5338,6692
81,-23,12,-344,-4000,5695
127,-64,88,-6406,-6913,4440
-10,-7,33,-4342,-8756,298
-48,-109,33,-11659,-14221,-3684
-124,99,44,-10225,-816,-6795
82,1,86,974,4095,-4228
83,-74,59,2476,6835,-1885
0,-14,-107,-2183,11719,300
103,-51,2,-346,12910,1300
52,122,69,744,10332,2339
-19,108,-32,-1592,7167,8812
41,0,-90,-5480,-5497,-3396
20,12,-89,-178,-9594,4660
-22,-28,-31,374,-8626,6357
-91,5,-52,-9979,-11328,2551
60,-74,-104,-3319,-10295,543
-110,-110,37,-416,-4191,195
85,-5,-117,-2217,-3698,1369
52,-23,107,-1961,-3691,745
-13,100,66,-1714,-2279,1110
-111,92,-53,502,-1984,2079
-34,74,-103,-232,1268,2046
-107,40,-70,97,533,3115
110,116,88,1367,4026,4009
123,-40,-71,4739,6552,4506
-66,-111,68,2350,5405,4732
-28,-74,107,3251,2139,2935
71,-78,58,3853,3545,2975
-106,-30,-99,2390,1940,2358
109,-87,-60,1399,1598,2530
-12,98,53,621,-173,2148
-43,127,-53,-1457,-1120,2369
-109,-87,-63,-1771,-1160,1852
74,-96,-85,-275,-552,318
59,124,-22,600,-1009,-971
82,98,13,278,-936,-1528
103,31,1,721,-206,-1594
122,22,-15,142,282,-1259
119,17,-38,-679,199,-939
109,-11,-109,-222,71,-617
103,-32,-127,1423,60,-891
120,-2,-114,1505,-35,-599
-44,115,80,2545,469,-10159
81,-97,101,-38,-708,-9498
48,-92,1,805,818,-10154
-71,-85,-110,3978,568,-8630
64,25,-27,-5855,8420,-3226
-127,-11,-68,-2491,8605,1621
-84,-81,-123,-3008,11892,4759
35,-118,-111,-3727,4338,10256
17,94,52,615,-5103,8693
122,67,89,-15600,-10128,7747
97,-75,94,-2053,-4723,-8041
-59,-13,-72,-1299,-6573,-8503
-51,120,79,-2662,2230,-6092
-51,-52,41,2377,2232,-6637
-122,-115,8,-1386,4875,-1740
-109,90,4,-1524,7987,-130
6,-89,-36,314,10866,1880
-127,23,47,-2204,8395,1642
-2,65,-120,-410,4461,8668
51,58,-50,-2676,-3932,-144
30,4,118,-963,-9388,2766
-85,-104,123,917,-11495,2787
-3,-85,15,-1375,-9168,2962
87,13,61,-1433,-8759,4659
-21,-98,79,-8303,-7618,4574
11,14,-10,-4172,-3508,552
-26,71,29,-482,-3544,73
6,9,109,-562,-794,-403
-114,119,-45,-672,-1455,823
41,14,30,-1250,-936,1412
-10,9,51,1130,1164,2294
-4,-124,-27,3060,2839,2150
-128,102,36,3134,5544,1308
-67,-77,102,2292,4110,2047
62,-70,-17,383,3196,2341
-91,13,53,1059,1785,2969
-18,-76,59,2189,1876,2966
127,-38,67,1281,1724,2036
-109,21,-128,3540,780,1977
-63,73,-49,190,1359,1942
-59,-86,-67,2085,742,2478
-72,72,-39,2946,179,1940
71,-76,35,1691,290,2535
-41,114,74,1063,-22,647
-68,35,80,602,352,286
-98,31,56,-298,288,450
112,-16,41,-168,-330,18
109,-69,1,634,-287,-269
125,-56,4,569,-44,-332
119,-54,-6,245,-24,-343
-94,-114,-29,3128,304,-4990
-119,-108,-97,2380,637,-5796
-99,74,-61,3824,-2379,-8673
-56,-114,116,1853,-4885,-7862
-35,-37,106,-129,-771,-7744
-47,51,-75,3322,2319,-3683
-98,-54,106,-5077,11582,-957
-107,9,72,1202,10511,1299
20,86,-55,-3289,12723,3444
113,98,21,-4475,-1433,8290
-21,-40,55,-9242,-8473,6180
-22,-25,120,-2245,-6480,429
-75,99,33,-3439,-6449,-5397
6,104,50,1107,-5476,-5938
-33,-104,93,-4218,648,-5064
-40,-76,-64,304,2806,-5154
-112,48,-59,1581,3566,-4691
7,-103,87,194,5903,-2558
-2,-106,-28,-54,8594,36
61,64,-118,-229,9683,1153
11,35,100,-4843,4721,8215
-24,-80,103,-2614,97,566
-117,-71,-114,-2414,-6801,4129
77,-77,-92,-434,-10186,2535
-88,79,-3,-2435,-10727,871
41,47,41,-317,-8931,1542
60,80,19,-5904,-5172,340
117,124,-57,-3518,-4010,2189
103,-94,-2,-1475,-2144,1898
121,20,32,-2667,-1457,548
98,12,-44,806,-293,730
40,-49,101,369,-215,1894
83,106,64,340,1701,2975
26,90,94,3389,4440,3614
-123,126,-65,3239,6168,5373
1,-112,97,-798,3549,4054
-74,-117,92,3659,1897,3931
125,10,-20,2285,1105,2245
113,112,-4,1789,1011,1475
48,-104,35,4141,-129,1509
-35,108,-115,2995,-632,907
-51,101,-24,535,271,616
-72,37,-41,-84,845,581
-93,-24,-37,255,428,484
-86,-24,-7,-95,-96,192
-59,-1,-9,-458,-285,320
-54,9,-17,-365,-221,113
-82,-16,-37,280,-149,-526
-78,-34,-32,930,-244,-709
-75,-38,-35,1090,-146,-544
-66,69,-20,4257,1774,-9086
-114,26,-76,2216,-3115,-7994
-100,-29,-99,2852,-4021,-8223
25,-38,103,26,1917,-5970
-87,-64,101,8,6911,-3269
105,94,-53,-4602,11766,-839
75,-116,-96,-4969,9330,4452
-48,2,33,1657,5282,8559
23,-28,78,-3599,-2859,7588
-64,63,80,-5686,-7523,4029
-76,-14,76,-1867,-11434,460
-9,-5,19,-250,-4687,-6956
25,-3,59,-3399,-5001,-7456
-67,1,-87,-4877,2876,-5807
112,-128,95,555,4805,-2269
-23,14,110,-1670,7822,206
119,65,-23,-1156,9467,2969
52,17,77,-3181,8377,6100
56,-15,-38,-215,-1349,7033
86,-39,42,-1817,-3847,2029
-106,14,-106,-3680,-9641,1833
-124,123,-83,-1553,-11254,293
109,45,-71,-2836,-11449,316
11,-71,-81,-2312,-9487,382
-31,-34,-22,-2431,-3814,1427
117,33,109,-1750,-1976,789
-124,49,-85,96,-2096,240
-73,-17,-120,-1526,-242,983
101,63,-43,-1238,-197,2554
86,-94,-36,3688,1049,2790
22,-38,38,6864,4618,4168
14,-121,-39,-1149,9597,6677
73,-7,49,54,1895,6148
86,-121,80,7895,346,2522
97,104,127,2186,1699,1762
9,82,-42,396,1711,1813
-33,-50,-29,1594,831,1852
-67,-80,46,1401,-579,1898
-72,-63,-117,10,-1476,1775
-110,-30,-109,-1004,-1445,1467
75,-59,-121,-635,-420,95
64,122,-111,1428,44,-900
63,106,-81,1836,-192,-1182
73,100,-73,1201,-198,-1157
92,83,-79,592,101,-1000
96,61,-96,116,225,-863
104,44,-111,171,122,-785
120,33,-124,419,70,-721
-123,42,126,378,29,-550
-118,63,125,-150,60,-292
-93,-64,-9,4703,-338,-6087
-50,4,-95,1362,-462,-8503
45,-89,-57,4873,-3820,-9781
6,21,-53,-1698,-1006,-8685
-101,106,91,2201,2634,-5327
-66,-32,35,2760,6999,-4127
21,-92,45,310,8887,-1096
122,-97,-14,-4175,11969,2874
-76,64,4,-4995,3393,10129
-21,50,-46,-14998,-11881,13426
-25,-14,41,-6970,-6538,-6010
-44,-60,87,546,-3787,-6012
61,1,-92,-2529,347,-5780
-88,1,-24,85,3440,-7168
65,-88,-57,2391,5797,-4409
-69,121,-102,-4227,7659,-1928
88,-92,127,-3071,9749,2741
98,100,51,-1697,8367,7797
-64,105,54,959,4704,8082
-27,-105,-40,1066,-5165,1558
-44,-87,82,-4457,-9784,785
39,118,-76,-845,-11951,1966
-93,-82,111,-3562,-10274,1584
-44,-89,61,-1898,-8962,2241
62,7,2,-2783,-4806,-57
-26,121,-108,-3284,-4323,2482
-37,-19,-37,-537,-4790,1393
-1,39,-103,-1613,-1397,1211
-66,63,58,56,-1061,825
-83,-117,1,1082,831,1038
-117,-118,-82,3295,2186,1971
85,-41,115,5019,6230,2258
-89,-86,70,2940,8996,4235
61,0,-71,4123,5045,4876
-57,46,61,3216,3447,3233
-96,79,104,2675,2610,2715
122,-10,-15,1767,1237,3193
1,115,62,1805,-185,1699
20,77,-122,23,210,1391
-56,57,115,-248,87,1012
115,1,-70,116,-1287,285
118,7,-34,350,-1922,165
119,57,-50,-11,-749,707
53,108,-62,-953,49,345
50,98,-83,-1009,162,-426
45,35,-127,407,315,-1251
76,-18,121,1943,220,-1811
96,-37,119,2183,159,-1779
115,-66,127,1857,76,-1495
113,-70,-110,1101,-102,-812
52,-127,-125,1366,-1350,-6665
-15,77,100,1555,-2164,-10921
-23,-53,-79,1673,-672,-9386
97,84,-37,5509,-77,-10381
-25,-41,29,1312,3910,-7027
-38,-71,68,-4338,9264,-1561
-59,49,98,-4443,13459,2542
115,13,56,-5803,12970,6740
22,31,31,-4579,-518,10034
72,-124,-56,-9528,-8330,1678
-108,-7,-21,-9979,-10055,-1644
-90,-19,-97,-5285,-5103,-8703
-16,-38,81,-1573,-1641,-5551
-45,111,-116,1042,5383,-7391
118,-59,19,2010,2659,-5056
-32,-127,112,129,5588,-2112
-47,-103,96,-433,11243,-57
44,-104,124,-2203,14667,868
-127,10,-60,4611,2749,5726
-64,-39,86,-5926,4439,1477
-103,125,-59,-3316,-7341,976
44,95,-113,1717,-7762,7597
-22,46,-74,-4677,-9061,6794
-17,36,-1,-9169,-10280,1352
-66,-46,61,-4823,-5510,-834
-33,107,126,-615,-4207,367
-79,14,-60,-1647,-3218,1161
0,-91,51,-1868,-1651,1229
-27,-45,-49,-967,148,517
95,36,51,-336,-1253,1766
-40,122,-62,661,990,3010
16,-106,116,2636,1713,4497
-3,64,112,4491,4380,5878
-83,65,-45,3167,6324,5846
31,57,93,2824,2884,4505
-37,48,-87,5636,739,2494
-66,53,-23,1145,1314,2524
21,-75,74,-126,275,2225
-34,97,123,574,-551,2093
-80,101,-77,1151,-1017,1433
125,77,-122,1475,-17,449
65,92,-58,182,-169,-473
40,47,-46,-79,-419,-927
73,35,-51,-137,-359,-706
79,44,-43,-899,-326,-826
102,-11,-77,87,565,-1427
-114,-17,-62,521,643,-1637
-75,53,-67,-1637,-140,34
116,-28,124,340,-298,-1627
-104,-31,117,1869,-239,-1614
79,122,123,3795,23,-8178
-84,121,112,3800,-2853,-9561
-87,56,7,1654,-3391,-9682
-49,-27,-34,1874,2126,-4718
109,101,-23,532,5990,-3682
-126,-11,-87,-1283,10451,-2668
-123,-80,-70,-10875,12009,6252
-126,110,-2,-4269,4609,14182
-48,101,-57,776,-9332,466
-99,49,-21,-6663,-8868,1546
-126,-5,27,209,-8849,-2344
-75,38,-71,-3195,-6669,-7692
-73,-20,106,-8955,-1964,-6507
-14,117,-89,-3348,4639,-3034
56,45,-95,2198,5161,-3768
4,-66,120,-5412,8972,4873
69,105,-45,-921,8197,7190
23,-118,103,3194,14321,9663
88,18,114,10830,9054,3994
107,115,33,-10426,-7868,-1953
124,-53,-79,-5778,-5768,1656
-65,20,98,6148,-10585,7767
126,127,120,-8285,-10889,4582
-6,-85,64,-10542,-10476,-2274
-57,63,82,-2920,-9266,-2520
-105,89,-24,115,-5436,-662
-24,-83,-60,1006,-2779,1918
21,116,118,-1562,-3103,1265
-105,-119,124,-704,-1620,1534
-90,-11,-106,-270,560,3025
-36,-46,100,2632,2344,3700
-41,69,28,5317,4672,5768
-92,-124,55,-1730,5306,7443
-33,-15,112,2894,742,6510
60,126,123,4856,-153,3576
53,75,17,2107,761,3167
-5,-40,91,654,-159,3364
-87,28,76,2512,-811,2414
-87,-65,100,3664,-1434,1815
98,-31,-69,2367,-1977,1218
23,1,-26,108,-1206,370
-57,126,-63,-21,246,-1745
-16,21,-66,1385,541,-2264
1,-23,-70,1746,36,-2007
39,-3,-48,951,-623,-927
40,28,-39,-481,-773,-107
40,27,-82,-1468,-279,-265
56,12,-118,-838,70,-410
46,24,118,-490,-91,-542
47,50,100,-630,-220,-492
18,23,-123,1002,1185,-8493
-2,-85,95,2243,-443,-8967
119,-103,16,1597,-2972,-8551
107,-92,57,810,-418,-8591
2,-58,-91,747,2954,-6145
22,6,11,-4339,9938,-1991
-108,-102,117,-863,10245,671
-18,-99,95,-2731,14106,4497
87,101,29,-9249,9640,10447
23,87,73,-4064,-9592,4302
45,-114,86,-6270,-7140,4627
-106,91,28,-3902,-8539,-4327
-44,-39,100,-7055,-9950,-5838
79,-18,94,-3231,-3482,-7813
87,66,-125,-1118,4638,-3984
-26,-81,4,-2708,3249,-3636
-40,-65,25,-279,5652,-1281
-13,-15,-99,280,9136,379
-51,-53,-99,2195,14044,1815
-69,126,-95,1104,9382,3765
-77,-75,-104,-7722,8178,3094
-105,-19,-123,-4989,-10615,-773
-98,-15,34,825,-9030,8401
-74,-106,-34,-7005,-10468,4905
80,-65,125,-7246,-9891,916
72,87,-128,-1141,-6481,1039
90,10,-42,-4244,-2303,-125
7,-47,20,-2127,-2141,326
-15,-11,65,-639,-2036,96
-50,1,87,1103,-1078,1253
-77,56,87,2370,313,2210
-10,-53,-96,1154,2605,2498
-126,-6,-35,2301,4093,3162
30,-39,38,2585,7524,4363
51,103,-25,5911,7035,5407
77,96,-114,16653,3001,324
-33,-91,-92,-2905,4952,217
113,97,2,-8392,2420,676
-17,-1,-58,-3518,-177,2117
101,19,66,-1407,-1824,925
-119,88,55,247,-764,729
-126,99,103,1802,570,519
41,-109,-113,-313,719,-63
31,100,-116,339,-264,-841
74,73,-92,123,-612,-968
102,62,-90,-265,-398,-1159
-113,31,-99,-354,123,-1226
-111,7,-112,170,442,-1049
-114,40,-119,-1000,-39,-395
124,59,78,-2173,-159,444
-67,-41,77,3445,-597,-7485
5,90,-65,4399,-1416,-8062
-37,65,-27,1874,1332,-6080
-68,-104,-51,1036,3868,-4468
-20,34,-38,1560,4493,-4252
-39,-56,-56,3169,6350,-4426
-82,57,53,2773,7123,-2871
15,-48,-86,-947,9153,89
-56,-89,54,-9032,13422,6511
56,72,86,-16185,2661,6108
21,69,-54,3405,-12809,-4553
76,-33,73,-2339,-13907,597
2,-90,44,-10920,-5340,-6919
107,-20,48,-5297,-1879,-6112
123,74,-25,4159,-51,-6063
-117,33,74,3691,3106,-5396
-105,-3,80,1862,6174,-5235
-15,-125,117,4449,6296,-3198
16,-108,111,4550,10512,-2975
-18,-111,24,-6561,18004,-1066
-63,37,-41,-11128,-4152,5782
-47,-118,-78,4689,-10403,9389
80,74,51,-10725,-5548,8542
71,104,-2,-10135,-4751,2460
-101,-13,120,-12271,-7489,-4349
113,22,-77,-4662,-1881,-706
-63,-28,-44,-779,-2241,-517
-22,-18,120,-872,-1680,361
-58,-90,110,1742,-908,454
5,-11,-57,2400,-981,3109
110,-17,-104,-176,525,3484
-62,12,83,997,477,4067
65,66,-100,4275,1169,6188
59,103,-64,6815,4573,5485
76,-95,47,7137,2277,4256
43,52,13,-2514,208,1697
-100,85,-51,2656,1091,1408
-41,-62,119,2914,88,-104
-61,40,-93,2697,687,897
-117,19,-47,2140,48,768
-128,14,-9,871,-106,809
103,-11,8,1307,-951,225
113,-35,42,990,-772,-549
121,-94,52,1614,131,-1029
107,-62,73,387,212,-629
115,-56,67,-803,-297,-561
-104,-74,16,-1447,-204,-583
-80,-79,-32,-1220,15,-480
-93,-68,-87,-490,143,-382
-111,-64,-106,306,121,-866
-55,-27,-42,-999,-2641,-4373
-85,48,-75,-1612,-119,-5465
32,46,-3,1588,1835,-8450
-62,-49,116,6139,-1486,-10865
6,56,115,559,-906,-10006
77,-45,69,-4620,9458,-3779
78,48,-64,174,11350,-2273
-80,-57,-86,-4606,18104,3370
122,-19,102,-15821,6434,13379
127,31,118,2528,-12701,8604
-11,-96,93,-11994,-62,36
-110,-15,-67,-5748,-14800,-7885
-52,-37,-107,-8472,-2895,-10332
18,58,-34,-2655,2527,-5144
98,-86,-121,3330,3770,-6460
8,64,-31,1536,10720,-1648
-86,-63,-77,-1127,10646,-62
79,-92,-109,-3898,9155,1618
20,-100,-72,-2021,5651,5731
-118,-95,61,-2149,-1533,3676
-26,-71,-56,-8031,-9101,5864
-30,4,11,-8383,-15684,1011
-84,-70,-61,-1146,-13837,1351
-29,88,97,-3440,-5949,-3418
-66,-18,-8,-1861,-3826,1564
127,-54,3,-3537,-1688,801
-51,118,-113,-2778,-2340,365
-61,4,95,406,-4882,1430
69,-54,-23,373,-507,4343
61,44,113,-5235,1278,6619
21,1,-82,-7493,-2878,5508
62,-108,74,4499,-801,4147
-30,118,29,3335,-648,2366
94,-5,94,3160,931,1136
-101,68,123,5692,436,30
62,70,-119,7698,2305,-384
-49,82,18,6206,2151,1764
62,-118,61,3785,914,4281
-23,49,-98,3416,787,4171
-62,-128,58,2348,712,3657
46,2,-109,3328,-612,2507
-86,-22,56,698,-1181,61
-121,94,74,401,102,-556
110,99,69,-711,627,169
42,77,78,-1544,-168,-143
30,21,17,-1441,-332,-756
82,-11,-43,-734,452,-1348
121,-92,-99,589,866,-2082
-120,-123,-97,1795,364,-2190
-87,-119,-82,1779,-135,-1684
38,127,-55,1874,-1671,-8093
-12,126,-84,-599,-1194,-7951
74,-23,85,1476,-2286,-8469
66,-1,108,-2960,4010,-6049
-37,-32,24,4536,3940,-7248
111,-8,-40,2073,6640,-4545
58,103,46,-2997,7666,-29
37,-88,-43,-3659,12318,4367
-113,17,-117,-5656,8910,11269
20,98,37,-11594,-7355,6318
-60,21,-54,-6291,-10797,2832
-110,-9,5,-7271,-5329,-9806
-33,15,-104,-3515,-2584,-8213
-51,116,116,-547,3252,-7202
-114,-70,-102,-1926,6013,-4495
100,-7,81,-3014,6378,50
124,33,-82,-1198,7886,2650
-62,-63,63,-98,10159,5850
-49,-26,14,-1709,6788,6077
-49,81,102,-1936,1252,9852
-13,-74,-12,-7853,3362,-5261
-8,-37,5,-2705,-11246,1040
66,102,-47,1963,-9569,-1405
-82,39,-17,-1843,-9012,-137
76,78,46,715,-8381,502
27,-120,28,-3672,-9362,1737
-89,-79,-69,-6675,-2749,1937
63,53,-95,-3502,-3013,2288
-111,-12,118,-2163,-3567,2654
104,-8,102,-1709,-1709,1390
125,-123,-5,-752,-985,1060
-15,-40,-69,959,361,1576
91,-3,-35,3470,2362,2795
-3,119,89,5123,5496,4010
125,119,100,1854,7230,6285
-99,97,121,2009,1935,5106
-77,-117,0,2060,-348,5351
-91,-112,-43,2634,269,3327
76,-57,60,1316,-307,1845
103,-83,57,728,-89,2388
12,-31,98,130,-597,2572
106,-33,123,-180,-1235,378
30,111,114,1277,-1151,-1524
23,56,-97,1975,-1020,-1725
31,54,-78,1356,-684,-1046
68,66,-52,124,-422,-455
95,56,-26,-868,377,-386
-69,-10,-115,-7860,2179,910
29,-67,64,713,-272,-500
60,-65,90,5884,-1182,-2380
21,-43,-29,-1225,478,-6551
-102,-38,59,2405,963,-8386
85,36,-113,2694,-1611,-8407
-91,-46,0,633,1484,-8431
-39,10,-120,-1744,3651,-3960
111,-32,92,-6761,9648,-576
-27,-57,-20,-7,7632,3780
-17,-49,-90,-2845,8765,9362
123,-82,80,-402,3070,8847
-29,64,84,-1012,-8993,9103
-119,-6,-23,-4535,-3181,-2532
-112,-27,-37,-2552,-9112,-4047
-77,-42,-99,-4069,-6771,-7045
-10,91,97,-2453,-1195,-4476
127,-15,71,972,2452,-5126
-60,-48,55,-3064,6872,-949
123,-83,-23,-2018,8489,870
-127,77,80,-846,8768,4349
-30,93,65,2056,9919,6041
-19,102,-112,479,1402,8635
107,112,67,-1886,3091,-926
127,121,18,-5241,-6300,-1475
30,-60,30,520,-10162,3518
-83,86,76,-6075,-9401,-782
80,48,69,-3555,-7165,-1214
10,-15,-26,1618,-5749,651
78,-36,-30,-2849,-6044,1342
21,-9,12,-5776,-1003,-843
74,72,-84,-3283,-483,-740
-51,66,123,-401,-1557,1316
-77,-73,42,132,-861,1892
-116,-13,32,509,-446,2540
19,49,-31,1871,735,4196
101,-121,120,1879,2195,5776
122,31,-3,1008,2593,6494
-81,-25,91,1252,-81,4558
83,75,44,976,938,4248
97,-27,-33,3802,381,4312
117,24,-108,291,-2006,2905
-52,-109,100,-518,-1584,433
-127,8,62,1800,-231,-728
50,-62,75,2718,447,-1398
32,-74,116,1981,-230,-1368
46,114,-125,1956,-480,-1335
108,29,-85,1849,-327,-1747
104,-62,-65,1860,-226,-2195
-123,-79,-25,1036,-286,-1449
-112,-57,-8,-250,-393,-374
-114,-32,-61,-870,203,-28
-119,-23,-122,-688,499,-236
-108,-30,62,4260,58,-7921
54,-41,-88,1748,-2389,-9106
-123,-11,-103,4554,-5762,-9667
14,111,-126,1231,-915,-6527
110,-6,127,-2681,5886,-4940
3,-108,44,1521,8792,-1597
-123,28,47,917,10666,-321
-43,23,-58,-5363,11097,2180
-119,-14,-34,-5289,1323,10396
-90,-54,98,-7769,-2369,8019
-24,17,69,-4608,-8284,-2310
-87,19,40,-5851,-9734,-7156
-13,-121,-44,-3772,-2349,-6966
-3,5,80,238,752,-6676
-95,-16,-126,789,4577,-3058
-110,21,-108,-1041,6894,-1413
-74,-14,123,-1774,7661,1297
92,85,70,-471,10113,4460
10,14,-49,462,4508,5655
-31,97,-48,1471,4348,7471
15,-51,-93,-6454,-5483,-2263
60,-33,-107,-941,-8833,3929
-89,-3,32,-1930,-9691,637
62,-75,121,-5110,-6986,-106
-40,5,92,-4476,-9784,-23
38,42,-124,-6198,-7656,1680
83,22,67,-2205,-2587,1181
-110,-23,-104,-3413,-3392,1622
-80,21,87,-1558,-1659,643
-57,118,64,-1258,-330,28
-96,-7,-36,-1426,-1511,776
-51,-91,4,1673,715,1544
-15,41,-22,3132,2067,2902
116,-58,-76,5940,3812,3707
-128,-97,100,2075,5685,4891
-79,99,6,1677,3020,4257
41,-60,-20,2189,1704,4280
28,66,-15,2699,604,3433
32,82,-9,4672,-966,2567
2,-6,44,3035,-1290,1937
-33,-39,-118,145,-989,1568
-98,-56,-107,-1694,-645,975
91,-125,116,-1343,-160,307
68,91,127,316,-460,-199
54,72,-109,1329,-665,-523
90,68,-97,1280,-296,-756
96,82,-112,713,212,-519
67,55,-115,580,132,-774
67,12,-121,1001,20,-1120
77,-11,-117,1173,158,-1042
25,-58,-85,-5162,-3090,-1250
-69,1,42,941,696,-4964
64,62,-127,2002,3453,-9414
-92,-1,-124,5725,-155,-9245
57,105,-126,4729,-1482,-9491
-127,-46,35,6863,-4646,-10588
-88,0,-46,-441,2351,-4516
121,101,55,-4952,8572,-2253
98,-115,-9,-4583,12744,-256
-44,73,45,-10271,14599,10138
-121,-67,52,-4558,-8169,6063
118,66,38,-9497,-8656,1098
99,39,-14,-4685,-7328,-4859
21,34,85,-4572,393,-5483
47,10,-122,486,3527,-5090
112,47,46,436,4164,-4469
59,34,67,-2264,4552,-1941
53,39,17,-2087,5850,1081
-110,-103,-60,-982,5752,4295
-110,74,103,-335,7018,8962
-51,-23,-73,425,5862,9036
-55,70,60,-4657,-7118,3162
-36,-6,-128,-3665,-6154,-4789
-88,112,60,315,-12222,-3569
-63,-101,31,-1952,-10293,-3087
71,77,-25,-2295,-8126,-2943
-17,10,-92,-2885,-3760,-818
-109,32,50,-2922,-5381,-86
-76,19,24,-1418,-2460,-630
-52,91,-94,-1727,-1478,-674
-91,-118,8,-923,-2535,-76
-8,34,58,-1318,-1056,560
-21,-121,-83,-4940,-2033,1088
-37,53,-27,2742,-746,2149
-47,117,-74,9146,855,3155
78,-21,-116,5074,6305,3718
80,-7,-63,1492,7355,6626
119,-45,-106,5307,3273,3564
-95,99,120,1645,3869,3108
13,-71,-35,1079,1821,3031
102,21,118,43,-549,2778
87,-58,-94,134,-1813,2694
93,111,-87,388,-1987,2127
-65,-74,-49,-375,-1956,2286
-121,-100,-24,-471,-1937,1122
-85,20,-55,-1808,-37,1105
-77,-88,22,-2323,3493,-2568
63,83,-42,6152,-433,-1478
-64,-22,-114,3969,-1619,-1265
35,5,9,1489,-1159,-381
14,127,83,454,-1273,-6559
83,-19,110,3675,-2303,-10234
-6,109,9,-259,3877,-8636
61,125,3,561,3705,-5153
55,-17,98,-1562,6852,-3198
8,-59,-72,-4457,6556,3829
-122,116,-12,-2120,5785,10010
18,33,-53,-3382,5125,11776
75,-124,66,-469,-6725,7747
123,0,16,-9179,-3620,-1275
-110,7,105,-2643,-10317,-5090
1,-24,53,-2535,-3331,-8007
-101,39,-14,197,-1258,-7139
-113,26,-96,-1214,3034,-5205
31,3,38,-3648,6307,-1117
-115,-117,29,-4438,7229,1612
78,99,44,-3020,7183,5640
-57,-68,-54,-1980,5710,6182
6,-74,-40,2384,-709,9057
-38,-107,-90,-3916,-546,743
61,-69,-54,-4756,-6416,-157
-39,-78,-119,2805,-8935,-1175
3,13,52,-4276,-8010,-1570
-98,-14,14,-2217,-9556,-1671
30,-7,17,-2979,-8915,-1156
-101,-45,-6,-2331,-2294,1987
-84,-3,-111,-2795,-2248,157
-70,62,-104,-1482,-2425,-247
121,99,-117,-29,-1933,57
43,-38,-15,-421,-2519,567
30,-98,-41,-1101,-4462,1975
-126,76,14,3121,-1391,2214
19,-61,10,5417,3257,2504
-91,-40,-42,2078,8306,3266
-72,47,-75,2548,5827,4650
-82,1,91,2309,3041,4131
-1,-1,-127,4808,1918,3862
69,-40,-71,3612,2040,2892
32,-10,-20,4000,1197,2630
-18,-71,88,2286,11,2138
-56,126,-78,991,-802,1752
-120,114,-45,93,-676,1106
70,76,-83,256,109,-14
13,-6,-52,1085,-162,-892
32,-16,-14,1087,-657,-961
54,-37,-14,896,-400,-880
71,-35,-13,381,-199,-621
61,-27,-13,-227,-235,-824
72,-50,-27,-293,-263,-1026
95,-70,-40,-65,-151,-841
-120,58,-128,-3242,-80,-5479
-25,-27,-60,4331,3715,-8490
-124,48,-66,2391,5408,-8999
-104,23,-56,-3279,4723,-6272
74,-83,-11,-9882,8635,1389
126,78,24,-1405,783,5687
88,-81,117,-1060,247,9452
-86,68,117,1020,-4571,9321
35,112,-39,4824,-10066,7331
-37,-46,97,-6500,840,427
22,-7,121,-4357,-7919,-7398
110,-124,-9,-1017,-2256,-7136
87,77,-117,-1034,1841,-6733
-37,-22,113,-1355,3406,-2688
-40,36,119,-3395,6351,-557
43,-37,73,-5674,7840,1636
-27,-51,-100,-5014,1922,6650
-108,-77,-78,235,1783,9669
-128,18,21,-1721,65,7153
-21,25,108,-10106,1905,-3549
51,-112,63,1245,-11882,-6799
86,118,87,51,-5385,-6184
89,8,112,-60,-7044,-7150
80,113,73,-1883,-5801,-4410
-44,70,14,-2545,-4844,-3884
-37,-73,-108,-813,-1103,-746
73,73,65,-2172,-3306,-488
-14,122,53,-1470,-2470,-155
-32,-3,-105,-1080,-1630,-575
-88,48,42,-646,-1920,643
76,109,-44,115,-1927,1502
96,105,-58,3192,-585,2160
34,74,-97,3729,1790,2713
-58,47,8,2690,2876,3314
77,-53,-28,2584,3108,3554
93,-98,18,2517,1892,2658
99,63,77,1067,977,3132
102,-94,-2,2035,519,3211
104,-83,33,1936,-398,3433
75,79,93,2787,-1491,2362
-120,30,-61,2763,-1629,2048
112,-58,0,2729,-1410,1271
109,-83,69,1704,-715,1080
101,-84,45,346,727,854
50,117,27,427,70,-90
14,60,31,1380,-587,-541
-55,-6,35,1694,-659,-1371
-14,-23,46,1035,-173,-1116
32,-13,-1,-122,666,-135
23,6,-31,-717,470,259
-12,-23,-74,4960,1009,-2263
-6,62,90,3532,-590,-3016
-127,17,-79,-1954,-1187,-3817
-94,-13,48,-490,427,-6134
-15,80,-119,6963,-2947,-9029
126,-68,37,2248,-1831,-9066
-56,-127,-2,1841,-1196,-7328
122,52,124,-5232,5751,-1644
114,60,-37,-8945,10997,1639
-82,91,-19,-7927,6029,10059
-57,-35,-63,-2974,-523,11043
37,97,108,5221,-9982,4236
-26,6,115,-7379,-4021,-1971
38,66,34,-3311,-6381,-7234
-71,19,63,-984,-2962,-6365
-24,-12,-87,-2829,2716,-6158
124,24,-33,1378,8434,-5973
60,13,29,-2836,4700,-967
124,-32,13,-3588,6287,561
101,-73,-19,-4644,2123,4129
68,102,-110,-3166,1404,8071
49,-37,-108,129,-599,8873
9,41,-93,2514,-1175,2818
98,16,-45,-7487,-7232,-2145
-20,10,-32,483,-11282,-3516
-93,96,-125,-2601,-7678,-4481
-107,124,51,1790,-6354,-2474
-68,-88,41,-2247,-7029,-570
33,-23,8,-2773,-4925,-584
61,-18,98,-2247,-2256,-105
-109,-3,16,-832,-3717,354
-31,-81,44,-749,-900,34
27,-97,13,-2944,-3836,1099
-93,-12,-79,-5170,-283,770
120,-80,-16,3477,-651,3025
-120,40,-67,6234,1583,3052
-97,-42,69,4510,5197,4909
73,74,66,-1686,3559,6055
-90,79,35,3587,-528,4838
-29,56,-62,3878,594,3635
-97,48,-60,5317,-1,2428
122,15,-71,778,-4,2663
64,39,-49,2049,-331,1948
-97,-53,12,1947,-156,2280
-72,-68,27,1339,-124,2277
110,-85,17,1141,-228,1230
18,-107,30,729,-394,24
8,-114,27,418,-72,-266
-17,68,-27,1078,246,-783
-15,30,-42,1381,92,-1229
-113,-125,76,-1295,-915,-6302
104,124,-50,-353,203,-7292
-100,49,118,1473,-1381,-7867
-81,-31,76,-1633,3762,-5833
-6,-32,71,1117,7024,-5350
-82,-52,-48,-5072,8994,-1252
105,29,5,-4207,7422,3588
44,-4,48,-2253,4990,8663
71,-110,119,-1352,-5237,10221
-123,22,-51,-1315,-10091,11916
-108,-122,35,3428,-3614,-2204
-67,3,-6,-11631,-746,-4533
-117,3,-64,3551,-5696,-9845
87,127,-52,-3245,1018,-6337
81,47,-9,-1802,4392,-6749
-71,10,-13,-1578,5821,-2712
-19,-100,68,-3191,7079,-942
68,-37,44,-4812,5311,5115
-46,122,-45,-1335,4976,11450
41,-74,-126,1358,1619,6338
-19,43,-55,-6560,-1058,1177
-24,-45,-12,-3529,-5557,-2536
123,-16,-58,95,-6590,-2512
-38,-69,-95,-964,-7668,-3044
51,60,-104,2128,-10553,-877
45,24,-125,-1479,-9017,-457
-35,-30,1,-5369,-7734,-1170
111,-62,-31,-2319,-2371,-1683
38,-29,-85,-2210,-2334,-1483
-5,30,-71,-2546,-5069,141
50,-34,33,20,-1800,306
-76,-74,-87,-2252,-3424,1453
83,-57,66,-809,-2116,2878
3,-79,44,7826,25,2448
-13,-70,-20,9501,3989,2528
-41,112,-107,3974,11309,3117
22,-7,-46,-664,6945,6308
64,-88,109,356,-60,5910
-47,-70,-83,-196,529,4905
-50,-20,49,1575,-792,2581
126,-127,122,1502,-1177,881
72,56,-81,1001,-1790,550
35,-86,-51,2676,-2140,605
76,-87,-53,2947,-769,1171
31,-78,-41,1625,-139,569
3,-70,11,266,-649,445
-31,127,5,68,-287,-383
-18,61,-11,846,309,-1233
-12,26,-35,1101,437,-1371
-2,22,-58,658,442,-1258
-39,88,-103,4449,88,-6614
-36,-12,41,1495,-1770,-5778
-125,31,-119,-1946,1494,-5665
-112,-35,117,-778,4077,-2731
84,-56,-3,-2584,6788,342
44,8,118,-3420,6547,4246
-17,110,-25,-4169,4280,7548
-22,-123,-51,821,-2602,7283
-20,105,53,1526,-7507,4210
119,37,-117,-4148,-4692,-2751
-122,66,123,-1198,-6255,-5524
-93,-125,-98,-2990,9,-5392
-88,-84,-92,768,3202,-5192
-90,25,119,-1862,4779,-1210
121,31,105,-1858,5210,1204
-101,-17,-127,-2155,4658,3972
-61,64,-42,-1298,4426,6733
-101,111,74,-2043,1770,6882
-77,-38,-6,-656,-5917,4852
1,65,90,-6771,-1131,-2758
-14,104,107,2070,-7330,-6817
-36,112,120,-1508,-8065,-6545
-108,-79,8,567,-7881,-5358
35,-56,-32,-2194,-3302,-2658
-65,-1,24,-1891,-4481,-1900
-48,46,98,-3911,-2980,-994
72,49,88,-2008,-1722,-781
-128,-126,-63,-654,-3432,-423
-117,-105,68,1243,-1935,347
123,2,-53,802,-970,1574
-101,-101,-53,764,994,1415
-15,77,31,4516,2399,3317
116,-45,42,5948,3222,4322
47,-90,-38,3647,4291,5152
-104,-17,-73,738,3021,3980
119,50,-85,3773,1049,4654
127,-67,-60,4422,609,3560
0,80,-6,3709,-246,2121
-78,66,-91,-209,117,1339
-94,-57,-123,-1398,1449,1380
75,-96,-90,-735,-93,1020
33,103,-52,868,-846,500
28,93,-44,1936,-794,-167
9,89,-33,1401,-337,-709
29,102,0,349,-273,-663
28,65,-17,322,-204,-953
40,40,-26,151,-100,-1443
89,-25,-56,419,43,-1820
100,-44,-72,634,-106,-1573
103,-64,-81,650,-196,-1142
-30,-11,13,-1797,1169,-6148
41,66,-101,-106,428,-8295
39,6,105,218,-385,-7584
-80,-2,-123,-4235,4519,-3485
41,-35,-53,-155,6199,-2188
-115,86,-68,-4630,8654,1270
52,-45,28,-3742,4090,5910
-96,21,-83,-943,163,8429
38,86,43,-124,-1993,9872
99,26,-80,1441,-8340,5869
-87,34,43,-6026,-1767,-1232
23,62,-35,1933,-5683,-5571
-23,78,-87,-1108,-1135,-7037
-24,-6,-94,212,-1130,-6924
24,65,-89,-305,2392,-5243
-9,-34,117,-4928,4908,-2763
-101,69,22,-3363,4665,1551
25,-99,-24,-1494,3106,4438
-84,20,73,-2675,5401,6339
61,126,90,-1235,410,5839
-105,-126,88,-3546,-5215,2139
-58,121,-79,691,-5478,-2810
93,98,118,3407,-7891,-3970
-17,47,-63,1923,-6685,-2972
55,24,4,118,-8338,-2232
70,109,53,-3206,-5716,-2051
55,-24,121,-3117,-5462,-472
-20,-43,46,-3925,-5010,-388
-96,-10,14,-2268,-4819,-434
-103,4,-64,-313,-1153,740
30,-44,98,-1886,-2517,-222
-60,29,-32,-131,-518,885
-101,74,40,616,-454,1146
-74,42,-9,2595,827,2640
-125,-5,-109,3551,1787,4380
-125,12,-119,3816,1876,5427
-114,-30,19,3139,1256,3804
-107,121,-61,2000,1335,3510
55,93,70,5506,559,2768
89,2,11,4953,407,1945
106,108,39,2993,636,1900
89,-2,82,2134,225,1957
106,123,-97,2650,-602,2102
69,-125,-44,2080,-935,1943
20,-90,32,705,-1159,1350
-37,-87,52,-36,-416,329
-61,-93,88,149,-377,-147
-57,64,26,1210,263,-1076
-26,34,7,1276,330,-1565
30,4,-8,811,201,-1428
71,-7,21,2050,1193,-7835
92,43,-43,216,1297,-8111
72,57,-20,2739,-4081,-8215
76,-85,100,2752,3869,-5609
-28,38,20,-3453,7359,-3043
-37,22,-6,232,8581,396
-29,50,64,-1573,4910,5888
29,25,28,2339,712,12705
81,-37,-102,-1301,-3622,7466
91,119,118,-5371,-3910,-2707
-83,43,-84,-2057,-6968,-4463
67,107,30,-6802,-2730,-6271
-39,-51,31,-1302,20,-5656
-19,-11,91,-1545,5017,-4350
120,1,67,-3128,5390,724
43,114,26,-1737,7116,3116
-72,-87,-14,-2819,5184,4912
24,14,-37,-1243,1624,5942
55,2,-81,-567,-2643,11118
38,96,-70,-1650,-5051,1505
-9,62,57,-2022,-3079,-1386
122,26,47,1009,-8421,-4567
18,-82,74,-2122,-8896,-4806
123,36,-110,-1364,-8616,-2982
-86,111,86,-4381,-4408,-1754
-102,35,-124,-2729,-2466,-2286
-97,-76,34,-680,-2364,-1053
-32,44,109,-899,-2852,-695
63,60,-63,-462,-2624,673
69,62,52,-1719,-2893,2016
61,116,-104,-1954,-586,743
80,-19,-119,3475,681,2451
-116,76,45,4969,495,3527
66,52,-118,4520,3926,5353
4,-13,-54,2526,4506,5192
-103,121,-65,3285,2068,5976
96,-105,-114,3715,1985,5526
-31,121,-117,4191,1704,5997
16,25,50,3709,-1118,4664
9,120,-78,-409,-3136,3115
53,-124,96,-2770,-1077,354
-95,-109,37,241,1258,-2297
-75,79,97,2858,993,-2361
-75,109,119,2698,-170,-1102
-17,-110,-97,729,-1150,-366
26,-98,-70,-1708,-1009,-1293
123,126,-87,-2034,-291,-1980
-105,67,-110,-1136,29,-2368
-100,68,-99,-1958,-32,-1324
98,-102,80,-5619,-697,738
73,-102,-108,6306,-2259,1374
-27,-25,-120,8046,2478,-1901
-120,84,92,2045,-529,134
104,-36,43,-3326,535,438
99,-73,20,-3950,795,787
88,-79,-9,-2238,237,772
104,-45,33,-177,-114,575
98,-19,63,715,-266,-16
126,-19,78,801,5,-692
-124,-55,69,1163,58,-1049
-126,-61,101,589,-119,-565
-119,-29,-110,-1703,71,5
-95,-55,-122,-225,454,125
-112,-74,95,1593,-85,-177
-103,-12,93,937,71,-23
-91,21,88,162,101,-13
-52,48,106,-315,62,-11
0,40,-94,454,-468,392
56,2,18,2225,715,-878
-26,37,96,4392,928,-4228
-48,-55,96,4070,1448,-6326
72,-104,-76,-361,2914,-7056
-111,90,-22,4818,-3,-9949
-22,49,-60,2361,3521,-7367
-91,31,7,-5972,8125,-1536
-8,80,18,-3379,9811,2316
-25,87,2,-5282,1512,8854
-90,-60,-60,3221,-1371,8691
-117,-93,52,-2052,-8253,6615
105,5,-90,2935,-5398,-1691
0,-25,-80,-1593,-7549,-4209
-5,11,86,-5419,-1894,-7353
56,-85,-30,-2104,3637,-7076
-128,115,-45,-1246,8271,-1719
78,-125,-113,-5294,7012,2330
-4,-83,-15,-2282,3993,7458
-37,112,-121,1722,2282,8269
47,-80,53,-880,-936,5804
117,73,-126,-4605,-2541,-6523
-34,-100,-109,3382,-15858,-3378
-58,-64,12,-6077,-11715,-3744
71,35,-71,1526,-6960,-2919
63,98,-86,-645,-7886,-689
-65,-49,88,-1884,-5325,-890
-57,9,79,-1473,-5026,-753
-123,25,-43,2132,-2190,-1672
8,76,-22,-1248,-3074,-349
95,-113,80,-1800,-2613,1469
103,6,93,-459,-1366,226
-49,124,109,1419,-86,2050
11,127,60,3977,3414,2459
126,-100,-19,3227,5222,2959
87,-45,-74,1460,7590,3909
-8,-105,57,1803,5321,3007
40,-21,-43,2187,3577,1024
-63,88,88,1105,2459,2503
-109,75,115,1697,2923,2568
89,80,-80,-476,865,2348
117,-14,47,577,-658,2796
-73,-62,92,870,-410,3162
-112,-127,-109,871,-997,2771
-125,113,-58,764,-1494,2506
-121,120,-45,292,-1197,2008
84,-78,-37,-1230,-1405,1331
17,-85,-44,2244,3081,-2195
38,-103,91,2840,-700,-1254
-8,109,14,-439,-2481,670
0,80,-45,-2508,-1145,-75
17,-29,89,-498,1701,-1198
63,-62,51,1711,2254,-1228
59,-4,113,1767,425,-808
74,6,-120,1106,-518,-429
99,-19,123,929,-279,-216
89,-3,-117,267,-123,-60
81,28,-117,-656,-212,293
84,71,-126,-812,-457,580
83,109,-126,-433,-423,434
-118,-114,-70,294,1488,-674
119,-115,-2,1643,-265,-197
109,-104,-101,458,-593,337
-127,-108,88,-361,259,-45
119,119,39,-481,698,-473
88,104,52,319,-258,-224
96,117,79,1423,-451,259
-92,11,-96,-333,798,-60
-99,42,-103,-1384,-570,-80
-45,73,-124,-1641,275,-1076
54,48,-29,4400,721,-1538
78,110,-5,5926,1140,-3902
57,78,-100,3945,521,-4593
124,49,-28,1043,-2122,-6507
-105,-91,-42,163,-1229,-5634
9,-114,-24,-362,3503,-6142
79,-94,-43,742,5267,-4739
92,-92,-67,-1427,8941,-1227
48,60,-21,-2626,6168,4299
93,-82,22,-4330,2450,10346
-4,-126,71,1828,-1970,7402
62,60,-57,-9296,-5115,2370
-115,35,60,-283,-6814,-4270
18,27,-86,-2951,-4852,-6485
41,-34,-43,608,-1558,-7045
53,110,-59,-455,730,-6001
-51,9,-122,-784,3421,-3450
74,119,89,-60,6117,354
-84,-14,108,-2865,5775,2495
-73,98,-51,-3474,5854,4946
33,18,-50,-458,4773,8177
61,33,63,-357,-2417,8569
-8,-17,22,-5905,273,1026
-23,69,103,-5023,-1886,-4566
59,68,-84,-2689,-7258,-8372
88,-21,-113,-4137,-2377,-8071
-123,-74,86,8110,-3653,-2146
91,-114,-15,2823,-8306,-3911
46,44,-22,-2074,-9412,-5369
56,125,-73,-2736,-3941,-3416
25,-85,-41,-290,-4894,-2655
-79,-77,-41,-920,-6882,-1496
-46,-86,109,-838,-4295,129
-113,-97,58,589,-1987,-1346
45,26,125,754,-1063,1540
-13,61,57,369,2126,1852
-67,-13,-4,4093,3227,3868
-50,32,-96,6397,6671,5215
-38,122,-106,1170,7697,6429
-75,24,-27,1683,2006,3893
29,-34,93,-30,3887,4446
-82,18,30,19,-367,4497
-92,-70,-32,4678,878,2820
97,35,23,984,59,2734
32,-101,122,-170,-1673,2018
-3,-77,-38,1127,-2690,1228
32,-45,-16,933,-1404,1731
-6,5,-9,148,-155,1441
-75,6,-63,-407,582,7
-68,-17,-37,-75,-388,-871
-53,-76,-16,577,-710,-1415
-24,-90,25,106,-701,-1661
3,-115,1,-862,289,-795
-19,98,-43,-1087,583,-485
-21,-111,-107,-2904,453,824
-53,81,68,188,759,-543
-35,74,79,2382,595,-1103
-5,105,81,3383,299,-1420
28,-96,104,1806,-132,196
25,-71,124,129,-176,747
26,-42,116,-1100,-213,847
39,-36,101,-727,-170,736
66,3,115,85,191,19
122,88,7,3937,2612,-3139
-109,52,-61,3962,2500,-3315
-123,19,-86,2449,2196,-2689
-83,-59,-55,1731,2134,-1145
66,66,-50,1842,2201,-270
-91,-52,-106,4569,3787,482
-13,-56,124,3857,3905,1197
91,-106,122,2188,2946,3008
-32,14,121,259,1774,6997
-5,-12,-53,-481,-3395,6661
-105,90,-98,-7713,671,-4308
-89,-104,34,1166,-6250,-5679
-110,72,81,991,-5370,-4696
-85,105,56,-4314,-96,-5912
18,72,-83,-981,745,-5378
34,-117,-54,1647,4888,-1692
-43,-55,127,74,4688,1042
38,-101,-88,-561,5508,2653
-33,-99,-91,-63,6401,5230
40,105,19,-967,4626,7647
109,62,-20,-6108,-4425,6214
88,51,-66,-6428,3880,-5886
1,102,-105,-261,-7596,-5150
78,-37,-38,-1660,-4924,-8114
-33,79,-82,971,-7280,-6088
126,-9,111,396,-6519,-4433
-25,117,33,-748,-4811,-3442
17,4,75,-350,-4275,-2415
-24,-118,-56,-5421,-4571,-1684
62,79,84,-5257,-3266,-1437
115,-65,114,-1372,-2634,-1586
114,-123,-118,-1223,-3049,397
30,-75,24,-1018,-4271,972
107,-23,-26,1099,-2026,1707
121,97,87,1518,-1132,2698
21,-23,42,3217,470,4081
42,98,-31,2074,1047,5209
-82,-14,45,6005,-403,4866
-114,29,107,7458,-176,4265
32,107,-34,1272,1866,2762
-107,36,96,4552,1228,3433
92,40,50,1812,-185,2224
28,63,113,1694,-1668,1008
102,-66,51,3768,-930,1732
110,108,78,4515,-1090,1228
83,-104,-86,2561,-1435,1111
32,-17,-4,-897,-893,1044
-34,-11,-20,-3263,-550,146
-48,-88,15,-1387,364,-1569
-104,14,-59,643,2906,-1375
-109,89,40,1466,4339,-3870
-96,91,119,3769,4473,-3968
112,-60,-83,2560,4847,-3654
-81,53,0,2741,6397,-2698
105,-67,31,1925,4028,2167
-66,-59,-18,-1371,2338,2740
0,-59,114,-2813,-1664,7428
-33,-40,-54,-493,-7328,5495
-1,-48,-74,-5823,-6540,1255
47,9,22,-933,-411,-4378
115,84,-78,40,-1520,-4610
-57,-84,36,305,2605,-5618
-97,-115,5,3943,3122,-3501
28,126,45,3802,3256,-1858
52,28,18,-1077,4402,1867
50,7,9,-1275,4192,4183
116,-72,89,-1219,3838,5908
61,-98,-18,-164,1366,8414
-23,-57,-1,-2894,-8051,3777
-57,-8,88,-7253,3819,-129
17,-12,-98,-1102,-1693,-4539
-32,8,-84,-3457,-59,-4298
117,-66,112,1713,1208,-6241
115,100,3,2209,-4414,-7997
70,105,-115,-1227,-5039,-7886
-16,-17,126,-1147,-2681,-4905
-87,124,10,690,-3665,-3467
-42,42,-66,-2722,-5796,-2050
-89,11,-81,-2979,-2632,-972
-124,-15,118,-1349,-2840,-1175
87,104,1,-282,-1735,849
-26,-39,88,-740,-2266,616
41,-113,-64,-769,-976,1513
56,112,-71,1565,-796,2242
126,-110,88,3954,-104,3089
-83,-29,-18,3949,405,4617
112,-108,0,4652,2208,3477
-53,-96,123,4034,1759,3942
25,43,26,4870,1460,4213
62,-52,26,4093,1408,3675
-38,79,-20,3322,1170,2871
-94,30,112,1626,-107,2846
-90,-31,-72,997,-906,2858
-118,33,-38,-58,-1022,2578
9,75,-57,-1055,-576,1218
-106,-7,-68,-526,-272,-1450
-79,-114,-30,1537,-263,-2231
-51,110,-25,2384,-213,-1929
-18,-106,1,421,-167,-1577
35,106,-16,-630,214,-1798
-49,-121,-98,5718,2082,-1672
98,-58,-66,2332,-433,-203
84,124,-92,-322,-528,133
100,71,-120,-326,109,-417
105,43,99,-662,257,-116
103,59,95,-692,-53,2
106,72,98,-121,-119,-159
113,83,104,142,93,-244
119,108,117,61,35,-160
127,119,118,199,90,-106
-112,123,116,582,53,-121
-111,-113,95,499,46,-113
-112,-108,85,420,59,-139
-113,-105,80,360,70,-178
-111,-107,80,422,43,-164
-106,-103,80,398,99,-157
-100,-100,80,403,134,-159
-94,-92,75,362,131,-121
-61,61,79,-1243,431,-735
-12,-111,-65,-1785,886,-1766
105,47,-109,1159,81,-4030
98,-70,-20,1350,2251,-4868
73,-69,80,1001,3640,-5394
101,61,81,-581,4597,-4451
-9,52,26,2703,8098,-3308
-65,-80,108,-1818,4474,4092
-98,50,-55,-24,3255,6169
115,20,-21,-1278,-688,6224
-5,-107,-17,307,-2066,5082
-82,36,98,4726,-8822,4699
45,40,37,-712,-374,164
100,24,98,-1754,-4358,-5022
45,25,56,-3184,-2225,-6953
83,-29,-74,1582,847,-5993
16,-90,-60,-783,2048,-4081
102,40,-115,-1259,4925,-267
-93,66,60,-203,5486,3681
84,-122,79,-985,5302,4849
-104,88,-60,-965,3830,6734
44,-37,116,-3245,-3710,6511
-66,-110,51,-3253,-5063,2276
12,-80,77,-6002,1839,-1329
17,-52,107,-122,-4404,-5131
108,12,-46,-1459,-1849,-6494
-68,98,-6,-161,-4546,-6131
97,13,-120,-2033,-4612,-5701
-6,-125,64,-3510,-4693,-5380
0,-113,102,-4251,-2832,-3614
96,65,-100,-3101,-2242,-2502
48,33,-31,-1686,-1988,-2297
-31,-28,-126,5993,2181,3317
-52,114,115,4429,3051,3924
-62,103,127,3803,2513,4824
-114,26,-89,3787,787,3887
117,-38,47,5470,161,2045
-112,73,-112,3343,-280,2648
107,6,-85,1896,155,2294
103,87,-116,-481,-1466,2779
127,51,24,-1031,386,1678
34,-35,-30,1161,101,824
-79,99,-49,3201,-735,-614
-72,106,-35,2757,-746,-749
-50,-117,-15,1052,-283,-105
-41,-110,-23,-597,243,-24
-55,79,-56,140,87,-586
-59,27,-70,1273,-307,-1008
-37,27,-50,1158,-588,-852
1,55,-31,39,-389,-429
25,49,-52,-429,68,-415
24,21,-86,-66,32,-430
-15,62,-82,-76,-341,-183
-16,64,-103,-197,-313,-432
20,90,-100,-759,61,68
51,123,117,-981,439,173
28,115,74,118,150,-13
6,-124,69,522,5,-243
8,-98,83,452,113,-26
38,-89,95,635,629,-111
91,-97,72,1701,617,-111
98,-72,-112,491,-770,1934
41,72,45,659,-205,-372
75,107,72,681,623,-817
106,-60,106,-729,454,-250
-117,-27,-127,-1467,54,-142
-96,20,94,-359,223,-95
-81,103,100,564,390,-1099
-46,5,-94,798,-252,-1516
22,15,-81,3310,-996,-3412
2,-31,57,624,-1290,-5082
-44,50,-126,-158,555,-5804
-64,-39,-22,-712,2294,-4934
-126,-100,-67,566,4724,-3969
71,20,7,1399,6423,-2195
-106,37,75,-2013,5696,2274
-47,9,80,363,4943,4294
91,111,36,-3225,1545,6744
47,-97,14,1346,-3287,6590
-90,-111,-89,1090,-7895,4700
25,109,31,-4029,-1781,-349
0,107,-83,-1816,-3583,-6877
-63,116,-59,1025,346,-6980
-53,-65,-69,-127,721,-5658
-111,-114,-125,507,3741,-2906
-91,78,-62,-1839,4649,531
-1,-29,-51,-1004,4969,2454
41,-55,-6,-1431,5063,4768
61,-103,-64,-622,2503,7651
-90,4,21,-2089,-3289,9113
-10,-52,95,-6185,2075,97
65,-55,95,-3229,-1062,-2962
103,-22,-87,887,-5134,-5308
28,20,39,-1278,-655,-6256
-95,-38,-42,2696,-7490,-5996
46,-85,-96,-1249,-9933,-6651
-26,-124,63,-5685,-5710,-5040
-68,46,-105,-4706,-941,-3461
95,19,-74,-1338,130,-3009
-82,-106,20,-1472,-2419,-1755
-86,-14,21,-1119,-2162,77
15,-71,83,1050,-2607,826
102,-31,-49,762,-1923,2083
124,39,37,1093,-1330,2297
-93,65,-3,2884,-207,3936
121,-32,-89,4579,774,4876
49,-66,-22,2574,2415,5665
65,17,-64,2944,109,4344
-41,-68,89,4304,508,4626
74,38,34,3797,931,2632
-1,-128,58,2447,645,2536
-30,41,33,2296,865,2701
-97,25,96,1577,-466,2858
-89,82,-93,0,-1319,2891
97,-62,-109,-1895,-695,2246
-66,115,-119,-1110,-771,-558
-86,-51,-21,941,-1053,-3192
-22,105,-45,2752,-50,-3714
37,65,-55,1968,362,-3210
84,47,-29,406,84,-2300
84,22,-31,-340,-53,-1441
38,-47,-77,-346,-291,-1500
30,-56,-41,323,-881,-885
53,-10,-45,-244,-192,109
32,1,-94,41,633,548
19,24,-117,555,631,851
42,76,98,1360,378,1457
29,69,70,3072,23,1285
75,59,76,3114,-381,124
119,-116,106,114,130,-250
115,-126,105,-1329,576,-461
72,83,95,-1245,383,-500
-40,-24,20,1901,3792,-3961
9,63,-63,1991,3995,-3956
6,122,92,215,5283,-3206
-52,-42,58,5650,7381,-1945
-64,100,56,145,4399,3590
58,51,-20,398,3038,6782
-43,35,-53,-2536,-1151,9131
42,-37,-91,2594,-6423,3943
-24,82,-6,712,-7096,2879
41,56,33,-6399,-650,-3442
-127,106,-24,-1163,-526,-6931
-110,121,-104,-1315,1224,-5588
-117,53,72,-490,4436,-4961
52,-103,126,1016,5547,-260
20,-103,-46,-1393,3780,2799
-63,40,-64,-181,4343,3928
-28,69,121,-2347,1514,5931
-119,75,-109,252,-4052,8690
100,-125,71,174,-5916,7738
19,104,-53,-9004,4606,-5070
74,41,-46,995,-7400,-4691
101,-65,-14,-3327,2213,-5615
-84,19,-40,2920,-4116,-6980
51,-15,-47,-1707,-7849,-7175
-30,28,-60,-5521,-4386,-5303
-23,-127,-21,-3773,3658,-4362
1,53,68,74,-3225,-2239
-47,108,-15,-1942,-4108,149
-63,94,-33,284,-2665,-302
-112,-122,26,1540,-2154,262
-63,4,-110,613,-2507,2861
126,-12,105,2349,-2206,1888
-108,-24,-24,6795,1622,3566
-110,-67,68,3942,4778,5156
-8,-114,-53,773,3744,3958
-62,55,29,3119,2192,2313
10,101,-46,1516,1919,1787
0,49,46,1006,1487,2848
123,-111,-45,1800,-795,1332
-114,70,-15,1778,-661,1342
88,-20,20,1890,-645,1105
87,-90,81,1606,-574,881
82,89,111,1680,-944,304
123,60,-27,1670,-1632,-49
-120,84,55,1376,-795,-729
104,47,94,678,-174,-903
54,17,79,-276,-490,101
39,56,59,-1223,-1127,945
9,100,-10,-988,-329,553
116,-113,-91,-689,1636,-747
65,42,96,1819,724,-6791
-49,34,9,-2101,6617,-7015
38,-44,-106,1807,4315,-5084
-91,28,-105,3048,6748,-4335
95,123,108,-1072,4563,2103
-52,-78,61,-722,3684,4285
-10,53,73,-1468,1597,6873
-51,65,87,182,-838,6919
-126,-118,61,2236,-5784,5113
-123,54,63,2660,-6609,2080
64,6,-33,-2555,274,-4733
-15,56,-127,-2014,-4337,-8593
-9,-67,89,-2836,1974,-4940
-29,-88,-33,2734,4567,-4319
-87,-67,-94,-3165,2348,1458
-101,123,24,-684,3859,3688
-81,-23,-42,-816,3157,4689
117,-71,44,-2497,1859,6166
49,-3,68,-285,-10295,9135
84,-126,-69,-9102,6184,-3683
-64,-92,-107,5868,-4934,-4720
100,-117,-125,-2319,-7288,-6341
-95,-23,-49,-1261,-5415,-7630
43,40,23,411,-7832,-5977
-108,-56,61,-3016,-1744,-3822
-3,114,-80,-874,-2425,-2650
29,-72,103,-1441,-2695,-988
92,-80,-123,-343,-3845,71
72,-12,-48,578,-1990,1854
14,-6,-128,-537,-702,1214
-77,-73,103,-1514,591,2347
-41,-88,40,917,567,2318
-79,-1,-52,3172,897,3788
-92,121,78,4006,1523,4698
-115,90,104,3020,3122,4787
-82,-42,-117,3866,1848,5247
-64,-87,-61,2840,660,3392
115,-109,-98,3903,1278,1805
16,1,10,1909,988,1608
-66,-95,100,884,-216,1585
-61,95,-90,1141,-769,1687
105,116,-72,1539,-858,1402
52,101,-44,1296,-462,236
34,116,-27,918,-114,127
65,125,-28,81,28,-31
46,-92,-7,-528,-96,-445
37,120,-7,-257,-253,-1734
70,73,-16,-159,-64,-2089
-114,40,-61,-337,418,-1711
-116,11,-96,196,210,-1088
-85,-61,-25,1983,1881,-4171
13,109,37,440,241,-4757
-71,123,66,-383,967,-5394
101,-75,-94,1707,1332,-4555
-76,12,-36,669,3493,-2739
-94,-32,-126,289,6561,-1401
114,-101,-30,-1677,6836,1766
73,-128,120,1959,2178,4430
108,121,-26,1563,295,8295
-118,119,15,-1282,-4603,7238
75,-27,-97,-1241,-9000,2810
-35,98,104,-8441,-3012,-3514
-24,-113,-31,-1254,1347,-6039
7,11,124,2099,4366,-6202
125,1,-107,-1404,4464,-3826
82,9,92,1288,8050,-812
123,0,-72,-3137,3184,2657
-2,107,-103,-1028,3119,5951
21,30,-47,-2257,441,8245
125,75,-12,-4680,-3026,5476
-32,-35,-77,-553,-6142,2970
85,8,-44,-7148,2251,-2343
-13,-78,22,-1806,-2059,-4020
81,10,-10,-3583,2405,-3456
4,37,-46,4221,-4674,-10070
36,-111,49,-2617,-10096,-9393
-57,-48,-36,-3840,-1082,-4916
-38,-92,-39,3835,2248,-3935
52,20,64,-3018,-2840,-579
-68,-114,-60,-7658,-3551,142
-84,26,-108,-610,-757,-364
100,34,-125,402,-733,-65
77,-93,-49,-1213,-1292,836
111,-99,-73,870,-709,1399
-40,-25,-43,1012,-522,2400
-47,29,10,1080,-282,4410
-63,116,-40,3915,-1383,5912
-3,24,113,4090,-867,5647
-123,-2,-1,1804,551,3435
-127,-37,-89,3589,287,3096
41,-86,61,4981,91,2707
-11,99,13,3915,472,2348
118,-10,87,3425,-1140,2278
74,-3,23,1325,-2487,1939
63,117,106,-1920,-1252,682
57,-34,20,247,810,-967
-2,101,69,1990,-67,-1716
20,82,63,1487,-807,-1686
58,70,43,271,-441,-1371
67,-4,-2,-198,-326,-1553
-93,126,-103,-953,2915,-4837
35,82,-24,-344,2080,-4898
-102,98,-26,-219,1891,-3782
34,-88,18,-550,3356,-2639
84,37,-24,1585,5996,-2143
77,-5,68,738,5852,1824
-112,102,115,1153,3696,5488
80,28,30,-716,2698,10524
-93,-64,-91,39,-4794,8407
-40,67,-37,3946,-5807,5487
-4,-20,38,1648,-863,-628
-12,-21,-97,-4739,-6139,-5415
48,24,-98,-7249,-796,-7190
-123,-39,18,-1185,1964,-6672
20,53,80,33,3537,-2685
38,-3,-12,-628,4643,934
70,45,19,-1884,4922,3426
8,-69,45,798,3789,7602
87,66,127,2448,2317,7203
68,-93,-47,-6160,1408,5205
114,-52,1,-2091,-932,2018
-45,116,-73,-7831,-3782,-2072
63,-22,39,-7917,-2489,-2834
80,-66,126,-127,-1882,-7688
37,96,85,-2641,-4867,-8006
-61,93,40,-1646,-5262,-7102
114,122,-60,-2198,-1545,-5066
84,-117,-102,-1548,-1132,-3138
56,-62,-84,-2242,-3459,-1247
81,-41,18,-814,-3680,-391
30,119,-104,-967,-1866,-239
-10,-23,96,-805,-1412,-4
48,73,-77,-1116,-190,855
40,-121,-44,-950,-16,2036
-108,-36,-96,4905,1315,3176
-89,2,74,4277,2583,4835
-72,116,56,2413,3811,5187
-85,41,57,2812,2873,5257
-116,-96,33,3216,1427,4887
21,-82,-60,4180,628,3599
28,-103,-110,-1098,-352,3291
45,-44,-127,139,-784,2723
25,-123,73,2685,20,2485
-74,-81,112,2174,-390,1374
52,-94,-96,1305,-992,172
17,116,-66,1467,-1162,-193
-13,106,-29,1245,-1013,-212
-17,121,13,317,-696,-243
-23,-125,24,-343,-566,-403
-22,88,8,-246,-172,-1100
47,98,58,1430,3632,-5633
-126,-111,58,728,4352,-5514
-77,36,11,-994,8892,-491
-45,23,-113,154,4607,6068
87,39,-90,-2703,1902,7900
-37,30,-39,853,-2269,5949
-87,-128,36,-3438,-6596,3836
-84,-26,114,1731,-9681,3745
-47,61,-47,-11646,397,-6093
71,34,84,977,1710,-8123
-71,-70,71,2230,4009,-7035
50,-128,59,748,3135,-5516
11,-102,-100,-1487,5317,-624
80,20,-54,227,3950,3284
-84,-29,43,-207,3145,4953
120,3,34,-2662,2911,5993
40,46,54,-2001,2467,7654
71,-22,41,-1625,-5845,4229
-88,-33,9,-4802,-3489,-85
22,20,-56,-2036,-3334,-2386
56,27,126,-2074,-2403,-6272
120,4,30,1717,-3057,-7153
70,43,107,645,-5347,-6150
15,-77,-65,-3494,-4630,-5225
85,84,-115,-3034,-2605,-3875
-117,-71,-50,-706,-2840,-2377
100,19,30,-1840,-2799,-1488
-65,30,71,-1299,-1107,-65
39,-35,112,1078,-2059,-111
-117,-67,-70,325,-1246,1629
-67,107,22,-1314,-1222,1771
-53,97,-96,1148,-1140,2558
103,98,68,5206,1055,4268
-113,-19,70,5803,2273,6168
-80,110,108,2835,3090,4564
87,-54,49,3990,773,4039
114,40,42,4102,1180,3542
-13,-117,36,2777,819,2481
120,33,-104,221,-674,1990
-126,42,-85,-1272,-837,2187
74,65,-123,-803,-339,2001
-25,32,-122,629,69,467
-46,21,-110,1266,-141,-544
-61,11,-69,836,-758,-938
-6,-1,-46,-82,-851,-1244
41,-6,-31,-1034,-447,-1437
85,-110,-34,-185,513,-1844
45,74,-33,990,407,-2455
43,35,-39,901,-153,-1803
47,96,-62,-2297,-62,435
-41,55,-55,954,3569,-4771
-87,96,11,1870,3369,-2916
25,-50,-125,4969,4138,-2454
-89,12,-73,521,5571,1147
-35,41,124,3460,3716,3144
96,106,55,-239,2652,6043
70,45,5,-1757,-544,8875
-73,-69,110,3166,-6601,2627
-62,-110,-27,-8859,-667,-2623
99,110,104,2853,-5278,-7373
-27,-31,11,-775,1378,-6363
-4,-63,-75,907,237,-6156
-54,-13,-87,2419,3544,-705
-126,48,99,-2125,2627,1253
33,125,14,-441,4139,3419
-26,-122,-55,-1415,3549,5780
-62,58,-29,-957,1330,10132
-37,-21,3,-909,-5807,3170
-67,-52,-86,-8682,4323,-905
70,84,83,477,-4212,-5408
-38,32,-105,-456,-1934,-8390
122,-101,-86,1932,-10873,-7754
-5,-62,-52,-3855,-5610,-6492
16,121,-62,-5724,-2589,-4515
-97,-61,53,-1660,-2210,-3135
97,111,-70,-3478,-3450,-1760
-58,-87,-40,-829,-1792,-1053
13,-29,54,885,-1321,-1181
0,4,-123,693,-2404,-46
-121,112,-68,1390,-2031,1427
-59,67,-27,2044,-2394,2554
111,7,-7,7293,1719,2230
101,15,-73,5670,6405,2335
-76,50,-18,3131,8673,4871
102,-38,-109,1560,4596,4092
-58,-36,69,4571,1548,1933
22,60,78,-1206,155,1344
-67,117,-108,-2258,969,2038
106,-108,-28,1699,486,2962
-97,-80,-2,2776,332,2469
112,-105,82,1824,-375,1432
127,-121,118,683,-678,1604
76,-81,-50,-359,-1882,1870
18,-34,-28,-1250,-1566,1036
-92,-88,92,373,3581,-2237
37,7,-56,-2542,-429,-1159
28,-118,-65,-1021,-1891,69
45,62,116,1781,-676,-662
26,60,111,1735,909,-1756
40,71,107,592,1155,-1592
-62,-80,2,2948,3458,-2007
-59,-87,-52,3507,4896,-2498
-97,-90,-31,2838,6499,-187
25,77,-111,615,2848,4285
26,-27,91,-3126,2597,11008
-101,106,26,196,-5292,5257
-4,85,117,-6709,-3010,-1284
91,105,52,-4188,-8084,-5447
62,-112,65,-3734,444,-5152
-98,-101,123,-260,2703,-6865
-95,42,70,1639,2857,-3848
46,105,-78,2611,5161,-2420
-7,81,107,-549,4050,1289
70,-37,-53,-1011,3935,2537
89,68,49,-1103,4555,4465
116,-24,-11,-851,2879,8551
-114,-23,-26,2465,-749,9331
25,77,-54,-4075,-801,2288
89,117,68,-9420,-1466,-1345
43,-24,-13,-5296,-5918,-4310
63,122,127,-1991,1979,-5695
104,72,16,176,-3080,-9445
11,-21,-126,-472,-8722,-7701
-57,39,-107,-2849,-4742,-5560
104,26,33,-3057,-614,-3066
78,-15,47,-1464,-1147,-2524
2,35,49,-1411,-1445,-2038
-65,17,99,-183,-1324,-893
106,27,116,463,-1176,-133
67,-120,74,289,-729,365
85,-71,9,1100,-1498,1524
54,39,-117,972,-1747,2842
-127,63,-13,3705,-577,4018
16,-32,-22,3423,1867,4104
99,-119,5,3608,3855,4850
-128,-110,3,347,4007,6310
38,-69,81,2196,214,6049
49,98,73,4204,-331,4487
-102,-96,-94,7672,-413,3019
-55,16,6,2504,-1537,1371
21,-62,84,-2074,-1610,-461
-13,-74,58,1624,177,-2139
44,-77,123,-1439,1916,-2115
-6,-124,-48,-1555,-853,152
1,2,-29,418,-318,-447
-2,-43,122,1745,258,-748
-11,-31,-89,1231,164,-732
-3,13,-53,-256,-585,90
8,29,-61,-402,-609,533
16,47,-77,-80,-47,428
-19,41,-91,1710,6999,-3599
1,-41,27,5933,4902,356
-105,-97,-13,1178,5852,2719
-30,17,72,429,5296,6531
119,-7,64,-3994,-6488,9652
43,-61,-114,196,-8774,393
82,-105,22,-7432,-5188,-4730
-105,62,-78,570,5123,-7101
62,89,-119,21,1858,-5310
-47,-57,-99,-807,6212,-4155
117,106,115,-109,5844,-368
20,57,19,635,4012,2664
53,63,41,-87,3935,4563
-43,-21,114,-1336,2489,7325
-114,88,82,1900,-2481,12792
88,-15,-53,-4942,-2287,7444
88,10,111,-9468,4461,-4846
106,80,8,978,-5913,-2365
-76,103,105,-12660,7475,-3215
-123,14,-101,8132,1671,-9757
-71,70,-6,-1193,-6096,-4177
66,30,73,-1386,-3590,-7960
-102,117,-108,-682,-3320,-7094
83,38,-67,-1874,-1315,-5024
-89,-114,-82,-2279,-1206,-4364
-2,65,107,-876,-1436,-2865
-86,122,-110,2352,-3468,-2003
-127,50,76,-96,-2655,164
-125,88,-112,-578,-2839,594
114,82,-21,1004,-3230,1518
-98,-51,-101,2597,-2711,1928
123,70,-16,4579,1266,2962
-16,-28,93,5137,4165,3050
18,100,10,4694,7143,4880
118,37,66,5568,4751,4816
-43,122,-78,4102,3381,6343
-36,127,-20,727,2923,7201
42,-19,33,-1002,-3250,3117
-69,75,-117,-3080,-2641,1808
9,47,60,734,163,-1908
-52,-116,-106,3506,400,-2363
-120,100,-62,2937,-840,-1007
-96,-101,-10,746,-1054,514
-68,-120,-16,-582,-219,78
53,-80,51,-3320,2442,-204
-31,-50,56,-3995,-381,168
-34,56,-109,-143,-845,-362
-22,41,-91,2178,-310,-761
-29,100,-98,834,27,-669
-14,-83,103,-236,409,199
-101,36,-61,2079,4768,-4742
-33,69,81,5170,4291,-6758
-99,11,122,4684,1300,-5506
-94,69,-80,1398,1292,-3557
-102,-5,-11,243,2334,-2795
119,-9,-33,2251,4305,-1531
-34,15,-13,1027,5429,-226
5,-51,42,2606,4986,2907
54,-24,-30,155,3024,5447
111,62,127,-2915,-83,8327
40,103,-102,8108,-9167,1770
-55,23,0,-8351,1730,-2955
-44,35,-86,-6354,-9644,-5742
17,-14,-40,-534,1806,-5204
-42,-9,-106,1443,1886,-5503
78,12,-78,-1380,3983,-2928
-50,-112,-98,-834,5948,142
-111,-73,-93,85,4404,3383
-110,51,-65,-3461,3769,5719
50,-2,-5,-2412,1923,8279
-19,110,-102,-1638,-4003,5817
104,46,-71,-590,-5784,4640
-3,-86,-33,-4516,1743,-3079
36,-54,-100,-3846,-4441,-6246
83,11,96,-2637,1353,-5640
-72,-25,-29,2412,-3795,-7182
107,85,-33,-657,-6661,-7682
70,92,66,-3952,-5641,-7183
55,106,75,-3995,-1247,-2847
41,40,39,-1064,-500,-2267
5,33,-111,-1775,-3493,-925
-84,-1,126,-46,-2572,-1169
77,-118,41,41,-3538,-532
16,44,-36,1404,-4211,815
-23,-5,-84,1346,-2507,3631
54,-21,-2,-1907,-11,1266
-124,60,69,4167,1770,2430
80,37,-124,5599,1868,4488
-37,-49,103,4706,3316,6574
-98,9,61,4203,927,5837
22,-52,55,5205,1926,7665
-45,-43,-18,4066,-1702,5270
17,24,-3,1400,-3853,1897
-20,109,-73,-2363,-689,1880
-11,-3,-118,-2503,1097,1178
127,111,-60,917,-307,-159
79,42,12,2667,-1681,-1328
-116,-18,13,2822,-1144,-2195
-64,-62,8,1490,86,-2508
-12,115,20,428,242,-2303
-93,14,-58,3231,1355,-3573
58,36,127,2284,1520,-4756
107,109,65,2623,1677,-4204
15,18,105,1138,1858,-3696
-68,116,60,1279,3165,-3270
-63,12,-31,2049,4915,-1990
33,-112,-114,1433,4306,2096
-16,-105,-12,1796,3903,3640
-3,101,-32,649,2080,7056
92,-89,69,-43,-786,9741
19,-87,51,-1135,-5947,2207
-88,123,-19,-7541,-1596,-3338
-15,99,101,-2601,-5706,-7314
-122,4,-126,-4321,374,-4929
-123,-41,75,30,2951,-4782
118,-79,-5,2336,4877,-3527
32,-52,-125,62,4148,1375
79,110,-125,-40,5963,3207
-4,-78,119,-2732,4333,7077
15,-126,-108,1343,1054,10618
-51,-65,58,-1393,-1886,5348
40,23,-81,-8056,-3473,-1488
-112,-9,-119,-3445,-834,-5142
-66,120,-2,-2508,-2273,-6006
-49,-45,-53,-1287,218,-7351
93,-60,-36,1773,-7024,-8551
31,40,27,-3520,-5211,-7725
18,-67,-34,-4181,-3364,-6037
83,-93,-9,319,-2443,-4365
-117,-25,126,-634,-2928,-2594
50,-40,32,-1753,-4031,-2695
84,-113,58,329,-2279,-1123
-23,-82,-55,954,-3398,-748
-64,-76,80,1886,-3622,1186
-7,94,-37,768,-1463,1624
89,-67,52,1514,-17,2660
-3,-44,10,5387,2342,2852
-30,26,63,5547,5401,4086
35,-56,109,3834,5888,5800
-46,69,-26,5382,2262,4142
27,-33,-97,2512,4291,4155
-18,-86,-93,-697,1012,3893
-50,-70,-27,2450,-574,3158
25,-101,53,2267,-1168,2747
30,125,112,548,-786,1909
-20,6,98,1613,-955,825
-42,-26,-85,1030,-1507,319
-37,-91,-1,155,-1950,79
-121,-77,-37,-1366,3439,-1668
38,-89,-9,2915,-218,-70
