AccX,AccY,AccZ,GyroX,GyroY,GyroZ
-93,-78,28,-1111,4023,-3889
30,49,17,-529,4130,-4729
126,-37,122,-1800,4717,-4515
-87,-114,53,-1826,3548,-3882
-124,114,31,-3026,3146,-3133
-32,11,81,-2229,1953,-2370
76,-99,94,-1506,2262,-1442
124,-104,62,-931,2439,-1452
39,65,-93,2,1827,-1363
103,7,-85,1609,1005,-1020
-20,-106,78,935,-200,510
12,7,-73,-720,-2193,2295
-63,-8,104,-512,-3395,2016
102,68,-125,788,-3504,1665
-28,-62,-71,252,-4229,1254
-125,-19,40,983,-4989,1545
-80,-77,73,1750,-4604,1565
-1,126,7,3118,-4263,1863
-48,-72,-94,1488,-5032,2706
84,-122,-115,2364,-3604,2586
-114,-16,-66,1572,-3413,3395
-51,29,3,498,-3683,3692
-58,-52,78,1707,-1814,3168
5,-38,95,1464,-1940,1725
120,-1,106,882,-1125,1335
40,-24,75,786,-126,415
-53,-85,-48,1024,267,-987
-80,36,69,-123,768,-1746
-51,-55,-17,-1390,879,-1261
-54,88,-56,-658,-485,-379
-58,-113,-19,-1145,-567,-195
9,-91,-35,-729,120,-18
31,-28,-40,-1178,-334,-333
25,-36,-46,-342,-503,-6
-4,17,-31,-1025,-4,-118
16,-49,-51,206,129,-165
39,-31,-98,498,63,-259
25,-44,-96,399,-152,-268
37,-17,-96,279,-188,279
58,10,-93,61,-369,132
78,5,-99,465,-311,-76
88,-20,-94,737,-397,-337
83,-67,-87,1203,-269,-501
100,-57,-100,536,-93,-340
106,-42,-82,-53,-806,-215
100,24,-61,-1411,-589,-440
113,-19,-99,-763,63,-1036
127,-56,-123,331,173,-1063
88,-77,124,806,18,-878
37,-107,-121,690,12,-465
-105,65,57,1616,6452,-6776
7,81,-98,762,5105,-6381
80,-82,-121,-2549,2830,-5921
-110,-98,-1,-3222,1831,-4508
-24,73,-99,-3130,3754,-3811
-85,58,12,-3363,2984,-2998
-72,-3,15,-2198,2975,-2505
74,-77,5,-576,3165,-2442
92,14,100,2130,1760,-2181
-118,-18,50,-1653,74,-2763
-19,72,41,-125,-570,-867
120,-37,54,1273,-597,2071
38,38,-75,-776,-2139,3259
-28,-24,-105,812,-2739,2531
117,79,-112,790,-3373,2594
-25,115,-89,302,-3820,2401
-57,92,-70,2143,-3691,2523
31,-87,12,2197,-4599,3201
126,-100,-57,2496,-4093,2794
107,-51,20,-129,-3689,3541
-102,-102,54,92,-4524,3073
-31,-64,-94,-1142,-4269,2975
-106,115,91,-579,-3777,2729
-75,-43,-29,3054,-963,1291
12,-64,48,1540,-2303,1910
86,-97,-111,1851,-641,457
-16,-124,107,1387,-277,-815
-39,44,9,1669,591,-1306
-55,-19,-22,1829,341,-1376
-101,-32,-29,761,93,-644
-122,-37,-27,-396,-273,-407
-60,-73,-67,-603,159,-1143
66,106,122,445,378,-1686
51,100,-110,333,-465,-1780
42,108,-108,-943,-252,-1491
45,85,-117,-1481,-364,-1024
47,66,-111,-511,-362,-368
12,77,127,-27,-363,-244
4,-127,-114,-868,-533,260
33,-111,127,-561,-318,379
52,127,96,913,-439,242
41,-70,126,172,-376,638
37,-41,-120,-493,-502,496
46,-70,-128,62,-241,235
63,-73,-125,152,-198,257
65,-60,-121,-104,-111,315
96,-74,114,194,257,91
-105,-91,72,469,217,50
114,-91,88,319,-253,344
113,-74,99,-195,272,278
-71,51,59,-3541,2463,-2710
11,60,-103,-551,4771,-5223
-30,-48,61,-490,4438,-5510
-124,-35,-56,-2413,4205,-5276
-12,125,-24,-1880,3165,-4597
-25,89,-54,-2594,3522,-3898
117,93,-24,-3703,2952,-2794
-24,41,-17,-3007,2678,-2270
52,-31,3,-2153,2619,-2264
-126,110,-31,-702,2396,-1908
29,45,-127,-107,1546,-1671
-41,-73,-42,665,-1045,-368
-21,124,-61,289,-198,800
-56,-75,21,975,-1736,1411
-45,-86,85,1308,-2670,2535
100,2,71,1908,-3060,2305
64,-118,15,790,-3089,2537
-78,-56,93,1123,-5508,2356
-38,-50,75,1178,-8416,2428
65,124,74,3397,-6373,2676
126,-104,-63,2159,-957,1676
-56,-65,-23,2097,-2400,3336
-21,53,77,-1470,-4926,4434
-46,-63,-92,-279,-5924,2692
-19,104,8,2187,-2987,1384
38,-112,-87,2305,-1871,673
-85,-85,90,2206,-95,229
-38,-93,-22,1611,229,-1086
-120,-115,80,-598,1441,-1603
-105,3,17,-692,1608,-1937
-106,-101,-39,504,802,-1411
-110,-52,-11,-207,-493,-177
-61,-54,-23,-576,-194,-365
-9,-77,-26,-316,215,-809
34,-84,-22,-435,422,-904
38,-105,-57,-491,689,-1040
30,-123,-99,-625,527,-887
52,-121,121,-813,487,-348
52,-106,112,-393,-141,134
-3,-98,-85,-195,-748,505
71,-72,-91,197,-131,802
72,-25,-67,77,-569,601
80,-20,-98,206,-197,316
84,-20,-109,302,-445,221
82,-25,-107,502,-570,293
84,-77,-118,1840,-476,-34
85,93,-115,3896,-599,-289
81,55,-110,4429,-352,-852
-124,48,-119,2256,570,-696
-99,72,-92,-534,309,201
-122,-126,73,143,3938,-5351
25,84,24,-410,2799,-5041
-109,96,-13,-1382,3113,-5449
-30,32,12,-1253,3083,-5479
-73,52,9,-2962,3337,-4503
-19,21,-20,-3560,3848,-3286
13,50,28,-4600,3378,-2371
49,-121,66,-1689,3066,-1519
-64,127,72,586,2469,-1246
-91,-92,-19,1265,2856,-2192
29,85,9,747,2678,-3240
117,-122,-105,-542,788,-1917
-71,-41,10,1285,-899,414
19,-108,-72,315,-2992,2836
-3,-46,58,713,-3071,2500
-123,69,72,1184,-3494,2198
-41,-101,115,-38,-4233,2005
77,-97,-39,1304,-5855,1948
124,-121,46,1430,-6080,2314
-63,-112,19,2112,-5121,2055
-32,-109,14,1252,-4077,1874
95,-70,52,789,-4572,2598
-80,-54,-10,637,-5245,3584
101,-73,126,1154,-4192,2842
62,-35,-13,1320,-2593,2002
19,68,1,-134,-1430,755
116,-23,-49,-266,418,-612
-50,84,-6,1733,1147,-1355
-106,108,-128,1453,616,-707
116,49,50,1424,111,-446
-118,32,9,814,122,-195
-112,31,-16,-22,-169,-25
-81,-2,-30,80,-73,-423
-32,0,-14,-317,22,-537
-22,-21,-13,-794,-537,-433
-22,-94,-43,-309,-460,-310
-24,-87,-64,-649,-409,-83
15,-78,-77,-484,-394,-58
14,-69,-79,-279,-387,-117
28,-44,-99,-607,-268,-100
-13,-47,-111,-423,-479,-138
-4,-37,-112,-565,-508,72
9,-6,-109,-781,-697,239
13,17,-82,-579,-749,346
29,33,-75,-569,-578,247
34,52,-62,-530,-393,184
40,63,-57,-649,340,-6
51,58,-36,-165,110,100
57,57,-40,29,25,-21
87,60,-53,128,265,-99
-87,-110,56,1406,4758,-5102
-121,-82,-59,550,4383,-5410
-121,26,-80,-2118,4380,-3714
-10,-2,-106,-1996,4391,-3669
-37,-8,-82,-1643,4481,-3574
36,43,-58,-1992,4341,-3087
90,65,39,-2246,3507,-3022
-73,2,11,-1007,3538,-3115
-63,-127,-43,564,1878,-3879
126,5,-111,-634,133,-2023
17,110,52,498,487,-852
-38,-8,40,1579,-300,674
39,35,-112,-218,-1932,2441
-97,-95,-104,1321,-2730,2125
83,79,103,1730,-2963,2273
2,-111,34,1252,-3151,2381
113,14,-112,836,-6122,2556
-102,-2,29,492,-6667,2404
26,-111,-73,2085,-4294,1452
46,125,-12,1854,-3268,1277
92,69,28,3137,-4158,2354
-39,101,10,2014,-2429,3225
65,-88,117,1137,-3457,4020
34,67,91,-1482,-3591,4880
90,0,59,738,-1068,861
84,55,41,3478,161,-2522
5,-117,-90,1299,1341,-881
-93,100,85,-534,960,-808
-102,-99,-18,1809,172,-951
-71,-63,-31,434,211,-623
-49,-52,-58,-758,92,-441
-22,125,-80,245,-171,-678
-1,-125,-78,13,4,-858
20,97,-105,-15,387,-1468
67,98,-100,250,662,-1418
65,94,-91,323,-57,-800
45,103,-72,-268,-486,-302
50,100,-82,-405,-381,-11
65,105,-95,-141,-292,199
67,-119,-104,-224,-483,549
59,-93,-101,-399,-694,696
71,-84,-90,101,-461,767
90,-67,-92,324,-320,687
89,-47,-95,134,-387,529
88,-28,-89,-198,-399,332
94,-33,-107,-202,-127,-42
101,-52,-124,215,-168,-290
114,-52,123,-45,-182,-385
126,-60,116,-149,-163,-429
122,-82,106,60,-267,-536
27,9,120,-695,5227,-4902
-34,-101,-52,-1123,5259,-6466
-126,-56,-47,-2690,3733,-5268
66,-70,-12,-2862,4335,-4601
-16,-111,37,-3062,4291,-3316
-32,-91,11,-3712,4337,-1918
18,104,68,-2922,3080,-1865
-70,-35,29,-482,4331,-1970
109,-118,-112,75,2449,-2026
-80,28,58,-795,932,-1821
-28,4,-50,390,316,-894
-106,-56,46,752,-1575,1033
45,-92,-95,-162,-2553,1604
-52,-10,-59,1648,-2703,1634
114,126,-75,1443,-3125,1297
-60,-101,-57,1033,-3809,1357
32,-107,3,2286,-4904,1990
99,-78,76,1791,-5624,2429
-73,-55,97,1925,-4824,2090
-7,-48,-106,1783,-3835,1894
-15,-91,-76,2339,-3795,2088
-8,-93,-68,2166,-3661,2693
28,117,-123,2070,-1962,1746
33,80,126,2375,-1054,2428
3,-86,-22,611,-966,2441
-69,34,120,3488,-252,795
40,-124,-89,1389,-389,652
-43,63,105,808,-42,92
-76,-8,55,1113,-71,-265
-87,-53,-24,1128,-16,-665
-82,-106,-59,1207,-145,-951
-48,126,-89,349,-16,-993
-32,120,-87,-820,-278,-948
-16,73,-77,-494,-553,-1014
23,43,-67,-342,-417,-1084
34,25,-59,48,-320,-1042
38,4,-76,342,-215,-877
34,20,-80,-142,-281,-411
28,30,-92,-424,-357,89
37,38,-107,-240,-354,378
42,60,-109,-71,-304,537
52,79,-123,83,-192,540
66,101,120,175,-249,536
69,116,114,64,-226,487
71,123,110,84,-271,412
79,-124,103,114,-228,312
86,-119,112,203,-265,224
88,-118,101,272,-149,-27
82,-117,104,89,-195,-219
90,-121,100,-177,-193,-258
-84,-1,-66,-1173,4104,-3662
79,-24,-76,-696,2765,-5029
-10,20,83,-1355,2556,-4975
-126,66,-106,-2509,5352,-5269
116,-55,-45,-1488,3413,-5044
67,-73,11,-3269,2842,-3606
-112,110,54,-2969,2487,-2456
12,114,62,-3464,2788,-2014
71,-91,-21,-366,3526,-2691
-128,45,-79,1292,2601,-3096
-81,-33,51,100,1188,-2234
-21,111,-73,761,-313,-1248
-30,49,-53,1065,-1419,1973
90,-31,-90,-1315,-3003,2434
-44,23,-62,619,-3096,1515
108,-77,2,-346,-3710,1322
-73,-69,60,83,-4319,1155
6,107,51,2189,-4306,636
64,99,86,3307,-4423,1583
88,116,83,3160,-4387,2220
-121,-123,90,3301,-4461,2671
-4,22,-108,907,-3792,2784
109,-24,-84,1658,-3317,2365
112,-14,-19,516,-3332,2638
52,-119,-14,1570,-2046,2167
-20,-105,-4,1406,-1373,2154
99,-48,33,177,-1193,1512
17,89,-114,2233,245,-667
-65,70,93,1780,9,-1090
-112,44,32,273,251,-593
-127,-34,5,512,126,-573
-97,-78,-44,645,128,-719
-59,-79,-49,45,25,-786
-34,-114,-62,58,-89,-912
-14,112,-59,-24,-236,-1005
4,90,-64,38,-7,-974
18,79,-74,-96,-93,-753
9,76,-83,-79,-180,-388
9,75,-90,-68,-227,-151
29,94,-105,-77,-267,230
40,105,-114,41,-182,239
68,-126,-114,78,-44,378
59,-118,-126,208,-91,261
61,-114,-121,256,-447,296
70,-101,121,-23,-259,231
72,-100,125,9,-348,264
76,-95,117,84,-341,198
80,-88,117,30,-327,73
86,-86,112,14,-310,-89
95,-87,106,-100,-342,-193
-28,10,87,596,3914,-4732
115,90,96,-1869,5062,-4989
57,31,126,-1125,4387,-5084
64,-16,7,-2562,4357,-3848
-12,-93,-5,-2605,2971,-2813
-12,-126,-35,-2743,2561,-1728
-92,74,33,-22,1663,-946
-66,-43,13,871,5060,-3269
96,52,82,17,3015,-2942
-2,-75,-12,-502,1157,-1239
96,-82,109,306,557,-316
46,-9,-58,211,-2594,1734
-103,-41,78,-962,-3347,1135
69,16,-93,1174,-4179,1685
-47,-93,-30,148,-5194,1668
99,-67,-16,829,-5363,1303
-97,-109,12,2295,-6018,1388
27,94,20,5050,-5733,2157
103,-126,-28,4380,-4712,1597
110,55,-122,855,-5065,3381
45,-3,-17,1508,-5593,3961
-114,48,102,1450,-3234,3169
39,-29,-77,-2069,-1079,2088
-65,-15,53,1060,-908,233
31,-6,-6,616,56,437
115,11,121,-811,-266,-337
100,-124,13,616,2,-494
-105,82,-86,382,162,-466
-52,30,100,930,654,-898
-30,-2,31,934,787,-1389
-17,-18,-30,147,541,-1549
-1,-24,-26,-720,48,-1163
6,-63,-46,-660,-130,-1044
11,-73,-58,-514,19,-718
20,-98,-76,172,-30,-446
38,-90,-95,270,-212,-84
54,-97,-91,308,317,-717
35,-92,-65,995,599,-411
62,-46,6,129,-522,672
79,-31,-3,-320,-746,1058
49,-46,-14,369,-920,1350
61,-40,-14,569,-780,1327
106,-50,-54,425,41,404
96,-69,-64,884,545,116
88,-80,-52,841,107,73
113,-78,-55,273,381,-14
-79,-99,-68,354,223,-150
-62,-101,-50,128,0,-229
-104,-122,-55,-17,78,-522
-99,-126,-45,-344,-202,-253
-84,-93,91,-808,4019,-5939
-23,-13,0,-621,4683,-5683
-63,-32,80,-1947,3985,-6134
-17,-82,29,-2006,4177,-5611
56,105,1,-2595,3586,-4624
46,90,3,-3067,2947,-3074
34,13,54,-2710,2026,-2492
7,-100,61,-1114,3342,-1802
-30,44,-75,1125,3729,-2542
86,-92,-84,307,3483,-2933
123,-124,71,-310,-726,-817
-6,-82,-14,-361,-1774,2203
-106,-64,-87,958,-2923,2871
30,7,55,-266,-3429,2706
-38,107,99,1071,-4064,2287
-8,-99,-82,420,-5243,2090
68,-109,-31,1168,-5493,2216
-104,-126,83,2071,-4988,2264
-69,-74,-38,2775,-6127,3116
-25,-62,-96,1812,-3882,2343
25,-39,-58,1862,-3316,2505
91,-15,37,522,-3631,2449
-95,-41,88,580,-2498,2714
99,-122,-7,2857,-1019,1931
97,-21,-12,1984,-1317,1159
53,112,85,3923,198,-200
-8,81,54,3496,-281,-392
-84,81,72,1446,-546,670
-115,95,71,-152,-232,633
-111,51,26,-374,-57,-390
-60,-20,-10,116,245,-1736
-3,-82,-44,276,312,-2090
69,-106,-55,-1936,1123,-1879
48,15,-78,-1193,765,-1698
49,13,-73,237,-347,-470
58,76,-75,-331,-776,-269
54,100,-78,-482,-555,-137
42,92,-89,150,-709,-40
41,-128,-77,228,-671,31
62,-102,-81,-92,186,136
57,-125,-59,818,-96,236
67,-91,-52,671,-538,192
69,-45,-59,-298,-580,331
78,-45,-79,-467,-163,-16
90,-36,-94,-187,48,82
92,-33,-103,-230,-163,-111
104,-30,-98,-304,30,-144
106,-58,-104,15,-126,-365
121,-36,-102,-419,-30,-69
-120,-66,-102,-69,-16,-181
62,-8,81,-267,4653,-3235
20,-94,39,-707,4607,-3394
96,99,-88,-879,4590,-3560
-26,40,73,-1028,4550,-3800
19,31,63,-1934,4024,-3146
-13,28,46,-2425,3545,-2229
83,2,79,-2334,3013,-2054
-52,-76,68,-1093,3320,-1774
60,97,-18,677,3814,-2596
101,-41,-80,2508,2348,-3194
-100,-110,-79,-899,375,-1324
94,41,9,1424,-75,498
-103,85,104,-1939,-1533,1757
0,-118,-114,541,-2678,1571
90,0,-78,320,-3369,1399
-68,66,-32,337,-3959,1538
81,90,-11,1689,-4237,1919
-45,98,13,2245,-4632,1926
29,79,-58,3265,-2774,2163
-9,-82,-111,2121,-6919,3826
54,-7,-56,-344,-4631,3177
-112,-65,97,1247,-3757,2635
-58,-62,-102,1052,-2732,2836
105,-83,-106,935,-2053,2489
-15,-79,126,682,-1786,2217
115,-75,68,1086,-775,874
-34,80,-80,2065,-23,-815
-83,43,-118,1061,244,-1031
-84,-31,91,818,449,-455
-85,-60,58,409,-151,-23
-56,-55,44,14,-331,-202
-20,-106,5,206,146,-670
-1,122,-15,291,219,-875
9,109,-24,-255,205,-882
23,-110,-42,-1664,33,-643
31,-127,-57,-1505,-486,-396
78,78,-60,851,-209,156
46,122,-48,812,-385,-67
39,-91,-47,-482,-160,-56
50,120,-67,328,-328,-42
82,-110,-64,96,-328,245
79,-83,-55,-326,-475,241
81,-73,-44,-352,-383,264
96,-75,-46,46,-357,300
99,-49,-45,-184,-355,282
93,-31,-49,-288,-387,141
103,-26,-50,-316,-380,51
110,-34,-56,-75,-315,-94
116,-49,-63,89,-191,-214
123,-46,-70,-225,-170,-239
21,-52,13,-1112,5043,-4037
78,-128,107,-1574,4284,-3813
-66,80,124,-1358,3956,-3325
-1,52,120,-1765,3903,-2985
23,74,-86,-2763,3457,-2011
-87,30,-59,-1855,3263,-1826
79,-54,-86,-267,4812,-3452
72,-70,106,389,3175,-3256
-88,110,-43,-738,2510,-3034
117,-24,20,287,1020,-1605
26,87,-33,380,-761,1475
47,9,-10,-270,-2372,2210
-24,-8,-73,-9,-3519,1584
86,57,-44,461,-3694,1675
-35,-101,45,-625,-4961,1703
90,-128,56,618,-5286,1104
-51,109,93,1781,-5004,929
-101,95,126,1842,-4550,949
-79,105,-33,2206,-5164,2071
63,109,-95,1500,-3397,1901
-124,125,-31,1313,-3768,1975
117,-119,25,196,-3546,2162
87,41,-7,1796,-2881,1582
47,76,53,2350,-1482,1352
-105,106,76,2277,-1698,988
103,57,-5,2894,-588,939
13,124,0,866,-446,742
-92,74,-125,485,150,-270
-79,-3,69,925,476,-1127
-52,-17,24,-141,691,-1285
-31,-89,-11,165,325,-1220
4,-110,-15,-23,61,-1226
82,100,-12,52,56,-1162
55,87,7,-403,43,-1178
55,36,-15,-494,134,-975
84,34,-18,-177,-171,-21
92,64,-32,173,-204,-105
92,93,-37,-46,-144,-213
97,104,-52,-294,-209,-36
100,95,-47,-50,-377,485
106,-122,-33,30,-393,810
120,-95,-24,45,-378,878
120,-80,-34,204,-397,771
89,-72,-18,260,-724,751
91,-51,-15,38,-761,833
101,-46,-50,-71,-420,266
117,-60,-70,-93,-16,-456
124,-69,-76,-97,-24,-698
-124,-77,-87,-303,-77,-904
-126,-104,-86,-461,-97,-964
99,-18,79,601,5398,-4774
-88,-49,88,-464,4264,-3819
104,-128,1,546,4667,-3576
49,-116,23,641,3129,-2904
110,-69,21,-718,3003,-1506
-53,14,-55,-1501,3220,-1815
-67,-29,86,-240,4495,-3132
55,-122,-47,869,4361,-3740
70,-66,38,1854,2861,-3291
-48,125,80,-959,-864,-896
30,4,89,-1818,-1493,1205
52,81,50,83,-339,694
-128,7,81,-778,-1249,1215
-74,-18,43,1414,-2313,355
38,58,80,-105,-2882,954
-33,63,96,200,-3811,1056
87,77,90,287,-4782,1140
-48,113,-82,-123,-6067,1346
69,81,61,-168,-6300,1266
-65,-62,-10,4344,-4648,1663
-83,126,-54,-550,-4733,2729
-44,59,65,717,-5757,2937
118,-123,-117,330,-4287,3293
-107,-59,-21,158,-3283,2534
-62,-59,26,1334,-2168,1247
-40,7,60,841,-1251,644
31,-6,126,113,502,-398
-63,-81,4,373,389,-1009
-103,103,-94,665,290,-1113
-41,37,81,508,1080,-1413
34,-65,5,1277,1184,-1058
-4,-85,-20,918,27,-634
-12,127,-8,560,-296,-700
10,78,-19,333,155,-492
12,44,-31,580,-20,-176
38,56,-28,275,-230,367
61,84,-33,121,-352,523
65,98,-34,173,-355,600
72,-123,-40,-22,-305,577
65,-105,-48,128,-406,565
70,-81,-52,-107,-299,507
80,-69,-64,-149,-466,454
80,-59,-57,-142,-541,377
105,-46,-45,-246,-397,178
122,-60,-49,121,-298,-19
100,-72,-47,150,-291,-217
87,-73,-40,-213,-308,-161
109,-88,-40,-22,-144,-194
-119,-83,-51,103,-42,-383
-107,-92,-69,-14,-16,-504
-64,14,-14,69,4094,-5711
118,39,87,-1566,4744,-5069
81,41,-47,-2007,4631,-4761
88,14,-10,-1234,3829,-4225
89,63,-19,-2393,3705,-3425
112,61,42,-2532,3264,-2461
-1,-9,38,-1247,3515,-2359
40,-91,78,-505,2749,-2781
-115,-120,25,-678,2751,-2479
115,74,-76,-612,2026,-1789
-38,81,-69,82,1555,-2190
60,113,126,259,-363,454
36,-50,31,-950,-2562,1935
-97,-96,-126,-134,-2708,2074
72,30,-103,676,-2853,1998
-25,-87,-75,348,-4079,1663
45,-83,-74,421,-4693,936
106,118,-80,1727,-5371,704
-76,125,-37,1673,-5715,1700
3,-124,61,3069,-6135,2788
53,-86,-87,1989,-4405,2359
92,-57,-33,1918,-3295,2295
94,-67,-58,1397,-3446,2352
-87,-90,-51,866,-2757,2513
112,37,-78,-687,-4234,3612
20,-38,-95,1278,-714,771
63,39,63,4495,218,-1525
2,-83,-29,1045,791,-141
-117,59,95,-13,864,-421
117,-25,50,275,351,-543
-112,-51,-1,254,-40,-7
-58,-44,-39,19,-165,143
-40,-84,-63,858,-6,-433
-14,-115,-86,414,398,-1020
3,-96,-68,-1759,776,-1303
0,120,-53,-1595,-419,-607
16,112,-39,-493,-986,324
38,127,-36,256,-819,186
43,-113,-44,233,-607,27
26,-79,-46,-563,-374,140
26,-80,-47,-190,-311,197
39,-52,-52,-229,79,30
63,-41,-59,50,-11,44
-104,-10,-70,61,-120,325
14,-37,-90,502,-587,-106
28,-30,-62,-603,-717,-68
110,-32,-89,-535,-297,125
97,-81,-110,896,-366,-177
109,-49,-113,-200,166,-334
113,-59,-112,-387,90,-222
21,-103,12,-217,5060,-4277
-18,107,-92,-1162,4736,-4447
108,27,-102,-736,4724,-4378
-22,30,3,-1252,3739,-3814
-109,106,30,-2248,5718,-2674
120,67,-19,-2199,4438,-3638
112,50,19,-2527,3675,-2677
-87,-128,15,-523,2391,-1555
-58,47,-60,900,2032,-1840
-51,-35,37,-934,1644,-2103
48,13,-42,-313,134,-19
-118,-79,-124,615,-919,491
9,-85,76,-846,-2489,1900
-103,-19,-74,426,-2802,1170
59,66,-32,1131,-2604,1063
-78,108,-42,675,-3034,1243
18,94,-53,932,-4408,1488
-66,120,-63,808,-5604,1718
-41,-105,34,-454,-7036,1916
126,50,100,1902,-6516,1834
-76,126,-45,118,-3005,650
-57,99,67,1832,-3359,1261
113,-125,127,1988,-5022,2514
-121,-33,-97,84,-3586,2395
101,21,-25,3550,-2372,994
-31,118,28,1929,-1380,1396
64,-73,-122,122,-1169,1312
-14,42,-39,2914,-272,-313
-49,-59,-67,-1282,304,0
-99,64,89,-899,294,-456
-97,-6,61,459,19,-674
-91,-10,40,761,81,-488
-69,-66,-6,1265,296,-766
-20,-81,-27,558,173,-938
13,124,-20,-243,107,-768
-1,98,-14,-171,-221,-350
1,85,-21,246,-10,-332
42,-127,-35,-388,63,-159
50,-115,-62,-256,-254,-187
45,-99,-72,-601,-382,-50
24,-76,-59,-747,-617,106
71,-56,-44,-528,-354,99
88,-57,-57,228,2,-108
62,-64,-89,431,-127,-267
52,-36,-82,-665,-358,62
91,-56,-75,-238,-284,166
-113,-62,-88,512,-216,-11
105,-40,-76,128,-606,-200
52,-48,-54,-810,-338,-86
66,-65,-63,-394,-373,333
-24,-77,34,1487,5408,-5882
-119,22,-41,-973,4950,-5046
61,2,2,-1541,4000,-4259
65,-62,-3,-235,4137,-4204
39,-25,31,-1794,3955,-3626
40,12,65,-2756,3030,-2454
88,25,101,-3306,2437,-1706
-12,-11,-90,-2674,1836,-953
-47,-53,-77,-690,2266,-507
63,-40,85,-286,2620,-1623
-43,78,-69,-241,1628,-1999
-56,-16,-40,864,639,-994
-41,46,1,-959,-553,1299
46,-98,88,-601,-2444,1045
-95,49,31,104,-3335,1238
23,72,16,452,-2636,740
-89,76,-44,1597,-3342,535
35,117,-86,1403,-3971,930
105,-123,-100,1213,-4972,1120
-69,-111,4,833,-6868,1724
35,104,94,2850,-7018,1910
108,119,81,1353,-3191,864
106,-108,-119,1687,-4170,1881
95,-110,-54,1068,-4556,2060
-36,93,48,1439,-3376,2080
-55,122,120,1770,-3481,2041
42,94,-107,2501,-2123,1159
107,-113,-69,1963,-107,236
-53,94,-16,2092,1109,-1384
122,89,114,326,1438,-1362
117,7,-1,-294,1311,-1449
120,-54,-41,-70,386,-1142
-99,-107,-81,291,-40,-825
-47,-123,-89,459,302,-779
-36,113,-67,782,-263,-741
-17,100,-31,295,-568,-680
22,89,2,-106,-472,-292
6,71,-16,-1,-320,-104
-21,82,-24,-165,-417,179
-7,94,-44,-135,-276,448
17,115,-74,207,-182,536
33,-125,-95,418,-173,445
42,-112,-105,388,-203,331
44,-128,-120,837,-237,71
43,119,-116,669,-32,-32
55,-127,-103,-157,-54,202
86,127,-115,-211,-280,370
-117,-126,116,-250,-75,200
61,-60,-126,-1618,-681,229
37,-81,-101,-1287,-800,98
102,-15,60,32,3936,-4934
114,-12,33,803,4170,-4971
-105,98,-95,-1794,4281,-4493
-59,-10,41,-192,4100,-5236
-47,53,105,-1822,3388,-4205
-63,80,-114,-2826,2661,-2897
-30,51,-70,-2652,2430,-1920
-58,-43,-82,-762,3630,-2058
59,111,-42,1113,4279,-3601
111,32,119,785,2834,-3451
-71,54,-18,-51,1397,-2003
43,4,-66,-150,-1284,660
62,96,10,1075,-2996,1922
-16,105,-122,-226,-2313,2361
-127,-69,-96,1468,-2649,2291
-51,76,-48,450,-3612,2730
59,79,-47,1051,-4134,2570
-57,94,-72,1885,-4643,3290
2,-101,3,110,-6230,3295
124,-86,31,1574,-6242,3738
-81,-41,93,-91,-4448,2661
-24,110,67,1669,-3465,1709
-114,-98,19,921,-3938,3573
92,-101,-26,835,-3724,4122
-18,-71,4,1810,-1349,2325
-82,32,-117,1881,-725,130
1,-52,-8,1957,-102,-1548
-65,121,125,753,483,-1617
-89,-78,37,1667,598,-931
-68,-46,22,357,43,-383
2,-93,-13,90,-123,-829
34,84,-25,693,107,-1435
25,41,-33,232,216,-1344
24,23,-45,-217,68,-892
28,47,-65,-428,-212,-496
31,86,-74,-491,-462,-316
42,100,-72,-172,-370,-34
27,113,-62,-54,-386,319
29,-114,-44,-159,-455,615
43,-79,-39,-622,-512,668
68,-57,-49,-939,161,-205
89,-29,-42,163,-294,132
84,13,-46,-277,-399,229
81,10,-56,-519,-372,-128
85,-18,-79,-186,-367,-276
95,-20,-81,-282,-297,-354
102,-31,-90,-200,-231,-492
110,-22,-85,-458,-194,-482
114,-22,-79,-468,-320,-419
119,-40,-78,-71,-364,-342
100,-81,63,370,4260,-3420
-13,87,-104,327,4675,-6133
118,-124,-127,-1923,4240,-4583
18,74,29,-1472,4347,-4432
19,67,86,-1922,4061,-3751
37,67,109,-2686,3920,-2675
-120,-124,-89,-3925,3009,-1260
81,-27,57,-1806,3896,-1646
-19,86,-11,471,2662,-1723
-108,106,42,341,3057,-1837
115,18,92,-306,1577,-2026
-119,-29,12,1317,-1018,-797
-87,-74,-52,487,-2859,1283
-62,-115,-83,-52,-3387,2512
120,-20,-108,1138,-3922,1647
20,78,-113,1423,-4830,1740
-59,-113,-64,799,-5375,2070
24,100,-12,1353,-5220,2077
-124,-121,36,2319,-5968,2750
-106,-81,69,964,-5090,2448
-59,-116,74,661,-3996,1872
33,122,108,1041,-3423,2180
59,110,-37,2401,-3663,2498
-78,-121,70,2322,-2866,2724
-105,-118,15,2200,-403,1225
-108,-16,83,1277,-1872,1238
13,-34,37,500,-486,28
-28,-125,-65,387,530,-1379
-29,125,88,-1060,1171,-1521
-29,-38,-19,151,1000,-2022
-15,-89,-49,907,602,-1940
7,-106,-69,403,208,-1725
51,120,-84,-6,208,-1449
52,86,-85,6,-30,-1444
52,52,-75,207,-114,-1056
37,52,-60,-51,-181,-643
29,57,-46,-354,-371,-114
24,70,-44,-413,-418,527
47,91,-44,-167,-231,630
79,-113,-42,-269,64,1011
94,-56,-26,-365,-457,1389
112,-42,-36,81,-647,1470
127,-14,-44,131,-458,1159
120,2,-54,-165,-398,657
119,10,-64,-294,-215,204
115,1,-69,-255,-128,-156
111,15,-73,-763,-245,-355
126,-13,-88,-162,-219,-740
-120,-40,-91,454,-266,-866
-109,-30,-91,-114,-283,-943
-43,-93,53,-1674,3522,-3466
56,-59,-25,-271,4698,-5120
-118,-83,103,-2009,4108,-4540
-113,126,20,-1816,4274,-4704
-87,120,59,-2701,3941,-3892
-39,100,54,-2393,4163,-2947
78,74,64,-1492,4202,-3163
72,-91,7,1172,3774,-3708
90,103,-102,122,2863,-3630
-81,-18,25,-990,1999,-3099
-119,29,111,55,744,-1963
20,-36,-103,-230,-1327,1677
116,106,30,354,-3157,2902
44,-31,-46,-339,-3403,2611
-62,38,-36,770,-3886,2471
97,-111,-26,692,-4670,2130
-55,-103,-42,863,-4856,1854
-31,-103,78,911,-5823,2261
77,86,37,3338,-4988,2258
61,-51,-104,1222,-5127,2441
125,125,78,3071,-3763,1911
-48,-59,111,1472,-2096,2864
-28,8,14,-155,-3742,4309
-53,-50,70,611,-2519,2414
54,40,-19,4918,-916,1042
121,-18,-15,2356,-891,1048
-42,-32,-50,337,-307,70
-66,-116,110,-570,505,-744
-53,15,35,247,429,-1502
-20,-77,-34,565,309,-1696
-7,-103,-60,4,148,-1609
12,112,-80,-253,234,-1497
18,54,-88,133,-213,-1156
19,38,-88,349,-299,-817
21,38,-87,9,-224,-624
26,46,-80,-348,-422,-223
23,55,-83,-515,-572,186
25,95,-77,-797,-715,660
23,120,-53,-591,-837,825
45,125,-77,172,-399,956
66,-81,-68,71,-283,976
74,-46,-80,-280,-295,896
81,-17,-92,-430,-289,581
80,-7,-109,-539,-202,160
72,15,-118,-903,-414,-131
84,-28,-124,41,-121,-478
93,-40,126,337,-158,-567
95,-17,125,-396,-341,-482
101,-31,126,-376,-277,-553
100,-46,127,-228,-349,-618
-71,-32,-6,-724,4761,-3865
78,125,60,-1463,4888,-4408
67,66,-28,-1943,4171,-4030
-100,13,-56,-1826,4222,-3887
-72,4,-12,-1752,3945,-3313
111,63,-49,-2361,1740,-2134
80,74,-54,-2802,3207,-1155
-19,29,-88,-2445,4202,-1236
79,-84,126,125,4081,-1934
-19,-64,-8,252,2512,-3622
-49,15,16,-741,2197,-4455
70,-77,126,1158,-725,12
-64,59,54,-258,-2569,2564
-59,-95,11,-603,-3459,2797
98,6,-8,1323,-3486,2104
-24,-95,-4,697,-4057,1774
-118,-84,10,1203,-5081,1372
-26,-78,23,1098,-5860,1644
48,-88,10,837,-5542,1479
63,55,-4,2935,-5693,1076
110,111,56,1558,-4459,1558
-91,95,-125,1251,-3820,1951
-101,110,105,1391,-3755,2293
-68,89,-7,1507,-3489,2216
-65,-86,72,255,-2481,2554
-9,92,67,2286,-1655,839
-124,88,17,2510,-167,-399
-44,-119,-25,503,216,-834
-75,13,-100,1121,509,-1013
-95,11,75,-101,832,-856
-73,-70,-4,-202,649,-926
-44,-104,-40,-195,264,-1038
-16,117,-69,42,120,-922
-16,108,-80,-46,47,-981
-2,66,-86,130,97,-694
-5,73,-84,97,-302,-326
4,83,-76,-11,-461,24
21,110,-72,18,-550,76
24,101,-64,714,-575,-21
28,125,-69,516,-457,85
38,-88,-71,-607,-222,411
40,-105,-92,-114,-361,320
54,-101,-98,217,-273,186
62,-85,-105,6,-208,25
64,-82,-115,-124,-291,-58
77,-91,-124,-61,-267,-130
79,-89,-122,-137,-334,-103
81,-90,-124,-145,-271,-114
87,-86,-124,-204,-283,-148
98,-86,125,-169,-270,-203
-73,-23,9,-408,4028,-4800
47,-34,-86,-702,3871,-5255
41,10,-112,-1411,3415,-5520
92,21,-100,-1595,3104,-5311
114,79,-28,-2654,3108,-3831
82,64,38,-2764,2621,-2782
-8,20,97,-2020,2597,-2478
-75,-85,85,-350,3490,-3110
45,18,-63,1203,4079,-4187
40,-12,87,-159,2219,-3217
-98,-18,-17,-1952,227,-1562
-2,25,-36,83,-798,-209
-53,118,41,720,-1010,1699
82,56,96,-310,-1552,2367
-25,-101,86,84,-2617,2394
-70,32,109,124,-3977,2777
52,71,-124,219,-4745,2397
-78,-116,-52,187,-5921,2511
-53,-100,40,-666,-6754,2419
38,73,36,3223,-6207,2657
114,-123,87,1693,-4715,2403
-65,-45,-111,497,-3828,2360
-51,111,-54,1619,-3580,1821
-39,115,-36,1974,-2950,2109
-80,29,92,3614,-458,1472
55,101,112,3718,-155,1492
-39,-99,-57,4026,-59,1974
63,60,11,-467,-1459,1837
-76,22,-37,-2878,-1481,-74
-56,101,57,-631,310,-1071
-52,0,-17,540,955,-1836
-23,-44,-72,497,955,-2012
14,-75,-101,169,620,-1684
35,97,-101,192,132,-1451
39,39,-77,351,-87,-1040
50,37,-66,-241,-73,-525
52,59,-58,-516,-446,-254
53,59,-71,-160,-162,-13
41,98,-79,-235,-403,261
52,-125,-79,-287,-518,549
68,-93,-81,-397,-351,637
98,-37,-47,-899,324,798
91,-54,-36,325,-720,938
125,-2,-23,-22,-415,804
124,-2,-33,-367,-418,281
116,1,-38,-405,-382,184
125,-25,-47,-261,-344,17
-120,-40,-56,-206,-277,22
127,-69,-61,-128,-384,-32
-118,-68,-71,-375,-335,-86
-8,68,41,-721,4045,-5984
125,51,52,-840,4288,-5100
98,60,74,-1288,3491,-4982
-85,16,75,-2524,3416,-4077
-21,-39,16,-2998,2973,-2924
53,-105,-60,-2695,2181,-1755
-2,77,-77,-2379,1936,-1125
-78,1,-111,-1548,2411,-1419
47,115,111,500,2844,-2064
-65,50,-29,1293,3129,-2276
-83,108,-7,-67,1289,-1742
40,103,-103,542,-1127,162
55,-56,-20,-955,-2418,1888
-40,103,-85,-264,-3331,1967
90,-23,-48,378,-3090,1986
-95,113,41,-263,-3850,1415
-18,106,56,813,-3736,669
28,105,16,1303,-3405,638
36,67,64,2183,-4516,988
54,33,69,2555,-3989,1702
-62,13,96,2842,-3693,2648
56,-10,68,3908,-3403,2633
-60,0,53,3156,-1883,3282
-37,-100,-21,-78,-3587,5673
2,-21,9,343,-3553,5153
-32,84,38,804,-1804,3029
-12,11,23,2576,-1299,897
62,-96,-15,3720,-1255,253
-80,-42,-38,451,-258,112
-121,107,-107,-88,376,-383
-111,22,76,391,436,-786
-57,-4,12,-433,651,-974
5,-79,-6,3,1157,-1233
17,30,-26,1449,683,-2112
44,-45,-14,1192,235,-1653
41,-56,6,-52,-134,-698
96,-50,0,-307,-348,13
31,-49,-32,223,-299,-273
90,-32,-22,152,-103,-4
99,-24,-54,202,-208,387
42,33,-39,-248,-733,892
50,79,-46,-326,-481,920
82,124,-52,-238,-455,1053
94,-115,-52,159,-516,806
101,-62,-49,106,-605,381
89,-32,-47,-490,-751,99
88,-36,-52,-623,-654,-160
77,-54,-63,-240,-426,-368
69,-59,-75,-183,-309,-806
103,-59,-96,-485,-161,-958
48,33,31,-148,3169,-4769
-73,-39,-41,-299,3768,-4784
-12,-5,-126,-1634,4013,-4322
108,-51,109,-1206,3695,-4776
-54,-59,83,-602,4124,-5137
-62,-88,107,-511,2711,-5122
123,24,2,-2719,1054,-3425
-2,13,61,-2767,959,-1891
-50,-92,45,-1181,2329,-2360
-97,37,-42,20,3478,-4384
-21,-68,-116,-710,2231,-3894
65,-73,15,-166,312,-554
-28,-2,-53,-4,-354,-37
9,85,1,111,-855,1935
89,43,37,954,-1367,1985
-28,-73,80,989,-1852,1861
-98,-11,77,1410,-2594,2175
10,21,78,892,-3297,2332
62,23,101,800,-4155,2426
-93,13,120,1796,-4899,3172
-84,117,-12,-10,-6478,4434
7,-124,11,2145,-6690,4491
-109,-76,104,1175,-4853,3004
-7,122,78,2440,-2088,2785
-29,-49,-111,1629,-2914,2820
-32,-45,-58,1374,-2767,2334
-2,-64,6,1039,-2373,1271
-32,95,24,2460,-171,382
48,57,95,4304,721,-340
-51,117,21,2022,460,-561
-94,78,13,207,-57,-376
-128,-47,-22,720,-242,-153
117,-49,-29,436,-113,-413
-103,-107,-69,715,266,-1042
-70,-123,-79,190,57,-1226
-26,95,-81,-320,-264,-1136
0,81,-70,-753,-223,-755
7,72,-78,-707,-351,-506
3,75,-82,-364,-570,-409
2,79,-85,-175,-428,-487
25,100,-89,-487,-262,-329
57,93,-109,-195,-174,-91
26,106,-117,-125,-467,-72
19,-123,-109,-494,-464,88
27,-106,-112,-653,-387,252
37,-103,-123,-168,-329,191
59,-79,123,-76,-244,48
69,-70,120,-206,-355,-5
71,-70,-127,-201,-344,-25
78,-75,-127,-84,-188,36
-70,75,99,-1743,2581,-3709
88,127,31,87,3871,-5593
3,-44,-41,-2343,3918,-4853
-78,-87,-41,-1685,3128,-5113
-48,-59,54,-1662,3147,-4455
-1,-85,-9,-2459,3723,-3901
67,-100,10,-3176,3101,-2981
126,119,32,-3305,2122,-2101
69,25,41,-1943,2874,-2022
-37,120,-2,309,3299,-2954
74,-6,125,885,4136,-3673
122,0,61,-1843,1655,-1344
-10,-18,-76,-1561,-378,-728
21,-125,110,630,-601,-4
41,-51,-63,-30,-1806,1543
-109,68,26,1967,-2172,1914
-38,-92,4,2684,-2492,2440
124,60,1,1287,-3252,3145
105,-117,20,217,-4496,2933
-73,119,124,-229,-6751,2127
6,116,-12,487,-6826,2289
78,27,47,3937,-5665,2821
-117,-29,78,1099,-2842,3134
123,63,-45,-224,-4292,2492
-93,39,29,-258,-5296,2634
-83,-27,11,-831,-4192,1797
-116,38,97,1968,-1595,296
29,63,-41,2053,-18,329
44,-30,-52,-924,-830,843
-23,89,67,689,-65,-468
-71,48,-110,1322,751,-956
-74,37,58,1224,1013,-633
-94,-2,-17,1310,625,-535
-116,-28,-63,1422,49,-36
-47,-31,-93,798,319,-80
40,-68,107,979,369,-336
-14,-116,-118,1639,-799,-570
-52,120,-93,1060,-812,-740
17,107,-52,-10,-439,-573
61,76,-63,224,-317,-291
44,51,-42,629,-543,-254
30,59,19,316,-32,-134
47,52,22,707,794,87
106,36,-40,1293,408,258
-117,98,-47,-502,-225,295
-123,104,-89,-1220,-249,228
78,81,-114,-624,-433,393
62,76,116,382,-61,322
116,101,83,333,1073,-162
-68,-88,125,-612,1306,653
-104,-97,24,180,4158,-5712
-112,32,-87,-201,4123,-6302
-54,-123,118,-2788,3857,-5172
116,55,121,-2442,3489,-5818
-55,75,61,-2760,5062,-5016
-71,-18,-93,-1293,2000,-4548
-19,53,-3,-3122,1641,-3192
29,79,-87,-791,3545,-3012
-124,20,-101,-652,2917,-2632
92,-115,61,397,2160,-1841
81,59,-120,1238,613,-664
-10,109,-92,-1385,-995,825
-47,127,-18,69,-2227,1712
82,42,81,-128,-2406,2787
-69,-101,93,485,-2600,2254
-89,50,78,474,-2908,2330
55,106,118,34,-3782,2092
-123,127,-48,709,-5172,2442
-63,-112,19,1039,-5246,2507
-45,-123,54,2203,-5797,2773
-4,-56,81,675,-4713,2630
90,-117,64,1258,-3618,2353
-59,-49,-49,260,-4660,3531
-12,-107,60,943,-2918,2463
-80,33,-19,4121,-1774,1241
37,-86,-80,3029,-588,1308
120,17,-28,423,-602,915
-42,-109,-126,1212,144,-309
-67,-111,120,-688,137,-532
-32,52,68,11,480,-667
-10,-43,-20,921,869,-1288
-10,-64,-88,709,930,-1603
-17,-122,125,656,379,-1423
-5,97,-128,333,-157,-1014
9,90,-119,-643,-411,-473
23,106,-77,-1639,-913,-28
46,-114,-77,-2057,-655,326
14,-114,-41,-663,-941,138
4,-75,-22,-227,-705,16
35,-55,-49,15,-318,72
47,-23,-67,205,-496,403
85,-2,-93,67,-351,447
35,11,-91,71,-631,170
48,28,-88,-694,-412,-181
68,65,-77,-1891,-228,-110
98,-43,-84,437,-42,-496
88,-26,-94,609,48,-469
81,9,-94,-433,-290,-107
71,-15,-106,-424,-365,-143
92,-19,-91,-351,-330,75
-121,-17,93,241,4310,-4864
-45,-48,58,-1122,4860,-4327
-119,-91,-108,-857,5130,-4202
13,-120,100,-782,4191,-4697
-120,126,95,-1413,4152,-3944
63,88,1,-2345,3829,-3458
-68,111,4,-3241,3176,-2986
12,40,-38,-1770,2697,-2438
64,-19,75,-1426,3400,-2308
44,-119,-33,-1450,2088,-1887
44,-42,-41,781,880,-2240
-73,-55,-101,1530,-1683,514
48,-85,-116,-723,-3352,2770
81,-46,56,771,-3913,2148
8,84,72,1480,-4601,1984
-28,-62,83,585,-5224,2123
-16,117,-15,-534,-7807,1644
71,55,95,3444,-8277,343
24,-22,86,684,-6312,1386
-46,95,-74,1297,-4687,579
-122,-32,23,2638,-3779,709
55,-32,-73,1576,-2365,695
1,69,-118,2977,-1569,1028
-92,104,73,2683,-1298,1498
72,11,-86,4429,461,425
-27,46,20,3938,736,-491
-92,35,56,2093,-640,-67
-91,-7,64,137,-323,46
-124,-82,17,487,163,-63
124,-89,-22,233,137,-159
-98,-87,-57,-146,158,-463
-47,-123,-81,244,182,-791
0,84,-104,655,161,-1271
27,53,-96,752,-133,-1443
27,7,-75,611,-333,-1475
43,-6,-54,23,-472,-1047
31,-12,-40,-435,-558,-489
10,-23,-40,-380,-530,58
43,-10,-63,-22,-51,499
65,14,-94,227,45,598
85,50,-126,156,-192,716
74,83,-115,-431,-497,888
86,100,-114,-436,-274,942
76,112,-126,42,-271,737
78,-114,-114,-145,-295,668
72,-86,-127,-375,-40,396
75,-96,111,-29,-117,6
67,-88,104,-172,-247,-149
103,-78,111,-424,-176,-320
-125,-102,101,91,-10,-808
-69,47,-76,-1000,4877,-4290
51,-32,-94,-256,4776,-4114
57,10,125,-1199,5570,-4393
89,-39,13,-1939,4993,-3816
95,-86,-116,-2509,4363,-3033
69,-108,65,-3384,3308,-2061
-53,34,21,-2222,3278,-1722
47,-60,9,-998,2843,-1189
-33,119,-68,580,3040,-1364
-116,120,1,-31,3050,-2788
98,81,-12,-544,721,-1788
-80,-2,-91,794,-2428,1370
27,-113,66,417,-3022,2019
-2,-35,44,655,-3443,2023
-114,36,32,1939,-3314,1796
9,-127,21,1711,-3821,1773
-58,-68,-14,1928,-4849,2096
6,26,-96,-135,-6688,1751
91,13,14,1750,-6655,2193
58,68,-112,-1144,-6774,1663
-22,108,60,2519,-5797,1936
-123,-78,-113,3085,-3899,2002
125,24,29,1959,-3809,2081
-105,-22,36,2456,-2035,881
7,-5,52,450,388,1026
1,-43,6,749,-356,317
-95,121,45,3103,695,124
126,-43,-88,417,646,-701
-102,125,77,-797,11,-1169
-32,-12,9,-3,517,-1275
-34,-105,-42,581,554,-1194
-26,127,-76,90,397,-643
-25,108,-76,289,-191,-336
5,108,-46,94,-273,56
43,-128,-23,-143,-127,253
33,127,-25,70,5,162
20,123,-45,139,338,64
-10,-107,-44,-671,-91,205
73,-111,-50,-428,167,321
121,-110,-58,339,-214,597
126,-91,-78,592,-336,412
88,-109,-62,834,-747,497
26,-81,-8,-56,-733,723
101,-96,-35,405,-493,644
-101,-93,-30,887,-962,524
51,-107,-26,571,-443,19
103,-117,-45,-45,-47,-55
113,99,-58,464,-691,256
118,-100,-25,-654,-833,448
109,-90,-20,-743,-471,89
50,7,-29,-1447,2963,-4300
0,-45,-89,-1938,3500,-4722
112,-114,103,-2000,3924,-4624
-53,115,97,-2281,3541,-4114
-50,77,85,-2634,3407,-3355
-123,65,123,-2898,2571,-2246
-22,35,-115,-2612,2242,-1440
70,28,66,-1993,1032,-648
76,-42,-89,-1654,3713,-1263
-67,-79,84,-1142,3424,-1552
10,91,-83,-724,1782,-1620
-114,-29,53,-323,1088,-1429
-71,-50,-17,413,-432,-1295
-99,124,13,369,-2165,2119
111,104,-81,6,-2759,1832
127,20,-45,2149,-2688,1704
2,122,-84,2017,-3229,1589
-92,-104,84,2195,-3426,1712
88,-19,78,1480,-5397,1983
57,-11,51,2126,-8253,2885
-112,-118,-63,2374,-5784,2119
-113,-84,-41,2573,-2046,1739
55,65,73,431,-5027,3168
83,-59,27,464,-3532,2827
114,-128,-100,485,-2998,3040
22,63,13,1820,-1339,2210
-65,107,53,2040,-1256,2044
51,-91,3,1428,-1433,849
-16,-128,-4,984,-1032,-328
-62,107,-60,-747,54,-782
-93,20,-104,-819,310,-703
-108,-56,92,-111,390,-514
-95,-64,37,-452,308,-319
-66,-88,-21,-204,349,-383
-41,-81,-61,-96,298,-518
-16,-107,-106,80,301,-676
-7,-94,-108,-274,-74,-531
5,-121,-106,22,-301,-420
2,-121,-87,-43,-421,-333
20,-108,-62,-169,-509,9
30,-92,-44,-21,-478,-2
31,-82,-40,-100,-441,46
36,-43,-47,-669,-456,191
41,-58,-59,-133,-391,93
49,-41,-66,-215,-365,127
58,24,-68,-1382,-404,42
61,39,-76,-1898,-367,203
54,-25,-35,-477,-587,104
82,0,-19,-445,-70,84
99,39,-25,-973,-262,179
-46,-77,43,-640,3945,-3584
-1,-39,51,-1996,3928,-3743
83,-88,23,-1484,4372,-3982
0,-91,14,-1336,3991,-3877
87,-83,-21,-1293,4758,-3741
83,125,-57,-1308,3450,-3489
89,36,-65,-1658,2694,-2706
-110,-26,-31,-2170,1833,-1884
51,117,-80,-766,2206,-1312
-54,-126,104,-876,2483,-1652
115,53,9,-576,2301,-1450
-60,-127,92,-505,1009,-1181
1,-15,119,265,-1042,580
43,61,-79,159,-2552,1653
19,-49,-106,441,-3523,1685
-51,22,-17,846,-4179,1834
104,102,9,191,-4218,1799
-68,100,71,733,-5208,1376
-19,104,98,1607,-5194,2030
36,16,19,4040,-4616,2146
69,-104,-117,858,-6880,4066
-103,-69,-47,-388,-5533,3697
4,62,13,928,-3662,1865
-29,-111,46,-304,-3287,1530
-109,78,98,741,-2925,1391
22,0,123,3291,-1847,923
119,46,-52,4323,-1020,307
-69,-76,55,1391,-1736,202
-30,104,13,154,239,-112
-62,62,-124,-381,1114,-539
-93,9,20,-107,851,-804
-72,-41,-27,79,601,-1258
-21,-106,-87,-66,755,-843
-39,113,-102,-50,-29,-515
-4,117,-88,-637,-554,-376
24,85,-82,-368,-279,-397
10,65,-73,298,-230,-426
8,104,-71,-418,-192,-436
6,99,-81,-94,-188,-315
1,119,-95,179,-379,-268
11,-117,-96,369,-546,-50
33,-117,-89,867,-845,126
32,-58,-65,-76,-617,531
6,-34,-68,-923,-471,338
54,-29,-59,-1083,-612,426
54,-8,-77,-905,-259,316
70,-5,-90,-189,-39,-9
82,-21,-128,660,-18,-571
71,-12,-128,62,-252,-697
68,-16,-127,-526,-298,-686
126,-87,50,-2676,3727,-2402
-106,-120,-93,613,4482,-5509
-33,-30,112,-1402,4059,-5243
125,50,-112,-2622,3796,-5133
58,12,-115,-1142,4456,-5087
78,73,-76,-2130,4152,-4419
29,59,-20,-2406,3059,-3651
0,42,52,-2418,2272,-2523
58,-52,117,-1470,619,-1357
-41,-116,-91,-1152,1564,-1069
76,86,8,-450,2850,-1512
-105,-54,-86,1176,835,-1924
-35,72,11,522,521,-1604
-117,90,-14,376,-1774,1316
35,29,-87,-1502,-3134,2839
57,-105,-47,624,-3321,2171
-19,31,-75,410,-3454,1972
122,82,-106,522,-3897,1395
-1,100,-63,1418,-4989,1475
12,-95,60,1163,-6421,2392
69,85,27,2821,-5645,2596
-40,-102,-3,1520,-2448,2127
-60,-65,88,798,-4932,3384
-43,-36,105,-1180,-4812,2479
-112,94,-55,500,-3478,704
-96,44,-9,2150,-1745,321
42,112,-35,2844,-1652,788
-119,-100,-55,2402,-1154,780
-16,-107,-114,1780,-202,-599
117,68,-126,1499,-135,-1420
-111,33,93,302,589,-1283
-108,-41,17,-327,656,-1252
-75,-78,-45,-480,341,-1237
-24,-116,-82,-306,-41,-1234
-13,95,-116,23,55,-1503
-28,69,126,-139,57,-1612
-12,53,119,-624,-85,-1067
7,60,112,-748,-186,-269
-3,59,114,-375,-133,-276
4,66,115,390,69,-56
28,84,124,439,-234,340
45,113,-127,-34,-286,664
49,124,-123,-170,-367,877
65,-127,117,-44,-234,948
93,-113,92,18,-177,848
82,-80,73,-282,-475,748
77,-77,77,-360,-644,566
82,-114,76,565,-567,438
36,-110,-127,621,-620,673
41,-64,-112,-306,-378,1097
1,-3,84,-1830,3426,-3112
-123,-35,-25,-1507,3834,-3764
123,8,19,-2113,2563,-3669
86,12,-9,-2410,3519,-3754
-47,-94,-15,-1067,3912,-4271
127,68,-6,-1548,3015,-4174
-34,-115,-14,-4538,3176,-3262
53,-15,11,-2524,2421,-2453
-82,81,17,848,2553,-2508
-127,86,-45,617,3032,-2913
-31,-1,23,-1488,1649,-3207
82,1,121,-2505,-217,-876
-33,-33,123,413,-1252,-8
32,89,56,281,-2156,2412
-65,84,-123,-230,-3031,3025
109,-5,-124,1015,-3425,2229
-81,63,127,1675,-3813,2030
-22,100,116,2073,-4150,2205
101,-48,-22,2116,-5955,3224
-38,-110,-23,3035,-4997,3270
-35,-42,-34,299,-4417,4786
2,6,101,-255,-5231,5443
-59,15,-55,142,-6531,3158
-88,-1,11,-1870,-2864,-685
-118,-34,47,819,-621,-1364
-1,26,-64,948,-1960,566
-87,39,61,1498,-1385,198
28,-26,-78,3298,-44,-166
-101,-94,-35,-52,-517,1009
118,113,-31,104,-1332,1102
124,80,-78,1228,-932,212
-90,-104,78,114,539,-492
-79,111,7,-186,1230,-1405
-28,11,-92,194,1267,-2443
51,-18,100,-456,1445,-2742
39,-97,72,98,835,-2488
-30,90,114,516,-435,-1839
-27,121,-111,-787,-672,-730
-26,118,-113,-1112,-662,-196
16,-127,121,-963,-759,337
39,-47,-113,-1118,-1278,1082
0,-37,-109,-410,-1083,506
-2,-16,-98,-606,-536,-11
31,-17,-101,-339,-73,-1
41,-47,-118,682,-190,223
24,-46,119,924,-68,375
19,-41,112,689,-229,706
26,-43,116,677,-449,947
70,-28,121,330,-200,1171
78,-55,97,1270,-22,1084
25,-9,-12,600,6902,-8216
-30,-94,-44,-988,5070,-6710
-88,48,115,-3177,2205,-5565
92,79,-13,-1953,1542,-4567
115,-102,-6,-3146,3464,-3236
-82,-112,-4,-3527,3826,-2634
-9,84,58,-2138,3087,-2358
-101,39,-81,-1707,2189,-2461
74,-96,17,-260,4495,-2679
-92,66,-101,237,3422,-3142
4,-45,8,-728,1630,-2917
32,25,-124,-117,-452,-625
33,15,-61,53,-1786,1915
-123,50,84,-484,-2989,2539
106,-55,124,368,-3490,2727
-5,0,121,1376,-3827,2276
-33,102,106,1755,-4226,3281
52,-96,-62,2406,-6190,4359
98,112,18,3588,-5513,4565
71,-111,-20,5457,-2122,4642
-1,35,-97,-539,-6343,6599
104,-104,111,-861,-3865,3521
-22,-55,20,1569,-2170,2251
58,-58,-38,1670,-779,1408
113,-118,110,2082,-437,244
69,-12,40,3302,-135,-11
42,125,43,1260,116,1708
123,-98,18,-1244,-11,809
-104,19,-21,145,-40,-774
-67,-66,-67,822,306,-1259
-62,-79,-79,541,172,-1305
-23,-111,-95,194,-78,-1439
50,104,-93,-198,-200,-1550
62,49,-101,73,-248,-1736
84,-4,-78,392,-283,-1411
47,-1,-62,87,-403,-846
32,-4,-61,-242,-328,-338
34,10,-92,-685,-381,318
-3,36,-86,-764,-971,1059
85,91,-111,-587,-327,1509
102,-110,118,-470,-276,1251
45,-93,114,-202,-591,603
62,-73,122,-145,-442,237
73,-101,106,538,-65,4
54,-103,106,455,-333,-40
102,-112,75,102,-167,253
-127,-77,88,-520,-542,1040
73,-59,87,-145,-377,871
60,-52,80,245,-243,263
104,-33,61,-337,19,-115
-11,-121,66,-845,4636,-7442
-38,40,68,-2101,6271,-5281
-122,-77,-74,-1801,4071,-4808
16,-37,-77,-2079,4005,-4587
125,-115,-86,-2338,4649,-4429
-21,89,-48,-2280,3510,-3461
28,89,34,-2685,2401,-2859
-105,-48,21,-1211,3172,-2535
-54,109,-41,330,3201,-2408
112,102,106,-946,2350,-3435
120,-102,119,-312,123,-1915
22,-53,41,444,-623,983
36,44,-78,808,-2034,2333
-35,-71,102,-651,-3255,2337
93,-28,107,1223,-3517,2433
-77,85,120,1027,-4000,2358
-7,-68,-3,909,-5975,2611
90,-49,68,1143,-6255,2807
-41,-72,80,2233,-4560,1951
-37,-94,-40,3288,-4667,1588
23,-107,-75,2323,-2009,2059
21,94,-117,2331,-1985,2769
84,51,4,2793,-1765,3570
111,-127,47,1975,-2823,4085
67,-40,105,789,-2341,3413
-33,-63,-103,1317,-1592,1296
-96,-120,120,2260,-452,-113
22,85,92,2247,-113,-446
-90,15,22,1750,320,-586
-94,-7,-9,456,152,-526
-92,-47,-31,-481,274,-600
-84,-90,-53,-744,649,-786
-41,-114,-53,16,-151,-810
28,-89,-32,-214,-712,-985
30,-119,-64,-553,-359,-1954
61,87,-83,-594,-430,-2115
48,32,-86,-221,-552,-1505
56,48,-97,-498,480,-932
59,42,-102,-216,154,-725
77,65,-83,15,-306,-8
88,89,-82,-190,-362,316
84,90,-89,77,-468,582
82,96,-86,312,-644,1099
74,120,-87,175,-539,1394
97,-95,-80,-185,-652,1731
113,-42,-71,-452,-472,1981
113,-33,-114,-94,-102,1037
-128,-22,-128,42,30,186
112,-23,126,8,-168,-137
100,-32,-127,-247,-128,-259
2,-104,20,-420,3956,-4117
117,120,61,221,2197,-5143
-72,11,33,-2467,2960,-4437
97,-40,30,-1453,2899,-4854
-66,-40,72,-1950,2432,-4871
35,-20,86,-3292,2608,-3787
95,-83,102,-2892,2413,-3234
44,103,67,-1443,3472,-3221
-98,19,-72,-1414,3929,-3987
-86,-1,39,-1261,2949,-4733
65,-10,-89,-1384,1727,-2315
-54,-38,45,-273,-149,-153
-79,5,-78,-385,-2543,2597
5,-17,74,1148,-4024,2870
-58,34,124,1078,-4001,2950
36,122,-69,294,-5278,3049
66,-88,83,1041,-7442,3712
-59,-56,66,1874,-6375,3289
55,-33,3,2992,-5717,2996
-58,17,53,1342,-5595,3827
45,-42,7,1802,-4314,3360
-23,-68,14,1834,-3777,2082
-50,81,111,3544,-2674,871
111,-95,56,1543,-2221,850
-78,47,82,2817,-853,1331
-48,-119,126,2504,-671,2111
-14,-27,-91,523,-1254,1351
-75,85,101,1797,46,-436
-86,89,33,841,982,-965
-107,3,-34,1324,601,-1106
-113,-1,-74,-384,91,-824
-109,-27,-82,-789,-283,-532
-62,-70,-119,-667,-133,-1382
25,-88,124,-609,63,-1719
78,-118,97,-404,34,-1873
108,108,91,-318,-438,-1996
111,85,115,-178,-618,-1603
63,86,-82,-609,-930,-1161
41,92,-72,-985,-615,-867
49,76,-77,-596,-176,-697
37,59,-83,15,-59,-473
25,61,-93,183,12,6
36,76,-100,125,2,807
52,112,123,108,160,1412
69,118,62,488,385,1535
-92,115,42,938,-218,1812
-66,-77,103,426,-734,2563
-76,-26,108,-171,-428,2512
-123,-1,107,264,-394,1363
121,-60,103,1060,-249,-511
-48,-93,101,-2154,4313,-3039
-55,110,-99,2822,6422,-6125
3,40,75,-579,4814,-5808
-105,120,56,-2777,4322,-4851
77,81,45,-2018,4846,-3885
-128,84,46,-2445,4603,-3261
116,101,21,-2549,4388,-2406
-116,-113,87,-2948,3513,-2111
36,51,41,-1332,4459,-2242
102,-71,-34,567,4257,-3066
72,-3,-10,487,3001,-3667
-84,-11,30,-1157,870,-1811
-12,-67,-49,24,-1950,1363
-118,-99,-14,-873,-3342,3029
48,-97,-123,394,-3467,2209
-63,110,-31,477,-3735,2126
9,124,-57,915,-4617,2163
-116,-51,6,544,-6555,2146
-46,-15,-86,130,-7315,2120
25,-91,-125,2766,-4714,1693
36,-25,-56,1562,-5168,1486
93,-31,-72,1029,-3915,2174
103,123,-58,1841,-4254,1813
-121,95,-72,1948,-3756,2027
-95,39,-18,3164,-2138,2416
99,48,-100,3723,-1670,2320
4,-93,88,2660,-888,2690
118,-17,-51,656,-1961,1935
22,89,102,2692,-477,-234
-39,39,28,2326,315,-1326
-92,32,19,593,307,-763
-119,-47,15,-23,-231,-626
-80,-89,-11,-529,-157,-860
-40,96,-19,-73,-242,-1130
-1,68,-31,-335,-275,-1191
-7,54,-32,-606,-332,-1257
3,6,-47,-467,-304,-1111
16,58,-59,-998,-404,-493
41,71,-89,-905,-424,-374
26,126,-79,-1036,-735,39
-3,-108,-93,-1036,-350,-184
41,-116,-105,-492,-284,-69
79,-78,-97,-289,-476,543
43,-24,-89,-807,-257,369
14,-62,-111,-533,-298,-137
52,-46,-93,-636,-646,1046
56,20,-71,-1081,-733,1145
31,65,-85,-909,-292,216
63,10,-116,197,13,-917
98,-5,-123,778,-38,-751
119,15,51,-265,3660,-4081
-4,-52,29,-829,4538,-5337
-78,114,-85,-548,4895,-5315
124,113,108,-770,4350,-5285
113,-118,48,-2383,3697,-4603
-124,-110,68,-3184,3442,-3580
105,65,45,-2294,3191,-2804
-70,-40,50,-712,3270,-2153
23,-77,-94,5308,2259,-2899
34,-37,-69,-538,2050,-3481
-113,71,88,-1650,242,-1257
63,-77,21,303,-1614,1144
100,70,-15,-1183,-3096,2147
-40,-16,59,1052,-2916,2842
-122,12,93,1222,-3050,2798
-23,-127,98,340,-3868,2868
-105,-84,-123,441,-4964,2742
81,-32,69,51,-6684,2242
-4,111,-8,5348,-4048,2515
46,83,-34,5251,-3102,2279
-23,-26,-47,3343,-3090,4774
-24,110,-42,-1768,-3958,5450
-16,11,47,-519,-1354,3054
-31,-103,38,3237,-422,2165
19,9,-34,2078,-1251,3079
99,-118,-64,-142,-489,2079
6,49,-117,76,-237,-21
-14,-125,17,1556,38,-746
-56,89,-13,1223,-498,-1201
-30,14,-43,634,-209,-1583
-10,-51,-82,109,175,-2261
40,114,-81,372,-213,-2599
88,20,-66,705,-474,-2441
89,-19,-37,684,-474,-1954
57,-54,-12,380,-310,-1222
46,-56,-13,-267,-260,-298
37,-48,-15,-533,-184,785
42,-21,-102,-538,238,1721
56,48,117,-1071,-504,2496
92,-97,104,-2215,-1118,3226
107,65,90,-3274,-1552,3379
96,60,-125,-1263,-1229,2027
91,-8,-97,2194,-1024,711
56,113,-33,1098,-770,39
68,-86,-71,-1609,243,-490
81,84,-120,-1443,449,-1306
111,43,102,-798,461,-1899
-128,41,97,-895,77,-2049
-105,12,77,-582,-70,-1986
-115,-17,90,-131,-267,-1737
-5,0,-120,-1031,4165,-5994
-112,62,119,802,4518,-6601
-124,-20,-52,-2487,5338,-6049
-118,-33,98,-2294,3125,-5288
94,-44,74,-1911,3758,-5063
-89,24,83,-3901,4720,-4789
-18,116,-109,-5044,1945,-2686
-73,-41,-46,-2914,2193,-2037
-111,11,19,572,2922,-2649
-4,98,-3,-1248,3323,-2160
-91,-32,77,-590,3254,-1832
-122,27,90,129,1904,-1370
-37,-30,-61,741,-1379,156
38,8,-93,747,-3522,3462
30,83,103,1437,-4279,3893
41,-121,-92,965,-4494,3545
-45,-57,122,1040,-4903,3404
72,46,-71,-11,-6482,2838
-51,13,14,3135,-7481,3020
-49,-81,25,-875,-5632,2598
85,-98,-103,-488,-5899,1358
43,-124,-7,1296,-4763,-328
80,71,8,1938,-2789,-99
60,42,60,1386,-1926,388
-100,-7,6,2491,-1535,934
58,-21,-63,3004,-619,1108
30,73,-108,1934,-660,1395
33,28,3,2894,609,644
-71,20,-11,2531,-335,-405
-120,0,-11,1352,-319,-106
-119,-10,-1,126,424,26
-105,-67,12,-165,290,-652
-8,123,-43,109,792,-1214
22,102,-59,210,550,-957
-112,66,114,147,837,-1593
-106,-28,45,1036,509,-1713
-1,126,-48,-1173,-1441,669
64,-45,-59,-3449,-528,1162
72,73,103,-778,434,-492
114,56,104,1359,207,-885
102,117,98,776,-208,-585
49,114,108,172,-644,-382
51,110,-123,-387,-696,-214
64,120,-109,-662,-726,205
48,85,114,40,-502,353
67,100,115,429,-752,1149
70,-97,-123,-55,-925,1667
90,-49,-102,-318,-905,1623
93,-37,-113,-69,-521,908
91,-20,-110,-98,-525,323
118,-64,44,-1187,3993,-4653
88,78,-30,-991,4302,-5304
5,110,-78,-1729,4175,-4957
-111,84,-28,-1401,3850,-4906
-87,58,20,-1017,3642,-4659
112,62,21,-2322,3984,-4064
-112,70,47,-3316,2983,-2896
28,25,70,-2784,3385,-2203
84,126,-26,-936,4132,-1939
-31,-108,123,-627,3339,-1644
81,37,-51,-720,2116,-2245
-90,43,27,-297,999,-2030
-15,-18,-11,746,-2006,1581
111,-85,-76,1377,-2093,2476
54,-5,45,383,-2321,2326
-26,118,88,1216,-3389,2579
69,-78,94,152,-4859,2312
8,-68,-93,196,-6993,2381
30,-75,22,737,-7414,2136
-128,-82,26,2111,-6094,2515
-85,-31,-94,1310,-5105,2471
-41,-81,-72,2824,-4957,2697
1,-5,68,1350,-4458,3181
112,-12,-90,1616,-3245,3092
60,16,-13,1589,-2287,2112
48,5,-37,1331,-722,1256
83,6,71,-310,322,430
-23,122,-39,1362,157,-96
-123,73,117,1684,435,-351
83,74,-9,178,600,-257
-122,27,-7,539,-556,-51
-38,-35,-7,1191,-380,-799
28,-31,-40,-764,357,-1381
-99,-28,1,-1450,514,-871
-5,46,72,896,571,-2282
-75,-94,-65,-924,-874,-392
3,-71,-126,-908,-437,-283
5,-118,127,266,-509,-781
22,-91,-107,208,-646,-262
43,-61,-105,-234,-785,-56
67,-66,-74,-11,-952,-19
73,-78,-67,399,-593,-63
60,-110,-67,929,-109,-265
40,114,124,1525,425,-278
31,104,118,1290,-441,277
21,-106,-97,111,-587,1123
67,116,-127,378,-201,907
127,-96,-103,345,-573,1548
-47,-77,-112,402,-280,1133
125,-27,-73,166,66,994
-41,-111,6,-77,5839,-4725
76,109,-16,108,4263,-5566
73,-100,-87,-2431,3508,-5188
-65,113,-9,-1977,2886,-4280
-120,-100,40,-2764,4907,-3069
-44,98,-8,-2952,7377,-3774
42,-68,106,-1014,3780,-4652
86,-117,-102,-499,1892,-3384
-97,119,121,-1081,1561,-2216
41,-47,89,-417,1817,-2553
-23,-112,-38,7,2181,-2307
27,-30,53,2520,-200,-1157
-6,-82,-103,1176,-1784,1329
103,95,60,-1191,-2022,3036
19,26,47,2082,-2103,3196
-110,2,64,724,-2524,3170
14,57,45,1129,-3237,3446
102,120,119,538,-5043,3915
-99,-51,-42,-927,-6692,3709
-5,-40,-18,1196,-5922,2769
-7,12,116,-173,-5322,2094
42,-116,89,2399,-3792,1547
89,-74,-43,2449,-4458,2380
120,14,21,604,-4119,2923
-120,-69,70,489,-1885,1458
34,113,81,2094,-1234,721
90,-83,72,1762,-1112,960
32,-87,-24,1526,484,488
-56,-80,108,1020,811,-461
-118,117,5,-44,350,-1194
-97,87,-3,-1416,-139,-794
-105,39,-15,-1342,-549,-242
-105,-65,-32,205,-357,-312
-77,-58,-41,597,144,-292
-48,-32,-67,89,65,-558
-52,-66,-73,21,-147,-724
-35,-76,-93,-265,-31,-543
-25,-99,-103,-3,-399,-375
-20,-83,-91,-372,-463,107
-21,-82,-92,-202,-372,218
-9,-65,-81,-207,-416,345
22,-56,-86,-44,-127,359
75,-59,-118,452,148,236
27,-57,-123,408,-294,318
-14,-39,-103,-353,-269,474
28,-54,-110,-214,78,351
-118,-66,-111,547,21,34
-119,-108,121,1091,372,-522
120,-94,-106,58,29,-196
-125,-117,-120,76,-198,25
87,-5,53,121,3919,-4776
37,113,5,-2238,4491,-4910
37,46,124,-1941,4414,-4876
87,-26,119,-1906,3643,-3990
0,-78,87,-3207,2884,-2878
70,-128,-124,-3773,2632,-1664
-103,63,-61,-3408,2483,-1119
-20,-14,-37,-2681,2438,-922
-95,-21,33,-2392,1633,-727
-123,-66,-52,-1166,2780,-635
-35,64,-23,736,2177,-1326
20,-85,-55,1206,1318,-1276
-90,78,-87,159,-2384,957
101,-90,77,314,-3613,1499
5,55,-45,182,-3798,1069
-67,109,50,1128,-4090,1028
82,-118,-82,1443,-4747,1511
-116,91,-123,2398,-5600,1300
-96,76,48,2220,-4106,954
-113,85,54,2755,-3920,1512
-84,-122,100,2498,-4868,2564
-23,-80,-110,886,-4656,2497
77,87,-41,1515,-3652,2109
67,79,-52,2114,-3593,2096
-120,76,-60,2346,-2726,2186
8,-78,43,5018,425,-53
126,-21,-54,3065,-1708,2059
-22,53,-66,-1625,-670,1807
-112,-56,-71,-1620,-668,993
-124,93,-84,-709,-361,-107
-122,2,109,538,526,-1072
-80,-49,36,538,1305,-1364
-61,108,-36,679,690,-1591
-26,92,-71,-754,91,-1053
-32,57,-87,-1332,-695,-765
-27,12,123,3,-226,-223
-34,60,-128,-214,-291,-259
-23,83,119,-226,-227,-58
5,104,-122,-113,-81,214
13,109,-91,-173,-466,211
20,-117,-72,-127,-548,514
17,-90,-62,-235,-502,547
30,-69,-60,-223,-493,419
45,-34,-60,-308,-246,16
41,-18,-68,-282,-469,49
49,-12,-84,-413,-331,-5
49,-35,-104,-30,-268,-181
56,-33,-113,-111,-236,-204
71,-50,-112,77,-95,-396
94,-98,-126,1003,703,-1027
77,46,67,-1689,3716,-2652
73,9,67,-656,4770,-3874
93,-66,89,122,5489,-4478
102,-31,120,-163,5444,-4777
-92,-1,-75,-1511,5031,-4442
-20,-24,-43,-2592,4688,-3062
12,-119,119,-1697,3839,-2570
40,117,51,-2741,3141,-1878
-33,-10,-37,-286,3370,-1066
92,111,61,2235,4017,-1689
-102,116,-125,-210,2642,-2527
87,-35,-30,-1351,793,-2466
-59,-86,9,-587,-2008,1115
-22,21,-74,56,-4201,1663
126,25,-97,140,-3927,1777
-14,-110,-3,1145,-4368,1231
73,-74,-50,1758,-4452,1289
-115,-13,-13,2050,-6394,1578
-91,34,115,823,-7184,944
-101,13,-6,1256,-8081,1315
-106,-4,73,164,-7514,1994
81,-109,52,1770,-4367,320
97,-124,-79,2215,-3417,960
93,-90,-92,1418,-2906,1589
28,110,118,2391,-2659,1322
-56,111,97,2067,-1654,1341
127,-116,-58,1121,-1461,1243
28,97,-27,2548,-27,-84
-85,116,-27,1524,-808,-260
-114,55,-100,818,-82,-210
122,36,-120,-20,-56,-42
-112,2,93,-145,-51,-161
-72,-29,50,-165,381,-632
-39,-54,12,-522,435,-688
-32,-116,-34,-93,266,-731
-9,116,-47,43,256,-685
5,126,-70,-123,-37,-408
10,-121,-79,-139,-248,-432
20,-117,-75,-256,-43,-350
31,119,-81,97,-285,-157
36,122,-71,246,-457,210
37,-64,-55,-615,-606,387
49,-75,-45,-200,-552,504
42,-59,-41,65,-572,399
59,-25,-39,-150,-411,283
72,-31,-56,-90,-248,41
80,-25,-60,-176,-376,32
82,-26,-60,-257,-264,-66
82,-38,-69,-11,-152,-192
91,-49,-89,126,-163,-241
38,51,73,-1134,3774,-3420
85,4,32,1948,4429,-6361
51,42,94,-973,4952,-6191
-98,68,58,-2295,3889,-5366
24,66,71,-2225,4046,-4498
-105,19,14,-1550,4365,-3703
-64,97,72,-2763,3310,-2929
40,14,86,-1420,3213,-2598
-71,116,86,1368,4325,-2537
-42,58,-7,1083,4608,-2964
94,-17,-123,-2905,1113,-2492
-17,-127,14,-1169,-68,-1123
-126,-15,106,321,-1779,1318
-55,-40,64,493,-3330,2588
-109,-40,-113,-3,-3740,2919
36,99,-69,813,-4856,2946
-79,-96,-42,255,-6044,3069
-22,-73,127,163,-6732,3149
60,-73,-104,2063,-4838,2407
64,-4,-30,498,-4542,2373
20,-17,3,652,-5167,2601
90,-69,19,54,-4461,2476
-123,-75,52,-489,-3325,2265
117,60,-42,1269,-2928,1375
59,107,97,1048,-3199,2299
13,122,18,989,-1669,1775
-70,111,-50,2284,-1668,960
61,100,-100,3496,-1522,408
-18,-84,-97,1166,-816,294
-59,-83,-109,-876,75,-2
-35,67,109,-10,423,-813
-28,-27,52,351,838,-1602
9,-78,-26,-1156,1712,-1581
85,91,-95,68,1178,-1222
53,61,-90,483,-225,-740
39,96,-110,-460,-61,-629
54,114,121,-637,-36,-533
81,-104,-70,-822,-1095,-269
82,-124,-43,336,-414,-275
32,124,-73,421,-157,-422
52,-95,-80,-738,-435,51
-128,-123,-103,216,-549,74
76,-114,-61,783,-849,140
64,-61,-45,-65,-596,248
81,-46,-54,-171,-497,172
110,-64,-69,550,-500,118
110,-59,-73,678,-422,80
64,-65,-85,574,-265,-154
33,-82,-110,343,60,-238
111,-105,115,465,-64,133
34,84,-74,-1435,4406,-5002
5,41,19,-2390,4615,-5221
-126,-55,-68,-2710,4073,-5075
-53,-121,-14,-2227,3441,-4235
-69,81,15,-2241,3231,-3630
-108,58,30,-2838,3909,-2592
-66,-57,-5,-1638,3069,-2236
-32,-46,100,-1460,1449,-1501
15,-115,-22,1235,2442,-1765
67,2,54,158,1366,-3341
-6,104,-80,-721,-356,-1315
-116,-44,-92,574,-1187,1874
14,-19,72,-1079,-3156,2936
41,7,-52,-101,-4156,2609
-37,107,-63,401,-4357,1878
118,-91,66,368,-5339,1518
-64,126,77,2099,-5126,1988
0,117,110,2887,-4901,1928
24,125,62,2670,-4676,2121
112,-105,77,1087,-3361,2604
-116,-78,-73,1430,-4373,3217
-106,-109,-29,995,-3852,2500
-102,-118,9,1255,-2600,2338
100,105,-44,2183,-1811,1689
-71,-77,-12,1511,-1280,1490
32,-83,-64,1237,-947,342
-34,76,115,1465,169,-781
-50,6,44,1719,549,-1409
-78,-23,10,807,284,-1102
-78,-55,-7,-246,-18,-468
-61,-94,-28,-412,-222,-467
-34,117,-65,-132,-229,-757
-5,124,-66,-382,-267,-845
13,101,-83,-353,-116,-902
18,97,-83,-479,-246,-795
36,95,-82,-647,-72,-694
36,100,-84,-501,3,-446
34,102,-83,-161,-230,-191
46,-126,-87,-264,-270,169
43,-104,-80,-365,-689,495
43,-98,-87,-72,-606,611
61,-86,-110,60,-454,609
69,-58,-115,-414,109,390
85,-41,-111,-320,168,378
104,-31,-111,43,-285,338
106,-14,-97,-187,-696,281
96,-9,-91,-242,-945,235
89,-34,-105,80,-956,28
105,-32,-121,-367,-282,-225
117,-48,-125,-380,259,-567
-127,-106,57,-736,4444,-3889
-41,-84,-64,-1281,4823,-4274
34,-67,-60,-1803,3240,-3450
105,-77,35,-2291,3324,-2844
-15,-93,99,-2621,3749,-2017
104,97,-12,-1997,3850,-2036
-88,73,-13,-2456,2732,-1808
60,-45,-8,-1473,2752,-1203
15,89,-38,1304,3147,-1042
-101,53,-36,1622,3877,-2172
-54,-53,-128,-1065,638,-1696
117,115,-32,163,-335,383
-114,-30,83,-761,-2178,2649
73,-93,-94,0,-3137,2361
-45,39,-48,-161,-4210,2166
88,115,-2,-360,-5134,2168
-49,-122,89,586,-5971,1473
-26,-105,111,764,-4820,1172
-18,104,-96,2916,-5237,1763
56,-54,-106,1548,-4498,2731
32,-18,-45,498,-5195,3122
83,-58,43,601,-4388,2482
118,-119,0,1430,-2780,1220
120,69,40,2231,-2428,1811
21,116,81,1554,-2718,2520
-72,-124,97,1806,-1676,2004
21,122,35,1879,-1318,186
-42,125,13,364,-58,-539
-71,39,-92,144,731,-1056
-65,-35,48,-3,752,-1283
-27,-71,-7,-81,670,-1209
-17,-108,-44,91,278,-1072
-2,124,-77,27,153,-999
17,108,-82,-26,57,-952
32,95,-71,-64,-164,-856
36,78,-67,-69,-87,-715
56,74,-70,-228,-188,-402
50,77,-67,-317,-363,60
49,93,-59,-385,-607,484
52,114,-65,-228,-341,669
56,-118,-65,-162,-583,938
64,-87,-73,-347,-545,1023
101,-59,-72,-209,-548,1027
101,-35,-78,-198,-558,767
107,-11,-67,-281,-499,476
104,-9,-60,-203,-343,123
92,-19,-70,-142,-168,-299
114,-27,-76,-281,-79,-460
123,-43,-91,-158,-133,-584
-127,-47,-96,-272,-221,-582
-20,-54,-75,-2734,4574,-1264
34,-58,44,367,5191,-5514
-91,12,-15,-1786,4860,-5309
-70,-71,3,-4977,4397,-2892
34,-4,25,-764,5014,-2817
38,59,26,-1972,5728,-2999
-19,110,-1,-2657,5102,-2190
43,95,99,-3018,3367,-2250
-85,-1,86,-2721,5044,-3531
-117,127,41,50,4203,-1748
-25,18,104,555,2286,-1461
70,104,-114,-515,231,-661
57,-52,107,489,-1903,1283
-93,-92,106,36,-3318,2323
49,53,-66,789,-3859,2199
-32,-70,26,545,-4790,1536
61,-97,98,1340,-5092,1165
-62,82,-101,3382,-2852,146
123,-95,-99,3079,-2582,2592
118,-59,1,2327,-4730,3905
-39,-49,-79,1945,-4299,3729
0,-10,-20,469,-5074,3886
101,1,63,226,-3756,3433
96,-104,1,2005,-3465,2311
51,-63,-21,1201,-2666,2087
-31,-88,58,815,-2500,1816
93,-91,47,1160,-1911,1221
-22,76,-7,2260,-946,-249
-60,103,-29,622,8,-511
-99,75,-67,-572,299,-377
-107,-25,87,-107,618,-652
-71,-34,10,-247,891,-1086
10,-63,-67,-284,923,-1455
30,-118,-99,401,726,-1725
23,96,-111,168,421,-1574
38,86,-106,-763,21,-899
34,67,-102,-432,-424,-329
36,72,-87,0,-507,-240
61,78,-94,333,-203,-49
42,106,-71,117,-681,282
45,-91,-52,-341,-728,640
42,-79,-47,-278,-691,623
56,-73,-61,-43,-344,579
64,-50,-65,-89,-452,577
70,-23,-74,-710,-461,562
78,-33,-84,-501,-323,366
89,-41,-98,-102,-312,175
93,-23,-99,-450,-446,234
93,-14,-96,-550,-451,247
94,-14,-92,-244,-376,82
16,44,-83,725,4286,-4764
97,76,94,-246,3532,-4471
-124,119,-60,-1323,3266,-4834
-7,-108,-35,-2640,2428,-3976
81,-108,88,-2776,1995,-3055
-37,-49,-21,-3791,2633,-2180
-59,-110,63,-2887,3165,-1839
-75,30,27,-571,4549,-3040
-48,13,-63,-1427,4386,-3419
14,-51,79,-2277,4007,-1806
-97,77,-94,18,3628,-1243
-20,-58,-73,454,1426,-144
81,-28,70,-693,-1869,918
103,-8,-31,398,-4135,922
97,-53,-31,-377,-4343,1411
-61,-2,-16,491,-4252,1393
27,103,89,-523,-5352,1245
104,90,-63,1368,-5462,1830
123,84,-106,2083,-4868,1650
-74,110,78,2990,-3939,1942
31,122,66,3295,-5140,2885
-100,108,16,2359,-4029,3186
10,-79,124,-921,-4029,4308
-29,-114,-74,-1426,-3801,3574
-93,21,7,1381,-3393,2219
-127,65,70,2741,-2778,1259
-27,87,40,3291,-2533,1011
-126,38,3,-190,-366,757
-22,-127,-85,852,395,-1401
-62,-16,57,2032,1034,-2292
-4,-35,-40,321,1307,-2060
17,-90,-35,-168,389,-1142
-35,97,-27,591,-562,-840
-18,75,-36,483,-49,-1413
31,46,-40,241,311,-1508
81,-11,-33,491,103,-1180
82,-21,-27,367,-30,-670
40,-5,-2,-390,-330,-146
12,-20,-25,-231,-213,281
26,-17,-75,119,0,908
58,42,-98,-55,-550,1807
107,75,-109,132,-503,2441
-128,127,-127,210,-653,2345
116,-61,119,-32,-766,1682
61,-31,-122,-631,-1006,611
66,-45,-110,-330,-634,-106
60,-84,-86,308,-695,-528
51,-66,-67,-306,-625,-653
75,-47,-93,-1011,-236,-931
117,-64,-115,-739,-323,-1376
73,-1,-61,-1288,3473,-4544
-25,-44,-128,-1540,3660,-4553
-50,-48,-99,-905,3291,-4360
106,-28,71,-1678,3940,-4609
-102,-74,73,-1975,2979,-4107
-27,-90,89,-2254,2535,-3688
68,82,113,-1656,2909,-3426
-119,-127,92,403,3658,-4534
-63,80,31,-99,3738,-3197
26,-95,-117,-467,2585,-2216
23,23,0,-1379,1623,-193
-24,-114,-5,120,-493,1248
44,97,75,-732,-2971,2317
126,-76,117,-153,-3425,2097
-14,52,-47,-290,-4659,2453
29,96,29,625,-6021,3429
-92,91,5,1712,-4630,3235
-98,-33,85,1758,-4574,3954
-9,34,105,1668,-4211,3802
99,102,123,1220,-4445,3873
125,48,-79,175,-4815,4280
-98,77,22,-1554,-5547,4379
46,74,-60,1872,-1345,3587
125,87,-30,3623,-1665,1434
20,124,-34,2786,-1712,1759
-110,-73,-2,236,-1162,1863
40,-67,-6,-838,-751,1097
-9,81,-66,83,358,-166
10,90,105,-66,959,-587
32,68,29,-385,1150,-1104
68,-22,-59,338,1283,-1750
86,-40,-79,-443,1070,-1895
96,-119,-89,-195,734,-1496
80,49,-116,501,73,-755
99,107,-94,-287,-666,-41
117,110,-107,-240,-724,-184
98,-121,-84,-694,-889,-111
102,-95,-56,-715,-810,21
102,-77,-44,-301,-740,51
104,-54,-24,-287,-854,202
93,-34,-23,-158,-715,160
90,-2,-20,-715,-900,348
89,32,-26,-1173,-768,546
70,14,-23,-285,-849,324
95,27,-13,-160,-502,261
124,33,-41,-31,-83,-113
124,28,-55,19,-239,-311
120,33,-61,-429,-220,-258
108,10,-65,-226,-111,-338
117,-13,-72,218,-61,-340
-105,68,119,-1988,3316,-2828
-32,-56,72,-53,4234,-3889
-2,-1,16,-2056,4365,-3696
-70,-47,-38,-2565,4053,-2989
88,102,-105,-2228,5022,-2488
-51,95,33,-3182,4869,-2170
95,68,-55,-3096,4461,-1800
-69,-42,-109,-2013,3991,-1852
57,-96,-95,-1222,3460,-1432
-61,41,53,896,3382,-1346
55,16,107,-55,1291,-2304
90,52,-59,-1598,-746,-862
-32,-11,-14,829,-1919,453
104,-32,-54,325,-2668,2359
8,-6,103,-524,-3134,1781
113,4,86,1602,-3522,1109
-65,103,88,1580,-3820,1284
39,-59,-90,1605,-5335,1198
84,-96,-18,1996,-6186,1600
-86,-82,-30,2683,-4981,2077
-85,-69,-104,1483,-5869,2077
-14,-76,-95,1392,-5053,2686
108,-105,-53,818,-4380,2571
-11,76,-18,2096,-2898,2381
-4,108,-74,3169,-1785,2181
82,-98,-64,3537,-2530,2027
1,-47,-80,3254,-1964,2326
123,-102,11,-987,-1894,1979
-80,54,76,-1345,-1412,838
-104,-24,64,-32,243,-301
-117,-10,-5,-1725,1600,-1385
41,52,62,-824,2904,-2085
91,-57,-93,276,2267,-1763
0,-111,85,22,536,-1693
8,109,58,-507,869,-1661
27,124,54,-821,885,-1100
44,54,38,978,521,-1136
35,120,98,301,-116,-699
-31,117,-108,56,-590,-233
-64,-99,-59,-555,-964,95
-22,-73,-34,-455,-721,357
20,-81,-43,393,-397,411
16,-57,-23,660,-659,656
20,-42,-1,595,-836,725
47,-46,14,723,-753,746
75,-56,-3,862,-319,475
80,-75,-32,1020,-76,10
56,-88,-60,870,-63,-224
83,-116,-70,865,1,-119
91,112,-107,950,140,-69
95,-120,67,66,4253,-5459
-17,-18,-89,-466,2364,-4224
103,48,15,-873,1364,-3669
-14,-99,-68,-1858,1890,-3210
-71,-57,-32,-2641,2496,-2696
88,49,64,-5036,1832,-939
-72,12,91,-4979,5246,-208
35,-8,-40,-436,5241,-2209
-123,47,-22,-533,3515,-2422
-66,-114,-95,1726,1982,-3375
46,-91,62,872,1804,-1938
-9,-16,98,-2616,-1153,1178
-50,66,-68,794,-3503,1649
-88,-75,-94,-467,-3686,2804
67,75,-30,-546,-4008,1669
-17,118,9,382,-4481,1118
97,-85,38,299,-5031,880
-74,109,13,2384,-4572,618
-71,-122,-56,3806,-3420,1304
13,-47,-38,4020,-3738,2038
33,58,11,1726,-3183,1993
-128,95,-125,644,-3199,3374
-88,53,-67,425,-3445,3167
125,-2,-16,871,-3253,2779
88,123,15,3276,-2396,2946
-5,-86,2,2087,-1551,2162
106,-68,13,1363,-1214,1602
-40,111,-45,1499,-193,398
-114,-95,-78,-1018,116,81
123,68,119,-657,-76,-368
-92,-40,41,921,302,-888
-58,-41,-18,617,616,-1304
-19,-68,-65,-136,457,-1309
18,-112,-112,-595,294,-1239
22,112,-123,-521,48,-1220
40,103,121,-676,-12,-1185
54,81,108,-499,-223,-1024
54,92,123,-364,-452,-710
40,111,-123,-512,-606,-522
34,-121,-107,-785,-652,-80
29,-104,-101,-599,-659,151
42,-83,-88,-45,-544,404
47,-58,-87,-17,-485,469
58,-26,-86,-310,-412,553
56,-24,-93,-180,-410,547
65,-18,-97,-34,-332,487
76,-14,-114,48,-216,409
82,-8,-119,-26,-318,368
93,-4,-121,-123,-345,276
97,-7,-117,-206,-268,140
19,-26,-34,-1779,2406,-3972
70,-38,-59,-2397,3491,-4872
87,21,-7,-2038,3198,-5117
101,-37,0,-2420,3924,-5483
-111,-57,17,-2068,4299,-4648
-118,124,8,-1764,3878,-4055
-116,124,-14,-3005,3134,-3153
-95,73,14,-3033,2338,-2445
-23,9,-116,-2962,1592,-1717
-65,106,-116,-567,2982,-1109
-106,110,1,1154,3363,-2175
75,66,82,-54,2893,-2955
118,-5,-112,-597,104,-1127
23,56,93,-614,-1922,1347
117,-12,-9,-698,-2639,2371
6,-32,108,797,-2567,1727
67,48,-112,1565,-3096,1922
-50,113,113,2186,-3307,2042
22,-82,100,1469,-4334,2335
84,-33,-47,729,-6151,2563
108,-85,1,768,-6066,2128
-111,80,-11,2576,-4850,1792
-91,-41,126,404,-5193,2921
-3,-118,-116,1949,-4654,2438
89,5,40,186,-4789,3642
-94,-80,63,1426,-2838,2477
107,-90,107,2149,-1901,2116
16,-54,72,1384,-826,1253
-69,-101,44,2335,-285,622
-24,105,-98,3392,125,-164
-72,-127,97,1174,418,-628
-117,15,27,558,100,-686
-121,-29,10,402,-182,-115
-126,-43,0,-95,-502,31
-85,-47,-9,-411,-380,55
-46,-47,-33,-421,-37,-475
-9,-48,-51,-646,-170,-900
19,-80,-64,-279,-286,-1177
43,-111,-63,138,-217,-1312
48,104,-85,440,-28,-1494
50,87,-88,210,-58,-1178
38,70,-88,-48,-241,-724
28,66,-96,-316,-373,-127
28,75,-93,-329,-420,408
42,89,-106,-14,-336,665
57,111,-99,118,-338,895
78,-123,-106,262,-185,989
87,-111,-124,304,-119,903
-111,-88,114,65,-367,1078
23,-79,120,-65,-545,677
-84,33,57,680,4603,-5847
40,38,71,-1398,4370,-5310
-4,-5,104,-1283,4495,-4879
56,-66,-97,-710,5034,-4130
58,-106,-74,-746,3854,-3541
-114,-118,87,-1530,3474,-3344
-27,81,11,-1900,2639,-2998
-102,-50,47,-579,3235,-1910
120,16,34,2435,3619,-1453
4,-12,-44,909,2279,-2444
124,9,14,63,-646,-727
56,89,50,-997,-2553,1362
89,9,-35,65,-2984,1962
123,-30,104,-102,-3092,2021
-46,30,-119,1105,-4001,2450
74,88,-100,1254,-4371,2836
-125,-89,-28,937,-4844,2968
-117,-70,28,1610,-5686,2775
120,-45,97,2601,-6787,3820
120,20,-57,2002,-5811,3855
-12,-103,38,913,-4511,3519
118,41,-51,1026,-2282,2109
76,-51,28,909,-1936,2161
-26,-112,62,1182,-2660,2224
-66,76,-22,2497,-895,2118
126,-27,38,811,-1302,2096
5,-38,-39,1671,-574,783
-53,-107,113,1903,567,-1313
-65,57,22,1785,896,-1960
-52,-61,-44,1138,757,-2074
-7,-99,-57,16,628,-1253
-16,109,-86,370,15,-642
-26,86,-81,87,-463,-609
-18,98,-95,-848,-311,-451
-30,90,-80,-917,-698,-84
5,99,-77,-408,-508,272
32,124,-88,45,-192,259
35,-102,-96,83,-322,110
55,-85,-103,-352,-409,108
58,-93,-97,-324,-539,88
64,-91,-94,-405,-444,240
53,-90,-110,-245,-450,154
72,-89,-108,-43,-523,204
67,-85,-105,-94,-456,110
80,-88,-99,-66,-427,248
110,-80,-113,15,-167,225
101,-84,116,286,-222,-155
94,-113,111,514,-381,-218
88,-112,-112,-73,-451,278
107,-112,-127,-42,154,648
68,82,-14,-7550,-549,636
71,-73,-49,2459,3724,-5410
-30,7,84,1180,4387,-4753
108,16,-73,-4616,4634,-3639
47,-101,-89,-2468,3806,-3549
-105,-61,-68,-2335,4384,-4826
-92,-91,9,-2944,4014,-4137
88,-87,90,-4294,3279,-2464
-92,-31,94,-1671,3412,-2000
-59,93,127,549,2774,-1981
-111,-91,109,-58,2862,-1252
111,42,-77,631,3215,-2376
-105,-123,-15,-284,117,-1390
-54,97,-114,-762,-3266,770
65,-44,79,-1164,-3577,2838
28,-72,-62,559,-3539,2313
-72,78,-53,1003,-3720,1604
34,-116,-72,2120,-3906,1396
87,-47,-107,1970,-4861,1373
-58,20,35,1710,-6889,2226
68,-57,-72,3852,-4618,1164
32,-21,112,2192,-4851,1996
101,-100,-122,2702,-3127,2277
127,-83,-75,2780,-3547,2935
-90,-26,-12,1648,-2882,3457
99,-76,-14,1949,-2035,2358
-14,-26,44,68,-961,2391
99,-45,34,-128,-711,1467
-17,88,-98,1611,192,-333
-88,31,54,2403,458,-1371
108,2,-20,1045,307,-1171
107,-16,-39,-455,23,-412
-122,-53,-67,-653,-178,-247
-77,-97,-92,-10,-240,-621
-47,-97,-90,3,-309,-946
-23,-104,-90,-376,-441,-1052
15,-126,-82,-669,-487,-1005
-6,121,-79,-836,-538,-904
-13,107,-86,-803,-407,-826
-7,94,-105,-489,-336,-637
-11,102,-111,-469,-443,-287
4,116,127,-467,-392,221
10,-118,115,-453,-568,596
2,-82,126,-397,-739,857
12,-60,-111,-196,-514,919
5,-52,-115,287,-222,704
48,-47,-128,675,-84,557
110,-35,102,541,54,592
113,-31,98,578,-400,470
-35,-59,125,626,-413,-379
64,-88,78,-1009,3997,-5192
-27,-108,33,-565,3521,-5651
99,116,-73,-806,4171,-5686
-32,116,33,-2478,2048,-4306
15,79,98,-3562,2312,-3116
58,19,-70,-2593,2387,-2086
-64,-22,-101,-1291,2632,-1590
-89,-16,95,-800,2349,-1905
124,-108,-23,-111,2431,-2482
1,-80,94,432,1894,-2371
96,-52,-26,-346,-494,-63
86,71,-82,-77,-2165,1788
-18,29,17,391,-2682,2787
111,-43,61,901,-2736,2340
-23,108,-106,528,-3820,2445
61,124,-39,1209,-4712,2787
-62,-41,23,1093,-4792,2556
-75,7,100,1374,-4992,2581
-36,28,-113,932,-4485,2453
-66,16,31,954,-4546,2546
-57,94,-80,3618,-2085,1994
-2,-5,-10,1057,-2923,3625
-128,-1,30,-166,-3821,4142
-124,-102,58,713,-1773,3372
11,-107,107,2001,-1067,2355
-120,17,72,249,-854,1554
23,31,-6,-845,-135,241
-64,63,117,1583,-17,-1284
-49,34,39,1384,194,-1327
-48,-1,5,113,273,-1188
-28,-80,-42,-6,406,-834
-21,-68,-54,-596,59,-623
9,-110,-51,32,-296,-649
46,-123,-61,234,-214,-833
50,-123,-50,-161,-465,-605
46,125,-51,-373,-506,-333
42,127,-46,-430,-519,-113
57,126,-53,-120,-475,191
62,-92,-53,-525,-541,340
69,-72,-63,-470,-515,408
67,-64,-65,-207,-495,393
75,-43,-70,-299,-354,394
85,-27,-81,-267,-222,409
88,-15,-92,-359,-222,264
106,-24,-107,-109,-152,118
106,-43,-99,401,-472,369
87,-28,-92,438,-374,248
121,-46,-102,822,-209,-109
-125,-44,-112,324,-270,-345
-117,-53,-114,-293,-14,-406
55,78,23,-864,3688,-5203
-51,41,106,181,3764,-6632
-6,27,62,-1504,2977,-5549
-79,112,12,-3010,3763,-4903
-85,71,7,-2455,4053,-4324
120,89,50,-2708,3349,-3227
99,-116,-8,-3171,3006,-1309
-121,18,68,-118,4467,-2612
-78,43,-10,-682,3401,-3412
48,70,84,526,3349,-3219
7,36,-68,878,2013,-2467
9,60,79,-978,252,980
41,102,-112,89,-2477,1868
-109,1,84,-1146,-3229,2300
3,40,-111,517,-3629,1314
-127,-110,-76,326,-3957,1356
11,-87,-68,388,-3839,952
98,-105,-33,1333,-4611,1088
-120,-53,60,708,-5908,2220
-68,-113,-109,1900,-5862,2233
-33,111,-86,3364,-4863,1946
51,-60,-31,2282,-4552,3020
-109,-81,-97,2195,-3046,3061
-25,-31,-4,577,-3487,3620
10,-52,38,-310,-3109,3590
123,-59,-57,366,-2257,2589
-7,114,68,4589,-870,691
6,-82,-112,4171,-284,-976
-45,120,65,1902,590,-1222
-58,17,-23,-181,919,-1088
-74,-45,-36,-321,-49,-433
-76,-110,-63,913,-284,-423
-39,123,-86,842,264,-1246
-5,125,-35,32,196,-1571
51,80,11,34,134,-1526
97,53,-22,242,25,-1252
72,62,-33,-566,-528,-790
44,73,-73,-1045,-953,-87
29,78,-89,-828,-899,296
60,109,-106,-579,37,363
87,-112,-100,-363,-160,620
112,-63,-67,-257,-812,918
108,-34,-58,-130,-472,424
92,-45,-47,15,-363,-139
86,-53,-43,13,-433,-35
-115,-59,-61,27,-587,296
54,-73,-68,509,-1135,368
44,-82,-91,100,-779,6
91,-62,-103,-563,176,30
78,-84,-116,3,-149,-21
81,-34,38,491,4249,-5123
-107,95,29,473,4226,-5724
2,-126,-62,-910,4012,-5666
105,-67,-85,-2147,4930,-5444
-92,116,10,-1953,4907,-4738
112,126,2,-2921,3358,-3472
-113,58,36,-2167,2817,-2882
127,-81,76,234,4742,-2516
122,86,106,2507,3547,-6014
-92,72,-33,-2551,2196,-3336
-60,103,-18,-882,-578,-1011
-123,-55,-33,633,-1268,640
-112,45,-72,381,-2686,2659
17,51,39,1644,-2832,2756
-53,1,45,2067,-3070,3633
-119,-118,-9,1792,-3874,3739
-90,-84,113,1150,-5758,4391
3,-37,16,618,-6054,4136
88,-103,84,3430,-5187,4110
106,-46,65,2702,-3006,3566
-96,21,43,875,-2663,4338
-78,-4,121,-44,-3438,4294
-4,-17,-55,109,-3071,3628
-78,82,-1,-1079,-3137,2703
77,1,-52,1813,-1762,1678
107,-118,7,-459,1482,-957
-73,-116,-67,1074,746,-2265
-67,25,115,1478,874,-1773
14,-5,-16,-621,1433,-1538
-35,-85,-50,284,-52,-680
-88,-82,-62,147,-986,-39
-59,-83,-62,28,-783,-57
7,-105,-82,525,-178,-148
23,-82,-60,-20,-550,-65
12,-85,-36,-163,-651,-6
38,-103,-63,-46,-103,-205
35,-95,-70,-320,-505,-98
25,-80,-63,-745,-639,374
12,-54,-68,-784,-445,342
35,-55,-83,-295,-102,75
94,16,126,-1450,285,41
69,-41,118,156,-710,171
37,-75,-100,1502,-472,357
52,-80,-90,1690,133,274
108,-90,111,2073,111,297
125,-127,122,2311,-447,151
120,-116,125,969,-96,-277
115,105,123,-67,-43,-545
-121,71,100,-334,-36,-414
-112,47,87,-200,-206,-100
70,-9,11,-855,3504,-3671
-12,-82,-94,-632,3508,-4682
102,-105,124,-1141,3892,-4753
87,97,89,-730,4264,-5071
-126,88,87,-2021,4046,-5040
42,54,77,-3477,3367,-3230
89,1,48,-2382,3080,-2545
5,-14,112,-2370,2230,-1887
-68,-48,54,-1777,2870,-1208
-123,67,-77,1673,2878,-1919
-79,6,9,81,1430,-2387
67,-125,12,-712,-879,-398
9,110,-33,639,-1051,56
124,-36,70,300,-1582,2127
-24,117,96,983,-2018,1874
126,0,107,1367,-2417,1927
-22,35,79,1561,-2978,2273
44,-106,-65,1118,-5064,3359
72,-44,17,137,-6390,3181
-119,-20,87,975,-6111,2769
7,-33,-108,1481,-5029,2394
20,-84,-68,2050,-3802,2205
60,71,88,2883,-2883,2418
-23,-73,121,1235,-1551,2670
-83,39,-39,225,-3523,2777
-118,-125,-16,2864,-440,1490
-75,112,69,4595,-18,1395
1,-91,-27,4513,-203,1364
-108,-67,-70,708,-748,168
91,-104,118,-3678,-126,189
-115,45,59,-363,351,-281
-54,-18,-11,1847,425,-983
-17,-18,-42,938,164,-1581
18,-66,-75,10,-114,-1822
71,-128,-105,-766,-374,-1890
87,98,-107,-769,-645,-1742
94,71,-96,-540,-668,-1620
105,55,-103,-93,-325,-1497
127,37,-86,141,-275,-1201
94,22,-85,272,-418,-691
51,30,-60,-281,-675,-190
34,38,-46,-633,-755,487
18,49,-54,-407,-562,1266
49,73,-61,135,-211,1876
100,105,-92,608,-46,2225
-97,-79,-115,484,-197,2499
-87,-29,-112,18,-249,2158
-109,-27,123,333,-289,1234
123,-52,-84,926,-355,276
-110,-115,-113,1775,448,-434
-127,-27,-80,-2986,3373,-1946
111,63,-94,1146,4579,-4700
45,112,75,-240,5378,-5290
55,108,-20,-936,4425,-5072
-118,79,-83,-2076,4372,-5109
47,-17,92,-3751,3656,-3758
90,-68,75,-3957,3395,-2099
-89,101,115,-1932,3115,-1267
-70,59,17,470,4789,-2550
87,79,46,130,2610,-3893
-36,44,-126,-1715,1788,-3909
36,-62,-45,1276,669,-724
-66,-49,-83,258,-1906,2810
1,-57,-33,1350,-4527,4077
-86,100,-100,-1585,-4583,2653
42,99,-42,850,-4943,2001
36,-59,26,-335,-6189,2287
117,-81,25,780,-6182,1733
-84,-49,110,1933,-6163,2309
25,-112,-14,5672,-4103,1141
117,-96,94,1359,-4595,2546
-17,112,91,-68,-5928,3252
51,-51,-104,1842,-3064,1924
-32,119,121,4004,-1775,1494
99,-44,78,3684,816,454
49,-1,127,5809,1254,118
80,8,127,1817,3,-450
95,103,-122,-236,119,-456
108,-49,62,-595,-465,-29
-53,-49,31,-601,-283,39
-60,-54,-18,-154,-98,-280
-67,-46,-35,-375,-388,-993
9,-57,-54,-976,-496,-1238
16,-119,-78,-495,-1008,-1266
0,119,-75,-524,-742,-1209
33,124,-84,-1111,-647,-489
31,114,-107,-601,-570,-110
2,-107,-105,-595,-426,-163
-16,-90,-104,-470,-563,-236
9,-94,-104,-267,-290,-235
125,-112,108,230,-225,277
38,-102,105,168,-798,529
-57,-65,-80,-616,-1000,468
-13,-59,-27,-580,-148,689
59,-75,-75,602,95,995
112,-40,-108,755,43,1104
125,6,-122,176,-255,824
76,14,-107,-463,-252,301
-58,-27,117,93,337,212
48,-85,80,1465,-280,-367
0,-43,-45,-1531,6481,-3853
-39,42,98,1479,5727,-5967
107,-113,-45,-1375,5578,-5707
58,93,-66,-1252,4676,-5028
-67,31,-23,-1004,4111,-4580
-75,40,-43,-2265,3483,-3911
-42,116,-1,-3479,2594,-3106
73,-54,56,-1307,2978,-3160
-16,65,-35,211,3359,-2683
-124,-81,-72,-426,2042,-2560
-40,73,-41,-1283,-983,-369
-6,-49,-111,-1570,-2685,2521
80,-103,-83,409,-3227,3050
45,-75,-96,-316,-3784,2993
-17,-50,-127,1388,-4671,2203
-80,29,-100,1246,-5484,2037
47,108,24,986,-5673,1176
-32,37,47,1929,-6148,1193
-40,-52,123,1185,-6008,1733
43,-90,-30,1507,-5696,2536
-102,125,-88,1173,-3509,2271
46,-82,18,1464,-5511,3205
23,-60,-14,1516,-4040,3109
-78,-9,40,5654,-767,-53
-87,36,-55,2687,351,709
39,-50,-98,2115,59,234
-12,-109,94,1562,117,9
-84,63,68,1170,371,-211
-104,51,18,-309,748,-463
-57,-20,-47,-124,541,-584
-30,-45,-62,144,232,-908
15,-61,-76,-188,58,-1130
23,-101,-69,-95,-258,-1100
3,-110,-43,-383,-539,-1113
34,-96,-34,-1207,-342,-1069
77,115,-50,-395,-334,-968
90,103,-47,266,-161,-888
71,110,-61,-25,-193,-667
52,112,-64,-275,-464,-140
54,99,-69,193,-457,370
68,-127,-69,130,-482,825
87,-105,-69,127,-461,1014
-72,-84,-95,448,-478,1293
49,-67,-97,24,-686,643
87,-41,-50,-729,-750,876
-108,-61,-90,170,32,750
125,-70,-111,1091,-209,324
103,-32,-96,-103,-230,218
108,-38,-101,-538,-284,169
111,-65,-113,85,-267,-1
-102,-73,94,-763,3043,-5870
-51,104,13,-1739,3373,-5388
-81,-92,-68,-3431,3926,-4823
87,16,-55,-1092,3303,-5639
111,-41,-13,-1379,3973,-6189
-44,37,-101,-2840,2744,-4104
-66,60,35,-3999,1788,-2499
37,122,116,-4598,2872,-1654
46,85,85,-1962,3467,-2116
2,92,62,-644,3798,-2630
-63,-24,-113,-155,3839,-4082
24,-97,-17,-644,1961,-3376
-40,18,87,-225,619,-1198
-51,-59,69,843,-1290,2070
6,105,-54,-517,-2058,3064
69,-84,102,-251,-3018,2992
-119,-5,98,1213,-3031,3012
-41,-120,126,688,-4252,3335
93,-29,-31,519,-6619,2865
-124,20,64,969,-5341,2627
103,-87,74,1581,-3715,2019
-3,-41,-18,-1459,-7338,3510
-93,64,24,-4766,-6460,3761
70,5,86,2855,-3399,939
38,30,-43,5106,-2047,-962
-40,-72,-59,2936,-2717,128
-54,121,-37,901,-1461,965
-117,25,-66,2005,-1972,1293
77,-43,110,3785,-834,1391
54,48,81,2714,-394,1528
38,82,-9,1455,250,1386
-22,28,-12,1647,-915,1038
-53,66,10,360,-802,1180
127,88,44,-520,-593,537
119,34,31,306,-174,-648
-114,-5,0,322,279,-1545
-54,-55,-46,-288,372,-1907
15,-119,-99,-350,487,-2183
87,87,-116,-138,30,-1819
101,60,-118,-281,-290,-1369
60,88,-71,-1295,-807,-961
40,65,-69,-1504,-315,-861
61,40,-88,-716,-157,-541
75,55,-104,-322,-14,-264
35,91,121,-254,-168,-68
40,114,120,-369,-440,293
57,-105,125,-434,-575,526
62,-86,-116,-395,-652,767
61,-68,-103,-229,-580,893
95,-47,-96,74,-674,1013
-11,111,-26,5076,5345,-7394
-85,93,127,-711,4044,-6102
-119,-82,-6,-3748,4884,-4804
92,13,16,200,5018,-5482
-1,-38,-5,-3447,2930,-3134
-29,40,-118,-4575,7939,-3034
73,87,-6,-662,3305,-4831
-84,-53,82,-3544,3046,-3613
-112,87,64,-321,3397,-3376
49,-13,75,2427,1566,-1963
-42,19,3,-1754,-942,-353
-96,-16,120,356,-3359,2208
-114,-123,18,519,-3181,3429
-115,41,-44,176,-4158,3448
124,110,-104,1709,-4392,3080
64,-53,107,2310,-5179,3019
-108,46,-103,250,-6791,3456
80,23,-79,2687,-7798,3951
-73,-108,70,-595,-6607,3413
-116,36,93,-258,-3631,1140
9,-113,-34,1304,-3612,-175
-30,77,107,1817,-3348,963
87,95,111,1585,-2347,1540
-7,65,97,2968,-359,952
95,117,-75,3282,895,-33
-95,-112,30,1325,632,-908
-88,67,-4,-9,564,-679
-94,-48,-84,157,581,-720
-90,-109,-119,1130,227,-715
-94,-120,-124,925,-312,-452
-48,-70,-89,-838,-543,-53
-19,-72,-55,-1002,-1175,143
45,-28,44,-1909,-2013,323
82,-104,-19,-780,659,-794
88,74,-90,660,1623,-1883
28,58,86,1220,1046,-1874
-11,66,88,630,18,-667
7,83,79,-521,-307,511
5,119,64,-1068,-1060,1263
12,-106,95,-866,-1331,1461
96,-39,-119,-997,-881,1546
119,-19,116,-358,-435,853
82,-3,-115,258,-968,327
63,32,-77,-250,-475,-179
83,-2,-97,-144,-262,-443
95,-33,119,171,-421,-482
72,-35,96,-103,-422,-352
38,-26,87,-697,-675,-124
78,-13,78,-1069,-660,47
101,-15,68,-821,-422,-265
-29,-37,-84,-2409,6210,-4343
-52,35,29,326,5632,-6044
-104,115,61,-1227,5831,-6254
125,-118,121,-2140,4569,-5559
107,112,-57,-1932,4209,-4900
69,-108,54,-2400,3400,-3669
-123,-56,10,-3820,2333,-2799
46,-30,121,-722,5271,-2593
-117,-33,-22,-1189,4359,-3476
-14,-77,-14,-3612,3519,-4209
19,-84,-67,1440,-373,-1261
-39,79,-65,506,-1816,1119
-25,17,-25,235,-3070,2071
105,-84,84,2473,-3630,3042
-34,121,119,1375,-3741,3146
-98,16,-86,827,-6061,3593
-56,116,62,132,-8781,2182
-124,114,-68,3140,-6062,2221
89,-39,89,1320,-5600,1935
102,70,5,2361,-4637,2097
-113,-26,18,1729,-4799,3119
-60,-50,124,2060,-4912,3185
-28,-96,14,3200,-2705,2174
101,-10,110,2199,-2007,1901
-96,9,119,1552,-1347,619
-23,-94,37,2479,454,-477
-100,-125,-104,1693,898,-1020
-104,108,38,-298,990,-975
-98,19,-34,-984,-38,-888
-55,-24,-72,-824,-73,-1136
-14,-73,-59,-532,-292,-1236
-30,-84,-47,-421,124,-1505
67,73,-110,618,548,-2118
0,62,-85,43,-618,-983
-34,-120,-69,-1552,-419,-9
25,81,121,-282,-165,58
-3,113,-115,-73,-592,559
6,-89,-123,-276,-370,528
31,-86,125,-174,-564,678
55,-66,-113,-184,-591,993
71,-53,-106,274,-509,922
52,-32,-85,288,-515,675
100,-25,-91,46,-171,485
92,-12,-107,-264,-564,606
29,18,-85,-1027,-839,545
25,44,-60,-1390,-439,261
95,21,-81,-404,157,-248
-121,-9,118,746,313,-956
123,-8,111,405,-145,-1230
-113,-17,-121,-380,-160,-1135
72,-83,85,-1618,2849,-5242
-120,-89,61,-2078,3440,-5525
32,-82,25,-2555,3569,-5432
-10,-118,-22,-2999,3340,-4653
-36,-124,2,-3474,2442,-3075
6,122,26,-3280,1570,-2076
123,69,124,-3686,3080,-1930
33,-75,111,327,3813,-2001
-62,-96,-93,943,4327,-3868
-124,-10,-26,-534,4657,-4331
-36,-22,4,2024,634,-319
-48,-51,27,-485,-1914,3170
94,-127,-34,1168,-3697,4189
-7,63,-122,-966,-4107,3516
-93,-114,-78,480,-5484,3390
-22,-79,-17,508,-7316,3294
42,-53,109,1580,-8555,4845
-116,-117,-26,3480,-5705,3873
0,-111,122,2272,-2946,3072
-30,15,80,810,-4979,5692
-54,20,-109,-467,-4987,3488
-65,82,47,2253,-3230,1562
27,-28,126,926,-1889,2135
-13,-72,75,2629,-1741,949
85,-1,76,1226,-908,18
-46,-9,-32,-903,429,-909
-86,100,122,1021,632,-1172
-88,40,-9,1763,602,-1223
-80,30,-53,777,93,-1467
-30,6,-77,-778,-159,-1823
88,-57,-88,-1699,-36,-2076
102,-128,-81,-684,-3,-2099
86,43,-96,678,332,-2034
60,44,-86,460,183,-1487
36,56,-78,-353,1,-679
23,53,-99,-607,-61,123
12,63,-95,-383,-411,767
42,83,-103,-83,-168,1223
78,121,-110,183,-345,1730
95,-109,-121,340,-474,1941
95,-71,-105,148,-794,1980
113,-28,-88,-244,-928,1900
-111,-5,-71,-293,-813,1994
-111,37,-50,-78,-581,1504
-108,89,-55,-634,915,-44
126,82,-50,-313,382,-1019
123,42,-84,-675,39,-1872
-98,40,-116,-1319,-116,-1541
-53,36,-127,-1447,-718,-1024
46,25,111,-1134,-699,-1175
2,94,25,-282,4224,-4614
-46,102,113,-1690,4807,-4802
-35,79,50,-997,4344,-4997
67,-119,23,-2091,4788,-4804
-21,98,17,-2288,3684,-4180
-38,-3,-110,-4886,2349,-1706
-81,54,68,-1283,4069,-2273
7,-11,93,195,4352,-3273
55,-17,100,3007,4887,-4568
4,-4,-11,1219,143,-2399
-116,-48,-66,14,-1765,1672
-77,32,6,212,-2960,2179
25,108,-123,-2,-4239,2135
-44,18,-66,-414,-4717,2413
64,-1,-62,2075,-5758,2652
-127,-108,50,2545,-6863,3787
-116,59,92,1090,-6584,3513
-87,-72,-45,3330,-5589,1324
93,36,-50,1435,-4279,2404
-7,63,116,745,-4859,3330
-15,-27,-16,-440,-4380,2262
-3,81,-8,1116,-2385,1204
105,-70,103,4970,707,-359
70,103,98,3242,-1813,-263
9,123,71,-4410,-2800,2696
5,-56,98,-3811,-2005,2387
-6,113,59,2978,820,-407
-88,-73,93,3687,3043,-3128
-35,28,-82,1275,3841,-2573
44,37,-104,-744,2179,-1337
49,-100,125,-238,171,-1544
61,89,-115,665,-573,-1796
73,79,-74,71,-440,-1430
88,75,-7,-17,-676,-785
106,-43,-43,1635,9,-1045
74,16,-39,561,-18,509
34,-126,-56,-1482,-355,1766
28,-125,127,-1189,-924,1862
104,-119,-100,198,-930,1999
-113,119,-127,2091,-595,1386
-110,-97,118,2077,-744,654
-95,-40,-97,246,-594,870
109,-86,-91,-134,-532,194
103,98,-101,810,-352,-346
111,92,-98,580,-510,-165
110,122,-103,-535,-741,215
121,117,-76,-621,-961,327
38,61,-112,335,-169,-407
-116,66,125,362,-148,-350
117,97,126,-285,-620,-164
6,104,50,431,4971,-5536
79,-101,91,-102,3485,-5358
64,1,125,-1941,3174,-4592
-127,27,-98,-2648,3640,-4667
-69,20,-91,-2664,4463,-4163
85,-15,-33,-2486,3779,-3668
112,-71,34,-1801,2671,-2721
-31,-109,48,-1640,2872,-1720
-123,101,-47,-624,3997,-2005
44,29,44,-416,3952,-2903
-82,99,-47,42,380,-1533
98,-79,13,1497,-1593,1602
-40,-26,-42,-892,-2938,3186
-117,18,93,429,-3875,2499
-14,-115,-109,-72,-4702,2151
53,-65,0,-461,-6411,1752
125,-94,-125,1614,-7229,2327
-69,-120,-115,2435,-5348,1794
-14,-53,-107,2201,-4303,2059
-8,-79,122,1227,-3900,2213
54,-73,106,668,-4256,2446
117,-127,-1,762,-5387,3439
8,21,-73,2750,-1686,2346
-32,110,-76,3555,-2726,2668
88,16,9,764,-3377,3326
-59,68,90,-303,-2668,1625
29,-52,33,459,-466,-1054
-37,123,-81,594,1379,-2096
-107,46,66,918,1040,-1736
-90,17,9,611,585,-1215
-53,-16,-38,85,369,-1174
-13,-63,-74,-238,231,-1266
14,-85,-63,-555,5,-1398
37,-108,-66,-958,108,-1360
34,-125,-79,-987,153,-1183
27,114,-96,-649,150,-894
8,113,-122,-340,-19,-522
-2,-128,-122,-313,-381,48
0,-94,-98,-525,-662,589
28,-80,-107,-176,-393,593
52,-77,-115,267,-407,608
66,-61,-120,285,-693,811
59,-67,-112,513,-637,1050
66,-62,-99,675,-789,1345
88,-19,-88,84,-973,1710
82,33,-37,-731,-1588,1696
87,101,27,-1779,-1351,1515
104,88,-17,-1427,23,358
-128,37,-110,-235,1195,-1185
120,33,119,287,796,-1679
119,-78,120,-288,3871,-4974
29,-116,-17,159,4389,-5385
25,113,60,136,4098,-6488
23,-33,-20,-737,1389,-5317
124,80,1,-3173,1286,-4008
-32,85,72,-3031,2260,-3826
-11,-117,-41,-3320,2190,-3173
-65,-113,9,-3638,2604,-2855
-69,101,51,-1369,3103,-2342
-48,44,-3,-537,5803,-4330
-57,-13,58,652,3641,-4913
-30,92,-124,-1402,730,-1025
10,-21,78,-1520,-35,648
-46,66,-16,881,-3127,2670
16,109,121,299,-3559,2644
-128,-54,-112,1736,-3183,2968
2,80,-50,1629,-4308,3292
81,87,-31,1236,-5218,3399
-68,55,-47,1650,-5619,3922
77,92,-21,1260,-6422,5068
33,91,-51,3079,-5925,4658
-122,72,-36,-372,-3320,2589
94,-46,59,2025,-2712,1936
100,122,-7,3232,-3024,2122
-109,122,7,3182,-2529,4358
67,119,-114,-272,-4935,6316
122,-113,-103,-5149,-7998,5392
36,-58,69,1091,-4761,907
-100,106,20,4550,389,-2834
-29,70,-107,1158,2943,-2777
-82,66,-35,-2486,3464,-1320
-58,-9,6,120,1830,-2120
-4,123,-22,-808,1700,-2563
-86,103,16,-1694,606,-906
44,-95,-121,-542,761,-1039
120,-117,62,775,2307,-2539
109,120,87,1193,1371,-2963
61,53,102,1322,238,-2605
35,17,-96,434,-136,-1276
23,-33,-71,52,-340,187
39,-13,-94,101,-155,925
60,43,-108,-224,-699,1181
82,77,-125,-181,-694,1591
83,113,94,-71,-811,1866
72,-91,126,-402,-1320,2025
-81,-64,90,113,-933,2248
127,-4,-99,-38,-1796,2428
73,-3,-103,729,-1016,1682
89,9,-110,588,-640,695
46,13,-89,373,-975,469
7,89,-114,-838,4280,-3019
15,64,32,329,2728,-4719
109,-91,-125,-2576,3822,-4871
-112,-120,54,-2591,4825,-4769
21,108,-22,-2017,4807,-5060
108,110,115,-2428,2981,-3749
-78,-102,103,-3461,3138,-2725
-83,88,-89,-2914,2119,-2082
119,-3,-124,-1387,2752,-1290
37,-95,48,408,3388,-2482
-32,96,52,458,4379,-5285
127,-113,-36,-715,-1293,-2066
-83,-35,118,-1350,-1819,1635
-1,1,75,916,-4023,3999
-100,-93,-47,304,-3169,3649
49,125,-47,2223,-3635,3501
-82,-13,-69,1420,-5201,2604
52,-34,-97,1407,-6046,2687
-35,-60,76,3069,-6706,3259
25,-4,-112,1267,-7287,3665
-86,36,3,-854,-6336,3396
-49,-100,19,1309,-5016,2157
-20,89,-105,3380,-5523,1374
-42,112,86,2211,-3080,2360
38,18,28,4787,-1160,2293
-17,120,78,1120,-2323,2947
36,-62,-125,-2460,-2073,1935
-91,-2,113,-93,-432,-397
93,-110,-45,1270,1700,-2388
-70,-65,74,-923,2382,-2389
-2,-90,-31,-1803,1519,-1484
-11,38,-112,-213,329,-1842
13,17,-126,-622,635,-2328
7,1,114,-1468,460,-2072
27,-47,103,-1029,186,-2120
55,-77,76,-960,493,-1817
-8,-117,51,-113,142,-1566
-55,-125,72,172,-474,-937
-6,122,52,408,-488,-93
-100,126,101,522,-1474,163
123,-126,-64,124,-1547,560
-60,-58,32,-1125,-1859,1967
21,-41,-16,-518,-357,2306
41,-67,-79,1676,39,1449
63,3,-85,1555,-474,1637
49,-118,-54,-1246,-526,1566
30,66,-107,-648,221,431
21,-30,111,1658,197,-314
45,-23,75,939,322,-89
68,1,60,-769,524,842
56,-52,88,-1411,4479,-4198
17,-102,-28,-765,3434,-5097
77,14,-13,-2556,3675,-4636
44,113,61,-3289,4038,-3716
125,49,-112,-1662,4343,-3162
-60,115,-111,-2680,4568,-2392
-91,113,33,-2700,3354,-2484
24,-125,110,-3268,2223,-2165
-77,24,89,-1559,3015,-2405
69,-103,20,183,3652,-3891
50,39,120,1715,1647,-3356
79,-53,-25,-370,-134,-142
89,-2,46,-539,-2276,2700
28,-86,-89,-735,-3264,2896
-81,-128,30,-331,-4075,2576
-1,-116,-14,1731,-4107,2540
-45,28,-75,1615,-4252,3335
-110,66,112,1893,-4811,3791
70,-66,-105,-103,-6850,4117
-30,87,69,2887,-7235,4803
71,101,75,823,-5734,3970
-108,-127,-99,38,-4953,3378
64,-121,-14,843,-4577,2456
-27,96,-16,2515,-5839,1605
-116,80,54,4175,-3719,1700
104,123,112,4821,-1694,836
-22,-51,-49,4194,357,-969
114,-36,-64,1009,731,-1644
65,117,-128,-576,1213,-1484
60,-31,34,-996,987,-1742
116,-121,-10,86,378,-2055
-66,107,-45,-92,208,-2177
34,97,-74,-1042,-37,-2155
107,64,-56,-1109,-428,-2198
-105,22,-53,-680,-241,-2414
-82,-18,-65,-385,120,-2598
-123,-30,-54,-725,-272,-2362
42,-48,-69,-1265,-418,-1478
-36,-30,-57,-1533,-1237,88
-115,5,-61,-1495,-1669,1243
-127,82,-73,-827,-1691,2237
-44,-109,-104,-276,-1579,2599
102,50,-103,-1030,-1995,3417
-128,-67,-63,-2360,-1889,3562
-110,-6,-95,-2274,-1358,1944
52,39,-36,-2515,-1264,-294
19,87,8,-3946,-1101,-442
-1,96,-128,-4227,-1048,-146
-3,19,-115,-2027,609,-728
80,-33,65,-60,1825,-1530
93,52,54,1236,3193,-6212
47,-113,23,-1171,2939,-6045
-64,-81,-92,-2607,3024,-5764
74,-93,114,-2599,3250,-5663
63,120,-122,-2422,2979,-5041
-29,100,-100,-3108,2961,-3639
68,99,-61,-2784,2062,-2851
-22,27,-112,-1515,2677,-3267
69,-95,50,-672,2984,-4006
116,121,11,416,737,-4114
-28,-31,-33,-43,-195,-694
-66,-65,-10,-168,-1219,1360
-15,12,73,38,-2888,2892
-120,71,-104,-404,-3074,3668
-11,-65,-80,98,-4243,4012
-70,12,-78,1402,-4853,4635
-16,-111,18,2134,-6055,5713
90,-2,25,868,-5265,5138
80,-83,81,3727,-3405,3815
115,4,-43,569,-3871,4625
-26,-115,-84,812,-3240,4577
-63,115,31,1654,-3706,3367
123,-12,42,4538,-2727,2295
-32,62,123,3879,-1129,2097
-19,-108,-79,2256,-1254,2056
45,-125,-77,1892,-442,1052
-109,84,83,2143,355,-223
-121,63,36,850,611,-1313
-105,-71,-1,622,259,-2154
-51,121,7,121,-240,-2453
9,64,3,-602,-636,-2587
96,11,-4,-1174,-951,-2340
-127,-3,-17,-1384,-767,-2141
127,-20,-30,-1455,-847,-1842
104,-4,-44,-1656,-806,-1387
75,12,-78,-1671,-760,-1130
32,8,-86,-972,-1158,-443
3,40,-86,-413,-1039,436
-13,78,-97,-230,-823,815
-22,119,-114,17,-801,1253
74,-99,-114,72,-676,1777
-117,-59,123,337,-306,1730
111,-52,108,927,-578,985
59,-43,-112,594,-941,624
47,-17,-80,-444,-860,747
57,-9,-76,-669,-473,1046
72,0,-91,-342,-300,1040
90,38,-100,-349,-362,1103
82,112,120,-1019,55,459
90,81,87,-595,209,-940
-125,-19,64,-2576,-2929,3027
117,-115,21,-2532,3858,-3261
-117,-89,60,-1060,4549,-6987
108,-11,-75,-1979,5347,-6408
-75,28,-84,-1009,4268,-6028
125,115,53,-2470,3184,-5746
115,97,-124,-3235,3949,-4619
-66,25,-86,-3651,3839,-3407
-13,24,-69,-3217,2862,-2376
69,-27,-8,-2171,2590,-2297
-35,102,-127,452,3890,-2934
105,17,-21,1350,3894,-3884
-125,71,15,-2010,-407,-1798
58,-66,-85,308,-915,1211
78,-26,-128,2671,-810,2516
-70,86,5,-499,-1791,3222
8,-81,-62,2026,-2498,2928
-77,-122,-6,119,-4146,3104
55,-108,51,775,-6044,3222
56,25,73,-1106,-9124,3394
-60,-68,36,1265,-5430,2626
-6,98,29,2705,-3069,743
0,-20,-122,1354,-3714,2339
1,-69,-109,749,-4529,2204
75,-105,-14,602,-4316,2438
-111,-105,127,434,-3831,2896
118,74,108,2438,-1901,1642
-8,-100,40,2888,-952,1226
-126,65,33,-236,-522,1417
-47,10,-96,-1213,283,-42
-31,-102,97,397,443,-819
-106,-68,38,-924,341,-909
-104,6,49,-4127,-199,-15
-74,122,29,-1721,74,-736
-17,11,1,-176,637,-1934
30,30,-46,-949,846,-2020
5,-31,-81,-487,291,-1842
-74,-69,-95,-270,-294,-1462
-61,-21,-81,-926,-513,-693
-88,-14,-81,-764,-667,-87
-111,33,-50,-679,-1063,393
-92,64,-23,-386,-1094,529
-89,99,23,-198,-1068,726
-70,69,17,972,-602,578
-41,52,-15,2021,-301,613
-44,-72,5,-201,-649,1260
-23,-14,4,-2387,-478,1249
6,-90,-50,-1240,141,43
11,111,-65,515,91,-753
6,-127,-78,210,-74,-686
29,-70,-5,-2660,4007,-3872
-2,-7,-39,280,6863,-7409
-31,85,0,-547,4698,-7193
110,61,-58,-3023,2011,-4136
-119,5,-111,-3506,3023,-3845
11,113,20,-5422,3287,-2095
-120,40,63,-2590,3154,-908
-8,34,-73,-516,2589,-1310
-60,-65,43,4922,3604,-3382
82,-106,-125,108,1066,-4322
-58,-95,35,-2286,61,-1166
79,-61,88,1199,-1171,526
-47,80,-7,-504,-1821,2694
-41,67,10,637,-2277,2675
122,-66,-50,1337,-2709,2683
54,5,-105,1132,-3073,2899
90,-27,57,2803,-2852,3379
105,75,96,-2538,-2875,5256
-27,-111,-80,1632,-7229,3644
104,-39,-107,3333,-7083,3352
90,-86,2,-1331,-5418,5931
79,120,-18,-2970,-4257,4582
31,-113,122,4916,-2686,2136
16,-125,-42,4748,-3423,2081
-29,45,-23,1128,-1659,570
120,-18,-60,-1589,968,70
-65,-104,-112,-2321,699,-157
-124,56,-118,-6,-34,-410
-72,72,88,-348,779,-768
44,36,-4,-522,1577,-1439
74,-32,-74,774,1477,-2209
63,-72,-119,1365,320,-2414
92,-88,122,449,-254,-2256
-106,-72,126,-1205,-132,-1287
82,-85,-99,-1793,-366,-1370
36,-128,111,-764,276,-1497
53,84,94,-114,31,-1125
24,-116,-33,-358,-1956,770
2,-64,-63,-138,-1008,1476
21,-101,110,986,494,243
51,-103,90,1469,260,298
100,-77,96,677,-550,996
90,-81,92,96,-688,1082
104,-91,125,379,-1046,1635
104,-63,-107,265,-1019,1895
99,-9,-92,-94,-999,1825
106,28,-81,-719,-449,2246
115,56,-100,-1328,380,1103
83,-2,-94,-106,-322,-101
104,21,-91,-218,-458,-445
-22,26,-126,-1475,4489,-4141
77,58,25,-1198,4449,-4726
-43,92,23,-347,3004,-5508
88,41,60,-4722,4104,-4718
82,-67,56,-3117,3561,-3762
-112,-90,117,-3303,3754,-2800
-64,93,-106,-2106,3368,-2480
-40,14,-63,-1815,1927,-1717
-106,-104,98,-479,2176,-2351
37,74,-20,-1710,2348,-2631
-83,38,86,99,535,-796
-110,-123,-30,-44,23,550
-104,-32,48,-235,-2329,2060
13,-86,-83,618,-2609,2076
-91,4,-47,1595,-2547,2347
0,122,-47,1209,-3651,2776
-122,-106,-67,1184,-4403,3034
8,21,-19,386,-5495,2847
117,-128,111,-548,-7283,2320
-108,-4,-126,1110,-6613,1883
-46,-69,-22,1500,-5437,1928
49,-79,122,776,-5807,2931
-124,90,108,3607,-4624,3360
-91,-13,-61,3142,-4680,4355
-48,-96,5,4849,-2238,2047
-81,58,81,2473,-2825,1689
55,124,-116,-1198,-586,1259
-82,-27,82,477,-74,-71
-102,-31,-18,-864,1081,-1306
-48,-115,-123,-1322,1633,-1866
-27,96,-58,481,2040,-3141
54,68,-95,-259,631,-1314
80,100,122,-1116,-71,-714
11,70,-126,-1058,88,-973
16,105,-85,-1916,-77,-145
-6,122,-31,-1602,-498,-43
53,-87,16,-1224,180,178
6,-49,-5,-465,-481,-70
5,-17,17,-700,-396,147
63,37,10,-1088,-244,540
46,0,15,347,-657,417
73,37,20,162,-98,205
95,48,10,-248,-388,191
91,56,2,-882,-451,41
52,20,-5,-564,-422,65
70,49,-5,-455,-451,243
97,46,4,67,-637,126
122,63,39,92,-489,-10
-126,91,49,-645,-203,-161
-127,-120,40,-1428,-66,-664
-109,32,63,-265,4835,-4175
-23,-50,84,-825,4871,-3846
-116,-84,-122,-948,4540,-3710
-65,-94,89,-1740,3870,-3324
-45,95,18,-1555,3660,-2544
62,83,10,-1447,2911,-2433
-40,16,25,-708,3003,-2218
68,-37,-106,-86,2941,-2332
12,-9,25,-889,2048,-2626
75,114,-10,486,1283,-1550
-117,90,59,-1419,-668,1457
-69,26,71,-131,-2327,2394
-104,-55,-125,-1094,-3981,2334
75,19,-60,569,-4075,2193
-34,-88,1,252,-5110,1731
53,-97,45,970,-5625,1676
109,-24,-100,10,-6098,2136
-119,-6,34,933,-6152,1719
123,-11,81,-222,-5374,1597
77,-19,106,-205,-5638,1261
-111,108,-92,923,-3797,1655
36,118,-47,830,-3684,1935
-40,92,-14,1533,-2840,2175
-67,-122,-19,1601,-1562,1840
68,-80,-92,1917,-1436,711
-16,-116,58,1991,-229,-250
-56,119,-23,468,32,-530
-73,40,-117,-297,148,-449
-62,0,95,-33,10,-178
-41,18,58,-500,-31,-316
10,35,54,-1088,172,-708
32,0,8,-524,200,-1163
75,-24,-3,-579,199,-1446
84,-57,-26,-322,442,-1399
58,-76,-67,-317,7,-1282
58,-80,-63,-585,46,-1208
46,-84,-46,-402,-296,-662
41,-98,-12,-126,-657,-42
30,-81,28,-244,-916,839
30,-62,56,-68,-1043,1243
68,-41,49,1023,-923,1623
90,5,24,996,-467,1234
103,85,-24,-708,86,823
97,57,-56,-751,-303,418
101,28,-66,-310,-443,81
104,9,-48,33,-714,23
93,-2,-55,85,-481,-30
85,-3,-38,-107,-667,99
89,3,-34,-381,-778,153
107,19,-18,-568,-677,91
83,36,-3,-902,3300,-5456
36,-104,71,-719,3973,-5245
-110,40,18,241,2357,-5245
-59,-62,126,-2942,1502,-3947
63,-54,-93,-3314,2616,-3047
51,65,-16,-896,2662,-2601
-16,-85,58,-2374,3181,-2285
-58,109,-26,-1100,3354,-2769
124,84,-114,-871,3475,-3206
5,17,47,-1484,3097,-3269
-76,7,-127,-170,3321,-3011
98,85,-25,707,2547,-1533
61,67,61,-614,1252,-397
12,40,-125,-121,-2602,2160
80,77,33,-925,-3844,2406
-68,51,-71,-182,-4049,1874
-88,103,16,-343,-5340,1331
-80,121,-116,194,-7001,1831
25,75,-116,1768,-5083,2632
93,54,-118,3684,-3912,2342
-127,-31,-11,1436,-4541,3423
-54,-10,-20,506,-2456,1893
-127,-16,61,1022,-3578,2237
-42,-72,79,994,-4053,3086
-33,-58,116,248,-4493,3381
23,53,40,2789,-1018,2700
-45,105,-100,3334,-2175,2479
-46,112,-108,2306,-1352,2463
-119,104,-106,2401,-1242,2511
71,-90,-121,1469,-565,2113
-28,-75,123,886,-117,898
-64,-97,97,106,-70,-470
-22,103,56,-623,228,-1282
46,7,1,-455,43,-1941
64,-65,-15,83,-464,-2350
84,-115,-33,-232,-771,-2478
93,126,-59,-606,-893,-1973
98,108,-73,-989,-570,-1766
104,65,-97,-739,62,-1561
83,37,-113,-77,123,-1204
51,38,-85,-28,-480,-609
24,62,-53,-431,-674,153
23,95,-18,-1039,-975,821
29,112,-5,-480,-848,1550
65,103,-18,655,-377,1619
101,126,-71,1296,375,1433
121,-118,-104,1564,79,1298
-123,-95,-92,995,-462,1450
110,-84,-101,238,-458,1248
119,-94,-104,200,-577,993
-87,-98,115,-1536,2982,-4553
-31,113,7,-1453,3940,-4725
119,94,14,-1259,3063,-4818
-106,119,27,-2378,3150,-4232
-62,64,23,-2283,3274,-3360
8,71,67,-2376,2795,-2537
-104,0,49,-1174,3325,-2642
59,-57,-41,-750,3879,-3254
-100,35,32,119,3486,-3124
-40,-34,-48,1251,211,-1767
90,-6,60,68,-1666,2145
86,-124,95,-1275,-3047,2068
-23,-119,64,-1511,-3668,2442
122,-40,-118,575,-3512,1788
-18,92,-75,-304,-4025,1820
85,103,12,947,-4619,1617
56,65,-69,2833,-3548,2664
-85,72,101,3852,-3813,3928
-60,62,-73,2084,-6775,5882
74,-64,105,-211,-8139,7089
119,68,27,-1882,-4685,4650
67,75,-43,3321,-940,665
3,74,66,6441,-1535,69
14,-47,-104,3694,-1736,2272
91,76,-49,391,65,2772
-32,-70,-54,-2103,-540,2075
-92,118,73,-2577,152,-1227
8,-124,7,90,912,-3041
124,-10,-94,843,1335,-3210
50,-9,59,-788,-448,-1100
-94,-40,30,-883,-1222,728
-114,28,68,-934,-422,-604
-39,69,100,-517,392,-733
48,-57,-128,-1051,452,-597
10,-36,-97,188,-926,-616
-8,-33,-37,-87,-1288,-618
4,6,-24,-1114,-479,39
-7,37,-19,-1643,-447,-194
8,62,-27,-1661,-392,-470
25,46,-44,-974,-179,-491
5,36,-58,-365,-235,-273
-48,51,-54,-244,-534,219
-63,66,-71,-580,-496,430
-57,81,-62,-633,-451,441
-14,103,-56,-555,-622,415
12,117,-55,-706,-873,321
66,-68,1,-1773,-1136,631
74,-76,-3,-1713,-356,-168
39,73,-28,488,146,-1129
-5,60,-47,1133,-57,-1056
-18,-50,91,-1168,2752,-4304
-8,31,107,-756,2234,-4309
45,-39,37,-2018,2154,-4664
-113,48,-68,-1111,1796,-4946
117,-5,-123,-2533,1580,-4210
-125,-8,-70,-4606,1905,-3878
-34,107,-19,-3270,3558,-2331
-32,-106,-14,-1094,2583,-1863
-87,54,96,966,2928,-1543
-117,-6,120,921,2179,-1735
34,-125,115,1335,-241,-543
6,94,-80,186,-2397,1605
62,53,80,365,-3995,2521
-114,-28,-102,484,-4486,2209
48,-106,-65,14,-4801,968
-61,87,-2,1931,-6387,689
-63,-127,108,4975,-6409,2402
95,30,14,3632,-4451,2278
90,-11,59,3718,-3999,2269
-118,-107,32,3210,-3385,2496
-37,125,102,1720,-4403,2960
22,-9,102,2253,-3466,2824
46,-110,121,3242,-1698,2353
89,118,-1,3704,-337,602
-62,-78,0,1684,-278,268
67,-72,-28,-1691,-145,119
-110,80,-109,-1640,-71,-96
-113,9,73,-662,247,-776
-85,-27,13,-781,815,-1627
12,-109,-84,-293,1846,-2012
52,39,-96,686,950,-2256
51,28,-84,708,235,-1576
53,38,-55,-339,-197,-706
-29,22,-46,-949,-567,-76
-67,1,-39,-477,-1151,794
-89,53,3,-704,-1400,1693
-27,103,-15,-407,-967,2189
33,-115,-7,197,-1152,2504
97,-27,-14,-4,-776,2529
101,27,-48,-130,-266,1370
69,3,-95,335,282,-323
55,-44,-115,1065,122,-1235
65,-80,-109,950,-126,-1362
78,-92,-92,141,-411,-1081
85,-114,-72,-305,-612,-783
118,111,-57,-300,-452,-439
110,105,-64,-61,-102,-290
90,86,-101,342,193,-254
94,84,113,527,98,67
104,106,95,286,-229,703
-112,75,-127,-4577,-4073,3903
-118,-44,-39,-321,5429,652
83,-92,123,1624,8416,-6461
-75,-14,118,359,3819,-6810
-56,88,-80,-1538,3109,-4014
-14,16,100,-2212,3818,-3553
21,-1,93,-2266,4657,-3594
91,29,115,-2310,4200,-3415
41,6,104,-924,4928,-4353
-98,-6,52,2400,4229,-6594
51,-104,53,845,1549,-3823
-121,-55,0,-2008,378,-2350
-118,-43,27,-833,-330,-42
123,-49,-46,1201,-687,1402
-123,-4,-108,-1999,-2573,2263
-62,40,-99,561,-3059,2405
82,-39,-79,655,-3392,2499
-59,-21,-108,1314,-3459,2786
56,60,-111,1728,-3834,3352
114,121,-79,2475,-4759,4185
-87,-59,-5,2229,-6352,5276
127,19,-50,2132,-5122,3639
-114,91,16,-420,-3887,3268
-82,-64,-66,-627,-4463,3187
-46,-123,-8,377,-3594,2867
-33,15,-66,3524,-2036,1773
64,-100,-63,3260,-1923,1462
-122,-97,116,2750,-960,438
25,-118,99,1776,-497,81
-62,104,60,699,-135,256
116,91,58,133,-479,297
112,98,24,-1016,-169,-279
-87,71,-27,-1430,321,-1077
-41,9,-86,-1162,643,-1922
34,-66,101,-896,881,-2588
77,-88,77,-803,578,-2380
52,-105,75,-668,-123,-1939
40,-123,75,-755,-636,-1465
8,-114,85,-1100,-746,-1089
-21,110,96,-589,-754,-881
-28,111,-128,-300,-933,-230
-21,120,-128,-161,-669,383
-43,-104,-103,-203,-864,989
-25,-80,-93,-131,-817,1457
12,-51,-83,80,-594,1869
63,-23,-98,648,-302,2020
87,-11,127,1206,2,1795
95,18,110,1061,-113,1509
87,28,113,569,-89,1168
107,7,89,579,203,666
-60,-11,-46,-1344,2195,-4503
54,-5,-9,-1087,2087,-5350
-4,12,-98,-825,4332,-5831
-113,29,-84,-1338,3202,-6275
62,-6,48,-3159,4767,-5264
-50,50,-4,-386,3272,-4523
76,-120,70,-3950,2527,-3636
13,49,34,-2888,2510,-2589
89,-102,-28,-541,2771,-2177
8,54,77,135,3505,-2849
-42,-123,-120,1136,2357,-1926
72,-76,-124,749,-1747,505
97,-7,-38,-1650,-2468,2722
-82,6,-109,999,-3146,2270
46,-13,12,365,-3382,2339
-119,11,13,1736,-3515,2091
-14,106,-10,1822,-3823,2523
58,-122,10,915,-5522,2816
26,-107,97,1821,-7256,3431
-107,46,-6,1786,-7509,3429
98,6,20,1031,-5775,1973
-30,71,-80,-252,-4294,2501
-69,-117,-45,1254,-3118,1402
-112,92,-69,2548,-2364,1247
119,-84,13,1235,-1919,2146
23,-104,-28,2794,-2121,2189
-48,-49,-28,3113,-1034,1875
11,39,-93,1918,-714,790
-55,-7,-113,962,60,99
-58,-52,86,772,696,-235
-126,-94,33,274,488,-811
108,105,21,22,260,-1597
-40,47,-14,-890,500,-2050
24,-25,-47,-514,359,-2325
56,-98,-81,23,59,-2543
101,103,-103,-312,-65,-2442
95,78,-116,-783,113,-1758
41,48,-112,-620,-338,-868
-60,49,-96,-394,-904,412
-103,119,-47,-1092,-1598,1312
-55,-78,-34,-1211,-1089,1720
28,-105,-90,361,-38,1578
37,-73,-91,1392,-274,1651
-127,-34,-73,1300,-690,2264
119,28,-56,614,-310,2477
50,57,-64,1,-751,1213
64,63,-45,-648,-582,601
80,52,-71,-731,31,-91
106,31,-84,-625,105,-630
-33,36,-106,-1042,260,-817
-121,-55,67,-1971,4195,-2586
100,-17,39,816,3217,-5310
-113,75,68,-2845,4423,-4579
-115,-13,20,-2719,4080,-4488
-4,-93,33,-1951,4347,-4201
21,-85,-5,-3138,4649,-3466
-62,115,41,-2399,3161,-2967
75,110,76,-1886,2891,-2351
-45,53,64,5,3221,-2657
20,-119,-62,419,3842,-5097
6,31,56,-115,784,-3312
88,52,7,-1975,-1974,643
120,-6,13,19,-2530,1529
-50,-14,-111,523,-3226,2410
-112,29,-1,-58,-3655,2206
0,42,-26,2041,-4122,2119
-103,127,-39,2676,-4767,2840
95,14,-57,3006,-5543,4586
-79,66,126,3903,-5284,5177
-35,-52,-81,121,-7387,2908
104,116,117,-578,-8331,1722
-111,-74,127,40,-4795,2663
95,65,-93,681,-1067,808
76,124,49,5130,-760,-97
-80,-49,-94,6154,-469,1344
27,-43,-107,1112,-842,2176
-21,-8,-68,-2368,-744,1927
-57,81,122,276,275,115
-69,5,-2,1618,1109,-1615
-36,-1,-63,317,1183,-2074
-1,-96,-106,546,916,-1938
5,89,124,432,345,-1719
8,61,-115,202,-248,-1229
20,31,-83,151,-585,-560
20,51,-58,-393,-589,-26
-21,40,-79,-183,-365,-167
29,5,-81,419,-617,6
37,53,-71,-378,-728,1122
-7,104,-77,-849,-956,1532
47,-115,-91,-743,-936,1850
58,-41,-90,-1046,-1097,1739
84,26,-70,-1117,-1071,1349
84,62,-74,-1272,-561,466
68,40,-89,-660,76,-620
64,6,117,-142,425,-1371
68,-20,109,182,-16,-1491
77,-56,114,354,-310,-1104
85,-68,127,190,-260,-688
75,-100,-118,307,-224,-496
85,-100,-100,176,-338,-29
-83,32,-90,1489,4193,-5767
42,70,-83,61,1553,-4778
116,-69,-24,-2604,833,-4855
-102,-43,46,-2192,1823,-4906
40,-97,73,-1528,3394,-4723
59,76,71,-1921,3444,-4523
-106,88,-22,-3286,4399,-3269
-101,40,-18,-2757,2303,-2294
55,65,0,-2683,1996,-1783
8,18,-55,-2162,2651,-2094
100,78,120,283,2433,-2553
-43,-86,13,1234,-671,-2266
25,104,124,417,-1738,633
50,-76,-63,168,-1969,1578
-104,112,66,340,-2987,2105
63,-11,103,1376,-3575,2245
-38,88,105,1037,-4199,2745
83,-119,-3,974,-6257,3118
-99,-123,2,2110,-6379,3783
0,115,-52,3229,-5097,3314
102,-104,-89,2450,-4156,2698
-104,-84,96,1897,-5263,3710
71,-20,-57,3208,-672,2874
-100,98,-78,3970,-387,4104
18,23,-53,1757,-1664,4435
15,-85,104,1403,-3869,1779
-37,-128,57,2293,-1236,1279
50,-33,48,134,500,1115
-74,-88,63,387,-651,395
-108,-93,56,-286,-532,-194
-107,121,7,-1211,470,-1055
-88,29,-50,-525,636,-1933
12,0,-90,-855,629,-2413
-50,-65,124,-954,552,-3031
-20,99,-119,-133,168,-3745
-82,12,-50,326,-39,-3624
-118,-14,-88,-244,695,-3038
-127,-30,-102,-856,506,-1959
50,-40,-125,-479,56,-319
8,-36,112,143,-162,535
19,-16,87,330,-21,1108
58,9,71,663,-164,2036
92,40,48,1125,-303,3082
-108,-19,-103,-482,-2090,3820
-49,122,113,-2711,-846,2837
-98,56,123,-964,-970,1375
-120,-49,-83,1803,-862,430
119,-40,-81,1441,15,-14
91,-67,-106,643,108,169
79,-78,-113,95,-503,619
68,117,-11,-2843,3896,-4195
-21,105,-97,-116,4482,-5846
101,-55,-59,-2550,3313,-5228
-4,-46,-14,-2880,2911,-5103
-119,-57,-34,-2851,4311,-4210
17,-128,-16,-2297,3415,-3577
78,-117,11,-3071,2733,-2981
117,50,12,-2397,2989,-2531
-93,-66,50,-898,1337,-2339
116,113,11,-539,2648,-1849
-56,-84,95,143,1854,-1898
88,-10,-26,218,132,-772
6,109,-32,-23,-1381,675
106,-52,96,-1128,-3138,2228
-24,74,-86,158,-3903,2525
126,-26,-50,753,-3926,2975
99,94,-67,2247,-3888,3417
-71,-17,-56,2226,-4749,3314
-20,34,-22,2312,-5300,2295
47,1,-88,3756,-4707,2366
56,90,16,-13,-4862,3174
69,-23,72,445,-4523,3307
-122,-111,-101,1842,-4456,3054
-76,-114,-20,1638,-3035,2572
-63,-81,57,1733,-1320,2958
-23,-126,-120,3839,-776,1132
57,-49,-108,1879,-1265,184
-11,-90,88,-535,-72,-201
115,-10,73,1078,-137,-495
85,-22,41,664,46,-181
-128,28,1,-1037,362,133
-106,-27,-59,-391,363,-652
13,-87,-107,212,413,-1324
40,-93,122,-63,377,-1583
-3,108,109,-17,-49,-1873
0,84,127,-513,-390,-1427
-6,90,124,-988,-574,-726
6,80,-121,-779,-600,-249
21,82,126,-247,-268,62
23,103,126,59,-454,263
42,126,124,5,-487,545
38,-107,-121,-157,-588,714
40,-93,-111,-28,-513,839
49,-87,-116,120,-323,794
70,-74,-125,232,-255,805
83,-65,120,252,-222,765
79,-55,109,73,-287,666
80,-49,110,-43,-391,581
79,-56,108,125,-253,381
79,-50,105,11,-281,213
72,-70,-74,-1160,4486,-3178
-79,-119,67,-2125,4028,-3176
-87,103,-101,-1689,3751,-3261
-85,105,-113,-1796,4958,-3099
-20,49,-114,-953,4248,-3181
-18,101,-118,-2265,3832,-2712
82,34,-115,-1472,3196,-2347
13,-54,17,-57,3248,-1476
30,-89,67,-147,3769,-2354
-116,100,11,-662,1758,-2057
-24,-32,117,-1138,1136,-882
78,19,33,-122,-582,132
-11,-11,-13,128,-1769,1282
-87,-105,110,-416,-3079,2184
66,5,-93,315,-3854,1831
18,100,-75,183,-4180,1485
-103,103,-57,808,-4403,1250
52,-98,34,1753,-4723,3015
-22,126,65,2986,-6142,3021
50,-63,87,616,-5820,2600
-114,-82,-120,38,-4402,1870
-128,81,-30,771,-4424,2483
-25,89,-54,-116,-3390,2370
-59,-64,112,1890,-3618,2752
-58,32,-39,1057,-1394,2902
67,-20,54,-1605,-3094,3204
-110,46,-117,-2028,-2685,2172
20,-10,100,-1546,-509,-1101
-25,50,32,1469,608,-2147
-54,90,-38,1123,735,-958
-75,100,-127,-382,1152,-263
-89,44,18,-374,619,-422
-23,63,-5,-609,297,-589
19,19,-17,-534,560,-969
73,-2,-40,-385,854,-1003
91,-32,-77,389,902,-1083
40,-34,-106,526,652,-1259
117,-57,87,288,977,-1575
-13,-77,114,670,-328,-1123
-107,122,-41,772,-1953,-140
-90,15,-127,216,-4168,3389
104,-23,77,-2688,-1272,3881
31,-26,-122,-3579,2560,395
-43,43,-99,-19,2340,-2598
-82,-74,-87,2814,1462,-3063
77,-85,-91,2573,692,-1473
-19,46,84,127,-1307,2614
111,111,53,-2006,-3,1918
-69,75,82,2711,2487,-1848
49,63,-126,2996,477,-3633
55,-33,97,-2047,2413,-4300
0,-41,91,-1621,2346,-4168
-104,40,82,-1604,2387,-4448
-15,78,-65,-2126,1411,-4159
103,-69,114,-3863,1804,-2566
-15,-42,94,-1187,3650,-2228
107,-68,19,-585,3011,-2246
32,-44,-47,-1199,2901,-2885
77,-89,2,2732,3394,-2303
-51,-52,-83,157,859,-57
0,-104,78,-447,-223,-487
7,42,120,-451,-1806,325
-33,52,-57,-898,-2324,1207
26,-122,-16,-396,-2758,2250
105,-15,-8,327,-3595,1706
-61,62,22,756,-3952,1666
75,52,-42,2260,-3613,1682
84,104,-31,2269,-4235,2453
-124,93,-23,2690,-5353,3290
74,-110,34,963,-6013,3158
4,-29,6,435,-3577,3007
33,-31,-81,393,-4514,3542
78,-127,113,210,-4182,3386
-36,28,-38,2057,-2204,3030
5,-101,100,7913,-1341,2835
-128,11,-11,6276,-470,3790
-68,-10,-13,-3077,-2059,355
-19,53,-114,1140,108,-326
-34,-16,46,2096,1029,-691
-28,-8,18,-192,259,-1714
15,105,21,430,-21,-1806
-10,16,20,858,-7,-1684
-42,15,7,165,-51,-1032
-11,30,-20,-914,-49,-563
24,0,-54,-495,-266,-353
13,-7,-63,71,-440,-186
22,29,-54,-284,-459,165
43,68,-55,-587,-713,396
43,95,-41,-741,-907,339
99,-120,-28,-995,-814,311
67,-103,-25,-889,-621,326
2,-119,-48,-89,-97,101
40,-91,-110,-194,589,6
84,-75,101,-231,51,295
72,-39,107,-555,-810,465
66,-20,113,-1018,-634,422
68,-21,106,-665,-605,91
83,-13,97,-355,-559,116
109,-12,87,-236,-397,45
103,-1,100,-278,-856,163
-84,82,-33,-1469,4630,-5908
-21,91,-36,-2626,3806,-5657
-61,103,2,-2422,3368,-5402
-127,94,113,-2844,3002,-4794
65,55,-86,-3095,2500,-3188
114,74,-24,-3807,2989,-2013
-2,-16,-17,-1860,2945,-2357
-76,-55,-14,-805,3199,-2471
44,-13,60,2044,2876,-3316
123,-85,99,883,-387,-1762
30,-46,125,-249,-466,-922
-45,-7,104,757,-1005,693
39,-68,-37,-1997,-2106,2679
-115,107,-31,116,-2342,2411
-2,23,-31,-208,-2492,2349
84,79,1,469,-3313,2166
-48,95,-23,2154,-3268,1687
-29,106,-41,2766,-3532,1873
-38,125,-57,2149,-4235,2502
55,-59,-8,919,-4410,3650
103,-106,39,1933,-4892,3002
-2,120,-13,3001,-2932,3176
83,-71,75,1565,-3416,3896
-76,-116,89,1587,-2442,3938
-60,-15,-69,-84,-3002,4143
87,-2,12,287,-2432,3083
127,-79,36,1909,-1629,-315
6,88,-126,2181,1271,-2196
-73,88,10,543,1601,-1753
-115,0,-50,121,187,-861
119,-25,-28,-681,-1100,144
-90,-8,-65,-1452,50,-254
-44,-74,111,-513,653,-1081
-38,-98,105,268,-338,-1176
-78,-62,-127,-710,-824,-990
-45,-57,-115,-1921,-441,-847
-23,-85,126,-1284,-32,-730
0,126,102,127,100,-911
38,108,82,1187,-45,-589
-3,-120,120,964,-570,8
-26,-89,-85,-196,-852,177
-19,-92,-67,-712,-497,433
1,-128,-107,182,-51,484
35,-101,-100,422,-163,906
53,-83,-125,457,128,833
114,-83,105,700,179,567
-114,-96,94,913,26,116
119,-113,107,596,-140,-48
71,123,116,148,118,149
78,103,80,-113,-67,466
-81,23,42,-808,4598,-3875
6,-43,35,-1897,6403,-4467
30,-48,42,-1848,4363,-3689
101,-40,101,-984,3000,-3604
74,10,-45,-1517,2796,-3812
-71,-73,-117,-4764,2300,-1855
-95,-47,-27,-5050,3788,-678
-28,-103,-98,70,5789,-3328
0,-17,-118,-356,4058,-3516
46,-117,-6,-390,2294,-2926
-49,96,105,-289,2367,-2505
23,60,-16,-279,-1114,1300
65,-6,19,-567,-2792,1690
-27,-54,0,524,-3698,1295
-109,125,29,857,-4000,1115
6,-117,2,2124,-4818,1058
-112,-100,-4,4539,-4473,1164
-61,-68,-47,7952,-5219,1090
-87,-79,-19,5765,-2879,1270
-61,-123,118,1177,-3296,4817
0,31,-80,2157,-4550,5057
-66,116,65,-1284,-4522,5632
69,-4,-76,-1357,-4039,4301
20,50,50,2733,-3461,2358
92,10,-111,1177,-2282,2007
73,19,28,677,-772,31
-71,107,15,3412,-526,-1438
76,-44,-76,731,477,-729
82,-80,103,-1327,683,-541
-74,-11,-22,-131,1809,-1886
-5,-83,-69,759,1306,-2422
5,126,-84,-143,254,-2333
34,89,-86,-1151,50,-1442
15,32,-98,-834,-105,-909
-19,14,-120,-475,-102,-247
-28,47,-117,-615,-373,490
-29,81,-115,-269,-733,1071
-8,-128,-121,-171,-635,1238
20,-84,-100,-206,-929,1568
64,-38,-100,-154,-668,1435
84,-18,-71,179,-408,1150
75,7,-58,175,-657,829
54,21,-53,37,-493,269
57,11,-53,-68,49,81
76,13,-61,-718,87,-223
96,20,-55,-1563,25,-275
118,-6,-62,-1086,218,-515
-126,-52,-66,106,211,-667
-125,-42,-82,-216,22,-479
127,-49,-99,-406,-340,-152
-112,109,75,-1703,2283,-5366
-16,-8,47,-1148,2617,-5092
102,-38,-26,-2316,2717,-4691
-123,-84,-39,-3007,2564,-3775
-86,-128,-67,-2634,2675,-2861
62,86,-70,-1266,2928,-2895
-57,37,-57,-772,3244,-2958
50,81,58,959,4216,-3283
-113,-76,-104,1316,2372,-2318
4,-114,-62,-408,423,-819
-26,-25,-92,567,-1866,1742
31,-76,-4,-244,-2790,2688
-106,-74,127,165,-3897,2921
22,41,-119,238,-4490,3031
-116,-69,18,-113,-5713,2841
-28,-8,99,434,-4714,2494
-40,-28,-100,2675,-5354,2633
-26,-3,-119,2638,-5888,3505
-33,2,-41,550,-6150,3933
39,-100,-51,1145,-5801,3401
9,-105,46,136,-3048,3416
-79,74,12,1572,-1748,1796
117,81,11,3531,-1409,2072
-110,34,-13,628,-1863,1552
76,-58,-48,602,-420,-72
-25,67,-114,1843,-64,-1371
-71,43,89,380,318,-1232
-65,13,56,-509,153,-508
-73,-40,-13,-501,40,-544
-40,-68,-45,-35,187,-890
-3,-80,-76,-147,366,-1000
29,-110,-79,-340,171,-1078
24,97,-79,127,-69,-1002
19,102,-84,-221,-295,-583
22,-127,-72,-648,-504,-88
17,120,-82,-328,-518,97
20,-117,-75,-177,-611,544
28,-85,-70,-271,-639,911
41,-58,-70,-95,-587,990
64,-40,-80,34,-491,917
89,-10,-80,-188,-581,769
87,1,-78,-172,-530,426
77,4,-71,-238,-377,122
89,-11,-90,-93,-199,-128
94,-12,-92,-218,-327,-135
97,-21,-98,-140,-235,-272
109,-29,-109,-146,-227,-375
113,-36,-111,-100,-280,-454
116,-50,-115,-23,-212,-483
122,-58,-120,-88,-216,-377
-109,126,43,-32,4106,-5223
55,69,3,-2016,4526,-5250
70,-1,120,-1782,4013,-5383
69,-5,126,-3414,3055,-4095
72,-102,116,-2925,3455,-2907
60,-119,-105,-2989,3264,-2426
-44,92,-60,-2369,4303,-2733
38,62,57,-1686,3103,-1931
-39,-107,-89,372,2936,-1713
124,-20,-86,1381,2364,-1857
-5,3,-79,605,925,-940
-107,64,86,249,-1824,1561
-36,41,24,-537,-3397,2137
124,-51,-85,555,-4086,2338
-9,53,-73,636,-4576,2279
111,109,-42,782,-5319,2689
-45,-48,32,1381,-5820,2590
-44,19,-113,1376,-5697,2508
17,-2,-122,3081,-4733,2113
3,98,17,557,-5744,2988
77,2,42,236,-5016,2204
-47,-105,-82,-149,-2261,2862
107,68,-51,1285,-2331,2020
-90,26,86,3611,-979,1142
79,-84,101,199,-1347,1633
41,78,-44,1116,-265,842
-13,10,-111,2106,-649,523
-20,52,-105,622,-666,492
-28,43,121,-368,-232,84
-19,-30,74,498,133,-513
4,-78,25,630,212,-868
34,-96,3,116,242,-945
42,-121,-10,-214,87,-954
40,112,-20,-368,-188,-761
54,107,-27,-427,-162,-466
52,111,-19,-402,-343,-121
56,-124,-18,-478,-367,116
72,-101,-25,-640,-342,118
100,-72,-20,-731,-295,163
103,-59,-12,-621,-274,300
116,-44,-5,-619,-118,380
120,-27,3,-434,132,352
111,-27,2,42,-148,301
-123,-18,3,-198,-260,155
-88,-28,18,-120,-490,306
-104,-35,31,158,-603,224
-109,-25,31,119,-295,165
-118,-38,13,-51,-425,11
-92,-23,14,-148,-426,389
-62,-55,32,77,461,441
105,-80,-31,-784,4262,-3635
2,-78,-47,-200,4301,-4678
-45,8,49,-1383,4193,-4420
94,47,98,-1817,4361,-4087
106,41,102,-926,3622,-3435
-41,-127,115,-2381,3307,-3241
84,77,-121,-1592,3506,-3055
-30,-53,69,-186,3719,-2563
95,116,-55,371,3404,-2308
26,-62,-67,707,2929,-2329
71,122,116,789,1023,-325
-84,126,106,-1040,-2518,1838
4,52,17,306,-3461,2121
118,34,-72,-486,-3464,1832
-4,112,-35,419,-4756,1892
126,-94,-27,194,-4616,1362
-66,-123,-57,1047,-5033,1823
51,123,-98,2314,-6150,2775
-97,2,125,1315,-7347,3186
44,64,109,664,-6053,2327
7,40,114,-110,-5595,2061
-25,-73,-79,607,-3851,1752
106,-127,-3,1324,-3911,2144
-71,-80,26,408,-3494,1795
-76,-47,-84,4093,-441,886
-12,-58,83,1035,-1476,851
-37,-120,33,-138,-278,202
-97,85,-53,-373,-284,-56
-89,70,-105,-514,36,-225
-85,37,85,26,208,-470
-62,33,18,40,59,-595
-34,32,-11,-369,79,-704
-1,0,-50,-290,137,-1037
22,-56,-71,498,191,-1468
38,-65,-95,24,-90,-1576
41,-110,-100,-237,-294,-1454
20,110,-90,-239,-510,-1054
-5,97,-54,-470,-699,-357
-24,82,-24,-325,-596,261
-21,87,-6,222,-536,869
-5,106,-35,1411,-268,1154
9,-75,-67,1597,-479,1283
37,102,-82,-1861,-35,1417
17,57,-127,-1121,-908,1029
51,-1,-102,152,-725,713
67,13,-94,-6,-670,627
68,31,-86,-504,-751,400
71,39,-87,-956,-606,187
85,31,-91,-784,-423,-45
72,31,-99,-547,-368,-313
-69,-31,12,-209,3033,-5043
55,-88,-61,-316,2979,-4937
36,-28,5,-702,2831,-4642
16,27,52,-670,3367,-4893
105,52,80,-1493,3795,-4429
-78,18,-35,-1731,3612,-4204
7,31,-100,-1881,3342,-3971
70,-21,5,-443,3705,-4371
-88,117,-57,401,3897,-3315
-67,19,37,1223,2106,-2324
37,-4,-124,470,442,-394
-24,12,108,-651,-1944,1279
34,120,-64,264,-3222,2028
126,71,54,-743,-3049,2522
-53,-114,69,1076,-4268,3578
86,81,95,125,-4814,3580
18,-67,-79,608,-6101,3599
57,80,-78,-66,-6125,2636
93,3,1,2337,-4490,2108
37,20,82,1542,-3991,2495
-1,-2,79,587,-4360,2464
53,-16,127,-458,-4696,2854
126,-83,94,984,-3613,2240
98,32,113,-615,-2544,1079
-14,-124,118,2075,-2076,553
105,-108,119,2050,-1068,1110
-82,-79,44,1151,-1023,1185
90,-54,14,253,-707,895
99,-105,-29,1174,42,22
116,127,-103,930,646,-925
-73,62,65,256,671,-1374
13,-11,14,133,745,-1546
-128,-101,-54,368,723,-1671
-106,89,-99,226,477,-1584
126,55,-122,-380,161,-1061
107,33,110,-455,-154,-538
78,33,106,-175,-294,-260
54,48,127,-439,-506,202
71,71,-108,-267,-479,641
69,122,-89,-287,-879,1097
81,-90,-58,-417,-1018,1328
87,-75,-50,4,-943,1397
82,-24,-38,-101,-568,1156
79,-3,-47,-91,-710,1176
88,16,-79,-35,-707,1080
92,25,-94,-21,-733,852
78,41,-115,-196,-867,602
43,69,-100,-848,-922,224
68,54,-88,-1300,-791,-223
127,42,-88,-1191,-571,-408
71,115,45,-334,4377,-3519
-109,37,64,917,5743,-4672
45,81,94,-594,5091,-4706
-5,64,-112,-1563,4473,-4069
99,52,95,-2246,4315,-2811
-84,55,44,-1818,3619,-2080
-40,27,41,-910,3367,-1447
57,-75,-60,852,3510,-1588
-109,-95,46,431,2976,-2002
-94,-80,-15,547,1908,-1723
-17,-34,91,-333,580,-577
-78,-108,-92,552,-1963,1180
66,-72,124,-600,-3028,1607
-56,-15,-78,584,-3765,1428
-112,57,-45,1006,-4447,1800
-72,117,-10,871,-5464,2284
-31,-73,43,1395,-4936,2305
-37,-53,-124,2301,-4818,2603
34,-103,-28,3536,-4537,4047
-86,32,-46,2228,-3542,3517
-107,-41,86,-2614,-5559,4115
-107,51,-113,-1792,-3937,2236
37,-89,-78,-517,-2715,952
-41,4,-122,2412,-2427,899
-100,-31,33,3850,-1456,1600
12,-113,-19,1856,-1616,1912
-45,-70,45,-328,-1331,1596
-80,-127,41,336,-809,635
-65,-88,-23,-1163,400,-215
-49,88,-127,-879,794,-814
-17,-41,-22,535,1177,-1443
32,-57,-101,-70,1078,-1273
28,-96,67,-284,267,-750
-10,120,102,-674,-680,-550
6,110,-127,-690,-569,-234
10,110,-104,-186,-846,-26
9,-82,-67,-924,-939,95
21,-76,-51,-411,-820,373
34,-32,-37,-236,-777,475
60,9,-29,-353,-678,448
26,14,-30,-118,-629,225
8,16,-14,-453,-625,154
7,-2,-22,-368,-346,73
46,-11,-44,-22,-27,18
73,-10,-82,190,-21,55
68,11,-110,-187,-201,202
102,22,-118,-290,-276,225
96,23,-122,32,-418,57
52,13,-109,0,-446,-149
55,11,-96,-509,-387,-77
59,47,40,-240,4149,-4741
10,95,12,-1180,4824,-4188
98,52,126,-746,4988,-4836
-23,101,2,-3449,5503,-4379
-58,-13,-50,-1930,3901,-3717
95,8,99,-2758,2677,-2680
-12,-63,119,-1034,3802,-1978
-103,-1,77,1117,4823,-3988
24,-33,-28,2243,4051,-4170
-61,-68,-44,353,-394,-466
-83,-31,84,-1612,-3108,2813
66,-49,86,-529,-4956,2689
-34,-13,-3,-1032,-4080,2175
122,33,18,1209,-5312,2687
-29,-110,71,1326,-6591,3238
-43,81,-15,251,-6413,3435
-118,-5,-34,4329,-4903,1578
-104,81,-6,1153,-4296,2579
52,25,39,266,-5235,2835
122,-58,45,536,-5347,2579
2,76,-62,1670,-3115,3049
-94,-84,-34,1223,-2977,2686
27,112,38,2950,-969,932
44,-65,33,920,-1707,344
3,25,7,1192,-167,354
-79,16,-81,1205,-597,555
-112,60,120,-82,-420,120
-83,-23,64,484,-31,-582
-66,-114,9,576,10,-793
-53,100,-16,-167,-200,-372
-8,118,0,-884,-923,406
-55,81,-55,76,-384,-212
-85,126,-70,-848,-395,-207
-67,122,-115,-1149,-513,89
31,-87,122,-1380,-603,790
50,-54,98,-1097,-745,525
61,-33,120,-676,-353,361
-25,-68,123,-19,-426,216
-107,-42,-109,-569,-659,592
110,33,-49,-1384,-772,837
14,49,107,-857,334,187
14,-17,30,291,-12,-523
75,-23,76,-445,-698,220
49,-62,101,5,-872,214
45,-16,-107,-461,-671,330
78,-32,-91,-123,-537,174
69,-33,-106,101,-596,238
67,-11,-99,-134,-610,154
95,-17,-101,-296,-588,429
74,30,-104,-736,-646,449
-16,-20,46,267,3920,-4013
-103,-77,44,-782,5223,-4401
27,-109,-55,551,4750,-5231
106,-78,-127,482,4574,-5811
-110,-35,-30,-2011,2863,-5260
-55,-105,-22,-3447,3110,-3899
-70,108,-42,-3424,2247,-2997
54,41,9,-2393,3263,-2589
24,-75,-11,-550,4723,-2339
116,31,-115,391,4971,-2817
111,-1,-18,676,2464,-1672
-31,101,-92,-484,-1979,1110
20,-49,127,-273,-3836,2389
-84,-82,60,1510,-4829,2725
66,90,-118,849,-4241,2684
-36,-69,-95,1532,-6132,3487
79,11,-36,1801,-6860,2885
-113,-127,112,3014,-4861,2836
88,-89,-56,544,-6294,3471
-88,-27,-50,2924,-5943,3848
52,-16,-12,1222,-4261,3541
30,5,9,-445,-4055,3765
-13,75,18,2242,-2698,2604
-86,46,-74,5279,-1110,1700
9,-37,-120,3671,-1965,2074
62,2,-95,2538,-1404,1505
-59,120,-78,-1803,-242,797
112,45,112,-2332,490,-345
-59,101,-14,-732,1196,-1786
44,78,-78,-1009,1115,-1458
26,77,-81,-2165,-695,-697
-5,-113,-108,-1169,352,-1576
-4,106,-99,-2032,1062,-1023
61,70,77,-243,965,-1213
37,88,64,583,762,-1377
21,-69,121,-516,-314,-395
11,-11,127,-936,-483,-485
-12,-73,116,223,-485,-329
-35,-40,-78,395,-1219,725
-2,29,-51,-199,-1091,1025
21,27,-28,455,-1167,993
54,45,-30,512,-796,767
18,75,-7,-369,-978,816
35,98,-1,-707,-687,811
59,79,-45,202,-267,-101
81,105,-51,-1075,-241,-233
55,76,-60,-1471,-498,41
9,48,-42,-886,-652,34
40,68,-26,-1151,97,90
106,24,-108,-249,535,-312
-42,2,45,148,5235,-4178
-60,-27,61,-1071,5388,-4278
-101,-86,62,-1515,4484,-3974
-34,121,2,-1065,4429,-3304
-98,122,-83,-1986,3531,-2761
-47,-66,117,-4243,1729,-1845
-8,84,-28,-3195,2218,-1608
-115,123,111,-190,3195,-620
90,48,-83,2704,3983,-1449
87,-2,78,1109,3235,-2249
-15,74,-106,-1078,1871,-1423
-122,-113,91,-316,-1248,706
-25,63,-3,-2301,-3545,1453
-127,108,-109,-108,-3626,841
-27,-28,-17,-251,-4367,1261
102,41,-1,698,-5351,1666
-33,-81,21,1117,-5687,1408
42,-31,-107,-130,-6025,709
7,-117,82,1238,-6126,-134
61,41,115,1201,-4740,-122
2,-104,103,1956,-4724,206
-32,43,125,2317,-4374,944
-11,105,-78,-212,-4802,1827
50,16,5,106,-3897,1836
13,38,-31,65,-2929,1839
-128,15,-19,714,-2798,1205
60,48,-16,333,-1568,573
30,19,-73,1435,-834,339
-92,68,40,1608,-170,-96
113,76,-17,901,270,-187
115,75,-61,192,326,-316
-91,44,-122,-158,510,-587
-33,4,90,162,490,-796
13,-3,46,-185,784,-910
42,-30,-10,-72,753,-1298
75,-57,-43,-468,1012,-1470
98,-125,-98,-181,961,-1374
71,29,122,559,720,-665
28,103,-91,-410,-757,936
95,-121,-110,359,-964,627
116,-116,-94,739,-886,280
48,-54,-11,-866,-1414,623
45,-58,22,-641,-1420,1021
96,-117,-17,1059,-645,714
91,-55,16,-306,-963,1555
83,-7,16,-712,-1435,1410
124,-50,-17,502,-338,884
96,38,16,-1060,-1081,821
9,-10,33,-129,-443,644
48,-29,-54,388,839,-414
19,-56,15,2193,6462,-4168
31,-83,-24,206,4485,-4351
9,91,16,-2585,4271,-4204
114,-2,-46,-2382,6716,-2901
14,-6,37,-347,3568,-3875
28,39,68,-2824,4159,-3655
89,3,88,-2329,4279,-2474
-49,-40,107,-480,4485,-2432
-103,120,-21,2574,3459,-3049
-126,-109,46,-2136,1007,-2957
-65,114,20,499,491,-1579
45,-29,95,-167,-2544,1701
-80,-32,28,343,-3137,2205
80,-25,-114,986,-4100,2151
59,43,89,2169,-4392,1945
-14,126,118,2456,-4432,2212
113,-28,-111,1924,-4581,2556
126,23,-96,1153,-5255,2704
-28,-28,-36,665,-6072,2627
70,-47,26,725,-5953,2382
-124,24,110,950,-8880,3854
-101,-91,97,2315,-3711,2777
84,66,-96,3853,-358,-250
-63,3,61,2043,-2274,1058
92,-51,39,723,-897,906
-38,-113,37,908,-651,157
-89,74,-88,1763,1077,-415
-127,70,34,1720,1605,-1289
126,32,-61,468,1250,-1608
-82,-49,-95,54,658,-1713
18,-101,-123,53,279,-1461
-8,68,-112,866,-378,-1844
6,24,-101,817,-543,-2032
48,34,-57,-759,-712,-985
25,23,-59,-1040,-948,-31
7,12,-46,-476,-758,287
18,28,-59,301,-293,607
51,60,-73,417,-221,751
55,103,-90,-124,-364,882
95,-120,-110,-559,-478,1024
59,-118,-117,-293,-354,823
39,116,-127,481,-175,526
54,-121,119,473,-123,690
49,-107,109,132,-226,757
41,-103,92,49,-406,762
57,-79,97,-285,-594,769
58,-54,104,-587,-662,496
68,-43,93,-749,-523,124
118,-42,73,-682,-739,109
-128,-15,102,-977,-901,190
-104,117,1,-1772,5056,-4744
-18,39,-84,1103,3691,-5793
124,-45,-85,-1613,4197,-5783
-116,-20,75,-2611,2557,-4618
-57,-67,109,-3624,4613,-3555
-68,-96,-104,-3294,4067,-2692
99,-107,97,-1624,3184,-2174
18,121,-3,-1224,3644,-3399
-93,65,-115,-2091,3228,-3564
84,-88,9,-1525,4070,-5483
10,-94,20,1465,195,-1184
