AccX,AccY,AccZ,GyroX,GyroY,GyroZ
28,-100,-15,-3365,4635,-3448
-64,-49,39,-1002,5754,-2471
110,123,-89,-2490,5136,-2504
-104,-81,116,-567,4456,-2942
-32,109,-115,-1416,4177,-2316
51,91,-9,-1760,3401,-1322
24,75,-71,-4852,2138,-1081
-126,-19,-64,1491,2808,-965
-53,-68,-81,-1224,1788,-941
22,-68,67,1801,1434,-838
-86,-68,-41,468,-136,64
-116,-61,-34,-875,-1248,589
-40,-9,113,-534,-1614,1059
5,48,-28,331,-1845,1012
118,-121,-30,-594,-1762,1095
-88,-76,-29,-333,-2219,1041
-5,124,120,-86,-2991,1047
111,-116,88,4,-3265,618
-29,115,-123,1756,-3942,826
110,0,47,3055,-3668,1784
89,-115,60,524,-4107,1039
-117,101,-43,-464,-5018,3612
-108,-51,47,-152,-4779,1345
93,98,61,944,-2023,1185
-55,-38,25,2074,-4570,1886
0,-103,63,2835,-855,944
-115,34,49,-36,-1683,3072
58,-10,92,1458,-2032,3744
82,50,27,3948,668,743
-109,-1,-1,-1504,-647,371
67,-23,51,-572,193,-1515
-98,-35,27,509,1287,-1181
-118,123,-31,667,-36,520
-123,-57,-78,-567,19,544
-93,-76,-127,-584,161,159
-105,-81,119,-511,-3,341
-102,-84,127,-154,-178,660
-115,-51,118,-279,-413,670
-92,-52,120,481,-381,665
-79,13,81,48,79,370
-64,-37,92,361,-15,24
-55,-37,68,-821,-127,-169
-52,53,103,1303,-100,451
-62,101,-114,1007,-225,621
-44,-75,105,836,-146,379
-29,-89,93,672,163,320
-24,-128,75,1400,220,217
-37,118,68,1276,55,130
-54,-115,108,-195,-145,103
-49,95,102,-151,287,117
112,-13,-120,-1245,4281,-3033
-21,-115,41,-590,3882,-2372
110,-82,-17,-948,4207,-1791
-28,-102,-39,-752,3168,-2050
-126,93,-85,-27,3881,-2209
-92,-48,25,1341,2443,-1885
60,-111,-61,1020,1969,-806
-75,-75,-27,683,217,-283
87,-20,38,-1733,276,-614
46,100,120,748,-783,-24
21,-69,-51,-53,-1457,564
70,13,105,-830,-2220,1433
-120,73,-96,-1028,-2105,893
-99,-127,-27,-323,-2677,890
-27,112,-85,-1242,-3356,1251
124,78,97,1448,-2395,888
-69,-90,35,-866,-4563,1678
93,-96,-128,1077,-3520,1477
-22,-10,19,-3957,-7051,-266
122,125,-117,5160,-3022,1248
-28,-18,-35,1831,-4092,904
-27,-75,-2,2708,-2681,2041
-18,68,42,-1182,-3907,2345
-71,93,119,3453,-3356,2198
-47,-17,-78,1796,-1783,4044
-75,-40,94,5408,-1665,4889
78,45,116,-121,-3975,3839
63,-105,-54,3468,-3201,1516
-88,-62,54,7749,-350,-2587
-39,-123,22,-6888,2590,-1472
79,121,-81,-5910,1009,-803
77,-33,-128,-3740,738,31
101,-25,-113,-541,864,99
-123,-1,115,761,855,-438
-110,69,50,-1911,-8,-979
-96,28,50,-2699,-63,-382
-108,-35,45,-1089,149,144
-121,-5,81,-498,-356,12
-101,0,-117,666,-452,64
-73,-19,-24,1207,-39,329
-63,46,-79,358,113,178
-71,56,99,466,-261,286
-59,53,85,402,-61,262
-41,65,58,-29,138,194
-34,68,51,-340,-73,180
-33,59,56,-225,-180,78
-27,45,67,-199,-109,9
-17,38,76,-429,57,28
-8,26,91,-588,117,50
-3,9,80,-226,8,111
-90,64,-114,-4415,-5739,1025
34,112,-119,809,-4004,-46
37,90,-70,2618,-2489,804
89,61,-30,3267,-2829,281
64,-28,34,4282,-133,2000
48,-128,-25,-3624,-4066,541
10,85,75,12895,517,173
-99,56,37,-3494,1215,-1231
73,114,-105,-3242,-129,521
50,-103,-123,-329,646,-29
52,-96,-114,754,211,20
88,-26,-118,-163,197,299
105,-32,-111,-491,132,298
125,-46,-107,-188,131,199
-109,-51,-106,-221,55,33
-112,-54,-93,-601,-161,-239
-95,-86,-26,-580,282,-54
-101,-102,-86,346,-84,360
-92,-72,119,577,-124,297
-76,-44,107,-10,94,164
-64,-36,79,-242,115,197
-63,-39,79,-164,-150,143
-53,-43,78,51,-93,107
-46,-35,83,-262,-128,72
-37,-37,88,-336,36,47
-24,-55,90,-93,61,77
-28,-48,102,-293,-96,123
-13,-46,83,-261,12,123
-8,-44,57,-151,-24,98
-2,-48,49,11,31,142
9,-35,36,-134,-38,149
18,-32,37,-157,-54,126
20,-28,43,-231,-24,112
25,-38,42,-117,1,108
41,-31,44,-352,1,154
40,-34,42,-184,-22,139
41,-32,35,-223,-53,150
54,-27,28,-182,14,125
53,-34,15,120,-19,99
57,-43,6,83,-118,203
69,-22,22,-219,-145,294
74,1,35,-467,51,69
80,-13,24,-342,87,-23
82,-44,7,-53,-4,82
83,-41,0,-84,-65,160
88,-28,-1,-277,-74,169
96,-18,9,-241,-89,153
98,-13,15,-323,-3,104
102,-19,10,-232,-31,162
104,-14,-2,-188,-41,151
-51,-74,-6,467,5150,-2414
-80,-22,32,-1057,4814,-2816
-59,-15,80,-556,4536,-2560
90,-24,-106,-1288,3818,-2104
18,-68,107,-1419,4225,-1952
-123,-97,96,-651,3577,-1358
8,-114,-19,-2621,3216,-1649
125,94,-9,-1520,3005,-867
0,10,-93,-225,3109,-1137
-68,126,97,2565,3455,-1174
57,59,123,3010,2813,-1025
-124,-70,-49,1149,862,-1496
70,45,-26,-901,-1864,-11
50,27,-19,-526,-1855,586
71,-43,-34,-1113,-1931,1404
106,52,-18,-537,-2329,1076
-115,111,-19,-855,-2800,967
-13,-121,-53,-511,-2974,996
50,-116,-34,382,-2910,688
-112,-31,-35,-702,-2465,690
-73,-88,24,1377,-4012,956
-11,-81,71,1392,-2216,1566
-63,-88,-113,2462,-3434,1690
116,56,-57,-1003,-4179,1630
-103,116,-44,1153,-3581,1665
-63,-36,-35,721,-3115,1338
60,-128,46,-2157,-5739,1463
87,-108,101,-172,-3821,1041
73,-65,115,-230,-3636,1752
-28,32,-3,1086,-3568,628
60,17,123,2268,566,1458
-84,-20,80,15,-765,11
-128,-86,-50,12302,128,981
-126,23,-85,-3330,989,-1316
95,-126,-74,-2899,-496,110
88,-43,-50,-881,-299,165
113,-60,-95,276,536,328
-111,-12,-128,-356,727,79
-113,-15,109,-409,168,-55
-108,-50,116,226,-212,-189
-91,-63,125,422,-129,-137
-75,-42,110,-447,46,-104
-83,-67,115,-190,-289,46
-70,-58,114,-296,-158,179
-67,-52,118,-315,-212,140
-60,-46,116,-122,-195,185
-45,-43,-121,237,-89,210
-40,-41,-121,536,-43,249
-33,-22,105,-12,2,171
-27,-33,79,-28,-53,179
-9,30,-2,1323,4870,-2703
77,33,33,876,4248,-3250
-127,58,77,-244,3969,-2633
-126,42,26,-934,4744,-3041
-16,-46,78,-269,4667,-2916
43,41,42,-2717,4005,-2697
72,-18,48,-1585,3248,-1642
-109,-126,69,1624,3235,-1411
-25,-86,-65,943,2777,-1744
-39,14,123,1821,2105,-1693
19,68,-44,-1989,-850,-1080
-41,56,49,138,-1264,-677
-77,99,87,427,-2352,37
25,7,-24,-1318,-2304,1196
111,23,65,-68,-2506,813
-90,120,103,351,-2353,765
-70,110,66,1036,-3126,975
-14,-4,-1,-1863,-2935,530
57,-64,85,1038,-2107,-401
-16,-128,17,2161,-3711,974
55,-20,-100,-1002,-3025,836
40,127,14,104,-3210,-52
88,-98,-7,530,-2767,1200
122,-56,51,-207,-4139,1201
-28,124,99,1887,-3415,1298
19,-51,117,1378,-2694,1311
-61,-69,62,-161,-4694,1707
-29,104,101,1389,-2927,1572
-58,-119,-72,2410,-2604,1517
96,-37,-119,5465,-2661,870
-12,-22,48,14867,-314,-314
-67,-18,-22,-692,2577,-1604
-33,104,-118,-2109,-2216,1244
86,29,-102,-4608,468,727
71,-104,99,-3697,1076,-110
98,-124,114,-814,790,466
126,-93,-107,339,227,481
-120,-47,-104,281,-262,108
-106,-73,-111,858,-206,59
-91,-70,-123,257,-41,-184
-78,-74,121,-538,19,-296
-86,-87,-121,-717,-247,59
-94,-85,-106,-671,-91,164
-80,-85,-88,-108,201,236
-67,-60,-110,-65,-83,366
-54,-37,112,-271,-28,311
-42,-36,87,-146,154,65
-39,-48,73,70,63,19
-32,-45,64,-35,-69,184
-25,-42,60,-230,14,203
-91,-4,-12,3464,-2974,1940
-104,22,3,-260,-4204,1400
-124,-30,81,-2700,-3353,508
77,45,111,3,-3091,1028
78,50,-108,387,-1826,1328
116,93,67,-555,-3434,599
-73,-9,-117,781,-1559,1346
-127,-102,-73,-319,-922,1611
110,84,66,-191,-2445,508
-69,42,-73,2216,2,673
-122,62,-7,584,1771,-1138
101,9,-108,-956,1020,-828
105,-35,-123,30,-180,117
113,-20,-125,109,-190,-91
-104,-2,-123,263,136,-32
-116,-14,120,440,-51,-58
-102,-12,117,648,-124,-68
-94,-80,120,2345,-518,13
-95,-45,121,696,-244,-195
-65,-1,100,-1775,463,-160
-72,-93,80,-364,254,252
-63,-59,70,-167,-136,194
-44,-17,62,-735,-3,75
-42,-35,63,-303,26,220
-29,-12,62,-350,-5,166
-19,6,75,-329,188,248
-14,-5,56,-117,-83,-58
10,22,49,-882,201,-68
17,4,53,-394,242,1
45,-46,49,1151,302,1038
-27,18,93,-564,-943,111
40,-13,35,-579,524,359
42,21,56,-986,101,177
42,-13,38,-256,-131,-40
53,1,50,71,-264,-217
65,19,53,-501,154,-146
63,17,44,-81,-154,243
79,23,39,-157,457,59
70,33,32,-318,-271,147
83,11,27,-76,-73,-80
90,18,23,-118,-179,37
91,21,24,-211,-31,-44
94,10,17,-8,-263,194
96,39,21,-717,-98,55
95,27,41,-560,-158,92
100,50,-128,-267,273,-222
115,84,-93,-290,310,104
121,64,-38,487,1006,85
-12,-75,108,144,1416,-270
83,-38,-34,497,2105,-1199
94,-52,120,3603,-2757,1868
-34,-89,24,-1911,-5276,1266
-113,-80,45,-2724,-4491,1360
85,124,35,2448,-3192,376
14,125,-25,2283,-3043,2126
16,-43,126,-3056,-3658,1578
7,-96,-22,-1692,-5148,1340
98,-5,-109,-765,-3754,1786
-47,3,-58,735,-3352,109
118,-117,-49,2004,-2046,1196
-80,113,-73,-544,-2167,37
-91,-38,-47,8901,2031,25
47,22,-33,-4718,118,-1103
106,-22,16,-4434,273,-672
-107,33,109,-1915,655,21
-120,75,111,-836,-140,625
-113,-117,92,-1583,-494,84
-111,38,127,-629,-494,38
-80,-56,-112,304,332,37
-77,12,84,341,90,-250
-72,51,86,-538,-36,337
-89,-29,106,1839,-245,430
-80,8,104,1644,-639,447
-47,39,123,1166,-606,607
-38,77,94,-493,228,313
-51,31,76,-137,182,-7
-43,20,63,-272,102,-24
-25,42,51,-1186,123,30
-23,27,55,-705,-171,-87
-11,11,45,-481,-53,-8
-27,-28,69,164,-130,69
-15,-42,73,636,-109,291
-1,-3,32,664,-263,351
21,45,34,-463,47,90
25,12,36,-53,45,18
20,5,34,-192,-56,94
29,-7,44,-336,74,82
34,-12,25,-205,-27,146
44,-7,21,-131,-40,134
50,0,20,-174,26,102
52,0,21,-133,22,80
55,0,20,-194,10,140
65,33,22,-571,-49,8
86,24,19,-521,372,-306
52,-33,104,367,-462,125
119,7,-92,-487,1035,-5
-100,19,19,1684,815,-18
-4,-67,-87,-725,2479,-626
84,-45,-32,599,2267,-1308
25,-47,-5,1147,2936,-1629
21,-12,21,-2703,-4481,1004
15,-7,-88,1291,-4123,1397
11,-80,63,-515,-3539,707
30,96,-105,902,-2660,1347
-127,-125,-94,149,-2321,1048
56,-121,114,-444,-1762,1173
-45,-63,71,-289,-1879,846
-22,-34,94,9226,-1268,1231
-111,26,-89,-768,1059,-1438
115,-98,-41,-3205,533,-1114
-126,9,85,-1319,537,-452
99,-39,51,141,743,-157
99,-27,47,182,99,-151
-119,-9,72,-415,-717,365
-128,-8,-118,-232,-627,503
-91,-104,-73,1878,232,240
-74,-15,-102,-338,365,-222
-77,-45,119,-92,34,225
-72,-49,77,124,176,-69
-61,-41,58,1,41,201
-50,-42,64,319,-92,284
-9,-35,86,452,-87,362
-20,-29,101,-136,115,189
-50,-59,90,-128,189,-78
-55,-47,81,-457,-128,178
-40,-37,72,-499,-44,346
-9,-18,60,-524,77,317
12,-28,51,-114,45,220
20,-13,52,-402,-1,118
17,-25,49,-214,158,21
28,-41,48,1,94,18
64,-59,45,365,152,18
21,-76,30,781,-170,-4
44,-75,24,353,134,131
42,-77,11,119,-25,298
48,-57,6,-371,-196,379
59,-62,19,-128,-188,367
74,-59,36,16,-202,291
92,-39,46,-306,-98,301
77,-42,43,-113,15,61
70,-54,31,-21,48,7
66,-57,26,-124,-83,119
72,-59,23,63,-37,77
87,-42,8,-136,75,-38
122,-63,7,88,-2,-49
108,-58,4,-185,73,-196
111,-77,8,-262,107,-121
113,-84,7,-304,-73,190
112,-60,13,-386,111,245
-114,-8,-16,-848,51,303
-12,71,-37,-3045,-6148,2736
33,-44,-15,-2148,-4990,754
-31,39,81,2170,-3038,1014
-117,-74,-124,-554,-3300,1107
80,31,-82,964,-2245,686
21,67,-125,651,-2098,1553
-55,49,-61,-804,-1799,533
-57,0,45,2537,217,1497
103,78,-50,2585,-197,3
57,21,-101,646,136,-845
105,-6,46,-1576,255,-30
118,-32,-44,-837,-130,133
-113,-46,-96,-199,222,158
-106,-35,-105,-217,372,176
-101,-36,-115,-51,57,137
-89,-58,-123,142,-137,-185
-75,-55,117,-124,92,-223
-66,-63,109,-352,-32,-74
-70,-64,112,-225,-182,13
-69,-84,115,252,-302,78
-50,-80,121,480,-168,163
-50,-104,123,1193,-337,254
-39,-76,117,531,-118,253
-37,-72,101,226,-112,239
-31,-65,99,-269,-121,216
-21,-66,90,-359,31,232
-17,-61,72,-266,2,208
-11,-60,63,-82,-26,140
0,-56,58,-90,-42,73
6,-54,53,-277,-24,19
12,-63,52,-297,1,-1
21,-71,51,-216,-13,45
25,-70,53,-216,-16,58
31,-72,50,-172,29,84
38,-70,41,-53,-31,148
44,-63,37,10,-34,177
52,-42,31,-254,-13,171
65,0,27,-1617,303,99
64,21,27,-1972,187,105
79,63,23,-2413,333,-23
100,115,30,-3279,442,353
93,62,70,-27,-239,421
117,-125,65,-494,18,-422
115,-117,68,-723,-32,-241
108,112,56,-274,-16,78
100,93,56,296,-324,81
115,126,49,-474,-3,195
120,111,65,-237,-169,-139
126,93,97,322,-12,94
117,105,-52,180,-97,-453
126,126,62,-2253,4558,-1470
117,40,112,-454,4386,-1273
79,119,112,-1217,4671,-1432
-19,89,50,-874,4456,-1461
73,-80,-22,1121,3546,-1175
-122,50,-83,-2476,2708,-1437
22,-110,-95,-679,2742,-1094
-65,17,109,1804,3655,-1207
42,11,-81,3301,2973,-937
-121,-29,-119,1369,1514,-1822
-7,71,77,-860,-1239,-1267
56,31,22,-1383,-1980,860
90,-102,-56,-1796,-1997,1297
125,-14,18,-1056,-2169,945
-100,106,23,-1678,-2647,-113
-47,96,54,-623,-2944,613
23,121,43,244,-2430,442
55,-98,65,343,-2778,595
97,-28,49,-885,-3590,295
-94,-83,71,250,-3876,244
-59,-78,118,1193,-3013,-902
-113,119,-64,1775,-3272,1009
-78,-21,35,91,-4795,782
89,-58,-21,3293,-1922,-902
-96,73,-101,-2868,-6434,-367
-16,95,113,3519,-2743,1157
-88,97,-114,884,-3376,1025
-119,114,-67,-1362,-2742,1041
6,-95,-35,2379,-1067,1128
-117,-87,-110,-1877,-1821,1051
75,14,-23,8670,-851,2003
89,30,-31,-2448,872,-711
-107,65,-43,-2979,351,-1050
110,-123,-75,620,11,303
77,-100,-74,2124,-424,796
99,-50,-59,1457,-315,621
-116,-44,-82,806,377,326
-84,-103,-108,1593,385,89
-90,-65,-102,315,53,-69
-92,-98,-93,-62,22,-186
-83,-102,-108,-545,382,-197
-85,117,-122,185,266,-59
-58,113,109,428,138,108
-50,-113,106,-264,-96,288
-61,-109,101,-199,-121,311
-49,-107,107,-54,-157,273
-35,-101,109,18,-155,367
-25,-117,105,704,-308,342
-1,-108,111,864,-400,417
6,-94,115,205,-340,303
56,14,42,-461,5073,-3001
35,-11,13,-1123,3417,-4135
-30,85,105,296,4677,-3540
-79,119,109,-2292,2144,-3068
-23,119,-124,-3604,2462,-1779
-128,123,-47,-234,3008,-597
73,-33,-126,660,3490,-1641
123,-24,72,-535,2183,-1581
65,-114,-20,1394,2956,-1133
-93,92,28,-157,1529,-1235
32,-34,-67,892,-25,-1052
-39,122,-72,621,-220,-713
-37,115,31,-350,-1496,740
9,-63,118,-649,-1600,1017
60,32,-95,-658,-1833,1199
-126,71,-86,-287,-1877,1082
-76,-72,-83,-1125,-2847,1167
-13,125,-105,-1320,-3494,1083
0,23,-49,-2162,-3590,310
-99,-110,1,3077,-3463,977
-35,-39,-84,1360,-3260,-112
64,32,-90,-191,-2633,1010
-122,-25,81,2924,-6248,1849
86,-71,50,-450,-4865,1576
12,87,91,-648,-4279,750
57,-12,101,-140,-4201,1380
32,-27,-111,97,-2204,1761
-114,-40,-34,65,-4227,1378
104,-89,-82,582,-2012,2314
-38,-95,-22,1238,-2718,659
-36,-97,35,9967,916,885
-127,-120,-70,-2051,1006,-1539
91,-108,93,-3488,23,79
68,-57,-28,-568,101,41
120,-53,-73,866,933,42
-92,4,-111,-735,899,-17
-73,19,34,-2396,854,-64
-108,-37,38,-1388,168,242
-96,6,53,-770,-263,360
-60,105,86,-2660,-249,41
-76,38,-109,4,-615,230
-45,80,-96,399,-256,204
-51,-93,-20,-956,-668,387
-68,71,-51,554,-152,127
-52,101,-114,-316,-212,154
-33,22,-122,532,158,12
-41,27,112,415,-1109,-54
-17,19,90,289,405,-627
-30,21,91,21,-134,120
-19,4,74,-150,66,146
-86,-124,5,-742,5018,-2462
-49,-101,41,-721,3983,-2536
-92,72,46,-753,3847,-2117
-20,72,-44,-1706,3483,-1740
92,81,-42,-1596,2952,-1105
-15,46,-20,-1067,3755,-825
94,-14,-26,257,3212,-461
17,71,-63,-1788,2879,-643
-120,-86,-41,-548,3212,-658
-1,-127,-54,209,2234,-24
-38,79,-101,444,2619,-68
-73,63,-26,1955,2300,98
73,110,-75,-198,477,-381
-67,78,123,-1622,-1048,-525
29,-24,125,-233,-951,75
4,5,-74,-23,-1327,628
59,50,-52,-620,-1613,172
120,50,-52,-358,-2299,660
-80,73,-75,-322,-2226,420
-47,72,117,-551,-3183,440
93,-118,-45,-365,-3624,716
127,-88,-41,-586,-3842,150
-86,-105,22,763,-3000,-568
127,-53,-123,-2247,-3924,-674
112,-51,81,2419,-2985,603
113,-65,122,-498,-3316,-198
45,-115,-70,585,-4535,637
-81,33,-98,2396,-1775,800
85,-69,14,-32,-3679,307
91,108,72,495,-3426,1302
67,121,54,-82,-1858,337
24,98,-109,-258,-2440,686
-19,73,-121,-813,-1950,-410
-15,-61,63,2469,-804,784
-100,47,-59,-54,-1053,647
86,-18,-127,39,-273,754
75,-62,69,1525,60,578
101,-45,36,1468,130,303
-98,-40,-72,1573,937,189
-115,-124,113,1382,693,-830
-88,-41,-46,-306,-868,1118
-87,-21,-14,-337,-635,1066
-99,-101,-80,1434,434,183
-89,-40,123,-137,687,-302
-73,-74,-109,-530,-241,261
-84,-126,-75,1120,-484,270
-68,117,-118,1943,457,161
-46,-61,109,-361,279,42
-47,-86,98,-773,-228,130
-22,-111,98,-539,-107,-20
79,47,71,-3364,-5158,-778
82,61,113,1395,-2164,368
14,-60,122,-577,-4244,448
53,-28,-34,-1226,-2855,-1492
11,61,-19,1904,-2355,-123
80,-111,-116,1878,-1972,1056
-82,-53,1,-1423,-5334,-62
-6,22,22,-244,-3787,-1023
70,-38,76,1844,-2026,609
127,-41,99,1040,-2677,494
-19,38,-18,4070,292,921
117,-19,77,115,-1779,462
-52,-124,-118,1829,-2129,2463
-31,14,92,1538,-2017,3136
-35,123,-88,2810,-2433,2130
-54,37,-96,-2152,-2084,1304
-99,-80,-51,-902,-726,70
117,0,-110,1441,1197,-357
78,42,79,220,536,-312
71,-16,3,420,218,-432
100,-68,-10,536,604,-239
-83,-5,122,-1857,1331,-406
-91,-90,82,-627,614,-522
-67,-81,66,279,254,-168
-75,-28,93,-18,-203,-273
-82,-15,110,-19,-280,-299
-30,-51,-108,459,-839,-266
-30,-66,-99,711,-86,5
-41,-77,97,386,441,-604
-34,-78,109,-140,262,-533
-25,-105,93,41,39,-177
-18,-75,76,-832,114,-11
-29,-100,67,-49,-112,363
-35,-102,59,398,-372,565
11,-20,84,-1063,-303,791
22,-20,71,-664,-67,756
30,-9,67,-339,-34,329
35,-2,65,-239,-208,155
24,-17,65,-64,-110,233
33,1,66,-561,-27,267
42,0,62,-184,-150,173
53,6,66,-224,-80,86
63,3,66,-241,-45,-14
52,-20,65,53,-10,-16
56,-18,59,-175,125,51
65,-25,23,-211,172,57
71,-23,19,-275,-152,179
76,-4,24,-583,-99,144
79,-5,36,-406,-61,166
88,23,45,-770,-146,131
50,-60,2,-2070,4508,-2615
83,116,45,-383,5688,-1815
-2,-88,108,-873,4353,-1941
-74,-77,112,-1466,4298,-1537
62,66,109,107,4032,-1211
-60,71,-118,66,4255,-665
23,85,41,-430,2005,-865
-4,22,24,338,3757,-1240
-104,109,-90,-1902,2116,-1896
-120,-111,25,163,3210,-2071
-26,1,-84,1953,1787,-1358
-106,-43,-42,1243,1114,-79
116,-88,105,-242,21,-472
-125,-122,-105,-400,-1834,518
-124,-48,116,-811,-2127,769
-117,-110,-34,895,-2124,1234
-57,-14,-28,126,-2105,1402
-43,57,-77,-833,-2726,1316
9,101,16,-1027,-3368,973
107,77,-1,1322,-2560,1959
-109,-98,-89,-333,-3370,1546
-99,-12,93,-924,-4144,652
105,-78,63,1198,-3150,2054
-73,34,-127,3510,-2917,1637
60,24,-87,-1044,-4861,2017
94,-45,-3,-790,-3056,1694
40,83,11,1611,-3352,1536
63,-56,29,-907,-1869,1531
-5,92,-25,1479,-4081,2134
83,-89,26,-567,-3198,1918
4,114,-66,2126,-3363,2720
58,-27,70,3598,-2611,2735
-22,98,52,960,-1677,539
-63,-103,-44,1220,776,-733
-114,116,102,-538,1341,-478
80,43,-21,-2129,984,-235
49,-25,-73,-1121,207,497
95,0,-59,231,-371,985
-109,54,-113,42,172,22
-98,33,-125,41,106,-494
-75,20,-120,-222,-88,-676
-70,-39,-118,562,-43,-544
-97,-113,-114,1953,-309,-510
-101,-78,-63,-770,0,-669
-62,113,-12,-1015,742,585
-64,-115,109,1216,-374,647
-30,-87,94,1337,-318,505
-21,-56,95,466,-18,423
-30,-37,60,-582,245,164
-35,-59,62,-350,-35,236
107,42,119,-6384,1398,1081
115,-11,122,-549,716,760
-125,59,103,2069,112,-770
126,87,94,1029,-811,-68
-112,55,-128,1264,-457,519
-101,111,-115,1011,-353,112
-80,127,-127,61,-215,72
-70,125,-128,-1122,145,142
-70,88,104,-1339,418,65
-68,60,86,-590,221,91
-37,39,81,226,-155,193
-62,58,80,766,-134,55
-47,16,26,1504,587,-178
-39,14,-9,1193,-29,-253
-29,-17,11,956,-350,64
-14,-43,51,1683,-293,289
-16,-25,71,1699,-456,401
-13,-8,66,922,-296,229
-2,-23,76,385,-14,-104
15,-70,66,376,-57,48
35,-28,70,-1432,347,101
43,-74,17,-1475,912,-177
10,-114,-6,-71,429,1
13,-46,23,-722,-273,-114
82,-54,48,-124,-81,-31
110,-33,44,381,-94,152
103,-53,38,1308,593,36
100,-13,17,-58,391,-818
100,41,-107,-1502,-227,-1031
-107,-105,106,-1569,758,-1311
-54,52,-35,-1545,232,-1138
-81,51,4,1244,6115,-1839
106,-82,-17,-1915,3555,-3413
56,6,4,889,4533,-1990
48,-128,52,-2332,3080,-2667
35,65,59,-1400,3611,-1341
-63,34,65,-1414,3867,-1274
71,48,93,-1658,3230,-1239
7,5,56,-1499,4062,-864
106,15,109,-1528,2823,-341
98,-21,52,114,3534,-678
17,-20,-30,1372,4273,-1219
67,-80,44,-1456,2434,-737
18,-50,-26,1245,1655,332
-64,-13,49,1501,1646,-70
80,23,-93,-1072,107,-29
61,-113,2,599,-1355,379
89,26,97,-1988,-1869,1003
123,3,-64,-1175,-2063,300
-68,41,-55,-505,-2711,877
-86,-62,22,7484,-875,892
109,45,-99,3459,216,-433
111,-101,75,-1901,175,92
75,4,-25,-2120,-40,3
101,-84,-40,-355,178,130
-84,-88,-114,-204,972,-120
-104,-78,-118,-709,259,-427
-109,-109,-119,94,-79,-96
-103,118,-119,1216,-143,4
-82,-114,-125,725,-63,20
-84,-109,-124,182,-274,245
-84,-90,-121,-584,-205,228
-68,-89,-124,-609,61,131
-60,-103,121,-64,19,132
-47,-84,113,-95,-177,239
-40,-67,117,-293,-81,158
-38,-71,103,-142,90,-17
-26,-96,95,253,-61,94
-24,-83,85,-104,-63,227
-17,-67,84,-492,-29,262
1,-42,75,-750,134,64
7,-51,70,-549,40,92
24,-15,65,-1276,122,92
28,60,43,-3528,383,-150
46,91,14,-5099,784,386
36,25,78,-1461,-146,970
71,121,115,-221,-593,-33
92,-108,123,-372,244,-439
88,-70,109,-1528,232,280
78,-87,101,-1395,-206,123
94,-62,101,-1364,13,-194
95,-63,-119,-1068,46,-195
92,-85,-115,-377,62,-289
85,-98,-125,120,-72,-61
95,-67,-116,-1128,15,-7
94,-97,-95,-209,120,309
104,-81,-33,14,205,-406
-113,-71,111,113,795,384
-112,-70,14,800,1203,-296
69,9,15,-243,2917,-755
29,-9,-9,-515,4757,-1053
-92,-43,3,8,4399,-1164
-98,-106,32,537,3772,-724
-100,4,67,-1710,3995,-1018
-102,-68,117,-4,4063,-442
-104,9,-66,-231,4888,-479
18,20,-86,-1048,3014,-488
-22,-58,90,-286,3918,-399
56,3,96,-1817,2194,-544
49,-110,6,-208,3390,-36
-127,-117,26,-2213,-4583,1641
-72,-60,-42,2488,-3146,1755
-4,35,44,-132,-2328,714
-13,53,-12,-413,-2986,205
-103,-64,-33,-1011,-4565,491
-76,76,67,368,-2105,620
73,115,-109,218,-3879,456
52,-11,-117,1882,-920,1689
-63,112,55,-141,-2009,1218
-67,84,107,3266,-237,3124
106,-52,-74,7445,613,1218
92,-86,-27,-5300,844,-1314
115,27,65,-3909,214,-1006
-102,96,-80,303,-31,155
-42,-110,115,1726,794,171
-56,16,95,-1608,270,-217
-65,-31,82,-1768,-31,116
-49,-40,103,-370,-112,272
-19,-5,94,-392,-11,24
-19,20,95,-572,-209,233
-31,19,108,-436,-346,26
-18,0,-128,166,-278,205
-11,13,-127,22,-173,172
-6,2,125,191,-295,187
2,-6,-118,591,-455,186
15,-10,120,504,-241,133
13,0,109,-351,-95,81
12,-17,102,-185,-150,32
20,-9,102,-288,-314,12
34,-6,103,-569,-106,117
30,0,112,-289,-78,264
38,16,79,-514,5,-193
47,28,71,-1066,165,128
46,26,63,-687,-142,248
53,6,73,571,-435,174
57,-39,75,1662,-501,-27
84,31,43,521,242,-203
80,26,42,-998,389,-341
75,-17,36,-539,1,113
83,-39,43,-284,-154,93
91,-14,48,-380,-114,278
91,0,46,-138,-19,91
85,18,61,-190,-231,60
78,51,125,-494,-218,-490
127,-119,41,-729,229,-188
-72,-60,107,-897,1362,-1638
35,-59,-19,-533,3533,-1260
102,7,-15,215,2201,-1378
54,76,-22,-786,3510,-1207
50,64,-7,808,3559,-1930
-48,-36,23,-2171,5030,-2307
-54,54,70,173,4793,-1509
84,-110,77,-2687,3947,-1768
55,54,80,-456,5079,-713
-121,80,11,-1068,3925,-1094
52,-51,-96,335,3874,-1258
76,22,-47,-2569,3214,-1366
0,126,-91,1308,2282,-637
107,-120,-2,1727,2114,-1795
-63,-46,-65,1285,2591,-839
32,35,30,-1402,-453,-4
13,-1,79,-1069,-1475,510
86,-97,54,-664,-1676,969
-126,15,-69,-753,-2338,993
-58,98,-37,-1441,-2837,844
70,92,-12,-28,-2928,697
103,-90,-32,-65,-3383,266
-62,-68,-30,-846,-4288,336
56,124,43,2249,-3338,24
26,-4,24,-738,-4562,175
-30,6,-108,-408,-4345,-37
27,75,-76,2411,-3527,508
-53,-74,-34,1290,-3497,326
-35,-113,19,1638,-3662,1022
-90,61,61,475,-3513,1442
-27,68,110,826,-2979,1874
109,110,-80,354,-2565,2005
-9,119,-59,1433,-1841,1379
-63,-124,-124,1728,-1398,1111
123,-85,-44,462,-1009,-18
92,125,-42,1318,-562,-163
125,-59,-56,709,1518,-242
110,-2,33,-1701,173,-184
108,-95,-84,213,-92,260
123,-49,-102,-196,186,381
-119,-10,117,-883,-65,302
-102,-33,126,-483,-237,56
-86,-25,124,-521,-148,45
-84,-12,118,-707,-74,-120
-81,-40,122,75,-72,-4
-75,-35,124,-87,24,9
-65,-67,-119,-99,139,232
-56,-52,-127,-254,-126,225
-47,-33,113,-203,-119,148
-27,-9,92,-385,33,136
-28,-2,84,-283,-33,110
-19,-5,73,-135,-74,110
-9,-11,68,-171,-18,171
-1,-3,70,-156,-110,90
12,-19,74,-151,8,121
-11,44,-27,2398,-4261,2317
-39,82,71,-2063,-4903,-315
44,-66,-18,-146,-4752,676
116,62,-11,1047,-3036,814
-67,60,23,803,-2440,1379
-90,88,50,-1068,-4270,1399
-97,57,91,1017,-1443,1746
99,-56,-16,-1050,-3522,1650
59,-100,-53,84,-3034,1161
-19,-98,28,3491,-3321,1412
-63,96,35,13988,-780,338
-110,106,116,-3697,25,-1520
-66,-79,8,-6662,1831,-1259
103,124,79,-2732,1106,-690
86,-76,63,-1985,-205,477
-126,78,96,-3910,-213,841
-99,72,81,-3279,-165,182
-102,75,119,-457,-628,-88
-75,61,-120,170,178,-483
-96,-79,-92,-511,-112,691
-112,-74,119,1669,-265,288
-69,89,80,852,-302,-130
-62,84,93,546,-96,155
-62,64,81,-5,-13,114
-61,19,93,-6,-148,206
-48,2,104,-88,-80,211
-35,21,80,-194,-67,104
-29,17,69,-167,-44,101
-28,6,62,-195,-103,139
-18,6,65,-117,-89,20
2,17,55,-297,63,74
-7,20,34,-99,-142,118
9,21,45,-237,-19,112
12,12,48,-260,2,65
26,-5,37,-124,131,-63
28,-1,21,-103,-58,92
37,10,27,167,-37,35
46,37,24,-249,-9,150
49,31,29,-249,-41,42
60,18,27,-686,-103,210
59,-5,18,-214,-6,120
61,5,20,-56,-8,50
70,-3,74,-17,-18,-105
117,83,117,-607,-95,199
119,74,-59,-414,161,-892
-79,5,37,922,1316,86
-27,49,-125,656,1740,-901
65,-123,-96,-369,1468,-1224
-48,-85,-113,991,2255,-2189
92,29,-36,-1635,3981,-1080
2,46,64,-2827,-5048,127
-114,127,104,-287,-2857,347
100,58,44,926,-4418,592
98,33,68,376,-2989,1111
57,-5,108,884,-3360,1509
92,31,-100,749,-1943,2007
-15,80,74,660,-2076,1834
-11,77,45,1301,-1045,1875
-85,-99,-94,1989,-740,1070
-125,-45,124,-301,-626,-74
119,71,90,966,40,157
105,66,60,284,187,44
101,50,13,-55,-67,246
107,10,-56,-231,187,157
-125,0,-69,-456,227,-87
-94,-7,-115,-534,220,-190
-78,-30,-128,-142,139,-210
-72,-54,122,70,114,-147
-64,-42,100,-522,89,12
-56,-47,94,-400,-108,-33
-45,-35,109,-402,-125,76
-32,-9,116,-430,-93,22
-28,-22,124,-12,-65,226
-20,29,115,-565,-133,4
-9,-6,119,-84,67,114
8,23,104,-430,84,13
7,-7,83,42,11,132
22,12,72,-230,42,-4
30,15,66,-372,-73,83
42,0,66,-34,-13,103
42,20,56,-304,-75,-81
45,-3,68,-63,-132,120
50,19,67,-428,-115,48
53,6,84,-112,-122,107
60,36,78,-638,-39,48
58,65,96,-1102,-22,-162
58,98,-105,-1508,-60,79
83,81,-69,-550,583,-18
109,127,4,-456,334,97
-84,127,65,218,1014,-339
-13,-87,112,-147,1764,-622
78,-96,-110,-254,2301,-1004
-109,113,-95,323,2529,-897
-21,-96,-41,28,2748,-1211
6,-84,2,318,2759,-1282
114,-65,17,1319,3807,-1061
-103,-11,61,1138,3501,-2078
-115,43,81,-35,3659,-1984
62,16,83,165,3385,-1928
5,20,47,175,3441,-1931
-11,14,-127,-2792,-4844,-1197
61,41,50,3353,-3591,-153
4,34,87,-2459,-4899,-1269
7,-16,-34,1910,-3610,201
-8,120,-20,911,-3845,-346
-56,75,-13,-43,-3690,63
-100,7,12,810,-3736,859
-128,29,50,1003,-2935,254
79,2,97,367,-2231,948
-9,-24,52,1294,-3060,1655
29,91,87,284,-2110,1648
-84,92,69,-283,-1809,252
-59,-25,31,3154,-995,1112
-99,123,117,2040,-944,446
118,78,-120,3746,-668,122
116,40,116,1204,579,-194
108,-23,76,-712,260,-20
-126,-30,-42,-1448,-48,216
118,-60,-76,-360,-186,-50
-107,-86,-110,-79,212,-411
-87,-69,125,-630,304,-404
-96,-112,116,-221,92,-185
-91,-106,111,-196,-77,-108
-69,-107,107,-472,3,149
-71,-116,101,-336,112,335
-47,-56,95,-537,-218,501
-40,-30,95,-694,-175,219
-39,-53,100,-114,-126,380
-29,18,95,-891,-144,255
-24,-1,97,-525,-32,314
-10,20,87,-827,169,291
-5,33,81,-441,-126,91
10,3,73,211,-143,-81
4,16,60,-253,-120,-124
2,-27,55,-173,10,151
13,-19,55,-214,-91,262
32,-16,65,348,-129,148
51,2,65,-229,25,58
39,-5,61,-854,370,-13
57,13,37,-1688,797,96
68,-9,39,-974,162,709
94,18,38,-416,-435,479
75,62,33,1102,-629,-355
92,112,42,461,-467,-491
62,46,24,308,-325,-377
39,-64,17,116,-342,173
78,8,59,-530,-225,1086
116,48,87,-242,187,-579
96,18,-104,-647,357,-2
70,68,-26,512,94,-283
-28,-64,-2,708,4762,-2675
2,25,36,-1101,4116,-2671
-104,-36,64,-1036,4133,-2244
66,-37,87,-312,4628,-1401
-110,47,10,-2284,3437,-1703
35,-40,-33,-406,3852,-1045
-70,34,-42,-1567,3683,-1229
15,0,-22,-2544,2968,-911
-51,91,-17,2122,4012,-266
68,-29,83,-1507,2069,-648
29,-13,-94,2197,2392,14
-120,34,61,446,690,-382
44,-52,-26,-707,-634,-105
27,-77,-105,-478,-2170,606
106,61,-88,-601,-1814,692
126,110,-45,-49,-2833,665
-43,85,-58,330,-2232,527
34,-97,-40,-902,-3150,521
105,121,-9,-189,-3308,515
-44,96,-6,343,-3564,643
10,89,-37,-405,-3996,898
62,121,76,1493,-3156,-48
-15,86,-7,-655,-5212,1987
112,94,56,-213,-3672,1580
-13,-31,-23,-1033,-5030,637
0,97,44,-134,-4621,1188
22,71,98,663,-2674,307
2,87,-100,190,-3517,1952
124,-111,-67,313,-3909,2142
57,-30,-111,1213,-2935,1965
-57,112,-81,-276,-3258,491
-62,-113,96,4739,-1300,-527
115,-65,51,5825,-423,-390
114,60,-82,-3995,1924,410
78,88,14,-2020,1069,-263
113,-12,-48,1932,888,-465
114,16,121,1640,516,-1161
-117,51,72,-2718,571,-1063
-118,10,31,-4837,493,90
121,-115,56,-2848,348,852
113,-71,92,1048,-399,-146
-105,-54,109,1528,-663,160
-77,-6,123,1658,-420,261
-80,14,92,1898,-211,75
-73,27,80,1137,-156,21
-58,21,88,-4,-81,107
-56,-10,92,-123,49,168
-59,-46,106,-301,63,114
-48,-52,93,-353,43,57
-39,-51,72,-70,-90,88
-64,40,34,6316,3867,1075
-87,42,-26,-3547,3303,-2652
0,-94,-23,2785,4553,-1570
-67,-31,-11,-14,5204,-2491
21,-103,40,404,4988,-1931
-64,-25,92,-1075,4625,-2557
70,-40,49,-547,4479,-1451
107,-8,21,-1034,3626,-1564
-48,8,27,-880,3335,-819
117,-9,-34,-1197,3471,-1243
-54,-26,-35,-83,2642,-722
-113,-44,115,190,3033,-740
68,-120,90,365,2662,-1040
-53,3,69,1690,1941,-103
-78,22,116,-109,573,110
122,-74,91,-65,-829,-563
114,-87,4,472,-1843,599
121,-45,94,-781,-1820,880
-95,31,-63,-971,-2780,994
-34,58,-32,-545,-2875,957
52,36,-31,339,-2921,1216
77,-125,-14,-628,-2855,711
-102,78,53,1167,-3062,1714
-53,-120,-19,-1298,-3379,1531
-49,-106,95,-609,-3974,-165
-35,82,-112,2462,-1964,1993
-124,-90,33,-1025,-4984,1101
14,-79,-119,1050,-2413,1630
58,-44,14,-297,-5973,1644
-70,-74,59,-865,-4120,1672
-69,113,124,442,-2876,2534
57,-80,-86,709,-4069,1359
10,-78,-101,1957,-2299,2699
-82,54,93,309,-3188,1347
-46,22,-123,8997,-1060,735
119,-9,114,1581,917,-2508
127,-105,67,-3655,820,-287
76,-44,-25,-1153,70,-102
61,-88,-72,1209,30,443
112,-30,-77,718,178,-82
-96,-34,-97,351,490,-476
-87,-95,-115,954,229,-433
-94,-94,126,274,112,-492
-85,-103,127,-535,89,-383
-77,-121,111,-901,172,-134
-84,127,104,-590,-144,208
-82,-92,114,-1064,-218,479
-68,-71,117,-1040,86,882
-55,-50,110,-1492,304,1137
-19,15,113,-2271,347,1379
-53,-4,8,6218,-2721,2007
-114,-4,-108,1095,-60,1524
-108,18,9,-2087,-120,-1068
-89,-117,16,238,510,224
89,80,84,-691,-30,-24
32,3,-98,-1043,-223,-424
58,-85,15,-2098,-1101,330
-85,-24,111,120,89,725
-44,47,-125,-1527,117,-1069
33,-41,7,181,3040,-341
74,10,-12,3525,4540,-927
-62,28,-24,-1732,4892,-3364
-125,65,-5,2910,5975,-1215
-103,-94,34,413,5074,-2558
-13,-9,69,-1214,4034,-1849
111,-35,-62,-1429,3980,-1275
-69,-86,-116,432,4355,-1029
38,31,-81,-1736,3454,-1443
-87,-123,-86,956,3340,-1016
-37,-41,-122,-547,2881,-1298
-90,58,-110,2404,2252,-736
12,42,-62,2078,1844,-648
80,-45,-87,214,2002,-1518
16,-98,-125,-947,577,-684
-17,82,-85,-119,-1141,471
33,-61,74,-1167,-1617,783
-124,51,127,-2019,-1685,1176
110,-126,-50,-2216,-2706,610
-51,102,49,-485,-3337,901
20,109,63,229,-2584,525
86,-103,-51,-650,-3003,844
123,81,-40,631,-3259,219
-111,105,17,708,-3092,955
-114,-103,-8,-1084,-4024,425
-82,117,113,-462,-3883,758
-45,-121,-94,325,-3790,659
-51,-103,-3,220,-3482,755
-85,-122,2,125,-3952,819
-102,60,25,853,-2946,558
124,57,84,1112,-3266,1731
85,123,114,-392,-2831,1772
37,114,78,681,-1891,1598
4,48,59,-3368,-1414,403
-75,11,-50,-2663,-2587,-243
104,2,-22,13868,-1812,1643
-124,118,49,-1769,2382,-1634
-78,-58,-107,-2485,-195,-1037
-102,-51,86,-1012,1333,-486
88,-84,18,460,375,1084
113,85,56,-2613,-812,945
113,-55,-28,815,6145,-1470
-32,5,-14,-11,4717,-2032
45,-5,-85,-121,5482,-2053
-99,21,-105,-478,3876,-3026
46,31,126,-704,4139,-1906
67,-14,-24,-607,3751,-1586
-111,32,-72,-2581,3037,-1161
67,-64,-67,-606,3019,-627
-47,-74,-101,30,2854,-1128
65,-86,111,-679,2232,-444
39,4,12,2468,3251,-756
-52,-39,-50,1343,1858,-753
74,-123,58,-263,-349,-423
78,63,38,778,-1276,458
48,-98,-103,-338,-1681,1404
125,80,21,-2678,-2387,1618
-78,20,-17,-237,-2477,852
-60,-114,-42,-1210,-2777,784
41,106,-75,-478,-3238,1015
-124,74,-59,694,-3352,995
-121,-62,-35,-2083,-4210,477
-9,-57,-37,1622,-3045,756
109,97,123,-481,-3632,1492
5,97,108,-2098,-5695,-105
107,69,-76,2826,-2630,1837
-23,-16,-8,184,-5188,563
69,-8,78,1094,-2958,793
-52,103,120,1513,-4074,1589
-95,111,-96,1286,-2282,2578
35,43,44,-2503,-2792,1797
52,108,-61,24883,-3837,5741
-3,13,-97,-9137,2671,-3879
-75,-78,-67,-9329,1619,-1628
-119,-107,24,-408,2404,-1007
77,90,90,2944,151,1374
93,78,57,-1623,-741,849
-106,91,20,-4047,-247,-214
-98,-27,-108,-394,-1230,1029
-111,78,52,-725,-909,766
-59,-109,-70,-2655,1584,-218
-105,4,-93,-81,334,-882
-70,29,-34,214,-815,389
-69,126,-47,-139,-452,150
-41,92,119,542,335,-414
-37,23,123,333,-58,197
-74,-15,-126,867,-810,782
-70,37,98,1076,-393,203
31,16,64,499,392,-78
4,11,97,-600,-111,336
-33,-7,100,-12,-395,339
-97,-26,-22,2093,4343,-2291
61,76,-27,-1383,3362,-2355
-11,-105,-11,863,3916,-1886
126,34,15,-995,4308,-1579
-53,-8,69,70,4493,-1914
-99,-22,122,-654,4551,-1709
48,-43,-97,419,4436,-1286
-57,-7,81,-1499,4271,-1794
81,-125,-31,629,3892,-1081
114,36,-109,-2356,2960,-1048
22,116,118,349,3144,-544
118,-112,68,-281,2109,-760
-26,67,100,1097,2151,-425
-73,17,100,1189,694,-204
31,-71,-25,-135,-1398,-724
45,-114,-4,-1012,-2051,466
74,-64,-50,-671,-1882,859
-112,21,32,-135,-1861,911
-90,105,59,-826,-2501,556
-55,117,73,-1517,-2545,411
-13,88,40,-943,-2172,87
6,-44,111,-1627,-2139,-506
16,62,115,708,-3356,929
63,87,29,820,-2927,157
127,-13,76,2341,-2798,1887
-42,-126,-49,-511,-3619,913
-20,27,-34,679,-4293,1227
-14,-95,-121,-365,-3512,325
-90,-119,10,-560,-4782,304
-78,-4,44,1912,-1613,1551
-128,104,67,23,-3573,2296
107,-68,126,-1095,-3819,1987
101,-65,-89,576,-2204,2556
-36,-35,-47,623,-3077,1286
-26,-79,79,2243,-573,913
125,31,-53,-563,-241,-488
98,95,119,929,-40,-794
108,27,61,1494,-92,-504
124,-44,43,976,-30,100
111,-97,-36,-2856,738,201
101,-75,-123,-767,-181,390
-116,-58,-128,886,-77,310
-91,15,-120,-641,35,55
-85,-15,-127,36,-116,223
-91,-27,127,1160,-590,198
-88,-55,117,1201,-565,-177
-75,-69,88,199,57,-104
-76,-61,81,-657,181,185
-76,-69,94,-39,-179,194
-55,-49,98,-105,-175,122
-80,89,120,1601,4215,-2799
-54,-105,-35,-80,3318,-1731
-8,-71,28,-312,4047,-1942
-18,-18,73,109,3560,-1258
-49,-2,81,814,4145,-1579
72,97,110,-690,3442,-1988
-14,73,47,-371,3744,-1757
-69,90,66,-880,3418,-1679
127,53,-11,-1373,3471,-1449
20,-5,-63,-916,2691,-1641
-126,-39,-95,-771,2703,-1131
73,116,96,1621,2532,-589
24,-15,82,3295,2029,-1292
113,-81,-23,-323,-267,-735
31,42,-112,-1781,-1417,14
32,-128,-104,-1080,-1468,1000
53,-31,22,512,-1482,763
121,44,-20,-558,-2092,1687
-85,102,-58,-1045,-2115,1138
-4,73,-101,-177,-2958,1367
116,93,105,-1023,-3293,1157
-31,-111,118,-834,-4255,888
84,-19,2,2914,-4861,1571
-41,23,79,-1558,-4839,1691
-59,-20,48,1567,-4511,1428
-8,-3,66,2387,-3912,1634
37,111,-77,-3922,-7224,1874
72,67,-111,2197,-4121,1594
-19,84,26,422,-4475,1829
92,11,51,883,-2561,2025
-126,31,97,21953,-460,2817
-118,13,6,-10882,2855,-3130
79,32,-127,-6810,116,-1118
71,118,70,2971,796,2006
48,-114,19,-2479,-406,1380
98,-33,45,-5341,-344,1231
127,-50,-116,-4414,-593,1101
-111,-28,-5,-2699,-816,386
-84,118,62,1051,198,-1265
-128,50,53,2303,-168,-1642
125,60,45,-4865,1107,2142
125,-38,-52,4139,-378,449
-67,-106,86,4196,-786,-987
-51,-35,59,-1718,391,-889
-83,81,80,-1430,520,325
-111,-11,96,227,-325,444
-78,1,106,845,-452,390
-40,26,119,590,-352,151
-41,25,117,629,-324,118
-35,34,88,371,-100,132
92,-75,-5,5406,2974,23
53,95,-15,-2100,3334,-2328
-72,108,-13,2289,4195,-1947
101,-19,10,583,4448,-2301
-97,12,52,-1064,4981,-1871
-110,-7,102,-591,4594,-1109
1,-29,24,612,3697,-1837
99,48,20,-1295,3361,-1907
-46,-67,37,-40,3444,-1317
101,59,28,-3021,2936,-1125
8,-92,113,502,3306,-111
-98,-69,-21,1959,2929,-597
69,-90,95,976,2821,-1553
-42,-5,-98,1939,1878,-606
-114,-40,-31,-66,1151,-955
50,122,-61,206,63,-53
-7,-94,66,-972,-1429,1019
47,18,-70,-664,-1328,839
68,73,-11,-133,-1872,927
82,107,21,-1029,-2375,748
125,68,21,-410,-1821,744
-111,53,-5,-50,-2399,805
-56,87,-16,-547,-2437,1037
-43,37,-47,-902,-2888,1022
64,-109,-36,-601,-2721,72
44,47,25,342,-3422,1397
-115,-42,-38,-2293,-2453,759
88,61,49,-3412,-4879,-1436
107,-13,-42,3360,-2250,469
70,100,-94,1572,-2953,1493
124,103,121,1155,-2777,703
49,104,-6,636,-4645,1430
-106,46,31,1479,-2537,2056
99,11,101,2800,-1974,2769
46,-42,49,-523,-2628,1941
10,-101,87,593,-1293,1240
-91,-18,35,-901,-1379,1104
-106,35,-103,2979,-913,1164
-117,18,32,4391,-1175,871
109,53,-7,2223,-965,122
-128,59,-2,-498,-224,138
106,24,7,-802,-134,112
106,-54,-20,216,59,-466
83,103,-19,1324,-141,-592
-122,91,-43,1501,130,87
-70,-91,-86,-571,429,552
122,-35,-117,-2518,111,-102
-73,-106,110,-1903,712,-417
-55,-113,-120,-936,248,305
-89,-29,106,-1342,-80,387
84,58,-15,3119,3636,-1814
-17,114,-16,684,4059,-1842
8,110,14,1124,4158,-1929
-43,118,58,1693,3011,-1999
-78,50,76,-1928,3576,-2381
119,-110,52,1578,3515,-1122
25,-20,-9,178,3617,-2067
-102,20,-21,-1388,2478,-1662
84,-94,-87,-296,3306,-1189
-48,-22,-65,-690,2258,-1123
111,98,62,-121,2563,-905
35,64,92,967,2130,-1478
-71,-5,-114,2162,2185,-815
113,-22,-61,-27,872,-701
23,94,99,336,-418,-490
15,-48,-8,-1877,-1722,838
52,-74,-102,-735,-1821,932
127,52,-34,-995,-2166,1177
-70,68,-24,-190,-2401,854
-32,-92,11,-1650,-2957,912
39,38,3,1263,-2652,788
71,-120,29,1370,-2715,684
124,93,-66,1314,-2580,1925
-98,127,-22,20,-3158,1007
-101,98,-36,287,-3437,1925
-54,105,-72,-2073,-4263,1580
-3,64,115,1085,-3274,1524
-80,-46,-7,-1049,-4997,1779
-5,-127,42,-481,-3607,2133
-16,-60,118,492,-2961,2661
107,-44,-106,-52,-3125,1297
61,-101,74,1352,-998,1993
-96,22,3,-1390,-2662,324
-33,82,13,1376,-571,294
-77,-105,-115,1668,-116,576
122,-75,87,385,-603,-326
-123,85,79,1279,-30,-236
117,34,41,482,84,-29
116,-52,29,-644,330,322
-123,-42,-40,-580,210,226
-69,-27,-72,-14,401,5
-42,-16,-116,-731,770,-118
-48,-40,100,-399,503,-44
-53,-27,54,-778,299,301
-42,16,21,-1778,-25,343
-45,47,11,-1962,-355,501
-58,108,56,-1760,-872,254
-59,68,91,-17,-530,74
-33,70,111,579,-233,-169
14,100,86,-313,-43,-663
-37,-124,36,-638,4826,-3095
-81,23,39,956,3800,-3035
68,67,-53,-1764,3853,-3314
-75,-78,-127,650,3360,-2140
27,-6,124,-562,3181,-2838
107,-26,122,-1255,2891,-1792
6,-52,62,-1333,2587,-2208
89,-84,53,-1213,2249,-1208
-70,51,20,176,1542,-1019
98,35,-34,74,1149,-385
15,-26,122,-79,571,-242
49,-51,46,-584,-98,436
68,-66,28,707,-414,154
35,-21,73,-26,-1568,1022
80,-27,115,-152,-1853,1208
-105,88,-91,-1176,-2364,1379
-31,92,-51,-118,-2611,887
1,127,-62,-460,-2881,1041
84,74,-49,548,-3175,1154
-92,59,-11,1899,-2664,1373
-46,118,-85,-166,-3179,1702
-35,-64,-35,-2148,-4208,998
-3,122,46,400,-3606,1741
-25,-87,-42,-422,-4373,1442
-39,-71,1,-51,-3561,1390
-80,-81,51,836,-4757,2137
-53,-68,96,-114,-1714,1438
104,103,125,1346,-2537,2111
7,-46,34,-223,-2879,2918
-34,-72,-97,933,-2666,1021
-1,-32,-32,926,550,709
116,-42,-95,-197,-1137,-502
-119,82,-115,1151,-410,-90
111,83,80,736,-282,-1
110,-128,19,-991,-104,-316
-126,24,-23,-480,223,-311
-128,-36,-30,-931,85,89
-108,-107,-70,-2150,218,668
-104,-65,-106,846,-422,149
-76,32,-88,538,-201,250
-79,13,-127,403,531,-234
-59,40,96,-596,433,3
-55,7,78,-222,-25,62
-59,-36,56,966,-423,276
-45,2,39,246,-340,167
-39,-12,38,7,-200,-13
-29,-32,47,53,1,-75
-28,-47,68,295,-184,89
-22,-52,100,137,-66,186
-13,-73,122,448,-99,212
0,112,8,1565,5827,-1245
83,-125,1,2315,3712,-537
-121,-107,16,3382,3534,-2264
-86,94,64,41,3844,-2663
-65,-126,112,-370,3291,-2518
-52,86,-105,723,3517,-2397
-32,-107,-33,-667,4404,-2642
123,58,-98,296,3569,-1918
63,47,61,487,4103,-2290
71,17,-49,36,2248,-1813
18,-59,-110,55,3015,-1761
67,-60,118,87,1093,-1267
-31,68,16,1381,1946,-724
-94,67,-43,-249,1409,-1015
113,-80,84,791,1215,-195
50,-107,19,-177,-797,181
58,-56,36,-1306,-856,483
42,3,-91,-1502,-1530,1064
100,62,-57,-604,-1193,1038
86,-98,-28,-973,-2513,854
-127,-90,-33,-598,-2490,808
-111,-110,-25,-537,-2589,538
-92,-51,18,-1231,-1977,536
-71,-62,-27,-1655,-3818,158
40,110,-30,-430,-2622,95
-1,-66,51,-1172,-3900,-382
75,-108,35,-811,-3190,7
85,83,-26,1251,-3250,-489
-122,-35,-73,-417,-3427,247
83,-122,-14,1058,-5730,352
41,115,14,2911,-5052,1430
-89,3,103,1295,-3162,1417
4,2,-78,-601,-5491,305
13,-28,-12,2615,-614,1554
-96,-109,0,196,-3657,1615
-58,116,-19,3816,-1932,2243
119,-91,40,770,456,-698
111,-60,62,-6891,2033,-1397
-98,22,-85,1607,1014,-901
-99,-52,75,783,1391,715
121,2,-21,-853,579,305
123,20,17,-1664,-509,580
-118,-118,52,-3061,-1444,1094
-128,-108,-69,-1179,-2432,736
-106,-124,-32,825,-1020,38
-101,93,-36,2520,106,-946
-76,94,63,1598,964,1090
-93,-108,-1,-1988,844,-69
-87,-48,66,3942,-249,-760
-62,-32,58,2481,-340,-967
-50,-37,16,1252,5335,-1872
-38,-38,59,254,4188,-2655
-63,-75,114,276,4689,-1944
50,-63,-116,97,4489,-1949
107,16,124,-1839,2724,-1621
65,-102,90,-98,3880,-978
-102,79,-38,-1446,3171,-1017
-68,-127,32,1185,3881,-718
-44,-37,98,539,2244,-1179
80,-69,-15,-973,2077,-1425
-14,23,9,2516,1250,-324
77,-13,48,1172,1548,-1486
-27,-86,-67,-1197,-126,684
14,-38,26,-1127,-599,267
18,-36,58,279,-1131,439
55,75,-91,-834,-1611,651
89,95,-39,45,-1973,668
-96,116,-58,-429,-2254,816
-42,125,-57,-210,-2530,434
18,110,-54,346,-2948,677
82,77,-87,548,-2997,1119
121,41,-57,1310,-3359,1002
-45,68,-57,-334,-3500,1571
-48,-93,71,-210,-3328,680
-31,124,-123,641,-3308,1650
-87,-122,-104,1628,-3587,1347
-94,-20,-2,-1152,-3504,1524
-103,-93,-1,-82,-3728,2177
-66,-33,-4,233,-2358,1348
51,48,112,-2338,-5098,1093
113,57,-93,1111,-544,1888
-108,-89,-80,-498,-2047,1162
-66,127,25,1669,-916,2200
-121,34,-66,-634,-2175,-252
124,111,-61,1370,-1157,-710
124,-124,20,2810,1609,458
99,41,76,-753,206,-25
116,64,-63,-1228,-611,173
125,-1,-93,395,274,461
-79,-23,-124,489,547,-19
-56,12,117,-181,-43,-67
-73,-49,126,169,-201,-63
-104,-56,95,-323,35,18
-61,-69,100,-124,-137,152
-38,-61,-121,359,-359,267
-56,-32,-118,62,-63,275
-54,-70,119,826,-126,42
-38,-37,102,148,-370,312
-36,-33,116,21,-336,264
-9,-37,110,-269,-68,193
105,-127,42,-1846,4334,-2500
-64,-13,29,-1006,4237,-1831
41,-57,-65,1047,3973,-1192
103,-127,-111,-3266,2935,-1675
-87,101,-124,1333,3160,-438
76,-61,75,-656,2518,-1258
-48,78,30,-267,2761,-1452
82,28,-127,-836,-594,809
100,-6,-73,89,-641,65
43,86,89,-796,-1611,165
87,80,-53,-146,-1300,362
124,127,-85,-1102,-2827,429
-64,-101,-24,-108,-2390,195
19,109,-16,1245,-3003,547
119,99,-47,1440,-2974,1030
-83,-86,-25,727,-3709,381
120,65,-32,848,-3349,891
0,-98,36,-156,-5364,1295
-13,-26,-87,544,-3940,899
-119,41,-3,-90,-3777,821
-111,-110,-18,1095,-3169,1649
91,35,7,-352,-3622,895
70,-73,54,22,-3931,1298
87,-109,96,270,-2068,1015
-29,-120,126,-23,-2476,1225
-39,120,82,-136,-1715,1229
97,108,-126,194,-2206,2045
-115,-121,-16,340,-1159,807
118,-109,-63,407,-1039,162
120,35,-97,1682,-258,153
-113,-3,31,1157,303,-261
-118,-26,-21,897,400,128
-114,-12,-48,103,171,252
-106,-42,-96,87,185,105
-109,-46,-117,2,122,-16
-87,-29,-121,-564,23,-42
-66,-53,-124,-305,11,136
-58,-39,-113,-261,-173,211
-51,-41,-109,-36,-9,289
-23,-33,108,-144,446,-12
-19,-39,76,65,278,-185
-10,-37,65,-90,-25,-243
-5,-50,66,-394,-170,120
-9,-48,74,-199,-271,221
-6,-38,70,-119,-348,370
0,-22,79,-123,-532,280
16,-24,103,15,-468,284
15,-21,100,-145,-219,11
27,-43,110,101,-75,105
33,-47,90,254,11,29
-81,-112,79,-4351,2232,-1703
-72,22,-91,61,3543,-800
-77,-52,-65,684,3063,-887
-115,30,-56,2666,3599,20
-29,8,-18,1585,1281,-827
-110,-100,-90,-629,-1458,-541
116,74,119,-265,-1900,241
-121,-42,-126,-800,-2605,1501
-63,51,-46,-1118,-3033,1002
8,101,2,-255,-3481,900
67,-92,78,-505,-3083,472
82,-37,124,-793,-3323,382
-58,-9,0,-1964,-3933,193
-115,-107,-3,1240,-3919,-1508
-109,-116,11,2047,-3619,443
47,107,-54,1532,-3392,1451
-90,-80,-110,2876,-2806,2610
121,21,113,2015,-2946,2642
-70,112,18,-2036,-6009,1972
-47,98,80,565,-2600,1196
113,-116,114,162,-2495,1266
-46,-41,-103,-1702,-2766,485
-6,-38,-112,3007,-850,1636
-83,-106,-13,241,-808,2364
78,46,-5,772,-2056,2123
79,-2,46,5415,-1722,751
107,-92,-55,1342,-523,-408
102,-121,63,-2641,457,-533
110,-69,-21,283,359,-84
-96,-41,-109,-519,689,105
-90,-19,-103,-844,-232,-142
-121,-52,-83,490,-488,-106
-117,-50,-108,-134,116,-353
-94,-73,111,-568,518,-332
-62,-80,117,118,-87,411
-36,0,114,-876,-425,99
-45,-12,-118,-707,-267,-42
-27,-40,90,255,484,-277
12,-47,69,-82,285,-418
-18,-11,107,-859,-545,206
-16,-46,85,-185,152,-25
8,-36,69,-249,145,-9
15,-23,71,-341,-274,219
12,-9,97,-323,-409,446
13,20,100,-509,-171,243
40,-9,83,100,119,-32
38,-2,55,-298,36,0
21,15,82,-709,-603,378
26,30,91,-647,-143,194
47,15,72,205,80,-12
-90,-49,-13,-1580,4847,-1954
-48,7,-55,-1418,3552,-1182
-31,10,-49,-1754,3752,-1099
-96,-13,-45,-654,3645,-689
-4,76,-97,-2669,2890,-510
-95,67,0,4381,2816,-1051
5,10,70,-896,2357,-1080
-50,15,-116,1740,1939,-300
93,-43,-60,1938,960,-1187
16,-119,93,-1163,-799,314
-22,72,30,-532,-1765,1189
94,-52,99,235,-1930,1515
-98,71,-103,-1856,-2417,1400
76,26,-86,-226,-2903,1242
121,104,-96,-315,-3845,1093
49,77,-127,-110,-3252,1120
92,-111,-66,-352,-4385,627
126,-38,20,-1326,-5038,1326
-124,-34,-124,164,-4329,504
74,-19,2,1002,-4150,341
1,-66,-15,772,-4375,1907
-3,-80,-50,-1320,-3913,953
-1,84,86,-71,-3382,1057
13,43,76,901,-2711,865
107,96,-107,226,-3402,1889
83,47,-93,3225,-355,2009
-51,125,-7,-1815,-2549,948
-113,-34,52,169,-1075,51
113,-2,-32,5104,-188,114
109,-92,123,-239,399,-434
123,12,60,-1334,450,-79
-107,-117,-121,1303,297,334
123,-4,-120,-647,16,-265
-98,-28,113,-1231,408,-146
-79,-67,112,69,-141,344
-83,-4,86,-417,-326,-18
-89,-49,79,-374,141,-290
-85,-114,89,5,-109,246
-68,-78,95,678,-61,-244
-37,0,110,-242,-144,338
-46,-4,87,-341,-12,68
-45,-13,89,-251,-134,114
-28,-24,73,-474,32,185
-27,-63,44,33,123,143
2,-45,44,425,-331,410
31,4,106,283,22,413
6,-1,103,-287,221,-129
12,4,71,-1097,-93,61
36,-44,43,248,-91,128
-4,-55,27,242,-61,239
110,36,1,812,4692,-2593
-22,-21,19,687,5129,-1891
-91,18,1,-917,3738,-2195
64,-71,-36,679,3947,-1231
-111,50,31,-1166,3149,-1412
-13,-3,38,-162,3084,-689
-27,4,70,405,3982,-1010
76,82,53,-1602,2866,-1364
26,-58,26,-108,3920,-945
-69,16,42,190,2696,-887
107,-74,93,263,2715,-1151
-28,81,-37,1545,1946,-764
115,-21,-53,954,1448,-457
13,24,101,-1045,-417,-84
20,-29,-62,-409,-1534,193
40,46,103,-513,-2139,632
105,114,-44,-897,-2048,792
-113,-128,-32,-147,-2700,744
-34,-89,-33,-651,-2963,506
41,-79,-55,-719,-3188,147
90,-101,-21,414,-3202,269
113,-82,-6,-633,-3980,579
-92,-49,79,-6,-4053,-172
-54,83,102,1671,-3304,840
-78,49,68,-1431,-4163,-375
-56,126,-27,591,-3746,906
-72,40,115,1851,-3936,691
-42,-31,56,-737,-3532,645
-51,45,105,1399,-2918,1330
120,105,-118,595,-2980,1289
78,114,-80,434,-1935,1349
-38,111,77,1455,-817,1327
-105,-94,54,1149,-1509,907
100,-46,126,1242,-81,19
115,-87,112,135,52,-631
125,-9,115,1512,793,124
126,-12,20,-931,66,344
-116,-63,-32,-638,-282,504
-93,-49,-84,-1290,117,526
-68,-40,120,-1271,433,665
-56,-1,85,-1546,-75,220
-69,30,86,-1533,-436,821
-39,104,90,-3147,-289,799
-69,12,-70,847,-1174,792
-48,51,-85,2566,-569,-362
-30,85,118,645,335,-955
-12,84,88,-1244,325,-359
-15,-3,99,636,-316,-362
-17,-27,71,1677,-341,-594
10,5,93,-2151,280,38
114,113,-22,5232,2897,-685
77,80,-7,-1613,3219,-2050
-49,76,-10,2652,4536,-2657
86,-4,26,370,4341,-2707
-110,-9,83,61,4057,-2669
113,-54,86,781,4151,-2647
-56,57,105,-1511,3132,-2758
107,-47,35,614,3782,-1732
-21,-24,20,776,3134,-2008
66,81,-43,-1520,2529,-1947
-39,-62,-30,267,2353,-1673
116,-43,-98,190,2736,-1288
-62,-51,65,-1733,1103,-1148
-67,71,23,676,1579,-609
106,0,-58,2463,853,-706
46,5,70,753,265,-188
2,-24,83,-649,-1299,288
38,10,-71,-1463,-1285,737
40,29,46,-603,-1892,802
61,97,80,-1225,-1445,1021
68,75,80,-1164,-1581,979
81,90,71,-912,-1628,814
111,-88,65,-1825,-2131,895
-100,-105,30,-1613,-2409,-10
-60,59,65,544,-1778,304
-65,-61,58,-1073,-2453,-156
-48,-19,3,2091,-2246,641
1,121,-18,71,-2981,1172
14,-57,49,-529,-3481,693
56,37,-28,2128,-2340,992
125,-36,-97,-901,-3666,417
-112,-78,19,-768,-4389,1090
-82,66,4,647,-4082,1006
-50,104,76,205,-4300,1434
-59,125,123,-222,-2509,1770
15,119,-84,91,-3117,1380
58,121,-68,708,-895,1462
105,-71,116,-605,-1910,189
-86,21,62,2845,147,648
-125,104,-101,1378,826,-189
120,72,34,-1338,253,-79
113,-49,-26,556,-10,135
-125,-36,-87,574,-232,331
-97,-14,-100,-437,223,284
-90,-32,-101,-710,136,530
-87,-19,-109,-957,-270,557
-69,-21,-113,-101,-222,396
-42,11,-120,-177,-41,168
-38,10,110,-579,153,148
-45,29,105,-1473,-38,344
102,105,-13,1580,4477,-2114
36,6,15,-2162,5158,-2733
47,85,44,1645,4776,-2217
-52,1,31,-1403,4283,-2304
55,-122,7,161,3742,-1948
-100,-32,-27,-1006,4217,-1586
-9,-74,13,59,3533,-1482
71,-20,19,-1259,2615,-1405
-86,-5,12,-2017,2724,-962
-101,-57,54,-691,2695,-477
41,-114,124,-279,2537,-1055
-68,12,10,1993,1777,-286
105,37,81,840,1242,-400
42,-31,-20,267,-134,-69
16,-19,4,-952,-1240,-72
38,-29,-113,-421,-2019,724
87,9,-43,40,-1973,608
120,94,-7,-56,-2487,632
-84,64,-16,166,-2687,561
-18,61,-19,-410,-2448,647
50,-116,-3,-1007,-2875,598
86,53,-51,515,-3334,1304
-93,127,10,841,-3147,98
-73,-109,3,-354,-3567,1166
-70,-14,33,-2573,-4125,157
-66,123,-74,671,-4297,-176
-115,66,-77,2451,-2914,1004
110,-79,-22,-1049,-4593,900
-120,-58,-8,2629,-2333,1225
-93,-115,67,-154,-3409,1829
-112,-112,126,-383,-3646,1584
86,73,-109,2082,-844,1342
-32,-77,99,-103,-1781,1005
-84,114,-23,443,-510,1157
-127,64,-46,1151,-982,641
-116,125,-107,862,-400,457
-113,58,-99,942,447,-328
117,-6,71,-38,659,0
119,-29,11,-770,-30,117
-106,-53,-35,-1107,538,639
-88,-28,-99,-1376,298,502
-36,-34,-116,-427,284,317
-10,-4,-127,-19,-159,502
-28,-4,91,123,-128,-74
-41,-22,74,339,-76,117
-44,10,61,-1100,-437,131
-23,-30,75,-171,-672,542
2,30,103,-887,-233,538
-14,19,118,-283,-482,-587
-17,-35,-113,75,-367,-38
-91,-22,-27,2729,2787,-2673
24,41,-23,361,3093,-3226
-125,30,27,-643,3453,-2150
92,93,57,-74,3615,-2712
125,-103,92,-1380,3270,-2663
-68,81,-122,-325,4593,-2419
25,73,-90,-1195,3753,-1970
-108,85,124,-1788,3417,-2008
70,-68,73,922,3376,-1585
-71,108,84,-3337,3412,-1508
75,-89,-127,-135,2615,-666
-49,-58,109,202,2680,-350
49,-118,-112,327,2364,-1019
-50,-49,-89,1761,1476,-639
43,-80,-14,-214,-521,-579
0,-88,-117,-1378,-2047,647
76,-61,99,-59,-2091,923
-124,89,-85,-473,-2718,998
16,-107,-27,-33,-2650,701
68,-121,-19,33,-3569,715
-55,17,12,1549,-2331,1362
-37,-119,19,-295,-4147,924
96,6,-85,2024,-3721,1713
90,-98,18,-1439,-3423,1894
0,31,-57,-68,-4769,736
18,-102,-78,227,-4592,1876
13,-91,13,713,-3493,1336
-43,-63,42,471,-3877,1706
-85,-32,91,-963,-4353,1699
-117,97,-96,2295,-606,1433
6,46,-120,-1354,-2280,742
-53,-119,1,599,-1146,763
-116,-84,-38,-900,-935,1086
-128,-120,-90,-460,-674,1117
-127,-125,-112,-479,-958,545
127,109,116,64,-288,132
-122,60,73,566,382,-358
-115,26,-9,165,402,-341
-112,-5,-64,301,403,-12
-90,-25,-108,-87,415,66
-61,-22,110,-868,374,475
-45,-29,120,-473,-84,649
-53,-30,118,-24,-190,516
-7,-25,85,433,218,210
11,-24,68,946,99,101
-56,-3,69,305,-604,91
-63,-8,93,-392,-228,185
11,6,110,-732,-2,305
34,-18,111,81,-193,256
21,-5,79,408,9,-68
-90,118,-24,-2440,3890,-2325
21,-4,-41,-389,3358,-1574
122,-6,-22,256,3534,-1560
-12,-4,-59,-594,2596,-1731
-102,121,120,1338,3198,-847
-26,-81,-13,-1628,1969,-1111
-85,-21,-127,932,1652,-248
97,-65,-12,1567,583,-19
46,-72,116,-544,-506,-79
25,-66,-8,-1379,-1778,626
70,-54,93,-297,-2060,1262
-110,72,-82,-1085,-2243,1302
-45,84,-83,-895,-3165,1374
11,90,-46,-325,-3465,1213
87,105,24,269,-2941,1252
-51,115,1,782,-2081,1444
-75,68,-12,-3808,-4794,1039
39,80,-42,1341,-3313,-40
-24,-6,66,276,-4399,603
-10,-80,70,658,-4485,1375
-19,53,-85,2248,-3344,1122
-100,83,29,-2003,-4843,1478
-33,103,81,1943,-3019,2099
-113,-38,118,731,-2031,1774
4,60,-104,-1292,-3480,1299
-12,-117,-127,1441,619,1410
114,25,-2,-845,-1440,738
-126,-73,-126,-1348,-14,624
111,-41,-112,1982,-214,927
-121,44,53,1325,-498,1277
-97,-120,12,-1479,-507,-196
-91,53,12,-237,40,154
-86,52,-50,185,50,-197
-87,51,-84,-201,-277,-373
-82,35,-126,-525,-10,-209
-100,-14,118,347,-382,-12
-74,0,110,-180,-269,-6
-44,5,116,-717,184,12
-50,-76,-102,593,25,179
-37,-42,-124,-280,14,51
-28,-15,114,-18,-205,251
-22,6,108,46,-195,303
-18,0,102,381,-307,320
-3,24,80,-268,69,141
5,-5,67,134,47,58
18,-5,60,-132,-133,39
24,-3,61,-420,-97,90
24,-17,61,-264,-105,125
25,-26,65,17,-202,187
29,-19,65,-81,-100,106
69,-9,43,-1989,-4946,1944
77,-73,-47,1877,-3218,760
-63,-107,-2,-1248,-4408,876
-73,-25,34,-135,-4053,1693
-69,-95,80,1410,-2668,1380
116,34,118,-804,-2669,1231
74,103,-117,1593,-1710,1791
-47,-94,32,770,-2292,1508
-55,59,59,1783,-1529,1048
-96,126,-73,1410,-657,1668
124,-68,-110,-402,-984,579
122,118,-116,336,-655,695
112,41,85,1780,-4,424
122,80,3,17,824,-438
-122,-13,-44,670,826,-321
-91,-60,-106,664,564,-341
-57,-65,124,94,626,-570
-29,-108,86,-252,687,-666
-31,-115,67,-331,309,-289
-28,-125,61,-170,43,-210
-20,-104,67,-340,-144,81
-3,-77,77,-394,-299,186
-7,-82,99,39,-522,199
5,-68,107,67,-344,401
3,-35,103,-657,-369,309
-2,-25,114,-698,-440,272
17,-21,119,-582,-274,233
23,-13,122,-423,-194,171
16,-25,112,-77,-64,115
22,-3,88,-319,-10,97
31,-7,80,-128,-105,89
43,-3,72,-212,-30,89
49,-12,62,-34,-39,126
52,-10,52,10,-96,92
68,-6,52,-105,-74,38
63,-8,48,-219,-128,58
77,-18,54,-175,-64,151
88,-14,44,-81,-155,120
67,6,50,-615,-406,140
81,15,71,-977,-85,102
102,-5,81,-191,49,170
104,4,57,130,161,17
104,10,36,-226,224,-267
-111,24,33,-805,1091,-543
-93,-18,36,416,1230,-475
-125,52,114,-922,-602,802
-94,58,82,-231,-288,511
-104,60,95,-932,-305,-244
-92,64,124,-560,696,-134
-113,56,35,317,53,-554
15,-122,-116,2382,-3079,2741
29,-5,71,-1351,-3488,1957
62,-77,5,246,-2439,2161
1,30,101,-1278,-4721,2675
24,7,-86,-828,-3841,2251
76,39,68,-197,-2368,2050
-98,56,103,-767,-5024,3429
-55,124,-126,2538,-584,1912
27,-22,-34,592,-2300,2305
5,-61,-49,606,-1713,2687
5,24,-108,458,-1376,2103
-71,27,-90,624,-975,-335
-75,-7,-95,1923,-10,-443
-82,-20,71,-1062,790,-1116
-108,-9,-80,73,766,-172
120,-32,121,-809,167,-629
-99,-68,86,-2184,645,-70
-75,-45,82,-2020,390,189
-70,-73,59,-298,-21,197
-75,0,76,-90,-213,258
-75,-14,111,478,-95,142
-42,60,97,-464,174,335
-22,54,82,-151,54,-12
-14,51,71,-19,22,8
-5,57,55,-270,49,-159
-12,29,58,-6,-226,71
6,36,67,-232,-76,31
18,31,74,-162,-120,59
25,35,65,-250,-139,59
31,25,71,-122,-156,74
33,46,73,-504,-65,44
44,54,81,-567,-44,79
43,81,92,-823,-60,91
51,90,98,-625,63,80
53,99,100,-907,-30,-58
72,62,98,333,259,179
-111,80,5,-1,307,63
-121,103,-112,-2031,311,-745
74,0,-72,149,-787,-20
73,92,46,-322,-895,-158
91,47,98,-73,-306,432
96,66,-95,580,-95,894
104,96,106,-1824,378,-130
108,72,60,-300,-68,-125
97,53,2,524,97,-117
106,105,9,-338,-69,276
117,97,7,-216,-85,72
118,64,12,318,-158,187
125,62,21,63,-165,74
126,33,42,111,-135,197
62,-86,22,851,4253,-3171
84,127,62,197,3666,-3388
15,-90,103,-1012,3196,-3007
-16,104,-125,457,4003,-2497
109,116,117,305,2952,-2323
50,76,38,193,3109,-2437
-121,33,-4,-137,1459,-1629
119,97,-88,-1969,2606,-2238
-6,104,-127,1988,2386,-1513
50,15,-47,-2710,1433,-1703
-14,4,-84,1155,1729,-1224
-115,-37,48,1823,1782,-744
52,-78,-97,208,807,-279
10,68,-126,-174,-1269,971
94,13,8,-2843,-1809,1421
116,4,119,-1031,-2307,1169
-58,114,-95,-1116,-2546,1201
-30,-104,-53,-1049,-2875,784
29,-123,3,-196,-3201,1324
124,-99,-16,770,-3165,848
-60,125,-74,2062,-2748,1935
-23,-36,14,-1887,-5901,2202
37,-45,67,-478,-3128,365
-90,-13,-50,1028,-4632,2110
-77,13,-34,-2056,-5182,1184
-17,-68,31,1201,-2278,653
111,-92,72,754,-3779,2456
-51,-125,-25,1701,-883,2439
33,93,112,272,-5886,3502
-117,-69,-5,4758,-386,1705
-30,-106,-80,1497,-1907,224
-115,-12,-82,2028,-1065,-242
-83,111,37,3937,2740,-1652
88,-53,20,-2701,-119,387
104,-9,-17,-937,-754,897
114,-3,-86,-1771,19,414
-123,-27,114,-1527,734,499
-108,-16,90,-979,364,671
-85,-40,109,387,-268,64
-63,-27,104,326,-124,-479
-58,-46,104,183,26,-392
-66,-58,111,-336,-125,-278
-59,-78,117,7,-198,9
-51,-70,124,-194,-148,99
-31,-51,-125,-575,70,245
-18,-59,111,248,-4,322
-14,-38,94,197,-126,269
-1,-32,72,37,41,146
3,-38,58,-24,-22,156
2,-47,51,100,-206,245
-92,-58,15,-946,4010,-3629
-112,-100,-19,-353,5153,-2711
-18,-87,-99,-925,3478,-2975
89,-48,-102,-1503,3452,-2374
-59,103,-71,323,3260,-2120
83,-94,-77,-1080,2868,-2119
0,103,-56,192,2840,-1358
-104,-75,22,3143,2765,-1153
58,124,-108,1710,1986,-2095
-36,-48,12,1585,1328,-1483
114,-41,-114,677,472,-772
27,88,-118,-371,-716,341
69,48,-30,-1682,-978,1656
100,-71,71,-624,-1845,1676
-95,92,92,-1788,-2054,1648
-38,70,100,-1107,-2764,1528
16,-65,-115,-1462,-2850,1307
88,-81,-29,-180,-3102,1389
-82,-80,-46,-352,-3239,1839
1,-6,-44,-644,-3844,1517
101,3,-55,-1412,-4458,2142
0,41,-91,838,-5822,1242
48,98,-39,743,-2957,1552
-81,88,5,-1339,-4882,1197
-45,-69,60,923,-4057,1700
-85,-71,106,1274,-3434,2243
-97,36,-101,-1073,-2831,3120
34,-70,-53,1591,-4688,3944
76,-5,-113,3404,-3160,2206
10,107,-67,4194,-1120,-769
-107,-8,-65,5138,-240,-1066
-120,-71,67,-630,685,-1277
-87,19,-10,-2591,982,-818
-127,-51,-63,-692,158,-275
111,-76,-91,921,18,33
-127,-29,121,-293,139,0
-94,-5,91,-2152,269,-415
-65,-29,94,-1310,417,60
-60,-42,90,203,289,-128
-66,-29,75,628,-87,-355
-69,-10,62,-320,-289,-191
-67,-19,52,-804,-46,-6
-47,-22,50,-664,-87,261
-38,12,66,-775,-517,591
-31,74,79,-1232,-283,543
-24,97,92,-1352,-192,49
-14,80,111,-414,-356,-48
16,66,98,131,-278,-161
18,60,82,-319,-62,-355
-10,46,81,-669,-279,-162
84,4,-16,1100,3807,-3138
-43,83,15,-1006,3122,-3121
106,49,0,-932,3236,-2639
-28,-7,8,455,3658,-2069
63,80,-13,-1058,2722,-2119
40,-28,-96,-857,3522,-1978
84,-38,93,63,2142,-1360
32,17,10,-2035,1886,-1432
-39,9,-86,2484,1668,-336
-86,9,69,857,1144,-274
89,-45,0,-1170,-1413,-699
50,-85,-62,-136,-1888,1042
93,39,116,-674,-1978,1073
-119,124,-78,-1627,-2298,1108
-61,119,-36,-591,-2521,1029
-5,-75,-13,-1363,-3138,937
82,84,-19,-161,-2951,986
87,-11,28,-874,-3550,536
114,-49,91,278,-3810,894
119,15,100,2543,-2558,1382
116,125,18,-367,-3106,2266
113,-86,105,-932,-3030,1649
-108,-89,-67,1088,-3068,2960
117,67,-13,886,-2746,1883
-128,89,11,1146,-2308,2553
79,61,8,-299,-2121,1832
18,28,40,410,-1741,1830
19,30,-14,-235,-1419,1667
-4,-13,-69,-580,-1399,896
-47,114,-125,-284,-1136,1514
-99,-106,71,-1845,-1751,1453
123,81,121,-1155,-1290,1718
-60,-113,101,-121,-1173,2043
-60,-86,92,1619,-1582,1131
-76,-117,56,2728,-367,-386
-68,125,-50,-417,860,-1131
-102,-41,-123,253,-27,-473
-91,-18,99,-20,-194,-383
-86,-35,96,-319,7,-390
-53,-40,86,-210,14,-156
-37,-34,88,-417,-240,-276
-24,-43,94,-411,-162,-164
-21,-37,91,-865,-10,-258
-28,-28,91,-1029,-108,15
-27,-11,91,-607,-167,324
-13,12,74,-424,-29,300
-4,39,64,-644,-86,205
-14,54,47,-697,-129,208
-24,73,49,-957,-293,232
1,35,75,-132,-91,276
49,15,-19,1169,3932,-2906
-53,-36,13,832,4374,-3508
-55,-45,37,-200,4843,-3211
25,-73,43,181,3542,-2815
88,49,-8,-2284,3657,-2151
-37,28,55,-1538,3144,-1470
-105,-34,-78,-2790,3585,-1188
-21,49,15,1251,4733,-604
89,15,47,448,3682,-1852
-128,11,-49,-2043,1602,-859
64,3,97,1327,2059,-545
-58,-88,93,3442,1492,-650
79,-60,25,-2404,-661,-1125
59,55,2,-1062,-2556,1046
110,-42,-95,-766,-2373,1418
-88,111,-10,-1842,-2340,890
-31,57,-7,-244,-2823,954
14,-108,-39,-1611,-3130,679
51,43,30,-673,-3648,612
108,-113,126,-1884,-2913,978
-106,24,92,1451,-2112,1216
-89,18,62,-1491,-4549,682
28,-120,38,1888,-3045,1401
-42,10,82,697,-4735,820
-73,-28,-11,198,-3877,882
126,44,-11,2856,-3085,1755
96,-26,27,-215,-3436,1919
97,-5,61,-648,-3516,1538
29,-107,100,522,-1935,1687
-74,113,126,939,-1767,1666
-58,-109,53,1211,-553,1670
-121,-59,-118,243,-1272,1034
-107,-103,101,-367,-1272,1053
-119,100,32,240,-851,883
-107,73,11,801,-718,571
-110,86,-28,393,-261,128
-112,12,-7,1343,189,221
-107,-52,4,1734,394,-71
-103,-27,-35,-562,161,2
-106,-126,-56,1300,-498,452
-95,-103,-90,1421,-646,246
-68,-77,-117,640,-196,27
-65,-87,126,-138,212,-206
-66,-104,114,-356,145,-164
-57,-125,101,-166,-40,10
-40,-123,93,-151,-74,34
-31,-114,88,-309,-130,29
-18,-124,87,-44,-159,6
-23,-123,86,-66,-302,37
-19,-116,94,-236,-220,147
-21,-11,-112,-2091,3652,-2493
99,-2,-113,858,3481,-2002
-30,-96,116,-1749,3500,-2186
27,-121,-67,-247,3183,-1923
8,-82,-53,28,3726,-2428
-50,-103,-31,-765,4056,-2446
85,51,-39,-335,2795,-1796
25,20,-73,248,3757,-1733
-109,-99,-25,-1590,2310,-1772
106,97,-40,127,3026,-1834
39,105,-65,363,3580,-1924
-81,-12,26,28,3109,-2590
106,-47,-64,-1646,2598,-1826
-71,-34,42,695,1733,-1512
-122,31,126,3281,673,-1057
10,-18,71,103,-1115,96
0,73,-29,-2594,-1931,1178
57,-82,-96,-728,-2040,1375
71,56,-30,-651,-1855,1358
-92,92,-46,-15,-2516,1863
-11,89,114,365,-1933,860
75,-128,100,47,-3273,1580
-15,-126,122,576,-3183,2231
21,-66,-2,-15,-3658,2425
76,-119,10,3054,-2057,2870
74,63,-22,-920,-3753,2339
-44,104,75,-3659,-5711,1918
30,-69,-11,1026,-3380,2014
-84,111,31,-1007,-3417,1517
-67,-59,63,61,-3901,2210
-51,-45,127,-528,-2484,2073
59,-91,-91,-218,-3538,1741
103,62,-90,293,-1941,1649
-61,65,27,-267,-1852,1344
-88,-21,-1,1969,-1193,-124
-122,99,-75,-1001,-173,-380
-123,-89,94,519,343,-583
-118,-83,14,278,427,-304
118,-120,-47,-570,-48,-632
-123,66,-28,-6366,364,2809
94,105,113,183,-417,1117
-103,3,97,3811,-459,-806
-94,61,61,1093,136,-1324
-41,80,72,-198,631,822
-90,5,90,1904,-504,489
-91,49,75,87,-555,-1
-51,35,89,-837,171,337
-49,-17,81,-522,239,-61
-45,-44,79,287,-139,70
-32,-37,64,465,-127,186
-108,55,16,-1958,5174,-1141
101,-38,15,813,4044,-749
12,119,52,3219,3854,-1235
-89,71,67,-866,4151,-2083
69,-102,62,1060,3893,-1307
-47,-91,98,1595,3681,-1678
90,109,87,-1961,2799,-1595
98,-34,92,133,3100,-875
-92,-26,-12,1317,1968,-1255
89,-62,-126,153,2699,-1453
11,117,55,-396,2272,-1861
-54,-34,-69,1858,2353,-625
119,106,126,1290,815,-558
24,-84,22,-3147,-1294,124
28,96,-16,-932,-2244,1225
92,-24,-93,-959,-2415,930
-67,67,-8,-422,-2355,930
-27,68,-4,399,-2895,1275
52,112,-35,679,-3160,949
38,-4,44,-2108,-3350,1271
89,-93,89,102,-2732,424
45,102,89,542,-2757,1017
116,-108,45,-491,-2695,1069
-13,97,-47,556,-3114,1632
95,44,10,3558,-3410,2086
-12,3,79,-732,-5789,2126
60,-28,22,-1822,-3116,1523
-49,-128,75,839,-4402,2327
-19,-52,112,-1038,-2071,2135
122,-51,-116,-1153,-3074,2675
8,35,-68,-2963,-3284,1675
0,-25,-38,1116,-2993,1605
-31,-74,5,11428,-1384,48
-115,-94,-99,-199,1083,-1554
-104,120,21,-1353,450,-1396
-115,-81,-89,1033,420,-322
-122,-69,-107,1078,437,101
-106,-41,-122,-304,304,57
-96,-49,98,-687,311,168
-91,-58,91,-437,80,45
-67,-61,89,-184,-3,-100
-47,-65,77,-181,-63,-310
-52,-86,80,61,-394,-268
-55,-85,89,-243,-427,-188
-56,-94,99,-298,-345,55
-60,-87,127,-525,-633,129
-29,-98,-25,1347,70,624
-21,-80,-29,2069,185,468
-20,-29,91,-348,-458,462
-2,-29,66,-1508,294,161
85,35,27,1489,4152,-3607
57,2,76,1941,3266,-3324
-59,93,96,-1089,2562,-2457
-60,95,24,38,3563,-2942
83,15,-112,771,3478,-2900
-38,-57,45,-7,2147,-2897
84,30,68,-1698,2020,-3258
-90,-13,-41,1380,2081,-2090
-103,123,32,4053,2398,-2256
51,-103,108,-30,1514,-2889
-10,62,-90,875,1532,-1752
90,-95,18,1097,-630,-420
0,111,40,-797,-1592,473
4,2,0,-1559,-1183,1550
2,-106,114,-1455,-1050,2059
63,-113,-47,-2158,-1756,1655
115,-112,-102,-752,-1981,1335
-94,99,81,-214,-1846,1177
-41,-97,85,-1785,-2788,1419
42,121,95,-1567,-3301,1645
109,114,-109,613,-3171,1226
96,-11,-28,427,-3976,1168
-97,-63,-42,-560,-2970,1091
121,-55,-127,29,-4156,1052
124,-83,15,-478,-3198,2268
109,78,84,-4167,-5321,1007
118,16,11,144,-5351,842
-82,-119,116,-1680,-2459,156
-77,83,-128,2491,-2809,889
-110,-94,48,1571,-2585,1269
37,-96,36,169,-3791,1406
69,-109,96,619,-3658,2235
75,66,87,-1434,-4959,2421
-110,-46,63,13570,2103,-325
42,72,59,1617,321,-3571
-126,-52,-15,-3064,-177,-115
101,25,-77,-2310,375,-346
78,-78,-112,911,857,293
-121,-60,99,2023,1022,65
-85,-38,73,1285,419,-234
-55,-57,77,783,-106,-370
-46,-123,89,988,-387,-523
-51,-107,91,-630,-186,-664
-56,-87,86,-2283,-117,-535
-73,-110,86,-1983,-384,-53
-67,-76,92,-1654,-369,335
-61,-44,91,-636,-748,699
-47,4,123,-279,-928,215
-45,-7,-61,949,-1127,455
-14,-89,0,3594,518,245
