AccX,AccY,AccZ,GyroX,GyroY,GyroZ
-35,-99,-8,-1471,4776,-1879
-13,-74,-17,-1798,4931,-1560
-117,-65,-20,-1761,4434,-1440
30,-34,6,-2203,4277,-1099
120,-27,63,-2242,3901,-892
39,-31,97,-2368,3829,-516
-46,-105,-93,-1482,3763,-612
121,-75,-72,-2263,3927,-445
48,-119,-68,-2102,3661,-272
3,120,-66,-1909,4055,1
127,-96,47,-2879,3909,-53
23,15,114,-1297,3910,-1121
6,101,31,-91,1940,-1566
-93,64,-69,-1013,282,-413
-113,-40,36,-60,-1586,-628
37,66,-61,814,-2104,-56
-67,-108,95,829,-2277,-669
-126,-65,-70,1594,-2534,-638
-67,-55,-121,2336,-2450,-212
120,126,-115,1041,-3587,333
-35,-111,-69,-215,-4762,510
88,31,109,1731,-3748,70
-46,-123,-14,-200,-5267,813
-18,72,-94,828,-4516,408
35,66,-121,1868,-4626,656
70,120,26,7,-3866,643
-17,11,-124,260,-3951,782
98,-109,13,1749,-1327,-62
-8,-1,-98,-394,-2163,110
-121,-18,-34,3095,344,-1019
-83,9,-97,-971,-436,350
-85,112,107,-314,-188,-99
-79,79,80,-294,392,-132
-75,53,19,-90,802,-453
-65,34,-47,-247,825,-652
-43,-3,-120,-173,921,-753
-58,-19,102,-436,935,-782
-27,-7,63,-949,654,-404
-10,-24,50,-839,330,-330
0,-25,45,-709,405,-271
46,-13,64,-457,325,-136
33,-22,65,-132,438,-502
84,-1,69,-234,509,-478
83,-2,49,-278,598,-700
69,20,62,-851,403,-487
81,8,60,-664,172,-226
66,34,61,-713,497,-401
96,28,31,-384,548,-471
-98,56,0,-282,57,-198
-110,87,23,-840,-109,-248
39,-16,-85,-1627,4659,-1817
-49,-98,38,-338,5691,-2418
-25,-62,-66,-1318,5561,-2456
-127,-48,-94,-1459,5067,-1908
-7,-10,-122,-1926,5152,-2022
25,95,-79,-3637,4563,-1214
94,13,-53,-2683,4311,-828
-78,43,38,-3426,3774,-347
10,-62,44,-2125,3850,-265
-98,-39,-124,-2875,3262,460
104,-117,58,-1132,3823,152
-22,-84,-40,-2052,3565,-904
-94,-41,-43,530,4120,-2092
-128,34,75,-240,934,-1551
54,-100,-60,94,-929,-1222
-118,122,-13,482,-2906,107
121,0,31,1066,-3054,533
82,-109,-126,1869,-2552,120
10,24,68,2688,-2108,297
-115,-34,66,1212,-3965,1047
117,5,113,407,-4132,942
-77,109,79,2712,-4023,396
-23,-3,101,389,-4877,1457
-103,-80,104,539,-4410,1490
102,101,-102,1396,-5281,1645
109,-64,-21,-1064,-3931,817
126,-100,-52,2361,-1739,994
35,75,32,-730,-1818,603
-57,-51,80,-415,-999,513
52,-127,-93,1119,266,-565
-30,-86,94,351,-243,92
-88,125,20,350,-153,-89
-87,117,14,-279,-9,-271
-84,68,-63,-192,516,-745
-63,46,-102,-469,661,-915
-38,14,106,-167,866,-893
-32,-5,64,-212,849,-964
-30,-1,67,-571,576,-766
18,-6,71,-886,574,-609
20,-23,57,-537,595,-790
52,-15,50,-583,647,-628
55,1,45,-663,563,-462
55,6,30,-692,591,-514
77,21,25,-789,440,-335
77,32,23,-676,219,-204
92,71,43,-1040,115,-62
101,82,58,-912,-65,38
114,86,61,-627,246,-206
-126,103,56,-561,608,-420
-127,106,40,-459,515,-567
35,-13,12,-1445,4927,-2026
119,13,-76,-1618,5500,-2163
93,69,-76,-2193,5077,-1877
31,48,-35,-1885,5044,-1772
-68,60,19,-1796,5189,-1761
22,92,58,-2784,4540,-1428
-88,38,53,-2563,4967,-1169
-52,23,108,-2710,4155,-858
123,-26,43,-2362,4894,-831
-67,-51,85,-2464,3756,-732
-83,13,116,430,5129,-1162
-80,-105,-9,861,4262,-3064
93,-44,4,-1337,621,-1353
23,-40,68,-434,-1920,-502
-118,93,46,-289,-2753,1072
92,32,41,611,-2948,803
21,-84,-101,490,-2560,129
-51,-38,-123,2100,-2093,202
27,77,86,1917,-2841,711
-23,-28,111,444,-3739,1079
70,-89,-123,675,-4296,1212
-98,-127,-81,1495,-4355,1002
69,-62,-75,1587,-4145,1551
70,20,-14,-469,-4307,2114
53,-88,-33,1021,-4632,1361
75,119,4,583,-2463,822
-127,0,123,1276,-3337,1259
-14,-45,-108,1466,-730,973
-100,96,-55,-1567,-2071,990
105,-125,77,1094,-288,-178
-15,-78,73,-428,-380,-72
-64,120,34,-159,-239,-108
-80,79,14,-7,-179,-348
-58,75,-38,-561,590,-368
-23,38,-67,-345,1263,-561
-36,9,119,15,1146,-1029
-4,18,91,-658,1220,-1091
26,18,50,-1085,1213,-1021
41,-41,15,12,777,-1207
25,-75,7,1003,427,-1374
57,36,33,-1837,853,-622
61,-5,-15,-1185,568,-209
65,-13,-16,-536,158,-325
75,34,6,-627,-80,-243
86,23,13,-391,-5,-312
107,95,38,-1538,176,123
114,62,27,-592,46,-105
124,89,37,-524,58,-240
127,115,50,-875,196,-232
-127,115,46,-704,321,-328
9,125,-11,-1580,4582,-2727
-41,107,3,-2069,4645,-2642
106,112,10,-2490,4394,-2261
20,85,23,-2641,4620,-2175
111,50,67,-2925,4543,-1753
18,13,124,-2789,4534,-1103
108,-24,103,-2749,4250,-1162
-32,-78,117,-2729,4203,-377
-101,-73,40,-2468,4348,-123
70,-88,-52,-2176,4328,-371
-52,124,-40,-1526,4292,-626
90,115,91,1844,3743,-2374
78,45,57,-241,-443,-672
115,-63,-43,-884,-2289,59
9,29,41,-390,-2720,953
-40,-98,60,58,-3399,564
-127,-57,110,568,-3232,254
2,-8,123,1518,-3498,184
-99,118,104,759,-4080,601
39,-69,-41,4,-4858,535
100,105,-76,1735,-4213,253
-24,-97,14,-169,-4768,949
13,38,-43,2121,-4558,915
50,-81,96,-310,-4291,1357
-12,-125,23,-267,-3281,618
-3,3,-68,1117,-2709,956
-37,60,10,783,-1509,107
-44,38,108,454,-1368,262
52,-94,-116,1359,250,-508
-57,-17,57,-289,-794,307
-11,43,46,2096,537,-257
-38,126,12,-323,250,-61
-22,36,-16,487,-106,-245
18,30,-34,-426,674,-271
19,37,-83,-1291,852,-144
25,-20,126,-224,888,-551
32,0,67,-455,1010,-824
38,-5,42,-486,740,-914
36,-9,46,-412,328,-633
62,19,59,-934,328,-231
66,15,63,-827,132,-353
93,28,67,-777,273,-316
107,49,79,-961,203,-341
110,54,88,-929,158,-294
119,78,101,-1060,178,-244
123,93,96,-984,280,-256
124,105,92,-844,327,-424
-128,-125,82,-919,332,-474
-119,-103,93,-1362,359,-388
-112,-118,88,-813,525,-527
-126,-40,-11,-1189,4767,-2327
-117,-49,-31,-1222,5169,-2249
17,-19,-57,-1910,4959,-2279
122,-15,-28,-2529,4835,-1805
-42,-14,37,-3314,4456,-1213
59,-76,76,-2658,4616,-741
-51,-120,79,-1847,4437,-847
-33,-123,100,-2225,3572,-254
124,70,67,-1651,3326,-94
-3,76,46,-1729,2883,304
-33,-58,71,1074,4028,-992
33,27,-70,-280,2954,-1628
62,-114,-83,-590,-668,-1014
-119,69,-90,-806,-2424,-362
76,48,47,201,-3127,-71
14,-98,-82,398,-2452,-328
-122,-23,-50,1097,-2561,-736
-15,97,-96,973,-2746,-619
98,-120,-87,746,-3864,-308
-108,-121,-45,713,-4164,-69
47,80,-48,1828,-4127,-104
-106,-110,-119,1737,-3669,203
-119,-100,-56,1905,-5465,1642
65,-59,-72,730,-4495,1136
76,104,-98,1592,-4452,1505
-82,-119,-112,381,-1121,461
5,57,99,-225,-1239,434
71,-121,20,1199,-889,65
-2,116,-102,766,190,142
-32,-103,78,-134,-498,384
-43,117,33,-435,-242,110
-26,66,-2,-152,566,-532
-30,37,-64,-18,855,-788
-41,30,-103,-372,648,-723
-36,19,115,-673,779,-750
-1,-3,85,-544,637,-649
13,3,83,-697,481,-442
20,15,80,-791,350,-401
41,17,86,-800,422,-371
44,29,89,-865,462,-398
53,21,76,-511,474,-529
85,39,71,-643,521,-455
88,48,60,-749,424,-420
90,47,66,-532,243,-357
101,45,75,-311,375,-381
110,61,70,-469,413,-297
116,79,67,-592,176,-188
-126,76,65,-408,259,-271
-107,93,66,-498,269,-301
-122,96,55,-436,286,-502
-81,1,-42,-1610,5420,-2474
-126,-15,-92,-1725,4638,-2239
19,-54,-109,-1658,4880,-2149
-104,-10,-54,-2523,4542,-1557
-60,-47,-48,-2469,4459,-1219
81,-61,14,-2487,4669,-397
-43,-52,-7,-2208,4200,-298
-127,-35,-41,-1917,4392,-255
10,-42,-106,-1576,4388,-525
-122,-79,-2,-990,4496,-1212
-32,96,-17,1418,3488,-3510
45,78,120,-2371,-657,-131
102,50,39,13,-2181,-618
-43,-25,-52,-342,-2974,705
-55,75,-122,509,-2729,142
118,-55,-75,1326,-2209,-473
-30,48,-113,907,-2814,143
99,114,89,945,-3370,180
-38,-116,-82,892,-4205,719
91,92,126,1684,-3726,398
-69,-98,-103,262,-3780,1090
-60,72,-77,1465,-4886,1479
94,-114,-123,814,-3868,1016
83,103,34,7,-3064,1670
-85,115,-13,162,-3611,636
-70,-25,98,1471,-1008,499
-126,25,18,-678,-1075,436
114,98,-49,1452,-159,205
2,-118,85,1057,167,-216
-33,-111,0,-187,384,-62
-27,94,-30,-427,-24,-155
-32,37,-82,44,133,-442
-14,24,-113,143,639,-537
-17,7,121,11,619,-692
2,-11,94,-161,597,-776
23,-24,86,-404,571,-887
40,-52,73,-483,730,-945
52,-52,68,-717,712,-721
45,-59,59,-445,446,-483
61,-35,61,-641,261,-158
79,-26,62,-465,121,-113
109,-12,64,-339,209,-226
-125,17,66,-792,438,-250
-124,4,47,-351,544,-475
-120,19,40,-440,546,-468
-115,34,36,-620,429,-339
-113,34,24,-403,329,-413
-105,57,32,-738,209,-320
-94,77,44,-1063,241,-234
-82,72,47,-723,208,-358
-52,-32,65,-1883,5142,-1744
-113,-10,-9,-1656,5921,-2178
111,73,10,-2738,5812,-1896
-54,39,63,-2386,5732,-1778
-37,62,-125,-3492,4990,-852
26,29,-121,-2974,4563,-604
36,-1,-118,-3242,4373,-49
125,-107,73,-1680,4154,-111
-73,-127,79,-2575,3569,166
9,62,-103,-2303,3410,29
105,-39,-72,-1422,1907,-521
89,-5,-5,-253,1451,-1156
84,-72,-15,-58,-2320,-592
-23,-4,-59,22,-3334,117
14,104,-45,1227,-3116,-508
-50,-52,-34,1898,-2297,-1057
106,93,-84,2135,-3229,-542
44,-44,-104,806,-4145,105
-16,-121,-94,1781,-4114,-116
54,-80,-49,1763,-5036,780
-40,-14,116,732,-4396,629
21,-115,4,281,-3618,977
-127,75,-22,899,-4867,489
-124,64,85,-367,-2823,1011
-35,-66,-105,1298,-1925,212
52,-16,89,212,7,-104
11,-66,-66,353,-1157,301
10,-108,123,16,-109,317
-49,89,20,434,-159,63
-34,72,-38,280,20,-158
-9,72,-60,-318,-31,39
8,36,-87,-89,120,-230
-1,39,-105,-376,519,-671
5,11,106,-352,716,-1050
46,-17,53,-284,1035,-953
23,0,72,-737,393,-561
37,-12,62,-677,549,-554
58,-4,52,-688,495,-536
82,8,48,-743,262,-398
89,35,63,-1025,371,-405
93,36,54,-949,540,-530
104,60,48,-1022,355,-404
119,68,49,-872,289,-293
-124,110,61,-1344,413,-187
-113,88,46,-437,501,-487
-104,-120,53,-1009,465,-422
-105,-124,51,-840,369,-431
-96,-121,59,-679,430,-467
-92,-116,59,-619,411,-509
-93,-100,74,-880,318,-367
-48,72,22,-1589,4255,-2261
16,40,19,-1535,4559,-2373
17,54,13,-2080,4720,-2125
38,80,-112,-2427,4880,-1236
-46,75,39,-2553,5042,-2178
73,49,106,-3070,5089,-1262
103,1,59,-2888,4649,-1375
-33,15,42,-3591,4650,-776
-11,-80,19,-2476,4071,-560
-128,-116,13,-2444,3851,-382
3,1,-50,-300,3725,-495
-108,-55,113,670,4118,-1242
-39,-98,-2,-1058,1585,-1729
90,-80,75,-231,-1155,-1229
-95,-65,118,-77,-2718,-187
-110,29,-102,691,-3382,408
-94,-33,-120,939,-3589,92
99,53,-94,1686,-3753,112
15,-87,-58,1403,-4504,397
-91,-44,-18,1337,-4849,564
20,-96,-76,2295,-3833,352
112,-4,46,2089,-6393,1961
53,42,98,507,-5854,1175
-62,-33,-73,-767,-5086,1362
-75,34,-96,122,-3410,493
69,-94,-30,3080,-1159,795
105,-115,94,-581,-1588,413
82,63,71,-2162,-561,572
-58,117,-66,473,-179,-736
-27,-64,-73,-1138,193,-219
-103,82,69,675,156,-906
-117,61,-37,894,572,-1420
-55,104,-103,-471,1343,-835
-37,109,113,-2008,1271,-648
-35,54,91,-1345,737,-694
-42,33,70,-786,444,-701
-17,46,58,-1176,713,-367
-12,15,51,-440,341,-397
7,4,82,254,76,-289
26,89,125,-582,183,-130
33,84,111,-537,384,-192
39,87,86,-418,508,-406
57,97,76,-414,294,-331
69,97,81,-497,310,-379
70,99,82,-602,431,-497
73,91,88,-565,402,-478
76,103,76,-785,532,-536
101,91,64,-528,293,-505
97,118,74,-955,178,-332
114,118,78,-907,352,-432
-52,110,-89,-3888,6273,-2143
-72,107,-61,-2209,7350,-3131
-83,106,77,-5541,9213,-2495
46,-44,-57,-2538,6426,-1837
108,-50,33,-1840,6136,-2321
10,0,-11,-2638,4005,-1907
-98,-83,-127,-2034,3500,-1214
5,78,70,2527,3684,-2574
-82,35,-78,-1564,-920,-701
-81,-78,127,-721,-2800,347
50,-123,23,224,-3058,1078
27,-121,52,765,-3143,653
-65,26,80,741,-3299,1016
70,61,-4,2019,-3814,988
39,25,37,367,-5180,1630
-24,32,59,263,-5513,1091
-59,58,-65,744,-6813,1098
67,-26,-95,1373,-5718,830
-97,-70,-112,390,-4983,966
41,-98,-8,-893,-3719,904
34,-39,-58,1513,-2258,-479
24,-9,-37,1199,-942,314
56,-33,-26,1638,-356,-365
-46,-28,-77,1791,-735,-316
-67,53,117,-1513,170,232
-72,-52,102,-1510,361,-151
-39,-121,12,-1208,886,-853
-44,64,-79,-70,1445,-1365
-44,119,-113,-1315,1328,-891
-78,2,70,20,801,-878
-55,-31,50,1462,651,-1100
-13,111,66,-1422,557,-342
5,16,51,-181,312,-535
7,42,57,-616,498,-611
13,27,61,-310,187,-728
28,42,76,-706,221,-391
35,77,92,-1201,149,-17
42,55,83,-595,223,-192
67,86,78,-644,371,-183
74,101,63,-608,389,-267
66,116,57,-461,33,-361
93,-101,68,-1393,295,-384
101,116,53,-593,413,-510
97,-104,69,-1002,384,-518
106,-108,64,-952,603,-639
121,-114,55,-780,632,-687
126,-103,51,-757,486,-633
124,-100,48,-784,524,-675
-122,-85,55,-958,487,-531
-120,-102,49,-489,398,-581
3,103,42,-1842,4221,-1985
71,106,78,-1849,5457,-2225
42,-65,94,-2798,5233,-1973
-84,-57,63,-3155,5825,-2131
37,-93,51,-3472,5752,-1604
108,-123,9,-3310,5578,-1471
-79,95,-32,-3027,5435,-1451
0,82,-32,-3929,4133,-1196
125,67,34,-1197,4869,-991
-54,-62,-86,615,3654,-1736
21,41,-120,321,1482,-1496
34,19,114,-206,-2699,-676
-48,62,-121,151,-4018,1231
37,100,81,954,-3950,979
-60,-9,93,1697,-3447,711
118,-88,55,1125,-3995,795
84,53,-126,851,-5366,866
-76,10,-112,1356,-5012,199
47,-17,-98,1828,-5047,480
-124,-27,120,1230,-5555,1122
-25,-75,-74,1389,-5544,1444
63,-24,-14,213,-3775,577
-80,21,-29,2045,-2286,754
86,-94,118,-128,-1870,234
-84,-30,109,1618,260,-349
-15,8,-92,-414,520,-551
-62,-69,68,-470,-289,296
-67,107,-19,23,117,-283
-55,121,-36,-350,36,-344
-24,45,-115,144,773,-410
-61,63,-125,-1100,64,-221
-35,21,101,-559,298,-124
-34,43,83,-743,425,-360
-26,49,70,-638,445,-517
-1,26,72,-335,630,-546
19,55,63,-723,577,-311
24,53,52,-661,354,-493
45,59,50,-859,525,-527
54,48,40,-501,494,-571
55,70,46,-751,433,-505
70,65,43,-503,436,-558
75,66,50,-369,321,-586
100,102,52,-931,529,-334
99,86,45,-567,340,-554
117,94,50,-645,483,-492
108,105,48,-781,429,-461
118,105,47,-603,377,-341
127,124,49,-629,350,-328
-123,-122,42,-527,247,-401
-113,-109,46,-809,289,-343
-27,55,26,-2174,4634,-2075
40,31,-106,-1624,4452,-1696
82,72,-82,-2193,5485,-1928
115,-118,-4,-2812,5880,-1297
-27,103,104,-2840,6576,-1756
111,-126,-34,-2721,6605,-1166
118,81,99,-2409,5982,-1645
91,4,88,-3195,4893,-800
-66,57,-51,-1228,4285,-496
-46,-1,20,3283,4779,-2531
-122,33,31,-2875,-1641,-260
97,-12,-115,-53,-2929,12
95,50,39,-441,-4384,1121
93,-58,19,407,-3922,-183
121,81,-112,496,-4535,258
66,66,-17,2821,-4424,-171
1,4,-105,1137,-5731,701
16,23,71,598,-7596,1244
-39,51,42,-1304,-9155,818
-94,59,53,1043,-5691,827
-44,-45,17,1587,-5697,318
111,-86,-79,-1253,-2914,164
-86,90,24,4526,-180,-1681
-11,-62,32,-1422,-439,-209
-1,125,-42,963,-397,-2
-65,-81,78,623,-152,-150
-50,-53,4,-370,33,-52
-36,94,-55,673,958,-1132
-50,85,104,-492,1882,-1370
-84,7,105,-358,346,-977
-75,20,73,-732,308,-452
-61,8,62,-738,257,-454
-36,9,56,-146,250,-250
-25,26,48,-628,431,-416
6,12,46,-801,524,-656
0,8,35,-701,515,-688
1,18,36,-790,415,-430
6,29,45,-688,192,-367
32,52,42,-702,388,-430
44,86,36,-1000,262,-463
49,97,48,-1196,128,-321
64,113,50,-1209,176,-328
72,110,41,-809,502,-310
78,-108,38,-1065,319,-306
91,-121,11,-637,635,-455
94,-113,3,-412,385,-442
101,-114,-7,-220,406,-447
106,-107,14,-414,191,-308
98,-110,6,-408,425,-575
116,-122,30,-531,434,-444
100,7,78,-1251,5039,-2044
-49,69,-123,-2173,5558,-1777
-28,60,105,-2502,5893,-1877
-75,95,101,-2959,6338,-1163
-35,103,-3,-3387,6095,-1074
50,92,-42,-2769,5713,-850
-4,41,-93,-2514,5629,-1266
13,-38,-99,-2508,4693,-1077
-45,52,72,-1797,3615,-929
-125,-65,-102,-132,3072,-680
-52,-120,27,-715,1526,-919
56,-36,-117,-214,-801,-1150
-88,-18,-63,183,-2507,-42
91,50,9,1109,-2798,-199
43,-82,101,1543,-3005,222
-13,54,115,2055,-3175,216
-108,-75,62,1936,-3994,907
103,10,6,1524,-5680,958
74,24,-50,1327,-7058,1145
63,-92,82,4705,-7076,1021
80,-7,0,-1384,-6339,1554
-86,2,125,808,-4662,957
-40,98,-33,1063,-1995,-17
-42,-18,-42,2333,304,-97
22,-119,23,-1185,-705,256
-25,-89,-47,547,-159,61
-96,-123,50,535,594,-143
-73,-63,-2,-1038,-68,455
-42,-87,-46,-1054,-11,321
-12,91,-122,-365,871,-679
-58,103,99,-1005,734,-1021
-63,23,88,-642,474,-942
-59,30,79,-813,472,-592
-41,25,68,-459,299,-497
-13,49,60,-523,426,-506
-2,28,41,-61,421,-575
30,49,40,-27,68,-444
62,84,58,-631,256,-288
17,96,56,-960,474,-569
24,52,42,-672,484,-646
54,79,50,-795,331,-61
55,62,30,-284,435,-412
77,97,29,-586,528,-397
96,116,34,-1093,320,-179
101,91,21,-655,345,-424
108,117,41,-892,486,-394
107,112,34,-620,371,-437
-128,-120,34,-834,475,-334
-125,-120,23,-637,503,-468
-114,-119,18,-483,455,-514
41,-90,-43,-2038,5802,-2681
-95,-18,73,-2929,7551,-3047
-82,101,65,-1681,8365,-3614
109,-37,119,-3673,7510,-2381
113,-80,72,-3199,7129,-2088
-49,-113,98,-3230,5997,-1938
60,77,-37,-2905,5103,-1388
100,25,17,-2763,4933,-1395
93,108,8,-2020,4452,-1336
4,-16,72,-266,4404,-1190
57,-40,117,1574,3107,-2213
-86,123,36,-1981,-2339,-747
-14,-21,43,1114,-3421,58
-48,64,-111,65,-4737,1545
-37,-48,-19,2228,-4650,1095
100,-18,-56,2459,-5211,1555
52,99,82,1408,-6862,1885
126,-109,68,1401,-7784,1290
-41,125,56,2187,-7228,184
74,-106,63,780,-5747,1576
-93,-71,2,1921,-4270,363
104,36,24,-93,-2102,1029
-8,-3,-91,3528,604,-1343
17,70,100,-2246,-1072,981
-96,-60,-105,1734,709,-1190
-41,22,81,172,1359,-708
-87,-85,-127,559,536,-701
-99,-104,123,-744,754,-848
-58,95,99,-1976,319,-283
-14,-23,101,-650,-79,-97
-13,-36,100,-202,-281,-21
-31,19,43,-268,266,-341
-3,52,70,-725,384,-285
25,76,26,-710,463,34
22,52,35,-210,237,-252
15,31,26,393,367,-760
42,85,36,-607,472,-541
59,85,11,-806,633,-290
62,63,-4,-477,502,-587
64,100,2,-885,286,-378
73,107,24,-1128,162,-291
84,93,25,-673,412,-546
99,87,11,-296,675,-806
113,109,-4,-634,641,-660
107,123,-6,-846,289,-498
118,125,0,-917,225,-463
123,-113,24,-1162,344,-383
-124,122,24,-477,508,-654
-111,-122,22,-484,480,-534
-108,-88,21,-875,337,-318
61,50,77,-1800,4667,-2007
123,53,67,-1762,4877,-2388
-52,50,110,-2045,6558,-2149
37,-117,73,-3331,5462,-1697
-121,122,67,-3300,6096,-1112
-47,124,57,-2598,5223,-1289
64,-114,20,-3032,5585,-1242
43,36,-15,-2622,4852,-1584
111,-114,-74,-2572,4827,-1396
-25,-8,10,-556,3404,-438
-63,106,-10,1254,4176,-2252
-102,-65,-92,-396,-399,-1673
90,18,-79,-899,-3295,-510
62,-124,82,713,-3308,760
-24,-111,-98,756,-3677,832
-82,-16,-104,1597,-3656,472
-117,116,66,1880,-4153,904
51,-51,-48,1662,-5820,1136
61,15,63,1333,-6361,1009
-101,53,103,1100,-8965,795
-73,-24,79,1605,-8124,1683
-18,-43,-85,-292,-5246,930
-110,32,28,2681,-2268,-414
26,115,-1,2482,279,-949
24,47,81,1364,2224,-1736
110,17,100,-1286,956,-128
110,107,-47,214,388,-142
-15,-122,125,-693,241,443
24,83,95,279,-191,30
19,74,92,-53,87,-397
8,46,90,-647,581,-794
12,-34,86,223,565,-833
58,6,95,-480,243,-192
62,3,87,-325,256,-256
61,15,82,-382,343,-428
81,37,81,-591,211,-472
95,31,56,-421,404,-481
106,64,62,-1069,306,-308
93,39,57,-678,275,-447
108,32,80,-561,399,-449
121,53,78,-823,362,-355
-113,70,66,-946,372,-279
-122,74,47,-790,402,-406
-116,74,47,-653,480,-422
-116,87,45,-565,481,-485
-107,106,40,-683,366,-416
-97,109,36,-616,384,-459
-104,127,43,-827,218,-484
-108,116,65,-637,216,-470
-75,-126,81,-806,323,-441
49,96,-47,-2356,5075,-1582
73,-108,-125,-3931,5694,-1222
-128,76,-53,-2608,6205,-541
-40,103,124,-2881,6072,-741
34,112,-101,-3231,5095,-38
-103,107,-57,-3550,5321,52
12,92,-81,-2980,4877,521
-84,62,51,-1860,5445,-289
-76,4,-89,-1628,4745,-304
78,-106,-41,-735,4967,-886
-69,-84,20,304,4345,-1337
-25,-60,85,138,687,-636
-32,-53,51,-682,-3032,46
-109,48,18,612,-3465,417
54,-32,11,886,-3612,637
-19,113,101,1189,-4228,189
-64,-55,30,1638,-5403,549
-113,56,-22,1477,-6278,66
-54,28,127,3151,-7512,689
-119,94,-15,6050,-6399,788
87,-51,-115,-1905,-6924,2927
-112,-86,-106,2333,-5899,1060
64,50,-2,-619,-2440,406
65,-51,66,4168,343,-1395
62,-40,90,-579,175,210
-107,-2,-39,747,-91,-124
-105,-91,64,241,994,-368
-94,-78,-6,-1440,715,-265
-91,67,-83,-532,441,-496
-55,41,120,-903,746,-576
-62,13,84,-283,716,-622
-50,-2,65,-189,546,-680
-10,30,71,-1122,683,-185
-4,-13,38,-252,605,-524
13,8,27,-460,575,-532
19,13,26,-614,401,-329
20,11,27,-455,269,-312
39,22,35,-417,275,-327
60,41,39,-673,257,-230
79,43,43,-488,203,-268
84,50,31,-440,309,-412
87,60,23,-591,105,-370
97,90,39,-1158,150,-158
101,74,35,-714,318,-415
113,98,36,-851,277,-431
117,101,37,-894,433,-485
111,84,27,-329,405,-681
126,126,19,-863,485,-528
-123,124,8,-963,480,-502
-110,113,8,-661,340,-504
-43,81,77,-1731,4308,-2170
34,97,17,-1720,4410,-2465
-62,-111,12,-2378,5667,-2514
-84,-122,14,-2466,5824,-2289
76,-98,28,-3798,6001,-1718
-106,99,-17,-2914,6153,-1095
-60,-61,-56,-4191,5454,-780
89,121,88,-2058,5597,-1005
-29,-126,-127,-3968,5040,-1429
113,-118,26,-1054,4992,-961
3,39,90,-186,4788,-1509
45,-4,59,1451,3027,-2132
-102,104,29,-1572,-2347,-912
-45,9,-67,779,-3672,653
-82,42,53,737,-4446,1168
-126,-43,-43,1529,-4707,891
-49,121,-18,1975,-5554,1584
-59,-76,21,2903,-5983,1375
98,-83,107,1081,-7558,1954
98,119,-110,2326,-8592,733
120,-49,124,646,-5719,335
-96,35,-66,1386,-5224,676
89,21,55,279,-3253,481
72,0,55,3598,1538,-1452
-85,12,-52,-785,148,328
-96,-67,85,1366,1909,-1064
-106,61,-17,-2060,236,149
-93,114,-103,-163,117,-184
-53,91,98,-233,451,-196
-53,73,55,-114,355,-456
-56,54,23,-277,334,-533
-38,51,44,-706,186,-340
-14,-28,68,596,353,-547
14,52,61,-667,408,-216
23,34,45,-396,276,-404
29,42,13,-516,526,-612
27,51,8,-846,361,-336
10,36,-10,-592,167,-335
43,52,9,-586,209,-154
52,69,10,-748,360,-236
71,65,20,-387,380,-351
82,84,14,-636,507,-446
91,65,3,-412,621,-539
97,79,-11,-517,451,-430
108,86,0,-541,393,-368
124,52,-7,170,631,-702
127,123,-13,-937,434,-350
-120,91,-13,-656,379,-420
-110,96,-4,-541,399,-584
-96,114,8,-776,462,-500
42,57,28,-2314,5216,-2487
94,38,125,-2233,4882,-1850
70,76,115,-2946,5846,-1533
-13,-118,54,-3310,5965,-1404
32,90,13,-3118,6223,-1234
56,82,-33,-3124,5657,-772
107,25,-114,-2406,5359,-787
-98,-40,84,-2024,4826,-981
4,-122,-21,-2049,4377,-753
-64,110,-119,1432,3775,-1354
-32,-47,23,585,1254,-780
25,46,3,-1094,-2379,-464
-72,-110,90,-198,-3381,761
-122,69,-114,438,-3529,374
119,3,-11,1473,-3890,310
28,80,110,2353,-4578,328
7,-53,-33,2262,-5765,1078
100,72,95,-28,-6616,918
-119,114,-43,-1117,-8538,1320
-94,-119,2,2188,-6468,-539
-52,-72,65,2052,-4376,-538
118,10,20,357,-4279,720
102,-38,-15,4680,464,-1538
-111,120,-22,-2241,-1230,524
4,-72,43,1649,807,-1225
-103,28,93,-831,1179,-504
-87,-36,-21,-1378,157,-223
-93,80,-97,87,346,-881
-81,105,-119,-669,770,-550
-94,76,108,-656,358,-466
-68,40,89,-286,292,-449
-57,47,89,-436,341,-403
-50,56,80,-661,399,-347
-43,46,67,-462,367,-469
-36,39,54,-154,337,-559
-17,69,48,-571,366,-218
1,77,49,-928,408,-43
23,79,43,-677,464,-148
15,58,31,85,123,-592
34,86,41,-496,357,-470
31,75,36,-535,334,-410
34,50,31,175,266,-508
50,69,18,-128,350,-361
75,103,23,-776,107,-63
82,95,18,-817,448,-303
84,89,8,-682,535,-654
97,82,0,-661,598,-651
105,101,0,-1099,477,-385
105,87,-1,-629,342,-393
124,120,11,-972,501,-301
70,-71,-123,-2687,4741,-1936
-23,-112,106,-1843,5449,-2724
38,-92,81,-3262,6343,-2375
-68,112,16,-2448,6188,-2032
18,-97,28,-3410,6143,-1238
16,-61,24,-3517,5462,-978
-104,-91,11,-3090,5408,-603
-32,125,-72,-2659,5414,-954
42,42,69,-2071,5067,-879
102,-92,-97,-851,4401,-1194
-74,63,60,2970,3836,-2958
-108,-61,63,-1977,-745,-1201
94,-116,-34,-219,-2879,-180
31,105,-43,151,-3703,1383
60,-118,63,1695,-3610,905
112,127,89,2207,-4962,1424
-80,-54,-107,2515,-6002,1672
11,-126,-17,1507,-8717,2680
65,-50,-98,1164,-10348,1509
-122,-46,87,1476,-9378,1960
-86,65,23,2950,-5409,-100
93,-36,100,844,-2331,-954
-31,86,56,2792,2152,-2209
26,-112,-117,1256,2177,-1183
118,-128,-127,-1541,593,246
123,-51,119,-1167,314,114
-63,-111,20,-1443,627,1
-45,112,-20,-801,562,-199
-63,40,-12,824,261,-810
-17,95,12,-559,445,-368
24,68,27,-844,370,-181
50,36,23,-7,341,-270
30,60,19,-145,321,-545
47,87,1,-911,688,-402
44,70,0,-675,355,-413
63,64,-5,-223,284,-362
77,72,0,-5,485,-432
72,93,-4,-255,355,-356
89,101,12,-651,381,-246
97,84,12,-501,343,-423
125,89,17,-878,608,-248
-101,63,-1,-395,566,-219
-89,57,-13,113,510,-368
-107,102,-12,-711,607,-459
-115,65,-9,-497,527,-436
-75,79,24,-1036,567,-66
-77,56,15,-421,444,-268
-59,66,23,-392,568,-328
-46,88,29,-942,666,-346
-20,60,20,-328,531,-367
99,34,20,-2151,5647,-2418
89,38,14,-1876,5152,-2177
96,66,-11,-2467,6415,-2250
-40,103,7,-2766,5598,-1508
74,77,-17,-3079,6443,-1665
-125,69,-107,-2698,6035,-1408
13,48,88,-2058,5595,-1531
48,-36,-19,-2227,5096,-1490
-78,-99,-59,-2097,3954,-944
-102,-31,-27,549,4698,-1860
112,-40,125,303,1255,-1555
-61,18,15,-1565,-2692,-518
6,30,-21,-459,-4108,1384
17,33,-121,217,-4056,1221
35,56,31,820,-4204,635
-116,88,-45,1875,-4317,150
74,-92,110,2151,-5268,769
56,15,58,1299,-5925,1272
-76,-32,-99,1859,-6518,916
-96,-93,-30,1646,-4695,689
-48,-13,127,435,-5975,2336
119,-68,36,693,-4627,1209
-85,49,124,3190,-1508,324
-94,-27,36,-624,-1404,964
-89,-59,108,2000,569,-806
-104,0,-100,755,-20,-105
-106,-41,95,-512,395,-22
-89,-127,-21,-283,606,-223
-67,127,-66,-659,485,-417
-52,39,112,244,918,-1072
-39,18,92,-167,1102,-1355
-20,-10,61,-392,948,-1215
-24,-57,43,-206,612,-1164
0,-27,77,-1277,645,-661
10,-51,63,-1114,592,-428
31,-21,78,-1193,377,-66
86,-22,54,-431,789,-278
92,0,-2,324,526,-650
100,40,13,-326,-62,-377
87,120,117,-2153,-461,459
35,89,-90,-1137,-335,378
62,48,108,214,987,-493
-122,103,26,-43,858,-663
-116,119,3,-649,250,-471
-100,-118,41,-1936,540,-378
-102,57,42,-381,304,-809
-97,80,55,-507,472,-699
-98,114,65,-1059,396,-402
-91,124,61,-1156,275,-282
-81,-122,66,-944,80,-394
51,100,-83,-2063,4936,-2312
1,61,32,-54,4981,-3691
96,-38,-119,-3438,5812,-3568
-125,35,39,-1291,5017,-3274
-88,-61,85,-4737,5079,-1986
-45,109,-114,-4023,4531,-933
124,87,-23,-2457,4814,-622
-15,119,-101,-2586,5073,-1258
-102,36,-104,-1660,5083,-1564
109,69,-9,-1182,4881,-2035
11,-121,42,304,4152,-2626
49,114,-70,-640,2037,-2267
13,38,-124,-950,-999,228
24,-51,-18,-1491,-3098,1552
116,-5,-76,-202,-3691,1865
126,-70,40,435,-3354,752
78,11,25,1368,-3841,753
71,94,-125,1678,-4532,1165
36,-98,127,653,-5742,1875
74,-117,-112,1092,-6387,1760
-10,72,-47,1330,-5446,1347
94,-109,70,509,-6121,2753
-5,-79,53,-437,-4713,2248
87,-14,9,3455,-2804,229
98,85,-109,2333,-1310,756
-44,40,-107,1720,300,-219
31,-2,111,671,-358,571
-45,-60,63,-805,490,263
-22,-100,7,-844,442,-82
9,114,-79,-725,727,-949
24,29,121,225,1406,-1879
25,2,92,-503,1358,-1808
40,-61,50,-772,1269,-1429
43,-66,45,-1102,872,-931
58,-61,46,-1110,433,-577
86,-14,72,-1384,222,-157
102,-12,69,-805,150,-326
112,25,80,-450,89,-374
99,38,78,-193,-83,-564
125,93,105,-1522,437,-127
101,63,71,-717,310,-187
-127,110,90,-1138,292,-77
-120,110,84,-760,332,-377
-126,103,84,-289,254,-640
-111,123,91,-728,383,-503
-96,126,84,-832,382,-430
-108,-126,82,-702,222,-506
-112,-111,96,-998,402,-521
-94,-125,90,-645,482,-590
-90,-118,87,-498,289,-558
43,82,-64,-779,4636,-2840
-41,66,-103,-1066,4880,-3138
-73,-42,73,-1654,5984,-3465
-80,-122,-67,-878,5954,-3237
49,-71,106,-2695,6145,-2625
76,-121,-66,-2079,6021,-2244
122,-88,-64,-2169,5386,-1996
115,118,-125,-1754,5822,-2144
-110,93,-124,-1424,4939,-1764
-72,-52,36,664,4950,-2223
-74,34,126,1159,3819,-1693
-2,-114,-100,-1382,-90,-74
-78,36,-52,-994,-2255,-397
43,-24,102,-700,-3531,1391
47,-78,50,-503,-4152,861
-34,7,127,-130,-4299,219
121,-22,50,1192,-5350,368
94,7,-71,1646,-5484,860
-67,-104,72,183,-6831,2054
-70,66,117,2091,-6019,1304
84,-15,60,-1512,-7285,3054
-36,96,119,1141,-6360,2131
-121,-106,-23,1586,-2451,-211
56,26,55,421,-2252,144
-78,26,-48,2578,1039,-1234
-2,116,-20,53,-63,496
-40,35,-18,-1266,978,-239
-80,-117,-93,304,395,-1034
-66,99,104,-113,521,-760
-85,47,65,-88,444,-756
-108,20,66,-74,237,-846
-51,27,77,-988,835,-362
-48,-12,61,-268,453,-337
-24,-21,43,397,264,-325
14,29,36,-400,464,-231
10,24,30,-353,303,-363
13,-28,13,734,411,-623
11,41,10,-508,244,-253
40,15,3,-506,481,-315
60,0,0,-285,412,-590
62,27,18,-1202,575,-299
47,-13,9,-481,510,-416
68,29,13,-1005,556,-212
79,11,-8,-530,553,-400
101,32,-9,-910,516,-205
-115,77,6,-1487,429,7
-114,65,9,-1023,530,-262
-91,-101,51,-2748,642,120
-82,109,69,-1611,537,-189
-74,110,82,-693,498,-359
32,21,1,-65,5870,-3002
72,29,-36,-709,6471,-3194
2,-16,-113,718,5776,-3326
-115,1,-69,-4197,6232,-1732
-51,56,85,-197,6124,-2514
116,-23,108,-2655,6696,-1941
111,-121,-10,-162,5689,-1810
-69,118,-24,-1138,4677,-2044
-10,13,114,-1228,3962,-1843
85,-14,-38,2126,3164,-2921
116,-111,-76,-2696,287,-1523
-18,-99,9,-566,-2646,434
82,-53,-16,-1564,-3291,1078
67,-123,20,-149,-3390,685
-101,-36,33,-704,-4106,345
73,-74,2,286,-4866,765
7,-8,-22,360,-5416,753
-69,58,13,-297,-6004,1046
115,39,-94,-387,-4322,-273
-106,-50,100,3008,-3622,-584
-38,-96,-50,-1287,-5481,1543
-36,3,60,-829,-5513,1772
-41,-126,34,2328,-2778,-83
62,76,8,-962,-2670,1364
-7,-70,-42,2835,-701,-1068
-75,70,72,81,-864,-98
4,-99,-89,1321,105,-298
-50,-33,-96,-811,-4,455
-69,104,87,353,-111,151
-49,99,19,-792,696,-378
-44,13,-57,-112,706,-1003
-38,12,-81,-444,797,-816
-37,-7,-122,-648,820,-741
-38,-38,107,-498,725,-697
-17,-17,102,-971,615,-480
30,-30,108,-681,308,-425
39,0,121,-956,470,-433
36,-8,105,-446,569,-550
19,-3,86,-269,226,-548
43,32,105,-955,171,-207
60,20,98,-327,131,-348
88,71,113,-964,181,-360
88,55,110,-733,311,-456
90,64,118,-730,233,-459
90,79,118,-934,396,-392
94,84,114,-757,407,-456
108,106,100,-942,513,-517
103,95,92,-704,504,-502
105,117,93,-947,395,-407
122,126,92,-827,400,-445
-80,-56,-102,-727,5304,-3150
80,-95,112,-1254,6373,-2987
54,-114,54,-1378,5847,-2821
-56,-106,-11,-2139,6349,-2379
13,-44,7,-3405,5707,-1338
-123,-59,9,-2208,5786,-817
-58,-4,-35,-2398,5237,-822
111,-42,-101,-1002,5487,-1182
-69,-63,-121,-1504,5164,-1030
19,-15,109,1617,4779,-1129
32,-57,100,248,2524,-2080
80,-32,117,-1731,-533,-1380
-14,-106,113,-3703,-3059,493
-82,15,-23,-907,-4320,-90
-34,-82,74,753,-4028,106
56,-19,61,761,-4842,-365
-10,4,-49,1767,-5243,207
10,96,-120,749,-7144,875
-14,-119,48,90,-7208,1181
-23,59,34,785,-6608,552
41,70,-36,-618,-6244,1751
-25,-110,30,1062,-5089,1714
117,43,-48,3779,-2906,297
123,-40,77,-1551,-2852,728
56,33,-125,3226,270,-652
91,90,-1,-1019,-158,461
-53,-56,109,-153,-264,-209
-46,-92,23,-613,990,-702
-109,74,-103,-599,1071,-1023
-92,36,127,-319,896,-738
-100,11,74,-534,704,-814
-75,-31,50,-294,618,-691
-53,-39,66,-591,494,-490
-30,-70,84,111,429,-494
-23,12,89,-1017,549,-343
-13,-14,87,-660,584,-410
-19,-2,83,-501,313,-354
1,10,85,-547,413,-275
29,20,74,-616,436,-242
34,20,80,-435,158,-409
39,30,84,-620,462,-337
50,36,80,-573,322,-393
60,42,74,-476,270,-442
65,55,78,-556,329,-506
81,58,73,-660,540,-457
81,60,67,-712,385,-515
88,55,58,-715,415,-503
95,63,62,-817,361,-438
94,65,62,-685,333,-501
107,81,69,-861,422,-370
-102,63,-46,-402,6872,-3874
-87,-10,-111,206,6807,-3469
-94,30,22,-694,6656,-3223
-56,119,-75,-2477,6367,-2573
9,-126,-94,-2631,5848,-1591
66,-115,95,-2103,5521,-1363
-78,-56,3,-1903,5476,-1239
-46,-110,-58,-805,4807,-1799
-64,42,55,176,3901,-1393
79,112,-67,4052,3075,-2640
80,-10,58,-1710,228,-2052
-23,68,115,-780,-3346,260
-98,73,90,-671,-3912,1110
127,30,-77,77,-4547,1539
30,126,-109,454,-4178,1209
17,-30,99,915,-4545,1272
-34,48,27,628,-5781,2044
-53,126,105,129,-6155,1666
-121,68,121,1252,-5882,879
20,85,-61,-782,-5759,2552
-38,-103,51,1376,-5450,1701
-123,36,-84,603,-2547,796
-39,58,40,1126,-2334,836
-46,85,1,1153,203,-522
10,24,-29,867,-538,-399
-57,-105,76,1342,152,-299
-45,-43,61,-1337,-151,343
-54,74,-27,41,330,-707
-65,92,-43,-1348,625,-620
-91,-9,-116,-550,855,-828
-73,12,-121,-1214,796,-558
-72,-7,103,-1002,780,-712
-47,-2,101,-820,841,-799
-20,26,106,-953,478,-594
-24,23,99,-899,623,-577
-6,27,106,-746,549,-608
13,66,127,-824,321,-419
35,74,-120,-831,504,-578
36,69,124,-458,480,-715
50,82,114,-814,489,-600
52,84,104,-807,423,-531
49,97,106,-905,347,-473
58,110,109,-962,440,-418
66,109,108,-716,344,-462
75,-118,109,-899,439,-389
75,-105,107,-979,327,-368
88,-83,119,-1365,436,-262
90,-88,117,-943,426,-339
96,-88,115,-529,374,-424
123,-50,118,-810,487,-356
17,-2,82,-1211,4361,-3167
3,5,105,-1001,5160,-3645
-19,52,58,-2062,6510,-3773
-62,1,-29,-2342,6436,-3540
-4,-36,-117,-2716,7087,-3069
17,-11,77,-2821,6102,-2436
76,-28,16,-2699,6033,-2302
43,-103,-4,-2136,5218,-1837
95,34,-83,-793,4407,-1976
-55,-87,-7,853,4209,-1624
106,3,22,4309,829,-2351
11,-50,60,-4086,-2015,522
43,-74,-28,276,-3695,1567
20,87,92,-980,-4163,2214
-25,-91,-87,-27,-4849,1647
-10,0,-89,362,-5180,1344
-61,-54,-17,1602,-6144,1736
44,21,40,404,-6836,2481
103,78,127,-437,-8107,2688
-64,1,-51,-159,-6751,1486
-14,-43,-34,1800,-6154,2107
-100,64,-78,2197,-2540,970
96,-14,-113,-324,-2300,441
83,59,73,1450,562,-1133
64,86,-57,-546,277,-510
-19,-101,76,1144,887,-1076
-29,-33,9,-1622,882,-505
-11,27,-84,-242,968,-956
-13,5,111,-369,1224,-1051
-21,-51,35,-168,1435,-1110
-36,-23,41,-996,389,-511
-18,-47,56,-591,209,-36
9,-34,80,-306,168,-94
53,15,82,-629,281,40
77,27,113,-242,-1,-91
85,35,97,-364,466,-418
82,65,91,-774,529,-405
84,51,78,-619,460,-456
90,55,88,-665,420,-390
95,50,82,-522,404,-407
-117,72,83,-984,391,-221
-107,77,73,-833,466,-339
-120,81,70,-522,471,-587
-114,91,68,-753,575,-479
-100,97,73,-855,396,-353
-110,103,76,-705,297,-460
-94,-114,81,-1414,517,-305
-77,103,79,-544,516,-566
-84,-122,84,-778,445,-634
-85,122,87,-651,517,-589
-4,-127,-36,-1961,5615,-2921
-91,32,-55,-939,6637,-3621
-94,-72,54,-1183,7884,-4013
-69,-74,44,-510,7095,-4045
75,17,-31,-4378,6923,-3167
-123,123,119,-1960,5494,-2111
-78,-85,-86,-3033,5132,-1393
-50,40,64,-535,4381,-1375
105,-35,-16,-759,3464,-1647
87,-64,25,2161,3121,-1113
-27,12,59,1756,563,-1461
100,-34,-89,-2784,-2413,1240
49,60,6,-357,-2918,1598
6,-111,-14,-628,-3830,1421
-28,-108,25,-803,-4485,975
-65,-123,52,667,-5084,1157
-28,-60,-24,1207,-5408,1451
-78,75,42,-692,-6407,2233
61,86,77,-1391,-6543,1962
24,-82,86,2272,-6265,1571
-5,-6,110,-285,-4593,1788
-114,-35,62,1218,-3821,621
84,-43,-6,284,-1857,-283
-104,77,-105,775,-1090,-331
58,41,-54,-503,-517,-77
8,-48,-89,87,153,-179
-71,116,97,1525,173,-1338
-49,-62,18,-1309,955,-359
-112,70,-97,-805,641,-578
-119,49,117,-920,432,-151
-106,31,96,-508,548,-208
-98,39,68,-387,351,-229
-76,79,78,-1067,467,-198
-74,35,63,-360,557,-583
-47,62,71,-760,518,-331
-44,62,52,-686,462,-367
-44,50,47,-275,403,-470
-15,80,53,-911,427,-392
-13,75,57,-946,482,-365
-12,66,48,-570,496,-483
-1,88,43,-868,480,-396
4,92,34,-754,369,-394
30,104,42,-773,355,-375
39,119,47,-954,391,-415
46,107,51,-703,424,-537
42,102,43,-543,428,-580
54,122,43,-800,438,-414
62,114,43,-553,397,-435
68,124,45,-519,392,-476
74,-115,50,-734,406,-409
110,42,-103,-1564,5118,-2717
127,-89,89,-431,6100,-3265
-56,-123,-37,-527,6356,-3594
-51,-74,114,-2069,6835,-3366
36,-24,79,-3229,6279,-2524
6,-38,-53,-2543,6529,-2217
11,46,-1,-3394,5151,-1334
121,-24,-49,-1531,5266,-1545
-13,120,-105,-1167,4646,-1863
96,23,62,194,3450,-1718
-87,-12,118,3067,3089,-3319
-45,52,-108,-485,-864,-934
-66,81,5,-1807,-2732,798
-85,96,27,-994,-3786,2181
-97,114,-50,-99,-3851,1329
99,3,-10,349,-4245,1300
5,-21,97,2513,-4492,1289
-12,-37,45,610,-6047,2183
59,-48,80,-25,-6476,1682
-32,-47,87,-463,-6344,1005
-1,68,-72,2392,-3997,955
-89,30,-5,-430,-4596,1496
-35,-108,-41,1155,-3688,1261
-52,126,-103,264,-1293,273
1,39,-104,-273,-570,226
44,-54,-63,905,172,-691
-61,-59,97,-568,115,58
-69,115,20,206,359,-308
-85,90,-61,205,177,-538
-63,77,-91,-159,497,-587
-59,46,125,-265,438,-759
-62,26,86,-551,569,-655
-72,6,67,-381,333,-665
-51,13,51,-583,437,-341
-38,22,43,-711,330,-323
-40,13,39,-459,344,-483
-21,21,33,-504,390,-436
-5,33,33,-840,425,-369
1,26,19,-631,363,-447
22,38,26,-730,294,-316
30,42,28,-609,310,-448
46,56,24,-705,386,-504
57,62,31,-875,395,-459
76,56,18,-714,563,-479
65,63,17,-590,345,-501
79,73,14,-709,450,-364
88,84,18,-645,347,-256
98,88,13,-456,320,-325
111,126,34,-1008,389,-179
109,114,17,-656,455,-463
-45,-58,-9,-896,6544,-3075
-111,-43,-34,-1614,6259,-2867
-84,-107,16,-2291,7918,-2858
94,-68,-81,-2402,7841,-2188
7,-51,74,-2291,7037,-2101
-78,84,-64,-3615,5491,-717
22,-55,-92,-1651,5791,-1260
-74,-119,-101,-1405,4313,-1122
49,74,34,-1167,3640,-906
122,82,-101,1810,2533,-1610
94,28,113,-537,-1113,-691
73,-96,123,-1233,-3161,-103
93,18,99,171,-3789,1035
38,-80,-31,699,-3689,366
-35,-7,-75,1749,-4051,376
-16,86,16,2120,-4743,840
-62,-46,-36,337,-5732,1325
-45,-16,-125,-151,-6362,1122
55,124,4,1413,-5320,980
-47,116,44,1400,-4825,1582
-41,26,50,-1008,-4748,2203
97,125,-40,233,-3969,1150
96,2,-54,3036,-640,-104
-88,-6,13,-526,-1654,315
50,-45,-8,2097,-175,-660
-89,-18,104,664,208,-614
-49,-42,49,-655,320,-123
-58,98,-51,-96,624,-898
-38,78,-101,-450,869,-952
-44,47,98,-491,913,-957
-74,5,68,-397,532,-1053
-59,21,63,-1013,818,-797
-52,-18,34,-681,476,-766
-22,9,41,-985,474,-330
-26,13,23,-836,311,-402
11,43,32,-1006,232,-191
30,46,26,-799,296,-314
37,59,37,-884,283,-351
29,70,48,-941,233,-343
44,78,70,-789,205,-215
65,93,70,-806,579,-440
58,96,39,-736,601,-535
63,106,47,-832,396,-247
66,84,37,-124,271,-501
70,44,15,1190,489,-420
63,-57,43,-2056,56,327
124,116,36,-892,496,-185
-111,110,5,-156,524,-718
116,-102,22,-837,249,-479
80,-119,19,-692,464,-726
105,102,107,-1764,6061,-2616
-43,23,-3,-1519,6326,-2982
-100,-20,-55,-1551,6218,-2672
-35,-27,-47,-2292,6343,-2202
87,-28,114,-1824,6322,-1736
92,83,99,-2451,5145,-1646
-61,11,-65,-1526,6183,-2400
77,-81,-116,-1527,4446,-2020
-96,84,73,-1576,3871,-1576
49,94,80,1146,4446,-2315
-80,13,53,-1172,1082,-688
-118,-64,-63,-1773,-2712,497
47,-91,-97,-860,-3492,1408
27,-107,-52,-829,-3778,759
-94,-35,29,424,-3577,-70
87,53,14,1436,-4171,239
-1,-128,-109,1540,-4405,398
-71,-11,-44,228,-5620,1055
89,-39,27,487,-5515,962
-1,-105,89,1720,-5640,1844
-53,-73,-16,911,-4725,2244
-61,22,51,1105,-5343,2353
36,-52,-59,1314,-2186,1060
22,-61,-117,792,-1840,488
119,75,79,196,-928,115
28,-46,-17,556,-321,148
-69,-86,100,426,-214,251
-34,-78,40,-604,204,55
-24,117,-39,-72,252,-771
-20,61,-120,101,903,-1263
-29,37,101,-610,1329,-1223
-42,-44,56,-50,871,-1073
-37,-48,49,-375,567,-798
-7,-46,34,-582,481,-376
-19,-33,33,-519,247,-463
-3,-22,39,-505,381,-433
28,5,47,-706,250,-196
35,17,39,-563,-21,-148
51,68,58,-1166,-29,88
53,87,70,-1197,24,-250
46,82,62,-971,413,-662
62,74,52,-840,513,-604
81,72,36,-662,421,-473
119,98,40,-971,312,-208
-126,110,35,-734,499,-437
117,-126,41,-1001,535,-619
102,-95,44,-1679,565,-369
116,-122,36,-1002,633,-471
125,-87,43,-1185,436,-347
-111,-67,45,-1164,507,-383
-81,-65,-27,-1876,4012,-3018
15,-2,-28,-2598,5815,-3445
85,120,-111,-1826,5498,-3012
-12,-119,-127,-2623,6181,-2682
96,-73,-81,-2745,5282,-1693
-99,-41,-69,-2383,6294,-1896
-59,-55,-66,-1869,5780,-1991
22,-46,-103,-1593,5768,-2154
-91,118,-86,-842,4944,-2315
10,22,-127,-257,3924,-2044
42,32,102,1048,2716,-2542
50,-16,-66,693,-554,-578
59,-70,5,-1452,-1241,724
-105,58,26,-1218,-1878,1668
119,32,-107,-780,-3220,1817
103,-79,-34,-782,-2874,1019
-6,-84,-37,-30,-3522,949
-52,-27,-118,-28,-4074,1291
-85,12,90,132,-4504,1404
110,29,-79,440,-5308,1853
83,38,-35,-241,-5658,2232
53,-4,49,655,-5853,2778
76,-41,-125,1315,-3300,1801
-54,96,-61,451,-3740,2536
83,51,-121,1741,-1881,595
-108,-106,-96,-1557,-919,589
109,-93,-100,1574,686,-1219
0,-46,63,252,39,-442
-71,71,-50,1120,486,-922
-43,45,-98,448,661,-828
-18,5,95,-232,428,-777
-2,-54,101,-220,268,-696
16,-60,116,-785,610,-444
13,-103,92,-146,472,-656
33,-76,94,-448,411,-542
41,-59,84,-645,438,-456
51,-64,66,-306,445,-409
60,-32,66,-628,479,-308
54,-40,40,-177,426,-582
85,-16,50,-760,324,-348
104,-27,46,-532,316,-396
-120,-11,54,-665,189,-327
-124,7,63,-824,385,-477
-127,11,69,-605,480,-695
-119,32,74,-955,321,-384
-109,40,72,-916,311,-376
-95,68,75,-965,346,-417
-101,93,77,-1322,439,-434
-112,93,71,-1170,513,-559
-103,100,63,-982,404,-412
12,53,61,-1338,4822,-2721
115,-42,42,-1228,6082,-3918
85,87,108,71,6026,-4824
-49,-116,36,-2231,4836,-3941
-33,30,-15,-2429,5547,-3257
-85,-25,63,-1170,4190,-2175
3,-8,31,-1143,4126,-2361
121,75,42,-2744,4187,-1615
-66,-64,4,-1032,3751,-2229
25,102,32,-23,3322,-2633
-101,-34,-40,1987,3154,-3646
111,-31,53,-2503,704,-785
-106,106,-62,-898,-1961,1486
-10,-75,-30,-1197,-2692,1526
-1,71,97,-814,-2956,1244
-27,-74,121,-484,-3506,1255
-87,-42,53,-537,-4152,1159
-52,18,47,-484,-4992,1334
95,76,-47,-356,-5319,1387
-28,20,-32,1248,-5410,1224
-25,98,-87,1403,-4794,1989
5,-93,8,-337,-5794,2896
-62,50,-30,1393,-2466,1618
10,97,80,655,-2965,1516
-84,-85,-81,568,-1970,497
-63,-123,30,-18,880,-541
-61,49,-98,454,228,-855
-81,6,114,-630,780,-687
-33,119,25,112,655,-881
-24,86,-61,630,633,-1112
-29,28,88,-92,1074,-1688
-3,-49,49,259,854,-1635
4,-30,47,-734,350,-797
-22,-70,52,-598,310,-788
5,-67,59,-509,551,-529
53,-47,63,-616,552,-208
58,-69,33,490,233,-233
53,-17,37,-162,-98,-31
33,31,54,-1219,-49,-60
76,26,58,-1229,398,61
89,26,58,-796,348,23
98,29,38,14,385,-194
105,67,26,-538,534,-274
-125,72,-1,-680,474,-320
-119,82,11,-808,131,-312
124,99,29,-1135,221,-409
-128,106,60,-1349,348,-506
-114,118,72,-1528,663,-393
-98,113,55,-990,716,-536
-63,-104,38,-1163,652,-450
-69,-83,83,1641,3637,-3176
43,-100,47,-2960,5641,-2253
-74,-95,100,-231,5496,-3889
-79,-49,3,-1612,6090,-3568
36,-86,13,-1891,5923,-3242
46,127,-93,-2407,5901,-2942
127,-50,-65,-3592,6039,-2343
-94,122,124,-1733,5268,-2354
94,94,-128,-1508,4232,-1906
-60,53,-109,-1578,3972,-1074
19,82,-82,2859,4587,-2062
-25,-2,27,-701,1533,-2442
68,-42,-110,-1326,-1676,-548
-124,-11,34,-1244,-3049,996
108,-40,127,-762,-3495,1246
25,73,-28,536,-3291,785
-30,-48,-68,656,-3314,875
-75,50,118,-203,-4422,1476
-72,87,43,475,-5060,746
121,-35,25,-2027,-5489,1484
-54,0,25,1518,-4735,-12
-110,-59,-76,-389,-6199,1926
-72,71,69,1223,-5626,1631
123,120,-94,1334,-2688,670
93,-64,-18,68,-2898,603
24,56,44,424,-315,-513
91,-80,70,-135,-1200,-50
-10,125,-75,1284,-262,200
-70,-21,-120,-1342,-308,477
-42,-123,71,-236,339,-461
-12,106,-27,-186,1071,-1170
-15,90,-110,-695,1221,-1008
-59,42,116,-377,974,-1156
-81,13,92,-452,975,-1012
-79,-6,67,-259,822,-755
-38,0,42,-421,480,-432
4,9,29,-332,231,-341
0,38,29,-567,151,-482
2,28,53,-627,410,-522
6,16,59,-440,294,-428
20,9,63,-126,55,-362
46,24,64,-191,143,-191
64,43,55,-423,171,-120
74,30,49,-112,34,-268
85,54,57,-483,133,-219
84,56,55,-614,242,-365
92,61,60,-885,492,-374
82,53,47,-687,521,-474
87,66,37,-768,496,-400
90,85,25,-938,588,-407
-81,109,123,151,4673,-3412
33,-105,-3,-1281,5057,-3634
87,84,-35,-78,5008,-4332
46,-38,-78,-3921,6004,-3284
-117,89,-114,-2538,5715,-2659
86,66,-44,-2285,5310,-1825
-37,-82,23,-3287,4986,-259
120,9,-50,24,5301,-1628
-114,54,-90,139,4488,-1879
-110,-52,29,531,3881,-2746
-111,-5,36,867,4113,-3297
52,-28,97,-2642,687,-608
119,73,122,-532,-2221,983
6,-14,38,-1766,-2888,1530
-21,-116,-88,-1452,-3256,970
-123,-68,-27,-861,-3884,397
86,-50,-84,-116,-4371,248
4,-16,-113,-342,-5353,560
25,5,-117,389,-5662,1119
-69,-53,-80,1396,-5096,532
99,12,14,252,-5183,1494
34,-72,27,552,-5906,2734
8,-15,89,-642,-4172,2468
-99,-65,-79,1943,-2912,408
-25,-78,118,-2160,-810,777
43,-51,88,422,-71,-131
6,-113,-90,2047,-17,-717
24,-35,70,-17,550,-88
-19,-77,-5,-131,148,-237
15,-87,-39,-1244,1001,-562
4,96,-94,-1250,1444,-1012
-21,-30,102,83,864,-1291
-12,18,106,-1241,807,-627
-10,-18,92,-1047,568,-456
28,-18,103,-636,450,-370
22,-6,99,-433,402,-396
29,9,106,-779,428,-355
34,1,105,-400,258,-457
37,22,105,-215,193,-413
59,42,106,-86,105,-555
55,27,89,378,104,-715
55,81,90,-805,294,-470
48,37,84,-226,84,-623
69,54,100,-499,149,-514
78,61,107,-578,264,-683
116,42,96,-340,307,-804
102,69,97,-555,269,-723
107,55,74,-545,585,-841
-116,89,86,-913,204,-300
66,113,96,-545,160,-732
74,-97,-11,-1069,4825,-2588
-101,105,-104,-215,4703,-3446
-27,-125,32,-768,5384,-3618
-68,-42,35,-1959,5122,-3177
-2,-63,60,-1787,4534,-2967
-51,1,56,-3239,5765,-2172
0,-91,-4,-1315,5114,-2759
77,-97,-56,-1707,5116,-2732
108,77,-109,-1617,4709,-2517
106,-84,90,-856,3747,-2603
88,-12,31,2616,2601,-2827
109,-111,103,-1237,-1255,-837
49,20,91,-1045,-2019,1592
45,-104,-118,-1024,-2473,2006
-18,-119,10,-910,-2980,1174
-83,-46,59,-499,-3688,896
-2,118,-58,1884,-3778,402
14,71,-107,-370,-4197,1649
-106,18,-126,753,-4877,1258
96,-78,-39,-1296,-5286,1953
-36,-81,61,4770,-3825,475
-127,31,38,-2214,-5810,4075
-3,91,-24,159,-4261,1684
-127,48,-29,1307,-2247,1055
-21,-111,-47,4287,-147,-487
-105,18,27,-2962,-1209,1746
49,92,62,2419,385,-639
-8,-3,-8,-570,2,69
-18,109,-63,86,422,-529
-14,39,-92,332,750,-894
-1,32,-125,-930,507,-642
-13,-48,115,-522,494,-795
-7,-61,88,-571,596,-576
3,-20,84,-1314,493,-189
10,-45,61,-436,325,-523
46,12,63,-929,336,-562
62,27,64,-1038,418,-417
65,19,67,-781,425,-463
71,30,77,-676,333,-397
80,50,85,-987,478,-362
80,55,81,-946,384,-413
97,60,88,-923,410,-437
95,56,93,-785,412,-490
108,79,98,-1080,412,-321
114,75,96,-693,348,-409
114,105,100,-929,357,-366
122,122,109,-1001,373,-343
125,125,116,-883,396,-370
-123,-121,124,-758,358,-465
127,-111,119,-669,364,-552
-50,115,-4,-1505,4763,-3308
114,-37,-108,-1096,6035,-4399
108,-66,109,-1157,5528,-4367
-56,-123,-12,-2025,5862,-4451
27,-78,-43,-3398,5759,-2603
6,-125,-70,-2046,4775,-2493
62,-69,-79,-2219,4943,-1806
-99,108,109,-856,3818,-2300
-51,105,65,-3007,4287,-1792
74,21,122,1515,3024,-3015
59,12,-13,-502,1299,-1807
54,45,-66,-2920,-2634,-16
4,-78,111,-427,-3636,1868
122,69,-27,-320,-3488,996
35,-95,-6,856,-3880,714
-72,-78,-88,2116,-4104,950
-11,103,61,1140,-5031,2220
-111,-102,79,1136,-5591,1832
79,35,-100,-35,-6097,2625
-26,-28,117,1441,-5311,1866
-67,126,-97,-1363,-4925,1943
77,114,107,1540,-1971,410
21,18,-47,-2137,-3157,1158
37,-109,85,2002,-563,-486
29,44,39,-2279,-1301,818
19,86,-109,1146,-472,-33
-45,-79,53,-167,60,-303
-82,-98,-27,-776,507,-437
-83,112,-54,-918,492,-636
-86,43,-118,-53,870,-892
-70,73,110,-527,673,-558
-82,56,67,-251,526,-580
-85,54,38,-651,457,-598
-69,64,40,-1004,571,-326
-66,19,29,-192,312,-565
-40,60,45,-772,294,-317
-24,65,44,-770,377,-279
-12,52,48,-351,255,-494
-3,72,47,-539,427,-478
18,68,47,-550,547,-409
20,67,40,-451,413,-493
24,78,33,-608,255,-452
42,93,41,-1014,549,-331
38,60,22,-327,346,-567
56,92,25,-779,424,-380
64,98,18,-774,523,-395
66,91,7,-378,340,-525
90,127,12,-969,441,-325
81,114,7,-624,383,-468
88,125,12,-733,375,-455
86,54,78,-1102,4498,-2944
82,53,-9,-1336,5828,-3557
-46,15,116,-1478,6423,-3967
-60,17,48,-1169,6391,-3895
24,53,-60,-2959,6362,-3708
2,16,-100,-2660,5884,-2719
-9,1,-59,-2378,4965,-2781
112,-1,-60,-2714,5122,-2181
38,125,-101,-1494,4136,-2310
-88,75,-128,-1780,3883,-1958
27,45,-121,1517,3890,-3084
-18,-63,71,117,809,-2242
-108,15,-103,-1885,-2863,473
8,-66,-100,-22,-3309,1423
-21,20,-65,195,-3580,2015
-118,-82,-66,1176,-3923,1153
-109,37,126,1036,-4729,1832
-124,98,0,857,-5930,2136
-6,-54,124,-520,-6451,1910
102,75,37,2137,-5095,741
-89,2,-37,348,-6120,2183
29,-5,-124,314,-5384,2696
-84,89,-65,-774,-3313,915
49,34,66,1276,-2412,684
1,-77,85,-1506,-624,-531
102,104,107,621,-717,-122
-3,118,-59,1194,660,-661
-41,-55,67,-267,688,-524
-53,125,-49,-306,585,-768
-38,105,-96,-745,1063,-636
-72,35,107,-108,812,-669
-52,41,71,-601,586,-399
-47,33,59,-383,303,-443
-34,45,54,-548,328,-533
-27,27,62,-317,185,-615
-15,18,56,-151,350,-559
6,50,60,-866,316,-282
8,51,47,-958,437,-177
38,88,63,-1305,383,22
37,65,57,-513,387,-482
44,74,59,-425,307,-581
50,102,70,-842,183,-360
60,88,71,-677,291,-410
72,109,79,-972,297,-305
72,95,81,-558,283,-429
82,117,84,-845,521,-351
85,119,75,-811,452,-374
97,124,59,-702,484,-441
105,-118,56,-857,552,-451
105,-123,47,-710,485,-535
-84,-122,-94,-1962,3945,-2617
7,112,-99,-1679,5350,-2582
-22,62,-121,-1030,6533,-3715
-37,68,90,-1844,6401,-3562
-64,21,-111,-1703,7212,-3825
-71,71,34,-3299,6219,-2915
-54,-15,-114,-1191,5771,-2738
-79,16,105,-2227,5118,-2379
-6,117,36,-578,4475,-2147
49,-9,-86,-440,3399,-2573
-75,-24,-58,423,2484,-3062
-88,-3,85,-3011,-1626,71
121,51,111,-1173,-3982,2638
-46,30,71,-2430,-4545,2614
115,-115,-29,-232,-4956,1160
101,-45,-62,1080,-3866,155
11,-24,112,1100,-4389,208
11,-37,-127,1932,-5133,1572
-127,-108,-49,-1505,-7315,2713
-40,-45,17,2333,-5831,1412
110,10,-27,-522,-4747,1709
-17,-69,-77,369,-6253,1254
109,82,-100,-81,-2269,1739
-27,-102,67,2056,-2191,701
61,-111,-19,116,-41,-359
119,-79,-37,-1522,34,-53
-46,-114,65,341,1038,-1281
-46,-69,-5,-1092,852,-530
-73,105,-76,-514,352,-629
-76,71,-126,-390,489,-639
-63,70,100,-759,565,-661
-46,45,79,-606,587,-567
-57,40,61,-442,493,-690
-51,54,59,-734,517,-414
-48,40,37,-456,448,-449
-47,45,27,-263,259,-365
-25,75,35,-663,172,-99
-21,66,21,-509,299,-300
0,73,25,-434,88,-268
19,96,30,-717,111,-239
38,123,49,-1341,169,-212
46,85,42,-510,474,-617
53,116,51,-843,303,-489
47,116,47,-857,406,-449
47,114,47,-729,417,-564
50,-125,37,-902,400,-517
74,-114,34,-1037,525,-377
75,-118,28,-711,480,-578
77,-104,28,-822,524,-542
78,-105,30,-797,566,-548
-125,74,-102,-1405,6041,-5715
118,-19,48,-1434,4213,-4377
44,-18,6,-2363,5238,-4147
-105,3,-62,-3317,5359,-3396
127,-116,-111,-1318,4311,-3907
-73,-77,-83,-3739,4882,-3233
115,6,-38,-2034,3652,-2628
-5,110,27,-3920,3834,-1184
70,-49,16,-503,3274,-1874
-1,-73,-8,1093,2390,-4464
-28,97,-114,-851,-671,-2166
0,-47,-108,-1382,-1910,1604
-123,-38,83,-903,-2467,1987
-128,-27,-71,-240,-2775,1399
-113,121,-90,932,-3459,1442
124,-51,44,260,-3563,2163
-54,54,-71,121,-4935,2447
-40,-125,-59,742,-6335,2178
-54,-83,-68,1041,-4754,977
117,90,-84,-1213,-5603,2065
28,70,111,1211,-4309,1089
-70,-73,96,436,-2686,944
-117,121,-40,1548,-1614,430
52,55,83,1324,1032,-318
71,87,-99,393,-388,127
-6,-46,28,110,435,-156
-9,-96,-34,-200,136,-151
-13,-116,-90,-676,149,-129
-21,106,106,-1212,431,-580
-23,67,104,-892,499,-814
-19,27,64,-441,749,-988
-6,29,38,-738,672,-799
15,22,24,-588,298,-614
43,22,20,-450,259,-657
39,13,29,-306,399,-800
43,20,44,-463,301,-550
56,34,58,-567,370,-398
60,39,49,-409,481,-497
67,56,38,-516,420,-385
85,56,27,-451,327,-307
93,64,19,-480,325,-317
111,85,17,-748,287,-141
110,82,19,-491,207,-237
113,92,17,-467,248,-377
-127,103,14,-475,400,-319
-120,107,9,-573,485,-424
-119,111,13,-661,285,-434
-117,116,23,-817,378,-475
-111,116,26,-817,403,-458
-107,123,33,-805,330,-409
62,-56,-70,-2340,5115,-2030
-40,28,-11,-1054,6512,-3715
-60,-75,-126,-1329,6739,-3763
-54,-113,18,-1348,6843,-3545
88,-93,-54,-1577,6656,-3239
30,-79,94,-1883,6597,-2912
31,-79,81,-1622,5317,-2676
112,104,21,-636,5585,-2929
-11,-47,-50,-639,3840,-2454
100,92,-39,3127,3693,-3162
101,-124,27,-81,-789,-1543
-120,-15,-96,-2111,-1698,1313
-32,-62,75,-347,-3504,2875
63,92,26,-1914,-3655,2866
7,-47,69,-631,-4728,1370
85,34,32,-78,-4951,1557
-30,20,-27,220,-5720,1535
-3,86,94,284,-6527,2018
-97,49,101,1699,-5907,1380
73,-91,-24,22,-5549,3121
-9,-79,-3,1307,-5990,2673
-108,-55,-120,1397,-439,-134
-65,50,109,-475,-1812,1240
-93,115,-8,241,-1129,-258
-126,-31,-65,1269,483,-778
-37,-19,41,106,337,-238
-60,-52,-20,-605,-47,-295
-33,-112,-82,-387,239,-624
-27,104,101,-527,737,-920
-47,67,82,-476,569,-1131
-72,38,57,-571,610,-1117
-52,25,43,-1008,581,-672
-46,11,26,-763,504,-600
-28,5,17,-492,465,-588
-3,36,17,-866,442,-333
0,48,34,-773,272,-292
24,66,46,-769,542,-392
28,68,45,-566,375,-440
57,81,38,-578,302,-305
74,103,37,-921,353,-132
65,93,31,-466,190,-401
74,110,35,-544,239,-407
86,-126,44,-1068,444,-233
84,111,37,-550,334,-401
95,127,30,-529,401,-504
102,-110,35,-930,442,-407
106,-115,34,-861,450,-437
113,-114,35,-793,412,-466
124,-107,35,-742,473,-442
124,-102,32,-682,557,-534
-6,-36,-85,-823,5052,-2353
-65,-71,98,-793,6128,-2850
107,-68,11,-1140,5885,-2801
2,-93,-111,-1638,6768,-2677
6,-53,79,-1988,5708,-1821
110,-54,2,-1773,5856,-1808
-90,-40,-82,-1638,5505,-1843
-25,-112,111,-816,4530,-1784
62,23,-15,784,4341,-2648
-86,-22,10,570,3401,-3422
-115,-32,19,-1895,-387,-1269
47,101,108,-1520,-3608,1126
118,-66,24,-696,-3409,1472
60,-96,-32,-300,-3543,604
13,-20,-58,933,-4294,363
-40,12,104,949,-4533,529
82,40,-104,2720,-4833,1112
18,23,-63,25,-7514,2808
1,56,77,-908,-7041,2246
-116,-61,121,886,-6601,3129
-29,86,-61,-657,-4689,514
119,-78,67,-183,-2930,380
-42,29,38,774,-512,-690
-113,-30,-13,492,144,-56
-59,-88,-23,1166,455,-307
-55,0,103,-890,41,-45
-7,-96,-65,-129,478,-381
-29,-90,-105,-825,580,-542
-56,105,101,-484,492,-786
-51,84,105,-505,350,-760
-50,72,82,-565,437,-575
-33,80,80,-647,442,-497
-23,40,66,177,466,-733
13,80,82,-685,543,-328
4,41,73,-181,179,-584
14,41,73,-35,257,-504
28,88,71,-1087,486,-285
27,45,60,-389,253,-469
52,75,69,-841,434,-301
44,69,62,-587,302,-379
54,83,56,-631,308,-354
66,98,55,-838,441,-286
73,98,47,-656,383,-373
90,111,41,-664,391,-400
99,112,33,-590,465,-510
107,122,34,-797,360,-443
112,117,37,-744,331,-429
110,-128,51,-888,307,-376
115,-121,65,-918,324,-301
122,-117,70,-781,338,-340
126,97,-96,-1430,4526,-2872
-65,22,82,-1382,6028,-3784
-73,-98,110,-503,5851,-3698
98,-20,46,-2742,7121,-3366
70,-4,-61,-2499,5512,-2640
-122,-34,115,-1458,6294,-2802
-9,92,85,-2764,4368,-2317
-68,53,69,-2256,5066,-2572
95,-108,75,-2734,4708,-1899
-97,49,-117,1486,4550,-2381
18,-90,-54,1841,422,-2606
37,-42,40,-1866,-2626,1
-120,48,43,-1477,-2789,2376
49,-115,78,-537,-3667,2090
-80,13,-69,-806,-3753,1594
55,28,-123,437,-4324,124
51,105,51,1009,-4555,133
58,6,12,-79,-5924,1066
-37,-45,27,309,-6137,900
-18,-103,56,2190,-5658,829
77,-74,1,1299,-6126,1710
-61,6,-23,-1978,-5366,2264
23,-84,112,2251,-2094,-336
126,101,-44,256,-1573,683
-118,-27,65,623,153,-581
74,-31,-34,38,224,68
-56,-49,74,19,278,-299
-73,-51,-60,-1025,696,-511
-54,-113,-98,-717,502,-556
-79,-114,116,-1173,753,-518
-119,72,85,-776,783,-900
-98,63,66,-702,585,-862
-62,47,44,-741,596,-789
-36,51,44,-885,335,-680
-28,44,52,-767,360,-784
-21,41,77,-593,598,-720
-24,53,66,-566,682,-568
-24,50,46,-172,435,-566
0,76,35,-294,407,-360
22,85,31,-466,291,-148
34,95,26,-450,68,-144
35,104,38,-610,151,-244
53,109,43,-758,424,-271
61,96,33,-289,384,-436
78,107,19,-269,425,-514
79,111,6,-487,424,-584
68,113,6,-730,362,-564
74,105,12,-760,421,-523
77,101,17,-699,248,-432
90,112,24,-654,244,-293
33,104,-81,-1814,5177,-3003
30,11,-41,-1985,5633,-3606
-34,6,8,-2612,5036,-2226
15,-43,-20,-2510,5002,-2435
-123,-36,35,-2532,5044,-2150
75,-42,77,-3232,4760,-1470
-49,-86,95,-2233,4147,-844
44,-119,109,-1944,3868,-716
-31,-94,96,-2031,3969,-113
-4,64,-25,5,4489,-1188
-86,41,43,293,4919,-2162
41,90,-6,2524,1326,-4098
45,-103,-118,-2678,-2955,481
-127,27,-77,84,-3574,635
-68,70,-93,-226,-4090,1644
-112,-71,-96,1028,-3972,580
4,31,46,1918,-4645,1179
-32,-125,127,1374,-5518,1982
-85,71,-125,-606,-7523,2113
-110,-77,-6,742,-6516,412
92,6,-118,-1147,-5736,1346
-77,-19,71,1517,-4686,837
-124,17,-18,1045,-1947,104
-124,96,25,-141,-2691,1097
-40,-42,-51,1397,918,-582
17,114,-47,-1316,925,-71
-10,0,113,-563,389,-106
-43,-67,-47,335,485,-663
-60,-82,-111,-308,656,-928
-58,110,112,-118,535,-714
-53,89,76,-772,446,-625
-67,59,72,-627,470,-663
-43,38,84,-768,549,-496
-22,53,79,-866,347,-482
-17,39,87,-439,283,-616
-6,66,96,-958,482,-506
-8,66,75,-682,92,-446
14,91,64,-879,318,-393
1,84,70,-522,328,-442
12,122,81,-840,510,-259
30,104,73,-364,419,-559
30,116,62,-405,549,-548
39,-125,46,-765,551,-489
58,113,27,-464,390,-519
72,-111,35,-1073,346,-324
67,-126,50,-736,114,-441
109,112,91,-405,404,-489
90,-124,75,-541,562,-628
94,-109,69,-861,466,-534
94,-122,62,-782,611,-590
-86,-14,-112,-1849,5629,-3315
-65,89,-56,-780,6707,-3927
-36,-75,-57,-1503,5825,-3327
46,-92,-121,-1770,6160,-3389
104,-21,124,-2764,5919,-2678
36,-37,111,-1957,5419,-2698
125,-28,101,-2656,5178,-2294
-115,108,99,-1699,4445,-1886
127,-22,66,-1075,3587,-1439
-100,-79,-3,1332,3472,-3295
115,32,-23,-2702,14,-900
24,34,41,-341,-2494,283
-32,-118,-25,-1392,-3390,2358
66,-65,-64,-519,-3894,690
34,21,-89,769,-4304,163
116,112,65,933,-5275,360
93,-84,-79,1084,-6103,898
83,-33,-46,100,-7285,1388
-124,-18,97,-836,-7187,1475
109,15,-106,2576,-6725,1421
-69,-13,43,-354,-3967,995
-126,100,29,1787,-2302,-145
20,66,78,1367,337,-1136
100,56,47,-259,-305,111
-19,-122,125,1399,410,-705
-41,14,50,-1016,221,267
-47,-81,-36,-797,136,-5
-7,113,-64,-242,649,-447
8,96,106,-544,1181,-803
-35,55,61,-113,874,-1199
-54,26,35,-542,902,-1098
-33,14,4,-667,532,-532
-25,6,-1,-314,173,-523
-7,30,28,-526,332,-384
3,51,35,-908,152,-244
35,48,42,-708,125,-200
69,68,47,-797,149,-254
61,96,60,-1137,233,-190
51,82,54,-757,330,-399
55,117,49,-1077,242,-281
55,97,43,-436,293,-498
54,104,28,-413,413,-552
75,-108,36,-948,195,-98
81,-119,38,-786,349,-342
101,-121,33,-538,476,-526
120,-118,25,-491,468,-696
106,-108,15,-722,570,-723
93,-120,18,-768,405,-594
109,-110,42,-912,286,-229
106,-106,38,-689,426,-443
-39,93,-55,-1214,4876,-2559
-69,118,-127,-2115,6240,-3002
-57,-58,-84,-517,7335,-4026
96,-18,-1,-1454,6651,-3546
-113,23,-2,-3535,6535,-2682
-64,-43,-22,-2603,6217,-2287
96,-49,-25,-2326,5703,-1675
107,-105,-59,-1822,4210,-879
-114,84,-110,-1241,3894,-691
-94,-92,34,509,4433,-1655
28,-117,21,3319,3369,-3723
-24,83,80,1112,-1932,289
96,-46,-103,-2688,-2563,1900
30,-70,18,-1746,-3042,2232
65,-127,-118,-553,-3833,1479
-17,-57,86,-946,-4165,1445
57,-37,-34,-990,-5160,1700
-73,6,123,-1956,-6791,1202
-10,-33,106,-660,-8337,611
-31,42,-128,404,-7647,465
69,26,60,979,-5858,1011
-37,-81,-104,-28,-4614,793
-117,25,31,964,-2173,-351
16,124,-128,-852,66,-411
-81,-106,-90,710,-151,-872
-27,-28,-93,247,497,-916
-20,47,42,-1906,842,-80
-92,-119,-96,-453,583,-955
-72,-104,126,-962,825,-452
-86,110,87,-514,416,-327
-63,115,75,-759,591,-418
-51,96,69,-471,401,-570
-48,69,68,29,502,-759
-24,54,79,221,471,-710
-59,59,34,48,675,-758
-47,85,36,-549,397,-278
-36,99,35,-699,188,-182
-32,107,31,-499,131,-280
2,-125,49,-800,182,-159
8,122,45,-558,272,-405
12,120,44,-689,382,-492
23,107,45,-614,391,-520
25,99,42,-546,352,-560
39,119,44,-858,419,-425
45,104,36,-720,525,-567
51,104,32,-694,524,-582
43,105,25,-614,508,-611
54,116,17,-756,517,-389
53,121,15,-603,297,-351
69,-117,19,-739,402,-298
