AccX,AccY,AccZ,GyroX,GyroY,GyroZ
-113,-37,94,-2480,3683,-3976
-30,-51,91,-2112,5801,-5579
80,-26,-117,-2174,5386,-4847
-57,39,-102,-2341,5548,-4221
118,-49,116,-2054,4372,-2253
-93,-42,-64,-2156,2491,-716
51,124,75,-1730,311,1444
12,34,78,-1564,-1204,2341
14,-62,122,-1554,-2125,2191
-39,4,2,283,-2709,3169
-27,-81,112,1775,-1356,1973
-50,-39,19,1169,-1820,-2900
-53,-108,-128,1552,134,-3699
-58,-40,72,888,1954,-3446
-95,37,88,-325,2999,-2039
-38,-32,8,-862,1751,620
-106,-32,-67,-1812,556,1890
-6,8,-10,-1574,-359,1986
56,52,126,-1089,-1985,2544
-91,102,23,436,-2674,1510
-109,-43,-44,1881,-489,-1722
62,-13,-19,1102,-409,-929
-73,-15,-75,1731,-982,1019
-44,13,52,1074,-3616,2545
9,66,-86,467,-3993,3881
4,-109,83,839,-5084,4448
103,55,30,2178,-6390,6370
-72,13,-65,583,-3778,3735
-29,55,-118,-71,-1978,3809
-128,-123,119,87,0,1422
20,-20,43,1732,418,370
-22,32,34,-160,-376,154
-44,-38,10,-491,-398,-342
-11,-93,-62,54,629,-25
-31,-112,-86,-19,1,-332
20,119,118,169,391,-154
24,104,100,205,310,-440
52,89,62,66,122,-288
67,83,45,-286,497,-185
70,73,28,27,189,-313
92,95,22,-291,197,-179
85,91,22,-167,-28,-19
87,91,27,-36,-163,75
92,104,34,-192,-207,252
104,109,31,110,-68,402
104,125,28,-13,-116,339
110,-115,34,-42,-224,413
116,-112,31,27,-167,341
111,-102,38,-6,-292,299
113,-114,43,395,-371,313
2,-113,-34,-800,4631,-4581
-69,-112,-48,-2398,5743,-5145
-24,42,-14,-1366,5661,-4559
35,-73,44,-2161,4880,-3704
99,-47,-32,-1609,4933,-1944
111,5,101,-912,3191,-431
-26,-17,-40,-1387,1161,993
-29,99,-44,-1448,-335,1176
-50,-67,-13,-1611,-1465,1347
-61,-103,51,30,-2027,1880
-34,103,-71,187,-2677,1191
-48,24,-16,868,-2305,-258
-112,-8,38,1284,-221,-1676
-105,125,-12,1319,1319,-2625
9,76,-4,207,2032,-3873
63,-27,22,-574,2527,-2390
-74,-43,-54,-142,2091,-199
13,-33,-64,-1482,1278,615
36,82,26,-1576,-173,1788
31,42,-41,-1845,-948,1812
-40,-14,-55,-1067,-2171,2441
28,5,31,326,-2054,2285
-128,69,27,1376,-1768,-17
-89,121,-11,1117,-257,-2659
-48,-126,-16,1451,-272,-1734
63,-4,92,1622,-144,296
-72,-68,-113,1454,-961,745
7,-1,-49,574,-1764,1861
0,78,104,-366,-2534,2400
-42,116,84,1407,-4043,4418
-105,13,-37,1718,-4495,5737
-99,-71,102,1951,-3054,5248
106,38,-52,183,-4110,5476
-79,126,61,2081,-2178,4655
-30,113,-7,1573,316,2477
-9,-51,5,770,-771,73
-64,-111,53,-1060,-435,-1266
-53,100,-11,367,667,-940
-66,74,-41,706,1,-202
-16,-4,-126,433,445,-726
-24,-43,83,-28,157,-403
-27,-52,72,80,209,15
-12,-3,58,-205,253,46
12,36,59,-4,-118,288
18,54,61,-48,-119,84
19,77,76,-370,-24,41
28,55,68,-62,6,145
43,67,73,-119,-20,158
50,85,75,25,135,147
41,61,50,228,278,-35
77,95,123,-2597,4871,-4913
-46,-39,51,-1673,5123,-5000
-127,-21,5,-3169,6294,-4441
77,8,-110,-2590,4693,-3833
-117,109,67,-4001,4354,-2820
-98,85,22,-2501,3002,-466
20,6,-105,-1837,1554,915
6,99,118,-1438,-123,1349
-11,39,114,-327,-2056,2438
-61,-100,27,2487,-2042,3470
-40,108,-98,1840,-1570,-404
-92,-22,72,1241,-643,-3424
-100,-45,20,632,859,-3833
3,-98,23,-282,2418,-2335
34,-34,26,-520,2043,-243
-60,63,31,-1444,1402,334
5,-84,124,-1647,279,1160
58,25,44,-1199,156,1959
-4,-81,-52,-1041,-1308,2746
-98,120,-86,-634,-2689,2774
32,-98,-2,131,-3066,1216
126,56,121,1318,-1692,-1998
-112,-125,-17,1096,-823,-3353
-65,30,-67,919,130,-1063
-1,111,-67,1875,198,1635
71,-96,-97,600,-2034,1672
80,95,-26,404,-3892,3616
-10,-61,-22,1343,-5086,4144
102,93,-57,2240,-5663,5821
121,19,-28,2291,-3543,5073
-103,50,-51,944,-2380,4686
-50,-111,93,924,360,2357
62,-103,-99,1307,-1065,1562
-22,-120,-84,-159,47,-40
-39,-55,11,131,1409,-972
-29,-91,-77,-258,910,-359
-19,104,106,121,228,-589
25,46,61,161,302,-398
36,49,48,-48,46,-167
50,56,33,-257,-84,-65
37,60,59,-278,-399,-9
53,53,80,-180,-270,113
65,81,112,-451,-291,206
59,98,110,-788,-412,145
69,-114,101,-1046,-225,562
78,-101,72,-310,0,356
78,-84,69,28,25,125
83,-72,55,-208,95,89
94,-80,39,-4,2,60
104,-86,37,-83,-5,21
-3,2,9,-1108,4561,-5335
-21,-123,48,-3869,4583,-5968
-93,-55,6,-2520,5620,-4621
21,27,48,-2726,3775,-4991
115,32,-19,-2694,4144,-3056
-128,9,-15,-1804,2528,-607
51,-70,88,-1052,2135,1111
9,72,-107,-2040,-669,1498
23,13,28,-1415,-2207,1499
-93,125,-113,1854,-3091,3207
5,38,13,1385,-2129,-70
127,-92,-117,920,-741,-2853
-98,42,45,648,2605,-2709
2,88,61,-58,2252,-1286
-101,-60,-38,-945,1815,76
49,48,-103,-1475,584,742
-99,-109,-92,-1438,-720,1933
55,73,124,-1536,-1844,2120
-40,-115,-121,-602,-3117,2277
-58,116,-71,1280,-2885,1153
-124,-28,4,1711,-610,-2720
-111,-128,-20,605,1589,-3887
116,-63,-15,1081,2430,-1090
118,17,14,176,2296,-49
-5,-62,21,-983,935,-77
57,-84,74,-1431,-770,261
73,23,-51,-865,-2192,530
-120,127,-44,-270,-2761,2537
37,90,-74,2638,-5225,4531
-74,-44,2,2384,-6988,5819
85,56,49,1013,-5930,4793
109,30,-120,219,-5020,4566
62,15,-51,639,-3445,4845
6,-23,67,214,-818,1809
25,-95,-5,494,-963,-332
-58,-9,-100,-97,422,-1140
-71,-119,16,226,938,-575
-86,116,-37,390,-207,397
-31,-116,-89,-332,314,201
0,119,99,-249,376,-150
3,88,70,162,348,-3
-3,120,72,-210,-46,-25
26,112,67,-88,39,45
34,119,67,10,-61,96
37,-113,82,-194,-295,165
49,126,81,154,28,110
58,-114,84,-45,-24,148
69,-112,81,-71,13,25
78,-121,75,-134,37,183
80,-115,64,-78,-47,224
37,95,-63,-1353,3183,-3743
77,-125,-94,-2277,4952,-4897
-63,58,122,-1956,5278,-4953
77,-100,-63,-2276,4672,-4211
102,-83,-100,-1523,3476,-2317
-100,-50,35,-998,2410,-421
48,109,-99,-950,1183,1174
77,-100,40,-806,-472,2190
111,-56,-24,-1179,-1526,2281
-97,-23,-128,663,-3431,859
-120,42,73,803,-1755,-2089
-128,57,27,1086,1073,-2766
-69,-59,12,-713,2178,-2853
2,84,41,41,2807,-733
-59,57,52,-1226,1572,123
10,102,19,-1626,378,1096
39,-46,-119,-1513,-809,1868
25,122,32,-1148,-2226,2298
-38,99,112,-376,-3977,2184
106,3,68,1006,-2813,528
68,-85,17,1207,104,-3457
-58,-110,-50,293,2104,-3855
-53,56,-24,561,2155,-2267
-52,53,-114,784,1627,-416
6,16,113,-272,472,133
90,-66,109,47,-742,987
81,-68,24,558,-2225,2606
47,-50,-47,528,-3263,3392
-1,-55,43,2250,-5522,5735
-9,105,-22,2588,-5644,6011
77,-95,-76,1790,-1234,3555
-66,73,-76,2287,-3328,3741
92,-40,7,-579,-3132,3953
106,25,-79,1515,-938,2355
99,6,90,2101,50,1054
13,26,24,750,424,-446
-52,-74,-12,46,-348,-553
-78,39,-92,585,-458,-115
-73,18,-94,363,-417,116
-49,8,-127,-106,-364,76
-35,-10,106,-172,-166,-25
-32,-33,94,-197,-263,99
-33,-23,82,-392,-207,126
-30,1,67,-485,-38,9
-25,10,52,-268,94,-118
-12,40,42,-294,265,-319
-8,44,46,-4,-52,-226
0,60,34,24,-186,-250
14,48,30,336,-325,-156
21,54,37,-127,-158,-38
-26,-2,-50,-1628,3014,-4264
18,61,-95,-2335,3771,-5513
-30,-75,-122,-2914,4288,-5421
123,18,-95,-2926,4429,-4257
115,-77,-122,-2298,4032,-2453
-123,0,92,-2139,2583,-346
19,-97,-20,-978,1608,562
31,-30,107,-549,-219,1921
-122,-84,-14,-1198,-1605,1958
42,63,74,1823,-3911,2604
-106,0,93,422,-2133,-1091
-115,122,92,1560,2124,-3143
-87,114,49,-733,1796,-3791
113,-83,77,-256,2852,-1790
-112,39,98,-592,1498,195
-18,-112,122,-1752,713,225
33,-115,-53,-1152,-282,1728
32,-6,-107,-1207,-1630,2802
-24,-29,-98,-1117,-3135,3656
17,67,104,347,-2386,3734
-113,-14,-77,1664,-1571,-1642
-101,-14,-2,434,-469,-4885
-55,41,-23,828,1401,-3352
4,60,-20,898,988,-1332
-52,-103,12,1133,848,868
14,59,43,114,-146,1243
80,115,112,-535,-683,2205
86,-3,24,-33,-2355,4101
-105,76,6,653,-5043,7366
-46,75,110,2552,-5390,8708
-104,28,112,627,-5298,7040
-9,50,123,-3607,-3434,2230
-68,-67,-18,1559,-1932,2039
42,96,-53,1899,-1150,1246
-6,102,114,157,1066,516
-53,11,-54,-868,-105,-345
-3,100,72,489,1065,-364
-21,94,-81,-302,1100,-627
-16,94,117,-219,136,-131
23,66,58,-76,286,-51
29,79,47,-228,130,-138
38,65,33,112,-58,-18
38,88,45,-281,-133,-22
52,103,59,-517,-164,203
52,100,86,-22,-421,173
72,-119,102,-46,-125,273
82,-84,106,-192,-55,-67
81,-87,91,-146,33,-58
92,-112,69,85,13,-31
103,-118,30,-185,100,-96
-34,-45,-3,-1982,3135,-5849
122,-58,28,-2244,4178,-6045
-67,94,44,-2570,4420,-5726
-127,-66,43,-3058,4533,-5096
-103,-36,-69,-2093,5271,-2800
-106,-3,75,-1350,2518,-379
21,-27,1,-1191,1115,861
-51,-12,-72,-1381,-614,993
-23,-115,-111,-1743,-1874,1371
104,15,-64,-401,-3626,2208
32,-41,-71,1122,-2106,761
107,-36,48,1807,-1051,-3017
100,-96,35,1303,2052,-2810
108,-100,15,-67,2352,-2328
-83,-111,20,-120,2628,516
-59,29,-17,-1517,665,589
21,-73,67,-1897,-172,1158
71,-10,-93,-1445,-832,2176
31,-3,54,-1003,-2483,2696
33,112,-95,468,-2742,2340
89,-62,-19,1095,-2851,-2058
113,-58,-23,1479,430,-3558
-127,-123,-49,1398,2238,-2793
97,-104,-16,1485,2121,-1081
-78,96,49,1019,860,301
49,-86,23,178,-1451,1099
-117,93,57,29,-2186,2023
82,-112,-21,713,-2520,2710
52,-50,-102,2055,-3953,4943
107,80,51,2058,-6544,6079
-106,108,-79,3921,-3713,5114
-114,-102,103,2447,-2754,5118
-100,110,-108,2843,-2363,4339
112,107,93,107,-637,2647
54,-26,73,-116,213,1087
-37,-115,42,314,428,712
124,18,42,-296,-474,-900
-114,-55,12,-1074,593,-794
-75,34,-96,112,710,-915
-64,34,-119,334,10,-411
-53,54,105,-515,127,-183
-34,41,63,-298,133,3
-16,67,54,-256,1,171
-18,80,40,-191,17,156
-8,94,40,-367,-5,320
-6,91,32,-179,-2,391
6,102,31,-190,-33,452
12,118,37,-265,-31,447
-7,113,41,-1,-52,363
10,116,37,412,310,294
-33,80,-116,196,4493,-4629
94,-41,82,-2123,4361,-5571
-123,-79,96,-2376,4500,-5190
40,-90,-58,-3506,4741,-4893
-116,18,37,-2938,5498,-4012
126,38,43,-2483,5347,-1987
-88,0,75,-1065,1625,859
-109,-56,-58,-969,-345,1688
-61,94,-49,-1395,-2020,2100
-71,103,-28,46,-3098,2437
62,-54,-36,1533,-1110,469
-95,-27,122,1567,-23,-4122
-101,48,56,-150,1209,-4225
5,79,68,-87,2474,-1786
18,-77,67,-186,2636,796
-42,-64,71,-1266,1704,1528
-122,121,-55,-1868,-574,1917
100,-100,-106,-2794,-2493,925
-32,56,-120,-761,-3047,2331
34,-125,-39,2025,-1723,2428
-96,-117,-66,2111,-957,-2019
-95,-78,-1,448,-705,-4561
12,107,-30,1061,1896,-3114
51,81,-14,996,2947,433
3,-22,-5,54,1429,1093
42,73,21,-84,-1292,973
80,116,127,-132,-2629,2514
-119,119,-45,245,-2786,3555
91,-78,-30,1142,-5165,6500
86,121,70,3677,-4891,6646
54,-17,47,1731,-2748,4253
-121,-58,-15,1369,-3438,4755
113,-13,-90,2060,-925,3528
34,-57,-54,606,-674,2791
8,118,86,-249,318,1476
-60,80,32,-183,-572,656
-60,36,19,-1349,-376,-452
-54,-106,-35,-169,86,-718
-50,56,-72,508,347,-320
-48,55,-86,111,348,-179
-21,40,125,116,180,-244
16,49,98,-440,396,-302
1,34,85,-149,375,-979
62,44,62,-225,991,-1401
42,74,72,314,-138,-49
51,76,74,57,-340,-517
88,-108,73,-466,-22,58
71,122,81,58,-92,-369
74,-108,97,125,-270,-136
81,-102,92,-80,-302,-48
15,-122,114,-2348,2526,-5136
-10,-121,96,-3262,2934,-5151
41,48,78,-3317,3725,-4680
-69,90,114,-3936,3678,-4185
-22,-13,-85,-3330,3866,-2601
66,-28,91,-1810,1832,420
78,16,35,-1958,533,1344
-14,-88,-10,-1336,-1528,1260
-81,-125,71,555,-1447,2030
-88,118,122,3122,-1020,3191
-94,-36,-62,2015,-841,-386
-96,73,88,296,247,-3625
-104,40,25,72,1242,-3586
22,-115,38,-270,2482,-1490
98,-126,111,-867,1567,5
-21,-31,99,-2216,-78,875
86,-82,-35,-1745,-693,2088
-6,-120,-60,-1548,-1952,2457
51,71,-84,-529,-2817,2472
-96,106,119,2430,-1187,1262
-81,-73,106,2232,-778,-2933
-98,121,18,704,373,-4366
42,89,-21,1244,1448,-2516
93,20,-21,750,1132,-361
-51,-95,31,-117,461,658
5,98,73,-569,-580,379
48,-29,127,-357,-1696,1857
93,-46,-41,970,-1531,3419
64,-13,96,957,-2985,4530
53,110,-17,2558,-6878,7145
-30,0,-79,3626,-2880,4933
119,-64,-102,1974,-3084,4774
9,-88,-101,-161,-4449,6130
111,-108,-55,1963,-1246,3729
-102,-97,113,1916,-223,3092
-39,-45,75,-412,-1039,686
-55,96,62,-1441,745,-1153
-95,39,-20,553,1426,-2037
-102,25,-31,1026,493,52
-84,72,-85,-257,-272,459
-17,14,80,-117,179,-110
-48,-9,74,59,65,87
-87,-22,84,201,226,248
-50,23,61,639,44,387
-23,50,56,607,-31,207
-10,72,61,210,-63,307
-20,52,66,639,-255,235
-26,42,65,495,28,7
-17,13,69,345,69,42
8,-30,52,929,340,90
27,-109,-82,-1227,4766,-6644
18,-45,-4,-3084,5132,-6516
-116,70,-7,-1726,4092,-5631
55,-113,-62,-2609,3853,-4825
117,110,-127,-2585,3747,-3046
-98,107,60,-2224,3427,-1520
-58,-19,-127,-1506,2038,-257
-124,-5,71,-2840,-1239,161
118,82,50,-932,-2258,2763
71,1,-56,263,-2010,2455
40,32,-104,1138,-2099,869
49,-86,75,1256,-1064,-2211
83,121,-5,202,1340,-3975
91,-111,-10,-307,2099,-3209
-46,-111,-12,214,2759,-50
92,-90,8,-934,1450,489
-46,22,-19,-1297,55,1638
-56,-56,-53,-1616,-803,1798
-120,38,-69,-1865,-2013,1883
104,64,-71,-188,-2875,3659
18,-60,-79,1258,-1660,1971
113,77,-80,1907,-486,-2852
-80,76,-33,1288,73,-3687
-78,62,-107,1251,-284,-1196
-113,115,-103,1637,-1085,1023
-68,-1,-52,1763,-1382,1573
120,26,93,1301,-2212,2086
63,93,105,1854,-3044,4434
31,-66,-27,2153,-3702,5441
99,90,-27,3380,-1981,4688
75,42,116,1041,-1446,3469
54,30,122,-639,-888,2495
-7,-118,-93,-238,-2152,2416
-2,51,95,804,-931,2459
-33,3,38,1593,-437,1531
-42,31,9,787,32,1029
-79,7,-10,169,-175,212
-76,-44,-46,-506,-30,-362
-54,-105,-73,-192,252,-450
-36,70,-107,345,252,-558
-6,45,127,376,274,-398
20,48,112,-51,148,-184
39,38,86,-160,-7,-189
42,49,84,-243,-100,-85
53,55,74,-370,-36,-111
68,44,66,-261,263,-210
60,50,67,72,-152,153
69,85,70,-332,-261,403
74,90,59,-176,-231,424
73,104,63,-103,-312,424
91,80,-39,-2619,3278,-5049
-79,97,39,-2259,4847,-6951
107,88,109,-2087,4363,-5499
90,-113,-109,-1922,3676,-4922
-74,20,-121,-2473,3590,-3942
-2,25,28,-2199,3180,-2601
93,-10,74,-1795,2089,-601
106,-107,-87,-1240,507,1258
111,21,69,-757,-1072,2695
60,99,-5,-1251,-3115,1641
91,90,-3,1375,-4024,2419
-108,-86,95,1395,-1158,-48
120,107,36,1411,1306,-2757
-109,-44,0,151,1115,-3847
29,74,10,-225,2463,-3001
99,-79,12,-511,2380,-682
-74,-101,106,-1057,1783,1210
51,67,114,-1495,940,1820
79,63,87,-2110,-1189,1203
-32,-102,67,-1528,-2768,2139
-15,-89,-23,689,-2866,2766
-87,-106,15,1424,-1406,363
-110,45,16,575,-653,-2445
-52,42,-27,623,104,-1509
-42,5,-124,2084,-144,399
-125,-9,-126,1629,-944,1114
-29,20,-97,922,-974,1802
-46,31,58,1696,-2386,3503
-80,56,52,1207,-3377,5202
-71,-109,105,3362,-3682,6631
-66,-89,-52,3113,-1985,5379
-92,92,2,82,-1570,3597
114,-14,85,177,-1585,3635
75,79,93,367,-111,2855
24,57,90,68,-365,2032
-18,8,50,1049,-43,678
-64,20,19,89,234,-288
-60,-24,-36,-1144,474,-778
-54,80,-109,-2,387,-832
-41,51,-123,238,138,-443
-17,39,99,-152,182,-265
14,17,68,-115,-23,-371
24,22,52,-125,-88,-476
28,16,65,-422,-146,-330
25,5,64,-204,-218,6
31,33,74,-358,-286,277
38,77,73,-522,-273,315
36,81,69,-276,-198,284
45,96,64,-220,-147,348
54,-128,56,-379,-147,272
116,-55,57,-560,3652,-5906
-125,-12,-50,-2439,4296,-6195
92,50,-48,-2679,4127,-6411
37,8,-13,-2967,4539,-4782
-52,1,-53,-2727,3650,-2533
-105,-128,116,-2883,3647,-1174
24,36,-67,-1953,1926,325
-62,86,11,-1991,107,1358
-58,-55,58,-1250,-1359,2015
-112,-57,-107,363,-2936,3044
-59,-52,108,1099,-2805,1002
-96,10,-121,1651,-996,-2329
-108,-66,57,575,537,-3374
127,-24,32,687,1877,-3128
120,27,42,-492,2032,-2466
-102,-74,-60,-434,1872,-102
-42,-10,-32,-1633,808,910
30,100,32,-1373,-12,1950
-4,76,-80,-1483,-1166,2403
-91,17,-97,-678,-2247,2953
-127,122,4,490,-1945,2655
-100,-24,-1,868,-2292,-1274
-99,-2,2,178,252,-2480
30,94,-17,1898,833,212
24,-25,9,1595,-412,961
-103,13,21,1385,-2243,938
-80,44,-112,1029,-3043,2011
119,105,104,468,-3311,3340
99,-93,127,2102,-3902,4627
93,24,-5,2160,-2846,4757
-102,-75,43,2200,-912,3066
123,50,-109,-317,-223,2293
55,-59,-106,1275,-663,1921
-17,91,99,392,-485,1966
-67,37,72,-869,-1051,1939
-64,-15,32,-450,-1190,1918
-33,-26,-2,-227,-761,1658
-20,-59,-40,67,-279,423
16,-75,-86,-27,717,-420
9,-127,-106,113,315,-935
28,109,-125,154,279,-691
53,84,107,-139,252,-633
65,70,89,-44,179,-481
84,66,77,-168,38,-322
93,62,71,-146,1,-226
96,65,69,-205,-115,-73
102,69,66,-125,-99,192
103,82,69,-205,-229,316
103,99,70,-239,-283,470
105,116,71,-211,-172,642
-106,-63,-78,-2126,3233,-2935
-25,64,54,-3476,2948,-4797
22,79,27,-2717,6015,-5783
-112,-11,9,-2360,5269,-5761
-9,-106,31,-2776,4384,-4975
-77,-122,24,-3006,3854,-3233
50,113,120,-1681,4200,-609
108,-2,-78,-2556,2462,141
26,-62,10,-1972,-785,2041
-9,-104,95,-1289,-1802,2296
-88,-77,-9,755,-2424,3326
-65,63,13,2601,-1240,3115
-79,-43,15,228,-3487,-2226
-105,-50,57,981,135,-3176
-81,119,-1,1590,861,-3795
82,-117,-17,-1001,593,-3796
36,83,3,-846,2339,-1768
-127,63,-96,-190,2034,1352
-1,-16,-11,-779,2159,2579
56,-56,99,-1349,1141,2697
21,-102,-111,-1341,-525,2751
-73,63,55,-1137,-2546,3112
96,-58,-101,336,-3786,1632
103,-76,0,1397,-2064,111
0,67,-43,1346,-3199,281
35,117,-73,825,-4255,2107
-94,89,-50,576,-4137,3045
94,-77,30,821,-4325,4231
105,44,92,1859,-3241,3990
-115,-71,-121,1575,-1559,2773
88,-81,-110,410,-1533,2109
58,52,67,1105,-436,1597
18,23,24,1092,-208,981
-37,29,7,-272,-379,656
-50,-49,-24,-93,-62,224
-48,-64,-28,39,-205,82
-26,-60,-48,-166,85,-83
12,-111,-94,523,444,-512
37,-121,-119,171,601,-866
60,113,106,-273,443,-852
82,85,87,0,337,-619
116,73,72,-39,356,-449
120,68,64,-134,57,-312
117,69,62,-198,-192,-35
124,81,67,-228,-321,247
-125,91,65,-78,-298,347
122,118,71,-309,-352,498
121,-128,79,-337,-419,620
119,-114,80,-188,-291,670
121,-97,85,-70,-164,600
57,-11,1,-2690,2747,-3233
-102,127,-56,-964,4766,-5791
122,84,-81,-2897,5574,-5316
-93,-86,-113,-1838,5381,-4946
123,-7,-57,-1793,3446,-3302
6,-102,9,-1467,3078,-1092
85,49,68,-1580,1527,1099
64,-46,56,-1310,890,1776
30,29,-92,-1271,-560,1568
87,15,26,952,-2170,2043
49,-117,104,1896,-1261,128
-94,-29,-112,656,-1110,-3265
-78,34,57,-200,1480,-3555
89,37,63,-205,2229,-2105
-115,-16,47,-690,2211,-416
-44,-6,22,-1559,415,760
87,114,-31,-1303,-61,2596
39,54,101,-821,-1197,3035
107,-33,81,-478,-2945,2626
77,53,-101,1103,-1512,146
-97,93,3,970,-1939,-2809
-61,113,-2,-248,674,-3336
-43,103,-29,1940,1021,-1352
-29,-94,-1,1133,-63,42
12,-70,-42,579,-897,1517
31,53,44,230,-1527,2411
50,94,-72,476,-2195,2980
73,98,-93,1879,-3338,4790
96,-72,-36,3052,-4881,6649
-126,-106,-125,5214,-4616,5962
-99,-108,4,1451,-2650,4456
27,-75,55,-419,-256,2670
-126,-91,65,1897,-87,1294
33,124,65,975,599,1202
-73,42,29,-1751,185,56
-68,-111,-10,-641,-29,-688
-52,11,-75,533,727,-826
-40,29,-99,68,504,-497
-14,15,-128,-78,222,-345
8,-8,82,29,191,-356
19,-8,71,-239,174,-238
21,-16,56,-100,88,-22
29,5,45,-273,-48,98
39,16,37,-210,-78,122
41,26,36,-85,-139,145
42,45,40,-259,-226,225
53,58,43,-253,-205,251
47,67,44,-200,-264,208
58,84,45,-346,-148,208
59,86,42,-235,-107,156
7,-97,123,-3118,3313,-4088
-119,-126,-103,-1163,5576,-4364
125,43,-47,-645,5341,-4508
-116,-71,26,-1877,4626,-4782
-100,80,50,-2551,3751,-2885
25,46,29,-2264,2504,-953
-19,-106,118,-1577,385,2113
-82,-78,71,-1569,-1146,1697
34,84,121,-145,-1903,1809
44,-109,-72,640,-2923,-211
117,54,124,1406,-2210,-2142
-124,113,111,1061,1619,-2435
126,-77,82,31,2443,-3409
-98,-93,99,-856,2042,-1945
-31,-49,-21,-1756,2038,-70
-79,5,70,-35,1488,4117
103,122,-83,-2168,-1322,1054
-101,88,-122,-1311,-2497,1484
-69,-17,45,927,-1828,2639
-96,113,93,1259,-1483,-594
-84,106,52,832,501,-1416
-124,-60,105,979,-603,12
-116,17,-61,1489,-1134,1478
-36,108,1,1242,-2771,2076
-10,-83,108,1733,-2743,2958
-84,13,-91,1102,-4403,4350
-104,45,-34,2331,-3933,4519
86,-105,-119,1466,-3079,4651
110,-17,-73,1064,-1716,3262
105,-19,-85,-127,-1284,2742
33,-94,-97,194,-1661,2191
15,42,101,1021,101,895
-48,44,73,154,58,236
-54,22,39,-1106,12,-149
-22,-91,-58,-68,571,-387
-2,-109,-85,274,396,-418
38,-112,122,-297,542,-530
65,103,91,-17,533,-554
87,96,72,-170,328,-446
97,84,69,-203,90,-320
111,77,62,-53,25,-161
114,92,68,-185,-238,57
124,105,72,-391,-254,123
120,108,84,-119,-365,170
121,-122,98,-239,-303,351
124,-112,102,-189,-203,325
127,-99,109,-127,-134,321
122,-86,106,-229,-168,307
-126,-77,102,-215,-81,309
-117,-72,87,-31,51,222
-119,-92,90,-1705,3789,-3461
-78,-16,98,-1986,5464,-3830
99,16,-84,-2436,4509,-4484
107,-77,-115,-3398,4671,-3962
-30,45,52,-1896,4808,-2628
21,23,-87,-1340,4193,-323
-81,-114,-43,-920,1356,1553
-122,36,112,-1336,-790,1834
18,-11,-24,-1640,-2555,1641
21,63,-56,965,-2563,2666
-41,127,30,1379,-1489,-539
-42,61,-109,706,-734,-3461
-68,29,86,437,1701,-3586
-103,118,89,-198,2335,-1643
-53,87,29,-484,2061,394
31,-28,-5,-1672,488,1242
52,-67,81,-1848,-449,1156
-31,-87,-13,-1314,-1545,2082
51,-107,14,96,-1996,3357
-24,-72,-102,1231,-1583,539
-82,-86,11,741,-885,-2905
-55,-44,36,1115,1540,-2564
-59,72,20,1632,1002,-571
-41,-106,-14,936,-857,693
0,50,77,571,-2231,1773
29,106,121,440,-2528,1883
2,-112,32,1040,-2724,2815
-27,-44,-127,1953,-3353,4866
-98,77,-30,1676,-4495,5424
-57,-44,58,1722,-2979,4008
80,58,-43,13,-3788,4118
87,-38,-22,-17,-2535,2898
83,120,-62,406,-1035,2104
-6,76,-90,922,-659,1112
-45,34,97,59,161,92
-65,-28,50,-388,143,-485
-53,-113,-13,-14,434,-530
-23,98,-89,12,508,-507
2,88,120,9,585,-338
25,72,82,-165,410,-362
37,59,52,-369,141,-299
49,48,47,186,55,-103
57,82,51,-6,-169,-198
70,100,52,-312,-9,-93
71,89,57,-142,-215,130
72,110,66,-239,-217,173
80,124,72,-280,-189,207
85,-128,73,-115,-133,182
94,-122,72,-108,-29,215
102,-110,63,-117,-34,219
-127,-2,79,-912,4906,-4782
127,-6,105,-2538,4550,-5787
9,114,35,-2337,5011,-4880
92,-103,22,-3522,5114,-4075
96,-93,-14,-2142,4401,-1450
-112,-9,-102,-1675,2698,185
-128,-122,-118,-1488,386,1670
95,114,-120,-1381,-2054,2453
23,58,49,-521,-2454,1275
90,-115,122,1867,-1903,677
-118,-4,-61,2273,-325,-2980
-85,3,81,-173,1520,-4215
-11,-111,86,300,2620,-1699
94,-105,48,25,2423,484
-74,25,5,-1630,756,290
-102,-81,-57,-999,246,2397
66,64,121,-1460,-2280,1890
-67,89,-52,-595,-2740,2366
-8,-69,38,634,-2729,1106
-103,-30,45,798,381,-1846
-79,-125,13,26,1752,-2951
109,-41,1,755,1250,-390
-126,-89,16,970,-6,851
59,19,-50,-361,-1145,1312
88,122,86,-364,-2381,1438
21,-29,68,-11,-3274,2153
-52,-42,-102,1398,-5156,4531
11,-3,-31,2662,-3770,5104
-49,31,-43,96,-4576,4753
-53,2,-60,-200,-2308,2390
102,-24,95,-260,-2276,2573
88,115,-11,688,-858,1593
18,82,-61,48,-603,1119
-18,9,109,32,-171,399
-25,-3,59,-806,-8,-111
-5,-77,-5,-248,325,-56
7,-83,-57,-282,14,93
41,-71,-77,-551,141,-128
69,-115,-124,265,365,-354
86,-123,121,308,396,-268
94,114,94,459,312,-147
106,124,92,-111,45,-90
121,118,90,-264,46,-48
-126,127,117,-236,-166,-21
-123,-124,122,-90,-258,160
-124,-107,-125,-164,-210,153
-115,-89,-117,-349,-49,162
-124,-86,-120,-176,-223,159
-112,-72,-119,-267,-75,219
-103,-57,-124,-201,23,178
98,-58,75,-1584,3848,-3576
-64,62,84,-1513,4594,-5824
-48,-72,111,-1682,5188,-5248
51,15,121,-1472,4765,-5193
13,33,5,-3223,4295,-3971
43,86,108,-2087,3839,-1028
-97,-99,-73,-1463,1314,1187
-110,-15,105,-605,-402,2820
122,-37,-127,-1180,-1492,2259
-59,106,7,936,-3654,2220
-65,87,-28,493,-3183,-913
-116,67,88,1573,2105,-2083
-70,116,49,-147,1629,-3613
-98,-66,64,-237,2524,-1409
-1,-83,-128,-667,1558,42
81,-10,-102,-1909,128,1331
-77,-96,-43,-1218,-271,2853
81,-29,81,-1096,-2265,3123
-44,-16,-53,1008,-2782,2182
-100,15,74,2095,-2172,-1693
-109,77,6,100,-432,-2669
125,-35,-30,714,756,-2143
-100,-60,113,2109,108,160
27,2,-6,1679,-1144,1245
6,47,96,66,-1947,1714
-21,43,8,929,-2676,3512
-36,114,28,1177,-3485,5268
-85,3,-72,2078,-4511,6063
-15,-82,-15,1809,-2216,4236
-32,80,-104,404,-2487,3957
-69,-41,-101,383,-1337,2592
110,116,122,941,-104,1642
-24,90,71,103,-286,701
-39,54,21,-1207,5,-214
-52,-72,-50,-377,197,-620
-29,-118,-85,214,510,-683
4,117,127,-106,489,-747
38,100,98,-374,398,-627
64,74,73,105,443,-579
81,61,58,126,258,-556
88,68,61,-354,25,-278
106,56,48,-79,-73,-99
99,79,55,-381,-167,-11
107,87,57,-349,-183,204
114,102,69,-124,-292,449
105,122,75,-170,-179,430
110,-124,79,-132,-178,522
113,-104,76,-200,-76,490
118,-95,70,-122,-64,498
-126,-79,64,-118,-50,377
29,77,-122,-866,3230,-4055
14,-22,5,-389,3448,-5380
-77,35,34,-2928,4272,-4893
-102,-111,32,-1567,4245,-4447
-9,49,-30,-2714,4361,-3483
-72,11,79,-1393,2462,-634
111,-122,-59,-765,1815,787
105,-73,114,-804,454,2269
100,-102,90,-1786,-1455,1842
43,22,-100,258,-2777,1525
-46,-2,81,552,-1796,-1615
-87,101,95,1189,793,-3210
-77,-63,60,-598,1851,-3621
-97,42,96,391,3234,-554
-95,32,-43,-1036,2000,-86
40,54,120,-1712,397,1120
64,-40,-8,-901,-29,2159
2,-128,-31,-871,-887,2630
-88,-55,-95,-38,-2549,2478
78,-32,101,755,-2855,124
-88,67,-10,1118,-898,-2257
-80,-119,42,168,1178,-3571
109,56,21,945,1954,-910
83,-58,-56,232,853,-201
34,51,76,-210,-1015,9
19,85,-128,59,-3258,646
71,-77,-101,-109,-2731,3129
-16,-89,108,1073,-4547,3963
-4,9,-32,2128,-5314,5280
14,-117,-49,3673,-3987,4669
13,9,96,3185,-3019,4151
-15,97,-11,997,-3135,4714
45,-55,7,2767,518,2583
51,-35,51,839,-763,830
-24,89,58,-854,-610,-713
1,-122,3,-318,735,-871
-46,77,-30,-135,60,-501
-48,59,-58,205,12,203
-34,68,-90,55,251,-36
-18,84,-122,-174,243,-112
19,58,93,74,302,-284
28,52,86,-98,177,-183
33,56,73,-372,-12,12
45,42,68,-36,108,-105
56,48,58,-44,96,-137
80,42,50,-148,59,127
67,38,58,-360,-288,280
61,36,50,-135,-352,334
72,56,46,-122,33,424
76,77,47,-6,-91,518
-85,120,70,-3979,2404,-3412
-54,19,26,-837,3836,-7044
-111,24,39,-3609,4144,-6244
97,-104,96,-3811,3159,-5748
-110,82,-88,-2734,3088,-3423
19,31,-89,-1662,4166,-1262
71,-52,-103,-1959,1873,878
-127,-24,-81,-2058,318,2143
111,-36,105,-1747,-1899,2348
-52,-69,-26,231,-2976,2231
-47,-53,-16,1474,-1793,-735
-78,-46,-117,1249,692,-3238
-93,-14,79,-157,1103,-4427
25,64,80,-163,2806,-2077
-127,70,22,-565,2210,-530
57,49,-65,-1755,580,741
103,-106,53,-1481,-586,1934
92,50,64,-1606,-1183,2249
25,5,-48,-713,-2603,4294
-127,-78,127,-298,-2989,3124
-124,44,-63,1903,-138,-1891
-73,-71,15,322,-116,-4473
-53,-90,1,411,1319,-3502
65,-57,-24,594,1335,-188
23,-73,-46,1314,297,860
104,22,-86,43,-638,1429
113,59,63,83,-1420,2335
91,-81,43,583,-3489,4072
99,25,-34,1932,-5072,5864
49,-68,-118,2127,-4443,5407
119,-67,-105,1069,-4932,5233
110,112,-6,274,-4165,4555
-118,-92,-39,1601,-2827,3490
116,-109,-89,1233,-342,1669
25,104,94,-213,455,2
-53,3,38,551,1,-625
-60,-84,-32,49,637,-748
-71,113,-83,-37,619,-637
-64,115,-116,-560,202,-76
-36,83,105,-105,52,-127
-13,85,86,-118,115,-281
12,84,70,-258,107,-295
20,64,57,-190,147,-310
31,56,52,-262,-1,-70
28,67,51,-273,-205,67
39,77,47,-243,-119,149
40,98,42,-292,-161,229
41,102,36,-165,-182,307
45,115,37,-118,-244,441
54,-113,36,-201,-194,416
17,-53,119,-1857,5436,-5644
-90,4,-103,-1418,4096,-5654
-16,-13,33,-3189,4533,-4930
92,106,14,-3066,4681,-4201
88,-47,24,-2432,3906,-1948
90,31,7,-1584,2985,-368
-40,-37,-67,-1160,2056,1151
-20,41,-108,-1350,937,1782
7,-29,-117,-1856,-1833,1683
12,-95,-79,-40,-5152,1131
68,-59,70,357,-3402,-180
-111,56,94,1898,2799,-1767
-100,-70,54,-1045,1361,-4075
122,39,74,-70,2820,-1811
94,54,9,-24,1719,-225
-82,-118,77,-926,1515,356
15,-117,32,-385,359,2352
26,1,-41,-1317,-1064,2039
13,-96,110,-1225,-2528,2438
61,-118,35,394,-5097,1457
26,-11,-10,1107,-1109,-821
77,96,-35,385,-93,-3613
27,-92,-76,-956,85,-2952
70,97,-72,434,1891,-822
-71,-29,9,970,1391,333
-39,51,46,1172,475,661
-40,-104,-111,1385,-1235,2129
13,-99,38,731,-1405,2627
7,-121,-50,2045,-2683,3623
-2,-36,-11,2895,-5073,5668
-40,121,-87,1719,-6565,6634
-51,-93,-29,2429,-4371,3780
24,2,-118,327,-1806,2902
-26,-97,116,678,-205,1732
71,-6,110,2041,-227,540
16,-31,60,950,835,130
-35,-64,-3,-297,591,-498
-41,113,-46,-440,259,-886
-27,54,-89,-141,320,-644
-20,8,124,187,330,-511
2,10,104,8,301,-295
26,9,78,-313,147,-187
36,-2,72,-203,-111,-106
50,-3,65,-178,-76,39
50,2,62,-212,-124,159
57,9,61,-202,-152,257
63,22,58,-136,-155,392
58,33,63,-158,-207,450
65,51,57,-158,-87,529
68,65,53,-132,-95,538
-80,-61,66,-975,4754,-5208
40,-122,51,-1885,4130,-5916
-107,86,-1,-3271,4095,-5170
26,-72,32,-2737,3517,-4415
101,76,95,-2937,4108,-3483
93,69,76,-1505,3632,-1317
-26,-27,-6,-678,1915,1156
-46,40,-32,-942,349,1902
-46,-70,-49,-1625,-1896,2165
-74,-110,-46,62,-3956,2454
45,34,-8,159,-3399,-734
104,-55,82,-208,311,-4964
112,-23,14,-3003,1656,-4257
25,22,83,703,4711,246
115,118,111,-743,2036,864
-6,-37,80,-1415,694,1251
12,7,15,-1013,-505,1986
18,55,-44,-762,-1401,2251
-50,30,-52,158,-1494,3431
96,-101,-91,1126,-3070,1843
-120,47,5,1144,-1539,-3503
-103,-54,-17,-290,96,-3470
-13,-68,-28,853,1929,-1709
74,-37,-39,1591,1640,117
-54,111,-26,217,1618,-243
7,125,43,-43,640,-68
51,111,-103,320,-210,1626
88,76,27,852,-1474,3980
85,-75,4,1313,-4493,6061
-38,84,111,1948,-5989,6763
-21,19,-15,1268,-2916,4684
123,48,106,2345,-3339,4543
95,-31,-106,890,-2733,4523
84,72,96,749,-1075,3711
47,56,71,562,-1358,2392
33,60,103,85,-779,718
7,28,43,-118,866,-508
-42,-63,-66,-691,1493,-1742
-32,82,-118,-61,1034,-2097
-6,7,89,514,614,-1561
49,-9,60,111,449,-895
27,14,-125,-414,-672,500
-53,28,114,-797,-425,528
-12,18,84,-523,139,31
45,3,35,273,527,-46
69,19,35,233,-76,187
51,57,61,349,-582,666
45,51,77,705,-381,153
54,67,83,43,32,272
45,80,78,-394,-12,633
127,114,9,-1055,5980,-4674
-76,-125,84,665,3570,-6091
122,35,81,-3936,4506,-4987
-83,-122,-118,-2246,4049,-4179
-55,49,-67,-2316,3426,-2974
-18,-10,108,-1448,3501,-796
57,-97,23,-273,1756,1498
103,55,36,-1157,1029,1647
124,-74,43,-2442,-398,1466
-45,-90,79,-1157,-2652,1769
108,-79,-13,-489,-4942,-151
41,-12,96,1909,1034,-1005
85,44,-25,2,1908,-3947
-109,107,-11,-961,2314,-3731
62,81,10,-143,2907,-641
-82,21,22,-801,1799,360
26,76,-1,-1183,477,1899
70,-49,-64,-874,-837,2920
118,116,84,-1254,-1178,2969
68,48,120,-343,-5215,2768
-65,-93,-123,1079,-464,-415
102,33,12,535,-608,-3606
123,113,-57,-2096,851,-4817
-107,93,-30,253,3200,-1531
-124,-109,123,1091,2386,601
-49,50,67,-225,241,817
44,-111,122,211,-1472,2431
86,-57,48,1322,-1602,2595
74,-53,13,1168,-2538,2437
-35,10,0,604,-4724,4541
-81,90,-124,2308,-5884,5405
-38,27,-15,1562,-4648,4645
-83,26,-119,2070,-5037,4234
-48,-38,-47,1125,-3535,4500
-29,65,107,2435,-833,2775
107,49,34,2985,381,922
-46,-112,121,316,-1119,-20
-68,-11,77,-144,-24,-786
-54,-93,-11,-133,1252,-982
-62,111,-88,-412,1015,-1178
-39,54,125,232,788,-1194
-10,31,95,136,523,-1073
22,18,88,-280,89,-780
32,-15,67,-64,125,-680
49,-29,64,-95,7,-394
53,-29,65,-145,-162,87
54,-31,66,45,-125,471
51,8,74,-59,-296,853
58,33,82,-47,-279,1006
66,67,77,-129,-77,1026
-57,-121,64,-2610,4520,-4067
-18,20,-46,-1991,4462,-5210
31,-36,-90,-2854,6180,-5159
-91,-107,36,-2281,5786,-4720
-32,22,105,-2127,5709,-3547
-89,101,75,-1561,3239,-909
-120,-12,20,-1392,618,303
-109,18,5,-1501,389,951
-90,69,-6,-1276,-461,1383
-79,-50,-4,-1014,-3049,2582
-104,-115,-111,433,-3918,2076
-105,-120,55,963,-805,241
-121,82,48,1018,-842,-4106
-123,16,-5,-43,1339,-3779
59,-20,18,-161,3553,-2430
38,-4,29,194,3048,83
-47,51,-67,-1233,1230,276
11,-107,33,-1566,43,1143
17,5,-58,-1108,-1009,2302
13,-113,-56,-780,-1889,2982
-126,63,-49,-362,-2969,2345
82,79,-62,1104,-2400,995
-128,-44,-41,652,-2373,-2231
101,-9,-59,157,151,-3753
-27,29,-71,171,1624,-2538
5,-49,-51,519,1742,-240
20,-72,-78,-158,-13,242
119,63,-89,116,-1350,867
-115,91,-29,-155,-2024,1901
66,126,89,270,-3159,2827
-10,22,-111,849,-6500,4580
-32,-57,-83,3077,-8339,5537
99,-115,80,1947,-3839,3005
-65,115,83,1324,-5329,3329
-63,-100,27,1680,-3970,4020
-94,27,-72,742,-1321,1065
75,-69,119,3466,1813,-1648
-25,12,95,1502,1192,-2120
-31,-33,17,-2442,1269,-521
-83,-1,-96,250,656,-639
-58,-28,125,1878,666,-346
-35,57,110,16,162,76
-25,30,87,-71,-265,333
3,-23,71,733,-510,315
-44,-25,72,856,-1826,814
-73,70,103,-1361,-427,1009
-58,16,36,-324,116,425
-56,56,37,-464,-272,447
-36,76,36,-336,275,0
-5,83,10,-344,2058,-843
46,-45,-70,-629,5403,-4440
86,-42,-121,-1867,5024,-4010
-18,121,116,-1396,4513,-4143
-114,-121,89,-2609,5005,-3560
-81,-103,59,-1366,5483,-3041
-79,84,82,-1536,2759,-295
68,-20,32,-1333,294,1285
-106,60,32,-1236,2,1544
-71,-111,4,-1004,-1296,2114
5,-94,-43,-1134,-3580,2822
70,120,-72,-47,-3802,87
-123,96,85,1144,-1019,-1770
116,68,20,1559,2434,-3156
-68,-86,23,-244,2639,-3320
-60,80,58,184,3000,-1538
127,15,97,-1055,1933,-154
-71,79,-119,-1428,663,1059
-6,-48,26,-1309,-240,1615
-5,29,4,-1516,-1205,1931
-12,121,-57,-1248,-2713,2554
55,105,74,-305,-4231,1839
-77,-72,-12,928,-1405,300
110,-91,-17,514,148,-3799
-79,-88,-43,92,2064,-2702
-64,-73,-16,2354,1871,-229
-122,-41,-16,995,-124,147
-13,89,40,-330,-663,306
83,-117,87,441,-838,966
55,-92,29,1341,-2159,2215
3,-37,24,1293,-4098,3572
-27,-63,50,3241,-4248,4411
117,71,7,2666,-4902,5700
99,2,-33,2322,-3788,4711
-66,-32,18,1483,-802,3366
-122,111,-88,1231,-191,3260
91,48,84,893,-926,3195
39,117,91,-598,-1375,2042
-28,72,50,-692,-417,130
-32,-95,-22,63,849,-1443
-37,103,-49,31,653,-1175
-51,18,-84,270,178,-489
-26,4,-120,126,163,-171
-12,7,105,-112,56,1
4,17,78,-305,-183,140
9,41,69,-549,-201,196
7,43,56,-368,-225,46
12,70,62,-565,-370,170
15,72,56,-316,-309,310
9,84,63,-247,-611,501
23,96,59,-343,-441,543
121,-11,-84,-1180,3713,-5555
16,-121,-127,-1003,2586,-5973
-46,74,-80,-2940,3695,-5944
65,-30,-105,-3882,3453,-4843
-127,78,-69,-3142,3757,-3939
87,83,-54,-1758,3390,-1426
-65,-29,-77,-198,1448,551
-89,7,110,-875,1751,919
-104,21,98,-989,-258,2500
-59,86,90,-699,-1922,3076
102,-116,-28,-73,-5247,2788
119,-56,-2,-398,-2360,-998
86,-19,-36,1388,1346,-3732
123,8,-61,-1344,1255,-4516
-71,57,-34,-338,2649,-2694
-118,88,-32,597,2816,-829
-44,-75,-30,-1339,2539,399
-22,-121,0,-1214,1081,1426
0,-70,120,-1082,-543,2162
3,15,107,-1410,-1798,2714
-40,-84,104,-852,-3091,3640
100,54,-13,-107,-3751,2168
-87,98,-22,1800,197,-892
118,77,-32,599,-325,-4012
26,81,-57,543,989,-2910
107,-32,-69,990,1315,-971
-72,25,-63,1340,-213,352
9,70,-43,608,-865,788
53,62,9,1090,-787,1963
18,-5,-48,2253,-1514,3438
41,37,-65,2292,-3056,5973
-43,23,-94,2667,-5570,7974
50,11,0,2427,-1564,5166
-52,-71,111,1310,-960,3756
127,-20,75,695,-168,3026
35,-99,54,-1531,-676,3141
-44,77,36,-1709,-1012,2374
-45,26,20,-415,114,835
-50,-100,0,692,260,-830
-45,-117,-39,336,221,-717
-30,61,-110,2,523,-676
-21,18,104,164,577,-570
0,6,79,7,206,-218
12,19,51,-437,-10,-51
18,13,43,-336,-26,7
15,9,44,-240,-153,214
24,31,51,-304,-184,395
31,57,62,-323,-296,368
44,86,54,-355,-159,426
42,93,52,-344,-165,382
-119,42,23,-3935,3045,-4994
-102,107,-70,-1491,6492,-6807
-18,68,28,-1613,4277,-6420
115,89,-87,-3747,3997,-5627
103,-76,-3,-2634,4929,-4706
123,74,34,-3107,5097,-2602
-81,-56,31,-1226,2441,296
110,8,-24,-859,83,2155
-27,99,-96,-1442,-1170,2633
51,89,117,-1462,-3402,2902
-108,-101,102,-178,-4574,1030
-35,70,68,-1134,-824,-3946
24,-25,15,323,1199,-5119
81,96,0,321,3099,-2023
-91,-59,35,423,3203,-227
59,49,-107,-1307,1815,19
-66,116,-101,-1493,697,799
102,1,-33,-1509,33,1665
116,-53,-103,-1455,-2026,1379
54,-50,65,-703,-5342,1408
-22,114,71,921,-3781,95
43,-5,-22,2009,1697,-1493
100,66,-51,906,1484,-3417
-111,-31,-46,483,2468,-2753
28,-91,-7,119,1968,-340
-32,-67,68,668,813,1527
86,81,121,-107,78,1643
-79,-114,94,147,-694,2342
123,-81,25,515,-2063,3687
81,-35,-52,966,-3500,4869
-36,40,-12,2574,-6743,7078
-24,113,-99,2247,-4494,5992
-68,52,98,1770,-3460,5559
-105,-116,-92,140,-2141,4255
89,-61,-106,-996,-2202,2639
119,-15,-119,1043,-608,1779
38,-16,53,1551,802,78
-22,32,62,-118,139,-308
-37,-34,-16,-1492,551,-764
-38,87,-71,-20,826,-1069
-48,24,120,1027,792,-889
-28,65,111,9,382,-451
-12,55,86,-328,106,-253
16,13,61,178,58,-260
21,29,68,-59,-95,-64
30,36,65,-234,-210,26
26,32,64,35,-358,131
32,60,82,-83,-548,516
43,90,72,-219,-121,664
39,103,75,-147,-207,671
-105,-92,69,-1445,4270,-4749
33,-17,-18,273,4948,-5771
57,56,-113,-2882,5267,-6026
119,-24,31,-2172,4424,-5544
27,81,107,-1858,5297,-4737
-28,-19,-125,-2403,3477,-611
-125,-33,-127,-2245,3405,-16
63,-25,-94,-1101,-389,1884
-106,-115,-104,-1951,-1414,2337
111,-65,-44,-466,-4413,2745
113,101,114,293,-1938,90
81,80,93,-269,-2744,-5479
69,-126,2,-1255,3327,-3844
45,-83,40,1133,3870,-1302
41,-10,9,-483,2365,-91
-93,113,-19,-1683,1407,471
-16,-103,32,-1025,501,1701
31,21,-88,-881,-172,2452
9,121,-120,-1315,-1734,2473
-104,76,-88,-290,-3467,3194
-94,18,76,713,-2887,811
-115,65,12,1945,-625,-3769
-97,31,-52,-106,-355,-3332
87,13,-97,2001,2460,-631
22,-71,86,1537,455,474
46,46,-93,934,-1597,1578
40,101,10,462,-2106,3014
-73,124,-49,1455,-4030,5356
111,-55,-118,2698,-5823,7100
-9,-107,18,3011,-2233,5158
8,119,-112,1829,-2304,5066
-72,91,-83,1427,-2394,4576
103,-37,127,-515,-988,1982
31,49,108,711,273,413
-32,-32,45,916,798,-206
-54,-73,-11,-146,553,-439
-42,123,-64,85,480,-389
-25,67,-106,244,427,-460
-9,67,-124,-96,388,-231
-3,55,118,-145,79,-160
26,54,103,-285,-52,-84
43,54,99,-294,-29,-158
54,53,94,-368,-156,-142
60,57,93,-412,-144,-17
65,51,88,-224,-113,21
76,65,86,-303,-159,199
84,74,82,-200,-104,241
96,83,78,-42,-83,251
97,97,74,-181,-36,305
104,101,72,-81,-30,398
-44,-97,-75,228,5377,-4951
18,115,2,-855,6216,-5938
-13,-72,8,-1554,5106,-5394
108,1,113,-2574,5192,-5172
-99,-88,-28,-2397,5572,-4110
-121,-61,40,-1731,296,590
121,-69,15,-2581,1426,279
62,-46,61,-1207,234,1829
-84,127,-39,-1025,108,1424
-56,70,-22,-200,-2036,1479
63,122,124,1516,-2417,1336
-66,84,-112,1207,-1159,-2067
-108,-123,66,201,1501,-3981
-45,-125,68,-749,2477,-2500
0,-49,83,478,2331,558
-74,0,-26,-1416,879,439
36,72,-23,-1475,-75,1919
84,33,109,-1199,-1373,2207
-21,30,126,-839,-3309,1951
-42,91,-15,1140,-2238,1168
-81,-13,-51,663,-1814,-2452
124,9,-25,208,85,-2870
6,-104,-29,1770,2578,-1457
-38,50,-8,243,2040,-1103
-118,14,114,244,907,-453
56,-115,54,-114,-296,-282
76,-23,-96,420,-1260,760
52,-3,-9,799,-1797,2143
32,-56,-125,2250,-2829,3851
-61,-30,-34,3065,-5913,6260
-49,56,-59,4729,-5402,7078
100,78,117,2230,-700,4307
-11,-24,17,1181,-1989,4243
106,-61,-85,1188,-543,2183
39,62,-104,353,-629,2185
-7,4,100,-114,-752,1794
-34,-37,26,-231,-235,670
-48,-59,-24,-587,25,-46
-36,97,-88,-561,314,-812
-35,9,-119,377,368,-692
-51,-24,108,171,84,-411
-29,-12,78,-340,-78,-21
-14,-17,60,-255,-224,-229
-9,1,35,-491,-583,-3
-41,14,51,-166,-1171,296
-17,38,39,-317,-518,289
-43,50,26,-78,-746,371
-33,68,26,310,-210,421
-52,48,21,931,-225,426
-36,8,22,562,-560,-568
11,90,68,-1221,3885,-3397
-64,57,71,-271,4485,-5302
-57,0,111,170,6064,-5571
112,41,-93,-1124,4664,-5759
-52,-52,-125,-1986,4177,-4142
-24,-75,-79,-418,2674,-1835
66,71,14,-1603,2134,-889
-41,16,-81,-988,812,580
-77,5,119,-653,-603,1620
-86,127,-101,-949,-1584,2112
-87,37,-63,-540,-3664,2793
-71,-83,90,623,-5891,3322
-48,71,26,1307,2684,-3582
126,103,-33,-82,1363,-4801
72,55,-13,-544,2485,-2817
18,-95,-81,817,2027,462
102,29,-93,-513,1337,740
-75,-104,30,-1094,445,614
-36,-63,-116,-1141,-511,1356
-50,57,96,-525,-2271,3170
-11,114,31,-756,-3514,2570
32,-81,127,547,-1256,153
107,117,-31,-207,-695,-3380
-36,-65,-56,727,2181,-1812
-123,-84,-48,1175,1661,-945
13,111,31,-391,1014,-934
-83,22,62,-637,744,-182
-26,94,-6,-11,-348,1067
40,-80,-40,218,-1029,1553
34,-49,106,1067,-3143,2658
-20,-23,75,602,-6070,5368
-122,101,79,1424,-5341,5076
-82,20,7,2210,-3670,6048
-31,49,-13,-511,-1316,3274
92,127,-35,1708,-2811,4245
-101,40,-124,2281,-385,2589
104,90,109,2044,129,1893
-63,86,122,1492,-779,461
-64,102,-106,-1932,-452,-271
-19,-66,10,-1055,281,-613
3,88,-60,302,358,-905
30,41,-101,-107,187,-566
37,8,102,-456,224,-241
41,14,86,-342,47,-242
55,36,82,-316,-60,-19
73,55,90,43,-228,55
87,80,93,-90,-217,-45
77,103,109,-777,-522,-66
79,90,101,-705,-255,390
80,96,101,-16,-155,346
-80,-77,70,-1562,4214,-5304
-111,-22,115,-3117,6068,-6200
50,85,-85,-1026,3533,-3620
61,-74,-40,-502,3788,-2280
-52,-70,90,-434,2987,-1443
99,26,-56,-657,2090,-536
36,-118,44,-442,1175,594
3,-16,-55,-1259,-506,1653
3,127,-88,-1291,-1170,1411
-86,-123,-72,-161,-2277,1920
-119,-85,27,489,-1503,133
102,-11,65,647,-278,-2000
-125,-98,-11,319,1626,-2456
-33,14,2,581,2165,-1341
-46,66,-109,-481,1652,-182
76,94,-103,-948,877,412
-64,-122,-1,-841,177,1486
-44,-30,-36,-952,-634,1764
-55,64,-58,-767,-1662,2143
-106,-35,32,-95,-2311,2425
7,79,-84,1402,-1577,2090
-19,-126,-117,165,-1616,-1125
-20,-91,-52,779,289,-2451
88,52,-67,1714,647,-1332
28,76,64,732,358,-1172
-116,59,-109,450,-391,-603
-34,83,2,-437,-1297,863
-40,42,81,958,-2955,3215
-92,56,95,1267,-4337,4988
116,-63,-34,2773,-3575,5515
76,-53,-107,1253,-3373,5497
-95,-43,102,467,-298,3015
97,-53,109,-372,-376,2408
28,74,52,-1359,-592,1927
26,43,1,-1325,-868,1983
15,17,-6,-511,-1066,1098
32,12,-10,287,-148,-65
38,-48,-6,173,260,-812
40,121,-36,398,463,-670
32,77,-68,396,312,-219
68,71,-114,-115,486,-285
103,79,115,-41,488,-286
116,79,98,75,430,-234
-128,84,86,-47,368,-223
-115,84,87,36,109,135
-110,88,85,124,175,290
-114,111,121,-33,-171,415
-109,111,125,7,-410,515
-115,122,118,45,-678,636
-110,-127,-126,-163,-407,605
116,-109,84,-2278,4535,-3939
-14,-110,14,-2160,5131,-3724
100,102,-21,-1389,5095,-3991
-10,-5,-14,-1529,4787,-3423
115,97,-44,-1272,4763,-2661
126,104,-117,-442,2561,-821
-29,-103,-23,-1548,1837,787
-64,-31,-66,-1037,657,2450
-8,-117,-123,-1407,-205,2189
-17,25,127,-1197,-1902,2078
-66,-121,79,2172,-2235,2983
-122,-5,84,1377,-2314,-1203
123,62,24,-138,-1920,-2164
-122,1,-18,912,2147,-3405
-6,55,-9,-435,1856,-3365
82,-64,11,-953,2428,-1877
-78,-6,33,-1017,1668,188
-3,3,-117,-657,1619,2197
59,-77,-25,-777,1328,3078
16,-3,-68,-1785,-763,3060
-5,108,-121,-1188,-2331,4149
89,-49,76,-889,-3536,2804
123,-21,31,747,-2216,-1038
-117,-44,-67,-153,-2798,-2054
27,75,-47,757,1178,-2963
-69,0,-52,835,1416,-2710
-121,-126,24,2265,1060,-729
-8,-61,-5,411,-588,113
90,-44,72,248,-1305,1687
123,-62,-59,1879,-2045,3643
125,-22,-53,2182,-2330,5594
83,-89,79,1242,-4690,8016
82,-70,-106,3320,-3771,7469
-100,30,-79,2673,-352,3811
41,81,-11,-617,400,3675
-101,-29,30,-2472,-16,3777
37,-100,56,-653,-817,2728
-2,94,43,-614,-547,-480
-21,-38,-16,-362,697,-2327
-6,88,-76,-293,1072,-1827
-24,4,-124,470,463,-859
-7,6,90,80,138,-164
15,7,62,-255,271,31
18,11,41,-150,122,196
8,45,42,-228,-132,327
10,63,39,-232,-104,236
25,82,35,-285,-147,258
57,102,37,-311,-203,323
53,114,36,-184,-245,178
63,126,43,-361,-409,95
80,90,-39,-3608,-3072,2051
108,52,-37,-3025,2523,-582
-15,40,65,-346,4109,-4622
-117,68,-16,-2546,4480,-4603
-55,-84,-91,-2244,5156,-4658
91,101,-111,-2475,4940,-4337
120,45,-19,-2310,4103,-3457
99,-76,-40,-1681,2580,-1571
-91,81,-6,-1597,1935,-40
-128,-32,-15,-871,1673,835
93,-77,-27,-398,147,2214
-48,42,-55,-1105,-1226,3018
20,-30,-57,-1355,-3157,2883
-93,-47,112,618,-2845,1692
7,64,79,917,-377,-2499
-107,47,15,589,1577,-3920
-22,-125,42,459,2924,-2652
-13,-109,74,41,2580,-1430
-90,9,80,-1039,1609,-8
-20,45,117,-1372,576,987
17,-110,-15,-1331,-417,2070
76,21,-70,-1319,-1540,2274
104,-126,99,-1474,-3559,2940
-63,27,98,1380,-3793,3884
-70,-70,16,1455,-904,-1595
90,51,-22,796,16,-4384
-23,54,-47,178,890,-4424
39,-50,-34,1221,1885,-3336
-36,89,-124,-624,1547,-2580
-15,126,121,383,1022,-266
10,-30,-18,-221,459,254
-17,-70,98,1106,-1028,1290
-16,-118,-16,1595,-1489,3107
-59,-122,-82,1766,-2951,5863
77,-44,-107,1625,-6840,8523
111,29,-57,2990,-4209,6685
24,113,124,1952,-2059,5158
-90,98,-84,140,-2481,3890
-119,-76,95,-570,-1241,3355
92,-19,31,1230,-373,1642
18,-30,6,1746,-667,1247
-47,-16,-10,388,-820,524
-69,-63,-51,-581,-335,12
-99,113,-83,-307,-143,-340
-111,33,121,24,606,-757
-65,62,-116,-122,530,-353
-76,19,112,324,-264,-101
-53,37,92,639,149,439
-60,-12,72,-357,-477,278
-34,-8,24,-724,138,-130
-6,63,7,-925,4607,-4907
14,-90,-111,-1598,4506,-5026
-3,82,-122,-1988,4125,-4659
-128,26,-70,-2229,4379,-4123
-121,123,-4,-1572,4928,-4121
98,-22,-65,-894,3070,-1443
-70,-97,-128,-1178,1405,1018
-77,-21,122,-1228,563,1582
-27,127,123,-1654,-1023,1588
-84,-91,-86,-390,-4054,2437
-71,-111,57,645,-1480,28
78,-16,85,727,-1162,-3519
127,12,-6,253,2993,-2858
-42,25,25,399,2476,-2004
69,101,-39,-960,2012,-260
-67,63,-71,-1465,1134,290
62,76,-71,-1253,-95,2075
99,-39,-102,-1115,-1137,3315
-128,-123,59,-534,-2115,4383
-102,65,118,-395,-5143,3344
-102,-78,88,377,-2003,-1798
52,-101,-44,950,-2358,-3561
-31,59,-97,329,967,-4641
33,-104,-91,1245,1768,-2826
-46,69,-111,15,2136,-1598
66,32,57,635,1856,-217
41,65,-46,327,338,1550
66,56,1,1882,-313,3356
56,114,-45,595,-1394,4176
-16,-74,-21,781,-4277,6484
-53,21,32,1440,-5423,8026
-13,-80,-88,2875,-2627,5732
-90,-124,82,2865,-3289,5169
-108,11,37,320,-1181,3342
87,-95,-16,-2865,899,2612
-2,-1,-5,-1326,-363,2020
10,-68,-8,1717,-922,1240
-21,6,-15,187,29,-397
-38,-47,-72,-1497,978,-1399
-41,55,119,-329,724,-1530
-42,33,99,585,192,-921
-27,43,80,-27,128,-510
-10,28,42,-391,209,-413
5,24,29,-277,-8,-73
13,25,24,-243,-112,43
17,22,21,-19,-100,83
22,27,21,84,-203,151
31,35,15,114,-179,287
31,61,23,-116,-246,663
30,77,23,-98,-267,820
-88,-71,10,-3705,4545,-465
50,120,55,547,3916,-5519
-43,-127,-27,-2466,4757,-5738
-62,58,20,-3117,4013,-5030
-3,47,-97,-2493,3548,-3963
3,-115,2,-1423,4305,-3406
-7,-46,-17,-866,2732,-1079
-126,95,-91,-730,867,1927
-53,-40,-117,-541,-560,2871
9,-101,-124,-1758,-1580,1831
-76,31,71,-774,-2632,1299
-61,-20,-123,-396,243,-1551
-85,-47,96,2420,1769,-2597
-76,-14,81,-26,1606,-4064
-102,54,84,-111,1438,-2366
120,17,-121,-604,965,44
40,-71,94,-940,613,2402
68,80,-14,-429,-285,3360
97,41,85,-1298,-1889,2963
13,-38,-6,-1862,-4380,3365
71,8,100,-194,-4636,2506
19,-53,-6,1924,-711,-2807
-43,45,-95,-584,77,-4498
-43,-121,-94,289,1848,-4460
-74,-121,-63,-110,3695,-2204
-12,30,88,419,3127,-385
44,42,95,641,1649,721
77,84,-54,932,323,2310
110,94,31,822,-434,2923
109,-117,8,-684,-2310,4517
70,-79,23,212,-5490,7303
-9,63,-85,302,-7050,7262
-102,-76,-88,2810,-2637,5042
-110,-45,-41,340,-1520,4062
-39,86,-22,-916,-1836,3433
77,-102,-90,260,-1018,2158
2,76,107,574,-472,1524
-4,78,61,11,-105,552
-36,32,30,-1044,7,-786
-33,-66,-53,-1174,811,-1364
-10,109,124,-312,1038,-1547
28,64,55,124,560,-1248
58,28,16,350,465,-906
85,10,5,134,180,-442
76,17,25,-210,-248,-182
81,27,36,-364,-307,20
72,50,57,-442,-446,360
61,67,59,-350,-408,572
73,96,55,-164,-339,845
82,124,67,-188,-483,994
114,114,-65,-1667,3507,-3768
-113,99,-108,-1999,4829,-4719
31,-39,72,-824,6046,-4742
-43,-82,68,-1886,6332,-4459
-7,80,-127,-2461,5349,-4116
-111,105,86,-1119,3323,-1688
-27,9,-11,-838,1380,208
-77,27,-57,-1184,648,780
-120,107,-115,-1854,-1229,1252
-44,-64,-99,-1823,-2871,1843
-123,-122,-33,130,-3992,3054
6,43,36,407,-1165,-709
127,-50,56,1034,331,-4786
111,17,26,-671,2661,-3611
66,3,59,806,2877,-291
62,-5,-95,-891,1836,636
-92,-125,-40,-1659,731,846
-14,-45,85,-1573,98,1555
12,-5,-33,-1279,-1074,2283
-5,83,-79,-1250,-2440,3043
103,-91,13,-1339,-3906,2744
20,-95,-128,352,-2389,-1033
110,78,-19,1477,-400,-4747
-78,-73,-50,347,1795,-3566
-42,37,-34,1496,1921,-2121
-124,1,97,400,1675,-361
-13,57,-128,531,777,182
-13,-120,17,572,-373,667
4,-107,93,1917,-504,2593
-39,-112,-40,1772,-1714,3643
-69,-110,24,3795,-3934,6593
-99,18,-127,1854,-3483,7376
112,122,-64,2553,-3047,5944
-127,47,-31,2125,-2700,5036
72,-17,26,849,-1799,3103
125,-89,112,-1515,-254,3442
68,-7,11,-239,-5,2697
16,-39,35,2360,-67,2156
-35,29,76,-354,-337,-255
-94,-41,35,-906,314,-1585
-57,108,-53,-377,867,-1491
37,35,125,267,712,-761
-95,24,89,-41,-331,-181
-86,37,111,-1119,-281,364
-28,62,52,-1492,42,342
1,47,9,-216,41,-296
10,26,2,506,73,-753
0,45,24,-51,-287,-640
10,18,31,-182,-91,-420
15,-5,27,166,-100,27
-61,31,-6,-1050,4017,-3401
101,17,76,-1542,5417,-4567
-114,21,89,-1769,5783,-4496
40,36,-6,-2629,4450,-4088
68,16,99,-1916,3511,-3157
108,-19,-128,-2095,3490,-2080
102,89,-110,-1471,3356,-1051
14,-72,-71,-2755,3129,-416
1,-124,33,-2174,2923,-591
20,19,3,-159,382,2025
99,61,-66,-279,-1293,2920
-116,-13,36,-1148,-3384,4188
-22,64,25,105,-2553,1857
-37,-93,82,309,-1211,-3057
-101,-108,47,-245,1090,-3407
-51,-14,41,569,2454,-2740
-73,32,56,-365,1693,-1558
-97,110,-11,-1292,840,-241
-64,86,88,-1261,197,964
-46,106,-11,-730,-15,2008
-109,-69,-97,-1266,-1088,2555
-78,95,-74,-1157,-2426,3342
-122,105,66,53,-2619,2927
65,-8,-124,-140,-1931,-783
-110,-90,-4,979,254,-2015
-91,-63,-27,988,1212,-3284
-87,39,-8,448,1963,-3148
63,-1,-55,1257,1796,-1708
-65,0,-13,1489,1371,-1059
89,-89,74,1885,2324,-1585
106,48,58,160,2092,350
42,-42,-71,1052,457,1992
-90,-62,-75,413,-2017,4410
61,-29,-52,795,-3257,6258
82,113,-17,884,-3334,6944
14,31,68,914,-3277,6499
-26,-114,116,1383,-3088,6198
-86,91,-118,-752,-2915,4432
-83,86,-19,399,-654,2203
-71,52,29,573,-618,1668
-32,27,40,-439,52,1796
-25,12,-20,411,19,1442
-68,30,-29,-101,-275,279
-90,-39,-45,-989,-1405,-397
-67,-37,-113,-2115,-984,150
-47,42,74,-145,192,-471
-50,-11,75,289,36,-237
-33,15,61,-518,17,19
3,-35,34,275,477,-169
-4,2,41,135,373,-155
81,-104,-21,-766,3280,-5439
-125,-66,-53,-1679,3625,-6115
31,-60,6,-2722,3265,-5195
4,64,-7,-1803,2552,-3716
-7,-63,-65,-1034,1849,-2401
81,-55,-53,-1963,1360,-1422
71,119,-3,-1806,2160,-1078
61,-23,-21,-1568,2853,-4
55,-72,-41,-632,-128,2572
-99,76,-108,-1685,-1310,2820
-25,-12,-114,-1649,-3743,3293
17,53,-72,-770,-4482,3657
0,-65,118,1463,-828,510
-87,93,-30,-556,-1531,-1207
-94,-115,-82,-238,-46,-3145
-39,-89,-85,-535,1448,-4363
15,60,-44,-599,3243,-3155
114,94,-65,-386,2419,-931
-93,59,-82,-1458,1239,-16
-38,91,27,-1346,833,1159
-18,-98,-75,-755,81,2204
-35,-13,123,-1375,-1500,2451
-50,101,-93,-1184,-2704,2569
-68,-101,18,529,-2820,4478
11,-14,20,603,-2143,-716
92,-60,-23,1180,-138,-2099
-123,-45,-42,427,1054,-3001
20,-90,-34,1055,1948,-1618
4,40,-68,905,1939,-1344
-45,23,-91,686,734,-1122
52,-97,75,130,-260,7
-107,-86,-68,3275,234,872
104,-75,94,1886,-795,2356
12,-115,-15,1480,-2493,4747
-28,123,89,2195,-4780,7855
3,84,-40,3285,-4008,8484
-76,-21,-44,3728,-258,5423
-66,59,47,231,489,4181
-77,-73,53,-69,-474,5039
126,93,5,792,-999,4030
-29,-59,52,-1214,-1201,1892
-116,121,-5,-1434,18,-398
-125,-62,-53,-355,1041,-1671
-122,118,-71,441,729,-1520
-109,100,-97,318,375,-987
-49,91,125,-751,59,-868
5,52,84,-704,121,-918
7,18,72,-616,-122,-911
22,0,76,-988,-235,-457
10,-8,67,-615,-277,14
-90,-27,-18,-1349,4362,-5175
-57,-28,-43,-1127,5833,-6191
-50,-105,-76,-2977,4288,-4953
9,-63,-108,-2978,4096,-4090
52,46,111,-1425,3604,-2444
70,107,61,-899,2613,-1197
-49,39,54,-1496,1477,-308
-77,-47,-21,-928,206,1303
-54,26,-58,-983,-1591,2982
-36,-87,-68,-1211,-2960,2667
9,117,-60,372,-2724,2366
-84,41,41,258,-1197,-1220
-100,-77,60,413,829,-3743
-87,-67,30,777,1814,-3252
51,110,44,-803,1893,-3196
127,-4,-50,-685,2336,-455
-53,-7,-3,-955,1577,596
73,107,24,-659,1047,2034
88,-24,-30,-911,-102,2472
55,73,-111,-1132,-1321,2195
-120,-50,19,-282,-3335,3875
-62,37,14,-521,-3400,1453
-106,121,57,614,-683,-2072
-84,121,2,973,278,-3419
35,-15,-90,166,1301,-1217
52,-47,-45,1930,1108,916
-109,61,-121,704,-190,281
-4,109,2,295,-891,808
29,127,111,1508,-1591,2716
-47,-113,-109,1603,-3018,4309
110,-119,-113,2785,-4419,6321
-83,79,-100,2147,-1989,5898
-114,-40,-50,2070,-1782,5055
78,90,35,358,-1796,4602
38,32,24,1555,-1528,2905
-39,-98,59,-39,-107,1302
-62,126,48,-1493,1068,1354
124,66,88,-563,-762,1554
-110,-53,16,1910,-338,187
-75,-43,-9,374,-34,-571
-38,-110,-74,-871,97,-1027
-42,74,-112,-76,-159,-820
-37,18,109,48,-517,-806
3,28,73,-747,-165,-581
50,16,46,-749,211,-339
22,-8,7,-320,7,-72
8,-5,12,-611,-348,419
15,11,15,-965,-452,846
29,39,35,-314,-822,2397
-29,-7,21,-314,-575,1140
-45,-65,33,877,3147,-5368
84,89,21,2444,4818,-5740
-99,-42,0,439,2842,-6194
-98,101,-14,-4104,2174,-5536
-15,74,11,-2666,2516,-4935
18,-56,57,-3055,2635,-3494
10,80,-12,-1947,2124,-1214
-83,33,-90,-1878,1558,753
-115,62,-119,-1665,672,1807
-103,72,108,-1563,-1183,2691
-113,25,127,-1593,-3839,4255
-28,-42,-85,480,-1407,472
-102,39,121,895,-643,-3740
114,-45,42,-710,826,-4560
-13,-13,38,343,2280,-2676
-59,-95,35,-319,2011,-994
101,-2,25,-1029,1157,692
-20,110,119,-1011,869,2206
30,-10,-50,-790,-11,2666
-30,-47,88,-1986,-2424,2548
91,-97,-88,-935,-3843,2140
-26,68,-39,164,-2373,-1154
102,-32,-22,336,-2126,-3622
119,98,-69,-459,1200,-3507
-124,65,-56,1117,2617,-1923
69,50,-59,1228,2151,-385
-52,119,-85,873,533,156
70,-120,86,1357,-271,933
47,106,-54,3043,-1121,2437
38,-64,120,1256,-1544,3678
-41,-75,-118,1858,-3209,5183
116,6,54,2850,-5719,8335
-80,-22,-91,2369,-2247,4963
-17,-47,118,1655,-2681,4911
-128,-85,-47,-519,-3162,4896
118,19,101,1999,-289,1942
81,19,49,1611,1019,1093
-13,49,4,802,283,1055
-64,-37,-16,-695,-88,-185
-65,94,-53,-166,-100,-1109
-67,45,-101,162,377,-738
-76,48,-114,-449,125,-480
-60,34,113,-586,-1,-265
-14,18,77,-456,185,-510
8,18,60,-170,198,-476
-14,9,51,-121,24,-494
0,7,50,-267,-76,-375
66,-8,25,39,143,53
54,16,31,61,-117,492
-3,20,32,151,-472,494
99,36,56,-1635,4223,-4156
104,-1,-28,281,6382,-5446
-94,17,-128,-2272,6899,-5422
5,13,-4,-2065,6158,-4164
19,-56,60,-1240,6470,-3745
33,3,40,-326,3147,-658
-86,-109,127,-1367,1590,670
-87,32,-101,-1809,-523,2009
-3,110,-9,-989,-1145,1913
-49,-35,25,523,-2026,3349
-94,-81,20,151,-2858,-950
-104,-57,127,703,67,-3313
-98,-17,74,721,2029,-3802
27,51,71,42,2612,-2093
33,-56,-20,-84,1931,500
-76,34,-45,-1124,1012,986
21,-97,-14,-1292,-218,1689
94,86,103,-1424,-1383,2134
5,55,99,-252,-2622,2974
44,-116,20,680,-2525,1084
90,124,-3,109,-1987,-3154
-113,-28,-10,137,957,-3573
38,60,-14,1372,1960,-1240
82,32,-107,1267,1788,245
-12,-88,120,-108,339,344
59,-56,-123,-23,-1283,976
56,-85,13,558,-2723,2428
68,-104,113,1356,-2679,3936
0,-89,-41,2508,-5778,6701
-100,-128,-7,2207,-5876,7277
38,102,-49,1295,-2077,4831
-16,-82,-14,1002,-2936,4755
-76,28,-92,799,-2320,3023
68,116,94,395,409,1440
-1,59,31,-198,537,-307
-57,-12,-20,-1093,105,-757
-66,127,-69,356,376,-426
-83,86,-107,352,435,-131
-59,-125,119,-602,42,296
-15,113,91,-374,-47,-55
33,118,76,-420,64,-402
41,107,56,-408,71,-549
24,105,50,-570,22,-458
26,85,32,-341,-11,-233
32,104,32,-417,-125,315
40,114,32,-189,-187,403
56,126,27,49,-56,365
60,-114,41,-173,-119,353
65,-125,36,2,-33,304
115,-117,34,8,-49,549
64,-124,90,-1855,3915,-3636
4,73,120,-1775,4649,-4873
-61,24,73,-2452,5981,-4942
-109,-44,104,-2207,5332,-4196
115,-21,101,-1804,3473,-3022
-98,72,82,-1460,2541,-1188
22,10,55,-1979,1564,287
-8,-59,-15,-777,848,1550
14,21,-40,-852,-663,2363
112,-50,127,-714,-2593,3417
101,41,-127,-514,-5259,1808
-76,79,108,859,1047,-1077
120,-52,49,860,1183,-4857
16,-124,42,-775,2603,-3811
71,46,91,29,2765,-1591
-63,45,-72,-1081,1839,-42
26,76,117,-1832,766,1345
99,-101,-10,-977,-164,2280
101,49,-66,-1459,-1600,2382
65,11,107,-1023,-4260,3577
-31,-112,-53,369,-3683,1377
94,30,71,1219,15,-3741
-101,-41,-20,486,1750,-3789
96,121,-1,840,2210,-2124
-87,-52,-7,832,1531,-844
61,90,-46,285,1084,-501
-114,105,-62,649,205,707
-110,-76,17,1232,-1055,2728
103,-76,-7,993,-2928,3964
61,23,12,660,-5176,6521
-85,82,-117,3615,-6334,7582
-33,41,101,2430,-2765,6077
98,102,104,-1899,-4859,5437
98,125,-76,-457,-1702,3026
-87,-26,116,1547,337,2326
71,95,98,638,-534,1288
2,90,53,-2117,221,-996
-18,105,-77,-245,1457,-1848
-53,-23,125,1663,635,-822
-54,58,110,39,-153,188
-17,72,53,-1213,-29,-19
16,28,30,-113,57,122
12,51,39,-122,-133,21
22,72,53,-260,-100,69
26,66,50,99,-157,23
34,69,54,287,-104,179
33,112,61,-525,-203,212
47,109,52,-336,-118,146
52,118,54,-177,-162,141
63,-125,48,-259,60,191
14,51,116,-2164,4521,-6321
-8,100,105,-2475,5516,-5775
-45,-101,-119,-1711,5768,-5262
77,120,122,-1915,3854,-3739
51,-41,62,-1754,2842,-2125
-122,83,-91,-2111,2120,-1379
43,-49,-106,-1828,125,1015
88,-124,82,-1026,-2359,2997
1,-122,-82,200,-2830,2173
-59,-60,118,1193,-2248,-81
111,-37,114,1686,1026,-2070
127,-101,56,-127,2235,-3288
79,113,69,70,2684,-813
100,-1,-41,-1039,1513,413
89,124,77,-1796,130,1449
127,24,-73,-1441,-1076,2074
54,-3,111,-1410,-2646,2285
-40,-28,-43,-301,-3860,2464
-12,11,-88,857,-2418,84
91,4,-33,1523,642,-2687
-122,66,-49,527,1842,-3468
-84,107,-18,604,2438,-1845
-37,-26,87,883,1382,-243
-51,36,-31,698,-188,1044
24,-114,9,998,-1583,2885
-99,-93,1,1740,-3907,3814
126,20,-100,972,-4519,6254
57,-123,-57,3536,-7467,8259
127,51,-122,1772,-2772,4844
26,-10,-59,188,-572,2473
113,28,-35,-881,-2334,2779
26,42,-101,53,-826,2393
13,-35,95,-818,206,478
9,-109,-4,129,807,-418
-26,111,-101,-213,489,-425
-14,126,115,-640,274,183
-3,115,83,-348,91,170
23,125,55,-349,237,118
35,118,45,7,114,-116
57,-124,45,-328,29,-151
57,117,51,-153,-170,-85
69,114,59,-245,-85,32
76,108,62,-62,-146,88
85,120,65,-89,-131,218
92,-122,64,-229,-158,193
102,-119,58,-223,-112,247
101,-107,57,-236,-116,294
107,-104,49,-160,-84,303
113,-84,41,-288,-62,311
119,-90,35,-46,-111,299
25,54,118,-2900,3791,-4107
21,-115,69,-1179,5285,-4802
-42,125,29,-1722,5613,-4625
-59,20,-3,-1321,4958,-4031
-37,126,-3,-1758,3158,-2846
36,-82,-118,-1330,3037,-1670
54,4,-9,-1242,2589,-324
-11,-59,-104,-730,471,1496
-13,26,71,-1324,-1183,2158
-20,-47,62,-1565,-3576,2129
72,101,-24,-229,-3214,518
-95,19,-58,2378,1045,-878
-94,-20,54,-668,970,-4430
-42,119,63,-577,2465,-2446
12,-95,67,162,2389,519
-71,65,24,-1287,1357,889
34,-91,26,-1576,155,1400
85,30,-122,-1065,-857,2468
76,-73,108,-1188,-2838,2468
66,-36,82,-1338,-6023,1077
95,-77,110,1501,-3198,-85
39,89,-24,2272,1652,-2777
-117,-117,-56,92,1601,-4194
-33,-110,-32,442,2848,-2261
13,119,-41,932,2420,-143
-113,-2,-90,410,1770,200
-75,-118,-112,271,400,1536
120,-74,93,454,-1786,2434
114,-20,-13,-121,-2600,3931
-44,-17,67,1899,-6309,6732
-86,104,-22,1849,-4621,7148
18,-48,51,1996,-2612,5335
-41,74,-85,-294,-3546,5711
-86,61,55,742,-2548,3758
-20,-6,15,1056,-235,3396
-115,107,55,189,-632,2357
-7,81,67,20,-948,-28
-35,-46,25,32,702,-1417
-38,-122,-36,-206,1703,-1363
-80,25,-95,378,1234,-1198
-1,-25,91,504,747,-544
88,-5,64,-118,268,-396
45,-41,48,204,-57,-543
37,-42,60,-7,83,-316
47,-32,83,-105,-249,252
36,4,105,-107,-427,697
47,56,118,-526,-570,577
71,68,101,-454,-289,418
86,80,96,-41,-266,424
22,73,70,143,-129,146
-89,116,-53,-2859,1947,-3789
123,123,5,-1742,4474,-6200
-18,32,112,-3927,5325,-5343
-35,-51,-54,-2709,4273,-3851
71,-20,38,-1029,2744,-2490
-10,124,-14,-2110,3111,-2204
124,-104,-104,-1642,2886,-672
-14,-72,-17,-464,1274,1359
4,-27,-110,-612,-208,2471
31,95,127,-1416,-1805,2686
49,-79,-122,-795,-3462,2893
34,104,-56,-248,-2067,-746
98,-18,73,504,419,-4371
-124,68,12,-1284,3043,-4432
80,10,59,648,3204,-1744
78,117,-26,-297,2206,-350
-69,-108,-47,-1209,836,799
47,-107,29,-1071,-71,2353
-119,-3,-78,-679,-645,3085
103,-97,-104,-1422,-3390,3601
-15,39,80,-391,-4094,2477
61,10,-103,562,-2484,-1269
99,-106,-61,1027,-1229,-2705
-39,1,-90,1767,1637,-2293
-54,19,-70,2081,1761,-1994
105,-55,-114,23,466,-1806
52,96,82,19,-295,-78
71,81,-98,776,-985,1956
46,34,15,2388,-2171,4622
-29,71,69,2003,-3492,6382
86,51,16,2612,-4142,7842
-69,-17,22,2470,-533,4707
0,48,36,1939,84,3547
74,-95,3,-1353,-624,2340
31,36,13,-1288,-1388,2645
-9,-5,27,-1382,-1147,1858
-3,-78,-39,291,99,335
-7,-107,-47,458,521,-538
4,116,-80,-140,378,-717
23,56,-114,-101,248,-550
30,5,115,118,114,-201
48,22,82,-268,79,-6
73,26,63,-381,80,-179
86,26,37,-36,-7,-277
91,31,42,-275,-119,-279
86,29,53,-302,-253,125
70,26,61,-137,-272,403
89,63,69,-331,-225,510
105,84,66,-339,-292,506
112,111,66,-299,-248,473
-112,83,-9,-2008,5127,-4216
26,-55,70,-1280,5323,-4934
83,-45,70,-2638,5655,-4724
-78,125,-72,-1952,5161,-3913
-115,-58,-46,-1720,3059,-2518
25,-77,91,-2701,1117,270
-2,-45,-4,-1294,-113,2287
40,5,-33,-992,-310,2355
76,-1,-56,-970,-1578,1886
-19,-52,74,411,-2720,1208
100,15,-106,684,-1856,-943
-75,-66,102,446,549,-3219
-53,37,82,789,2704,-2296
-39,-120,115,580,2858,-1041
-124,7,-35,-714,1816,-107
31,-73,92,-1338,349,1648
80,-114,46,-1592,-681,1951
24,97,25,-1668,-1310,1750
-125,57,52,-679,-2742,1596
-98,-8,11,1022,-2183,1103
-38,-78,7,929,-1749,-829
-60,-73,-6,-444,-468,-3277
-78,5,-32,325,2320,-2689
99,-52,-2,1319,2540,-972
-70,19,13,841,1527,-269
-1,96,35,793,239,382
34,-105,116,1632,-1038,1403
11,-60,69,700,-2212,2898
-103,-62,-122,566,-5043,4328
125,-57,124,1404,-4649,5394
-80,32,-55,2915,-3305,5256
-96,9,-123,383,-4004,4883
-75,-5,-96,-565,-3520,3438
94,115,-51,-1863,-2799,2720
103,-15,73,-230,-1768,2217
-117,-119,82,2863,-851,1598
17,-16,-2,1381,258,-289
23,-6,-4,-244,497,-617
-5,-126,-69,-315,631,-1227
-4,71,-104,395,721,-1076
6,54,118,220,669,-906
26,43,89,-182,396,-638
38,34,77,-311,163,-263
49,25,69,-207,-38,-87
72,28,58,26,-32,142
68,36,49,49,4,75
84,44,36,62,45,319
80,44,35,242,-178,542
82,64,48,255,-334,735
86,88,58,128,-271,713
23,-126,-71,-2301,3826,-5750
-94,-24,-53,-1171,4830,-7168
86,-59,-65,-2672,5915,-6494
-60,31,-35,-2391,4199,-5270
-117,102,-24,-2722,2532,-3447
-55,-83,-114,-1674,2579,-1385
6,-80,-79,-1017,922,865
20,-66,114,-841,-268,2419
25,72,105,-1348,-1541,2844
-5,-118,-127,-161,-3536,2543
-45,23,-108,421,-1791,-586
-118,-39,84,1602,19,-3165
122,102,29,-560,2412,-3532
20,50,52,557,2922,-1643
-113,47,-107,-628,1920,-87
24,-14,103,-1286,712,1230
92,60,-69,-1123,-364,2350
58,55,125,-1419,-1620,2502
-7,-29,125,-1271,-3592,2485
-11,34,-73,-161,-2950,1713
98,-108,33,1296,-1298,-2983
115,-9,-57,209,-152,-5424
-4,92,-63,629,2103,-3346
29,93,-38,632,2640,-1276
-23,16,-93,134,2422,-55
85,89,-112,336,1464,1107
92,-73,-21,292,407,1406
77,-73,100,840,-342,2191
61,-86,-83,1238,-1395,3711
-78,-27,45,1223,-4600,6555
-107,10,83,2189,-3647,6579
-81,-54,-33,2310,-2337,6364
75,-89,115,-10,-4336,6810
65,48,-70,-682,-1688,3113
99,76,98,-576,680,2942
118,-13,59,1477,-1340,3566
68,-77,111,-1133,-1764,2730
-5,52,30,-981,449,-1265
-21,-107,-24,-652,1608,-2279
-36,91,-75,-113,410,-746
-52,6,-128,827,-90,-193
-15,23,98,148,282,-34
-4,43,57,-324,-8,32
6,36,32,220,-472,85
5,45,39,-228,-1186,783
-37,53,21,-918,-615,516
-21,66,13,-550,-329,721
-26,81,15,-464,-430,538
-7,108,26,-280,-229,347
1,113,18,-86,65,-24
-7,-42,91,-758,4191,-4089
-45,-64,86,-1273,5005,-5146
45,80,98,-1405,5398,-4031
-24,17,55,-2045,5068,-3309
68,101,74,-1755,4051,-1989
-48,113,-34,-1012,3114,-727
43,-61,73,-1330,1518,1133
41,-63,-45,-953,352,2037
74,-112,67,-1708,-1590,2099
93,-108,102,-980,-3751,1404
-61,-78,109,3605,-1295,2053
-128,-6,119,275,-1630,-2727
-108,114,3,318,1859,-3090
-25,83,23,923,2481,-1825
80,53,46,-155,2529,-889
-74,-17,-2,-1442,1324,220
32,-3,-6,-1494,87,2056
-117,-68,124,-1029,-638,2708
53,-117,101,-2117,-3073,2539
-27,15,89,-368,-3716,2461
-128,83,-61,938,-1676,-1414
-59,62,-37,517,-965,-3389
38,49,-68,396,1176,-3450
-63,-23,-53,1393,2389,-2509
98,22,-40,969,2464,-1270
-54,-49,-57,609,1718,142
-13,31,61,677,433,1018
59,116,-97,1084,-416,1952
100,-84,18,644,-1624,3278
-23,-25,61,250,-4510,4396
-63,43,-121,971,-4052,6223
-55,101,-28,1709,-2606,5765
90,37,111,168,-4311,6440
114,-59,-117,3,-2743,4845
-25,96,17,-768,290,2479
-88,68,29,19,-532,2154
63,91,49,-10,-1426,1295
0,69,2,-996,-126,-602
2,-34,-48,-1250,489,-1101
-21,113,-93,-484,73,-518
-36,48,114,569,231,-167
-22,54,80,121,135,132
-5,73,54,-356,-20,234
23,96,25,-344,237,161
48,115,22,-686,-53,205
49,102,15,93,-99,227
41,-126,21,-421,-65,213
50,-128,23,-268,-123,230
66,-110,30,-375,-207,229
72,-98,36,-292,-231,250
-21,-95,-67,-1253,5209,-4374
92,83,-38,-952,4179,-5042
-70,95,76,-4190,4974,-4305
89,-17,68,-2884,4603,-3954
-97,38,-121,-2276,5541,-3294
-115,92,-102,-1605,3452,-1639
-59,-113,94,-1610,1397,401
-32,-50,4,-1078,-77,2131
-24,-123,-51,-949,-1827,2862
7,-35,-19,-666,-3315,1654
-61,67,-59,1415,-2146,-105
-111,-113,-102,1204,787,-4580
106,0,90,-685,1686,-5036
-29,-113,103,469,4066,-1258
27,1,113,-435,2605,80
8,98,18,-1639,1247,876
47,-51,99,-1158,-67,1870
51,-123,-5,-1426,-1148,1849
-19,-35,-68,-806,-2737,2659
57,-56,33,360,-2941,2776
-97,94,25,1780,-2418,-580
-98,-15,17,856,-109,-4156
-99,108,-2,908,2276,-3056
-81,-114,32,1425,3192,-628
-128,30,-26,688,2286,-561
-17,-56,-17,-327,1087,77
59,1,16,340,-280,1277
97,-47,-102,1026,-1089,2498
104,-95,13,1109,-1480,3517
-70,-53,117,1108,-4878,6283
64,-18,-74,2541,-3908,7161
71,-12,114,144,-2245,6223
-65,-105,-38,1862,-4225,6736
54,79,-59,-371,522,2100
19,-107,-88,-553,956,2253
-21,-10,43,462,-986,3331
-13,101,95,-1205,-2285,3169
6,65,22,-1523,-636,960
-16,-124,-16,295,539,-1827
-17,120,-30,425,350,-1415
-10,106,-69,-148,248,-799
0,59,125,-296,65,-473
12,54,96,-227,106,-59
32,70,83,-278,-86,193
50,84,76,-313,-161,188
54,96,87,-435,-261,192
63,118,111,-521,-362,336
88,-75,123,-725,-536,374
100,-56,116,-320,-828,-354
81,-79,63,92,-544,-705
-104,-32,112,-709,5428,-4233
-6,19,98,-933,4766,-4035
114,-17,-110,-902,5126,-3499
102,-56,-71,-1417,5059,-2921
-46,82,121,-542,4161,-2562
26,-9,-42,-774,3285,-1943
12,107,68,-798,1908,-904
-68,-18,17,-791,933,773
-84,-64,-14,-305,-120,2557
-61,75,1,-942,-1675,2832
15,79,92,-335,-2436,1872
112,63,-47,-1455,-3033,-1516
-100,-37,111,1362,574,-1922
-82,-41,57,416,1615,-2050
45,56,71,219,1878,-1309
-7,-115,0,-301,1805,-327
-89,22,-61,-1008,1160,629
-21,22,40,-229,456,2287
-99,-51,-38,-1120,-692,1964
-125,-99,77,-1083,-1520,2528
73,-105,-107,-519,-1741,1377
88,57,56,648,-1251,-299
-54,3,-62,767,-744,-1644
-53,24,22,148,400,-2369
79,-40,0,1179,1502,-1072
-51,58,-46,840,1574,-350
-104,52,5,329,1101,-87
-35,75,119,424,218,144
54,-68,-49,-1236,-189,1476
3,-88,50,712,-2486,2290
-100,-17,100,-311,-4243,3247
-128,-35,-101,1115,-3924,4735
101,91,64,1242,-4233,5393
56,-76,-91,-563,-4701,4935
-113,116,-21,-164,-2995,3993
-47,124,73,-429,-1438,3885
-43,24,-96,1040,-683,2825
91,102,-92,110,-1358,1806
26,31,96,574,68,-468
23,-76,-5,331,1196,-1135
17,-118,-52,-101,723,-641
14,91,-93,399,321,-162
45,90,-125,97,65,-13
71,105,-124,-263,-50,-14
88,94,123,-190,-146,-125
88,99,127,-385,-144,-75
90,104,-124,-487,-233,37
103,115,-120,-399,-241,153
111,127,-117,-352,-207,130
119,-116,-116,-333,-164,119
41,108,111,-586,4937,-3164
94,100,66,-352,5070,-5582
-50,-77,102,-3216,5425,-3702
-25,14,-112,-964,5674,-2344
81,-46,101,-1260,4099,-2345
-64,-28,-3,-1354,3987,-1940
90,46,-115,-852,2915,-39
20,-122,-87,-959,942,1145
20,-30,28,-1912,-1464,2498
77,-80,55,-1314,-3135,2741
65,-76,-111,1223,-3766,2157
74,-67,13,152,-2683,-771
122,104,41,793,-789,-3185
-125,-58,-14,-358,1373,-3299
27,-104,11,815,2929,-1496
8,99,30,-443,2497,-744
127,90,58,-1449,1558,86
-1,84,44,-1250,641,1623
68,-69,-73,-807,-232,2525
62,24,61,-1277,-1955,2290
-25,-103,65,-1599,-4543,2391
6,-51,-50,694,-3828,1934
-92,99,16,714,-1601,-3456
-85,-6,-102,-1157,-1780,-4300
13,84,-119,1044,1842,-1967
105,-23,125,2782,2412,-346
-101,91,-105,1242,1205,-201
-53,117,-94,808,247,431
-73,83,59,1249,-575,1249
-63,32,-26,1823,-2136,3113
102,56,87,1394,-5157,6210
117,-123,-48,3224,-5650,7968
88,127,73,2839,-1936,5337
19,-120,-43,-2508,-2341,5287
-31,86,48,1116,-2073,3505
-96,108,103,295,-1216,2051
16,48,18,-563,89,-6
-39,-36,-4,-236,284,-775
-60,-120,-45,163,344,-520
-96,99,-84,177,-114,144
-60,120,-114,-449,-50,160
-7,102,85,-230,294,-202
-5,91,80,-150,12,-374
4,85,76,-414,-49,-392
47,66,71,-500,-134,-159
0,92,79,-791,-298,-17
0,69,44,-224,-22,-173
30,97,21,-79,-4,126
39,114,21,-278,-186,233
40,124,20,-435,-197,112
20,89,101,-3471,2803,-4572
-90,-33,12,-2583,2803,-4307
-98,-71,-40,-3506,3358,-3225
56,-19,-43,-2825,3252,-3053
-120,-7,-31,-1954,3645,-2658
2,-100,-45,-1818,3391,-983
-119,36,-54,-1315,1749,918
118,-1,-81,-640,-197,2501
-87,113,-75,-1505,-1743,2770
119,109,-21,-668,-3929,3014
8,-90,56,414,-1490,1194
-10,79,-100,1615,-1009,-169
-127,-7,19,-38,-814,-2864
-106,-21,-22,100,1612,-2791
17,-30,0,-249,2233,-2440
75,-110,-75,-973,2222,-1516
-102,50,-56,-806,1448,486
-36,70,80,-1163,737,1198
66,-102,-72,-686,187,2818
11,5,111,-708,-1052,3477
-79,72,100,-362,-3043,4127
-94,-59,-49,77,-1051,1156
-75,5,69,1469,-1601,-2331
-110,-11,-45,-134,-2358,-4273
-30,-50,-44,-431,229,-3049
-28,-87,-67,-363,2163,-1853
72,64,40,454,2925,-259
-123,78,-105,199,1679,761
-26,-126,51,217,891,1751
34,-125,-82,912,-358,2741
97,117,29,338,-1534,3161
84,-37,17,54,-2805,5242
-49,82,-59,1534,-4498,6668
44,-66,27,1904,-3842,6876
59,45,102,389,-3533,6473
-4,83,-117,-114,-3878,6008
23,101,33,724,-1499,3408
94,13,44,575,383,2747
113,112,-38,460,1013,2548
-66,-108,-4,-687,-479,162
-98,-10,-58,-136,-109,-2103
-46,105,-124,542,1078,-2307
-53,77,111,243,803,-1524
-59,62,107,-234,71,-666
-25,53,93,-845,-389,-217
10,53,78,-936,-167,-180
11,40,58,-667,-85,-511
28,21,41,-218,-35,-318
24,38,53,-395,-283,178
37,46,53,-267,2,492
-8,78,68,-5841,-994,-1443
12,24,9,-901,5042,-4264
57,-46,77,-20,3968,-5463
-105,95,-42,-4681,5328,-4193
94,105,-58,-1711,5894,-3213
-53,122,-58,-1666,4890,-2774
59,51,-63,-2608,5226,-2963
73,120,-34,-2607,5623,-2059
96,-38,-31,-1195,925,443
103,-8,-80,-1876,-831,2674
-40,110,-57,-1171,-2040,2452
-58,91,6,-977,-4101,2492
2,21,-43,397,-2404,863
-92,-110,124,685,-443,-3260
-110,4,61,230,2072,-3458
-82,102,73,282,2605,-2251
-122,102,60,-41,2357,-849
96,-1,4,-1197,1318,548
-62,58,93,-1119,550,1701
41,-57,-49,-1110,-423,2413
23,58,-98,-1719,-2122,2333
-27,-9,-121,-837,-3707,2865
-75,-113,-14,967,-2210,2093
-115,-49,3,1384,-1229,-3307
-101,-114,-13,218,1203,-3975
-35,68,11,1115,2709,-2355
6,-84,-16,307,1908,-607
-21,-68,-70,712,1049,307
76,122,-25,21,-990,779
123,-101,57,1738,-871,1535
-120,76,-127,2984,-1910,2768
40,-23,-22,587,-4961,4603
-47,2,52,3403,-5678,5836
87,24,-31,2822,-3668,5669
-32,120,-42,550,-4511,5073
43,30,-9,-461,-3508,4999
-128,34,56,1519,646,2233
-125,-48,-23,2185,1066,1638
110,123,24,429,-190,3261
-37,98,-10,-298,-1207,1349
-90,-37,-26,478,-738,-996
-57,-107,-70,978,695,-1417
-81,112,-86,366,557,-1157
-77,92,-105,-256,-46,-258
-80,89,-120,-745,-341,72
-40,62,97,-446,-28,-172
-18,70,87,-397,-18,-295
0,55,61,-287,-52,-409
-14,53,61,-475,-177,-256
-15,37,52,-238,-70,-72
-80,6,21,-592,3423,-4369
-62,-116,-67,-3960,5646,-4092
-86,25,-77,-2432,4716,-4229
38,-16,-18,-3452,5263,-3859
23,75,35,-1723,3562,-2635
-25,120,-17,-751,531,-978
91,13,-74,-2303,648,1316
-128,-55,-101,-475,217,2528
-90,18,107,-745,-432,3004
-61,44,-109,-899,-2716,3236
65,83,-69,-461,-4096,1845
46,105,84,182,-345,-3822
-12,64,30,-36,2290,-3811
-58,-9,44,837,2953,-1798
88,43,-18,-159,1794,-554
-113,51,-64,-1340,1114,517
-72,38,17,-945,120,1991
-20,-62,-112,-816,-640,2671
-33,108,115,-670,-2259,2762
117,-73,-16,-679,-3521,2702
72,39,-92,1379,-2160,-863
-40,68,-11,68,321,-4160
53,56,-31,96,1662,-3798
1,-99,-11,640,2946,-2144
118,-34,-93,399,2398,-540
-19,-6,-123,-82,1506,593
41,-100,24,24,604,1045
62,-40,126,306,-692,1325
53,4,-20,719,-2701,2946
-49,58,83,2282,-5679,4446
-26,-75,100,1791,-2631,3638
-126,47,-11,2339,-2825,3975
40,117,-115,750,-2537,3279
-52,21,30,654,-2575,3138
-35,-37,20,173,-2028,3342
23,22,-77,680,-39,2833
34,-43,69,2165,188,2613
34,-2,28,1330,62,2153
15,7,-15,378,-165,712
-31,-24,-30,-100,-196,-190
-15,126,-59,-224,179,-764
-7,80,-85,-163,103,-465
6,47,-115,-10,101,-107
29,58,120,-653,-174,81
37,59,99,-572,-448,201
56,94,80,-1094,-573,546
50,77,57,-988,-914,369
60,41,50,-409,-1195,-574
62,103,35,-468,-692,-127
55,104,33,-562,-444,16
113,-38,-117,-3551,3415,-3648
-61,15,8,-1037,6135,-5542
-80,40,91,-1748,6661,-5229
-32,43,103,-1687,5474,-4666
83,-11,87,-2022,4640,-3591
68,122,27,-2111,2289,-1945
-49,-91,-93,-1866,2834,-1276
56,34,55,-1412,1854,191
4,-36,-23,-818,587,1627
12,9,-99,-804,-729,2787
0,-61,-120,-1518,-3084,2803
89,-17,-64,159,-3888,1608
119,65,96,705,-1021,-1885
125,-101,61,-744,247,-3978
-85,-91,37,207,2063,-2139
-45,99,76,583,3387,-762
95,87,-70,-903,2107,-93
-51,51,-104,-992,932,951
61,82,-34,-837,-275,2476
33,-51,-54,-1364,-1319,2308
-31,124,-67,-687,-2680,4316
75,-78,118,678,-2300,3327
-2,2,-34,931,-1601,-1055
-119,-111,6,-608,-757,-3861
24,-30,-22,525,1579,-3392
-14,19,13,1088,2870,-1664
99,-73,-81,969,2412,-183
-41,-7,-19,323,1837,489
66,76,67,256,954,1132
91,-125,-18,38,-350,1542
-127,-126,111,482,-1541,3082
103,-41,-126,-333,-3110,3929
71,93,-38,891,-3105,5703
90,21,-115,-64,-3294,5617
63,47,-61,563,-2797,5425
-30,-128,84,-2230,-2750,3717
-13,-40,52,-2832,-2728,3302
92,52,-77,2582,-1804,5087
31,122,-77,3547,-1916,3865
-40,-68,69,-1707,382,-2203
-32,36,11,-2581,239,-1864
7,63,-58,-60,83,-1210
14,86,-68,-36,499,-638
16,105,-110,-623,78,-584
99,83,99,-2,476,-633
84,70,55,239,-121,-508
85,97,56,-802,-655,42
84,103,77,-1051,-865,465
79,107,66,-823,-644,599
50,-121,61,-728,-560,595
-81,-117,32,453,3674,-3912
-38,52,69,-317,3679,-5766
-66,-63,67,-694,5177,-5576
23,-125,121,-545,4929,-5283
127,110,53,-2155,4753,-4791
68,-81,-61,-2175,3696,-3690
105,27,96,-1688,2306,-707
9,-105,-83,-1089,942,1252
16,-37,78,-954,-747,2786
-19,126,-124,-1449,-1854,2446
-120,-63,25,747,-2934,2716
55,122,-64,331,-1574,-566
-101,109,78,780,-417,-3402
-118,-62,25,-1139,964,-4522
32,-79,35,523,2623,-1804
-18,-35,12,0,2256,80
-73,-51,-62,-1110,1068,881
26,50,-8,-1126,97,2400
35,16,115,-800,-1049,2837
-103,-18,115,-799,-2745,2665
71,8,-116,68,-2182,640
-125,-91,39,1640,-283,-1552
-86,116,6,17,499,-3052
21,-83,-2,1037,2058,-1126
57,-91,100,1491,1795,817
-73,19,-55,102,455,570
67,107,37,-585,-257,1591
83,98,-104,1324,-1251,3672
84,-127,-8,668,-2643,3771
-122,45,-89,51,-5928,6212
-51,49,-53,1873,-2671,5263
119,55,-91,732,-3953,5669
15,19,-75,124,-3461,4861
44,-80,-23,1021,-1780,3193
72,91,-97,146,524,2831
33,0,56,194,-561,2823
47,41,64,-27,-1130,2327
-10,56,37,-1014,-216,-149
-23,-26,-14,-870,509,-1554
-16,-114,-67,-157,739,-1535
-19,123,-98,-115,367,-625
-14,109,125,-156,160,-461
24,99,90,-258,233,-472
39,101,88,-313,-26,-392
64,82,82,18,123,-451
77,77,79,-11,110,-383
70,78,66,-253,-50,-235
62,71,65,-208,-211,74
58,85,59,286,-256,677
66,94,76,1035,-437,649
-32,3,17,-1868,4299,-5264
-76,-26,78,-3072,5862,-5662
96,119,-78,-1190,3422,-4203
-16,34,-82,-1989,2991,-3891
-75,-119,103,-1891,3254,-2708
51,-119,-46,-1069,2578,-1053
-64,-36,0,-1235,1184,831
-29,10,-88,-760,-167,2323
-49,-88,113,-1311,-1620,2201
-70,109,-121,-434,-3228,2766
-93,-14,21,441,-2485,324
111,125,61,468,-1272,-2680
114,-81,0,-440,1660,-3841
-50,50,21,349,2936,-2489
-16,51,26,-491,2351,-965
-21,-117,-59,-914,1309,850
34,33,1,-913,382,2975
20,14,-72,-922,-473,2539
120,30,119,-805,-2277,2546
127,-73,59,134,-2310,861
-70,91,60,1409,-1147,-682
-115,-9,13,-137,-767,-3313
-85,-119,-16,-998,3074,-3187
-92,-66,-30,1572,3251,171
61,1,40,127,1136,225
-41,70,-113,-363,700,772
33,-116,-10,242,-652,2179
60,-124,106,1695,-1991,2947
20,-102,44,797,-3541,3708
112,16,125,989,-5448,5720
-71,69,-97,2188,-2322,5222
93,24,65,1919,-3119,5515
31,-123,118,-1267,-2831,3711
-48,-13,-15,139,-4087,4129
6,98,10,-23,-2616,3583
72,-26,96,1185,557,2363
77,-54,2,2878,332,1979
-21,66,42,1053,-1217,850
-52,45,46,-1678,-555,-653
-39,-127,-64,-742,1125,-1101
-57,88,-90,31,408,-973
-56,93,-104,25,-208,-362
-8,78,109,-49,158,-311
15,70,99,-179,171,-444
23,54,84,-92,-19,-357
25,43,75,-123,54,-340
23,45,68,-383,-162,-71
35,38,63,-182,-197,395
32,56,65,-204,-272,629
42,88,56,-364,-225,810
-4,120,-59,-834,3298,-5804
-27,73,-85,-3033,4575,-5900
-68,-96,71,-2369,4485,-5811
71,92,99,-2993,4002,-5025
-114,-76,111,-3486,4250,-4023
72,98,107,-1908,2597,-2210
-50,-27,-11,-1720,1463,180
-65,-24,-73,-1131,305,1599
-67,99,-120,-843,-1308,2597
-78,15,-109,-723,-2923,2806
18,-107,-61,463,-3198,1906
-119,-61,46,870,-1239,-2365
89,33,27,-182,1061,-4608
99,-40,17,-109,3226,-3316
-111,105,53,-78,2964,-1254
-96,-8,64,-1217,1377,152
61,46,71,-1530,564,1515
121,-90,111,-576,-450,3252
35,120,112,-1604,-2254,2761
-85,66,93,-167,-3496,3476
-42,-91,47,664,-1876,1147
-119,-18,2,888,-917,-2677
-114,-85,-33,850,162,-3669
2,38,-48,-271,1687,-3670
30,-33,-77,692,2717,-926
-98,-97,-24,633,2273,732
-54,8,-85,-801,1388,1865
18,100,59,589,1865,3246
-15,-92,9,-173,-304,3465
32,-65,-120,-792,-2665,3609
-19,12,-101,-1106,-4624,3724
-46,-104,37,-418,-4290,4738
-47,127,36,1116,-3993,5744
92,-84,89,472,-6118,7139
-119,87,118,1328,-6785,6883
61,-125,99,612,-3271,6197
41,-78,58,749,66,3396
70,107,40,3853,-361,-694
-90,111,121,2995,-1586,-2362
-71,50,78,406,801,-1570
-81,-34,14,-1112,1761,-1016
-117,-124,-60,-525,822,-1086
-83,82,-104,-184,-194,-1178
-26,62,-119,-160,-224,-1324
22,28,-122,-132,-60,-1549
63,-20,127,-83,-75,-1552
63,-28,-113,-476,-309,-1073
42,-35,-126,-829,-268,-485
76,-57,98,-405,-102,68
16,-24,78,-36,-99,773
-45,27,87,-854,6275,-5709
-106,-48,90,-1493,6122,-5319
-27,127,-115,-1483,5739,-4737
29,-20,-113,-1896,4594,-4264
51,50,55,-1655,4181,-3415
71,-123,-122,-1705,3431,-1757
-45,-15,-47,-974,1112,877
-34,45,122,-1133,-940,2537
-79,-60,-83,-1234,-2232,2073
77,-74,70,-173,-2354,3156
-44,116,102,1310,-1932,358
-87,57,13,987,-1214,-3030
125,-73,56,-661,-189,-5620
-32,5,30,-106,2993,-2245
3,125,31,266,2814,608
-56,-37,-66,-1383,1261,904
-27,-121,-4,-1428,-521,2079
20,28,-79,-1124,-771,2226
-79,19,90,-183,-1957,3330
94,9,20,303,-2748,1265
122,4,115,1054,-1208,-1854
-118,-84,-4,67,-2288,-5127
-47,105,-61,-1470,1401,-2737
53,-93,-126,1142,3117,-105
-99,25,-119,361,2694,1397
-20,61,-29,-113,1400,2337
5,-123,63,254,-342,4242
-57,116,12,-177,-3788,3798
61,-87,63,444,-7613,5277
-105,69,-103,327,-5622,5259
5,-72,37,1838,-3838,4422
-45,-61,100,867,-4749,5140
-68,107,106,101,-4602,4730
-40,9,97,1696,-1412,2933
125,15,51,2711,-157,841
-37,29,51,2747,-858,-710
-43,12,84,1335,-422,-377
-59,6,60,-517,473,121
-75,-8,-13,-1684,284,284
-80,113,-90,578,388,-736
-67,99,-114,975,456,-1081
-39,103,101,-57,536,-1117
-11,72,89,-707,259,-947
-1,25,68,-510,-120,-635
0,22,75,-572,-368,-276
-32,60,-106,-1519,-1063,281
13,122,-128,-2201,-364,1062
23,-100,80,-1963,88,1068
18,-56,37,-1925,-9,610
21,8,22,-2031,-415,484
-15,-11,1,-6222,6598,-3577
-61,-2,-121,-497,3686,-4089
85,80,-66,-1145,5259,-3637
-125,-75,-12,-1433,3737,-3585
-128,54,-81,-1775,4115,-2654
-56,17,85,-1392,3318,-2122
23,103,-97,-1937,1867,-767
-30,-7,45,-1728,543,691
-37,79,108,-536,-484,2314
-92,68,121,-260,-1713,1254
-86,103,-122,1321,-2789,1468
-109,-13,123,1238,-1016,-1197
-100,-55,101,468,1163,-2702
-89,58,84,-26,2246,-2036
-123,-25,65,-197,1826,78
122,-49,-39,-1269,782,1081
-70,-114,39,-1500,-309,2024
-11,57,-41,-1195,-849,1951
-51,40,119,-266,-2284,2626
-1,74,9,1537,-2519,2030
-94,15,-113,1256,-1665,-1495
-109,73,39,469,464,-3506
-64,50,-10,34,1864,-3104
-33,-62,19,927,3067,-447
-52,-68,41,583,1813,619
31,34,64,-123,439,472
79,-124,-96,406,-94,1843
39,-76,68,-24,-2033,2916
-17,-40,46,-38,-3852,4714
-79,-29,105,858,-5184,6047
-65,85,-110,2449,-3549,6078
-26,-20,-18,1829,-2323,4956
100,46,-121,-588,-4541,5500
-114,111,65,343,-2865,3688
-68,57,68,1024,-922,3196
116,92,63,452,-305,2115
8,87,87,-428,-764,558
-57,-34,29,212,-18,-532
-76,-77,-23,632,533,-687
-55,-99,-55,-101,381,-747
-21,103,-109,-119,549,-907
-11,55,109,12,419,-985
7,27,81,-95,204,-679
18,26,74,-329,74,-248
19,19,64,-402,-134,73
27,19,61,-244,-142,226
42,24,66,-27,-59,371
49,39,79,165,-166,520
57,55,85,90,-111,614
49,75,86,-105,-116,680
-108,-36,3,-3294,3524,-6907
-97,-80,57,-2760,2757,-6437
-123,-22,60,-3107,4288,-5716
-33,-1,80,-2739,2875,-3664
88,48,25,-1739,3564,-2584
71,32,-61,-1663,2196,-986
5,-18,67,-1241,1311,1052
-48,44,-18,-1803,91,1561
-74,-75,112,-930,-870,1642
-83,56,78,-153,-2213,1957
60,19,-28,1158,-2534,1720
124,91,-21,859,-1912,-1155
-123,-27,39,733,674,-3218
-127,-47,11,532,1945,-2881
64,-69,22,-460,2076,-1686
86,18,-98,-307,2068,271
1,-1,75,-1253,372,1128
24,-106,-57,-1126,-396,2052
-32,46,-100,-520,-912,2732
74,62,117,-151,-2402,2804
49,88,4,658,-2307,1312
-106,-69,50,853,-1548,-1697
-124,-36,8,350,-124,-3162
-93,58,-42,552,1735,-2524
-32,11,-25,950,2628,-926
-117,18,-6,500,1626,-412
21,95,10,10,483,624
79,-112,-88,-165,-174,2051
94,113,41,760,-1219,3197
-17,-101,4,-239,-3888,4509
87,-65,119,1139,-6382,6846
-73,101,-57,2561,-3051,6034
-115,52,87,1715,-3741,5590
100,44,109,396,-3105,4629
71,-112,-65,944,-2940,4623
-107,55,26,1211,582,3517
-123,113,-35,1358,575,2381
-76,116,20,655,-1324,-26
-84,-27,17,668,-718,-1548
-50,-122,-38,159,907,-997
-74,127,-58,-691,430,-170
-89,115,-86,-911,-314,180
-68,83,-125,-478,-192,-180
-31,63,94,-94,302,-563
-21,64,87,-441,-44,-404
-30,58,79,-331,-212,93
-19,58,68,-264,-88,180
-5,74,53,-294,-158,103
8,84,53,-514,-199,101
5,91,66,-597,-355,169
27,6,93,-1902,3456,-5193
-30,-6,-105,-2142,4297,-5838
-119,-60,-66,-2313,4218,-5747
54,-128,-31,-2787,4092,-5037
-121,-11,-10,-2600,3722,-4286
-126,-34,-82,-1472,3635,-3479
-49,69,70,-856,2729,-1131
91,-16,-38,-865,448,1640
86,40,-78,-1033,-1184,2696
124,-53,-44,-984,-2302,3341
94,-87,-29,496,-3014,4139
-126,75,-26,-6,-2256,952
127,-22,72,598,-857,-2945
-111,-52,10,27,556,-3997
-67,-88,9,165,2506,-3185
-74,-125,36,-514,2401,-1674
61,1,-122,-1175,1388,-309
-85,77,-124,-1632,891,783
-57,-60,-7,-1220,92,1959
-11,17,-97,-986,-604,2480
-50,-79,91,-866,-2405,3095
64,116,-52,-330,-3303,2463
-43,90,39,1073,-1711,536
-121,-12,32,1693,-508,-1944
-100,-48,-68,1266,-1716,-2742
-111,-11,62,740,176,-1104
-128,58,-124,1513,633,734
-97,45,-22,1673,-876,2002
-76,-10,32,1584,-1756,2989
95,-12,51,1298,-3056,4963
-35,118,-40,3031,-4675,7617
124,-93,-15,2361,-1163,4447
103,25,98,504,-1821,4409
125,118,45,422,-1348,3641
113,66,43,397,-695,2496
60,67,36,-500,-460,1714
-56,-4,28,356,-1141,598
-73,-57,-18,399,-605,247
-91,-108,-69,-592,-1054,610
-100,62,-118,18,-534,575
-123,51,126,305,-174,430
-106,72,114,-112,-288,376
-88,37,77,173,37,-295
-43,5,54,-499,757,-248
-45,11,46,64,1418,466
-52,-12,88,136,-380,252
-11,71,58,-356,508,48
12,38,45,77,409,-338
14,71,72,-328,-52,110
14,66,71,-202,-331,400
13,-13,56,230,5042,-3946
-106,18,60,-984,4729,-4206
10,-28,-4,-973,5069,-4243
112,-93,-53,-1442,4686,-3781
-91,32,-121,-1180,3959,-2979
-128,84,22,-854,1990,-1068
-67,16,-54,-1647,1802,-231
102,-29,-71,-565,5,1262
99,73,-98,-954,-1294,1827
97,81,-48,-1331,-3093,1589
50,48,25,1179,-2118,1606
6,98,78,544,-916,-1068
102,7,13,429,1121,-2642
19,104,10,226,2469,-3016
-14,120,39,-358,2427,-1629
84,3,66,-287,1886,350
-126,56,93,-1393,578,1082
-45,-69,-108,-1379,-448,2022
-41,72,108,-930,-1610,2600
-107,8,-81,-410,-2878,2354
-110,75,24,663,-1754,983
-79,125,-18,575,-1266,-1631
-122,88,-16,626,866,-1954
9,63,-28,1203,1405,-1486
-68,-91,-36,510,1822,-1050
-116,-24,-58,608,1464,649
-12,-22,39,360,418,1618
72,76,-98,780,-1404,2673
97,-94,-36,185,-2460,3233
-34,-34,-15,42,-5672,4500
-48,-24,78,2542,-5274,6074
22,90,-33,2647,-2623,4284
-46,95,-92,-1165,-3525,4822
-43,-122,75,1289,-2226,3489
-90,-82,-107,-561,-1324,2928
90,86,73,-713,-713,1717
50,-54,-1,1785,-94,346
-18,-41,-1,1267,-106,-13
-66,-47,-40,-81,100,-185
-70,-105,-68,-210,-69,-288
-51,52,-128,410,129,-429
-15,25,105,161,122,-192
2,9,76,-304,25,151
-13,33,64,-646,-75,480
-14,62,45,-505,76,229
10,64,32,-383,-13,3
27,51,20,-11,-2,-87
44,52,28,-200,-42,81
34,38,35,-151,-235,285
41,59,41,-191,-109,378
113,-31,-102,-1626,3850,-3827
104,-76,-119,-1223,4972,-5276
53,-109,57,-1767,5288,-5373
-71,125,94,-2454,4514,-5209
-46,32,-119,-2823,4183,-4369
-92,-4,84,-1670,3894,-2604
-83,69,-6,-1392,1936,-715
-107,-49,110,-1191,1520,697
59,25,46,-1043,-1144,2082
55,34,106,-464,-2361,2821
78,12,-96,511,-2311,1473
97,23,13,809,-1321,-1206
101,120,64,599,856,-3174
81,81,27,459,2290,-3311
14,3,35,-550,2079,-2124
79,11,105,-1093,1395,-80
-37,42,93,-1346,618,1325
17,-69,-51,-1157,-198,2679
39,112,-123,-926,-961,2885
-31,28,115,-687,-2519,3459
-4,27,14,24,-2590,2906
109,92,6,679,-2866,-791
126,-92,-24,675,-114,-3193
-104,-113,-51,1604,1008,-1915
-14,52,-99,1727,1006,-504
126,22,-80,626,184,326
-70,72,47,429,-1279,1242
-13,93,32,931,-1863,3439
-110,97,9,846,-3893,5009
26,-69,-116,2653,-5831,7181
-66,-43,-35,1708,-1847,4376
82,76,83,-280,-3088,3873
47,-124,127,-277,-2792,4234
96,19,49,1016,-711,2819
105,55,37,1053,-166,2526
-6,77,-28,913,-662,1279
-56,61,-29,126,-526,374
-73,-5,-59,-278,-186,5
-89,-59,-95,-617,-157,206
-89,-102,-112,-363,-192,399
-39,112,105,-61,-11,-216
-23,84,84,217,305,-685
-1,43,69,36,142,-410
4,53,62,-556,-135,80
0,45,46,-337,-165,155
13,84,38,-323,-72,143
26,93,25,-25,-20,51
45,104,36,78,-71,-196
69,75,0,18,353,-232
43,82,2,-364,-223,322
78,-1,94,-2151,2760,-3506
75,-87,103,-1611,2863,-4989
54,-41,90,-2253,4007,-4938
-127,-92,110,-1707,4684,-5171
78,95,60,-3031,4065,-4373
-73,77,14,-2116,3640,-3240
-28,-79,122,-1839,3491,-1526
114,-93,-103,-1943,1549,247
29,-117,-37,-1745,-995,2719
-27,64,5,-1354,-1976,2376
24,-92,126,865,-2746,2232
54,-115,36,995,-1307,-971
104,-36,71,474,352,-3987
94,106,24,2,2113,-2854
-64,-3,38,183,2468,-984
-75,-44,-46,-869,2114,287
112,-3,-103,-1615,1363,1721
-107,-77,71,-1010,-507,3788
73,38,-47,-739,-2346,3768
-46,-37,124,-1411,-4408,913
108,50,23,2089,-1028,521
-57,-5,55,1262,-2344,853
76,-56,111,-272,-4894,2514
61,-99,24,1170,-5960,3929
118,-24,53,962,-4866,4355
-124,-102,-26,-597,-4585,3223
-27,30,-91,919,-1961,2831
-75,69,116,1022,-1315,1600
97,43,11,1498,-349,1254
-26,60,-27,704,-705,813
-29,1,-41,751,-285,927
-3,27,-62,-134,-310,791
-3,36,-61,-543,-829,640
13,-8,-44,-47,-42,84
-18,-45,-91,177,706,-741
35,-76,125,-203,612,-679
82,-127,73,-262,728,-732
112,90,48,-86,372,-257
-128,101,43,-290,-110,-15
-114,101,29,-313,38,-252
-87,89,20,-55,92,-40
112,85,25,-96,-157,35
125,95,18,-333,-125,297
97,117,-2,-404,-557,689
110,-106,38,-219,-981,1144
-109,-75,43,-104,-471,1007
-107,-77,35,227,-417,706
127,-33,57,-411,-554,759
124,-41,67,-417,-412,512
-106,-65,46,-85,-27,288
-43,24,115,-1327,4081,-4481
97,-67,97,-891,4717,-3544
22,-43,123,-1345,5205,-3448
-16,-123,45,-1609,4559,-3219
15,-106,-91,-1575,2630,-2029
94,-65,-24,-1447,2169,-1024
-110,33,-95,-1562,715,907
-65,23,-92,-601,339,2188
-43,70,-122,-948,-1206,3015
12,-16,103,-3173,-3817,3708
-19,-25,115,708,-4092,3533
34,-62,40,565,-1313,-970
-114,73,-60,-209,1141,-3907
107,114,-53,373,2327,-3230
-26,-91,-17,200,2545,-2001
85,53,-80,-445,2263,-465
-96,49,101,-1230,1035,721
-41,-123,-30,-659,97,2328
3,-18,-116,-546,-620,2476
-10,-53,125,-1467,-2757,2492
-122,-64,16,-522,-3597,1928
-119,19,-92,733,-1682,-1015
-8,-74,-39,342,954,-3475
85,-68,-57,1105,2117,-2512
-6,10,-21,1618,2263,-957
122,-4,-102,571,1962,-767
-38,11,-71,539,1296,-667
87,-74,10,-322,127,421
-124,-22,121,446,-585,2376
97,-16,-30,705,-2598,3552
-23,57,22,1097,-6595,6076
-38,71,122,1802,-4339,6390
-45,-38,60,1827,-4168,6008
125,67,-59,872,-4512,6235
-66,-119,95,601,-1772,3889
24,113,45,-1145,115,2958
126,88,47,-397,-716,1473
0,-18,15,1112,-83,-502
-42,-52,-22,205,137,-1000
-93,109,-65,114,-260,-208
-112,40,-128,128,-501,489
-87,52,77,-16,-206,330
-71,46,31,-272,-339,346
-79,27,17,-148,-219,262
-84,43,29,-421,-327,356
-60,49,14,-300,183,53
-55,37,6,1,173,-121
-49,42,3,272,-152,14
-12,66,-1,-193,-239,219
-27,59,-22,-635,-90,293
-31,-97,-10,-1100,5135,-4880
-53,-53,-44,-2529,5383,-5108
95,-62,-33,-3328,4481,-3926
-5,15,-65,-2644,4862,-3533
-84,-69,-42,-2593,4594,-2137
-25,42,-13,-2219,3384,-610
126,-43,-69,-1334,1949,1074
14,-24,-88,-1976,-2245,2892
-114,-22,-5,-1153,-2190,3757
-103,103,-43,262,-2575,2722
94,-97,-37,522,-1648,-1354
89,-125,109,432,257,-3672
120,-114,46,467,1939,-3756
84,-100,63,-66,2866,-1622
55,34,-53,-597,1931,330
-49,30,-100,-1304,526,1433
26,-41,-45,-1438,-697,2085
-23,-118,-64,-1387,-1764,2200
-110,71,-32,-883,-2884,2531
120,26,-57,160,-2538,1718
125,-12,-67,-841,-2615,-2013
108,69,-18,1370,1529,-4181
-24,-47,-28,1333,2875,-2384
20,109,3,822,2929,-592
50,-119,75,830,1812,758
101,120,69,50,-208,1134
105,-49,-96,762,-1668,2085
-102,-49,-31,1176,-2170,2870
108,-14,89,1319,-2200,4782
50,121,94,1521,-7158,6810
-25,-95,-118,3157,-2842,5500
-83,-72,-28,-392,-2882,5318
20,121,-97,-744,-5249,6129
127,97,-45,1304,-2481,3365
-95,26,-122,1872,-1530,2020
25,110,93,-292,-1625,758
19,30,7,-1195,1411,-1007
-73,73,-101,-900,1809,-2032
-100,-19,-126,1768,405,-665
-96,47,117,230,-272,159
-35,64,58,-1034,403,252
-30,34,45,-514,16,210
-14,9,50,15,-197,324
-12,48,69,-606,-159,730
-29,75,81,-660,-402,869
-38,122,67,-578,-317,823
-25,-100,60,-762,-397,588
-28,-116,51,-713,-367,617
-55,115,23,-124,43,495
-24,119,-14,-25,28,468
-108,1,93,-2094,1194,-5054
119,94,-97,-1795,3092,-6628
-113,38,-101,-3412,4678,-5163
30,-108,95,-2216,3893,-3593
-35,115,36,-3407,2897,-2086
-35,-53,-32,-1746,4114,-1880
76,107,-88,-789,3412,-2250
-108,-37,-86,-2196,1999,-884
109,-12,-119,-2188,1438,1601
103,-92,-68,-1279,-386,3928
-52,-117,-19,-1399,-1844,4186
-30,-128,-19,-17,-3715,3807
106,67,-47,771,-1232,692
126,-43,-68,129,-1904,-4076
89,10,-50,-1157,-158,-5051
75,17,-47,595,2985,-2684
25,79,-20,-94,2640,-262
-39,102,53,-1188,1287,241
6,-69,49,-1724,-125,1505
23,-33,-75,-1220,-521,2219
-6,109,106,-968,-1701,3464
-109,105,-110,-874,-3039,3273
39,38,38,-64,-2907,1007
40,-14,-20,226,-1306,-4994
-88,-97,-81,670,2252,-3927
6,2,-50,1814,3071,-1733
-36,37,-38,-135,2129,-1306
-126,-112,-64,220,1052,-832
-88,94,12,-386,555,722
101,69,116,504,-521,2142
43,-14,-25,1257,-2436,4459
-40,-59,-29,2186,-4182,6873
8,20,-42,2559,-5551,8546
-10,-64,54,1335,-3759,7370
50,-115,-32,699,-4220,6661
-62,-96,-119,-19,-1689,3726
17,82,58,1289,357,2885
119,-114,49,325,-759,1536
-41,108,77,-727,-427,-996
-13,14,-12,-4081,1964,-2020
-27,58,-118,-2955,254,-213
-123,-2,70,-266,-1281,1218
-45,115,31,-844,672,679
-39,85,29,1925,151,112
-3,-105,58,961,-78,58
5,-95,51,-477,-99,-417
22,-78,51,-1097,55,395
2,114,59,-27,-103,276
22,-111,70,-114,-73,474
35,-98,62,-59,-204,263
65,-76,74,174,4458,-4955
-40,-103,85,-763,5263,-4467
13,105,-1,-186,5602,-4209
125,99,-4,-857,4551,-3651
-17,-105,-89,-1141,6336,-3175
83,-76,-122,-567,2914,-540
63,91,-18,34,1759,1925
16,-81,-72,-1362,-594,2603
116,-65,123,-2164,-2373,1830
25,82,-11,-189,-3845,884
-124,-27,-95,489,-1032,-2211
-99,-54,90,1072,948,-3098
-100,54,59,209,1689,-2590
56,-125,78,528,2663,-743
38,93,-85,-625,1744,576
-41,114,-61,-1257,797,1234
106,-25,-17,-1510,-361,2025
99,110,-121,-1594,-2067,1862
40,111,87,-901,-3220,1806
-42,25,-19,1095,-2406,276
-114,68,46,1350,207,-3060
-98,-6,7,901,2086,-2732
6,51,26,1301,2810,-638
93,-26,-25,-106,1699,-246
71,32,-70,-405,-301,854
115,-92,43,-221,-1297,1368
-86,-20,73,502,-1276,2051
-105,43,-72,1231,-2922,3427
-106,54,71,723,-6628,5739
-102,6,84,2655,-4506,6826
5,51,-102,1098,-7206,8598
-107,-1,120,286,-4425,4651
35,-121,-108,216,-184,2551
-32,49,97,386,1488,1698
-124,99,48,791,-388,1692
-11,-88,114,-1129,-1277,607
-36,-12,38,-1273,705,-1250
-51,87,-42,392,1110,-793
-43,101,-116,555,415,-77
8,-121,108,-104,143,-242
35,80,46,267,325,-338
28,90,50,-208,28,-270
36,63,38,-115,12,155
24,77,44,-327,-243,273
45,84,52,-200,-260,419
62,118,64,-132,-389,367
52,-122,89,44,-497,322
67,-99,78,195,-311,349
67,-86,80,-498,-185,329
68,-97,62,-344,-115,352
79,101,110,-1073,3993,-4961
-71,105,26,-2491,4128,-4337
112,-26,3,-1932,4803,-3963
-19,17,50,-2866,3952,-3104
127,-118,-19,-2949,2617,-3215
17,-109,-53,-1950,2385,-1374
-63,109,-98,-1755,973,591
17,-88,98,-1793,-443,3273
111,-91,-61,-467,-1043,3335
75,-103,109,-720,-3538,2829
-62,-71,85,470,-3680,1659
-106,23,114,962,-610,-2165
-108,35,8,998,1257,-4035
26,-96,18,-99,2897,-3432
48,40,57,-271,2541,-1017
-19,9,-83,-1092,1668,145
-12,-69,119,-1716,361,579
-25,-20,28,-1412,-228,1707
4,65,-46,-582,-738,2796
-10,-75,-105,-663,-2397,2759
105,77,45,-921,-3718,2959
-49,-120,-20,-96,-2383,1377
-125,-95,-17,509,-254,-4366
25,27,-69,-1295,-239,-4309
69,-41,-58,2097,2775,-1552
125,2,-74,835,2028,268
-39,82,4,548,1363,542
37,86,-3,1020,919,763
55,92,120,2011,-1104,2425
81,-113,-49,782,-821,3184
-14,-107,-15,1097,-3710,5413
-113,-51,69,1526,-5704,6875
-53,-127,-124,2796,-2756,5455
-57,72,125,-51,-1930,4657
-106,81,-26,-1523,-2799,4380
-102,81,-100,-2680,-171,2675
124,-50,94,503,-529,2564
59,-20,78,2091,-1077,1887
-3,41,60,-942,-213,-530
18,-60,-48,-1727,983,-1789
4,72,-109,91,700,-1677
2,84,-128,477,501,-1057
33,108,97,-118,175,-348
41,93,56,-328,-231,-188
54,97,51,-533,-496,-64
83,92,31,-181,349,-147
88,97,52,66,471,-279
85,111,81,-54,-393,-42
96,111,87,-352,-682,314
107,115,95,-555,-445,491
-33,-69,-41,-32,3848,-4695
-73,87,62,-2036,2570,-4485
-49,117,111,-1248,4099,-2410
32,-82,81,-1749,3727,-2723
94,118,6,-2193,3563,-2048
-38,-97,4,-1752,2950,-1949
96,25,-48,-1580,2636,-1792
-88,110,-90,-1342,1510,-601
30,46,-29,-1919,596,-101
33,-112,0,-834,940,1953
101,-120,92,-285,-353,3605
-103,117,-34,-1707,-1903,2798
-60,124,38,-1099,-2778,1684
13,89,28,728,-1994,1133
-61,9,95,-32,-1520,-1923
-103,28,14,1068,1387,-2638
-21,-59,19,41,2222,-3078
-13,-97,60,432,2419,-410
-126,110,121,-726,1624,858
8,-78,56,-951,479,2206
62,-107,95,-1274,-849,2106
-24,-97,-118,-1756,-2441,1946
117,-108,35,206,-2647,1915
12,-71,-66,1086,-1492,-891
-120,85,-1,-16,-285,-3323
-20,89,-21,1086,1990,-2919
-88,-5,1,628,2703,-1631
-108,16,114,652,2398,636
-15,-108,112,-18,914,1423
63,57,-15,600,113,1388
127,-42,-114,1163,-1732,2204
-51,-82,75,1841,-2200,2056
-30,-89,-121,-165,-2938,4738
-59,-110,-5,2449,-4707,6701
-128,-55,-116,1727,-2114,6441
-127,81,113,-100,-4756,6177
-67,-117,15,-1534,-3237,3429
-34,-119,-96,30,-1772,2949
14,42,-62,1368,-1630,1414
-34,-89,-119,-2187,-931,857
-79,64,51,-2436,-760,-69
-50,106,-107,-209,961,-1069
-55,97,-114,610,1213,-969
-58,125,112,-209,283,-339
-6,-112,87,-936,-135,-136
39,117,45,-350,87,-352
26,102,53,-84,-60,-461
29,86,62,-89,31,-424
66,68,70,60,171,-71
67,68,72,206,-149,303
-67,21,43,-232,4446,-4263
-119,-19,-38,-109,4807,-4361
-118,10,-39,-710,4637,-4707
26,-27,86,-1840,4154,-4146
88,-21,61,-682,4355,-3296
109,-86,1,-1277,3184,-1663
-25,2,-123,-1043,1917,186
-54,27,62,-1426,269,1595
-19,85,-23,-966,-679,2325
91,-40,50,-661,-2362,4087
-46,-41,69,555,-3689,4099
-82,-3,-89,363,-1943,-509
-109,-30,67,488,-61,-2891
-75,89,16,640,1341,-3661
119,-107,33,-822,2156,-3645
96,112,-28,-696,2420,-1002
-67,-51,-102,-1183,785,1178
74,66,-25,-1200,174,3034
-87,-38,-73,-1463,-412,2258
-45,-27,-31,-1863,-3457,3259
112,-102,15,-41,-3509,1817
-86,-78,29,2157,-709,-2131
123,-87,7,1430,-465,-4353
-89,68,-51,-40,-1106,-5963
-24,60,-70,-599,1110,-3762
10,1,41,147,2420,529
21,49,-95,1490,2362,2006
78,-108,65,1077,2585,2243
98,126,-54,1255,1208,3266
-125,78,82,197,-208,3824
84,-94,-61,-1774,-2257,6054
-11,30,-14,793,-5288,8125
-101,-89,95,862,-3552,5959
21,115,-79,-1595,-5349,7065
-123,-1,-79,-1595,-2611,5811
6,-96,119,-31,-656,4299
-109,81,-39,1968,158,1898
-38,96,-17,793,-227,-944
-37,-52,-57,638,849,-1931
-44,104,-75,866,922,-1082
-101,54,-88,318,392,72
-105,91,-97,-976,-949,625
-39,90,96,-1818,-298,509
0,76,67,-1465,737,-24
19,75,50,-553,833,-145
60,77,41,-98,1355,-1132
47,74,65,193,374,-752
54,77,58,325,-487,-145
71,92,61,-345,-272,224
76,87,41,-370,-7,296
-19,2,61,-1077,5360,-3528
-75,-47,-86,-1061,6421,-4148
-36,-15,-122,-2180,6685,-3815
101,-107,-84,-1594,6331,-3292
-98,-34,-121,-546,5602,-2631
33,-47,8,-1481,1737,122
-8,37,119,-1745,134,1782
3,17,-120,-1902,-1025,2373
12,15,-114,-1084,-2100,1245
9,40,-72,2473,-573,-33
73,16,-90,-455,-782,-3366
127,79,95,1218,2278,-1493
-102,-33,86,404,2095,-553
-22,63,-42,-1014,1346,-139
-39,-24,-62,-1531,154,1379
-91,-32,-25,-1410,-387,1976
28,-22,97,-1388,-2652,1951
107,75,-36,257,-2228,1883
-111,33,70,1707,-1834,-114
-97,-3,24,1363,589,-2798
-82,-9,5,1144,1985,-3083
126,89,38,734,2787,-707
-83,113,28,-299,2467,106
68,-33,-21,-796,1125,1078
101,-32,3,-964,-952,736
-82,109,125,-832,-2293,1503
-88,-48,-62,-467,-4583,2816
-19,-87,22,2779,-7724,5828
30,-104,61,3656,-4886,6711
73,75,-57,1271,-8229,7431
-37,98,-28,-1197,-4147,4130
46,-105,99,2074,-2853,3982
38,32,-114,3053,991,1331
98,113,110,2707,1079,564
-87,75,122,1031,-347,-373
-96,-44,36,-655,195,-961
-58,-94,-71,-1719,509,-725
-43,68,-120,-611,44,-541
-43,63,94,108,239,-409
-54,83,95,-660,53,-383
-32,73,60,-597,-40,103
3,88,60,-578,-247,182
95,114,53,-307,-180,273
30,107,51,128,-530,-430
31,103,95,-255,-835,-508
59,108,67,-658,46,-141
33,65,54,-129,43,-205
35,65,50,34,-164,243
48,84,49,-151,-94,558
65,71,70,625,-158,698
87,84,51,-2850,2452,-3659
-30,-89,-115,-2633,4013,-4151
42,-122,-97,-2196,4334,-4006
-7,48,-12,-2488,4231,-3740
97,89,55,-2458,3901,-2377
-30,121,-39,-1686,2372,-563
-86,19,33,-1736,872,1211
-14,25,-73,-1033,147,2186
-21,72,114,-1593,-1323,2817
34,6,-116,-1004,-2311,2792
-100,-62,-34,611,-2206,1967
-74,69,88,1069,-304,-2003
-102,18,25,499,706,-3883
-89,53,18,133,1967,-3165
-84,45,53,-229,2388,-1144
68,-7,118,-960,1462,347
-43,52,-117,-1218,813,1039
4,-4,-106,-1680,-956,1975
11,-113,90,-1263,-1746,2136
-58,37,121,-449,-3046,2623
112,94,13,1439,-2125,1645
-119,1,13,1012,-854,-1998
-118,-68,-24,138,583,-4433
58,-48,-28,624,2155,-3522
71,-122,-34,1414,2001,-1656
-81,118,33,-121,1147,-601
55,-38,69,-81,1673,980
54,-42,-119,848,-102,2763
54,-118,21,904,-1094,3011
0,-91,-39,380,-2447,5322
-88,-17,54,368,-6242,7456
110,29,119,1309,-6369,7776
-26,-51,-28,3066,-4160,6146
-25,126,-67,-19,-3911,5097
3,99,-57,-1229,-2752,4305
-75,121,79,633,149,1690
18,97,107,1083,-198,420
-66,59,72,-188,-36,-255
-111,-81,-29,-394,637,-744
-91,110,-95,-61,719,-381
-71,91,111,35,258,74
-65,77,99,-221,11,-76
-46,44,58,-31,313,-105
-50,25,51,380,215,5
-35,65,56,-272,-50,228
-20,75,47,-161,-129,206
12,65,40,110,167,229
7,92,71,-334,-86,366
-20,84,69,-547,146,149
16,77,46,-264,232,282
85,-91,-70,-1270,1397,-6587
-33,74,-90,-2951,6225,-4922
-104,-41,-118,-1572,3721,-4304
-35,25,28,-4323,3221,-2793
22,79,-29,-3684,3729,-668
-58,26,48,-2828,3066,-1294
30,44,-3,-1819,1532,509
12,-15,-76,-779,505,1975
28,48,-108,-1145,-1244,3255
67,-72,-109,-1502,-4007,4156
-43,-65,-62,-429,-3527,1978
38,-120,36,2037,-207,-825
43,7,-26,-260,823,-4091
110,125,-15,16,2511,-3570
31,-60,18,151,2671,-1654
-88,-43,118,-516,1820,349
-12,9,123,-980,852,1449
3,-120,21,-1459,-398,2152
1,-7,-35,-1277,-1125,2716
-13,113,-79,-1159,-2803,3230
-14,56,-25,-1261,-4023,3012
-109,-123,55,-807,-2627,243
-28,115,-94,-806,-1667,-1918
-49,-12,126,1648,1036,-2784
38,52,-117,1368,2189,-2916
-119,118,-75,987,2598,-2785
-49,82,-113,373,2550,-1700
0,40,-88,424,2554,-425
72,47,-39,-86,1806,2109
70,35,-86,565,457,3102
-117,109,118,-1076,-1172,4812
-69,-106,116,-1056,-3929,6150
-68,93,-23,387,-4422,6523
86,-23,89,385,-3278,5772
-75,119,-103,-2609,-3212,4135
-101,-104,108,-1321,-2908,3477
-123,57,-59,-971,-3465,3208
-6,-94,107,-699,582,2345
73,54,81,1861,599,-437
-42,-21,52,1094,-160,-1612
9,-71,-3,-1714,182,-1687
39,6,108,-481,588,-1049
29,13,102,-201,-142,-263
74,49,60,-582,62,135
87,80,52,-684,-209,100
103,60,28,-116,29,66
78,94,49,-792,-561,230
113,100,64,-749,-414,352
-127,82,45,46,-125,250
111,101,54,-55,-156,187
18,-26,-78,-4185,1385,-3618
-57,-39,48,858,3703,-7057
78,32,-39,-1349,3203,-4648
126,16,-118,-2067,2906,-4179
16,85,35,-3592,3300,-3365
-4,-102,60,-2216,2114,-2645
-44,-34,102,-2859,2351,-2958
102,-3,118,-3014,3373,-2800
-102,46,68,-2218,1650,1038
-128,5,-9,-1850,409,2192
-97,43,-78,-721,-566,3157
-27,-71,-51,-663,-2138,3673
12,-10,29,-86,-3681,2322
-23,70,-128,1454,-1087,129
104,-51,9,629,-951,-2805
106,-23,-34,252,1260,-3637
-51,22,-23,241,2009,-2392
-26,80,-17,-653,1773,-1057
-91,73,-64,-1720,656,477
29,127,-10,-1220,164,1752
126,57,70,-964,-921,2767
78,33,-45,-879,-3223,2485
26,-33,-116,829,-2677,1219
99,38,3,2416,815,-1577
-112,60,-31,254,836,-3962
-13,-97,-16,368,2575,-2423
102,-34,-2,75,2025,-771
66,13,-51,-1052,399,-583
122,112,5,-1229,-377,1293
82,-54,-75,360,-1699,3122
116,32,26,1558,-2851,4486
119,62,-115,2005,-3079,4723
-56,-61,25,2867,-5509,5794
47,119,15,272,-4296,4965
-81,120,-8,107,-5605,5981
13,5,67,-557,-3849,4358
95,94,-43,403,-1609,3466
66,58,-113,757,-1487,2541
14,96,90,-1360,-1045,542
-46,-39,33,-385,496,-1094
-43,116,-30,583,1033,-1133
-76,106,-98,261,597,-747
-88,-114,123,-490,172,91
-63,92,59,-22,267,-240
-13,82,24,110,317,-123
-3,85,19,-119,144,-82
-19,82,8,-166,-38,-59
-3,100,17,-581,-318,204
-1,109,25,-480,-320,449
7,120,32,-173,-211,290
72,45,6,-2061,2572,-4733
-99,-4,0,-2312,2846,-4005
62,62,-4,-3430,4146,-3652
-94,-68,-58,-2841,3919,-2923
-28,-79,-92,-1637,1459,-1414
-94,-79,75,-2032,2184,-216
28,-84,-28,-1150,1292,1010
-54,-93,-91,-989,-174,2295
-30,47,124,-1470,-1290,2627
-10,118,-47,-564,-1934,1369
17,82,77,1916,-1130,187
84,122,102,448,64,-2980
-114,28,17,1000,2257,-1451
37,-78,33,-101,1896,-635
93,28,-112,-1089,1347,330
-15,35,95,-1608,253,1393
81,-35,127,-1274,-863,2216
21,-101,119,-1632,-2136,1357
-66,58,-46,-307,-2947,1998
-115,-24,112,1500,-1563,92
112,94,-12,890,464,-3652
-68,25,-19,1402,2564,-3689
126,-119,11,747,2735,-2298
108,-11,22,208,2576,-1040
3,22,-7,-282,916,655
65,-89,-119,-336,104,1344
-107,-21,-46,149,-687,2886
-81,-44,53,599,-1208,3852
30,6,55,837,-4533,5937
-19,95,124,1852,-4046,7543
-22,-31,-35,1025,-2069,5564
7,-102,-85,-1711,-5391,6219
-126,-20,120,-446,-3044,4211
-85,-80,-56,-192,-1595,3758
99,74,70,716,-812,1953
-4,64,46,1204,-721,703
-54,11,8,-307,181,-945
-39,-89,-32,-794,649,-1129
-52,44,-72,86,321,-821
-22,8,122,314,267,-270
-17,27,94,-234,-34,116
5,14,47,-308,-114,-147
22,0,31,8,67,119
11,28,32,-260,-343,247
14,34,25,-96,-458,194
27,61,31,-438,-66,217
16,63,32,-81,-613,99
27,101,50,-220,-617,19
43,92,21,-258,-314,170
42,103,32,-534,-81,293
92,29,-27,-2632,2494,-3440
99,-62,58,-495,3206,-4013
1,-52,-128,-1900,4734,-3575
67,-80,-119,-1167,4964,-2774
-50,4,-62,-2080,4322,-2157
53,117,-52,-1514,3376,-916
28,76,51,-439,3587,-979
-126,110,116,-1000,1699,-208
-16,-34,-63,-1141,283,1316
-19,2,-55,-1482,-728,2289
-3,84,-25,-1527,-1815,2581
29,26,40,-862,-2647,2185
-82,-74,123,1610,-1099,756
-91,-65,110,214,316,-4312
-45,-108,40,802,2244,-3198
89,-97,56,626,1895,-537
40,-35,-32,44,1936,290
111,76,-49,-1404,641,744
-37,-83,12,-1616,-269,1459
-4,26,-44,-1402,-1214,2010
-11,-63,-39,-1365,-2433,2094
103,-24,121,225,-2455,2086
21,-26,-96,915,-1849,-1047
-128,-65,-11,1549,714,-3243
-44,-92,-11,1015,2046,-3816
-29,50,13,635,2412,-2436
-93,-23,-89,766,1685,-449
66,74,-6,982,1403,273
-40,-115,40,1722,2596,2234
-71,-112,-64,1596,1201,3334
-119,122,-79,-525,-442,4579
7,-72,-87,-2746,-2536,6207
0,114,-122,-402,-2759,7716
-46,1,-82,585,-4006,7882
-95,49,2,-828,-2693,4394
86,-44,78,-3000,-3340,4613
-121,-107,-63,-1958,-4254,6485
-66,-91,112,-138,-2260,4566
7,-120,62,730,-432,-737
-84,3,-3,1183,1044,-3239
-71,-94,-77,285,1896,-2294
-98,125,-120,-1620,546,-908
-102,89,96,-1789,-1188,633
-33,-84,74,-3192,-958,1334
35,-72,-8,-2780,229,73
53,-101,27,-808,2092,-1550
17,-85,3,-697,852,-1257
3,-109,10,856,-542,-481
27,-106,12,731,-595,-408
28,-88,5,-166,-355,-176
111,49,68,-331,4295,-4572
-116,12,57,-1734,5829,-5066
2,-75,78,-1146,5991,-4668
110,-59,80,-2206,4929,-3896
-91,51,-6,-1927,4436,-2776
-71,-121,106,-1535,3154,-1022
-76,73,-80,-1401,-597,603
-62,-1,-120,-2229,-1114,1150
-59,-1,-57,-945,-1492,3067
2,117,-58,-260,-2473,3255
7,103,-106,-387,-3627,1454
32,-64,92,1568,59,-733
-82,28,52,879,1828,-4457
-114,40,62,-51,2474,-3683
100,39,89,1003,3059,-620
72,-53,-16,-491,1913,204
-1,41,114,-1576,428,1224
50,-66,-4,-1505,-659,2129
59,-107,-124,-1347,-1912,2152
-8,71,-110,-651,-3568,1986
-103,20,16,749,-2499,1225
94,-48,66,1702,-77,-3319
-103,-97,-23,609,1490,-4398
71,120,12,1535,3438,-2970
86,-9,28,154,3198,-801
-9,-103,4,566,2234,845
89,98,55,-1031,23,2440
-124,-95,-21,-161,-1245,3505
-66,-21,-91,-662,-2431,3893
-35,7,121,-1049,-3186,3335
125,50,99,4,-5634,5485
-38,72,-44,3266,-6601,6485
-26,-93,-62,443,-4727,6227
101,109,-128,729,-5019,4970
-55,-95,-53,736,-594,3948
-49,85,91,2173,-970,3496
-5,-77,13,-3865,-3918,2663
-1,77,84,-3631,654,-1735
-42,124,-29,3190,3032,-2274
-128,84,-42,1983,1049,-631
-77,-76,-79,-924,-168,213
-23,103,64,-1396,180,-163
-27,17,22,504,453,-292
-38,39,30,266,19,-100
-16,71,30,-575,-294,252
0,85,41,-739,-386,378
-3,104,53,-536,-428,266
3,119,61,-410,-360,244
13,-120,69,-429,-333,293
24,-100,70,-458,-256,280
-62,-60,100,-1050,5061,-4322
93,-33,71,-228,5620,-4862
-45,-69,88,-1407,6677,-4558
49,-122,97,-1803,5703,-4011
90,43,64,-1775,4146,-2938
-97,97,-92,-1820,3405,-1677
-101,-13,28,-1539,-194,1977
45,35,-25,-138,555,1881
12,-39,-50,-1136,-1449,1837
11,-103,-22,126,-4272,2371
-63,5,-125,1725,-1533,702
96,-88,121,1065,-467,-3242
-105,-94,27,-126,1701,-3594
85,-128,40,19,2055,-1614
106,-82,-6,-419,2308,626
-71,25,-37,-1439,670,1677
58,-14,-26,-1100,102,2146
41,102,-116,-1336,-1649,2508
16,-36,106,-927,-3209,2760
29,-52,105,-93,-3332,2670
-102,40,-32,322,-1643,-1260
110,-19,-48,1207,991,-3002
-32,-88,-33,818,1812,-3360
56,71,-12,39,2390,-2397
35,-120,-94,-90,2436,-200
111,-27,105,148,1034,2310
-81,31,-44,229,573,2235
-29,-127,25,445,-855,3545
-84,-33,-26,-653,-3165,4243
24,27,28,646,-6437,5768
13,91,61,828,-4318,4926
-1,-86,48,1801,-4155,5254
-88,44,1,-531,-4975,5918
4,124,-95,172,-2160,3686
1,89,-126,309,-445,2401
106,78,75,-214,-891,1380
-19,26,67,-56,-1078,-15
-39,-33,31,-751,25,-680
-56,100,-32,-295,923,-714
-77,69,-82,358,646,-387
-35,-128,-127,-547,142,-163
12,112,79,-748,378,-291
24,82,39,-350,464,-439
12,51,17,19,210,-466
24,65,14,-230,57,-160
34,67,3,-474,-153,-49
56,85,23,-493,-408,323
51,120,38,-818,-296,253
36,-115,50,-936,-149,328
53,-79,49,-906,-194,503
1,-118,101,-436,4788,-5073
-19,48,119,-1218,5610,-5240
25,-11,-103,-1877,5074,-4839
75,-8,40,-1355,3527,-3172
21,94,-99,-1152,2284,-602
106,7,75,-1860,1476,135
42,-73,-42,-1240,469,1576
34,-15,-63,-1052,-716,2597
47,7,4,-930,-2150,2345
-61,97,-9,351,-2466,967
74,-128,111,433,-930,-1892
-128,-103,59,771,1355,-3171
39,122,54,-46,2435,-2173
32,-4,81,-55,2146,-427
-26,-64,30,-1476,1006,639
73,86,30,-1113,124,1980
84,-16,-122,-1085,-1193,2116
6,-5,-100,-1599,-3025,1764
90,-13,-7,1166,-2319,2237
-66,2,63,1310,-887,-1300
-79,52,-26,41,549,-3254
81,-74,-24,1665,1252,-2105
-12,20,-16,593,1438,-1371
-92,-2,-47,-304,1648,71
54,67,-115,403,623,1884
126,86,-40,397,-375,2005
-85,-79,-11,660,-283,3565
83,-20,4,735,-3397,4981
-51,7,-114,1346,-6477,6488
80,-120,-98,2196,-3699,5580
-45,63,114,211,-4831,5900
91,73,-24,-2400,-5290,5390
-63,-21,70,-505,-572,2771
-107,-101,56,2679,408,1297
73,-7,25,2406,-303,734
-38,39,67,-8,-432,-481
-27,-106,3,-391,641,-1265
-2,25,-97,374,1156,-1254
15,41,118,59,576,-1078
39,35,96,-383,222,-965
55,-5,63,-363,74,-877
65,-18,57,-281,40,-615
81,-21,52,-251,-168,-197
75,-20,51,-186,-267,128
67,-9,60,-254,-421,427
67,13,64,-198,-380,859
67,37,72,-99,-381,1066
74,63,65,-64,-329,1141
84,99,66,-133,-395,1166
84,115,53,-147,-209,870
5,7,-2,-979,2896,-5840
-34,-61,82,-1620,2891,-5551
44,95,81,-2825,3100,-5064
-19,8,117,-3838,2785,-4376
47,41,-106,-2438,3508,-2600
122,-122,93,-1230,3009,-1141
-18,18,7,-1625,1891,233
-74,-31,-128,-777,539,1960
-70,-101,61,-2119,-1323,2101
-61,-11,84,-969,-2932,1061
-46,11,48,2489,-957,827
33,79,73,379,-356,-2675
105,-104,-13,152,2475,-2801
37,-57,11,-60,2242,-1036
80,-22,67,-478,1618,775
-86,67,54,-1375,284,1405
11,-47,-118,-1482,-538,2025
-21,108,121,-1646,-2092,2355
-17,41,-89,-447,-3103,2814
-34,-102,2,539,-2445,1381
-101,55,-40,1172,-1295,-2121
102,87,-77,2035,96,-3973
-102,-85,-71,106,2209,-3825
44,47,-48,571,1524,-2986
-54,-17,75,647,1893,-264
7,37,47,1029,798,1696
58,105,-76,412,761,2132
71,91,75,667,299,2908
45,-125,-30,-442,-1265,4963
-27,-68,25,481,-4418,7564
74,113,106,412,-3169,5670
34,-15,-17,2108,-3452,6455
-38,43,123,555,-2617,4837
-38,-4,-91,-821,-1404,4454
-84,-108,89,-416,-665,3772
45,92,45,529,-806,1771
-42,49,40,298,-481,-741
-27,-45,-5,231,440,-1096
-57,113,-51,60,321,-832
-57,78,-90,105,-56,-405
-22,73,-120,-322,49,-317
23,49,89,-448,221,-405
40,39,80,-354,72,-483
52,32,70,-417,-82,-485
68,16,63,-317,-180,-404
65,16,66,-455,-201,-211
64,16,68,-471,-292,112
65,15,57,-144,-135,476
69,47,58,-133,-158,662
81,71,58,-82,-16,803
-116,-35,-75,-895,3891,-4489
-47,106,100,-1246,4491,-5631
3,-5,35,-2119,4871,-5141
-110,-44,88,-2816,4987,-4775
103,11,-112,-639,2853,-2461
86,29,-30,-1285,1541,-791
-115,-61,-78,-2096,314,821
-86,-52,116,-1094,96,2333
-87,50,92,-1064,-897,2534
-21,-112,117,-516,-2121,2722
108,16,-59,1410,-1719,985
-57,47,68,-345,-308,-3311
-127,-105,-27,203,1620,-3259
62,-79,-19,358,2317,-1925
59,50,-13,-265,1991,-187
-87,34,-28,-1354,1080,658
0,102,-56,-1010,164,2205
-6,0,-102,-1167,-644,2591
-6,96,-95,-768,-1872,3219
-58,85,73,-871,-3396,3233
94,-116,23,451,-1813,855
-78,-99,-47,329,-1311,-3290
-17,114,-94,968,757,-4599
-43,-36,-83,1036,2304,-4417
-49,-120,-48,-295,2536,-3303
66,-39,93,308,2430,-996
102,38,100,126,1905,1429
-122,-118,-55,543,521,3102
-114,-109,103,707,-413,3822
123,-84,10,109,-1385,5189
8,9,81,918,-4480,8126
16,98,-83,565,-3392,6477
59,72,-46,2338,-3401,6515
127,-90,-117,-3152,-4470,5749
-112,110,53,-1124,-2607,4437
-46,-72,43,1986,134,2787
112,26,-24,2940,323,1148
-3,113,28,-276,-364,-145
-44,-12,-15,-2369,210,-1417
-14,80,-68,-535,1185,-1217
-49,-29,-113,1460,646,-895
-25,34,-117,436,-31,-79
9,56,115,-864,-145,-50
60,31,72,-630,46,-95
52,-17,55,228,-125,-195
52,-4,61,-326,-273,141
49,-8,44,-431,-257,346
42,16,40,-482,-551,634
47,59,32,-620,-374,717
44,80,31,-548,-616,762
-66,-39,69,-809,4136,-4456
49,87,-15,-840,5339,-5753
109,-5,-128,-1443,5086,-5423
-84,-80,127,-2455,4151,-4581
-68,-76,69,-1114,4516,-3275
-120,-87,25,-490,3046,-1779
-51,-17,-24,-2021,1102,986
-40,11,73,-1044,-57,1598
-21,71,-6,-1443,-1812,2388
-114,-102,-114,1169,-2356,1810
-110,-48,-81,-80,-2108,-2151
51,-13,89,989,1373,-3398
80,-17,18,324,2380,-2423
-28,-79,30,-497,1613,-912
88,42,122,-1183,1204,517
-62,-108,-119,-1797,219,1570
41,37,-61,-1473,-555,2086
34,-83,-98,-1182,-1483,2723
2,-97,-68,-530,-2515,2731
107,-6,116,1076,-2840,712
97,70,-53,1922,-486,-1785
-128,-41,-21,2075,1028,-3741
-82,59,-36,952,1966,-2908
-11,8,-14,197,1804,-1579
36,-97,118,-70,1689,929
106,-4,101,-27,155,2815
-40,-124,-99,-531,-453,3004
-36,117,51,-39,-1035,3666
-29,-85,-98,287,-2042,6395
9,-124,53,619,-6056,7911
58,-1,-121,3098,-4987,7561
-109,94,67,1856,-6475,8147
-66,-33,47,-417,-3437,4931
-69,102,-25,-168,1362,2330
79,69,-34,363,1267,799
-26,74,1,460,-653,347
-54,-13,2,68,-411,-787
-77,127,-43,960,307,-1263
-103,117,-54,520,258,-936
-87,107,-73,-1089,220,-594
-46,43,117,-1237,188,0
-47,7,82,-562,112,27
-37,15,66,-853,143,372
-17,52,39,-2043,712,648
-7,52,12,-1446,909,247
14,34,41,1380,483,16
-1,85,47,887,-644,248
20,122,46,-282,-560,358
36,-105,31,-1028,51,609
16,122,27,-90,-409,288
-78,-16,-118,-2420,2075,-4995
83,67,99,-2492,2608,-5699
-112,-49,-112,-3667,3527,-5393
-37,-11,-55,-3445,4163,-4213
-127,-25,-32,-1703,1323,-978
-104,-95,-30,-1881,1296,455
-58,-54,-121,-382,1160,2026
-64,46,-6,-1173,-384,2849
-18,66,106,-3722,-3198,2493
-57,72,-24,591,-5261,1922
19,71,84,2557,753,-1889
-1,-53,-58,-377,1054,-4776
98,-106,-47,-1081,2781,-4251
52,110,9,3,3054,-1439
-118,68,85,-309,2170,140
-57,100,84,-1112,1158,1230
22,-45,-125,-1077,-123,2590
61,70,60,-1526,-1810,2946
72,8,14,-2365,-4611,3755
-51,6,65,1040,-5702,4217
-8,-92,-40,2306,-321,-2195
5,1,-87,713,-471,-5300
-48,5,-116,-942,671,-4120
114,95,-105,930,1195,-2344
-30,-121,97,-364,2434,-596
-19,80,-73,639,2012,620
-10,85,28,769,981,2258
39,73,-80,517,438,4182
92,50,27,77,-576,5510
54,-32,39,313,-4235,8561
35,67,118,1608,-4213,6892
74,90,-68,-829,-3589,6260
100,67,44,-2465,-4805,4633
-102,101,14,-882,-1487,2938
97,41,8,-15,477,1189
10,-32,-32,1230,220,-255
-45,-69,-29,990,-256,-832
-38,-112,-53,-60,372,-815
-23,92,-92,-480,663,-644
-2,27,109,-307,460,-559
19,22,95,-166,53,-382
42,8,56,-116,168,-348
48,23,46,-447,100,-277
55,13,29,-353,-13,-217
60,9,21,-139,-171,130
56,28,26,-304,-211,412
59,42,32,-271,-259,620
68,55,31,-129,-261,741
77,79,36,-197,-280,816
79,99,32,-131,-280,758
-103,-55,-35,-1021,2325,-5827
66,-94,-12,-2803,2888,-5668
33,60,29,-3172,2898,-4946
-122,-76,93,-3322,3224,-3989
-53,-70,79,-2196,3884,-2667
-41,-9,53,-1424,1937,97
-74,-37,-33,-995,937,2006
-36,53,-98,-900,-534,2820
-8,101,71,-2082,-2790,3247
104,-118,56,699,-4385,1251
84,69,27,391,-530,-1929
65,109,21,835,293,-3876
-117,-107,-8,-24,2920,-3131
-101,45,25,-791,2643,-2675
-99,109,-121,-1846,1670,-946
-40,113,115,-2015,656,772
40,-79,-113,-1064,-194,2950
54,68,110,-1033,-1388,3327
12,17,116,-1113,-3196,3511
-31,-88,-66,1622,-2764,3326
-87,-33,42,1176,-1125,-2586
-112,-17,-23,-210,-1383,-4856
51,-25,-57,219,759,-3457
55,-53,-47,1467,2826,-398
-62,-74,107,679,2300,1143
10,-38,99,111,1565,1528
36,57,-22,533,-231,3225
-109,72,127,-148,-849,2948
-28,92,-3,-264,-966,4330
105,-52,55,-115,-4784,7196
56,-15,-38,501,-4323,5974
-91,-87,6,2174,-1122,4404
102,-50,-75,-2403,-2947,4245
7,-19,-86,-1171,-3472,2733
43,91,125,-7,-1339,2409
-5,-47,66,2660,-1093,1876
-34,6,37,1021,-503,735
-34,29,0,-684,103,-193
-10,-66,-39,-401,-256,-728
45,99,-68,-513,141,-960
-45,44,-121,-510,64,-120
-44,74,109,-720,-32,200
20,60,68,-650,-19,-183
68,20,23,-158,151,-376
40,10,21,-270,-222,-250
38,37,38,-761,-296,276
27,44,18,-332,-253,557
33,70,27,-302,-300,563
60,98,34,-435,-521,555
39,96,54,-182,-1346,190
12,30,105,-2188,4147,-4168
-82,-25,97,-1040,4986,-4694
-58,-22,107,-2178,3996,-4812
120,16,-125,-1815,3414,-3628
-44,82,66,-1004,1345,-630
26,33,-107,108,737,424
-41,34,113,-1479,510,102
-87,-44,32,-1175,-169,1393
-77,-29,-75,-1010,-1277,2695
-9,120,-64,-1746,-2444,2624
-23,71,107,-304,-3303,2398
69,-112,113,939,-283,-148
-87,-22,32,288,67,-4109
-56,75,16,-937,2237,-5017
-26,89,60,-254,3463,-3020
-123,115,19,-556,2571,-1041
-50,47,-32,-1197,1113,593
21,109,96,-915,875,2028
32,-88,12,-438,309,2449
-33,10,-26,-1412,-1287,2748
-74,106,-45,-1360,-3272,3677
-59,-98,-55,-438,-5130,3101
110,-44,-37,910,-880,-1397
106,94,-19,506,-1144,-3322
78,-42,-57,165,1491,-2864
-57,86,-43,1781,1408,-1456
80,-41,49,2172,798,423
-38,-21,-107,1060,1603,898
30,6,-4,1010,589,2792
66,5,-106,1160,-420,3814
95,17,32,407,-1718,4217
-61,-22,-121,-1045,-5309,6701
-44,33,109,1636,-2399,5075
-16,-52,-54,2101,-1864,4095
96,65,87,-1118,-2951,4469
98,-112,55,-1035,-1876,2761
71,74,49,-1376,-1039,2565
37,-87,1,1152,-1038,1717
27,-56,20,1809,-527,1354
-39,24,17,-394,-237,532
-43,-7,-27,-1340,-135,-154
-53,-110,-83,-358,41,-904
-11,91,-125,-183,331,-1293
24,56,83,-139,549,-1325
39,21,68,-129,184,-860
27,13,55,-349,-105,-380
34,16,42,-706,-109,-47
46,16,20,-565,-131,158
63,11,11,-112,-210,230
73,26,6,-246,-270,608
-78,-71,24,632,4008,-4308
27,-32,-120,-2251,4730,-4310
-80,-91,56,-1697,5863,-3799
73,-53,87,-2629,5967,-4183
119,124,-90,-2032,4490,-2678
120,21,106,-1581,3486,-1566
-96,80,24,-1551,1540,247
-109,13,-49,-1375,329,1572
54,15,-35,-2140,-1327,1626
110,90,-121,-1212,-2224,3311
-48,54,-65,479,-1830,3650
61,98,52,486,-1755,853
112,-36,34,-84,-1033,-2548
15,-69,24,95,-173,-2685
-118,-19,4,234,1939,-1300
-39,106,26,54,1878,110
59,-84,127,-1452,1179,-32
-123,-91,83,-984,529,1345
-74,-72,-18,-161,199,2101
-46,11,-101,-724,-1103,2372
-67,-101,-48,-782,-2522,2151
10,-115,-82,229,-2451,1258
-58,1,30,709,-496,-3169
36,17,-32,150,996,-4335
-45,-78,-27,141,1476,-2919
83,-112,-41,1174,2251,494
-58,123,72,920,2913,1006
16,-57,80,591,1166,2962
74,75,28,176,-374,2928
-121,-104,112,433,-1929,3957
118,-37,4,-434,-4944,4387
91,13,102,1134,-5807,5885
111,-83,-112,1507,-3811,4881
120,87,-45,-1659,-6690,6797
-69,116,-76,289,-3902,4312
10,5,-93,1828,-14,2220
-95,20,20,2514,726,1083
22,-125,68,309,-939,971
-67,0,33,-1179,-323,-572
-49,-122,-36,-359,998,-942
-65,54,-85,227,360,-602
-64,30,-108,591,-363,-97
-23,19,93,-181,5,-264
-17,-4,50,-573,-37,85
-16,-32,29,-186,-127,-42
-9,-22,38,-155,-313,238
8,10,44,-481,-148,341
1,1,46,-50,-261,381
-9,59,50,-527,-306,741
-2,88,43,-594,-365,697
35,-106,120,-207,5932,-2609
-35,-126,-119,-486,8587,-4994
37,-54,19,-2925,5074,-4289
103,-13,-16,-1595,5051,-3821
28,81,60,-2481,3988,-3160
38,-97,-39,-2606,3649,-1461
-123,-76,117,-775,1861,-65
-38,105,127,-770,-304,2365
-28,82,-80,-511,-995,2084
120,-66,-62,-359,-2481,1577
-15,25,23,1522,-1678,640
-46,-66,40,1663,-424,-2362
-60,-11,-35,121,1328,-2840
27,60,-50,439,2466,-565
3,-14,-117,-910,1507,153
-19,19,-52,-1557,457,1340
51,-72,80,-952,-54,2234
60,73,20,-1261,-1219,2431
-84,-14,33,-215,-2449,3307
98,108,9,386,-1935,1114
-48,111,-19,1406,-1245,-2389
-55,-45,91,1061,-120,-3683
49,86,44,1720,1868,-1313
106,-39,37,523,1957,137
7,7,-42,279,351,2164
108,3,27,-787,-954,2423
-84,-85,101,225,-1990,3174
-56,-13,33,-129,-3084,4107
-91,-78,-12,1608,-5333,5539
-94,-127,82,348,-6300,7927
-86,-96,10,-328,-2657,3797
-79,-67,108,-168,-3626,3895
111,58,85,-1472,-2746,2853
43,83,-5,710,-1499,1725
10,48,-69,1170,-1479,1083
2,39,-127,-574,-871,14
-35,117,8,-80,196,-660
-47,66,-59,280,191,-565
-26,48,-124,60,261,-163
-34,32,83,-107,198,-12
-36,70,63,-921,-131,177
-1,64,33,-691,43,238
-20,17,6,490,33,95
-14,83,10,-325,-129,482
-3,111,2,-595,-270,467
0,116,3,-327,-308,391
6,-117,17,-370,-427,372
20,-108,25,-373,-294,407
34,-104,27,-213,-149,244
55,-114,25,198,67,69
-54,67,82,959,4193,-3240
109,41,-101,-1626,3367,-5970
-24,41,-87,-1605,3293,-5297
-83,16,-109,-2150,3106,-5172
-31,-56,-103,-3640,2737,-4420
-11,55,-102,-2632,2363,-2779
-77,-9,-122,-1445,1995,-703
-59,-107,101,-921,1737,1703
-51,-30,-6,260,177,3269
-23,-98,-92,-883,-1598,2795
-84,-41,-5,-614,-3961,2292
-93,-93,-125,589,-260,-761
-75,-15,126,947,-112,-4347
-109,-47,81,-1591,1712,-4799
-128,70,112,419,2823,-1111
-120,-60,-95,-53,2046,876
-64,94,-103,-2196,-471,1866
38,-59,7,-1261,-785,2668
37,-65,-86,-1313,-2318,3100
-19,-13,-5,-923,-3206,2180
38,-68,-58,1639,-3025,-548
109,-35,7,818,-701,-2328
-119,119,-35,1645,2127,-3242
85,92,-7,977,2592,-2022
120,-98,-53,989,1881,-131
36,-91,-40,532,-155,605
-56,93,-44,-457,-465,2865
126,95,-120,694,-2000,4110
-113,-101,0,752,-2700,5581
125,-18,-56,1552,-3722,6200
-24,-56,-111,1122,-4663,6298
-11,86,-67,1404,-2634,4459
125,-91,-83,-615,-1908,2915
91,122,-40,-3780,-1457,1735
-31,-1,125,816,-1445,1111
18,-15,109,2171,-441,1304
-26,36,83,468,-1079,1032
-26,-47,8,-948,-662,-72
9,127,-50,-641,233,-560
9,51,-114,266,191,-714
22,73,127,-58,43,-373
38,62,97,-190,34,-178
40,45,57,-142,-60,-1
46,55,53,-389,-187,222
60,58,42,-281,-120,360
60,63,37,-97,-200,391
62,78,45,-189,-181,506
56,80,51,-59,-220,604
70,101,52,-148,-249,768
78,117,47,-219,-351,786
4,-97,-114,-3057,3848,-4912
126,88,121,-1582,3387,-4724
-2,120,-115,-2412,2815,-4871
97,3,-89,-2373,3111,-3834
66,-29,-103,-1690,3621,-2795
-120,100,-15,-722,2257,-1026
61,-74,112,-2321,276,446
41,-49,-37,-1418,-777,2507
40,-16,-34,-674,-1001,2353
-125,127,-35,640,-2250,2149
-48,101,37,1673,-1796,-970
-105,25,102,476,608,-3681
-115,54,81,559,2566,-3300
101,13,76,-44,1425,-501
-106,-64,104,-1817,461,110
-18,74,111,-1711,123,2043
53,-22,-1,-1281,-270,2678
23,-76,-103,-741,-1643,3422
93,99,-53,-732,-3458,2683
6,-115,-96,1218,-1992,2063
-120,-98,42,3246,79,-2087
-86,52,-7,-116,-1841,-4940
-109,-11,-53,-1145,1176,-3303
-118,-46,-118,2304,2276,1397
-64,-81,-7,187,1227,2123
-31,13,50,977,293,2472
15,85,109,522,-415,2645
-19,-98,89,-757,-2032,3728
-37,-35,121,1109,-3907,5090
-63,68,114,472,-2417,4547
-110,59,-87,2387,-2028,4267
-117,-73,-29,323,-1089,3774
68,121,-32,1130,-2061,3984
55,-102,40,-450,-2348,3465
69,-44,43,-4176,-20,1521
-14,21,40,-1703,-1730,1413
-41,120,-59,3193,-2070,1631
-20,-7,-14,264,-980,876
-55,13,-31,-1700,-913,527
-59,-82,-68,-1212,-781,238
-58,-111,-97,-703,-125,107
-71,-112,-127,-749,-92,16
-62,-120,84,-974,247,-43
-56,80,18,1272,-343,99
-39,51,-64,437,-169,25
-68,38,-44,-226,-53,318
-84,77,-37,-454,-278,557
-39,116,-52,-428,412,237
6,113,-64,135,228,148
12,105,-46,341,-244,-167
-90,36,-34,-207,6468,-3905
54,-95,59,305,7057,-4716
55,-84,40,-1554,83,-3731
75,-52,-20,-1855,3092,-4411
18,125,1,-1528,1731,-3101
49,-15,119,-3272,2390,-3069
32,-35,-128,-2290,1985,-2741
-97,-5,93,-2332,1599,-1254
62,-9,-53,-1158,1183,833
46,-30,71,-553,330,2391
35,65,-24,-723,-891,2901
-5,-106,-15,-1426,-3041,2335
74,90,-116,512,-2261,-26
-113,-64,-69,1440,712,-3482
-79,67,97,-448,1897,-3065
-119,45,111,694,2448,-373
-69,-73,124,-1370,1022,272
9,53,101,-1536,-65,1774
27,-53,15,-1316,-529,2040
-23,78,-97,-1019,-2180,3275
-47,80,-34,-651,-3345,2855
88,1,-117,793,-2701,554
124,-47,11,1521,174,-3131
-44,-126,-12,-30,1649,-3256
-43,-73,3,1179,2317,-822
-88,84,-104,456,1642,503
91,-64,76,196,-116,1393
-114,104,-73,-6,-1706,2480
-58,-40,-53,624,-2555,3909
-44,-34,119,1533,-4355,5021
0,100,105,1137,-6667,6455
60,-8,-15,2598,-4780,4970
-86,-3,0,-2049,-4925,4730
-69,-70,-50,-117,-3460,1909
-48,-101,-69,-633,-613,2015
63,-6,-124,2027,-764,657
-13,-9,59,1668,-450,206
-72,-30,22,-306,52,-293
-64,-106,-24,-621,176,-323
-42,74,-86,76,248,-326
-22,67,-121,348,303,-390
-5,66,107,19,237,-356
20,58,68,-524,199,-281
31,27,37,-218,263,-205
36,17,18,-81,167,-45
42,24,6,-198,52,233
36,25,-2,-208,10,440
44,30,-11,54,-73,695
49,59,16,132,-295,884
68,91,64,227,-231,796
-36,41,-36,1056,6070,-2834
-116,17,74,-409,3285,-4659
35,7,49,-1302,3781,-5076
78,-44,55,-984,2574,-4357
52,118,37,-1259,2410,-4370
10,39,48,-1308,2303,-3662
53,20,96,-1893,1681,-2920
-52,19,-1,-1345,1127,-243
-108,-127,-121,-1359,-205,1551
-45,-8,74,-1680,-1116,2977
26,-90,-4,-1716,-2204,3175
-12,83,60,-967,-3327,3378
13,-62,-57,1872,-1808,-594
-98,-64,79,674,-631,-3040
-102,113,24,297,1508,-3309
74,-61,40,277,2379,-1325
14,13,-2,-262,1886,61
-95,100,-60,-1729,921,426
-20,-106,52,-1338,446,1695
29,-13,118,-1351,-1211,2635
24,-10,22,-1594,-3680,3226
121,70,37,-131,-3804,1346
21,-89,37,1979,-1307,-3323
-116,89,-50,28,-59,-4237
-92,55,-41,627,3453,-2447
124,0,-23,2031,3008,965
34,61,-71,-403,696,1474
-94,37,-116,-891,-977,2809
-124,-63,47,-498,-2994,3427
99,13,-38,264,-5232,3943
7,126,36,1888,-5898,5258
47,122,43,3305,-2469,3887
-55,38,14,-378,-3626,4492
91,-66,-125,-452,-4323,4413
-65,100,-109,425,-1473,2456
-101,-122,-72,-1550,-310,1959
73,-6,44,796,-605,1175
16,-31,1,1917,-456,602
-36,-40,-49,796,-267,-81
-37,-74,-95,-572,88,-272
-33,119,-124,-449,-232,-337
-11,82,92,-346,-123,-295
-5,66,71,-263,-7,-317
5,52,53,-373,-59,-199
12,37,26,-351,-25,-89
23,55,16,-588,259,43
42,74,11,-827,689,67
59,59,3,-660,-453,201
58,90,9,-190,-350,647
55,120,15,-433,-289,562
16,-113,-95,669,5766,-4074
-20,19,-97,-1127,4196,-4198
102,-20,-39,-952,4011,-3971
-93,-17,15,-1831,2482,-4015
111,36,-77,-1453,3357,-3242
-24,54,48,-1030,2601,-1953
-23,2,-126,-1431,1240,-458
-56,-93,27,-1461,-41,1729
-17,-53,-48,-535,-573,2942
0,-78,-60,-1387,-2198,2816
35,-44,-108,-1062,-4303,384
-16,44,-85,2468,244,-1113
-110,29,68,28,765,-3731
-29,-44,65,714,2445,-1066
-41,3,75,189,2065,287
124,82,97,-1346,1182,170
-68,84,62,-1563,-56,1541
13,-68,-89,-1244,-735,2543
38,-93,90,-1395,-2130,2371
-58,102,-87,-618,-4095,2419
-119,24,-122,404,-2397,-585
80,85,18,975,116,-4126
-6,-104,-34,-152,2282,-3325
2,-48,7,1924,2772,289
