AccX,AccY,AccZ,GyroX,GyroY,GyroZ
-87,-76,77,-3492,2786,-2208
-58,123,-108,-3220,2588,-4122
79,-67,91,-2281,356,-4930
-126,45,24,-2363,2341,-5877
86,122,-111,-3239,2163,-6887
37,-74,44,-4392,2263,-5497
75,-68,112,-3035,1694,-2339
50,-17,24,-1810,1578,2211
83,-53,84,1349,3178,3725
41,-25,112,1940,2332,3774
39,69,-35,2529,1715,3542
54,-43,-106,1173,-1998,3725
22,53,95,3363,-5581,-772
3,-123,-15,-549,-6262,-3632
-119,76,122,-701,-672,-4602
110,53,63,-4010,1681,-5220
47,-61,94,-3426,3248,-1282
64,-41,-86,-388,3809,3715
-73,24,55,-445,2967,3058
28,-101,30,314,2975,2001
-27,105,14,526,989,3366
18,-23,-28,1416,-2461,559
29,114,-45,1746,-5125,-899
42,-88,119,199,-9881,-895
-92,-116,95,753,-978,4482
-20,125,75,6352,-1154,4542
34,-37,90,1016,-1117,4865
93,61,75,3853,-2491,4861
-83,42,-51,3866,-1283,4877
-79,23,47,2729,-264,3490
103,35,-47,1001,9,2367
-26,73,-49,-1231,-485,1253
-99,-53,-69,-301,-325,-927
-113,74,-61,1805,-37,-1940
-114,72,11,2243,-669,-1474
-109,64,10,1713,-421,-867
-75,63,4,350,31,-564
-44,50,-19,-784,201,-492
-57,37,-44,-903,-115,-364
-73,34,-64,-777,-333,-366
-82,42,-71,-514,-115,-289
-95,21,-98,526,63,-573
-69,28,-117,853,-17,-341
9,34,109,671,241,-29
28,96,98,88,141,632
-39,-112,123,-652,-135,316
-12,-97,-121,59,126,-125
-10,118,120,983,1705,-2366
98,-98,78,2462,1196,-5
58,-85,72,1261,-163,91
-27,74,-123,-1692,2655,-4001
-6,82,54,-1099,3421,-5168
37,-18,44,-3002,2012,-5816
-85,98,-96,-2000,2886,-4266
57,-28,24,-1420,3924,-51
-41,-42,-51,547,3238,4363
-4,25,-128,655,2623,5155
-12,-84,54,863,1952,4680
60,-9,115,-37,-2697,376
107,-99,72,3167,-5289,-1520
-45,-7,43,2820,-7526,-829
119,-57,96,-1314,-963,-4763
-40,60,80,-4081,1322,-6677
36,102,122,-3190,5331,-86
-16,41,-59,-280,3204,3467
63,92,3,-377,3159,2411
107,-97,-33,595,1980,1189
11,-124,-6,449,971,1329
-53,-116,14,475,-676,2843
100,-93,104,-737,-3541,3274
-95,-85,-101,342,-3183,5135
0,83,127,393,-3926,5858
107,-79,98,45,-4327,5071
69,69,95,3001,-5729,5171
-9,-31,49,870,-6314,6136
-78,5,-109,1095,-3102,1683
39,-94,103,2076,607,-411
-107,119,95,-741,1530,-1176
-106,-13,-92,-63,451,-1190
125,-55,86,-1743,-319,27
-116,-88,-42,-387,432,54
-125,-116,-78,897,595,-599
-103,-107,-83,890,569,-1002
-80,-114,-105,651,395,-713
-62,-109,-108,-260,87,-494
-73,-121,-115,-291,8,-372
-59,-126,-110,-104,-30,-167
-51,-99,-107,-112,-2,173
-52,-76,-113,-98,-65,81
-4,-62,-103,229,-264,15
0,-70,-97,943,22,-198
-15,-83,-98,1436,83,-302
-13,-70,-110,1200,8,37
0,-47,-124,134,110,310
14,-41,107,-131,294,412
20,-34,87,-66,239,294
27,-32,79,334,-4,151
50,-21,77,493,-57,-20
56,-13,84,343,-85,-243
57,-12,106,-140,-9,-272
-39,68,103,-3116,4610,-1743
-89,4,-28,-2964,2882,-4844
-46,-13,-126,-2439,2584,-5687
-20,-97,-120,-1785,1200,-7288
-59,-44,-116,-3302,4628,-6335
1,-16,-74,-2033,4291,-3658
-108,23,-18,-1791,4325,532
-41,41,4,1012,3796,2365
26,-56,-42,-925,3339,2722
-65,100,-4,-1239,1271,4147
15,-40,-83,1468,-3206,2624
-37,-52,66,3456,-4324,2256
44,22,-88,2330,-6349,352
91,-88,-91,-1192,-3135,-3577
105,-98,84,-1747,-1373,-5350
-122,-46,67,-3357,2185,-3868
31,52,104,-2236,2161,-2444
-112,-21,-83,-2169,3409,1370
-66,65,101,-379,2338,1776
43,106,-78,390,2242,1434
118,119,32,736,1726,1677
99,79,15,753,590,1737
-126,111,55,-715,-627,3446
-96,-102,48,-868,-3024,5012
109,58,100,462,-5407,5490
2,-50,77,496,-4164,4760
48,-94,105,-442,-5631,5173
119,-27,99,4025,-8171,6610
78,55,109,5405,-6023,5694
30,105,56,4324,-918,1150
65,4,101,4131,2912,-3555
94,68,112,-2277,884,-3789
-101,-94,90,-2129,-185,-941
123,83,40,-1182,-442,540
107,48,13,-195,28,242
-123,59,-17,776,705,-466
-101,90,-38,252,692,-690
-71,105,-45,-591,283,-727
-56,82,-61,-267,337,-722
-59,42,-76,623,349,-996
-51,49,-77,674,309,-734
-55,40,-84,925,-51,-283
-38,49,-86,851,0,68
-44,76,-88,563,-18,341
-36,96,-79,449,-70,562
-7,-122,-104,68,16,645
18,-94,-99,-266,-55,553
24,-81,-119,6,-12,306
35,-82,121,203,-83,7
25,-42,-118,-138,-253,250
-118,0,-46,-5636,2084,-4739
-113,109,66,-2840,-1178,-7501
84,28,76,-3566,826,-7693
98,-28,10,-5154,2990,-5096
-100,77,-14,-1891,3906,-556
-94,35,-69,-53,3580,2224
47,-126,-30,2198,3325,2530
106,-97,45,1654,2347,5445
0,30,-61,-321,742,4572
-44,116,-7,3948,-6414,323
66,-27,97,1089,-5368,1716
101,-115,-56,1010,-4467,-3356
-42,-97,72,-4317,-663,-5472
-38,43,57,-3668,1595,-5918
28,8,107,-3534,2780,-908
-89,-49,-99,94,3040,2120
24,76,-98,-841,3090,1417
36,109,-79,-825,2305,1403
48,86,-24,1433,1055,2084
78,-75,117,1658,414,1942
65,-16,-100,-502,-1517,2208
4,55,-99,-2568,-4357,3460
-6,-49,-6,4348,-5898,4437
10,122,79,-180,-7777,3870
-7,55,96,711,-5930,2463
39,40,95,6583,-2488,5771
105,19,31,4904,-1535,6433
-112,80,34,9233,-1169,2298
-3,-66,-27,2675,-596,-606
123,64,24,-642,558,-2007
-88,114,2,-127,1661,-1878
-93,74,6,-701,907,-488
88,78,12,-751,83,378
90,33,-14,823,-326,-317
92,49,-10,677,-125,-660
-74,96,-6,-357,146,-239
-58,99,-48,-649,378,-190
-68,92,-56,-672,-66,-500
-62,75,-58,-370,-212,-666
-62,55,-65,301,-12,-964
-46,16,-84,1380,267,-1345
-20,23,-82,1383,99,-760
-24,83,-70,90,-174,540
-82,92,-82,-405,-468,394
-25,124,-53,-458,-596,783
10,-89,-84,-616,86,243
-3,-106,93,1437,482,-828
10,-84,106,1964,19,-311
-3,-46,117,423,31,98
1,-66,99,-359,165,31
99,-25,-18,-4698,2858,-1909
-103,-5,93,-1546,3423,-2704
84,36,-56,304,2834,-3266
-49,-26,-9,-943,2125,-3652
31,25,-20,79,112,-4454
104,113,58,941,-2060,-6096
53,-112,-128,-4701,329,-5191
-47,-90,-98,-2206,2207,-5293
-35,21,-82,-3215,4915,-942
-40,-100,-77,-939,4001,2286
45,125,-11,-909,4175,3437
-109,18,126,-365,2880,3755
-66,-29,-112,-2921,1558,4112
5,-8,33,980,-3825,1504
16,-24,63,3040,-5381,3328
-52,-61,51,4360,-6941,1204
6,123,127,-163,-4295,-3659
-60,121,75,-1839,-1883,-6755
60,47,48,-3549,1073,-6544
-22,2,64,-3043,4718,-1646
-46,-85,-124,-2262,3108,1199
69,106,57,-929,2909,2970
-122,84,118,125,2864,2152
-117,87,45,-706,2031,2287
107,127,-92,-901,-128,2564
81,107,14,-34,-2536,1760
99,22,103,1099,-5072,1446
-99,-25,-110,-190,-7571,6331
-125,-63,78,3231,-3543,6241
-23,-46,100,1313,-4861,6271
52,-102,-109,3502,-3223,5266
-109,-81,15,6892,-1782,4946
51,-1,116,5632,-1906,4383
-13,66,114,-617,-1549,906
76,125,88,-3961,-187,-1602
97,108,30,1077,1529,-2245
80,82,10,2628,1568,-1827
101,-90,30,372,292,-1064
-106,-116,11,-586,-136,-634
-85,69,-34,-195,-35,-987
-89,56,-19,-171,-113,-1433
-66,16,-15,91,-51,-1495
-49,-30,-44,841,391,-1450
-41,-52,-73,1135,536,-927
-47,-3,-60,440,-42,329
-89,39,-53,-190,-544,698
-59,63,-31,-404,-508,822
-2,-111,-16,-1158,713,360
60,-40,-96,-495,925,982
-2,-34,-111,265,-134,784
-126,105,-92,-6221,2678,-277
61,-58,-20,-2099,2827,-5078
-108,-1,-44,-4170,3362,-3942
-115,-124,-8,-2886,4236,-6155
46,51,7,-2982,4833,-4906
-104,79,24,-1728,5170,-2341
-70,88,-5,-1123,4802,141
112,55,79,-1513,4635,2137
-57,-120,-28,-614,5537,4048
-128,22,-37,1682,-452,4980
-104,71,76,-972,-3561,2923
-113,-19,61,4905,-7187,111
-113,-40,105,3177,-5983,-1883
-61,82,100,-3183,-555,-5651
-37,-46,77,-2565,632,-6283
-26,-96,117,-3350,3499,-2499
67,70,-73,-1306,3194,2090
-56,-33,-34,-386,3266,1978
118,-109,50,-596,2858,2212
101,125,125,296,2080,2746
81,-91,-9,-72,580,2717
54,-26,88,-270,-1834,1539
102,-64,-113,291,-3621,1846
81,-126,-19,723,-6845,1847
39,-79,90,2385,-6572,4703
-91,77,69,753,-3908,5681
9,95,88,2071,-6018,3785
-40,88,121,2806,-3945,3310
-111,-88,100,3441,-2049,1980
79,71,18,4321,1157,566
-25,102,48,2163,689,870
-78,50,10,817,231,689
112,-93,15,1054,0,-640
113,103,20,1689,-43,-1064
119,97,35,1232,30,-547
-112,105,40,132,147,-381
-74,30,-14,762,882,-1152
-46,-25,-45,1341,988,-1511
8,-18,-22,701,112,-863
-53,38,-13,-174,-549,149
-68,-18,-14,-197,-263,-1374
23,23,-2,-381,147,-1104
67,99,-48,-334,472,611
-7,81,-61,182,93,242
1,112,-67,312,-13,150
28,-117,-81,-17,52,176
30,-112,-88,192,14,97
26,106,-113,1015,374,-506
64,79,126,1422,642,-845
99,105,126,989,445,-277
-84,79,-18,-2751,3381,-3007
31,-52,112,-3045,1709,-3916
-11,110,-101,-1397,2966,-5617
55,47,-60,-2730,5097,-5278
16,-59,-48,-1264,6526,-3066
-128,25,-39,-1193,4732,-1040
107,66,-43,165,4406,1067
-128,-72,5,342,3454,1662
-119,-36,-26,307,3233,1860
51,92,9,392,-41,3990
24,-83,-33,2255,-1946,3670
45,-80,110,821,-5966,2569
6,-29,-3,1110,-6437,-1677
-102,-84,-101,518,-3911,-4485
-44,112,79,-2048,-1412,-5419
65,-58,62,-3743,2863,-5410
113,-114,113,-2164,3948,-1045
-71,-83,-85,-817,2707,1406
28,59,-31,331,2103,2184
94,98,41,341,1634,1906
77,41,-18,903,759,2011
72,-66,-63,2469,-78,2524
72,-97,-82,2642,-2519,4140
99,-88,-120,2228,-4414,5382
33,37,34,394,-3803,8332
-56,97,97,1646,-2950,5965
85,64,17,1407,-1272,6293
54,-88,-89,3653,-1828,4009
115,-112,101,5526,263,3799
-96,104,-47,14818,2120,-3231
-78,7,26,-947,-173,-1304
-124,23,-81,-7469,-1279,-151
-79,20,-15,-6110,-854,-475
-44,-76,122,-1076,696,-247
-64,-92,-74,1754,808,-691
-80,-17,-29,1776,183,-1127
-45,11,-48,680,195,-694
-34,-4,-65,-17,155,-554
-28,-15,-75,-194,-208,-49
-30,19,-66,-461,-485,412
-41,59,-43,-529,-672,476
-36,74,-55,117,-350,493
-7,87,-66,488,11,432
-12,-98,-72,155,158,676
-24,-103,-101,52,-24,132
-15,-53,-62,-451,-620,596
21,-8,-85,-1008,137,466
14,-58,-126,237,608,-163
10,-74,101,1252,420,-446
13,-28,102,496,24,-157
8,28,42,-6173,1883,-1240
80,-2,-47,-4777,2757,-2563
76,-90,43,-3006,2393,-4246
43,-124,-3,-731,728,-5158
64,-34,-37,-5336,3528,-4532
127,-22,32,-3118,5117,-3090
-71,6,9,-143,4842,-902
-99,63,-7,229,5624,561
46,85,-81,56,3911,1273
83,82,-26,54,3283,2753
65,30,18,1232,1250,5139
19,24,55,-974,-1401,4981
-47,63,-38,1009,-5224,1241
29,-9,-94,3025,-7377,-263
-117,-77,99,1414,-3659,-2359
89,-97,77,-1348,-2811,-5884
50,27,46,-4410,857,-5625
83,126,56,-4267,3480,-3144
-33,56,122,-223,3389,960
81,22,109,-1022,3998,2517
109,32,-126,16,3373,1920
104,25,-27,-316,3242,1989
76,83,-62,-771,1050,3458
108,-56,26,-277,-896,3747
82,33,-91,1432,-4190,1189
110,67,-124,1862,-6917,829
117,-48,-83,1527,-4786,2927
-63,122,-105,-178,-3142,5525
-118,-111,84,-558,-3388,4577
126,113,114,1798,-6601,4215
-21,-87,-8,2392,-3982,2882
-81,-38,91,1668,186,2110
19,106,95,3793,272,463
-40,58,-20,4014,722,-682
-60,-7,-11,2602,308,-508
-91,-88,-9,676,402,-439
-108,-128,-32,576,441,-134
-124,102,-35,536,180,-239
-123,89,-37,384,29,-445
-99,76,-35,414,-37,-642
-78,67,-33,446,9,-844
-65,18,-54,749,211,-1376
-31,-14,-48,920,60,-1369
-9,-30,-55,697,31,-973
44,-27,-47,228,-70,-275
32,27,-41,-75,-44,410
-35,-13,-79,380,-11,-178
-10,22,-52,161,-244,556
31,101,-80,-867,218,1203
14,-110,-118,-753,223,1209
77,75,-87,-5874,3134,-2323
58,36,-29,-3577,501,-5832
7,25,-67,-3534,1609,-6705
96,-60,-57,-4580,2053,-6777
24,63,-66,-4009,4255,-5180
-42,-90,-44,-3719,4694,-595
-125,-82,-7,-1853,4248,3184
-73,-117,-60,-1675,3423,4773
35,-25,60,-512,2965,4146
-116,-4,-20,-622,1206,3743
-90,-67,13,24,-3192,183
101,-60,-117,3518,-6683,1170
-75,-72,-55,3798,-6295,-524
-77,67,109,1669,-5054,-4690
-104,120,48,-1450,-1723,-8303
17,27,48,-3604,4294,-5189
4,-41,82,-2336,4357,-1277
-120,81,-97,-1530,2959,1833
85,14,-49,-1607,3331,2975
-128,22,54,1201,2095,2938
-86,91,120,-418,2272,2458
-105,52,66,-1799,2007,3100
-21,96,0,-2499,848,4296
47,-91,-32,-1373,-2375,4266
100,-76,-78,-1248,-4503,1740
-79,6,33,2656,-6257,620
-69,-61,84,1639,-6276,-2884
119,-104,-95,2380,-7622,-5705
-81,14,-102,-4256,-4770,-5094
8,100,86,1562,3506,-1735
-65,104,101,2358,-365,-383
-64,26,-1,-310,-409,1731
-42,-61,97,1966,-202,2632
7,58,43,1096,487,4911
-59,73,2,1746,-541,5813
-9,115,-69,2713,-1420,5874
-120,-14,54,2586,-780,4849
28,90,73,4177,-1650,4415
12,-42,50,9340,-1317,1687
-96,-6,122,2692,-453,1060
103,96,28,-2793,514,-1746
123,74,72,-657,-231,-2631
-104,-56,105,978,180,-1489
126,-34,92,1137,283,-252
-120,-3,93,-201,128,-39
-71,-6,35,-467,484,-151
-57,-10,1,-344,449,-459
-39,-38,-25,242,147,-785
-37,-39,-26,618,-22,-590
-45,-25,-18,419,-69,-420
85,69,-97,-3765,2764,-2264
-103,39,19,-474,2488,-5669
74,-26,-99,-3401,1292,-5851
66,-100,-24,-3916,1126,-6330
24,100,114,-4958,2360,-5146
-5,35,-45,-4035,3192,-2388
-15,7,18,-1719,2468,871
-120,-29,-17,323,3204,3611
-76,55,-90,510,3405,3609
-60,89,28,-416,2394,4179
78,-87,108,-902,-1312,1610
-30,56,-115,4416,-5593,-1382
69,97,74,1779,-5431,-4
40,106,-106,2225,-4274,-1175
-45,-51,63,-973,-2262,-4665
-111,48,47,-1781,2944,-4281
-20,101,64,-2297,3311,-4268
-93,53,127,-1781,3891,-140
-17,-94,-81,-1351,3247,1735
58,15,-10,-924,2478,2269
98,-12,79,-18,2301,2973
48,-43,48,296,1132,2866
61,49,-63,-405,-468,2787
-99,66,-59,123,-1756,2659
-78,127,-31,1432,-4465,1122
-31,29,85,889,-6314,2109
49,14,23,1102,-8027,3655
54,-21,114,1700,-9163,3129
-73,3,-39,4247,399,4944
27,12,98,6236,-621,3196
-121,-87,-89,2680,-495,2794
-22,-99,-56,4437,-1420,1722
-105,119,-102,669,-26,-545
103,-49,101,-707,611,-1418
-114,118,60,-334,503,-985
-113,42,32,650,355,-778
-116,53,30,636,224,-661
-106,64,24,103,23,-510
-90,45,-2,-58,324,-754
-77,20,-24,340,438,-849
-71,-3,-50,656,291,-659
-64,-14,-67,751,96,-486
-59,2,-64,510,92,-65
-47,32,-55,155,-10,299
-30,40,-77,254,237,281
-10,57,-85,259,91,313
10,117,-74,75,-71,786
-32,-126,-92,56,-180,256
-13,-127,-78,135,-183,132
28,-71,-100,-589,248,521
-80,-43,-25,-3578,2442,-2317
72,80,23,-2366,908,-3321
70,34,71,-2591,1940,-3978
-65,124,-23,-1389,1034,-4744
107,-73,-64,-2014,363,-5960
-27,54,-52,-4815,2275,-5208
39,51,1,-2401,3520,-2862
-52,-125,18,-864,4005,1238
-46,-104,-16,-1517,3385,2447
16,-18,-26,-829,2806,4066
85,99,-15,1274,1363,4354
35,-96,98,-2618,422,4653
66,-112,-113,-586,-3538,-1073
12,103,89,4924,-8931,1493
104,-83,-66,3759,-7450,553
-2,-33,101,-1174,-1659,-4516
118,-93,50,-365,119,-6114
-73,-42,48,-3068,2969,-6185
-8,18,83,-3251,4049,-3633
-72,-76,-116,-1230,3735,326
-2,54,-117,-1045,2728,1208
82,77,-53,-931,2701,1652
109,35,120,140,2019,2669
-127,-9,10,144,1278,2933
-128,35,-22,-1575,-100,3460
123,66,-121,-1764,-2731,4041
-98,58,7,3461,-7193,1057
123,70,-127,1216,-8107,-74
-33,66,104,-3114,-3733,3487
27,104,83,4046,-3234,5825
-109,-66,119,1684,-2713,5920
-94,96,89,4727,-3497,2954
126,-73,41,6408,-5147,3706
120,-42,59,5294,198,136
-84,41,95,126,-895,-1835
-86,-12,37,-1193,1017,-482
87,85,63,-1422,710,-609
91,3,20,-410,1397,-536
114,-10,-2,944,1381,-764
-121,30,18,659,169,-236
-105,46,24,236,-545,103
-105,24,-3,340,217,-652
-86,45,-13,78,651,-560
-67,4,-55,965,552,-280
-37,4,-78,1224,190,101
-66,76,-73,177,-235,523
-38,90,-53,-331,-157,418
-10,-109,-38,-326,162,653
-28,117,-68,459,81,-362
24,-119,-71,350,248,55
-30,51,8,-4453,1443,-3043
-12,-108,-94,-3269,1833,-3992
-108,-63,126,-4835,2393,-4749
-39,83,-84,-5094,2906,-4085
15,54,-18,-4654,3081,-2628
-1,72,-19,-799,5502,365
84,7,-106,290,3721,2230
2,86,122,-220,2507,2833
-53,127,-42,1816,797,3642
41,121,-7,2531,-1149,3292
17,93,33,-88,-3617,1045
32,-34,-7,151,-4152,-2663
10,53,-84,1991,-2561,-1517
95,-62,90,34,-684,-3177
49,40,98,-2274,3513,-2710
-67,-90,-116,-760,3331,-1656
-82,39,-70,622,3212,854
-106,-39,-22,-199,1701,1393
-75,37,119,171,1067,1653
-56,91,-49,847,61,1979
0,-128,-64,325,-598,2738
-47,-97,-47,-140,-2401,2811
112,7,-14,2448,-4444,170
71,44,54,450,-5814,-1441
-76,-108,71,-624,-2248,1972
55,7,53,4010,-3536,3295
-104,12,71,405,-3219,4601
-109,-47,-25,2745,-2915,2819
-67,48,-51,3988,-1817,2455
-90,124,72,2583,-479,1997
97,-73,20,937,746,884
-43,-128,11,742,-1554,1138
-116,-96,48,-1331,-2560,1371
-125,29,119,2811,-2834,403
-42,-123,-29,1411,978,-885
-35,2,-11,-2915,2090,-431
-101,75,-114,1046,951,-395
100,3,-53,2210,270,-1714
-80,32,-42,2267,220,-1262
-49,26,-43,1039,384,-731
-76,21,-51,283,157,-80
-71,-10,-82,298,320,-352
-22,27,-53,-170,-217,266
17,55,-86,-618,574,31
-14,16,-119,745,325,-77
-14,71,-113,512,-138,189
7,107,-119,-38,-8,393
17,115,-120,143,-30,213
-4,112,118,542,-219,47
14,-120,-115,414,-400,254
84,-10,-115,-3936,1551,-4658
-81,-27,-87,-5599,2730,-3961
40,67,-40,-3870,4169,-3948
59,-36,-22,-2293,4490,-1955
-21,121,92,637,5328,680
122,23,66,650,4387,2141
90,53,-32,1283,3046,876
18,-54,98,438,934,3191
53,-1,35,-190,-2214,2717
-44,-124,92,4830,-4757,858
118,51,78,503,-5507,-1035
104,-116,102,-1955,-310,-4259
-58,-106,77,-1853,1106,-4046
102,87,106,-2930,3299,-1715
25,-122,-101,-264,3985,1380
100,48,-68,-354,3697,2008
97,64,-27,376,2627,2218
53,36,-96,243,2159,2832
-58,64,-98,777,-1060,3022
-54,-48,-122,152,-2524,2031
-48,-45,-94,989,-3694,1348
29,65,106,2714,-5083,-1193
127,36,-102,-419,-4245,-1635
45,-58,94,2089,363,983
12,-108,112,2274,323,1530
22,-55,69,65,-893,2096
45,97,-122,466,-1446,2661
31,65,40,22,-1877,3496
44,106,-6,292,-2342,4434
127,-112,-125,2289,-1498,5025
107,51,94,1549,-916,5680
-127,-65,-98,3623,-3941,1183
74,-128,11,10870,-4979,-1890
-69,-31,104,-2664,4475,-3160
-70,-108,36,-2498,-566,-1371
-57,-94,-17,335,16,64
-64,-42,-9,398,806,-119
-85,-53,-21,443,856,-531
-39,-36,-44,353,689,-254
-37,-50,-63,745,300,-253
-35,-46,-59,867,-76,-231
-4,-11,-40,207,27,-44
28,-15,-44,-140,167,-39
51,15,-38,-115,11,405
16,30,-74,4,373,80
34,17,-82,721,525,-167
-19,92,-61,131,71,-11
-12,77,-52,-5,-435,61
18,-107,-27,-880,-388,474
58,-107,-98,-546,419,-23
-55,-27,-39,-3249,4353,-3765
54,-92,108,-3317,1762,-5400
-3,72,-95,-4769,3740,-5453
-94,12,18,-4189,3368,-3728
-68,-107,68,-1984,4771,-627
-76,71,-30,2412,4647,3012
95,97,-46,-234,2837,3647
72,-11,86,227,1298,3791
7,10,-4,-771,-98,2892
-96,-109,6,2952,-3508,614
-107,-104,-113,5060,-5610,-509
-51,-36,-71,-1847,-4210,-1408
41,81,76,138,775,-4437
-16,122,84,-3330,2882,-3776
-49,-88,127,-858,4098,-154
7,-37,-98,-677,3379,513
53,90,103,-1266,3019,1250
-5,49,28,-252,1922,1997
-27,110,-8,-1640,1083,2684
-76,-49,-85,-325,-1618,2090
-50,-70,-53,1788,-4188,1285
101,110,96,527,-3128,-328
-7,-121,-63,2712,-3949,-497
112,-70,108,725,-2315,-2670
24,-61,89,-331,792,-3951
-26,118,100,-938,2766,-2694
119,62,-118,-72,2628,-1287
-21,112,-96,-73,2038,3
53,116,-93,849,2071,643
-9,106,42,147,731,1771
9,88,-28,-191,685,2802
-59,35,-56,-8,-1121,3130
56,88,-47,167,-2916,4462
-127,115,-31,1559,-4827,5257
-7,56,62,1936,-4404,5296
-41,99,41,-2010,-3204,3998
63,13,104,2811,-5220,2986
65,53,13,3948,-2890,2602
-81,-4,-58,3988,-1865,1126
79,-38,-58,2510,-929,1602
81,23,15,-1725,2633,-1950
103,-18,25,918,-701,-1339
68,114,-127,-451,-684,-475
111,13,31,-178,507,-515
-126,-22,0,656,1025,-609
-122,-12,9,72,395,-176
-66,-37,-9,717,315,-642
-3,-32,-21,827,343,91
-59,48,-30,138,147,357
-94,22,-30,163,-252,-472
-33,-34,117,-4815,3174,-2765
-117,17,-83,-746,1539,-5016
0,-20,50,-3146,2160,-4945
26,-66,4,-3684,2668,-5932
-117,-78,-100,-4697,1886,-7365
-59,-108,-54,-4788,2797,-3261
103,120,41,-802,2788,1112
-26,109,97,173,4311,3231
-105,121,-99,-1506,3319,3754
19,-60,0,504,1174,3480
107,-125,-35,437,-874,3121
-25,92,22,2363,-4529,23
-103,-21,95,1556,-5322,-225
22,-29,-73,2253,-3453,-920
62,-128,71,-1158,330,-4865
19,-19,75,-2486,1994,-5291
-91,41,-127,-2013,4732,-1471
-37,-41,-66,-129,3946,1519
45,-128,56,-539,3120,1937
69,-41,39,2,1683,2840
-22,-39,-54,78,964,2397
-68,77,-99,-508,-871,2652
47,82,72,1646,-3043,1577
-54,-26,55,3013,-4441,-2750
30,-107,-23,4411,-6259,-1385
-10,25,113,-403,-1881,6251
126,50,77,3026,-3791,4469
92,117,98,-590,-1739,4484
-35,117,95,1551,-3018,4827
22,-105,-81,4856,-1451,3473
-113,-29,-97,3714,-1787,2138
124,-103,77,2564,771,1844
1,52,-3,2526,364,1127
-49,13,39,1331,-417,1125
-84,-2,34,719,-635,747
110,-49,26,505,-565,-102
107,-86,27,750,-301,-590
120,-120,34,928,-55,-839
-98,85,18,912,161,-1380
-50,36,17,969,151,-1664
-12,-20,6,1137,209,-1729
21,-56,5,1133,272,-1202
-85,-36,10,301,-368,-685
-75,-44,55,-558,-660,-359
1,-13,22,-702,581,440
27,6,-34,-3,872,619
1,51,-68,490,198,566
-1,85,-80,164,29,266
17,97,-91,-63,185,137
10,107,-106,199,221,164
-29,-100,126,-1870,3668,-4124
112,-57,-102,-2502,3140,-4070
-19,48,-9,-4861,3163,-4475
-17,11,96,-2287,2612,-4086
12,120,96,251,4852,1859
-105,12,77,459,3278,2969
15,123,57,-487,2317,3344
61,-50,14,182,526,2530
-37,-68,-81,701,-1588,1534
-19,-40,49,5001,-3497,2015
-19,-10,96,1425,-3950,532
104,-122,-86,2199,-5784,-720
-99,-104,70,-1151,-653,-4644
-125,-61,66,-2995,3168,-4801
-101,-100,106,-2147,4387,-2372
1,-23,-82,-311,3522,685
86,119,108,-333,2824,2083
111,-12,-107,-853,2150,2092
65,-48,34,-178,1684,2110
4,23,-49,-477,237,2950
3,-108,-89,-18,-2216,3140
26,14,99,1487,-3133,878
-45,-72,14,2520,-5720,-1208
-41,-18,54,247,-4341,-645
-93,96,105,-908,-2360,3852
-105,-43,62,3054,-1780,5131
121,-16,80,110,-2602,2969
-89,-70,85,-2000,-2165,2982
125,58,99,2453,-2278,2605
-104,-58,-44,2337,-1734,2799
49,-112,114,3975,-2109,1499
-4,77,92,4422,-2316,734
-46,23,107,3905,-2290,249
-89,-31,96,1638,-1085,-664
-95,-79,114,-355,631,-1379
-123,83,61,-1151,1279,-833
105,17,29,-118,382,-325
-115,-3,6,626,303,-390
-43,-31,-29,1542,428,-560
-10,11,-28,848,391,-308
-36,52,-35,-26,140,-110
-72,-5,-54,195,-154,-849
-41,-23,-36,313,-193,-391
-5,56,-32,-800,-11,769
-26,98,-53,-1123,-17,947
-21,113,-79,-517,217,474
-16,-121,-111,-68,452,-96
-4,-111,-106,216,47,-222
15,-107,-107,337,112,-141
29,-89,-112,237,266,-127
92,-122,111,-4205,2903,-1170
99,49,102,-3256,2886,-2671
10,-36,100,-2920,2124,-3386
12,-123,-95,-3611,2783,-4117
81,-108,-52,-3055,2610,-4575
-5,-60,-8,-3908,4129,-3790
70,29,43,-1089,4845,-725
27,-16,-10,468,5986,1144
-76,72,-105,-493,4131,2399
-81,120,53,-290,2777,2981
-99,107,-30,939,459,3631
61,22,-17,918,-3151,1312
50,-5,105,2367,-5342,1869
-87,-10,39,2816,-4976,1797
-49,-17,-126,551,-2811,-198
-35,-98,62,627,-4425,-4410
-15,-117,47,-2612,132,-6285
-4,-93,51,-3085,3595,-4807
39,-120,98,-2536,4275,-1127
-67,-52,-96,-523,3957,2247
1,52,92,-647,3363,1929
-16,42,85,-637,2800,1982
-105,9,13,-774,2033,1981
-96,-111,-74,-2289,822,3352
-103,-34,-110,-422,-3025,2916
-49,-74,-87,807,-4700,2005
-39,93,-37,1845,-6063,729
-30,3,100,2673,-5516,205
16,-47,-106,-151,-3214,-2753
52,-102,110,-267,-1890,-4789
76,-32,98,-1450,3765,-4340
120,-60,91,-1896,3391,-2512
56,104,119,-226,3806,-305
-114,-94,43,-115,3158,513
-106,-103,-117,-431,2770,984
106,127,87,-603,1727,1658
69,80,66,-1058,784,2469
99,83,91,-1948,-818,4356
-79,-109,-128,-1518,-2772,6184
80,57,117,-277,-3539,6010
70,15,122,-390,-5340,5868
-39,-123,-96,268,-7958,4889
65,-48,124,417,-7683,2790
-61,-128,-63,31198,825,-5095
6,-72,15,-8313,4296,-1269
-17,-51,-78,-4303,-2814,1651
53,-39,30,-4766,-260,1002
99,37,-35,-1624,1208,216
116,68,-37,430,1943,-819
-85,126,-50,554,1344,-1154
-12,58,90,-2891,1104,-7052
126,75,102,-5127,3749,-6324
-9,71,-60,-5096,5313,-2536
-56,116,-9,-857,4235,1811
74,124,-26,1235,4281,3243
-2,30,-73,-513,3567,2730
80,75,74,-1888,1889,3346
-88,121,55,1583,-2190,1546
-55,2,-99,3443,-4915,448
-125,-9,-82,1746,-4057,748
52,-29,-56,1282,-3687,-1656
-63,-55,88,-37,-1982,-4312
-20,-78,70,-1842,583,-5524
74,112,100,-3156,3740,-3479
-83,106,-92,-1092,4016,251
15,-60,-37,-1198,3203,1261
101,49,0,-1085,2777,1865
50,38,-111,-426,1978,1898
-4,94,34,-627,1104,2299
8,-109,-3,122,-768,3096
20,-30,-17,630,-2198,2808
10,125,-39,1051,-3383,1861
-11,-18,11,2557,-5132,-83
-121,-18,-117,2037,-5009,-292
-52,-47,-88,809,-3663,-3266
118,-12,116,-1340,993,-4088
14,35,106,-902,2888,-2811
-102,82,-128,-982,3160,-745
-15,91,88,-389,3102,353
18,96,-118,-484,2345,1195
46,70,82,-81,1807,2049
59,75,82,-521,587,3177
77,83,60,-967,-1059,5255
126,-110,82,-128,-3085,6543
-76,-4,6,885,-3818,6480
-68,15,-23,629,-5298,7058
-123,-7,-36,2375,-3866,3984
34,-53,-43,234,-4131,2260
-83,-105,114,5376,-2911,-566
-57,-88,-84,75,4757,-1273
-31,-68,73,-873,-3170,-765
-63,77,76,-1590,131,-1197
-84,-7,-14,-1309,1836,-1012
-110,-68,-69,-178,1677,-1031
-101,-39,-75,1004,655,-273
-95,-10,-80,1010,44,44
-65,9,-90,656,-165,77
-28,33,-88,103,-189,383
-22,95,-75,-920,-475,549
-59,100,-72,-910,-854,300
86,115,-59,-3542,2197,-3673
-45,-51,120,-962,317,-4702
-97,10,11,-1466,464,-5591
68,81,-27,-3243,-492,-5781
121,56,-127,-4338,1988,-2910
61,-25,-97,-2730,2264,-1126
-75,65,-71,-664,4327,3607
-116,-67,58,392,3247,2912
106,122,118,-978,2141,3497
59,36,12,565,1050,4284
-47,44,31,1562,-3520,2674
-64,94,41,5604,-6571,357
44,120,83,1737,-5179,-841
9,56,109,-1204,-538,-4261
45,86,77,-2357,-547,-5916
-89,-20,70,-3773,3698,-2141
117,-63,110,-2330,2850,-1161
-55,-76,-120,-2458,3322,1297
-23,-68,-61,-255,2584,2451
-38,-26,86,348,1322,2301
-19,44,-20,-313,1441,2337
-9,-89,-74,-621,-926,2893
-12,-56,-120,2492,-2831,1614
-1,-36,-21,1627,-4091,2121
-92,91,-111,1828,-4685,218
-38,-26,-78,3061,-4017,-1037
116,-70,-100,-11,-3204,-3448
44,67,124,-2286,1918,-4373
49,-116,99,-1486,1180,-3854
5,-116,107,-1015,3317,-1397
0,95,90,-215,3086,-370
16,94,-84,-880,2811,544
75,71,63,-298,2152,1887
82,86,-13,-547,1132,3064
48,59,-53,-937,15,4076
-126,7,-21,-7,-1465,5467
67,-37,3,-499,-2288,7951
88,-105,-75,742,-3749,5948
52,-30,-68,1523,-5521,6762
107,23,-95,504,-6630,3045
116,-28,-104,5799,-3726,1542
-65,8,-73,455,525,-1440
-45,-77,76,2132,5809,-1573
-99,67,70,1731,-2742,-165
-79,-115,-83,-3246,-853,277
-42,-4,-56,-3289,2635,-856
-102,-121,110,-198,2479,-750
-113,-70,-82,1022,442,-697
-107,-53,-58,1520,-723,-329
-66,-51,-64,1423,-363,-117
-80,84,-61,-2979,1427,-4139
-2,1,61,-4714,871,-4600
-27,101,82,-3999,2120,-5043
93,-53,89,-4510,2577,-4666
-28,111,43,-2187,4153,-2142
64,50,53,-186,3920,-586
-18,-109,87,-231,3898,1775
-54,-53,-72,-296,2505,3149
-71,22,85,41,1193,3313
-12,-20,-10,-750,-118,3632
-8,-43,-87,-297,-3387,3124
95,-88,-87,4416,-5532,1713
20,0,23,3419,-5674,1148
37,78,94,-20,-5313,-1801
-53,59,89,-2362,-4135,-4822
-31,-69,66,-3052,1522,-5304
66,13,44,-4301,2514,-3774
71,30,44,-3329,3333,-1439
58,33,71,-833,4094,290
37,-113,-82,-1602,3674,732
62,100,19,-881,3290,1365
46,41,-38,135,1792,2422
29,-14,124,-58,994,2772
26,70,-23,-775,25,3276
65,112,55,-535,-2286,3989
-119,12,-116,1280,-4552,3554
16,-31,122,830,-4614,2962
90,-99,104,-1150,-4164,2801
91,-7,73,1555,-4237,3284
74,-79,115,2053,-4063,3005
-115,-46,-85,4069,-4443,4345
110,-89,-17,4526,-3756,2688
74,47,40,7013,-2675,874
-56,19,44,-2149,2697,-2462
-122,94,115,-4247,828,-134
105,-2,-59,-704,1647,-533
104,-14,-30,1566,1397,-1105
105,16,-23,1687,476,-1173
-98,45,-20,882,-55,-770
-55,16,-36,532,314,-778
-45,-11,-49,501,357,-795
-20,-29,-43,415,83,-368
-60,16,-22,77,-278,471
-87,24,-30,-77,-280,487
-53,76,-16,-607,-343,1259
-8,-97,-52,-1202,95,1676
-32,-51,-86,-642,55,1344
-38,-43,-99,135,78,405
-37,-33,-104,412,147,-299
-18,-35,-106,748,88,-522
48,85,16,-2584,2573,-4036
50,-14,8,-1173,2167,-4326
65,40,91,-2627,2603,-3991
-9,-3,51,-2375,1355,-4541
7,117,118,-3232,2376,-3601
90,-22,-46,-2559,1698,-2312
85,-105,-16,-2084,2539,-238
84,66,-42,-1096,2894,1406
118,108,-36,-506,2145,2701
-86,115,59,273,1986,3232
-97,-127,-65,248,932,2651
-69,122,88,-1224,-509,3034
-110,-33,84,1399,-2827,2434
74,3,-85,4336,-3591,1430
63,-78,-37,2176,-5134,223
-42,-128,125,1804,-4662,-2478
-96,80,72,-735,-3331,-4108
-106,1,49,-3020,12,-4793
-43,-48,45,-3391,1958,-3885
-116,101,77,-1950,4460,-282
91,-37,-127,-2452,3554,839
114,75,66,-2741,3000,2949
62,41,19,-89,1926,2276
6,37,20,-403,1390,2131
0,29,-9,-41,1274,3683
-47,9,-38,452,-252,4037
-116,-89,-120,297,-2274,2449
-63,-42,-107,847,-2916,2492
39,5,18,3296,-3980,946
-43,40,-90,2622,-5254,-1118
40,-115,-61,495,-4818,-1405
96,-10,-82,707,-2257,-24
-106,-44,-105,377,-1118,2148
33,-14,-119,385,-1791,3045
-110,-12,93,73,-2286,4922
-58,44,-38,1036,-1527,5009
71,-24,66,1147,-2589,5143
-99,80,-65,1299,-6275,3219
-22,25,-80,9907,-3593,-3222
-90,-119,-60,1970,3864,-4572
-123,-79,98,-1973,502,-1599
-104,119,15,3594,625,-640
-128,-44,109,2315,729,-148
-120,3,111,273,735,102
-102,3,58,-457,996,567
-103,-1,46,-32,255,349
-82,25,35,171,-91,270
-75,74,18,-882,234,434
-96,59,-15,-524,118,67
-92,40,-27,484,134,-690
28,9,-102,-3887,2084,-2132
40,-126,62,-2112,1989,-3662
-120,70,-110,-2162,3131,-4611
127,-112,-89,-1931,2307,-5172
123,101,-104,-2221,1661,-5463
-125,-49,-67,-2496,1678,-4809
14,-110,30,-2673,1746,-3616
121,-62,122,-1830,1494,-1242
68,16,-26,-1407,1753,428
-41,121,12,900,2823,2615
-38,82,-43,964,626,3245
-104,127,28,153,-359,1769
1,-118,109,2433,-2352,1016
64,-17,-108,1037,-2492,-162
21,-53,-88,1338,-3692,-1579
-121,104,77,353,-45,-2108
30,92,84,-1010,1986,-2618
-14,73,108,-1093,3143,-1274
77,-102,-108,-62,2726,40
-111,-77,54,2,2338,1136
-99,-3,-124,-311,1696,1287
-127,118,-37,35,533,1621
82,-49,-84,737,-1068,1389
30,-23,-32,1441,-2087,968
0,34,74,1258,-2376,1425
-90,19,-46,2077,-2755,742
12,-122,-126,1726,-3294,-225
58,-50,111,710,-990,-1055
112,84,102,652,611,-1803
-92,-100,109,1050,1210,-2070
53,-14,-123,407,2722,-1456
105,-77,-103,260,2366,-912
-70,-127,-46,-536,2016,-135
-46,61,102,232,1048,986
10,63,29,-354,498,2258
2,57,-72,-458,-1289,3614
20,4,-119,436,-2305,4752
106,-97,-103,899,-4057,6623
-128,-82,-76,241,-4387,5347
-100,-7,25,3715,-4804,4783
-71,121,101,4631,-3416,2851
-26,113,111,3271,-3796,1542
7,-78,17,11304,4736,-5776
-31,59,94,-2533,-1148,801
-123,-49,-71,-3702,-910,1120
-114,-16,6,-2882,697,26
-97,-91,-77,62,2321,-889
-107,-67,-71,973,1908,-1199
-96,-49,-47,1195,156,-1014
-64,-63,-54,1242,-260,-633
84,104,-116,-3714,1151,-5155
50,12,24,-4010,204,-5276
-101,-124,1,-3421,-289,-4793
60,24,-96,-3216,2047,-2718
-8,61,-62,-2158,2709,-194
52,-42,102,-1059,2522,2369
-49,47,-86,695,2300,3451
-102,-29,-47,-329,293,3095
127,46,-101,1182,-621,2187
-11,72,-118,4248,-3119,1278
-32,-54,52,546,-2157,-212
36,-74,112,13,-1848,-2120
106,-62,77,615,60,-2236
-56,95,75,-1761,1177,-3889
111,-56,105,-2158,3410,-2902
-54,-74,-103,-430,3560,-369
-50,-87,117,-880,2610,666
-18,-8,-109,-948,1548,1837
-17,19,24,493,1038,1894
-87,-42,-92,-257,-433,1667
56,75,-120,1256,-2369,1047
0,-110,42,1594,-2863,845
113,-100,25,2572,-3492,683
-93,-16,-99,1991,-3256,-628
-14,-34,95,96,-245,-1835
-118,-41,98,134,1452,-2404
71,-4,114,-243,3327,-1074
-79,-122,-107,81,2806,-444
-39,106,-5,-293,2031,239
-22,107,-123,-399,1509,1072
-12,103,94,-267,1100,2091
10,111,62,-123,632,3335
23,-123,79,-291,-895,4270
88,-14,65,-426,-2124,4967
-103,-92,-7,-388,-3108,4952
50,118,-82,274,-6341,4605
22,-14,-100,39,-3796,1838
120,79,-36,1020,-4085,1671
-48,-64,-61,2122,-6256,1550
-124,21,-85,5619,-295,1834
-119,26,41,-4855,-139,4
72,61,-85,-14,343,-448
46,-5,-68,646,2678,-949
59,45,-57,-140,2164,-1129
-121,-12,-90,1844,1026,-672
-116,-1,-54,2469,-110,-339
-99,10,-31,1690,-416,-360
-55,28,-13,236,-299,-89
-25,40,24,-517,-12,38
-31,19,10,48,602,-88
-85,-67,36,-4753,1756,-3376
-91,-78,64,-3848,1487,-3876
32,93,-81,-2953,4134,-4749
-83,-48,-94,-2268,3831,-3753
86,-112,-86,-2515,3927,-2279
124,-46,61,-536,3202,-660
64,-122,-48,-404,3773,540
-69,34,-27,591,2406,1234
89,26,-92,1009,1125,1854
-102,-66,81,1442,1,2570
-21,-105,107,642,-545,2611
-117,13,-104,1688,-3056,1506
39,30,77,1309,-3043,691
-99,-120,-126,60,-1958,263
94,-85,77,1996,-3016,-2768
60,45,60,-889,-205,-4430
-79,-25,67,-991,2873,-3600
-116,-95,87,-2406,3099,-3046
59,93,-109,94,3167,93
51,-67,-40,-226,2565,603
-15,-46,36,-329,1575,943
-30,-75,-55,145,894,1743
-33,-56,-78,627,-170,2131
3,42,-77,165,-1182,2179
-3,81,16,545,-3224,2272
26,10,62,-360,-4063,2918
26,78,28,-656,-2221,2794
116,8,80,878,-3305,2042
63,-6,58,619,-3791,2212
105,-55,74,685,-3028,2074
31,111,105,2556,-3091,2572
58,-50,33,2832,-1975,3174
-71,112,-63,4254,-3618,2476
-67,79,76,2885,-4487,2619
-96,-54,90,3824,-2918,-732
-33,25,-82,-633,2788,-1971
-124,83,66,-180,1907,-2024
124,4,23,569,1049,-1088
-101,7,20,316,751,-576
-71,-27,-22,641,351,-327
-53,-5,-46,667,392,-126
-94,14,-50,229,82,-421
-78,15,-30,-207,-159,-203
-41,34,-53,-622,420,344
-56,37,-77,-29,335,461
-50,66,-100,597,92,353
-42,100,-112,299,182,-9
-24,120,-101,95,-98,-31
-16,106,-94,450,-16,-150
-9,99,-99,773,184,-330
-55,126,-46,670,3162,-4281
-23,74,99,-250,2308,-4758
-101,-10,111,-347,2573,-6060
-49,-126,33,-2148,3431,-5673
85,-48,-60,-2470,2175,-4076
-43,107,-7,-2929,1245,-1212
51,-52,-7,-1913,570,120
10,45,16,1362,-292,1481
-5,-96,126,1841,1444,-906
110,-76,64,-616,-2344,-896
52,-104,-39,-1213,1699,-267
42,101,-9,665,3822,3536
7,-17,-37,1982,2603,4101
100,-15,-117,-280,1352,2947
94,116,40,143,-317,980
-3,20,37,1346,-2539,179
10,60,-107,2790,-3921,-608
18,-100,99,2365,-4973,-743
78,41,113,655,-2055,-1867
116,-87,87,-2657,1032,-4743
-95,101,84,-1696,3574,-2610
-43,118,126,-744,3425,-775
-17,-78,34,-1268,2957,199
-88,-26,72,-371,1774,1077
103,-3,20,419,1074,1239
114,74,10,373,273,1830
112,-110,-28,794,-742,2148
43,-46,-50,1251,-2064,1309
-20,106,29,1762,-3098,839
39,-64,-9,1676,-4593,-25
-49,16,-99,1487,-3255,-1019
55,-94,119,-317,442,-2455
-90,78,113,-335,3445,-1866
87,-125,-104,-253,3494,-745
-93,123,-109,-789,2771,-287
-60,123,-43,-1142,1885,719
-19,103,84,-935,906,2233
-4,84,17,-186,-130,3181
39,111,-29,96,-1499,3625
117,15,-54,-53,-2698,4110
97,-91,-30,328,-3069,4763
-25,-87,70,1527,-4254,3973
-74,74,47,-1007,-4693,4119
-59,33,108,842,-5488,3710
-61,-44,33,-2293,-6158,2747
59,-126,-55,748,-3788,-1802
-123,9,-82,-1490,6120,-1058
-80,85,-60,4023,-2009,-516
83,-100,39,122,329,-650
-122,70,-58,-490,1809,-410
110,17,50,-3271,3155,-3895
51,-60,-94,-1309,2042,-6347
91,-84,49,-2314,1490,-6887
-22,66,11,-2460,59,-6873
-25,-36,82,-4317,298,-5778
-48,-7,75,-5620,1780,-2103
7,124,-52,-1835,2582,1379
13,-8,-79,1163,4428,2787
39,-98,-112,-155,1675,1434
-94,77,23,-1668,1187,2145
31,-21,-31,1829,-1711,1821
-5,-100,47,4371,-2921,1227
16,112,-38,1822,-3368,-178
8,5,-103,85,-1799,-845
-42,-117,73,129,-298,-3617
-26,-46,75,-2717,1734,-3731
117,99,106,-1605,2319,-2475
20,-93,-107,-288,3366,762
23,-24,-36,3,2468,912
47,61,-18,-57,2350,1210
-36,34,-40,97,1539,2003
110,81,-109,82,-763,2567
82,-56,-120,1515,-2750,2027
76,-26,8,1291,-3298,1227
-95,63,4,1751,-4540,-844
-99,84,-128,1449,-3801,-1421
-1,95,98,-977,2385,-2921
-84,-61,108,-49,3985,-2172
72,-54,-96,-283,2673,-1045
-60,-37,104,-1594,2146,168
-20,-101,-115,-819,1606,1171
-1,98,38,-23,1166,1703
14,121,-2,-73,563,2509
32,101,-10,46,-800,3334
120,123,-24,-170,-2006,4097
-68,28,-13,-118,-3626,5641
-13,-81,-36,1741,-4192,5171
83,-50,29,3160,-7330,4909
51,-114,-125,1747,-4155,1852
-18,-42,75,1885,-1972,2817
34,-95,-2,-2269,-3016,960
-66,115,-10,1632,3628,-1228
80,89,107,1609,-1388,-74
-63,90,16,-951,1265,-494
-90,3,-87,-877,2186,-965
109,-49,97,380,418,-531
127,-47,115,1344,-194,-82
-107,-21,-109,1143,32,-22
-76,31,-65,219,-136,416
-68,64,-35,-404,-547,525
43,-61,26,-3999,1707,-3417
65,-17,-123,-2881,1907,-3711
31,87,-92,-3336,3506,-4005
-13,-17,-104,-2339,4593,-3448
-86,-94,107,-910,3919,-1355
7,87,-37,104,3785,-402
-91,115,113,-614,3186,290
96,47,-43,481,2947,843
114,-115,-41,47,1526,2216
70,37,18,-502,855,2648
-1,-20,-55,2244,-2951,3393
76,54,53,1942,-3252,2551
-110,30,-60,953,-4462,45
115,-78,-124,1401,-5100,-2411
-116,66,70,-15,-1474,-3522
19,-76,62,-1462,1116,-3122
53,-105,69,-2437,2708,-2858
-32,-26,103,10,2843,-317
13,48,-127,-765,2855,18
0,55,-39,-480,2543,492
-1,11,44,-243,2046,1323
-35,-12,-5,363,735,2106
-34,-3,-98,132,-40,2214
-124,5,75,1267,-3016,1541
-81,31,72,-58,-3680,2411
-109,25,59,1593,-3243,3138
-100,-78,113,919,-2076,3894
-69,-117,106,2595,-2411,4488
-12,-47,89,1432,-2234,4492
-42,28,39,2143,-2918,4062
-103,102,22,1001,-2776,3155
-17,-48,-36,2394,-5233,2786
28,-1,-24,6271,-3443,-312
70,42,-12,1230,2843,-3302
-121,-103,39,-1034,-543,832
-123,49,-9,-1204,1365,330
94,-35,-59,-663,2310,-734
115,-27,-89,30,1583,-624
-85,-27,-72,1108,341,-413
-43,-6,-40,1397,-646,212
-45,11,-55,466,-565,19
-22,64,-14,-992,-42,205
-58,74,-23,-896,-222,503
-66,58,-32,-181,-293,175
-47,111,-18,-184,-317,463
-22,-109,-31,-520,140,770
-47,-100,-66,-61,-12,531
-53,-102,-105,219,634,-248
-21,-106,119,508,847,-645
9,-108,99,843,514,-521
5,-20,81,-2899,956,-4298
-95,-79,99,-2524,713,-5124
79,-20,-45,-4645,1780,-5027
-18,-58,-126,-2177,3171,-2638
44,0,113,-1343,4235,-936
-110,-47,-82,-1520,4159,825
100,114,-26,-1980,3106,1375
51,-58,-5,1039,1456,1667
-7,-121,-30,159,-1088,2123
6,-38,42,2114,-3064,1801
-86,1,100,2013,-3654,1552
-93,-33,-123,2199,-4018,326
25,125,80,405,-2116,-2392
-63,-23,61,-956,634,-4002
120,94,67,-1580,1898,-3764
-88,-108,105,-1039,3155,-1545
-69,-115,-110,-845,3193,495
-80,-31,41,-785,2579,979
-87,57,116,-840,1720,1447
-89,78,-12,102,1112,1760
115,-97,-123,-89,-396,1968
115,-28,82,205,-2053,1891
99,4,113,982,-3291,1197
87,-62,81,1378,-4381,2271
43,113,-111,2003,-2883,2371
80,116,91,738,-537,2094
62,60,84,1307,-1018,2527
90,53,83,527,-841,2466
41,1,81,688,-1738,2857
96,-56,-24,2118,-1213,3327
88,10,-122,1770,-2856,4380
95,57,47,1314,-2713,2871
72,98,-32,645,-2689,1725
-107,27,-21,716,-7000,2285
76,-31,15,11429,4086,-4291
-128,-9,15,-4150,-604,-439
122,18,-46,593,-4,35
105,73,32,-832,1159,292
124,50,-25,-781,1606,-170
-64,40,-69,125,973,-39
11,69,-35,395,20,89
-41,104,-52,820,153,-151
-101,60,-64,946,301,-1220
-72,41,-77,756,551,-673
-37,113,-81,-410,167,709
-41,-122,-95,-400,-36,840
-36,-107,-109,-148,242,67
-45,-121,-116,414,105,-634
6,109,-102,1124,-244,-549
61,-124,-90,723,-73,-293
119,15,40,-2160,3461,-3424
-47,68,-54,-2657,3092,-4350
-57,64,19,-2351,4182,-4126
-40,-97,109,-1341,4384,-2696
43,66,49,-1334,4207,187
-97,81,-84,-1244,3233,692
107,-92,-10,-396,2985,1472
47,7,-78,-62,1598,1628
-5,-47,41,421,-604,1904
31,-55,94,3656,-2100,1467
55,119,3,2610,-2554,2445
-103,-73,-6,1553,-4332,1396
31,-89,-114,1146,-3698,-915
-20,-66,63,-1392,-2767,-3055
-108,-58,52,-1297,1276,-3379
96,-45,62,-1940,2199,-3173
9,29,95,-667,3521,-1221
14,41,-110,-1307,3108,-123
-25,22,44,-463,2765,376
-44,62,125,-466,2323,796
-78,77,-30,136,1458,1437
-118,78,-83,408,544,1889
119,59,-110,771,-577,2308
115,86,-68,1438,-2293,2573
-104,-22,4,1007,-3119,2553
-113,95,-50,1040,-3534,1424
-119,52,122,-71,-3178,1525
84,-98,98,911,-2373,2068
38,-78,91,1186,-1428,1305
25,74,93,269,-725,1288
5,-34,91,1088,-929,2289
-14,-105,-28,1769,-1665,2946
-2,-67,-121,2033,-2436,3410
26,-28,78,2716,-2537,3081
18,37,-7,2325,-2928,2584
-103,110,-79,-502,-4191,1866
108,127,93,5966,1432,-2258
-49,-85,85,-2028,-390,-207
41,86,1,-440,270,169
74,-20,-41,1270,1693,-1050
-126,-12,-30,1115,2276,-1415
-68,-77,-75,2011,1149,-1121
-46,-39,-55,1575,138,-662
-23,-31,-18,659,-325,-139
-18,-39,-20,411,-232,543
-11,6,-44,-441,329,794
-2,14,-67,-32,252,896
-17,62,-74,232,107,655
-20,63,-91,670,266,-185
-5,40,-101,1117,130,-509
-96,111,-119,-3336,1415,-3586
-27,-41,-102,-2286,2943,-3042
85,102,-87,-1096,3562,-1123
-72,-11,-36,-1710,3983,554
117,34,-38,-1271,2797,1924
-69,-68,35,-946,1905,2472
79,-9,36,1460,-966,2216
-3,-62,-88,3644,-3697,1580
-113,64,82,3040,-3762,1229
-92,13,-114,1216,-4240,-427
-98,-50,76,-134,-1616,-2887
60,38,61,-2185,1263,-3972
73,1,70,-1622,2406,-3232
57,-80,100,-405,3477,-897
65,98,-115,-613,3749,587
21,-68,-50,-968,3038,1444
-22,-3,-41,-489,1725,1706
-62,-117,95,-847,215,2283
-114,35,-4,470,-1936,1635
-126,101,41,2421,-2573,926
29,-125,-65,2649,-3710,1407
-98,-120,-9,1714,-4475,1494
-15,98,-92,672,-3428,-1091
47,-91,101,-515,-230,-2611
-60,-104,94,-778,1628,-3586
100,124,100,-1837,3319,-2112
-66,-88,125,-728,2575,-802
11,104,-20,-970,2259,922
-12,69,-7,-300,1395,1767
-2,47,-67,267,605,2312
25,62,115,344,-339,3279
51,51,56,791,-1703,4633
-99,-105,16,1155,-3095,5754
24,115,26,2028,-3991,5768
-19,-17,-95,2333,-4287,4519
-28,91,69,1813,-3292,4396
-76,-90,80,547,300,1605
-102,37,-49,246,-3133,1524
-69,-105,-68,7083,-2050,-169
-11,-127,-94,3334,3152,-3031
-102,-119,-127,10,-796,-257
31,72,12,-3648,1416,300
-88,114,-87,1277,599,-775
-81,-58,-33,1045,56,-365
-79,-27,11,605,-157,-85
-68,-46,11,836,146,-40
-51,-30,15,494,151,-11
-20,2,16,85,339,156
3,52,33,-244,510,180
6,57,15,-220,648,6
-99,5,68,-2358,1940,-3718
8,-71,50,-2389,2808,-3385
-39,59,38,-2460,2391,-3081
46,63,113,-1957,2751,-2256
-99,-77,-42,-1207,2575,-1059
114,83,-49,-778,3068,23
75,57,-2,329,2911,1313
81,-114,77,380,2366,1813
88,-28,-96,119,2099,1530
-107,-71,0,-259,1179,1757
80,-56,68,2638,-433,1273
-95,-78,-107,1742,-5045,3151
50,-85,17,1630,-5524,992
-16,-17,117,524,-2613,-1491
102,-109,72,-850,1102,-4331
-61,-44,80,-924,2203,-4010
115,87,115,-369,2899,-2727
31,78,-101,-1921,3428,-1188
57,-11,-53,-382,2532,172
87,11,-28,-283,2341,652
38,0,68,110,1559,1190
17,7,-63,252,739,2063
-25,54,116,982,-593,2260
-41,-117,108,889,-1951,2503
-89,36,-57,1097,-3270,2771
-6,-81,-77,1088,-4802,1634
-101,67,-101,1202,-3168,368
-73,-99,-126,43,-2148,-1214
-10,-10,106,-146,-160,-2876
105,-29,99,-390,1143,-2755
64,-77,106,-212,2919,-1563
-109,106,-124,390,2372,-332
-44,78,-40,-249,1908,173
-24,70,107,-371,1461,1196
19,59,67,-87,1147,2296
44,75,55,-117,-332,3859
110,124,70,-211,-1024,5087
-115,26,91,-319,-2015,5792
-116,-42,-121,1018,-3131,5413
25,-128,-7,-39,-4577,4968
-42,67,-35,2419,-3750,2705
94,-16,-37,1662,-6282,3252
-81,-76,-65,6012,-6413,180
101,-29,-48,-1755,3786,-1488
34,45,0,306,-1649,-81
-128,30,29,-476,1539,-902
112,-16,-47,-77,2635,-978
94,-35,-62,717,1143,-1065
123,-32,-30,1461,3,-657
-104,6,-3,1146,-502,159
66,-84,-112,-3184,2523,-4330
-112,97,54,-4013,3637,-4424
-89,97,69,-4089,4886,-3386
-87,-9,-1,-2135,4579,-1076
-26,-114,37,-133,4308,316
112,-93,49,-457,3695,1351
-40,-48,84,-254,2391,1359
-79,20,39,329,1130,1907
-85,-63,-66,1936,-530,2564
-98,49,-43,3266,-1882,1137
-89,-22,-63,979,-2584,1782
111,72,47,2388,-3582,1287
-56,16,88,1218,-3967,-996
-110,80,48,-1284,-1837,-3028
103,89,43,-1255,1690,-3048
85,-18,50,-1763,2485,-2783
18,8,82,-1971,3520,-1010
30,8,118,-1394,3681,287
-1,52,121,-801,2817,1168
-63,77,-112,-53,1438,1420
-95,116,76,154,661,1517
68,-85,13,274,-407,1674
-124,122,110,1871,-1301,2300
108,-59,-72,1537,-2755,2529
53,-89,-6,1907,-3481,2729
-118,-45,37,1814,-3730,896
86,-6,-109,-209,-2249,-621
-76,86,117,900,-371,-3006
-16,11,111,-266,761,-3001
16,33,104,201,807,-2322
111,-100,112,943,1837,-1131
67,-23,-126,613,1300,-859
102,-85,79,1199,2130,-1216
101,117,-8,487,2110,5
-104,68,-90,-441,1514,1244
-12,24,50,-257,1472,2826
47,87,24,-529,-266,4963
125,-93,-23,-987,-662,5734
-104,43,-89,1462,-2306,6565
-102,-1,-9,256,-3171,5862
109,95,2,1571,-3356,4901
-6,-24,50,3426,-4339,3614
73,27,126,-836,-7190,4001
71,-20,73,-1477,9576,-4014
-57,-92,123,953,-3131,-791
-87,69,92,-965,-548,-15
-73,-15,-10,-587,2164,-441
116,-50,-98,-74,2762,-1116
-117,-63,-123,1136,1289,-644
-79,-46,-92,2049,-416,166
-27,109,-27,-4629,3399,-2413
79,84,-110,-4265,3822,-2266
-117,70,53,-6430,3144,-1788
-120,-29,-38,-3111,6765,-182
-90,-125,-6,1115,5577,-497
56,-89,-2,-1121,5128,1338
-125,71,93,1670,2932,2562
56,-71,-58,1765,2268,2196
-12,10,42,737,1404,1566
48,-25,-52,578,-519,2345
81,-83,6,1194,-2820,539
-108,-15,47,1969,-2429,287
-47,60,-26,335,-3622,-327
62,-32,-118,1063,-2161,-1646
4,-90,89,170,256,-2713
80,115,100,-912,1727,-3812
99,59,-124,-208,3884,-1852
125,-86,-85,-1321,3377,-1125
-82,84,-64,-394,2738,925
-67,-62,-49,-472,2058,1732
-50,67,9,-163,943,2172
-90,-92,-96,437,-157,1841
-93,-3,-102,992,-993,1808
110,-40,-21,998,-2198,1264
124,61,64,728,-3321,1410
-40,-73,67,390,-4585,-25
-125,117,124,611,-2458,-1595
101,-64,79,811,-140,-2926
-72,35,82,359,2159,-2627
-66,-93,107,811,2147,-1006
15,125,-120,609,2727,-552
27,91,125,224,1821,8
63,80,-34,-214,1272,1157
121,91,-111,-42,628,2058
-30,-93,57,266,-267,2576
35,-83,67,448,-1242,2715
76,68,18,3056,-2775,3522
-51,66,-8,-162,-1365,5020
97,9,94,1315,-2543,4435
-5,17,35,-672,-3092,3208
3,-80,-86,362,-4287,3052
-73,46,89,3772,-7391,4515
-49,50,-72,5541,-8879,4140
45,-41,-55,-2271,6714,-3431
112,77,-32,-3600,-1458,959
86,-42,-107,-368,2157,-715
44,-72,-63,1747,2478,-1573
65,-24,-63,1531,602,-1051
110,-26,-59,1524,-51,-507
-127,-22,-37,1240,-403,44
107,112,-94,-4233,3617,-2765
-8,118,-58,-1393,4404,-3341
-62,-23,-48,-1569,6036,-3427
9,-14,-111,-2245,4622,-2654
77,-27,34,-3143,5033,-2352
9,-27,43,-1832,4379,-1255
-87,3,-111,-45,3842,2377
92,-13,-31,347,1822,2569
-109,123,-102,557,798,2695
-23,32,-108,1371,671,2728
49,119,-62,1036,-585,2940
124,87,87,1006,-3894,743
-46,-80,-70,-90,-4590,-509
42,126,-74,1704,-3097,-876
-39,57,92,-342,-262,-3113
-59,49,94,277,691,-4508
-26,-17,121,-2046,2846,-4176
-47,-7,-78,-1566,4448,-1905
-31,-103,-10,-1451,3180,-211
40,-89,82,-739,2765,1208
27,-10,-102,-350,1666,2061
5,-17,62,-51,1285,1320
-67,31,17,-1406,38,1553
-62,-113,-43,300,-1992,2921
-68,46,42,561,-2613,2321
-99,-21,-73,825,-2975,1835
-46,81,90,304,-3172,-326
-128,74,-78,1735,-3294,-1895
-40,13,122,1361,-603,-1710
-49,-2,122,-556,932,-3163
116,8,-128,1216,1065,-2662
92,125,-110,1028,2296,-2530
-90,74,66,277,1496,-1091
-80,38,-124,843,937,-109
-56,33,56,318,990,606
-47,22,78,-160,-484,2246
25,17,91,501,-1689,4519
61,121,-127,2274,-3419,6979
80,61,70,-586,-3593,8203
34,-30,110,453,-4846,6144
-53,34,22,2230,-6109,5500
-46,-120,111,4056,-4776,3422
35,84,102,2551,-4611,1246
116,94,-21,6555,6949,-4980
56,15,72,2516,-1144,-781
77,-46,-70,-2091,-661,263
125,94,91,-2216,666,91
112,28,4,-1191,1437,-22
91,6,-40,338,879,-475
111,21,-22,1120,-47,-420
-81,62,-122,-2830,2543,-3691
17,19,-90,-2444,2100,-3415
77,-54,-3,-4216,2895,-3083
-56,-32,80,-2995,2751,-2109
57,69,-121,-3985,3609,-2122
-118,36,111,-1075,3649,422
59,50,-51,-380,2956,1958
7,-65,-54,655,1601,2589
20,96,67,1051,1064,1765
37,7,37,1302,-345,1700
59,-61,-33,2317,-1865,767
95,61,-77,-470,-3517,-1091
89,28,-42,1726,-1915,-828
35,-125,123,-23,-42,-3374
42,-74,-118,-959,1868,-3626
37,-19,-75,-557,3941,-1301
67,-123,-37,-523,2809,-865
-84,100,-68,-354,2929,445
-119,-105,-104,-259,1765,1918
107,-18,109,-477,597,2403
-95,-123,4,71,267,2601
94,55,126,594,-1947,1974
85,113,-69,761,-3131,894
49,-98,113,857,-4031,451
-111,-88,-107,1065,-3426,-208
61,124,113,759,-1231,-919
9,-11,96,1091,364,-1835
-115,66,112,865,2809,-2054
-110,-26,-109,707,1795,-1605
29,-109,-81,92,2644,-790
70,102,15,559,938,-296
113,124,120,392,76,79
-47,-124,20,537,-591,1633
-27,72,-44,1495,-1281,2612
18,60,127,773,-1688,4181
38,70,110,1002,-2582,4992
118,-54,35,-132,-3857,7395
-43,-9,13,976,-3498,4792
87,-124,112,-501,-5433,4792
-66,-125,89,2680,-4308,1516
-126,-62,-118,16286,-6953,-1562
-28,38,32,-2535,3730,-1372
75,-40,40,-1485,-1171,-45
-91,31,-4,-1211,2602,-659
42,-64,-38,446,711,-866
77,-69,-74,1625,-10,-540
109,-27,-29,1287,-113,-217
118,-12,-21,691,48,-15
-109,-13,-34,342,205,205
-107,10,-13,-4,-335,662
71,-30,-49,-3998,2986,-3811
-10,76,25,-1801,1812,-3636
76,-82,96,-4962,3869,-3858
-51,-121,81,-4008,2621,-4267
-74,-12,-2,-4310,4385,-4096
-92,-3,-116,-2172,4064,-2690
40,65,27,-1947,4486,-326
-97,-88,-18,109,2981,1434
-60,-126,16,-362,2468,2669
-63,-82,-69,747,1675,2278
3,47,89,-644,1237,2449
-90,-18,25,-728,-1351,966
-88,108,114,1525,-3712,1486
35,10,29,552,-1825,-722
-25,73,-47,2071,-1751,-2235
20,-126,-121,794,59,-2902
76,-46,-120,-487,2159,-3011
84,-125,-91,-142,3313,-2226
43,2,-46,-82,3143,196
119,77,67,318,2010,1557
116,-79,-80,-221,1553,1534
120,-33,28,-257,789,1795
111,105,-41,-154,-447,2069
119,22,-74,579,-1744,1742
84,-71,-47,-12,-2668,314
7,93,-65,85,-2737,144
17,-108,-90,1156,-1764,-1913
-39,90,-126,450,433,-1640
-32,54,-125,699,342,-273
-122,31,-123,783,787,1111
-23,82,49,1299,-288,1515
85,-66,116,309,-1616,1752
-98,-52,67,683,-2751,3107
-115,4,103,972,-3990,3812
-84,94,-73,205,-3872,3998
-34,1,20,1062,-3627,4417
117,117,-106,1375,-5294,3343
14,68,84,4152,-10804,5401
41,-52,-118,2564,-9957,2719
111,34,110,1334,6205,-7525
-80,65,48,-1774,20,1366
-70,-19,70,411,-130,-872
7,26,96,995,1594,-884
22,83,48,-895,1629,-980
95,39,-27,218,1565,-78
70,29,10,1004,128,-294
63,8,11,1135,155,-942
126,3,-1,918,451,-485
123,36,6,90,234,101
-119,27,-9,152,373,112
35,-104,43,-4986,1910,-1937
-40,79,119,-8224,1540,-3451
64,59,57,-2195,3135,-3967
-85,-96,78,-2994,4400,-3888
-52,-50,49,-2921,4626,-2599
9,85,-9,-3431,4889,-1572
-70,-43,120,-2086,4242,-1
93,-36,-18,-607,3990,1422
13,-40,64,386,2593,1787
78,108,-100,415,2342,2368
69,106,57,824,814,2121
121,-62,39,916,-713,2293
52,92,48,1589,-3314,1016
125,63,-60,327,-3419,-73
63,-53,-67,1446,-2105,-341
8,75,113,365,708,-3673
68,-1,126,-15,1618,-4810
-67,1,-86,-540,3472,-3268
-102,49,-31,-798,4352,-260
-34,41,-116,784,1884,2008
27,-30,45,-392,1544,1329
-101,13,32,-1101,657,977
107,29,4,246,-389,1658
-106,5,-37,-350,-1697,2077
106,-126,-15,1066,-2812,1028
-48,39,-55,1155,-3563,-118
49,5,-88,802,-2796,-1162
-54,-24,122,1195,877,-695
76,11,122,1000,-2318,-643
112,-1,104,-328,1786,-684
-121,125,127,122,1392,-482
23,120,53,181,724,587
-121,124,76,417,-108,1275
-64,-114,6,932,-704,2104
-19,-93,3,941,-1571,3024
69,-41,58,882,-2020,3701
25,-102,-93,731,-3870,5131
-111,93,119,1494,-4965,4465
80,26,-123,-1708,-5118,3975
37,-22,105,3347,-4280,-11
16,2,39,2338,-3908,672
-41,85,116,11580,1518,-1392
-63,0,83,1726,611,196
-110,-44,65,-1809,-148,-10
-79,66,23,-1824,1369,-172
124,-51,-42,282,1578,-453
83,-54,-30,763,435,-620
-127,-10,-14,532,-61,63
-105,17,-20,152,89,133
-78,18,-44,-99,371,-206
80,-28,-110,-1993,3526,-2494
-19,31,-96,-922,4238,-2581
105,73,-128,-599,3768,-1791
-20,-86,107,-810,4457,-1107
-42,70,87,-1206,3465,253
-99,113,-119,-494,2310,2089
126,-83,99,178,1691,2855
-113,-37,119,961,-1693,2085
-119,-10,16,2107,-1707,629
-113,-93,-100,2655,-4310,816
-71,23,-67,498,-4562,-955
-14,-41,103,-785,229,-2528
23,-24,106,-182,2456,-2755
99,105,-122,-907,4788,-1979
104,72,-68,-97,3156,-607
-19,-124,-128,-1166,1941,-156
-96,-111,30,-336,1461,761
85,-25,-68,327,554,1693
111,-114,-103,1070,-650,1577
63,91,-101,99,-1912,1144
-64,-80,85,1457,-2627,-226
-20,52,-79,707,-4082,-362
27,36,-100,-368,-1189,-1858
-128,21,121,-592,859,-2169
-44,-88,-123,1003,2495,-1380
68,84,-95,862,1808,-126
101,-94,-56,-279,509,-291
97,114,84,110,-345,247
-75,108,4,826,-727,1586
-45,126,-23,985,-1851,2750
18,-127,-52,1934,-2007,3394
64,113,117,452,-2783,3629
36,-21,95,-334,-3251,4136
101,-75,87,3585,-4180,4191
49,47,-118,525,-4253,3936
-42,-59,62,7427,-9210,5900
104,36,-112,506,-7434,3350
115,73,-60,80,9035,-7011
10,36,101,3108,-3076,382
-114,86,-78,-258,-171,-92
-122,3,125,24,1492,-367
108,-26,20,55,2122,-339
108,-28,15,547,794,-59
120,-14,22,713,-117,-126
-97,-8,12,641,197,-12
-89,29,7,-118,362,175
-96,37,-6,-458,161,209
-79,46,-10,-136,42,404
-82,98,11,-208,-90,350
-62,112,-6,173,347,-183
-61,-76,6,-4912,1894,-1630
-43,-76,-20,714,2536,-2235
56,-77,96,-2744,3051,-2586
-97,58,115,-1091,3790,-2266
-86,75,70,-1926,3619,-2201
83,-4,103,-1270,3485,-2498
-72,14,49,-584,4591,-2625
11,93,9,-141,4226,-672
90,56,-110,-470,3062,752
-2,104,-12,-555,2244,1383
0,-88,-99,377,2527,1155
20,120,98,10,1819,1484
9,-12,127,1931,836,1035
-55,96,-83,880,-3497,1274
107,-18,-46,-1133,-3158,-1091
119,116,-18,804,-3121,-1786
30,-74,-98,-747,-370,-4442
64,57,-72,-952,4200,-2843
-88,-49,-20,-83,3150,386
125,-21,19,281,2733,1545
-54,-78,-73,-1120,2073,1464
-5,-20,-71,255,1489,1812
-12,84,22,201,771,1371
-17,-4,-78,-120,-675,1296
-119,15,-73,1544,-2459,964
51,93,59,1326,-3983,378
-42,-8,-44,301,-3085,-32
-22,-52,-99,689,-3206,-737
-77,42,102,1294,259,-2284
-40,122,104,-861,1255,-3106
-16,93,-125,37,2295,-1040
11,84,-122,-338,1163,71
63,100,-31,442,1330,624
84,-104,112,741,123,1347
-89,-59,82,1055,-183,1686
8,-45,-111,2872,-502,1712
28,-3,-121,1438,-502,2829
-67,-47,122,740,-1471,3690
-124,-126,-97,449,-2553,6112
6,-19,81,1887,-3947,5436
28,-123,23,928,-5972,6411
-114,40,24,2194,-7040,6218
-101,-58,-91,1404,-4670,1641
117,-113,-112,2588,-1175,-365
-97,27,-48,7878,3172,-4980
118,38,-22,-657,-65,-374
85,89,-50,294,-553,16
118,68,-121,-1019,1459,148
94,29,43,-474,1954,-223
96,16,-20,239,1093,-433
89,66,22,-2938,2222,-3243
67,70,-106,-2296,1164,-3659
-75,-18,-89,-2228,2089,-3178
52,72,-40,-3321,3933,-2702
-22,6,-74,-1636,4354,-2213
47,-118,16,-1579,4808,-437
-97,-89,27,-1093,4129,341
92,-64,91,-727,3110,1100
-80,-35,-60,54,1415,975
-31,29,64,-157,-270,1605
6,-46,-35,944,-973,1566
79,24,-128,-100,-2864,444
-83,11,0,1098,-1606,-910
28,18,-76,1082,-1884,-1591
-5,82,-116,323,555,-3144
-54,7,-106,-824,3038,-2852
102,-128,-64,-404,2900,-1916
-95,34,-4,-83,3135,909
-93,-86,-126,-1269,2121,945
-99,-25,112,-368,1187,1743
-96,-120,-105,52,-70,2283
116,25,112,1169,-1677,1207
67,26,-6,489,-2678,354
-112,-46,-7,361,-2609,-1323
-25,124,-58,1724,-2186,-1186
54,-45,-111,600,-1200,-2712
4,-1,127,-270,2349,-1639
109,10,-98,1006,1901,-308
-1,30,124,687,1206,798
76,110,-69,103,419,1115
112,-103,69,392,-760,1665
-21,-59,34,871,-1123,2313
19,-15,48,770,-2121,3109
12,70,-54,49,-3040,3073
-72,-9,64,317,-5138,4748
-63,-120,63,1249,-4282,3823
-32,-58,109,1542,-5416,3151
123,101,-68,2436,-7456,4301
-83,113,87,5468,-9889,3457
63,-126,-107,14018,2393,-5809
-99,-72,-17,-5395,1136,-177
100,-114,79,-1167,284,463
60,15,92,-135,766,-89
58,51,99,-118,1039,-55
55,29,63,275,785,-502
82,30,52,842,310,-566
109,35,34,942,314,-485
118,39,14,476,141,-347
118,37,16,169,-97,-139
123,34,13,196,7,-158
2,69,-86,-5284,2775,-193
60,-126,29,-2330,2402,-1727
83,-108,109,-2216,2653,-3288
14,54,-97,-2008,3709,-4866
-111,-61,-101,-1524,4745,-4616
77,-41,77,-2037,5014,-4304
59,7,79,-2338,4767,-2463
47,-107,79,-1014,3631,-602
115,103,-43,-1830,2940,472
81,89,14,-556,1718,1666
101,-37,61,596,1897,1915
127,-77,42,464,553,1901
50,-32,-14,793,-1962,703
-64,-85,125,309,-3380,-91
-59,-15,3,412,-3180,-782
106,-115,-75,275,-611,-1123
36,-26,-106,1321,1660,-2498
-65,-23,-84,-580,2952,-3603
-12,97,-30,-364,3953,-1095
-74,-84,3,560,3135,632
-38,114,5,-734,1471,1859
0,-10,19,71,885,1939
-17,-9,48,-687,-1181,1474
-44,90,108,1053,-2873,1049
64,99,102,-1569,-3520,-188
-4,20,-118,1539,-3060,1077
32,-72,-112,952,-2573,-407
119,91,96,968,-346,-1599
-95,-95,99,1130,1091,-2910
38,-1,119,402,2429,-1423
-6,66,-98,2017,2691,-1129
33,-99,-85,173,1765,-674
96,85,-14,1122,1109,-212
-83,-96,-108,604,429,705
-28,-92,68,-118,-301,1256
36,116,33,-362,-459,1774
96,-69,22,762,-3272,3027
94,-100,121,707,-5422,4031
-96,20,5,1981,-8583,4835
96,118,87,4777,-10609,7608
125,-89,-66,7647,-8920,6525
-8,75,92,4102,-3093,1825
22,-90,48,8101,3985,-10694
86,37,62,-3173,2032,973
-110,15,-54,1061,-941,-271
38,79,-60,63,668,-776
-113,87,116,-1270,2038,-138
92,38,33,-1351,1167,74
67,2,6,-54,247,-649
84,-21,4,1353,26,-994
89,-39,-16,-4336,2409,-2743
75,119,126,-2393,3998,-4968
21,62,-126,-574,3719,-5335
53,95,-60,-682,3318,-4378
46,118,72,-2641,5383,-1540
32,-45,24,-2675,2939,986
-54,-89,-71,-421,2231,1457
-102,37,121,418,265,1806
7,3,120,-263,-219,2450
4,49,115,-36,716,1501
-121,47,-111,914,-2249,1492
-78,-51,-8,237,-3300,-467
119,-79,-82,211,-2564,-2596
-30,-88,122,-1438,-372,-4152
-1,-23,-112,-1274,3680,-2534
43,64,-57,-967,2926,-857
-96,110,-48,-363,3034,1284
-98,-3,-59,-645,1646,1438
-97,77,-45,898,1207,1484
-127,107,-112,1112,581,1238
78,-53,-121,818,-1106,1631
49,-16,-45,1513,-2121,1002
-74,-32,-105,24,-4109,1097
-76,-128,-52,725,-3919,-1064
-15,87,115,280,993,-1609
-34,28,117,808,805,-2829
-63,-14,-109,-289,2810,-1401
28,-110,-91,589,1986,-518
38,-124,7,885,649,-332
123,101,110,528,450,-466
-103,100,86,619,-214,950
33,79,-85,1311,1176,1514
83,-123,-26,629,1417,2427
-126,61,99,-1005,-141,3587
30,-26,-102,-367,-2317,5219
-120,-89,121,-439,-3978,7155
34,51,96,479,-4291,5993
85,-113,117,511,-7156,5898
-57,12,50,6753,-8357,3887
-114,-122,-35,3443,-5512,3088
9,57,-9,3186,6868,-4340
56,85,-34,-264,371,-362
95,-103,-94,-1476,-239,385
-128,71,108,-2184,590,-471
-116,9,37,-560,1053,-813
-126,-12,0,581,697,-797
-122,-1,-10,1158,249,-456
-105,6,-24,877,341,-443
-75,13,-43,388,354,-301
-82,14,-43,156,260,-736
-30,0,111,-2269,2294,-4092
-16,-90,118,-2471,3357,-4126
48,-7,111,-2949,3321,-4053
0,-112,115,-2279,4891,-3004
-74,-98,15,-2518,4232,-519
23,119,-121,-1268,3670,818
91,92,-11,-250,2346,1080
-10,-70,28,-107,1783,1291
54,40,29,259,461,2146
75,115,-81,2925,-1389,1542
-9,-22,76,-993,-3921,1227
43,13,1,1338,-3303,-1119
95,-115,-73,781,-3013,-1245
-100,-95,119,-80,1702,-2302
80,0,-112,-1011,3066,-3142
39,-66,-59,-274,3465,-1185
-90,88,-18,-510,3255,1
-118,-91,32,-604,2250,823
-73,-5,24,358,1388,2073
-125,121,-41,-328,-195,1512
117,19,-97,851,-2029,1362
108,-33,-11,913,-2654,106
-127,-8,25,519,-4043,-823
17,-37,-73,829,-2832,-1876
-115,58,119,-659,-186,-2181
56,21,125,77,2653,-2250
-116,76,-96,-397,2683,-1396
49,56,-86,40,2100,-305
105,-119,-60,-67,1054,196
104,-79,99,274,-784,1381
-28,-43,81,841,-723,2458
-69,-3,126,259,-2089,2777
6,60,-51,589,-2317,3373
-36,-80,60,901,-2738,4561
112,74,87,762,-4836,5479
120,111,62,341,-3774,4649
-109,73,100,4209,-8957,6206
58,-60,96,5636,-7743,3702
108,-9,17,-1108,-6811,888
109,29,-49,-204,7091,-3534
-58,32,106,2124,-2589,-470
122,115,-95,-500,476,-388
107,51,101,-999,2160,-514
72,-46,-25,434,1765,-426
82,-55,-42,2048,514,63
103,-25,-32,1835,-142,99
-102,34,11,747,-283,550
-93,54,23,-176,-136,498
-88,51,34,75,-75,639
-78,73,41,149,-526,910
123,-103,118,-2058,2822,-3265
23,-97,-121,-2577,3521,-3195
-126,80,-124,-2004,3670,-2674
56,26,70,-1720,3178,-2640
-21,-114,56,-1785,4246,-1913
39,82,-67,-84,3995,-766
-92,58,-15,-1576,3597,979
16,31,-127,-534,1793,1076
-34,-96,64,-397,1503,1060
-2,-116,-94,-376,-520,1921
-90,50,-24,878,-2634,1434
-51,-53,-79,433,-1736,132
-6,-3,-17,397,-2271,-1151
62,109,-97,1802,-1385,-2226
-83,-64,-121,212,2063,-3022
72,119,-92,-220,2530,-2596
102,81,-40,-346,3481,-812
106,59,-39,31,2519,107
55,-100,-6,-1145,1192,798
62,-28,102,-244,768,1438
68,104,29,-57,-242,1949
67,-22,-25,937,-1349,1682
-12,-105,77,52,-2469,419
-80,126,8,1341,-2166,-473
-72,-100,-47,1237,-2446,-1695
-23,-24,-114,772,566,-2213
57,-89,-111,861,1461,-2107
-4,-12,127,574,644,599
43,52,-42,1011,-1092,1240
126,-108,121,899,-2056,924
-112,-90,-109,1250,-2255,1680
-114,-56,-110,2345,-3140,3602
-112,37,-40,1896,-2774,3831
-126,20,84,2837,-1506,3873
5,-33,123,2811,-1726,3831
-42,18,-119,3082,-1722,4117
-22,-127,-39,5646,-3660,7130
59,-113,-102,2593,-10846,4275
-88,-107,127,1089,4238,-4145
71,-90,-82,-1338,840,-1870
51,31,-88,1239,-909,1054
71,76,126,273,944,434
83,85,78,-821,2315,-116
92,-8,2,448,1963,-454
114,-32,-17,2409,519,-400
123,4,2,1607,-53,-764
-105,9,21,467,-124,-364
-98,7,32,-232,-125,44
-87,20,18,-378,5,374
-86,33,5,73,22,412
-126,49,122,-4335,2006,-4570
7,11,82,-1184,3136,-5214
54,98,122,-3607,3303,-4696
-74,123,-83,-3576,4241,-2798
-38,-13,-99,-2707,4045,-1454
-35,-69,-113,-1619,3562,-208
108,-96,86,-1570,4120,364
-67,96,42,18,2422,1275
-55,-55,-75,-148,2206,1510
-5,63,61,-572,1998,1897
-11,60,-116,1697,-1841,2354
-37,54,-66,64,-4306,425
-110,-109,-6,-272,-2113,-1749
100,-8,-56,1869,-642,-2680
9,-1,-108,100,1391,-2547
60,7,-87,58,2293,-2333
48,50,-33,-166,3597,288
110,113,-68,-189,2268,658
118,-66,-27,-554,1390,1158
-90,-4,47,488,1061,1565
-107,64,-25,157,91,1385
-119,-48,-67,-124,-1520,2128
123,-57,4,1511,-2875,1202
-1,-88,-20,193,-2890,-944
-49,62,-74,1684,-2594,-3396
-13,-57,-126,392,209,-3420
-100,74,-127,775,1188,-518
6,-126,15,2301,-49,844
91,70,-64,-613,-332,1244
-27,119,82,515,-517,2132
-50,-60,104,1172,-2747,4188
-34,2,-47,1400,-3475,6632
-76,-53,-1,-128,-6256,6231
70,75,102,2705,-5517,5248
71,-6,5,4115,-5738,5014
67,54,87,-419,-8432,1694
-125,-23,10,15843,628,-3680
-127,8,-124,-531,1957,-4264
90,25,-76,-1917,60,1353
30,51,66,1405,181,259
77,123,82,-929,1875,116
84,77,5,-1074,2006,23
97,38,-40,448,633,-561
124,10,-12,1539,-630,-1188
-98,-2,12,1829,-624,-1210
-77,-7,27,1108,-142,-1174
-75,-28,32,289,206,-883
-87,-50,24,242,39,-323
-99,-60,17,452,-107,49
-79,-33,9,530,-18,545
-93,25,46,-1948,1916,-4173
26,23,119,-3087,2128,-4552
-124,114,13,-3942,3957,-4381
-91,-4,42,-3757,5585,-2845
74,114,-85,-2614,5408,266
99,29,-125,-1298,3566,2060
-65,-128,-39,-85,2492,1726
35,-76,-47,78,2746,2396
5,59,-48,940,-676,1161
9,85,91,-1098,-5183,-601
82,2,120,1456,-1097,-1023
50,-63,-4,1095,-938,-1644
-97,-123,-37,-60,1754,-2797
104,27,-9,-83,3463,-1634
-45,48,41,-470,3058,-178
40,-94,-57,-246,2142,1252
99,55,-102,123,1079,1375
-114,-39,-34,-150,373,680
81,50,-60,-9,-1525,380
83,-125,58,509,-2519,-257
-11,77,71,1655,-2479,-765
-36,-82,-70,810,-1696,-251
-10,-6,-83,1086,-1448,1129
-8,-75,109,2269,-3080,2238
18,0,61,1439,-4857,2942
88,-11,-19,1261,-5380,3865
105,68,58,2146,-6097,4326
-45,91,43,4222,-5293,3462
-65,-51,-25,2769,-2438,718
-110,-125,85,2758,428,1222
68,88,105,3057,-380,2139
-16,92,30,2646,-565,942
-40,108,89,841,-905,139
-58,42,100,149,-280,-366
83,-27,-70,-179,-1024,1343
88,-84,-125,1782,-890,-264
-120,-115,91,2050,524,-1069
-123,94,25,1821,808,-1981
-50,40,27,1312,743,-1709
120,15,20,763,-483,-1146
-84,2,60,-573,-704,-907
-31,-7,18,-712,167,-323
-62,-57,-62,250,744,-470
-81,-40,-63,606,215,-438
-50,-11,-81,402,161,-127
-42,-5,-94,376,70,12
-21,-10,-95,702,-157,250
-27,30,-92,559,-179,352
-33,9,-117,1158,189,100
-15,16,-113,1129,180,433
111,-104,-82,-3902,1432,-3257
-21,-21,-49,-3190,1864,-3959
55,-125,28,-4497,1651,-4133
52,20,85,-4967,2656,-3591
-66,-17,-85,-3926,3481,-3035
-49,29,-118,-2202,3774,-789
67,-56,-41,-198,4038,1234
-34,5,102,-428,2907,1523
-48,127,94,1027,1921,2969
-12,45,-57,885,854,2881
118,111,-75,519,-700,3093
39,69,-55,2322,-3897,917
48,64,-43,-1470,-3205,-1748
68,55,-100,2575,-1849,-1833
-21,-43,101,-2034,733,-3890
-68,124,-124,-413,3638,-3355
44,-83,-79,-1695,3702,-1762
-92,75,-98,-100,3238,397
108,-70,82,-707,990,2075
115,-3,7,4,603,2134
-94,-80,-118,-128,-404,2431
-125,22,106,1201,-2461,892
-85,64,-29,226,-3120,291
58,-24,19,337,-4721,323
-44,94,115,1177,-1522,1741
-92,6,79,2289,-2488,2354
123,-123,48,1073,-4199,3242
-92,-87,44,1123,-3698,4295
123,-99,74,3515,-4884,5152
-67,127,-126,6609,-3827,4467
99,-92,21,4526,-3212,1535
90,-96,-111,1960,853,0
-51,14,52,2512,1329,445
114,40,87,-262,-104,1446
107,-41,58,-772,-289,1040
-127,-94,10,101,93,327
-127,-124,3,708,-77,-249
121,-118,13,654,-220,-371
-122,126,17,613,-68,-644
-88,65,-19,1069,282,-1112
-77,43,-32,918,184,-1093
-106,40,-41,399,-90,-956
-80,35,-25,-276,-464,-704
-49,51,-10,-703,-367,-195
-24,30,-59,-213,350,-256
-35,28,-83,720,388,-194
-53,61,-92,519,64,-219
-27,80,-106,168,197,-62
-17,74,-112,358,109,161
-7,90,-115,420,120,377
51,115,37,-3074,2218,-3899
-4,3,29,-3692,3252,-5245
63,-82,-124,-3884,2574,-5200
45,112,55,-5350,4564,-4151
32,-5,28,-2822,4098,-1656
50,94,-46,-1975,4416,666
90,5,109,-242,3999,1862
3,32,-22,207,2731,2784
-27,42,118,3901,1422,3845
71,95,13,2204,-897,4304
54,-9,112,1644,-4112,2993
-118,92,27,-1076,-5251,-104
30,-100,-119,313,-3142,-2055
37,64,68,-936,-85,-3425
37,6,68,-1620,2372,-4532
77,86,97,-553,2862,-2784
49,-78,-117,-1876,4619,-822
14,-108,47,-229,2788,669
-48,30,10,-1170,1885,1211
-78,71,104,-184,1183,1538
-77,97,-116,-346,445,1821
-93,-112,-97,695,-1522,1860
-126,-126,-1,578,-3151,689
31,79,-91,95,-3196,-760
87,-97,-57,73,-3007,-1798
-104,88,113,904,-1618,198
36,98,85,2655,-978,2060
66,-92,63,164,-2631,2216
109,-22,47,-453,-2752,3189
77,12,32,2412,-3809,3998
-109,43,60,-499,-2908,4424
73,-42,88,4801,-4512,4155
114,-96,-5,7014,-4902,5358
-4,-31,29,2633,-6918,2443
-23,-5,71,447,-2806,-747
-5,96,59,2999,4001,-3965
40,-66,113,-174,392,273
65,-104,100,-1240,311,962
108,80,52,-1231,909,-198
-102,-25,-17,1594,1353,-1363
-58,-72,-34,3081,501,-1777
-104,50,54,767,-876,-547
-100,1,60,-572,-538,-881
-76,-66,28,-18,233,-640
-61,-60,-7,133,698,53
-84,-19,-35,258,63,633
-68,24,-42,85,-28,567
-45,60,-64,-58,219,360
-46,45,-87,543,117,102
-35,56,-89,794,-86,254
16,111,-63,-4042,947,-3637
-3,126,-61,-1243,4319,-4339
53,26,-105,-2711,4242,-2469
120,-116,-62,-2626,4395,413
-94,108,4,-3099,3193,1377
-41,-59,82,-3252,2090,2628
-115,-30,65,1034,670,2274
-53,93,60,2730,-82,1919
-10,15,-97,1147,-1011,1424
18,58,98,457,-2429,995
-46,3,-55,-471,-3505,829
5,-47,-53,-414,-1735,-2692
36,62,-104,1870,-1338,-4831
45,10,-107,-1009,3402,-3845
96,-40,-54,-125,5512,-1203
67,-50,1,-690,2088,-18
-122,-121,38,-1876,1644,583
105,-30,-97,-1040,867,2159
-114,18,37,845,499,2498
-91,12,-97,371,-917,2362
-112,-102,-90,1402,-2380,903
64,-116,55,543,-3035,-570
-42,74,-37,487,-2336,-2605
-105,31,-75,1155,-332,-1230
-56,-104,-97,1590,803,-942
117,46,-93,1051,1237,-529
10,58,85,1588,273,-35
112,-87,-125,523,-581,-301
-113,-80,50,572,-1014,234
-121,-99,46,934,-2125,1814
-126,-128,-114,1964,-3456,4134
91,-43,10,4257,-5145,5784
80,99,91,3587,-5225,5417
-110,-27,42,-286,-5150,7167
-114,35,-7,2182,-5457,4453
84,-109,-68,142,-7465,1888
-125,29,72,9041,3491,-6228
-103,82,-46,-4836,-279,47
24,-58,35,1531,120,536
52,63,98,736,1797,-193
89,9,1,1075,2410,-1031
121,-18,-32,2197,1459,-838
112,2,9,1797,-78,-435
-124,31,74,376,-1150,138
-100,27,88,-364,-728,330
-76,17,41,-206,103,518
-94,33,23,80,278,565
-117,85,18,-270,-42,528
-89,-125,15,-428,-142,609
-90,-95,8,-530,29,454
85,-32,-56,-2517,2360,-3914
-103,59,-32,-3599,2004,-3973
-49,33,27,-5161,2774,-3911
86,-116,83,-7625,3011,-2975
-60,81,-80,-1423,4928,-313
-116,-68,22,1022,4006,1203
65,122,-77,-1158,2895,2713
31,93,29,1655,1644,3081
-2,55,105,984,790,1915
17,-14,-109,-357,-652,1538
12,17,-109,1678,-2369,945
-44,-11,88,811,-2312,157
-21,2,-2,675,-2209,-1474
-83,105,-86,872,-418,-2517
46,89,-90,4,2397,-3871
-61,-93,-49,-549,3706,-2997
125,76,28,410,3800,656
59,-33,-63,-704,1912,2369
-102,125,-15,262,1533,2668
-75,33,101,75,1040,1573
-118,-119,54,-822,-92,1206
117,-44,16,-182,-1371,1591
110,106,79,530,-2813,1978
-4,-103,75,-155,-2688,-176
-83,-91,-73,1212,-2505,-1313
11,-104,-93,405,-606,-2003
-126,-102,-118,1747,-132,-2863
-27,20,-112,648,621,-2513
-60,18,-95,116,2139,-503
123,-60,58,312,-123,536
42,14,-62,578,-229,1386
113,76,102,957,-545,1466
-84,116,67,505,-1305,1405
14,-112,50,748,-2601,2489
51,-76,-128,295,-3037,3629
8,91,45,1129,-4767,4996
39,50,72,1261,-4011,4098
-37,-122,108,2406,-5150,4048
-84,28,22,4377,-7747,4721
1,48,-64,1714,-9650,1992
-94,-108,24,5828,5455,-6252
34,19,-60,2960,-2233,829
74,-105,-57,-36,-598,485
-116,106,-127,-3009,2299,501
118,29,-28,-2198,3325,314
75,8,-70,-504,1612,-416
59,-10,-22,1394,-706,-1190
110,-8,15,2384,-1350,-660
-101,52,60,1339,-945,81
-108,64,66,-261,-299,100
-37,110,-29,-2712,1925,-3837
124,-123,-119,-1982,2488,-4967
7,10,-94,-2729,3761,-4989
-41,-88,-80,-2737,4767,-4026
-18,-34,-98,-1743,4750,-1568
8,-103,-33,-1661,4008,-75
102,-96,40,-1372,3146,1322
-10,-108,-24,-376,2317,776
-68,-41,-4,-1051,1095,2013
72,44,106,1004,1054,3632
-91,-14,72,1237,-828,3200
-97,-99,56,183,-3354,-859
45,70,-117,-235,-3066,-1630
-118,61,-35,1645,-2125,-1449
21,-1,-125,562,-659,-2733
-120,-57,120,454,1944,-4166
71,-59,-101,-674,2801,-4157
114,-8,-51,144,4118,-911
-73,43,-14,-1172,3477,162
-60,-69,-121,-146,1898,2281
-74,22,21,-160,1083,1606
-90,109,-52,-1081,491,1331
125,-102,-63,-403,-746,2156
114,-60,-29,587,-2206,2498
117,97,27,2276,-2936,1002
-79,87,-26,2468,-4973,-2599
-44,-69,-75,-1131,-1433,-1525
-58,48,119,2677,-890,1318
-13,25,101,769,-1530,2508
38,97,68,26,-4107,2725
98,-85,14,508,-4233,3941
25,58,54,2492,-6548,6399
121,24,-69,3980,-2324,6339
7,86,-110,6210,-3683,3362
-47,14,-92,-1260,-13138,4596
6,-74,-3,9020,11806,-8608
-100,75,-64,148,-2770,-881
27,118,107,996,1041,509
-4,62,54,90,1982,166
45,61,8,-988,2571,-111
97,-29,-82,1582,2052,-267
116,-2,-67,2980,-229,5
92,94,60,114,-2194,-59
-105,97,101,-1014,-1742,162
-97,26,24,89,404,-54
124,-9,-23,1229,1287,-559
-95,38,-37,1052,422,165
106,126,-33,-181,-458,588
-119,108,-21,-253,-867,-231
-25,-127,-30,-765,661,87
124,-49,-38,-2872,3528,-3295
31,31,-33,-2645,4461,-4396
103,-116,-9,-2760,6789,-3479
-118,-13,-23,-2033,5492,-2494
-95,-48,-78,-2155,4027,-1492
-38,-51,33,-119,4221,-242
66,-46,-118,-1014,2115,1250
53,-15,-19,-527,1913,1738
-53,60,-90,247,711,1299
-100,-57,-30,480,-476,1485
65,77,-78,1146,-1883,1288
5,-19,-94,1616,-2227,-213
-87,-7,15,-60,-1613,-917
108,46,-67,1445,-344,-1621
-127,124,-90,941,246,-2501
93,-114,-89,640,1994,-1804
-121,-48,-64,-549,1870,-1312
-67,-114,-33,-49,2018,-136
-43,-46,-91,-52,1339,454
-34,13,-31,-457,1169,467
-57,39,-86,-158,222,1536
-58,51,122,447,-411,1722
-12,-86,64,28,-1102,2023
-12,-8,16,1220,-2289,1465
21,93,73,1064,-2617,1410
-38,93,-23,1900,-2083,132
122,122,127,1060,-1947,-1340
77,-87,108,1239,-1150,-1995
-75,107,97,1111,372,-195
-36,66,94,1722,-1226,893
70,72,2,101,-1477,1658
56,62,-61,179,-2951,3558
68,-98,-13,384,-3612,5546
-108,-126,82,2439,-4552,6667
-105,-61,76,2883,-5421,5171
116,98,-76,2884,-5800,3973
96,18,-60,4424,-5223,2378
-108,-66,33,5736,-2311,-3373
-73,-8,57,3870,3364,-5170
85,-50,32,8,2282,-1020
31,-121,112,-1780,102,369
79,66,38,-1390,373,332
106,73,16,-1430,665,-144
126,55,12,-960,164,-878
-93,-6,-5,605,37,-1244
-88,-26,-11,1528,-183,-1116
-101,-22,4,997,-144,-1339
-71,-50,9,884,-154,-661
-78,-38,8,202,-26,-17
-65,-30,-23,-162,192,591
-21,-65,37,-1691,1539,-4908
11,-74,117,-2759,3905,-5019
-78,-37,126,-3785,4316,-5042
99,103,-80,-3123,5393,-2864
18,-28,-110,-2315,3983,-778
85,-64,22,-2239,3791,531
-80,122,20,-510,2967,1942
110,-89,-109,200,1906,1796
74,6,27,883,1024,2063
92,-103,11,867,58,1196
35,-10,82,2140,-2618,1293
52,-90,20,2048,-3999,1495
-103,-98,-33,-658,-3173,-589
-89,84,125,934,-2749,-1787
-106,-85,82,276,246,-3738
92,10,105,-2021,2619,-4224
67,-121,-102,-1469,4382,-1394
-116,20,-22,-803,2747,380
-38,-88,119,-1395,2444,1752
-83,-9,-102,-695,1260,1818
-83,53,31,-261,828,1606
-105,-88,18,-857,112,1761
98,-25,-22,857,-1120,1239
91,-121,73,128,-2000,1156
49,99,-122,2213,-2437,689
-63,-21,-19,1089,-3126,26
-56,-5,-58,887,-2472,-1640
-74,54,-120,1172,-334,-2191
-63,42,-124,2432,271,-2508
98,118,-104,60,2012,-2583
-75,56,-81,17,836,-914
61,95,37,900,-46,695
125,-99,-16,582,-100,1359
-52,-113,122,2180,-199,1605
-1,-21,-97,1078,-1114,1918
3,47,-105,847,-1967,3731
-106,117,-41,108,-2948,6141
124,5,76,2896,-5857,7696
-11,59,40,2714,-5329,7798
75,-107,86,4197,-8466,3628
101,-65,27,5323,-2134,-918
56,-23,-81,4338,4031,-3984
-16,-37,-59,1006,-1781,1041
72,-104,-67,-2356,451,812
106,43,77,-3020,2229,1018
111,5,-26,-795,2123,699
127,30,-38,977,873,260
123,83,2,1289,-581,-416
-115,75,-2,925,-494,-843
-76,39,-7,762,77,-770
109,-4,16,-4458,3524,-2703
81,-101,-42,691,5880,-6200
-121,-14,-73,-1031,3923,-5232
-108,123,124,-3679,3685,-537
115,-116,-61,-2150,4253,-33
20,-5,-57,-1851,1564,1913
-43,8,-110,601,2142,1589
100,50,-125,1428,1419,645
-67,-31,34,210,336,2036
-15,124,104,1263,-2885,3075
-81,-106,37,3337,-4478,2583
118,-5,124,-1101,-4129,1161
-73,-127,97,601,-1498,-1773
97,108,59,-1400,-1427,-4204
46,-10,60,-1696,1990,-3119
-110,-120,77,1435,4179,-2346
57,96,118,-1610,4164,-1107
-28,107,-3,-695,3330,1122
98,33,-87,-772,1225,1443
14,27,74,111,302,576
18,-26,70,2002,-529,728
117,50,125,1307,-1737,1688
-31,-4,96,2222,-2746,2441
-111,-56,75,3828,-3370,2901
-118,56,68,2605,-4406,4244
-73,-6,-121,-697,-2331,4310
64,53,108,2949,-963,3376
80,127,-111,1597,-1480,2702
-48,-13,-1,2010,-1279,2220
65,-29,-71,1375,-1790,2373
-27,-78,70,927,-2038,2064
109,-93,59,-494,-5101,1405
49,32,-33,4955,1437,-1769
-57,-31,-72,1879,1767,-1669
-101,49,-12,837,-314,-1209
-10,34,-2,-1120,907,-639
-46,-53,-50,-186,1064,-634
-67,-67,-78,788,286,-413
-60,-52,-59,973,-119,-148
-26,-43,-63,921,223,128
-1,-30,-88,675,487,379
10,-27,-96,404,1,588
49,27,-52,-121,-761,1118
11,26,-69,219,-384,454
-7,-6,-65,807,-325,-130
-2,54,-38,-47,-293,600
-17,96,-56,-217,-115,1044
-11,85,-88,699,257,479
8,106,-111,1044,410,49
19,122,124,807,146,-158
91,35,92,-1637,2109,-4430
71,-18,-25,-3209,2367,-4613
21,73,-105,-1780,2582,-5238
9,42,-28,-3985,3819,-4903
-1,-57,90,-3345,3660,-1844
19,60,-98,-1156,3347,903
-121,121,7,-1094,2371,23
97,-45,-81,-1418,1614,1853
78,-106,5,1370,902,2130
19,94,-76,-638,81,1089
-47,-126,25,-306,-1914,730
-55,43,38,1597,-2366,871
90,-72,-38,1068,-2357,-144
8,-113,-77,1193,-865,-1388
-98,33,-120,1155,-318,-2039
9,121,-126,-242,1353,-2627
-71,63,-102,-297,3208,-2503
52,57,-47,6,2523,-314
103,43,-42,135,2527,347
67,-121,50,-1022,1926,761
80,-48,-120,-297,1316,1428
77,109,45,-571,148,1429
51,19,52,-42,-1096,1104
58,69,91,1224,-1913,1102
-17,-118,-42,581,-2269,-106
-77,100,75,1674,-2074,-411
0,89,-91,886,-2333,-1646
-51,-15,120,1584,-1474,-2975
59,86,105,-298,1254,-2849
92,46,-125,1219,2290,-839
-66,-38,-96,1565,1806,312
3,45,44,501,176,1067
-101,55,91,1077,-69,1110
-88,95,43,618,-2086,2475
-29,101,-7,1050,-2697,3184
-70,-68,107,1524,-4505,4124
-13,-30,-88,3390,-4216,4568
84,17,-49,4173,-1527,7278
37,-113,-104,4917,-2442,5484
-47,-120,73,4541,-2615,3498
-8,-40,-100,-1111,-5296,2950
123,-79,3,5611,1488,-1676
-67,14,-1,2613,270,-2513
45,-57,-54,-31,-1031,594
106,109,-88,-2118,147,403
124,43,75,-2038,1981,257
119,-15,-28,-252,2259,-153
115,19,-11,833,664,-389
121,31,2,1099,-373,-472
-99,22,-15,1214,-341,-479
-15,-120,123,-3824,4463,-3778
-62,-7,-1,-2944,4667,-4612
-90,54,0,-2767,5433,-3474
-91,36,-27,-1411,4731,-1796
-124,-22,88,-1768,4216,-57
-91,-76,108,-1370,2421,108
8,95,110,-387,2166,1414
-49,76,108,651,1150,1663
-54,-110,7,558,647,1571
-22,37,-63,-336,-449,2228
30,-107,-13,319,-1640,1897
74,-94,-72,2286,-3749,1103
-121,-26,-34,274,-229,416
-24,79,-121,933,-2209,-2228
30,-48,104,976,182,-3204
-71,-26,111,-1442,2881,-4039
-107,-84,-85,-807,3966,-2341
-79,44,-32,-72,2792,5
-118,105,55,-1353,1946,807
119,-94,112,-545,1264,2102
68,-29,54,-171,-119,1315
31,-126,96,-1733,-900,906
13,-28,-104,53,-2174,1934
14,109,33,1307,-2043,1249
-71,35,-33,471,-1964,-568
45,-88,-84,495,-784,-2397
-11,-71,-101,1282,725,-1774
31,114,-84,901,1681,-1812
-109,32,-61,494,1553,-946
-52,17,108,846,477,79
49,127,-73,63,203,-25
86,-99,110,856,-437,197
-43,-23,85,1475,-622,795
-6,-29,97,1542,-1645,1585
-33,-25,24,2397,-3035,4507
-37,-86,78,1730,-3151,6620
-122,-106,78,1069,-6611,6519
-46,-62,125,1306,-7560,6433
93,-93,105,3886,-7069,3930
36,58,81,-1370,-6225,2555
-79,62,71,14891,4488,-6325
-33,-124,44,-2145,-342,-1806
36,-84,-75,-335,-563,571
95,96,-106,-978,964,401
-123,-3,43,-13,1924,579
114,11,8,1592,1270,384
81,104,37,-20,-141,-397
97,61,52,220,-954,-469
-122,3,17,1121,-277,-547
-128,26,15,499,235,-608
126,-90,-62,-500,1889,-6232
-67,-62,-37,391,-161,-6407
78,-34,26,-3607,-39,-4052
124,36,48,-3502,-21,-3555
-79,121,95,-4073,1101,-2430
24,-72,49,-2969,1094,-1286
122,103,83,-3033,960,-135
60,44,-60,-2424,1281,989
105,-26,-107,797,2226,2068
89,97,43,178,1630,2490
-53,-51,-119,599,294,2289
71,-88,60,2211,-1755,1921
-13,-14,-118,1752,-1713,1202
-13,89,31,1045,-2185,815
7,-66,-122,1678,-3015,-286
-45,-72,86,740,-993,-3791
-116,80,80,-1160,2597,-4066
-37,-71,112,-1766,3136,-3427
21,-83,-76,-1447,3378,-1285
10,-121,-82,-675,3062,263
22,-65,-89,-426,2060,1302
-7,-27,-116,1617,845,643
-83,81,-117,-1128,-260,61
124,-93,116,74,-2084,1825
82,62,-47,897,-2900,2467
55,58,-39,114,-3165,717
91,-103,-47,693,-1953,-874
29,3,127,1524,-1131,-2302
61,48,122,322,406,-2762
118,123,-113,-244,3080,-2369
-12,80,-70,39,2497,-793
69,100,-78,-263,1850,-651
96,-112,-49,672,878,-404
-121,-72,-107,988,296,383
-99,-62,104,1743,-61,637
120,-56,-43,1417,-670,1459
-81,-126,-96,1549,-1141,1689
-83,-15,-122,-35,-1195,3015
-121,117,122,849,-2732,3374
66,-87,-51,1203,-4030,2941
-68,26,89,2028,-3746,3903
-81,-18,-125,2665,-1924,4242
11,-27,-70,2959,-2098,5481
15,101,-101,7344,-3786,7839
113,-11,40,7460,-6229,7852
79,122,-61,4057,2330,-5019
-73,37,-18,-2555,106,-624
112,-128,59,-2166,-663,282
80,23,93,-587,1248,-1242
83,-31,46,408,2043,-1726
