AccX,AccY,AccZ,GyroX,GyroY,GyroZ
-45,73,52,-3083,3434,-2527
-7,-73,-84,-3732,4187,-3768
-24,-88,123,-4734,6430,-3922
-51,23,105,-2895,8606,-3988
29,122,-12,-903,9898,-2966
21,74,59,-938,6931,-992
42,-116,12,-295,4395,-295
81,30,76,-1673,1503,1938
-7,31,102,-1541,-1160,3348
-11,-33,74,-1949,-2653,3118
-76,54,4,279,-4223,2851
-35,-66,1,369,-3743,2122
31,49,-90,-5003,-1618,-5289
-68,62,-111,322,-14,-5210
-127,-75,126,-1630,4572,-5534
-86,-13,-96,-1206,5193,-1872
-35,3,-101,576,3793,1103
-17,15,46,-3056,2559,1052
64,-29,-55,-1539,1063,2432
12,-117,84,-2015,-1305,2726
-14,-14,-126,46,-2832,2842
-14,124,16,-119,-4152,326
-71,36,16,-1357,-1901,-3104
10,49,-83,71,273,-4581
-63,87,-106,-1049,1437,-2762
37,54,59,2770,232,669
87,-111,31,82,-1200,518
-83,97,-62,-1932,-1367,1165
-58,101,-127,-265,-2179,2252
-45,-19,-111,1355,-3379,4161
-25,110,84,1962,-4114,5491
-125,1,-127,3961,-1961,4009
94,68,68,3415,-3222,4990
-123,-66,62,1746,-1889,1708
7,26,-6,3668,203,-406
75,-63,78,-2550,1824,876
-2,-93,-2,-172,1039,-629
19,66,19,134,-102,-1540
31,3,5,316,138,-1693
37,-20,41,-417,302,-1167
76,-23,0,-846,768,-546
78,-9,-19,-1252,472,-353
112,34,-51,-1766,525,-364
-126,64,-71,-1220,109,-183
-113,84,-56,-842,21,-369
-104,108,-56,-670,564,-602
-93,123,-53,-656,528,-655
-69,-97,-63,-911,599,-381
-60,-79,-70,-848,320,-152
-57,-68,-76,-614,322,-219
30,83,103,-5027,2541,-2199
-23,37,-58,-4177,2332,-3060
-30,71,52,-5291,3617,-4292
121,-108,73,-4683,5870,-4264
99,-5,-113,-4039,7261,-3470
-89,-56,28,-179,8612,-3013
98,-15,14,-1042,5278,-474
-12,-115,-23,558,4387,-67
53,110,-39,-1609,1730,1846
-19,35,-115,-599,-241,3860
55,-120,9,-2055,-2120,3451
-20,-110,28,-964,-4497,2729
20,0,23,-1307,-4208,109
107,79,-51,-2172,-1174,-4570
52,-122,-110,-2425,308,-5839
-30,25,-116,-1721,3970,-4352
84,94,115,-107,4416,-1074
-81,57,103,-624,3638,260
42,-2,102,-1138,3238,1597
-121,-55,60,-1762,1992,1985
-23,-36,93,-1365,211,2511
-50,-15,-98,-1422,-1913,2871
-64,-34,-57,-731,-2406,1739
-30,37,-87,-625,-4387,300
70,-35,89,-1047,-2705,-2004
21,-116,101,-1194,-1042,-3936
-115,-29,76,-279,2160,-4503
-85,9,87,-446,2507,-3091
-2,24,18,49,1071,-1113
5,110,37,-290,-583,-347
51,-110,89,3433,-2364,963
-123,-123,-45,3508,-1152,2145
61,56,-8,5159,-1892,3423
122,-48,-18,2100,-59,4594
60,-77,-74,1842,569,5065
55,93,99,2033,-384,4172
85,-62,102,-499,1463,3305
-123,4,-123,266,-311,1939
113,-97,33,784,124,1592
62,95,32,-845,877,617
17,-43,62,-67,-32,165
51,-106,74,-138,174,-118
54,-99,63,-1671,307,-781
53,42,30,-643,506,-1183
67,5,-1,-378,691,-1185
79,-6,-2,-263,681,-823
106,-16,-14,109,431,-388
-121,31,-14,-734,408,-132
-108,36,-39,-702,524,-289
-78,61,-51,-665,404,-285
64,-3,27,-4970,1548,-2579
98,-34,123,-4830,2955,-4007
-111,120,83,-5154,4582,-4309
-36,64,-52,-3373,6315,-4535
-119,-3,-118,-2643,7458,-4587
-65,-126,-102,-1372,7938,-3844
-31,-101,-110,-1358,5737,-2469
-27,6,-116,-1137,3667,127
60,102,-62,-271,2768,1627
29,-128,64,-2001,-256,1365
-55,-117,4,-923,-1851,2556
-55,3,-60,1390,-2383,2919
-10,41,37,-869,-4467,-1879
-32,102,74,17,-1957,-4026
97,65,72,-1157,-52,-4706
43,-53,53,-2697,2991,-4741
9,53,66,-1239,4494,-98
-43,-108,86,-1643,3269,1088
0,-88,25,-3203,1596,632
86,102,24,-2380,527,2121
-7,-78,-89,-2283,-1301,2794
116,115,-78,-133,-1427,2512
-52,56,-9,491,-3014,2356
55,-27,33,-519,-4251,-702
-30,125,117,-8,-2082,-2795
-62,47,104,-459,-926,-3668
80,-30,82,-518,2660,-3153
-120,-104,112,1338,3459,-733
33,-58,90,-985,1149,-1097
-109,5,80,-925,645,-826
-106,17,-27,-98,-367,-172
-75,58,-60,-601,-298,916
108,119,22,-1160,-1044,865
24,-50,124,-1245,-1814,2391
23,34,-44,-685,-2227,2923
43,-91,32,-103,-2806,3240
-29,-16,62,-1547,-3247,3146
-111,-79,31,2694,-5376,5204
93,-34,-109,5350,-4056,4397
78,10,48,3081,-2355,1336
-18,-115,-55,2932,-1886,1163
-84,-7,125,619,41,310
-90,-52,-113,-1095,848,191
-54,54,113,68,542,-235
-27,47,122,-53,359,-598
-6,18,123,-888,551,-800
6,1,87,-1502,1187,-852
19,-4,47,-1768,910,-754
26,-33,6,-434,207,-441
42,19,-2,-630,289,-260
111,28,109,-4585,2951,-4074
36,-117,-96,-3789,3288,-4646
69,105,-45,-4571,5682,-4843
103,56,-79,-2166,6158,-4932
44,65,65,-2289,7394,-5237
78,-80,-63,-1903,6312,-3167
65,-128,95,-1257,5020,-752
72,-126,91,-2355,2057,301
106,-35,-93,-1625,780,1868
-1,36,-124,-1914,-1416,2761
100,-67,-110,-218,-2353,3071
43,79,34,-744,-4011,1310
70,-115,44,718,-2835,-900
33,-71,-87,99,-2003,-3850
1,-85,98,-790,268,-4464
86,50,85,-1873,2633,-4355
-106,21,107,-1433,4359,-1693
89,-10,-122,-1168,3872,210
-63,-91,-87,-2344,2547,398
-3,56,-58,-2659,1200,974
-46,-31,79,-2396,-267,2166
59,53,19,-944,-1348,2741
-86,42,77,-1174,-2486,1239
-106,120,-51,-786,-3192,-588
35,-40,27,849,-1427,-980
33,103,-76,-908,-1796,-2620
-21,-113,-112,-837,-467,-3046
-71,-70,-118,492,2286,-2007
92,44,-106,-732,1707,-1762
-5,-15,2,-268,959,-918
41,62,-97,-1358,413,-431
65,84,117,-850,4,586
106,-117,69,-202,-231,1433
67,-51,92,-159,-1849,2247
12,65,-122,-257,-2980,3201
-16,109,-83,3045,-3583,4531
-14,-85,0,2406,-4666,5993
-85,-113,-55,9961,-3266,5371
-48,-64,16,855,-272,3569
-2,-66,90,1328,-550,1579
-8,127,-24,942,-582,1642
-60,-29,-80,-302,451,589
-42,-80,-106,-1141,1159,-71
-47,119,118,-1215,585,-345
-32,-9,74,-39,529,-1189
-15,4,87,-692,526,-960
8,-17,57,-1207,790,-892
47,-22,31,-910,721,-930
70,-8,19,-644,431,-674
91,27,4,-823,274,-295
48,84,115,-4654,1960,-3783
32,6,93,-4316,2276,-4860
37,30,-5,-4521,3380,-4628
45,58,-7,-3802,6446,-4949
-17,1,-67,-2998,6831,-4591
18,-52,-2,-2118,5826,-1596
-113,52,-94,-327,5273,1113
84,112,-19,-364,3092,1254
68,93,-13,-1964,1146,1375
-30,-93,31,-1838,-2158,2590
32,57,-80,249,-2457,2373
-109,88,-35,607,-2787,1794
50,-75,50,-874,-4223,-632
-26,105,-59,-698,-508,-4060
103,71,116,-1503,-110,-5087
98,-82,121,-3432,2732,-5431
25,-44,-99,-1417,4493,-1010
65,-83,-113,-634,3558,557
-105,118,76,-1899,2681,766
-95,21,84,-2020,1384,1849
118,60,-38,-1724,-286,2778
91,43,-12,-1087,-1340,2555
-8,2,26,-186,-2495,1981
-65,-20,70,-923,-3439,31
18,-13,-119,216,-2249,-1782
2,17,-112,2133,-928,-2400
112,-7,83,3603,-1451,-2651
58,21,50,1919,-1576,-1815
57,30,33,1440,1321,-1266
-24,72,-105,2225,-760,538
-12,92,64,307,-150,711
13,11,-44,1907,-162,1446
22,103,-57,364,677,2185
84,91,74,1641,1292,2427
-50,-116,-3,1948,1523,3166
21,-45,-50,620,1873,3405
-126,-18,40,1434,2493,3865
78,68,124,2098,615,2836
15,16,45,-67,1962,1606
-109,6,-56,-1237,-210,2327
104,-118,-14,1237,-119,515
121,-86,99,-1690,638,322
81,25,121,-395,286,14
101,19,-128,-592,399,-147
118,0,127,-1062,406,-583
-114,-26,100,-830,595,-714
-93,-79,42,-740,801,-921
-71,-67,22,-1302,612,-718
-55,-113,-26,-590,469,-754
-49,-90,-25,-709,223,-574
-100,-97,-119,-5696,2061,-1778
-124,-97,-81,-4203,1234,-3128
63,42,-22,-4759,1542,-4505
0,73,25,-4639,2641,-5215
-105,-52,-33,-3869,5366,-5042
-10,11,-119,-2810,6416,-4840
58,84,-109,-2749,6628,-4042
38,-72,-108,-2455,5470,-1186
26,112,-68,51,4122,980
-17,-95,-102,-1132,2112,1230
-70,103,-8,-1567,-746,2517
114,-73,118,-1634,-2741,2986
116,102,53,548,-3763,3172
-20,15,-58,-983,-3434,-1562
13,-111,-15,-232,-1830,-3050
10,77,-78,-1334,63,-5006
-74,-40,-107,-2682,1656,-5313
111,-5,-117,-1579,4313,-2431
-70,117,115,-775,3584,547
3,-24,-1,-1675,2953,1127
74,-8,-100,-1885,1918,1964
83,-82,5,-1717,841,2286
34,-22,-97,-636,-700,3123
49,-90,112,2237,-1223,3845
-95,-33,-54,2907,-2859,4950
-119,-35,25,1819,-3064,2650
43,15,-66,441,-5947,-60
123,34,111,-4676,-3673,-2736
5,34,-82,1488,886,-2091
-49,4,34,2413,388,-1759
-74,58,78,2070,214,-526
-69,96,18,886,-358,840
22,41,91,685,1323,1365
21,-114,59,-441,1356,3454
120,-108,-47,874,1699,3695
28,57,97,602,2071,3979
54,-125,-108,-547,702,4005
37,70,88,753,932,1788
-18,-119,-124,538,261,1498
118,6,-88,805,95,81
65,-57,27,-730,201,166
50,49,-18,659,529,-556
118,49,24,-555,656,-226
-103,45,15,-1653,459,25
-87,1,2,-1051,352,-399
-67,-28,-13,-530,503,-991
-54,-2,-18,-1050,253,-910
-47,11,-41,-992,-49,-682
-39,16,-58,-656,329,-525
-24,49,-60,-912,572,-466
105,62,-97,-5576,1004,-1667
-68,-126,-48,-6129,2005,-3520
117,115,55,-5480,3349,-4479
23,-55,114,-5689,5590,-5100
109,-116,-121,-3186,5439,-4679
-67,-9,78,-3725,6072,-3755
-32,-28,70,-2586,5910,-2226
-99,45,70,-1918,5815,-1225
59,-11,-126,-296,3320,1497
78,-96,48,-1229,1017,2436
74,-81,-7,-604,-208,2931
48,54,37,469,-2304,3090
-18,39,24,-1097,-3681,-696
-23,-10,40,-225,-2503,-2357
21,7,-113,-1288,-1290,-4387
56,3,104,-2446,897,-5065
-58,111,84,-2046,3827,-2940
-94,118,74,-826,3549,81
41,-28,-16,-2024,2925,775
84,-118,-40,-2470,2033,1446
-118,49,-11,-1619,1115,2472
75,103,-93,-1396,-913,3077
30,79,-54,-305,-1093,2981
59,45,-36,1026,-2670,2098
117,78,-14,629,-1815,21
16,89,-69,151,-2338,-867
-47,45,112,-411,-2038,-3178
127,34,76,356,-376,-3484
112,78,62,1698,-1542,-1897
-21,-104,-9,1561,-1653,486
26,-72,98,3364,-1085,464
-9,-106,9,2586,-911,1796
10,-14,-45,-282,1443,1921
18,-30,116,1604,1095,3359
-52,-101,-58,1821,1934,3814
31,109,-108,-845,1619,4447
60,-127,39,1346,737,3923
84,-40,112,1032,556,2883
-38,-72,-90,1908,112,1678
-124,71,-23,878,854,878
51,17,76,-110,-131,859
60,-80,80,565,243,198
73,115,122,-35,446,-494
72,43,113,213,-7,-704
83,-20,-119,-140,-15,-995
102,-48,121,-718,367,-839
125,-81,101,-1074,364,-683
-103,-106,55,-972,320,-592
-82,-101,36,-929,425,-543
-73,-75,5,-771,348,-444
106,83,85,-6813,1839,-689
103,-85,87,-4159,1910,-3217
122,-25,81,-6474,1878,-4120
-55,119,-97,-5661,4445,-5820
91,-95,78,-5161,5882,-5168
87,-99,-62,-3074,7785,-4289
-74,119,65,-3240,6472,-2427
-46,-84,24,-2386,5303,-1968
-24,7,55,-1277,3812,115
-64,77,118,-1213,1153,2631
-90,120,60,-1390,-327,2916
24,29,73,-223,-2476,3902
46,13,109,564,-4059,2413
127,-73,-102,-1540,-4684,-1535
-99,12,-27,146,-2214,-2854
-78,-8,-85,-1117,-700,-4807
-103,-96,-117,-2823,2367,-5744
1,-104,97,-2102,4134,-2651
19,-18,67,-1701,3711,160
48,-36,-29,-2110,2997,1513
-111,-85,-79,-1736,2490,2180
-11,-124,-80,-2399,706,2719
-63,99,118,-1830,-1453,3418
70,117,-22,-614,-2616,3341
-90,120,-94,-430,-3351,1957
7,-118,73,-340,-2730,559
-32,-67,119,-302,-2417,-1220
-16,103,66,-424,-228,-3177
46,-122,56,-1081,330,-4010
122,-20,64,468,2117,-3655
-65,-31,73,1423,1148,-2646
-1,104,-42,1428,550,-485
39,-4,-4,3244,-634,1531
84,17,-35,2242,-432,1701
39,72,-22,1032,-1255,2996
83,15,116,1209,-327,3479
-115,5,100,3076,-914,4675
-109,-14,-13,835,1100,5798
-97,-26,0,-350,953,4789
114,-5,109,1146,-481,2881
-48,-9,79,258,-267,1606
67,-110,-25,-108,-491,650
0,13,82,306,-258,429
-2,-82,64,568,812,-370
14,126,63,448,931,-401
9,82,83,-201,421,-381
26,65,80,-748,317,-512
49,43,73,-935,349,-589
84,20,42,-959,406,-670
90,-1,18,-648,495,-947
-120,-20,-117,-4621,2300,-1305
-109,53,-106,-4099,2380,-3227
-85,-69,-23,-5332,2152,-4452
125,-120,18,-4466,4453,-5625
67,-97,21,-4271,6482,-5913
-92,-11,-42,-3148,6853,-5232
-31,3,-60,-1554,6684,-3085
60,-75,-75,-1573,5198,-2148
71,101,-114,-2314,4014,-709
-8,-88,60,-1976,910,1721
-67,-27,60,-1393,-839,2151
32,81,88,-435,-2141,2913
-47,58,-40,1091,-2792,2138
-53,75,15,-18,-3212,-1373
50,-91,-96,672,-1622,-3141
76,-6,100,-508,-764,-4811
-125,-24,78,-2211,1418,-5428
41,-7,76,-2021,3851,-2552
-20,80,82,-1624,2969,201
41,91,34,-2289,2329,1025
55,59,111,-2664,2075,1041
104,-35,-119,-2152,1364,1902
68,102,45,-1835,319,1941
30,31,8,-983,-667,2286
-75,-105,39,-448,-1961,2161
23,-4,-112,-339,-2954,594
82,54,41,394,-2719,-1289
-14,-77,-120,-861,-2824,-3303
-42,-84,117,35,508,-3117
-71,29,115,252,1775,-1977
-114,-57,116,274,773,-931
28,-19,-38,-416,347,-831
65,3,-124,-1374,-509,-281
96,1,61,-755,-980,1283
77,99,53,-231,-1829,2316
20,36,-101,954,-2943,3424
56,115,-26,2443,-2454,4576
-65,74,0,2885,-3835,5674
125,113,110,4389,-1283,4282
-3,73,55,3477,-3393,4600
-11,-119,97,1803,-1895,1882
-51,-99,101,-1537,127,1447
-89,-6,88,-302,428,860
-85,-85,117,320,395,182
-55,-87,-127,-281,591,-232
-37,124,123,-677,527,-804
-19,93,112,-745,512,-1041
1,72,91,-856,645,-1058
32,56,62,-900,798,-1026
42,42,31,-472,728,-1000
76,-94,70,-6162,1727,272
104,-31,20,-3484,1920,-2677
127,9,-68,-4969,2266,-3355
-116,-120,-114,-4335,3794,-4185
-34,105,-55,-4525,5398,-4491
83,87,-28,-3062,6977,-4457
1,77,-122,-2145,8021,-5011
-8,15,-23,-2566,6755,-3056
38,43,-75,-2006,4571,-525
44,-12,-76,-1579,2905,902
65,94,-14,-1737,996,1633
7,12,-29,-2062,-833,2335
-71,124,-24,-742,-2383,3346
57,-45,5,176,-4004,2544
11,82,20,-938,-4737,-243
26,-32,-47,238,-2475,-2317
20,22,-113,-295,-1336,-3598
-125,70,118,-2256,374,-5334
102,-23,126,-1993,3438,-4249
95,-92,-116,-2815,3420,-2641
68,80,-77,-2206,3376,-298
55,17,72,-2256,2493,728
21,-8,77,-2027,2082,1038
36,41,-10,-1561,1626,1805
92,34,-57,-1338,1389,1830
100,75,-41,-934,-365,3052
-127,-59,15,-965,-952,2858
27,-94,-87,-387,-2793,2048
61,76,110,-1415,-4226,-805
56,100,24,-353,-4181,-1790
8,36,63,1274,-2509,533
-111,86,63,730,-4630,1874
88,87,-27,4480,-4564,4823
111,-41,43,1955,-3846,3810
-109,-93,83,4546,-3676,3471
125,69,122,892,182,1161
28,-107,95,3451,607,1006
-71,-95,126,912,-351,925
-108,62,75,-2175,710,864
-107,-80,48,-680,829,123
-79,-114,43,-423,648,-17
-25,-43,35,-2042,488,204
-6,-64,9,-2200,676,-404
6,105,-10,-156,409,-1065
13,105,0,211,435,-1103
38,-119,1,-561,556,-688
65,-119,-31,-736,589,-576
77,-122,-38,-490,392,-617
101,-115,-42,-278,522,-663
115,-97,-53,-449,470,-603
-76,6,-110,-2883,4352,-4655
3,-19,-127,-4838,3272,-5312
-126,-67,-80,-4215,4208,-4517
-64,90,-74,-3702,6040,-4102
118,-122,112,-3357,6557,-3317
-5,-10,-53,-2459,6150,-1420
85,-20,48,-2206,4057,46
60,24,59,-1723,2066,1090
-4,-19,-90,-1410,284,1792
-72,-79,-73,-1259,-1194,2340
37,-14,-30,717,-1976,3926
50,87,58,568,-3488,1475
100,31,-114,-225,-3719,-1422
66,-113,-57,753,-1826,-2771
29,-15,117,-1061,-1396,-4630
42,51,117,-2709,1172,-4915
-56,-42,-116,-2379,3676,-2609
-24,69,-93,-2103,3745,-753
94,-77,-126,-2342,2940,726
105,72,-121,-2316,2276,1170
-117,-30,-29,-2030,1520,1904
57,-121,95,-1660,18,1874
16,-7,111,-885,-754,2227
-65,116,-84,-656,-1564,1796
12,-26,-34,-223,-2783,1149
-98,-12,127,-70,-2480,-339
78,-82,-119,354,-2010,-1509
54,84,-77,-275,-861,-2743
109,85,-110,-739,809,-3120
48,-76,-106,17,1272,-2218
-46,102,95,213,1257,-1523
-36,43,-59,-722,-901,-1137
84,45,78,-213,-316,-215
20,34,73,498,-1590,1253
13,47,45,514,-2445,2327
-43,84,124,1375,-3445,3201
-126,-100,1,4257,-3332,5647
-72,-26,72,7056,-2881,5679
-49,-101,-120,7241,-1936,3498
-86,-109,8,276,1415,2139
-15,-88,49,1268,27,1883
-79,-10,71,1758,-60,1193
-76,-79,86,684,880,161
-71,-121,115,-479,777,201
-49,40,127,-675,613,-303
-8,-19,-125,69,617,-913
-16,-58,-122,-290,391,-1144
7,-87,-126,-893,331,-928
35,-123,107,-692,518,-725
56,125,66,-421,684,-586
24,-2,-27,-4848,2582,-4770
21,104,-29,-4571,3436,-5618
-103,11,-30,-4082,6567,-6202
-73,1,-65,-3559,6396,-5492
-3,72,64,-2937,7022,-3540
33,80,105,-2204,5109,-1584
-118,-98,-66,-1059,4065,686
-55,-68,-55,-1343,1843,1722
55,-57,59,-1827,-1091,2254
26,117,93,-1075,-3030,2279
117,81,7,506,-2820,906
-31,-49,44,274,-3056,-1376
93,41,-73,536,-1393,-2830
86,92,-120,-1897,-411,-5164
122,-117,113,-1876,2238,-4331
91,70,125,-2170,3612,-1330
2,-96,-119,-1164,3591,1353
36,-89,-20,-2435,2538,762
106,-64,-105,-2235,1754,1081
56,58,21,-2230,25,1147
-20,-20,-22,-1282,-1200,1196
60,-94,89,-329,-2265,1588
116,-8,-38,-68,-2516,-251
14,-75,-110,926,-2113,-596
-20,87,-45,-954,-1358,-3052
-46,29,-102,-400,410,-2521
-2,-40,-107,1625,1808,58
91,-6,105,-150,570,-817
-92,17,-49,397,-454,-106
15,62,100,876,-796,1119
-22,-1,25,2793,-1463,1999
4,65,8,2430,-1910,4183
-74,32,86,2861,-2692,4351
68,33,-8,4785,-1259,5262
81,10,-29,3359,-1212,4968
65,67,-21,-1921,-46,3154
-4,-72,-10,381,-93,2334
7,64,36,2650,296,1176
-20,120,90,-1270,830,1051
-16,-81,57,814,599,532
-4,-117,79,839,513,-144
7,102,85,-48,476,-479
14,42,97,-189,292,-657
36,9,110,-616,374,-522
50,-23,93,-493,583,-614
66,-25,71,-484,541,-607
95,-7,38,-699,517,-499
105,2,24,-772,379,-483
-126,24,2,-784,485,-478
-121,47,-6,-889,419,-509
-104,-75,87,-5668,2826,-1116
117,-25,118,-3302,2830,-3289
-72,11,-71,-3647,1597,-4364
124,52,-68,-4363,3137,-5568
44,3,-23,-4395,4371,-6323
-16,-7,-39,-3990,8777,-7642
41,62,79,-3896,7324,-4276
-4,65,-84,-1812,5718,-924
-100,109,52,-2202,4491,-47
60,88,57,-2126,1729,132
-39,-71,34,-1962,-937,1876
-79,-16,68,-1077,-1866,2079
-58,92,-59,-315,-3016,1283
-51,-66,-58,759,-2912,197
94,-98,43,1016,-1356,-1984
118,-115,-94,437,-465,-3856
109,-13,93,-955,1546,-4484
-89,-10,86,-1533,3169,-2631
-42,60,108,-1748,3343,4
68,30,63,-2158,2529,1067
-78,55,8,-2366,2132,966
-43,-2,37,-2034,713,1857
-126,-52,-54,-1871,-1199,1872
-107,-15,-20,93,-1300,2088
107,27,70,418,-2363,531
73,-13,40,775,-1363,-713
55,54,59,552,-932,-2070
45,-108,-87,943,549,-2563
45,36,-104,2458,-194,-1527
43,55,111,779,-435,150
-111,-89,14,1957,-1451,1527
-36,-126,95,1246,-1979,2809
-100,48,-2,2509,-2311,3023
-120,82,-85,604,-191,2050
78,-112,-65,299,-1088,3389
-116,51,34,2784,615,3229
64,72,17,637,617,4379
100,40,18,892,647,3649
-26,96,-18,755,1308,2615
54,-89,43,778,1111,1462
-21,-16,65,-1665,821,1854
116,39,60,1248,-1117,1038
105,27,-102,-663,-546,793
60,-121,108,-457,301,606
67,111,117,-391,-14,488
62,113,91,-675,-7,146
57,85,52,-429,326,-599
68,56,41,-595,554,-936
59,32,25,-711,500,-708
94,25,10,-481,706,-591
86,-63,2,-6026,1802,317
78,125,27,-3221,1894,14
-110,125,4,-4310,2359,-1397
-105,104,93,-2999,2839,-3528
58,-27,-115,-4330,3198,-4743
18,-50,-26,-3627,4822,-5950
4,-7,-8,-3948,5694,-6222
63,20,-68,-3136,5747,-5646
51,-15,89,-4326,7014,-5178
63,2,-75,-2188,5861,-1959
-81,-56,-70,-1554,5468,334
-34,-100,52,-1581,3953,629
-21,11,55,-2343,145,1878
-113,48,83,-1559,-1369,3081
3,41,109,-779,-3003,2884
-64,12,-8,9,-3591,932
38,-85,-29,770,-2807,-668
13,-101,104,608,-1811,-2780
113,-12,88,-589,-1195,-5194
-118,22,64,-958,1897,-5245
17,72,73,-2659,3338,-3348
-118,-17,104,-1245,3632,1238
110,-126,50,-2994,2049,652
-41,123,-12,-2324,1845,1647
5,82,-63,-1913,-144,2034
72,-115,98,-1440,-2644,906
67,-13,-54,223,-3188,915
-23,-94,-118,619,-2564,148
-22,44,-93,606,-826,-1299
-19,61,-118,733,345,-1268
-51,31,117,1088,476,-111
35,34,102,442,-585,-299
91,30,-82,-21,-2924,2213
-28,-47,-109,2732,-1384,2562
-107,-11,81,3314,-3107,4554
-74,47,25,1244,-2700,3551
-37,40,-42,1782,-2445,3643
-17,-105,-109,1443,-2249,3608
6,-98,-121,1582,-471,1413
59,104,37,2143,1224,982
-3,81,36,535,938,1063
-15,33,73,-163,-114,1577
-7,55,76,-1708,179,1059
-12,-49,69,-1024,486,-103
-17,119,70,-279,695,-623
-13,97,62,10,500,-680
15,82,42,-49,482,-557
30,66,12,-270,789,-1002
63,71,-1,-16,572,-741
90,76,1,-224,133,-370
93,-48,-97,-4530,2226,-2301
110,-100,118,-3853,2565,-3341
-3,-82,117,-3825,1814,-4751
-105,65,-94,-3439,2510,-5124
121,109,-102,-4627,2956,-6330
80,63,-81,-4641,5564,-5350
19,-67,88,-4106,6776,-4083
107,122,-97,-2585,5917,-1689
44,-46,1,-1836,4746,-257
107,-11,88,-2613,3100,-567
67,99,-88,-1570,866,1452
-68,82,-34,-1954,-1094,2032
26,102,-21,161,-2151,3320
-86,22,-101,-153,-2985,1352
58,69,-81,1683,-2162,288
70,-80,-57,357,-2450,-3257
1,-71,122,159,-564,-4678
123,-69,71,-940,230,-4848
17,-61,79,-3065,3034,-4115
68,126,107,-1891,3564,343
-41,-32,84,-1687,3236,1170
-72,-38,83,-3379,1098,1257
11,-115,-86,-2175,1074,2824
105,49,54,-2539,-1269,2279
-43,56,40,-248,-1224,1875
-13,114,81,42,-1767,803
58,26,75,184,-2274,-1136
67,-122,-105,632,-744,-2194
54,101,-73,330,247,-2149
-6,101,-104,639,-11,-1321
60,9,97,949,-1068,-499
11,4,-90,1423,503,191
86,3,-58,1402,-1585,1933
-86,-61,23,2710,-571,1598
-92,91,76,1843,-907,3959
74,60,70,1555,-1500,3198
-1,-5,-89,157,265,4879
122,119,-77,1562,-1642,3722
42,-25,123,-1500,504,3060
15,98,73,1097,-110,2606
99,116,86,1176,363,1135
86,103,123,-198,-22,1653
41,-26,105,84,-301,1543
40,-78,108,-316,-65,657
37,110,77,-326,498,-138
56,100,84,-401,454,-226
57,68,57,-487,416,-412
70,64,26,-659,476,-409
56,46,10,-427,357,-547
92,46,-4,-422,383,-468
-112,-86,101,-4737,2749,-1315
-121,-126,-104,-4013,2736,-3177
110,25,-109,-3620,3354,-4713
28,104,-56,-4868,3678,-5655
39,-1,-48,-3328,5269,-5697
103,68,-74,-3323,5898,-5713
-20,-19,94,-3660,6558,-4479
71,-52,0,-3602,5494,-3141
3,-66,-119,-2460,3933,-827
67,-47,-128,-1620,2811,898
11,110,-54,-2098,410,1460
-96,-94,-101,-1064,-1009,2887
-75,-14,-19,388,-1760,2928
39,27,102,133,-2757,350
23,-119,22,1088,-2516,-692
9,-40,-126,558,-1742,-2212
124,81,114,379,-428,-3625
-114,108,86,-2226,981,-5669
45,21,101,-2758,2955,-2883
-51,-97,-126,-1138,3189,342
29,-65,50,-2918,1964,218
-106,90,95,-2179,1705,1400
-74,-54,-48,-1691,1183,1916
-62,-109,78,-2103,-1143,1785
93,79,110,-77,-503,2060
-86,-112,-50,-384,-1344,1221
94,70,40,469,-1006,661
111,103,-127,658,-1019,-1243
79,-118,37,-9,-1029,-2147
61,-90,60,596,-265,-1542
-41,16,102,-19,413,-988
-75,11,49,450,-1807,156
85,34,-48,337,-1090,1015
68,-50,71,2580,-3360,2418
-80,2,48,2263,-2181,3313
-57,-35,-23,3352,-2409,3327
-29,102,-28,780,-1542,3482
-33,124,-45,1140,-2067,3031
76,66,86,2270,-78,2249
66,-19,-101,-431,1,3551
29,39,86,2287,-529,1529
72,-88,78,-110,755,1541
0,75,83,-861,208,1111
-23,-46,95,91,120,573
15,-28,113,-1590,742,697
13,-45,82,-1920,537,657
25,-96,63,-584,126,-102
45,-100,62,46,387,-772
57,-95,50,-247,600,-921
64,-107,24,-425,526,-905
73,-5,-124,-3882,3089,-3639
79,-107,87,-3391,3961,-4889
-64,125,125,-3094,5903,-5336
-87,124,88,-3090,5874,-5018
-117,-64,47,-2606,6825,-4613
-77,66,-40,-2227,6294,-3643
-115,77,83,-2180,5570,-1386
-16,-103,-63,-1534,4188,-216
-85,75,23,-2081,664,2202
125,94,61,-2387,-347,1684
-54,-115,-98,-878,-1909,3047
-106,73,-63,-39,-2987,1778
-96,29,-106,332,-3165,-743
-106,70,-22,1961,-1396,-936
-110,41,-123,-240,-1504,-3661
95,78,102,-758,15,-4751
-120,102,105,-1713,3073,-3937
69,-89,-120,-2455,3260,-2294
-120,-57,-88,-2027,3234,-113
94,97,-53,-2909,2007,-252
-102,-75,16,-2177,1737,956
113,34,-105,-1549,871,1899
66,-79,127,-1260,145,1998
-68,60,109,-769,-854,1824
58,-110,80,-137,-2111,1263
-102,13,108,263,-3140,-267
123,-103,-13,-123,-2697,-2964
122,52,-31,-284,-1030,-1909
-93,-74,127,3033,-518,1763
-74,-128,-10,2338,-2075,2730
24,-37,7,1564,-2203,3045
17,-9,59,2325,-2601,4451
78,61,27,3787,-2209,4512
76,-3,-76,258,-2058,4762
-20,84,77,-1939,-1913,3017
19,127,72,2593,-703,1909
23,-69,58,1448,598,1832
-51,-65,58,-620,321,1537
-50,66,56,155,157,822
-49,-46,67,444,554,55
-19,-70,77,-64,653,-60
-13,-114,55,-349,690,-207
22,-122,58,-970,489,-249
29,65,3,-58,788,-970
48,71,17,-591,528,-963
65,53,0,-571,497,-832
83,53,-9,-582,470,-693
103,74,-26,-767,405,-519
119,83,-35,-739,419,-502
-114,97,-55,-579,508,-561
-21,8,-100,-4687,1782,-3233
21,41,-116,-4259,4330,-5063
102,-1,-60,-3994,5102,-5194
27,-6,-103,-3147,7471,-5695
72,94,32,-2525,6915,-4274
-107,64,18,-2616,6230,-2745
-82,-49,-108,-2846,3611,-1092
-123,-36,-87,-1940,922,1838
1,17,-54,-2212,-686,1630
-21,93,-105,-578,-2091,2668
-100,-42,-21,124,-2464,1487
-26,11,-40,827,-2494,-1021
9,17,-3,907,-1763,-2583
105,110,-102,280,-436,-3676
-125,-42,100,-655,430,-3569
-106,32,91,-1974,2407,-3278
63,57,109,-2040,3465,-1159
-17,-110,-117,-2158,3141,-76
55,55,-27,-2753,2138,-78
-103,-73,-65,-2133,1357,1076
85,-8,118,-2014,175,1678
-44,-57,108,-923,-471,2485
54,86,121,-990,-1768,1568
113,-76,124,-147,-2061,399
83,-78,127,385,-1336,-803
83,67,33,-73,-1390,-1930
47,86,-77,155,-279,-2571
-76,116,-93,16,544,-1280
106,29,63,657,652,-1110
-98,11,-5,-5,-428,-68
-85,15,-70,573,-837,390
-58,80,-110,-171,-523,1066
111,62,-120,1225,-1834,2496
-51,-107,104,2865,-1064,3960
-112,107,102,4401,-2111,4746
34,-22,75,1603,-1128,3352
-73,-57,40,1068,-2684,4226
15,-27,-20,468,-692,2550
25,18,-90,218,-219,3271
-21,-116,-94,876,-172,1773
-30,41,87,842,387,322
-27,-10,82,482,251,-30
-35,-90,100,-237,201,-221
-9,93,91,-378,541,-362
39,48,82,-418,579,-281
43,51,76,-623,264,-109
59,81,65,-1491,151,80
77,83,48,-1563,329,-10
98,68,11,-674,502,-354
102,79,5,-312,582,-606
89,123,-3,-5883,3464,-2581
-3,16,-20,-4665,2273,-4214
-20,81,-49,-4672,3695,-5234
88,63,3,-6177,5735,-4264
-93,-81,21,-2081,8665,-3483
85,126,-117,-2565,6505,-2522
-66,-112,30,-1062,6308,-553
-56,16,108,-726,5402,-272
117,31,28,-2232,2393,-653
32,-49,92,-1978,-150,1047
125,-39,-128,-1266,-2493,1799
-80,39,-14,231,-3378,2694
4,16,-113,-485,-3080,314
25,-48,24,862,-2044,-1189
9,70,-54,-148,-1535,-3281
82,86,-113,-733,375,-4177
-106,33,125,-2148,1846,-4656
-76,112,-109,-2645,3820,-2692
45,17,-92,-811,3970,1099
52,-22,67,-2220,3050,82
92,-13,34,-2775,1572,151
51,108,115,-1902,667,1107
-63,-31,0,-1208,-651,1803
31,-63,-1,278,-987,1960
103,-51,-103,296,-1894,558
60,87,106,623,-1971,-271
111,-96,69,-41,-1869,-372
-32,-67,125,7,-2528,532
60,113,117,422,-1289,1076
13,90,70,645,-3785,2641
107,120,22,262,-3699,1953
-89,-74,-53,1149,-3232,3685
2,-104,-81,3684,-2195,3025
-15,52,114,886,-2315,2829
32,-33,-25,1078,-811,881
-7,-107,-68,2472,-1609,2112
-5,-128,126,420,-643,1601
-39,97,61,-426,123,578
-23,-4,54,-264,389,55
-13,-59,47,185,687,-137
-4,-59,64,-647,491,-78
21,-81,55,-808,619,-171
44,-112,21,-390,721,-460
44,-108,10,-470,426,-450
49,-86,13,-996,235,-217
56,-98,-12,-766,393,-393
76,-105,-14,-440,518,-493
105,-75,-23,-600,387,-224
106,-73,-33,-499,366,-474
-128,-64,-34,-595,472,-543
51,90,105,-3007,3343,-3089
111,-36,127,-3682,1842,-5790
119,12,71,-3930,3422,-6193
-3,-2,100,-3752,4212,-6390
96,-118,62,-3629,5805,-6149
-124,-122,7,-4465,5951,-4539
63,-92,-58,-2645,5016,-1420
-82,-10,80,-1764,4822,490
1,29,-97,-1957,3244,1267
-75,23,-63,-2450,-726,1126
-13,47,-55,-2010,-2212,1057
-121,47,-18,-181,-2541,2142
-108,-43,119,778,-2686,1041
75,-38,-48,262,-2778,-1756
65,31,-104,739,-1287,-2322
32,83,127,-433,-438,-3945
25,73,107,-2373,1998,-5515
-101,70,-125,-2496,3212,-2493
36,-72,-84,-1814,3111,562
78,-42,5,-2231,2394,496
-59,-110,-43,-1565,2027,1729
-126,35,75,-1516,1,1350
-4,-94,96,-1171,-1271,1580
118,74,-114,275,-1373,2168
-126,121,31,94,-1674,979
80,54,-33,1283,-1112,519
77,-73,-96,694,-979,-109
-75,-26,62,930,-658,122
0,-90,99,424,-283,549
112,73,-45,263,-652,1058
72,75,-88,-611,-2314,3031
-86,-42,2,2040,-1959,3085
-51,-119,52,1615,-2348,4663
28,61,-79,4605,-3078,4359
91,-115,-109,1705,-373,2324
45,-101,-119,-1241,-240,2539
63,-31,62,2381,768,2208
71,14,56,-309,1156,1470
58,5,51,-865,162,1203
59,-81,42,214,361,506
36,-61,50,-614,643,-183
19,98,36,-314,587,-847
41,71,57,-468,286,-800
69,41,44,-572,469,-616
95,60,24,-1120,631,-413
103,59,6,-1123,478,-423
-125,87,-12,-1293,796,-483
-115,102,-20,-1060,386,-513
-99,98,-25,-180,279,-431
-81,-114,-25,-613,423,-375
62,-8,-78,-5072,3027,-1012
11,-57,-61,-3538,2312,-3340
-42,57,-84,-3672,1842,-4772
-89,73,-68,-5039,3999,-6321
-20,-58,47,-5539,3595,-5804
-46,62,-32,-3705,6873,-5567
52,-93,59,-2770,7393,-4358
-119,94,118,-2913,5801,-1776
127,11,-47,-1333,3806,206
10,105,-48,-2458,2235,1507
-83,-127,-18,-1299,-286,2806
19,-72,-19,-1908,-2119,1755
33,-93,57,712,-3916,2836
-34,-40,32,-194,-2757,-1213
54,88,-91,434,-1516,-2408
114,58,84,-266,-151,-3666
117,-100,68,-2530,377,-4608
-30,107,69,-2331,2549,-3373
-110,-110,94,-1997,3942,-1349
124,-107,49,-1080,3654,2364
-88,-65,105,-1904,3170,2000
21,-59,58,-1712,1749,1632
-79,100,-59,-1840,-769,1492
42,21,-71,-672,-1935,1754
67,-111,84,418,-1953,1136
81,-108,32,384,-2384,-28
60,54,19,444,-2262,-1621
43,100,-99,995,-912,-903
-56,120,90,1937,-2076,561
74,-19,21,-98,-2944,-51
-104,-113,-119,1732,-3011,1950
-56,111,77,2152,-627,1496
81,-62,95,2269,-1899,3225
-77,23,-52,1464,-136,2934
-18,-90,-46,816,-1145,3718
-23,-23,119,-914,53,2468
35,111,-122,2167,-183,2568
73,-28,-124,1023,327,2030
65,-112,105,1467,126,1156
43,124,107,-17,484,565
3,-72,86,552,268,62
19,-114,101,227,64,278
38,112,81,-258,502,52
53,99,77,-1037,434,-50
62,85,62,-1036,274,-199
80,74,49,-857,224,-429
83,73,41,-689,349,-544
86,73,26,-670,588,-570
103,91,2,-756,605,-463
114,98,-16,-651,460,-512
80,-23,-26,-6879,4133,-3073
-6,-41,-90,-2717,5247,-6755
-90,-72,-58,-4975,3718,-8353
-61,-106,-66,-4858,4136,-7901
-41,52,-128,-3649,6202,-5479
124,125,-6,-3353,5641,-3086
110,62,-94,-2914,5062,-799
-104,-25,-18,-1503,3254,676
-76,58,69,-2843,1005,182
120,-128,-77,-1948,-295,2260
-90,-18,-62,-1481,-1757,3585
-73,107,-68,85,-2582,2865
37,-123,55,483,-4035,274
-1,27,-122,1437,-2194,-1836
107,56,123,394,-1310,-4399
111,-120,83,-1002,681,-5703
-17,-69,67,-1756,3375,-3827
-66,40,81,-1875,3638,-750
63,-39,111,-2038,3286,429
78,-45,-52,-2807,2548,568
-64,-71,-108,-2105,2070,1704
-84,53,21,-2170,362,1704
101,-50,11,-1578,-429,1501
-25,126,14,-359,-1490,2149
-17,-43,82,-499,-3012,384
91,-34,15,378,-2407,-955
58,41,-97,602,-992,-1902
47,-12,-112,1214,-1283,-1527
-123,92,118,2161,-1654,189
122,-95,-2,3635,-2105,1525
-68,-109,-92,2981,-1649,2605
-71,-63,-122,1859,-823,1654
-122,0,26,802,-411,2810
-109,-35,-46,2474,-131,3207
-29,-48,23,5130,857,3223
-22,-88,96,-477,229,3394
-106,20,-2,-338,776,2415
43,21,0,1096,1821,1812
1,-11,-69,659,2213,426
15,-81,7,683,518,521
65,-78,9,-798,741,832
23,69,56,-507,401,45
71,-3,106,-349,493,327
107,11,82,-1080,948,178
-114,-33,73,-221,448,-188
-98,-2,74,-540,470,-111
-103,5,70,-827,382,-277
-105,-2,58,-721,267,-319
-94,-1,31,-617,685,-409
-81,10,8,-633,640,-426
126,123,-90,-4931,1960,-1238
-110,71,100,-4081,2275,-2427
33,2,-106,-3600,1467,-4311
15,-83,-31,-4515,2982,-5942
-75,113,41,-6449,4216,-6363
52,-45,-57,-4403,6121,-5287
-74,42,-84,-4500,6576,-4303
3,-25,63,-3719,6148,-3004
-8,-16,-54,-2819,5267,-904
97,-18,113,-2524,2408,811
-109,69,99,-1770,367,2895
-47,103,-114,-1611,-841,2838
96,109,116,-95,-1958,3300
66,91,120,1008,-3035,1381
-47,-58,-87,907,-3048,-1410
55,49,-123,1572,-1461,-2392
87,114,91,287,-733,-4594
103,51,57,-1326,2575,-4749
-65,126,54,-3048,3329,-2501
105,-104,84,-2267,3662,268
-63,-1,-8,-3434,2332,274
-27,-58,-69,-2989,1617,1119
-122,112,-13,-2526,35,1172
36,16,-37,-1302,-166,1917
-82,127,2,-316,-1145,2266
-83,22,63,133,-2329,926
76,45,-53,595,-2534,-1227
52,113,13,489,-1446,-1966
10,51,-84,-190,-751,-2672
20,80,-117,-182,634,-2078
6,-50,-126,736,925,50
95,-3,45,1315,-714,-90
-111,40,-56,723,-2043,2066
-19,-83,46,4087,-927,1821
-33,-10,1,3897,-1463,4010
-49,-56,15,2137,114,2732
109,-29,-19,1832,-269,3573
-54,102,124,-675,1263,2921
-40,5,45,4066,-750,3351
-31,-71,60,-1357,692,2878
-59,-10,16,1988,622,1859
91,115,80,-1513,1411,2285
78,-41,-2,895,1091,986
105,-106,63,545,798,613
105,116,82,-333,695,731
105,78,107,-782,209,431
91,30,94,-552,260,64
97,9,92,-329,231,-18
96,17,82,-672,362,-54
90,21,69,-852,336,-209
99,8,46,-5352,2627,-555
81,-79,-62,-5321,2054,-1193
75,-105,16,-4195,1861,-3200
21,5,4,-5105,2342,-4375
-67,53,65,-4572,3801,-5491
125,94,-13,-5344,6567,-7329
-39,-32,82,-2409,7593,-5939
-98,-109,10,-4445,8737,-4880
45,92,95,-2096,4521,-1415
87,-51,-106,-2850,3383,-919
-95,52,75,-2567,2318,202
-19,83,38,-2007,181,2022
18,65,86,-1599,-1854,2752
-86,-72,99,-315,-2424,2845
-30,53,-30,742,-3507,1057
78,-63,50,791,-3050,-1612
96,-70,115,1195,-1206,-2726
90,-62,68,-555,-358,-5612
107,7,51,-1917,1657,-4819
-105,34,52,-1979,4382,-1697
107,-124,78,-2903,2790,-158
-87,108,7,-2771,2381,832
-62,-115,-23,-2687,1806,1386
-115,49,72,-2465,279,1310
1,25,-3,-1538,-895,1634
100,-121,-22,-461,-1908,1318
-123,-76,72,133,-2340,299
31,115,59,1291,-1349,-491
37,-17,45,472,-1366,-1875
5,-4,-108,278,-543,-2662
74,10,127,196,1173,-1655
9,-103,-125,154,1344,-237
89,-98,123,1084,-455,382
-59,21,-14,1734,-893,1936
-10,-71,70,2879,-1420,1745
-52,-71,30,934,-1305,2261
-112,-94,-21,1615,-1142,2591
47,-67,-21,2638,-1940,3927
-92,-23,-91,3186,536,3068
-22,66,90,3823,733,2767
-58,-44,91,-2132,1177,2647
-22,5,70,1436,397,2804
94,62,78,1657,921,2035
93,116,111,-1510,942,1833
57,-15,104,-708,530,939
48,-85,-116,-1143,793,457
48,94,-126,-144,597,660
76,79,117,19,402,306
86,100,113,-506,245,4
88,89,94,-707,144,-275
115,102,-53,-4961,2243,-2778
32,-42,-106,-3315,1125,-4878
-6,118,-81,-5031,3395,-6789
81,67,-93,-3354,4357,-6594
-69,-9,-126,-4423,4805,-7304
-122,59,80,-3876,5115,-5368
-58,-82,7,-4597,5488,-3423
-20,89,-98,-2707,4214,-573
111,6,9,-2192,2943,982
64,-109,72,-2489,477,900
-37,76,-58,-1924,-1472,1937
-10,119,33,-734,-1931,2563
-91,-46,32,503,-2803,2325
-20,29,-7,798,-3371,-1242
5,57,42,1705,-1065,-1886
107,75,-84,551,-895,-3509
122,113,108,-1069,1091,-4787
-57,-21,101,-2151,2789,-3652
-9,-54,-127,-2013,3907,-728
61,112,-100,-2648,3081,310
-123,82,-40,-2590,2459,647
4,-50,-60,-2754,1573,1597
-64,-126,46,-2018,-99,2370
-11,-99,46,-1540,-1163,1459
21,9,39,-439,-2440,1578
103,36,-86,398,-2266,-163
90,-24,-121,493,-2071,-1415
45,-33,-71,27,-1092,-2447
24,16,-70,573,192,-2061
74,76,-96,149,195,-1474
94,63,123,791,-725,14
-128,-23,14,2399,-1563,881
56,-3,75,3001,185,1187
-75,-68,44,2897,-1387,1676
-109,-52,-50,502,-207,1158
42,-59,-68,1764,-1866,3601
-112,-12,112,2622,1300,2820
-74,-30,-101,1120,399,2718
-38,-21,48,-569,1689,2007
-30,-120,-106,838,524,3029
48,-52,-104,433,695,2620
77,-127,-78,-596,554,2543
120,-113,-102,-709,-98,2153
118,-38,115,-667,625,882
115,-73,-123,372,37,1310
94,-121,124,72,11,90
117,-122,120,-829,612,81
100,88,91,-704,312,12
123,85,75,-608,222,-223
-121,75,49,-654,400,-474
79,17,-59,-3481,3055,-1721
42,93,-5,-3558,2788,-2536
-120,18,-44,-3410,1436,-4661
103,59,-101,-4377,4316,-6417
124,-17,-32,-4225,4288,-6339
29,74,-47,-3740,6054,-5026
96,60,124,-3861,6395,-3451
59,48,25,-3183,5777,-1935
-102,87,-69,-1961,5319,591
-10,95,-5,-2543,2565,275
-45,0,-81,-2382,71,1520
26,63,-120,-1743,-1932,2039
-19,-2,-15,-14,-2677,3029
-74,70,-55,428,-2952,1853
14,58,-33,1085,-1869,-874
61,106,-110,1258,-1231,-2180
13,97,-118,-337,-834,-4349
127,83,102,-892,1610,-4535
-95,-10,107,-2172,3417,-3888
-23,-111,-105,-2369,3832,-341
114,109,-80,-2183,3093,1033
-92,-102,-83,-2844,1849,394
-6,72,122,-2392,707,1355
-101,-69,43,-2294,-1192,1297
-36,-124,95,-592,-1599,2372
22,41,-67,88,-2181,1438
63,62,83,935,-2517,401
78,-77,14,1465,-2851,-698
26,-65,-113,1884,-2855,-776
-60,20,88,1916,-1920,-808
-77,-55,49,116,-1129,551
-31,116,-68,2715,-1332,-433
-105,-23,106,-269,-1017,1670
87,64,-59,3278,-970,1589
108,32,-40,719,-534,3215
-110,45,-100,3100,-774,3135
43,-4,55,436,1766,2374
-13,-50,50,1814,58,2593
22,-120,61,297,645,1866
46,105,27,263,636,1732
57,-3,66,45,348,1396
76,10,65,-1352,473,1186
79,-112,50,-620,352,812
85,92,46,220,523,263
117,78,54,19,559,103
123,69,47,-206,582,-41
122,81,40,-768,406,-150
126,57,18,-509,468,-413
-124,64,11,-618,495,-495
-102,69,-11,-640,580,-478
113,37,84,-6234,2410,-560
127,46,32,-3790,3399,-1856
39,34,109,-2185,3240,-2988
-124,55,-106,-5535,2510,-4156
10,-93,56,-6992,3814,-6026
-121,-110,15,-2748,5037,-4285
94,-58,-81,-4481,4941,-3768
-65,-15,98,-2481,6301,-2011
-121,49,40,-2379,6304,-2244
-58,-123,-73,-2274,5557,-1406
-34,20,93,-1827,4019,-297
78,13,27,-1983,2506,1068
51,108,-103,-1787,402,1628
107,112,-95,-1275,-1810,2200
-109,127,-27,-228,-2295,2403
95,-115,44,41,-3596,743
-41,-81,64,951,-3204,-660
104,-55,80,1955,-1015,-1048
-112,113,96,593,-777,-3497
118,-25,67,-1423,664,-5025
123,106,62,-2030,3745,-3837
-97,-90,88,-3006,3443,-1561
9,26,109,-2390,2838,562
-65,57,-123,-2958,1886,422
-36,32,114,-2385,660,1509
110,-76,30,-1834,-6,1351
-38,4,-1,-508,-1217,2514
-91,-106,-121,-217,-2124,961
64,-96,33,436,-1654,-202
66,28,30,502,-939,-1264
56,72,84,-101,-985,-2170
83,102,123,1038,689,-561
-73,-79,117,46,-839,-440
69,3,21,335,-1016,330
99,12,-15,-433,-1342,144
71,19,-115,606,-2665,2186
-106,11,88,1321,-1538,2408
24,58,-123,1592,-3876,3241
-121,-11,39,-1606,-3218,3783
118,-113,122,110,-4413,2388
-31,30,72,-114,-2977,3049
9,-124,109,2415,-2802,944
99,-9,62,1968,-777,1804
11,-19,-6,586,-630,1104
-36,66,-35,1838,-1014,233
-13,68,-48,704,-241,150
-41,-7,-86,-108,616,-235
-41,-67,-104,44,587,-394
-33,-110,-123,68,479,-441
-9,-104,114,-476,583,-450
81,-119,-58,-5373,2563,-930
70,-42,-106,-2426,3194,-3338
-1,-70,-74,-3743,3419,-4444
-50,-12,76,-3770,3556,-5507
-67,-49,95,-5005,4333,-6650
24,104,124,-3441,6011,-5167
-97,-70,83,-4347,6998,-4500
2,-83,16,-2860,6115,-2341
2,3,114,-2080,4884,-804
-120,77,98,-2113,3456,705
-97,85,-75,-2373,1201,1278
88,-25,126,-2305,-637,2529
-76,109,119,-1675,-1776,2780
-104,58,18,-306,-3454,1569
-60,-24,119,622,-4688,-577
-119,35,3,751,-3072,-2056
87,-67,-27,826,-893,-3624
47,-83,-128,-83,549,-4201
58,28,124,-1643,2873,-3855
-65,-114,-106,-2464,3310,-2360
49,-128,-65,-2182,3527,-437
-101,39,87,-2474,2731,587
-80,-75,-79,-2652,2019,821
-51,32,-3,-2324,691,1674
98,-23,-97,-1998,-979,2214
-64,-87,-98,-834,-1422,1764
-85,17,-84,295,-2340,915
125,-91,96,610,-2032,-508
122,86,39,897,-1629,-1437
78,39,-53,994,-655,-1920
83,-114,-78,785,-848,-1604
-14,101,-116,122,-179,-991
-89,-33,-31,3948,-100,651
74,16,123,4057,1551,1338
-56,-81,126,3088,-1170,2289
-17,3,43,-624,-7,1876
-95,-55,2,1686,-1694,4212
19,75,-112,544,1061,3557
-45,-116,-68,2156,-244,5143
84,-110,50,-643,2186,2087
18,-50,-124,85,-617,3866
41,115,125,1067,53,1732
87,-116,-127,-918,1135,1192
35,-5,-106,-517,575,842
57,-90,-127,-296,697,649
80,-123,-127,-543,393,565
96,113,107,-694,249,452
109,69,72,-504,199,-151
117,52,54,-305,400,-616
123,57,51,-501,375,-584
82,-125,-9,-5106,2060,-2573
35,3,51,-3336,2156,-3989
-31,-43,85,-4472,2726,-4936
79,-25,-89,-4564,2802,-4703
86,75,-40,-3030,6120,-4392
-30,41,-73,-4059,6243,-4358
58,3,126,-2734,5714,-3444
-60,-63,-72,-4175,5448,-3262
-62,33,-119,-2082,3312,106
-12,95,-119,-1893,1464,1126
-124,38,60,-1892,-475,1919
4,47,91,-702,-1522,3317
-35,-38,118,297,-2483,2098
4,-52,7,585,-3594,2
23,96,31,1060,-2478,-1272
-123,98,-33,1248,-1001,-2896
-126,-115,-105,-840,-20,-5531
-54,-4,-119,-1641,3548,-4150
29,-77,-110,-2871,3504,-1870
41,23,-76,-2251,3055,446
114,105,41,-3033,2488,396
-111,-8,50,-2601,1485,1103
-102,-104,97,-2132,-72,1924
16,27,119,-1333,-1044,2329
126,-34,120,-84,-1310,2018
68,94,-84,331,-2646,775
78,27,82,443,-2455,-1645
35,46,124,789,-1593,-2148
-4,57,-67,1428,-844,-3114
19,125,123,431,-459,-2426
113,-44,101,1569,580,236
-37,-64,-1,3596,-203,1099
24,46,83,2505,-342,-471
-17,31,-24,720,34,-985
-69,70,19,-1475,298,576
112,122,-90,1967,424,2312
-83,-69,-50,1831,984,3306
-36,-11,101,3051,1573,4046
9,5,-83,-646,14,5004
0,-114,-111,2384,86,4217
111,-9,108,-1193,1394,3768
88,12,-119,855,70,2596
116,-7,64,-1080,757,2355
47,62,-125,-682,-820,1599
58,-18,-108,-785,-665,1040
66,-117,120,-669,93,440
48,109,103,-466,354,-118
63,85,71,-332,729,-496
53,65,58,-157,398,-607
61,51,38,-223,437,-683
115,-11,30,-2135,2131,-3953
-37,13,-86,-921,4587,-6703
124,101,26,-3768,3875,-7912
96,-25,55,-3406,4228,-7084
-18,-8,57,-3889,4892,-6045
62,101,40,-3200,5388,-4185
-125,-125,-117,-2924,3227,-1926
-10,-21,66,-1968,2768,977
19,119,-68,-2212,994,1729
5,69,113,-2095,-554,2161
114,-34,71,-722,-2288,3937
125,-125,64,98,-2749,1675
77,45,53,343,-3630,-313
-121,-121,-115,1345,-1766,-851
114,44,-38,-40,-1193,-3431
51,105,-100,-1048,829,-5140
57,92,-102,-2138,2781,-4988
96,6,-72,-2107,4281,-2383
-128,-127,-60,-1883,3525,-157
-104,5,-48,-2871,1956,182
-37,-113,-41,-2060,1372,1322
85,-119,-124,-2170,-600,2238
-37,-114,125,-561,-320,2504
44,56,104,-93,-1843,1690
95,60,-14,-146,-2861,57
85,19,3,592,-1853,-1622
62,81,-29,585,-440,-2276
36,113,-60,-144,-186,-2217
36,-123,-115,1208,683,-680
124,52,76,1585,-407,-440
47,48,-91,1831,150,792
-86,-54,97,2202,-1121,891
-74,21,83,647,-1044,2803
107,-82,-39,2059,-1208,2959
122,109,51,1258,-2339,4988
-16,31,-109,5027,-380,3773
37,5,54,2200,1693,3181
-9,-27,90,-1099,512,3292
-13,-100,43,-199,66,2624
68,58,-12,1155,1155,2087
45,75,55,-963,455,1143
86,-50,82,-1405,259,1707
80,120,62,-153,328,1043
80,100,76,-89,432,368
90,105,65,-784,659,-193
91,76,50,-651,476,-689
103,52,33,-441,460,-758
109,59,26,-552,512,-695
126,67,8,-676,712,-474
-113,75,0,-891,523,-494
53,-114,-121,-4527,2422,-3333
4,-16,119,-4001,4001,-5483
-88,-3,-96,-5112,4454,-6040
-8,-41,-16,-4492,6165,-4712
-57,-24,-57,-3521,6449,-3515
-58,16,-128,-3076,7245,-2290
-6,-85,94,-1883,4895,-363
108,98,46,-2039,3085,346
64,62,82,-1676,1215,1668
-48,58,54,-1494,-810,1965
32,52,-88,-1787,-2974,1149
38,-112,2,232,-2765,2729
93,24,111,1024,-2129,950
93,16,95,337,-2492,-2172
49,-40,-23,802,135,-3496
24,-55,-101,-1037,622,-4281
-67,0,-95,-2489,2451,-4045
82,23,-65,-1901,3279,-1078
20,71,-74,-1731,2821,883
27,50,-43,-2422,2121,1024
121,-19,4,-1714,1653,1810
90,-71,105,-1746,-389,2046
6,107,-125,-515,-509,2246
64,36,-107,-47,-1829,1429
120,46,55,-319,-2262,-507
93,-8,-26,669,-2009,-1147
49,98,-11,-228,-1231,-3073
16,86,-80,-335,1290,-3062
-72,79,-72,-15,2555,-1910
-22,-67,109,-71,1365,-936
19,63,-39,-538,551,-993
4,118,-118,-371,-46,-330
10,-75,104,-21,-142,720
-57,-36,106,122,-1168,1761
79,-13,-90,-853,-2223,1900
95,32,-38,-406,-2331,2602
35,62,3,-360,-3358,2639
-28,-118,69,-875,-4556,3453
-63,31,-40,623,-2842,2514
112,9,35,-403,-4183,3444
32,125,-34,1558,-1444,1389
31,-128,33,-804,-2112,2181
-32,-55,-122,609,-3531,2033
29,16,-13,1040,-1587,510
-20,-32,-55,885,162,-1276
3,-37,-91,369,1363,-1565
27,-30,-115,187,1042,-477
10,-41,119,-597,359,-605
19,-83,80,-616,340,-759
44,-47,80,-1979,853,-548
91,13,5,-4247,4269,-3347
103,-12,44,-3452,4729,-3969
-115,-71,104,-3536,5595,-3511
-75,98,-126,-2948,6481,-2680
71,-29,123,-2341,7232,-3171
-79,-95,101,-1683,7095,-2181
57,22,-116,-1891,5093,-814
126,-34,102,-1449,3408,1478
-44,0,-50,-1597,1592,1671
117,-98,121,-1638,-932,2309
-27,-87,-118,-404,-2164,2937
-7,-30,-80,121,-3576,1500
-32,3,30,12,-3452,-1331
-7,101,-12,493,-1687,-1689
-57,-90,-46,-348,-253,-3811
-87,-89,-72,-933,2336,-3952
63,-109,-49,-1834,2950,-3173
10,-10,4,-1754,3685,-1288
101,7,-38,-1870,3105,-173
-68,70,-64,-2447,2035,434
-9,-126,14,-1644,533,2398
-84,39,27,-1478,-224,2777
-5,110,-1,-203,-794,3177
42,-17,46,-707,-2051,907
-111,-31,-57,-466,-2011,-682
-98,63,121,-35,-1697,-1680
-66,109,-65,-457,-1168,-1400
83,71,71,1203,-1914,-541
-71,116,86,657,-1503,-75
-4,117,-32,179,-1122,827
-44,67,-71,2601,-1400,1546
-104,-57,-50,-347,-1931,2063
-5,-120,58,2750,-1316,2636
-29,-55,61,1972,-2304,4488
-9,-87,41,123,-1500,1949
36,-9,-62,-156,-1288,3529
37,-110,-75,439,-636,1484
85,-82,-73,-37,-236,1832
62,89,-124,-75,-48,1781
42,6,101,148,142,135
65,-46,118,620,88,-96
68,-96,105,344,369,-99
80,-121,115,89,291,-208
83,97,83,203,662,-426
88,119,75,-603,538,-492
110,108,53,-776,483,-490
-126,91,20,-466,591,-580
-109,111,19,-603,524,-558
-94,124,7,-642,455,-504
-85,-109,9,-932,428,-484
90,118,68,-3341,2931,-2231
10,84,118,-2150,3112,-3444
73,3,38,-4302,3124,-5764
32,-68,72,-2693,3143,-5052
89,93,83,-4566,4955,-5741
-1,-102,86,-3059,5289,-4228
-28,-71,59,-4204,6149,-4008
124,18,-43,-2872,6132,-1389
-106,76,-68,-1347,5072,840
-124,38,97,-1407,2593,1118
65,-30,96,-2298,67,1347
-78,-53,41,-1853,-1601,2380
16,125,61,-272,-1528,2314
68,8,66,285,-3408,1367
-66,-38,7,716,-2808,-896
-83,19,116,963,-1408,-2471
-124,-89,-82,-242,-902,-4099
82,108,-118,-1356,1683,-4368
89,41,-102,-2249,3190,-2824
-15,92,-65,-1206,3478,-160
-112,-75,70,-2565,2441,186
-74,84,72,-2072,1353,1380
-115,40,-62,-2308,427,1111
33,-39,71,-979,-678,2956
-67,-90,54,-346,-1162,1967
-69,28,-74,556,-2208,1010
123,-46,-32,281,-1808,-571
114,64,104,906,-1207,-1595
-80,71,-96,579,-644,-841
-21,125,48,1911,-2027,199
-111,94,-57,-302,-1484,995
123,-17,-124,1848,-1500,1786
-94,68,91,627,-1066,2823
-112,31,21,2763,-1137,2860
8,-60,-43,1225,-1179,3808
-31,-69,-57,1202,-2216,3231
0,86,99,2866,-2613,3320
27,111,45,115,719,2026
57,-78,99,-808,501,2735
28,3,47,722,1194,1362
58,30,25,-719,1509,1125
40,-25,47,-961,466,842
48,-118,14,403,-72,-207
62,-82,19,-319,322,-343
76,-110,4,-1025,952,-455
81,106,-6,-817,769,-725
101,112,-19,-994,506,-541
101,-119,-8,-1216,53,-317
119,-124,-18,-814,329,-418
-104,-94,-18,-817,517,-535
67,-126,7,-4430,2639,-2744
10,-8,64,-5087,3819,-4062
-75,-4,-61,-5835,4370,-4764
93,105,1,-3919,6348,-4548
101,4,-29,-2788,8142,-3619
109,48,122,-3585,7544,-5068
107,-36,-21,-1963,3768,-2442
120,32,2,-2594,3207,-219
-8,65,3,-1429,3186,2177
-6,-59,105,-1546,1826,2210
-38,-58,-74,-1756,-895,1948
-128,-83,-120,-660,-3440,2583
80,15,-112,784,-4276,2091
33,-23,29,321,-3043,-1746
17,109,-69,744,-1310,-2419
122,-9,-120,-236,592,-3778
-83,-61,115,-1378,2517,-3908
12,56,124,-2136,3509,-3549
56,127,-88,-2949,2626,-1665
106,-69,10,-2180,2425,615
-112,-86,51,-2191,1890,1203
-123,-7,-72,-1746,907,1925
42,-103,114,-1351,-482,2462
127,-77,111,-634,-1586,2033
-74,-10,-86,-273,-2671,467
69,-86,91,606,-1986,44
59,-14,-126,219,-1494,-783
40,106,-84,191,-914,-1393
-122,-85,-110,1190,-714,174
65,81,102,737,-167,-509
-87,42,17,1337,-975,66
-2,24,-124,-37,-563,902
-27,-66,42,3175,-916,1764
-94,86,61,1284,-2086,3664
-80,-125,61,1897,-2421,4347
35,-27,-66,1902,-973,3309
-67,119,-42,-1496,-2046,3575
-15,120,-125,1129,-196,723
71,100,101,3011,1493,1505
29,78,-108,1278,1135,1199
49,88,-107,-1072,878,1281
40,-37,117,-503,-57,1302
58,-60,114,-937,-28,903
69,-63,88,-1878,149,598
59,-102,58,-1566,198,-94
77,124,45,-641,457,-411
93,101,26,91,727,-648
98,-124,30,-394,577,-556
126,126,2,-452,624,-600
-112,-117,1,-566,469,-489
72,-87,2,-5017,3158,-1288
44,-100,-75,-1412,2369,-2443
-40,-64,99,-3320,2435,-3776
-97,-80,86,-2747,2955,-4862
-83,-82,54,-2274,3593,-5243
120,-121,53,-3122,5524,-5203
53,-9,28,-3299,5738,-4627
-116,-70,-24,-2372,4827,-3179
101,-6,65,-3011,5402,-3370
-6,53,-115,-2828,3266,-1016
47,46,110,-1470,1977,1538
-20,-30,46,-2028,-84,1997
119,86,-8,-759,-1368,3637
-70,-108,25,-68,-2482,2546
-70,-67,-76,-138,-3939,131
-97,124,4,1527,-1453,-825
-94,-36,-66,705,-920,-1839
-119,83,126,-980,-302,-3806
99,96,122,-1807,919,-4057
60,-67,-110,-2419,2868,-3551
-39,29,-64,-2433,3531,-1395
-128,-27,-58,-2515,2897,292
-47,79,-79,-2090,2963,1119
-116,-6,-27,-2162,1036,1875
99,-125,-88,-1702,210,2018
-12,24,-108,-1284,-1156,1934
125,-77,-70,-268,-1891,1509
-34,-108,5,285,-2135,1545
-95,-108,-51,1168,-931,262
-100,117,87,-599,-2916,-1759
105,-82,-102,-94,-1493,-2734
28,-43,-86,268,902,-1667
59,83,-109,180,-1071,-1466
-6,85,-25,-53,-224,-482
-49,13,-85,-490,-1684,-300
8,94,103,-823,-1052,1019
-78,86,-105,-167,-1968,2059
-43,-72,-100,570,-2125,3323
126,0,27,287,-3467,4759
1,4,-111,1534,-4186,5610
5,-123,65,2275,-6582,4192
63,-88,-112,1256,-4449,2842
97,-106,110,154,-683,1170
40,84,-116,851,1479,-890
10,72,109,457,1335,-816
-23,53,-125,-80,263,-434
-54,-34,114,217,32,-876
-25,-127,95,735,597,-1280
5,-124,89,13,791,-1117
22,102,78,-599,687,-1023
91,120,37,-3936,3799,-2957
46,22,39,-2967,3843,-4978
61,-51,115,-3709,4884,-8069
-115,-56,91,-2471,3311,-5266
63,-89,76,-2881,3678,-4341
46,-37,61,-2444,4515,-3271
-8,76,14,-2448,6213,-3888
13,-38,-22,-2305,4411,-1495
75,-48,66,-2292,4000,-823
98,-101,102,-2273,2491,673
-122,-77,-107,-2199,832,1178
34,61,96,-2047,-1592,2297
101,-32,108,-709,-1967,2827
-84,-60,-40,-126,-2861,2042
-12,-57,14,924,-2566,1010
-33,114,42,543,-2107,-2332
-68,73,-72,202,-1166,-3751
126,37,-114,-726,805,-4855
-66,-60,-111,-2247,2070,-4455
100,-68,-75,-2094,3380,-2012
105,-86,-22,-1958,3584,190
78,72,125,-2942,2529,-36
-84,-51,125,-2542,1986,1047
-102,127,125,-2096,350,1976
83,27,118,-1186,-663,2152
-49,121,-84,-850,-1746,1924
-67,-15,12,193,-2197,1238
-104,-55,-111,-48,-2547,-965
127,113,103,719,-1265,-1900
87,-62,-29,-463,-881,-3045
-77,-101,-55,925,811,-1376
-128,4,116,185,44,-377
-24,31,9,189,-175,-497
5,68,-65,-606,-78,335
-35,34,75,625,-1270,1335
-6,118,99,398,-1210,2406
-57,126,28,2630,-2805,4048
10,-94,49,6118,-2793,5666
-103,-127,-121,7706,-1131,4953
12,-107,-41,-3556,777,1871
7,97,37,952,232,3075
24,104,-119,240,-383,2397
10,92,107,-1486,793,1315
36,-68,84,800,1098,673
41,-42,-127,184,913,-536
65,-25,127,-1082,740,-124
48,-113,114,-955,203,-184
67,121,100,-1131,304,-154
79,81,59,-335,268,-131
101,79,37,-29,465,-461
66,-45,25,-4130,2318,-1952
-34,55,-45,-2329,1374,-3192
-82,-4,-97,-3608,2503,-4527
74,-23,89,-3089,2598,-5165
122,-39,71,-3359,3979,-5574
38,-72,69,-4207,3519,-5259
66,83,64,-3891,5157,-3967
-28,104,22,-3656,5337,-3188
-56,-47,-113,-2639,4782,-2052
77,53,-114,-2005,4563,544
-98,31,103,-794,3898,2367
91,-9,-13,-2474,437,1578
-17,-22,-84,-1388,-1316,2613
87,-43,-2,-900,-2122,2369
71,-4,40,116,-3243,2044
-62,-116,56,136,-2639,-468
-66,90,31,506,-1804,-2518
-115,66,-105,-77,-1067,-4578
84,-97,114,-1676,1132,-5534
-80,-36,-121,-2434,3192,-3209
31,49,-84,-1621,3730,-365
81,-20,81,-2650,2285,24
-113,-109,84,-2672,1732,729
-104,48,85,-1560,942,1951
46,-52,91,-1170,-121,2056
-60,56,93,-618,-1309,2210
-81,-28,-84,-237,-2297,725
114,-1,-114,-194,-2334,-1484
92,54,107,-83,-1316,-2088
-101,-99,-96,339,-931,-1245
32,104,117,639,-900,-432
106,79,83,583,-1236,408
-98,82,-35,564,-1409,1678
-108,71,-64,2124,-1333,2530
-72,-60,-125,1201,-1684,3996
-100,-115,118,3386,-1751,3901
-31,23,46,787,-1522,4653
-16,-107,-22,2985,-817,2481
4,59,14,-1375,-1360,3303
-39,-44,-95,-760,-2144,2574
24,-3,97,1982,-436,1165
16,-8,94,1646,396,466
3,-30,93,-280,941,-52
12,-74,102,-1025,550,104
8,121,71,-846,598,-16
29,-123,60,-1415,598,39
39,127,31,-1141,497,-199
59,108,8,-448,523,-493
73,118,2,-341,514,-640
97,-121,-5,-698,528,-544
84,5,-92,-4177,2861,-1767
76,80,49,-1053,3345,-3045
-104,-14,45,-3625,2845,-4951
-46,-39,-40,-3514,2746,-6648
-13,-11,64,-2980,3001,-6267
-128,-41,72,-3737,3120,-5808
85,-106,61,-3341,4381,-4407
-39,-94,28,-3204,4501,-2992
0,-87,-3,-2637,4599,-1436
0,23,-117,-2485,3719,-849
-69,110,-34,-1851,2678,866
113,-122,126,-2315,490,1362
33,90,88,-1728,-823,2840
12,18,6,-641,-1737,2610
26,-2,45,375,-2612,1757
-114,-54,31,683,-2644,-513
-92,75,74,712,-1898,-2732
94,-87,-54,-293,-1060,-4720
30,32,-108,-2700,782,-5907
-127,29,-72,-2624,3010,-2215
7,15,-33,-1866,3456,684
-21,88,-119,-2860,2225,4
68,66,69,-2626,1633,456
104,-115,76,-1651,-86,1349
-47,-31,73,-892,-887,1766
-4,-108,-93,348,-1313,1952
62,-70,49,138,-2529,497
66,-115,-77,745,-1815,-541
47,-46,-93,752,-1032,-1247
22,107,-48,-198,-189,-1646
95,113,-79,-99,466,-1409
105,68,-101,857,444,-57
-51,-5,-1,1176,-536,-375
-68,53,-80,917,-2086,416
48,103,65,-165,-301,-211
-66,-118,102,636,-948,522
-121,92,43,845,-1233,2325
-127,104,98,2739,-1732,3081
-87,-33,58,2865,-1027,3955
-59,49,127,1946,-899,2997
-70,-59,16,3055,-655,3321
38,39,26,323,-110,2440
-5,-62,-70,-189,-382,2503
37,26,118,1935,99,1021
62,101,-73,-800,105,988
48,-13,-97,-574,151,147
55,-97,-98,-141,688,-316
49,-123,-94,-486,309,-284
67,117,-120,-975,240,-50
81,113,93,-1271,278,-69
44,-32,116,-3944,1997,-2600
11,28,8,-2057,3229,-3890
-92,-99,-51,-2774,2847,-4376
80,-22,48,-3779,3527,-5269
-40,-118,84,-3106,4928,-5379
60,67,96,-4521,3619,-4612
-58,-67,116,-3145,5461,-3290
-80,-81,87,-2707,4410,-1824
-7,-14,-70,-2439,3915,-375
78,105,-124,-1747,2992,1239
76,-48,-78,-1825,999,1963
-17,-90,-121,-1538,-1082,2614
99,87,70,337,-2072,3310
-77,-7,-5,-753,-3540,1215
-56,-79,125,387,-3418,55
-62,109,31,914,-1383,-1827
-83,119,-51,-450,-862,-3947
95,120,-81,-2244,224,-5198
104,-21,-54,-2518,3735,-4347
-9,-86,-9,-2299,3817,-1452
-117,-72,-30,-2086,3251,346
87,-118,0,-2703,2160,650
126,45,-17,-2076,1644,1258
28,-75,-73,-1236,374,2185
-99,-117,107,-687,-918,2083
6,-6,-126,273,-2009,1222
118,-34,75,507,-2629,660
119,103,-68,-127,-1183,-1561
99,-34,-1,-227,-1200,-1979
-125,-91,-18,147,870,-1710
-15,84,-62,399,302,-627
96,108,127,-454,-167,-502
-20,105,-54,345,-74,-198
-59,-121,-80,-852,-581,478
-78,122,105,803,-1750,2125
-41,-125,39,753,-1732,3077
125,-88,-86,1287,-3415,4480
44,-96,63,2502,-2211,4394
16,-111,-55,-1062,-2466,3485
93,-127,-29,1210,-333,1416
117,32,62,-430,-1102,2858
102,-41,17,742,-1745,2360
126,-65,-47,875,-631,560
59,35,-46,1453,-585,508
38,-14,-90,340,133,582
53,-57,-127,245,6,298
67,-86,122,-274,81,-213
76,-106,114,-778,377,-400
80,112,89,-828,551,-530
90,100,70,-459,540,-500
110,-126,-120,-4379,3290,-1971
40,-52,42,-2104,2879,-3826
-65,4,78,-3167,3696,-6021
-102,-19,39,-3569,2253,-6445
69,-89,70,-3897,3554,-5805
-89,90,65,-4144,5061,-5226
-22,-102,54,-3283,5023,-3167
51,-75,14,-2777,5344,-2008
25,-2,-41,-2863,4095,-834
-78,122,21,-1694,2975,995
-101,-67,92,-1839,1183,1279
42,-103,-9,-1772,-1074,2248
79,-40,2,304,-1582,3505
69,-5,116,-562,-3244,1362
-123,-8,60,439,-3112,-961
-98,52,34,1224,-1970,-1749
120,16,-70,275,-891,-3444
63,-55,-119,-1276,325,-4840
-113,68,-113,-1818,3242,-3566
119,100,-81,-1529,4330,-1201
-125,-111,-64,-2309,3253,-38
-111,40,-56,-2634,2077,724
-57,-32,-57,-2057,1791,1217
100,97,-120,-1793,14,2251
-4,125,86,-1254,-981,1401
55,-24,104,-575,-2608,777
-47,-64,-6,499,-1969,432
100,-100,25,160,-2100,-937
91,23,-28,-28,-944,-2843
55,-20,-40,-133,495,-2464
-85,-6,-53,-352,970,-1447
91,-14,118,14,901,-290
-89,59,32,-632,270,-489
-45,-106,-58,-305,-191,294
-20,-77,-97,-569,-785,1263
-58,-80,-104,66,-1895,2088
-8,-19,84,233,-1815,2627
123,46,-12,444,-2910,3578
-80,12,-109,1938,-2584,4783
-61,71,3,1578,-2961,4239
-7,20,-106,1598,-2165,3962
87,-33,28,1441,-608,1578
11,-9,45,-211,-1845,2240
29,115,-48,-63,-26,556
22,55,-53,-389,161,268
31,-11,-62,-644,726,-442
61,-15,-68,-676,497,-163
65,-27,-100,-724,29,-22
58,-25,-109,-1024,-502,-37
69,-50,96,-964,-296,-30
76,48,-109,-4471,4015,-2182
11,115,-98,-2180,2538,-3285
-107,113,-105,-2728,3241,-4706
-53,-21,37,-3372,3069,-5592
49,124,50,-3930,3525,-5807
85,-120,93,-3637,4710,-4448
-48,81,92,-3280,5418,-3092
42,54,68,-2432,5643,-1983
25,-109,39,-2055,4615,-1259
-119,-15,117,-2533,4221,-130
-68,-48,-29,-1820,2065,803
-107,31,-97,-2410,-310,1303
54,19,26,-519,-1741,4098
43,96,122,-339,-3017,3065
30,37,-9,113,-3832,758
-51,-28,87,398,-2557,-1846
-57,-21,-39,526,-1484,-2933
-105,117,-83,-353,157,-4310
-121,61,-86,-2401,2169,-4929
-60,-14,-51,-2517,3540,-2938
103,125,10,-1555,4065,237
124,35,-71,-2915,3147,132
30,-125,6,-2263,3202,2030
23,98,-73,-2321,1168,2395
-68,95,119,-1889,-748,1579
13,40,65,-761,-2266,1573
2,53,-70,194,-2924,920
-101,-16,77,967,-2546,-400
-123,-111,-127,375,-2637,-2873
80,-30,-9,-88,-156,-3393
60,116,-44,-137,1389,-2079
121,-122,-35,-540,1649,-863
-24,50,111,-54,908,-435
6,-61,5,-952,517,-1036
-5,-25,-126,16,-275,115
-44,22,-89,263,-934,1554
-119,-56,75,2321,-1560,2758
-37,-90,15,1765,-1312,3594
45,-52,113,723,-2816,4410
-88,-5,40,3074,-664,4739
-64,-81,59,4306,-727,5198
120,-77,-75,-3345,-1691,3421
16,123,63,-315,-207,2009
57,-107,-95,2998,-917,3150
43,56,-24,-125,-193,591
81,5,-91,-1063,1118,1628
43,-119,-126,139,723,1209
57,98,117,-108,429,474
78,-121,95,-1155,531,125
77,121,79,-1140,381,-325
92,49,-52,-4087,2819,-1334
61,124,-112,-2772,3186,-3296
-116,120,-86,-3042,2462,-4635
-4,-1,69,-3574,2429,-5573
109,-53,91,-3070,3361,-5664
120,-20,91,-3800,4601,-6157
-56,-6,75,-3717,4580,-4445
29,46,39,-3218,5361,-2822
-31,52,-20,-3141,4038,-1853
64,-84,34,-2455,3783,157
54,-72,2,-1746,2906,1232
5,30,-4,-2091,-21,754
2,125,-61,-1042,-1847,2589
14,-7,19,489,-2806,3416
-60,-8,8,166,-3901,1123
86,-108,26,1003,-2570,-411
81,48,-47,856,-624,-2611
67,70,119,120,60,-3552
65,-51,104,-628,2402,-3572
42,23,120,-1916,2751,-2891
94,-24,-100,-2232,3063,-1497
34,59,-57,-2641,2666,-406
-128,-100,-24,-2404,2396,470
-67,0,-33,-2065,1097,1617
95,-113,-118,-1604,-136,1716
-15,1,-116,-972,-943,2177
40,-92,-99,-66,-1678,1383
118,-71,20,123,-2355,-28
110,-56,-54,-23,-2501,-1994
66,28,-52,59,-735,-3158
72,-87,-54,16,1560,-1843
97,-79,-66,153,1324,-793
-2,-57,-128,-103,790,-378
-40,64,-52,1759,-1649,707
46,106,77,1512,-1276,1030
-23,30,-27,4670,-2493,2886
70,46,120,3525,-649,2838
-79,21,-11,2875,-772,2627
116,-71,-45,-279,-1898,4546
-69,127,91,2642,-72,2926
-6,-40,-123,302,559,3224
-17,-68,-114,888,418,1979
50,8,-88,-968,750,1938
0,-118,-86,-1264,420,1332
34,37,-69,-924,141,1298
51,81,-97,-2789,664,747
73,-39,107,-549,251,197
90,-79,90,422,295,-270
99,-56,88,-554,482,-409
103,-107,50,-559,557,-596
85,58,40,-3057,2981,-2451
-78,-22,-40,-2343,2114,-3214
9,-103,-128,-3331,1780,-4452
-118,-30,22,-3447,3283,-5263
-41,-45,66,-3038,2311,-4631
86,-111,94,-3882,2754,-4044
-50,87,-119,-4115,3549,-3434
64,-26,-83,-3096,4729,-2194
54,-50,-90,-3068,4232,-1397
99,-18,-117,-1426,3662,839
99,-9,51,-2072,1970,975
18,43,-107,-1375,-25,2268
54,97,-78,-602,-1277,2751
-126,98,46,245,-1749,2142
-60,-49,-48,167,-2077,564
-30,-69,-109,1036,-1456,-291
-23,123,49,-13,-1202,-2899
-67,-73,-5,-294,-396,-3319
-114,-126,-29,-1527,1176,-4339
-82,77,0,-2662,2386,-2697
-16,-83,36,-1156,3551,340
94,51,-95,-1675,2674,719
-123,-41,-112,-1963,1524,1164
97,92,-49,-1573,112,1894
62,-30,-57,-431,-151,2471
77,11,-76,361,-1479,2499
123,101,120,-367,-2302,-532
-122,27,35,321,-1608,-1691
96,31,-31,419,-731,-2394
68,52,-46,-1013,-1135,-3087
-92,3,-62,735,1612,-278
-62,43,-94,1580,496,270
-65,-60,48,1457,-1431,381
-113,-93,104,1286,709,-61
-34,102,95,2328,-1344,1998
51,62,-59,1710,289,2092
-121,47,-7,1365,-1471,3402
-30,-111,-92,1421,408,3611
-18,-32,-47,1455,166,2947
-14,112,-85,-408,-95,3599
42,116,-65,937,-301,2146
107,-2,-45,-1493,-22,3320
-126,50,99,955,821,1364
-111,69,127,1566,-79,767
112,-72,-87,-57,-82,302
110,121,-115,-1253,476,702
105,89,92,-1890,434,533
-126,100,62,-1689,234,513
-117,105,40,-1330,180,193
-108,113,25,-917,438,-277
39,-103,6,-3898,2382,-2671
-80,-125,56,-3648,1571,-3027
95,43,-22,-3930,2038,-4324
-67,84,89,-4808,3840,-4602
-108,-22,-118,-4925,5527,-4672
7,49,-68,-3843,7289,-4183
1,-1,-93,-2677,6702,-2673
-121,70,-19,-1739,5744,-1052
126,-86,-104,-1455,4033,398
-128,60,121,-1398,2058,1036
27,-12,108,-1704,-368,1938
86,-115,77,-891,-1906,3306
-76,-44,114,-14,-2805,2109
-68,8,-14,207,-4093,92
120,-105,-64,642,-2104,-1798
118,55,-23,443,-1199,-2622
64,9,-86,-832,531,-4382
76,-43,-85,-1594,2471,-3086
-54,-18,-67,-1414,3493,-1614
-19,-10,-32,-1977,2993,-194
110,96,76,-1985,2885,619
-2,-47,59,-1535,1695,1736
6,55,-115,-1560,634,2471
49,56,77,-858,-1112,2700
-10,-64,84,-710,-3024,385
100,84,46,94,-1797,-553
97,-80,58,491,-1404,-1662
63,5,-40,-558,-937,-3080
66,-83,-65,-142,423,-2034
56,-8,-72,122,1075,-148
89,126,124,-570,440,-1013
-107,-49,-33,203,-31,-570
-27,30,-113,-375,154,237
-62,-32,-124,603,-604,996
-20,-61,14,250,-757,2050
-106,-66,111,1526,-1638,2954
-37,-48,46,1094,-1075,3885
-53,-8,101,2914,-1680,4034
-34,26,64,1223,-2078,4070
71,9,-18,-226,-512,2487
3,4,-74,1540,-1529,3559
57,-87,-79,511,-94,1033
32,-106,-65,-627,-3,1465
13,-7,-102,27,59,1436
32,-23,-85,-953,8,1565
71,-77,76,-1470,699,584
74,-92,47,-930,685,-162
94,114,35,-314,540,-1086
116,118,36,-268,726,-1164
117,117,31,-333,430,-732
-28,30,-3,-3066,1492,-3459
-17,-53,-68,-4031,2319,-4255
10,-123,69,-3908,3810,-4693
19,83,85,-2967,5112,-3700
80,122,84,-3210,6372,-4829
-10,98,102,-4176,5760,-3572
-125,56,12,-2525,5665,-2193
98,-85,0,-1581,4265,-81
94,123,-27,-2125,2097,423
18,-47,-97,-1411,-197,2397
-115,-14,-120,-720,-1177,3335
55,22,-84,36,-2155,2305
-73,29,27,426,-2578,114
-60,79,-87,642,-2322,-1176
-87,-46,-57,852,-2204,-2003
119,114,-75,-1005,-332,-4510
90,-35,-81,-1909,2083,-3796
-114,-32,-56,-2125,3300,-1818
-83,5,-19,-2339,3271,-472
-83,97,-102,-2087,3360,1089
-46,-55,126,-2040,1709,1574
-32,80,-85,-1797,387,1720
94,10,124,-1018,-1205,2376
-84,-4,-88,-398,-1999,1543
119,119,56,102,-2886,-154
115,0,93,771,-1071,-1012
96,36,7,696,-1018,-1542
74,101,-66,-432,-186,-2176
45,77,-84,987,762,-1835
-72,127,-98,11,619,-91
-25,33,-19,1704,-121,-144
9,-111,-105,19,-28,619
-33,29,13,1964,-877,1037
-36,77,10,595,-602,2252
-67,-13,-58,2269,-654,2978
26,75,-79,2874,-46,3903
72,-107,122,2871,259,3336
124,-86,111,692,1067,3373
51,-111,-83,-1186,169,3414
-77,99,72,609,841,2250
-88,-102,120,-604,595,2558
-126,7,123,-858,56,1581
-109,-62,92,-272,498,938
120,127,107,-413,424,560
111,89,98,-514,341,302
114,74,90,-870,364,-16
-123,55,66,-913,517,-258
-112,45,39,-688,554,-376
-102,66,39,-933,274,-390
-93,32,27,-342,350,-607
79,68,-105,-4150,3372,-3640
7,-117,-116,-3227,2908,-4457
2,-2,119,-4239,3727,-4830
-27,-58,123,-3748,4376,-4562
59,-114,-123,-5283,3622,-4592
-74,-103,-100,-3832,7178,-3301
23,106,51,-2966,6451,-2105
-19,-97,13,-2291,4862,-731
17,62,-26,-1514,2622,1811
20,-98,-110,-1775,923,1509
-127,-54,103,-1517,-896,2095
-48,-36,123,-842,-2279,2539
24,-63,97,241,-2972,1461
110,-4,-91,726,-2251,-273
-98,-71,-115,840,-1433,-1342
114,60,-58,-316,-1376,-4368
58,-23,-111,-638,1081,-4759
-66,82,-109,-1401,3002,-3781
74,16,-77,-2044,3112,-1429
-47,-122,-47,-2085,2974,76
-4,71,45,-2429,2188,309
93,21,59,-2061,1585,1088
55,107,-54,-2411,-224,728
32,-75,-85,-915,-521,2676
125,102,7,-836,-1545,2042
-44,-24,4,-61,-2604,880
103,-33,-79,586,-1865,5
97,104,-95,491,-1048,-1479
74,-27,-50,156,-890,-2543
61,11,-93,-383,-421,-3021
85,14,-106,-542,167,-1638
-19,-63,67,1628,483,93
-10,48,-43,1775,-102,1396
17,-18,55,3377,-222,802
-7,101,26,968,-643,1941
-86,-18,-66,982,-1209,2026
-54,55,-22,373,-905,2796
-20,84,-119,2298,173,3293
34,-30,-46,1371,-101,3080
88,-9,-68,-142,490,2646
60,30,-8,-25,-544,2882
109,-27,-53,-95,575,1732
82,105,-86,2286,252,1485
86,54,-39,91,619,974
85,13,-72,-1951,335,1130
89,-99,-122,-508,-298,1238
116,-112,112,-54,-130,612
-118,-105,103,-847,168,103
126,-125,81,-929,254,-144
120,104,65,-792,366,-436
104,-44,80,-5858,2247,-2238
93,114,-103,-3661,2735,-1641
-45,-55,6,-3027,2285,-3005
44,-42,-34,-2985,1960,-4247
29,-54,112,-4489,3842,-5970
94,86,-114,-4426,4468,-6535
94,79,-81,-3924,4077,-4923
-5,0,-106,-3295,4515,-2859
-102,56,104,-2972,4888,-1679
-29,36,14,-1640,4758,-345
43,-14,-10,-2267,3402,-393
33,-64,-65,-1886,1488,807
16,32,49,-1573,83,2253
85,42,29,-152,-1117,3154
43,-97,73,623,-2296,2431
109,-49,-86,820,-2685,660
123,-70,-62,917,-1729,-666
103,5,-74,548,-1251,-2676
71,76,116,-545,-461,-4114
55,16,107,-1531,1426,-3992
119,56,126,-2229,2726,-2546
-106,-29,-90,-2316,2866,-887
-11,69,116,-2574,2680,-321
56,-128,-88,-2409,2046,458
118,-29,5,-2019,1526,1783
80,89,-78,-1742,569,2413
5,74,96,-1134,-757,2243
-118,-28,29,406,-1891,1946
-90,-14,94,701,-2825,539
120,-67,-64,1321,-2459,-703
97,12,-99,1961,-1962,-1368
75,14,-102,2075,-1391,-942
-89,91,107,2171,566,124
-66,23,57,3019,-1185,329
27,39,-78,1315,-1065,144
11,-92,-47,1325,-1225,817
-36,7,-20,-787,-463,1745
-102,-124,-117,1445,-304,2320
-14,-13,76,941,2528,2833
-33,86,105,1091,1043,3588
-10,-21,25,432,948,3712
42,46,-128,2974,732,3600
-86,-117,103,983,1603,2879
-108,-28,65,-4678,1167,2648
120,-106,29,721,-131,1518
121,-106,117,-46,312,619
100,112,110,-413,465,23
94,71,118,-526,197,-399
107,44,100,-583,413,-485
111,37,82,-705,524,-554
49,-106,70,-5600,1882,-2818
54,-49,90,-3439,2400,-3266
101,-40,56,-3327,3278,-3792
-27,-53,-115,-5329,4800,-4595
-54,99,-66,-4371,5116,-3683
79,-107,-49,-3427,5954,-3162
78,92,27,-2835,5774,-2130
2,-45,29,-2279,5290,-314
-104,-111,16,-754,2883,1522
-119,-60,127,-1264,1927,1040
78,-9,100,-1690,172,1894
-1,55,61,-561,-919,3272
0,-113,81,1175,-3481,2341
-80,-105,115,-1670,-3499,-2866
101,51,45,43,-1880,-3073
55,-112,7,-1058,-127,-4685
14,124,-8,-2201,1726,-4525
77,-19,3,-1406,4280,-2569
46,-71,-1,-1587,3186,-1245
-50,28,57,-1880,2447,-152
-14,-89,124,-1872,1766,907
37,-6,-28,-1377,1070,1498
-24,-107,-42,-1076,-394,2227
-115,39,-6,-710,-1631,2778
113,-56,-67,270,-2764,1247
44,-86,114,395,-1976,-1747
18,21,-108,877,-857,-1501
4,16,-50,-221,-573,-1895
-6,-1,-80,-280,1155,-822
73,6,-85,456,718,421
124,118,78,328,-273,-90
-37,-53,-107,575,-609,798
-27,-109,19,606,-826,1935
-115,-68,48,2028,-1931,3600
64,-91,-78,3750,209,4361
0,-65,14,3053,-1343,5131
33,-116,72,698,-6,3599
-83,-67,-83,-2383,-1477,3762
-59,115,-116,1614,-361,1383
41,-24,-17,-777,244,1807
48,63,-42,-1982,705,205
119,69,-76,-1382,301,1177
116,-42,-88,850,-363,1008
104,-5,-84,-158,-723,1023
84,-69,116,-1333,-774,308
82,-117,50,-1024,270,-284
97,119,8,-448,966,-543
97,-116,11,-330,722,-695
-125,-88,-1,-607,518,-516
-106,-76,-6,-851,319,-603
69,-107,-73,-3404,2273,-2355
56,32,111,-3839,2483,-3233
49,78,68,-2836,3130,-4151
43,-70,-6,-3226,3618,-4579
45,-42,56,-3637,4591,-5211
-83,84,68,-3072,5116,-5003
-49,-20,51,-3467,4676,-4712
122,16,25,-3546,5335,-3993
115,17,-93,-3691,4313,-1720
-36,102,-127,-1310,3383,1443
30,-106,-11,-1771,1790,1226
-14,15,-102,-1691,-456,1957
-124,2,127,-1149,-1964,2534
-116,97,95,500,-3028,2837
-106,-63,-108,-665,-3462,444
-74,-44,114,750,-1880,-218
-77,-92,-48,152,-1435,-2902
124,-19,-104,-665,-465,-4385
-102,19,-110,-920,2668,-3922
1,-87,-86,-1812,3571,-2598
-11,40,-50,-1472,3101,-3
46,6,-117,-2038,2634,619
83,-67,-86,-2397,1839,795
-71,92,-84,-1694,952,1500
127,-61,124,-1422,-955,1898
75,59,-105,-454,-1460,2259
4,-36,25,-17,-2458,1140
116,-114,11,-49,-2224,344
109,104,-92,-32,-2408,-601
53,-9,-78,655,-2048,-1692
-99,105,115,-668,-713,-1744
-78,-125,99,1606,-25,-1464
41,-105,29,955,416,-290
70,23,-100,2992,113,-621
18,-3,41,2163,-729,98
-40,-10,36,1190,-1287,607
-18,-3,-49,22,329,1629
-85,-33,-79,1636,-288,2930
15,117,-128,1849,818,3399
23,-7,-115,1003,392,3084
44,-2,-127,407,440,2551
74,-13,-105,-2072,836,3161
76,60,83,296,354,1452
-94,82,-122,940,137,1551
-111,10,-97,390,197,913
-111,-94,-119,-131,735,659
-115,-123,-115,-474,220,621
-95,113,112,-851,592,377
-94,101,114,-798,524,-39
-97,77,92,-322,203,-227
84,-56,90,-4769,3566,-3056
-44,15,-111,-2797,3874,-4373
78,-4,-122,-3896,4408,-5485
-77,-108,-122,-3653,4322,-5181
41,64,-99,-3817,3774,-4566
112,92,-86,-3422,4940,-4011
-98,116,-118,-3360,4832,-3238
-48,18,48,-1710,4962,-419
-45,-98,47,-2335,3264,-21
77,91,-37,-1550,2044,1318
-19,-20,-111,-1643,74,2407
73,68,48,-675,-1153,3234
57,-34,55,65,-1930,1690
104,-67,-58,403,-2793,136
-123,112,-49,1360,-1801,-186
-120,42,-65,442,-1921,-2406
75,-125,-91,-1141,-1737,-4387
7,-14,-104,-1670,1651,-3818
5,61,-87,-2485,3058,-3005
-10,-76,-49,-1620,3507,-80
3,39,78,-2444,2320,34
79,-102,-105,-2312,2047,738
115,0,-85,-1566,1081,1844
29,123,-83,-1183,195,2211
-96,52,-104,-478,-823,2604
-16,-39,-119,436,-1293,1496
127,-38,-10,1251,-2322,369
115,-109,-38,1216,-1995,-1519
70,-93,-108,876,-2753,-1478
-109,-47,-103,1401,521,-736
43,-96,101,1399,117,39
-115,122,31,1963,2,8
-30,47,35,1633,-898,178
-100,109,-108,-1403,-1169,72
-107,-56,-61,914,-1227,2115
-92,-61,-13,1048,-290,2183
-110,-9,-48,1447,-557,3443
-12,-98,-106,-115,621,3447
-14,117,121,1925,-70,3046
80,-58,113,1586,593,2100
-81,-23,41,3934,1653,561
54,110,-52,-5123,1398,2453
29,99,101,524,-217,2159
-76,-65,90,2712,828,1134
-82,-59,-103,632,806,416
-102,127,-81,-1268,248,752
-105,98,-100,-1613,78,839
-120,48,110,-1356,221,307
-100,47,84,-1038,561,-119
-90,59,68,-988,628,-316
117,42,127,-3993,2679,-1501
35,125,103,-2605,2616,-3562
-108,-86,101,-3252,2333,-4450
1,-4,59,-3224,3431,-6294
27,-92,83,-2199,3237,-5787
-36,-109,74,-2581,3589,-4998
11,76,61,-3413,3423,-4587
76,17,49,-3054,4242,-3401
-119,-26,19,-3246,3769,-2630
-47,26,-82,-2304,3753,-441
31,-95,-100,-2491,3037,381
50,-38,-100,-1645,1896,1447
-57,64,43,-2101,-808,1756
65,119,10,-676,-1383,2858
121,104,96,210,-1948,2332
-103,-73,51,318,-2576,1123
-36,-48,-53,724,-1941,-785
-55,-56,83,710,-1587,-2813
-119,-82,-84,-40,-232,-4032
100,-95,-125,-1932,381,-4915
-46,6,-99,-2256,3442,-2595
60,87,-53,-1694,3357,12
52,51,-128,-2765,2212,-103
114,-23,57,-2403,1516,898
72,-126,-101,-2090,613,1324
41,1,20,-793,-240,1741
113,-112,117,-20,-1595,1719
-76,125,50,216,-1857,1012
112,67,-70,735,-1420,286
114,20,114,528,-973,-1004
86,-97,-40,-1,-971,-1670
58,-38,-79,15,-883,-1840
63,-120,96,883,-20,-862
92,82,19,1244,-1624,133
-7,94,-84,906,-295,-101
-63,61,58,1814,-881,949
-50,59,25,1256,507,784
-114,-5,-6,2524,-769,2175
-37,96,-7,-152,102,2704
-40,10,-105,3368,-237,3506
17,114,-28,-2146,178,4064
22,-96,-125,642,-692,3341
52,76,-88,-2063,-1198,3791
58,-104,-118,649,-1145,1906
-111,-87,-38,470,34,1404
96,26,-96,1293,484,728
76,-13,-103,914,-37,826
71,-51,-113,328,-135,256
93,-83,-112,-575,341,31
86,112,114,-726,371,-252
94,-87,37,-5010,2332,-3255
-122,-112,-43,-3187,3409,-4141
119,-83,112,-3308,4741,-4551
-21,89,125,-3053,5300,-4723
-19,-35,125,-3247,5268,-4393
-122,-114,101,-2713,6311,-3118
-27,114,40,-2320,4368,-2588
52,-126,51,-1926,3223,-517
-67,123,-93,-1411,2784,770
-82,-24,-38,-1801,964,1235
-101,-111,94,-1256,-629,2377
23,-84,73,-409,-1658,2466
74,-45,126,900,-2961,1405
-83,-5,58,914,-2480,360
-70,104,67,995,-1674,-1586
-99,-7,-87,151,-1193,-3491
110,63,126,-1057,606,-4383
-31,-47,-118,-2266,2781,-4032
-76,-63,-83,-1395,3878,-812
72,-16,-72,-2250,3188,-463
-82,-121,-92,-2728,1947,134
-25,-42,-31,-2152,1286,1592
-76,107,127,-1643,350,2691
42,-127,73,-399,-122,2940
-125,-25,63,465,-1494,2712
-20,18,-50,19,-1934,1104
-98,17,101,942,-1929,-455
-111,119,91,-168,-1979,-2376
102,-114,-90,-447,-1929,-2177
74,77,-84,189,1801,-1543
51,79,-126,969,-13,-199
-16,-107,-43,-241,95,-1034
-14,-98,-128,-546,-661,-545
31,-71,75,-2044,228,-274
-66,126,38,-51,-451,1789
-83,-74,73,804,-1004,3426
-84,-110,31,1808,-1393,4063
-5,-24,-10,2505,-1135,4842
77,-116,-94,4451,-910,4355
61,12,-65,-763,-947,3029
56,-47,-117,-1523,-615,2413
118,35,-24,2780,1226,1877
61,-92,105,-1143,189,1055
45,57,109,-1708,-167,1248
69,-88,80,109,515,591
117,-83,106,-457,1263,104
-127,-100,92,-235,784,271
-128,-120,104,-460,46,107
-116,-128,79,-1200,-34,-196
-109,108,46,-1070,240,-403
120,73,-90,-4437,2867,-1350
109,107,22,-3625,3382,-3098
5,73,39,-3056,3078,-4575
61,-48,-8,-3127,2614,-5425
112,-88,119,-4037,1378,-5583
-59,-90,-72,-4535,2629,-5888
103,69,-69,-3163,5024,-3824
-30,-22,116,-2697,5968,-2818
124,31,38,-1985,4563,-850
-109,-40,-80,-1676,4387,-391
-36,-109,-112,-1886,3856,691
38,-103,-86,-1696,2445,1459
29,-15,26,-1803,106,1964
-109,56,-6,-1449,-1991,2337
-21,39,35,-74,-2871,2402
-65,15,-3,9,-3032,618
-93,-32,-76,556,-2411,-751
-106,-99,116,529,-1910,-2310
90,-67,-128,-107,-1164,-4698
73,-64,97,-1583,1463,-4655
122,-12,118,-1677,2948,-2546
-108,-60,-108,-2103,3707,-1149
50,-11,-114,-2053,3084,-174
-101,121,-108,-2288,2553,435
-92,-41,-18,-1866,1521,1244
72,94,112,-1587,256,1704
-9,7,110,-1018,-947,1649
92,-100,-121,-26,-1885,1491
-116,-102,24,-402,-2735,-9
113,75,-73,591,-1968,-555
78,-81,-32,386,-510,-1515
69,-19,-70,-401,-443,-1770
-1,79,-93,406,420,-771
119,123,120,-241,-8,-680
-94,-120,21,125,-928,-413
-84,-121,-59,-179,-1086,562
-21,121,81,949,-271,1684
-71,-107,54,586,-1482,2938
-128,-99,92,1497,-1935,3130
-43,-30,49,1716,-1584,4217
-42,77,70,1297,-1222,3851
-72,119,41,4982,-2379,3424
88,-29,-40,-130,1022,1287
35,11,-80,-1449,436,3138
-15,-45,-75,688,-1209,1681
49,-28,-89,-214,-150,794
83,-51,124,-885,820,534
64,-94,113,-797,475,153
65,-115,89,-926,350,-292
82,-124,64,-1150,519,-545
-24,51,-78,-3401,2549,-4064
-103,-79,101,-5174,3334,-5412
55,126,-108,-4422,3824,-4641
50,79,-66,-2903,4916,-3331
117,51,-74,-2558,5964,-3131
96,-105,-125,-2425,6467,-3131
-117,-32,-18,-1666,6006,-769
35,79,-24,-1820,3329,288
96,-125,44,-1462,2758,1571
28,15,-125,-1549,589,1653
-49,-50,-70,-1972,-1314,1918
88,-69,124,-366,-1679,2965
-112,4,-41,77,-2617,1809
-31,-84,87,173,-3433,-323
-58,42,-65,701,-1923,-1421
-83,4,-76,-362,-1133,-3651
111,-78,-108,-1355,930,-4504
-78,-81,-92,-1991,2311,-3494
108,18,-58,-1975,3891,-2079
89,-5,-53,-1897,3007,-80
99,84,18,-2253,2331,432
-90,-71,55,-1703,1807,1563
127,41,-39,-1500,429,2188
67,-45,-52,-1553,-452,2137
-83,-62,-89,-181,-1855,2440
36,46,-38,-13,-2659,850
-118,43,114,606,-2552,-399
106,-93,-88,75,-1872,-2307
67,-103,-69,883,-1925,-2392
8,-9,-119,-702,967,-2136
-10,-37,-109,611,1892,-1008
-12,13,85,663,676,2
60,90,-120,1040,-96,426
43,-110,97,794,-475,678
-28,85,11,1639,-1997,1968
19,47,-50,2081,-1057,2654
-6,-123,-51,1684,-1201,4776
45,-86,119,2403,458,3950
4,120,-12,-237,-1386,4564
28,-34,77,-193,190,2999
64,-72,-121,1266,32,2607
80,83,-86,155,483,1883
102,14,112,-303,692,835
106,-36,-116,-538,24,826
92,-81,124,-641,132,459
87,126,108,-569,462,-1
91,-126,95,-965,678,-147
107,110,44,-850,800,-426
114,111,39,-772,520,-649
-124,103,27,-596,549,-747
-53,86,-12,-2912,3178,-2127
-39,-50,31,-2776,4358,-3608
-84,-44,-113,-3177,5310,-4416
81,-66,-77,-3112,5305,-4009
-104,-43,-49,-3363,4887,-3902
61,-105,-33,-3365,5122,-2208
50,13,-82,-1281,6544,-2523
-12,73,-32,-1953,5399,-1435
-31,124,-94,-814,3883,1051
-60,-93,-64,-809,2080,1148
-65,-10,-86,-1173,683,1473
94,-98,-70,-1005,-891,1902
-53,-43,-50,21,-1865,3027
28,-55,-5,227,-2240,1051
-80,-99,-68,313,-2664,-714
-72,104,-67,601,-919,-2097
-106,-71,-92,35,-416,-3112
127,-56,-125,-990,1004,-4009
52,-76,-112,-1317,2869,-3061
-100,-109,-72,-1315,3811,-1274
1,-71,-89,-1895,2529,-261
77,90,-98,-2076,1789,517
90,-46,38,-1845,1196,1313
78,74,-90,-1222,355,1956
-33,29,108,-692,-933,2246
-104,-110,-126,-89,-1887,1396
-32,-66,46,-31,-2198,459
-128,-118,-58,-475,-3322,-1488
63,-5,-69,-301,-1337,-1558
37,102,-87,-256,135,-2181
-60,-67,-101,-389,1432,-1943
75,105,-91,-243,1067,-1026
0,-125,37,-71,1071,-775
30,-114,-67,-271,358,-1268
58,-8,98,-351,-139,315
18,-96,104,299,-365,452
-55,-98,73,-474,-1536,2291
-52,-107,95,278,-1846,3353
-31,8,-82,386,-2407,4293
-28,-95,-25,43,-2012,3305
-13,-46,18,-522,-1108,2054
16,81,-42,5,-655,1770
9,0,-65,368,-546,1912
25,-33,-94,1,-703,1833
46,125,85,223,-1308,2074
102,24,38,183,-663,1294
-123,14,8,-779,-155,1102
115,-25,-7,-572,-469,1045
115,-50,-57,-1300,144,160
101,-83,-98,-919,-10,-86
-83,79,108,-1823,3978,-2539
-61,111,13,-2913,4210,-3351
49,28,14,-2391,5267,-2619
-95,117,28,-1245,6429,-2257
-47,20,31,-1233,6399,-1817
98,36,25,89,7461,-1835
100,17,114,-158,4702,99
-24,-109,94,125,4144,1029
-53,-14,-84,138,2389,1551
-82,-83,56,-1762,1027,1083
-106,89,50,-1435,-1737,1965
-37,58,13,-151,-2272,2502
-24,-74,-100,-818,-2285,450
-27,-14,-89,-1113,-2650,-2026
-19,117,-32,22,621,-3678
-8,-10,-65,30,1249,-4654
35,40,-66,-311,2167,-3933
-11,-82,-40,-638,4127,-3784
-25,119,19,-996,3485,-1314
107,85,-49,-1426,3160,-651
-92,-89,-43,-1767,1870,1304
-36,54,111,-1798,930,1531
-98,-11,83,-2139,-464,2063
104,19,81,-1364,-1365,2098
64,-49,123,-798,-2015,1330
-124,-2,-33,-505,-2708,735
-25,-22,-118,-834,-2109,-1526
-67,92,-3,-230,-908,-2199
11,23,-66,338,770,-1788
33,122,-74,-1065,-83,-2028
-7,20,-105,711,560,-718
-24,-83,61,-1579,-1289,-628
102,100,-65,796,184,-585
-26,-102,102,683,-2581,1161
-56,-121,38,96,-2413,1344
-91,-98,68,308,-3173,3194
-61,97,87,3497,-4337,4142
66,60,109,-36,-2097,3629
88,121,98,-645,-3117,3421
78,-61,-18,605,-1169,1780
127,-100,-57,37,-209,1366
-93,-123,-60,-236,56,1575
112,15,-117,1048,-279,591
114,106,-71,-2091,131,818
74,59,-116,-2236,519,-103
77,-28,121,-731,1024,-1018
82,-14,111,-562,1219,-1129
85,1,100,-698,899,-705
90,3,80,-544,192,158
82,0,68,-827,111,-420
114,101,58,-2813,3439,-2351
110,91,-71,-2784,3901,-3376
-92,58,4,-2524,5581,-4155
-99,45,13,-1334,6153,-4127
41,55,-3,-2522,6215,-4072
-87,-117,10,-1115,6325,-1930
104,85,9,-1256,6329,-2405
86,7,-1,-1036,5634,-668
-92,71,98,-992,4898,1126
52,123,-105,-620,3582,2247
-9,20,20,-2533,305,304
-68,-92,-36,-2127,-1540,1430
79,122,14,-1326,-2524,1822
98,-40,68,-479,-3414,968
124,-95,-89,594,-2767,-750
103,78,-104,487,-1588,-2927
47,-116,-38,684,-465,-3320
28,-82,-85,-637,1641,-4550
93,-127,-61,-1328,3346,-3320
49,36,6,-1572,3480,-1117
-94,-112,-3,-2052,2930,132
33,44,42,-2434,2253,1116
94,-58,126,-2219,1276,1376
7,-125,11,-2029,-456,2145
-109,-102,-59,-1444,-1871,1737
-108,98,-51,-336,-2767,635
-111,101,-24,405,-2387,-1340
-104,72,19,-23,-919,-2248
-114,-37,-2,290,-408,-1292
101,-48,-59,-49,48,-434
-85,43,110,-397,-1440,-633
7,121,53,-1207,-1019,-70
-45,94,-105,-606,-2504,1684
-76,114,-100,-54,-3659,2820
-47,-79,75,439,-3897,3660
-86,59,-9,-341,-4908,4446
88,-58,74,2217,-1975,2475
103,-30,20,-2351,-2952,3407
102,-37,64,415,-1312,810
107,89,-12,2056,-593,305
60,-110,11,-413,-864,508
36,51,-56,-467,-767,83
38,-14,-96,95,244,-295
31,-13,-105,-149,623,-748
37,-25,124,-195,552,-855
37,-39,105,-218,445,-896
50,-49,92,-223,505,-900
73,-42,68,-421,848,-654
84,-36,54,-915,816,-620
110,6,45,-1695,780,-371
97,101,-11,-2373,4013,-2272
-55,-115,-70,-1495,1865,-1753
-73,-38,23,-2492,3083,-2809
-75,-34,28,-2296,3405,-3092
19,-81,60,-3258,5013,-3126
-103,88,112,-1778,6006,-1875
22,-9,107,-822,7246,-2263
-109,89,101,-1166,6103,-1645
-6,47,85,248,5402,386
-26,22,91,174,3861,691
-47,54,-53,-598,3597,-874
24,-9,-111,-1604,1324,-106
-121,-20,-77,-1158,-1241,2241
49,115,77,-880,-1592,2005
-113,2,38,-5,-2721,941
92,-105,-67,-224,-2775,-1684
63,40,-91,979,-692,-2141
35,-11,-22,-288,-697,-4329
-31,-13,-42,-306,2253,-3689
127,-102,-22,-1014,3572,-1953
-119,29,17,-1322,2779,-318
60,-76,-117,-2187,2345,338
-109,63,-31,-2031,1824,1314
-74,14,50,-1970,753,1815
126,-14,-15,-1272,-396,1883
31,-109,-22,-896,-1578,1722
85,23,7,-390,-2587,-257
-64,-32,-101,253,-2424,-1570
119,-105,-2,-902,-1850,-2449
-64,126,-20,26,-298,-978
16,40,-68,270,-216,65
92,93,-128,-831,-524,-696
-63,-126,28,-35,-145,941
-31,-88,-87,-857,-1187,916
-77,-47,-94,-1093,-1972,1719
117,5,-78,-485,-2803,2698
53,-126,28,-205,-3899,2577
99,-124,-29,830,-4642,4306
-75,-23,-4,223,-2850,1736
26,55,-36,-1045,-1557,2327
50,-122,97,2114,-1602,1459
70,111,51,1072,-1105,381
40,105,15,-1302,-1528,681
25,18,-65,-611,-947,145
39,3,-107,-280,97,42
29,6,120,-320,783,-303
26,8,103,-357,711,-500
35,-9,75,-13,520,-567
50,15,66,-805,448,-571
75,11,54,-1002,542,-625
99,-95,13,-2556,3189,-2501
-113,-64,-41,-2700,4820,-3048
100,24,46,-3302,4771,-4383
-98,-18,61,-1855,6253,-4184
-38,-37,69,-2196,7806,-4871
39,-61,66,-1930,8166,-3955
55,-15,22,-1229,5795,-1690
55,106,45,-734,5124,5
-109,125,-86,-1061,3401,1422
-79,-79,80,-2019,1733,1001
103,83,-113,-2317,-1328,1848
23,82,-29,-1337,-1953,2435
110,-124,55,-974,-2531,1397
96,3,29,513,-3226,483
70,-76,45,519,-1808,-2513
18,17,-26,179,-937,-4216
-25,-17,-75,-344,1758,-4746
43,26,-57,-996,4098,-3082
-26,-95,6,-1299,3500,93
70,-84,-51,-2629,2699,-344
-41,86,-9,-2283,2093,1270
28,110,-37,-2151,309,1064
-71,-9,-46,-1679,-1082,1400
58,-106,-86,-199,-1590,2171
-32,96,-20,-26,-2600,217
-102,61,-90,415,-2220,-1547
120,-4,-46,161,-1564,-2160
111,-53,-21,-166,1082,-1966
-14,-66,-38,618,-63,16
-17,-37,16,1873,-824,285
-59,118,-22,705,-1968,1439
23,55,7,1650,-1438,2327
-107,-17,-15,2675,-3092,2639
-65,32,-97,1193,-2087,4243
-76,58,-112,1465,-1220,3392
63,-16,120,301,-373,3715
2,61,-112,-1290,-585,2716
114,-77,114,1189,-176,2583
-90,116,-103,-1305,-167,2112
74,80,126,394,143,304
114,72,-86,-286,-62,1618
71,50,-120,-1596,24,892
84,-31,127,-828,-138,303
105,-46,94,-605,537,-37
103,-3,59,-1620,721,-617
77,-112,27,346,769,-1240
99,-111,28,825,750,-897
123,-66,39,-335,517,-477
-110,-59,21,-932,497,-394
-95,-75,8,-623,465,-536
18,24,9,-2876,2999,-3617
-25,5,-51,-1788,2720,-4233
-94,-119,21,-3367,3370,-5050
-92,29,30,-1693,3883,-4041
-101,-41,27,-2054,5197,-4382
13,68,19,-1691,5125,-3902
-6,106,3,-1051,6698,-4089
118,-33,29,-1033,4285,-1006
55,102,82,-978,3578,1156
-123,-83,-64,-1597,1580,1284
71,20,-97,-1980,-503,2032
-26,33,117,-910,-1418,3001
68,-40,94,-502,-2391,1921
63,-55,75,67,-3919,-445
-6,87,-14,667,-1902,-2204
-20,-38,-83,614,-277,-3712
-54,-5,-118,-390,1159,-4473
-17,29,-103,-1898,2594,-3778
-92,-72,-60,-1482,3785,-1075
36,1,-78,-2400,2832,-669
-78,-108,-31,-2661,2263,14
-22,-6,82,-2360,1648,1793
-76,-31,117,-1637,485,2601
32,-119,86,-1226,-1319,1395
109,-15,50,80,-2164,1131
-107,-39,5,407,-2638,-687
-89,29,-54,486,-2369,-1475
-123,23,120,784,-1262,-581
-66,14,-60,687,-855,-325
-53,42,-117,1201,-2550,992
-26,-107,-47,703,-398,579
-49,81,72,2942,-1869,1872
-94,46,3,1102,-1908,2098
-48,8,-106,1735,-956,2790
-63,95,-119,-121,-522,3003
-67,127,-120,73,-848,3713
15,120,80,1426,-302,3046
61,-126,38,2630,477,2477
-100,94,-116,-2613,1630,1845
98,-126,78,115,357,1258
110,41,97,972,-147,997
100,3,124,-341,54,528
102,-41,106,-988,-29,453
104,-79,89,-1055,-44,379
101,-114,52,-997,119,-16
112,115,29,-573,570,-388
113,114,25,-366,569,-459
-126,-118,18,-646,589,-312
-110,-108,-1,-690,519,-392
-83,-98,-14,-695,576,-338
-96,23,-28,-4320,3344,-2397
110,-88,-90,-3582,3254,-3428
-70,72,-21,-2654,2753,-3539
52,117,88,-1933,2016,-3650
30,-79,93,-2626,2751,-4068
44,116,125,-2592,4401,-4203
17,72,-115,-2768,4200,-3246
0,-99,-108,-2100,5152,-3251
-9,-24,120,-1659,5454,-2114
16,-83,-32,-815,5532,-122
46,66,-102,-1061,3958,822
103,-100,48,-1560,2184,1003
32,75,-107,-2313,-1015,1591
-30,125,-118,-824,-1919,2995
-41,61,-100,-166,-3508,1880
-10,85,93,-707,-4194,-2256
-55,63,-46,629,-2155,-1802
-97,-109,-23,-30,33,-3623
-126,-121,-71,-1089,2309,-3873
-127,-75,-45,-1376,3994,-2150
-72,-98,-5,-1609,3693,-229
35,53,-104,-2460,2937,-317
-67,-79,127,-2167,2111,1153
-54,83,-36,-1513,835,1666
-114,-25,-88,-1506,-824,2126
46,-41,-69,-394,-1636,1868
96,104,-23,260,-3294,988
-88,74,-69,-73,-2935,-1010
88,-49,-24,-63,-2539,-1999
59,-42,-66,-883,670,-2989
-70,43,-67,260,1345,-983
-127,25,-93,141,383,-721
-50,-122,-18,-395,-1297,-1054
57,-92,82,299,-1491,-599
36,-87,37,1665,-1805,1864
1,11,-116,3557,-1872,2484
-23,98,-72,1678,-479,3142
-53,124,-57,2856,-2054,3850
93,39,95,354,147,3545
26,125,-86,-1519,-1673,3859
105,64,-120,-1981,-1291,3350
124,-37,-110,-913,-1498,2467
-100,-32,-36,-548,-1715,2642
82,-6,77,1784,678,341
67,-5,81,1408,649,-136
76,1,92,323,231,7
64,-28,87,-534,182,-297
70,-76,81,-660,432,-845
79,121,58,-213,734,-1148
87,115,42,-104,812,-1114
76,-93,-97,-1969,3406,-3324
80,-117,99,-3564,5237,-3967
-82,67,45,-1432,3394,-4247
-99,-128,56,-2858,3601,-4451
87,57,65,-1746,3859,-3779
81,16,65,-2273,5851,-4432
-33,83,59,-1532,5818,-2958
-40,3,32,-1548,5629,-1786
54,82,-111,-331,4899,1069
-126,68,98,-1807,2725,23
-103,4,-117,-1737,133,1215
52,106,117,-1835,-1711,1277
-112,114,-66,-106,-1697,2317
-103,-54,-93,190,-3224,441
-48,-84,-1,618,-2203,-2013
-28,84,-21,1137,-119,-2291
-52,20,-76,-102,781,-3586
-44,125,-81,-238,3967,-2616
16,71,-40,-1111,3524,-812
59,-55,-76,-2240,2451,-823
-75,113,-53,-2633,1807,38
-7,-8,-10,-1871,896,1262
-95,-31,-122,-1584,-652,2099
37,-42,107,-755,-1512,1675
20,112,125,-362,-2845,-87
106,0,-21,-94,-2049,-1444
120,-9,107,115,-1609,-1450
85,63,-11,-225,-93,-1300
-123,50,-49,312,-202,-562
61,98,122,856,-1203,-442
-62,-89,-3,316,-2280,438
127,-32,-56,-168,721,153
24,126,29,530,-1485,2411
-2,-44,-120,1785,-610,2663
-90,53,-80,1218,-2019,4466
-6,-60,-83,2388,-2735,4898
109,-34,96,3108,-1700,4689
113,45,-102,-4402,-892,4124
21,-56,90,-1951,-308,1050
-79,-58,-62,-669,-771,2375
97,60,112,1448,-401,907
-114,92,-127,553,-451,-140
105,25,102,-878,402,-870
78,-49,75,-791,829,-813
69,-98,64,-406,757,-739
87,-102,51,-126,673,-643
120,-96,30,-231,664,-559
-123,-82,24,-630,560,-504
-104,-71,14,-838,392,-383
-99,-63,16,-806,341,-270
45,-65,-100,-3709,2613,-2773
-5,12,60,-2307,3773,-3848
97,119,33,-2957,4402,-5060
60,-121,83,-1550,3707,-5060
-38,-118,59,-2275,4192,-4517
-39,-124,41,-1665,4621,-3941
71,64,21,-1827,4716,-3735
-11,5,0,-1498,4877,-2095
95,-46,-45,-1889,4095,-689
-65,61,-57,-928,3670,1118
-13,76,24,-1970,1837,1120
-61,12,92,-2114,-703,2075
35,-122,66,-788,-2008,3072
2,-112,61,-125,-2696,1645
-17,64,-9,-133,-3289,-1454
-34,63,-76,714,-1475,-2344
-61,-46,-70,215,-115,-3730
-80,117,-105,-183,2850,-3119
100,-124,-72,-1220,3634,-1820
-7,-126,-27,-2039,3475,-1269
-52,-34,60,-2150,2890,611
-4,-72,42,-2460,1358,763
-5,125,81,-1810,-233,1669
125,101,73,-1085,-1331,1857
-47,1,92,347,-2204,1957
-90,70,65,173,-2513,-372
-127,-96,95,3030,-1433,-10
-122,35,0,-671,-547,-2807
-128,-5,-67,-749,-1580,-2512
-52,67,122,1031,1386,-190
-3,40,-54,3059,168,930
33,123,-127,705,-1047,-25
3,70,3,754,-1533,920
-54,96,-12,453,-1435,2324
-91,89,-78,617,-883,3701
-44,125,110,2144,46,4368
-52,95,-93,-282,-549,4544
-19,110,41,3253,-827,3331
36,-113,-67,-2765,118,3662
26,86,80,645,141,2903
-96,49,12,2243,1422,966
-83,110,-101,-996,512,1085
108,-25,112,-2036,89,1282
79,-70,99,-1919,-442,883
80,-118,61,-1292,1,239
95,89,26,-118,829,-719
111,99,33,30,1017,-795
117,95,37,30,749,-665
-111,91,25,-59,499,-410
-87,-125,14,-753,468,-391
32,34,-38,-4105,1875,-2522
3,-128,2,-4079,3899,-3956
-61,-111,-96,-2986,5740,-5270
45,-112,-95,-2504,6356,-5622
-8,23,111,-1777,5694,-3697
-11,-95,53,-1996,4487,-3230
-114,-112,4,-1466,4866,-1419
-88,4,-35,-1364,4418,-504
17,-123,64,-1242,4276,711
10,51,31,-1256,3429,1865
43,-80,17,-2158,-347,1917
-51,16,-14,-1857,-2116,2358
112,56,-18,-71,-3093,2758
-6,-113,34,-547,-3221,-1355
-64,99,91,505,-1668,-2160
-75,72,-79,-3,-1165,-3598
-112,116,-128,-336,1432,-4016
13,72,-112,-2305,3469,-4325
-40,48,-58,-2121,4146,-864
-57,-124,121,-1536,3368,1447
-24,-86,85,-2420,2019,738
40,43,113,-2058,798,1378
5,-71,39,-1499,-818,2153
92,-107,74,-84,-2097,3416
49,-100,-35,-1093,-2932,-11
95,124,-14,-325,-2448,-1811
101,-97,0,274,-312,-2303
85,-117,-41,-493,66,-2680
-55,83,-52,-154,1085,-1864
97,56,100,593,215,-795
-59,-84,2,-26,-466,-1336
-9,-46,-101,708,-1400,-514
89,4,100,-620,810,-400
-106,124,75,1278,-1196,1445
-109,-115,-6,196,-896,2460
40,-55,-125,261,-2198,3265
121,64,111,2108,-1467,4628
-89,25,36,3866,-1848,5761
-51,53,44,777,-2130,3836
4,13,-2,-289,-1249,3042
94,-15,-85,-1459,573,1753
101,-104,-77,420,508,868
121,46,-78,1351,46,1706
79,42,-96,-180,-362,1183
38,-45,116,-677,-426,325
54,-88,91,-998,148,-150
61,-124,78,-657,477,-554
71,115,65,-213,698,-761
93,-119,60,-466,672,-642
127,-98,49,-763,728,-891
119,-3,1,-3849,3560,-2368
38,-125,-47,-2290,1905,-2446
-89,-110,-75,-4332,2489,-4315
24,-84,80,-2627,2386,-4346
26,-47,120,-3221,4762,-5354
99,73,-104,-2106,4750,-5128
77,-4,-126,-1652,4919,-2600
117,109,84,-1769,4242,-2226
-44,-63,51,-1109,5206,-1759
-33,-26,-20,-1500,3787,-550
92,22,-80,-827,3643,1356
-120,93,0,-1428,2049,1941
-118,2,-118,-1973,111,1815
54,-97,77,-1226,-1630,2744
99,-70,116,-1434,-3964,420
-37,40,-31,-1386,-4695,-1338
-69,119,24,900,-1080,-893
-79,116,-41,-551,-341,-3977
-127,23,-71,-581,1953,-3889
33,-33,-64,-758,3338,-3032
89,-19,-40,-1043,3837,-1964
78,115,-70,-1006,3549,-67
103,-52,-35,-1895,2348,615
-80,82,48,-1520,1705,1583
119,-1,-48,-1666,139,2529
45,0,-38,-1037,-523,2620
-86,49,-76,-724,-1712,1175
-62,53,70,-401,-2709,-805
-116,-103,-34,-239,-2497,-1396
97,-95,-49,271,-1524,-1350
-85,-28,-68,-232,-1008,-1705
88,85,-120,1049,-990,126
-64,75,7,1897,-1175,-780
-27,-63,-90,1096,-1637,443
-15,75,1,1361,-1385,1210
-88,-33,-70,3005,-618,1607
-65,127,-76,-36,-784,2882
-57,33,82,2677,-767,3186
33,-16,-128,72,-228,3678
18,9,99,45,-767,3799
60,-8,-109,152,-1185,2801
94,-14,-116,-1114,-457,2771
-123,84,-76,1369,-1019,1934
124,35,97,-551,1100,433
94,-38,51,-127,1233,-141
66,-69,49,-2,417,-345
65,-97,54,-345,191,-520
83,111,39,-35,731,-736
102,108,29,-132,669,-776
119,126,26,-461,448,-581
-33,-128,-24,-3653,5944,-3968
-90,46,26,-3215,3521,-3816
102,112,55,-3623,4983,-5702
-30,113,113,-2564,5165,-5506
38,-117,118,-2603,7043,-5958
113,5,87,-1507,4381,-3947
-28,120,45,-1617,4022,-2405
-55,63,13,-1296,4681,-1151
-11,93,87,-939,3885,82
25,81,-84,-1878,2745,690
110,124,-10,-1593,1778,1769
72,116,63,-1778,-812,2634
-45,-48,95,-1313,-2230,2167
31,68,113,-296,-3384,1405
2,-44,98,247,-2874,-357
-16,117,95,574,-1646,-1885
-60,-18,-65,73,-759,-3715
-93,-49,-120,-680,1401,-4002
-83,-80,-106,-1528,2636,-3538
77,22,-55,-1693,3748,-1827
-12,75,-62,-1669,3431,-734
88,-105,-19,-2486,2395,-348
-44,-77,-121,-1939,2386,1160
-93,14,18,-2444,537,1471
107,-19,-55,-1515,-524,2547
19,109,-10,-1230,-1278,1863
-107,-50,-44,-706,-2457,923
-83,-61,66,-58,-2766,278
-85,-36,-43,161,-2642,-1039
120,89,-31,43,-963,-2686
92,85,-52,-276,270,-2337
-29,109,-61,-624,1422,-2292
124,-17,114,-305,642,-421
-78,96,20,329,398,-485
-45,-20,-27,-118,-268,-841
6,-16,-103,1216,-364,184
69,-5,124,1468,331,706
-6,-93,95,-165,-489,992
-46,64,67,234,-649,2464
-3,115,58,236,80,4122
-22,4,98,723,-575,4866
3,47,45,1847,-1419,5694
-43,-123,21,-326,-3264,5230
18,-72,-76,2890,-2410,2884
83,8,-55,-663,-1071,3773
-12,50,55,-1441,314,1699
24,-69,44,-25,172,881
31,-27,92,-953,-3,567
-10,-78,62,-927,344,-385
1,91,56,-351,1009,-1304
