AccX,AccY,AccZ,GyroX,GyroY,GyroZ
11,-127,48,-2803,2932,-3756
-85,-105,-106,-1946,2677,-3989
-119,90,-14,-4764,2571,-4527
-33,-109,119,-4429,2016,-4326
47,26,5,-4715,82,-3786
53,-37,-59,-4058,-915,-3537
28,-80,-9,-3132,-443,-3645
-39,99,-24,-1865,421,-682
-60,-47,50,-848,-212,2179
34,-16,27,-1036,-911,2940
48,48,104,3322,-2928,1902
11,-21,-50,1324,2317,-3976
-36,95,87,-3712,64,-1040
72,-40,125,2145,-279,43
-30,95,26,782,-1909,1279
53,81,39,1476,-2470,2898
37,97,-29,3113,-3057,2974
-91,-81,61,3815,-4814,4386
-37,93,-66,1383,-2454,3822
23,-30,-36,2328,-1829,2988
117,89,7,-133,-2468,3749
119,35,20,1296,-1393,1732
73,71,76,26,-2948,3952
79,-90,47,513,-2174,3001
95,-55,-5,-357,-371,-418
33,62,-49,-835,1310,-1854
-6,98,127,85,1066,-1558
-4,-83,-92,-576,-401,219
21,-111,-114,-78,-477,-30
62,-92,-114,-718,-187,-217
86,-114,-125,-493,-34,-451
79,-126,118,-460,-94,-279
83,-87,115,-1023,-432,-13
87,-87,116,-819,-439,95
104,-73,118,-732,-304,142
86,-67,119,-616,-225,164
100,-48,110,-777,-131,258
-99,-26,78,-523,-96,159
-111,-34,59,-113,-227,89
-127,-10,70,-602,-429,122
127,-12,86,-659,-448,157
-106,-27,90,-261,-428,316
-89,-20,91,-120,-350,228
-94,-23,92,-307,-410,252
-90,-20,96,-563,-347,252
-92,-39,97,-344,-340,210
-98,-51,93,-283,-250,244
-106,-55,91,-312,-318,333
-99,-57,84,-201,-423,325
-94,-37,92,-582,-527,407
-60,16,-12,-3980,3640,-3478
-35,-8,-50,-3958,4309,-4526
-60,-99,119,-4077,3645,-4210
127,-85,68,-4661,-607,-3109
-19,57,-6,-1510,-157,-2331
56,-70,107,-708,-336,-1165
11,34,-26,-993,-1502,633
92,122,26,-918,-3334,5464
126,-119,83,1344,-3973,1124
67,-105,-33,4793,3611,-3885
77,-10,102,-4572,147,-1948
83,121,-48,1281,397,-937
127,58,96,1642,-29,880
-80,104,50,1084,-1322,1837
-32,-21,54,3389,-1533,3312
67,-70,6,1867,-1431,3620
106,-36,-79,1565,-2908,4192
-66,125,-105,741,-2049,3684
23,-45,-5,39,-2081,2832
57,53,95,-802,-2920,2875
1,-18,101,-1070,-3376,3158
-108,45,-102,-515,-2879,3408
30,-60,-96,-961,-288,900
69,-124,45,-98,767,-2100
94,6,-16,-1226,862,-2063
61,127,-91,-691,-68,-755
23,-118,-105,-794,-561,176
61,-76,-86,-476,-408,420
117,-4,-88,-660,-312,199
-103,6,-99,-740,-61,-250
-106,-12,-114,-640,-74,-547
-116,-18,127,-863,-119,-469
-119,-27,114,-753,-269,-327
-123,-16,115,-901,-462,-29
125,-16,113,-721,-624,213
119,12,127,-817,-755,350
127,14,-105,-518,-673,472
-108,4,-94,54,-480,606
-106,10,-105,515,-526,543
-94,4,-116,459,-438,466
-92,29,-110,-738,-307,269
-92,7,119,-882,-161,178
-98,-14,109,-385,-124,215
-95,-16,101,-225,-121,293
-80,-23,99,93,-197,323
-76,-9,92,-246,-68,242
-50,-22,86,-156,-150,275
-40,-28,86,-106,-256,250
-67,-36,101,-287,-318,77
-66,-41,111,-608,-341,144
-45,-47,52,-4557,2324,-5522
-30,64,56,-4510,2489,-5439
-46,33,-96,-5256,3781,-4899
-97,-98,-92,-4194,1747,-4288
-37,-126,-31,-3932,-247,-2329
112,-15,4,-2561,-1640,-290
-110,119,-106,-1762,-458,735
-55,-73,-98,1337,-79,2214
-101,-28,88,-377,-3925,3087
89,114,64,2581,-1074,-1192
88,19,-45,-1685,1862,-2573
122,-17,-35,-758,1826,-1785
-45,49,69,918,-784,670
122,6,-38,1813,-2214,2458
-94,84,-56,2120,-2850,2635
108,-116,93,3270,-2466,4253
-79,88,-6,1751,-3067,4221
-59,120,35,1259,-2723,2474
45,80,30,-1042,-1126,1802
22,-6,-43,255,-1970,2486
127,-80,120,609,-2042,4149
62,54,57,459,-3577,3785
43,-99,-92,-486,-2540,2068
106,121,62,-1346,927,-1619
64,123,-36,493,1532,-2339
36,113,-59,-97,97,-324
27,-117,-75,-763,-957,518
77,-76,-49,-843,-884,426
116,-85,-64,-411,-225,-231
121,-74,-86,-895,219,-526
101,-107,-93,-883,-191,-166
115,-96,-107,-888,-247,105
126,-78,-112,-638,-187,3
-122,-54,-123,-740,-254,-68
-121,-67,-124,-505,-338,213
-120,-38,-112,-606,-517,316
-103,-13,-101,-564,-349,120
-94,-22,-100,-392,-27,-47
-109,-6,-83,-486,-549,295
-98,5,-83,-739,-475,335
-93,1,-87,-542,-463,278
-82,7,-87,-571,-390,165
-84,-1,-90,-557,-338,214
-88,-7,-92,-462,-325,218
-84,-8,-95,-492,-250,181
-80,-12,-102,-452,-279,158
-61,-17,-106,-378,-294,225
-54,-7,-103,-449,-420,181
-73,-14,-98,-401,-353,185
-74,-9,-103,-397,-361,171
123,105,1,-3402,2437,-3782
-33,62,11,-3817,3042,-3936
-22,37,120,-4638,2940,-3960
-77,-101,-30,-3077,984,-3958
-93,-32,-104,-3865,-2017,-2882
-21,74,-46,-2467,-814,-3194
25,-109,-90,-1525,-321,-1044
-64,22,80,-1066,-926,1298
-80,12,17,-199,-930,2817
-73,26,118,2211,-2260,2814
-57,54,-19,3835,-1197,1151
37,-30,-127,-2830,956,-2578
-53,111,-101,-2309,2035,-2194
77,28,17,1342,-590,812
101,-121,110,-442,-363,980
-23,81,52,730,-1514,1496
-41,47,-66,1784,-1551,2302
21,89,-100,2113,-2814,3085
55,63,-45,3136,-4641,3534
-30,-46,108,2572,-3687,3331
9,-124,-40,-146,-3323,2400
-4,-81,-109,1096,-2055,1970
124,-83,-93,426,-1842,3743
-9,-68,-20,663,-1546,3072
-120,-124,85,660,-2931,3878
-112,-20,83,-1770,-76,15
20,34,5,-1136,1518,-2360
92,-114,-58,-614,2036,-1874
58,119,-81,-480,829,-994
14,-126,-89,-540,-237,-207
66,-95,-113,-930,-184,-23
110,-92,-122,-675,-310,-209
-112,-74,-126,-814,-183,-319
-118,-88,115,-407,-206,-454
-124,-82,110,-659,-138,-213
114,-81,96,-749,-406,67
113,-76,98,-534,-752,540
115,-43,119,-628,-902,738
-122,-28,123,-473,-731,790
-118,-33,126,167,-834,671
-121,-16,-120,66,-768,479
-120,-46,-122,693,-842,149
122,-67,123,1102,-712,105
-121,-13,127,-631,78,122
-117,-55,92,-748,241,-221
-116,-103,69,84,-80,-287
-88,-94,68,-340,-26,-64
-76,-91,65,-544,-103,254
-92,-106,64,-77,-248,237
-73,-85,76,-484,-113,317
-99,-59,59,-4292,521,-3795
-14,-83,-120,-4152,963,-4334
125,15,49,-4978,1276,-4345
-18,-52,63,-4243,-166,-4925
45,36,-26,-4577,-1513,-4151
-55,-21,73,-3325,-999,-2398
67,67,-7,-2123,19,-2488
20,74,5,-3079,52,-57
5,28,-51,-1725,-1079,2263
99,99,34,-2223,-666,1997
-8,-114,75,6270,-2493,4725
-10,-123,40,2286,1237,-3395
-19,-18,-127,-4369,-584,-1765
29,39,78,23,997,-1523
37,12,-76,1131,-487,641
-108,39,-21,653,-900,698
46,107,-35,88,-1775,1671
64,-8,-67,2407,-2400,2912
-99,59,-73,2741,-2791,3394
12,127,78,3163,-3688,5084
-126,-18,-88,2836,-2910,3628
-20,4,-66,908,-1688,2744
-115,78,-107,825,-1601,2765
102,96,117,268,-1387,1881
-121,78,-127,155,-2166,3015
-125,-115,121,-1001,-1210,2032
71,39,29,445,203,-449
22,59,-13,-608,408,-1283
31,-58,-88,-925,642,-1318
18,124,-107,-332,122,-905
0,-118,-125,-760,-84,-389
33,-114,121,-885,-321,-131
68,-103,-127,-795,-422,53
86,-94,-125,-598,-304,-57
86,-91,126,-700,-208,-70
80,-91,121,-764,-285,176
74,-80,117,-696,-437,504
79,-56,115,-616,-402,629
86,-46,108,-172,-442,626
121,-19,106,-416,-311,579
-100,-1,103,-520,-415,569
74,-25,100,-15,-459,-96
109,-4,124,-1111,-347,94
-114,-35,112,-526,-329,167
-118,-36,106,-87,-235,-1
-110,-11,103,-694,-292,22
-120,-24,100,-632,-405,-28
-114,-29,105,-586,-313,26
-110,-22,100,-600,-308,99
-107,-22,97,-432,-365,127
-83,-12,68,-3751,3428,-4007
-83,105,-72,-2268,2918,-4293
-82,61,-110,-3638,-556,-3968
101,70,-66,-4617,974,-4509
66,46,10,-4678,-11,-2555
-104,2,-48,-2081,-504,-3527
-4,94,37,-2247,139,-2259
100,-24,73,-2194,-827,772
105,111,111,-403,110,657
39,115,38,-978,186,2231
31,53,72,-2182,-4449,2972
-88,81,76,1010,-1929,25
-124,119,-49,1842,2544,-2205
-61,25,-96,-1643,718,-1759
-51,-128,79,848,260,-417
-125,127,117,271,-355,-145
-128,116,71,319,-1509,1275
75,23,-33,1950,-2216,2358
-82,102,-51,2124,-3125,3404
51,96,-49,2838,-3495,4219
98,-75,-33,1664,-5506,4365
23,-91,24,790,-2519,3740
-120,-84,-70,1064,-2964,3146
-43,104,-128,-42,-2040,1219
77,70,115,82,-2504,2870
0,-72,121,-533,-997,2060
60,72,6,1399,891,-1657
-21,2,-56,-218,1614,-2671
21,-46,-107,-1296,1196,-1330
-18,-103,-118,-465,-309,-434
27,-103,112,-289,-408,82
30,-107,116,183,-643,447
-11,-62,-89,-349,-1152,648
65,-47,-98,-703,-800,405
105,-81,-125,40,-117,-161
109,-80,117,-541,73,-330
92,-67,-113,-1248,-450,363
43,-100,-116,-122,-585,526
73,-52,-102,-692,-299,460
-126,-41,-120,-464,-191,332
-109,-29,-128,-460,-289,231
-124,-11,-126,-958,-73,-2
-124,-39,126,-682,-79,34
-122,-47,114,-272,46,-10
-122,-47,102,-84,-148,26
-108,-41,96,-145,-134,-8
-92,-45,91,-221,-118,-78
-77,-57,86,-224,-157,-68
-68,-69,94,-206,-212,71
-73,-69,97,-339,-379,244
-33,97,-12,-2429,1897,-5602
-63,-36,-55,-3953,1091,-4753
38,41,62,-2789,-1143,-3949
108,-8,32,-3420,-2042,-3311
-102,31,-100,-2157,-1403,-3353
-15,3,14,-1935,-2099,-2396
101,-60,122,-3082,-1108,-109
-37,-115,-35,-2371,-573,981
124,117,-120,-2450,-2160,2886
-35,9,38,-552,-3002,2949
23,-117,-35,4781,-806,1844
86,117,70,-211,672,-4329
53,11,50,-3309,1249,-2112
-2,12,-81,1088,685,-548
24,60,127,1378,-1354,1644
-92,-108,34,543,-780,1490
108,95,11,1462,-1880,3044
-61,-103,35,1802,-3144,3272
68,60,21,1906,-3330,3843
-121,-118,37,1425,-831,1892
104,-57,2,287,-612,2302
120,2,64,549,305,1936
-85,43,74,3,-2270,3078
2,49,18,878,-2727,3389
-81,112,71,127,-1910,2050
-84,-30,-26,13,-425,404
-66,-89,-7,226,-764,1454
-96,-76,-31,355,-677,944
105,-85,-67,155,-275,-329
90,-117,-86,-501,156,-917
79,86,-112,-277,127,-863
72,91,-125,-790,-64,-413
57,85,105,-582,-449,94
81,96,107,-429,-669,386
101,-127,113,-526,-785,358
118,-96,127,-724,-630,126
107,-119,118,-265,-340,-174
102,-114,125,-604,-409,-58
102,-103,116,-953,-361,242
105,-98,102,-773,-378,342
119,-46,88,-1228,-337,364
-124,-37,72,-933,-379,246
-120,-24,70,-696,-324,43
-124,-24,67,-613,-262,-79
-114,-25,57,-752,-250,-17
-84,20,57,-1342,-365,190
116,-8,51,-496,-499,-297
-110,2,83,-837,-509,-107
-96,1,82,-778,-338,-41
-95,-6,76,-470,-324,-41
65,-120,62,-4811,5332,-5382
-122,-22,31,-4303,3873,-4884
64,54,-92,-4965,4082,-4745
-53,17,77,-3325,2115,-4683
-103,-68,-79,-4400,-161,-2930
19,-95,-89,-3369,-842,-2701
72,-90,74,-1069,-580,-757
4,17,-81,-1090,-590,978
77,79,-5,-1540,-3263,3640
72,70,48,3638,-2551,3548
85,-121,31,6026,1045,-823
47,73,122,-6219,-1593,-1768
-123,-73,25,131,1149,-1858
84,113,-33,954,837,-460
-33,-72,-70,131,-1095,784
8,95,97,1313,-1687,1366
-21,0,62,2682,-2213,2824
-92,115,-14,1799,-1245,2947
34,-2,120,1723,-3935,4618
126,-114,-124,1858,-2847,2981
-79,-85,-113,250,-2518,2607
52,-100,-112,665,-3307,3111
-25,3,70,20,-1910,1664
-122,62,119,0,-2743,4026
36,-124,86,696,-1239,2026
24,-113,59,-880,410,-1298
50,24,-38,-1814,1879,-1492
-9,94,-121,418,360,-526
1,-56,-125,-812,-246,578
61,-60,104,-395,218,-79
101,-46,103,-669,136,-209
105,-76,104,-374,154,-243
79,-76,109,-691,-72,-249
115,-79,122,-890,-310,141
-112,-80,127,-263,-305,155
-123,-54,-113,-696,-190,119
-113,-55,-109,-506,-108,30
-100,-73,-116,-220,-137,227
-95,-53,-123,-453,-228,249
-99,-38,-118,-657,-376,361
-100,-39,-116,-487,-298,347
-84,-23,-112,-416,-369,322
-98,-15,-100,-636,-387,286
-72,-11,-83,-778,-349,305
-25,-18,-79,-323,-221,175
-80,-26,-88,-545,-229,15
-86,-20,-74,-966,-462,291
-69,-36,-83,-359,-272,94
-78,5,-80,-972,-417,136
-68,-6,-87,-655,-329,113
-117,76,-9,-2138,2908,-4205
121,-91,52,-2998,2715,-4563
-58,-40,49,-3758,3699,-6011
-63,-27,73,-3059,5659,-6105
-77,-113,-117,-3905,1045,-5680
55,-60,3,-3322,-1637,-2275
-88,-100,-109,-1880,-1150,-1505
-89,-21,85,-2061,-1629,-78
-47,-123,107,-949,-1085,997
127,-122,81,-308,-779,2494
100,84,83,1692,-2931,3097
-115,127,-5,290,-1254,-1008
-12,124,-76,-48,1686,-2103
19,-16,66,-492,854,-1482
13,75,-46,989,-812,682
1,60,99,403,-1036,1832
-16,64,24,1071,-1134,2195
-22,82,-13,1708,-2152,2843
72,87,11,2635,-3073,3906
-108,-115,52,1826,-2753,3777
-6,-91,-99,1447,-3007,4473
28,-36,-37,69,-2786,2671
-110,-105,-54,-268,-1381,2013
-78,-35,107,-36,-702,1489
-21,-18,101,-509,-1803,2787
-8,47,119,70,-1822,2188
-127,53,71,-579,55,-1203
117,-38,17,-1344,1534,-1950
55,44,-68,379,295,-929
41,124,-54,-466,-502,539
72,-115,-80,-494,-276,115
117,-107,-85,-425,-91,-2
-124,-114,-99,-556,-141,-7
-125,-110,-91,-564,-438,176
-126,-102,-85,-557,-362,197
-128,-90,-78,-557,-467,338
-125,-66,-69,-567,-581,343
-118,-52,-61,-628,-538,275
-115,-43,-62,-629,-400,130
-107,-47,-70,-619,-235,153
-105,-39,-74,-605,-345,161
-94,-28,-81,-660,-258,61
-93,-37,-85,-573,-309,48
-90,-27,-91,-750,-308,87
-81,-27,-96,-572,-360,25
-81,-21,-93,-626,-365,76
-81,-11,-88,-718,-427,107
-74,-11,-84,-576,-359,119
-71,-3,-81,-590,-375,70
-66,3,-76,-794,-338,147
74,80,3,-3533,3777,-4605
-19,3,44,-3049,3819,-4645
86,94,-111,-2591,6639,-5481
-72,1,83,-4115,3457,-4895
-33,-65,59,-3352,-212,-3522
-101,73,45,-1737,237,-2629
68,-94,29,-1861,-944,-759
-48,-91,127,-307,-1701,2020
114,-30,-49,452,-1804,3096
-41,-37,-105,1927,-2609,3900
20,-25,-71,2607,64,127
-62,107,123,-2225,1712,-4742
-7,-50,80,-335,2431,-2161
-2,124,47,345,-215,832
-36,-4,99,203,-928,1466
122,-97,-59,468,-1823,2981
41,6,-80,662,-2697,4445
87,-24,-19,2203,-4226,5004
-74,-116,119,3700,-3792,6821
-52,54,-92,-409,-2208,3911
86,70,-94,-132,-1635,2502
-104,-10,116,-219,-1327,1116
1,53,-104,-1608,-2295,3046
46,-59,74,629,-1334,2606
-87,42,26,374,-298,294
67,35,-8,-1549,286,-1253
58,87,-95,353,234,-964
40,-125,-86,-987,-6,-40
35,108,-94,-263,-588,249
80,-87,-68,-936,-519,383
101,-80,-71,-1218,-310,-63
117,-108,-88,-441,-79,-181
120,-92,-89,-704,-115,-125
123,-79,-95,-837,-292,-50
-123,-83,-99,-599,-328,-47
-115,-65,-97,-813,-333,32
-112,-67,-104,-658,-340,68
-109,-53,-103,-715,-293,147
-105,-37,-109,-691,-282,147
-96,-30,-108,-558,-346,213
-97,-10,-103,-706,-388,218
-94,-6,-103,-568,-379,193
-91,4,-96,-680,-360,198
-87,5,-97,-620,-369,190
-85,18,-93,-747,-361,165
-78,22,-97,-626,-363,129
-78,29,-96,-590,-413,36
-76,31,-99,-671,-327,12
-77,27,-100,-738,-321,78
-72,22,-100,-619,-389,118
-2,-48,116,-2330,3579,-4596
73,112,-23,-3995,3526,-6649
-67,-65,-26,-4301,-969,-5219
-8,44,-1,-4265,680,-4336
-82,48,121,-3067,-665,-3513
-127,107,47,-3008,-1590,-1431
62,-67,109,-2945,-2097,514
31,-59,-46,-2636,-113,1151
-113,83,-82,-1428,-447,2767
126,45,122,1560,-2808,3456
31,-54,-49,2386,-768,-497
-101,-56,-55,-1559,1167,-3240
41,26,-102,381,1390,-2402
-15,87,115,634,757,-665
-71,53,33,1911,623,-292
93,75,-48,909,-1740,1589
84,-76,-95,2346,-2388,3349
-57,-16,-18,2528,-3274,4386
-116,-72,-68,3664,-1198,5336
17,106,121,1315,-3608,4823
-87,-95,-40,454,-1705,3828
-118,-37,108,1924,-142,2000
110,97,63,275,-2197,3424
-103,64,45,365,-2888,3755
-60,82,88,774,-2316,3465
31,-111,-20,-974,-35,-403
-41,-70,-85,878,948,-3339
87,56,-121,1449,1479,-2367
40,69,-101,192,116,-663
-45,70,-99,-815,-960,84
8,88,-122,-1604,-496,-86
76,103,119,-1555,-451,-144
122,101,96,-635,-240,-477
110,81,78,-85,-331,-672
86,94,102,-738,-732,-146
79,120,103,-1816,-751,412
94,122,104,-1713,-659,376
102,-93,124,-1190,-675,581
78,-66,105,-720,-224,200
118,-66,76,-305,-96,64
121,-42,76,-599,-472,463
112,-9,78,-1498,-418,736
59,25,90,-1610,-639,947
17,21,90,-557,-222,556
91,30,62,-72,42,362
-63,87,52,-674,-241,547
-86,112,48,-993,-319,-85
-106,80,49,-519,-196,-1109
-54,21,68,-38,-12,-1400
-30,-7,77,-41,13,-1241
-53,66,-126,-3695,5270,-1804
-100,26,99,-2013,407,-3725
-97,-4,-26,-2437,3314,-4067
79,-11,-7,-4341,2140,-4667
-98,-10,-21,-4852,3411,-4573
126,-61,29,-4157,-570,-4374
-111,-119,124,-5139,-127,-2780
57,19,-106,-2714,1029,-2105
25,-24,-40,-2778,-518,504
-17,66,-111,-1655,-1118,2361
-97,-127,-86,-472,-1828,3425
-126,117,-15,5722,-906,2622
124,121,-84,-953,-59,-2960
80,-16,-58,-1935,-367,-1132
-3,-73,-87,-309,-183,-1643
-108,118,70,1002,1045,-461
-31,-106,46,-324,334,-349
87,66,-77,1105,-1625,1587
60,11,84,1954,-3008,2662
-38,-8,-85,3173,-4394,4760
106,-85,81,1991,-5255,4554
-58,-67,-67,1820,-2810,3095
-86,-39,11,2377,-2092,2517
-8,84,-118,-256,203,2030
-29,103,82,710,-2184,3444
30,-89,-116,219,-3464,4403
-70,-97,57,1004,-924,1189
8,-14,-7,1977,478,-2500
34,-37,-46,-251,1030,-2160
23,-115,-71,-485,125,-984
11,88,-99,-193,-327,-685
46,78,-126,-452,-111,-487
69,84,-121,-552,-69,-438
97,68,110,-240,-171,-497
96,81,123,-745,-363,-314
86,77,101,-828,-482,-97
83,94,124,-1091,-922,420
109,123,121,-973,-561,868
115,-120,93,-307,-238,668
114,-87,71,-225,-248,511
115,-68,71,-475,-417,471
126,-73,67,-294,-131,313
-119,-85,51,201,-200,177
125,-84,69,-32,-392,165
-92,-69,83,-460,-214,281
-115,-88,71,-130,-308,-16
-104,-82,74,-548,-434,73
-103,-59,86,-1221,-607,130
-101,-64,98,-1086,-441,-14
-77,-69,79,-621,-163,-138
-106,-29,-38,-5479,2786,-4630
-95,-7,18,-2280,-210,-4379
16,100,-11,-4967,1058,-5375
48,-10,49,-5555,-501,-3505
29,13,-69,-4742,1217,-1565
54,-52,43,-2890,564,-1329
26,-90,-91,-2327,128,202
9,-126,4,-1773,-653,1203
-22,116,117,-709,-1078,2245
-86,81,39,1104,-2668,2917
108,93,6,3028,411,-1902
116,113,-77,-2941,1262,-2318
12,-67,25,-237,474,-2118
10,97,124,669,-267,502
100,91,-33,451,-1559,562
41,-4,-29,2181,-2538,2528
51,-7,-72,2888,-3147,3759
85,126,-4,2858,-4008,5046
-79,-54,89,2836,-4740,4178
39,4,-114,3118,-3950,4764
-97,53,74,238,-2501,3238
26,109,2,687,-1895,1777
-42,-104,89,1148,-2886,4214
-18,-18,31,460,-833,1128
-17,77,29,970,113,-2941
21,-50,-36,-56,1567,-2551
14,108,-72,-325,713,-1386
-30,49,-86,-337,-71,-232
4,83,-103,-1013,-480,878
23,-98,-83,-1560,-1090,600
51,-73,-99,-1483,-396,-89
78,-86,111,-940,249,-471
78,-87,93,-629,-76,-433
71,-95,90,-589,-77,-178
83,-102,75,-341,27,-104
95,-94,70,-529,-29,56
107,-90,57,-259,-104,88
115,-79,66,-114,-108,29
106,-75,68,-175,-276,161
114,-86,70,98,-284,222
-117,-74,75,70,-301,359
-116,-63,85,-181,-377,293
-109,-55,83,-354,-167,255
-102,-88,76,233,-263,85
-96,-84,81,56,-307,161
-90,-78,88,-402,-228,212
-87,-92,83,-228,-325,246
-83,-86,85,-400,-316,304
-81,-64,86,-735,-374,320
-78,-60,86,-701,-383,248
-47,111,29,-6621,3453,-5778
34,12,-58,-3379,5445,-6608
10,28,102,-4255,3069,-6783
3,64,68,-3464,-872,-5853
30,-32,51,-5312,-3933,-2648
38,112,-77,-3905,-694,-1847
-90,127,-35,-1862,-1313,-63
76,66,41,-164,-533,1254
-105,89,104,-293,-1447,2999
-73,-30,94,2246,-847,1023
-30,32,-7,565,1743,-2733
124,75,10,-2373,-146,-795
79,-59,83,595,-460,-322
-47,114,2,1510,-1790,827
-12,81,88,1987,-2408,2446
78,77,56,3416,-1963,2895
-44,-50,-88,4054,-3568,4285
104,-114,-38,1882,-2298,3221
-16,58,-39,2300,-2277,3154
122,9,-96,-116,-2399,3058
-29,59,97,438,-1444,2918
102,86,78,1040,-2097,3902
-65,-51,82,-752,-1704,1002
74,-126,32,-1161,421,-1543
60,-82,-107,-423,1884,-2117
-14,-106,-108,-161,-530,-374
18,-103,-118,-214,-368,176
52,-84,127,-17,120,-53
70,-90,122,-130,-177,-269
97,-105,119,-405,-92,-117
83,123,112,-201,-324,42
78,-118,105,-389,-337,12
94,-104,93,-720,-740,255
109,-53,123,-1193,-1184,687
79,-36,-113,-825,-859,565
89,2,-112,-1072,-624,522
98,45,-109,-1256,-754,367
93,64,-94,-1510,-737,211
105,85,-93,-1544,-299,45
114,50,-122,-702,153,-268
-121,84,120,-1385,122,-55
120,76,88,-1082,242,-186
-126,66,72,-827,253,-416
-111,76,55,-1078,169,-264
-107,55,35,-682,-133,-338
-119,74,53,-1144,-428,-89
-125,73,73,-964,-531,79
103,60,71,-297,-479,-19
-118,94,103,-645,-854,177
-97,81,125,-145,-549,97
99,-106,45,-3483,3702,-4491
46,-26,-35,-4070,3753,-3450
-120,47,120,-4757,4889,-4061
97,-125,-30,-3301,5023,-4418
107,-9,126,-4142,2058,-4126
-111,-115,-116,-2933,628,-1955
-38,28,-61,-1928,899,-301
115,-49,83,-1904,-1453,1331
-19,124,11,-913,-2668,2644
2,30,75,2553,-3248,4170
-49,47,-43,-567,307,-3761
-105,-37,-40,155,1939,-3100
-126,-80,81,-81,1212,-3176
10,24,-104,1661,-474,69
-85,-38,-43,1637,-1363,992
0,2,-50,793,-2638,2540
-87,2,-18,1935,-2870,3598
84,-82,55,1813,-3312,3782
-61,10,-83,1529,-2797,4041
-24,76,-36,1526,-3392,3137
-13,84,51,-70,-4650,3322
91,95,-116,754,-1463,2039
-115,85,93,454,-1549,1654
-73,-6,94,1450,-1899,2065
-73,87,8,175,113,1762
61,55,-52,-91,-27,-166
11,14,-68,-498,-360,-443
4,-23,-82,-684,-2,-697
6,-93,111,-141,380,-1073
41,-100,87,-252,71,-877
35,-67,116,-1190,-654,-308
34,-90,109,-1019,-321,-491
58,-111,90,-467,-295,-626
94,-92,113,-826,-740,-153
120,-70,125,-961,-458,214
104,-88,112,-289,-165,-56
89,-85,90,-114,-48,72
82,-70,59,-652,-555,495
46,-12,102,-1526,-1120,1232
96,-3,87,-886,-475,914
-77,1,70,-187,-178,380
-107,66,98,-338,194,-316
103,60,100,-220,54,-570
-113,12,72,27,74,-601
-125,-16,55,-237,-361,-338
104,-3,72,-1207,-706,188
104,5,82,-1421,-787,386
-110,-7,74,-716,-436,178
-81,-8,64,-160,-182,-32
-79,15,75,-368,-199,3
59,-117,-98,-2976,3953,-3799
-114,-76,5,-3065,4111,-3152
36,34,-6,-205,927,-3701
-51,110,-63,-3387,-72,-4251
116,-68,101,-2742,759,-3877
51,66,106,-2903,322,-3175
78,-43,-87,-2897,-265,-1968
-11,-126,-77,-3143,-313,370
-101,71,59,-2084,-901,2713
54,16,-65,-1482,-2807,3311
-67,-76,45,1583,-1274,1541
112,77,-36,1701,1605,-3628
-120,-110,113,-885,1324,-2877
-65,-115,93,350,580,-1747
-104,6,-56,1665,1296,-183
32,19,-61,1787,334,696
-42,-14,90,858,-1351,2282
-1,87,-41,2988,-2668,4637
116,-22,66,1480,-4982,6833
-104,-60,86,2187,-5806,6802
78,-126,-97,3051,-1508,2602
-93,43,-62,-661,-787,4030
84,-111,58,325,-1505,2701
-66,-9,-14,546,-1407,3599
-20,-122,46,-1164,-2151,3651
99,-102,4,-806,-947,550
-2,-17,-44,779,746,-3057
73,-83,-90,434,1330,-2381
39,-97,-100,-1101,127,-1015
-46,-78,-88,-2403,-932,-59
-55,21,121,-5480,-126,28
-55,5,23,-3681,-473,102
29,-12,115,-547,-1220,291
-89,111,-92,-550,-88,607
-107,48,84,1099,1054,-1138
100,35,55,364,727,-1731
46,23,40,-1225,263,-1266
-13,-73,58,-308,-1308,-257
-30,-67,-106,78,-2347,1508
107,-35,-96,722,-1328,2474
-80,31,101,1000,-473,1744
126,94,-112,-550,-1381,393
126,112,-100,-1776,-498,177
96,51,123,-1256,171,-448
107,48,116,-1402,111,-146
106,40,91,-593,214,159
108,0,60,717,240,-127
115,51,66,-280,-44,112
108,39,65,-564,-195,71
-107,27,69,-646,-3,92
-94,77,-98,-2247,2413,-5059
-52,-36,113,-3245,4652,-5668
-37,-27,-60,-3218,1845,-4435
-57,-15,80,-4533,2391,-4515
15,-13,-97,-2192,2886,-3103
-77,99,15,-2145,-1630,-2074
-26,21,46,-3275,654,-2428
-84,24,102,-580,62,-10
62,113,-66,-2279,-1219,938
102,126,96,-1095,-1407,1830
-23,-13,2,-1953,-2040,2766
-107,-115,3,478,-2173,5
17,-97,-45,239,2328,-2361
95,-90,-123,-1186,1408,-2381
98,127,11,42,438,-965
-60,98,34,1269,-242,145
-18,57,-91,1685,-2065,712
107,64,-77,1140,-3349,3025
-103,4,-2,2693,-5051,4419
77,109,-125,2591,-3757,4502
29,56,-12,826,-2530,4664
4,-84,38,-126,-3356,2433
120,94,-73,2061,-1942,1557
-84,56,-109,1340,-1041,3054
-32,38,56,1430,-1354,3196
-19,-104,46,136,-1274,2702
67,114,-6,-238,-635,-247
18,-19,-66,-237,516,-1822
15,-80,-89,90,510,-1358
-14,-92,-92,-214,-249,-461
6,-79,-101,-864,-611,44
76,-68,-90,-962,-564,-159
-108,-93,-102,-496,-119,-914
-95,-120,-87,-454,-4,-1253
-101,125,-70,-894,-133,-1072
-114,92,-64,-921,-160,-746
124,77,-98,-444,205,-160
110,101,-105,-503,39,385
107,-120,125,-571,42,715
-108,-117,95,-22,78,837
-77,-103,78,304,-128,985
-63,-88,83,217,-152,976
-57,-94,86,288,-238,867
-40,-113,92,494,-269,832
-54,-117,110,412,-608,830
-38,-103,-89,-109,-618,899
-78,-102,-73,-387,-560,287
-47,-124,-82,-565,-7,-209
-50,90,-117,-86,313,59
-79,100,107,117,149,201
35,116,49,-3415,2200,-4130
-62,39,49,-3691,1053,-3683
52,71,35,-4503,4178,-5056
56,84,-36,-3623,4734,-5147
-117,-5,23,-3079,1988,-4544
52,-6,47,-3942,-1514,-2130
-30,70,66,-2315,638,-2519
30,-61,-121,-3076,-1017,78
-64,75,-15,-874,-1146,1572
35,39,-75,892,-3236,3668
105,68,31,2134,215,-1577
114,58,-71,-2327,2060,-3340
-72,98,110,-57,1441,-2132
-22,8,97,1568,167,5
-45,-27,14,2048,-973,1890
96,18,-123,2182,-1822,3095
-41,36,-70,2882,-3552,6134
-124,29,67,1588,-3194,4771
8,-85,-88,3379,-2123,4529
74,38,48,-539,-73,1218
45,7,-44,-1521,-1401,2488
-98,18,-37,-33,-2001,3778
5,107,-73,1290,-2211,4398
6,97,108,3017,-866,980
1,104,50,625,-107,-1716
15,-33,3,-2256,218,-1871
68,40,-111,-388,7,262
36,-113,-77,-702,-1113,977
91,-46,-94,-1295,-162,60
72,-92,-117,-269,104,-449
-118,117,70,697,440,-631
-123,-100,125,-361,-1139,-439
-125,-97,-101,-1262,-411,-332
124,116,-128,-235,47,-488
-128,104,119,103,-703,-132
105,-86,-91,-1263,-683,392
-125,-65,-100,-1248,-547,560
96,-51,-128,-664,-492,190
127,-21,-105,-896,-810,555
-86,28,-81,-1357,-590,621
-84,-3,-111,-165,-200,-48
-97,-3,-106,-236,-276,-17
118,-4,105,-349,-434,-151
125,18,103,-886,-15,161
-66,-14,62,17,150,16
-108,-14,97,-360,-710,-196
-101,-49,122,-747,-280,255
-103,-127,90,125,65,816
-75,5,95,-1388,-608,1027
7,20,68,-1085,-439,355
-124,74,-92,-1804,3699,-3835
-12,-106,49,-3643,460,-2845
-87,94,105,-3270,1896,-3812
67,82,-23,-2921,612,-4066
-11,42,19,-3827,1426,-3974
74,-51,23,-3818,1276,-2851
-44,49,-89,-2834,1052,-1997
30,-63,-123,-3545,-536,89
109,43,-22,-1465,-1958,2214
87,-52,58,-918,-2783,2918
37,-62,15,-212,-2490,680
-26,-108,-47,2690,2122,-2212
-56,88,3,-2641,481,-1692
-96,112,-97,1015,353,-1209
-105,-115,87,439,-725,554
-104,69,29,1386,-2020,1490
-120,80,9,2192,-3215,2640
-22,-117,107,2240,-3692,3614
-116,-80,58,2536,-2697,2482
91,94,39,1173,-683,2025
74,78,22,239,-270,2180
107,-103,98,699,323,2466
-46,101,-44,289,-981,3698
-69,-121,-57,981,-2773,5223
-126,-35,9,4156,-3710,6425
-106,124,-38,4341,-2017,532
-25,79,84,-1197,-1373,-3907
-49,88,-107,-2562,2650,-3238
76,-66,-104,89,66,-1149
-84,-29,-55,220,-1514,485
-33,32,-93,-980,-339,780
63,55,109,-888,138,1093
86,85,93,-30,-521,1012
71,-112,-127,-632,-1260,170
96,-88,-118,-1939,-918,-340
100,120,113,-1235,-477,-511
65,95,100,-352,-450,-473
41,116,104,-642,-536,-81
68,-94,102,-1305,-724,549
82,-45,106,-1733,-789,768
79,-10,96,-1491,-624,360
103,21,92,-1369,-316,-282
-124,27,85,-1285,-12,-603
-107,3,59,-616,123,-852
-115,-2,59,-524,93,-908
-111,-9,46,-579,221,-792
-98,-30,25,-220,214,-594
-44,-82,-22,1150,138,-349
-14,-85,99,737,-1414,59
61,-82,105,-255,376,776
86,86,-34,-3742,-3398,2032
-112,81,33,-3958,117,1216
-41,-14,34,-322,1183,111
-23,-2,21,1397,545,-170
-110,24,41,650,-422,-363
-98,40,37,-1202,-44,48
-93,37,40,-1408,-334,616
-73,38,37,-710,-264,439
-42,61,40,-567,-68,77
-12,74,32,-592,34,-514
9,49,20,-263,129,-795
-16,19,11,-97,-103,-887
-15,21,40,-642,-440,-568
-27,20,53,-981,-459,-210
-62,37,90,-1372,-826,277
-43,70,102,-1557,-519,521
-42,68,86,-798,-173,158
-24,66,86,-231,-307,176
-7,88,77,-544,-235,201
-33,76,91,-487,-591,292
-70,77,101,-820,-644,587
123,107,-84,-1522,-1268,866
-22,86,-117,-429,43,1250
83,116,82,542,84,1000
-66,-125,-124,-227,-1367,-138
-41,-99,-98,-1539,-361,122
-4,71,77,-415,643,-670
-29,24,67,935,-293,-686
-78,65,88,-388,-612,89
-48,65,69,-934,91,-168
-10,22,58,24,-601,-82
-13,57,81,-752,-765,264
-51,59,109,-984,-562,351
-32,55,89,-489,-100,235
-26,63,74,-492,-528,279
-46,100,87,-1176,-574,405
-77,80,71,-613,-54,-168
-35,57,35,-171,-109,-370
11,60,39,-595,-645,111
-20,61,72,-747,-835,704
-45,71,114,-709,-601,752
-52,68,89,-184,-120,417
-24,89,76,-563,-335,374
-35,101,28,-923,-470,-82
-36,74,67,-731,-745,227
-14,107,48,-1087,-181,181
-10,111,42,-671,-520,-66
-15,-118,41,-973,-198,-533
-27,115,34,-765,-218,-845
-24,108,24,-870,-226,-800
1,-26,7,-4187,4131,-4516
22,39,-87,-2363,4137,-6900
-33,15,-71,-4763,3021,-5990
-49,-74,-60,-4921,3952,-5431
100,52,109,-2770,-1017,-1728
40,62,115,-4901,-1170,-1021
77,-97,114,-3098,604,80
58,115,91,-1352,-920,2051
-2,82,-32,-478,-3811,3421
-88,-64,89,4498,620,-593
58,93,-78,-1471,1276,-3111
-30,35,74,-1172,635,-1974
98,82,-63,1178,814,-530
48,91,62,401,-673,856
91,68,-39,792,-1631,2039
115,21,-116,2049,-2666,3762
19,60,-7,2041,-3132,5970
-48,97,-86,497,-2851,5293
46,27,6,10,-1751,4719
82,-126,120,1503,-2693,3891
-89,-23,-67,2338,-6119,6582
76,-35,-67,1247,-3107,7466
51,118,-44,-1158,-697,12
-81,-41,-41,496,620,-5165
-98,35,-80,1571,3133,-3816
63,32,-85,51,797,-2172
-12,22,-62,-629,-1253,424
-16,53,-94,-1608,-1788,845
95,-41,-62,-3369,-1666,1034
-87,-66,-114,-1569,-303,-62
-96,-107,-123,345,126,-1250
-108,-89,-107,51,-45,-1425
111,-91,-109,-858,-429,-1132
53,-82,-108,-1559,-671,-489
58,-69,-127,-1648,-435,327
90,-48,-118,-1023,-765,659
122,-2,-127,-394,-327,642
-119,26,111,-572,-214,275
-125,33,125,-449,-411,75
-128,17,118,-333,-160,-229
-115,-10,-126,-43,-185,-32
-106,-25,111,48,-104,13
-105,-34,110,-110,-303,396
-127,-14,112,-550,-408,938
-109,4,122,-664,-497,1143
-77,23,111,-516,-349,1045
-50,46,102,-644,-363,719
-39,57,115,-686,-351,423
-66,41,119,-364,-195,16
-79,32,118,-347,-100,-289
79,76,-48,-5099,1737,-5490
41,-77,78,-4318,4299,-7187
74,-93,-102,-5969,4995,-7232
-70,75,46,-3199,2993,-6568
-125,-84,-85,-4422,-3858,-3634
108,-109,-23,-2878,-2637,-1221
-28,-83,7,-1512,-702,1654
-94,-124,40,-1120,-1922,2528
28,52,96,-570,-3698,1297
37,-98,27,1146,3684,-2319
116,45,54,-1184,558,-1512
52,-55,-78,907,103,-57
-5,77,-76,2862,-949,1720
65,-81,102,1968,-4001,3392
-57,96,-61,3705,-5493,4769
-57,80,79,3472,-6116,4358
117,36,117,1814,-5788,4976
22,-15,123,1261,245,974
28,-77,-70,1581,382,991
-27,-52,-44,-1572,-3800,2447
-82,97,-10,-472,-3289,2243
-76,22,119,1618,821,-153
-13,-45,21,839,849,-1156
30,-109,-60,397,802,-471
67,121,119,-38,611,-636
55,124,127,-272,-112,548
46,-118,-110,173,-577,439
98,-104,-102,452,-295,174
94,-123,-99,146,-331,-96
84,108,-89,-72,-489,33
95,125,-93,-634,-442,349
98,108,-84,-316,-914,482
100,-81,-66,-879,-863,548
116,-87,-72,-724,-517,25
117,-71,-69,-1011,-337,520
89,-63,-58,-566,-397,216
125,-74,-110,-521,352,-178
-126,-67,113,-657,-2,0
124,-64,86,-709,-174,29
-110,-50,86,-840,-346,114
-90,-57,95,-363,-359,-78
-66,-62,111,-111,-100,-214
-70,-91,109,-69,-195,-121
-74,-114,97,-174,-110,108
-89,-79,100,-569,-546,527
-75,-75,93,-128,-549,442
-62,-50,120,-288,-591,292
-76,-53,-99,-516,-611,461
-96,-79,-110,-88,-186,293
-79,-54,120,-486,-406,384
-23,98,-67,-3914,3709,-3072
-106,-34,-13,-2660,5108,-4625
-91,33,-59,-4854,6446,-4594
59,-105,-4,-2755,5883,-3490
95,-81,33,-2416,-2322,-2176
-121,76,-8,-2894,-1019,-1478
-19,-77,-29,-2229,-789,10
76,116,-56,-1631,-1259,1327
-77,124,48,517,-3492,3470
31,96,38,3815,96,1422
-70,-109,-119,-2029,27,-3673
-116,-109,99,-2069,95,-1608
93,-91,-128,111,129,-1564
70,21,94,1608,-2052,481
-127,118,83,666,-1653,1937
72,19,4,2560,-2439,2528
-66,23,47,3240,-3629,4467
24,118,-109,2204,-3309,4691
4,-111,-110,1120,-1306,2969
83,124,28,-2140,-3314,3079
-62,98,109,-2,-814,109
35,59,-68,-752,-4495,3700
88,-92,-93,-443,-3550,2473
-64,102,48,264,-125,-518
10,-73,-30,26,328,-1461
-12,-28,-25,-1412,-195,-112
26,99,-83,-68,-89,-68
24,-84,-78,-541,-256,165
45,-66,-100,-570,-145,8
60,-48,-116,-738,-37,-111
59,-75,114,-391,-104,-122
63,-32,109,-852,-258,248
89,-34,102,-647,-78,38
104,-40,102,-470,-87,4
122,-29,113,-757,-281,64
-111,-20,-124,-813,-222,117
115,-38,114,-486,-86,-159
112,-23,118,-891,-334,239
116,-5,112,-843,-442,216
-127,6,115,-653,-382,180
-120,25,107,-683,-328,67
-117,24,105,-678,-433,123
-116,28,110,-684,-460,104
-108,24,116,-589,-434,74
-92,30,120,-668,-403,132
-93,27,121,-562,-358,61
-99,25,122,-598,-382,118
-99,28,120,-608,-356,107
-99,29,119,-563,-364,225
-90,44,115,-602,-340,223
-48,53,-95,-1524,4616,-4899
39,122,-13,-5941,6807,-6308
92,29,33,-4016,4778,-4836
65,63,112,-3231,6116,-4745
-29,127,-10,-3479,265,-3453
109,-75,50,-2129,-1563,-650
57,52,0,-2548,-1639,1342
90,105,-9,-2696,-3156,3060
75,-85,-69,-720,-3255,2288
-23,-37,84,3974,2294,77
-121,-75,-5,-2921,241,-2994
41,-59,-94,-64,-1411,-437
-24,-78,34,295,452,-544
-21,-45,-84,453,-960,802
-41,116,88,1370,-2594,2044
-53,123,-40,1942,-2893,3093
17,107,59,2874,-4604,4298
-93,-84,-35,2587,-1496,3865
111,-105,-42,400,-3676,3190
-36,83,-21,-958,-3335,3137
64,37,-78,-755,-3711,3836
-26,14,97,1611,-2980,2525
124,-109,122,-379,-887,1869
73,100,14,-886,460,-1570
36,-102,-52,-219,579,-1888
2,-106,-72,-592,-591,16
14,105,-96,163,-809,-46
50,-59,-73,-1400,-268,99
68,-90,-89,-855,-266,-361
95,-92,-106,-903,27,-266
96,-89,-128,-1140,-71,-80
100,-48,114,-1040,-448,-14
102,-9,109,-1057,-518,-254
94,60,-125,-1979,-598,-131
93,-1,107,-355,-182,-389
94,7,106,-336,-157,-367
100,36,99,-1050,-327,-201
105,14,98,-751,-546,-149
108,30,123,-931,-592,-29
108,37,127,-800,-463,-33
113,38,-128,-585,-394,21
109,45,119,-496,-437,160
109,59,122,-707,-545,325
113,69,127,-624,-598,380
122,77,125,-552,-418,363
127,84,122,-542,-381,337
-126,82,113,-323,-390,227
-122,89,112,-527,-363,162
-116,92,106,-663,-234,90
-116,74,96,-414,-285,8
126,-95,-124,-4505,3665,-4287
-31,-14,-40,-5119,2216,-3570
112,54,-117,-1553,3372,-4308
67,83,114,-3975,29,-3776
-44,-97,17,-2677,-1382,-2424
-95,12,77,-2120,-467,-1346
-76,-120,72,-1962,1092,-1005
-19,51,-113,-1296,665,553
-13,125,-125,-1500,-713,1785
-111,-82,-108,-398,-2031,2724
-114,122,-4,-394,-2085,1234
-126,-96,-66,962,1327,-2023
-6,-105,103,-2204,-384,-1574
-112,-103,19,-187,75,-1194
-6,95,-112,1560,354,550
-53,91,97,1061,-1289,1283
-108,80,-24,1314,-1256,1851
-37,69,15,1583,-1172,2795
-7,-99,-53,2533,-1316,3817
-81,36,56,644,-2178,4236
-9,62,-19,389,-1533,3819
110,48,-121,-367,-2710,4074
-22,-68,117,1595,-5137,4937
47,-2,20,1402,-8433,6403
43,44,-57,-931,-2483,3608
70,-79,-119,-1835,1409,-2423
23,83,-116,344,4433,-4013
-49,78,-95,1069,-249,37
-83,-54,-75,-599,-1359,1585
-28,-72,-114,-465,-708,75
2,-90,-117,-318,-115,-556
32,-119,-101,-324,-255,-501
37,126,-106,-754,-362,-373
31,118,-100,-537,-500,165
52,-116,-117,-666,-291,-69
67,-76,-106,-1122,-669,141
66,-76,-95,-896,-448,27
65,-87,-118,-278,-29,1
66,-58,109,-252,-110,4
81,-16,103,-1133,-464,137
95,-9,115,-1078,-579,81
116,-32,-124,-445,-151,-201
104,-50,105,-205,219,-284
108,-59,67,-374,-221,20
113,3,87,-1522,-958,584
119,17,-120,-1296,-992,414
127,5,-113,-614,-132,-80
125,7,-125,-393,-75,-57
-127,15,101,-559,-248,161
-114,51,115,-1090,-583,230
-60,6,125,-5553,4975,-2178
79,-121,87,-2004,4256,-3608
-54,-125,95,-1501,1845,-4043
103,-43,110,-3253,3463,-4813
-56,68,14,-1586,4379,-5045
113,-111,67,-3291,3008,-5140
-14,11,-54,-2921,1977,-4248
-119,-111,-46,-2512,-26,-2124
30,84,-27,-2101,-806,-668
-83,79,111,-2146,-1945,1045
42,-8,25,-931,-2161,3121
63,-8,-27,1099,-2789,4044
-68,96,-121,4225,299,-22
-64,62,116,-1454,1137,-2339
-32,-55,29,-526,2268,-2990
38,82,-78,-363,148,-880
64,-38,-56,1302,-879,563
-112,9,-67,434,-2009,2018
-119,-34,-103,1720,-2651,3999
11,111,76,1619,-3221,5001
-48,-49,-79,2789,-1672,6459
2,20,50,-602,-726,3008
122,97,122,581,-1164,1920
-114,-43,-122,-1875,-2594,1909
-53,-56,97,-1185,-3426,2095
41,108,-114,1005,-3156,3456
-45,107,39,3373,-284,3631
70,60,-113,2750,502,2410
65,-113,-12,-894,-1363,-106
44,-12,-75,-1501,-170,-1968
87,88,-94,421,497,-1850
106,50,-117,414,276,-1504
97,75,-82,-752,-695,-403
53,100,-42,-1443,-1175,274
89,105,-95,-1188,-291,-27
-127,110,-113,-776,-101,-114
-116,-120,-125,-564,-21,58
122,-116,116,-255,23,-197
-110,122,108,203,143,-286
-43,91,114,691,190,-231
-48,82,127,473,267,-56
-66,73,-127,21,195,283
-58,74,107,-301,169,914
-76,71,104,-47,-218,1327
-41,78,89,146,-132,1747
-53,-127,122,-265,-682,2087
-47,-96,-126,-569,-612,1870
-34,-63,122,-665,-409,1051
-68,-105,105,207,-168,-251
-74,117,104,424,-112,-514
76,83,-45,-5152,3137,-2647
32,71,120,-3077,1601,-3849
66,70,91,-5421,2390,-5356
91,-40,-76,158,3474,-6439
-6,-99,68,-4464,2821,-4213
-42,-32,25,-1218,-793,-2798
106,-90,3,-2003,-1306,-1189
-42,118,-86,-2909,-1798,379
-28,69,54,-1541,-2942,2353
121,-23,-82,-797,-3180,2469
-120,-73,57,2562,-1800,1524
31,-123,-76,2099,2793,-3544
82,-53,118,-2284,1738,-3357
-100,-128,-32,449,-81,-825
-106,-10,28,518,-1178,1296
-27,14,9,1634,-1396,2753
50,47,-7,2665,-1895,4634
13,-113,-28,2913,-1622,4584
94,-93,-65,754,-2468,5934
-47,-98,-109,156,-1494,4300
71,102,105,1247,-2144,4249
-71,73,-58,4921,-600,2350
-61,-83,-57,3146,-1824,4454
72,-87,62,-128,-2073,5971
-123,93,-23,-318,-1376,489
-95,103,-51,668,119,-3619
67,55,-76,998,1242,-2615
1,42,-54,-327,-272,-1124
-21,71,-28,-2209,-2189,0
34,-103,-19,-3941,-1837,263
66,86,85,-2121,411,-856
115,60,69,-360,289,-1274
-126,119,74,-251,-366,-843
65,-127,86,-702,-385,-758
97,94,36,-366,135,-764
125,79,27,-28,-610,47
58,-128,66,-840,-1615,1218
30,-47,118,-2363,-1941,1741
58,17,108,-2555,-1029,1802
96,-3,81,-455,-256,975
112,37,66,494,-156,455
97,61,57,56,-345,60
71,55,62,-605,-515,57
48,65,66,-1558,-620,263
61,89,67,-1872,-574,307
91,113,62,-1556,-430,10
100,114,52,-964,-175,-576
118,121,44,-1011,-193,-780
112,113,34,-1097,-226,-999
120,96,28,-1003,-156,-1083
-81,-40,41,-3869,-2659,2018
-62,-55,18,-2295,-818,141
5,-12,78,278,191,-1625
-110,-19,121,-1654,2026,-2453
24,-12,-92,-2306,2593,-3023
-113,-53,-14,-2655,1902,-2807
108,61,26,-3497,1282,-2548
124,-86,-116,-2963,1043,-3658
-70,124,14,-4134,3602,-4936
-9,-114,115,-2733,2265,-4719
5,-79,15,-2322,23,-3553
122,115,-49,-4215,-52,-2236
-44,-64,-70,-2219,513,-1555
114,118,-87,-1811,-221,-221
-51,118,-30,-1568,-743,915
-76,41,27,-288,-1144,2173
88,57,41,375,-3215,3350
55,42,-40,1816,-1705,2888
58,-88,-120,2303,816,-2771
-105,87,123,-2340,2920,-3333
-48,109,43,-977,1704,-2068
-102,-14,-72,993,631,-124
-76,11,10,-135,-555,1185
-64,-45,-15,1336,-1428,2790
-49,35,-60,857,-2388,3897
64,79,28,757,-3554,5244
-40,-4,-109,364,-2739,4470
-30,65,24,-283,-2518,3791
22,-24,-15,193,-799,2050
-112,50,-58,2887,656,3548
-70,20,92,2411,-310,5132
12,8,60,882,-2152,5779
59,47,84,-217,-2854,4751
-105,71,16,-413,-957,1407
8,-88,0,1992,121,-1478
48,85,10,1696,407,-1009
14,57,14,-207,-44,-259
-34,32,-3,-882,-510,235
-26,30,-1,-813,-675,115
25,72,15,-1247,-715,-163
88,103,-4,-1626,-711,-480
98,-120,-38,-2111,-684,-829
98,123,-28,-1638,-11,-1591
-51,84,-50,30,889,-1195
-54,100,-101,371,283,-917
-102,-126,123,-661,-339,-440
114,-106,67,-1566,-933,225
118,-77,67,-1969,-1580,911
-119,-14,111,-2294,-1648,1225
-88,41,126,-1796,-659,785
-7,40,-103,-3615,3284,-2266
117,-14,82,-2996,1409,-3489
-85,-100,-52,-4340,4238,-4065
-70,-106,-83,-1693,-315,-4219
-92,-83,72,-4262,1252,-4136
5,-119,87,-607,-270,-3750
-128,-80,125,-3525,-286,-2663
-24,-111,-65,-1299,-143,-2066
61,-50,58,-2206,299,-1988
81,75,-124,-3108,-989,307
-94,-84,72,-602,-982,2011
45,-65,19,-298,-2731,4610
-74,4,17,558,-3310,2155
-112,39,-69,2336,1771,-3092
86,31,-119,-1363,1137,-2753
-16,107,-58,474,1598,-3310
-25,78,-79,36,38,22
14,-49,11,1372,453,465
-14,14,-61,64,-1483,2573
36,-110,-122,2846,-2067,4084
-51,26,50,2309,-2506,5305
-93,-18,86,3092,-840,5145
-22,16,18,1178,-2561,6340
-43,-73,-45,-1701,-2023,2073
66,-40,-33,-1282,-2775,2809
57,-46,90,893,-932,1934
45,75,-79,2099,-310,1482
89,-96,-50,893,-1105,2945
-33,85,-29,-1380,-1281,3784
-89,-108,-85,-2020,-386,1271
17,-51,-57,785,-751,-2786
55,55,-67,1906,390,-3382
86,89,-77,-262,863,-1761
62,73,-93,-1331,-86,-542
8,46,-89,-1116,-1144,279
42,80,-96,-1228,-548,311
-123,87,122,-550,-4,273
-126,91,108,468,-285,235
110,106,102,518,-351,224
117,-125,114,440,-337,417
111,-120,106,313,8,320
112,123,68,290,221,133
-123,95,51,252,-218,329
-70,107,65,-518,-665,869
-125,-106,111,-1634,-1315,1155
-124,-113,103,-1469,-629,1009
-125,-118,80,-499,-166,770
-127,-119,55,475,-226,428
-116,-84,65,-218,-368,466
122,-67,60,-782,-219,174
-49,108,-17,-4296,3221,-2786
63,94,35,-1990,2640,-2991
-84,-25,-57,-3541,2088,-4716
-124,-24,-85,-5894,1934,-4579
17,63,89,-4776,4350,-6213
101,-111,86,-1952,1719,-3923
42,-52,-17,-2579,-822,-1958
38,-38,-56,-1970,-1723,506
92,-10,-40,-2657,-583,1912
9,110,-68,-445,-1594,3529
-72,-21,89,1683,-3484,2590
-55,116,-24,1451,1710,-3286
-77,104,-82,-1450,1824,-2675
-69,-60,53,-1973,961,-2465
58,-62,47,1186,-271,852
124,-12,-80,1814,-1651,1907
-88,-63,58,3397,-3523,2897
95,0,-49,2300,-5144,6110
-52,-87,-127,1389,-5075,5182
110,29,-74,2124,-3612,5126
78,-34,90,3836,-2618,4536
-32,36,40,386,-1306,2677
-5,-41,94,3560,-799,1002
-91,-54,78,1220,-3200,4809
-4,-21,-55,-367,-141,946
115,-113,50,1806,-697,-3807
-21,-20,11,-1449,1500,-1775
-13,107,-71,-1018,625,-1443
52,67,108,19,-884,-1014
-5,-107,-83,-2413,-1864,-747
39,118,114,-2441,-446,-741
85,54,52,-539,577,-851
-7,-99,33,-714,581,-281
87,120,46,556,-897,-775
-25,122,91,-716,-970,-462
26,-101,-124,-1626,-584,800
83,94,42,800,509,910
100,105,26,1521,-576,1096
111,0,-116,-939,-1241,2515
117,15,76,-1203,-74,1646
127,-62,37,448,367,-94
-55,-108,-34,1759,856,-517
-121,-117,22,1047,-591,-113
51,-88,79,-801,-807,1029
21,-50,79,-2174,-492,1128
66,-83,81,-637,-245,662
-57,121,24,1586,750,49
-1,-68,29,1116,-379,-108
-128,30,118,-2658,-1720,-37
111,74,83,-4812,-686,-428
116,-41,-103,-3905,2234,-3480
-19,14,111,-5667,2723,-3422
111,23,20,-5473,1987,-3325
-104,-26,19,-3268,3996,-5287
-123,70,-34,-3631,2664,-3221
98,10,-21,-1284,2427,-1955
5,87,-102,-2298,-781,123
-16,10,3,-1842,-1741,1492
54,67,-24,-634,-2595,4479
-27,96,-11,6126,-72,3365
-93,109,59,-3225,-421,-4418
99,-76,-76,-618,820,-2683
-40,47,-122,299,518,-2792
46,-66,-19,1199,-32,22
115,6,69,677,-1283,1499
73,113,-4,-491,-1451,2161
118,10,-120,2540,-2634,3246
-82,-99,-14,833,-3519,4052
100,-13,80,1323,-4076,4113
-65,-57,-17,1362,-3915,3770
-27,-64,-30,1043,-2874,3705
81,-27,-86,1339,-2850,3198
91,34,23,2376,-1336,892
-77,-60,16,2643,-1968,1925
-3,-91,93,-1352,-1682,3474
127,-84,-15,-1564,-239,736
-85,-16,-71,820,470,-2539
21,-68,-108,417,819,-2198
15,-105,-125,-390,-40,-892
-64,-128,-122,-328,-894,-78
-71,-116,-121,-856,-755,119
-27,-73,124,-1454,-403,224
46,-87,97,-522,-615,50
47,-80,-94,-81,-744,155
95,-57,102,-539,544,-338
-10,-64,92,-1114,-157,-964
53,111,32,-757,-83,-453
55,-35,102,-1750,-1213,1072
31,-30,102,-823,-668,395
70,-24,74,-352,234,-556
111,14,77,-1031,-58,-573
-110,-33,42,-452,-133,-769
103,-48,68,-465,-521,-207
72,-9,85,-1302,-325,371
54,-25,54,-474,275,-7
-81,-79,-19,1308,375,-214
-102,-50,45,562,-920,551
52,-2,79,-1255,-632,788
77,-16,67,-1069,27,365
8,-80,-4,810,159,382
-116,-102,47,-4811,3526,-2547
-2,-118,72,-4007,3708,-3493
-36,-113,-96,-4760,3189,-4212
-111,16,61,-5224,5083,-5680
-99,-113,58,-3342,1687,-2675
79,-64,66,-2974,538,-2402
17,12,-16,-2894,-974,-940
21,-5,80,-2179,-2278,1303
-23,43,-58,-427,-1093,2553
56,29,-23,1881,-2081,4027
-76,82,-20,7977,1162,530
24,22,-125,-5782,-797,-2522
42,-34,-102,-83,536,-3388
-110,106,-94,-1858,831,-1856
-73,123,-71,455,100,-103
-23,95,35,1781,-702,1195
-33,35,-100,2626,-3052,2661
108,-83,-100,3759,-4463,5065
-93,40,-29,2594,-2784,4498
-32,67,53,587,-5286,5522
90,-67,-127,146,-2227,3421
-15,36,-2,1389,-2576,1299
-48,110,67,758,-4613,3726
-18,26,-121,-838,-2695,3464
32,20,-47,1129,1097,-3922
-37,32,-75,467,1993,-4182
-28,-61,-69,-1775,794,651
-41,-112,-108,-586,-1012,276
60,-99,115,-514,-68,-118
58,-54,-120,-676,89,-91
36,-103,108,75,528,-861
82,-120,50,2,571,-900
51,-90,107,-1111,-894,-56
15,-100,121,-855,-766,500
47,-114,108,94,21,357
122,-63,38,-136,132,383
115,-13,118,-982,-1929,965
60,-13,-96,-770,-1391,1029
76,-39,117,-473,247,-69
120,-40,61,-44,632,-333
-90,-35,24,171,-68,-222
102,-64,97,489,-1347,318
33,-40,109,-353,-495,151
97,-65,58,-596,498,-440
-72,-55,20,-728,-189,-5
124,-24,64,-1013,-1115,354
116,-21,47,-1033,-236,-305
101,-42,58,-519,-144,-515
-88,-35,40,-546,102,-535
-24,-61,17,187,-43,-533
104,32,-66,-5067,90,-3210
-11,119,-75,-2556,-96,-4262
-92,-41,-73,-3897,822,-4646
80,-10,-87,-4406,618,-4171
-59,116,-41,-2170,-477,-2410
116,2,126,-1335,-1014,-203
-96,-12,-25,-748,-1386,1172
-40,75,76,-2549,404,1034
-72,-34,93,-1546,-875,2079
108,-83,105,657,-2973,3711
-62,-56,-71,-1160,-2061,764
109,22,-95,772,886,-2482
-1,18,119,-199,1733,-3502
-2,-41,74,-45,924,-2092
-49,-128,107,1684,242,-1190
83,-122,-92,-1053,-403,465
-29,-45,-109,1108,-1995,2817
72,-110,115,2039,-1232,3533
-27,-43,64,2148,-2531,5781
-73,-8,53,2116,-413,5040
68,-53,-10,1566,-411,4763
88,35,52,-1032,-5812,7106
28,45,-30,-1979,-2796,3081
-22,21,38,3642,-1460,1170
75,20,20,3031,-2794,5827
82,-8,87,-1122,1625,3125
-111,-103,-110,361,-564,-4251
-6,1,-94,2377,127,-4157
-117,54,-78,-332,877,-617
31,46,-90,-1764,-386,637
-15,16,-125,-960,-924,541
38,81,-113,-1350,-975,660
93,8,91,-102,-139,172
93,6,57,152,295,-327
112,62,57,-888,24,-237
103,87,54,-1270,-462,-184
82,79,77,-701,-600,31
91,96,77,-439,-376,50
113,101,68,-244,-189,-49
-123,105,59,-127,-26,-194
-126,109,63,-327,-237,-39
-114,107,62,-345,-190,234
-116,117,58,-322,-283,344
-102,-120,51,-521,-206,386
-62,-107,32,-508,-318,466
-87,-88,42,-663,-609,412
-111,-64,57,-1077,-620,174
-100,-68,53,-1136,-438,-57
-101,-68,55,-1109,-587,96
-100,-42,62,-1238,-400,155
-54,5,-80,-2555,4002,-4862
87,-39,-112,-3438,3291,-4964
-7,19,16,-1945,1517,-6230
38,-111,-101,-2913,1260,-5662
-112,8,-54,-3614,-283,-4033
-116,97,-103,-2757,280,-2363
33,-113,20,-3363,-1193,-696
21,-120,55,-3739,-1270,1684
49,89,-75,-267,-1663,3718
-109,126,-124,1557,-2544,3446
54,-44,-49,1375,513,-1853
-5,-16,-63,-1703,803,-2619
-38,-55,-91,-570,1040,-2564
-59,-35,-88,394,1603,-941
92,-34,-121,584,235,-284
60,-77,14,-365,-1534,631
26,-25,126,1884,-2027,2168
105,-13,90,2404,-3329,4252
55,-103,17,1162,-3742,5001
-31,-30,-79,910,-2628,4105
83,-113,41,405,-807,2821
-104,-116,-81,2319,2907,1176
-73,89,-95,83,-1553,3043
19,-9,-68,-507,-4576,5117
-45,-10,-89,573,-5368,5164
64,97,102,-192,-2094,3295
-127,-128,-42,-922,1123,-824
53,-48,-94,867,1569,-3408
114,117,120,1014,1112,-2646
15,88,-127,-18,-292,-764
-19,114,-124,-1159,-950,566
53,-114,121,-1413,-894,580
112,-82,-123,-1439,-827,232
-114,-73,-113,-1221,-613,-315
126,-81,-106,-842,-380,-402
103,-79,-112,-790,-291,-312
106,-62,-126,-957,-355,-46
112,-53,116,-896,-409,115
112,-22,117,-1016,-580,278
117,-4,121,-1006,-489,331
121,2,117,-676,-344,226
-127,18,109,-595,-268,150
-114,26,97,-693,-306,93
-119,12,96,-519,-522,232
124,30,124,-621,-620,431
-111,47,126,-602,-173,108
-85,27,78,-399,-24,-304
-104,15,86,-663,-750,204
-125,32,125,-962,-917,829
-121,52,-116,-712,-407,668
-34,-11,-61,-2715,2265,-3088
52,28,101,-3099,2110,-4094
76,70,-91,-5824,2100,-4167
-53,115,55,-3306,1002,-4662
-32,74,-4,-5717,-140,-3444
31,7,-125,-5159,1350,-2661
118,87,-7,-2908,1160,-2162
77,-73,-53,-2674,1334,-591
100,22,28,-1639,-267,1662
126,-4,-63,-3144,-2830,2514
-29,4,-119,8554,139,3306
9,71,117,-3321,832,-3833
60,41,-75,-2695,-23,-1924
-37,-122,14,-355,581,-1153
-58,98,-76,1165,-445,308
-62,96,29,921,-910,1225
-29,41,-100,2004,-2189,2801
-114,8,-60,3563,-4238,5871
-116,119,-4,3664,-3466,5505
-127,-74,47,-232,-2809,5640
80,-41,-42,1560,-1318,3735
-105,105,-125,2506,-1510,2879
-12,66,-108,611,-3372,3820
122,124,-88,217,-4020,4430
-31,121,18,894,-875,1409
-19,25,-28,-2,151,-3080
34,115,-94,-472,1580,-2864
36,58,-95,-80,349,-1233
-18,78,-85,-903,-1079,-588
57,62,-108,-1169,-596,-367
36,56,119,-870,-340,41
47,-107,108,-1507,-617,584
49,-79,81,-1121,-604,427
49,-28,80,-1279,-687,346
85,-1,85,-1267,-657,351
79,-5,82,-737,-518,-19
56,-19,87,-557,-409,-213
65,-11,85,-852,-450,107
60,0,77,-837,-514,-36
73,18,77,-737,-428,-137
100,15,90,-485,-411,-246
-104,8,90,-253,85,-271
107,-21,58,233,-96,-504
64,-27,63,-355,-467,-247
46,-9,90,-1389,-740,581
61,-13,81,-902,-479,715
111,10,86,-593,-553,902
-38,55,68,-516,-128,885
118,80,60,-252,-392,2
89,48,61,-1033,-413,-925
109,-15,-109,4753,-2673,-2179
105,115,7,-3817,515,-6110
-46,-105,-26,-9487,-29,-3063
-19,-42,91,-3471,-1249,-3791
-123,28,-85,-3903,1055,-4507
125,-3,75,-4448,-681,-2683
89,-32,95,-4490,5092,-4019
80,49,-99,-1237,2009,-2432
-20,-91,-117,-1544,-2607,-547
68,38,124,-1368,-263,-397
0,53,-7,-2606,-1049,1550
-83,-109,-109,-172,-2449,3595
63,-89,-5,375,-2812,2731
88,109,-70,1967,976,-628
-62,-52,102,380,1568,-2729
-59,108,-7,-2287,281,-2132
49,8,24,1603,-1282,-103
-100,53,-47,1855,-1819,1605
-6,46,-91,2174,-3017,3176
-96,89,14,1889,-1947,3376
17,64,-4,2967,-1536,4231
-99,-114,74,1307,-2626,5183
19,-126,-47,-240,-3790,4546
104,74,-9,1724,-1617,2431
-54,70,3,1506,-1925,2963
-13,43,6,1406,-3000,3689
14,-12,63,-751,-1338,3889
67,-70,120,-955,1317,-1486
20,-111,-76,1848,-62,-3811
-62,-122,-66,1365,-370,-1538
-109,-77,-41,-2069,-447,-390
-16,80,101,-2006,542,-276
119,57,55,323,460,375
57,122,86,297,-353,140
52,-73,100,-1070,-161,-605
70,108,89,-462,345,-1276
-57,25,33,1046,925,-1236
-94,18,38,891,-334,-653
5,81,-111,-1590,-1626,393
74,75,106,-2086,-513,824
-88,72,62,-851,362,1278
-59,75,62,1026,136,1214
-2,34,84,2948,743,707
-81,40,72,2902,704,275
-88,-122,-74,-916,-101,636
0,-92,100,-3299,675,556
-26,56,36,-823,289,-362
-7,19,38,696,-310,-763
-82,62,95,-412,-741,-240
-99,95,100,-1627,-543,449
-44,-51,112,-3884,4281,-4861
54,26,-81,-1558,2667,-5135
-44,64,-13,-4526,2364,-5880
-84,89,-106,-4102,4130,-6574
-117,2,0,-2500,-240,-5095
113,-15,-107,-3476,-2759,-2699
94,68,-70,-3105,-1979,-141
-103,87,-86,-1912,511,654
-12,-88,114,-987,-1756,2442
92,-4,71,389,-2210,1502
41,28,-19,1304,2925,-2650
68,-110,32,-1701,829,-2124
-83,-72,-84,297,-92,169
125,74,25,2180,-1186,1657
-99,104,-50,2584,-2509,2671
-22,59,-79,3460,-2186,3600
47,-43,43,3107,-4339,5003
-59,81,97,1914,-2526,4010
-36,81,113,1101,-1679,2892
17,-119,31,767,-1758,2386
90,42,-27,895,-2288,2299
-78,19,-16,1132,-2683,4677
98,-88,-62,873,-1960,2590
9,-126,18,-654,-460,-1538
-12,-42,-51,-1411,2323,-3179
14,-115,-119,-1641,1695,-2558
77,106,73,-963,222,-868
87,-118,69,-1087,-367,107
68,-117,66,-885,30,244
127,-98,38,-781,12,-292
-113,-81,89,-935,-1071,-347
112,-57,95,-1323,-322,-347
100,-104,57,-545,-15,-889
-86,-108,56,-450,-210,-211
117,-56,116,-1345,-1263,897
62,-56,124,-846,-874,872
85,-50,105,-278,90,454
-62,-11,54,54,244,778
-87,25,84,-266,-982,858
124,20,97,-408,-592,470
-108,-6,71,-172,120,-18
-102,-9,73,-194,-469,242
-110,-5,61,-509,-127,55
-41,-16,56,-545,-537,318
95,29,107,-1491,-780,809
111,24,103,-790,-168,251
-32,-5,17,360,412,-533
-59,30,48,-699,-578,-72
-108,30,65,-1182,-407,-95
-102,0,58,-667,-26,-420
-37,-104,-113,-4870,832,-3093
-15,13,-55,-992,761,-6177
66,-46,-82,-4717,2629,-5458
-19,-14,-86,-4640,2532,-4894
-19,8,-31,-2818,1796,-4566
85,-4,1,-2604,2544,-3972
-46,34,3,271,-498,-1586
-121,-6,-100,-3177,-3207,381
111,-44,-35,-2503,-2164,1801
-42,57,-110,-1978,-3460,3364
20,-49,25,3080,-4044,2660
-81,-44,109,1627,-1879,-3551
-108,-81,-117,-5838,2225,-1499
96,84,10,1202,2452,-1997
50,-49,-42,453,1468,15
126,-54,50,-382,42,1017
21,88,6,917,-1726,2949
-128,51,-59,2126,-2319,3962
64,-79,-52,1680,-2862,4241
-86,116,88,1916,-4608,4768
-3,115,-123,1122,-3799,4968
118,-62,-84,690,-4936,4566
-16,-81,-44,2978,-737,816
87,17,-52,2705,-2206,4125
-81,48,45,-1748,-2183,5195
77,117,5,26,-786,-1122
-39,-52,-58,-829,1363,-4129
67,50,104,-129,1942,-2481
31,95,-125,-874,-769,-73
14,96,-117,-642,-1198,-117
22,122,116,-1065,-401,-532
43,123,90,-1090,-97,-774
76,-113,93,-1257,-467,-375
63,-101,68,-1095,-406,-248
12,-93,64,-1363,-955,-314
52,-68,102,-1467,-1210,721
54,-32,115,-1007,-1020,816
86,2,117,-906,-652,881
86,48,110,-886,-514,778
70,49,97,-525,-368,109
69,59,92,-846,40,62
71,36,71,-494,6,54
84,27,45,-186,-68,99
118,42,38,-409,-308,197
76,50,61,-687,-580,58
74,22,95,-606,-445,-86
111,24,94,-739,162,140
-115,6,79,-46,-121,71
125,24,80,-570,165,-97
-78,11,74,-794,98,1
47,53,90,-2877,2604,-3810
-39,76,-113,-3215,3666,-4253
-8,70,-45,-3031,3765,-4511
-104,68,111,-4118,4957,-5091
-48,-51,99,-2568,4102,-4351
99,-85,-41,-2133,-764,-2138
-74,119,-107,-2366,-946,-1426
73,101,35,-2307,-1401,-161
22,53,35,-1959,-1448,1141
2,57,-40,-955,-2743,2811
99,71,44,-399,-3066,2610
95,106,-19,1124,-488,-778
-105,13,-75,18,2093,-1978
88,18,93,-1202,2358,-2855
-96,121,-60,363,1416,-71
-32,33,-28,994,-923,714
106,50,-31,453,-2090,1746
92,-61,-67,2140,-2123,3041
-55,6,-33,2171,-3609,4952
110,57,107,1599,-4010,4849
73,-73,-12,-60,-1815,4651
116,-6,-17,613,-3757,3143
-117,-81,-65,279,-2046,2161
-15,126,71,2638,-2164,3612
-15,17,112,1906,-2486,5529
54,-1,-1,-24,-896,1825
-95,-13,80,-661,-924,-4361
116,-127,-34,-609,2132,-2815
49,38,-86,-19,360,-825
-63,65,-78,-139,-1264,538
-24,116,-79,-1253,-774,808
58,-93,-100,-1538,-712,594
97,-86,-100,-1001,-703,112
106,-90,-101,-614,-184,-489
113,-120,-120,-246,260,-758
109,127,-125,-287,117,-590
101,118,119,-380,-221,-273
106,127,121,-676,-311,260
112,-112,119,-659,-359,519
-127,-103,114,-333,-313,602
-122,-79,110,-394,-375,662
-114,-57,110,-468,-549,737
-109,-50,113,-518,-516,626
-108,-38,116,-331,-591,604
-106,-31,113,-471,-435,353
-112,-36,110,-316,-603,179
-109,-36,97,-404,-426,119
-111,-44,90,-504,-471,13
-109,-63,68,-373,-400,-144
-100,-48,69,-611,-369,-49
24,111,6,-2925,2607,-4011
33,-47,-7,-2334,1752,-5429
21,7,12,-6620,2265,-6254
57,-108,90,-6368,4036,-6074
84,91,4,-3371,4562,-5131
-18,34,114,-1912,400,-2058
-52,-65,88,253,-2591,-114
-89,-20,109,-4227,-2245,1719
-107,83,17,-1387,-531,2243
24,-64,53,169,-2395,2347
62,-49,-7,-2394,-2190,710
-126,-20,-14,684,1697,-1785
-67,-1,-111,1026,2620,-3294
36,-77,37,-63,970,-1001
98,40,57,1128,704,40
119,52,-113,-19,-2132,1486
104,8,-96,855,-2221,2419
-103,-68,-35,2708,-3826,5461
55,114,-124,1543,-2824,4751
-125,-1,14,-631,-2726,4186
87,88,3,249,1262,-1336
-68,-96,32,902,-2977,3474
-60,102,-72,388,-4568,3818
52,74,-116,-1253,-4043,3331
-95,17,50,-175,-1990,2535
-77,9,-57,1462,298,464
65,-28,122,2046,733,-1954
27,-72,-126,720,78,-1490
-1,-89,-109,-1058,-765,-391
-22,-107,-119,-1361,-884,313
-6,-112,-124,-823,-806,432
38,-86,-122,-216,-1092,911
44,-58,113,-801,-1013,433
39,-50,95,-1131,-452,-108
39,-50,86,-1191,-314,-116
29,-45,70,-1091,-558,204
11,-12,76,-1236,-648,281
-7,-13,70,-912,-752,266
25,21,91,-1305,-679,575
55,24,65,-761,174,384
75,12,21,189,298,-326
78,21,6,174,-337,-673
82,5,44,-477,-327,-830
85,-73,91,478,184,-895
121,-103,70,884,622,-471
101,-49,72,-598,32,206
119,-50,46,-1260,-250,572
-117,-47,32,-915,-269,750
-97,-36,20,-530,-187,724
-114,0,17,-709,-347,765
-14,-55,-60,-3120,3225,-4071
-100,-118,-113,-2854,1453,-4172
-88,-112,50,-5746,3502,-5986
23,-100,-21,-3875,3032,-5485
-1,-39,-107,-1986,609,-5688
50,77,126,-4336,-1302,-2929
-122,77,-19,-1834,-552,-1966
49,85,-7,-2616,-686,86
-118,37,-25,-2516,-411,2186
-32,-98,-69,-13,-1997,3830
3,-62,22,2726,-3214,2515
-32,53,-48,1376,1142,-3304
-102,7,-118,-3306,1401,-1472
10,-71,-62,538,542,-2140
44,-84,110,1031,685,85
-113,78,-115,1283,-1812,1362
49,39,84,1857,-2366,2381
-66,-71,56,4056,-4070,5297
-101,-124,18,3548,-4141,5792
45,-10,-78,545,-4083,5956
47,-46,-99,1908,-3743,3666
7,-35,19,-500,-334,2757
29,-119,114,4981,-792,1800
28,-115,8,3509,-2600,5313
-73,80,-61,-2951,-180,1064
-54,15,-31,-700,130,-3515
48,53,-80,1691,961,-2823
34,67,-95,597,419,-1245
-48,62,-96,-586,-411,-188
-31,89,-108,-1594,-565,524
66,110,124,-1404,-201,105
122,100,94,-427,256,-868
101,74,69,-5,172,-1061
98,88,77,-593,-394,-389
98,111,92,-1236,-703,151
116,114,93,-1027,-502,288
122,-123,90,-574,-284,380
-91,-119,61,-48,139,59
-125,-120,56,100,-284,-194
121,-110,90,-731,-383,167
-116,126,57,-505,109,405
123,113,25,145,-367,786
125,-83,49,-789,-850,1294
-109,-25,64,-1588,-943,1398
-120,15,81,-1449,-942,926
125,-7,64,-615,-415,-135
-111,-3,57,-504,-107,-437
-90,-19,66,-156,-255,-619
-55,-37,54,-108,210,-1036
-47,-70,14,-314,338,-1126
-3,34,-24,-2699,3738,-3351
-127,8,28,-2803,3009,-3840
-85,36,121,-3110,1949,-3891
68,-63,111,-2186,2591,-4647
-30,-90,82,-2808,2344,-3873
-42,19,49,-1740,-1266,-2893
126,-11,119,-2771,-1479,-1002
113,-107,-47,-1182,-544,-628
-76,-42,74,-3720,-1157,1241
-72,75,102,-1076,-1508,3085
-11,-6,-118,930,-2768,3994
127,102,120,4580,-487,1207
55,-65,92,-1669,311,-4163
-113,-118,100,-2141,2285,-3313
76,69,-33,1826,-9,-962
-49,76,59,1042,-842,-613
117,97,-53,-350,-802,1400
38,90,116,2199,-1306,2939
-125,116,-34,2549,-2166,5217
95,-60,49,2788,-2358,6419
-10,-98,92,891,-1572,4769
27,-19,111,1370,-2058,5042
104,-38,13,-913,-857,3699
96,17,-101,-1047,-1039,1639
-19,67,-66,2582,-2433,2905
-60,117,0,-51,-1445,5401
-108,-48,111,-3040,19,1373
-86,-45,-88,53,-1062,-2906
27,75,-126,1989,644,-2929
44,96,-128,524,829,-1433
16,103,-119,-1047,-120,-350
26,93,124,-1668,-838,126
98,112,114,-1698,-446,309
111,-114,90,-1177,-134,221
58,-117,79,-383,-90,-276
46,115,67,-31,-982,-1265
71,-114,9,857,-657,-292
-118,-49,30,-1116,83,311
100,-60,21,-1009,-318,-27
110,-111,26,-535,-340,-83
95,-98,52,-707,-603,418
62,-77,64,-930,-434,637
101,-62,67,-836,-311,831
121,-42,56,-584,-181,809
-110,-28,41,-218,-153,499
119,-58,46,41,-983,-577
88,-27,18,128,-767,-213
-122,-11,12,-1009,197,232
-120,-30,-3,-942,293,616
-92,-41,17,-1148,-193,566
15,-76,124,-4940,-720,-2417
17,-36,124,-5163,2710,-3806
-51,90,-128,-1773,442,-3261
-117,79,109,-5253,1961,-3258
-62,-89,16,-4017,5492,-5546
-99,103,14,-3113,7368,-5560
-94,-53,-126,-3359,-451,-2795
23,100,125,-2497,-1326,-923
62,-126,110,-1481,-498,-331
16,-120,52,-2574,-1729,1357
-30,126,-79,-38,-2473,2061
-8,-66,-1,42,-3242,3156
109,79,0,1321,-377,-692
-128,56,-74,-754,1896,-2332
73,-112,-95,-1222,1502,-2916
-114,-92,13,488,1022,-904
-126,10,-57,629,-1001,-569
8,-124,-128,1680,-1764,1981
68,74,-1,3248,-2558,4542
35,-11,-112,3619,-2857,5833
-66,37,111,1704,-3145,6286
-11,71,-56,2757,-4785,6026
-107,-4,44,480,-1808,4228
24,-57,-5,128,-2022,2718
-55,-29,30,2715,-3387,2695
101,-70,3,2454,-426,1612
-35,57,18,741,1110,-4046
52,-45,-11,-275,1556,-1758
-3,81,-51,-895,-237,-452
-44,63,-79,-758,-894,376
2,76,-115,-680,-261,549
70,106,93,-414,27,113
99,-126,94,-565,-345,-428
-109,112,93,-493,-260,-934
-128,80,105,-405,-377,-994
116,70,108,-721,-478,-630
97,71,103,-1033,-628,-91
85,87,115,-1020,-845,614
100,-114,106,-1163,-489,728
120,-96,87,-868,-339,548
-128,-76,67,-617,-386,486
120,-49,65,-713,-523,457
110,-36,73,-751,-450,398
-128,-37,55,-471,-214,165
-115,-28,57,-512,-416,222
-106,-27,57,-508,-358,194
-106,-30,59,-385,-335,154
-127,-31,64,-413,-393,144
-120,-29,71,-475,-255,186
-99,-26,62,-349,-240,121
69,9,16,-3161,3216,-5362
26,-41,98,-1661,2232,-4533
89,114,-43,-4212,-39,-3278
36,0,-72,-4059,3811,-5966
-76,43,-39,-2986,2862,-7049
56,49,9,-4665,148,-4119
60,-101,0,-2347,-924,-971
15,122,15,-3024,-3737,1360
92,-42,121,12,1034,696
-34,-33,-91,-1560,-2584,2987
65,4,80,-378,-3820,3061
41,-108,-57,3544,1282,-123
82,115,-100,-1142,576,-2147
-62,123,-99,-1580,653,-2477
20,-52,96,124,1936,-1443
-9,97,85,1103,618,-527
-48,67,-72,848,-1618,662
-7,-53,-128,1770,-2427,2217
55,93,96,3387,-2182,4292
31,-91,-99,3605,-2462,5775
126,5,74,2805,-3060,5502
8,101,-93,-443,-3906,6795
-108,-63,-38,-237,-2474,3545
-2,78,-22,2917,-2335,2557
30,88,-20,2682,-1984,3346
120,26,24,-511,-1182,988
-57,11,12,-312,274,-2992
47,115,-74,-836,1863,-1753
-23,62,-84,-102,107,-573
-34,50,-103,-109,-237,-278
27,61,-125,-558,112,-176
45,91,122,-841,-113,-186
90,96,105,-637,-247,-391
79,84,85,-219,-290,-629
77,67,73,-149,-566,-559
71,106,114,-1009,-836,255
76,107,99,-801,-409,236
98,99,74,-220,8,68
98,116,70,-251,-341,190
110,-125,71,-512,-344,432
-128,-112,74,-465,-460,617
102,-115,64,-142,-289,368
105,-90,65,-523,-489,518
114,-74,60,-826,-432,561
114,-70,56,-665,-494,446
-117,-42,54,-813,-394,341
-108,-3,52,-1583,-225,114
-112,-25,50,-1070,-278,-291
-107,-60,50,-153,-426,-411
-103,-36,59,-661,-248,-244
25,25,-32,-3236,1292,-5958
-128,-31,116,-3224,4255,-5950
13,29,-2,-5535,3380,-4429
-70,-64,-49,-2302,3993,-4708
95,-95,-127,-3699,-629,-3722
-36,-49,18,-3726,-235,-2350
-76,65,-125,-2932,337,-1373
-33,-80,1,-2494,-474,915
33,-39,35,-807,-753,2233
58,107,52,-1200,-2353,3425
30,0,-44,2401,-3614,2787
15,-102,-46,233,-11,-2487
5,-113,-108,-1476,623,-1926
33,-61,-95,99,535,-1823
-36,-121,-102,1188,-1438,524
-101,115,55,1379,-1817,1177
90,70,66,2345,-3872,3045
110,18,53,4240,-4548,3383
49,32,-119,3449,-2668,4697
92,-63,89,2902,-3788,4432
-69,-52,-56,540,-4064,4165
-67,1,-128,166,2133,-917
83,0,-79,1052,-1524,3879
48,-79,-45,-872,-2370,4146
45,23,-66,281,-944,-1069
14,-62,-66,309,945,-2970
75,-123,123,-405,1680,-1916
-19,35,126,1246,-321,-557
-28,-118,-101,-1437,-860,471
8,-123,102,-1750,-226,414
49,101,85,-396,-423,-48
70,-102,81,-972,-316,-35
71,-110,63,-793,-307,-117
68,-106,60,-830,-366,-11
67,-93,64,-842,-494,77
80,-76,67,-914,-416,189
82,-69,67,-740,-442,168
88,-56,74,-660,-385,195
95,-45,72,-623,-348,263
98,-29,64,-676,-352,226
107,-12,58,-820,-313,251
108,-12,54,-642,-369,203
114,-1,55,-686,-310,194
119,4,53,-636,-335,150
124,7,50,-658,-307,113
127,6,46,-645,-331,72
125,20,42,-790,-440,88
-124,19,46,-749,-395,149
-118,22,49,-690,-334,152
-112,28,50,-671,-329,136
-69,119,124,-3678,3551,-3274
96,-80,-47,-2002,2404,-4055
-117,-14,-84,-4547,3766,-3881
-3,93,-127,-2037,5268,-4597
16,-113,114,-1607,739,-3024
-90,-99,103,-2217,-909,-2867
-6,23,108,-3819,-1564,-210
-32,-96,103,-2547,-2645,1480
-96,35,6,258,-2697,3955
-112,90,-12,2840,-924,3981
-78,-126,127,1357,-25,-1346
-102,-4,-64,-1811,609,-2035
-72,1,-116,673,1518,-2639
117,13,60,289,1415,-684
-76,119,6,619,-319,398
-80,90,109,731,-1793,1546
127,-104,53,2754,-4163,3762
17,17,-82,2585,-5228,5905
63,-86,112,1872,-6167,6518
36,-22,105,1174,-4473,5403
-104,81,1,695,-1087,2509
90,31,-41,380,-543,1107
55,45,36,1714,-3399,3871
104,-27,71,1077,-1599,1754
27,-105,26,-759,761,-2510
49,-54,-76,-1683,2123,-3145
76,122,-104,-625,738,-927
-31,101,-106,87,-405,-434
-2,-125,112,-820,214,-408
69,-112,92,-807,26,-118
120,-96,91,-607,-335,-224
-105,-96,86,-526,-40,-447
-114,-112,59,-374,-86,-642
98,-115,80,-809,-494,-434
80,-108,98,-1232,-680,116
94,-113,94,-636,-585,464
-128,-84,86,-393,-404,700
-118,-45,72,-413,-415,624
-114,-52,74,-24,-502,463
-101,-42,67,-188,-79,533
-116,-57,60,286,-276,534
-111,-49,64,9,-303,510
-97,-47,56,-212,-84,434
-102,-66,66,-106,-123,340
-85,-76,74,-221,-62,370
-37,-83,58,-79,42,322
-51,-98,47,241,-8,118
-96,-94,47,-449,-244,-8
-76,-107,56,-688,-270,144
-52,-127,57,-440,-241,243
-20,-22,-28,-4139,806,-3099
112,-34,25,-3960,1987,-3771
0,-27,50,-4671,2774,-3967
57,-105,-34,-4845,4062,-4143
45,-7,54,-1427,3360,-4655
44,125,118,-3380,2491,-2057
-66,-76,117,-777,-298,-1110
-124,-17,-91,-2859,-2691,430
124,-71,24,-1821,-2426,1937
-76,125,-84,-1168,-1645,1595
45,-100,-84,-321,-1664,3167
44,115,-73,2037,-495,181
-93,6,116,209,756,-2268
-106,-80,41,-1491,1448,-3450
31,16,36,-121,1352,-1259
-127,25,74,1675,149,405
-68,91,-43,427,-1640,1655
-118,-115,98,2026,-2835,3278
70,104,-4,2119,-3515,6506
48,6,45,2007,-2575,5495
-69,-94,-3,221,-7008,7551
125,-115,-89,-2255,-2718,3436
-108,39,-76,4964,-759,579
52,-15,14,3560,-2291,4521
-3,62,0,-1185,-1037,4597
-26,98,2,-1,-1431,-2533
16,-69,-37,-613,1338,-4103
81,33,-97,-298,1666,-2746
14,-35,-58,253,-508,-551
-16,30,-49,-986,-1131,251
94,58,-66,-1546,-392,-9
-123,64,-101,-796,-54,-466
-98,99,-123,-657,80,-686
-111,108,115,-765,-46,-641
-125,99,100,-647,-129,-312
84,127,111,-1012,-449,194
87,-124,104,-813,-466,364
111,-98,112,-634,-606,630
127,-67,116,-739,-597,827
-113,-50,121,-699,-562,841
-114,-23,120,-621,-560,694
-118,-4,123,-764,-490,425
-117,0,118,-758,-349,183
-114,3,116,-733,-324,26
-117,0,111,-709,-275,-106
-114,2,101,-750,-282,-167
-104,1,95,-731,-332,-154
-101,2,96,-641,-289,-192
-85,0,90,-591,-363,-137
-84,7,95,-685,-360,62
122,120,97,-3204,2008,-3872
-52,54,-125,-2808,2732,-4870
49,28,84,-5278,5109,-5150
25,-49,102,-311,896,-3165
91,117,94,-2541,-808,-1771
-62,105,105,-3035,-1058,-1166
72,-44,-35,-3148,380,-147
105,-113,98,-3635,-1638,2304
-11,100,-111,-1336,-3383,3609
-106,-122,-72,2040,-992,1161
-68,52,94,1851,1363,-3075
-49,-103,92,-3259,791,-2496
12,-115,30,75,663,-1732
13,35,-103,2086,-84,96
-79,-126,51,299,-2132,1138
-109,39,58,1348,-2406,2341
-4,14,13,2398,-2525,3787
119,-81,85,1114,-3827,5272
-30,-52,-60,1441,-2635,3393
112,28,-23,301,-1442,3374
96,9,93,1690,-1693,4012
75,-33,51,436,-3349,4712
117,-93,33,-477,-4676,5314
64,-15,83,974,1599,-484
-52,52,61,1722,38,-3305
-124,-60,9,-625,751,-2204
101,100,-59,-913,157,-1031
27,58,-105,-458,-377,-181
45,114,-91,-1216,-551,-78
106,-116,-83,-1242,-634,98
-122,-117,-95,-661,-325,-104
-101,-110,-110,-435,-47,-325
-117,-96,-123,-703,-209,-269
122,-87,124,-914,-526,31
114,-64,-116,-1079,-879,218
-122,-65,-108,-685,-462,385
-119,-47,-93,-476,-584,405
-118,-23,-76,-623,-544,526
-115,-16,-93,-625,-405,480
-109,-7,-110,-594,-336,457
-103,16,123,-808,-401,345
-106,28,-123,-972,-576,212
-97,-8,-127,-212,-222,70
-101,7,-116,-397,-312,114
-91,8,-122,-537,-253,146
-87,11,126,-633,-392,141
-80,16,-126,-707,-357,146
-77,16,-128,-598,-295,60
-73,12,-128,-523,-258,-10
-72,14,122,-641,-329,48
48,22,102,-1719,2510,-4927
94,46,-84,-3994,2718,-3953
120,-54,67,-2247,2728,-4637
-97,70,-70,-5415,5539,-5810
-125,111,-122,-3360,-4,-2476
-55,83,55,-3254,-1961,-1017
23,-125,-123,-1589,-1818,-328
-43,-93,-91,-3129,-369,2566
-4,-93,-94,-181,-1846,3875
-60,126,122,3181,-1195,2383
119,-10,13,754,235,-3199
-89,55,71,-3264,276,-1515
84,93,-77,658,2274,-2264
32,-128,-90,1194,152,618
61,-128,11,909,243,271
-110,96,-11,847,-2238,2639
-82,-18,-40,1577,-4142,4876
87,-114,105,1048,-4601,5029
-100,-21,26,722,-5606,4901
96,127,-29,1204,-2462,3590
10,64,-99,1519,-830,3298
-105,88,24,1304,-1190,3546
-99,95,50,1380,-2377,3609
-108,-126,5,359,-1099,28
45,-13,-16,-6,263,-2139
48,95,-43,293,409,-1296
15,92,-70,-185,-200,-385
14,95,-76,-810,-507,176
43,117,-95,-925,-467,146
94,-120,-104,-922,-475,-104
120,-118,-102,-817,-323,-404
121,-121,-101,-898,-273,-427
126,-105,-112,-1249,-26,-174
116,-113,-126,-1051,-252,-302
116,-101,122,-873,-608,-73
125,-67,121,-1092,-467,174
123,-60,121,-810,-400,259
-120,-41,124,-516,-391,337
-116,-18,126,-719,-385,311
-109,-2,-127,-849,-500,289
-107,8,-117,-826,-419,172
-105,4,-124,-597,-221,49
-103,4,123,-571,-262,52
-98,4,114,-584,-305,138
-97,7,113,-586,-344,196
-91,12,115,-542,-355,226
-88,14,115,-492,-339,227
-80,20,118,-519,-361,267
-81,22,116,-464,-335,241
-78,31,114,-624,-373,232
-127,-80,-55,-3515,5003,-5220
-17,75,-85,-2188,3343,-4551
-66,-123,44,-1234,1330,-4951
-33,95,40,-4107,79,-2574
85,-58,-2,-2266,1045,-1875
-22,-65,98,-3722,-189,40
-2,66,-13,-2382,-2086,2485
-32,121,105,-1666,-2428,2971
81,-123,-57,388,-1600,2845
-121,104,-65,-206,178,-2423
121,-56,-40,155,956,-2069
-17,-119,62,453,1372,-2040
80,93,9,870,1131,-570
28,24,14,1474,-314,784
-85,103,-27,401,-2366,2006
-79,13,-55,1411,-1638,2769
-36,86,-18,600,-3703,4657
116,18,94,1053,-3434,4744
24,-101,-60,-723,-3020,4341
-92,-126,63,1556,-6548,5852
-13,112,29,1341,1938,85
-29,-40,90,689,-1437,2274
44,13,45,592,-2178,4072
-4,36,28,556,-1485,2065
108,45,-34,-602,24,-1026
75,-52,-61,-648,440,-1844
70,-108,-105,-585,-18,-897
27,-112,-91,-789,-741,-125
13,-106,-88,-889,-809,308
53,-77,-80,-988,-563,252
97,-55,-86,-939,-385,-9
113,-50,-100,-797,-203,-388
107,-56,-117,-770,-185,-514
97,-52,114,-985,-245,-381
88,-31,119,-1358,-583,-69
118,-64,-113,-314,-288,7
-118,-104,-101,1103,219,-38
-122,-57,-124,359,-387,20
-108,-8,-110,-1471,-523,175
-106,-28,115,-1450,-280,211
-114,-52,106,-463,-348,327
-115,-13,99,-637,-432,533
-112,8,109,-733,-551,570
-99,6,110,-370,-406,441
-91,21,110,-371,-457,254
-89,26,109,-516,-436,161
-82,18,113,-459,-378,64
-90,20,122,-658,-444,44
-89,14,-124,-726,-379,33
-86,8,-127,-583,-278,31
-19,-126,18,-205,3736,-6783
-24,-126,-101,-3027,693,-6864
92,14,105,-4719,382,-5198
70,50,-48,-3629,2472,-5634
-4,8,5,-2951,308,-4195
-7,11,7,-3934,926,-2896
-92,-70,99,-4610,-231,-521
-12,55,-64,-3571,-1971,2369
-8,-96,83,526,-4002,4750
68,-35,123,1377,-1029,1963
45,-17,-24,-1430,263,-2390
92,-40,-125,561,465,-2066
29,-56,-115,432,127,-2515
63,73,2,1290,429,-422
-95,-13,-86,1585,-1793,978
50,-61,-47,2270,-2679,3421
83,-39,14,3502,-3361,5451
68,79,104,4055,-4094,6462
-29,44,-102,4762,-5685,4943
126,23,-53,831,2785,1382
-79,111,-31,559,1562,1513
99,23,-61,-72,-1752,4844
-66,-123,-40,541,-2366,5762
122,-127,-86,-817,-1479,822
-36,120,-95,-459,288,-4221
94,27,102,1473,1802,-2866
45,49,104,169,413,-892
-33,78,-89,-1569,-1350,914
3,65,125,-1300,-397,1299
77,105,124,-997,211,651
117,118,118,-170,485,94
121,-128,-115,-105,127,-453
-121,-121,-122,-574,-128,-525
-117,-122,127,-756,-178,-174
-115,-125,111,-427,-717,239
-125,-116,107,-391,-1212,250
-115,-100,54,-1524,25,-692
-82,19,-121,-3148,-165,-255
116,-8,124,-1717,-1513,23
118,-9,120,-675,-1374,339
110,-10,89,-513,-913,543
103,-13,63,-337,18,265
119,-7,52,-47,98,154
-114,16,59,-386,-530,458
-122,37,74,-853,-714,494
-115,12,83,-438,-382,348
-110,5,86,2,-364,370
-97,41,109,-723,-403,448
-89,40,95,-877,-349,315
-99,51,91,-1120,-468,289
91,-66,-12,107,5280,-5825
117,58,65,-2014,803,-3054
-76,22,54,-5042,147,-4700
46,125,75,-5215,1300,-4872
-124,-88,28,-2707,1069,-4190
-120,6,68,-4301,141,-2786
114,112,65,-2903,-373,-1120
101,74,-113,-2767,-754,791
1,38,31,-982,-961,2677
98,40,103,-1637,-1580,3404
-67,79,-18,3453,-1954,2940
-63,121,-19,-337,69,-2639
-68,-56,-45,-1682,696,-1845
67,122,40,-32,2009,-2696
53,28,15,1376,1216,231
-25,106,74,169,-207,343
70,32,21,1012,-1929,1767
99,-16,-34,1923,-2311,2456
-62,0,115,1146,-3434,4213
-85,63,-68,1406,-2812,3949
-36,-76,-36,-271,-2286,3441
-48,-58,12,-340,-3654,3436
-107,-122,-35,226,-3269,2959
122,51,-122,865,-2722,1763
-68,-128,27,1913,-2252,1889
69,43,124,230,-3118,4000
-107,76,61,768,-1514,1662
37,73,-15,-197,683,-1702
81,-39,-36,-180,1042,-1966
18,-114,-47,115,42,-1510
5,94,-82,183,-522,-1078
20,94,-109,-306,-676,-890
49,-127,-112,-1354,-715,-324
55,-121,118,-1370,-534,-341
85,126,117,-669,-506,-470
117,-117,92,-483,-119,-645
-120,-124,86,-568,-447,-409
109,-116,87,-766,-623,-32
60,-116,93,-876,-590,107
111,-101,95,-831,-490,847
83,-68,87,-534,-425,950
91,-46,85,-495,-345,910
119,-13,81,-839,-374,980
119,0,76,-660,-503,977
112,18,84,-604,-272,812
121,16,61,-165,-20,344
-100,14,51,-11,-8,58
-92,1,37,-99,12,-109
-105,-16,27,-311,-345,-139
119,-24,39,-695,-599,-49
-41,67,-37,-1491,2068,-5478
43,-96,35,-3921,2025,-5569
-92,-39,-15,-3312,3828,-5334
-26,-128,-32,-2360,-1001,-4097
67,56,-37,-3217,81,-2850
-128,108,3,-1916,-369,-905
96,72,91,-2642,-2170,1773
-45,69,-108,-1769,-1813,2318
-55,-67,1,-1896,-2520,2609
-25,103,-26,119,-2252,2863
-114,37,-91,2878,1799,-1587
120,0,116,-1732,1976,-3083
-35,-56,122,-787,1658,-1909
-28,48,39,1320,-89,-146
52,-103,-52,1414,-538,1193
89,127,64,1472,-322,4826
-7,62,48,1283,-3470,8230
109,-28,102,1248,-8483,7956
-28,113,71,100,-5284,5823
-58,93,-5,1193,-2884,2682
-53,-55,18,3990,-1159,621
-10,-100,101,2194,-3850,6125
-39,-95,94,-2850,2028,3803
-101,-14,39,2785,-2049,-3522
-56,-112,-39,3730,-823,-3612
14,-42,-26,-951,1482,-1370
-38,-96,-42,-2618,383,-609
18,64,-102,-1405,-452,-581
96,82,125,-961,94,-1171
-120,92,88,-1078,275,-1341
-108,92,48,-1277,31,-1366
-95,75,29,-869,10,-1293
-121,83,29,-907,-443,-1061
117,89,30,-1013,-616,-534
107,99,41,-979,-690,42
122,111,38,-729,-551,581
-121,-124,42,-423,-721,963
-118,-86,63,-361,-904,1377
115,-59,85,-464,-823,1421
123,-44,96,-199,-595,1373
-119,-30,87,59,-187,1170
-106,-19,56,101,-47,762
-95,-6,37,-220,-306,724
-113,23,40,-1134,-471,715
121,43,36,-1434,-475,262
-128,26,20,-950,-263,-326
-123,38,16,-1230,-550,-490
-107,21,4,-1038,-532,-692
-95,15,7,-925,-405,-654
-87,29,2,-1243,-277,-658
-39,-75,0,-2796,4779,-3840
83,-26,82,-2248,567,-6257
69,26,82,-3038,2682,-5948
-99,-63,41,-3248,973,-4786
70,123,-24,-2323,468,-4014
73,-8,-40,-2635,-1862,-1042
117,74,-11,-2243,-1236,229
59,68,-92,-2236,-2312,2486
-101,105,17,-66,-1943,2845
-46,87,94,-145,-2311,3416
47,-107,-40,383,-1243,337
13,-7,-94,229,1341,-2185
-54,-115,-123,-766,1826,-3256
105,-65,114,-1338,2120,-2822
-13,-125,25,-268,1269,-1118
-54,16,34,-350,-127,744
-13,-14,-106,-324,-1326,1189
31,-83,114,1604,-1369,3206
-50,-79,81,2565,-3398,5102
70,54,56,718,-5082,5754
-73,125,-91,509,-3028,4654
-85,60,121,2004,-2607,3406
45,-27,66,-229,-2710,4114
105,124,96,3819,-1249,1267
-7,-22,20,3472,-4295,6088
52,92,59,-2011,-969,5334
70,-30,-89,-2575,86,-3035
101,98,-116,708,1684,-5535
1,101,-94,-9,77,-2451
42,-112,-54,-2229,-1792,-46
107,93,-114,-2296,-805,247
59,102,58,-1098,678,1417
51,-27,54,-83,93,2235
-15,30,73,-235,-1015,630
45,104,89,-2439,-705,-767
-106,-6,23,-1162,522,-1750
123,-96,22,1006,-79,-1723
33,-72,72,34,-941,-756
33,-75,76,-968,-707,117
20,-74,94,-1019,-832,771
55,-19,118,-1112,-785,1013
117,-8,85,-487,-164,450
-112,-35,70,434,-24,-422
-116,-58,62,516,216,-578
-126,-89,55,260,224,-308
81,-122,51,70,185,346
116,-127,31,-88,214,1157
-112,-92,26,-551,22,1929
-54,-46,9,-476,-114,2261
-22,-17,-2,-150,-91,1779
-48,-119,111,-4700,2682,-4439
-18,-69,107,-4120,3944,-4478
-83,119,16,-3578,1999,-4064
79,-14,-32,-4426,2733,-3206
-108,65,42,-183,124,-2083
86,-94,73,-3956,-3051,220
116,-33,-8,-2183,-951,714
95,-110,-76,-1884,-709,1759
-13,-50,-5,-1960,-3348,2431
-107,30,62,2717,-856,783
-7,15,-68,763,2161,-2721
0,99,67,-2359,493,-1493
14,-79,-22,239,31,-983
17,123,117,1503,-740,391
-42,-92,69,924,-2988,1684
-77,38,-1,2880,-3603,2448
-8,19,72,3087,-4542,4404
-19,107,53,3137,-4169,5126
112,-12,127,1574,-2835,4490
-24,73,49,931,-2261,3833
-49,75,-2,2510,-2056,2159
50,75,-61,1665,-568,2766
33,90,-62,1469,-1280,3037
-128,99,-21,1535,-1902,1135
37,71,-32,-408,501,-2069
40,122,-79,131,1362,-2331
3,79,-81,-82,395,-1525
-9,45,-94,-248,-217,-896
56,53,123,-978,-457,-346
97,73,-123,-1177,-709,-88
-128,111,120,-1313,-530,-397
-116,104,85,-1264,12,-1171
-105,67,66,-654,-93,-1201
-121,74,81,-822,-465,-572
120,85,91,-930,-521,103
112,84,70,-470,-293,324
120,124,78,-513,-688,734
119,-110,92,-502,-519,888
-114,-118,73,298,-211,597
-76,100,46,1462,-164,550
-84,113,60,1113,-265,1020
-107,-96,75,-340,-370,1229
-110,-64,67,-1301,-406,1090
-104,-78,54,-730,-442,636
-109,-66,49,-523,-336,128
-112,-55,48,-815,-313,-115
-103,-56,35,-920,-327,-267
-89,-56,24,-979,-414,-455
-77,-54,24,-960,-363,-560
-62,-59,21,-778,-315,-637
-46,60,-38,-1875,2939,-3919
-91,-60,120,-2223,2651,-3220
73,2,-79,-2474,4143,-3970
63,-77,118,-3399,1815,-3126
-52,73,-94,-1714,365,-2848
15,-66,-94,-2002,-112,-2569
-95,103,110,-1731,-479,-3346
113,24,38,-2207,-317,-2018
-119,-125,46,-1216,35,-637
13,103,-7,-1573,-84,765
41,-42,38,-353,-2096,2155
90,38,100,-1041,-4721,2976
116,19,42,410,-3027,1848
-81,32,-81,944,-726,-723
-49,69,93,370,3226,-3865
-34,-38,-34,-655,2648,-2523
119,67,103,35,261,-472
-41,37,62,1101,-795,1249
-115,39,13,251,-567,2058
-126,-19,3,1807,-1157,3193
-38,101,97,638,-2284,4580
60,121,-124,1667,-2613,4430
-16,-57,23,253,-1159,3574
-51,36,-64,1351,79,1675
102,-96,-116,-269,-290,1672
97,-75,15,158,-884,2133
-42,-80,-22,315,-1585,2605
93,64,-76,1365,-1853,2828
1,-68,-41,4404,-1927,3697
-89,80,71,5701,2486,4699
1,88,-86,1625,191,1466
-108,-28,-107,-3393,-3395,-2825
-82,10,-72,-3525,418,-2275
-80,-105,91,-1519,1194,-850
11,-88,111,-724,-1049,3
-9,24,119,-1988,-1950,1499
5,-114,-112,-3605,-2116,1763
115,-106,96,-1582,-375,1802
-122,120,66,4582,94,960
64,-78,117,2837,-1023,-2234
-86,7,103,-3141,132,-2859
-21,126,73,-3249,-52,-1962
-73,0,41,-849,-679,-1568
-115,6,62,-11,-310,-910
-120,23,38,-133,111,-68
122,72,50,-978,-626,1029
118,95,50,-998,-866,1453
-81,-124,50,-828,-659,2071
-86,-76,46,-780,-797,2127
-100,-16,65,-836,-1027,1862
67,112,86,578,-4351,3149
86,22,-118,-895,-1683,367
64,-99,117,114,1552,-1741
66,112,100,162,839,-2140
-61,-124,90,682,1404,-1264
52,44,-3,757,1198,-514
-111,48,106,309,545,562
74,66,38,-49,-518,1035
93,-20,-118,1356,298,1540
-4,-4,-13,1943,150,1720
-82,-40,63,388,606,2783
-59,-12,50,-500,-1562,5595
78,43,67,-1084,-1728,5401
-104,-112,-10,-659,-2688,4752
-58,50,-116,1825,1804,452
-7,-28,-92,-1752,-2419,6002
-6,38,95,-761,-6824,7439
6,101,-128,-137,-6230,6006
99,-7,15,466,3180,-784
-87,-103,-8,5310,848,-5022
-125,-121,34,710,-177,-2492
76,49,23,-2366,33,-802
-65,-105,-68,-679,-506,464
-24,-54,-59,-56,-380,877
93,53,-64,-738,-274,1107
-97,90,-82,-809,173,611
-84,82,-85,-102,-177,-438
-99,61,-68,-40,-307,-953
-119,49,-59,-694,-400,-952
-117,5,-101,-528,13,-477
127,-18,120,43,-132,75
-119,2,109,-211,-400,820
-102,64,103,-897,-599,1370
-95,88,99,-726,-736,1381
-81,123,119,-490,-768,1210
-84,-107,121,-458,-583,852
-107,-79,118,-730,-584,397
126,-71,114,-1167,-678,147
124,-54,114,-1739,-652,211
-125,-28,92,-1775,-652,164
-126,-10,92,-1383,-439,-59
-98,7,82,-1167,-183,-185
-83,24,59,-1021,-377,-294
-114,41,62,-1352,-329,-539
-127,46,60,-1522,-296,-613
-109,42,51,-1374,-181,-432
-50,48,38,-1058,-274,73
-103,80,36,-758,-563,25
122,117,62,-1506,-550,-248
-83,-125,69,-1886,-355,-262
-106,-3,-115,-5270,1626,-2869
-81,43,-61,-3315,1080,-4164
-125,57,96,-5256,2227,-3542
-8,83,-2,-3337,1360,-3570
-6,-10,24,-3359,946,-2016
121,-123,74,-2228,-122,-501
66,93,23,-2375,-591,1549
104,106,120,-989,-1350,2747
126,123,38,-61,-3387,3146
93,65,-38,2314,796,-1684
-36,-88,-114,-572,2316,-3141
14,-37,-68,-134,1423,-2292
-18,95,123,1165,70,-98
-13,-1,-87,1958,-738,1059
-54,26,105,1232,-1923,3346
-13,7,25,2344,-2983,4954
89,-75,91,2719,-6815,6721
-15,-48,-19,1491,-2338,3366
-92,97,52,341,-69,3808
-65,-91,-69,1643,-421,3102
-56,48,12,1890,314,2480
-57,-117,-75,2969,-724,2430
27,1,32,467,-1902,3892
-82,111,-55,-2762,-814,2122
9,2,-66,-1429,-629,-820
9,-102,-76,430,42,-1365
27,-101,-87,-165,122,-1474
58,-81,-96,-1385,-278,-1026
74,-90,-96,-1810,-671,-1068
-102,-120,-109,-1324,-90,-1456
-63,108,-128,-603,137,-1656
-97,86,117,-290,20,-1395
-96,95,126,-375,-144,-613
124,91,115,-233,-21,-104
117,115,92,-347,-319,459
-117,-108,72,-669,-577,1005
-115,-66,59,-950,-704,1111
-87,-53,52,-774,-736,1153
-93,-47,63,-249,-382,1232
-111,-36,43,462,-394,771
-86,-29,53,215,-512,476
-66,-30,73,-478,-528,469
-66,-54,84,-500,-277,600
-70,-106,69,760,-75,615
-121,-116,65,1055,-2,618
-103,-84,77,-88,-194,953
14,-58,61,-690,-248,1354
-51,-42,67,-469,-602,707
-107,-62,73,-344,-260,-516
-63,-74,58,-717,-154,-656
86,1,76,-2737,3825,-4393
-61,38,110,-3679,2159,-4538
19,-71,52,-5099,2316,-4560
-18,67,81,-4747,2763,-4145
-28,-87,23,-3696,2134,-2940
-46,12,29,-2708,560,-1520
-95,58,-59,-1995,-1140,792
-119,100,17,-1661,-708,2058
47,-18,99,-1070,-2434,2820
-27,-125,106,1096,-2313,1416
100,67,-54,-1323,-39,-2071
88,-113,92,-1157,179,-1532
-77,-111,-37,31,-345,-1056
94,-104,-54,1797,-297,-48
7,-95,56,1311,-856,285
71,103,28,2072,-2359,1873
95,1,9,3411,-4326,3307
-7,113,-108,2826,-4570,3938
-75,-38,-13,2051,-3048,3246
66,50,40,1248,-3037,3328
5,68,85,1570,-294,1613
105,-7,-9,1492,-231,1919
17,-14,-65,2315,-1866,3700
42,-106,9,748,-2372,3876
48,109,-23,904,-876,-164
-35,-27,-65,576,986,-2986
22,111,-96,663,1185,-2322
-12,46,-109,520,234,-693
-62,63,-108,-450,-638,450
-32,110,-124,-1552,-570,670
22,122,96,-1155,-483,439
53,-112,97,-908,-654,-54
87,-89,95,-1117,-518,-633
117,-106,95,-1093,-344,-700
109,124,86,-705,-413,-620
75,-123,93,-971,-436,-472
76,-116,79,-1277,-351,-214
58,-107,68,-1305,-566,148
72,-99,80,-943,-430,601
-117,-71,80,-633,-46,843
-91,-49,63,-3,-135,748
97,-30,89,-316,-350,351
106,-17,93,-1055,-123,392
-104,-27,91,-882,-145,601
-104,-37,63,-74,193,329
-96,-10,56,-393,-197,-25
-96,-48,69,-476,-239,-299
-58,-72,83,-445,-120,-125
-53,-77,85,-468,-321,-65
-88,-115,95,-361,-683,306
13,17,-78,-4385,4602,-3209
-51,-58,23,-3217,3636,-4605
52,28,120,-3463,4630,-4250
108,-82,-122,-2561,2547,-4244
-99,-108,104,-2747,3488,-3424
1,-56,22,30,2029,-2615
98,125,-22,-2430,-1007,-931
-90,25,92,-1772,-2437,907
-44,15,-56,-1591,-3371,2882
70,-76,86,-829,-3831,3288
-96,-83,-20,-271,-2275,815
63,12,-73,989,1811,-2682
-113,17,120,-203,1534,-2468
43,-81,29,-320,-1451,-947
27,32,79,1550,-2300,-206
-52,115,40,523,-1741,1597
90,-50,-77,2903,-1741,1513
-119,-72,-17,3296,-2678,4100
52,1,70,2535,-2858,5379
10,85,-90,1743,-2250,4406
-58,49,-80,1025,-2335,4655
-4,109,-64,2233,-188,1139
-89,39,64,2844,-2337,2920
45,-15,60,453,-171,3873
50,108,-69,1985,182,835
-53,-22,-38,616,-1481,-890
1,-56,-76,-1742,-792,-1408
42,113,-68,-1171,125,-779
28,66,-90,41,216,-1238
51,55,-108,158,86,-1452
76,25,114,-280,30,-1027
83,34,126,-759,-499,-54
72,47,108,-954,-355,258
123,61,99,-613,-386,480
-94,87,100,-426,-532,587
114,108,107,-380,-789,783
95,85,73,-464,-549,460
114,115,113,-408,-233,1264
72,-126,74,153,-119,878
126,-121,60,548,51,696
-100,-105,45,305,41,648
-127,-90,62,-159,-505,454
-118,-92,74,-613,-504,220
-100,-105,84,-448,-343,42
-105,-119,79,-220,-269,-205
-101,-112,77,-551,-311,-287
-95,-124,68,-546,-372,-410
-78,-117,68,-894,-437,-348
-81,-114,60,-1062,-536,-252
-89,-108,59,-1073,-575,-132
4,-98,127,-2766,2713,-4082
17,-8,41,-4050,1162,-4355
-117,-121,-44,-4744,3345,-4352
-107,23,-91,-4546,2687,-3863
-10,-80,-126,-2567,2808,-2923
24,75,74,-2069,317,-1841
-89,-48,-60,-3039,-906,-123
84,22,61,-1595,-1313,1408
-62,99,-55,24,-2962,2967
54,115,36,2009,-1650,2706
-111,85,-70,1786,1258,-2410
-115,-89,-110,-3516,1320,-2322
-21,-13,61,-1442,1703,-2374
-58,43,-46,1089,341,124
-42,-115,57,-160,-886,572
49,1,-75,1662,-1641,1502
55,-83,124,2883,-2885,3706
-53,-26,-103,1927,-3906,5150
-64,-127,-125,1126,-6221,5683
32,-100,-79,1578,-4389,5024
13,33,-128,1106,-3518,4044
11,-49,-104,3113,-666,462
9,16,-6,2299,-1977,4198
-84,26,42,-291,-1986,4195
15,-118,-6,53,-811,-1432
25,25,-64,-1015,1702,-2664
14,-83,123,-1240,1297,-1913
-50,124,-116,-397,-822,-788
-35,-113,-117,-727,-792,-71
14,-88,111,-1227,-552,80
23,-65,123,-1127,-968,128
22,-29,-120,-1158,-927,25
45,-49,120,-465,-261,-512
75,-60,81,-166,-37,-715
62,-60,70,-513,-632,-507
48,-51,94,-1129,-962,290
55,-20,100,-1377,-579,650
61,-33,78,-339,-136,380
53,-16,73,-100,-181,308
57,0,70,-399,-211,466
75,-3,59,-327,-53,614
95,-3,48,-55,27,608
-128,1,31,55,23,570
-121,1,24,71,-178,366
104,-8,43,-193,-321,116
113,-12,79,-880,-190,401
-125,-73,80,-394,166,291
-84,-91,55,284,-49,-37
-33,-67,72,-498,-118,93
-43,-85,58,-431,-381,-46
73,75,-115,-1276,3417,-5671
-68,28,-47,-4083,1068,-3572
13,20,43,-3186,2729,-5120
73,-42,-55,-3521,3624,-4990
103,101,8,-3591,4052,-2724
110,-19,71,-1817,30,-1263
123,14,-113,-3602,-5107,2206
-18,48,-98,-1591,-880,1353
-123,36,22,-2053,-1044,2316
-26,19,-84,-2805,-2856,2104
-100,33,-23,933,92,-263
94,-11,-12,824,1004,-2567
-125,46,-63,57,2755,-3190
-33,121,51,-247,1357,-940
108,6,22,1369,-813,806
-115,44,111,1250,-1752,1636
-94,-29,95,2448,-3271,4394
53,69,56,2132,-4907,6038
-65,-101,-73,2484,-4681,6410
88,-101,57,1352,-1380,4951
21,-25,93,-1174,-1912,3595
110,47,26,-56,-1448,1109
-119,-45,-90,-207,-3369,2615
-127,-89,102,287,-2190,4407
82,7,-13,1549,-503,-1294
49,-10,-49,-786,840,-2653
77,-116,-117,-987,846,-1398
20,94,-119,-469,1,-448
3,113,-115,-580,-720,41
64,-110,-120,-1097,-372,91
96,-96,-118,-1187,-373,-97
119,-93,126,-797,-320,-297
116,-92,120,-728,-399,-361
102,-84,118,-753,-685,-370
105,-68,111,-909,-432,24
95,-62,109,-1017,-416,121
95,-47,110,-762,-534,452
104,-30,115,-739,-456,500
114,-1,114,-773,-503,510
120,13,115,-699,-683,410
126,27,112,-666,-596,342
-123,34,113,-650,-371,142
-122,24,105,-360,-285,25
-123,26,100,-490,-261,61
-124,21,91,-516,-341,93
-119,23,91,-566,-406,135
-111,27,93,-607,-440,98
-106,26,98,-557,-409,94
-105,27,96,-589,-354,97
-101,28,94,-586,-361,139
-121,60,11,-2570,2371,-4564
25,32,-41,-4023,1075,-5060
74,-2,89,-2722,1794,-4873
110,-41,-127,-4046,1107,-2662
-95,-84,126,-2377,63,-780
-48,-96,-44,-3065,-27,302
107,66,-106,-1202,-1308,2981
94,-16,-77,-148,-2858,3138
-105,83,86,3131,-2019,2002
-76,-48,49,1471,810,-2103
-22,10,102,-2007,1756,-3972
97,105,93,-1254,1649,-2537
15,-115,-74,825,960,-1081
-53,80,22,340,-194,602
18,-81,118,1117,-1032,2809
80,114,100,2260,-2517,5028
33,33,0,1343,-1862,6063
119,33,-40,688,-1080,4893
-80,52,-24,3228,764,1779
-91,-48,82,-1596,811,331
108,2,100,-736,-1044,1360
-56,103,77,-1023,-2032,2471
87,42,-1,-160,-1379,3231
-28,93,32,-214,-1324,3410
-66,-65,-8,-2893,-1726,4954
4,-36,14,620,-30,730
46,59,40,1464,-592,-2639
-47,-31,-1,-1142,441,-2200
-103,93,-79,-615,-380,-819
63,66,-104,-358,-662,156
46,-123,-61,-1092,-815,728
117,-59,-50,-1361,-738,668
-80,-20,-28,-1031,-703,477
-59,-3,-28,-351,-391,39
-82,0,-27,-585,-537,-209
-103,-17,-51,-802,-715,28
-128,-44,-79,-701,-871,221
-121,-46,-91,-612,-596,429
-118,-28,-93,-667,-657,476
-109,-6,-73,-690,-935,623
-96,-1,-90,-410,-624,512
-104,14,-103,-689,-340,386
-93,19,-119,-725,-369,151
-71,11,-117,-534,-280,101
-41,12,-107,-399,-87,162
-98,2,120,-133,-134,-282
122,-4,117,-557,-485,-190
-112,1,-111,-1129,-615,530
-49,5,-125,-394,-229,701
-43,5,109,96,-393,301
-53,71,-62,-2840,3409,-5746
99,113,35,-3524,4482,-5152
-16,-112,-9,-2263,1610,-4488
101,55,71,-2878,1168,-3758
95,61,15,-3536,158,-2542
-51,-17,65,-2392,158,-1106
-33,20,-86,-1544,-948,698
-126,25,-118,-1898,213,860
96,-110,26,408,-1618,3023
-14,-98,3,-561,-3174,1450
-78,-7,-12,-1656,-779,-1619
-76,-91,-111,-1307,1714,-1805
-2,107,-15,735,1161,-1574
74,108,-69,1205,473,567
74,112,21,1219,-1147,1232
-81,-109,-14,888,-3061,2315
-81,92,-11,1879,-3721,3311
95,51,25,2929,-3740,4405
78,-50,-128,1770,-2832,4752
-96,14,-57,1854,-2828,4716
-116,-68,93,754,-664,2574
-28,-128,30,440,-1848,2574
-27,74,50,-918,-2698,1323
-14,-59,61,921,-1801,1388
-92,94,21,-61,-210,1598
36,-2,-12,-620,-23,-1558
66,110,-51,598,892,-1370
57,102,-78,-495,826,-896
35,75,-92,-261,-132,-254
71,98,-106,-582,-436,-43
98,-123,-118,-1284,-269,-71
125,123,117,-801,-398,77
-125,-112,115,-608,-399,-98
-119,-100,107,-600,-238,-236
-124,-83,113,-805,-444,-184
-124,-83,112,-844,-521,-110
-121,-86,115,-660,-481,40
-127,-69,-127,-704,-518,243
-120,-58,-126,-586,-460,360
-104,-32,-120,-669,-302,232
-79,-45,96,-504,-223,114
124,-27,-121,-749,-902,871
-123,1,-118,-575,-262,460
-62,-28,66,-79,92,-192
-107,15,121,-1041,-965,847
-95,15,107,-654,-290,182
-81,-6,93,-240,-255,-65
-101,29,112,-1094,-681,351
-79,23,120,-832,-515,283
-75,30,122,-535,-365,65
-40,-87,-43,-3820,4260,-3885
61,73,53,-2080,3246,-3848
-74,90,70,-4028,4451,-4094
-86,98,-29,-3166,3023,-2444
-7,7,-73,-2881,430,-642
125,2,-107,-2400,867,-965
-11,-108,-19,-2060,-3,31
82,55,25,-1743,-1464,2260
-69,-39,-123,-1369,-4240,2184
-21,85,-59,-364,-810,1009
-48,66,-61,555,1242,-1557
107,46,100,449,3122,-3362
-51,-54,-1,-854,1288,-1165
-98,48,93,1021,-228,147
-9,43,-82,1619,-1911,2064
-16,30,-128,1358,-3847,3496
107,-49,-36,2221,-4572,4908
85,-63,-75,780,-4155,5397
-87,-48,-36,637,-3948,4107
0,-94,-55,528,-3913,3583
-38,-9,-88,1091,-4680,5067
-45,-98,74,2198,-935,5709
86,38,61,1563,-1965,-2708
-12,-34,15,2202,286,-3995
76,110,-74,313,2336,-2094
-22,92,-84,-1125,28,-420
-45,61,-102,-597,-956,571
28,117,-109,-1125,-769,512
88,-81,-110,-1568,-649,299
110,-43,-103,-1850,-656,-564
-110,-81,-123,-1344,240,-1229
-103,-108,127,-949,-285,-1445
-102,-99,113,-1213,-736,-1159
-115,-115,-117,-916,-802,-598
59,-103,-120,-796,-612,120
45,-51,-111,-1556,-773,545
78,-14,114,-1544,-605,714
117,45,80,-1715,-875,818
118,97,101,-2098,-1426,747
127,80,-109,-988,-764,676
94,58,-97,512,-244,289
95,94,-107,-32,-256,-7
104,108,-111,-1080,-427,116
105,83,-117,-961,-458,246
119,81,-120,-683,-250,207
-126,108,115,-818,-229,4
-117,114,95,-982,-374,-113
122,100,116,-926,-683,-109
123,51,-121,201,-163,-18
125,52,-119,233,-183,101
101,120,-35,-1286,3430,-3597
-3,-17,-19,-2737,3998,-3712
-101,-109,-119,-1826,5736,-4545
84,11,49,-1052,2589,-3535
43,10,93,-2837,372,-1826
116,-97,113,-1983,83,-830
38,-123,-70,-2697,-163,382
-60,67,44,-2111,-1350,2174
-67,-122,-87,-2560,-3381,3186
0,97,46,532,-1685,2604
-83,66,-75,331,992,-3076
116,98,90,-870,736,-1863
-27,90,-6,1062,219,-839
-14,-110,-50,1095,170,-701
57,116,2,1108,-375,312
58,70,-67,1256,-3166,1650
8,39,-25,1379,-4728,3768
-82,115,66,1683,-5643,4278
-126,-14,-28,960,-3400,3134
24,18,60,909,-711,2399
-101,78,-49,857,3,2359
-63,-33,107,609,-1510,3687
-117,8,81,1035,-3032,5251
114,70,34,1929,-1802,2926
72,9,-1,1206,-72,-1907
79,-92,-28,200,1221,-2560
106,98,-67,-67,508,-1259
45,78,-79,-295,-742,314
31,98,-96,-743,-896,491
79,-107,-88,-1530,-968,123
-100,-111,-85,-1347,-1089,-387
-99,123,-93,-785,-656,-954
-125,99,-98,-617,-342,-1360
-103,108,-111,-970,-50,-857
102,123,127,-1177,-158,-275
97,124,105,-896,-194,-103
121,-112,95,-866,-389,245
-102,-69,113,-907,-644,690
-115,-53,112,-762,-432,504
-112,-38,120,-611,-539,549
-87,-16,124,-756,-499,627
-54,-5,-116,-770,-680,528
-47,16,-74,-1024,-581,471
-88,-1,-74,-911,-428,67
-103,7,-69,-1108,-171,249
-68,18,-116,-963,270,425
-98,20,93,-339,339,334
-108,32,55,-196,49,178
-81,54,52,-521,-286,377
-54,54,55,-496,-614,77
-81,99,-111,-2992,2933,-2721
-2,-31,119,1388,1397,-2632
-91,114,21,-4201,2056,-2439
46,-38,120,-3435,3271,-4457
16,-94,119,-2915,2876,-4399
-10,16,-18,-4421,3479,-4072
-73,99,-89,-1997,-1205,-907
-77,-4,-18,-2588,-1860,781
55,-83,15,-1657,-2522,2713
-18,-35,101,563,-4444,3302
52,0,-55,-65,175,-2224
-110,72,56,-427,1404,-1597
-37,-69,33,-2512,693,-2571
-110,-81,14,597,3765,-1507
-103,62,115,1,-319,1633
-24,22,34,1783,-2299,2025
109,-67,-55,3287,-2502,4274
119,53,-26,2405,-3123,5367
17,19,83,2105,-3662,5239
99,11,47,492,-2314,3785
91,-15,-33,862,-2775,3663
-103,-34,-23,2700,-2902,3882
-106,2,-61,58,-4345,5637
-108,-108,65,-770,456,-1702
89,106,-59,-47,3588,-4254
89,-110,87,2064,1472,-2493
14,17,-99,-369,-1005,1180
47,3,-110,118,-1465,1006
101,35,-89,-131,-1234,443
-101,41,-84,-692,-394,-255
-111,0,-74,261,-202,-277
-112,-1,-71,27,-90,-438
-112,-10,-86,-65,-27,-138
-92,8,-96,-399,-356,270
-120,16,-118,-349,-286,472
120,32,118,-329,-370,694
123,98,97,-688,-599,784
111,92,95,-185,-744,653
125,-112,95,-570,-558,602
-123,-98,78,-753,-617,371
127,-100,70,-512,-815,183
111,-66,88,-1343,-940,209
127,-40,88,-1682,-829,221
115,-23,91,-1375,-727,-58
118,-12,81,-1382,-257,-423
-118,-3,71,-1391,-231,-477
-91,-3,44,-1211,-71,-600
-46,9,33,-1154,-104,-580
-68,5,22,-848,-172,-756
-96,12,32,-958,-181,-736
-31,-100,118,-3416,2519,-4594
-124,-122,-120,-4288,978,-3107
123,46,13,-2578,1137,-3817
-19,-12,-32,-2222,-34,-3384
49,-75,-44,-3264,-165,-2174
-95,35,62,-538,-578,-1832
51,3,-117,-10,-497,-1941
10,41,-58,-3173,-586,-1047
-70,47,-65,-890,-1429,62
58,97,23,-1747,-1383,1262
-127,124,47,-1160,-1114,1856
-45,-58,100,1741,-4667,3118
7,19,-19,2108,-1497,2672
-28,83,35,549,-1252,-1379
-87,61,78,-1493,1775,-2476
-39,-40,1,-1345,1586,-2770
-64,108,-85,-384,645,-2051
-42,79,92,-339,739,-909
34,89,105,-48,-166,572
-111,13,-107,679,-1428,1796
-40,12,92,1058,905,2688
8,45,7,1428,-327,2944
75,-11,-23,2271,-1244,4106
-69,-79,-25,645,-1278,4613
22,-3,11,-352,-1989,4283
-109,-68,54,-1361,-3412,3857
-14,-5,29,938,-2853,4076
-81,-102,-26,2935,-2587,4868
-48,-122,-23,181,-642,4035
45,117,-42,-723,-1385,-941
17,120,3,611,-506,-2913
88,74,-49,190,1019,-1720
-29,73,-65,-1113,-106,-456
-42,87,-90,-1797,-790,429
18,111,109,-1656,-407,415
83,-90,88,-1498,-496,289
67,-72,63,-1272,-10,-613
77,-69,82,-850,-87,-1010
-122,-70,71,-822,-400,-730
-56,-66,86,-589,-543,-126
-118,-91,71,236,-585,-295
81,-89,111,-349,-770,-402
112,-82,97,-1440,130,-702
71,-52,122,-1575,274,-171
55,-56,103,-713,-815,679
124,39,112,-1265,-1318,1663
-100,67,85,-983,-1272,1924
-99,49,35,-258,-695,741
-126,40,45,-255,-311,-533
124,27,49,-271,-253,-396
-88,-73,-124,-3484,3425,-2308
11,-106,-9,-3025,2988,-3826
113,126,-15,-4584,3900,-4258
127,-75,-99,-3574,1986,-3405
59,-56,105,-2393,2756,-3032
47,-26,-81,-3025,-237,-2429
-81,-26,-95,-2859,-2113,-207
-51,72,-13,-1768,-1482,126
-34,14,124,-553,-2093,1638
8,-109,92,1323,-1559,3086
83,-110,101,667,-1390,3050
64,-113,-19,-369,-1378,-1279
-19,-61,-46,-1122,1280,-2117
83,-89,-78,322,1790,-2287
16,17,103,-391,1603,-477
-13,-116,125,625,838,-43
97,49,-72,1163,-2107,1174
38,24,-72,1651,-3412,2528
-72,-94,86,3686,-3335,3964
-115,-86,19,2191,-5691,5361
-47,-68,-78,680,-3612,3059
112,103,-103,1689,-886,3020
-93,111,90,1338,-2402,2794
46,-48,-28,3258,-1954,3655
-1,125,52,1908,-2416,5290
-14,15,-50,-2523,11,391
-10,11,-13,-984,122,-3645
97,98,-95,271,1586,-2928
17,79,-111,250,-274,-1761
-59,100,-106,-930,-893,125
-33,-109,-122,-2177,-596,1059
56,-75,82,-1974,-481,945
102,-87,52,-586,51,-12
94,-96,46,311,-275,-561
72,-74,92,-515,-681,-341
94,-79,83,-876,-378,67
91,-89,73,-614,-798,387
69,-40,105,-1166,-989,561
82,-20,111,-1202,-557,291
54,-46,87,-426,-285,7
71,-18,92,-628,-226,191
-114,-8,56,-457,45,84
-100,-41,27,344,-186,-76
119,-44,51,9,-269,75
-120,-54,63,-299,-170,425
-80,-70,37,198,-177,596
-125,-37,49,-167,-754,617
92,-20,74,-1187,-907,588
117,15,96,-2006,-688,840
-122,6,78,-849,-217,483
115,16,49,-2759,2891,-2477
-32,-85,-78,-398,-628,-3153
-24,70,-62,-2832,464,-2883
83,-13,8,-3151,1528,-2707
-117,-13,88,-3299,487,-2449
-118,100,53,-3446,1443,-3295
33,29,96,-5546,2054,-3532
-8,60,74,-3267,5487,-5642
105,41,78,-2087,-2121,-1613
-4,-47,33,-3421,-439,-1634
-110,118,-55,-2158,-937,-414
-92,107,124,-1961,-2132,1560
-56,92,-81,-1052,69,1582
113,106,-104,-278,-956,2949
-116,-32,-90,95,-2926,2160
-9,75,26,434,-2307,906
-84,-59,-52,919,1796,-1945
-81,-8,-76,-970,948,-1975
-27,-109,100,316,1758,-1794
1,-97,70,300,826,-670
-107,100,-44,578,795,297
2,57,27,283,-526,1113
1,-2,-37,554,-1727,2954
72,-13,-85,1453,-2813,3793
-87,14,15,1501,-3334,4749
31,-72,125,942,-2576,3927
104,-7,4,-758,-2678,4408
-117,17,106,1845,-1014,2935
58,-92,58,2347,-2407,5542
46,65,92,986,-2693,5861
-62,-60,112,590,-1236,3223
-19,-104,13,107,-643,-2064
51,-82,-12,825,-66,-1552
-29,72,-47,461,-299,-433
-99,110,-30,-1019,-934,231
-17,-104,-36,-1735,-492,147
97,-97,-82,-1268,-193,-597
114,112,-123,83,-173,-1467
-108,90,-119,-231,-465,-1438
102,95,-107,-1440,-693,-1071
80,88,-128,-1929,-902,-625
77,111,117,-2063,-1007,-14
83,-103,117,-1869,-855,345
99,-40,116,-1616,-635,425
107,-11,103,-1101,-279,139
108,-12,74,-486,-281,-114
108,-6,72,-552,-502,132
104,0,77,-728,-556,348
92,4,90,-593,-624,501
87,16,110,-510,-508,531
91,-80,-74,-4803,1207,-3961
0,88,41,-4032,1220,-4084
123,74,-24,-3755,562,-3990
-20,65,47,-4258,434,-3192
6,46,110,-2093,-213,-2633
-43,-95,-68,-2698,-881,44
-108,21,48,-1105,257,1182
-101,70,111,-472,289,2604
-26,9,9,-976,-2825,2544
-54,-39,18,1216,-1619,17
-26,-114,-45,-831,1263,-1168
-22,-28,54,-840,109,-1495
-33,-86,-57,-241,538,-706
18,103,24,2070,-144,-398
-89,117,44,1097,-2295,1382
-73,-30,-38,3793,-2053,2883
-51,73,-24,2585,-3883,4741
-84,-124,125,3004,-4144,5429
80,58,-29,1057,-3140,4380
-103,27,-42,798,-2329,3188
-105,-44,-54,2618,-972,2026
88,-11,47,1282,-3429,4460
-48,-14,68,335,-2027,5137
68,-34,23,-554,-175,-2301
-18,-88,-26,1615,1183,-4862
99,41,-76,1392,1768,-3096
33,59,-59,-756,-102,-778
-6,39,-82,-1260,-667,269
66,42,-119,-1021,-381,370
113,75,126,-923,-126,35
-125,83,125,-649,-213,-398
111,77,-122,-649,-168,-371
112,86,-120,-983,-144,-267
-50,90,126,-913,-152,259
-80,107,-121,-666,-317,416
-94,112,127,-200,-312,356
-115,-120,-114,-554,-420,532
107,-106,-108,-762,-626,639
121,-90,-115,-771,-499,833
-97,-77,116,-543,-541,853
-76,-36,-118,-734,-733,937
-99,-18,118,-692,-432,269
-58,-41,108,-402,-93,-137
-43,-43,105,-342,-320,63
-103,-31,114,-688,-445,-8
-89,-39,118,-653,-185,-86
-77,-50,103,-353,-238,-148
-60,-36,105,-636,-395,-3
-64,-35,107,-670,-363,95
-58,-44,103,-313,-268,196
40,125,47,-3252,2884,-3988
-84,-22,-68,-3356,2150,-4369
-37,122,-23,-7018,2145,-5018
-43,-15,-126,-6450,5861,-5968
-85,-55,-119,-3690,5151,-5185
126,-118,123,-3459,515,-1560
-21,-69,101,-2909,-1387,219
-63,-51,-51,-1344,-2293,1876
24,-91,55,-786,-1823,3154
-41,-103,-116,1293,-3284,3065
55,-79,-63,1806,-1358,1448
75,66,-82,-263,1257,-2992
-57,-60,93,-1213,1949,-2244
-48,102,-32,-274,1241,-1651
-58,57,-125,1575,-114,115
-69,86,0,1466,-1908,728
112,54,-30,1828,-2937,2501
-49,0,-15,3647,-4253,4767
79,75,48,2827,-4037,4767
21,-88,-85,1534,-3355,5948
-82,-60,118,996,-871,3699
43,21,-98,717,-2230,3923
82,30,49,3257,-2876,3073
-115,-110,90,1448,-2010,4038
127,-58,11,-295,-357,377
-40,-64,-11,1266,367,-2812
22,116,-33,1288,853,-2104
11,102,-46,106,148,-892
14,73,-66,-760,-546,-398
60,52,-75,-893,-303,-599
-124,37,-89,-641,-276,-589
122,37,-89,-549,-306,-606
112,34,-92,-656,-336,-466
110,36,-109,-765,-336,-12
104,56,-123,-786,-617,522
99,86,-115,-843,-684,692
-114,121,124,-710,-181,609
-109,-116,105,-726,-560,624
123,-63,124,-1325,-797,990
125,-54,123,-982,-544,788
-119,-43,118,-526,-316,540
-95,-10,122,-584,-380,235
-103,-7,117,-735,-80,-128
-117,-27,100,-600,-189,-365
-95,-32,93,-747,-172,-198
-81,-37,95,-560,-198,-122
-103,-39,76,-455,-239,-209
-107,-23,99,-940,-582,142
-95,-21,97,-851,-455,212
-74,-8,109,-648,-454,265
-21,28,4,7154,-438,-1117
0,-18,-4,1196,850,-388
51,41,59,-3955,338,1503
-80,6,7,-4369,-689,2433
122,97,-30,-5352,-256,1876
-60,87,-96,-3530,423,291
-23,77,-48,-544,-449,-530
9,94,-52,712,-915,-725
47,114,-19,399,-1579,10
-49,-98,32,-966,-1716,260
-16,-93,84,-1729,-1296,152
13,-101,107,-1559,-803,-24
-43,-122,-110,-1116,-447,-185
-56,-31,-91,-2689,-182,-536
-52,44,-54,-3051,-246,-341
-50,75,-62,-1443,450,-1235
-10,-57,-26,-1492,963,-1734
14,64,-18,-1756,2054,-2677
-110,87,28,-1572,1455,-3091
22,-118,29,-3746,1921,-3463
-121,8,92,-1446,405,-3003
88,-116,98,-4344,1666,-3487
-58,0,118,-3200,749,-3136
99,-82,-100,-3212,1045,-2214
-80,9,-77,-2584,465,-1537
115,-40,-39,-2934,-1271,-1
-66,12,38,-1923,-1204,1988
42,85,40,-384,-1822,3082
-82,-69,-96,749,-3146,2231
-72,22,115,1717,1569,-2961
-109,-19,21,-592,1426,-1834
-92,-15,91,1403,951,-1453
-36,50,122,1104,-408,797
34,100,51,1221,-1356,1030
-44,127,25,993,-2402,2163
1,86,-10,2189,-2970,3407
117,-90,84,2410,-3750,4606
-49,33,-98,1898,-3673,4557
-9,73,-60,1411,-2194,4220
18,-46,-107,2570,-1440,2307
17,-69,38,703,191,2024
27,22,-35,722,-127,1708
-80,-72,-67,1620,-636,2552
-42,28,-62,179,-741,2518
62,121,-77,-2364,-612,611
11,6,119,-1613,160,-1295
36,-74,89,-761,385,-1548
30,-92,82,-710,-283,-1113
20,-76,89,-1003,-647,-392
37,-78,77,-997,-467,-398
32,45,108,-3850,988,-4205
-21,3,85,-3661,1338,-5110
-126,105,95,-2739,907,-6330
-108,-55,85,-5325,2323,-6928
-58,-74,69,-2802,1213,-5070
-112,-10,-93,-3847,-540,-3081
-100,-51,-19,-4644,872,-1661
73,-32,96,-1586,-2038,761
46,48,-46,-2213,-1469,1917
-51,60,-125,72,-2822,3259
127,11,-40,2240,-1600,3468
82,-92,21,1507,750,-2791
126,71,-119,-2305,1594,-2995
102,-122,2,-328,2493,-2417
126,10,99,1221,-1121,-512
-104,30,17,272,-1095,1056
23,-97,-89,2596,-2545,3496
-114,-12,-51,2231,-3898,5730
54,120,-96,1916,-4387,6359
18,85,93,1099,-3456,4626
-13,55,-62,1071,-374,1632
-45,-64,-115,128,-528,2295
21,-39,-31,1229,-845,2496
-29,-22,-55,1571,-1974,4203
-20,121,-77,1182,-2299,4954
-61,-99,-41,1337,-2344,972
-79,-10,-58,178,-607,-3722
92,119,103,-571,2763,-2424
44,78,-127,-121,680,-396
-102,67,-103,417,-1455,880
-27,107,-119,-717,-945,704
93,-98,-74,-1365,-1088,1216
112,-101,-78,146,-830,571
72,-108,-110,186,30,-1170
-112,-117,126,-665,408,-1426
-111,125,127,-1239,-252,-772
99,121,110,-1267,-375,-659
125,120,61,-1470,-340,-568
112,-106,82,-1340,-993,497
100,-80,92,-997,-1091,334
-109,-34,119,-1182,-582,509
-109,-36,92,-336,66,198
-108,-46,52,345,-46,-203
-105,-18,64,-515,-324,271
125,-40,61,-339,-407,279
122,-37,75,-473,-417,522
-113,-26,70,-499,-316,643
-95,-21,59,-234,-473,713
-97,4,66,-451,-559,702
-87,16,68,-524,-501,447
115,116,87,2962,-1716,3875
-18,-74,-111,2419,-3574,5745
75,-103,33,2354,-3420,5495
-51,66,76,767,-3869,5036
41,-13,-75,-856,-5776,5116
-61,-112,-41,2165,-1670,959
-71,44,-104,4752,-661,2248
46,26,105,-736,-3250,6393
1,-127,43,1649,-1670,-1137
-3,14,31,-1326,2260,-3158
72,84,-67,-1870,1680,-1493
-57,-49,-49,1057,-361,-1165
-67,26,-50,-574,412,-591
5,64,-103,-1443,-159,55
46,65,-114,-849,-569,-79
98,95,123,-1170,-102,-195
106,87,121,-601,-399,-224
103,91,102,-637,-346,-445
104,105,112,-1165,-328,-162
108,103,101,-907,-418,55
109,106,95,-591,-315,308
101,-125,80,-399,-528,548
103,-111,86,-261,-641,719
110,-115,83,214,-817,786
-126,-119,80,640,-636,915
-110,-75,77,-183,-151,1177
116,-4,91,-2185,-246,1350
-122,-48,53,-1173,-632,856
76,-11,116,-441,-1297,724
15,-2,87,-889,-799,-229
-99,55,100,-1922,-357,467
119,54,78,-1062,-274,-166
-111,39,47,-573,215,-1190
-46,14,9,-239,249,-1534
-69,-16,21,-79,-273,-1674
-89,-36,40,-573,-306,-1224
-111,-37,39,-1204,-349,-600
89,-36,76,-1367,-732,82
92,-42,86,-1005,-487,446
-96,-34,91,-395,-171,975
-100,-5,61,247,-73,1207
-70,0,9,316,237,1177
2,99,52,-990,-564,2440
66,48,48,-1001,-848,761
-35,43,70,-731,-571,1102
25,68,66,-353,-232,984
-57,55,35,555,-339,-82
-28,69,41,-333,-325,-205
-61,52,57,-878,-558,-314
-71,26,75,-802,-322,-267
10,-36,-4,-4969,1133,-2260
-3,-76,17,-3964,2971,-3830
-98,-96,6,-4201,2876,-3152
-22,103,47,-5763,2676,-3462
87,-74,116,-4861,3116,-2082
-118,1,-66,-2254,723,-728
44,-91,21,-3096,1087,-206
-120,47,94,-1678,16,1875
-53,22,105,-479,-2067,4062
63,67,-86,606,-2248,3299
64,91,-123,2283,-145,-628
32,45,-104,-611,367,-1834
-76,-35,20,-444,1319,-3042
-128,-82,19,-190,580,-1118
-80,71,-123,1429,-115,-22
38,121,69,801,-1650,1093
16,75,14,1182,-1922,2211
-38,9,-105,2882,-2994,5098
127,-65,20,1472,-5281,6298
-30,-86,-128,2035,-2340,4951
23,-53,-118,1161,-2068,5752
62,79,75,2012,-3371,5620
-111,97,122,2344,-4560,6664
-34,-55,58,-2735,-955,4584
-112,56,-12,-2334,-219,-1959
-43,12,-81,1272,2003,-4367
-33,-64,-120,1679,1500,-3608
-39,-71,121,-161,241,-2074
33,127,92,-836,-382,-1325
110,106,79,-953,-750,-1003
-36,-122,103,-1286,-858,-1277
-30,100,111,-1130,-713,-1991
-100,52,-121,-728,-741,-1856
99,-3,-124,-76,-106,-922
0,-12,107,201,-363,705
-6,70,-122,-771,-983,2108
80,-94,87,-1397,-638,2606
106,-53,71,-1243,-881,2521
-119,35,69,-1847,-1091,2581
110,-106,107,-2406,-1400,2276
-124,-95,92,-1590,-462,1033
-112,108,69,513,155,-441
61,54,47,1534,-267,-1309
66,77,70,-577,-586,-827
93,101,90,-2482,-457,-55
78,47,77,-1475,-247,-520
107,-4,60,224,140,-879
109,7,47,111,-111,-826
102,35,57,-1138,-540,-368
106,51,66,-2045,-679,154
-125,48,76,-3794,2384,-4023
-98,-49,-106,-3121,9,-3745
36,91,64,-2188,-87,-3184
-94,-22,56,-4540,-456,-3000
-56,55,51,-2954,-259,-2236
-66,-64,103,-3383,-977,252
-76,116,-32,-3109,-2007,2084
-49,-116,94,-1187,-2077,3243
89,121,-6,1654,-1730,3591
-36,-122,45,3775,1331,-4169
8,-111,81,-1022,2392,-4332
55,62,88,1765,766,-2652
92,34,33,166,-1447,802
45,47,-113,895,-1415,1683
-33,104,-69,741,-2964,3064
4,60,64,2580,-3726,6945
18,-99,-23,2280,-3341,5847
6,-106,-59,-211,889,4333
21,11,-90,2295,461,2162
-45,70,-35,1199,-403,2376
-77,-91,-65,932,-1381,2901
-34,124,81,419,544,1314
-113,-10,4,1195,136,730
97,-29,10,-716,-555,-30
60,-46,-3,-1740,-907,-349
110,-76,-8,-1281,-666,-486
-89,-90,-73,-164,328,-545
-66,-100,-65,164,-453,-618
-69,-84,-63,-868,-760,-830
-79,-89,-63,-1137,-924,-682
-45,125,-91,-563,-1194,-91
-59,115,-92,-642,-1219,325
-108,-120,-101,-928,-863,726
-111,-109,-115,-714,-522,816
-99,-88,-128,-478,-564,920
-87,-41,117,-746,-728,1170
-106,-7,-126,-1186,-1296,1270
-98,28,-83,-1172,-1120,1407
-99,22,-125,-364,-161,246
-85,-17,107,390,184,-433
-54,-4,117,-322,-222,135
-100,21,127,-998,-292,221
-103,-16,109,-424,-118,-390
-83,-13,113,-759,-143,-3
-81,-2,100,-691,-83,-13
-63,-8,76,-266,-207,-274
-22,0,93,-576,-175,-170
-1,-22,99,-66,69,-307
-35,-67,80,680,129,-596
-5,-83,72,380,-67,-171
23,115,-7,-4246,2527,-3401
11,105,-28,-3510,3839,-4817
1,42,-14,-6295,4415,-4956
-103,-59,-92,-3661,5571,-5274
119,-9,-95,-3196,1544,-2900
73,-50,-2,-3688,-2670,295
-119,68,107,-607,-28,-354
-36,-117,39,-2486,-481,1797
33,71,105,-44,-1569,2707
127,-122,-75,388,-2787,3021
-31,-3,-21,1639,325,-2490
-28,57,-77,-1789,2013,-2181
92,-43,16,-228,1634,-2501
41,68,109,408,900,-282
-22,12,-51,1660,-1810,579
63,17,-56,1521,-4020,2640
-102,32,0,1872,-4068,4170
106,-99,73,2728,-4112,4496
84,84,-19,1490,-2704,4670
79,9,-58,884,-2022,3304
97,-80,116,229,-3119,3518
20,-21,119,1307,-5710,3946
64,-92,-20,813,-4466,6098
65,95,70,-1129,-184,639
-40,22,43,581,1735,-4804
72,-86,-55,1070,2632,-3222
-1,117,-92,-296,941,-1497
-35,70,-128,-285,-331,-156
34,100,119,-761,-496,21
115,125,99,-642,-177,-175
108,117,88,-316,-308,-469
108,123,107,-663,-478,-142
100,-124,116,-915,-794,322
97,-102,127,-948,-740,480
108,-78,-127,-717,-594,546
116,-59,119,-649,-387,499
111,-40,99,-720,-477,375
105,-21,101,-913,-736,455
97,-20,115,-735,-604,442
123,-1,125,-671,-337,355
126,-3,84,-479,-219,79
127,-2,88,-540,-557,303
119,23,88,-957,-537,255
112,12,94,-701,-492,196
-123,19,91,-569,-351,191
-111,29,84,-519,-403,90
-105,31,84,-512,-321,-58
-109,18,79,-488,-370,-127
-107,9,84,-535,-409,-7
-103,11,93,-633,-416,119
98,-14,-27,-1621,2765,-4627
53,-49,69,-3781,3852,-3857
-47,23,-117,-4599,2940,-5099
85,-35,69,-5504,4429,-5294
1,112,-26,-3044,2204,-4209
-59,15,11,-2331,696,-2052
-94,-42,101,-2858,-1203,-923
61,97,-10,-2701,-1041,627
-18,76,-87,-1631,-993,2757
64,-24,3,297,-1800,3663
6,15,80,4223,-429,793
12,-127,-91,-3529,-584,-2255
-95,-127,97,-819,557,-925
16,-75,4,779,289,-2474
-76,-47,-67,521,564,-156
21,-106,-6,845,-1232,225
75,33,-11,2091,-3494,2245
83,-5,40,2202,-4938,4182
-103,-76,-27,2053,-4188,4381
34,23,36,1355,-3124,2976
118,-92,-59,1806,-1691,3644
-96,-71,52,254,-1848,3231
-33,80,0,163,-3311,2299
-65,46,115,1018,-3711,4175
-3,-77,63,-120,-604,1014
58,49,66,414,432,-2280
57,-117,-43,251,2114,-2053
13,17,-122,651,1163,-876
-3,71,-100,-22,-966,1237
47,-106,-81,-1054,-1307,748
124,-128,-123,-571,-114,-108
126,102,106,-339,317,-289
65,-127,126,-991,-458,42
87,114,114,-644,-430,268
92,-119,112,-611,-423,328
121,-93,105,-605,-203,-86
-114,-121,89,-103,74,-354
-120,-75,116,-894,-644,493
107,-39,-115,-1288,-1343,506
-123,-32,-121,-953,-902,629
-113,-73,114,-38,-371,165
122,-54,124,-277,-337,-77
-123,-47,-125,-768,-361,113
-99,-63,123,-458,-337,196
-48,-29,124,-755,-332,443
104,-21,105,-707,-258,-50
-111,-26,92,-747,100,-34
-68,-40,52,-385,-226,71
-79,-1,77,-774,-792,319
-104,-22,82,-402,-600,190
61,21,-80,-6087,2126,-1295
-89,-3,126,-1303,3535,-2315
2,100,-13,-1858,4376,-4725
56,121,9,-4422,4331,-4093
65,96,-86,-2663,3667,-3935
-75,-61,36,-3126,2035,-2390
1,-72,-80,-2728,-991,120
-119,-39,19,-2476,-101,514
-58,47,-103,-961,-193,2263
-51,34,-105,-1295,-3120,3182
-125,95,-97,1575,-3452,2409
-20,61,57,1300,1145,-2144
-57,64,76,-2484,1478,-2224
-48,60,-34,77,1554,-1090
-65,65,-114,1413,-740,515
102,83,35,1544,-1530,1290
48,96,-34,1640,-2689,3104
74,-120,-76,1656,-4421,4144
-128,-6,-68,1215,-6281,3931
103,2,-40,351,-1968,2515
-56,-41,1,722,-1668,3224
-2,23,112,1633,-768,3165
70,-7,-57,1663,-640,3589
88,92,-48,1037,-3065,3759
-89,79,37,741,-3435,1584
50,-24,66,935,-1604,-953
55,-105,28,287,836,-1399
37,-119,-25,-306,1317,-615
10,125,-64,-554,268,-275
33,123,-106,-669,-216,-140
68,117,-123,-613,-153,-417
77,118,111,-648,-85,-626
110,123,112,-1057,-446,-676
111,-117,119,-1439,-551,-514
90,-107,-126,-1676,-612,-453
-113,-92,-125,-1851,-675,-764
-12,-51,120,-1409,155,-80
-107,-76,108,-672,263,-466
120,-83,118,-97,-60,-179
119,-71,113,-288,23,368
104,-42,99,-665,-428,725
-110,-29,103,-612,-590,1166
-26,-5,114,-255,-467,1221
-40,-1,108,61,-655,452
-78,7,-123,-306,-452,47
-76,-14,-120,-401,-477,301
-87,-15,-108,-409,-566,741
-87,0,-110,-488,-344,582
-56,-15,107,-42,-1,236
-60,6,103,-663,-501,607
94,79,-8,-1065,2987,-4067
118,-1,-46,-2526,1325,-3841
-55,-46,-68,-4472,2223,-4562
62,-43,72,-3937,2722,-4861
-45,-128,29,-3697,2485,-4080
-57,-94,51,-3366,796,-2596
-42,-111,84,-2761,204,-847
-94,65,-71,-1389,-365,696
37,116,14,-1841,-1097,1781
81,-109,67,-844,-1860,3024
-4,69,-40,-460,-2770,2477
-40,99,-23,1787,909,-44
5,-112,72,1019,3427,-3100
-54,49,-28,-325,2396,-2895
29,-62,-48,266,-1403,610
35,112,88,608,-1095,1221
-28,41,15,1106,-1540,2104
3,-81,29,1387,-2080,3550
-38,43,-45,-242,-2310,2868
-75,-70,61,803,-2026,2960
23,116,39,1132,-417,3324
50,83,-76,563,-2252,2918
-106,77,-94,-1013,-3628,3507
89,18,103,-550,-3189,3696
51,88,-85,-18,-2746,1847
87,68,78,-674,3063,904
64,69,-11,3985,704,-150
47,44,25,837,-332,-719
64,11,31,-2662,-1073,-664
48,-30,8,-2672,-1525,-87
109,-13,14,-1330,-615,186
127,-14,7,-195,-153,379
107,23,-6,-156,158,8
124,8,-40,-223,-202,-149
-119,-17,-70,-328,-806,110
-113,-40,-113,-882,-606,-214
-71,-65,119,-759,-312,-360
-79,-79,124,-524,-608,227
-87,-79,116,-246,-594,635
-85,-80,-126,-3,-718,951
-57,-67,-103,-62,-1037,1310
-11,-48,-67,-505,-891,1608
-64,-72,-98,-213,-512,1545
-101,-32,-104,-696,-878,1908
-100,10,-66,-1082,-1257,2327
-120,12,-123,26,-137,1836
-97,20,117,479,-347,728
-93,76,-110,-545,-459,-63
-95,18,118,-497,88,-1380
-66,-34,99,-174,219,-1808
115,-60,-27,-6767,1039,-3935
-116,40,-83,-8274,4423,-4130
30,-68,85,806,3654,-4826
40,-94,109,-3007,2262,-4096
124,93,117,-3013,1863,-2671
-86,-88,-112,-1238,1266,-994
97,69,122,57,-2642,874
-117,-125,-48,-2096,-2072,1412
74,104,81,-673,-2229,3024
-91,14,-35,-1563,-4081,2164
-32,116,-26,2507,1035,325
109,8,-127,1204,3773,-4025
71,-88,88,-2334,1670,-3097
-60,32,-39,1395,-99,-649
-15,98,81,-57,-376,84
20,-16,-43,1275,-1394,1347
52,-47,-16,4098,-932,3852
-101,-53,59,-978,-5492,7396
-51,-55,75,847,-460,5053
37,-8,-82,896,-2030,5605
27,-21,-77,-559,-3739,3916
-62,101,91,-104,-1618,3336
63,16,76,4379,-320,3079
-18,56,-2,399,-3769,5504
70,-69,-113,-1519,-5664,4604
-5,29,-18,208,-874,-762
-7,-84,-93,731,2700,-3129
10,-116,-92,825,1555,-1653
-47,125,-74,634,-767,-133
-21,-125,-87,-644,-841,-251
32,122,-103,-1095,-144,-626
105,71,-127,-379,-69,-1064
-122,60,-128,-216,-311,-1181
114,52,125,-587,-339,-986
79,47,120,-1024,-604,-798
102,52,122,-1218,-589,-208
112,54,97,-616,-273,191
-119,76,83,-420,-268,453
-115,127,69,-754,-587,788
-123,-102,74,-1008,-749,893
-114,-79,80,-1056,-640,942
-123,-52,78,-880,-580,784
-126,-35,86,-707,-517,625
-126,-19,77,-703,-281,401
-117,-4,57,-774,-352,328
123,10,47,-1042,-649,300
108,25,60,-1257,-686,278
-128,42,71,-1181,-508,231
-103,53,71,-801,-491,25
-103,53,61,-387,-178,-315
112,99,-63,-4529,1151,-4201
62,-34,-54,-2324,2670,-6017
7,-48,-94,-3721,2196,-5112
-58,42,41,-2424,1771,-4737
-42,-22,-113,-2146,76,-4008
-42,-19,69,-2910,-577,-2699
-94,-19,-89,-1733,457,-2293
52,17,94,-2780,-2013,-202
-47,-127,-78,-2085,-1878,1169
-3,113,27,-1938,-1516,1753
30,-55,-95,-1299,-2882,2804
18,55,-6,399,-2708,2732
-27,-4,-60,1724,224,-729
50,-8,-111,-1074,50,-1987
4,14,-118,-944,767,-2750
74,-61,62,1022,2272,-1357
-86,-74,-116,420,128,-1262
11,2,-18,286,-415,909
-2,-123,-84,1853,-2237,2637
68,108,-128,2056,-2125,3871
-26,-116,-15,1634,-3724,6786
116,-116,9,86,-4187,4516
-71,5,-41,673,-4412,4071
-76,-126,108,1669,-775,2446
-28,43,24,2044,-1767,3528
87,94,-118,-193,-5611,5170
-110,-78,-119,688,-2289,3619
56,-54,5,63,1309,-2672
9,-39,-59,-171,1620,-3487
49,84,-86,333,604,-2127
-16,74,-78,-572,-334,-847
-7,57,-109,-886,-354,-113
45,81,122,-836,-260,14
91,121,106,-962,-447,25
97,-115,101,-1152,-555,-79
91,-120,94,-971,-517,-47
77,-112,91,-893,-685,306
66,-75,104,-1169,-846,535
73,-54,113,-959,-656,481
85,-41,105,-548,-417,420
84,-19,99,-725,-509,448
83,-3,88,-805,-539,436
67,6,73,-797,-574,354
106,22,76,-937,-700,547
93,39,75,-791,-736,319
120,55,91,-966,-659,171
121,54,88,-875,-461,-74
108,36,84,-603,-343,-192
102,34,79,-688,-304,-147
103,19,76,-415,-252,-44
99,112,9,-3983,1745,-3868
44,27,2,-2209,2114,-4057
-78,-116,-117,-2064,2128,-3866
-7,84,27,-438,748,-3167
-126,-26,-63,413,-1377,-2001
-118,-24,-45,-2650,-164,-1089
33,1,-110,-2595,-588,-787
-42,73,-54,-1439,-1258,1350
-81,65,3,-1859,-1150,1947
-120,114,71,-886,-2692,3145
-9,0,-66,-301,-2813,3122
35,36,-106,1819,497,-601
105,111,108,-688,2111,-3387
123,-26,84,-156,2638,-2674
39,21,119,1041,296,-413
71,34,46,784,-907,427
0,-14,18,794,-850,1774
10,-85,-53,1406,-1739,4066
76,34,-33,911,-3179,4833
-66,-86,-126,1377,-4722,5867
5,-23,-92,1261,-3099,3294
46,19,-42,-363,-1560,3276
81,71,72,542,-779,2824
107,-72,-5,2494,-1046,2830
-9,-70,14,2114,-1118,4227
56,67,8,1146,-1048,3599
113,-119,6,-428,-527,484
2,36,-17,-667,222,-1355
81,-66,-42,-438,163,-1111
-21,121,-54,-216,-312,-985
34,-121,-50,-1034,-323,-773
95,-109,-79,-1360,-528,-702
98,-112,-115,-1062,-744,-982
105,-87,127,-1384,-968,-951
121,-73,108,-1364,-874,-989
-125,-68,118,-1153,-605,-780
121,-99,100,-207,-468,-738
101,-88,125,-360,-295,-549
109,-78,-126,-927,-260,-491
-122,-57,100,-1101,48,-167
-113,-44,85,-208,-325,554
112,-40,62,-71,-476,717
100,-11,88,-781,-888,985
-128,-5,82,-439,-495,1558
-96,10,85,126,-369,2223
-102,33,113,-169,-1298,2019
116,42,114,-1086,-1082,1222
123,82,127,-1638,-1011,1177
96,98,-106,-1480,-940,689
116,120,-115,-1279,45,-218
-17,-36,5,-624,3088,-4509
-124,-95,-113,-3545,2542,-3573
-110,-89,-59,-3295,2670,-4594
63,-121,-103,-2524,1699,-4928
-96,15,50,-3713,328,-4172
-61,-78,21,-3697,-280,-2380
56,63,48,-2461,-126,-1620
-39,-42,-99,-2736,-1460,-36
72,-72,25,-2600,-1258,1210
-101,123,71,-1273,-658,1939
-118,-51,108,-285,-1577,2421
12,52,37,1802,-2175,1325
33,-58,-36,628,1778,-1671
11,125,-116,-1990,1137,-1970
15,-35,29,119,1000,-1582
-94,-120,89,1033,-62,202
-105,90,8,1327,-1668,1110
94,-13,-52,2370,-2741,2634
-57,-31,-77,2610,-3290,4512
89,56,105,2330,-5241,5588
9,11,-62,2055,-4168,4292
-45,61,-62,705,-1662,3317
-53,110,90,1741,-679,2312
38,-125,3,788,-1581,3382
-1,-116,23,-302,-3052,2797
-65,101,61,-284,-1465,1303
52,77,-6,-537,984,-857
-8,-2,-30,-488,738,-1381
19,-47,-60,-642,420,-739
30,97,-127,455,29,-430
56,115,124,176,-178,-128
68,-123,122,-812,-595,-413
92,109,124,-973,-449,-332
106,80,105,-517,-209,-208
100,115,103,-857,-338,134
112,-116,96,-787,-457,151
114,-105,90,-347,-523,131
109,-72,100,-665,-528,230
115,-61,98,-776,-496,328
120,-56,99,-490,-528,306
125,-31,105,-589,-492,238
-127,-24,104,-757,-396,222
-128,-29,101,-407,-402,162
-123,-10,93,-567,-257,67
-112,-13,88,-495,-283,69
-118,-23,82,-315,-270,101
-116,-19,74,-464,-247,119
-120,-16,71,-540,-374,207
-112,-18,53,-339,-394,147
-81,0,65,-519,-499,220
123,108,-118,-2577,1977,-3608
75,-20,-20,-4131,2685,-4292
-78,21,-43,-2070,117,-4205
67,-94,62,-2967,794,-4058
50,34,26,-3572,-121,-2198
-69,-51,62,-2166,-815,-1033
-58,-93,-75,-2779,-1201,385
55,90,117,-2021,-1883,2228
-75,-73,-51,-433,-2384,3589
45,80,31,3489,-2154,2640
24,61,66,2163,2181,-3599
-5,-112,21,-3133,576,-1869
-54,-125,74,-445,810,-1976
109,66,121,1807,-1543,881
-43,87,-2,1480,-660,1785
-13,45,-59,2944,-2105,4096
47,100,60,2362,-4136,5032
-26,-84,54,2578,-2849,5327
57,-42,105,1427,-1137,3570
-12,57,99,2002,-975,3867
-49,-58,44,736,218,1417
-53,73,35,760,70,1543
-105,-41,-34,971,140,1313
118,-59,-31,402,-609,1285
110,-108,-66,108,-713,798
104,113,-51,-490,-904,605
118,106,-75,-480,-215,328
101,45,122,186,149,-530
96,34,-123,119,-363,-462
98,40,-119,-483,-591,-77
-127,47,-108,-846,-575,270
-102,53,-123,-603,-570,186
-107,76,-95,-772,-800,79
-97,87,-97,-949,-464,-46
-101,85,-121,-934,-174,-60
-79,106,101,-1051,-414,295
124,-97,123,-1661,-982,492
-115,-73,119,-1756,-25,252
-73,-53,100,-1113,82,41
-67,-50,89,-287,-202,-237
-73,-35,85,-617,-399,-226
-65,-22,98,-1091,-332,64
-30,-39,114,-476,-397,256
-61,-33,115,-118,-114,-49
-73,-44,109,-150,68,-301
-56,-51,96,-262,13,52
-61,-64,87,-46,-137,182
-27,-78,85,242,-7,277
-37,-77,71,116,-110,491
-50,-93,84,805,-763,1002
-115,-3,8,486,3344,-5383
-67,77,-77,-3256,-536,-4578
66,-7,20,-5766,2621,-5920
-122,-124,-92,-1691,-8,-4858
105,70,22,-5485,59,-3870
-61,-33,-23,-3476,151,-1401
48,56,79,-3203,-1567,1516
-7,126,-30,-2984,-4759,3205
-22,0,45,-524,-3966,3414
-19,127,-42,2248,2968,-3450
-9,-100,18,-399,1393,-2748
94,51,-75,926,1204,-1367
7,-99,-44,1848,750,172
18,73,64,2029,555,1480
-75,-101,67,3533,307,3135
-93,-112,-78,2048,855,5424
73,-36,-60,2707,-1227,10996
35,126,-76,-507,-7061,10208
51,-29,126,-882,-346,260
114,86,2,1798,-1623,5642
-3,22,-101,1247,-1414,5051
51,1,-11,-404,-879,1813
-29,117,-44,-497,-669,-1916
44,-57,-73,731,369,-2388
81,121,-97,304,869,-2053
100,65,-93,-339,48,-2060
125,11,-100,-483,-315,-1261
-100,41,-104,-1448,-561,-834
-101,11,-112,-1080,-552,-400
-107,41,-114,-756,-510,145
-58,103,-108,-1101,-301,264
-60,110,99,-660,164,-6
-105,76,68,390,-417,173
123,110,96,-288,-736,953
-115,-100,109,-936,-959,1570
126,-79,-115,-858,-1232,1659
-90,-48,-91,-671,-942,1720
-78,-14,-127,-470,-591,928
-95,-8,-122,-449,-343,296
-96,-14,96,-300,92,-47
-117,-41,84,23,-215,-344
-96,-53,69,-117,-10,-349
-88,-49,74,-550,-350,-278
-73,-65,82,-664,-437,-201
-75,-81,84,-473,-356,-186
-72,-65,90,-768,-431,-62
-69,-61,82,-769,-418,89
-69,-38,81,-863,-486,219
-66,-26,83,-798,-464,264
-69,-14,85,-699,-396,228
-115,10,-26,-3817,1887,-4025
35,-29,52,-714,913,-5453
116,86,109,-5212,2948,-5045
-30,-88,52,-3048,3451,-4592
19,-117,-58,-2180,106,-4533
75,79,-17,-3186,-1150,-2216
-89,-95,-22,-2304,-626,-1713
-75,121,-119,-3107,-1557,661
41,59,-3,-1815,-1744,1585
103,-59,-43,-1185,-2535,2668
-45,35,-19,2434,-787,2065
103,102,-112,595,590,-1934
110,-6,115,-1120,1063,-2027
-68,-89,-18,-416,1142,-1561
-83,76,124,1209,121,192
-51,108,21,547,-1267,959
-78,51,-8,1482,-2191,2194
-37,-13,126,2553,-2636,4138
22,90,-16,1950,-4147,5352
-46,-119,-54,1853,-4220,5002
-112,3,63,-847,-4677,5899
76,-34,-50,43,-1578,1582
-125,52,-14,4211,581,1115
47,42,-23,473,-603,3888
15,-91,12,-678,-2898,3585
89,57,-29,426,-1628,-100
46,-7,-81,170,1109,-2616
50,-116,-118,418,797,-2359
-29,-120,-103,-343,-719,-1214
-31,110,-119,-914,-725,-736
93,89,107,-881,-284,-260
115,94,96,-276,-499,-227
88,115,-123,-283,-750,-417
94,112,126,-681,-232,-612
111,91,108,-672,-317,-469
83,83,102,-666,-642,59
32,105,100,-949,-660,587
20,119,81,-921,-551,856
-118,-106,60,-698,-611,1684
-58,-30,65,-728,-611,2488
112,9,46,-219,-658,1649
95,57,65,-536,-676,665
127,54,51,-835,-438,-111
-119,4,61,-328,-497,-241
101,-1,72,-473,-307,-298
97,-14,64,-479,-178,-375
120,-37,44,-328,-200,-461
-116,-50,46,-287,-264,-312
-102,-40,54,-652,-386,-10
-117,-41,56,-820,-406,10
117,98,-88,-3627,3593,-3031
68,-8,120,-4275,2911,-3861
-105,-52,43,-4998,2962,-6002
-40,124,88,-2437,3031,-6519
76,-16,-69,-5206,1461,-3553
11,-8,-100,-1845,1032,-2737
-9,117,-11,-1148,-310,-1537
-121,72,-79,-2337,418,-151
82,-22,-108,-740,-2289,3153
126,-76,29,412,-4101,3942
43,77,44,5253,9,1294
-37,-75,95,-2990,794,-3147
9,20,126,1348,2937,-3453
42,102,80,-1950,2687,-2075
106,-66,-31,1373,527,886
55,30,-123,-33,-1576,984
67,-120,79,1351,-1772,3571
119,-41,27,484,-4249,5640
-62,10,19,1294,-5964,7262
-19,-59,-88,353,-5003,5414
-104,-50,-57,1410,-6009,5283
-14,58,-8,-593,-2701,3410
85,-15,-73,2369,573,816
-14,5,58,799,-2859,5471
17,-24,-95,2490,-168,355
99,52,-13,-175,-645,-3681
37,-96,96,-1143,1324,-2611
44,102,-128,-354,415,-190
-69,58,-94,772,-822,290
-24,104,-104,-87,-260,686
29,-113,-83,-534,-744,624
67,-96,-64,-924,-735,281
127,-119,-97,-446,444,-255
-95,-124,115,-27,256,-295
3,-92,-128,-816,-607,-130
48,-94,110,-1579,-884,275
118,-78,93,-946,-396,667
106,-69,63,-337,-78,-6
119,-35,52,-774,-320,-44
120,-42,60,-735,-588,80
124,-58,81,-411,-494,145
122,-61,81,-208,-334,168
110,-45,84,-535,-514,285
-97,-32,79,-607,-604,586
122,-18,81,-551,-778,365
102,7,96,-1158,-767,336
111,5,100,-1162,-673,484
-95,8,82,-475,-267,618
-111,38,60,-324,-298,322
101,24,68,-11,-349,-211
14,69,56,-2776,2086,-3994
-24,-18,-119,-2824,1916,-4767
108,-47,-101,-3136,2709,-6177
9,11,98,-1581,125,-6618
-96,32,65,-4874,-1396,-5054
74,120,-30,-2511,-1513,-3447
-80,-125,-71,-2694,-1710,-949
-86,2,91,-1663,-1768,1247
2,112,-14,-932,-2442,1860
102,126,21,2448,-2618,3917
-21,-112,21,1730,2661,-3991
12,-49,25,-3202,-809,-2247
57,78,-32,2083,-1809,67
-49,111,4,2573,-1971,1406
50,108,105,2641,-316,2014
-121,68,94,4545,-1773,3782
73,44,57,1038,-295,3866
-95,-108,-7,2001,-612,3888
23,68,-49,417,-1267,3783
52,-83,78,1315,-33,2000
-63,76,70,-361,-1268,1483
-52,-69,-48,-1286,-453,-508
15,34,96,-941,-663,-194
74,-31,-15,-1046,-148,70
-117,-56,-54,-295,525,-64
-89,-51,-101,58,614,-121
-103,-84,-104,-181,96,-48
-104,-72,-26,-312,-341,226
116,-52,-9,-625,575,-178
75,-46,-18,-1342,-473,276
-42,51,80,-583,-725,852
-99,-43,-31,724,851,425
41,-68,115,277,-390,624
-62,-36,72,-784,-606,-298
-120,-3,-30,-120,-85,-682
95,-79,-63,-606,-281,-67
107,-122,-73,-68,-267,145
-98,-27,-15,-392,-178,489
-63,31,17,-322,-286,322
-47,108,53,-607,-557,327
-87,39,29,-681,-664,-44
-64,30,33,-991,-489,274
0,63,43,-245,274,302
-42,76,1,-292,94,241
-78,85,-14,-542,-370,-13
-47,84,-83,-528,-267,-548
-42,-106,101,-940,1984,-3513
-74,102,92,-1897,258,-4454
93,29,56,-3377,-740,-5842
86,-31,68,-3461,-1947,-4472
-120,-55,20,-2550,-2301,-3586
25,110,-125,-2605,-2137,-1869
-4,-87,-24,-1808,-2990,81
13,67,-39,-2655,436,84
11,-6,120,-429,-121,1225
-123,-8,-104,-424,-597,2230
-49,-44,27,542,-1214,1775
-37,10,127,-1058,-1548,626
-49,-4,116,1162,2779,-2981
-56,102,95,-1461,1558,-2310
122,99,-86,721,76,-675
56,7,-15,984,-1219,710
-119,-92,-125,1374,-1989,2020
-40,24,-4,3163,-3397,4770
-86,-106,120,2165,-4137,5792
117,19,57,1757,-2063,5754
-29,-87,119,768,-2255,4234
84,72,-77,4110,-4419,6167
-84,57,-28,1085,-3173,6075
109,-7,-82,-154,-2381,200
119,-22,15,160,2102,-3919
45,46,-83,1818,3142,-3331
88,-23,-105,2199,1049,-1870
41,-12,-40,421,-283,-1014
39,-58,-9,-391,-342,-866
89,-102,-24,-595,-59,-471
-118,-112,-31,-309,-551,405
-51,-85,-59,-201,-482,1497
-88,4,-86,-733,-489,2033
124,19,-114,-39,-298,1686
110,20,119,813,-6,1007
-114,37,110,794,-34,878
-99,52,110,222,-278,986
122,47,-118,171,-727,710
94,37,-59,241,-740,351
106,1,-43,667,-55,-78
-81,0,-24,261,65,-170
18,-23,-53,281,154,-45
-29,0,-12,-181,-781,172
33,22,12,-1263,-390,-525
-94,8,-45,-1611,757,-626
52,-40,118,-79,610,-716
65,-5,-101,166,-473,-481
11,46,-75,-1084,-147,-646
-31,29,-61,-1231,-296,-546
0,16,-86,-692,-97,-84
4,43,-106,-471,-541,378
-18,97,-92,-1166,-1007,814
-52,-127,-94,-1227,-1032,783
-63,-113,-106,-907,-884,938
-95,33,-7,-2367,2166,-3713
32,-78,3,-847,1150,-4589
117,-128,54,-3272,621,-3422
104,11,63,-3690,1888,-5577
77,-76,72,-4264,1326,-5161
64,89,74,-3727,1601,-4469
111,88,30,-2389,341,-3557
-81,65,-45,-2242,-1037,-918
121,-68,-50,-2437,-2747,1499
-17,-58,91,-1842,-276,1469
-40,81,21,-1029,-2089,3003
33,-13,-7,2852,-2741,3575
100,3,54,2202,2092,-2656
-91,-103,23,-3212,1468,-2405
-36,67,96,-1418,1402,-2120
60,-73,13,2425,-1044,396
90,48,-21,320,-1847,1306
41,103,-73,2941,-2879,3647
-103,-23,36,2656,-4212,6795
120,-69,-98,1608,-5346,6490
76,-120,-93,2955,-2032,4490
118,82,87,-255,-252,3584
7,-113,-90,4475,-1064,1700
13,-16,-127,2037,-721,3763
21,15,28,-162,-3089,6220
113,1,26,214,-3346,1044
-106,52,20,150,-557,-4517
118,68,-64,-175,3478,-4171
-9,-95,-67,712,511,-1148
-121,-48,-33,-56,-1733,1607
68,-2,-61,-577,-678,513
103,-47,-117,149,162,-473
24,3,-103,-607,-422,210
28,71,-112,-1268,-810,374
51,62,-120,-603,-598,38
58,26,114,4,-106,30
-105,80,112,-602,-247,532
-98,71,54,168,-3,-71
69,44,71,-158,-368,-127
99,79,89,-989,-242,865
-120,58,55,371,134,259
-120,63,43,475,-37,33
124,79,53,-400,-512,353
118,65,68,-43,-625,424
112,104,86,-403,-539,389
111,102,91,-74,-539,287
