AccX,AccY,AccZ,GyroX,GyroY,GyroZ
80,-92,-48,-2202,5783,-4037
81,-53,-96,-2989,4815,-3462
72,41,-117,301,-2593,-6860
-47,-50,82,-2530,-1419,-8312
-75,-23,5,-6000,4695,-6522
-40,91,-5,-5329,1423,-3277
-66,-7,10,-2232,880,373
116,-112,99,-5006,-5597,3418
-13,127,57,-4124,-8763,3695
107,23,-102,2477,2895,3926
3,69,-97,5876,3173,-7907
78,-103,33,-899,4190,-3528
64,54,-56,4085,-82,-530
-45,0,45,4314,-517,167
123,-66,-52,4202,-1905,2381
26,-119,47,8842,-1176,5327
-56,126,-15,4627,436,5215
21,22,-12,4544,809,3677
53,36,39,380,825,4934
16,58,47,-565,-436,4929
-6,51,-76,-624,-89,6098
-118,-80,-122,230,611,2076
-27,65,87,1464,439,-1644
-50,-96,15,-127,-764,-3030
-15,-2,53,-226,-473,-2161
-50,-49,44,548,-548,-355
-69,-2,40,-336,-410,784
-38,91,24,-1862,-156,914
-24,118,-21,-2030,-121,717
-28,110,-60,-1238,59,287
-13,118,-80,-295,111,-54
-16,-118,-74,10,-37,-92
-8,-103,-88,126,108,17
0,-80,-99,-144,63,112
9,-73,-112,-164,93,74
18,-74,-124,18,45,-19
25,-66,-121,-67,-46,15
34,-62,-126,-91,45,26
46,-56,-127,-95,-14,-1
57,-57,118,-46,48,-27
58,-50,121,-185,-36,-30
66,-56,120,-103,3,-1
71,-53,121,-79,16,9
78,-47,116,-124,9,24
87,-44,109,-62,44,-10
94,-46,107,29,36,-31
103,-37,102,-56,8,12
104,-38,99,-7,53,-35
113,-36,97,-10,-22,-17
121,-33,96,7,62,-4
53,56,120,-1854,6097,-3474
-114,-128,-7,-2946,6959,-3774
74,-104,-79,2927,-1603,-6469
59,-25,109,1440,-1143,-7150
-9,-17,-29,-3749,-273,-8348
50,-99,16,-6795,2459,-4813
-13,27,3,-6077,-4502,2714
-44,6,39,-6594,-4127,3056
92,108,-35,-7258,-7584,1644
-19,-120,45,-1039,-38,5675
66,-54,-50,14552,3482,-3823
127,2,23,4428,3560,-7553
101,-121,-17,-1878,2513,590
114,125,-31,8081,-808,-455
65,100,23,4122,-1046,853
33,-6,29,6374,-1743,5752
-120,-43,-52,6777,-1444,5881
14,33,-23,4064,-69,5090
86,-61,57,-1625,434,5969
-89,97,-62,609,386,5029
4,99,2,1408,-1042,2025
-117,-69,-26,4540,20,2945
-14,-122,-54,-541,4757,5952
82,4,-86,-582,-1473,-4330
75,-63,-82,-310,-3198,-7456
100,-84,28,1534,-761,-2705
36,-75,25,1042,864,1721
-70,14,67,-1952,514,1518
-72,53,-47,-2917,405,1289
1,82,-118,-2307,635,1011
-2,98,125,-898,180,303
2,58,-100,899,-290,-1022
25,48,-113,1723,-39,-920
46,94,-71,473,-201,-136
50,93,-88,-280,-17,306
46,99,-87,-324,-32,367
42,106,-109,-63,81,318
55,122,-114,30,19,231
70,-105,-115,-106,3,180
63,-112,-128,46,78,-110
70,-120,125,106,54,-202
86,-121,118,-22,112,-93
82,-118,116,-81,-29,-40
88,-120,115,-2,65,-138
104,-123,106,48,89,-67
107,-106,105,-175,-47,78
110,-106,102,-68,5,-23
119,-100,109,70,-6,11
126,-81,103,-162,36,49
-122,-76,101,-156,50,-98
9,-16,-92,-2489,3199,-3428
97,32,-75,-595,7461,-5638
-59,21,-108,1790,-2492,-7354
-34,-6,63,-2072,-1623,-7770
-122,65,-25,-5524,2657,-7075
118,-32,125,-5599,1857,-3124
2,-99,-34,-5054,-5879,4198
75,117,-42,-6720,-2714,2648
-88,-84,-25,-11798,-7179,-1396
-94,-41,70,6228,11497,1906
-66,56,-103,11071,1404,-3750
-28,-89,-78,1472,40,901
15,-87,88,5704,-3154,-1701
-60,-61,-30,7372,-1090,564
-51,3,-115,4151,-360,1883
100,-49,56,9531,-1883,4418
-101,-82,-69,5072,2928,2488
123,52,101,3172,1680,4088
48,-56,-3,-1081,487,5635
-71,70,-115,-713,1151,3899
93,59,20,1301,247,2685
-27,80,24,2624,-263,4373
-26,-52,-40,-1788,2523,4180
-41,114,87,-1052,1291,-1066
-128,52,71,-850,-1989,-4394
57,-24,17,357,-118,-2439
-38,-112,-20,1781,-174,-816
-93,-5,-3,243,-163,352
-37,57,-5,-1215,-362,883
9,83,-47,-1213,118,696
-3,101,-71,-862,-6,152
11,86,-81,-227,47,-340
16,76,-82,236,-26,-252
15,89,-90,336,63,-32
20,118,-85,-196,-19,151
32,121,-102,-237,140,182
50,124,-114,-60,160,133
53,-127,-124,92,49,69
61,-114,-123,-45,-51,138
51,-99,-116,-210,-59,177
59,-96,-121,-231,62,132
80,-90,127,-221,59,118
105,-84,112,-131,85,-19
124,-84,113,-52,48,-25
86,-72,121,-218,25,-136
84,-83,115,-68,189,-174
99,-81,106,-177,92,30
121,-62,100,-337,-11,223
-118,-53,97,-369,22,106
-109,-36,104,-419,6,215
125,-123,82,-3949,5799,-2106
21,42,50,-145,429,-3593
88,124,-126,1954,283,-5974
27,-74,93,164,936,-6514
72,91,-7,-4607,1598,-7553
25,50,113,-4973,3886,-5198
-110,52,91,-3329,-3298,-304
-36,91,-49,-8180,-7614,4517
-81,119,94,-7210,-6545,864
-68,-37,-51,-2195,-1235,4683
-26,73,-92,14278,6127,-2938
60,-87,-97,6231,2082,-4777
-64,-123,100,-1273,540,-383
88,-9,-80,5159,-173,-879
-59,11,-22,5946,694,1368
-21,-52,68,4816,-2293,4883
-120,-78,26,6057,-992,6012
71,2,122,2022,238,4899
59,-111,-49,3070,-473,3457
-91,-120,33,-187,-384,5909
-36,106,63,-2637,-56,5913
13,119,-84,2490,-938,5357
94,-128,85,-1516,2690,3686
23,45,118,-193,-520,-4232
113,-82,88,106,-1836,-7399
72,-28,38,525,-8,-1130
-81,-51,36,-1780,566,2335
121,19,-1,-887,-199,868
6,-85,-56,-933,-42,1330
7,-13,-93,-2068,404,803
-11,-49,-124,-1509,415,-385
0,-121,119,452,450,-1006
-9,117,-117,1128,-265,-857
-22,113,-108,1319,-322,-369
1,-84,-102,-125,5,247
26,-56,-109,-884,240,375
36,-72,115,-285,259,291
29,-74,105,310,-42,-13
49,-69,106,368,-110,-80
66,-49,113,-51,-72,93
65,-45,117,-219,-22,73
66,-58,117,169,25,-135
61,-56,114,87,-49,-172
80,-59,105,-163,35,-45
93,-64,102,-100,3,-16
91,-68,96,43,2,-126
100,-75,96,200,19,-153
103,-77,90,212,34,-91
115,-78,79,163,35,-247
113,-69,83,264,-65,-79
27,104,-70,-3460,2875,-1933
10,32,-113,2058,8862,-5767
-105,-42,-104,-110,2077,-5672
-70,-93,122,-543,224,-10292
-66,99,-38,-5908,4193,-6892
-83,51,16,-5447,1900,-1946
105,-16,47,-4840,-2853,3068
6,-116,92,-5167,-4964,2379
-87,-126,-97,-6577,-7136,2124
81,84,-124,-1777,4199,1603
-22,53,76,14375,2126,-3942
109,68,-5,1005,3484,-4365
7,-118,25,4067,-2054,-922
90,-25,-22,8672,484,-940
-128,-121,93,7818,-2868,1402
-72,84,-98,6210,-244,3360
16,-25,-124,4862,1438,3872
-96,13,-28,-1679,2915,5275
121,115,101,3536,-413,4217
-105,123,-97,-1344,444,4777
-58,88,-118,3773,574,3802
-127,9,-56,-626,1160,4202
44,90,30,-3010,334,2439
-115,-98,81,795,-233,-1588
-85,68,-123,-782,-1500,-3583
28,-80,124,1065,754,-1482
-39,-37,61,538,675,85
-75,-2,-30,561,-34,206
-20,62,-55,-779,167,490
15,60,-94,-612,414,229
9,58,-119,-355,283,-267
5,38,-113,243,-110,-433
11,37,-98,302,-144,-251
16,57,-89,-64,-85,47
23,79,-96,-496,-118,242
32,82,-108,-224,-93,119
47,93,-107,156,-36,12
62,117,-93,-113,80,3
66,118,-105,-21,129,3
61,121,-122,-93,66,-25
66,121,114,-93,102,2
72,123,105,-4,42,24
78,-120,100,0,-49,-7
92,-111,99,-131,47,-69
97,-115,94,-106,47,-121
101,-116,98,-91,-42,-54
106,-111,96,-171,26,-11
114,-105,96,-143,22,-6
119,-104,93,2,4,-29
126,-99,93,90,21,18
-80,23,123,-2390,4607,-5516
-9,49,-16,576,7521,-6896
16,88,-121,1970,-3481,-8847
-103,-107,64,-4300,250,-9004
46,-17,44,-7122,1049,-4330
-102,17,43,-5314,167,1854
-72,-88,-54,-8076,-4715,4066
-118,-34,39,-6524,-6024,861
-24,40,10,-14619,-8884,678
-59,105,-44,12332,9000,1106
-76,-41,16,14071,1062,-6971
35,-1,72,1721,2548,-2446
-101,-121,115,4629,-2899,-566
15,-17,34,6020,-89,-291
127,71,-41,9595,-1679,1356
-34,0,41,4887,3576,3975
-11,25,9,-1076,3507,6738
-67,95,4,1708,-1093,5932
118,124,-48,1818,-1215,5178
29,-87,20,3758,-857,5035
-109,-28,-47,4873,1964,6565
27,-113,-88,-4010,7056,-146
-8,54,4,-1740,-1859,-5774
4,-18,23,-577,-2391,-4236
14,-21,-45,1918,-1541,-78
-87,-2,26,92,-725,589
-61,72,13,-3212,572,290
45,101,-122,-4884,1811,875
-58,-17,117,-6624,-225,967
-28,81,-92,-586,116,-13
-30,122,-20,574,-194,-845
-20,-87,-92,3257,-1101,-186
37,-11,-117,2501,-435,229
45,42,116,-518,1068,379
40,36,81,-1309,1139,124
37,-28,73,-289,173,-409
43,-60,83,798,-482,-752
51,-50,102,471,-421,-375
52,-30,116,-523,-93,5
57,-22,118,-797,-40,157
73,-30,122,-420,-161,38
87,-11,-107,-431,-64,-7
102,-29,-98,378,254,-98
89,-27,119,582,40,32
97,-10,98,160,132,113
104,4,84,-362,155,142
111,-5,77,-135,69,74
115,-20,73,292,-18,-101
119,-10,84,20,-64,-69
126,0,101,-386,-20,47
-111,18,115,-4393,4990,-3760
-17,36,-73,-60,5923,-5532
-102,127,106,-396,428,-6972
109,110,45,-5937,4650,-5686
115,-121,-110,-9121,5462,-1314
-67,7,46,-2488,-1325,614
-108,-25,-101,-5589,-6292,3356
-57,-34,24,-6098,-5211,980
101,-12,115,151,-2053,4223
124,-34,7,6986,9079,-6646
-43,-13,107,10643,2447,-5201
68,75,73,485,-909,-268
-76,69,-55,8870,-5935,493
-36,-20,52,4536,-996,81
-34,-12,114,4648,-1473,2787
18,97,65,6773,435,3753
-111,-103,-116,3404,3569,5276
-123,16,104,-1192,677,5381
29,-125,108,2946,-447,3578
53,-55,-28,2344,128,2407
-114,-11,8,-1412,225,5612
46,52,-99,-2870,-734,4839
-54,-18,74,2767,-444,-4376
-72,-125,118,46,1160,-4447
-18,10,0,-652,1327,-2105
-23,-38,-69,-293,143,-537
-20,-22,-52,-1354,-176,674
-28,12,-75,-1188,-168,558
6,71,-52,-872,-180,252
29,84,-60,-320,16,101
29,89,-96,-91,170,-194
28,88,-103,86,103,-151
17,89,-114,220,-23,-93
38,98,-111,410,-114,33
42,125,-109,137,-34,84
53,-127,-118,-2,29,-26
59,-126,-118,-2,-38,-24
66,-126,-120,-43,27,-99
79,-119,-123,-217,54,9
78,-118,117,-188,47,-37
83,-120,110,-48,29,-91
88,-117,109,-35,-2,-55
97,-114,106,58,-23,-17
103,-105,107,26,12,-18
112,-99,102,25,15,-27
112,-94,101,23,-5,-44
119,-91,100,16,31,-44
-127,-88,92,-7,32,-48
-127,-89,91,38,39,-108
-125,-92,90,109,33,-113
-16,105,-70,-3907,3685,-4185
-47,-76,118,249,3484,-6446
-27,-61,10,-681,233,-6078
-49,83,47,-4894,2508,-5195
11,109,-124,-6030,3461,-2931
-38,-112,-116,-5228,512,-1029
86,-51,-25,-2007,-2959,1027
-26,-78,2,-6381,-3772,1744
-4,50,-15,-5953,-7333,2742
0,-67,-6,7937,4235,4419
78,33,-26,7009,2924,-4750
-115,42,-55,5193,-1279,-6227
-65,-106,120,862,1683,1422
-87,-61,16,4630,-990,110
123,102,-40,7367,-493,2555
117,-41,-82,4914,1155,6069
-31,-117,-13,2161,455,7160
46,53,57,-2849,-1202,4604
65,-49,18,-1154,-2902,4796
109,-82,106,573,-4023,4873
-48,-22,45,6780,-1228,3950
70,83,-117,2444,3010,-3920
-40,127,86,-5338,-758,-4194
90,-45,91,-4615,-221,-611
-60,87,-42,21,635,300
-110,9,-47,178,-478,323
-18,85,-51,508,-643,887
0,-126,-60,186,-331,634
-9,-75,-81,-1332,261,-288
2,-126,-121,-737,539,-649
7,124,-105,-673,75,-403
9,-110,-87,-660,-242,224
18,-89,-80,-440,-84,292
26,-64,-95,-168,-54,195
40,-34,-110,-137,5,76
50,-31,-124,-15,139,-82
53,-33,119,57,112,-180
59,-32,119,-123,-17,-37
67,-24,125,-385,-34,66
78,-17,-122,-376,-18,90
91,-15,-118,-192,103,-12
96,-11,-115,-111,53,-26
103,-12,123,-38,44,4
103,-13,116,78,49,-41
109,-9,113,7,42,-18
113,-4,112,-63,-1,6
121,-7,113,13,8,-36
-124,-5,119,-11,54,-45
-122,-4,119,-57,13,-25
-116,-7,116,-40,20,-32
80,-44,-22,-6316,3738,-1689
-102,-44,33,3660,3332,-6716
-32,-38,82,-2021,3093,-5904
-18,80,-98,-4832,6837,-4171
52,51,-110,-5228,5250,-540
84,62,111,-3228,1395,1406
31,-94,75,-2119,32,1441
-108,-87,70,-2970,-2667,636
39,-98,123,-11595,-10067,3120
-41,51,46,5218,3388,1099
122,-92,-14,6776,5485,-6697
57,88,-75,7222,1679,-4378
-44,-94,-91,-186,-2208,1229
-91,-99,47,3963,-2978,149
90,74,47,7687,-397,526
-68,-82,70,5532,-660,3051
16,-66,-69,4718,1405,5467
-59,-6,-35,-247,1081,7892
-93,69,-42,825,-1101,2272
74,-18,-2,4952,-2792,1862
120,-114,-84,-2727,-1308,5887
-88,-52,-108,4525,2880,-786
1,71,59,-5338,-288,662
-123,21,31,-1992,-1679,-2031
-2,-45,9,-1517,1364,-897
-78,-62,-54,816,939,-1440
-75,-42,-90,1793,26,-548
-27,54,-66,757,-346,677
-5,117,-42,-1654,-234,810
14,127,-89,-1751,42,565
12,123,-105,-1152,159,-71
18,115,-100,-594,126,-461
30,109,-88,137,34,-283
21,110,-95,613,4,-128
17,127,-105,559,-9,12
36,-103,-119,225,-62,164
54,-84,-124,-316,-25,226
65,-80,119,-317,88,86
71,-90,115,28,-52,-98
72,-85,-128,46,-98,-91
85,-75,-113,-132,154,-26
83,-74,127,-133,-9,23
90,-69,112,-206,44,-16
104,-66,102,-232,108,-31
103,-66,100,-132,7,-47
109,-66,101,-34,11,-104
118,-63,105,-48,75,-59
121,-66,102,158,8,-34
127,-60,100,151,15,-43
-119,-46,102,-7,18,8
119,54,-11,-2265,3780,-1969
79,-39,-31,328,4402,-4744
123,-56,84,1265,1033,-5623
-10,-59,73,-3295,4059,-7714
36,-4,114,-3789,4970,-4953
69,16,24,-5122,993,-599
57,14,-58,-3023,-892,2337
54,52,-24,-4786,-793,2535
11,83,-73,-9418,-7050,878
78,18,-112,4127,-2441,3039
-46,-87,-11,5043,6574,-3564
97,-82,105,8103,902,-5846
-13,-64,16,3829,-1297,301
-111,-69,12,6592,-4567,-327
110,-52,-20,7272,745,246
41,81,21,7913,1832,1524
-20,-115,-18,6681,2602,2852
36,48,-125,-5791,5247,6145
-63,79,23,-946,-223,7818
-79,103,121,3131,-3153,4947
94,-63,-3,-2558,3843,2420
-56,101,-104,-2608,365,1030
-118,-50,34,-720,-2503,1749
-49,118,55,-35,-1895,-1122
64,-109,4,38,2306,-2136
-63,-47,-16,353,878,-2320
-17,-52,-38,1131,-326,-781
-24,3,-32,-328,-8,266
-17,8,-68,-1026,376,256
10,12,-101,-797,397,52
23,25,-113,-408,70,7
36,38,-115,-158,-230,-143
34,42,-107,-42,-222,-223
35,65,-92,-379,-255,-21
37,87,-70,-851,-411,242
57,85,-65,70,-87,179
80,114,-65,617,275,-21
66,-125,-119,-91,-34,170
67,-115,121,-510,196,3
65,120,103,-81,224,-59
72,121,99,192,-8,-35
82,-119,94,25,-11,-1
91,-110,92,-92,-13,-77
95,-114,89,-36,-80,-63
105,-108,96,-93,-105,-42
108,-104,103,-125,-74,-86
112,-102,112,-106,-38,-48
121,-102,114,72,28,-7
125,-95,99,167,84,-32
-128,-81,91,-129,114,-20
88,94,2,-1758,3302,-3795
-25,46,-24,736,3079,-4824
10,-88,119,1353,3297,-6207
124,85,100,-48,1799,-8046
119,-50,99,-2347,1237,-7915
125,92,123,-5031,-233,-4085
-87,-70,36,-5179,-1168,3189
101,62,-41,-6744,-6180,3790
40,49,-52,-9055,-8323,132
105,-40,72,2989,1975,4699
27,86,-73,11727,8315,-4390
-83,32,-100,9180,-2257,-5483
13,-1,20,-1803,-821,-311
106,123,-115,4558,-2050,686
57,-105,-18,6161,51,1309
59,-42,76,5144,-1920,4354
-40,-38,10,3226,2546,7661
7,-90,24,1912,1710,9324
89,-44,-84,-2606,-3307,8927
-105,124,-10,-19,-3370,139
87,112,-98,8394,-1835,3801
5,34,-33,-650,3957,445
-72,-85,33,-4140,-1862,-7118
43,-43,86,-2249,398,-3000
0,-107,7,406,1368,283
120,-41,-50,679,-125,442
-69,-10,-94,1100,63,853
12,-126,-61,-883,-103,1102
-1,-81,-70,-2508,-222,588
17,-121,-112,-1698,117,-198
18,81,-119,-191,402,-981
0,74,-106,702,11,-954
3,96,-98,519,-226,-258
12,122,-102,-427,-1,344
20,126,-124,-229,182,185
37,-109,118,11,36,243
45,-87,117,-194,-35,250
57,-81,114,-58,13,180
60,-72,109,93,-9,92
67,-67,105,138,-31,-2
71,-63,108,55,-55,-75
84,-63,113,-111,42,-80
87,-64,110,-240,84,-42
95,-69,100,-168,53,-17
100,-62,96,-139,34,-22
104,-60,90,-77,56,-93
111,-57,86,-53,25,-73
116,-57,83,-64,24,-63
120,-54,81,-68,-2,-24
127,-51,85,-82,-26,-2
35,-116,-62,-3248,6216,-3821
48,26,111,4215,3690,-7847
34,-90,69,1241,2588,-8689
35,83,-109,-2130,-475,-9550
-8,-33,-39,-4325,2093,-5581
51,-82,118,-3884,-2840,2887
18,-71,-96,-8649,-4862,5566
-124,33,105,-3495,-3806,341
125,34,-44,-11555,-8892,5822
48,-35,93,5293,7942,1976
-68,39,-127,15003,1469,-9400
-121,54,12,2400,1515,-1082
110,36,-91,510,-1589,430
90,-66,-91,6567,-298,1505
-35,54,15,4307,480,2627
-29,-91,121,1160,-1390,5195
-62,-58,-112,2246,-2207,7305
46,24,74,-87,-407,4547
-87,81,-97,2416,-259,2326
-42,55,11,823,-1831,3420
-60,-24,60,-1471,-1900,3189
7,-126,-29,715,-1705,3396
7,-87,33,2646,-1835,2773
-45,-122,83,638,1787,-3938
9,-72,22,-4090,571,-1263
-37,-21,-85,-693,247,-1846
-54,2,-110,340,512,-1041
-45,58,-113,452,211,440
-39,97,-106,-523,7,333
7,-127,-124,-883,39,275
27,-125,125,-497,9,75
33,-123,123,-253,-78,-274
27,-120,-119,-200,-213,-354
25,-115,-87,-79,-422,27
28,-115,-94,365,-56,176
51,-95,-107,411,171,208
57,-60,-125,-131,66,225
69,-55,121,-412,87,130
71,-62,111,-220,101,4
76,-77,103,254,94,-96
80,-64,100,78,53,-90
90,-61,91,-75,42,-59
93,-62,91,-111,-33,-69
99,-63,92,-46,-33,-123
112,-63,96,-55,8,-97
114,-63,95,-51,-42,-80
121,-64,98,-46,-19,-89
-120,-68,100,56,27,-100
125,-67,103,107,-1,-70
-126,-65,101,101,26,7
65,-127,111,2353,1597,-6573
101,17,82,1297,249,-6683
65,-3,77,-3514,2480,-8981
-40,30,-54,-5389,4165,-6968
-56,-104,-109,-2278,1319,-963
-49,29,77,-6584,-4178,4782
-126,-101,-43,-4747,-4981,2272
77,-75,-77,-6049,-8597,3600
-121,126,126,5974,8287,-2003
-28,-113,2,10344,2582,-5672
-18,29,-91,392,527,-1191
-68,39,114,4724,-2229,-904
12,-14,-48,3314,-368,234
-111,21,6,4267,-449,3694
14,31,84,4230,-28,4550
-76,48,48,6109,-2372,5984
112,-51,34,-430,77,6260
-115,-104,-91,-2313,297,5478
-28,20,92,1903,-1261,4305
-42,-24,-119,4299,-418,1242
103,50,42,4633,1075,3127
-38,-66,118,-4481,251,4429
-82,3,-128,-3672,-2633,-3010
-106,-62,11,6049,2030,-2626
114,-9,115,393,468,-2160
-86,-36,-49,1458,54,-538
-68,23,-8,-700,96,413
-51,32,-41,-1443,486,704
-34,50,-66,-1480,442,441
-22,85,-88,-1300,-75,101
8,73,-113,-297,119,-236
16,93,-105,-180,52,-262
16,127,-98,-464,42,-94
2,-126,-115,-505,208,-165
-22,125,127,-140,-63,-313
25,115,120,228,-148,-269
52,-111,126,-184,-66,-29
50,-110,125,-229,-94,-138
57,-118,121,120,-138,-113
61,-114,125,188,-152,-34
66,-90,-124,-176,-97,165
68,-77,124,-275,31,85
69,-89,110,137,117,-19
82,-79,106,175,59,49
93,-76,87,72,169,73
96,-61,91,-152,-51,149
107,-54,94,-121,-11,-32
106,-80,83,251,155,-300
109,-81,92,199,-40,-34
126,-64,83,-11,60,120
-52,-46,-33,-521,2063,-5498
84,97,30,1016,963,-6862
-116,0,63,-1293,358,-7971
79,94,-93,-5188,2243,-7374
-42,-49,45,-7040,2899,-4257
101,-41,52,-4382,-2532,1204
-110,96,55,-8059,-5600,3610
-93,56,70,-6874,-8155,3039
111,-107,100,-562,4435,3911
-57,75,-84,11765,1978,-6303
78,92,105,3094,7268,-1700
10,-97,80,4511,-1046,-508
62,-74,-6,3825,592,902
71,120,-40,2911,-2506,1829
89,68,-11,4841,-2966,5241
75,-1,57,2433,-1829,4799
106,59,-26,2910,229,4392
98,115,28,-668,-2480,4071
7,-60,-46,-236,-3752,6576
-72,64,81,-1548,-2346,3223
-67,-100,-19,4016,-732,3019
-20,-79,-33,-2880,1309,1370
-95,-24,-50,-1971,891,-4907
-49,-87,-53,3874,175,-4678
-45,-19,-17,3950,-416,-1539
-60,43,36,990,-588,783
-69,84,50,-1850,-221,1254
-31,89,-40,-2415,473,1478
-5,112,-88,-1344,430,1366
-4,-111,-94,-483,2,589
-1,-121,-99,686,-128,-406
6,-116,-89,870,-105,-505
16,-103,-90,283,101,-144
20,-91,-95,-408,14,109
24,-91,-105,-465,24,62
39,-108,-114,10,73,-186
51,-110,-122,161,51,-265
64,-102,-119,-77,24,-206
63,-111,-126,-24,33,-196
69,-117,-122,155,19,-150
75,-102,125,-53,29,-13
87,-91,119,-214,50,73
96,-85,111,-84,-1,26
104,-66,105,6,-6,-130
108,-70,103,102,11,-176
108,-69,109,19,17,-70
114,-76,104,74,76,-51
120,-69,103,-48,-24,16
-126,-65,98,-35,16,-23
-120,-51,103,-188,-23,-52
63,-121,-92,-5038,4814,-2216
7,82,92,3628,2128,-11408
-102,-110,100,-4120,854,-8014
-58,-89,83,-5040,5296,-7342
-28,113,70,-3988,2506,-3075
86,30,81,-6204,-3773,4646
-74,-20,108,-3049,-3342,1217
98,-106,-73,-7168,-9834,3326
123,-81,57,-421,9695,5574
-84,-121,7,12962,829,-8000
15,-65,118,3919,1970,-1051
97,49,19,-500,1289,-2048
-92,-113,-11,7317,-152,1057
-58,-105,15,2195,-1328,1716
0,-128,26,5702,-1730,8019
55,75,77,3742,1563,9075
-26,123,-67,1748,-3485,7385
35,40,-78,-4073,838,3369
3,11,-125,1750,-3119,2502
-24,-10,17,5095,-624,4029
38,-2,-85,2980,-64,-148
-15,107,-54,-3613,2134,-195
13,-75,-124,-3959,693,-1744
4,3,-61,-2116,-744,-2540
8,-19,-42,528,-1041,-1285
-28,7,-25,1411,-528,153
-47,71,-7,453,-131,537
-11,95,-17,474,524,337
32,-118,-54,103,300,671
31,-112,-89,-64,-49,606
34,103,-99,1205,-100,142
60,-95,-93,481,80,-78
42,-105,-101,-432,-10,-304
56,126,-99,-782,52,-154
57,116,-104,-511,56,-38
61,-123,-101,-502,28,11
77,-100,-103,-546,61,36
83,-96,-111,-199,-48,-6
90,-95,-123,120,0,-88
98,-85,-126,64,3,-72
100,-78,126,-64,-5,20
106,-75,124,54,14,-13
115,-65,127,86,25,-46
121,-60,-128,-9,30,-48
-127,-59,124,-43,18,-33
-124,-58,116,-69,21,-29
-120,-57,117,-68,45,-31
-109,-51,115,-98,22,-10
-109,-51,113,-79,3,-50
-99,-46,121,-109,30,-8
1,-41,-127,-4745,3257,-1628
37,84,38,163,3801,-5049
-86,45,95,2205,17,-6224
12,49,65,-2888,1704,-7389
-46,-126,57,-4668,4372,-7048
82,42,13,-4084,1474,-3630
6,75,-116,-5751,-804,1362
-90,36,123,-5156,-5312,2533
-124,38,119,-1308,-10409,4716
36,-20,-123,-2291,6491,6106
21,-83,94,5542,3496,-4407
8,57,0,11909,-1042,-8339
-30,-66,84,-4551,932,1524
103,49,40,2786,-1136,33
-116,-38,-21,10444,-2216,3162
-99,95,77,3214,-646,6777
-53,11,23,730,1989,5347
-113,-107,-27,520,-1914,4713
-22,125,-63,-2516,-3568,2812
-81,39,-120,-5793,-1850,1371
17,-118,-4,7921,-101,1361
56,-89,-69,5966,726,2481
69,-122,21,-1260,-213,1246
-27,-33,-49,-4330,-100,-1748
25,33,-119,-1767,508,-2422
23,-50,-70,2155,-323,-849
-23,11,-40,2170,-680,188
-35,71,-19,574,-376,607
-9,-119,-26,-1162,-32,814
24,-108,-56,-1393,-120,672
40,-115,-63,-516,-195,49
74,121,-27,323,625,-607
35,-122,-54,-79,-261,-209
41,119,-89,178,83,-130
57,-119,-95,-296,369,-110
75,-111,-112,-369,137,123
70,-112,-122,49,15,-22
76,-108,-126,176,94,-147
86,-96,127,-116,105,39
91,-87,123,-223,-79,140
102,-80,119,-169,-19,91
109,-75,125,4,-72,-25
114,-71,124,40,-52,-38
120,-63,-125,-147,-38,15
123,-63,-127,-62,-49,-41
-126,-65,126,10,36,-97
-118,-62,126,-73,27,-56
-117,-65,120,-29,30,-38
-112,-64,119,9,45,-14
-109,-56,115,-70,32,9
-76,83,-31,-4127,4047,-3212
-86,-112,-122,3870,6638,-7413
-8,-105,110,-407,-389,-6676
-81,14,24,-4040,2842,-7951
-101,-106,-83,-5082,4431,-5713
112,33,64,-3384,491,-938
118,94,-53,-3668,-2970,2304
62,-73,-127,-4287,-5753,3091
-17,117,69,-5694,-6380,1143
111,19,75,-6625,-2162,3385
-21,-9,112,8515,5574,-7701
-97,33,-101,7764,5651,-5346
-23,60,-61,-788,-1830,1236
61,84,59,6492,-842,319
-46,-7,113,5572,189,1479
-93,-52,93,5624,-672,3758
-127,-22,-27,5449,591,4309
-115,-42,-57,4746,211,3508
-6,55,69,727,71,5160
-61,-73,-97,1025,-1664,3297
-13,-39,31,-1175,1724,5827
103,71,-36,-2195,1440,3764
67,77,-110,-1688,1664,-127
-84,121,-24,446,-1390,-2796
-1,81,72,177,-1326,-2546
94,91,-59,-1481,1910,-67
-87,-14,42,1262,-1243,216
0,81,32,272,-578,740
2,112,-20,-53,-408,587
21,127,-69,-533,414,129
31,116,-99,-423,590,-441
26,80,-103,381,91,-564
29,78,-94,614,-200,-281
37,105,-76,-114,-254,-32
50,106,-87,-138,30,-17
70,75,-76,579,708,-831
71,127,-62,-89,707,-1588
-90,-90,-35,-828,1922,-1434
10,-8,1,-1502,3941,1044
2,-29,41,355,538,-15
-64,-15,44,-526,-1255,152
10,-29,68,-266,-88,-141
-49,-39,45,413,-821,222
-36,-27,22,-289,-631,555
-36,-26,4,-373,-257,93
-29,-33,-13,-7,127,-112
-51,-4,10,-273,-227,-242
-36,-16,16,-230,23,-146
-30,5,16,91,61,-263
-30,43,29,-274,-139,-300
75,-123,92,987,881,-6338
12,92,91,-2182,1708,-8103
54,33,105,-3965,3427,-8277
-76,-69,-29,-4359,1284,-2870
-10,92,-30,-3744,-111,497
8,70,51,-5295,-3103,3042
73,3,49,-7348,-5868,3035
25,-97,-19,-12324,526,-544
113,93,126,16621,795,-628
-24,-19,-69,2552,3577,-3048
62,-54,-92,3101,1082,-1417
-13,-81,-17,5169,-61,1075
-123,64,88,1702,-2001,2160
82,87,-47,7863,-3123,5919
-27,-46,13,3899,-1182,5816
-70,48,-56,2546,-1134,6228
-124,-16,41,-505,1267,3796
-82,-122,82,-172,-1104,4048
-19,-58,-108,-195,-1887,4016
0,-23,116,995,779,3034
2,-113,-1,-20,1151,422
-12,65,-40,-234,-386,-2097
-22,75,55,159,-567,-1406
-51,-10,63,145,-111,-956
-65,-13,51,38,18,290
-69,41,10,-192,75,236
-26,87,8,-405,-196,582
29,-117,2,-546,308,278
18,-125,-23,-32,-11,-77
33,-124,-23,85,15,-81
27,-122,-40,-41,89,-140
32,-128,-45,-19,19,-41
44,-118,-55,-132,192,-107
53,-118,-65,-18,40,-142
68,-123,-69,31,90,-130
73,-116,-72,-71,20,-82
80,-113,-74,-52,61,-78
87,-106,-70,-118,-18,45
91,-96,-77,-130,-15,19
109,-84,-71,-107,31,18
113,-78,-83,-88,41,-27
120,-80,-81,16,19,-20
122,-75,-88,-9,57,-24
127,-72,-90,-10,-26,-4
-121,-68,-98,21,34,-46
-119,-67,-97,30,-5,-22
-113,-67,-101,13,61,-29
-106,-59,-102,-63,-50,32
-97,-49,-102,26,95,-125
-100,-48,-102,19,-78,-120
-98,39,-69,-3895,2974,-3786
52,-73,69,-608,2034,-6551
72,79,114,-93,1881,-7012
-114,-72,61,-3896,3718,-7698
-73,34,-15,-5138,5225,-4787
-89,89,-48,-4934,561,256
83,88,66,-5638,-2998,2259
-89,-51,86,-7536,-7131,1692
-79,1,4,-7476,-3764,2211
-39,-46,-61,13591,5234,-2342
-35,51,35,4538,3403,-2638
-126,-52,-124,2625,1808,-828
39,-126,-108,5874,-1534,652
10,-86,74,1048,-2655,2489
-34,-21,70,5328,-2870,5225
41,7,111,4248,-2415,5328
73,36,-43,5281,-469,5469
-92,67,125,-607,-69,4461
-83,-117,-60,581,-372,3907
121,-90,61,1774,-2234,2820
-90,18,48,395,1969,3266
124,8,-35,512,-308,81
119,-34,-40,-253,817,-336
-18,-77,26,-911,-56,-1085
-9,38,89,-319,535,-434
-32,11,43,-131,404,-279
-8,53,41,-194,96,-106
56,100,0,-317,621,-176
24,114,-14,-150,-141,-229
45,125,-4,-89,-305,39
72,119,-20,4,303,-262
56,-125,-18,-43,-172,60
96,-106,-18,-229,353,-29
82,-124,-31,75,-25,-242
103,-92,-22,-315,32,94
119,-99,-31,-199,287,-159
109,-101,-39,145,-34,-68
118,-80,-33,-155,-121,34
-121,-79,-40,-110,112,-1
-119,-74,-42,-13,49,-41
-116,-67,-44,-96,-68,28
-108,-63,-37,-91,-86,52
-100,-56,-47,-116,101,-54
-104,-61,-50,48,-126,60
-90,-51,-52,-117,144,-50
-97,-58,-57,15,-74,74
-84,-47,-52,-51,38,33
-82,-51,-58,-5,-44,65
-78,-47,-59,-49,64,19
-73,-45,-60,-13,16,47
50,-61,54,-2105,842,-7743
-104,1,-31,1527,-1108,-7795
81,-28,1,-4567,1395,-7812
42,9,-103,-6188,3742,-6766
106,52,-93,-5206,1882,-511
-94,68,95,-5511,-527,1411
38,116,-7,-7092,-5270,2920
-41,73,-65,-6119,-5121,5694
2,48,-92,7659,4218,880
6,12,-87,5096,1346,-7538
-46,-90,-22,2244,2088,-1376
86,-1,-18,5011,-1739,-1186
21,99,-127,2589,-2145,756
92,97,-116,5509,-3063,3907
-12,-13,48,4551,-1146,4104
-3,58,45,6027,746,4333
-3,-32,64,341,1104,3491
-14,9,6,1066,285,4113
-77,-54,-59,2538,-288,3027
-19,-28,62,-960,763,4033
122,-33,-44,1038,284,2062
-1,45,-31,-1812,1212,644
84,-74,-34,-813,50,-235
5,65,30,577,-360,-590
10,69,41,-137,-267,-330
-2,45,14,-187,-40,-60
-3,52,5,-17,-92,209
23,90,-7,-134,150,181
40,113,-32,-90,43,25
53,110,-35,21,8,-125
61,103,-41,-69,123,-127
59,97,-49,-88,3,-30
71,106,-52,-141,154,-80
75,110,-61,-72,-8,1
87,126,-61,-241,80,6
91,-121,-68,-235,97,6
97,-121,-74,-68,38,47
104,-103,-81,-207,18,64
118,-94,-88,-110,57,-2
118,-90,-91,-135,-5,-2
-126,-84,-89,-163,95,-22
-125,-78,-92,-187,51,-20
-112,-78,-87,-120,37,-6
-113,-69,-93,-36,-77,-45
-105,-60,-87,-155,-63,-17
-102,-73,-94,103,129,-131
-107,-62,-91,-56,-38,15
-96,-58,-92,-33,119,-18
-95,-57,-104,35,-69,-4
-84,-54,-106,1,64,-26
75,-36,64,-1825,2050,-5484
-53,-28,9,268,-212,-8972
-97,-90,42,-3493,170,-10475
54,-118,35,-7058,5832,-8329
-9,-88,103,-4892,2530,-2816
47,-17,-48,-5088,9,985
-117,-21,-20,-6952,-7266,1779
-101,-101,-16,-5641,-5756,2780
108,34,20,9606,6558,-1664
-31,-79,2,3585,3507,-3255
73,86,-20,1751,5,-1201
125,-62,93,5635,-2036,811
-56,124,-36,2185,-2517,1760
100,-85,58,5139,-2315,3508
6,97,57,3081,603,4439
114,-88,-39,5148,261,4019
64,33,7,1954,1564,2825
-36,-51,-10,-735,554,3061
-8,15,-38,865,-232,3105
-120,60,-30,2551,-848,2148
-93,64,-3,733,845,1498
100,30,-55,277,-43,666
43,-93,-27,920,-397,482
22,-127,20,285,-17,298
13,75,12,302,-168,223
41,85,-1,206,-151,-96
39,78,-2,-386,59,-193
24,36,-10,-75,-29,-142
34,39,-20,-173,42,-152
41,34,-38,-222,81,-71
50,40,-47,-110,109,-28
59,48,-59,-45,80,20
69,61,-77,-7,56,12
76,72,-82,-45,38,51
72,74,-85,19,-25,76
82,87,-90,-44,8,92
84,87,-95,70,-18,90
94,92,-106,297,-59,36
106,96,-101,239,271,50
96,112,-114,-347,54,131
94,70,-122,148,154,367
82,100,-114,-450,28,371
-125,120,-115,-720,504,165
-123,-117,126,-1543,542,75
-104,100,113,-456,255,360
-95,123,-117,-285,-27,456
-86,-93,123,-556,251,503
-57,-72,123,-96,-17,318
-54,-55,121,-226,117,96
-66,-57,-127,-169,-155,182
53,-105,-47,-2430,1666,-6080
-117,-54,125,-644,-628,-9722
52,30,-66,-4188,1708,-9782
-74,104,4,-5661,4539,-6698
40,97,16,-4794,-449,1885
-28,-68,111,-7436,-4356,3866
-109,-71,-118,-8677,-9077,1757
-92,35,-53,2143,9895,3751
-88,28,-96,17534,-2444,-6871
66,-5,-14,-3459,4339,-2921
84,120,93,4106,-2844,742
27,86,-124,2967,-1929,2151
117,6,-51,2452,-2831,4757
-62,0,68,4286,-671,6295
-39,79,-87,2054,-191,5170
15,-79,74,6158,-910,3876
108,-15,31,363,124,3771
30,106,74,-2233,2088,3991
85,-52,-88,1957,-448,2912
95,41,-74,-575,888,769
-112,-32,103,-387,107,-627
40,95,-108,36,-567,-921
15,23,-11,-302,72,-414
-12,19,-19,-504,-55,258
0,47,-47,-295,7,450
34,110,-40,-800,-59,553
73,-106,-62,-1153,14,370
98,-79,-56,-849,54,-44
83,-106,-43,210,-105,-222
79,-96,-37,79,39,-158
77,-94,-51,-21,38,-56
89,-92,-62,-73,202,-37
103,-79,-73,-192,152,4
126,-78,-80,40,346,-177
116,-71,-88,-25,-26,-20
-128,-72,-96,-42,43,-62
-116,-68,-94,-101,34,-25
-123,-62,-100,-152,-24,-53
-108,-58,-92,-89,38,-82
-106,-57,-94,-109,-16,-60
-103,-46,-91,-225,50,-47
-102,-49,-94,-111,3,-40
-96,-32,-88,-276,66,-47
-93,-35,-98,-132,71,-76
-93,-17,-96,-227,-84,-39
-102,-26,-109,-132,-13,-116
-79,-51,-110,19,-23,97
-83,-28,-113,-47,-114,157
-46,-8,-105,-316,-60,199
-39,11,-87,-229,40,-21
5,-102,6,-4994,-384,-8516
125,-126,116,-3824,1686,-9281
-37,4,124,-6897,2594,-5963
106,-70,-51,-4466,1160,-384
67,-12,106,-6691,-650,3452
93,8,71,-7099,-3710,3408
117,-24,116,-8398,-4505,1282
82,108,120,7688,6943,209
-39,-48,116,10504,-1100,-5820
-116,-62,-83,222,1627,-1591
26,-31,92,6295,-1570,-944
53,-69,42,2329,-500,-718
-32,-124,-46,4901,-2228,1899
35,-39,55,1617,168,3800
69,109,34,6278,2990,5772
-8,122,-85,578,1693,4733
-116,-64,-5,2763,-2272,2673
36,79,58,-824,124,3713
56,-63,-89,-3347,-1373,4082
86,49,-92,-1697,-2004,6540
-29,-80,-16,336,2658,7449
-115,105,-10,603,-1386,-2627
-74,12,71,1600,-2497,-7441
-49,-41,39,1063,717,-2146
-2,-20,22,-866,212,-361
112,39,52,-2284,-1311,1244
-85,58,-34,-697,382,1616
8,-104,-48,-1116,660,1472
39,23,-73,-1988,-1201,1637
55,18,-97,-1053,-356,125
70,-17,-108,-14,846,-1021
47,-48,-113,485,783,-1292
35,-78,-109,855,415,-978
41,-62,-86,449,-44,-193
54,-19,-70,-457,-338,549
98,-38,-31,744,0,194
-127,-11,-10,736,-39,38
112,0,-67,-1,28,-87
103,-12,-89,-525,194,-109
103,-33,-112,-711,177,137
113,-23,-113,-465,-176,274
123,-11,-113,187,-127,-57
-119,15,-96,-322,184,-126
-114,9,-94,-496,155,-86
-108,3,-88,-401,95,-123
-105,0,-88,-226,77,-137
-100,-3,-94,-42,28,-104
-95,-2,-96,6,23,4
-91,0,-97,167,14,-13
-87,3,-96,249,50,0
126,-104,-2,-6434,2392,-328
18,-98,62,-2641,3441,-2092
-123,-115,115,3471,2344,-3426
-6,-14,65,1361,3147,-4710
-67,87,59,60,1775,-5910
42,-60,-5,-2131,2506,-5444
-9,-26,-71,-4962,3257,-2781
67,-105,84,-3811,3713,296
-22,119,-49,-4186,141,2052
119,40,71,-9647,-5692,3650
19,-81,92,-4202,-4430,1972
1,44,-21,8591,6391,-2752
108,105,39,5507,326,-3833
-1,-95,-81,2648,-433,-758
111,56,-66,9315,-3917,-486
-26,95,50,-2125,-785,1455
-106,-122,-60,7863,-1814,3943
-22,-17,-105,4922,637,4797
-83,-40,102,739,3260,4628
56,-98,92,39,672,4693
-91,-15,118,103,-470,2533
-83,81,-59,760,-622,1485
-43,66,99,-2386,811,2648
-126,72,45,1419,-1114,1495
121,-128,89,154,-437,1169
123,-71,41,-1434,213,1003
52,-107,35,-358,-987,-406
64,34,105,1811,143,-991
47,77,110,-464,316,-450
35,4,50,78,169,-171
38,7,7,197,-172,192
34,25,23,603,-140,-600
75,58,33,779,7,112
62,73,13,549,-138,-101
73,53,14,408,-46,-227
75,56,1,-103,156,-152
55,47,-23,-141,-200,86
60,57,-32,67,-351,71
83,88,-30,-100,-183,-14
86,105,-36,-530,-337,-62
121,89,-53,-357,-185,-140
106,77,-69,-227,-204,-132
89,25,-100,112,-118,-104
119,22,-123,308,-114,473
94,83,121,107,-381,480
61,125,-128,129,-548,164
116,-117,121,-89,237,55
91,-124,114,255,82,20
93,112,98,614,-73,-54
82,125,97,168,-164,-22
26,64,-45,-4192,3436,-4233
103,-10,9,1320,1503,-8244
-66,-80,65,-2613,238,-7828
42,53,-30,-3274,3244,-8652
35,-126,75,-5583,4769,-5472
-5,-60,-22,-4047,-1346,2849
-51,-102,110,-6893,-3231,4261
3,69,-54,-5616,-6194,2661
58,-74,4,-10034,-5380,3327
16,-82,119,4893,7169,65
-29,115,66,10516,150,-6859
-55,-98,-81,52,2149,-1103
14,83,-27,4599,-1450,-1994
-13,113,66,5376,-329,-1183
-102,117,36,6493,-4523,-1639
46,-8,8,9315,822,915
43,57,36,2836,6947,4046
-50,18,86,5109,1486,5544
80,109,84,-2236,2751,3655
-71,126,-69,-156,733,5748
-126,-17,-44,-2791,-521,4492
39,45,-56,-386,-1200,3810
-114,90,60,480,-1473,5769
7,-52,-1,-5099,4047,3076
64,-14,57,2936,-1585,-4755
41,67,17,1984,-1196,-3935
89,7,-47,1153,1176,-1073
-118,52,-6,-662,-27,483
-98,75,-31,-1278,-279,869
-27,-119,-54,-1623,138,1228
36,-31,-91,-1846,357,1130
55,25,-115,-1837,383,405
69,44,-120,-1412,194,-689
92,8,-71,-1064,697,-967
89,44,19,-2593,762,-446
58,-31,-13,75,-141,-91
65,-6,-16,729,-376,133
88,12,-29,1095,-299,223
109,33,-58,1176,-217,170
117,36,-72,826,-52,-25
119,30,-71,375,83,-162
118,10,-66,38,96,-129
124,4,-62,-187,43,-20
-122,12,-58,-481,23,-3
-119,14,-66,-641,-14,-74
-112,10,-73,-524,25,-80
-106,6,-78,-358,50,-96
-98,4,-62,-146,-89,-123
-65,45,-51,-1056,444,-188
-31,-120,2,-1873,-117,-773
82,-70,62,2581,2668,-4116
-48,33,57,2950,1979,-6554
-9,96,60,-2157,270,-4991
49,85,-101,-1612,3361,-6278
-31,-33,-90,-3040,2483,-5167
33,77,-127,-4806,1558,-2106
-97,34,45,-2622,-900,1963
89,88,105,-6344,-1345,3478
-30,123,-107,-8504,-3250,1634
108,49,31,-13228,-7724,-1705
21,33,108,10337,5224,3072
66,52,93,10290,1943,-6644
-99,120,88,1316,2425,-49
78,80,-60,3234,-1327,-657
28,-38,-38,6352,515,303
55,7,118,3767,-819,3362
-111,-122,44,4771,-2683,4573
-18,-79,-14,6073,569,6260
-91,36,45,1897,-613,5412
83,113,-85,-5332,-463,3636
87,-21,-116,-782,-1928,5024
69,94,-128,2216,-2990,4050
-24,-36,99,-1878,433,4958
71,88,-54,-2675,2065,373
-85,-126,-53,2058,486,-5492
56,62,2,77,812,-1878
-40,-26,13,1891,-335,-1273
-75,69,-5,218,-647,356
-54,115,-7,-1082,152,835
-9,-83,-58,-1889,472,737
13,-57,-84,-1467,235,503
25,-55,-96,-494,-40,-163
38,-74,-94,297,-262,-844
35,-69,-70,-325,-247,-693
46,-54,-29,-1551,399,-448
67,-43,53,-1634,488,97
44,-103,-20,1344,-464,113
71,-44,-45,846,-240,195
82,-34,-79,824,-85,102
95,-22,-86,106,86,35
90,-31,-99,-29,91,39
92,-48,-90,269,97,0
105,-42,-74,490,100,-10
116,-36,-69,341,26,-57
-125,-24,-71,-278,71,-76
-121,-45,-81,-300,59,-124
-83,-58,-75,-158,124,-242
-38,9,-67,-807,535,-792
88,-40,-6,-2977,1072,-1093
-74,127,64,-2922,5027,-3625
93,99,49,2348,4953,-5364
-26,-87,80,555,2944,-5371
-83,-45,51,1738,2085,-5937
12,113,-55,1743,2337,-7266
115,58,78,-1791,1491,-2122
-12,-33,24,-8983,-2907,-18
26,93,85,1579,1108,-1112
77,-59,-63,-6946,-3493,3422
15,58,-123,-6095,-3256,2472
71,0,87,-9196,-5496,1158
-37,58,75,1230,3774,3511
93,103,14,13282,2300,-5591
-54,86,23,2235,1263,316
91,0,-48,2088,1186,-2959
77,-100,113,6261,103,-218
63,25,-18,2980,755,826
-63,-13,81,4057,-1804,4565
-115,-115,21,5529,-1322,6533
14,-117,-5,4098,448,6573
75,-125,21,-1955,201,5084
17,107,-66,-4110,-3213,3668
68,-62,103,3205,-3723,3621
17,109,95,5691,-1257,7085
-97,75,-57,277,4882,-2757
125,98,-29,-4138,-755,-4401
-10,-108,-9,-557,-633,-1826
-45,-64,109,-250,136,-961
-74,-37,17,-32,-354,-129
-50,-8,-41,532,219,764
-58,63,-25,-37,-43,676
-9,113,4,-286,-154,336
38,-122,44,-28,215,-240
27,-123,28,-375,-22,-391
16,104,-8,-400,-78,-203
22,98,-33,-357,-101,0
30,113,-56,-273,159,131
35,-125,-71,-196,41,63
51,-119,-69,158,-40,-54
63,-110,-43,153,123,-126
70,-112,-41,178,21,-37
84,-102,-54,132,-18,12
82,-88,-66,-165,13,-78
89,-92,-78,-199,63,-51
93,-95,-90,-51,-24,-13
108,-87,-87,-21,38,-62
122,-64,-81,-344,63,-125
-108,-43,-69,-550,103,-522
-79,10,-55,-874,515,-803
-86,9,-80,-603,290,-741
47,-9,-15,-3097,1291,-1341
115,3,64,1075,2231,-4701
-65,25,46,-212,1529,-4179
-68,126,21,1637,2736,-6779
-34,-70,-2,-551,1034,-5475
48,123,50,-4317,881,-1950
-31,5,0,-4464,-2684,2369
14,-80,47,-4096,-3589,3746
5,51,-2,-2954,-158,659
-107,104,-27,-4856,-2461,1540
-93,-4,66,-9922,-4491,4518
-121,-4,89,6338,7024,-2348
17,39,79,11578,1339,-4732
-58,-58,89,-975,1538,-831
-128,56,104,6409,-996,285
97,3,-100,5295,151,-568
-6,-3,-61,687,-470,3060
-21,97,-66,4297,-1194,5656
39,60,65,4204,1548,4522
-5,-65,59,1410,948,5212
46,-83,125,-3325,-655,4077
-98,69,117,131,-3245,3687
-24,85,74,-631,-1387,5070
84,-78,21,3023,-376,5643
0,-50,81,2041,3030,36
108,36,88,-2256,-1908,-6237
-120,37,-39,-1672,194,-3076
14,-56,40,58,-938,-873
-58,7,-9,-773,-339,291
-51,39,-36,-788,449,758
-38,80,-64,-596,355,678
19,-103,-83,-773,148,780
31,-67,-84,-717,-289,431
56,-72,-74,-24,202,-425
83,-87,-13,291,538,-719
53,-90,-22,2,-179,-25
51,-106,-40,579,-122,50
65,-78,-62,96,-86,163
83,-64,-91,-306,98,186
80,-62,-105,-299,-9,35
97,-70,-97,205,53,-136
108,-57,-83,-116,131,-142
109,-64,-79,-152,49,-112
120,-69,-76,-78,45,-58
126,-69,-82,28,-1,2
-123,-58,-91,51,13,-37
-117,-55,-99,8,49,-57
-101,-23,-94,-307,-21,-214
-50,42,-65,-1044,267,-1146
52,-118,-76,-706,725,-2323
5,41,-38,-829,2745,-4023
118,-5,93,-1834,3094,-4516
96,-52,-13,-1425,2111,-4463
-81,-70,99,935,2717,-6932
123,107,-24,-374,3150,-6649
-39,34,-32,-3471,2801,-5304
-40,-50,-69,-3597,-263,-2698
-3,-80,101,-2795,-3991,2793
23,24,-13,-3612,-3835,4145
-57,17,76,-4871,-7031,3254
81,-9,83,-3542,-4050,6408
-119,-94,-116,7667,9345,-3537
58,91,-56,6786,-1205,-7207
89,111,48,-1940,1417,-643
-63,99,-91,7170,-2416,-305
-101,15,63,3494,-2512,1619
-31,-16,1,1997,-4072,5167
23,-42,-44,5453,-2445,4209
124,-14,-30,627,849,4391
-22,70,85,-343,844,3640
81,83,78,1527,-1487,3716
-92,-44,45,-654,-1775,1209
99,31,-21,1695,-1154,2556
38,22,26,5240,-1359,2941
36,19,79,7015,1101,1283
10,12,-59,-6454,1655,-3636
-8,109,40,-5081,-1525,-3021
45,-84,-45,-1716,-618,-1680
-20,-37,-55,35,370,68
-87,10,-51,956,182,402
-45,78,-56,516,108,845
15,-116,-66,-526,182,992
55,-67,-93,-875,-48,805
63,-59,-94,-665,-183,94
88,-79,-72,386,782,-826
75,-26,49,-1091,246,-466
54,-94,-24,177,-434,25
66,-84,-64,262,-267,63
76,-62,-90,-30,-19,137
90,-43,-108,-443,226,209
84,-37,-121,-136,14,89
88,-44,-118,229,-209,-148
119,-23,-91,-381,291,-150
122,-37,-58,-260,116,-128
119,-42,-61,15,-136,13
127,-32,-76,-87,-108,12
-123,-21,-105,-193,-13,-6
-123,-27,-117,-4,-2,-76
-111,-24,-115,-14,73,-89
-109,-27,-111,22,116,-80
-101,-31,-103,91,124,-81
90,-106,-52,-3283,4418,-3255
-38,-77,-30,919,4474,-5372
-10,74,90,200,4932,-5487
-45,-88,114,3953,2139,-6013
4,-92,-47,-220,-798,-6117
91,38,30,-4901,1886,-4868
-42,-7,-52,-3338,1477,-2648
12,93,53,-4060,-1285,2440
21,-102,121,-4244,-4650,4556
-48,-8,-125,-6988,-5710,3139
61,-21,38,-10037,-5611,975
98,-39,-109,11949,9677,-3563
71,-115,-64,6655,2595,-3215
77,-91,-90,-578,-1135,-619
-125,47,10,5336,-60,-599
104,0,114,3567,-591,943
-15,-92,-74,3667,-2013,3947
-112,-35,-112,3536,-1113,5223
94,115,89,6208,652,3299
61,-39,-117,3214,1747,5131
-32,52,-71,-2402,654,4979
-38,-79,13,-2630,108,4596
75,-44,57,3075,-3397,3521
-2,17,52,-890,341,4787
-13,-79,-29,-2570,951,1668
-118,119,-72,3618,189,-4551
62,-82,98,-984,-59,-2199
0,-22,-100,169,-344,-1026
-63,-54,10,-87,-16,-27
-62,1,-34,-141,170,954
-37,54,-57,52,253,772
7,103,-50,251,69,318
47,-107,-21,-292,71,-202
62,-97,-1,-1498,266,-546
55,-127,-16,-1620,-11,-338
53,122,-39,-1142,-23,-123
47,124,-72,-295,-114,15
48,-108,-77,-25,-73,120
65,-90,-80,228,8,150
91,-49,-72,135,101,21
92,-44,-64,-134,58,-204
100,-62,-61,-7,32,-45
95,-68,-70,112,-105,7
102,-61,-85,-10,-21,28
114,-56,-96,-50,11,-2
117,-56,-98,0,21,-38
127,-51,-95,-80,42,-19
-125,-49,-89,-36,13,-44
-114,-51,-90,32,41,-50
-108,-45,-96,-57,24,-53
3,-68,9,-2152,2439,-4037
5,-122,-13,-2973,3177,-6570
99,-68,69,819,2594,-5893
120,31,19,241,645,-6494
-16,19,28,-762,455,-6265
-20,106,-21,-2699,2029,-3507
116,-61,52,-7471,-408,185
-57,45,122,-1371,-898,2936
93,-40,3,-4808,-3602,4153
-38,35,55,-8936,-2271,2065
55,-50,2,-8053,-2242,2335
110,16,106,14742,6469,-2202
64,-126,112,3214,824,-3134
112,-35,-40,1682,746,-2615
-43,-30,-113,5044,-1028,-19
113,4,-34,2568,394,-1113
-60,116,-22,3132,-1939,3074
-12,-101,105,6103,-822,3725
91,-24,64,6908,544,5186
6,90,3,3861,2931,4442
-74,114,41,-1197,2663,7099
19,-60,42,-1534,-1766,4630
120,13,10,1939,-2313,5270
17,-36,-51,3885,650,2836
68,2,91,-3377,1356,4407
-111,-63,68,1698,-631,-5257
-46,26,4,-3979,-744,-2863
-7,-25,-8,-3649,222,-769
-90,-122,-64,-222,-116,-225
-103,-1,-38,108,-27,649
-78,89,-31,-484,-244,1062
-17,-89,-32,-111,-65,954
40,-69,29,1298,253,-475
55,-7,21,-607,36,-355
20,-100,-45,-615,-132,-384
4,-119,-49,-312,-146,-145
3,-109,-64,-395,13,46
18,-90,-76,-235,146,236
34,-72,-83,19,35,142
61,-55,-85,227,19,-24
72,-42,-79,-185,89,-155
74,-55,-70,-165,35,-146
76,-67,-67,47,-17,-46
77,-64,-84,91,-35,15
89,-49,-96,-114,29,1
100,-45,-108,-98,48,-54
105,-44,-101,-203,53,-81
112,-52,-91,-19,26,-46
120,-51,-93,91,3,-14
123,-43,-102,0,-4,-13
48,-62,-5,-5034,5036,-4678
91,-41,34,285,2527,-5618
-50,88,39,664,-2208,-5728
-109,117,3,-1854,-471,-6947
123,47,80,-6398,2583,-5726
103,41,93,-5135,2868,-1752
-70,124,43,-4389,-2306,3407
-9,-97,-64,-7107,-5407,3862
97,118,-37,-5626,-9712,4817
-24,106,116,5733,5346,-759
26,126,91,10345,4612,-9330
-9,-103,-105,985,3019,-2577
0,-76,-108,2147,-2153,-1083
116,-37,-18,7003,-139,-443
80,26,20,6683,-3360,2018
-84,18,-5,12327,1474,3498
71,60,117,5208,9440,3598
-42,76,31,-1760,6070,5145
14,-50,-84,-5574,1908,4883
-30,-11,124,830,-910,2609
102,-117,89,-446,-1979,3548
-94,34,96,-2101,3528,5843
-115,42,-38,-499,-1474,2805
27,-16,111,1946,-433,-6328
-101,40,-61,-104,-449,-2997
13,1,12,-2078,-1481,-1442
19,-9,-60,-1985,490,263
-69,-51,-121,-230,980,682
-30,48,-88,-522,-1,1155
65,-60,-104,-1724,-257,1713
68,8,-128,-2425,-335,1162
59,0,124,-1571,-410,-401
-89,0,34,-2156,2154,-1487
93,34,93,-2390,-176,-390
58,-75,-21,1084,-619,58
55,-21,-30,1249,-633,19
75,-11,-71,1647,-529,319
91,24,-116,574,-20,179
92,32,-120,-410,90,48
108,16,-121,-372,147,1
120,-3,-98,224,258,-196
-128,26,-51,-755,284,-123
-128,8,-49,-520,-52,-39
-122,2,-64,-268,-167,15
-116,12,-83,-160,-116,54
-114,13,-101,-116,-2,-99
-109,12,-104,-99,44,-84
-105,15,-98,-202,95,-40
-99,6,-90,34,80,-63
-91,8,-80,67,30,-35
-86,64,105,-1739,4803,-2774
-19,31,74,-1945,-314,-4378
71,48,63,841,-999,-8162
-51,26,-90,-4240,5631,-9116
-99,45,17,-6238,6033,-3574
-121,17,-23,-6196,1484,2834
36,119,114,-2129,-202,3823
-104,51,0,-5043,-4373,1144
95,72,-115,-7299,-9834,5181
-57,-77,-110,6198,9980,-3204
111,-77,29,9272,981,-6111
-78,-104,-16,-854,2450,-1693
49,-45,-74,5565,-1371,-1935
90,-90,-55,5449,-69,1123
-77,70,-43,4172,-3929,5076
73,-27,88,10620,-1670,5465
-74,11,31,6240,6613,2679
121,78,-101,-3335,6374,5709
89,-101,31,-5451,-1712,5541
108,-65,2,3348,-4864,3476
85,55,61,-777,-71,5472
101,-65,73,-3298,2183,7090
-10,90,124,4605,765,-3930
-66,-7,36,572,-1502,-4851
100,-36,-26,120,-100,-1945
-28,-80,37,-431,-915,-911
-23,-101,-82,341,947,671
-19,-107,-127,1485,1313,361
-30,-42,-83,450,-138,366
61,80,-106,602,-102,174
114,99,-72,1398,194,-190
48,63,-8,-554,-722,-125
35,37,5,-1246,-815,73
80,-28,-74,114,414,-275
64,-29,-63,651,438,-26
67,6,-46,246,239,99
67,4,-57,241,61,56
76,-2,-42,-106,17,303
69,3,-46,-305,-89,396
95,17,-66,-76,362,781
80,30,-79,-234,307,255
99,12,-80,450,94,276
107,47,-84,-315,150,29
113,45,-91,-241,-145,-87
-122,43,-84,118,45,213
117,61,-89,-180,79,-105
-126,66,-92,-220,131,118
-123,78,-103,-364,126,-150
-113,82,-110,-272,41,-72
-110,105,-107,-468,83,-128
-105,-63,-68,-3656,1428,-3349
-87,108,-47,-6595,5102,-7049
-45,70,6,1058,5851,-6356
41,-65,98,3341,3131,-5605
96,93,26,2011,581,-6293
-33,75,122,-1005,47,-7563
61,-90,105,-4480,608,-4791
89,-60,118,-2924,-3061,-1543
88,-89,-65,-3682,-5332,3032
-7,-16,-110,-6158,-1262,726
116,76,-4,-7432,-8066,1227
-58,80,99,-652,-307,3316
-67,36,99,12548,5240,-5356
-114,-38,-65,1443,3641,-1106
89,22,24,2804,537,-1098
17,78,-106,6156,-1029,-472
-101,-34,-50,3253,-527,2648
-106,-50,-67,5509,19,4907
17,28,-11,6855,1446,5782
-94,103,-34,6730,1915,5053
-13,-35,-16,-1092,3885,4548
51,43,-2,-3487,-490,6346
-67,44,28,-3318,-3152,2748
-128,-22,-28,-1149,105,2433
41,15,47,-471,-392,2760
106,67,-19,214,212,907
-30,32,-40,105,1135,-2564
-21,-35,-35,-1800,-510,-2822
-13,61,70,1202,-585,-575
-70,71,-11,1317,-294,96
-76,-125,-12,-29,27,469
-45,-92,-31,-785,334,600
-10,-79,-63,-595,256,481
-3,-84,-72,277,11,108
33,-104,-90,1037,189,-294
26,-90,-74,709,-111,-197
31,-94,-64,428,66,-177
48,-97,-29,263,310,-286
42,-109,-46,152,-80,-149
72,-124,-61,129,135,-142
87,113,-87,327,50,-91
86,-126,-95,-7,-44,237
67,-102,-86,82,-48,-10
89,-91,-74,-199,138,-102
102,-98,-85,-359,105,-98
-125,-128,-102,356,7,-166
-128,-102,-104,-44,-82,-94
123,-76,-98,-990,34,121
125,-96,-105,-519,58,168
98,-89,-104,48,-34,63
124,-126,-121,-3512,4637,-7305
42,-95,30,1307,2087,-6313
44,-85,32,-1515,917,-4753
-69,-64,-115,-2362,1536,-8198
-44,36,-83,-3531,-428,-5754
5,127,85,-4129,-3137,-730
93,44,-102,-2782,1199,2139
-12,-34,-88,-2128,-2138,4095
-44,75,-75,-8635,-5261,4907
119,-37,-35,-3915,-7071,1519
-38,-30,-63,8268,9976,-5148
1,36,-69,8274,1492,-4900
99,55,98,7,1453,-1971
-37,83,99,6353,-2301,12
12,-84,-13,4458,577,2407
8,-93,-36,7684,-1365,5705
-31,5,26,6420,3872,4369
-41,-66,-127,3060,5896,4242
-64,-94,-17,1132,2224,5563
105,-30,-118,-4632,-1888,2459
34,-60,91,404,-2933,2526
92,-55,-1,93,2410,6297
-90,-58,-78,-50,1452,1712
15,-13,-15,-911,-1483,-837
-25,98,38,-190,-1625,-2687
95,68,-8,-1390,1849,-2067
-53,-31,100,502,-584,-719
-56,-10,9,760,-798,317
-45,37,8,272,-22,496
-18,90,-10,-1090,623,290
20,101,-68,-1299,644,463
23,118,-74,-608,-52,467
15,121,-87,266,-153,44
16,-117,-78,317,-188,-364
33,-108,-72,-396,-34,-151
44,-96,-65,-792,-168,134
39,-94,-74,-474,-92,-30
51,-98,-82,-99,77,-337
69,-107,-91,244,73,-427
75,-109,-95,216,-11,-332
82,-101,-89,-142,16,-139
77,-115,-102,66,65,-101
88,-110,-105,131,0,68
102,-92,-107,-58,11,204
121,-71,-108,-30,-19,229
111,-54,-96,-162,-34,-122
-117,-73,-95,-54,221,41
112,-58,-109,-223,-77,216
114,-52,-120,-138,-23,39
-124,-44,-128,-357,232,57
-35,-70,-31,-5560,2841,-1898
-110,1,-62,-1328,3296,-4393
-48,31,-113,2542,309,-4291
53,-110,60,623,1805,-5417
82,-29,55,-1338,1161,-6785
-50,110,-34,-4183,5154,-6815
-107,19,68,-4470,1644,-1580
-77,-85,-53,-3447,-804,1206
117,-31,-17,-5910,-3666,3398
26,34,-124,-8567,-6802,3236
-28,-89,68,-9238,-3818,2526
-69,-6,105,12829,3955,-5874
4,125,98,9738,4730,-5910
118,78,-62,-858,677,-660
61,81,101,8996,302,-1327
-46,29,16,3597,379,2922
-38,-78,123,5364,756,5423
66,-82,-64,4463,2990,5798
-112,-43,62,609,663,4365
110,-123,22,-3087,-520,2619
59,104,22,-2967,-1960,4426
27,-47,87,3991,-3967,3388
-9,41,-91,1069,6509,5700
68,-92,121,276,-1050,626
-68,52,123,-1894,-5636,-1628
-96,58,-84,936,1540,-1793
-11,-55,71,249,1514,-1650
-52,33,7,-1702,-224,468
-19,30,-31,-1030,-340,1346
-1,58,-62,81,90,1019
19,-116,-71,-882,383,575
37,-68,-79,-1219,38,316
35,-106,-100,78,-75,-391
35,122,-93,937,-247,-815
46,120,-80,665,-211,-674
48,-119,-70,-493,-69,-205
50,-120,-83,-832,-35,50
58,-123,-95,-441,-81,98
77,-104,-99,-134,-101,38
98,-89,-103,-73,54,-136
98,-93,-114,-4,37,-198
83,-91,-108,-68,-37,-11
71,-82,-112,-129,-4,54
104,-68,-118,-159,72,136
125,-63,-123,82,110,0
-128,-63,-125,311,30,-166
-126,-56,-128,96,7,-145
127,-61,-105,-1,-48,-109
-109,-83,-117,313,241,51
-98,-45,-125,-353,240,21
-104,-1,34,-3349,3680,-4075
-15,-65,-26,-2112,3641,-5923
93,-65,118,2255,1156,-5587
29,-77,-29,-3263,-134,-7411
-86,98,-78,-4917,4770,-7420
73,10,-79,-2519,3179,-1897
-101,-50,-122,-6353,-8394,6638
-27,-43,-116,-1703,-2244,-1243
81,7,37,-9692,-7965,2090
-61,8,115,-5273,-37,-713
-9,-81,-92,11314,8354,-3583
-111,104,-2,5301,2954,-4727
87,-114,-121,922,-980,-907
-77,-125,89,6244,-497,-783
24,-96,44,7198,11,2375
9,6,73,9987,1826,2815
-58,-49,-22,4032,5508,3251
68,-95,-52,1885,6401,5268
-3,-17,8,-2036,3876,4825
108,-51,6,-456,-907,5707
0,115,-82,-1600,-4148,4085
-13,-54,101,-1376,-1581,7514
66,90,-112,776,3222,5343
66,-125,107,455,1213,-5577
87,-15,110,-629,-3133,-6733
119,-3,60,64,282,-650
-38,11,58,-481,678,1381
95,28,20,-298,-18,851
-57,79,-13,232,158,968
15,-63,-38,-1315,168,947
27,-67,-68,-1559,84,-23
25,-107,-77,-999,39,-856
15,98,-78,13,59,-960
13,74,-73,994,-42,-668
10,92,-65,487,-11,-140
22,126,-66,-359,100,375
42,-121,-78,-239,143,335
64,-120,-81,428,169,129
81,-90,-83,307,28,90
74,-78,-93,-276,-6,103
78,-84,-103,-351,74,135
81,-84,-116,-236,71,119
86,-82,-122,89,10,-27
91,-67,-124,-142,49,-41
110,-43,-118,-648,-26,-10
122,-55,-111,-451,165,-146
119,-63,-117,-331,-35,-144
-126,-67,-115,-114,43,-129
-121,-67,-119,34,-12,-114
-119,-56,-116,-107,-12,9
-45,-86,118,-4716,4380,-4932
124,24,-109,-3439,5943,-7254
106,-29,-112,3216,2402,-7172
-82,63,43,1664,-6008,-10175
-18,-6,-70,-7023,2450,-5951
84,-8,-127,-3198,1514,-4288
-62,-116,-2,-6131,-1873,1746
0,-99,46,-5596,-4474,4573
-43,-97,-72,-5426,-7911,-1519
97,-103,37,68,-7740,6853
-116,28,3,7260,10358,-3581
-40,-85,6,5141,-897,-4651
80,-9,66,-1009,4213,-3592
-126,92,77,5865,-1128,-1749
83,-21,10,2666,-486,-1000
73,69,55,3785,-1554,1849
-28,-88,24,7134,-1003,3341
97,103,75,6667,3047,4090
-26,-110,-45,1453,5305,3986
-34,-105,-60,-613,2614,4670
-50,13,53,2340,-1691,5327
-120,51,-116,-1559,-1197,3478
36,-112,75,-714,-563,3957
-52,-52,1,-380,1186,4559
7,94,-81,-776,1852,2607
-64,33,-37,-1228,-484,-1689
-111,106,25,-126,-1597,-3932
-7,-16,-10,2483,-896,-2396
-7,-12,-21,2874,503,-199
-77,53,42,-420,303,317
-32,78,1,-1713,98,1074
12,108,-57,-1282,111,893
2,104,-57,-385,-51,-324
44,116,-11,-502,309,-482
22,94,-50,-44,-173,-200
16,91,-60,218,-84,-169
51,125,-70,-162,157,-51
51,122,-95,-218,327,-275
37,110,-105,-27,-45,-143
68,-123,-98,-198,-81,185
77,-106,-109,-364,140,-3
70,-106,-115,-204,30,28
100,-96,-115,-23,-64,-15
94,-94,-119,67,19,-195
88,-92,-112,-129,-2,-72
100,-91,-111,-109,-60,134
115,-71,-114,-255,38,98
114,-63,-120,-240,72,64
127,-60,-127,-90,-3,-40
-111,-61,-127,103,74,-228
-95,71,120,-2347,4999,-4778
-49,70,-1,-1257,3854,-6557
-82,-23,87,-1636,2992,-5057
0,36,-62,-1093,3452,-7215
-42,122,-128,-3586,2527,-6374
-87,-57,-103,-5225,381,-3225
82,105,99,-3307,-814,348
-105,-92,-10,-4243,-4004,4069
-31,-100,-41,-3835,-3092,1751
92,1,-96,-238,-7753,2866
-91,54,113,-2354,6814,-1502
60,-50,49,12152,5243,-6344
7,-63,37,1383,743,-1413
-96,-117,-118,2816,-1197,-628
31,-111,-93,5670,-295,412
-57,-105,7,4626,-2697,4269
-98,-90,-102,5426,-1213,4571
-96,-28,-10,4934,3420,3697
83,-22,-104,1709,3873,5109
-98,-5,72,108,-2189,4480
36,-46,-82,338,-3141,2485
96,48,93,-724,-70,5352
-1,94,-11,510,1274,305
45,-114,26,641,50,-2184
48,-102,43,-101,-245,-611
-75,11,63,-216,-504,-1158
-15,-2,14,409,348,84
-28,42,-5,-421,580,236
-8,76,-35,-700,259,249
20,59,-50,60,216,152
11,83,-44,131,-118,-57
30,95,-29,58,-76,-99
50,92,-47,-102,257,-127
44,97,-56,-327,-47,11
46,88,-60,-213,-77,7
45,76,-59,92,47,-90
31,48,-69,482,72,-21
35,61,-70,268,67,356
52,64,-80,124,78,213
91,46,125,658,73,518
81,84,-109,-44,-959,819
82,109,-101,-531,-353,381
-74,-78,-70,-1293,424,752
66,108,127,1342,370,-1107
108,-123,-64,-283,-404,-869
125,90,-72,470,-387,61
-64,102,-100,-8,205,120
124,115,101,-589,398,-54
91,102,90,-612,266,-160
121,112,90,-524,151,45
-94,-56,44,-329,3119,-6268
4,-22,-25,349,4450,-6636
43,119,99,2920,-3256,-5188
-62,49,26,-2284,-3658,-6608
83,-83,39,-3283,-2543,-5582
-109,35,-76,-7317,1463,-4854
108,96,64,-5349,1453,-2506
115,-17,105,-4441,171,701
-53,-13,43,-5609,-7176,3139
125,-25,81,-5046,-12642,2532
-86,-73,-22,-1269,467,6478
-21,58,-117,5734,10472,-6702
88,-4,-126,10068,609,-4431
30,10,40,1663,220,-371
87,-62,100,5066,-2363,-836
-35,-5,-44,3967,271,635
-17,84,-21,6518,-1887,3212
-2,114,32,7431,2184,3094
-10,66,-65,4539,6308,3431
93,63,69,1770,6522,4378
27,-58,62,-4273,1197,5579
-50,118,112,-1369,-4166,4045
12,116,82,-2717,-3083,5367
-125,-64,85,2617,5866,5380
-16,-104,23,2753,2166,-5423
110,113,32,-6159,-4352,-2526
126,7,92,-2244,-202,-1739
-19,-24,-41,-144,-714,-819
-40,30,-71,340,155,174
-45,99,-62,-340,333,583
-22,-86,-61,-1656,-67,623
21,-40,-104,-1857,-4,675
37,-37,-113,-1050,-93,66
40,-55,-113,-64,-179,-504
26,-30,-31,-378,-523,-403
94,-51,52,871,926,-256
35,-88,-37,1972,-488,198
61,-45,-92,753,-156,215
72,-19,-93,-579,166,142
74,-28,-127,-749,105,85
80,-63,-126,295,-97,-154
99,-26,-81,-285,232,-107
91,-38,-87,-242,-10,-19
105,-36,-95,-294,-10,4
113,-38,-103,-153,-11,-58
115,-34,-111,-160,-22,-44
120,-33,-115,-118,24,-74
-126,-35,-113,1,27,-34
-119,-27,-114,-23,25,-45
-116,-22,-110,-74,7,-63
5,52,-78,-2387,2612,-3563
-109,18,107,-2365,3491,-5056
-110,-85,79,-709,3268,-4611
14,-84,83,3677,3448,-5621
66,-92,-6,597,-632,-5762
-127,-44,19,-8377,-353,-3733
-69,27,-105,-4178,-1316,-742
-122,-83,80,-3147,-2232,3509
-73,39,-127,-7600,-3658,3013
48,-71,-81,-7970,-6252,3440
59,124,86,4962,6308,-1513
122,75,-46,11432,3807,-4724
-79,-32,-32,1857,2465,-3494
-112,116,79,3891,-1419,-251
105,-127,109,5686,587,1384
-78,64,-45,4048,-1237,4920
-15,65,-50,4889,428,6620
-34,45,40,2432,1826,5719
60,119,-28,1138,520,5751
-78,52,-9,-2183,-898,7211
-2,118,-126,-1215,-4438,815
-48,8,-44,-3365,-1202,2910
-56,-91,-81,8086,3858,1155
24,-79,-49,1483,1277,-2119
-103,-43,-99,-4349,-3335,-1748
61,61,50,-2911,-420,-1535
-23,-71,-59,321,445,-266
-67,39,-38,-40,-21,770
-54,124,-34,-1103,-204,1187
2,-66,-76,-1277,240,1129
36,-51,-108,-587,474,559
40,-56,-127,389,189,-142
25,-81,-118,814,-331,-756
53,-65,-69,-191,360,-351
57,-86,-18,-125,194,-129
50,-107,-66,709,-192,102
64,-67,-73,96,-143,117
80,-47,-107,-569,44,46
87,-53,-128,-569,46,-13
88,-66,-125,-269,4,-169
98,-64,-112,-262,86,-95
102,-58,-104,-285,69,-40
114,-62,-103,70,-1,-34
123,-50,-103,45,-4,-20
126,-45,-114,88,-6,-45
-128,-44,-122,56,14,-56
-120,-43,-126,39,43,-46
-113,-41,-125,-6,42,-57
-108,-39,-116,-70,42,-60
-104,-45,-116,-16,17,-54
-116,23,19,-5503,9181,-6345
103,-18,-125,4499,3996,-8663
-66,-91,127,2245,906,-5942
-17,-118,88,-3141,-953,-6468
91,-73,-111,-5961,3224,-5987
71,96,-57,-4541,-1240,886
26,124,-5,-4153,-2838,1575
-66,-79,91,-3838,-5899,3502
-91,60,51,-2707,-5196,3116
-121,64,-109,20,1838,2318
-126,11,39,8664,1622,-5630
-85,-68,-20,43,4320,-4279
-51,23,-78,3852,-22,-749
86,40,35,4462,-2167,-713
-92,2,18,4218,-2300,1508
-66,27,40,6041,-1060,2768
63,67,-88,6511,2183,4174
-68,-113,53,5472,3465,3391
88,-120,-15,-800,4373,5318
67,-119,85,8,-421,5799
92,-35,101,-5171,-1997,4161
-119,104,-123,193,-5650,4584
106,-41,-120,2106,3752,8512
-24,65,60,394,6668,-2822
-66,-8,-3,2999,-4451,-8221
114,46,112,44,-3853,-2545
107,7,80,-1283,238,322
-76,15,-90,-2198,1718,429
117,-58,43,1315,-537,831
5,120,5,-596,-47,1502
61,-47,-52,-2368,419,1357
52,-11,98,-3639,996,580
27,-97,95,-670,117,-912
32,117,-127,1184,-185,-1144
28,-127,-99,1466,-430,-543
25,-110,-92,412,-182,-17
40,-93,-71,-109,20,377
92,-114,-38,1423,593,-183
84,-94,-57,1109,-282,73
81,-77,-98,-441,-20,-5
89,-80,-110,-1215,204,10
83,-111,123,-647,89,105
87,-109,119,206,-127,58
106,-69,-124,-116,64,-59
121,-63,-126,-278,167,-92
119,-65,-127,-403,-36,-65
-125,-61,-109,-472,61,-90
-120,-72,-111,-51,19,-75
-118,-71,-126,149,11,-37
-115,-62,123,198,44,-14
-31,62,-94,-2947,2764,-4491
49,58,17,-1603,7833,-5033
-99,-126,-112,2981,1765,-6933
70,11,85,-533,54,-7977
-18,-118,114,-6602,1614,-9223
9,-25,4,-5915,-922,-1491
-118,-77,-63,-4936,-2408,2260
-32,-67,63,-2047,-3118,3280
48,90,20,-5091,-5977,4089
-73,80,-86,222,-836,3852
-71,-6,42,8646,4730,-7551
30,-15,-82,432,2668,-3817
91,104,16,5040,485,-2233
-109,-76,-65,5257,-2171,-323
-17,57,32,1131,-1924,2598
-30,-73,-36,6536,-1467,4263
87,20,107,3809,1349,4807
42,107,33,4963,311,5704
120,-72,23,-2545,2072,5548
84,-79,-92,1919,1158,1885
22,95,0,3936,-1322,3349
-123,65,66,2013,-908,3480
-117,-100,100,-3110,357,4649
92,-113,4,6320,1673,-4523
-23,13,-74,-2589,-2055,-2107
31,27,90,-3336,-813,-244
-54,-63,-2,-1713,-40,87
-57,-12,-40,-874,244,602
-22,56,-59,-665,324,805
2,-97,-76,-1642,135,733
15,-76,-97,-1556,-61,265
30,-83,-100,-688,-192,-333
48,-62,-61,-1248,377,-405
46,-59,-28,-1012,106,-81
34,-91,-59,448,-191,64
49,-56,-71,552,-135,89
66,-42,-96,439,0,33
75,-31,-114,210,8,-12
77,-33,-107,86,47,-128
88,-30,-91,-175,110,-75
93,-36,-88,-189,-9,-37
104,-35,-99,-264,-4,-29
108,-38,-110,-238,15,-51
113,-41,-116,-114,25,-78
122,-41,-112,-7,49,-48
-128,-39,-109,109,14,-44
-123,-35,-109,156,39,-66
-117,-34,-117,115,11,-54
-111,-32,-116,35,50,-51
-107,-30,-117,-61,17,-42
1,-77,-21,-540,2459,-8495
-79,-122,47,-1235,6018,-7085
22,-25,-114,-1771,-701,-7635
-128,42,-100,-3100,4981,-8038
65,81,-81,-8474,-2432,384
-52,44,52,-3995,-2078,1450
-26,118,81,-3344,-4858,1232
10,26,87,-12690,-7336,2704
-128,-123,-68,6133,2221,4010
-114,-15,-85,12355,4986,-8515
-6,-15,-65,4079,2872,-1296
85,-39,-54,1801,-892,-2240
25,-108,95,4570,366,-176
-57,-68,-39,3634,68,1477
34,28,-34,4838,-634,4917
-39,101,-84,3422,1002,4523
76,111,-124,6335,2999,4781
-59,86,-49,1888,2389,4683
6,-52,96,-4398,-451,4541
-7,-86,7,-1443,-1490,5458
31,76,33,4075,-406,2628
-122,7,-64,2965,867,5084
10,-9,29,1661,-223,3778
-41,-72,9,797,-709,-6307
22,-116,-59,-3763,-1185,-2037
-25,-67,17,-2094,-1223,467
-80,-70,-42,-1362,281,386
-105,-14,-53,-1778,722,282
-63,118,-86,-2876,435,765
-17,-59,-109,-3238,-196,1062
19,9,-115,-2353,-388,630
4,-23,-103,-795,-139,-709
-7,-32,-52,-986,37,-1508
12,-37,-43,-1005,363,-653
10,-52,-61,40,205,134
-9,-43,-82,1178,-171,301
13,-23,-111,1456,-159,282
43,-5,-120,1175,-383,473
49,37,-110,-472,-146,540
55,48,-119,-1179,157,376
53,16,123,-545,104,48
58,5,-123,324,-93,-174
78,26,-100,-97,105,-114
84,34,-108,-684,75,45
83,17,126,-439,39,-68
96,14,122,-229,67,-120
106,18,125,-277,26,-120
105,13,-127,-209,28,-80
112,10,126,-72,19,-50
121,7,122,206,-18,-18
-79,-5,-110,-898,4224,-3711
99,85,16,-1403,4683,-5537
-20,25,-11,-3335,7205,-3164
-50,-68,-92,2367,-544,-5879
57,17,106,779,-1009,-7616
112,24,105,-4140,1740,-6252
-11,113,73,-6299,4466,-3621
114,28,-103,-5108,-1814,2296
58,-36,-98,-5065,-5639,5575
93,-86,-75,-2782,-1321,1576
126,-121,-29,-5016,-7981,3204
-1,-106,-71,3477,8881,19
111,55,-109,10465,693,-6551
98,67,-84,1359,1585,-159
61,0,-90,2877,-3592,-167
35,-76,-119,5574,-734,389
48,-61,-39,5127,-2256,4632
3,-125,-68,5557,-3446,5378
100,-56,-41,5152,-91,2780
6,95,-45,1377,374,4138
-12,-98,97,-3098,-1521,5320
-37,73,-36,3178,-1627,3464
-3,-9,-42,4535,1330,819
68,-5,-33,3354,-846,2266
-4,-115,-66,-4357,2615,3965
121,37,-84,-3708,-1321,254
-48,-53,-101,4922,-1181,-2628
-51,102,-69,-2803,1134,-2291
-59,62,-4,-2997,412,-1472
-68,75,-102,-930,506,556
-92,57,-90,509,176,241
-77,85,-97,698,62,-203
-32,111,-109,484,-26,-236
-15,125,-103,-317,-203,-226
-2,111,-98,-440,-245,-311
1,104,-88,-382,-224,-144
-9,115,-76,-562,-271,-36
-2,119,-64,-272,-186,48
16,114,-81,568,68,144
27,-107,-106,336,126,190
36,-73,126,-419,207,117
38,-86,110,-312,158,-10
36,-98,108,-13,-22,-92
51,-93,105,17,-26,15
57,-82,106,-180,13,42
64,-88,102,47,-13,-60
69,-85,106,87,-130,-84
84,-85,114,107,2,-38
90,-76,116,7,50,-50
94,-85,103,144,186,-133
126,-6,-12,926,3880,-4073
64,94,-22,864,5369,-5869
61,-50,-111,-1482,2555,-5794
123,-26,-39,484,-278,-8718
57,-95,-128,-3451,178,-6810
116,-112,-35,-3080,2131,-4655
100,-86,59,-5930,-3305,1280
47,-37,27,-2527,-2471,2052
-62,15,125,-8144,-6932,2233
-94,-72,97,-15032,-11506,-761
85,-50,14,18941,10533,1689
8,-50,116,3718,1565,-6236
-10,38,-44,-1212,3079,-2529
1,-74,-22,4499,-567,378
-6,-81,40,4947,751,-324
76,-93,69,4853,-421,3057
39,-1,-116,10503,1758,3459
68,120,75,5233,4970,3362
121,41,-8,15,-1351,5827
54,0,71,-1594,-1663,5995
114,44,63,-3377,-1798,5560
-118,-22,-57,2266,314,3532
-113,51,-115,3172,-905,4237
44,-47,52,-839,3288,3836
-80,103,2,-702,2427,-1212
-123,75,108,800,-2749,-3375
26,42,111,-386,-1220,-901
-25,-59,65,905,490,286
-113,-2,45,-307,77,325
-60,36,7,-61,-540,824
-27,61,-29,-273,-130,507
-15,93,-36,-817,-146,271
-23,81,-41,-533,-153,208
-25,81,-70,-394,251,-55
-30,74,-73,52,-93,-221
-32,68,-90,334,-96,-226
-35,78,-98,6,-140,-187
-3,66,-119,53,-56,-104
54,82,127,-80,74,186
34,105,103,21,-18,233
1,116,119,153,-325,-145
35,103,123,397,41,-192
46,94,105,308,334,-133
41,73,92,613,107,-44
54,69,94,611,10,103
46,89,118,331,89,128
47,84,117,264,347,-71
84,79,111,-68,475,-254
-69,36,84,159,526,-18
96,44,101,222,-90,-89
