AccX,AccY,AccZ,GyroX,GyroY,GyroZ
34,37,97,-3766,3014,-1833
-36,114,102,-2425,3504,-2277
-115,-3,-7,-3642,2110,-21
-60,-39,65,-1924,1932,-301
81,124,61,-1077,376,1170
13,9,-52,26,-1571,2037
124,47,-27,3,270,938
-114,-74,31,1367,-6383,2707
92,53,-13,-4317,699,-1446
-122,-24,115,433,10400,-6988
-63,118,-89,-1889,-1582,-603
-37,-90,25,-617,299,-1801
-77,-89,8,148,-1111,-2740
119,95,-19,2249,-1957,-263
66,-79,127,2965,-2321,868
93,-23,113,1912,-3573,3541
24,84,-112,354,-4443,3194
-103,22,-3,-37,-2453,2066
52,-47,-44,-803,-2571,1926
25,-12,-46,-1354,-1312,606
32,98,-37,683,-911,-292
73,-103,89,-716,-530,524
75,-69,100,-93,-846,-308
-102,-82,3,136,1731,-1161
-46,73,-102,464,1336,-1900
-20,86,-116,315,433,-1095
14,-108,-89,-943,31,-548
15,-121,-104,-531,-50,-797
-20,85,-117,-12,-282,-1679
54,-73,-87,-1608,442,-474
27,93,-118,-181,629,-433
12,124,-123,-374,329,-667
43,-102,-118,-831,378,-306
42,-115,-120,-783,400,-393
51,-116,-124,-328,218,-404
59,-100,-128,-420,194,-592
74,-80,126,-761,361,-268
74,-91,123,-604,259,-401
78,-90,120,-560,277,-402
94,-73,-127,-808,357,-365
94,-92,122,-306,147,-578
105,-70,-127,-728,377,-577
105,-86,125,-543,381,-519
103,-76,-126,-698,182,-400
111,-77,-127,-586,229,-445
120,-82,-121,-471,240,-419
120,-76,-118,-430,200,-467
125,-69,-123,-493,282,-499
-123,-60,-124,-657,274,-401
-128,-68,126,-461,340,-428
-90,93,78,-2906,4652,-3482
-3,-30,-108,-2070,4189,-4286
-124,120,-115,-4261,1283,1284
-49,121,68,-3450,352,2037
-21,-88,83,-647,2322,819
-12,-19,20,-1440,848,3060
50,-125,-89,2499,728,-520
92,-90,32,-2242,-9222,4934
-59,54,63,126,9103,-8803
-35,-50,2,-1033,5615,-3561
41,-47,-2,-1478,-4798,700
-56,-110,-16,-617,-1119,-1106
-86,-44,102,1819,-1040,-1771
-101,119,-33,1200,-2767,437
-28,113,12,2748,-4451,2234
-61,4,-88,-52,-2506,3548
-101,104,8,1962,-2294,1511
82,5,11,-810,-962,1826
-105,28,-123,-1059,-1859,590
-108,-96,-103,3181,-1208,-1384
18,22,14,-2133,-1389,1735
56,-82,-45,-855,-1217,688
-72,-103,-87,-1054,1239,-1385
72,59,109,-513,1879,-2129
97,87,-121,-18,919,-985
92,103,127,-239,28,-533
87,-128,-124,-590,-144,-455
96,58,116,1158,-379,-899
117,-121,-119,-851,456,-651
112,95,105,-405,523,-709
120,105,106,-790,506,-607
126,87,92,-458,419,-551
-123,83,82,-262,271,-471
125,-118,115,-1043,-101,6
125,124,119,-481,-25,-190
-104,-119,107,-369,479,-459
-97,-99,105,-588,334,-439
-107,-111,100,-420,95,-493
-100,-99,114,-754,321,-384
-93,-117,101,-237,252,-536
-78,-88,109,-712,249,-439
-85,-96,115,-771,258,-396
-90,-112,118,-340,203,-475
-78,-86,122,-608,250,-409
-81,-85,120,-520,225,-497
-74,-91,121,-349,281,-569
-70,-68,-128,-820,383,-417
-77,-85,112,-420,279,-520
-73,-74,118,-493,198,-454
-66,-89,117,-199,366,-470
59,75,59,-2813,5864,-4369
22,-75,-26,-2257,3825,-3336
30,-45,-71,-4722,691,2190
-18,19,111,-2272,141,1622
96,-102,78,-132,1716,1241
47,-76,-59,-482,1358,1389
12,79,106,185,516,-275
20,95,-83,-294,-9374,4611
-64,105,-38,-755,7075,-7083
22,117,-59,-1601,4344,-3241
3,-58,-40,34,-269,-917
-88,54,-116,-384,115,-675
116,14,-47,134,247,-1107
15,-121,-80,256,-1188,110
-20,4,-119,2027,-3048,-146
114,-78,-1,1832,-2844,2234
-3,52,-46,-471,-2898,3596
-48,86,-7,1149,-1767,2061
89,-81,-69,-702,-579,1323
24,7,-59,2163,-2920,867
59,54,42,-2797,-1294,1743
70,118,51,-250,-2477,531
113,53,-76,1456,-418,-981
7,111,-116,419,268,-83
-103,-111,-102,-1064,304,-159
111,24,114,-76,566,-1301
118,81,-127,-1353,659,-1050
53,-4,90,105,10,-2014
42,-70,72,2021,-608,-1977
120,-120,101,-1653,824,389
79,48,66,-940,149,-21
96,39,54,-177,-45,-552
-121,-122,74,-1585,473,-286
112,98,57,-695,207,-575
113,116,70,-560,90,-606
-127,-115,77,-777,234,-433
-122,125,74,-310,318,-627
-113,-104,78,-742,342,-554
-112,-99,78,-805,275,-545
-108,-108,78,-584,296,-588
-102,-94,81,-739,365,-499
-101,-96,78,-557,295,-482
-100,-92,78,-471,240,-464
-92,-77,85,-666,232,-344
-88,-82,85,-422,200,-368
-85,-73,86,-471,217,-361
-80,-64,87,-545,181,-304
-79,-65,89,-456,101,-317
-73,-54,93,-561,200,-276
-68,-53,94,-529,216,-323
-58,117,-88,-2073,4235,-3782
-102,127,-36,-3612,5309,-3273
61,73,-125,-3559,3316,-611
-31,67,-111,-3591,299,2144
-117,100,-124,733,1037,548
39,-76,-86,-333,1240,2187
100,-8,-19,1403,-782,842
23,-10,115,-4471,-9199,5002
88,-22,73,-157,13269,-9215
-99,-86,76,1428,2487,-3617
78,79,110,-2999,-2883,734
18,-128,99,1875,-1829,-1066
102,-115,49,234,1660,-1075
-3,-38,82,3126,-1972,193
-73,88,127,-1251,-4566,4848
47,38,-72,-403,-6214,2935
-12,-67,25,467,-1137,1374
-26,33,-100,-785,-1513,683
-19,-86,-61,621,-1384,652
-109,-118,117,370,-755,204
-14,-51,-117,593,-1320,728
65,103,-34,759,-786,-480
35,-88,20,-767,-987,510
-40,-115,-16,-1269,28,-693
-99,68,-82,209,1246,-1392
114,90,-92,-804,998,-1193
112,88,-89,-686,334,-542
104,68,-106,-118,2,-584
123,103,-109,-612,104,-590
124,82,-126,206,-88,-844
-123,65,103,987,75,-843
-118,116,113,-580,381,-667
-128,117,106,-1194,419,-396
122,81,102,-337,99,-393
-127,94,105,-156,-39,-408
-112,95,97,111,-50,-377
-95,-106,106,-1196,254,-170
-97,124,103,-685,100,-270
-88,-127,109,-493,169,-389
-89,-120,109,-475,171,-446
-86,-115,112,-559,215,-391
-79,-102,118,-758,284,-368
-82,-112,111,-434,224,-471
-73,-103,113,-414,231,-443
-73,-98,113,-471,232,-442
-68,-90,115,-711,294,-386
-63,-89,116,-719,296,-376
-63,-84,120,-700,261,-385
-62,-86,124,-531,256,-411
-53,-68,-125,-706,309,-371
13,116,-121,-1487,3741,-3263
16,-75,-83,-3227,5081,-3661
-6,66,48,-2521,2847,-2238
82,-47,81,-5785,245,2546
-60,-95,108,-93,1923,157
-37,9,-26,-1221,1499,2298
28,70,-46,580,75,1151
-68,119,-20,1230,-7563,2947
22,116,-1,-2208,2725,-4561
82,-76,84,141,11354,-6672
-85,-13,-5,-225,-1863,-156
37,-89,112,-23,-2055,-755
-73,116,-7,-835,-346,-341
89,31,-11,2355,-958,-792
49,86,31,4098,-2695,723
-77,-43,99,-2242,-4152,6108
-28,-128,40,2216,-6911,2940
-60,17,38,-130,-1141,1605
-118,101,-21,778,-1540,972
-80,-101,-19,-826,-1228,1193
-30,-103,-13,-740,217,-719
1,-18,-118,1895,178,-1194
110,-58,23,-1928,-796,844
-61,29,-74,406,-1009,-695
-37,32,-61,1084,-855,-625
-57,-80,-72,-1206,131,-144
119,73,-103,-706,690,-1492
97,23,103,-294,1503,-1561
87,39,104,-534,915,-1084
86,68,103,-765,155,-541
105,95,102,-1040,201,-186
112,81,102,-647,285,-441
-124,114,100,-713,373,-338
-128,-128,104,-747,221,-497
-122,118,114,-512,167,-537
-127,122,126,-601,204,-553
-122,110,-124,-377,74,-552
-117,-123,-111,-692,10,-363
-122,-112,-110,-858,-31,-316
-117,-97,-112,-920,-76,-271
-99,-81,-101,-914,-83,-277
-98,-92,-120,-252,281,-451
-99,-41,124,-964,313,-532
-72,-67,98,-628,218,-524
-85,-52,118,-784,-111,-196
-99,-37,-118,-849,-21,-143
-83,-41,124,-356,452,-367
-79,-16,113,-581,299,-466
-80,-30,107,-372,354,-497
-79,-26,102,-504,498,-468
-63,113,87,-2687,4953,-4069
-113,53,112,-3246,5723,-3595
-47,19,-7,-2926,2978,-939
-49,26,32,-3363,-299,2040
127,-43,101,-33,581,1050
-47,-32,-39,-9,544,1468
-36,-119,-46,256,892,-6
0,-91,-11,-2070,-9631,4940
91,-99,-94,-355,9733,-7729
-92,-98,21,1296,7253,-5431
85,-50,-26,-1633,-3188,955
-123,-49,-125,1326,-1882,-1681
0,125,-67,469,105,-1365
50,23,-46,2370,-3439,570
-37,-4,55,942,-2003,2222
73,-12,-122,-136,-3994,3610
18,-19,-22,-968,-2819,2558
-31,21,-3,-543,-1645,108
98,-33,-11,46,-761,714
-123,-41,-123,81,-1331,-33
34,76,-71,-482,-1965,1213
59,-53,11,765,762,-1093
-83,-127,-44,254,-202,-528
-64,-113,21,-356,-1273,595
-80,114,-53,550,-873,2
-104,-118,-58,-999,585,-796
116,91,-104,-775,1239,-1063
82,39,123,22,806,-936
86,89,125,-542,435,-313
108,87,99,-474,411,-343
-127,88,90,-345,337,-368
-126,95,106,-229,54,-209
-119,108,106,-300,282,-339
-102,102,91,-244,524,-472
-93,96,84,-122,367,-409
-77,91,83,-169,128,-364
-86,99,93,-362,138,-357
-92,79,107,-235,165,-444
-81,79,115,-406,216,-379
-68,81,120,-547,198,-240
-73,81,123,-446,114,-271
-64,102,-125,-670,226,-271
-58,95,-127,-448,291,-389
-57,99,-126,-431,296,-432
-55,107,-124,-604,350,-387
-51,98,125,-332,324,-449
-45,100,-127,-265,228,-405
-34,122,-123,-642,381,-377
-35,99,-125,-219,293,-437
-34,121,-115,-593,255,-340
-54,-121,-2,588,3474,-4073
44,84,-90,-2943,2697,-3079
-83,75,-52,-3344,5009,-3114
-23,30,37,-2106,3231,-2519
-81,-69,45,-5222,839,2597
63,-123,71,322,3359,-798
62,114,52,-617,765,1803
-37,-106,86,-1515,1080,1408
31,-79,50,-1561,-3672,-678
-110,44,-117,-3295,-3613,3152
-99,17,-7,2303,10846,-9577
16,50,113,-566,-1178,-1026
72,-59,86,-1315,-2209,-370
-44,-39,98,1055,-1901,-1523
1,9,27,1587,-221,-993
-40,100,36,3835,-4220,1067
-124,99,123,-1003,-3671,5088
123,-89,91,1557,-4471,1241
115,126,82,-854,-1167,1313
-78,102,113,1518,-36,510
76,-122,-34,-1207,-1101,787
4,106,42,1736,-1343,-457
8,-81,37,156,-872,-136
-120,-28,-96,1951,-626,-926
22,-124,-86,-1229,392,1041
-102,103,-112,-942,-539,149
125,50,126,-226,425,-1140
102,66,120,-900,983,-1115
62,42,114,-559,423,-944
73,68,120,-393,51,-229
96,78,120,-472,139,-143
112,86,111,-440,178,-387
122,92,126,-582,210,-449
120,94,126,-720,394,-541
121,87,125,-529,383,-529
123,79,110,-97,266,-633
-120,117,111,-772,302,-446
-115,108,120,-651,170,-446
-105,98,118,-358,233,-631
-99,-77,99,-1881,462,-419
-81,-94,-126,-1365,-88,-403
-91,-37,-111,-2065,-27,-594
-69,-72,-78,-1391,740,-537
-90,68,-46,-3295,143,-335
-92,-9,-35,-1663,332,-435
-108,-9,31,-834,108,-480
-116,12,36,-457,188,-307
-116,-7,16,311,473,-316
-119,42,-29,-126,239,-226
-96,-33,-32,1015,42,-379
-23,-109,-117,-3084,4466,-3766
12,62,-3,-2221,3043,-2396
-127,29,-4,-4611,-186,2331
-103,-16,79,-1519,995,827
-96,-104,77,-410,1869,662
-82,46,-127,134,1231,1124
-110,-126,99,-1528,147,782
80,38,20,-436,-8983,3378
24,-95,26,-393,12461,-8051
2,-52,86,798,3479,-3170
-54,-17,38,-198,-4702,1062
-67,57,90,-485,-262,-626
-50,35,-76,2344,-1504,-464
-22,127,-54,268,-3907,1245
10,-124,-101,2344,-4187,2857
-127,18,3,-411,-4770,3696
4,4,-11,95,-2928,1164
3,-27,22,824,-179,-330
-50,-26,33,-813,-749,1001
-36,-108,-112,-226,-2217,366
122,76,-45,-9,-534,483
-113,-66,-6,-1140,-33,584
-97,58,-121,-94,906,-1692
-79,68,-95,-253,1163,-1169
98,-125,-99,-1034,363,-937
102,77,126,49,532,-811
110,100,-128,-396,640,-632
95,95,121,-514,257,-641
124,101,-114,-801,288,-403
-122,85,-118,-503,280,-478
-118,100,-114,-505,199,-431
-112,105,-114,-601,260,-362
-112,116,-108,-651,76,-257
-112,104,-109,-50,-103,-310
-100,115,-103,-263,43,-212
-81,-107,-100,-775,262,-129
-80,122,-112,-254,189,-334
-69,-100,-98,-820,328,-238
-82,-118,-111,-439,445,-514
-85,-109,-114,-529,355,-518
-84,-110,-107,-543,284,-465
-75,-109,-107,-527,392,-516
-69,-111,-113,-428,302,-574
-60,-102,-108,-654,303,-496
-66,-109,-102,-505,239,-530
-63,-108,-97,-560,282,-454
-61,-102,-94,-586,209,-378
-62,-97,-95,-529,165,-385
-59,-91,-88,-553,158,-317
-54,-87,-86,-586,201,-302
14,11,-7,-1563,3637,-3555
-41,-23,43,-1881,3950,-4945
47,75,-101,-3585,4581,-2819
-105,75,107,-3128,2171,20
-104,27,26,-2686,-127,2673
123,-124,35,408,2923,183
103,3,-52,-156,956,1060
-68,101,100,-137,2590,-933
-117,121,77,-2120,-10390,5894
47,-80,-125,-1350,6646,-5388
-28,41,-32,-390,5848,-4570
30,-11,-41,-1585,-3437,-515
54,96,-47,457,432,-1879
47,82,53,-671,-1395,-779
94,-105,25,2369,-2627,-1680
-104,81,93,2682,-3120,1540
-53,88,-9,-1732,-3040,4629
-23,-40,15,1137,-3093,644
113,42,51,-189,-135,147
-89,28,114,-472,-584,779
-127,-57,-81,548,-1230,32
6,43,-35,-1468,-1499,1280
101,-128,87,668,-1032,-395
25,117,40,194,-816,-72
-62,-30,40,-2304,429,-687
-99,67,-54,841,1295,-1124
101,114,-96,153,778,-795
76,-123,-111,-495,57,-418
109,111,-96,-400,-236,-289
126,79,-92,-43,13,-397
112,67,-97,326,62,-505
-128,114,-93,-584,187,-306
-124,88,-101,-380,250,-515
-123,102,-99,-690,250,-397
-125,107,-99,-721,257,-329
-120,99,-105,-163,156,-384
-105,118,-110,-353,249,-418
-95,121,-125,-360,236,-530
-86,126,-119,-651,289,-464
-89,119,-121,-583,269,-496
-91,108,-115,-370,160,-450
-87,-121,-105,-789,217,-314
-88,121,-109,-408,160,-401
-69,-112,-100,-694,163,-312
-71,-110,-101,-654,202,-351
-68,-107,-99,-551,354,-378
-68,-99,-100,-609,450,-417
-76,-100,-106,-489,318,-449
-64,-97,-104,-532,354,-435
-52,-96,-112,-474,431,-519
-95,106,127,-2463,4560,-3514
28,-5,-92,-2515,4646,-3596
-16,100,85,-4128,2086,180
-47,32,78,-2719,-832,1656
80,-118,42,389,1410,1472
-26,112,46,180,1877,1070
122,88,-88,107,-3429,1719
80,-128,3,-3281,-4797,1548
52,116,64,419,11790,-8379
-45,-57,58,-1031,-138,-1226
-105,-115,-107,-677,-367,-1221
-96,89,-21,-515,-300,-457
-84,10,27,2093,-2500,-751
93,113,-54,1151,-912,175
123,116,-37,1139,-2860,3143
-20,11,-95,-779,-3906,3466
22,-97,-46,1209,-2077,711
15,-33,-58,-331,-982,1408
-106,-59,65,-572,-1798,1031
111,-22,126,-977,-2068,1129
108,58,8,1016,-561,-483
106,-117,5,-241,-1250,251
27,108,-31,-837,-275,53
-12,36,-50,329,-219,-404
-78,118,-74,-599,350,-768
-115,73,120,-416,1075,-1466
-112,95,125,-1178,1290,-1170
113,51,109,-417,832,-1024
108,78,124,-543,307,-548
106,97,-101,-817,-183,-139
-116,104,-96,-738,134,-74
-92,109,-94,-686,338,-304
-66,109,-102,-420,403,-417
-70,-125,-119,-562,380,-484
-84,-124,-110,-701,231,-366
-100,122,-112,-286,140,-360
-93,-116,-106,-243,-11,-339
-78,-111,-112,-443,161,-404
-80,-120,-111,-308,117,-508
-70,-125,-112,-407,153,-541
-67,127,-110,-430,85,-524
-75,-127,-114,-502,54,-440
-83,-103,-78,-956,-182,-231
-90,-126,-89,-326,149,-441
-83,-111,-107,-415,362,-532
-76,-108,-120,-280,366,-484
-93,-101,107,-185,413,-680
-88,-100,98,-456,466,-615
-71,-83,124,-1033,75,-238
-65,-112,-115,-347,114,-332
-86,-20,22,-1053,3986,-3674
80,89,59,-2747,4946,-3778
-128,-28,-40,-2079,3810,-3580
4,27,-57,-5825,222,3089
83,-104,77,-2553,2076,592
60,-57,91,-723,3093,404
-42,-122,-5,-512,-36,2825
-80,42,111,2271,80,-939
9,-48,-17,-4305,-8821,5033
92,-119,-110,1442,8363,-7582
-57,81,-16,-2206,7672,-3333
109,78,106,346,-4064,119
6,-37,-111,415,-1874,-1056
-90,94,14,547,-624,-1129
93,-108,-24,2253,-3716,-172
-67,-78,6,1851,-3250,2876
-44,102,-57,824,-5014,3831
105,-2,30,-969,-1171,2828
-57,-63,-32,165,-206,-376
6,-31,26,-559,-574,102
49,-101,-83,-475,-3377,1200
-24,-120,74,-845,-680,253
49,-10,-47,1364,-377,-993
31,-33,-53,-890,203,498
-87,113,-120,177,481,-935
102,91,110,-341,952,-1534
114,55,-103,-307,759,-1004
80,46,-119,-332,268,-737
99,81,-99,-1001,23,-234
122,79,-107,-908,204,-397
-118,84,-113,-656,199,-542
-118,97,-109,-648,102,-461
125,117,-112,-726,79,-448
-113,-120,-103,-892,118,-323
-112,122,-103,-444,129,-429
-105,-106,-101,-652,143,-428
-99,-109,-99,-633,233,-435
-101,-100,-93,-662,327,-449
-110,-108,-109,-402,392,-611
-104,-95,-104,-611,334,-506
-101,-103,-107,-419,394,-551
-96,-108,-121,-281,336,-608
-91,-87,-112,-650,265,-481
-88,-105,-109,-407,222,-532
-91,-82,-95,-784,343,-429
-93,-105,-100,-339,246,-428
-89,-75,-95,-635,158,-289
-81,-80,-97,-470,158,-333
-73,-68,-92,-561,174,-359
-67,-71,-96,-506,245,-435
42,31,43,-1236,3226,-3606
103,44,58,-2260,5516,-3991
-45,16,-114,-2573,4542,-3525
111,-76,-107,-4160,961,1268
-97,-75,61,-2805,499,1784
-61,-17,58,99,3886,-173
82,77,81,-938,1311,2018
-55,-14,45,58,-1656,29
-44,46,-108,-2299,-10574,6102
96,54,110,-428,11465,-7493
-31,-92,110,-968,8712,-4987
12,-113,53,1310,-7095,1397
48,-23,26,-1856,-1054,-1806
19,123,56,3858,-844,-2498
-75,-92,-68,661,-2759,1845
76,-42,-11,847,-4340,3454
-15,-23,-75,-614,-3390,2202
65,-56,-17,-690,-1427,1252
-33,-69,-7,-1264,-1150,1302
16,-89,67,-541,-225,-1035
113,-47,-65,3062,-275,-1078
-70,26,48,-1901,-1175,800
65,-118,-40,368,-1729,781
11,-66,-26,-753,-637,-192
124,53,-123,1156,705,-1812
94,94,-121,-31,1116,-1722
88,84,101,-627,1026,-938
88,102,115,-853,214,-418
94,102,126,-1015,-127,-286
111,103,-103,-816,125,-308
127,94,-116,-286,459,-705
-124,110,-123,-292,411,-730
-124,100,-125,-200,317,-577
127,65,118,416,258,-606
-108,-94,-121,-1465,497,-237
-118,102,117,-329,89,-449
-100,-113,-125,-819,198,-352
-105,-111,126,-569,122,-535
-101,-111,126,-402,141,-498
-95,-91,-125,-761,248,-459
-90,-105,127,-489,252,-464
-89,-98,-122,-594,212,-467
-83,-86,-113,-802,335,-415
-88,-104,-115,-400,239,-488
-78,-75,-110,-815,281,-414
-81,-90,-116,-442,189,-529
-79,-78,-114,-508,217,-443
-76,-59,-105,-852,315,-302
-79,-82,-112,-281,253,-467
-73,-63,-111,-458,176,-437
-8,-15,-61,-1576,5396,-3365
-97,-30,75,-2856,5088,-1322
-15,-93,-16,-3877,1133,2444
-69,45,104,339,-1193,1658
-80,68,59,511,1116,1711
4,-34,78,630,1776,-135
103,16,27,31,-8593,4582
-51,84,-86,-3267,3438,-2497
-23,-122,-109,2722,12321,-8964
92,-104,-117,-2271,-2701,411
-91,89,96,676,-2852,-1183
-90,33,-62,-591,-83,-894
95,42,5,1833,-3241,377
97,-21,102,2032,-3534,1411
35,101,-93,-885,-4035,3579
14,-12,112,52,-2324,688
-71,-41,-100,197,-135,372
-118,28,-102,-975,-1018,1136
-104,13,-77,-896,-1274,-408
-111,105,106,1050,-2575,260
-92,38,101,-1510,235,-448
-51,24,-35,2375,-157,-1579
-33,-30,-2,-1380,688,449
119,61,-110,689,248,-1165
-117,103,-102,-524,660,-789
106,98,126,-966,492,-600
93,84,-119,-741,71,-336
99,94,-114,-658,-62,-151
126,107,-112,-541,-130,-97
-107,-119,-99,-743,-215,42
-97,112,-101,-192,68,-264
-97,-114,-99,-681,259,-309
-103,-127,-95,-470,147,-320
-102,-101,-110,-932,303,-322
-104,-92,-93,-1037,58,-358
-92,123,-107,-102,246,-530
-87,-92,-106,-603,304,-453
-87,-98,-112,-543,271,-568
-76,-103,-115,-489,351,-553
-75,-101,-112,-621,431,-534
-82,-105,-104,-638,325,-494
-80,-115,-104,-376,264,-492
-71,-100,-99,-565,280,-389
-69,-101,-102,-456,269,-404
-67,-100,-101,-390,212,-373
-64,-114,-85,-108,229,-355
-59,-122,-102,210,341,-386
-53,-75,-105,-688,252,-221
-46,-96,-114,-515,272,-341
-48,-78,-110,-844,304,-362
86,121,-107,-2378,4004,-2758
-117,27,-58,-2026,4128,-3303
-57,-119,-87,-3717,875,481
22,56,57,-3389,-631,1645
72,-117,65,470,2657,1108
-126,85,110,258,2621,618
51,-72,-92,3895,-4952,757
107,62,32,-8099,-3911,3080
-111,63,6,1672,12393,-8924
-12,2,7,-1849,3355,-2003
110,37,-38,740,-4118,70
1,-101,-67,-1748,-2368,-134
93,11,52,3105,-3146,-888
-27,-118,-77,1449,-724,221
-99,-90,-128,542,-3802,3038
-6,23,-18,-939,-2089,2565
-3,103,53,1312,-1840,354
-100,-49,9,-1087,-799,1948
118,-54,62,-1392,-1464,693
105,95,-6,1099,-1877,187
-41,20,40,-2082,-461,62
-24,-86,-47,2610,-1759,-669
-26,98,-91,-4374,-1011,2334
-40,47,-76,577,347,-963
-100,52,118,2657,761,-1687
-116,-63,-96,-1129,744,-810
-126,-121,-109,-1513,509,-489
104,65,-107,-446,-79,-752
125,73,-79,-358,-91,-634
-119,84,-87,-394,303,-612
119,58,-115,397,90,-966
-115,124,-115,-777,327,-522
-128,119,-118,-1010,193,-395
-125,116,-117,-721,179,-298
-120,-126,-114,-722,164,-325
-101,-101,-109,-994,302,-236
-97,-111,-107,-552,189,-385
-92,-89,-98,-762,352,-399
-104,-101,-103,-451,339,-527
-104,-84,-101,-720,351,-450
-97,-99,-105,-402,294,-503
-92,-100,-111,-251,243,-549
-76,-80,-97,-747,222,-359
-76,-97,-84,-577,312,-396
-75,-95,-83,-532,476,-472
-83,-105,-96,-216,316,-478
-76,-85,-97,-497,242,-335
-80,-81,-101,-529,178,-318
-63,-71,-82,-776,163,-185
-67,-83,-86,-342,183,-387
-106,-5,103,-1538,4350,-3791
19,-3,-44,-2646,5116,-3017
-2,102,112,-3941,2271,763
-97,57,69,-3070,41,1324
-101,-89,52,88,1908,688
-75,-48,-13,-434,1445,1371
-110,-14,-111,1290,300,151
-44,34,63,-2893,-7059,3075
-52,-13,2,543,8449,-6690
-80,-116,40,-549,5567,-2835
-43,-84,-62,-86,-3784,102
119,-88,-39,-594,-2006,-626
67,1,-63,2030,-1494,-595
-10,115,-65,1036,-3373,1306
-44,-47,-62,1679,-4257,1589
36,-49,-3,-286,-3502,3134
68,20,71,-1039,-302,1550
29,106,15,1380,-1151,-245
-32,26,80,-2444,-163,1002
-96,42,69,516,-1874,816
-74,-47,42,-1371,-590,-112
112,113,13,-34,-270,-131
11,-126,-13,-154,-496,107
-8,-118,-5,-587,-74,-76
-94,64,-68,234,621,-993
-119,54,-95,-87,702,-1155
-127,89,-77,-376,-195,-531
83,57,-122,420,-1052,-1166
-126,126,-127,-1052,406,-445
107,65,126,-476,283,-588
117,94,-120,-533,177,-386
-128,88,122,-224,257,-639
-121,112,120,-503,355,-649
124,80,98,185,56,-804
-120,110,104,-372,143,-537
-106,-120,110,-1171,407,-292
-117,98,98,-380,210,-533
-106,109,101,-372,242,-485
-99,-113,105,-850,236,-343
-106,111,94,69,-41,-556
-80,-94,113,-844,339,-429
-86,-113,112,-499,224,-545
-81,-106,117,-430,215,-714
-77,-88,115,-830,363,-718
-73,-69,-119,-1026,271,-546
-78,-67,117,-1006,507,-559
-79,-35,-113,-1365,384,-365
-101,-3,103,-1700,106,-492
-80,-28,-72,-978,-27,-208
-104,-19,-93,-369,349,-462
37,88,-80,-1676,3507,-3084
84,-26,44,-3759,4341,-2590
10,-101,-85,-3108,2630,-1154
102,-119,103,-4039,467,1669
-19,-124,110,-52,1104,1007
-123,-102,-74,-197,2254,1555
124,67,69,527,-293,-115
17,-98,32,-1139,-8646,4383
110,122,-113,251,9541,-8106
-29,-11,49,-348,6407,-3743
84,-93,3,-747,-2948,449
-37,-12,-89,212,-1692,-220
107,-100,11,-141,-498,-30
91,-109,-50,1465,-1979,-231
-79,-80,22,1832,-2771,2382
25,108,-93,-653,-5038,3078
50,7,55,877,-1514,507
-113,-32,43,1539,508,-742
74,78,-40,-731,64,730
56,65,-81,-835,-12,-218
65,-17,-29,-1198,-1587,816
66,-106,-76,-1013,-1154,906
79,2,-113,1194,-1813,935
-83,-40,-94,26,624,1627
-10,-28,-95,-194,-1156,-348
-60,-99,-56,-745,-564,-1029
-118,60,-118,-563,517,-1626
98,47,-110,-683,374,-1325
103,57,-94,-427,185,-229
88,66,-105,-362,-150,-303
-126,101,-113,-841,194,-362
-114,81,-120,-141,-82,-629
-89,115,-115,-702,182,-471
-101,124,-124,-1087,490,-504
-115,91,122,-282,276,-573
-109,127,-128,-801,385,-304
-106,124,121,-589,183,-234
-88,-113,119,-549,94,-166
-73,-88,-123,-960,122,-205
-73,-104,-121,-533,189,-411
-62,-81,-109,-833,453,-416
-65,-86,-107,-697,351,-348
-71,-102,-120,-103,305,-580
-66,-83,-120,-443,407,-544
-63,-74,-122,-706,412,-496
-66,-101,124,-290,318,-585
-58,-84,-126,-573,326,-460
-68,-96,-122,-380,139,-403
-63,-91,-112,-387,122,-319
-61,-96,-115,-167,105,-363
-13,103,-84,-2788,3997,-2769
2,124,28,-3262,4236,-1950
47,10,-33,-3773,2294,424
-71,85,84,-2889,1054,1105
94,-118,106,-359,1810,932
-103,6,104,66,2373,710
-116,71,-53,3130,-2531,1314
-26,-76,103,-7158,-6276,2034
55,-26,74,1713,12479,-8840
-31,15,-24,-1648,4887,-2701
89,113,52,542,-5646,48
11,-92,-19,-2111,-1766,-683
-34,-15,47,2501,-1886,-1101
15,-95,-79,3976,-2541,730
76,88,7,-154,-4154,4043
-34,15,-76,663,-3243,1833
17,78,0,122,-47,856
126,-61,107,1232,434,576
-13,-46,66,306,-1412,60
55,-68,-78,-4910,-2052,1935
85,22,9,321,-135,-1125
47,71,56,406,-849,250
-24,-16,48,-2085,-101,274
67,45,103,2001,548,-928
112,-117,-116,374,240,-177
119,109,-98,-47,-794,-175
-86,79,-86,450,-529,101
-127,78,-123,43,-152,-758
-123,85,-121,-740,446,-1001
115,39,-124,-366,43,-1389
-120,73,-120,-855,494,-704
107,57,119,-794,599,-857
116,61,112,-626,555,-639
127,92,117,-933,363,-333
-121,93,108,-535,226,-342
-107,114,107,-668,276,-298
-100,-119,115,-909,195,-184
-102,-110,111,-715,166,-270
-97,-92,114,-732,253,-316
-92,-90,118,-591,214,-510
-77,-78,121,-662,433,-496
-86,-92,116,-423,434,-701
-84,-85,127,-638,281,-550
-87,-95,-124,-468,256,-535
-85,-91,-121,-560,257,-475
-76,-90,-116,-432,159,-349
-73,-89,-119,-322,177,-382
-71,-76,-112,-512,204,-308
-67,-80,-114,-455,256,-297
-70,-85,-127,-194,228,-367
-114,104,62,972,3878,-5090
125,-114,-123,-4073,5591,-3245
83,-10,-40,-3029,4181,-1626
7,-64,-61,-3781,966,1686
-7,-16,117,-1447,-525,2070
-77,-1,54,627,2814,628
-95,123,-2,1020,2776,-566
-73,-10,10,-2708,-10877,5982
102,92,-97,-170,5644,-4820
22,-2,86,775,9560,-6034
-50,108,-59,-1218,-2849,655
1,-96,48,629,-876,-1579
-8,-113,52,-52,-2974,-395
-81,14,-82,2291,-1881,-294
-80,-35,96,2022,-3852,1475
-10,64,-72,-1335,-3045,3601
37,114,57,1242,-2848,1123
-8,28,48,-869,-712,1145
126,-100,80,1139,-2466,842
44,121,-102,-2528,-2133,1379
68,24,1,1400,-805,-668
118,-80,48,-2581,-465,1163
37,123,55,-1294,-1495,451
-41,7,-105,2800,-522,-908
-87,-85,121,220,985,-1328
104,-102,95,-927,1233,-1327
73,76,104,-644,798,-1135
74,57,115,-301,303,-814
83,77,127,-657,107,-590
108,82,-126,-771,219,-483
126,89,-123,-870,311,-517
-121,94,-112,-773,348,-482
-127,88,-116,-488,427,-531
-128,113,-124,-640,467,-434
124,107,126,-169,148,-410
-126,111,112,-47,141,-384
-101,-91,121,-951,143,-170
-108,-114,116,-454,41,-297
-101,-125,114,23,126,-483
-89,-83,123,-938,284,-330
-92,-104,119,-553,213,-471
-94,-121,115,-194,175,-567
-81,-76,-122,-1138,308,-314
-92,125,123,-73,195,-586
-75,-91,-123,-710,370,-403
-78,-93,125,-643,377,-491
-79,-110,120,-333,280,-467
-80,-97,123,-470,210,-387
-75,-96,122,-485,191,-309
-64,-78,-122,-755,178,-197
53,86,81,-1389,3487,-3197
-78,120,108,-2448,4822,-3463
-59,74,-29,-2762,4847,-3250
-42,-103,-110,-4498,2187,1324
18,-75,88,-1769,395,1052
21,112,82,-145,1471,2724
-22,-55,-25,-218,745,1233
26,-15,-80,-449,-2975,2337
45,-116,37,-3474,-1884,-1112
18,-99,-82,3972,11926,-8810
31,108,112,-2662,-637,403
-67,114,60,1220,-4853,-855
84,-76,-24,-348,-509,-701
-79,-111,-3,1648,-3394,-487
66,35,-122,1000,-2622,1863
-77,25,-32,-761,-4366,2314
-13,-85,82,-578,-2366,1261
13,-93,52,104,-2008,1602
-100,98,-80,-2937,-752,664
108,57,90,2218,-1375,-216
109,-37,28,-585,640,221
-19,83,-16,208,167,-22
44,118,19,491,-1601,899
19,-67,-9,-528,-991,-2
-54,126,-6,-342,369,-1309
104,90,-66,-397,840,-2312
101,81,-73,-443,769,-1421
91,98,-75,-314,254,-416
73,100,-93,-342,18,-396
106,124,-94,-832,247,-416
125,105,-106,-427,219,-680
101,82,127,392,-286,-1203
124,-84,-116,-1627,554,-348
104,121,127,-780,510,-260
94,124,114,-136,278,-438
121,-81,-125,-987,289,-214
-120,-103,120,-551,304,-406
-110,-95,-127,-588,269,-433
-107,-85,-120,-689,250,-425
-108,-102,-120,-403,197,-483
-104,-81,-110,-784,174,-331
-101,-97,-105,-458,194,-398
-97,-88,-101,-471,178,-375
-91,-78,-101,-633,267,-327
-88,-85,-103,-474,280,-377
-86,-79,-103,-558,267,-354
-83,-80,-106,-504,290,-350
-83,-78,-106,-446,251,-392
-78,-71,-107,-579,272,-379
-76,-72,-106,-538,291,-391
61,76,41,-2067,4761,-3921
-20,4,-94,-2403,4763,-3650
-108,-110,-76,-5006,1416,2066
-117,20,57,-2196,678,1165
73,123,59,-203,2174,1340
108,74,-107,-1036,1022,2548
65,34,65,129,-1633,-1200
16,-124,-102,-4779,-3330,3941
-44,-65,26,1636,9966,-8122
57,-102,79,-1550,-704,-1021
-118,68,-105,240,144,-1690
20,-28,-58,-76,-2237,-387
-23,33,17,253,-1767,-567
-107,-105,13,7,-3371,-247
-63,86,-109,382,-3471,-164
-42,-24,62,-224,-3065,2153
69,-14,-66,-25,-1027,14
-43,23,-37,-400,-656,268
97,56,-2,-1763,-1744,1000
27,-121,-82,1228,-1299,-178
-112,-97,-79,102,-1031,956
58,95,38,1475,-1213,-239
86,-96,-57,758,-339,520
-20,-87,-37,9,-967,-423
-81,121,-34,441,-867,-1089
82,38,-84,115,62,-1726
75,36,-112,-615,1181,-851
40,36,-124,-910,502,-673
73,57,119,-802,186,-394
99,85,118,-997,366,-380
103,84,110,-603,350,-582
111,89,99,-172,295,-623
121,105,103,-474,281,-490
125,-120,114,-1153,306,-303
122,107,117,-558,149,-349
-127,-126,-127,-717,220,-278
-126,-123,-126,-633,181,-280
-115,127,-113,-244,95,-288
-100,-104,-123,-581,466,-455
-92,-116,120,-273,334,-551
-85,-97,114,-765,467,-561
-88,-107,117,-675,445,-546
-97,-128,119,-301,290,-561
-85,-107,-127,-609,359,-350
-91,-120,123,-229,222,-421
-72,-100,-125,-630,148,-312
-65,-97,-110,-757,209,-258
-76,-113,-112,-353,283,-363
-80,-94,-113,-485,195,-243
-71,-87,-120,-557,169,-187
21,-103,-93,-3206,4404,-4005
-1,-49,5,-2067,4615,-3355
48,120,-18,-6898,553,2684
-19,97,120,528,-113,1008
-40,43,68,115,3238,1283
112,-49,-92,-80,2612,1042
28,108,-88,-3332,-13504,3114
-3,-59,-66,-2038,3828,-1135
39,34,55,3691,14534,-10111
120,90,-38,-1375,-4759,1268
-95,71,-46,604,-4186,-320
6,-119,-22,322,1300,-1133
86,5,-26,3974,-1775,-635
-114,-61,-38,1024,-3603,3730
42,112,-52,-2576,-5853,5531
-95,-122,-42,829,-2347,939
7,11,71,-866,-2583,480
-40,-108,-88,-90,-2043,1243
124,-110,-37,-1324,-496,545
-119,96,-48,220,84,-674
-86,-122,30,40,-1924,254
82,-40,27,-1110,-562,-329
102,48,-86,844,796,-2180
89,92,-72,-371,1241,-1032
97,103,-68,-1199,840,-318
97,87,-90,-394,42,-233
123,103,-95,-303,-70,-354
-120,124,-111,-690,382,-504
-126,115,-123,-731,640,-647
115,109,-125,-645,551,-663
113,118,-121,-634,358,-507
121,-128,-118,-696,256,-335
-123,-109,-112,-797,170,-292
-121,-108,-113,-674,114,-415
-111,-100,-112,-729,209,-366
-114,-102,-109,-592,313,-445
-112,-101,-106,-549,246,-447
-104,-84,-99,-749,211,-356
-100,-93,-98,-608,255,-421
-94,-87,-94,-624,292,-421
-96,-93,-97,-451,302,-482
-93,-83,-96,-624,345,-419
-96,-93,-100,-457,247,-416
-96,-89,-99,-374,211,-423
-87,-76,-97,-649,298,-337
-87,-82,-99,-474,196,-364
-82,-72,-97,-622,242,-345
-81,-76,-94,-459,224,-382
-79,-73,-95,-526,246,-396
-76,-65,-90,-641,269,-356
87,112,109,-2993,3701,-3805
-41,-25,-34,-2951,5305,-4027
-55,111,-68,-5581,2055,1846
-85,37,76,307,192,1111
0,-102,25,-720,4453,1794
42,86,63,-1165,-861,3474
-8,-65,127,1613,-4323,70
78,-112,-91,-2581,-3627,2994
-114,-30,23,-1518,12706,-7553
72,38,-27,-1226,-1265,-1143
83,12,-87,-2475,-852,-1450
-39,123,114,463,-3145,-1416
83,-46,105,718,-598,-1097
-100,-73,22,-123,-3555,-1372
-60,-38,-48,1893,-1482,-94
46,-34,-99,1616,-3075,421
-24,68,-59,-928,-184,1826
21,-42,120,1241,-300,-410
12,25,43,70,-62,865
13,20,-78,-1518,-2467,1186
-101,59,-28,-882,-1515,91
12,-90,-124,-871,-561,251
-49,-60,-76,-1601,-1977,756
44,69,-37,2518,-1101,764
-17,-58,-126,1268,-420,-320
-84,-92,-100,129,-454,-1247
-128,120,-90,-1341,763,-1134
85,59,-91,-1116,715,-1224
61,16,-92,277,207,-601
62,85,-107,-456,110,-227
92,109,-123,-823,189,-143
119,111,-123,-834,231,-264
127,112,-127,-636,458,-438
-128,112,126,-484,559,-482
-117,112,112,-318,538,-462
-120,113,101,-179,313,-514
-107,-128,112,-506,265,-352
-109,114,106,-318,318,-513
-94,121,123,-491,126,-347
-85,117,118,-445,269,-493
-87,115,-123,-471,193,-418
-91,123,-128,-556,432,-361
-106,124,113,-321,208,-407
-94,-108,115,-830,28,-254
-71,-112,-115,-716,-65,-115
-74,-119,-126,-211,187,-427
-63,-94,-121,-567,157,-344
-55,-90,-116,-737,264,-395
-58,-107,-118,-449,327,-558
-55,-97,-116,-612,397,-474
-116,-123,96,-2453,3959,-3020
81,97,-17,-3131,4898,-3497
-67,-106,64,-3986,2617,-569
87,-64,82,-5232,-864,2590
-18,90,127,-31,3314,1062
-73,15,-7,507,2387,1112
5,25,-104,1597,-2214,2201
-60,45,-22,-3041,-5407,3185
88,6,-109,331,8374,-6610
73,96,-84,543,5009,-4624
92,22,-37,194,-1782,-1469
64,52,117,-474,-1376,-1783
-87,28,38,1669,-3347,-1076
100,43,-44,1525,-2170,694
62,-66,11,2070,-2159,2706
-7,64,-91,-319,-2183,2996
-87,51,19,-454,-940,1827
89,-128,92,1072,-2136,880
99,35,-98,-1640,-2728,2466
-88,-82,89,-609,-2038,830
-53,127,53,603,-838,-39
112,11,-25,1569,-1004,678
76,122,-46,174,-852,1084
-49,126,-91,-429,-449,-710
-95,99,-88,-1253,1106,-1313
111,53,-127,-748,1182,-1575
83,68,118,-985,525,-1230
97,124,-112,-1606,76,-393
106,74,125,-378,376,-605
124,97,124,-330,419,-733
-113,126,-118,-940,407,-619
-117,86,-127,-317,409,-780
-115,117,-112,-858,425,-555
-121,104,-113,-612,270,-427
-121,103,-117,-256,148,-402
-105,-118,-118,-615,224,-189
-98,-109,-115,-743,198,-142
-97,-125,-123,-172,60,-246
-78,-77,-105,-1021,270,-62
-77,-102,-112,-476,207,-259
-71,-92,-109,-393,210,-395
-68,-82,-104,-615,288,-424
-72,-96,-106,-459,310,-501
-77,-95,-103,-463,244,-494
-73,-93,-100,-586,257,-435
-69,-91,-98,-607,320,-444
-67,-96,-98,-457,295,-495
-64,-87,-100,-645,318,-452
-67,-91,-97,-518,267,-432
-65,-89,-98,-528,275,-407
41,99,-110,-1608,3803,-3044
124,42,-108,-1816,3266,-2497
42,61,122,-1788,1021,-930
-21,-116,124,-1521,-459,-389
123,81,-80,44,-577,-929
55,87,71,561,-745,-515
39,-102,-77,-109,-239,-181
42,-116,-65,-255,122,-196
36,-120,-91,-442,657,-185
36,-119,123,-472,760,-223
-3,-99,122,-416,472,-250
19,-64,-120,-701,995,-629
-22,-95,-114,-928,997,-790
-110,-102,-103,-1743,969,-286
78,-75,-81,-2453,877,45
114,-92,-40,-2579,323,871
64,-29,-8,-2582,1225,2310
92,-59,25,-468,1118,1081
39,52,-93,1097,305,7
68,-41,17,-1648,-11107,3376
-101,20,-105,977,13783,-9862
75,-99,7,-621,2409,-1701
108,42,-77,-860,-3063,592
-34,-110,-52,-290,-2837,115
-60,-40,-49,2894,-1987,-487
-12,42,45,1717,-3332,2032
-74,-106,-87,367,-3414,3827
26,-28,53,321,-2786,1386
-7,-70,21,-393,-99,639
5,53,37,1055,-1266,104
-36,4,123,-2403,-2459,1747
54,-10,-3,1248,-1487,-553
-33,-82,72,-1426,-1156,1520
3,58,-71,-479,-384,-341
-7,32,-18,-188,227,70
-119,45,-71,-386,367,-607
113,15,-125,-206,683,-985
124,45,-119,-1042,650,-664
104,13,118,-355,392,-766
118,34,126,-515,337,-687
126,38,121,-432,274,-693
-126,48,114,-426,202,-681
-113,81,125,-954,407,-353
-118,66,124,-648,289,-437
-105,85,-118,-730,242,-311
-98,90,-120,-588,288,-359
-90,104,-124,-661,369,-382
-87,115,-118,-698,278,-326
-87,113,-122,-496,291,-417
-78,-128,-116,-559,224,-322
86,116,115,-2636,3449,-3172
-86,-37,-28,-3617,4130,-3355
35,124,95,-3250,3045,-1287
-126,46,82,-4121,-487,1993
36,-118,83,-63,3098,1295
39,-2,-57,-2573,4212,2488
97,102,-29,2188,-2689,1429
112,22,-4,-7818,-6165,2003
-32,90,-38,6389,12597,-9638
-122,79,116,-2360,-202,-449
-24,77,26,931,-4011,-735
11,-70,12,-580,-2171,-605
53,9,-14,3161,-2066,-627
-64,92,-99,1113,-3675,2219
-66,-3,-108,-104,-5649,4211
-13,-68,25,-67,-2837,1823
30,-55,76,-409,-808,1186
99,20,-92,-1752,-1525,1165
109,56,32,1709,-944,-738
-58,-98,4,-777,-260,679
109,91,-35,-34,-1031,530
71,-112,-10,-158,-1427,436
-100,-122,-34,-202,-71,-970
116,71,-128,-304,2147,-2211
72,47,-119,-363,1674,-1488
31,78,-83,-494,-11,-434
86,95,-98,-548,-197,130
117,98,-109,-542,183,-299
-102,119,-123,-906,781,-581
-123,109,-112,-771,350,-687
117,85,-112,-293,519,-601
121,102,-122,-365,384,-529
-118,118,-109,-506,118,-245
-93,117,-117,-280,342,-399
-100,116,-125,-152,197,-568
-93,-96,-104,-1104,210,-285
-98,115,-98,-424,255,-450
-83,-122,-94,-516,480,-442
-74,-119,-105,-468,352,-459
-70,-117,-90,-590,238,-379
-77,-116,-85,-663,421,-446
-77,125,-79,-390,328,-400
-68,-116,-81,-614,443,-254
-64,-114,-88,-453,374,-333
-50,-111,-95,-396,329,-347
-48,-106,-85,-433,267,-412
-38,122,-82,63,366,-604
-35,-105,-78,-621,596,-483
-49,-123,-84,-439,477,-534
-58,126,-72,-475,349,-365
-41,-28,20,-5092,4214,-2706
94,55,27,-3432,5208,-2890
-89,29,13,-5493,1474,1208
28,-44,87,1260,417,1863
32,-91,82,48,2649,1960
108,82,8,1264,-4235,2389
43,-117,-51,-3492,-4837,306
115,-9,43,489,14453,-8285
-113,-70,-30,-483,-2769,559
43,-13,-78,-607,-2813,-181
-55,-13,28,-421,-2092,-348
38,69,-20,2934,-3882,-736
37,-25,119,1567,-2456,2796
-54,-56,-109,1778,-4365,2228
49,117,83,-1238,-894,2254
122,-4,74,13,-54,204
86,-21,6,150,-1684,501
16,-30,93,-1824,-4146,1070
-24,-57,18,-789,-1974,1816
28,114,-100,58,1131,-1022
-29,110,-89,84,1259,-909
-83,-111,-96,-692,617,-416
-123,77,-84,455,188,-649
95,83,124,25,451,-1271
101,-124,-104,-1375,575,-438
86,84,-108,-679,140,-453
86,86,-114,-362,147,-509
106,109,-105,-724,97,-337
113,107,-103,-642,82,-209
121,121,-105,-761,198,-263
121,118,-100,-555,183,-335
123,-113,-87,-777,317,-308
115,-123,-91,-496,391,-410
117,126,-90,-206,426,-455
-103,-115,-117,-345,805,-534
-107,-125,113,-154,581,-670
-106,-103,112,-664,480,-577
-109,-108,123,-875,444,-533
-118,123,125,-287,251,-551
-112,-125,-115,-312,0,-374
-86,-110,-101,-528,6,-215
-88,-107,-94,-553,-178,-197
-82,-106,-101,-691,120,-341
-75,-109,-90,-602,345,-359
-81,-96,-100,-634,466,-503
-79,-96,-101,-373,478,-568
-86,-76,-101,-609,254,-405
-69,-70,-94,-839,185,-278
-63,-87,-92,-405,238,-406
-63,-74,-95,-556,358,-532
-56,60,-47,-2094,3568,-3630
96,44,-67,-2793,5079,-4699
-11,57,79,-3052,506,-1558
16,5,79,-8608,1209,3270
38,-6,-127,1045,5247,-595
17,-120,-28,-1939,2683,2967
-118,118,9,5544,-10374,3851
67,92,103,-4737,1855,-4700
-78,-49,102,834,10977,-5573
-121,5,108,-318,-3568,793
-122,-41,80,1320,-2480,-1155
-98,-121,78,-1077,-2070,-1096
9,108,116,4489,-1976,-992
-45,-55,-60,250,-3404,3411
-61,-13,-16,-1159,-3714,3731
35,12,-29,-274,-1103,1542
71,-23,-84,1224,233,38
-111,99,-42,-24,-273,248
103,-9,-105,399,-1583,534
37,-79,44,-157,-1274,55
32,118,60,-1115,-1899,934
24,101,-11,-591,-1334,780
-13,72,-60,724,-498,-209
-65,-112,-56,-487,388,-806
123,120,-87,-925,928,-1336
109,90,-93,-1016,703,-1001
63,70,-99,-108,-252,-640
41,44,-124,996,-905,-1026
100,-89,-123,-1506,-160,-590
125,117,91,-772,560,-322
116,99,91,-389,504,-795
104,108,71,-113,333,-959
99,-118,83,-1007,345,-758
96,125,71,-786,365,-554
92,107,68,-88,200,-554
103,-94,89,-1112,157,-196
116,-89,80,-1033,201,-103
126,-109,83,-266,-27,-344
-104,-52,102,-1208,98,-70
-96,-55,101,-1142,362,-217
-115,-96,99,11,165,-675
-111,-51,114,-593,285,-423
-108,-69,112,-358,124,-387
-87,-79,106,45,28,-440
-91,-37,109,-861,424,-439
-107,-54,100,-823,572,-576
-94,-75,101,-673,451,-450
-83,-50,113,-862,384,-244
-100,-76,105,-55,398,-537
-78,-36,123,-882,495,-369
42,-110,119,-2329,4394,-4385
-71,125,-116,-3553,5673,-4950
-60,30,46,-4304,2749,-985
-55,73,-94,-5369,-457,3791
-101,-69,-95,1146,2210,1600
106,45,78,-2438,2461,2604
60,30,-104,2378,-9325,5016
-74,88,-47,-2517,1458,-3647
-41,93,-61,4755,13376,-11513
-127,-95,114,-4349,-2825,2711
25,-22,-5,2798,-3431,-1571
-69,-100,-22,101,-1725,835
104,101,-1,3706,-4742,68
31,-86,41,1107,-2558,3651
-80,13,-120,-223,-3271,3030
59,32,20,-2190,-2685,2863
37,108,76,-104,-3205,886
36,-74,-29,-361,-947,-93
97,85,-25,829,-1640,357
55,31,45,-2069,-1565,830
27,61,-69,2070,198,-1488
108,-103,-113,431,1069,-2347
112,-124,-121,-1120,1732,-1293
87,104,109,-728,834,-831
76,83,106,-455,404,-689
101,110,114,-1028,490,-493
105,98,118,-811,340,-636
112,75,-123,-254,215,-719
125,85,-126,-260,402,-505
-121,120,125,-950,529,-280
-125,119,119,-904,391,-186
127,116,116,-555,156,-258
-115,-104,-125,-864,14,-82
-104,-90,-118,-990,126,5
-96,-77,-107,-1010,120,-47
-81,-76,-103,-722,88,-106
-75,-57,-93,-862,229,-209
-81,-49,-92,-703,258,-426
-76,-63,-98,-277,300,-612
-71,-31,-95,-895,463,-541
-80,-52,-91,-739,394,-625
-60,-65,-84,-582,509,-610
-65,-61,-84,-540,551,-691
-69,-73,-89,-376,513,-754
-73,-86,-86,-219,521,-680
-84,-62,-86,-697,438,-460
-84,-86,-89,-320,385,-386
-77,-72,-94,-482,312,-273
-74,-70,-94,-356,211,-188
-74,-75,-99,-155,146,-264
87,-125,-119,-2655,5568,-4246
-1,8,120,-2935,6739,-4920
-87,-20,15,-3300,4235,-2345
-90,79,-11,-5347,-879,3735
116,61,93,383,1156,1024
63,-79,-19,60,1754,1886
-39,-39,57,775,-1105,1456
69,-36,2,-968,-9758,4812
64,-76,-75,-857,11876,-8956
92,-35,-87,-1723,4079,-2523
-49,-78,69,1392,-2549,-1257
45,6,-20,-95,-1570,-1249
99,56,4,1431,-1518,-968
73,6,-75,2732,-2325,767
-61,93,-71,516,-4561,3286
-84,50,108,-954,-2785,2982
123,8,106,-1298,-1496,1110
4,-106,104,317,-1884,998
-70,-25,120,-1329,-2291,1461
-12,100,79,779,-1947,357
-89,60,-46,1421,-208,-279
84,-68,-63,-87,-775,420
-6,-58,-11,-814,-887,17
94,85,-77,-128,924,-1668
77,76,-101,-582,1656,-1754
36,71,-105,-498,493,-1134
56,101,-96,-488,-171,28
64,99,-103,-459,-216,-256
96,110,-115,-374,148,-536
118,121,-121,-727,577,-767
124,105,124,-725,905,-848
127,99,127,-890,703,-700
105,88,126,-241,422,-583
85,86,97,54,201,-711
111,-103,107,-1273,244,-6
123,108,105,-459,-40,-55
-111,-112,117,-641,106,-58
-111,-82,117,-917,90,-272
-99,-65,-116,-1307,-43,-92
-88,-83,-111,-854,64,-252
-84,-93,-110,-286,336,-591
-86,-70,-118,-548,549,-721
-105,-79,-116,-553,335,-736
-109,-81,-111,-640,294,-561
-109,-79,-112,-735,415,-521
-105,-82,-110,-597,357,-491
-91,-74,-104,-635,252,-465
-87,-77,-101,-540,264,-459
-87,-75,-104,-526,325,-455
-98,-81,-111,-400,327,-466
-34,-35,-124,-3219,2244,-4101
52,63,-96,-4960,5179,-3329
2,115,-125,-4468,2305,-726
-18,113,92,-1425,749,3363
-128,-88,53,14,3335,2079
106,-14,-46,321,1669,76
63,67,-15,-938,-10822,4039
9,22,32,-605,5723,-4994
95,24,4,-437,7308,-4433
106,10,-107,-911,-3424,736
-39,112,-51,156,-4341,-207
-48,-16,28,793,-1579,-1068
17,80,-48,2521,-1320,-1838
-98,-51,35,2029,-3024,2531
-65,109,-119,-2399,-1932,3829
-67,48,83,1058,-4326,2504
-120,-103,-20,1063,-3692,954
-109,28,92,56,-1242,407
-95,0,74,-1150,649,-430
71,73,73,1492,224,-1597
42,20,63,2708,-549,-276
44,-51,101,376,-1163,1732
-119,-76,103,-1517,-1199,-265
76,29,68,-868,1208,-1951
69,17,53,-1142,2218,-2228
66,19,75,-529,943,-1171
51,76,87,-534,53,-12
54,69,39,-424,517,-433
-122,79,17,-532,827,-572
-110,113,21,-969,466,-319
-123,108,19,-978,406,-621
-126,100,38,-699,386,-583
120,127,64,-1059,248,-307
-119,119,61,-532,370,-297
-103,-125,58,-367,331,-416
-88,-102,58,-623,72,-213
-80,-88,81,-884,73,-205
-81,-110,76,-334,181,-469
-77,-88,89,-625,18,-332
-64,-72,100,-798,215,-195
-69,-90,94,-415,240,-540
-60,-68,98,-749,373,-443
-67,-80,97,-485,262,-452
-69,-88,90,-187,275,-545
-60,-54,96,-721,325,-345
-68,-83,85,-226,256,-555
-60,-63,90,-600,353,-435
-64,-66,91,-536,203,-330
-65,-70,90,-380,193,-356
-55,-47,96,-683,290,-249
6,56,79,-1341,3531,-3541
79,-127,-117,-3479,4795,-3237
14,121,-70,-3606,5155,-2794
-16,-36,-62,-4460,1607,1205
4,-45,94,-1475,819,1376
-57,-29,55,-295,3256,2073
82,18,-112,1135,388,97
-77,-50,-74,-664,-10357,4191
-50,123,80,-1211,8011,-6106
39,87,-66,1045,8934,-5439
-116,-127,-5,-477,-4455,1036
93,-30,-73,1059,-3545,-748
-38,-52,37,253,-139,-263
55,37,-116,3049,-2620,783
-111,116,-88,-467,-2928,2771
18,-1,120,-1132,-4188,2215
-4,14,98,-1663,-2211,781
86,-82,-96,745,-940,-250
-117,82,-114,-1855,-437,598
63,-42,-90,-170,-2114,428
-14,98,46,1334,-899,-228
43,-76,35,60,-775,568
-7,88,-56,1038,-431,33
8,112,-91,1459,-624,379
-79,121,-108,702,-336,-889
-117,110,-122,-382,607,-1181
117,53,-118,-1028,1018,-1159
93,2,119,-266,522,-949
97,51,126,-984,327,-460
113,40,117,-810,372,-484
-120,58,108,-867,541,-589
-107,61,104,-625,499,-651
-114,75,99,-677,511,-605
-118,90,95,-705,359,-491
-125,82,89,-149,7,-450
-94,-111,110,-1333,241,3
-95,-118,111,-946,107,-106
-79,125,117,-275,-26,-315
-56,-75,-123,-1145,244,-224
-59,-107,-127,-410,225,-563
-65,-99,-108,-576,155,-509
-65,-77,-104,-972,504,-455
-85,-113,-117,-146,223,-620
-73,-74,-107,-842,161,-279
-73,-76,-97,-732,206,-338
-61,-92,-102,-276,360,-576
-41,-63,-102,-670,485,-512
-58,-78,-114,-445,447,-635
-61,-88,-118,-261,473,-637
-67,-79,123,-416,399,-495
-128,63,3,-4157,4165,-3002
62,-81,12,-3208,5452,-4032
80,63,-105,-5878,3818,502
119,16,-96,-388,505,543
-45,112,50,1261,3385,2101
-106,22,99,-628,-361,1594
59,127,-18,-2678,-12241,3372
87,-13,-33,-992,11013,-6007
-115,-97,8,1493,6470,-4501
-102,38,-64,-2091,-3257,1073
-52,-43,-86,1989,-3896,-663
20,13,8,-1006,-1929,246
72,7,-45,3617,-4057,562
-115,56,55,863,-2955,3290
-61,26,-112,656,-1927,2364
1,12,15,-117,-1167,1385
-75,-107,62,47,-769,238
98,-34,32,-465,-2278,248
63,92,-11,21,-2930,-224
-114,25,-12,-4101,-879,228
97,-50,-6,1431,-1991,-205
113,-119,30,-3533,-283,2461
-95,-46,-99,252,859,10
9,51,49,3720,1152,-3424
51,-115,28,1707,1432,-2121
66,-87,69,-1185,972,-622
12,6,88,592,-406,-734
39,86,93,-1014,-425,-385
92,77,124,-1227,-485,-302
125,57,98,-607,447,-597
122,101,74,-1192,1011,-808
99,82,61,-668,667,-854
87,90,56,-563,407,-605
96,-116,73,-1262,253,-77
111,-127,67,-806,142,-40
-111,-73,82,-1348,160,128
-112,-54,87,-1365,25,94
-111,-87,103,-389,-92,-330
-85,-35,-122,-905,330,-229
-97,-46,120,-643,547,-489
-92,-38,114,-717,463,-580
-85,-33,111,-708,369,-586
-76,-44,111,-645,531,-693
-86,-49,123,-614,383,-599
-108,-63,-124,-345,179,-617
-95,-61,-117,-391,317,-391
-86,-68,-126,-184,80,-346
-70,-44,-122,-568,221,-212
-76,-61,124,-246,359,-390
-85,-55,109,-239,279,-353
-101,-34,-47,-2599,2807,-3427
125,116,-89,-2484,5243,-4863
-20,-124,-18,-3312,4745,-3293
24,3,-88,-4515,1215,606
126,-34,-127,-1616,-83,1731
3,72,71,-797,2890,2187
-29,18,5,-428,1445,216
44,80,62,-1760,-12860,6024
-70,-98,-80,-1416,7764,-4867
-115,-119,8,1803,7783,-6754
98,65,-40,-1046,-2817,1096
22,79,82,1739,-1679,-2204
63,-115,50,1181,-3026,1031
78,-98,-61,2574,-2310,1002
-102,-97,93,2551,-3159,3914
0,-72,-122,-2214,-1151,3745
-88,8,-48,794,-1653,915
24,-41,-18,926,-1654,-309
-34,123,-14,-1410,-477,980
64,14,34,2673,-971,-224
-60,16,-3,-1276,288,1109
11,71,-60,370,-599,-342
-12,71,0,-330,-768,227
-2,25,-45,-696,-214,238
-10,0,-43,597,-191,97
-83,-3,85,538,964,-1575
-101,5,77,-606,1022,-1245
-125,32,115,-1512,191,-265
-119,34,-116,-1069,-466,97
-102,9,-112,69,-273,-102
-63,65,-111,-509,451,-168
-45,70,92,-708,691,-528
-62,90,123,-941,-295,-243
-78,104,-94,-1272,43,-410
-64,75,-107,-744,788,-699
-69,90,-108,-699,497,-476
-61,114,-109,-816,150,-356
-39,113,-109,-634,358,-539
-45,-126,-105,-821,413,-572
-68,-113,-83,-915,369,-503
-46,124,-85,-323,438,-624
-53,-104,-118,-281,440,-751
-62,-79,126,-899,323,-540
-50,-64,-101,-1260,-110,-151
-51,-78,-75,-759,-396,-110
-38,-42,-35,-1160,-163,-45
-34,-65,-31,-561,409,-472
-50,-52,-53,-417,434,-760
-60,-46,-62,-502,42,-674
-49,-38,-58,-705,377,-418
-116,-18,116,-3205,2904,-2352
-3,16,80,-2079,4939,-3990
68,-63,-75,-4229,4376,-2474
-30,45,94,-2638,2517,-928
-54,-67,57,-2970,402,1604
117,46,77,-9,1204,3031
75,72,-11,-301,3654,1103
-98,115,-3,-81,-3884,228
120,109,37,-5891,-5890,2340
-13,-102,-56,4154,14152,-9970
-43,73,-56,-1906,-1787,-152
51,93,120,1091,-5151,234
15,-59,41,-1389,-2719,-775
41,-90,-26,4300,-857,-1429
42,-72,28,2947,-1932,1786
-80,-82,125,-3067,-3487,5773
-68,-112,0,415,-4447,2209
-13,21,29,-816,-2263,-213
28,11,54,-61,-1467,192
39,-106,44,-23,-523,-88
-103,-1,35,-1467,233,1050
-27,91,-46,75,-126,-824
-7,-1,15,2468,-775,-1
-101,-95,-88,160,21,-154
124,107,61,604,797,-514
85,-115,99,-435,-11,-375
101,118,107,-1066,-87,-494
103,94,125,-1046,91,-674
79,41,126,27,141,-1193
67,22,120,823,159,-1311
97,92,120,-1185,524,-514
93,87,118,-1402,335,-266
89,50,114,-461,-58,-464
119,65,123,-189,260,-520
111,64,99,132,341,-869
-118,-79,99,-2041,870,-218
110,108,88,-1011,524,-408
119,118,85,-468,457,-469
-110,-87,96,-1167,525,-280
-99,-115,89,-398,250,-484
-86,-84,110,-737,286,-454
-76,-69,119,-1154,652,-478
-95,-119,117,-88,223,-686
-94,-121,127,-9,107,-558
-85,-74,-116,-909,297,-227
-91,-121,-124,-37,121,-364
-77,-85,-119,-533,169,-187
-71,-96,-121,-330,154,-179
-66,-94,-122,-260,127,-176
-57,-75,-114,-565,190,-97
-21,-99,-110,-2166,3057,-3164
-24,95,-78,-2375,4543,-4197
-111,114,16,-3694,4460,-3233
-105,-73,-7,-4384,939,1291
-77,-2,80,-2467,-43,2642
27,-68,74,409,1435,544
-94,30,77,1173,4597,-1552
-40,97,-105,-1691,-6765,6481
-4,-106,-121,-768,896,-4513
15,26,-43,794,11619,-8347
9,-108,-76,-640,-2784,969
19,27,-7,-95,-3589,572
-42,-85,5,169,-3964,-66
-87,-38,-34,2829,-1446,-1678
107,-54,-118,467,-2699,2420
66,-20,-4,1421,-2358,1104
81,19,-118,-212,-1763,2074
23,-21,-127,-742,-1547,1282
46,-72,89,-421,-1672,1443
-90,122,41,51,-1114,156
-101,3,27,-827,-711,612
-68,-124,-51,779,-513,-650
-66,-111,-96,47,-458,-324
-23,-115,-81,-689,-1128,343
22,-102,-83,-37,-798,748
-113,74,116,750,-141,-992
95,63,93,689,996,-1964
83,41,114,467,781,-1440
73,95,124,-1331,390,-446
64,62,121,-1037,270,-125
86,54,102,-583,410,-312
113,76,86,-583,705,-494
-125,73,60,-360,585,-694
-117,88,60,-589,525,-592
-120,95,54,-807,482,-569
-119,100,65,-866,239,-359
-112,110,74,-813,64,-256
-107,106,86,-375,-41,-332
-91,-110,101,-913,102,-152
-80,-88,-127,-1408,221,-129
-79,-111,122,-691,305,-398
-73,-104,127,-473,200,-432
-57,-61,-111,-1100,453,-211
-81,-114,122,31,335,-671
-61,-64,124,-700,502,-471
-73,-74,120,-826,287,-406
-61,-61,-127,-1099,350,-246
-67,-97,-118,-397,234,-415
-66,-66,-101,-684,190,-249
-51,-60,-91,-710,95,-159
28,15,8,-4375,4169,-3844
-123,-26,101,-4994,4664,-2153
-65,-66,-61,-4231,4481,250
-27,10,-4,1460,1779,900
-49,-45,-14,-4080,-1077,6681
-20,-7,107,4770,-6576,560
-77,-88,-85,-4082,-2812,670
16,-16,-45,1615,13015,-8990
-106,20,-11,-1550,-1913,104
-22,-74,-86,-970,-609,-899
-108,-94,7,786,-4055,-527
127,-36,-24,3413,-2804,-132
-61,-89,20,794,-4000,2657
-65,-10,87,-260,-2893,3018
-109,-43,92,-655,-2410,2055
-62,17,108,-1062,-1376,888
-8,-36,-98,2360,-1869,-1419
100,-21,-13,991,-352,-583
98,53,45,-2055,-233,1465
11,65,-53,2983,-803,136
-42,-62,-98,1612,-317,-606
123,-95,-88,-197,274,-1396
114,98,-115,-1522,1325,-1053
54,-1,113,-830,533,-772
55,22,109,-538,183,-243
75,78,114,-1172,112,-58
117,84,101,-931,78,-272
-106,97,103,-1014,395,-370
-103,80,96,-533,803,-744
-109,89,82,-602,780,-780
-115,-124,91,-1176,429,-321
127,113,90,-618,146,-306
-111,-116,105,-760,149,-195
-86,-118,-117,-693,10,-218
-54,125,-120,-109,537,-219
-69,-97,123,-565,584,-579
-71,-120,101,-252,532,-594
-93,-84,112,-901,-142,-182
-86,-67,-112,-1324,-365,159
-45,-86,-107,-679,79,-51
-31,-51,-109,-731,362,-544
-28,-56,-116,-633,637,-966
-36,-55,-118,-766,886,-1130
-56,-93,116,-343,879,-1251
-80,-101,-123,-261,300,-663
-116,-76,-80,-683,-248,35
-82,-90,-88,-407,132,-21
-42,-81,-95,-323,203,-100
-29,-53,-102,-463,133,-122
-48,-68,-125,-200,460,-617
16,116,-85,-2489,4042,-2855
70,84,27,-3095,4244,-3229
49,97,-96,-3777,2434,323
-90,-43,84,-2917,-2427,3068
-13,82,80,-104,4067,2119
-126,-24,38,-1539,3184,698
59,79,60,3852,-12892,4501
66,20,87,-2457,8020,-5697
23,61,105,1954,10394,-6881
-9,-55,-47,-1613,-4461,1641
53,-14,101,879,-3078,-1845
-84,-57,-22,563,-1261,-1794
-128,54,28,9403,-3031,-2151
89,108,-17,-5315,-2764,9873
-128,2,-47,1438,-9004,3949
-25,-77,40,-2026,815,870
65,-105,12,2321,299,-944
32,109,-64,-382,-1596,686
60,91,-82,1508,-833,-815
-94,-25,-52,-674,-999,1167
48,-99,-56,-102,-782,276
-66,-101,-110,-295,803,-1738
-127,85,-109,-606,1778,-2080
81,19,83,-687,1555,-1796
66,33,96,-593,575,-660
58,71,101,-894,-270,4
96,88,97,-1010,-124,-107
-126,97,92,-975,63,-300
-109,-113,127,-1319,171,-51
127,122,106,-488,347,-555
117,113,108,211,226,-775
-116,-76,116,-1075,599,-328
-125,-114,85,-608,410,-529
-107,-59,106,-1409,288,-267
-108,-106,104,-241,63,-522
-105,-86,111,-426,359,-536
-92,-68,125,-861,141,-270
-82,-66,-125,-932,209,-232
-83,-94,127,-185,278,-570
-75,-74,-128,-560,364,-486
-76,-68,-125,-761,356,-284
-90,-93,116,-122,220,-414
-88,-68,125,-557,91,-194
-83,-56,-118,-757,175,-102
-83,-72,-118,-298,55,-276
-61,-40,-107,-734,242,-137
-65,-50,-118,-526,254,-385
-59,-45,-121,-421,327,-504
-54,-39,-127,-703,487,-547
-69,-50,124,-539,337,-602
-79,125,112,-2737,5547,-5202
17,-55,-109,-1434,5268,-3576
31,-78,-87,-5087,847,1499
-60,-48,102,-2015,-222,873
23,67,93,-681,3057,2333
-49,-123,-63,-415,1293,1096
-77,-53,-82,1175,-9450,5001
-90,-39,-99,-3946,917,-3039
0,-44,81,2640,9967,-7415
91,31,120,-705,-185,-871
13,-89,-12,476,-3193,-1123
49,29,5,-2022,-3334,1423
114,35,-11,1963,-1975,-1572
72,-43,-75,454,-1638,641
-71,107,124,1108,-997,559
26,-70,-6,1194,-2030,1785
114,-15,13,-853,-1332,2229
-95,-85,62,-553,-2839,1722
64,-48,-11,-1032,-1481,1534
-121,-69,-17,-598,-19,-1214
23,-79,-30,3296,-2697,-1006
-77,-97,-78,1518,-1491,1134
39,98,57,198,349,198
-45,-123,124,-699,-40,215
-122,23,116,170,267,-1124
114,30,89,-617,1230,-1497
77,11,80,-552,853,-1481
84,38,74,-485,428,-599
118,89,84,-1356,254,96
-128,57,66,-546,161,-422
-99,106,86,-1113,448,-523
-98,93,76,-1005,610,-826
-116,69,73,-294,197,-885
-105,-94,119,-1957,94,-294
-100,115,115,-977,380,-219
-93,-124,123,-561,316,-339
-73,-78,127,-1166,407,-166
-72,-78,-128,-971,361,-388
-63,-81,-114,-773,449,-428
-63,-71,-103,-722,393,-461
-91,-91,-112,-73,429,-663
-78,-50,-111,-768,617,-452
-70,-88,110,-50,406,-607
-60,-77,125,-249,238,-472
-63,-54,-115,-929,467,-352
-86,-115,-114,316,236,-535
-75,-92,126,172,96,-385
-48,-37,-113,-1078,200,-66
-49,-108,-124,131,55,-428
-49,-74,-117,-359,269,-306
-34,-45,112,-2529,3289,-3720
-110,79,121,-2429,4255,-4295
4,106,63,-4065,3004,-2261
-71,-83,25,-4310,670,1239
-22,-99,101,-682,4328,1073
-106,72,47,-744,3830,1370
-98,-89,125,-382,-3621,2463
-77,-124,64,-2495,-8437,4266
125,-66,81,-198,10902,-7089
-98,31,-31,121,3736,-3510
-108,77,89,-492,-263,-764
26,125,28,2146,-2563,-1138
110,7,-6,-1168,-2653,42
-2,-6,-36,3515,-4190,-328
84,40,-103,780,-1666,2398
70,103,69,-882,-1484,1714
70,-92,-27,1147,-1490,1525
67,-60,-78,-2318,-30,1457
-72,-91,-65,1602,-3130,589
-57,12,70,177,-1825,371
-116,-93,-122,-2739,-1178,65
1,10,70,1342,-1699,-701
21,-73,73,-1173,-707,1010
-51,-73,-24,-789,178,646
101,117,117,1966,282,-733
95,-83,97,306,309,-563
102,109,103,139,-161,-285
112,80,121,77,-434,-231
105,87,-115,-647,30,-284
109,53,-118,-327,329,-723
104,42,124,-244,573,-872
101,84,106,-1217,711,-769
92,48,87,-544,342,-858
111,50,90,-425,329,-682
-127,101,85,-1112,489,-461
122,71,79,-509,240,-501
-118,114,92,-1014,210,-300
-116,98,98,-440,52,-380
-95,-120,107,-911,261,-193
-94,-109,108,-972,249,-242
-98,119,104,-125,48,-498
-84,-98,120,-717,311,-341
-89,-111,114,-473,354,-481
-89,-120,107,-167,202,-536
-77,-79,118,-944,425,-346
-83,124,108,-88,275,-560
-74,-103,117,-523,387,-375
-85,-98,112,-600,439,-395
-80,127,96,30,175,-427
-55,-77,118,-964,173,-99
-93,-104,86,-2401,4360,-4262
-112,-122,-112,-3257,5763,-5351
103,-67,97,-3397,3421,-1828
97,-121,92,-6672,-1855,4595
77,6,-106,678,1758,1123
-88,118,105,-1646,2980,1539
74,32,-92,3177,-3520,1550
-85,21,-93,-5562,-4820,3509
72,62,42,3948,9789,-11895
-57,116,-66,-3310,7062,-3425
-116,64,-12,1520,-5989,1123
-95,41,-121,-711,-2852,-783
2,51,40,1482,-1133,-1109
-32,-19,-93,3885,-2250,139
-100,73,-64,526,-3281,4504
86,28,-59,-634,-4017,3839
124,-105,-18,476,-1662,1472
6,-37,51,-53,-271,698
-1,27,-12,528,-211,-90
90,81,-83,3087,-1064,-1129
10,82,34,-821,-1839,2196
54,-22,-84,-189,-743,-182
-94,-64,-71,-678,473,-1260
84,95,-82,-660,1397,-1436
43,71,-103,-760,461,-1275
34,60,-86,-452,-133,-473
51,85,-94,-984,238,-291
78,-126,-113,-2071,489,-37
96,80,121,-1143,511,-398
113,96,-123,-466,883,-685
-118,-117,124,-714,914,-605
120,-120,110,-344,547,-474
111,-99,90,-451,568,-583
115,-82,101,-894,390,-420
-128,-100,102,-564,167,-376
-108,-77,116,-781,112,-328
-110,-63,125,-1023,191,-354
-114,-66,-114,-870,39,-387
-95,-61,-95,-878,43,-293
-83,-59,-85,-679,179,-385
-79,-54,-84,-583,299,-602
-76,-56,-76,-684,454,-601
-84,-61,-77,-648,533,-611
-91,-69,-81,-533,458,-574
-96,-66,-80,-560,441,-461
-100,-69,-85,-440,430,-441
-91,-63,-83,-469,339,-285
-91,-53,-92,-479,386,-285
-84,-51,-102,-417,195,-283
-79,-49,-96,-384,152,-254
-118,-91,-45,-2718,3421,-3011
-86,-95,-11,-2869,3681,-3600
37,-36,84,-3577,2308,-1810
46,121,-14,-5395,113,925
-72,-118,98,-1649,583,-444
-10,41,-122,-2622,-992,4096
-116,-58,82,1042,-38,531
-17,-61,-13,5424,-7097,3566
-70,1,116,-3744,1699,-4599
75,-62,123,-1479,9515,-5805
-13,-71,-128,191,-3025,60
0,-21,-109,-200,-549,-1745
-67,85,65,39,-414,74
-63,10,-59,2891,-401,-1097
121,-121,117,1634,-3078,1018
-91,30,-24,1040,-4263,2310
40,82,-39,-562,-3556,1712
82,112,99,528,-1557,1127
-80,-118,7,43,-596,1497
100,-37,-97,-983,-140,435
-79,-112,-20,838,-1687,257
-4,83,-128,665,-627,-284
66,103,-87,351,-929,278
27,109,-65,-260,-749,318
-56,42,-107,1095,-664,213
-115,125,-121,-556,-86,53
122,-114,-114,-1639,409,180
84,66,125,-468,76,-608
93,62,-120,-361,355,-617
82,71,118,-469,504,-786
91,63,104,-486,480,-1019
111,79,93,-689,649,-826
107,84,81,-902,659,-906
112,81,82,-792,581,-888
123,100,81,-876,584,-731
-127,103,73,-650,541,-656
-127,112,76,-658,395,-601
-116,-116,85,-972,398,-423
-117,125,78,-467,182,-526
-98,-85,97,-1048,244,-239
-100,-101,101,-607,151,-334
-97,-97,111,-529,195,-380
-80,-72,121,-733,338,-291
-87,-93,114,-293,243,-479
-76,-64,125,-756,364,-300
-81,-93,119,-172,269,-478
-77,-76,124,-425,304,-389
-80,-80,121,-387,380,-429
-84,-89,114,-179,391,-487
-71,-80,105,-390,332,-370
43,123,-100,-1551,3097,-3455
63,-112,-85,-3293,4224,-3997
-85,21,-79,-2653,5673,-4279
121,-15,-72,-7473,1745,2469
110,62,-79,348,-1095,1564
-56,-56,90,518,1715,1884
-43,98,-106,-2222,-1718,2803
60,78,84,1909,-9337,4129
-1,124,-5,-1954,8166,-7081
-13,90,-17,-146,8198,-5578
-58,45,-70,-373,-3549,832
98,-36,120,34,-893,-1425
54,96,73,643,-747,-1047
-127,-100,-32,1394,-1812,-257
-54,-19,32,2311,-2928,1074
56,80,-121,241,-2534,2543
65,97,-128,-474,-1626,1828
56,50,-22,581,-2762,1381
-20,45,110,543,29,87
77,52,76,726,-981,-229
84,26,63,828,-2336,326
0,-75,-57,-130,-26,-533
14,63,24,-2879,-1090,1800
-52,126,-39,195,-164,-394
-35,-113,-46,139,895,-200
-112,-29,-68,-1978,1179,-850
-127,83,-94,67,832,-1134
105,125,-93,-749,387,-532
88,98,-101,13,-704,-120
94,108,125,-97,-1040,-316
-125,-124,85,-639,-156,-160
-128,-127,69,-776,842,-323
123,127,69,-739,838,-778
-125,127,72,-456,528,-605
125,-108,78,-688,275,-444
121,126,69,-251,131,-549
-107,-55,98,-1549,251,-68
-114,-106,92,-474,78,-429
-97,-82,106,-792,221,-447
-84,-84,126,-610,205,-444
-95,-114,110,315,219,-739
-94,-53,124,-871,180,-517
-86,-104,121,-253,368,-527
-98,-109,106,-138,360,-603
-80,-49,116,-1242,478,-159
-82,-109,105,19,388,-467
-71,-122,87,561,646,-504
-66,-41,99,-1130,504,-272
-72,-111,79,-37,170,-424
-64,-79,100,-638,288,-355
49,-16,-92,-2185,3673,-3120
47,-74,-93,-2300,3972,-4163
-72,41,5,-2238,3368,-3852
127,13,-27,-5692,-1066,1286
39,-42,-99,-2318,741,1411
-88,75,-115,-864,1020,2920
126,-19,53,861,2084,2380
121,-62,-115,2348,-2220,1272
61,32,-112,-5276,-6219,1275
-104,63,98,1528,14654,-9874
-70,-48,33,-1687,396,-823
-108,74,11,893,-3612,-1573
-86,-89,83,-840,-1676,-203
69,-33,-6,3701,-2588,-1066
109,96,-89,2700,-3247,1444
96,104,-110,263,-2186,3010
-67,87,-120,2044,-3282,3158
-92,98,52,-2111,-1328,2342
-88,-110,31,1800,-1304,618
-94,-70,-5,1197,-740,23
-23,30,49,-1589,250,715
-114,-29,72,-1534,-1248,492
116,18,56,-1141,-872,-124
-41,100,40,-359,-235,-1082
-90,-95,-5,-674,403,-99
90,116,-72,-403,418,-965
88,98,-118,-164,472,-1035
106,121,117,-540,411,-791
104,127,113,-887,329,-604
106,111,125,-721,225,-550
107,113,119,-533,299,-595
111,-124,120,-749,226,-585
127,-79,124,-1537,319,-297
123,-110,119,-575,148,-293
115,-79,-125,-711,239,-368
127,-66,-117,-847,151,-160
-122,-70,-115,-642,49,-253
-113,-41,-106,-886,115,-239
-98,-45,-101,-812,167,-361
-90,-51,-104,-570,365,-543
-84,-39,-104,-758,605,-621
-102,-58,-114,-422,528,-788
-105,-52,-112,-585,533,-636
-111,-62,-119,-453,473,-622
-109,-59,-118,-514,361,-499
-104,-61,-117,-503,365,-429
-100,-69,-118,-318,219,-388
-96,-64,-117,-333,269,-360
-98,-66,-119,-264,160,-288
-95,-65,-119,-250,66,-207
71,63,-122,-1966,3048,-3120
85,-118,-55,-3813,5029,-3321
-44,68,82,-3232,2287,-909
103,34,127,-3318,-1210,2661
-99,3,87,952,2153,687
117,-35,-55,-1192,3011,2171
78,-10,-98,1613,-1348,629
-43,57,-38,-6618,-9229,5344
-34,-108,-35,1943,11517,-9480
29,-4,-123,-1196,4620,-2836
-18,85,23,433,-3298,-177
85,-128,-97,1818,-944,-1360
66,-56,9,176,-1453,371
-70,63,-122,2454,-1784,310
-116,108,-49,761,-2003,2017
-37,27,-27,-1072,-2848,2989
85,0,-122,-1341,-1847,1951
-9,-49,-101,871,-2069,-324
6,-50,82,854,-886,424
-87,62,-123,-581,-989,-216
69,94,-29,1928,-72,-966
96,114,109,-3033,-1459,1026
-18,38,-27,1461,-1881,-130
15,-40,-27,-286,200,748
-89,-101,-89,-170,462,-653
124,93,112,-139,645,-1115
107,90,114,-845,516,-876
89,43,92,-94,301,-742
95,80,102,-757,104,-324
123,53,104,-128,129,-185
-124,54,84,4,252,-513
-101,97,97,-843,337,-343
-104,78,80,-596,319,-407
-101,98,77,-844,320,-267
-103,-126,81,-1262,343,-115
-100,114,77,-690,327,-279
-72,-100,87,-912,59,-266
-57,-94,98,-949,222,-282
-66,-100,98,-631,441,-656
-65,-100,109,-521,531,-753
-63,-94,108,-613,515,-647
-71,-103,97,-356,387,-697
-69,-92,105,-569,254,-552
-63,-78,116,-874,326,-360
-61,-106,112,-177,277,-506
-54,-81,118,-475,305,-383
-55,-73,115,-562,207,-362
-60,-78,116,-394,125,-314
-55,-70,117,-529,293,-286
-47,-70,119,-402,256,-259
115,-23,122,-3468,5422,-4225
51,27,-66,-2436,5540,-5223
122,85,-17,-6967,-701,2457
-116,-23,107,7,-1946,2213
51,-39,117,-918,3068,2159
40,5,-96,-3347,2297,2700
85,27,-83,2464,-7820,707
3,-112,111,-2612,-262,582
-102,-78,-34,431,9367,-7141
103,18,-92,-355,2893,-2519
-2,-104,29,-212,-1497,-892
-66,-126,-41,1611,-2280,-1180
84,-67,32,-276,-1469,874
-26,58,-14,798,-833,-728
-11,37,97,845,-2046,144
-111,48,10,-1003,-2743,1264
79,-26,64,-511,-3149,1542
-124,15,-64,-37,-878,436
4,17,-10,686,-1629,635
79,108,55,-783,-1499,-51
-52,68,96,3011,-441,-524
5,84,-72,-2047,-1271,963
-84,15,46,2175,-1582,2
-31,-125,34,58,-705,603
-98,62,-39,975,-897,258
-120,125,-37,-416,-791,37
117,82,-23,-815,-96,-332
90,37,-81,-123,927,-803
78,59,-103,-606,767,-647
98,63,-107,-852,471,-388
111,44,-119,-309,471,-602
-123,70,118,-715,877,-894
-128,64,100,-652,759,-976
-122,72,98,-779,489,-852
-121,86,117,-1054,344,-575
-124,81,115,-670,504,-641
-119,89,93,-446,442,-736
-107,116,116,-838,-148,-315
-101,-123,-114,-992,-252,-189
-89,122,-112,-585,223,-433
-92,-124,-101,-612,138,-380
-93,-114,-88,-471,-52,-314
-109,101,-101,520,-97,-758
-80,-74,-92,-939,472,-249
-81,-115,-121,-326,575,-457
-90,-128,126,16,341,-495
-77,-86,-113,-890,505,-243
-95,111,112,219,462,-612
-90,125,96,127,337,-623
-82,-89,91,-813,310,-311
118,45,94,-1571,3231,-3273
-104,120,82,-2499,4638,-4332
124,-101,-69,-2859,3821,-3581
-44,-32,90,-3899,2682,-655
-27,-61,110,-2823,588,646
-104,65,118,-344,2202,2421
-86,110,-3,1116,485,1413
-31,-45,70,3995,-3760,1698
118,-125,101,-8435,-5896,1768
-16,-89,-112,2459,10897,-7010
-79,101,-19,-1464,5996,-2800
20,-86,38,-19,-4360,-56
-66,99,-35,-1583,-3143,45
-58,9,8,980,-1447,-1509
48,-69,-42,1168,-2216,479
-48,96,-92,1244,-2332,1706
-59,-121,-78,840,-2368,1606
21,57,112,-59,-1731,1735
10,-14,100,-359,-1925,331
63,-87,-11,666,-965,717
4,-76,-15,-440,107,-725
-25,-100,42,986,-711,53
-30,55,-54,1153,-577,-543
38,-117,-68,-286,-695,673
-73,79,124,-273,-287,-13
-89,65,116,-869,-71,231
-81,96,-117,-1182,-380,633
-105,92,121,-706,23,233
120,98,101,-384,439,-342
-124,111,96,-598,532,-486
-111,124,96,-726,414,-436
-107,119,98,-534,344,-743
-106,98,88,9,576,-1181
-101,100,84,-489,898,-1237
-114,118,79,-1083,813,-1071
-122,109,91,-1095,511,-852
-106,-121,123,-1410,272,-439
-107,113,121,-550,257,-649
-93,-99,127,-1070,436,-545
-86,-86,-116,-1042,308,-379
-95,-89,-114,-744,304,-477
-78,-50,-99,-1165,322,-284
-86,-57,-93,-891,244,-272
-87,-62,-94,-445,386,-503
-70,-31,-88,-745,532,-338
-80,-56,-106,-72,366,-556
-68,-45,-113,-173,419,-535
-72,-55,-121,-92,287,-574
-84,-64,-120,-138,435,-555
-107,-71,-125,-188,391,-549
-4,-1,26,-2166,3484,-3225
117,21,-83,-1528,4584,-5010
-122,-72,87,-3509,7277,-4195
53,-21,-54,-4659,1857,798
83,24,-62,-2692,-1920,1199
97,35,108,-33,694,2233
39,-60,44,-4292,3523,1955
-31,4,122,1527,-8664,3535
-21,-27,101,-3122,151,-989
-83,66,-7,3959,10054,-9178
-20,-124,40,-2628,2630,-1339
-126,-5,-116,2032,-1301,-2388
-122,104,118,17,-3592,-901
-59,124,-115,2014,-2544,-749
-117,96,-112,1599,-3311,1595
64,-40,-84,1903,-2283,2314
14,-98,26,182,-3706,2966
-93,-2,-51,-866,-1269,2386
-28,-114,-54,3550,-2310,-174
-91,-115,21,-861,-106,1490
26,95,-74,2064,-680,295
104,-58,-110,-727,-127,1109
26,114,-84,-91,-1070,995
-79,120,-66,-171,-178,-30
-111,91,-100,-705,890,-1022
120,67,-68,-1024,508,-604
49,49,-88,-733,419,-619
75,75,-105,-1188,655,-451
104,95,-100,-999,16,-314
-125,116,-56,-1282,150,-442
-96,109,-50,-1168,874,-814
-110,66,-85,-41,1077,-1498
108,65,-124,392,649,-1963
-121,-92,121,-1682,1217,-721
104,121,112,-1074,635,-594
91,95,108,61,74,-495
117,-121,117,-318,-108,-351
-121,-122,-126,-432,-241,-125
-75,-23,-82,-2565,411,295
-98,118,-90,-96,52,-401
-94,-99,-85,-225,244,-488
-91,-42,-84,-1155,328,-284
-99,-77,-98,-681,-21,-327
-81,-47,-34,-1045,-294,98
-76,-53,-34,-634,455,-334
-72,-92,-84,169,969,-1029
-80,-43,-91,-541,774,-761
-91,-62,-100,-537,397,-642
-86,-99,-98,-11,369,-662
-81,-104,-109,181,193,-610
6,-125,33,-2941,6090,-5098
53,-58,121,-2567,7445,-4847
116,47,47,-6846,350,2561
-89,102,87,-796,-2095,1167
-71,11,-11,17,4089,3449
-55,-100,-35,566,-3346,2529
-74,0,15,722,-7442,2380
-103,16,7,-3624,-884,726
-84,106,-111,393,13227,-8338
14,6,-104,-1418,3116,-2379
17,-106,-110,-962,-1347,-1426
-116,8,-104,545,-1716,-2208
112,49,-10,934,-1997,-1171
-86,83,-48,2024,-2057,-138
5,-5,87,2841,-2646,1249
-101,-98,27,-949,-2393,2976
89,-61,-41,382,-1597,755
-96,-78,115,1632,520,811
41,-100,-87,-512,-513,619
-59,-5,110,1313,-1454,826
20,76,123,-558,-817,254
14,23,-128,-1340,-1788,1135
-19,-53,99,-1020,-1024,486
-77,105,68,-335,-112,57
-107,104,28,-49,271,273
94,110,-72,532,490,-267
55,-87,-78,-904,-59,-38
91,-109,-59,-947,-369,63
-120,116,-58,-389,-126,-274
-108,115,-89,-328,823,-772
-122,111,-125,-846,1486,-1160
-114,120,127,-1347,1119,-1005
-106,91,-109,-685,423,-822
-100,101,-107,-727,674,-853
-98,95,-103,-492,672,-917
-95,81,-112,-4,396,-950
-109,109,-111,-486,292,-811
-120,-121,-101,-1152,241,-334
-127,125,-86,-771,-208,-34
-108,-120,-76,-608,-175,14
-84,-99,-74,-478,48,43
-85,-92,-92,-191,114,-182
-77,-86,-107,-155,110,-285
-66,-63,-100,-694,138,-194
-74,-83,-97,-454,149,-394
-74,-89,-95,-322,287,-569
-74,-86,-87,-484,392,-592
-80,-98,-94,-389,421,-606
-78,-104,-91,-420,395,-559
-71,-110,-97,-359,470,-618
-112,-122,-63,-2038,3757,-3476
74,75,59,-3251,4865,-3648
-59,82,-99,-4260,2781,203
-3,-89,68,-1720,73,2198
-4,59,31,36,2029,2068
0,-40,-58,2126,2262,382
-64,110,-76,-3012,-208,953
-40,-88,-4,-6023,-6147,4265
-11,-63,1,4065,9292,-10146
7,-99,-70,-1573,3539,-1779
-12,109,110,1024,-5051,769
-48,-2,77,397,-2726,213
22,-103,-78,1118,-1788,1437
64,38,-83,2528,-1011,654
-1,47,34,-67,-1758,2122
79,71,16,656,-4040,2278
127,32,-64,-2074,-4070,3708
-41,-50,-15,781,-1151,301
-113,-75,2,1847,-988,-524
-62,8,41,-630,-2126,1773
78,-112,-91,963,-532,1027
-102,16,49,2804,-518,-1021
-86,-111,-75,-1012,-358,-317
74,-4,-126,-483,702,-1209
66,-23,116,-949,1136,-1502
93,-1,108,-1544,921,-702
97,3,103,-1219,430,-396
99,33,81,-1256,851,-760
117,45,65,-1100,996,-973
-124,49,52,-823,728,-968
-93,101,80,-1300,538,-358
-99,95,63,-564,874,-808
-118,98,35,-401,985,-1143
-91,-127,56,-862,327,-640
-44,-105,113,-1124,-154,166
-72,106,92,-43,172,-548
-90,124,81,-256,611,-793
-97,-110,108,-759,-168,-63
-86,-104,-125,-689,-644,306
-53,-121,-112,76,-448,-1
-34,-95,118,-348,490,-441
-57,-100,108,-361,403,-561
-71,-69,127,-1062,33,-12
-86,-98,122,-540,38,-200
-44,-78,-117,-767,251,-320
-30,-55,-113,-717,425,-323
-37,-55,-119,-857,637,-629
-35,-59,-114,-883,739,-509
-47,-70,-124,-461,744,-703
-40,-70,121,-340,784,-867
-40,-123,-47,-2206,4244,-3510
-58,110,6,-3017,4011,-3153
114,120,-125,-3346,782,-1134
-23,-119,77,-3907,-1340,1553
-128,82,69,-604,2513,1596
106,71,112,-1026,3871,2053
-7,-56,105,895,-7353,3081
89,-82,-118,-3477,-1933,1221
-23,86,75,2104,10239,-9321
-121,78,80,-1707,206,-1016
44,111,-40,219,-487,-1212
-99,125,120,-714,-1625,-497
-44,-7,35,2375,-5082,8
50,-51,-55,645,-1490,951
85,28,-109,1822,-3597,554
-94,23,14,-368,-1480,2179
89,-93,115,45,-2156,1163
-22,-72,110,1044,-3252,1975
51,48,-95,-689,-969,909
-48,-26,-24,424,-214,-298
53,103,-40,1252,-396,-121
41,-18,-50,-949,-309,529
-47,50,-94,888,-60,-422
-43,79,-72,399,-109,-13
-79,107,-71,-526,187,-459
-111,96,-53,-1125,500,-607
-119,49,-61,-1027,604,-706
-128,29,-79,-275,457,-693
116,74,-88,-880,531,-569
-124,78,-110,-1065,797,-604
-97,61,122,-402,877,-690
-95,75,109,-308,699,-642
-89,95,97,-376,833,-597
-98,91,93,-243,378,-513
-103,123,118,-809,81,-272
-78,95,-124,-341,251,-531
-77,79,78,329,489,-981
-68,-107,-112,-1160,-180,-151
-79,100,-124,-289,-93,-386
-86,104,124,-61,93,-663
-66,-105,-122,-952,138,-228
-72,125,-110,-554,-63,-355
-58,-123,-116,-582,100,-399
-63,-102,-96,-842,273,-207
-54,-124,110,-133,328,-444
-75,-49,-89,-1534,-393,57
-50,-48,-77,-1660,267,-136
-49,122,-123,486,831,-832
-67,-30,-106,-819,219,-598
-72,-48,-109,-843,526,-586
-40,15,74,249,3565,-4966
-95,77,123,-2167,3607,-6253
83,88,-51,-1432,3836,-3223
54,-57,-61,-8081,-2260,3847
86,-128,-33,-3048,610,1415
5,-112,91,-1740,2813,1426
-23,-26,55,771,1557,2208
102,-71,108,58,1557,1409
126,109,-15,-2755,-11040,4393
-34,-67,116,-46,12456,-9395
86,-18,80,251,6302,-4444
103,-94,85,-61,-7855,2019
-59,16,-20,837,-3179,-118
-24,93,4,3052,-1324,-758
79,35,55,1150,-2095,1730
52,37,-80,1782,-3839,708
-83,-54,117,149,-2078,2945
66,-29,47,-1013,-1475,1584
65,-101,116,1035,-431,-57
-1,124,116,-1808,-544,1088
55,-74,48,19,-143,-778
55,-61,38,-569,-1163,847
15,-41,-38,-1403,-129,226
-49,113,-50,349,-439,-555
-89,-76,-33,-786,169,-369
121,112,-93,-261,774,-1058
92,86,-119,-387,731,-1141
79,83,122,-179,145,-979
63,93,109,-529,-349,-1019
125,-84,-123,-2241,403,-71
119,99,126,-867,565,-360
118,107,123,-307,679,-685
127,108,116,231,484,-751
-125,113,108,-49,524,-648
-126,-91,105,-1112,598,-182
110,-120,100,-586,210,-189
116,-88,107,-868,271,-84
-124,-82,109,-654,12,-136
-84,-48,119,-1073,210,-74
-72,-68,112,-530,327,-446
-73,-47,126,-765,467,-721
-77,-68,-128,-445,584,-892
-91,-83,-126,-236,449,-843
-90,-67,-117,-717,433,-473
-99,-97,-118,-331,329,-551
-95,-97,-118,-342,342,-523
-87,-97,-117,-248,242,-407
-85,-96,-121,-115,159,-349
-72,-81,-122,-419,281,-202
-67,-87,124,-241,272,-197
59,-40,-105,-2359,3775,-3285
91,112,113,-2997,5613,-3930
-96,106,92,-4472,2713,-1321
110,-106,77,-2776,-858,2285
-32,106,94,539,816,3566
18,70,-55,-1247,3622,1710
108,-79,-100,3311,-11432,5000
-70,-75,86,-5028,1726,-1678
83,46,-104,5081,14089,-8637
-35,11,116,-3051,-2253,802
76,4,15,819,-3207,-1051
73,62,5,-1190,-2980,-1029
-78,-36,-36,2612,-2850,-709
70,81,118,709,-2996,1643
102,-89,80,783,-896,1392
-41,59,-118,-2758,-1511,1194
101,-123,12,936,-5243,1785
-42,-31,-31,-259,-1301,1178
-44,-23,-127,770,190,-598
23,29,-9,3744,-1612,-987
52,-66,-2,357,-2387,1644
90,-64,-41,-1410,-1377,1661
-79,-32,-105,-1352,406,196
76,47,76,542,1860,-2832
103,62,56,-381,2313,-2216
79,80,71,-1039,860,-960
59,48,73,-487,-60,-522
87,87,103,-1379,183,-350
-117,86,117,-1323,270,-349
-103,80,118,-722,438,-682
-101,91,101,-447,688,-880
-115,120,106,-953,417,-552
-119,-104,113,-1385,231,-198
-101,-82,-124,-1623,107,101
-102,-72,-113,-1214,68,57
-88,-99,-100,-133,16,-479
-68,-55,-85,-455,216,-390
-85,-110,-119,844,146,-901
-97,-78,116,582,65,-965
-104,-87,106,-315,71,-874
-71,0,122,-2246,793,-42
-108,-128,106,-196,533,-604
-106,-101,105,74,288,-645
-89,-57,126,-872,193,-294
-83,-69,122,-909,443,-420
-83,-70,-121,-658,383,-287
-80,-52,-118,-708,308,-210
-77,-82,125,65,260,-421
-60,-50,125,-355,218,-340
-65,-66,116,-71,175,-483
64,-67,-75,-3204,4950,-3537
61,118,-72,-3697,5409,-4035
-69,-77,96,-4203,1981,-742
-75,-79,-127,-4233,699,2236
-101,109,-97,297,2475,-552
19,51,77,-446,868,2484
-29,-53,-68,5947,-5813,786
91,-66,-73,-4937,-3722,1962
11,-2,-10,572,10686,-8222
28,-93,23,-2357,-92,-637
119,47,39,-593,-1651,-1072
76,117,22,-280,-755,-545
-22,-17,37,2456,-1186,-486
94,-20,-32,223,-1360,281
124,54,110,2284,-3275,368
-126,-74,71,-533,-1938,2058
-24,-31,-77,1136,-1123,-203
67,22,106,496,344,815
109,103,71,-465,-30,82
25,37,77,150,-530,288
37,23,65,-394,-740,174
72,-18,116,-872,-565,968
127,-110,76,553,-632,1259
60,-56,31,406,-640,431
-32,-41,34,-772,-354,-110
-84,-126,-19,-23,85,-461
-111,-111,-45,-915,13,-371
107,99,-99,-431,-53,-450
122,108,-117,-401,115,-370
-108,-115,-128,-972,276,-349
-101,110,117,-558,343,-692
-95,116,121,-768,510,-852
-90,124,124,-1075,709,-803
-107,92,114,-197,426,-893
-117,100,111,-185,183,-752
-96,-75,-116,-1763,378,-108
-105,106,115,-160,104,-478
-84,-94,-124,-902,62,-182
-59,-63,-103,-1357,65,12
-71,-94,-105,-375,32,-272
-67,-58,-98,-833,302,-310
-67,-59,-102,-678,355,-389
-67,-57,-102,-516,273,-452
-64,-64,-112,-266,402,-594
-63,-65,-118,-502,474,-606
-63,-32,-106,-1166,466,-399
-74,-95,-104,29,284,-590
-71,-51,-100,-706,556,-457
-67,-63,-111,-578,450,-479
-69,-67,-111,-345,215,-421
114,78,87,-2018,3512,-3044
24,32,-121,-1948,4164,-3907
-2,74,50,-2795,1961,-1327
-33,-23,37,-5944,-751,2810
96,-109,71,-328,2298,-524
-59,107,73,-676,2945,886
-16,-78,-108,404,3699,730
5,48,48,50,-9319,4292
-92,80,51,-3476,369,-398
-78,31,-105,2036,9624,-8132
-29,-97,-88,-2285,1628,-1094
-39,30,20,1219,-1722,-1661
-11,-51,-5,81,-2049,-51
-53,-46,-46,1183,-893,-165
102,-67,-54,245,-1752,955
-32,38,45,1562,-753,888
-48,29,-55,395,-2127,1963
26,45,-83,-488,-2266,2003
-68,-6,-122,611,-2334,1033
-26,4,73,327,-832,769
22,-38,50,348,-2006,975
113,-8,49,-668,-1840,983
33,17,-65,1895,-1325,397
101,122,-30,-805,-871,1779
20,75,-38,725,-1366,696
-75,-126,-31,-633,-299,-899
117,67,-94,-1169,1511,-1787
72,-7,127,-301,730,-1742
78,55,-117,-1095,426,-319
62,39,123,-687,142,-249
100,71,116,-864,297,-376
-99,93,113,-905,343,-677
-98,75,84,-368,598,-1375
-93,115,71,-1244,1128,-1243
-118,108,60,-1063,951,-1016
115,127,72,-1120,545,-751
-124,-122,65,-966,527,-453
-110,-78,77,-1290,199,-104
126,-70,95,-964,-275,-181
-72,-22,-120,-1837,120,-3
-56,-69,-104,-499,261,-345
-75,-68,-124,111,617,-905
-79,-28,-127,-567,548,-702
-94,-50,-127,-507,-28,-495
-88,-34,-105,-935,99,-177
-73,-83,-102,-3,511,-506
-63,-87,-127,471,808,-693
-89,-70,106,237,553,-556
-117,-89,84,199,172,-389
-87,-72,88,-430,-4,147
93,-59,43,-1302,3288,-3425
45,-104,5,-1544,3996,-4083
63,-16,120,-3192,1497,-1870
-73,-34,31,-3265,-558,635
78,-118,56,-1821,-1429,2437
29,-97,10,-281,346,2967
-79,69,-26,736,2261,-838
51,-9,-74,-478,-10826,5077
-42,-82,-110,-844,8328,-7246
-5,108,-92,232,9296,-5595
-48,38,-69,-520,-3542,438
105,117,-59,1333,-2875,-1181
91,-80,-4,-453,-231,722
19,14,-10,4043,-744,-289
111,25,-108,819,-1946,3211
-76,100,-124,-2309,-3352,4189
105,-113,93,1042,-3523,1577
99,112,-92,-1098,-1355,1068
-54,84,-13,-329,-2226,775
-118,-40,-118,1073,-1254,-301
107,-84,82,686,-940,753
-1,101,-33,-12,-938,830
-40,113,-28,-728,-1220,414
-86,-81,2,-1972,-324,-277
98,53,-90,-234,865,-1603
109,97,-81,-994,1450,-1067
51,73,-100,-666,655,-845
49,85,-100,-532,244,-520
82,114,-106,-878,450,-531
122,100,123,-398,694,-670
-116,-125,116,-870,768,-720
-121,123,109,-814,695,-723
-108,-100,120,-1474,935,-368
123,121,127,-727,391,-630
-123,-106,-114,-740,204,-439
-110,-86,-103,-969,262,-329
-109,-94,-100,-600,156,-419
-98,-76,-86,-636,-14,-336
-86,-60,-78,-881,197,-316
-91,-74,-74,-538,137,-481
-84,-66,-56,-611,272,-463
-80,-81,-67,-291,436,-582
-84,-86,-75,-105,310,-608
-86,-62,-82,-670,466,-469
-108,-85,-91,-381,377,-495
-101,-85,-90,-323,231,-311
-85,-68,-91,-524,331,-204
-86,-81,-108,-51,191,-424
-77,-43,-94,-922,271,-302
-76,-72,-91,-452,281,-400
-97,-47,56,-2415,2689,-2971
32,48,-123,-3466,2852,-3008
85,27,-40,-4709,2397,-1247
-26,23,118,-3856,725,329
-94,-53,96,-296,1260,2225
127,59,94,-1437,-1836,3519
13,39,-121,5165,-7180,2086
-70,-61,-53,-3930,586,-2535
94,16,85,717,12175,-6959
-35,1,-22,-1195,-1419,272
104,90,126,1983,-2281,-1509
-95,93,31,580,-352,-319
-112,99,-47,1824,1082,749
1,-12,43,599,581,614
-30,-86,35,2121,-2457,1231
-125,63,21,-1783,-827,2179
36,4,-113,-51,-1399,1149
87,72,-41,-684,-1629,856
-33,-122,34,-1333,-2109,953
-63,-105,-104,1715,-1205,-122
-21,108,-117,2003,-1771,1010
71,17,-117,-1983,-1284,1308
49,-50,123,-1904,-1016,624
-1,-43,-115,-1999,-368,349
-97,117,40,-39,99,116
101,121,-42,377,-131,251
107,-104,-100,-47,-426,32
122,70,-119,891,-1040,-234
-90,80,-116,162,-448,-123
-94,124,-108,-1756,-10,-579
-95,62,-117,-1248,346,-1116
-93,49,127,-915,869,-1253
-118,99,-121,-1615,977,-1044
115,69,123,-647,749,-1062
123,83,110,-579,857,-942
-126,113,106,-809,581,-516
-117,124,112,-735,207,-190
-91,-114,108,-642,298,-287
-69,123,93,84,212,-470
-70,-88,105,-855,166,-242
-76,-83,123,-1155,176,-304
-81,-110,-119,-107,-42,-121
-76,-99,-122,80,97,-319
-66,-80,-121,-322,362,-414
-55,-84,-123,-165,181,-313
-58,-90,-125,-154,94,-337
-52,-93,-120,-369,216,-288
-57,-127,124,252,163,-391
-52,-116,120,-114,431,-397
-51,-125,96,-262,583,-488
-104,29,-109,-1856,4133,-4611
54,-49,-82,-2464,5269,-5556
107,93,63,-5097,1464,-201
87,-5,92,-6010,-1076,1913
72,-48,122,1193,3042,-137
-90,91,85,-2555,1992,3654
-94,-77,-37,2672,-1558,943
25,46,111,-4404,-8025,3287
-86,-1,-66,1849,10724,-9646
100,-8,-58,-2817,6499,-2695
-74,-72,116,2100,-3723,-1025
116,4,-76,236,-2134,-916
-4,17,-62,2062,-2016,-263
-2,-46,-115,4007,-1910,677
40,54,102,-504,-4454,4706
-40,-94,19,-93,-4056,2453
-28,-54,-120,521,-1905,1385
10,-89,-23,-1557,-2787,1954
-82,51,-43,-519,-1714,143
124,-79,98,667,-627,-45
45,-70,120,-534,-1409,1033
-26,-100,51,546,-1074,880
127,-24,3,-1196,44,-663
71,118,-48,-472,1264,-1772
54,110,-84,-941,1442,-1435
42,-110,-82,-1509,702,-533
51,-119,-65,-1061,251,-84
91,106,-88,216,626,-289
118,-108,-110,-80,1029,-611
120,-115,117,48,906,-805
103,-102,105,-706,967,-814
98,-112,111,-1072,733,-581
98,103,120,-208,483,-463
-114,113,124,-269,606,-327
-110,118,113,-220,230,-244
-87,127,113,-488,217,-170
-90,-126,-113,-703,-87,-61
-81,105,-87,-224,116,-49
-107,123,-86,-127,296,-427
-117,104,-87,18,396,-785
-82,87,-74,-282,328,-571
-57,81,-41,-489,32,-394
-78,65,-51,-374,504,-711
-94,85,-44,-893,442,-413
-90,53,-45,85,40,-178
-93,87,-54,73,129,-296
-83,112,-65,-350,266,-272
-63,123,-24,-817,-142,18
-66,94,-48,-59,477,-594
-50,71,-105,207,1221,-1155
-118,-127,61,-2988,4222,-3478
-95,41,112,-3158,4153,-2930
107,103,82,-3344,2649,-1482
21,-12,32,-4067,1914,690
-81,107,87,-1775,2518,2024
21,-121,78,65,3008,1619
117,-19,61,3262,-388,-945
48,-48,-21,-2507,-10222,5989
-75,-97,114,-786,7874,-6663
-111,83,-62,-1939,8875,-4546
-73,-86,-125,-540,-3585,-355
78,-115,-113,1970,-3971,-1508
-3,-59,21,-910,-2297,136
-53,123,-33,4105,-3342,-180
8,-22,32,-819,-1967,2464
-104,-86,-103,1767,-3562,896
-36,38,-105,-152,-2702,1796
-12,18,63,339,-907,782
59,-52,75,1782,-1213,102
-116,98,12,-881,-1136,1753
2,-87,-44,428,-457,-473
-36,-24,-111,3255,-824,-445
-20,-46,-102,-842,-196,654
62,83,-119,-781,-954,-192
75,59,-68,-1100,-449,217
87,67,-86,-1258,479,38
87,19,127,326,840,-693
87,52,87,186,1070,-906
83,100,56,-770,1217,-674
74,74,48,-457,857,-765
125,53,31,-55,901,-967
-100,45,5,349,1013,-1230
-113,7,-30,1243,508,-1622
-100,82,3,-996,370,-1130
-97,66,8,-1467,257,-570
-119,68,19,-1412,27,-291
122,82,47,-1283,-290,-59
-117,-118,79,-1937,-241,185
-77,-120,101,-1229,-348,292
-43,-92,115,-892,-180,218
-45,-79,126,-538,49,-80
-75,-50,115,-678,604,-536
-71,-45,121,-853,712,-473
-50,-83,101,-113,761,-631
-26,-66,89,-175,804,-603
-48,-61,74,-194,807,-732
-65,-43,64,-685,731,-633
-103,-23,90,-1295,385,-440
-98,-68,114,-701,372,-661
-38,-97,-119,-216,650,-569
6,86,126,-2019,3873,-3979
-26,86,-89,-3269,3811,-2778
111,-15,42,-3223,2255,-1417
78,108,-79,-3813,1417,301
-112,-91,44,-1701,1669,873
116,37,49,-244,3177,2129
127,43,48,-1673,3009,1103
79,-50,61,1693,-12036,3790
-123,106,-63,-3420,4986,-2672
-113,-53,-96,1971,9930,-7647
-9,-77,55,-1839,-1477,164
-3,72,-49,1730,-2321,-1913
-89,-22,-89,-1515,-2529,538
13,112,12,4035,-3577,-605
90,-24,50,559,-2603,2756
-115,92,31,-2060,-3644,2829
50,59,-17,608,-5251,1371
65,89,-124,141,-855,406
-39,85,-45,-628,-1423,527
20,20,-127,3640,-2345,233
37,105,38,-956,147,725
127,-98,-36,909,-231,-851
99,-65,-4,-893,54,-79
61,-74,-21,-1693,366,-315
46,93,-51,-330,604,-837
71,109,-74,-232,1024,-895
63,107,127,29,1299,-1104
72,120,74,-464,1301,-1279
91,119,81,-849,891,-1123
102,115,91,-958,709,-881
93,107,91,-894,595,-958
101,108,95,-882,608,-814
106,114,95,-818,681,-915
106,-115,113,-695,229,-471
112,-83,-118,-970,-200,-31
125,-89,-119,-636,-215,-66
-120,-74,-113,-687,-73,-96
-115,-54,-104,-882,-75,-158
-113,-37,-100,-1061,182,-172
-120,-62,-97,-471,168,-445
-111,-25,-89,-900,286,-447
-111,-46,-100,-559,483,-615
-119,-40,-106,-618,565,-669
-110,-35,-101,-858,569,-511
-116,-67,-107,-196,483,-702
-114,-46,-109,-541,547,-626
-120,-54,-118,-494,523,-562
-126,-61,-124,-394,342,-484
-120,-46,-119,-634,235,-290
-112,-65,-123,-220,150,-343
95,-16,-128,-2485,2834,-2835
-98,121,-97,-1893,4339,-3870
-106,-65,-40,-3510,4587,-3424
14,-83,-93,-4693,3031,-191
104,-88,117,-1674,576,1265
-55,-70,-15,-65,1919,3496
-75,82,-76,-580,-2048,1592
-92,96,-117,-5317,-6057,2372
110,61,-46,3575,15659,-10133
42,2,102,-1462,-2486,212
37,-61,-25,551,-2552,-1083
74,-65,56,1272,-4072,653
125,-87,-93,2422,-1663,-270
98,12,-26,1997,-3179,2212
-70,119,53,-2079,-894,2267
4,-37,-38,505,-3565,916
-55,-121,122,-1468,-699,1270
-106,95,-35,-274,-516,-327
63,-77,-48,96,-1296,1008
-77,-3,8,819,-1642,1351
71,81,-74,2932,536,-926
126,-12,-49,-1203,-390,141
123,75,-63,172,-428,211
-109,127,-84,-1396,-34,-201
-94,93,-73,-1049,287,-36
-116,116,-118,-1067,833,-549
-108,109,121,-863,1083,-700
-74,-116,101,-1279,1063,-538
-76,108,109,-266,544,-542
-52,-114,110,-514,790,-666
-70,-114,117,-669,672,-858
-78,-100,-125,-1105,864,-802
-63,118,127,-508,728,-821
-82,127,-113,-296,380,-632
-86,119,-101,-229,544,-606
-63,121,-101,-463,271,-544
-28,76,-59,51,-48,-185
-39,121,-55,-658,94,-214
-23,98,-45,-390,117,-148
-30,82,-28,-15,24,-8
-52,120,-34,-504,321,17
-62,110,-50,-303,271,-82
-32,-116,-46,-919,40,238
-50,-123,-20,-636,-266,330
-52,-117,-45,-287,286,-149
12,-110,-65,-146,735,-314
-56,-107,-102,154,493,-779
-33,-103,-75,-691,422,-501
-5,120,-63,-328,471,-490
7,94,-82,117,725,-1036
-80,-75,-57,-3708,5168,-3365
-81,114,127,-2969,7064,-3694
-30,-28,-123,-4601,2834,546
-105,-107,-47,-813,-21,2088
-117,108,91,-20,415,2891
111,35,124,-458,240,413
32,33,59,-3645,-9370,4402
34,-72,34,1228,11857,-7118
-10,-57,-45,1565,3995,-4123
36,-32,-71,-242,-2862,-103
30,39,5,1157,-2032,-1182
-13,-83,53,1507,-4155,10
-96,84,123,3646,-5234,2300
-2,107,101,-3448,-2306,4181
75,-92,65,-475,-2586,70
46,-40,-62,57,-3106,1867
61,-49,31,-3042,-1065,351
-89,-123,122,2151,-2120,386
-100,-63,-38,-2815,-1315,1084
123,82,-27,3057,-221,-1591
55,-42,-40,489,265,-1778
34,-54,-67,-1188,838,-804
8,117,-101,-179,473,-791
31,-113,-111,-813,709,-498
51,-107,124,-986,652,-431
66,-118,114,-641,623,-600
69,-92,107,-974,613,-674
78,-64,116,-1714,700,-396
91,-84,118,-973,574,-383
118,-61,117,-828,792,-442
-125,-44,113,-793,939,-539
-116,-64,89,-218,823,-841
-107,-30,92,-939,897,-688
-122,-52,95,-834,598,-814
-126,-60,127,-689,338,-796
-121,-106,127,107,565,-803
113,-46,-88,-1108,294,-441
117,-102,-93,-424,315,-327
-116,-103,-54,-356,59,-43
-102,-99,-63,-171,114,17
-78,-84,-61,-398,67,44
-58,-107,-52,-74,16,-74
-71,-119,-60,178,257,-178
-80,-85,-50,-519,299,132
-94,121,-74,350,155,-36
-70,-88,-72,-400,151,163
-70,-115,-73,-15,6,-43
-54,-98,-79,-400,438,-244
-30,-117,-93,-124,781,-551
-22,115,120,247,934,-1026
95,-70,112,-4735,4690,-2891
82,109,-23,-3142,8845,-4623
-127,-119,125,-5717,3044,1883
-74,69,25,168,-578,3301
38,102,0,864,3032,1509
-72,-23,-120,-1283,-4143,1513
99,11,-75,-4011,-10304,3210
-22,-114,87,695,17960,-9963
50,-112,17,807,-1717,-1620
52,32,125,-1961,-2428,274
125,52,-31,1726,-2978,-1700
80,-97,-44,2178,-2894,255
-82,63,119,2186,-3361,1173
-86,45,123,-1239,-1965,2838
119,-17,75,-1039,-468,1844
89,93,-125,895,-1088,-40
-30,-67,33,-1964,-2810,2007
52,-126,102,1798,-516,-891
69,-71,65,-2333,-2088,2085
95,30,-5,4154,-1262,-736
-53,31,-90,-1012,347,-285
117,-101,-110,-1617,757,-1047
88,75,-110,-1019,943,-1172
36,41,117,133,464,-1230
61,85,96,-133,542,-729
58,35,71,1239,-202,-615
95,41,49,1378,221,-233
-91,-33,61,-3304,1338,445
109,62,37,-304,89,-404
113,54,60,283,-8,-883
-106,-112,92,-1339,957,-576
-120,51,63,-180,921,-949
-93,70,88,-267,624,-457
-88,73,86,-372,433,-374
-75,73,80,-164,426,-446
-67,75,105,-361,292,-268
-78,79,108,-453,90,-84
-62,95,-124,-675,-150,114
-34,101,-114,-588,-42,92
-37,104,-122,-334,-126,-251
-23,119,-111,-376,433,-181
-50,115,-126,-349,361,-613
-35,121,-107,-543,287,-425
-30,113,-96,-588,497,-494
-46,97,-107,-118,510,-674
-55,103,-112,-213,358,-631
-35,-125,-125,-702,649,-323
-51,120,-128,-501,186,-412
-39,-104,-106,-999,329,-289
-34,122,-110,-358,600,-628
-103,-39,51,-4012,4992,-2722
-103,50,56,-2694,6421,-2642
36,-31,-117,-4355,2361,1584
-72,-117,27,-1084,459,1182
-63,-21,-39,-899,914,2748
123,-52,-44,2281,1699,-520
9,-9,106,828,-8742,5170
76,-126,-18,-3606,3033,-3925
-123,-114,-125,2123,8661,-5721
-94,-122,-34,-358,-1842,-665
-109,-55,35,606,-730,-1539
-69,118,-127,-164,-1963,-89
-44,-7,106,3285,-3423,261
7,96,-30,1582,-2518,1927
55,-119,-88,1628,-2777,3057
-112,85,-116,-1933,-917,2744
64,23,-15,906,-2721,793
47,-59,50,565,-321,753
-128,30,67,-1749,-234,716
-62,124,108,210,-2438,1555
-116,-95,-46,360,199,-105
-55,101,-105,339,253,-1172
-69,88,-66,-1018,319,-50
100,55,-119,-1294,444,-426
97,38,-120,-633,189,-202
124,91,-106,-1178,-77,152
-102,86,-112,-479,-192,-85
-99,85,-126,173,159,-752
-110,31,78,1410,483,-1324
-113,52,78,194,340,-982
-98,112,86,-2170,760,-534
-122,17,76,-201,210,-640
-119,42,82,-297,219,-615
-105,83,87,-1030,387,-204
-125,75,93,-578,-168,-69
-84,125,113,-1157,133,105
-77,116,113,-622,127,-141
-63,121,109,-254,275,-365
-44,-74,109,-1279,553,-410
-58,-117,99,-251,401,-693
-73,-96,95,-444,443,-806
-72,-83,100,-986,599,-704
-85,-115,95,-283,265,-724
-76,-82,112,-768,184,-510
-57,-67,-128,-1235,565,-439
-74,-113,118,-5,416,-777
-65,-74,127,-572,340,-571
-70,-66,-119,-950,403,-451
-89,-99,-128,114,254,-624
-64,-36,-113,-1062,420,-162
