AccX,AccY,AccZ,GyroX,GyroY,GyroZ
-6,110,105,-2831,-2333,-5543
-2,-14,-125,-1229,-3939,-6264
-99,64,26,-5509,-4404,-5873
-83,-35,-125,-5172,-4885,-6617
-64,2,-116,-5868,-3946,-6116
-17,-122,-83,-4092,-3723,-5581
-20,-109,88,-2660,-2498,-4041
-27,45,-112,-2539,-1494,-4009
51,-72,106,-1219,1088,-1458
-69,-38,3,617,1180,2865
116,-74,-76,327,1781,4694
-42,106,42,3895,3496,5287
111,-35,-5,4808,4225,5715
64,-10,-28,7704,3591,4199
115,-123,-17,2105,1876,4914
-128,-48,55,73,2689,4072
123,-90,111,-1193,496,5970
73,-69,105,1141,1530,4642
117,-51,43,-622,510,5232
47,-29,117,1696,66,2642
-11,-18,57,190,787,1131
-46,60,-4,-128,-440,-69
-22,-83,82,-74,879,-284
-6,127,89,-448,681,-264
29,33,46,-183,558,-1041
49,-31,16,-516,500,-1240
60,-105,-21,-433,564,-1115
37,117,-26,-595,241,-943
47,104,-38,-543,172,-739
70,-112,-18,-1091,235,-397
96,-98,-33,-1027,308,-338
105,-33,-14,-1417,32,-234
-127,-35,-47,-558,546,-522
-125,18,-52,-1290,653,-487
-128,43,-30,-1531,170,-225
-112,76,-34,-1450,502,-174
-84,100,-46,-1153,643,-167
-79,102,-52,-550,502,-436
-80,-113,-39,-714,454,-558
-74,-122,-36,-472,446,-649
-66,-119,-39,-431,532,-592
-63,-104,-34,-675,381,-461
-57,-106,-36,-583,366,-442
-47,-76,-21,-1004,313,-385
-43,-52,-8,-1563,403,-307
-38,-33,5,-1750,411,-257
-37,-21,35,-1341,246,-241
-31,-31,37,-373,381,-379
-29,-5,45,-452,388,-391
-28,19,46,-771,402,-329
-107,-127,98,5996,-883,-2143
-1,-77,-8,-2656,2395,-2251
-82,-71,62,-2870,2676,-3048
61,89,-26,-1957,1509,-5394
-68,2,107,-2195,698,-6800
66,61,-49,-2515,-929,-7033
-39,49,8,-5244,-916,-6585
-59,-102,98,-5856,-1346,-7281
15,6,-66,-5216,-1737,-6929
41,22,112,-4226,-2581,-6721
29,-56,66,-3348,-2270,-5422
92,67,18,-1704,-922,-4987
-29,-64,26,-1777,1368,-2122
105,-5,-93,174,2767,1444
-122,-95,-3,382,800,3584
69,-39,114,143,26,4782
1,8,-81,5154,2027,4373
9,40,-27,3895,4470,4050
99,-33,122,10068,4053,4951
-101,-105,49,3284,1860,4870
-22,-110,33,-333,-776,4562
72,26,8,-1737,229,5439
-77,39,20,2232,-389,3775
116,-59,-40,2806,1985,4272
-41,-19,40,-432,263,2610
-41,-89,-60,3478,44,465
115,-117,51,758,747,-441
39,-124,116,-682,748,-546
90,48,123,-2144,1271,-306
-70,14,88,-1585,1175,-183
-55,-70,66,470,466,-765
-28,-37,89,-1021,-165,-759
11,-108,56,-1636,-42,-724
-28,67,21,-424,82,-727
-42,105,44,-571,33,-342
1,-95,23,-1386,525,-7
21,-85,-5,-1086,537,-78
40,-54,-8,-749,315,-60
58,-20,-14,-917,425,-180
75,-19,-24,-597,468,-442
82,-20,-34,-296,475,-592
92,-2,-34,-634,460,-410
104,10,-33,-650,306,-297
121,16,-34,-506,516,-479
-122,34,-37,-711,479,-489
-114,29,-42,-510,426,-467
-105,37,-48,-564,553,-502
-94,48,-50,-646,449,-393
-86,62,-48,-681,411,-373
-76,64,-49,-436,419,-476
-36,117,117,-1102,2395,-5680
-44,58,2,-2258,849,-6415
106,-107,-19,-3289,-724,-7077
-16,-111,59,-6715,-1244,-7102
-15,-43,-86,-6207,-1503,-6723
21,12,39,-4803,-2032,-6269
-116,-60,49,-4111,-1867,-5587
-48,121,-62,-2156,-1407,-5318
121,-6,115,-2008,1388,-4202
-80,84,-28,857,2413,-1067
13,4,-48,-531,1102,2623
-87,32,-39,253,1354,4346
-35,22,56,2795,2333,5304
110,-12,96,5794,4280,5132
20,-55,98,7088,3983,4707
91,0,62,4135,3402,4864
-112,30,117,3479,1533,3903
127,-52,-117,-5443,1774,5475
-109,111,45,5400,-179,4524
75,24,-101,738,2327,4174
-32,-124,-97,-915,705,3980
-79,76,100,1899,856,2448
60,-57,-20,649,638,463
-79,23,35,-1533,262,-520
-122,49,70,-496,205,-416
-88,29,53,-1039,427,-530
-80,-59,45,-677,405,-985
-42,-123,14,-391,454,-826
-6,-121,0,-1036,535,-713
17,117,-15,-1054,204,-638
28,-126,-7,-1062,-62,-551
30,124,-7,-777,-26,-467
57,-97,-10,-1146,631,-264
52,-83,-13,-1070,297,-294
79,-72,-39,-497,445,-377
85,-37,-56,-441,468,-346
98,-5,-66,-812,498,-161
116,6,-69,-704,455,-243
-123,18,-72,-640,464,-331
-120,32,-65,-652,383,-388
-105,43,-56,-639,458,-434
-98,49,-63,-637,507,-543
-94,47,-69,-575,540,-553
-86,50,-70,-605,507,-437
-64,73,-74,-719,459,-274
-57,93,-64,-697,367,-327
-49,112,-57,-628,460,-444
-40,127,-49,-688,428,-552
-30,-128,-52,-782,467,-532
-29,-128,-51,-679,391,-542
69,12,-108,-3778,1406,-5067
-74,-20,29,-154,669,-7257
11,13,81,-3195,-731,-7084
47,125,-89,-4897,-1111,-7014
118,-18,-56,-5275,-1142,-7113
-99,85,75,-5400,-1687,-6440
1,-2,-97,-3892,-1836,-6516
40,40,59,-3640,-1266,-5772
-122,-54,-100,-2243,-947,-5703
90,-57,10,-1037,1924,-4399
67,78,-127,-72,1776,-759
-108,-40,84,-411,590,2030
-28,-85,-120,-704,283,4416
45,-30,-84,4140,1598,4620
-65,30,57,6234,3620,5507
16,122,-118,6952,3874,5220
118,-100,24,11344,2811,3910
111,-66,82,-4906,3549,5182
92,23,97,-399,-1355,4019
-119,-126,33,3933,1631,4455
-112,92,89,-1246,763,4355
-49,-110,-24,120,296,4527
-66,-44,30,1682,905,2174
29,81,102,-567,62,1454
-45,79,88,2023,135,116
108,-5,121,520,483,-418
85,-109,116,-111,385,-503
101,77,85,-569,559,-493
104,31,76,-1204,384,-776
126,-86,67,-12,283,-1327
-98,-79,78,-960,367,-738
-105,109,62,-522,263,-784
-93,-112,69,-940,94,-668
-63,-97,50,-979,404,-518
-45,-80,38,-855,314,-561
-38,-78,27,-534,452,-698
-31,-58,17,-703,449,-570
-3,-33,0,-882,441,-400
3,-26,-2,-617,338,-376
45,-1,-30,-679,670,-451
32,14,-33,-813,331,-460
43,22,-32,-916,339,-445
65,25,-38,-682,501,-520
57,20,-42,-457,404,-549
68,39,-42,-880,418,-383
99,56,-47,-960,345,-165
87,67,-45,-815,303,-366
96,86,-39,-817,397,-507
114,71,-51,-371,499,-688
122,74,-58,-324,399,-590
-58,64,20,-1287,-2502,-4892
81,-104,122,-4376,-4377,-5762
-8,123,-51,-4927,-4162,-6748
-12,-24,-85,-5082,-4243,-6597
124,66,44,-5791,-3150,-6580
31,59,-18,-5418,-2487,-5725
48,-126,41,-3174,-359,-5305
58,109,113,-1470,465,-4374
59,66,-53,-582,757,-3110
55,-93,20,16,1458,-344
-62,54,39,-770,84,3217
118,-15,106,497,-110,4059
-21,8,2,2311,1195,4849
125,-86,-114,5514,2331,5836
83,-71,-62,5988,3694,5353
-110,-118,-47,5581,2735,4192
120,29,-13,472,2352,4090
64,92,-18,964,1018,3940
68,-112,-10,-2670,691,5088
-36,55,-60,3226,-525,4976
22,-74,-24,-1734,1106,4356
-81,-59,-34,85,-200,2552
101,-16,-84,683,-899,1694
60,92,98,369,943,-294
-51,-37,83,-146,741,-306
110,96,95,-984,144,-415
-110,48,61,-1267,570,-243
-86,-17,56,-1048,408,-500
-53,-77,21,234,472,-880
-31,-54,26,-518,202,-757
-3,-97,9,-445,191,-699
17,-109,-6,-373,475,-608
38,-101,-13,-561,357,-351
38,-82,-8,-583,334,-205
18,-38,18,-655,216,-344
20,-72,-2,374,481,-695
58,-29,-23,-391,461,-389
89,-25,-81,-1108,406,-273
67,-27,-65,-928,57,-338
77,-14,-57,-864,228,-383
83,-10,-70,-528,430,-590
85,-16,-71,-304,215,-702
118,43,-40,-1386,264,-370
103,-4,-75,-576,739,-922
105,-27,-87,-404,407,-836
-124,36,-68,-1267,213,72
-78,69,-83,-1231,633,-37
-114,85,-70,-324,355,-395
-90,111,-69,-482,422,-496
-33,-109,-59,-959,459,-225
57,-123,98,-2144,-1364,-4517
80,86,20,-2093,-1841,-5806
-23,-18,-87,-4553,-4080,-6423
-75,75,-1,-5185,-4472,-6300
0,114,93,-4104,-4663,-6511
-122,21,-9,-4448,-3497,-5451
66,58,8,-3799,-3631,-4235
69,-107,52,-4512,-2936,-3460
-104,36,-110,-2227,1009,-3091
119,77,-58,2362,972,-711
-2,-107,-92,-2503,328,3315
-24,-73,32,596,1512,3869
73,-40,121,2411,2114,4719
-25,56,-94,3815,3103,4937
61,109,-10,4889,4314,4082
45,-69,97,4247,2797,4889
57,-45,-116,713,700,5015
74,-73,56,2132,-280,5527
18,-39,-75,-431,809,5512
-80,80,-84,-313,-365,4639
-9,55,-93,3335,-453,3420
-101,122,81,-1744,93,2953
-11,-110,-117,738,-971,830
-54,74,-71,556,390,5
105,-71,-87,-77,839,-548
93,116,-110,-660,585,-344
-121,123,112,-2712,950,199
-61,116,90,-3320,926,122
-76,-41,72,-228,680,-1176
-62,-76,89,569,572,-1608
-58,-62,92,-26,-63,-1377
-31,-45,63,-803,209,-906
-26,-38,22,-1443,749,-644
-28,-36,-9,-1270,643,-412
-26,-8,-14,-1124,116,-122
6,48,3,-1709,179,185
27,76,-5,-1506,478,-23
27,91,-2,-971,371,-375
42,98,-5,-730,399,-568
56,114,1,-875,422,-590
57,112,3,-707,328,-558
74,113,7,-509,378,-666
86,124,11,-625,513,-658
98,126,7,-586,491,-644
98,121,6,-384,446,-572
101,-122,5,-627,500,-446
112,-114,-2,-670,483,-335
113,-110,-2,-492,421,-304
123,-97,-1,-442,388,-306
-123,-83,2,-476,367,-277
-126,-78,127,-3156,129,-5161
-60,-36,111,-2048,-196,-6029
-109,-114,-119,-3307,-765,-6432
12,-56,-20,-4209,-1634,-6709
-91,102,41,-6501,-1756,-6487
-38,71,-118,-4712,-2290,-6487
-126,-82,62,-4482,-2855,-6291
116,-10,-17,-4797,-2033,-5702
-112,50,-59,-2105,-1657,-4905
-1,9,86,-2041,1489,-3239
-48,111,100,1862,1838,541
54,50,121,-1336,176,5383
11,-29,101,1912,1691,5344
-96,65,77,6594,3306,5441
69,-60,-27,3418,4368,4699
-102,103,-5,7933,1756,4557
120,-107,-118,5312,2160,3949
-83,120,48,-750,519,3478
34,61,-27,2383,1785,4351
96,26,-34,41,2211,4182
-10,-27,87,1651,1522,4570
-34,-23,-54,342,1187,1916
-121,106,-76,-402,1291,1284
-61,25,39,-549,102,825
-118,96,55,1817,373,-366
118,114,103,-784,1049,-246
104,42,83,-1228,755,-318
-115,14,59,-1590,232,-277
-88,-102,18,328,559,-1329
-68,-102,36,-348,295,-1331
-32,92,29,-81,304,-1232
-13,83,35,-338,251,-969
18,92,32,-779,125,-657
9,-123,45,-1257,43,-134
13,-96,40,-1530,231,-154
35,-73,7,-1141,405,-334
63,-40,-8,-934,186,-217
69,0,-34,-1062,339,-338
48,10,-47,-1177,339,-575
54,17,-50,-1308,353,-361
55,39,-58,-1167,412,-120
64,60,-73,-901,423,-379
107,97,-76,-1144,353,-422
122,96,-76,-702,257,-741
98,86,-63,-164,87,-906
95,81,-55,-153,128,-902
93,99,-49,-657,318,-657
108,97,-56,-635,441,-532
118,103,-55,-469,470,-453
-125,119,-53,-563,472,-363
24,80,78,-2813,-369,-4879
61,-47,-110,-3496,-1061,-5376
-54,-93,-40,-5505,-1742,-5800
118,-64,58,-4217,-2000,-6412
108,58,-25,-4692,-2974,-6189
107,66,127,-5521,-2120,-5469
-126,83,-16,-3218,-667,-4899
-91,100,116,-1803,201,-3577
-123,52,-104,725,1895,-3396
108,-126,-94,-1073,1158,1574
-9,-15,73,-1499,-419,4835
-9,11,70,1569,545,4829
-124,-16,31,3576,1432,5475
15,71,3,3145,2084,6111
-113,8,116,8905,4767,2734
41,-30,-20,3775,1872,3203
-83,18,-19,3228,1597,2459
-105,-95,122,-2257,1264,3721
5,17,5,1694,1412,3952
-120,68,51,-30,1203,4819
-16,121,104,1039,1653,4568
-21,118,-93,1350,792,3464
-56,30,-91,-1216,602,2192
12,-62,17,-2097,-39,683
-99,-42,-87,514,-314,-501
-115,-97,-82,-107,833,-816
-118,119,-81,-1591,710,-621
-90,33,109,-1362,379,-527
-86,-54,54,194,428,-1132
-98,-52,43,-438,276,-1027
-83,-97,16,-707,289,-865
-42,112,3,-195,319,-1133
-23,73,0,114,180,-796
24,-121,11,-784,301,-72
-19,-75,17,-1305,-32,52
19,-47,-12,-1137,489,-63
11,-30,-3,-939,284,-111
29,0,-8,-867,398,-5
63,36,-14,-939,582,-261
82,58,-19,-1084,641,-65
83,54,-35,-1013,682,-421
77,26,-48,-610,463,-775
89,43,-45,-550,327,-549
96,38,-68,-326,512,-760
93,45,-68,-484,220,-760
114,51,-73,-495,187,-465
120,73,-47,-866,205,-120
-126,95,-44,-613,334,-280
-120,105,-41,-449,340,-517
-108,117,-30,-513,326,-465
109,-50,-22,-3819,-829,-5359
69,-121,42,-3872,-655,-5787
-66,104,-98,-5198,-1067,-6636
-53,-80,57,-5889,-975,-5626
35,0,-108,-5631,-972,-5911
-70,45,16,-4368,-765,-4756
70,-21,-111,-2706,-544,-4302
57,-35,-34,-732,221,-4043
45,-71,-85,188,-102,-2028
67,-86,-29,-477,56,883
90,-10,-82,-867,626,2186
-122,-18,27,1007,1118,3788
25,-97,49,4408,3023,4199
-108,-114,-43,6928,4591,4489
-13,23,-31,3855,2972,4795
-24,-126,-79,-3753,1359,6185
73,60,11,8398,-1170,4890
-57,116,121,8551,446,3076
-13,-58,-95,-6001,3785,3291
66,-82,23,-4635,1183,5194
85,-56,73,4176,-2513,2353
-73,-94,-9,3057,748,505
94,-47,96,-5144,1790,1180
-106,-25,-126,1603,-94,-937
-74,-63,-105,2689,299,-1007
-69,53,-104,-2331,686,-574
-46,-75,64,-1848,447,-432
-36,95,29,-205,166,-939
-7,80,6,-367,458,-1232
8,79,1,-918,404,-936
21,49,-17,-654,256,-716
53,66,-8,-747,177,-497
66,87,-20,-771,309,-243
57,125,-23,-957,273,-237
63,-96,-10,-840,301,-244
73,-105,-56,-164,566,-614
102,-112,-67,-212,453,-556
-128,-85,-63,-539,384,-7
122,-46,-66,-754,324,-193
-122,-57,-77,-296,516,-620
-103,-51,-79,-367,421,-529
-75,-52,-93,-134,502,-572
-76,-37,-91,-428,410,-472
-65,-6,-80,-788,335,-159
-56,4,-87,-648,528,-372
-36,3,-97,-276,548,-579
-26,16,-89,-425,201,-253
-67,65,-72,-1383,461,-344
-28,22,-92,-514,682,-763
4,-1,-123,324,587,-785
-106,102,-76,-1989,-796,-5625
113,28,-17,-2282,-1196,-6457
-13,-40,65,-2677,-1624,-6420
69,101,-65,-4527,-3091,-6423
-59,-60,26,-5719,-2763,-6369
55,61,-110,-5131,-2481,-5818
-29,86,-45,-3699,-2702,-5389
25,-32,-29,-1942,-2860,-5085
-34,-63,-59,-3014,852,-3460
-94,55,-8,2269,1476,-845
-64,39,-48,-2301,613,2841
117,-5,43,-409,1196,3374
-74,-119,95,2263,1852,4026
-65,72,55,6696,3591,4699
108,15,-100,8257,5379,4174
-98,94,55,6580,3948,3763
22,32,-113,-4079,2451,3841
80,124,43,7334,1239,5249
-10,-84,21,5431,4321,3363
78,-9,-12,-2624,4123,3550
-84,34,-60,-1758,2154,4734
-90,-116,-91,2186,2848,1907
-7,-81,97,-1332,863,441
99,-64,-34,-1378,-483,180
108,50,12,-99,-466,-163
-120,19,18,-1283,362,-523
-104,-99,7,-729,287,-956
-72,112,28,-450,340,-1029
-19,40,31,203,578,-833
-11,34,51,-351,156,-672
50,87,38,-1297,238,-401
29,56,9,-190,252,-804
4,84,2,-195,432,-842
57,-127,-46,-327,940,-784
37,125,-62,257,464,-937
9,-98,-37,-359,57,-656
42,-60,-23,-1501,313,-184
35,-102,-67,-790,522,-458
127,-42,-80,-1264,500,-174
65,-83,-113,-417,121,-692
-111,-16,-97,-874,167,-420
-79,19,-105,-1465,104,-108
-82,-9,-116,-631,188,-478
-49,69,-93,-1572,366,-325
-94,81,-89,-1487,281,-441
-75,60,-103,-398,499,-925
-94,78,-84,-414,158,-775
-105,102,-73,-936,312,-489
-93,103,-66,-700,471,-421
-71,119,-69,-619,527,-260
31,119,-6,-1804,1291,-5769
-91,67,37,-1009,-670,-6209
18,-82,79,-3346,-1218,-6039
105,1,-87,-4540,-1815,-5813
-72,55,35,-5904,-2054,-5959
105,120,-120,-5274,-2264,-5980
71,-76,2,-4859,-2095,-5567
108,-110,-109,-5223,-1283,-5325
-49,100,-54,-2538,-668,-4593
74,-7,32,-1397,1944,-3764
16,85,76,1580,2064,-2215
-41,-94,-124,-594,1652,1407
-128,44,-75,426,614,4641
-51,49,-17,3370,2018,5484
39,5,-103,4858,2930,5640
88,-48,40,5992,3745,4523
68,76,44,3831,2912,4045
-44,25,9,-261,1471,4993
-44,52,12,4296,-609,4613
-99,4,68,-2635,2507,5498
88,29,122,2325,1106,4025
-125,89,70,4223,-96,2111
89,89,19,-3228,1278,2794
127,38,-61,1269,-899,1114
-72,29,-76,2109,487,254
64,68,-53,-1152,544,9
56,-85,-46,-431,-91,-363
79,127,-46,-740,284,-752
94,19,-98,-578,602,-1414
122,-58,-121,-163,696,-1921
120,108,105,235,769,-2003
127,52,102,-23,435,-1434
-107,51,102,-338,228,-569
-72,65,94,-420,276,-256
-53,87,66,-255,311,-305
-42,123,69,-569,335,-245
-13,-128,41,-261,621,-264
22,-94,6,-281,724,-401
52,-93,-2,-130,603,-754
48,122,-30,522,789,-1179
20,-89,5,-782,11,-713
9,-124,-16,-437,427,-709
-11,-86,-24,-1349,399,-297
14,-76,-75,-1424,575,-86
15,-28,-103,-1271,306,-187
-112,-46,114,-330,627,-487
-29,-14,98,-735,19,204
-18,-117,-97,-2752,-398,742
-88,85,126,-1787,180,-778
-93,53,-103,-1035,197,-1586
89,-11,-31,-3834,-1046,-5424
29,8,32,-6336,-1886,-5260
-82,-106,126,-6144,-2361,-6312
96,9,21,-6114,-2603,-5829
9,-49,-94,-4920,-2338,-6072
25,-15,-126,-4007,-2547,-4941
106,-92,-46,-2486,-538,-4588
-49,-118,68,-41,2228,-3390
-89,122,-100,762,1396,815
43,122,87,-1400,521,4093
37,49,113,1541,1207,4838
-81,-9,-40,4846,3380,4669
32,80,27,6372,4320,5172
122,21,-3,9695,5104,4043
-66,-46,11,3680,2579,4022
32,-121,52,-3111,3861,2616
33,115,4,167,-1186,5712
9,-20,-101,3155,2062,3864
-79,-122,-2,-1167,2777,3655
-74,89,-44,2345,1563,3102
123,-113,-65,917,1657,1063
-71,68,6,-2877,299,565
82,78,107,255,-1168,-238
116,-12,75,865,504,-510
-115,5,77,-1464,1068,-444
-90,-55,47,-1181,426,-385
-66,-128,43,-340,-112,-875
-40,-110,61,-825,-26,-911
-26,95,44,-355,181,-1060
20,118,29,-897,419,-769
-1,113,24,-800,83,-896
10,97,15,-410,126,-928
75,126,5,-929,584,-550
63,-104,-1,-780,302,-10
51,-50,-8,-948,363,-5
76,-17,-25,-1074,482,-65
99,-27,-61,-508,759,-457
104,6,-58,-886,451,-219
113,33,-66,-1125,452,-237
-115,46,-70,-1054,671,-644
-106,31,-81,-485,564,-838
-109,52,-72,-768,149,-687
-98,65,-60,-1057,157,-453
-100,80,-45,-1055,238,-376
-92,107,-32,-1092,456,-737
-56,-116,-27,-1001,578,-659
-42,-88,-24,-743,182,-217
-55,-74,-24,-871,217,-361
-61,-88,-26,-712,370,-556
-57,-82,-28,-656,440,-430
-2,110,-36,-2826,-2422,-5159
0,-37,58,-4852,-2682,-5529
-84,-63,-36,-8021,-3183,-6250
115,-6,89,-8681,-2922,-7259
49,-27,-32,-7114,-2195,-7443
-9,-113,-95,-4380,-2516,-6730
79,-22,102,-2239,-1363,-6676
-50,108,55,-2919,-42,-3712
20,83,-77,1797,3326,-1877
85,-101,-110,-588,34,4496
20,-127,-113,1512,1434,6583
90,99,107,7294,3843,6622
68,-47,77,9281,5207,5005
34,-64,64,6510,2566,4268
-26,22,3,-1133,1900,5402
9,53,-4,3862,949,4781
58,63,14,-1215,2116,4568
112,75,60,2813,452,3259
-24,40,-45,663,2635,2471
30,-107,105,-3191,583,2446
-41,90,82,2172,794,139
-123,70,126,1279,723,-312
54,8,-101,-814,82,-246
90,-89,-121,-420,476,-217
120,109,114,-218,284,-411
117,41,92,28,205,-1238
-119,34,108,-532,204,-917
-105,-37,98,-248,234,-1029
-97,-38,94,-516,346,-975
-102,-64,85,-783,234,-924
-84,-64,81,-1286,317,-863
-52,-41,68,-941,247,-382
-56,-30,51,-530,282,-210
-32,12,51,-1187,309,-127
7,10,30,-977,501,-80
15,44,14,-938,582,-275
-2,32,-8,-568,669,-797
-11,23,-20,-514,434,-804
4,17,-36,-372,411,-630
49,26,-43,-642,322,-556
79,35,-45,-599,206,-369
75,63,-24,-675,259,-403
68,67,-29,-713,323,-489
74,81,-22,-811,213,-247
111,103,-23,-917,373,-75
127,120,-30,-600,540,-242
-117,123,-49,-500,553,-548
-111,100,-63,24,754,-819
-116,101,-68,-365,510,-638
-105,92,-60,-338,476,-444
-98,-81,59,-793,-1725,-5655
112,-119,96,-3005,-2642,-5420
32,17,-93,-5068,-2330,-5563
127,-104,40,-6449,-2582,-6057
9,-6,-66,-5825,-2801,-6494
-94,33,98,-6572,-1961,-6133
111,-30,2,-4715,-2247,-6272
-34,-19,103,-3623,-1410,-5506
122,-88,-10,-1459,1256,-4994
-121,34,107,1771,2237,-904
-40,-80,-90,-1056,33,4582
-123,89,125,2848,1139,6584
14,-49,-103,6120,3701,6188
86,92,90,7387,3803,5058
-57,-116,-105,6692,4267,3309
57,65,-128,574,1305,4826
-9,91,-68,2164,1076,3658
64,52,111,1048,2134,4882
-113,-126,-67,3129,1670,3653
32,-38,-45,-4361,2307,5323
-80,125,39,2817,1441,1837
70,70,19,265,-178,552
-74,99,17,279,72,-626
100,-45,74,-214,-45,-513
84,116,71,-1211,474,-352
109,46,61,-659,349,-587
-125,-18,50,-260,262,-893
-85,-74,60,-434,351,-904
-78,-88,52,-551,259,-649
-49,-74,57,-1167,188,-529
-39,-84,39,-866,239,-577
-25,-37,37,-1452,233,-328
-25,-13,22,-1304,317,-322
-26,-15,12,-687,496,-580
-23,5,-6,-633,496,-510
7,22,-18,-757,535,-461
12,17,-40,-447,459,-637
44,39,-48,-768,375,-576
52,48,-40,-877,281,-518
50,51,-33,-849,250,-574
67,55,-28,-671,261,-552
80,80,-38,-741,443,-417
78,92,-36,-783,452,-560
65,81,-42,-607,481,-555
83,98,-43,-851,439,-144
104,-117,-47,-1127,407,-26
123,-84,-46,-984,384,-341
124,-96,-46,-521,411,-747
-126,-95,-41,-683,389,-634
-121,-99,-41,-682,382,-502
-5,-48,106,-3230,-148,-5003
5,19,-119,-1918,-1640,-5991
-33,-53,-36,-3910,-1605,-6019
125,-33,106,-4974,-1950,-6455
-5,59,-19,-6130,-2232,-6471
-83,112,-12,-6978,-2089,-6261
-128,83,53,-5943,-2087,-6445
-86,88,-125,-3658,-1878,-5862
41,-51,58,-1200,-860,-5858
-63,-58,-61,-636,1074,-3664
-40,62,118,1171,868,760
80,-30,80,136,1337,4639
11,-120,94,3480,1782,6178
103,-3,51,7183,4723,6279
82,-104,107,8737,4374,4738
112,122,38,2917,3029,4919
22,-60,111,5906,1077,4885
56,89,-17,-2872,1765,5178
-2,23,-101,2675,509,4397
-111,95,18,2482,686,3853
-26,122,30,-1919,2516,2860
70,-105,-51,513,-162,1736
-34,-56,-74,1642,646,-880
49,22,-107,256,626,-892
25,-91,-126,-379,235,-599
35,63,105,-898,579,-399
45,32,101,-839,384,-420
56,-17,83,-190,266,-756
94,-5,93,-731,86,-785
100,-50,81,-334,103,-936
113,-34,100,-882,-36,-775
120,-63,83,-801,176,-775
122,-58,87,-890,197,-707
-121,-78,62,-642,414,-617
-100,-48,50,-1153,556,-415
-84,-76,4,-464,544,-544
-84,-45,2,-692,370,-251
-78,-15,-1,-849,412,-245
-44,-28,-43,-368,751,-600
-31,-11,-47,-642,387,-299
-11,7,-58,-730,387,-266
2,7,-63,-524,449,-543
11,7,-66,-492,380,-556
28,20,-61,-723,321,-433
40,15,-63,-470,414,-505
45,29,-63,-616,395,-441
62,36,-68,-542,447,-483
71,40,-73,-551,448,-458
86,51,-79,-631,469,-388
99,58,-88,-525,412,-434
82,1,10,-1544,-2449,-4654
64,-23,48,-2406,-3424,-5250
4,-25,-50,-3751,-4872,-5798
-29,70,91,-4646,-4805,-6796
-85,-17,90,-4741,-4440,-6654
-76,-95,-90,-3630,-3564,-6346
-3,-120,127,-4093,-2436,-5606
-94,118,-70,-1583,271,-4805
-37,37,-27,1735,3306,-2529
101,117,-106,-592,1296,3498
-98,121,-87,-338,521,6445
-57,73,-110,4034,3095,5428
45,-92,120,4699,4516,6147
-101,-28,-31,5673,4755,5067
105,5,32,-693,2888,6364
-62,-122,97,5264,2715,5283
-99,-34,9,-5957,1644,6244
93,-23,-110,2558,-822,3683
-49,55,-99,-2109,2123,3128
-13,-112,81,-1920,-513,2555
89,-88,29,3606,1271,484
-61,-105,86,-56,857,-474
-124,-101,91,-169,609,-328
-113,89,92,-544,76,-259
-80,21,57,-206,-150,-578
-34,12,17,-321,241,-243
-41,-31,10,-246,375,-552
-25,-71,45,-204,31,-702
18,-61,56,-693,16,-177
27,-47,41,-768,216,34
34,6,28,-1419,281,105
76,18,9,-1406,361,-48
55,56,-6,-1384,203,-299
18,57,-10,-1377,236,-629
43,57,-29,-1393,570,-623
64,62,-51,-1160,448,-413
60,91,-59,-1031,230,-526
75,83,-83,-526,355,-1020
64,96,-100,-708,284,-981
84,110,-90,-930,275,-502
101,126,-88,-1033,367,-434
82,-115,-74,-781,72,-403
92,-65,-48,-1203,39,-360
108,-42,-28,-1381,126,-473
-126,-38,-27,-1195,411,-636
120,-44,-23,-600,377,-764
115,-45,-18,-158,418,-729
94,-21,-33,-452,468,-587
76,2,-13,-968,385,-503
87,-9,-15,-803,567,-577
63,28,48,-2316,-2952,-3998
-15,-44,-113,-3057,-4137,-4767
-107,-58,-36,-5296,-4414,-4994
-27,-127,54,-6806,-4904,-5580
-120,-39,-102,-6007,-4318,-5571
50,21,-88,-5674,-3879,-5230
38,-120,-97,-4666,-2323,-4941
-119,31,57,-2078,-151,-4382
-58,-87,-37,277,1998,-3677
-88,61,-6,-1887,1602,2368
-32,-4,119,-10,1133,4766
-128,39,-30,-64,764,5398
23,-4,-112,5545,3019,4387
-71,57,48,5973,4088,4907
69,-115,126,5383,3975,5243
-3,-33,-37,8391,2917,3964
-119,-37,-34,-5755,918,5680
-31,8,28,-781,128,4495
35,8,-92,3000,-29,2327
-88,-58,-117,-4098,71,4498
-21,-60,-107,4216,1887,2082
-128,-40,24,790,552,1307
57,43,-100,2529,506,205
-123,-66,11,59,299,-234
118,116,-2,-684,612,158
106,57,56,-1732,184,-271
-89,-23,15,-928,779,-651
-67,-51,28,-868,432,-930
-19,-57,17,-1009,601,-701
-19,-101,17,-399,349,-1037
-5,115,31,14,383,-898
8,-110,22,-946,535,-637
21,119,-1,-277,298,-681
37,-114,-13,-494,412,-506
58,-81,-30,-858,509,-281
70,-59,-44,-841,378,-101
85,-4,-47,-1125,497,-238
77,-8,-47,-413,412,-558
83,-4,-52,-398,466,-597
120,20,-60,-827,484,-403
127,13,-73,-552,444,-503
-120,24,-74,-562,407,-624
-104,32,-73,-740,385,-467
-105,38,-73,-504,351,-483
-98,59,-77,-754,314,-434
-76,89,-77,-1059,160,-235
-79,125,-58,-1226,55,-258
-92,-118,-40,-1209,185,-294
-82,-75,-21,-1654,344,-238
-77,-101,-43,-826,583,-634
86,84,54,-1671,-2003,-5025
10,107,-59,-2015,-3101,-5299
-93,12,78,-4402,-3287,-5253
-4,-90,-44,-6704,-3321,-5932
-69,85,-4,-6624,-3184,-5993
115,-81,59,-5204,-3222,-5467
55,-14,-39,-5191,-2357,-5127
83,-65,89,-2234,-2041,-4536
-82,28,56,-1122,480,-4194
-34,95,-94,1678,2378,-2854
-79,-61,121,-1525,885,3079
62,86,-39,432,727,5542
-57,26,0,4921,3009,5154
54,-111,121,4922,4118,5139
-75,42,-91,7389,4321,4589
-78,44,-26,4786,2979,3615
26,-20,-22,2431,2284,2593
43,-81,64,-2368,2276,3947
8,-115,-41,7,1885,4237
119,-85,2,-673,1569,4828
-109,-19,83,747,2301,3018
107,-67,-7,-224,416,1965
31,-120,30,-544,91,1162
-86,22,-119,-497,-141,-88
-108,-121,-120,657,453,-492
-122,97,122,-669,707,-381
-103,35,76,-1309,567,-174
-82,11,65,-1329,136,-367
-77,-67,44,-398,150,-930
-78,-105,43,-136,246,-1116
-78,123,55,166,-25,-919
-33,-118,38,-552,550,-565
-21,-95,38,-1184,316,-261
-3,-87,23,-855,321,-227
14,-58,6,-700,519,-636
28,-70,-13,-368,526,-815
56,-55,-26,-577,467,-604
73,-38,-38,-720,290,-479
80,-33,-43,-709,392,-518
95,-15,-41,-724,343,-446
109,9,-41,-756,388,-425
115,14,-46,-454,497,-666
121,8,-58,-428,442,-660
-112,38,-47,-1009,483,-298
-108,55,-58,-892,473,-355
-99,65,-53,-403,466,-575
-87,77,-60,-338,510,-756
-81,96,-45,-453,307,-672
-93,113,-46,-814,337,-722
-105,88,-45,-368,277,-977
4,95,-40,-2710,-2932,-4470
-102,120,39,-6612,-4070,-5232
46,108,56,-6914,-3928,-6953
89,-78,28,-4296,-4961,-5716
-58,20,-57,-5090,-4706,-5085
-60,-66,-7,-4988,-3200,-4399
67,10,113,-1669,-310,-3900
106,-50,71,262,1287,-3967
97,73,54,-593,2366,1047
-62,-29,-53,-169,720,4873
-100,-35,-62,3131,2146,4748
48,49,-32,5550,4060,4264
-103,107,15,5015,4788,4300
77,60,-76,8392,4379,3753
43,-120,-18,-1070,2491,4006
30,27,81,1437,2152,2015
17,81,-68,-2864,827,4587
-109,-52,127,1436,1154,3911
41,86,31,-134,338,5178
66,-63,125,405,1793,3126
-44,7,4,1721,969,987
42,62,-124,1828,1316,179
-75,30,-2,-1783,-182,106
-102,-15,-9,994,113,-899
-39,-27,-7,231,751,-777
4,-50,-2,-888,731,-633
28,-111,15,-901,-218,-538
39,119,16,-340,-260,-778
43,93,27,-187,-209,-888
50,117,16,-975,229,-566
52,127,-1,-1092,278,-362
39,-121,-20,-948,163,-486
62,-116,-32,-624,353,-606
81,-92,-41,-828,401,-413
92,-63,-55,-850,300,-265
105,-48,-57,-618,368,-322
-124,-5,-62,-927,432,-342
-98,9,-78,-797,328,-571
-77,13,-81,-598,243,-724
-70,28,-81,-976,332,-623
-72,27,-93,-808,327,-529
-91,44,-85,-419,419,-794
127,36,-88,214,333,-1148
-118,55,-74,-269,172,-703
-100,77,-69,-939,440,-259
-108,89,-80,-929,312,-140
-106,111,-60,-587,259,-217
-77,76,-113,454,1210,-636
-1,-97,122,-1259,651,-49
32,-117,81,-1127,-170,149
-103,-54,-59,-2279,-2103,-4599
100,76,46,-2946,-2287,-4727
-2,-48,-61,-5078,-3004,-5245
-40,48,35,-6548,-2818,-5355
-96,17,109,-6737,-2586,-5901
-115,121,-98,-7227,-1672,-5049
112,31,112,-3863,-1415,-5530
-84,-102,-28,-2520,-1318,-4633
-1,9,-98,-2858,-603,-4011
-115,-96,-9,339,1944,-2889
63,-26,93,-420,1539,930
13,58,39,361,765,4792
62,-74,41,3283,2141,5419
-83,117,112,6909,3783,5300
-45,119,29,6567,4706,4452
-41,-20,30,5379,4018,3237
-112,-5,58,3365,3465,4261
10,71,-110,-5575,2255,4493
-67,86,47,2001,349,4205
113,-15,-91,1573,1670,3631
65,113,71,950,2140,2918
-16,-28,-94,-1239,498,2193
-70,-99,-93,-1119,940,1212
112,-30,82,2515,717,-130
26,-59,-116,-119,174,-926
21,64,-64,-1535,-105,-196
70,-46,-104,-120,334,-144
97,-40,-114,-355,545,-279
108,-86,110,-507,387,-688
-125,-108,-128,-297,-31,-511
-107,-89,125,-720,201,-320
-89,-107,87,-666,331,-624
-62,-117,76,-609,272,-590
-55,-103,60,-990,212,-341
-53,-94,46,-974,204,-404
-43,-83,29,-949,437,-504
-15,-78,-3,-873,388,-518
-4,-67,-21,-895,283,-580
8,-60,-26,-858,249,-627
26,-50,-41,-931,305,-617
36,-47,-45,-780,218,-566
62,-26,-56,-789,431,-539
81,-8,-62,-734,363,-557
81,-21,-77,-73,527,-914
85,0,-64,-324,392,-832
68,-18,-60,76,345,-728
62,17,-55,-679,420,-434
74,16,-73,-543,544,-402
91,20,-88,-265,482,-372
98,54,-91,-666,547,-360
-37,8,19,-2090,-1396,-5280
-36,101,95,-4272,-2562,-5627
-59,0,-24,-7286,-2222,-6254
77,32,107,-7751,-2622,-6749
-14,54,-97,-6118,-2395,-6792
-116,-113,53,-6684,-2416,-6088
-115,31,95,-4565,-1852,-5691
-27,30,-23,-1029,-1324,-5305
-121,87,-20,-2427,734,-4022
0,53,64,1382,2289,-973
90,-49,114,-419,883,4397
-28,101,-120,1981,1358,5409
98,31,32,8232,5187,5292
118,92,54,8021,5292,5545
-35,119,-107,8159,6270,3533
96,34,80,3115,3495,3591
10,-103,108,-3710,2012,4225
-48,-115,34,1147,1379,4645
101,-92,-112,-641,2942,3552
35,-6,36,-2747,1376,3139
-11,63,-9,-888,31,2487
9,-96,66,2015,2432,181
109,55,73,795,854,-486
39,-63,96,-1255,15,-41
57,98,91,-624,176,15
92,85,83,-121,-55,212
94,99,89,-716,-343,-330
116,92,109,-921,-360,-668
126,-13,89,63,244,-1423
-96,8,99,-916,559,-1082
-108,-48,91,-809,198,-1002
-75,-45,89,-1086,105,-491
-91,-48,73,-943,354,-506
-66,-36,41,-864,545,-390
-52,-15,18,-1045,484,-135
-31,12,-2,-982,401,-129
-20,27,-14,-905,435,-283
-9,42,-21,-735,349,-378
6,64,-29,-835,360,-469
22,70,-38,-750,304,-634
27,60,-41,-510,168,-759
38,68,-40,-778,257,-639
44,61,-40,-591,246,-638
58,67,-37,-482,285,-623
61,73,-40,-454,317,-604
69,81,-40,-590,385,-500
79,85,-45,-588,400,-344
90,93,-49,-521,460,-332
109,103,-56,-296,527,-401
114,113,-68,-416,536,-393
-17,72,-108,-1000,-2491,-4533
105,-69,48,-2449,-2879,-4363
2,99,-6,-3859,-4606,-4707
-58,40,-115,-7157,-4223,-5105
95,-44,46,-9977,-4281,-6343
62,9,-118,-8256,-4422,-7520
92,-43,1,-5599,-3731,-6618
-47,48,26,-3630,-2182,-6122
119,-18,29,-1969,527,-4454
-21,-79,-80,1395,3833,-1335
-104,112,-65,-729,51,6389
0,-5,-79,2870,1461,6828
115,85,104,8671,5372,5841
126,76,45,13299,6359,4631
126,82,-75,6746,4012,4472
10,-22,86,-6402,3152,4016
107,-11,98,-2814,1068,5862
112,-38,-56,5873,2093,3211
-21,74,89,-4955,1107,4952
-16,-97,119,775,-35,2831
-85,-72,-91,2875,1979,-25
-8,16,39,1088,1256,-324
106,73,56,1113,-254,-313
99,-56,36,-252,351,-264
84,-121,68,-714,-146,-102
124,55,54,215,-25,-429
-71,45,56,-141,193,-769
-73,57,78,-883,116,-321
-85,44,98,-937,14,-387
-65,16,78,-639,390,-651
-53,21,54,-910,472,-524
-36,36,42,-1014,259,-382
-47,34,32,-1014,233,-486
-6,45,17,-1006,458,-405
8,74,9,-1250,417,-463
-13,53,-4,-372,203,-773
-7,66,0,-737,307,-661
18,61,-8,-722,424,-562
16,60,-21,-579,247,-490
27,102,-24,-1142,276,-307
41,100,-32,-968,358,-367
58,120,-38,-881,289,-404
60,-113,-44,-1068,336,-483
82,-106,-46,-1307,384,-446
87,-124,-48,-503,238,-461
68,-81,-31,-1094,308,-328
66,-81,-26,-886,332,-399
94,-75,-32,-443,366,-546
89,-65,-43,-417,416,-728
82,-83,-40,-242,223,-700
-81,-27,-56,-3254,-1819,-3891
60,62,-95,-2575,-2062,-5100
7,-13,109,-4211,-3879,-5641
-4,67,81,-6319,-4022,-6071
-56,-12,-55,-10120,-3736,-6917
-85,42,-65,-9787,-3353,-6709
-35,-60,86,-5276,-440,-6410
113,77,-12,-455,-600,-5854
-95,59,46,-1085,200,-4766
-65,-119,45,154,995,-2109
-104,-85,-114,1024,1592,959
-23,-15,101,-1278,-303,6937
25,48,19,6274,2996,5638
-4,-63,-14,9115,5338,6011
57,49,-81,12749,5014,4568
-45,-84,61,5136,2353,2967
103,-6,-63,-10663,2720,5046
125,-122,117,4348,-1740,5390
-57,53,60,4574,2730,3533
-11,-5,91,-4606,2427,3544
-59,60,73,3042,-614,2941
72,9,39,2597,768,-776
123,-64,81,-1010,1048,-357
-59,-13,-68,-1146,185,246
-46,-67,-57,25,135,-194
25,-87,-69,-1258,1141,-506
55,44,-119,973,1041,-1019
50,6,125,666,394,-1503
76,-10,-127,-1324,-10,-1131
79,-73,-115,-767,-119,-895
73,-103,-116,-714,79,-846
90,-72,-128,-1210,560,-236
97,-58,112,-1342,377,-153
124,-37,82,-788,408,-234
-119,-13,66,-766,331,-449
121,-14,58,-401,-182,-758
118,-15,33,-735,-107,-905
-107,-3,9,-1280,414,-467
-92,-16,-15,-869,491,-431
-80,0,-22,-1049,305,-607
-90,-7,-23,-689,102,-579
-92,20,-6,-939,111,-490
-72,22,-9,-766,376,-486
-47,35,-20,-667,471,-387
-36,49,-36,-445,393,-486
-37,62,-40,-368,261,-611
-34,65,-49,-420,400,-698
-16,48,-58,-478,531,-638
3,32,-73,-157,537,-601
4,46,-82,-350,465,-502
-97,-107,20,-2290,-2379,-4974
-86,-90,97,-1919,-3195,-4993
117,54,35,-4546,-3658,-5205
78,86,-86,-7104,-3488,-5979
33,-32,-68,-7841,-3820,-6517
45,66,-65,-7048,-3487,-6329
61,-76,10,-5654,-2694,-5990
-121,-73,-117,-2983,-2022,-5865
86,34,-107,-1434,1334,-4207
37,-122,-41,2306,3574,-3139
64,17,108,-2922,-1054,5868
-65,127,113,547,115,5926
55,-53,-119,5677,3212,4908
6,57,104,10020,4799,5981
90,76,-10,11745,4086,5056
-13,102,-122,4918,2334,4016
-29,8,-58,-10015,1719,5244
-80,78,-35,6591,-232,3598
-90,10,-114,-463,1235,5185
-13,33,-123,2076,1199,3632
70,79,-13,2063,2403,1952
114,-44,28,-1024,1202,1075
-108,-120,96,1430,6,-60
38,31,-73,796,-217,-541
-12,112,-59,-75,563,-861
4,57,-61,-1094,482,-674
54,-53,-126,-381,855,-553
62,-54,-126,-775,480,-738
60,-89,123,-410,53,-767
92,-92,-126,-902,153,-798
98,-115,121,-694,171,-739
85,-111,124,-726,-18,-725
98,-98,101,-964,143,-588
105,-86,85,-1103,241,-443
124,-73,59,-1093,352,-444
-111,-76,27,-784,512,-617
-115,-69,21,-521,236,-535
-89,-31,18,-1118,384,-484
-82,-52,-12,-535,362,-605
-81,-45,-8,-585,267,-582
-60,-17,-17,-932,358,-328
-40,-15,-31,-687,392,-390
-8,7,-49,-950,497,-469
-33,5,-58,-710,159,-636
-32,7,-49,-605,276,-784
-9,6,-46,-580,425,-553
24,15,-67,-588,516,-303
43,56,-76,-828,403,-273
40,64,-76,-525,275,-546
51,68,-72,-579,362,-663
-99,-69,-65,-3424,-1831,-5473
-105,-32,-52,-1505,-3263,-5964
14,-107,124,-5858,-4046,-6103
-126,100,1,-9587,-3525,-6614
-39,-108,111,-9377,-3106,-7073
-117,-88,-51,-6658,-2228,-6591
127,73,124,-3195,-1478,-5923
-47,-104,-118,-627,-842,-6060
-70,-110,86,-1470,1792,-3600
-71,-7,-114,1913,2317,324
-68,-92,-103,-1606,81,4829
99,35,73,3770,1619,5265
-62,-124,107,7277,4453,5565
-71,71,-101,9168,4440,5914
51,108,51,8875,4349,4683
13,-31,-15,3419,728,5200
60,23,-46,-2292,2856,4230
-47,11,-104,1911,1949,3107
-128,-111,119,2365,2095,2718
-39,53,-120,-1388,1558,3331
-114,97,60,1911,917,1212
-52,22,-126,-1726,788,1337
-126,-121,15,-51,-153,113
116,72,59,-840,747,-475
104,-67,104,-322,526,-830
-122,-111,80,-434,814,-1160
-111,85,52,-246,574,-1288
-123,67,63,-850,269,-1093
-97,-3,46,-284,423,-1141
-74,-7,43,-1053,506,-793
-98,-33,28,-286,365,-760
-99,-22,21,-655,356,-623
-85,8,24,-1050,170,-224
-90,8,20,-670,-24,-497
-87,27,-20,-500,516,-429
-43,27,-26,-627,637,-344
16,69,-32,-1223,566,-254
19,53,-31,-511,196,-743
-1,71,-11,-823,-12,-702
2,88,1,-1115,241,-325
3,82,0,-698,405,-308
11,104,-7,-675,444,-366
39,116,-29,-641,511,-459
113,100,-52,-372,448,-499
78,-90,-9,-998,265,-250
35,-119,-21,-309,619,-1024
33,108,-30,-138,592,-1177
60,76,-60,54,616,-869
86,103,-70,-720,530,-263
119,117,-78,-693,402,-54
-101,-65,26,6829,-436,-2560
111,-116,-110,2166,704,-2968
-90,-90,-43,-34,911,-2591
-13,107,107,-1022,-2024,-4087
-80,123,-65,-3663,-2914,-4714
22,7,16,-2898,-4924,-5187
-35,88,-30,-7223,-5048,-5790
-4,114,-126,-8174,-4778,-6688
-31,119,63,-5407,-3851,-5455
31,-7,-55,-5693,-3541,-5492
21,17,122,-3832,-3050,-5491
78,-29,-116,-1973,-2878,-5781
47,24,-87,-2391,-68,-4196
-115,91,-32,1222,2200,-4117
53,80,-50,-153,-1538,3177
-12,-33,66,939,3091,4198
-55,53,-83,3262,2056,5363
38,93,-14,4084,4594,5900
34,-53,-36,5538,4844,5613
-128,-100,-114,6327,3768,6520
-28,61,-103,-1004,3095,5118
78,-61,114,183,-660,6712
50,58,-65,5552,1037,3485
-74,92,64,-6813,882,3669
67,-109,34,3355,-2345,2261
71,92,-34,560,1364,202
-42,-8,18,-1179,966,-206
44,-5,0,827,-265,-1451
84,-48,-99,-2091,518,-885
113,84,50,-2234,940,-850
104,-86,0,116,674,-1035
121,-80,0,831,455,-703
-111,-17,12,-679,529,-229
-72,-15,5,-810,359,-5
-53,-5,-7,-631,284,-187
-34,18,3,-705,134,-396
-25,26,0,-882,195,-401
-19,45,8,-1102,232,-390
-19,9,-23,-252,448,-757
-6,32,-17,-763,269,-474
-1,59,-23,-1226,239,-206
18,112,-13,-1711,200,-338
42,68,-49,-570,736,-1116
49,39,-68,84,579,-1298
55,50,-65,-269,292,-922
39,60,-63,-818,287,-663
52,49,-60,-584,311,-542
65,64,-55,-507,394,-399
94,98,-53,-700,423,-249
113,115,-56,-700,456,-265
114,-103,31,-1348,-3302,-4903
-35,58,-27,-2702,-4264,-4443
125,-28,-121,-4620,-5003,-4364
-42,7,55,-8095,-5032,-5071
13,-7,-49,-9284,-4706,-5720
-126,75,-86,-7524,-4201,-6209
94,81,-67,-5700,-3418,-5203
-99,-20,-52,-5093,-2342,-5000
115,97,106,-2325,798,-3928
-125,-85,5,2526,3235,-2966
-48,69,13,-711,2052,3002
40,-63,44,654,1641,5218
82,-34,108,5705,3458,5065
38,78,87,7460,4937,6747
28,-50,7,8384,5709,4677
109,-66,13,5751,2898,5202
108,24,73,-1668,3078,3834
26,74,-6,-3709,2567,4979
16,67,49,3035,246,6013
-15,64,-42,3513,2427,2823
50,107,-7,-3866,1422,3336
123,-9,75,3162,-1056,-471
-46,-27,-59,40,-759,-1213
102,-27,30,-977,737,-847
77,-77,70,-2619,589,-438
-104,102,-6,-1858,1066,-386
-73,82,-4,-647,502,-730
-54,14,-10,298,74,-1102
-17,73,3,-1126,760,-773
-70,27,-9,-1126,467,-1093
-48,-16,-17,-77,411,-1243
-49,-43,-60,1098,511,-995
-13,-21,-68,719,173,-223
38,114,-48,-2059,459,824
34,-105,-44,-2178,95,293
6,85,-36,-566,395,-1203
11,37,-38,252,687,-1694
61,-2,-52,359,832,-1175
58,-37,-97,1158,687,-584
99,88,-99,-1403,551,321
106,112,-83,-1646,-10,133
73,49,-64,-259,165,-1041
93,40,-27,-163,677,-1073
-108,42,-30,-282,798,-621
-84,21,-68,64,879,-629
-86,87,-36,-1025,218,272
-65,-105,-21,-1660,357,405
-72,-121,-30,-867,618,-619
-53,-113,-34,-971,589,-927
-54,-113,-4,-966,278,-799
-95,122,48,-1484,-1848,-5647
-46,-26,62,-2293,-4225,-5530
-104,-106,-90,-4659,-4271,-5596
-1,27,69,-6864,-4823,-5669
47,-102,11,-8066,-4816,-5719
-45,12,-114,-7907,-4139,-5982
-43,-20,53,-5098,-2890,-5759
51,-98,113,-4013,-2125,-4926
-42,33,15,-2014,409,-3707
-60,-4,115,1991,3181,-2487
63,104,-64,-363,1103,3506
124,-31,-33,1952,513,6434
70,-72,-88,8680,4823,5066
-102,4,73,5408,6768,5936
123,-111,-119,9042,4953,3400
-79,98,28,7378,2664,3896
-43,-116,106,-2844,4215,4575
-38,-82,-22,664,2324,6719
91,-75,70,1272,3771,3230
-27,123,-18,-807,285,3396
-102,77,41,937,627,197
-41,-57,-93,30,-84,-314
48,-25,31,526,-304,-792
11,-74,59,-780,441,-491
48,-111,62,-1180,865,95
51,25,14,-219,744,-915
86,3,-19,-753,497,-1130
99,-65,12,-591,-240,-1080
96,-92,30,-310,-75,-1214
88,-103,38,-775,188,-852
110,-90,25,-1039,304,-373
117,-93,15,-662,167,-473
-118,-78,-2,-545,360,-469
-98,-57,-15,-886,423,-197
-94,-25,-35,-1078,447,-186
-115,-1,-49,-900,450,-530
-85,-2,-54,-395,445,-771
-41,0,-81,-380,563,-717
2,40,-100,-870,456,-515
7,8,-112,90,402,-945
-10,43,-96,-575,168,-864
14,12,-89,-96,367,-1113
-18,31,-62,-389,231,-1008
2,17,-79,-617,611,-789
-10,50,-81,-966,667,-541
-14,62,-116,-1202,562,-467
-3,27,106,-438,573,-704
23,78,101,-1283,283,-445
52,59,86,-721,129,-489
60,120,-127,-914,92,-629
-22,-20,93,-1670,1146,-5662
-8,108,45,-4171,-931,-5772
-90,115,45,-2240,-2241,-6365
16,22,19,-4386,-3538,-5521
-53,-8,-92,-7246,-3570,-6378
-104,62,64,-7997,-3584,-5858
-87,39,108,-6715,-2690,-6441
5,-50,25,-4505,-2286,-5972
-90,-108,117,-689,-1554,-5875
-115,-117,34,-685,2143,-5670
29,63,-50,-3240,2305,2710
-66,-50,-17,1817,-30,4955
93,39,105,1380,2418,5094
97,71,63,7808,4169,5787
-115,-114,36,8389,6434,6202
-25,45,19,5483,3135,4701
74,-64,7,6738,3742,4022
109,41,-28,63,4327,4284
78,43,33,860,2914,4638
116,82,43,-400,1999,4489
101,-62,8,501,1677,1390
39,-46,-54,-955,121,2040
-123,11,42,-433,144,-324
48,106,-125,-1352,859,-483
2,-54,122,176,655,-467
34,-54,123,-1030,734,-348
76,-107,51,-798,1083,-266
55,123,50,-184,231,-864
67,84,40,-131,11,-1254
86,62,70,-504,-246,-1139
75,8,80,-132,-159,-1109
67,15,95,-766,60,-828
73,-21,85,-478,273,-703
91,-24,64,-592,526,-626
117,-8,33,-1018,438,-401
-128,-10,13,-814,361,-383
-125,6,-2,-931,404,-331
-110,31,-8,-1051,305,-155
-94,64,-17,-1225,398,-277
-79,74,-26,-1029,374,-432
-76,77,-33,-801,301,-537
-62,92,-32,-998,372,-462
-59,88,-42,-713,426,-613
-44,95,-52,-806,423,-517
-36,96,-60,-702,359,-510
-29,121,-53,-819,199,-432
-35,-124,-46,-734,368,-573
-25,123,-57,-334,512,-884
-2,88,-80,17,485,-869
11,106,-84,-666,291,-264
-34,45,-93,-695,-1477,-5859
117,19,104,-4068,-2173,-5385
32,79,-120,-2008,-3386,-5764
-96,-67,11,-6749,-5630,-6661
-29,-10,13,-5428,-5027,-6811
-27,-125,28,-9406,-3672,-5915
-87,102,78,-6547,-3211,-6773
7,-99,-17,-6036,-2176,-5372
-32,45,95,-1199,853,-4942
-38,63,25,487,2950,-3863
76,63,-125,241,1404,2133
-123,-77,-34,511,-152,6310
116,-73,-24,4096,1612,5837
-2,-56,5,9632,4388,5301
15,-124,64,10641,5487,3916
125,-71,-7,5131,5694,3407
-79,-10,89,-5702,2343,5959
-12,55,-32,10349,151,3986
71,61,-118,252,5049,3968
-119,-74,-8,-2009,947,4028
-37,-127,-92,1348,2231,2593
39,38,50,338,932,187
-67,-67,113,36,-308,-407
78,-41,-11,-979,-213,-978
76,115,-6,-1530,264,-718
74,32,22,-1764,-61,-957
120,-14,11,-883,331,-644
101,-58,6,-19,478,-935
-120,-24,-8,-686,736,-662
-110,-38,-19,-508,396,-523
-92,-24,-30,-732,404,-450
-78,-14,-37,-741,312,-453
-69,-6,-41,-661,284,-479
-71,8,-46,-640,417,-481
-30,15,-54,-684,506,-425
0,21,-70,-570,583,-486
-29,23,-76,-460,363,-695
-41,21,-64,-655,231,-474
-7,37,-62,-876,540,-92
45,82,-86,-1242,789,78
75,-110,-101,-1908,738,71
66,117,-111,-470,223,-538
71,-106,-93,-741,194,-742
77,-119,-87,-778,230,-697
87,-126,-90,-588,265,-694
55,-120,-84,-500,45,-795
57,-100,-71,-1076,24,-661
64,-111,-56,-831,96,-632
77,-118,-59,-322,381,-728
79,-103,-65,-463,459,-523
101,41,-64,-1683,1759,-4862
127,-24,108,-1769,-126,-5440
53,-79,-68,-3311,-1761,-6039
-69,76,6,-4679,-1794,-6181
40,-22,92,-5719,-2567,-7180
-50,92,-39,-6279,-2583,-6887
101,33,96,-5117,-2801,-7398
-101,37,-30,-3845,-2346,-6631
42,-75,-51,-3564,-1977,-6175
34,114,36,-2032,1099,-4389
104,50,-17,1565,3877,-2139
-10,-40,7,-1653,-1342,3280
22,25,-60,3490,2990,3686
-111,54,98,471,239,6006
-56,70,53,6677,2570,5541
69,109,-34,8985,4626,6083
-13,-77,112,5769,5440,4914
94,-52,14,6946,1767,3939
-48,-79,-59,-3075,3236,4684
83,71,77,1539,2088,4141
108,120,-114,1260,498,2936
98,108,10,-3681,643,2663
-41,81,42,3141,126,607
124,-27,69,-1419,1419,-263
49,41,95,-1888,772,-263
34,-68,-111,-468,-59,-304
80,125,114,363,811,-904
82,98,74,-261,651,-893
94,41,60,-1034,51,-957
99,-26,59,-981,-339,-591
71,-95,55,278,-360,-497
93,-70,70,-152,44,-561
113,-49,57,-584,328,-367
-117,-23,80,-1299,690,-388
-89,-58,61,-587,751,-530
-109,-31,38,-704,152,-362
-61,-3,20,-801,533,-189
-92,18,-16,-1646,482,-98
-107,-12,-46,-819,321,-424
-94,-30,-81,-156,459,-605
-55,40,-60,-1245,175,-108
-42,38,-73,-703,291,-320
-26,63,-58,-617,171,-553
-24,62,-49,-469,90,-629
-15,69,-32,-810,458,-644
45,72,-11,-1459,506,-561
36,32,-49,-414,228,-572
24,102,-33,-696,31,-296
14,-116,-54,-872,648,-252
3,127,-83,-543,411,-457
-91,-123,27,-1730,-1355,-5604
97,126,109,-3139,-2028,-5644
55,81,-47,-4916,-1947,-6133
-27,122,52,-4209,-2287,-7107
81,-100,-85,-5333,-2351,-6715
-17,-28,-49,-4890,-2915,-6804
-55,116,57,-5499,-2987,-6247
-8,3,18,-3393,-2896,-6055
-41,41,11,-3770,104,-4215
-79,55,18,1233,1928,-3720
84,-60,-118,-2455,725,3292
-119,40,75,2028,1926,2945
-123,10,56,-152,38,6006
-6,10,-19,6968,1514,5793
-74,124,74,9689,4311,5276
-37,27,-122,11427,5226,3624
-63,50,115,8664,2263,3608
69,-55,41,-2549,5091,4026
-34,68,33,-5333,4150,6790
-61,20,-9,3405,129,3677
104,-81,-12,-132,530,2820
120,80,-89,663,-901,1014
-11,115,32,1902,754,-751
26,69,69,-638,1105,-573
-59,25,119,2128,-60,-1517
-14,79,102,-916,518,-1001
53,-91,61,-516,622,-1022
67,91,55,200,187,-1185
74,87,63,-123,123,-988
76,86,68,-730,65,-621
92,90,65,-1124,236,-482
79,59,48,-487,211,-672
87,83,51,-795,295,-677
-127,72,19,-610,517,-741
-108,64,-13,-694,454,-666
123,57,-50,-792,226,-556
119,76,-43,-797,-88,-451
-97,115,-49,-1559,440,-45
-73,-106,-66,-1368,618,-189
-54,118,-103,0,464,-841
-51,-107,-93,-312,46,-619
-35,-86,-78,-986,348,-472
-33,-92,-77,-573,299,-415
-15,-78,-113,-80,514,-560
3,-31,113,-893,597,-304
15,-29,101,-1270,541,-225
30,-47,96,-505,223,-504
36,-23,96,-549,319,-680
42,-15,109,-782,252,-487
69,-2,119,-883,562,-456
0,95,66,-2308,-2543,-4161
-58,-23,-98,-2052,-3459,-4593
95,-36,70,-4242,-3998,-4437
-23,51,32,-5719,-4225,-5617
-58,-16,-71,-7941,-4530,-6102
3,-121,-12,-7264,-3701,-6808
80,-70,40,-5309,-3213,-6358
-49,-35,83,-3830,-2177,-6044
-89,-78,-22,-2898,102,-4621
-3,-30,44,-354,1937,-2997
-108,-86,107,-1021,1853,1098
-8,5,-96,1899,1052,3759
-70,53,-125,281,655,6061
16,-67,-126,7486,3016,5732
56,-42,76,9829,5368,5100
44,64,0,8309,6323,4617
97,65,-45,2450,3230,3025
27,100,120,-9168,1770,6515
112,-66,-34,8333,-739,6175
-126,-9,-55,2273,1758,3880
119,-106,-1,-3644,3117,3473
34,57,-122,3582,-1016,231
-50,-90,-77,-34,-98,-704
-66,111,15,-486,-52,-1187
-82,-1,11,-354,-65,-814
-51,-77,36,-1928,109,-717
21,12,-18,200,1047,-1212
-19,-19,-29,114,500,-1036
-29,-47,17,-1239,-114,-185
34,-104,36,-288,495,-408
39,-107,28,476,361,-539
23,-13,-33,-309,158,-654
23,-1,-95,-1003,313,-527
7,-42,103,-474,503,-407
5,-31,101,-981,354,-409
25,-52,73,-960,515,-551
30,-73,90,-615,324,-533
56,-80,74,-755,417,-235
67,-50,63,-889,431,-294
101,-38,33,-1020,495,-358
110,-35,12,-930,480,-356
106,-61,7,-280,370,-587
98,-26,13,-968,419,-425
103,-52,12,-652,595,-561
121,-50,33,-573,664,-602
-70,-24,34,-377,728,-731
-64,-5,19,-488,487,-752
-43,-6,1,-405,533,-908
-36,-9,5,-163,566,-959
-4,9,-17,-616,461,-832
-52,66,-86,-1304,-2114,-5515
-44,-15,-127,-3226,-2379,-6109
94,-71,-23,-5249,-2928,-6509
-22,-23,79,-4623,-2925,-6861
32,7,12,-6002,-2897,-6857
-42,-6,13,-5139,-2521,-6543
-97,-30,-81,-3984,-2931,-6040
23,90,122,-5031,-3087,-5841
117,-62,-16,-2473,1289,-4874
92,1,80,1584,2773,-1844
-93,-101,-104,-1033,252,3266
0,72,65,2272,1008,5065
90,-52,-61,5386,2734,5721
-74,-13,21,9241,4826,5976
-72,-126,60,11546,6465,4150
-70,59,85,4989,4553,4367
111,-57,-90,1472,2780,2523
-101,46,8,-4417,4350,5665
79,65,2,1165,1231,4438
54,56,88,378,1252,3127
126,-97,120,-960,992,1643
-42,101,25,-299,-153,-144
51,86,125,280,-177,-1513
31,-12,108,-993,445,-907
50,-52,126,-2924,507,-145
74,50,119,5,209,-654
110,18,-104,-200,544,-192
109,28,-67,-1885,500,-235
121,-21,-113,-385,300,-429
-127,58,89,-817,272,-384
112,40,63,-374,261,-697
114,40,49,-780,238,-463
-119,50,39,-921,420,-554
-101,35,29,-388,176,-630
-87,40,29,-721,148,-443
-46,33,54,-580,349,-541
-50,26,47,-756,198,-437
-50,17,25,-732,205,-316
-49,45,8,-629,279,-343
-41,93,-13,-1198,455,-304
-35,87,-33,-695,374,-575
-25,98,-42,-867,190,-573
-15,84,-40,-766,269,-583
1,93,-25,-791,346,-574
5,118,-22,-1051,380,-460
19,121,-42,-1035,388,-410
29,-123,-55,-1192,385,-325
29,125,-56,-656,237,-415
40,-105,-47,-651,357,-486
19,-89,-32,-426,199,-614
-81,2,-30,-3715,-1401,-4600
-128,92,-3,-1725,-3254,-5321
80,-100,42,-4658,-3625,-5200
-70,119,-53,-6249,-3775,-6093
60,50,117,-7398,-3775,-6512
-110,78,45,-6476,-3936,-6502
111,25,-23,-5267,-2854,-5996
-100,46,-70,-3782,-3197,-5709
-98,-119,71,-2667,182,-4473
-69,-117,-106,193,2265,-1982
17,-91,88,874,-597,2100
-49,-33,-99,1594,2969,4939
-126,65,110,3695,1288,5227
-12,-43,123,7538,4522,4220
26,-10,-82,8118,6545,3984
92,79,117,6325,5641,4379
110,61,85,-3382,4346,5106
-99,56,-62,6164,759,6136
111,-88,98,-2702,2814,5446
-38,-47,76,-591,1101,3326
-95,-95,76,2347,-129,1544
-68,-88,-23,1304,-834,-539
107,5,8,-148,370,-740
33,-82,48,-908,102,-361
20,57,55,-264,-153,-621
64,65,58,-1649,259,-725
74,-23,88,-1580,89,-768
101,126,84,-803,254,-542
96,113,91,-1087,280,-166
113,124,60,-894,457,-248
-117,-75,5,-229,369,-466
-123,-29,5,-672,272,-353
-121,-13,-10,-923,363,-276
124,-25,-26,-769,355,-436
-120,-30,-43,-789,520,-419
-104,-39,-62,-682,353,-408
-79,-25,-63,-855,243,-347
-58,-18,-34,-724,340,-363
-39,14,-30,-1011,521,-328
-38,38,-58,-1054,364,-335
-36,38,-82,-1001,427,-364
-27,60,-90,-995,502,-366
-28,68,-100,-737,433,-582
-21,75,-103,-708,289,-623
-21,58,-87,-640,196,-582
5,61,-61,-285,255,-657
20,90,-65,-397,348,-681
29,113,-65,-525,360,-584
30,127,-75,-690,413,-549
26,-125,-77,-698,358,-556
-128,-100,92,-2924,-2083,-4519
-10,-41,-123,-2814,-1643,-5191
-76,-18,49,-2929,-2824,-5073
-85,-128,-120,-5752,-2894,-5449
-120,-28,-55,-6042,-3231,-5443
104,115,-13,-7011,-2888,-6089
109,57,-30,-6220,-3183,-6032
-101,-20,30,-6064,-2600,-5758
-73,18,93,-3820,-2196,-5015
-50,39,-22,-1567,-1038,-4742
13,-120,-76,-1207,365,-2480
-16,46,74,317,1639,-324
-63,112,36,307,1700,3645
-53,90,84,1969,2223,4833
55,-74,96,6823,5283,3562
63,109,-2,8418,6533,3602
42,-5,-40,9912,6091,2814
15,-63,-88,-5672,6123,4862
79,-24,27,4525,760,6395
95,122,122,2499,2995,4109
-13,120,85,-1026,2812,4522
-48,-128,-19,1055,1822,4652
103,-40,94,-1474,955,2261
63,88,56,1541,47,928
16,-11,38,972,-1287,-659
13,-45,71,-978,201,-244
-22,91,85,-534,398,-486
-10,3,46,-440,572,-998
-5,-52,4,-1000,324,-1007
3,86,7,-474,-380,-870
34,57,26,-1093,833,301
2,-31,74,-1548,859,72
-4,-42,11,-136,145,-658
31,59,-62,-719,326,-642
37,64,-88,-486,242,-717
25,56,-121,-539,338,-650
32,75,123,-821,385,-445
42,66,109,-833,434,-458
65,68,96,-1271,550,-384
77,56,85,-901,367,-383
95,62,72,-714,379,-469
96,78,27,-557,403,-606
106,95,16,-528,322,-600
117,111,-5,-653,388,-559
-125,111,-22,-688,417,-575
-124,115,-24,-710,319,-521
-97,-126,-35,-783,411,-499
-90,-125,-45,-626,352,-518
-73,-106,-51,-704,413,-534
-60,-98,-69,-608,370,-522
116,-100,5,-852,-1872,-5546
20,53,67,-1327,-2254,-5015
-108,-88,-111,-2019,-2648,-5192
84,63,-33,-2615,-3011,-5388
21,-85,48,-3559,-3341,-5345
-32,-47,111,-3998,-3412,-5208
-58,59,-92,-2773,-3213,-4560
-77,81,66,-877,-2861,-4406
-36,-64,-2,-1213,-2711,-3445
69,-89,79,896,-1045,-2644
-99,100,-57,17,-346,-1251
-45,110,-106,1351,600,842
-19,-73,127,-2612,1551,2278
106,-65,65,749,3522,3222
96,-113,-22,1535,5272,3078
112,1,99,2589,6176,4056
74,-4,2,1801,4788,4578
93,-23,-91,366,2123,6096
89,-115,89,-1532,861,6769
7,-21,-50,2243,-379,6732
-44,61,-76,295,605,5410
-20,9,101,-1113,58,4996
76,-96,121,202,-1284,2421
5,90,49,1373,-629,767
-74,20,63,956,502,124
85,-73,58,-359,82,-723
56,47,9,-1130,3,-746
81,-100,-78,193,766,-1297
80,-114,-116,-501,852,-925
94,-81,98,-3090,696,-460
121,87,57,-1370,215,-678
-112,30,62,-357,82,-428
-81,55,77,-534,516,-369
-71,70,86,41,436,-712
-63,-121,52,-295,320,-501
-53,-83,46,-942,271,-280
-31,-48,13,-1255,406,-136
-25,-38,-4,-1228,570,-505
-6,-32,-31,-980,526,-720
6,-44,-44,-663,508,-901
26,-45,-47,-675,372,-769
39,-47,-44,-1321,277,-82
52,-76,-30,-511,382,-540
81,-5,-15,-401,289,-509
88,29,-31,-691,426,-549
85,37,-48,-736,324,-451
91,46,-55,-773,359,-458
102,58,-59,-833,343,-455
117,69,-61,-801,379,-502
122,72,-57,-769,337,-513
101,-22,43,-1601,-908,-5939
-7,113,37,-1845,-1585,-6295
88,19,109,-5133,-1808,-6026
-31,97,126,-4963,-2631,-6330
79,-126,29,-5151,-3058,-6153
46,-98,-96,-4070,-3173,-5534
74,-81,-128,-3498,-2383,-4986
-81,27,76,-1949,-989,-4612
16,-106,-82,453,1189,-3102
-90,-45,-41,-3340,524,4710
66,-92,17,2979,2528,1212
99,-9,112,-245,1010,5501
-85,13,31,3417,3508,4789
11,24,1,5630,4390,4488
-104,-36,31,3931,5174,5557
-75,83,-30,4571,2983,3616
-32,-102,-41,-2675,1580,6530
89,-71,107,2741,-1733,5490
-102,-92,61,1476,2037,3877
27,95,18,746,-546,3863
-44,55,-62,1305,373,2596
62,-39,97,-2222,854,1851
-64,6,45,406,269,359
116,-61,-114,-326,-599,-483
120,-121,-128,-454,63,-554
81,40,116,65,334,-1283
115,-60,80,44,368,-1683
-118,-84,87,-1247,-112,-1229
-98,122,81,-1740,4,-898
-51,-3,-126,-2585,1550,661
-116,-9,89,-1032,243,-707
-65,-122,-28,500,-73,-460
-61,-48,-18,-233,144,-534
-58,-47,-37,-276,420,-606
-49,-46,-52,-550,332,-447
-39,-43,-53,-559,232,-595
-12,-45,-27,-952,377,-549
9,-76,-6,-997,491,-477
27,-43,-16,-1232,454,-370
35,-8,-59,-928,550,-478
31,12,-70,-848,524,-569
49,29,-92,-681,522,-538
56,49,-95,-759,448,-592
82,61,-106,-834,466,-577
79,65,-90,-848,288,-567
81,72,-77,-755,234,-540
95,81,-68,-792,386,-521
103,88,-67,-689,350,-550
98,106,-73,-495,136,-740
114,-126,-83,-423,429,-606
-51,2,90,-2733,-1609,-5269
49,86,90,-2141,-2308,-5545
109,83,-48,-4492,-3276,-5101
-31,-21,90,-5602,-3050,-5326
124,62,-17,-4672,-3747,-6030
112,109,3,-3995,-4094,-5942
9,-51,29,-5819,-3336,-5641
-30,48,126,-4132,-1493,-5068
-116,-47,3,-1654,1079,-4995
-123,19,19,-143,2278,-3292
41,44,-11,-2622,132,3317
91,-57,41,2450,1788,4723
12,43,96,1346,1297,6076
73,-84,46,5136,3608,5250
40,18,36,6917,4737,4203
47,-90,92,3365,4786,3331
-87,66,89,5409,2491,3172
-68,20,-68,-1703,2651,3938
109,-98,-100,1152,643,4293
91,-54,-36,-161,933,4673
51,99,-60,-2101,47,4493
-78,78,16,2462,-8,2696
-37,-7,-51,2707,536,1624
-33,-18,50,-489,30,302
-76,-31,32,1604,315,46
88,-47,100,906,-440,-436
82,98,48,1518,-111,-1015
65,74,104,-1117,-74,-1024
75,-54,87,-381,-5,-997
88,-125,90,74,112,-1087
99,103,82,-862,407,-620
100,57,63,-695,459,-451
125,74,42,-957,504,-277
-99,99,9,-645,520,-621
-102,89,-14,-376,350,-617
-78,117,-22,-1055,503,-475
-66,103,-43,-514,505,-438
-58,-107,-55,-877,463,-374
-41,-83,-68,-1122,530,-439
-20,-79,-77,-806,565,-610
-5,-70,-104,-552,525,-885
-6,-74,-105,-808,277,-791
14,-75,-97,-1141,180,-467
28,-101,-98,-676,296,-529
44,-91,-78,148,254,-510
78,0,-79,-473,423,-311
78,22,-89,-819,503,-52
87,73,-98,-1591,287,355
101,106,-99,-1718,547,158
102,-97,-119,-2498,411,52
-10,-64,-19,-2102,-767,-5868
-6,-40,15,-3753,-1532,-6655
-90,-100,-123,-6091,-1780,-7268
48,-4,50,-8187,-1349,-6862
-68,28,84,-9417,-446,-6734
19,-117,85,-5258,-995,-6106
24,119,-112,-1451,-364,-5042
19,93,69,-791,-700,-4303
111,-65,-49,-447,-396,-2100
24,-22,-100,-126,1534,1335
-66,-101,86,1136,2201,2958
2,-97,71,4168,3825,5267
29,85,73,7186,5657,5358
3,-57,33,10497,6677,5582
32,-27,-19,7258,2757,5334
-8,69,109,2809,4227,3741
-42,2,115,-1440,4749,5176
-3,109,-15,-8135,2779,6024
-64,81,-32,4206,-268,2800
-1,-101,49,2335,-1449,1
-109,30,62,-1420,983,-848
56,92,-124,250,1065,-395
20,91,-92,-791,-307,-474
15,-1,-114,-439,-430,-941
36,-100,113,64,83,-1092
45,-113,117,-1500,699,-241
27,65,83,-866,360,-374
55,79,80,-569,281,-520
82,98,82,-658,461,-552
93,110,70,-406,378,-540
92,-112,38,-1047,471,-424
102,-113,2,-912,527,-437
106,-105,-25,-851,423,-427
121,-96,-33,-888,388,-453
-117,-111,-43,-666,430,-538
-108,-99,-42,-752,316,-502
-86,-99,-41,-415,348,-587
-70,-86,-51,-336,366,-614
-57,-57,-69,-632,460,-605
-58,-56,-80,-586,409,-588
-55,-54,-88,-567,388,-576
-26,-31,-105,-581,382,-557
-5,-26,-106,-602,446,-591
-16,-56,-100,-415,382,-613
11,-35,-104,-446,459,-642
20,-27,-121,-314,440,-796
36,-48,126,-121,462,-772
40,-36,124,-189,521,-722
44,-21,119,-217,483,-699
63,-16,111,-269,517,-732
-57,-84,84,2112,2147,-3750
-51,-121,-76,-1876,-148,-5971
11,49,-119,-1898,-1782,-6878
-64,-50,-36,-9289,-2802,-7470
35,-46,-104,-11656,-1442,-7906
-73,-86,102,-9094,-307,-6423
-96,-45,-2,-3107,-933,-6020
-123,-70,125,-2694,-374,-6040
-70,2,63,-1417,-963,-5491
-87,3,32,-1466,1198,-2274
-45,-85,33,-1107,816,1687
-104,116,82,2100,2833,3172
96,68,117,4740,3723,4821
72,-115,70,8289,6007,5734
66,42,-73,9942,5577,5880
81,-62,22,6375,1951,6254
-88,-41,-88,-5483,4603,5988
56,-98,-56,6149,158,6839
-13,74,3,-804,2113,2608
-79,-24,79,638,2287,1635
24,-34,88,-326,-572,802
-26,97,22,1069,-958,-178
-68,-10,31,1201,606,-1371
-126,-44,64,-1344,257,-935
125,113,33,-285,-347,-804
120,56,-3,-291,307,-937
-124,37,-4,-1901,616,-284
-112,0,-14,-1546,544,-139
-100,3,-27,-1170,531,-340
-90,17,-28,-1150,420,-429
-78,-20,-29,-314,413,-606
-74,-17,-24,55,338,-735
-68,9,-37,159,279,-766
-41,60,-48,236,292,-812
-43,88,-49,-22,386,-556
-31,120,-44,189,493,-718
-3,-28,-50,757,827,-1230
69,97,116,91,1670,-1872
-88,-98,-45,-797,1289,-3202
8,102,83,-614,371,-4385
118,93,43,-1802,-994,-4696
-17,30,-9,-2398,-1454,-5447
-54,-58,37,-1490,-2444,-6048
95,-121,113,-3590,-3419,-5330
1,-81,-112,-7125,-3689,-6178
-71,107,121,-5567,-4015,-6662
-29,76,53,-5428,-4631,-6174
-114,-4,53,-6353,-4223,-6519
-2,-99,51,-4340,-2228,-5432
-64,26,-5,-2680,617,-5108
9,-89,54,1754,3292,3784
120,-85,-16,-620,-636,6179
67,-12,31,6680,2750,5270
-58,-105,-12,6290,4869,5474
-18,-72,28,7403,5288,5161
-42,123,50,-2348,2902,4168
-8,99,-67,1341,-978,4841
-121,-19,-71,4257,-757,4339
-16,-104,-87,-1711,2244,4546
-59,72,-62,1848,-1159,4629
64,88,-66,1854,1333,2898
-55,12,48,-1418,104,1957
19,62,70,-291,-326,540
-103,-97,-85,831,-454,-403
98,102,-75,31,-214,-710
83,13,-104,-197,264,-683
105,-42,121,-600,526,-498
107,-110,93,-341,396,-909
121,-123,81,-810,223,-839
-112,100,62,-650,174,-926
-97,95,63,-1511,443,-591
-83,57,64,-2696,926,268
-94,36,26,-763,291,-269
-50,-105,-11,-777,313,-149
-46,-66,-31,-800,456,-455
-39,-31,-37,-953,406,-596
-34,-30,-53,-775,452,-774
-33,-51,-68,-579,461,-840
-11,-34,-69,-1122,342,-450
8,-41,-86,-775,293,-581
16,-34,-74,-598,191,-628
32,-13,-59,-690,267,-579
48,-3,-51,-363,403,-689
52,17,-60,-416,374,-623
65,40,-72,-569,435,-533
67,54,-74,-685,423,-454
79,61,-86,-666,478,-445
92,74,-94,-670,481,-447
117,88,-100,-718,555,-507
-117,102,-114,-734,576,-667
124,103,-101,-483,236,-593
122,120,-89,-723,315,-521
120,126,-76,-713,342,-549
-124,125,-75,-632,407,-489
-107,-114,-78,-750,337,-451
-103,-103,-73,-813,349,-541
-97,-102,-66,-689,356,-525
-93,-97,-67,-661,396,-517
-94,-91,-67,-599,387,-514
-86,-79,-72,-509,383,-517
84,-75,99,-1654,-1442,-5818
116,95,112,-1542,-2275,-7509
-113,-97,4,-5516,-4060,-7366
-106,50,-64,-6135,-4409,-7706
-29,91,95,-6807,-3782,-7152
78,60,125,-4763,-2774,-6535
27,16,-114,-2503,-2315,-5437
89,-39,92,-1490,-1430,-4823
-37,-74,54,339,902,-2025
-112,26,-125,588,1283,3703
-42,-22,71,331,1184,5854
64,-42,-84,5443,4031,5458
-90,-81,83,4001,5281,5840
-68,45,-107,7662,5177,3535
5,-3,-125,4793,2715,3961
-117,-74,125,-10574,1705,6587
-60,60,95,2565,-2941,5235
-66,111,111,5270,1249,4011
-56,-65,76,-7051,251,3978
122,76,-27,3131,-1793,2216
107,85,-86,3161,-745,1262
-96,-21,64,-137,-200,-597
-112,-59,-59,289,906,-844
-113,27,-122,-634,479,-679
-125,-94,-47,337,-599,-441
-72,-70,-94,-763,645,-267
-61,112,87,-800,854,-389
-83,-117,107,-744,-316,-146
-85,-120,90,-882,-41,-259
-46,-95,64,-1174,714,-400
-62,-125,51,-671,343,-577
-51,-111,61,-862,271,-627
-35,-111,53,-660,500,-687
-25,-88,67,-717,181,-434
-33,-78,42,-1227,440,-261
-17,-58,7,-983,262,-217
-5,-16,0,-528,11,-367
25,23,11,-977,429,-558
54,29,-32,-1185,286,-583
94,14,-49,-774,185,-854
70,12,-73,-1006,388,-927
50,44,-49,-1574,-63,-419
77,43,-58,-990,340,-311
88,97,-85,-1319,464,-224
92,95,-106,-618,322,-422
88,107,-94,-418,-70,-522
61,-128,-90,-664,373,-607
61,-89,-73,-1495,506,-336
86,-122,-97,-588,500,-348
121,-83,-107,-902,521,-310
-28,-128,47,-1406,-2588,-4792
-119,2,62,-1504,-3053,-4313
-9,-96,-103,-4072,-2729,-4158
112,114,-32,-5352,-3178,-4241
20,127,13,-7377,-4240,-4404
-22,88,110,-8758,-4580,-5336
-31,-45,33,-6547,-4835,-5523
105,-112,102,-5187,-3476,-4995
20,-95,1,-1049,-87,-5096
-92,-56,-35,-225,1386,-3186
-111,-119,5,-1258,1516,1322
-4,4,-110,1135,1556,3832
-38,28,45,281,2029,5052
27,-101,-119,6324,4433,4865
93,54,-14,5881,5745,5158
116,-38,-68,7041,4780,3962
-126,-59,-98,4529,1657,4338
-77,-97,-82,2700,1779,4712
-104,107,-56,-1923,2871,6528
87,-102,-65,1743,623,3706
-43,-111,6,1497,1179,3473
-126,-64,-6,-2236,25,2377
-27,68,50,644,424,-35
-110,37,-96,-1442,443,486
63,-122,-107,855,-422,-188
50,80,120,1482,36,-987
26,77,103,-772,321,-861
41,-21,88,-941,66,-676
65,-102,74,-54,-61,-755
106,-104,85,-1043,378,-500
112,-112,92,-1698,752,-326
120,95,71,-1483,885,-380
101,126,14,-1142,332,-228
106,-92,-24,-713,321,-417
-125,-67,-49,-494,493,-704
-114,-69,-59,-83,448,-924
-83,-72,-76,-207,476,-1005
-68,-49,-69,-1297,457,-737
-47,-61,-66,-1371,303,-334
-49,-90,-46,-820,189,-404
-21,-60,-49,-644,501,-541
-19,7,-82,-586,512,-544
-3,32,-86,-602,629,-632
14,22,-100,-400,601,-744
23,32,-106,-432,451,-735
34,42,-102,-718,453,-645
50,44,-103,-708,484,-649
57,57,-104,-717,313,-602
64,56,-101,-731,392,-606
74,49,-110,-679,280,-484
-33,35,76,-1567,-2735,-5079
58,103,47,-3850,-2826,-4735
-52,6,73,-1877,-3935,-6183
30,-55,21,-7663,-4417,-5420
-67,-9,44,-10758,-3678,-7830
-36,-104,-110,-7800,-3453,-7279
-103,-124,-31,-6981,-2226,-6596
-49,81,47,-4402,-1131,-6131
78,82,-82,-322,-604,-6488
-2,114,-106,907,183,-4079
-35,64,21,1241,-826,3626
-71,18,-124,-2795,2772,2450
118,-46,-59,3237,833,4267
-8,54,-100,5116,4376,4534
-1,111,32,7154,4512,6318
42,118,-31,10914,5902,5536
108,66,27,-7420,147,7744
-97,33,-88,7987,-3923,7162
-112,-41,15,3868,2182,4860
-31,-101,123,1948,2424,2141
36,-105,74,-4718,-437,5657
-18,20,98,2275,318,99
114,126,-72,412,323,137
-71,-78,-38,1210,56,-1026
56,44,-51,-535,-292,-1089
58,-30,-124,-1183,-78,-523
55,66,65,-359,544,-669
42,101,73,-1080,436,-237
39,70,62,-464,292,-700
56,35,36,4,391,-1188
71,39,25,-563,372,-972
68,7,28,-1045,160,-523
81,5,42,-1291,206,-202
100,5,55,-1060,643,-422
106,-3,30,-393,446,-536
119,40,11,-593,387,-569
114,56,-8,-721,426,-633
111,37,-28,-652,361,-645
-128,-14,-47,154,220,-688
-81,71,-42,-649,164,141
-90,113,-46,-972,616,-352
-112,90,-50,-530,428,-1029
-103,23,-70,-329,294,-953
-68,27,-68,-680,195,-265
-51,49,-74,-331,408,-503
-48,83,-75,-560,448,-603
-50,76,-74,-633,298,-526
-35,78,-80,-733,456,-524
-27,102,-88,-1098,526,-385
-12,107,-93,-757,511,-548
-36,106,-89,-2937,-2644,-5573
-55,-73,-88,-2203,-2647,-5687
39,-119,22,-5538,-3546,-5863
-97,-124,98,-8299,-3575,-6100
56,47,-75,-7005,-3751,-6648
-49,74,-81,-7781,-3028,-6837
-24,42,44,-6806,-2402,-6595
-101,95,124,-2890,-939,-5802
63,-2,83,-520,842,-5742
-43,115,-21,-753,2242,-1703
-98,-72,-22,576,-477,2951
121,88,-125,2884,2492,4690
-114,15,-27,7790,4047,5220
34,-33,-40,10035,5869,4946
14,-11,-75,5744,5515,3903
-65,15,53,3378,3337,5128
99,-70,123,2707,2876,3530
59,-107,-58,2756,3276,3562
-90,82,38,3060,1604,3627
61,-49,-13,-2096,2460,4982
-54,123,-22,2609,817,2625
17,-120,-123,564,68,201
-125,-126,123,1713,91,-1240
-74,22,18,-842,-446,-817
-52,108,53,-617,23,-1075
-18,-10,102,-821,-122,-795
-5,-110,97,150,-71,-1003
2,126,122,-717,353,-542
27,91,117,-430,746,-603
23,78,100,-255,336,-700
26,108,42,-561,359,-615
34,119,35,-769,390,-562
45,122,12,-516,540,-660
65,112,-17,-175,748,-873
66,-128,-46,-854,500,-408
85,-113,-65,-1204,422,-302
94,110,-86,-305,370,-850
97,-118,-85,-868,187,-670
116,126,-104,-971,330,-606
-125,-128,-106,-912,162,-426
-102,-106,-98,-1107,426,-314
-75,-91,-92,-920,728,-344
-64,-72,-85,-522,464,-467
-58,-35,-108,-947,449,-416
-50,-26,118,-721,399,-512
-44,-20,114,-665,469,-581
-38,-9,100,-650,470,-568
-25,-1,87,-552,431,-634
-9,11,85,-626,404,-610
0,13,84,-548,365,-628
50,108,48,-3571,-1237,-4137
93,30,104,-2694,-1508,-5407
23,-103,1,-2884,-2196,-5994
-91,57,-39,-5851,-3699,-6183
106,59,51,-6025,-3243,-6583
12,42,-36,-7304,-3739,-6704
87,51,-107,-6651,-2794,-6696
-84,59,-104,-5871,-2395,-6086
46,113,-115,-2991,-1781,-6157
-26,108,-80,-1173,564,-6235
-114,54,34,-281,421,-1619
48,95,-124,-229,860,1074
0,96,-7,2289,2487,3543
-109,15,-52,2274,2615,5117
-69,-66,-124,9404,5797,4616
117,9,-50,7745,6905,4118
-98,-56,-94,9265,5702,2691
-98,-13,-33,5237,3420,3130
-85,17,57,-3502,5753,2636
65,-95,-8,1502,4034,4540
126,17,-63,625,2471,4554
66,106,113,-161,2900,1279
34,-126,21,-1305,893,2770
-88,-33,87,457,396,603
72,-17,-1,-1841,-14,421
28,120,94,-589,-459,-102
22,13,97,561,250,-1032
15,7,47,-712,1263,-957
-30,-119,19,145,120,-801
-49,91,14,3,-292,-948
-14,67,9,-780,116,-1071
-20,13,16,-578,-102,-942
-16,-9,28,-897,-59,-663
-10,-55,47,-889,492,-396
-6,-54,35,-945,596,-433
1,-45,-16,-607,364,-314
4,-4,-52,-660,651,-459
-12,17,-82,-595,652,-648
-5,-29,-123,-322,589,-800
4,-52,108,-332,487,-835
29,-60,75,-673,427,-546
18,-50,76,-879,186,-382
18,-36,78,-895,125,-445
39,-55,72,-387,390,-828
50,-47,59,-552,418,-709
65,-57,36,-596,348,-611
77,-59,22,-421,264,-572
85,-24,22,-890,231,-241
101,-29,-10,-599,436,-516
101,-40,-30,-579,444,-705
29,-25,-52,-2107,-2805,-4462
-68,-57,-126,-2982,-2935,-3832
-125,112,-69,-3051,-3649,-4551
69,-115,-68,-5137,-3761,-4831
-102,22,35,-8366,-4084,-4783
10,-14,104,-7667,-3687,-5914
120,-2,90,-7156,-3778,-5779
91,88,63,-7420,-1868,-6206
-107,-12,-48,-3401,-1499,-5856
77,78,101,-2201,217,-6236
-10,-16,31,-785,1146,-4073
-39,81,107,256,2497,700
-8,33,0,1472,840,4341
-37,-75,-125,3335,1793,5620
84,-77,103,7946,4488,4773
127,30,25,6420,5660,5122
95,50,-123,9990,6143,2409
-123,9,-73,3371,3208,3435
43,-23,-52,-2482,3339,3184
-116,113,4,2525,3317,4649
-38,31,47,-1464,2718,4856
-45,-44,-35,-1747,1731,3883
-59,105,-102,2028,441,2133
-109,7,-61,-629,1025,497
-64,87,31,-244,39,-482
97,80,47,1015,-196,-1108
82,17,65,183,-234,-952
91,-85,88,195,134,-896
-115,-116,105,-224,646,-617
-85,103,124,-976,643,-314
-71,44,117,-572,330,-289
-61,33,65,-442,466,-318
-64,70,19,-498,223,-357
-54,64,-6,-398,373,-524
-46,68,-18,-616,268,-444
-20,82,-31,-900,315,-367
12,72,-34,-428,282,-616
31,93,-28,-658,280,-483
16,89,-42,-507,249,-479
18,110,-55,-642,277,-522
26,100,-79,-251,362,-656
49,-110,-104,-858,331,-494
59,-112,-110,-691,201,-475
68,-105,-110,-814,322,-455
82,-87,-108,-1087,415,-367
98,-47,-121,-1494,482,-330
98,-25,-127,-1064,256,-489
105,-27,-110,-457,276,-570
118,5,-114,-662,358,-524
122,16,-128,-610,348,-533
-33,22,-5,-3371,467,-6267
-40,-4,-37,-3437,-204,-7008
-87,71,-25,-4586,-1805,-8496
-36,-78,-33,-7057,-2047,-7470
-49,-16,-25,-8483,-1853,-7867
-69,-83,-110,-5647,-2234,-7417
-53,123,94,-1153,-1569,-7360
107,93,-12,-2052,223,-6826
92,-122,-126,-135,2656,-2504
-81,84,48,-924,-923,3392
38,-105,116,-45,1302,5305
-19,-121,17,2055,1342,5896
75,-68,6,6624,4107,6623
118,18,66,9711,5658,5918
-8,-34,109,6577,3533,3730
-47,-118,-125,1014,-1131,4611
104,59,-19,2793,356,5381
-65,-61,112,3512,4412,3015
-128,82,-20,-1181,5778,4022
70,-55,106,-10,1032,5586
-111,-55,-97,720,-510,1052
16,114,88,-1828,-605,840
5,-52,20,1122,-741,-917
19,-94,14,-440,1161,-327
-27,74,2,-2183,1617,-497
28,-66,-57,150,924,-898
46,-49,-80,25,290,-800
60,-67,-81,-480,-101,-915
68,-87,-87,-1049,126,-852
51,126,-86,-722,-92,-881
89,113,-94,-777,144,-681
93,100,-111,-594,256,-826
-117,97,-105,-924,796,-290
111,79,-115,-1252,376,-681
-118,78,74,-67,375,-907
-101,116,44,-213,460,-918
-85,-111,23,-665,454,-312
-92,-104,17,-741,239,-248
-68,-88,-5,-652,465,-451
-52,-85,-26,-648,481,-578
-46,-86,-35,-510,236,-601
-20,-78,-43,-588,299,-607
-13,-66,-41,-755,302,-609
7,-71,-45,-481,307,-631
19,-57,-47,-717,363,-549
27,-46,-55,-721,352,-504
41,-37,-64,-605,395,-515
51,-21,-72,-668,419,-507
66,-6,-81,-728,427,-496
75,5,-86,-676,379,-554
