AccX,AccY,AccZ,GyroX,GyroY,GyroZ
103,-46,104,-117,3297,-4695
-61,122,-63,196,2137,-6539
59,57,35,-2079,640,-6112
50,95,-61,-1995,-236,-6010
10,-50,11,-1099,-2158,-5468
-89,-68,-49,717,-2986,-4538
-124,-120,-54,-4994,-291,1266
-86,98,-10,2552,-6803,-16656
89,87,-108,-1494,-3577,-6458
27,37,-62,3311,-143,-1187
-66,33,69,-1126,-758,5017
25,75,3,-12,2112,9121
52,-105,-101,-1228,-428,8206
20,-122,-55,-2671,-1373,2724
41,-14,-45,7018,3943,-4793
-47,-118,-21,5374,2095,-1139
35,-87,49,107,1247,2717
-106,-87,117,2655,1424,3132
-81,-97,67,4872,1306,3361
91,64,-21,3554,1339,6327
104,-95,14,3542,-946,9517
-54,-52,64,1353,-337,4715
45,-66,-115,5180,-320,2771
-92,-64,20,-205,371,3391
127,-68,-19,2089,-1144,2855
77,-106,59,4710,-3223,1128
49,16,-107,3236,-2489,-895
117,-85,57,-8249,2905,-808
102,-80,-32,-3619,-60,-972
-101,103,-107,76,132,-441
-75,-47,-96,1981,323,251
-93,37,-63,806,252,-216
-26,51,-100,214,453,-507
-5,-14,-108,1474,313,-819
-30,-42,-114,1755,47,-925
-16,-34,-95,515,-164,-670
11,-22,-81,-449,-314,251
8,-10,-95,-537,-487,698
-15,58,-122,-1089,-888,901
-7,58,-114,262,-350,541
-12,28,-110,1852,275,-295
10,48,-115,2119,426,-429
16,97,-126,5,174,216
33,125,92,-1194,297,645
30,105,70,-643,239,400
31,95,60,127,123,-45
46,91,54,937,-45,-159
49,121,60,371,-82,-49
57,-125,60,58,-107,82
62,125,68,199,-147,77
-20,-44,38,-1107,2968,-5392
-128,-96,-45,430,2130,-7165
-44,52,-48,84,752,-7337
-112,-120,-8,-1445,-557,-6078
-94,-85,-29,-1047,-594,-4153
-122,-121,-2,-867,-1562,-1876
-72,114,-30,-1125,-2282,-5684
49,62,88,1451,-6252,-12152
47,75,-100,2209,165,-5657
-11,66,-107,3087,-1173,1140
-105,77,121,-2558,1951,2978
86,17,52,-1535,2802,2964
112,-23,42,-2461,628,6626
-4,-32,-18,570,2344,6784
45,-27,-55,698,553,-1102
25,-79,-22,3309,-154,-1678
-57,-90,-7,1853,410,1134
2,116,-96,1205,76,3325
24,106,-9,2078,69,5810
32,-19,-69,3449,966,6524
81,-44,-79,2513,405,7642
16,11,-47,1021,-74,5529
107,-96,102,3721,881,5538
52,23,-61,3770,512,1508
94,-8,-7,2396,-932,1747
67,-7,24,76,-800,2151
-51,-58,55,-936,-1302,1332
-86,-94,107,-265,-1395,-233
19,70,-82,2182,1927,-1460
-81,113,-95,-1965,97,-276
-86,-15,-17,257,-56,-741
-83,8,-48,-255,541,-840
-57,-21,-94,-53,683,-630
-57,-22,-101,580,118,-226
-48,-10,-88,709,-295,-108
-28,18,-81,392,-230,-4
-1,41,-80,-169,-93,95
0,51,-88,-139,-191,207
-2,50,-84,434,-276,129
1,65,-88,614,-113,123
13,96,-107,251,134,228
22,107,127,234,8,385
24,106,117,510,46,27
27,114,101,359,46,-198
36,108,100,184,-11,-103
34,101,100,221,-94,14
46,101,104,384,-64,100
56,115,99,458,-18,68
63,119,92,544,11,21
70,-127,90,530,-41,23
-52,-115,-59,-1626,1367,-5577
63,36,-128,-454,593,-6098
25,-52,-37,-1577,117,-6326
-65,125,83,-2092,-114,-4839
-90,73,-72,-1356,58,-3699
-41,2,-33,-831,-649,-612
98,78,-12,-1097,-1417,2098
113,-97,-14,-1476,-1152,-73
-30,94,-18,1730,-3264,-13293
-80,-63,44,2373,-7338,-10005
-2,94,-50,956,391,-3355
32,-105,-119,1957,513,4500
-73,-126,-126,-1412,1131,3002
-7,22,80,-1699,-397,9574
-25,-49,93,-1815,173,8457
98,90,90,-242,-2629,1157
-11,62,73,6061,2551,-5408
119,-14,-9,991,228,154
-51,-53,33,-24,469,568
53,-71,-44,2025,1681,655
88,-103,41,3472,2527,2203
-83,-118,98,4840,2957,3759
-115,117,-76,3993,2311,5285
121,-83,-42,2000,1111,6030
82,-118,-66,-1641,-720,6171
77,-78,62,2716,-2515,2645
-69,89,126,2947,-946,3854
83,57,84,989,-363,3036
-7,-62,-124,1850,-1403,1797
-46,126,125,2801,-981,674
-82,-120,-108,1795,-981,46
-60,-86,40,380,-1580,-328
23,88,30,1066,1740,-974
-118,56,-61,-1040,-212,-310
-81,-18,114,-537,451,-190
-66,-51,38,-310,1021,-417
-74,-62,2,-124,737,-698
-58,-84,-43,595,354,-660
-41,-82,-52,806,157,-582
-1,-79,-64,635,43,-363
-1,-41,-56,99,-276,128
-44,-47,-48,48,-561,45
-38,-57,-45,454,-429,179
-8,-17,-22,246,-501,549
9,10,-24,384,-414,862
10,55,-38,354,-103,732
1,89,-46,-314,-47,311
1,73,-75,-139,241,-87
-1,62,-109,270,302,-53
-6,80,-124,225,95,121
114,-107,57,-2672,1897,-3635
24,121,103,-2274,1962,-5342
92,35,29,-1623,1107,-6021
48,-34,46,-2351,149,-5813
85,-54,-69,-281,-464,-4973
109,-106,65,-681,-1469,-3004
-70,11,-43,-201,-1349,-1808
65,83,101,-845,-757,634
49,82,109,-5890,-439,-3069
117,87,58,5482,-4596,-12123
27,118,112,2152,-1068,-5072
-5,60,-109,5161,-699,-3004
71,1,-119,-256,-1129,3930
-127,14,111,-3606,2012,3378
71,-8,76,-1380,-3416,9614
-5,66,104,-4312,1466,4454
-126,-12,124,492,-1244,2453
53,-62,-103,4880,1446,-4171
55,-2,-25,430,1357,-38
49,-75,-37,3345,2459,-485
80,-84,-61,2311,2019,1626
91,-87,-4,2913,3192,3349
87,115,-119,4938,3126,4286
85,-14,-75,3498,1950,5104
-31,63,14,-2084,338,5507
18,122,-23,2221,-538,6414
4,-29,73,4691,-226,2946
115,65,92,4738,-427,3247
45,16,-105,3305,-638,1534
71,-5,60,1915,-1782,1777
99,62,-22,-2507,1129,2333
-74,-120,119,-1294,392,792
124,39,-75,-374,-1866,-828
9,24,-14,-630,775,-956
-109,-102,-106,399,-503,-193
-114,-84,109,527,-321,-104
-87,-47,77,120,365,180
-77,-43,17,452,551,122
-71,-35,-8,629,129,-2
-44,-9,-12,140,33,143
-45,-10,-22,-142,11,102
-50,-25,-38,296,-7,19
-46,-14,-39,541,-49,15
-35,3,-49,482,19,101
-29,21,-57,369,6,124
-27,21,-70,421,23,89
-17,36,-74,232,-46,91
-4,37,-86,327,2,14
2,39,-92,374,14,-29
4,41,-102,308,15,-35
51,87,96,-2574,163,-5739
-20,30,-112,-58,-3186,-10629
16,-82,-8,2796,-2895,-4614
118,74,-111,2901,959,-932
-83,2,68,-1480,-666,1296
-34,26,72,-1189,2092,2341
6,32,94,-339,3529,5619
-77,125,-27,367,1404,7064
62,74,34,-35,-2311,-619
-92,5,-69,3971,-570,-1309
-108,-46,107,-253,-110,1495
-103,-79,-10,274,-722,2020
-79,-28,-21,-733,-1127,4020
-11,-71,92,782,-59,4966
-15,-16,17,1001,-260,5543
-8,-83,0,-689,-1253,6116
28,-80,-98,586,-1992,6341
44,33,-59,2457,-2292,4253
107,-98,-65,2250,-1404,2629
86,45,-27,3289,-1290,2221
46,24,-21,2046,-744,2002
-4,-71,4,2425,-1359,1511
31,-46,75,1915,-1692,1451
-19,13,85,521,-655,178
-94,-64,107,-342,-298,-1317
-73,5,-96,424,1513,-1409
111,-31,69,-584,332,-1483
125,-75,-14,2711,-275,-600
-88,-17,-14,2434,139,-242
-65,26,-17,451,546,-600
-30,2,-58,-254,669,-480
-20,-42,-85,225,287,-602
-1,-68,-87,742,-113,-707
18,-51,-85,414,-29,-514
27,-42,-89,3,-19,-215
16,-33,-94,-124,-170,113
10,-19,-98,-74,-178,229
22,11,-107,-21,-87,369
23,30,-122,115,4,401
31,54,126,198,-94,437
42,91,119,106,-136,488
47,107,113,143,-74,316
49,108,108,330,-37,-19
60,108,108,393,59,-122
60,108,101,349,77,-86
55,94,85,594,86,-131
66,95,76,567,86,-83
77,103,70,382,-31,16
90,107,66,314,-32,52
92,107,71,380,-46,37
100,17,-33,-363,1402,-6536
77,83,6,470,463,-6302
-72,-22,65,-1039,-213,-4387
39,-60,48,-314,-191,-3703
96,111,-127,1408,-825,-3125
-53,42,6,1113,-1268,-1185
-48,83,59,121,1117,641
54,123,-54,-3043,2268,-4005
46,18,-69,4779,-11288,-12996
-25,77,66,-2853,-1958,-3384
-32,6,-90,6182,1577,-1993
114,-119,62,-3781,701,3457
66,31,46,50,2156,4530
59,-71,19,104,2542,8115
48,83,53,-2543,6,2070
-33,21,98,3739,-578,-891
-40,-33,-45,142,-322,-271
73,-91,-79,921,-216,562
-97,-38,-32,173,780,3148
-111,54,-104,2035,206,2335
-57,-70,-111,495,-752,2680
123,65,22,-66,2319,1447
23,-37,96,1910,434,4435
48,67,1,245,864,5920
-7,-27,72,-407,-1502,5340
53,-74,-25,1310,-577,4484
82,95,-16,2018,-113,2559
91,-33,13,2822,-1472,2910
91,-85,62,2032,-2495,3516
-110,-73,96,1951,-1610,4126
52,50,16,574,-217,3568
-93,57,74,-786,-931,1259
105,-86,103,569,-1312,-1493
100,108,-127,2046,-938,-1798
127,96,-95,1730,-168,-1704
-114,106,105,-108,1042,-1076
-83,-75,20,-5286,860,705
-88,120,28,-5668,826,2647
-71,2,24,1083,1680,170
-45,-86,74,6767,2135,-4424
-45,-25,81,5180,-541,-4782
50,-66,-82,3825,-1046,-2398
106,-60,-13,1192,80,195
59,-44,-24,-1881,559,917
31,-54,-91,-2230,119,1343
32,-36,117,-968,-404,1771
33,-22,125,895,-761,1651
61,50,-84,1378,-961,1262
78,-115,-78,542,-272,1093
43,121,-98,601,524,-436
-100,0,43,-1173,2044,-5590
61,24,-83,507,1471,-6464
95,-121,-82,89,494,-5587
21,99,-40,122,-340,-4784
52,-88,39,1718,-827,-2790
-12,68,12,-888,688,-997
-119,-53,53,-530,-1054,-8864
103,33,100,1494,-5811,-9652
2,-107,-55,1216,-10308,-5888
-94,3,-92,-1669,3244,-1985
-73,-59,90,1355,3114,6282
122,60,50,-958,2114,6105
-56,81,-64,2671,4718,8278
14,-102,-97,960,2632,5344
85,-1,-127,2545,1064,-2931
42,107,-56,-1358,-2136,544
61,-69,-50,122,-847,866
-122,-44,-113,-22,-1045,3195
-39,116,77,1113,-1398,4851
16,106,-113,1492,-1289,5797
52,-58,-120,1063,-2112,5987
75,72,-49,-507,-1670,5040
-16,59,47,2453,-15,3266
17,80,99,3913,74,2937
-72,92,-53,3080,-1595,2547
111,30,-57,2261,-925,1422
-11,-84,60,3815,-2285,-621
75,-59,124,5638,2136,-4284
16,-3,36,552,1257,1006
-50,-56,36,-4147,544,2220
-92,85,-95,-4400,389,1004
-55,-13,90,-583,884,-633
-45,-55,113,2179,564,-1642
-27,-27,-99,2507,-366,-1869
14,-29,-81,1858,-684,-1345
57,-67,-49,1367,-121,-843
70,-53,-64,542,134,-137
74,-28,-32,-470,-447,191
92,-37,-56,-131,-466,385
73,-26,-58,-24,-209,177
68,-7,-91,-189,137,394
43,45,-100,-385,-243,951
51,40,119,448,73,675
76,78,98,685,136,590
86,-124,88,236,-181,408
78,-126,85,297,-255,-106
82,118,105,136,-32,-380
86,113,114,-239,64,-11
80,103,101,-4,72,142
95,121,78,62,144,110
-15,46,84,-1241,2786,-5115
47,12,-104,-1225,1682,-6917
66,-14,-124,1053,224,-6792
-66,33,-24,393,-149,-4974
-103,28,-113,839,-818,-2658
109,50,114,833,-40,-406
-89,-32,44,-2333,869,-3233
-100,96,100,425,-3736,-11244
47,95,-51,3311,-7200,-7351
-107,93,-52,81,168,-1222
11,-69,106,1807,1502,2101
57,-31,62,-2219,1545,2630
-111,-71,44,-128,4305,4790
-94,-21,-116,6294,5743,8907
28,-83,-112,-4808,-875,78
-116,54,99,3575,-2740,-1437
-87,-39,-56,3087,622,145
-70,16,-32,-594,597,2225
13,107,-120,210,568,3008
107,85,-63,1142,1681,5437
118,85,-78,2178,1098,7040
-47,9,-93,1771,468,8141
-45,-68,96,1228,655,6450
14,-35,107,2499,348,4802
-40,-106,121,1628,132,2480
87,15,-41,1302,-1426,699
-11,-17,9,-411,-546,720
-69,-105,0,65,-222,6
-79,123,26,387,-451,49
-60,89,13,268,188,183
-74,66,-14,456,432,-600
-48,42,-25,232,396,-654
-44,0,-53,616,159,-765
-28,-15,-62,804,141,-715
-12,-17,-73,440,158,-486
-7,-20,-89,203,104,-156
-7,-17,-99,212,-62,-31
-11,-7,-106,309,-239,82
-9,7,-92,336,-188,-55
32,45,-55,428,228,-185
74,108,-47,168,250,219
119,85,-99,385,252,138
-94,87,116,677,456,161
36,95,97,317,85,-463
42,60,110,395,-241,-669
87,47,108,743,-127,30
72,59,98,581,43,98
64,51,81,658,-51,-9
80,63,90,599,-447,327
73,84,117,541,-396,128
-44,84,13,-802,-2837,-6710
98,-61,-114,340,-6601,-5776
106,23,48,1674,-5629,-4105
108,101,-42,-1283,1165,481
-15,26,78,1565,3984,2474
14,-128,37,-1715,3310,3108
0,-95,-56,2856,4792,6881
22,53,47,-1174,1899,5017
-62,-128,-126,4213,281,2729
111,-9,99,2055,455,3359
-54,-112,-23,-1022,-1280,4522
-110,96,-60,-2524,-2133,4627
-37,113,83,-788,-25,4663
95,-64,54,1903,182,5140
-39,105,102,3050,59,4984
9,-11,-122,2260,-212,4200
-14,-82,-37,1858,-479,1782
-11,83,-12,1196,659,1541
-127,54,-54,472,266,2254
-12,18,-33,-99,-1157,1453
-36,-65,-43,699,-995,-250
-37,114,-99,1852,-16,-1265
-50,73,-70,1648,238,-1737
-45,43,-70,1139,72,-1336
-31,22,-62,784,-157,-748
-16,6,-47,227,-341,-286
-6,-6,-56,-12,-36,-254
55,-34,-83,265,184,-750
-92,-71,-115,1020,459,-516
98,-31,-111,1002,-54,194
37,16,-50,384,-276,-7
70,3,-85,580,618,-158
63,-11,-119,879,521,-209
87,14,120,967,234,-333
127,48,-117,894,460,-233
127,25,-112,872,-361,-414
-97,7,-119,1308,-187,-344
-96,42,-86,616,-479,65
-113,45,-107,668,-157,187
98,-24,115,1328,-2254,822
108,61,124,77,-850,628
26,6,62,650,-454,-336
27,11,65,721,-97,-461
60,5,52,1001,-60,-89
49,-28,52,877,186,-460
83,-19,61,517,-165,35
72,-35,56,322,161,-47
80,-20,46,166,101,288
123,-5,41,-382,859,-7
117,-10,15,748,37,-6
110,-116,-83,-2164,-8479,-9014
23,-95,-17,92,-5333,-6056
73,-68,-45,2743,1513,-1865
70,-89,119,2077,1357,1084
93,-41,64,-3423,2568,2194
-72,-7,35,1986,4693,5765
-117,-120,90,5755,6179,6227
44,-86,114,407,495,1036
-55,92,11,-1848,-3163,-1320
23,9,102,3017,238,189
-32,-49,-65,-547,361,86
-71,-15,-111,87,-148,794
119,60,-14,-502,797,751
36,17,-59,-850,1978,1740
-82,-106,42,1435,2575,2999
1,117,-22,2249,2353,5709
-17,-87,1,1199,2290,8425
33,56,99,1217,3058,6595
-64,10,67,755,1704,2997
-102,-91,120,-240,647,2786
110,69,-108,-2089,263,2611
34,-29,-96,-1555,214,2506
-36,-61,-30,326,-1481,2471
-35,-69,31,1217,-996,1941
-82,-67,1,1223,-1808,626
-66,-89,13,1177,-489,173
115,72,-7,2137,-2225,-64
-118,88,27,516,130,-799
-93,23,24,-389,1238,-1391
-36,-18,-29,-455,1338,-1381
1,-54,-60,-6,303,-827
-4,-100,-85,1134,-458,-547
1,-70,-64,678,53,-449
10,-43,-66,-234,206,-46
12,-41,-92,6,162,240
20,-28,-107,530,146,172
30,-5,-127,701,207,157
35,19,121,253,79,378
52,45,118,128,-125,540
57,53,111,318,-63,302
53,54,104,467,-18,31
57,65,107,503,-114,22
65,73,109,403,-91,13
69,72,107,424,-35,-51
77,72,103,421,-27,-67
80,73,99,381,-20,-76
87,69,92,458,-2,-99
101,70,86,467,0,-73
98,75,81,395,-3,-65
107,75,78,462,-1,-6
-56,-108,85,-2609,204,-5571
-75,-51,-73,486,-8421,-10917
118,-22,17,421,-5372,-6153
69,-81,-23,162,735,-2018
18,118,-118,1986,2512,4104
-77,120,63,-1200,2771,5740
75,34,-18,2348,5636,7925
66,111,-35,106,3994,5184
-102,43,57,4007,-723,-3847
-6,-55,-59,311,-1959,264
90,59,34,-6,254,1796
85,-126,-113,418,76,2568
-111,-62,83,136,503,4418
50,-6,-127,1551,2230,5206
67,3,-88,2364,605,4879
74,55,114,2452,891,3690
-101,39,-126,1389,1359,2242
104,66,-109,899,716,2846
56,35,-100,-484,512,2737
27,-103,121,1946,216,1776
38,-53,-49,-239,153,1832
45,-38,-48,-2286,123,1996
-20,91,-85,534,-320,593
13,37,-65,2333,-402,607
24,73,-26,2213,-289,380
35,97,-25,498,54,257
11,42,-56,108,313,-418
10,-16,-65,795,201,-757
24,-35,-67,1086,93,-722
35,-31,-70,817,34,-488
40,-28,-85,309,90,-302
57,-27,-102,83,64,-310
89,-19,-103,215,-55,-298
91,-19,-94,386,-212,-235
95,-14,-95,346,-163,-135
98,-4,-98,363,-78,-8
96,9,-109,315,-25,136
90,40,-122,249,-111,266
90,53,123,283,-76,111
107,60,118,363,17,94
-126,79,113,322,9,174
-120,84,100,429,-26,85
-123,100,98,296,-65,-58
-126,84,89,437,-3,-272
-120,77,89,479,-9,-175
-119,75,84,453,20,-108
-111,78,89,482,20,-53
-112,86,91,536,138,-103
-101,107,89,434,108,15
-90,109,83,452,192,93
116,-108,-97,1097,-308,-7315
-5,11,-16,235,-2257,-6352
21,47,111,-960,-1705,-5009
-88,-82,-111,-872,-993,-3675
-113,-94,74,-3107,-1849,-8955
44,31,-35,-649,-9593,-9072
45,-109,-70,618,-5163,-5800
-30,-100,27,763,1274,-1149
-11,-73,-88,733,2327,4036
-10,-49,77,961,4399,7920
-89,90,122,5856,8305,10030
124,-35,70,-132,1074,-3423
94,-51,10,3211,-4314,-1014
-8,-110,-77,-180,730,413
5,57,-34,851,403,1223
94,-53,-66,-958,628,3158
33,110,-49,180,1518,5201
-112,118,93,674,1647,6793
-83,-77,83,1398,-7,8125
-4,122,55,215,-276,6616
74,126,0,3338,-67,4276
72,-111,50,3282,141,2828
-71,97,94,82,320,1783
101,4,114,114,-85,1709
29,-28,-59,355,-1018,1493
-27,-62,-50,1249,-910,559
-50,-93,-56,1462,-445,-215
-86,122,-45,1212,0,-985
-79,83,-37,1020,142,-1264
-58,39,-38,914,136,-1290
-15,-9,-46,466,164,-1133
17,-42,-63,-195,155,-838
28,-84,-103,440,325,-1402
62,-76,-83,874,198,-1380
70,-54,-76,466,-195,-733
80,-43,-87,177,-109,-140
68,-34,-93,133,57,187
65,-18,-104,185,141,341
76,0,-120,540,109,409
103,21,123,595,242,691
104,51,115,191,125,851
103,75,101,224,-78,811
109,89,103,325,-180,582
125,100,102,382,-124,366
120,124,105,312,-70,103
98,101,101,529,-44,-471
112,91,100,609,51,-489
123,92,98,436,52,-336
-125,91,89,353,38,-326
-115,81,80,421,-1,-418
-94,-110,-39,-1437,-2619,-11082
-104,-8,-91,321,-6659,-8275
11,102,81,-332,-4141,-3314
-6,-111,-107,2512,2626,682
-90,-18,83,255,2101,4314
95,9,40,454,3553,5831
-123,-98,-101,3935,4345,10675
50,-59,105,258,-1518,-3976
51,95,-29,5768,-1687,-481
-29,114,-35,1198,668,565
-24,-43,-55,-1397,65,638
45,-106,120,-1066,446,2113
-45,-102,5,-396,1678,4104
21,-33,123,748,2011,6029
53,-122,-116,37,-175,7421
24,96,-96,522,67,3267
-72,-90,-94,2814,51,3083
-126,-113,-53,2357,-258,3260
71,79,-76,662,318,1852
5,-81,-94,367,421,848
29,-75,-81,-249,58,1627
15,111,-56,841,-645,1537
4,31,-63,2717,-680,493
47,62,-55,2271,-233,864
17,72,-32,1499,-138,100
4,51,-29,945,11,-290
-2,19,-19,368,82,-376
-5,-40,-28,555,103,-647
8,-65,-34,991,94,-725
21,-68,-36,906,78,-652
40,-66,-43,585,7,-450
55,-63,-51,242,-51,-276
72,-60,-64,73,-22,-89
77,-63,-73,261,0,-119
83,-57,-84,417,35,-59
91,-39,-97,422,50,36
96,-27,-109,394,45,57
100,-12,-117,391,-5,137
101,1,-122,344,5,176
104,10,127,417,18,157
110,24,118,436,6,130
115,32,114,446,-3,96
118,43,107,425,-17,33
124,47,107,431,-29,-2
-128,52,103,415,-35,-51
-121,52,102,468,7,-102
-122,53,99,402,-5,-67
-115,55,95,450,-2,-27
-111,60,87,459,3,-55
-106,67,85,377,-25,31
-50,8,127,-1698,-1063,-5508
-17,-75,-46,-2456,-1900,-12558
119,6,85,2315,-7104,-7691
-108,15,-116,147,-3292,-3466
20,-80,42,1646,524,3076
106,71,-105,3543,5207,8631
45,-115,17,5724,7500,7967
-111,-26,-2,-4646,2181,2046
-87,67,14,-675,-407,-3956
78,-78,115,6108,-720,-528
94,-67,40,-79,640,2286
77,-33,85,-2742,286,4374
104,-8,-119,-1337,-10,6741
-37,-99,111,1450,-1160,7049
-108,-5,122,1842,-20,2759
-55,-19,-120,3002,-578,2672
126,-78,-98,516,26,1832
81,45,-68,301,-170,1491
95,-43,-78,907,460,1499
101,127,-104,2184,365,1451
93,-126,-88,1932,-625,1229
108,112,-75,1510,-873,906
65,77,-70,1248,-748,371
38,55,-73,1056,-235,-8
30,25,-86,1147,242,-334
13,-5,-79,1316,372,-892
-1,-55,-97,1751,-122,-1893
95,6,-64,1137,1482,-2210
-107,26,-12,1263,-272,-856
-110,-59,-46,1829,189,-882
-53,-1,0,249,531,-1146
-1,10,-19,-842,1428,-963
9,35,-22,-2073,1742,860
23,75,5,227,-684,-202
-9,44,-25,859,-502,-627
0,48,-24,1277,-562,51
-22,91,-17,947,-593,-50
-4,108,-32,390,174,161
-57,-127,-44,727,-655,-51
-50,-110,-47,414,-443,291
-43,-117,-58,743,-114,-242
-70,121,-76,1098,-428,-239
-65,126,-88,967,-431,-12
-79,126,-103,149,-670,471
-116,-109,127,-756,-1462,827
-106,-125,62,-1377,-285,150
-45,-47,48,-918,2386,-661
-28,-31,120,-69,1977,-435
-45,-69,-72,1172,-138,15
-29,-28,-82,1170,-653,149
120,-119,-98,676,-864,-6907
-74,-49,-6,-1898,-1882,-7201
38,-12,28,-5531,-2093,-9346
-82,57,-25,-452,-6525,-9801
-11,-85,-82,1745,-4491,-5624
-21,-10,5,575,-1358,-2604
5,-98,-59,916,2763,4527
-117,-67,100,811,3911,6576
21,-111,-85,2964,5799,9134
-52,11,88,-4,1529,-2018
9,17,79,1164,-3228,-1624
-19,-109,-119,1883,325,29
7,-115,-112,1087,766,487
38,-49,-95,-329,877,1476
27,-73,-22,1050,1886,2759
-116,-83,-102,2046,2454,4793
-109,-30,109,1704,2420,6536
125,-3,84,-367,2054,9726
-54,-102,15,903,658,7757
-62,-79,-13,2300,802,5391
37,84,96,-265,-59,1731
77,10,-114,-483,-794,1043
112,-3,-67,172,-1354,1363
34,-33,-54,889,-723,85
-74,102,-53,1233,-58,-1632
-75,47,-47,1296,470,-2307
-46,15,-42,922,462,-1592
-15,9,-47,-7,138,-17
-27,-5,-66,-299,239,-160
-5,-29,-96,518,430,-676
44,-25,-115,810,349,-440
59,-1,-120,338,180,-89
75,10,126,77,73,94
79,12,119,156,117,55
100,7,111,533,310,-96
126,24,110,777,255,-41
114,44,121,665,-1,59
84,46,-99,740,-238,-32
87,63,-80,735,122,-244
-121,63,-63,1009,159,-56
-92,87,-79,600,347,255
116,98,-96,228,-26,223
-127,100,-91,54,-155,225
-85,108,-110,121,247,235
-88,122,-111,17,-50,138
-100,124,-111,-32,-184,1
-109,110,-107,137,-170,-113
-98,111,-109,368,-31,-58
-100,110,-124,484,1,-158
-87,102,114,619,25,-264
-51,1,-57,-2271,2375,-5663
62,-30,-30,2956,-1463,-6467
-105,61,66,2540,-3340,-5282
-58,-38,-73,-145,-2146,-5690
122,70,23,-3689,-4373,-9111
98,49,-25,-954,-8452,-7770
116,107,28,-726,-7416,-4784
115,-112,34,-4319,-1722,-3205
-121,-79,-61,3881,5105,4671
110,83,73,4887,8530,8847
18,-94,97,6418,9209,7131
-127,-120,-95,-2329,-2115,-3223
86,-3,-99,1319,-2566,752
92,-64,-99,3534,590,402
-103,88,-84,1047,533,3049
17,-68,43,533,1784,4326
55,-29,-85,1096,2664,6962
-77,5,35,1470,3131,10662
-57,-9,112,11560,3149,7315
-25,54,73,117,5518,-1415
91,17,100,-6463,323,166
101,-52,-15,-4735,-744,5718
16,58,75,-1372,-2177,2721
-104,113,102,1518,-948,-2349
-81,107,90,3320,182,-3491
-46,97,109,3546,436,-2160
-49,64,124,2829,201,-590
-41,66,-90,369,53,18
1,51,-107,-571,101,-14
58,26,127,-778,103,-380
69,15,-110,-833,-346,-713
82,68,-15,-3102,-462,113
88,44,-60,-1508,876,-404
71,-3,125,2134,710,-550
36,47,112,3378,-452,-270
78,79,101,2513,-409,160
104,105,93,561,282,277
111,116,60,-858,707,308
99,100,46,-544,126,352
85,95,47,449,-520,288
75,118,58,678,-629,40
80,-90,89,-348,-477,270
101,-52,121,-1418,-377,164
-125,-82,110,-545,89,72
127,-127,85,875,199,-347
104,-123,61,1545,-27,-443
118,-101,57,1132,68,-134
124,-96,50,642,104,-49
124,-91,40,247,88,126
119,-95,37,238,-72,182
57,116,21,-3783,1585,-3302
-99,99,-106,-57,705,-6475
47,-50,-128,1214,359,-7200
-78,-32,-3,-295,-1128,-5564
-19,76,-48,-76,86,-3716
123,84,-28,-478,-963,-7327
20,-20,-81,-806,-4537,-9214
109,-95,51,3313,-8193,-5654
-24,96,-67,-2595,-4060,-3858
-125,90,-27,-60,2824,1203
62,73,110,-614,3324,6248
18,65,55,1751,5521,7947
71,120,72,2504,3132,2826
-31,-119,-123,122,-2080,-2212
14,-51,-48,1208,-612,-142
119,30,61,2067,383,991
-100,-115,-32,-207,540,3519
120,100,-36,654,2217,6152
-23,-11,87,2504,1989,8771
-22,-34,114,713,524,9972
1,-86,48,1726,731,5970
0,37,38,-2768,1067,4497
-44,57,111,-4198,-1600,3577
73,115,10,7669,-7359,-205
-88,86,3,10288,-3174,-1437
77,32,115,-8959,4171,-1993
-28,52,97,-4760,2255,-2423
4,124,69,1816,1964,232
-75,93,118,5928,-1,13
-22,-47,-79,4056,-803,-487
69,12,-5,937,-1347,-290
60,30,-14,-1422,-696,105
28,11,-40,-1664,183,949
30,-30,-68,549,1806,873
-3,-4,-64,85,288,-507
64,14,-110,1143,-893,-557
69,45,-110,911,-1380,-296
53,76,-104,17,-830,-76
43,70,125,-231,103,-27
22,64,101,1,400,-35
29,82,96,140,-15,24
55,93,72,253,-75,-94
86,98,55,368,-93,-297
92,91,53,465,-100,-372
92,89,53,411,-64,-335
74,90,50,412,-108,-134
71,106,56,181,-211,257
72,123,51,-24,-68,401
81,-116,36,89,16,465
86,-98,24,230,-44,359
43,117,-100,-3900,1436,-2752
49,115,-1,2890,207,-7314
-29,-21,48,3011,-2029,-8160
-10,-13,120,9,-4116,-6501
2,-65,-67,-2958,-4157,-7891
-115,-45,-31,-266,-6384,-9733
-40,4,93,-183,-6806,-3736
107,-63,-92,-3854,-961,-4617
-13,-80,-88,2698,1131,5156
61,-33,90,2269,3825,5817
-34,0,-124,5485,4396,9210
-70,-35,104,-3980,1195,-1492
68,-110,-127,4381,-740,-663
91,-101,4,2469,754,-280
109,-21,68,-681,-271,2207
-85,-83,37,-294,51,2876
-31,113,-74,1586,1201,5233
-25,23,-67,1031,116,9549
3,20,-71,-857,-870,8320
-114,-113,34,293,-1865,7827
-101,-13,46,1459,-563,3208
42,87,-108,3278,-3126,-464
-23,-26,126,14375,-1492,-4432
-87,-55,44,-10238,3037,-169
-73,40,5,-2496,-68,668
-82,-32,97,1937,266,13
-106,-22,-104,2486,-62,-1275
-45,9,-102,1956,-37,-947
19,26,-85,704,64,-189
33,9,-101,173,156,59
14,-25,-125,820,216,-277
28,-29,123,1126,-16,-176
49,-8,114,894,-247,164
39,2,107,710,-376,324
34,40,-115,177,-411,446
59,50,-112,-66,120,270
73,45,124,86,335,120
79,34,91,502,198,-14
80,27,82,890,-103,-285
88,50,82,521,-26,-34
57,76,102,-195,-155,86
51,50,91,315,101,-171
80,41,76,712,277,-266
103,49,53,704,165,-130
115,63,38,356,-38,47
100,87,41,-130,-242,158
100,91,79,-12,-478,54
-125,55,65,1236,341,-306
-109,87,49,913,405,-324
-120,98,43,151,-151,-77
110,74,-85,-2168,1570,-5149
-94,-58,-32,313,1083,-7440
13,-4,-95,501,-1136,-6887
-80,8,74,-2328,-1799,-6413
-91,-70,-121,1270,-4280,-10889
105,-42,90,850,-5514,-8695
-60,36,118,714,-4243,-4061
58,121,-32,3538,1260,257
-126,-2,-89,-1232,199,2267
-36,-34,93,-2353,1545,2561
-17,-109,47,812,5023,6335
-35,-103,-120,3056,5830,6364
-54,-10,79,-1816,-2273,-1757
125,85,22,3425,-1219,-1285
113,-111,119,-198,-112,572
81,-43,-106,648,-338,432
62,-118,69,371,424,210
97,114,67,301,-64,-147
-110,78,63,355,-28,50
-53,67,105,-204,-137,359
50,33,-90,-345,450,885
-33,-85,-111,831,1219,2341
-57,-83,51,323,1666,4592
7,117,-50,464,1202,6435
50,103,105,-883,445,8650
47,53,-20,-422,-2268,10533
20,38,84,1797,-2771,4489
26,-21,-53,3154,-2104,1216
-112,-25,6,17,-1585,1295
-107,50,1,15419,-3796,-1866
85,63,15,-8266,3329,-1872
-104,-20,54,-3188,-150,-28
-77,119,91,1054,1775,-243
114,-120,-71,1161,780,-1069
-79,-113,-34,2215,-367,-613
-30,-74,-11,1557,-397,199
-8,-33,1,31,-55,618
-6,-12,-20,-615,-6,735
4,-15,-49,-285,214,700
-8,-16,-72,464,186,420
-9,9,-81,842,-6,345
-5,29,-83,650,3,161
4,60,-80,231,-56,219
13,37,-107,687,236,-169
26,31,-119,776,155,-270
31,37,-124,459,-46,-308
33,13,121,552,2,-427
54,6,124,519,-90,-273
60,11,123,329,-85,-151
64,10,120,376,-11,-194
118,69,-87,1657,614,-6862
-99,115,0,1224,-2245,-6486
48,-50,-96,-1997,-2803,-6645
-13,26,-81,-3524,-4428,-9398
-34,-5,-124,1557,-6214,-7179
-106,97,-51,-2856,-2032,-3057
100,-121,-86,4157,2165,506
-25,78,96,2446,1971,-943
-68,24,55,-4724,-383,2137
58,28,29,1500,3719,6329
-86,123,0,1911,3650,6919
19,119,-10,-2223,-1511,-710
-92,-91,-29,3624,207,-1387
-89,-117,30,1130,101,262
47,-33,56,-935,-276,1642
-56,25,-73,333,646,3251
126,-35,12,1259,1072,5752
-37,69,81,2147,1665,6865
3,87,0,957,2494,6983
63,76,-40,-131,332,8272
87,-47,-10,2451,-1581,5479
50,-60,-1,2025,-1994,1920
19,-39,7,-4703,-4585,804
-73,43,71,21003,-2015,-4996
-70,-16,104,-7878,3053,324
62,124,69,1519,-1750,1460
46,-127,-79,789,346,-282
59,-121,-30,463,427,-291
-125,-67,-25,140,416,287
-64,-13,-14,221,427,313
-17,-1,-63,471,1086,35
-27,-3,-87,318,971,-583
-35,-32,-91,947,208,-784
-15,-30,-95,1279,22,-626
-1,-22,-99,800,211,-616
15,-36,-118,537,289,-630
24,-60,-127,845,69,-645
29,-73,-124,1071,-182,-496
18,-73,-119,810,-288,-306
32,-81,-113,722,-352,-23
57,-60,-110,400,-432,656
-120,36,-106,-799,-434,976
-39,85,101,-1019,221,664
-97,67,73,-238,419,-28
87,60,82,394,-66,-346
59,89,97,282,-283,-128
63,78,93,421,150,-241
78,52,70,827,484,-311
98,57,64,729,150,-68
93,58,63,495,-131,131
-47,113,-94,1750,-1574,-5714
42,23,-1,1227,-2347,-5139
77,11,75,-876,-3092,-4137
-3,76,-18,-1767,-4010,-6617
9,95,43,-708,-4991,-7246
127,30,-124,1628,-6030,-6396
-91,39,-75,-2107,-3297,-2707
24,83,-93,3053,2014,-1611
-102,59,97,-148,925,3247
83,-35,50,-1274,2737,3700
-24,-40,126,1780,4073,5911
-64,15,3,-687,3524,6628
-43,1,48,-482,-1001,-3729
82,-28,-24,2706,-1312,-356
-108,-25,100,-94,716,230
-98,18,-110,381,-109,323
14,-13,-105,52,729,1345
-14,-63,101,489,1291,2831
117,127,2,1085,2101,4481
-70,50,-59,775,1445,6035
-89,104,77,-1600,632,8028
-127,67,109,-2335,-4250,9410
-38,68,-104,-685,-5252,6016
-36,-126,58,1883,-1529,2771
109,-120,-49,979,-1725,427
-38,37,49,3677,-4201,-704
-12,13,15,8171,2440,-6282
-68,-107,-34,-4158,3527,-2921
-5,-65,-105,-1283,599,22
-56,117,-80,2365,76,1445
-105,-105,-48,2132,153,130
-62,-77,-37,1219,401,43
16,-43,-62,879,701,811
5,-21,-62,224,260,806
-13,-6,-65,25,-242,532
-9,-13,-56,361,-384,169
-9,-24,-58,793,-133,-155
-9,-18,-56,708,15,-283
3,-18,-60,606,-10,-268
16,-18,-68,435,-48,-240
34,-15,-77,259,-38,-257
51,-24,-93,335,13,-370
61,-31,-102,475,8,-503
73,-40,-114,617,15,-545
81,-37,-120,513,-70,-404
81,-35,-124,431,-88,-240
85,-36,127,457,-60,-54
92,-21,119,423,-49,215
95,-7,112,418,-52,300
99,6,107,520,-74,282
-94,-72,57,-2081,-895,-5467
-113,-23,66,-3045,-704,-5836
50,-1,103,-1265,200,-8807
70,45,-33,5808,-2292,-10361
-87,-84,13,1139,-3341,-3982
-19,-65,-123,1422,-945,-715
124,104,-90,2740,722,1397
111,36,109,-3499,72,1586
44,-108,55,-422,2236,3393
-33,-4,-82,608,4101,5872
8,-100,19,1058,3846,9293
73,-121,-111,59,-918,-4251
106,104,-26,2038,-1219,-486
108,-52,-32,1102,742,824
-98,-41,-123,-282,-71,2097
-35,-110,22,-382,-69,4231
18,-65,-125,898,-430,7268
32,-56,-99,2094,-1437,7908
108,-76,-119,461,-913,7604
-99,126,43,4146,205,5168
-66,-89,25,4573,-722,1479
-2,121,-127,35,-2682,-592
-60,-44,-110,1146,-1959,-545
17,111,41,1110,3082,-1493
-110,14,-34,-24,576,-494
-67,-44,-70,356,51,-424
-9,-52,-93,889,616,21
-9,-52,-91,792,512,23
4,-32,-90,519,-12,289
2,-10,-93,241,-191,421
2,-13,-97,356,-85,202
4,-4,-101,545,-45,184
17,16,-92,396,-173,302
33,31,-105,432,-55,246
28,58,-113,120,-96,242
23,61,-121,61,-175,-78
34,62,-128,212,-105,-170
48,62,118,213,-24,-281
51,52,105,475,0,-434
62,52,96,467,13,-442
65,47,81,465,-68,-359
61,49,78,378,-76,-166
81,55,64,272,8,80
86,68,52,293,-25,267
82,80,44,340,-85,183
89,98,41,268,-93,182
98,108,40,212,-19,229
104,113,37,411,33,133
103,112,22,647,69,-27
101,119,20,596,-62,30
63,123,-51,1528,288,-10741
3,83,-119,-158,-5343,-10059
119,10,-106,-649,-6558,-6028
10,25,59,-2005,-3854,-4412
-97,112,108,4043,3890,3784
22,-101,55,-828,281,3240
87,-36,-2,-2731,-80,4083
-63,-59,11,1445,2075,9968
-36,56,-40,145,716,405
85,-116,-31,1822,-686,-1744
76,70,109,2390,972,-987
84,-94,-76,-1004,41,1886
-99,-119,79,-1336,387,3677
-3,-116,-36,1042,277,6453
-84,22,-119,2899,-897,11822
-7,92,-89,2103,-2978,12494
83,102,85,1016,-1075,6348
-48,-7,-21,844,27,-400
0,-28,48,1223,671,-1375
-81,-124,-75,8144,-2825,675
-73,-4,-65,8386,-97,-3821
63,82,60,-2409,2184,224
-69,67,-7,-4273,368,1238
-94,24,-73,-3517,216,1134
-85,-43,-125,-29,21,172
-53,-60,-107,2383,37,-1011
-25,-3,-84,1754,-238,-1142
3,17,-76,540,-301,-727
29,-4,-89,-362,-104,-494
38,-32,-108,9,-118,-283
35,-21,-113,351,-302,30
24,13,-112,50,-269,98
43,28,-128,84,-51,76
51,35,109,301,26,200
51,58,100,240,-137,241
61,78,84,280,-45,131
58,83,79,266,-36,-36
62,84,70,398,-93,15
68,90,66,452,-61,25
66,98,61,421,-50,-39
72,97,52,485,-27,-34
84,97,48,525,-80,-20
86,104,46,425,-96,19
89,109,47,382,-95,43
93,112,52,436,-94,44
96,116,49,472,6,14
106,120,47,475,45,-8
108,121,42,486,29,-33
113,122,37,458,27,-23
117,123,34,465,45,-50
-59,78,48,880,-846,-6473
-83,116,-8,592,-1046,-7953
84,-59,121,533,-3303,-7932
97,9,86,-556,-7443,-6945
87,-77,116,360,-6995,-4659
-59,105,35,-2576,433,-3479
28,-88,117,5792,3903,3177
127,120,66,-3498,2102,3526
116,-36,-126,886,3962,6245
74,-117,80,1776,4134,4813
116,-64,71,-1138,-298,-355
109,-18,-123,3624,-102,-935
88,122,-66,725,-674,1775
103,-76,-81,-2596,-1041,4435
-55,-121,-88,-1022,236,5963
-15,39,124,1173,-819,8135
65,-103,-123,526,-1803,8037
116,-126,82,1789,-1655,5190
91,46,12,1732,318,4483
-71,-86,100,1608,-839,1819
93,107,120,2097,-2186,622
-38,-59,124,5612,-2126,-1743
45,57,85,3204,827,-2758
18,78,58,-3907,134,925
-70,30,105,-1403,618,1156
-92,29,-113,-622,589,362
-76,-8,123,873,760,-785
-30,-15,115,2013,376,-1097
23,9,114,1540,126,-696
65,25,115,573,54,-239
63,23,105,-166,46,-119
51,4,96,89,-163,-124
40,2,102,416,-344,-37
60,30,110,154,-225,169
78,49,105,51,-119,233
93,60,92,272,-81,171
84,79,95,258,-209,111
70,94,104,152,-235,11
68,87,103,355,33,-120
83,70,88,826,287,-150
118,72,64,974,288,127
127,106,45,571,18,385
82,-128,53,-10,-316,132
86,111,68,150,-233,-212
115,82,62,751,159,-193
127,94,58,788,104,-30
-110,96,35,815,87,-99
-128,104,39,624,-190,-128
108,104,58,371,-397,-117
121,101,88,240,-101,53
6,91,-9,2351,-95,-7119
-77,-42,80,1751,-2417,-6061
40,32,63,-2080,-1506,-5762
-29,-85,-31,-1686,-2651,-8855
24,125,94,-841,-4533,-7021
111,-81,-113,1833,-5269,-3528
-120,-102,-67,-1027,-1887,-2118
-39,-83,-119,2544,789,779
-80,2,82,-3287,1314,2523
104,94,46,-378,3236,5724
-17,-13,117,3212,5359,7283
-81,-32,44,-193,497,2020
23,-52,98,1844,562,-2501
-51,78,68,1033,-244,2133
-20,-74,-26,528,-1431,5233
-17,119,-19,-32,-1540,6662
10,-20,-113,-22,-702,7453
115,-5,100,49,-405,5995
-25,-120,-71,1950,135,3087
-83,29,13,2114,-476,1800
-97,-67,-56,1706,27,2772
39,105,-82,-198,41,2003
-5,8,-47,178,-720,878
-24,-122,-83,2130,-410,346
-29,-114,-80,1812,-501,362
-14,-126,-59,900,-468,-41
-123,47,116,1053,757,-612
72,109,116,304,309,-6
-81,92,-54,-557,-1478,-636
-14,25,-74,155,-500,-973
24,-17,-120,1156,573,-999
46,4,111,1145,571,-727
68,13,103,806,161,-598
93,-6,85,796,-116,-416
94,13,104,420,-500,46
76,30,116,145,-463,195
42,28,114,415,-192,96
18,41,114,515,-153,120
81,66,106,264,-128,308
-25,69,36,669,714,357
-115,89,20,833,262,211
58,89,76,465,-843,-172
107,72,97,516,-515,-240
-108,67,83,511,433,-14
-101,74,68,356,556,106
-116,58,56,834,165,-136
-112,51,58,918,87,-255
-114,73,77,268,83,23
-125,81,85,-148,91,258
115,82,84,41,188,358
48,-36,1,-1823,-1601,-5981
40,104,-125,929,-4508,-8437
86,39,54,1189,-6989,-6436
35,-77,-91,-2220,-949,-118
-85,49,95,2568,3066,1220
56,-72,44,-1970,2802,3310
-32,106,-77,-855,2780,6092
-28,-45,-106,2821,2592,9691
21,37,63,152,161,3061
-117,26,42,-2029,689,2276
64,-16,10,2737,338,3738
78,19,-35,1141,-382,5299
86,20,-69,-71,-915,4940
-49,24,78,603,92,4414
-17,16,123,1939,-797,3468
2,-10,-80,1855,-351,2682
-27,-42,-68,2367,-68,2944
109,-74,-13,1534,73,2219
-11,-90,14,447,-99,1668
50,77,11,350,-561,1062
61,82,-53,307,82,1040
-1,25,-71,950,-235,528
-23,37,-38,375,-361,64
-35,-74,-93,1627,236,-1044
-3,115,-81,2225,-112,-1229
22,-119,-56,1195,-186,-529
-5,-123,-20,535,-566,25
3,-101,-47,-247,-146,-124
15,-118,-52,162,-291,-136
29,-113,-77,587,-81,-110
32,-88,-83,484,19,-60
45,-57,-93,136,-31,45
61,-46,-109,299,26,8
79,-7,-128,184,49,-69
72,16,124,51,-67,-128
83,41,118,-20,-6,-184
97,85,106,-199,81,-321
110,104,101,-220,64,-530
98,86,88,508,44,-892
80,95,95,641,-134,-933
69,100,96,458,-87,-948
77,108,88,429,60,-743
88,108,69,542,62,-793
91,122,71,437,-228,-398
82,-127,79,317,-226,-143
114,-96,78,38,93,213
119,-64,77,-278,82,359
125,-51,71,-51,-27,356
126,-45,69,479,-114,189
-95,-44,72,724,-99,-125
118,-119,54,1006,-1573,-5599
-112,108,45,-517,-1158,-6057
62,77,-53,-1091,-3696,-8281
112,19,-104,-611,-4740,-7587
-84,-46,-62,-411,-5387,-4255
2,61,-81,1749,3016,1594
83,28,69,1320,2543,5353
-72,65,41,792,3193,5232
-106,-9,-22,-977,2873,5712
114,-58,-41,-377,-1431,-3916
8,-55,77,3727,-1367,-544
-90,-2,75,779,44,2557
104,38,-50,-994,-787,4138
-117,76,13,530,128,7350
-29,81,-122,1221,1680,7700
41,-83,-53,692,279,7084
68,114,-37,-54,-786,3512
-102,17,-103,1434,-137,2951
99,112,-77,2622,-441,2536
86,110,-33,1434,-963,2404
45,10,-36,1576,-586,1462
51,-18,-33,1241,-357,1482
25,-88,-30,1194,-181,994
4,-118,-20,1216,-154,268
9,-118,-10,876,359,-88
19,-98,-5,-374,655,-192
41,106,-50,84,801,-645
46,65,-60,820,533,-922
67,61,-61,722,510,-748
68,51,-66,538,282,-663
92,31,-79,778,-63,-546
105,32,-74,607,-342,-424
114,29,-82,458,-194,-421
-126,59,-55,183,-338,134
-63,106,-28,-551,141,124
-45,112,-31,167,72,-1
-89,103,-70,1205,-193,-29
-105,124,-54,599,-320,103
-94,-123,-79,561,504,404
-107,-112,-46,667,-98,239
-88,-125,-96,915,100,280
-84,124,-94,930,-22,165
-88,114,-109,607,119,20
-95,91,-97,481,-122,120
-90,62,-99,616,-32,294
119,72,-92,641,-458,-111
-123,-94,-75,-660,-709,192
-45,-78,-94,-290,93,84
-62,-122,125,1612,60,-1032
-92,-93,-102,1148,-89,-939
24,-62,81,-2828,-3329,-7732
-125,81,55,-132,-9464,-5869
-76,-31,-110,255,-4819,-4545
-28,34,-56,397,2104,629
-77,97,96,893,3650,3868
55,-31,41,-2726,2366,3968
-97,-2,52,430,3954,7182
-14,14,55,3476,4775,5884
73,-110,-71,-3239,-811,-2194
-83,53,107,2000,-1692,765
-41,-49,-99,1756,-230,3347
-76,-100,94,327,-372,4259
-46,22,-15,323,571,6309
-4,-60,-48,2220,-731,8055
120,-44,-107,1123,-1751,7062
65,124,102,42,570,877
113,28,-102,1549,-324,647
88,-12,-63,1072,-150,1868
8,-103,-71,1180,-336,1377
8,109,-58,1869,-395,724
6,69,-58,3025,-466,37
9,100,-43,1721,188,246
-26,96,-19,252,161,-393
-26,14,-53,709,28,-665
-9,3,-47,388,191,-168
-14,-16,-54,-309,238,-95
0,-41,-92,250,186,-247
23,-37,-104,588,-35,-403
41,-36,-107,526,-196,-667
58,-31,-101,201,-213,-445
67,-28,-101,-24,-165,-240
66,-33,-108,244,-124,-133
69,-23,-113,320,-66,43
75,-2,-124,394,-12,229
82,22,124,249,34,307
90,39,109,299,69,297
93,49,96,378,102,245
96,59,87,460,32,202
101,76,78,437,33,79
105,83,69,327,60,33
106,93,64,71,-42,49
106,90,59,198,-153,-14
114,89,66,425,-44,-145
124,86,63,522,3,-151
-124,92,64,438,-96,-174
-123,89,65,454,-68,-112
-122,97,74,340,-46,-5
-117,95,67,541,25,22
-107,111,62,463,28,69
-107,122,56,408,13,30
29,-121,-120,1320,-917,-6373
80,-33,-116,-1301,-1856,-9345
124,-115,-57,107,-7137,-8409
83,10,-11,1070,-5770,-4365
-16,-17,18,-3975,-2984,-2484
102,106,-128,1150,1805,3331
-16,-89,78,983,3040,6799
-121,-35,-29,2097,4418,7917
124,-96,-69,388,5768,9963
50,48,55,1682,251,-1813
-99,-62,7,736,-151,845
-10,43,0,848,-830,2578
13,-122,-45,673,-871,5230
53,118,-120,939,-647,7286
-94,-125,48,126,-616,8412
-49,-106,71,-1269,-966,3480
-76,-113,105,1736,-346,571
-79,61,-77,2566,-172,730
101,15,123,1823,186,617
25,-59,-125,1220,-168,18
-20,91,-121,1939,-418,-485
4,75,-114,1955,-169,-228
-5,94,-78,430,-218,256
-10,85,-73,-402,-123,161
6,34,-100,320,200,-289
22,-12,-122,1003,288,-862
11,-83,-115,1893,73,-1306
30,86,-117,3264,-322,-1115
114,-93,-90,1967,99,-227
112,-43,-72,-848,287,179
103,-51,-112,-1374,200,383
86,-74,102,-348,40,281
89,-49,97,607,-4,109
92,-6,97,549,-35,-8
109,23,89,156,-19,77
112,20,81,286,-124,-27
113,18,86,452,-126,-128
117,19,89,401,-52,-107
125,29,87,223,-3,10
-123,36,76,265,-20,-38
-121,43,73,353,-16,-49
-120,55,67,288,32,-32
-117,68,60,296,26,-27
-111,66,54,451,1,-39
-108,85,52,297,-15,0
-101,84,48,357,29,-46
-94,87,44,400,5,9
-94,104,42,306,-3,53
-90,103,40,411,37,32
-87,125,41,230,-41,67
109,71,85,-6506,-1511,610
54,98,42,4361,3651,-6770
-50,-58,80,1654,1314,-6310
17,38,63,2417,-491,-7374
-81,-56,76,1486,-1953,-6723
-18,19,-108,-4890,-3280,-8333
86,-74,59,-1149,-7149,-9937
119,-32,-92,360,-4361,-6015
-83,24,-26,1712,2451,-982
-94,-60,114,888,1226,3671
-29,-109,63,-2808,1161,5189
-79,-26,54,2284,3076,6973
-85,-24,83,-98,3127,6154
-105,-29,5,-3382,-1360,-4215
74,-115,-126,4299,724,1198
-81,-5,-4,3199,1341,2409
-114,59,68,-306,376,5041
-50,117,-35,-703,-273,8588
30,-36,98,-1943,-947,10391
-42,-53,39,-109,-1068,5510
58,42,-64,4600,-2482,4402
-37,21,-79,1322,-1375,3128
-5,84,-111,679,-766,476
0,-75,-92,2595,-581,-886
51,-96,-82,3334,-486,-246
5,-67,-74,1176,317,-201
-46,-117,-63,-306,612,-823
-40,11,-81,669,509,-1178
-27,-22,-83,1479,295,-1233
4,-23,-80,1125,254,-999
56,-26,-92,512,387,-667
69,-31,-108,20,389,-442
83,-41,-117,93,271,-475
101,-41,-111,352,252,-674
122,-32,-109,666,180,-399
121,-10,-100,545,93,-125
121,19,-84,385,255,46
-126,31,-67,733,879,-192
-28,-104,37,-537,1607,196
-98,101,8,773,-898,429
-93,77,-59,1418,-1030,329
-61,105,-104,630,120,195
-80,-126,-85,-575,191,121
-73,85,-111,56,-245,-43
-66,61,-106,1031,-237,-219
-58,99,-91,514,-32,-27
-75,106,-98,-35,-130,109
-83,92,-107,294,-193,157
-79,103,-118,276,-44,173
-74,-126,-107,62,-85,207
63,-105,-65,-353,-4106,-7932
40,-60,-85,-1776,-6014,-6325
52,-121,101,-1320,-5590,-4136
-42,106,-79,-568,566,-1660
-4,-43,69,2328,3103,2842
-16,-13,42,-2393,910,3623
-52,-125,96,-59,1892,6599
50,-101,84,1286,1944,8035
59,18,37,1172,-625,-1280
-44,18,-4,484,167,1425
-90,-126,-93,2685,-413,1762
-41,-36,85,1135,-677,4767
-12,-75,-15,140,-341,7438
23,93,-76,1424,-641,8561
62,-88,-97,1336,-514,4485
-2,-28,108,2240,111,3993
-57,-124,104,3335,-591,3040
77,113,-68,110,-1456,1267
-22,-43,-49,1608,-2135,-513
60,-112,16,4454,1104,-1854
7,-41,81,-767,1119,-581
-65,10,-43,-890,-206,-273
-42,-19,-67,-260,369,-422
2,-49,-83,595,645,-701
38,-88,-119,1774,604,-679
15,-25,-95,1288,-229,196
-7,34,-53,-345,-652,505
24,16,-77,-516,-65,282
48,-3,-104,400,338,65
55,16,-120,743,236,26
28,42,-115,500,-247,10
24,52,-104,303,-231,-125
-88,8,123,631,392,-371
-62,30,90,813,356,342
12,85,-116,-242,-863,123
48,46,-104,29,-285,-330
89,19,-122,781,648,-178
85,42,111,889,355,142
93,72,94,517,-51,393
103,77,74,288,-91,187
127,88,72,304,-195,207
104,112,94,155,-257,135
69,117,113,355,-306,-131
-114,68,88,916,322,-711
26,66,35,1066,583,27
115,-89,65,-351,-738,660
53,-118,110,-872,-1047,-574
-102,66,79,685,431,-818
-88,77,62,1276,664,-123
127,-128,52,403,-9,170
113,111,6,-142,2123,-6704
38,96,-69,298,1195,-5732
42,-51,125,704,1234,-7355
12,-122,122,2059,-132,-6839
0,-77,1,185,-667,-7689
8,73,-53,1552,-5069,-8186
17,73,-43,1215,-6028,-4185
3,-64,-94,-1532,-4566,-3243
121,42,-92,-45,839,-771
-58,-37,95,268,2532,3112
75,125,42,-1518,3203,4017
-6,44,64,1233,3983,7325
51,104,-49,370,2046,994
-81,62,101,-1813,-3406,287
38,38,0,1015,-215,565
82,-69,-27,1910,-129,3065
-106,-41,-122,906,-1131,5119
-36,-23,-1,1094,-1255,7807
-19,-103,-48,566,-2798,7729
92,30,-103,2083,-2262,5878
-35,-122,-14,2562,-2148,4266
74,5,-38,1331,314,780
60,125,115,1968,862,453
15,41,-76,913,-360,545
-38,-90,-79,2605,-903,54
-34,113,-103,3352,-537,-134
-53,-116,-53,1927,-396,-221
-46,120,-29,838,137,-438
-50,70,-44,-117,548,-353
-43,14,-62,412,167,-462
-29,-12,-69,765,327,-512
-21,-9,-74,430,280,-497
13,-9,-92,367,429,-225
35,-2,-117,414,483,-107
48,14,-125,431,212,-144
57,17,-96,644,-134,-264
97,14,-113,852,202,-345
115,31,-117,476,269,-485
112,15,-122,514,213,-529
113,5,-110,577,49,-526
121,3,-114,532,135,-502
-110,-11,-116,575,48,-355
-59,10,-102,468,-62,267
-98,43,-85,372,-292,781
126,49,-89,613,-144,564
116,59,-114,651,158,310
-119,73,-112,519,-60,504
-99,89,-114,424,-113,500
-86,109,-109,357,-127,301
-89,111,-106,477,26,2
-43,-76,104,2039,-1302,-5062
77,-66,93,3608,-944,-5899
118,-54,-72,1562,-2754,-6089
55,-49,-98,-1254,-6116,-6404
12,-117,-37,-1784,-6566,-4481
-22,-12,1,-3402,-5482,-3817
-102,13,121,3695,2683,-470
91,-91,75,2031,651,609
-122,33,44,-4695,-47,2000
69,36,-90,2516,4459,6538
26,96,84,2637,4729,7623
27,-80,-9,-2134,-935,1043
32,52,78,1832,-262,-1122
-122,-120,-95,1127,-935,2697
-12,-101,-10,-576,412,3945
-78,113,30,544,-1272,6189
14,-16,124,521,354,6998
99,-16,-87,671,-1193,8596
-125,57,-110,763,-1608,5776
-17,41,-121,699,-1280,4131
-112,-92,-56,342,-1225,1916
118,29,-107,2715,-287,1036
53,-37,-52,4465,-1326,-1013
7,-72,-30,4772,-1529,-1562
12,-38,-1,1314,1542,-475
-97,87,-1,-849,1577,-185
-116,4,-74,-215,741,367
-85,15,-71,384,-119,210
-53,11,-75,721,-274,-369
25,4,-90,759,326,-946
45,-19,-107,742,432,-1248
44,-55,-111,849,-36,-1308
47,-67,-96,780,-445,-944
53,-68,-83,566,-544,-423
60,-42,-70,79,-378,197
64,-26,-80,80,-176,365
69,-6,-89,295,-125,420
73,4,-99,580,-18,429
76,24,-107,591,-3,522
95,59,-116,433,39,598
103,63,122,545,626,352
90,85,-126,115,245,173
86,72,109,601,-341,41
110,71,91,768,-63,-197
-127,85,82,504,186,-318
115,80,80,358,-19,-455
120,56,78,655,39,-542
-112,60,90,492,97,-500
-100,65,99,279,-1,-409
-83,47,93,634,290,-438
48,18,-21,1775,724,-5908
35,-19,-125,5033,271,-4069
101,-82,-111,1138,-1855,-6980
-66,-94,120,-990,-3198,-8557
-32,33,-31,1076,-5613,-4829
73,-3,116,508,-5964,-3276
-115,6,-94,2574,961,1282
-112,-93,79,3691,685,2891
47,-79,53,-4601,359,3064
-128,98,22,2714,3229,6183
-98,1,45,1670,3918,7082
16,85,6,500,514,-1416
-107,-109,120,-490,-479,-602
112,-49,0,3036,-549,460
-80,120,100,428,-1105,2870
-34,89,13,209,-320,4592
-3,-109,-39,1452,44,6957
4,-111,31,3260,-1395,8583
94,53,-73,3050,848,4011
23,79,-57,2096,32,910
-89,9,80,514,-1313,1373
0,47,-27,126,791,2000
-10,-95,-52,-7,621,1654
-38,121,-55,517,-263,1026
-29,78,-66,1293,-316,418
-22,87,-63,844,-214,-85
-18,91,-57,438,-205,-1015
-9,60,-80,1724,-53,-339
-16,72,-60,980,124,18
-19,50,-74,673,288,20
-15,30,-89,898,210,70
-2,42,-85,677,-25,209
23,52,-93,194,-42,105
40,42,-99,268,-74,-97
43,21,-107,637,-88,-338
47,26,-102,540,-72,-351
65,29,-107,391,-1,-251
71,17,-120,544,14,-277
76,19,-123,541,-15,-219
81,23,-127,427,-22,-92
93,29,121,403,-29,74
95,41,120,377,-47,120
96,46,114,469,-7,84
105,60,110,459,17,137
107,66,102,468,16,137
112,74,96,465,8,115
114,83,91,419,-28,80
119,89,89,398,-17,50
126,93,86,389,0,22
127,96,80,419,-43,-59
120,91,-5,1580,-1958,-5858
-106,64,-7,41,-2975,-5611
0,-53,-39,-2861,-3308,-5602
94,-117,19,-2051,-5706,-6820
19,-38,-40,730,-5634,-3781
47,-27,126,-2553,-4974,-2452
-120,-33,-33,2911,2574,-1743
36,-89,-124,293,2381,3330
-70,-61,64,-3862,2145,3315
-110,22,90,846,2776,6212
53,47,-102,2487,2046,6484
-35,-11,-122,-459,-870,-721
-85,-52,-45,1447,91,-437
-115,-56,-113,2408,86,1450
-29,-107,-6,1020,699,3470
-13,-22,-47,664,1744,6153
16,-68,-120,1804,631,7519
108,-124,-105,970,-746,7777
127,100,91,-1724,-1777,5200
84,-5,86,-855,-2314,3271
59,6,-89,2575,-1744,1293
52,-73,-27,3588,-811,-107
60,41,9,866,-888,237
-70,-103,-22,2381,121,-1655
-55,-122,-43,1364,817,-184
-109,90,-56,283,947,-31
-91,41,-95,441,771,-197
-44,-1,-121,1419,557,-730
-3,-4,-125,1243,109,-1036
36,23,-99,-36,-315,-778
80,0,-100,-534,-254,-684
88,-35,-123,95,130,-849
80,-46,-128,531,90,-784
78,-28,-127,449,-92,-366
89,-9,125,194,-106,148
94,8,118,101,-50,380
97,29,110,228,-49,508
99,48,108,372,-12,582
103,64,100,453,81,525
104,85,88,522,100,488
107,94,81,555,67,373
116,97,67,628,70,216
116,108,62,520,-42,-34
114,99,70,545,49,-431
115,78,83,775,70,-673
-126,74,102,514,111,-1141
-42,41,120,1024,119,-860
17,98,-109,500,334,233
-85,121,-97,77,-272,456
-125,97,-115,417,-197,225
-3,51,61,-825,-2208,-5438
48,-95,65,-1286,-3267,-6308
9,-81,91,-2500,-6126,-6746
31,103,82,174,-4005,-5016
107,32,-74,-1379,-3907,-2974
68,-106,-88,101,1162,355
30,22,103,-369,1447,5015
-68,-14,35,350,3668,6118
98,-114,72,1950,3843,5684
-40,-5,79,1785,554,-1703
-118,-121,103,957,386,950
-28,-12,69,2495,804,1680
45,-90,-19,872,741,3888
57,-85,-28,210,1220,7568
22,70,-112,2982,520,10637
106,-59,85,-13,1565,5928
-60,92,125,1733,-115,5103
-123,-124,-52,-388,-941,3806
116,5,-119,-1071,-670,1986
60,-66,-93,1182,-571,969
-5,-95,-84,2486,-621,-225
-57,-113,-73,2267,-584,-874
-51,124,-54,1098,285,-690
-49,88,-46,-286,545,-110
-68,40,-75,337,273,-187
-41,25,-89,744,116,-393
-5,18,-118,734,265,-809
7,11,-128,419,200,-972
15,10,-124,49,-112,-768
36,5,-124,-84,-247,-593
66,-8,120,212,-78,-536
91,3,114,355,-64,-291
71,29,121,141,-190,-41
55,40,122,-27,-246,66
61,61,121,-42,-136,321
124,46,88,671,319,438
-117,81,57,823,276,936
41,-90,72,-261,-500,880
60,-97,87,-428,-477,256
101,-126,75,474,145,-43
115,114,61,1200,375,-316
125,121,50,1200,193,-411
-124,104,39,1028,37,-450
92,124,69,253,-361,-179
55,120,94,-29,-237,-416
-72,-1,48,1553,536,-793
-21,40,7,2002,744,594
88,-91,58,-388,-738,1213
69,-88,105,-1967,-1596,371
-91,117,56,-117,-54,181
14,55,48,-5610,-4457,1309
124,-95,124,-1865,-255,-36
-57,-94,0,612,1586,-53
-89,6,6,920,1230,-58
-74,57,1,34,-991,-340
-97,52,-77,65,-1722,131
64,-18,74,-2,2365,159
-84,61,82,-534,-445,-318
-79,0,56,2138,-458,-543
-90,34,74,1653,-354,-524
63,16,-7,616,-327,-956
-17,126,-122,1459,-764,-553
4,115,-76,1818,-1288,-2587
35,87,39,-1018,-361,-2538
24,-3,-37,-1855,146,-2645
74,-41,78,-2700,-123,-4991
-87,-38,-50,-1281,-1245,-5804
-63,-119,54,-1061,-521,-4976
-55,-38,102,-221,-124,-4814
-13,-7,59,-1363,-694,-5749
90,-4,-27,-54,-6620,-6045
1,118,-9,1536,-4470,-4518
16,-36,-32,-2080,-2922,-2792
-53,60,-97,644,2246,605
73,94,74,1145,3717,2701
106,46,37,-1556,3005,4335
-101,-45,-102,2871,4994,5156
-10,-91,59,-1818,1315,3887
-27,117,37,1786,-817,166
-8,117,24,1334,-285,2652
43,-41,-127,1351,989,3987
-6,-122,2,921,-528,7236
14,47,115,617,462,9160
65,-63,-127,573,-6,6801
118,77,-55,2739,-831,2054
97,-70,-121,922,422,2070
-82,100,115,-392,321,1722
-20,-58,-104,336,-660,237
-32,-127,-109,1695,-1004,-597
-8,98,-92,1630,-435,-677
21,67,-82,891,266,-408
-12,62,-71,289,197,-164
-23,1,-83,927,114,-606
17,-51,-103,1638,244,-860
34,-23,-99,1143,67,-310
32,16,-77,-69,-229,270
45,4,-89,-333,-63,88
93,-34,-124,670,316,-221
91,-17,122,1055,187,-242
62,3,-127,553,-167,-256
33,-38,-115,1313,-1911,-4883
-5,84,-117,1480,-2088,-3763
-27,106,120,598,-4117,-5457
-110,98,85,-1753,-6981,-6794
20,-44,110,-1733,-6915,-4091
-94,96,-30,-3426,-6895,-3888
-88,73,-50,-2185,219,-1853
94,-97,124,4884,4020,3059
-22,-104,60,-2148,1247,4573
-44,18,-108,451,2803,7686
-43,77,117,3636,3510,5263
28,-83,-13,-2248,-862,281
9,30,-113,998,613,726
25,-67,27,2302,674,3189
91,-97,-77,1335,666,5229
-107,-77,-121,1563,-233,8148
-13,-101,34,345,-415,8866
45,-86,29,2131,-1381,6311
63,-35,29,2762,-1077,2444
86,-87,112,-275,-2359,-488
27,25,-90,2126,-2997,-1377
32,-66,89,-178,3793,-1306
79,-55,-82,1223,-791,-1130
-64,-28,-85,196,-186,-960
20,-16,-120,-262,1096,-219
24,-17,116,-1255,1171,-223
30,11,78,-535,-252,-498
85,47,90,424,-317,-284
84,77,91,429,580,-352
73,106,105,-144,92,172
44,56,80,850,-1537,486
33,102,110,383,-883,0
110,-76,90,-109,2083,533
-118,-60,-114,-1459,1612,-50
111,-102,105,303,-703,31
-109,103,99,1706,493,-399
-59,-68,-95,282,1048,-397
-84,-86,-102,-46,-982,392
124,-103,85,304,-825,471
-102,123,-68,355,504,-734
-95,-86,89,919,-161,173
-87,-69,125,678,-488,-69
-95,-63,87,1033,63,136
-51,-41,109,-84,1232,-50
-90,-70,124,183,-786,68
-69,-103,87,434,256,-174
-45,-67,114,132,632,9
-48,-85,112,514,90,4
-26,-97,-122,768,355,-125
-22,-90,-108,663,-139,-206
29,40,-74,-565,-2615,-8115
-62,-29,-68,-579,-5824,-9131
90,-37,-117,258,-5533,-7630
-31,67,-42,-1678,-3595,-2706
-96,74,-69,-2781,-378,-1926
110,-79,113,1840,2037,3206
32,-36,62,1022,2024,3942
-76,94,-19,899,3447,5552
48,17,3,3176,5078,8346
59,-65,-18,-547,-244,-2588
-22,24,-66,-161,-45,-885
-22,-121,102,1577,290,1681
34,-119,4,894,234,4007
106,127,-60,-326,373,7331
-128,-5,66,860,-214,9087
-55,4,50,2747,-1312,6284
-15,-109,-87,2178,-1479,5864
106,60,61,-3177,-1143,2606
-76,127,123,-1665,721,2162
101,56,-82,114,17,1134
-44,127,-88,2722,-462,-1886
-52,92,-101,3577,-579,-2173
-49,83,-74,2311,-380,-1412
-37,62,-65,626,235,-238
-4,64,-65,-310,284,610
-13,36,-95,122,122,246
-1,25,-112,464,62,-329
20,11,-115,1001,-24,-527
33,9,-115,852,83,-493
49,8,-122,598,173,-271
46,5,126,470,182,-142
61,13,-126,448,-18,204
58,5,93,502,-36,177
74,35,107,116,133,109
84,43,88,347,105,32
87,48,87,495,-55,29
89,51,92,431,-259,-169
81,51,64,585,-717,-146
90,56,58,286,298,-386
97,99,123,280,-35,-844
46,108,82,944,-2969,276
79,61,41,538,1870,-1140
-58,-69,118,-1097,4947,19
-128,-50,-89,-4086,6559,-1828
39,-7,-75,2147,-2551,1247
90,-19,19,1603,-539,-658
0,124,-47,3067,-1048,-395
2,-84,-51,1968,-794,331
-1,-72,-44,377,-690,155
3,112,-98,1031,-281,318
0,-86,89,926,-1675,-5992
110,-86,13,-668,-2512,-6507
31,94,-86,-50,-4638,-6882
-69,-59,-97,-413,-4821,-5448
-78,-82,-100,-1026,-4013,-4178
34,63,-120,-1111,-690,-1791
61,-52,74,3405,3432,2019
122,-107,40,-2396,1009,1906
89,4,-33,-820,1686,4623
-8,-7,-125,2028,2178,7408
22,2,5,1280,966,6828
1,4,-81,854,442,-936
-101,117,-27,370,-576,-581
108,23,-44,1549,-1684,1935
-68,-58,63,1013,-498,3526
-24,-61,30,907,-756,5990
-26,-60,-103,1252,-721,6975
30,-70,-74,-279,-1478,7159
78,-94,-128,1053,-678,4729
-86,-106,123,2921,-365,2579
-77,-42,-40,735,-728,722
12,3,-58,1713,-539,-429
-34,-102,-44,2119,-241,-465
-46,114,-3,1532,-487,-289
-24,93,-38,644,312,-179
-23,73,-63,-56,592,-115
-33,17,-73,167,198,-367
-31,-24,-96,1321,243,-664
0,-12,-89,1045,201,-641
13,-9,-93,479,204,-421
31,-17,-106,399,272,-189
44,-14,-118,374,129,-20
52,-10,127,475,91,-26
60,1,-124,478,-27,-62
75,13,126,392,16,-11
74,29,-121,83,-335,105
74,16,125,454,-125,-6
88,28,-124,692,107,46
96,58,127,233,134,171
100,65,-119,246,-89,152
113,58,-128,650,189,-103
126,71,125,506,288,-146
-121,66,107,597,291,-195
-121,62,98,782,164,-323
-113,70,93,821,103,-323
-115,73,94,1319,-167,-586
-104,71,111,1366,-119,-886
-80,87,126,592,95,-502
-68,81,-126,9,0,-232
-57,49,117,399,7,-243
96,80,80,-475,-2526,-8257
113,-100,15,-436,-4641,-7711
40,2,97,280,-4921,-4003
108,-31,-30,246,-332,-2240
88,-92,102,2502,704,1512
-53,-10,68,-2797,545,2342
21,-112,39,212,3372,3540
-36,-33,-110,232,3022,7210
17,-97,7,-728,1770,4998
-29,113,5,3404,-437,-2019
-112,-2,22,802,-322,741
-75,121,17,1020,-221,2173
-49,-44,114,-274,-605,4894
-26,115,-42,1203,-589,6868
82,-74,80,2669,628,6995
-108,121,124,2123,-89,7146
-106,-59,107,1125,704,3676
-59,79,91,2119,-282,2628
-39,-45,-111,-1216,-1170,4004
52,92,-85,-860,-1182,2612
-4,-36,-62,1838,-864,763
-26,-27,-37,2116,-583,-942
-92,-99,-26,1116,-85,-1669
-84,68,-31,805,545,-1992
-52,9,-53,770,722,-1662
-11,-38,-79,1300,496,-768
-16,-25,-69,621,86,-386
10,-35,-84,338,75,-454
31,-55,-105,450,115,-384
38,-47,-105,310,8,-135
42,-42,-113,400,3,21
46,-21,-118,456,-28,177
50,3,-123,346,-27,289
59,25,123,282,3,330
70,39,117,275,-19,330
75,52,108,343,-34,233
81,63,102,472,-43,14
88,63,100,560,-8,-157
92,64,97,506,-25,-128
91,61,95,464,-36,-188
100,55,89,566,-7,-224
106,56,86,513,-34,-154
115,54,81,506,-31,-158
116,54,80,493,-74,-99
122,60,81,454,-69,45
-127,70,80,497,-19,22
-127,74,72,503,-12,-70
-120,75,69,466,-45,70
-119,92,69,322,-91,208
-112,95,63,489,70,10
