AccX,AccY,AccZ,GyroX,GyroY,GyroZ
-91,-43,-71,4573,-3230,-230
14,-60,-109,-170,-2381,193
82,-69,-87,-5134,1553,-1817
-73,-64,91,-2438,2896,-2782
24,-66,-25,-1850,3339,-4244
71,125,-8,-3650,2301,-4896
-128,100,14,-5187,1379,-5458
56,-125,55,-4687,657,-5392
108,-65,-113,-5133,-360,-5177
67,-39,-14,-3263,-408,-5678
116,-44,-74,-1623,-911,-5692
-3,-94,-68,-329,-1530,-4490
44,101,117,688,-170,-2238
80,-47,86,1475,2460,1326
56,-19,-62,1053,1576,5309
-96,99,125,2920,2835,4586
0,76,97,3982,2633,4748
-91,-128,123,2383,975,5385
-68,88,117,1473,-1024,4263
-36,93,106,3303,-1592,4951
29,-46,25,3886,-3173,5434
116,57,-94,-196,-2034,6743
-60,61,36,-1318,195,5410
125,104,-72,1224,-1660,3653
-23,-99,26,1388,-1800,717
107,82,70,599,-26,-1358
-26,-74,29,1251,1005,-1548
-29,109,-35,1206,985,-1589
20,47,-89,982,641,-810
-4,57,-76,1,-98,-384
28,-3,-86,-199,-78,-560
59,-8,-101,-299,188,-747
74,-27,-110,-148,65,-732
85,-18,-118,-105,-17,-387
84,5,-125,-394,-54,-333
76,26,114,-536,-41,-254
71,17,108,-129,-93,-120
73,16,107,324,11,146
80,43,104,390,97,393
85,79,102,-214,-61,522
99,92,99,-319,-123,488
110,93,88,-27,85,269
107,109,76,-195,-21,131
83,122,84,-425,-176,114
97,115,74,-205,204,-60
118,110,57,98,29,-116
118,119,58,22,-16,-131
124,119,58,-32,112,-251
-120,105,51,162,17,-271
-121,115,55,-189,-98,-115
99,-111,103,-3033,1713,-4539
99,-41,26,-3976,833,-4634
22,41,4,-5290,620,-5166
83,57,83,-4586,132,-4957
70,40,-19,-3990,-352,-5298
122,100,91,-2549,-940,-5418
-10,60,-26,-361,-1035,-4939
-18,-44,80,338,246,-2720
5,-34,61,3499,1195,-375
48,98,-46,-406,3083,4407
125,-12,57,561,2966,5497
39,-93,-44,4022,3460,5057
16,-100,-122,3636,2721,5584
120,46,-102,1441,-921,6938
108,-84,62,411,-750,5617
112,-97,-66,3053,-1848,4665
-84,13,49,845,-1516,5913
-27,77,-114,-1405,-696,5811
-90,65,105,965,-1283,4062
-69,125,-49,1777,-1554,408
49,-29,52,2212,789,-2319
56,-88,83,1272,1329,-925
-48,126,84,914,-282,-105
-23,98,46,-380,68,-68
18,12,-43,-698,566,-786
30,-95,-107,1073,345,-930
52,-22,-107,-559,141,-799
81,-87,117,-246,202,-878
102,-119,116,571,28,-343
92,-75,127,-27,-151,-18
101,-43,124,-254,-181,153
105,-16,121,-41,-260,-28
111,7,121,-143,-177,-113
100,12,-128,-314,-127,-34
91,9,127,-203,-52,231
89,21,116,-194,66,389
95,64,92,-414,141,427
106,69,67,-58,209,206
105,83,56,-13,123,-109
109,67,53,34,114,-227
121,61,54,-57,-4,-113
125,59,59,-126,-61,-113
-126,59,64,-116,-43,-172
-114,55,66,-13,-14,-188
-106,57,67,-49,-8,-64
-104,62,64,-51,4,74
-102,74,64,-26,8,143
-104,89,64,-97,-10,180
-101,102,63,-102,46,167
-96,111,58,-6,88,126
-62,-64,-125,-2864,-520,-4773
6,49,54,-6929,-911,-4269
-75,-40,26,-8968,-1455,-3490
26,-128,-117,-9026,-834,-4373
90,-115,-82,-5219,-917,-4960
117,-53,-34,-1729,307,-4982
-67,3,40,-1469,-540,-5320
-109,-112,-106,-501,-314,-4076
-55,-13,86,2019,-251,-2237
35,-68,71,2010,876,1612
97,-100,2,2173,1775,5478
-43,68,-26,2717,4190,4487
115,20,26,5275,5020,4475
-11,-20,-103,3087,2728,6326
50,-35,82,909,1154,5775
-109,93,13,2955,-456,5858
32,73,-68,-979,-2250,5655
40,7,111,475,-3701,6273
-116,40,-36,-509,-1492,5609
116,111,-46,-129,-38,3578
-51,-104,14,1869,-1209,757
-15,46,-18,752,86,-2669
12,-98,-29,16,1851,-2673
-4,-4,-104,1379,668,-1315
-6,-3,-88,1217,-77,-327
-5,37,-105,-613,187,-196
12,18,-119,-748,-88,-178
34,-1,123,64,-132,-298
61,6,124,217,-9,-393
61,17,126,-103,-57,-354
69,10,125,-156,-129,-270
68,9,120,-81,-167,-149
69,23,105,-53,-89,48
71,50,94,-375,-60,184
75,55,80,-218,-28,164
79,67,70,-93,10,124
79,79,64,-109,46,106
80,90,60,-223,10,101
85,91,47,-99,5,23
92,96,44,-67,17,13
91,103,45,-104,-18,-21
101,106,42,-67,18,-37
105,107,38,-56,19,-42
113,112,36,-132,28,-40
116,108,33,-34,-15,-80
121,111,33,-36,32,-55
126,113,30,-27,46,-5
-127,117,25,16,1,1
-122,123,24,-40,38,40
-117,126,20,-10,22,32
-87,40,-125,-5127,1603,-5108
109,7,125,-4627,989,-4461
124,92,-73,-5911,536,-3842
7,62,20,-8936,502,-3001
116,74,-60,-2058,581,-5119
66,-113,93,-1508,437,-5504
-48,-72,-99,-1151,-595,-4969
-47,-12,50,710,-222,-3995
9,127,23,1170,975,-1745
74,16,-118,-794,1620,3028
90,117,17,129,1537,6303
-20,-118,82,3670,3336,5067
90,51,24,5927,2860,4979
65,40,-107,4017,1747,6647
115,74,-6,917,-1010,6500
77,-77,-27,865,-2795,5587
36,-1,30,1827,-4103,4961
104,16,-72,430,-3309,5350
-36,84,-37,-1936,-370,5269
107,94,-26,414,-1219,3689
121,85,105,2547,-1626,130
50,23,87,1979,470,-2263
12,-71,19,1511,1382,-1892
-19,93,-57,814,830,-1404
2,60,-60,416,-4,-908
37,27,-83,-453,-89,-850
54,-6,-97,-472,108,-835
65,-26,-109,-186,103,-628
68,-19,-114,-207,-42,-322
78,-15,-118,-231,128,1
90,17,-122,-611,394,460
84,18,121,-383,101,343
98,27,116,188,-10,378
105,61,116,-18,25,401
101,79,113,-155,47,445
103,82,109,3,66,338
109,99,105,2,82,238
114,102,98,95,79,98
97,113,109,363,-239,-72
106,-122,-126,-308,99,-295
-110,118,117,-445,331,-312
-84,101,100,-20,24,-272
-95,114,103,-257,21,-370
-97,115,106,-416,44,-362
-94,107,114,-188,-85,-127
-103,109,119,-69,67,-93
-90,114,113,33,194,6
-59,126,99,51,-9,195
-74,-110,107,-232,-107,332
-73,-113,104,52,176,223
-18,40,-5,-2394,-935,-4743
41,-95,-79,-7754,-805,-4120
-8,-24,126,-8946,-188,-4607
68,-55,71,-8515,-411,-4648
-117,78,17,-4331,483,-4978
-113,-128,-87,-1290,-220,-5679
-55,115,84,6,-833,-5519
-40,47,0,507,-112,-4057
24,93,51,1160,1134,-1080
83,-61,20,2462,2596,3933
113,-127,112,2310,2807,6185
86,-43,114,3811,5104,4238
-54,84,97,5538,4167,5534
-25,-2,-92,-278,-278,7040
42,85,119,1405,-1598,6949
25,-13,-15,1259,-3185,5630
32,48,113,121,-2005,5866
88,39,113,765,-291,4165
96,18,-88,1414,1013,2328
-27,78,-29,588,1250,1328
68,11,39,1352,-312,-368
6,-116,50,1263,-109,-1497
55,113,0,112,812,-1086
53,63,-38,-123,41,-699
44,27,-77,159,-401,-232
58,24,-87,-204,-38,-620
84,4,-96,-376,73,-832
103,-13,-99,-97,62,-552
91,-11,-91,-55,-68,-182
89,5,-99,-182,-91,138
103,28,-106,-339,2,389
107,42,-122,-160,5,418
109,72,120,-118,8,493
108,87,119,-50,-61,351
120,100,116,-84,60,144
124,109,118,-80,-22,8
-127,107,117,-75,41,-73
-125,105,116,-66,62,-103
-120,106,112,-71,40,-105
-117,109,105,-104,10,-151
-107,109,97,-46,27,-160
-105,110,97,-58,-19,-80
-103,114,96,-50,21,6
-99,124,95,-88,-11,66
-96,-125,95,-72,4,66
-90,-118,94,-87,26,69
-85,-108,95,-107,9,96
-83,-102,95,-108,23,49
-80,-95,90,-140,36,20
-75,-91,87,-166,44,18
-50,120,-117,-3118,991,-4511
-11,2,78,-5009,78,-4544
-34,-84,61,-9443,659,-3285
88,-78,120,-8132,1078,-3471
117,10,-72,-2699,824,-4810
-53,-9,67,-3115,721,-5538
42,-79,111,-1172,742,-5973
-70,55,-19,432,-282,-4849
-1,17,-98,1095,-365,-2516
127,-64,122,1601,790,1796
-80,-48,22,2254,2268,5731
0,123,105,3788,3943,4808
89,-20,-11,4585,5034,3717
-95,33,14,5568,3091,5108
83,94,70,499,-135,7676
25,-122,93,3150,-864,5437
45,-97,-5,3515,-1513,3198
44,84,109,-806,-770,4907
0,54,-46,-282,-870,4658
-18,24,-47,792,266,2704
-65,4,-11,597,1843,417
-118,6,90,520,1844,-664
-1,-4,-123,1239,60,-246
3,-81,72,284,-12,-1243
47,109,3,-475,-32,-1009
104,-23,-62,221,-122,-821
97,-29,-71,144,-53,-479
96,-26,-78,-388,-90,-352
102,-33,-91,-403,-146,-107
97,-22,-84,-225,-291,202
105,12,-88,-157,-261,345
105,34,-85,-219,-221,382
104,59,-93,-198,-171,337
107,70,-98,-166,-62,261
108,83,-105,-185,-48,223
112,96,-114,-207,55,121
118,99,-126,-140,93,-11
127,96,119,-2,64,-114
-125,95,115,-26,109,-121
-121,91,109,43,63,-76
-116,94,107,26,46,-47
-110,95,107,35,56,-28
-104,96,107,60,54,7
-96,99,102,67,50,64
-96,108,99,-3,9,87
-93,113,100,-31,-13,88
-86,118,104,0,21,107
-85,125,104,-65,20,114
-81,-127,99,-29,45,114
-79,-117,92,-65,36,94
82,-35,-94,-3698,955,-5401
-86,104,91,-6351,1329,-5422
112,-57,-126,-6402,1467,-5993
-64,-105,-49,-4547,1698,-6480
65,-111,71,-3549,105,-5729
-123,-80,102,-1975,-600,-6370
-59,34,-37,345,-1122,-5483
-9,37,-104,455,-380,-4764
87,34,-52,2012,752,-2074
-119,101,33,1055,1803,3871
88,1,-79,282,2070,5704
-27,123,16,2432,3416,5041
88,-63,-13,5320,4004,5301
-70,-121,-123,2314,2238,6653
-3,-68,-128,2047,-97,7056
0,-101,-88,1630,-1756,6185
-91,122,23,822,-2611,4783
-73,-94,-80,-1164,-2886,4487
-42,-81,-49,-292,-2121,4221
-59,-83,116,-703,-752,2033
-115,115,118,-197,532,685
57,41,98,-17,420,-230
-19,-66,41,769,414,-1075
-18,-109,-9,1216,977,-769
-29,-116,-40,394,361,-174
9,114,-102,222,490,-220
37,89,-119,352,495,-511
53,63,-114,520,392,-348
56,67,-99,221,262,-109
65,61,-96,319,177,248
67,82,-79,891,-261,644
76,-119,-67,53,-79,421
98,-109,-101,-551,384,-84
104,96,121,40,106,-366
106,90,119,57,7,-302
118,91,-127,114,58,-154
112,112,-105,112,-53,-10
126,127,-120,-251,90,-269
-114,105,126,-41,38,-272
-113,100,122,-70,-51,-163
-114,106,-124,-117,-18,65
-113,108,-122,29,24,145
-100,-123,-122,-116,99,200
-95,-117,127,-148,64,243
-91,-110,112,-201,-21,251
-91,-105,108,-259,21,231
-93,-115,107,114,33,216
-88,-112,108,217,70,216
-76,-97,104,40,82,218
-72,-82,103,-168,6,68
-74,93,75,-5319,2134,-3322
52,21,18,-4256,2805,-4189
120,-68,70,-5381,2579,-4319
20,-2,-95,-4703,1737,-4559
72,-105,68,-6954,1300,-3477
-32,-83,-120,-5821,1937,-3182
-54,78,96,1412,1363,-5967
-20,99,101,-991,-105,-5817
-76,-59,-98,905,-649,-4994
-27,-77,-53,2324,131,-2468
76,114,48,332,890,2471
-118,112,-36,97,2305,5042
2,67,125,3325,3036,5205
-118,1,29,5904,3193,5175
-60,3,91,3587,1404,5507
7,-51,-92,2379,-767,6310
43,-86,108,4276,-1979,5970
-19,27,-11,2327,-1403,3598
-31,60,-125,-93,-337,4099
-73,-68,-73,-1276,1245,3765
-16,120,-80,80,1026,2984
-4,-28,-84,906,1271,2501
56,89,53,-1041,-698,925
28,-92,0,754,134,-2301
90,-125,80,526,889,-555
61,-4,-108,-246,384,-1453
86,-38,-91,408,330,-1270
100,-42,-76,162,37,-1088
126,-39,-80,-160,189,-298
101,-56,-86,187,102,188
83,-23,-83,98,-253,660
104,15,-72,-277,-518,761
126,22,-98,107,-334,633
-113,44,-115,369,185,481
120,76,-115,-5,153,351
113,78,-119,172,-136,267
118,81,-123,211,-47,57
120,79,-126,349,-57,-142
116,81,124,155,-80,-364
-121,82,-127,-259,13,-433
-108,61,124,-125,-12,-486
-103,56,121,-110,35,-458
-103,57,116,-134,18,-320
-101,60,102,-108,29,-141
-102,68,96,-122,-20,26
-98,77,86,-94,-8,168
-96,93,84,-48,-36,337
-96,108,86,-9,-72,328
-88,120,86,-29,-45,258
-85,-126,87,-15,-29,201
87,-127,21,-2186,2462,-3873
108,28,-64,-5453,2691,-3574
68,90,-88,-5390,2435,-4180
-76,127,-14,-4138,2119,-4648
-26,-60,102,-4313,1027,-4592
-13,103,-43,-2765,-42,-5198
-120,-46,29,-1681,-83,-5599
-13,89,120,1078,-1712,-5717
80,-100,21,-1060,-833,-4444
-23,88,113,1886,545,-2217
-22,-103,79,2605,2743,2708
-125,-110,-52,-1384,3650,5248
-81,50,79,3086,2974,4908
68,-10,-65,5338,2765,5023
-97,-71,-87,2344,1110,5568
15,-65,-106,2714,274,4734
34,-63,-49,2790,-764,4993
-23,33,45,2493,-1071,3392
44,27,122,1627,-396,4624
36,39,-44,-1585,-64,4281
63,30,-60,-1979,-836,4977
-31,45,-8,152,-1736,3596
126,-13,76,1708,-453,-276
45,-90,98,2979,574,-1231
7,-108,76,1929,283,-977
16,120,45,472,276,-846
36,49,2,-542,232,-844
54,13,-42,-677,117,-856
42,2,-75,-618,-140,-624
33,-6,-101,-411,15,-743
70,-7,-110,-299,-30,-658
117,-11,-113,-22,-17,-353
108,-1,-104,40,-179,-230
106,8,-81,-77,-273,-64
100,35,-62,-491,-262,172
109,44,-50,-357,-493,287
0,0,0,0,0,0
0,0,0,0,0,0
-94,64,30,363,104,-16
-94,64,30,363,104,-16
-100,81,41,-32,-13,19
-106,53,33,767,179,2
-107,71,47,167,296,135
-106,56,31,413,177,29
-97,68,26,-28,287,104
-111,41,20,212,149,107
-106,61,30,118,230,10
-106,48,24,85,125,142
-112,52,24,157,126,173
-112,72,28,-80,126,143
101,45,102,-6866,2190,-1499
55,-112,39,-5551,2503,-2170
-52,63,-85,-2966,2042,-4450
123,88,-49,-3720,2227,-4472
-30,-107,-126,-1744,1646,-4790
89,-57,120,-1053,-447,-4749
49,5,-33,534,-779,-5477
-118,103,96,1209,720,-3382
-44,-107,32,2970,2035,2107
-54,85,-60,2032,1537,5708
-92,-96,4,12,2340,5345
54,-98,-101,4629,3123,4809
-2,61,-45,5584,2087,5979
-79,-81,21,1681,456,6160
45,-97,44,2973,-1697,4084
60,-66,-18,1606,-1424,5113
109,22,-118,-699,-1947,6826
120,-36,-61,-1476,-2829,7517
54,6,64,-465,-2747,3937
-83,122,-93,1564,-1260,-1966
55,-3,-102,4471,805,-2307
-72,56,99,1105,1212,-1784
-85,-51,31,-952,1004,-1222
-87,68,14,678,147,-812
-78,69,8,292,247,-726
-35,80,-29,-820,625,-629
-17,42,-60,-311,516,-567
-5,40,-72,-461,326,-239
-23,50,-111,-849,208,210
-29,78,-117,-966,189,311
-18,84,-108,149,146,235
-1,-81,-67,-815,279,344
3,-90,-71,40,393,160
12,-123,-75,1756,663,-378
25,102,-90,2756,1020,-1462
38,11,-64,-317,683,98
29,-52,-94,-226,288,77
39,-116,-114,562,131,-76
40,-88,-88,104,151,185
40,-94,-93,320,106,107
65,-95,-84,510,-209,-250
69,-58,-90,469,60,-327
67,-47,-70,5,218,37
62,-80,-91,175,304,206
81,-84,-106,209,257,447
83,-99,-116,374,0,270
53,-114,-120,624,-148,-128
53,-94,123,150,114,133
64,-86,-127,102,-52,598
59,-83,-109,372,-77,676
-109,56,32,-4133,3384,-3560
15,43,-34,-2497,3480,-5697
72,-10,-101,-3391,2585,-7123
-3,60,-9,-6532,1647,-5601
-79,-107,-112,-3100,-1401,-6772
43,40,-109,-460,-2932,-6454
31,109,34,1067,-3496,-4800
8,67,72,1979,-25,-515
-114,74,86,931,4355,4878
-48,98,126,437,4329,6404
11,-51,112,3410,3319,6100
-112,125,-51,3914,1626,6956
-24,-127,98,3336,-1245,7156
-18,-85,-106,958,-1604,5525
-66,-74,68,2128,-2794,7249
-67,-71,34,560,-651,9408
11,0,-89,-1226,-3466,7283
36,-21,27,-1160,-2643,-2027
-108,122,-50,7004,307,-3622
99,127,0,3931,757,-376
-20,-110,115,-1259,58,239
-37,-67,110,389,179,-20
-26,-95,110,-113,733,-885
-2,35,31,621,1311,-1526
-1,-14,2,1228,1231,-873
3,38,-19,-65,575,-249
-6,11,-51,-241,-8,-372
22,-15,-68,-1,99,-242
18,42,-71,-207,-123,315
9,108,-69,-863,-413,348
42,-26,-73,-2648,-708,436
-24,-93,-79,-1104,21,127
-44,94,-88,1282,109,-150
3,-3,-54,-364,-219,155
3,15,-60,-597,-173,-70
-34,-26,-72,450,172,-392
-22,-38,-98,569,430,-457
63,-13,-118,-168,222,103
31,-47,121,297,-167,250
-3,-19,-88,68,-220,358
18,-10,-114,330,432,-85
21,-26,106,865,235,-248
29,-8,114,306,-107,179
13,-14,-120,93,-62,379
14,-31,-115,526,240,345
15,-39,-120,629,227,232
48,-19,-124,239,121,361
25,-19,122,293,113,194
26,-11,-122,127,-11,147
47,-1,-116,168,232,-18
-80,-107,2,-2533,2322,-4836
-37,-11,-58,-4433,1986,-5385
-48,109,-97,-4885,1498,-5590
29,106,-54,-4140,375,-5007
119,37,6,-3724,751,-4740
-101,6,-110,-1383,-458,-5170
40,123,-68,133,-79,-5604
-54,36,36,1477,-585,-5668
-2,-67,-87,655,-623,-2671
-114,48,-26,2799,1577,1016
118,98,-107,117,3024,5001
-115,-19,15,-1049,4113,5450
99,-126,88,3986,3832,5911
-64,-37,-99,4239,632,6920
120,-43,-82,-612,-1048,5177
79,-4,-118,3342,-1055,4406
-79,-21,45,2799,-1173,5518
-5,-57,-100,2600,-1334,5949
-75,117,5,380,-858,6829
-30,73,-46,-2990,60,6451
102,109,106,-1248,-2767,2422
15,36,-102,4493,-1024,-3406
-6,-24,90,5009,1414,-2846
-79,10,36,653,2019,-1953
-85,-93,19,-856,761,-637
-94,100,-3,-361,-397,36
-50,80,-32,-288,-6,-337
-21,74,-53,-16,542,-796
-2,49,-70,344,275,-895
2,55,-63,-77,57,-716
9,35,-72,-45,129,-569
0,38,-78,25,36,-304
-8,43,-79,79,29,10
-12,58,-83,177,22,462
-12,80,-80,194,-11,667
-3,112,-84,256,-3,860
-2,-109,-81,40,-141,888
6,-86,-84,44,31,736
3,-66,-92,140,154,437
-1,-60,-95,241,141,184
-2,-56,-97,202,270,-28
3,-70,-113,345,320,-213
16,-74,-127,206,261,-275
26,-83,121,97,199,-153
12,-87,121,118,110,-107
14,-87,124,161,159,-182
27,-85,121,94,155,-181
41,-84,114,28,80,-141
35,-88,118,68,36,-43
22,-84,-126,91,63,135
97,-112,-79,-1755,3679,-5488
-58,-44,89,-3399,3248,-5504
-3,-82,96,-5681,1221,-5209
-85,-63,110,-6634,980,-4979
-28,-6,-71,-8503,1617,-3824
-47,-32,-27,76,572,-5901
89,-53,45,-904,1246,-6087
-22,-42,89,897,318,-5619
50,110,26,1073,527,-2458
-122,52,-4,3268,1600,2148
93,89,-91,1994,2122,6173
-46,-8,88,2564,3342,6035
-87,-77,-58,5627,4919,5986
-74,37,-28,1886,868,7060
6,-68,114,1725,-3080,4895
75,-114,48,2747,-2128,5215
-126,101,-69,1528,-1646,4841
48,110,1,844,-1231,5228
124,-58,-3,113,-614,4463
-96,-46,9,358,-1345,1813
-18,25,94,2245,-1244,-1468
-8,-11,60,2104,534,-1027
-113,25,55,72,977,-49
101,5,51,-580,109,365
123,-52,2,315,431,-394
-86,-76,-47,286,841,-1045
-72,-95,-68,-235,717,-1148
-61,125,-87,-8,583,-972
-33,-113,-116,-659,473,-772
-1,-87,-98,-1171,-69,-292
9,-68,-103,-1187,233,-362
15,-76,-109,-707,233,-672
-2,-82,-92,-205,61,-571
-10,-45,-83,-374,129,-406
-20,-43,-73,-46,121,-277
-39,-6,-70,-97,50,52
-35,4,-64,-5,14,152
-33,-16,-77,640,138,79
-23,0,-82,372,84,303
-10,-14,-101,984,-72,498
-16,0,-68,1134,-330,573
1,13,-85,293,406,410
4,-13,-105,336,388,380
2,-58,120,932,245,337
23,-55,119,804,241,412
38,-55,113,587,182,508
27,-55,118,436,25,529
37,-60,116,436,175,370
50,-66,113,500,90,439
36,-47,125,159,32,522
-9,83,14,5752,-1806,-1229
-29,99,-66,-175,-1473,-2681
-69,-7,42,-3613,-312,-3674
-82,-66,-109,-5832,-324,-4327
-118,17,67,-7443,-499,-5449
120,-104,106,-6384,-801,-5129
70,103,124,-6739,187,-6813
-86,-6,112,-1165,-65,-7346
127,21,25,68,-1515,-6645
-41,-89,32,594,-2258,-5009
28,83,-128,2439,-915,-200
76,82,-42,3582,1899,2233
-94,-85,115,-1630,6298,4245
-56,83,19,412,4974,5766
87,-52,0,5036,2850,7257
-61,3,-23,518,1433,8146
-104,97,-100,2628,-184,6006
11,48,-31,38,-1199,6438
-111,23,89,569,-2114,3465
-26,-80,-79,-642,-677,4288
-118,60,-91,-1000,1056,2522
126,46,-54,832,24,2241
55,-8,-17,2551,-818,743
19,38,3,1019,-127,184
-18,-20,-26,442,826,-361
-37,-89,-59,838,772,-654
-42,-108,-73,726,434,-530
-22,-114,-93,17,270,-497
-6,111,-106,6,276,-692
13,75,-126,197,265,-840
13,79,-114,-22,-64,-626
24,73,-113,55,-80,-432
28,59,-105,-3,-243,-277
32,53,-98,73,-118,-79
17,53,-65,360,45,185
20,67,-102,1032,588,500
31,-118,-89,-24,24,656
41,-73,-89,-1002,-158,543
55,-87,-115,-832,318,118
44,-109,114,-23,345,19
10,-84,126,-127,45,255
33,-84,105,603,535,289
43,-84,93,912,325,82
56,-81,91,489,131,72
58,-92,100,222,202,-82
58,-103,111,-140,503,-184
57,-112,115,729,56,243
59,-104,126,496,44,399
61,-84,119,151,116,603
52,-76,114,49,17,417
77,12,-117,-904,3066,-5125
119,67,118,-1286,1819,-5292
-122,-62,120,-3814,1684,-4548
53,-7,117,-4226,623,-4950
0,-70,108,-4745,498,-6032
19,103,-21,-1742,-1299,-7999
119,-6,10,166,-1889,-6505
55,-56,10,-27,-2950,-4206
-66,76,-67,2152,457,-1355
-51,77,-39,2472,2184,4429
-104,-88,-111,-867,3865,5586
-126,96,-86,3215,5999,5570
121,-53,37,6570,5688,6444
-7,107,-108,1280,1460,6319
112,59,-66,1944,-1428,7177
122,-58,-74,750,-542,5981
101,101,112,445,-1228,4194
-70,94,29,-1439,-760,5052
17,-64,-31,-2622,-54,5701
-46,76,-58,3379,-596,1866
51,4,21,4539,-1561,-2328
-71,-33,52,2833,-554,-2972
15,18,44,-1419,2095,-693
-63,-92,2,-2581,1341,-605
-64,-86,-65,588,209,-623
26,-7,-122,172,684,-534
15,-44,116,789,628,-808
6,6,-122,749,348,-604
18,29,-97,285,198,-525
40,55,-62,-72,11,-180
42,59,-50,-205,103,-52
46,47,-54,300,270,-41
35,87,-52,408,103,122
22,108,-60,87,-163,317
35,113,-81,165,38,336
19,125,-61,51,-201,447
2,-108,-73,-183,129,394
102,-117,122,188,353,290
56,-84,-87,275,-552,592
-13,-44,-81,-324,361,59
38,-65,102,19,653,-132
65,-71,89,298,-109,-37
59,-53,98,39,-282,97
21,-30,105,-600,-142,77
3,-48,95,-308,-271,109
-1,-14,105,-571,-557,516
16,26,113,-941,-324,655
17,52,110,-583,4,321
42,52,95,-178,414,-86
92,67,59,-70,673,-59
88,90,-100,-3677,1209,-3680
62,-82,-123,-4681,1143,-4066
-43,-67,-69,-4497,481,-3821
90,57,-9,-4179,-39,-4510
-1,1,73,-980,-1042,-5408
120,24,-67,-581,-1140,-6084
-16,45,-97,1210,-2457,-5171
22,-128,-68,715,-1340,-2926
99,119,39,1202,1041,-911
79,110,-48,1241,3398,2581
41,-1,-127,-1559,4097,4090
126,68,54,1784,3930,4602
88,-79,-61,5511,3361,5633
-100,54,-102,805,616,6372
127,-127,123,332,183,5012
74,-66,-104,5924,-1443,6857
77,-72,-68,-1087,-2596,6203
119,-67,-91,-2271,-1864,5711
-126,97,-38,-186,-357,4197
1,35,55,4033,-1121,1478
110,84,98,4752,-795,138
-8,-65,95,928,608,-614
-71,65,78,-374,1123,-1515
8,105,-6,-112,1217,-2588
76,22,-23,794,508,-2640
88,6,-18,548,246,-1839
63,-10,-28,-419,243,-1249
48,-34,-60,-391,241,-621
31,-36,-50,42,-66,124
28,-20,-58,463,10,501
41,28,-60,308,23,992
46,95,-66,227,-212,1219
41,118,-74,492,-152,1062
45,-95,-67,149,-116,889
24,-79,-69,-53,-3,421
37,-85,-72,-77,141,30
44,-109,-80,218,119,-247
49,-125,-84,409,220,-332
47,-123,-86,164,239,-231
51,-125,-102,83,229,-43
44,-120,-107,-29,131,-1
54,-124,-115,143,159,-33
53,-117,-106,97,76,74
48,-110,-113,61,182,200
59,-96,-116,188,73,317
56,-77,-114,63,108,253
60,-71,-117,164,130,192
71,-62,-113,136,75,162
64,-57,-112,50,199,98
65,-55,-122,79,190,170
-20,110,-64,-2639,1717,-3966
-3,-38,-109,-5243,1137,-4432
-104,-109,-2,-13224,557,-5653
-51,67,59,-617,-318,-6215
-90,84,8,-3246,29,-5725
-22,-58,-51,-1231,-889,-5578
34,-121,92,372,167,-4499
95,122,-61,1990,953,-1559
118,-100,-16,630,1715,3540
71,-5,-104,1052,1675,5867
-25,82,-42,3938,3801,5713
54,42,82,5344,3131,5543
-103,45,47,-1205,-3563,7874
90,-107,84,401,-3002,3136
-59,72,-99,1601,-1706,2612
99,72,46,-536,-2190,3123
21,23,20,312,-4288,5785
-107,78,54,1657,-855,2721
-96,55,115,1189,-193,-15
28,-59,66,970,735,-635
-62,44,-99,863,1115,-810
-58,-41,60,1158,1023,-897
-31,-34,0,827,683,-168
-20,-54,-5,569,209,-181
-11,-71,-10,426,111,-33
4,-82,-10,391,206,33
22,-85,-9,384,29,108
44,-93,-4,599,474,-133
41,-65,15,345,202,263
17,-54,23,155,-421,418
31,-57,13,288,-127,386
39,-52,3,196,-80,291
48,-32,-19,-213,318,-77
69,-52,-28,515,803,-315
57,-31,-19,196,164,-164
60,-28,-22,-202,102,-13
61,-62,-37,510,119,-65
68,-37,-33,32,-22,53
77,-46,-45,202,24,108
75,-57,-41,428,-19,108
70,-37,-39,114,2,222
72,-52,-48,417,-4,197
74,-37,-49,198,62,238
75,-34,-56,214,107,178
76,-41,-62,487,138,131
79,-29,-57,200,97,201
86,-29,-53,148,293,183
88,-34,-51,516,189,218
86,-14,-52,234,182,146
92,-21,-61,276,187,71
77,-18,-26,-1420,2257,-4880
-84,-78,-80,-839,2798,-5104
-35,61,88,-3574,3334,-5196
52,125,103,-9930,3437,-3684
-8,-47,94,-9224,4366,-3932
-26,82,12,639,1930,-6291
-80,61,119,923,-388,-7365
49,69,121,27,241,-6464
39,31,60,1138,804,-4020
58,-98,0,1816,1416,-393
65,-6,-52,627,2067,4610
84,-72,4,1840,1909,6146
-23,-57,-125,2125,3215,5012
80,-103,-32,3065,1183,6629
-55,123,76,1380,-2019,5323
-80,48,62,2005,-2947,4621
-108,64,-84,4783,-3734,4541
-76,-74,42,881,-881,4669
-16,96,101,2217,-641,4292
56,83,5,1231,1016,3606
-16,-70,62,-628,-340,3011
43,-81,87,-1312,-1060,704
-19,-45,120,883,563,-1091
-14,-127,47,2772,1380,-1226
-49,-60,6,826,685,-469
-47,-58,5,-440,-99,190
-31,124,-31,521,-61,-151
5,125,-40,479,301,-401
12,-127,-26,79,117,-563
19,102,-24,321,120,-572
34,105,-14,-75,173,-541
46,98,-30,-239,154,-446
27,96,-27,-216,-40,-27
18,114,-34,-221,59,171
15,-123,-53,-124,66,178
33,-99,-71,-64,114,229
50,-89,-84,48,15,259
46,-73,-63,27,-83,451
39,-59,-57,238,121,286
42,-54,-60,324,168,137
45,-43,-67,151,109,86
54,-52,-73,257,128,63
55,-54,-76,262,177,69
62,-51,-73,235,107,125
60,-49,-70,235,130,87
64,-48,-67,249,127,34
72,-42,-62,77,150,100
72,-57,-75,360,323,49
83,-49,-83,282,269,175
83,-39,-87,208,231,118
-28,-61,72,-5794,1978,-2563
19,-27,22,-6703,1411,-2784
96,60,41,-6946,2513,-3780
-58,84,-118,-4072,1571,-4534
63,-57,-16,-5975,821,-4382
-51,-104,101,-3114,841,-5927
19,-100,-79,2474,603,-7534
-36,-71,-86,1286,-215,-4711
78,-29,83,1144,104,456
87,-78,-30,2761,2456,3510
69,-97,-104,-193,3231,4452
-60,-105,51,2255,3536,5176
55,-3,82,7461,2801,6302
-93,-104,112,9431,1018,3804
51,-72,7,-112,2322,1206
-11,-37,55,-894,-1505,4613
-29,-79,-125,-1435,-978,6919
-38,-74,-27,-1437,-1167,6039
12,-112,-94,303,308,5556
84,-79,117,4044,950,4824
-72,-27,-37,2316,-1441,3850
-45,-43,111,-761,-2310,-1661
-24,-80,25,2723,1033,-2535
-39,-127,-19,2097,2405,-2429
-4,116,-25,497,1080,-1363
-17,96,-6,-150,-380,-36
-28,55,-31,-416,-366,-198
-4,47,-53,-277,268,-596
23,32,-65,159,47,-749
42,36,-59,161,-197,-668
52,45,-53,-241,-98,-521
36,47,-42,-490,-315,-187
31,52,-38,-326,-72,98
31,61,-55,155,121,297
25,91,-56,79,84,431
32,124,-81,-50,126,571
27,-111,-88,-110,15,649
31,-91,-98,-75,107,585
31,-72,-105,104,81,469
33,-58,-103,160,166,263
37,-54,-107,198,208,45
39,-54,-105,167,202,-107
47,-66,-104,298,266,-172
45,-73,-105,305,261,-211
53,-81,-111,266,297,-215
56,-88,-117,287,229,-141
56,-84,-114,105,154,15
56,-89,-114,177,191,147
60,-75,-113,132,103,315
60,-53,-115,-11,53,349
-80,111,117,-3901,2046,-2666
107,106,102,-2954,2031,-2828
-38,-50,-128,-2609,1652,-3223
124,-8,123,-3269,1273,-3679
23,5,116,-3311,898,-4237
-107,-41,-107,-3100,33,-4501
111,127,-25,-2488,-667,-5116
36,46,73,-225,-666,-6114
39,-85,80,572,-1111,-4390
-61,5,112,359,1055,-1355
-100,109,5,1469,4341,2172
81,52,-91,-1600,2959,5110
127,93,-90,442,1394,5262
36,-32,115,3551,1728,5060
-90,-14,10,5442,1506,5105
43,115,-75,3597,1019,5751
23,-38,26,862,-1393,5716
-11,16,-10,4048,-1714,4378
-28,48,116,4104,-1793,4284
-106,-25,85,-273,-271,5067
57,-19,52,-2071,2108,4831
85,-85,74,656,615,4498
-108,-72,-88,2766,-434,1222
-14,-78,-52,1324,338,-966
-99,-14,-125,937,258,-1218
-54,-86,78,850,93,-467
2,113,20,35,91,-655
-3,72,13,13,-304,-594
4,28,3,-8,43,-582
-2,-4,0,72,278,-282
-3,15,-7,14,21,63
3,44,-8,-145,-160,220
11,71,-13,-65,27,370
2,96,-11,-84,-68,423
9,120,-17,-11,-4,435
14,-110,-25,47,37,227
14,-106,-32,166,-5,3
14,-94,-46,160,140,50
20,-90,-58,45,203,-44
25,-96,-63,162,112,-66
31,-96,-61,103,121,-120
31,-101,-56,97,150,-106
33,-105,-58,140,152,13
34,-92,-65,75,147,183
32,-81,-75,157,134,181
38,-64,-78,26,72,120
42,-63,-84,58,91,103
49,-65,-81,166,12,230
51,-46,-73,84,32,208
55,-38,-68,105,157,51
-85,-110,-104,-3432,3525,-2931
-58,-72,111,-3972,3964,-4352
77,80,-15,-2318,1753,-5142
-104,-83,112,-4143,-590,-3409
84,55,-62,-3996,-1716,-4102
83,123,83,-2426,-464,-5325
20,27,-35,-219,-110,-5294
-6,-71,-66,314,-480,-3835
98,96,71,1430,798,-1321
96,107,-6,2671,2033,2709
103,109,-76,145,2801,5319
-61,111,-85,728,4430,4623
127,48,80,8175,5123,4633
-95,-60,54,3325,929,6992
-39,-28,37,2076,-1400,5738
-59,79,-123,2190,-1328,4992
-28,55,-76,-209,-1696,5775
-108,-9,-103,989,420,5138
-111,102,-79,2103,391,4048
-44,-17,72,631,-384,1963
8,61,-112,1603,-121,-1611
25,-84,70,3221,1180,-1383
-16,-114,30,1217,967,-1108
30,107,19,-382,492,-343
14,-48,-11,727,512,-293
16,-65,-4,1044,543,409
47,-13,1,320,128,248
10,-34,18,810,-8,78
0,-39,2,982,334,-102
10,-7,8,366,-23,261
14,-5,-2,512,-61,393
73,9,-1,627,-26,472
34,34,5,504,62,367
-33,31,-7,416,157,26
12,33,-27,574,73,-15
28,40,-31,466,-63,119
33,80,-34,-216,-60,103
9,60,-55,124,29,-433
5,36,-67,244,72,-644
31,19,-99,3,104,-570
81,10,-115,22,64,-121
100,53,-126,-259,-166,372
51,77,-115,-429,-318,106
64,68,-116,16,74,-65
48,74,-121,316,134,-17
44,88,-122,211,139,86
63,106,-127,-44,176,276
51,121,126,-19,26,292
32,-123,-125,-125,110,355
41,-102,-123,-219,154,594
119,67,-87,-3022,5572,-3208
95,-125,25,-2127,6999,-4176
-74,0,76,-5086,3240,-3401
-116,73,41,-6576,1065,-2243
91,27,120,-4728,1681,-4811
4,56,88,-2661,152,-5917
-30,-40,21,-2504,-150,-6409
97,-11,68,-688,-779,-6032
127,-94,117,-740,-766,-5497
79,52,98,1655,1616,-2895
58,-93,-23,-581,3973,2667
92,29,-100,-1121,1002,7356
-44,110,27,2815,2867,5560
112,107,59,5092,2247,6697
-17,-21,-9,2118,813,4806
-99,-73,-84,3002,-1887,4714
119,99,33,4582,-1851,4467
49,7,-61,5528,-2129,4268
56,1,53,2991,-281,4249
-124,-110,10,120,1256,4852
-62,-37,-48,796,2548,4111
-60,-99,-33,1678,2113,2920
0,-122,39,2539,-792,-157
-60,84,15,841,-115,-1641
-41,-76,-5,-103,1816,-1261
-63,-25,-13,-182,1466,-768
-27,-34,-16,1572,26,-6
-14,32,-23,403,-68,-185
6,29,-42,-240,344,-211
3,-14,-62,656,207,-121
4,9,-51,472,12,4
17,33,-48,-121,-47,120
16,44,-40,-82,-242,253
13,56,-40,51,-64,177
17,84,-40,-152,41,106
13,86,-43,-53,22,77
11,91,-49,64,142,-4
29,97,-61,180,287,14
20,97,-78,285,330,-86
21,98,-91,255,261,-39
33,107,-106,136,202,67
40,115,-113,132,149,74
35,126,-114,75,59,81
36,-123,-114,97,81,61
34,-117,-111,97,17,115
39,-104,-109,82,19,120
46,-92,-107,67,32,81
47,-89,-104,114,77,33
52,-85,-102,75,96,45
47,-83,-101,106,98,49
-80,-75,-40,-1865,4389,-2056
120,-75,24,-3251,1493,-2756
115,-66,62,-3856,1497,-4509
92,-108,-126,-3550,1257,-5100
7,-94,-124,-3179,452,-5447
102,119,-76,-1215,-490,-6135
12,48,48,-1332,-730,-5361
124,54,27,-237,226,-4864
11,-127,38,1853,917,-1966
-6,-27,-16,1021,2530,1958
38,-123,-98,-1116,1674,5409
62,-26,41,-214,2134,5119
-12,-69,82,2562,3143,5135
102,-1,-69,2685,1589,5765
-81,-90,-74,2062,210,5351
102,38,70,2829,-1617,4555
77,110,-14,2585,-2910,4376
79,113,66,3392,-3906,4922
8,67,62,4036,-2786,3024
80,-54,8,2435,-839,3194
93,117,23,2890,1437,2414
-122,97,-11,3540,2966,1879
86,-117,18,3447,2882,1153
-87,127,50,1650,-417,-441
-99,-28,93,277,-600,-1586
-10,52,71,-655,1210,-1034
-39,-69,41,299,1321,-608
-43,-39,37,697,211,133
-19,5,20,-529,6,-159
-4,-31,-4,-25,53,-249
3,-60,-19,540,149,-179
0,-22,-13,-1,-33,69
5,-12,-15,-89,-69,146
-3,-8,-23,99,-17,171
-7,18,-24,-15,45,263
1,39,-37,-37,69,185
0,47,-40,51,-7,226
3,66,-41,-9,91,220
2,82,-53,50,121,165
4,89,-61,105,167,55
9,91,-70,167,207,9
20,100,-85,77,160,-8
20,101,-89,57,121,-11
21,99,-95,108,147,-13
24,103,-99,38,122,59
26,107,-105,93,111,71
30,119,-107,92,118,79
31,125,-110,129,102,95
34,-120,-111,66,116,109
38,-113,-114,147,115,89
-55,75,-38,-4546,2216,-4192
-35,-94,-27,-3309,1788,-5600
96,123,-73,-5267,751,-4920
-101,27,115,-3652,-1144,-5693
33,97,-13,-3225,-2575,-6222
36,-91,47,-280,-317,-6682
-97,-104,100,384,-631,-4723
-18,-99,61,2530,2996,-947
125,78,-50,1278,3447,3223
100,97,68,-287,2164,5681
77,-77,-93,3032,3314,4097
-104,122,-102,4222,2540,4900
11,31,-100,3210,864,7152
82,13,-114,1859,-607,6961
91,26,-54,2243,-2361,5159
-116,-94,30,1832,-2286,4939
19,6,28,1098,-1466,6249
12,82,29,-224,-109,4673
-58,8,90,1748,-337,1746
31,-102,-124,3676,-593,-1037
-44,-114,107,2121,215,-1167
-72,81,70,-72,1006,-640
-110,27,51,-329,156,210
-127,-8,16,-205,-38,5
-95,-28,-28,-69,626,-761
-63,-51,-67,-192,1339,-1367
-43,-61,-68,-341,740,-1286
-37,-69,-62,-237,-96,-917
-14,-94,-68,-163,-276,-839
-32,-109,-64,-101,-241,-712
-37,-117,-71,-343,101,-709
-3,-102,-50,-766,875,-456
-31,-95,-28,-126,71,120
-37,-64,-19,149,-271,426
-13,-44,-20,24,-81,505
-4,-38,-40,175,261,482
-17,-35,-76,297,226,418
5,-17,-81,-139,489,497
36,23,-64,-409,855,759
44,25,-62,832,515,783
49,33,-53,844,104,319
47,26,-54,560,-412,423
43,-1,-76,579,-639,428
27,-4,-99,239,266,220
52,8,-104,-222,1204,-231
66,7,-71,54,937,-311
80,-2,-11,478,-416,-120
32,25,10,-552,-563,-188
63,-5,-35,-394,296,-240
91,-2,-56,52,225,197
-113,-16,44,-4636,2345,-3017
-76,-52,-29,-1962,2787,-3615
-124,99,-49,-5305,2865,-3198
85,40,-84,-8718,1965,-2404
-125,-90,29,-3903,1468,-3125
-53,-123,-53,-2078,1715,-3047
17,19,90,-2496,430,-2922
15,18,122,-1181,483,-3785
-52,-116,-112,-522,-633,-4815
-24,67,-24,-1327,-217,-4726
102,-111,-73,-50,469,-4037
-90,-53,59,1787,1577,-1927
95,67,-23,1314,1804,1751
60,89,90,1092,-60,6763
-78,-79,42,2296,680,5803
117,100,-125,5835,2084,4253
-33,125,-17,3348,2814,4418
-98,58,50,5196,43,3368
-114,-103,-90,4231,-2378,5188
-62,-74,107,-634,-2500,5692
-78,119,-50,-126,-2604,6255
-5,72,8,-486,-1795,3703
-32,-121,-112,1502,-2061,2417
116,78,-79,3345,-498,-1025
9,-4,-94,3471,609,-2149
-60,-3,-109,740,1221,-1494
-73,-89,104,-314,732,-854
-95,112,47,-138,189,52
-97,95,3,106,225,-10
-87,87,-27,445,456,-84
-76,97,-31,596,227,-87
-49,73,-22,1327,504,-322
-33,81,-33,1113,327,-443
-13,110,-13,-86,196,-434
7,84,-32,-337,233,-610
19,54,-56,-225,164,-565
8,47,-60,-35,192,-483
8,45,-71,38,244,-293
19,53,-83,130,160,14
30,71,-73,153,27,350
11,83,-64,314,182,261
17,86,-70,591,289,247
36,112,-75,195,188,515
44,123,-95,232,209,547
36,125,-96,476,193,418
35,-122,-102,491,224,348
41,-122,-100,484,181,412
43,-118,-93,483,123,412
43,-100,-72,86,161,413
39,-81,-71,-288,221,398
10,96,-74,-5556,2289,-1116
-106,-45,66,-9999,3687,-814
-120,99,-52,-13882,1199,-2068
63,-16,37,354,2115,-2382
-74,29,-110,825,3384,-3965
1,50,85,-2658,858,-4385
-33,-2,-46,268,251,-5456
-40,-94,-33,824,-453,-5863
50,16,-2,2353,-1287,-5346
-5,72,-69,112,-3036,-4648
-10,92,44,388,1924,-612
59,-13,-44,2199,3381,4236
-112,-120,-118,-781,3959,5226
-61,-114,53,2308,3970,5322
-15,-74,-27,-1180,2867,5555
-59,2,-106,-3770,1672,3233
90,-57,-43,369,-2429,3590
119,-110,-82,4265,-2010,3316
-41,10,-76,5318,-2155,5431
-40,117,12,2915,-2991,5556
-43,-28,114,40,-2789,5644
-118,-91,111,42,-919,2769
-40,82,113,2994,1761,331
112,35,69,5879,1201,236
-49,100,-109,2890,696,208
-81,41,126,-344,463,61
-99,-94,113,-508,-598,378
-77,-113,109,-397,9,276
-60,-127,69,446,500,-202
-17,126,62,443,130,-488
-47,-108,54,-683,171,-343
-19,93,-5,-127,189,-631
22,74,-28,49,134,-604
32,77,-40,-275,-31,-512
20,51,-53,-91,-7,-518
31,36,-56,301,100,-303
47,42,-51,365,175,161
15,69,-60,334,111,368
12,59,-76,713,211,492
34,89,-87,587,34,897
41,120,-89,503,-99,1337
6,-94,-70,817,-471,1234
21,-61,-74,-156,33,729
16,-40,-78,-534,3,394
15,-73,-94,51,170,-287
32,-110,-110,651,294,-558
33,-117,-108,396,147,-461
30,-125,-105,270,151,-274
31,115,-109,351,200,-370
35,105,-105,387,93,-229
-7,-76,104,-3604,3428,-1949
-59,79,-16,-2997,4468,-1729
-29,41,-75,-4477,4381,-724
-9,38,-84,-5401,2984,-3807
-122,96,30,-2291,1947,-5616
49,-50,-106,-3628,629,-5822
-77,-46,-9,-2237,89,-5809
96,71,3,-611,219,-5875
55,-6,78,55,-129,-4334
-119,109,125,2212,-173,-3130
-118,17,-6,1039,827,3328
60,-75,-32,5,-223,6570
-115,43,-27,676,3044,4168
-28,-66,26,3558,3245,4852
125,83,-89,5897,3023,5901
-85,-119,-96,1859,-997,6426
99,-50,-53,-491,-2962,5263
7,-105,72,2710,-4368,3377
50,93,-3,2226,-3518,2380
90,32,-5,3994,-760,2172
94,106,74,3314,211,2734
-119,116,-5,2435,1703,2611
109,91,16,1978,937,1837
51,27,44,1398,-107,1253
-14,-22,58,1369,-315,789
-68,-97,44,1516,426,-505
-69,127,34,950,872,-690
-51,48,20,815,872,-646
-63,16,1,976,717,-343
-112,5,10,740,145,-207
-89,16,20,31,99,189
-60,43,9,-609,137,356
-38,39,-21,-176,111,27
2,50,-39,65,54,-360
3,47,-35,-3,49,-652
12,26,-45,-93,98,-703
14,19,-58,-287,-37,-499
0,26,-56,-436,-247,-108
-9,39,-63,-458,-137,93
-7,54,-74,-359,-77,191
-5,88,-89,-437,-177,344
-5,111,-88,-420,-147,448
-6,-122,-93,-110,44,459
-13,-100,-104,39,54,336
-14,-78,-110,-70,10,225
5,-70,-117,-98,92,255
-3,-61,-110,1,99,294
9,-58,-118,277,338,131
15,-46,121,287,150,-15
-7,-53,125,166,102,-157
24,-37,-71,-3047,2370,-3101
90,67,22,-5304,2065,-3786
69,81,28,-5161,1783,-3920
-12,-116,70,-5152,1504,-5007
13,-50,-111,-1529,540,-6117
79,-34,-35,-1065,-2000,-5570
16,33,-122,-1990,-2689,-5366
51,102,78,113,-2190,-5182
-38,23,-95,-192,-74,-3719
116,-119,61,1787,3367,411
-57,-24,-71,-841,2964,4435
114,-4,18,-107,3383,5515
-48,127,-25,2804,3330,5933
-96,-78,-42,4915,3946,6683
-59,8,14,4401,2918,7775
1,22,32,1464,-1183,9036
-39,124,-39,1541,-2093,3513
-57,102,83,306,-2097,5002
-84,-32,-14,-2574,-1039,5681
-57,86,32,110,-175,3870
-24,124,-5,2836,216,1998
108,-15,85,940,-729,-124
-22,-6,105,2118,-675,-2339
-14,-88,45,1803,1563,-1881
-94,111,21,703,1627,-976
122,88,11,882,171,221
-102,121,-13,-141,25,245
-19,127,-60,-784,140,-168
-10,111,-42,-229,-113,-257
-40,106,-54,5,352,-752
12,76,-107,77,553,-1011
13,84,-92,-15,-166,-555
6,82,-100,-338,-96,-466
15,84,-88,-347,-178,-161
4,79,-95,20,-13,-108
-6,97,-75,93,-118,179
12,126,-77,-72,115,367
26,-118,-89,125,133,229
3,-118,-93,355,95,139
4,-110,-88,88,143,442
9,-93,-94,-30,179,740
24,-75,-107,279,147,829
15,-34,-79,38,8,844
27,-8,-98,-156,410,336
47,-29,123,205,474,-136
37,-34,113,186,148,-50
9,-34,106,-79,158,-85
9,-50,93,86,157,-136
29,-50,89,95,-121,98
44,-31,97,-186,-182,251
-71,-88,105,-3747,3417,-3334
-12,-121,94,-4345,4426,-6263
-47,38,-75,-3421,2080,-6339
-68,121,-79,-2665,209,-5626
-26,19,7,-2709,-768,-4347
16,107,79,-1394,120,-4246
-99,46,-61,6461,1670,-7017
79,-15,-68,-2004,787,-2349
35,89,-37,5230,754,3287
65,-77,-114,1069,2406,4583
-40,16,-8,-3611,5007,4797
104,108,23,3229,3430,5619
94,7,-17,5277,3718,6153
-122,39,-78,1333,457,6267
121,-65,23,178,-2442,6721
82,-20,104,1772,-2795,6012
-117,-19,-46,503,-1380,5195
-63,115,24,-1613,-753,5827
-91,-118,-61,341,-202,4850
-118,75,97,3786,-2677,1048
9,47,-110,2817,-2148,-1344
-14,19,93,1401,1321,-985
-83,-27,27,45,2748,-622
-116,-95,-42,91,1389,-639
-72,-121,-29,551,-331,-852
-15,107,-35,380,-312,-1466
51,63,-31,-309,218,-2014
73,13,-26,-222,9,-1877
63,-20,-4,-59,-327,-1229
40,-12,2,-320,-174,-671
34,-13,-18,-309,241,-186
31,-5,-41,33,247,234
27,23,-59,97,122,488
34,61,-79,99,81,891
14,87,-93,825,-71,1093
51,-86,-30,1105,-189,141
79,-35,-51,251,779,250
2,-42,-47,-380,191,324
-7,-73,-84,-384,76,372
8,-73,-102,-645,95,405
25,-64,-118,-778,-47,394
48,-54,-119,-574,-234,394
39,-24,-93,-605,-195,335
50,-23,-108,-224,90,-190
35,-43,-109,230,6,-522
52,-39,-97,-109,-187,-227
48,-28,-71,-362,-217,312
41,-12,-68,-307,114,258
43,0,-85,-16,317,-20
38,-10,-123,167,401,-324
-107,10,-1,-6103,2553,-1290
10,-2,16,-24,4955,-3888
-16,57,54,-3278,4701,-4760
-53,-125,10,-3076,4056,-4566
63,-96,11,-2773,2986,-5223
85,-93,4,-3712,1513,-5046
-104,-51,-65,-3504,1877,-5647
-50,40,-3,938,936,-4365
-57,30,-100,862,816,-3775
-39,-24,112,1053,-164,-4192
65,122,-37,2602,550,-2686
56,-53,-69,756,-396,-968
-99,-12,-84,-175,1067,1697
100,-60,38,264,648,4780
-127,33,-88,487,1133,5238
-32,-112,-18,3824,2408,5223
64,66,92,4194,3156,5294
102,118,36,-2406,2104,4696
59,-18,55,-24,-6437,2081
-63,-44,-115,1477,-4207,1939
5,121,-23,2014,-1853,3754
-25,-12,-12,3496,-2661,4123
43,9,-99,2041,-2075,3502
74,22,-113,1208,-1540,2721
57,14,-118,1420,-1100,1670
37,70,18,1104,-2371,1378
28,-94,98,-509,-775,1572
-22,30,-63,365,2028,-860
-66,-53,56,1344,2785,-2057
-85,-85,-35,1051,1812,-2229
-72,-120,-29,801,292,-1317
-66,101,-27,448,-237,-659
-41,37,-34,691,-143,-285
-49,22,7,1186,-310,306
-31,40,60,1364,-162,799
5,78,48,1486,411,885
17,114,33,1068,396,748
-5,123,12,628,98,589
-8,92,-7,498,172,233
21,75,-12,544,331,508
-3,73,-15,760,430,666
-10,84,-41,941,717,400
24,68,-79,1371,626,-173
49,58,-51,1049,91,-149
10,70,-7,-48,166,214
6,36,-52,337,740,116
6,12,-94,1175,434,-159
73,15,-79,1166,-207,-231
53,25,-32,342,-178,97
59,23,-12,69,188,359
75,-51,99,-4933,3516,-640
48,33,114,-3502,2507,-3025
48,58,108,-2101,2677,-5338
-40,-67,-98,-4275,2739,-6810
-113,-124,-106,911,2899,-8104
-4,-53,49,-732,-1917,-4781
-102,-52,-100,-758,-731,-5189
14,46,9,4317,915,-2054
4,40,-7,-597,1797,3991
110,-57,-109,-2810,2475,5782
-116,-24,-22,145,1957,5353
97,-5,-98,3714,890,6654
14,123,-48,3746,985,5814
105,-52,-121,1092,-1710,7317
-42,-45,21,3181,-2938,3896
-84,76,-89,3784,-3169,4409
-98,-105,-25,1145,-2800,6050
-124,-98,5,1982,-381,5769
-14,116,34,1150,1129,3935
123,124,-85,1117,-752,-69
-71,-117,-89,2490,-650,-1927
-105,94,88,-721,1269,-982
-71,-91,-3,431,466,-879
-60,36,-4,1962,-338,-768
-35,59,17,104,221,-667
-31,19,-7,80,517,-204
-58,-8,-30,427,185,-71
-37,4,-35,368,413,212
-37,24,-71,526,505,222
-36,32,-88,403,293,89
-16,61,-93,-91,139,285
-18,67,-96,74,-17,326
-16,86,-92,119,173,201
-12,94,-99,84,172,104
-24,104,-97,17,-37,110
-16,107,-97,-41,49,-6
-11,105,-98,40,-3,9
-8,111,-97,-41,13,33
-6,116,-98,-59,40,61
-3,122,-101,101,78,44
1,-127,-106,115,159,41
1,-121,-113,147,136,82
0,-110,-121,92,124,132
3,-97,-122,16,85,149
9,-94,-124,152,130,108
9,-84,-126,114,139,96
12,-82,126,112,133,109
17,-76,120,114,153,80
17,-72,116,25,82,113
14,-66,109,-115,30,210
127,-111,117,-3512,3585,-1903
84,-57,-44,-2666,3414,-4511
-79,40,-71,-4481,1052,-4660
68,2,-93,-4349,-252,-4712
-74,93,37,-2869,-10,-5366
-124,36,-70,-800,875,-5173
-126,-114,82,1741,760,-5338
-59,20,-8,-39,189,-4287
50,17,-18,2776,2387,-553
-104,-112,-99,-1421,2085,5605
108,-128,82,-1461,2779,4942
-15,-96,35,1840,2364,5341
101,75,86,2926,1645,6217
-110,35,-57,2362,-3,4938
-104,72,109,2818,-1188,4044
116,-21,-74,1950,-1582,3492
79,79,77,2824,-2054,4659
74,-66,23,1472,-3131,5103
-83,41,112,762,-1996,5045
-42,83,11,591,-1109,2342
113,15,-1,1178,655,635
-48,-60,-43,116,303,-258
116,51,117,-552,89,-557
-101,-108,36,1074,325,-621
-73,95,-10,1154,386,-138
-66,-124,-15,42,160,-83
-51,110,-35,201,213,-50
-53,94,-59,294,229,-148
-65,80,-59,622,289,8
-66,72,-78,826,590,-391
-60,-123,-65,120,53,485
-49,-108,-64,-210,-233,422
-32,-104,-70,41,13,230
-36,-104,-75,88,141,0
-29,-107,-82,-10,140,5
-24,-115,-89,19,169,-33
-17,-112,-100,-49,203,-17
-13,-122,-112,194,235,-1
-8,-114,-117,89,194,89
-3,-113,126,215,219,179
-2,-102,126,202,122,212
0,-98,125,224,136,212
3,-87,-124,142,81,255
5,-82,-119,173,71,258
11,-83,-108,265,128,196
29,-76,-117,103,231,216
18,-66,-122,8,120,279
24,-65,127,130,216,126
35,-65,113,159,242,78
28,-61,112,81,132,122
-17,73,-74,-5368,833,-2394
-100,-97,-110,-4604,2875,-3505
-77,-69,83,-5558,3172,-3725
78,-66,29,-4574,2016,-3785
-98,13,26,-4313,917,-4040
-44,-39,93,-3179,420,-4511
-125,96,-53,-2107,483,-4813
84,18,45,-1060,737,-5722
-112,77,-106,304,772,-5379
15,18,-97,-88,857,-3658
122,90,38,454,1452,3996
-124,-24,-66,-36,-498,6840
-81,91,-104,2480,2150,4411
-21,-117,-111,4372,2376,4508
-16,-95,76,1583,1177,4472
3,17,-90,4979,461,3285
36,-48,11,3025,-1085,4651
72,125,35,3594,-1474,3753
115,-107,-80,2502,-2265,5354
-122,28,15,1032,-3062,5399
109,-111,-103,258,-2812,2734
62,42,-11,-243,-941,167
6,116,52,555,353,-78
-90,-28,-44,907,690,-606
125,-19,-98,-581,215,-421
-124,-73,48,-862,183,-149
-105,-118,-24,-220,126,-537
-108,-123,-49,-192,-62,-319
-99,127,-61,-247,-205,-229
-119,98,-54,177,-263,-289
-77,-110,-50,-291,-55,220
-71,-101,-75,100,52,-60
-67,-118,-92,398,361,-206
-81,-112,-100,712,186,68
-87,-86,-84,221,270,243
-76,-112,-93,607,359,209
-61,-111,-110,736,424,369
-60,-77,-109,183,129,459
-36,-86,-122,344,205,335
-38,-102,-108,283,324,195
-18,124,-113,500,379,263
5,108,-111,306,456,254
18,87,-123,343,560,307
49,69,123,578,802,358
66,58,106,1002,786,748
58,111,101,649,857,996
70,117,109,980,704,766
87,110,104,826,1256,407
94,-8,95,2234,1059,-217
106,-37,105,2915,969,-18
-5,17,62,-3889,2817,-2973
-11,16,-78,-5519,1318,-3310
4,73,-56,-4959,1084,-3909
-39,15,52,-2975,967,-4494
49,64,-29,-1305,1790,-3833
70,44,-26,-1043,-30,-2973
-119,75,62,-2489,-1067,-4001
-109,54,-25,1489,-2024,-5778
-11,-52,-46,-167,-1157,-4205
-90,42,42,3425,2069,-930
77,13,-52,199,2553,4235
19,55,123,-559,2606,5512
-115,-40,-121,2340,2555,5346
114,-85,-62,3355,3080,6028
-108,109,124,2641,1197,5935
-124,110,-4,1675,-39,3981
59,-100,57,2834,-1640,3653
-24,15,-89,1841,-2327,3985
-85,125,-28,3734,-1540,4084
-58,96,113,1616,-420,4320
-63,-125,-51,1532,-16,4142
-39,-52,-100,-182,2223,4102
-7,93,-88,440,-598,16
-71,-36,-108,-380,-231,-1357
-4,-36,87,640,1754,-1486
-54,-101,73,1322,581,-16
-57,11,91,-634,-300,371
0,-20,49,-249,-3,-100
31,-47,23,290,273,-148
16,-49,12,412,219,-138
-6,-43,10,202,105,100
-21,-35,1,170,49,191
5,-22,-11,446,125,236
2,13,-13,42,-29,234
21,41,-18,-6,-22,341
13,41,-27,229,114,47
14,62,-29,-155,117,21
21,42,-44,180,103,61
22,60,-46,14,109,25
32,56,-61,69,199,33
29,51,-71,109,179,55
35,68,-81,-104,127,162
39,85,-92,42,41,145
36,104,-87,-12,88,102
31,112,-89,48,53,100
34,126,-88,-8,119,88
40,124,-96,118,141,75
39,-116,-102,45,93,15
36,-127,-103,173,128,92
39,-97,-108,52,21,10
49,-122,-99,-4017,1170,-4136
5,97,-69,-4663,757,-4421
-75,-116,-80,-4593,-296,-4746
85,-124,-83,-2911,-842,-5878
-38,-121,35,-1352,-839,-5952
99,10,-20,-830,-728,-5014
-93,-23,-14,-125,496,-4694
24,-26,-11,1327,1879,-2715
48,74,-79,-26,2188,2055
-75,-19,122,-339,743,5777
-43,38,125,1225,1881,5060
71,34,-117,3346,2542,5572
-100,-78,8,3254,3016,5201
-78,-92,-58,2060,802,5520
-116,117,-49,3172,-35,4127
75,-24,-19,3053,-2275,3786
-54,109,-64,1102,-2976,4631
14,-12,106,2892,-2551,5571
-67,59,-83,2469,-331,5995
95,-49,57,678,2903,4999
-110,-26,-111,1126,260,2036
-118,49,-75,2488,-1155,-2185
-82,-16,121,958,1366,-1612
-86,30,2,-37,2472,-1645
-91,0,-11,455,593,492
-96,84,-9,-458,-701,782
-38,30,-24,427,-232,-253
-32,23,-10,771,224,-341
-47,21,18,302,-151,-235
-30,26,21,-85,-79,36
-26,22,21,47,-80,53
-24,32,13,-7,37,106
-20,42,2,148,225,77
-9,44,-19,429,316,48
-9,75,-34,97,246,71
-15,67,-52,233,260,136
-13,85,-66,234,173,164
-12,105,-70,44,112,203
-4,107,-77,315,143,94
4,115,-80,364,141,-49
3,102,-78,448,60,-19
11,116,-73,56,22,89
19,122,-69,-7,-50,145
22,-127,-69,84,51,48
26,-118,-70,28,85,18
27,-117,-77,29,147,64
28,-113,-88,110,177,15
33,-114,-98,188,193,49
38,-99,-107,74,149,107
33,-91,-108,21,100,87
-121,-16,-127,-5040,2222,-2141
111,-101,125,-8567,1086,-1608
125,96,-116,-7343,628,-3163
-104,58,33,-4250,1346,-5729
6,108,-44,-2906,587,-6339
-90,-17,103,-2106,159,-6592
-54,-59,23,168,949,-5516
17,61,11,549,749,-4399
49,-74,-48,2766,1507,-229
-113,-30,-74,-2189,649,4775
44,64,-9,234,-136,5912
-94,55,36,3653,1509,5077
33,-53,83,5830,3060,5104
49,-57,-93,3946,1757,5629
-8,-84,-109,1513,-1571,4725
-12,-53,-22,1821,-2488,5008
10,45,-120,2200,-2877,4210
-92,-79,-108,269,-3208,5410
46,-53,-50,521,-530,3210
65,82,-103,5053,1671,1517
83,-113,-89,4812,736,600
-37,-80,-58,1054,337,587
-83,47,92,-170,735,638
-105,-53,0,1319,622,403
-120,-52,-43,1068,365,140
-98,-41,-53,-138,-33,-101
-68,-84,-30,-215,-467,-395
-55,58,10,790,-233,-697
-29,10,32,1179,106,-515
9,40,56,294,-33,-120
0,2,45,559,203,-374
18,-20,16,897,673,-393
6,-9,-10,756,638,57
-13,38,-47,488,457,259
-2,51,-68,376,307,219
-10,61,-67,450,-101,368
-20,64,-57,439,-55,366
-18,61,-57,591,4,418
6,92,-56,315,-83,464
33,105,-62,248,47,258
22,88,-76,473,23,-94
10,96,-57,-11,-68,1
14,85,-62,22,158,-3
25,77,-73,268,265,-6
18,79,-93,317,367,-44
29,82,-114,282,280,154
38,112,-122,-222,183,381
14,127,116,-241,57,294
8,-116,111,-175,19,232
47,-94,122,-170,218,274
-70,4,-92,-1747,1947,-4913
-52,115,93,-4764,1811,-5050
-71,-63,52,-5291,579,-4997
33,-83,54,-4366,601,-4716
107,-114,-126,-3680,-530,-4987
119,25,3,-1593,-2319,-4682
1,25,90,-2156,-1848,-5310
-3,-1,47,-724,-959,-3846
51,-21,73,948,-434,-3284
67,13,22,2130,2578,1706
32,120,-70,-1125,3819,4109
55,-40,-83,927,3483,4696
-114,118,-56,3687,1404,5384
44,-105,21,4583,1232,5135
4,78,-96,3721,391,6308
36,89,-125,3253,-41,5547
24,-95,-73,5995,-1121,4382
57,95,96,1041,259,5413
46,-38,42,-384,1392,4744
-100,87,102,-891,-368,1997
26,-52,-25,1327,-365,-786
20,30,81,853,2149,-1798
20,-41,93,-438,1444,-1005
33,71,71,43,625,-104
2,41,38,741,359,379
-20,61,18,305,-182,714
18,87,-31,-168,306,911
24,91,-41,109,288,755
31,111,-49,447,106,807
26,-104,-37,190,-94,633
32,-92,-40,-9,38,299
30,-89,-29,-87,-43,8
21,-90,-31,-166,61,-109
28,-93,-45,-212,158,-244
48,-110,-68,156,70,-412
58,-120,-70,242,88,-560
60,-125,-69,110,137,-544
58,124,-64,-15,104,-437
55,121,-69,-7,111,-211
54,120,-74,107,7,96
49,-127,-72,255,-139,348
54,-103,-83,193,-49,506
62,-87,-85,69,129,531
63,-78,-85,148,80,536
54,-60,-83,128,24,539
58,-53,-92,155,115,485
61,-36,-96,48,74,451
62,-24,-103,61,46,275
61,-20,-108,21,64,51
67,-23,-109,66,80,-65
114,80,-22,-1421,2198,-4596
-1,-127,-121,-3598,2910,-5289
95,-99,23,-3265,2337,-6881
-51,89,-1,-6841,1981,-7699
116,11,89,-1172,557,-7309
29,80,-72,-2198,-1233,-5646
-58,98,31,-490,-1150,-5915
-111,-119,48,1706,-16,-4376
111,27,-96,1677,346,-2022
127,23,-44,2079,1214,2698
81,-63,-108,-124,1874,5305
-66,-38,-58,1000,3428,5066
104,118,90,4909,3061,5832
-63,69,-53,2192,2298,6103
-53,110,-28,2617,22,6381
84,-42,-73,1791,-84,6012
15,-74,80,523,-1375,5799
21,-112,27,-429,-2048,5450
-113,-46,55,-741,87,5956
25,29,90,309,-946,3724
60,38,-82,716,-1484,294
40,104,-112,1982,312,-1165
-25,30,94,1374,803,-740
-70,-58,90,990,-40,-559
-7,-114,65,425,524,-692
6,81,20,355,586,-652
-2,61,0,536,379,-541
6,62,-25,280,390,-291
10,68,-33,107,181,-98
9,72,-39,142,35,34
11,94,-39,5,-15,237
20,116,-39,-70,-67,258
22,-118,-34,-40,-113,253
22,-101,-29,-51,-119,204
20,-85,-29,-25,-149,23
20,-84,-36,213,-190,-187
28,-81,-49,186,101,-52
29,-77,-56,-39,244,-39
27,-84,-67,90,96,15
33,-77,-75,43,100,-9
37,-72,-76,62,93,18
38,-74,-80,213,111,-14
37,-66,-77,171,-9,21
43,-63,-79,242,41,21
55,-64,-87,311,175,65
51,-59,-82,166,42,116
49,-65,-78,226,135,186
43,-52,-78,121,132,304
57,-42,-94,147,195,325
67,-35,-103,153,111,275
-117,48,112,-3132,1354,-4091
-18,9,63,-3500,2365,-5118
2,58,0,-4289,1981,-5443
-94,-116,-20,-5435,1402,-5521
-6,-113,-29,-4299,369,-5297
1,51,65,-3424,-732,-6274
126,-28,-90,-1723,-405,-5856
43,-119,41,-36,-204,-6009
-100,63,21,-518,1264,-3665
-39,82,-38,1587,1977,-1607
-95,44,-64,778,1853,3718
82,-27,116,510,1204,6036
-80,-18,54,2595,3338,4765
8,-92,1,4897,3071,5347
92,62,18,2919,1445,6300
-77,-51,-53,2259,-42,5893
-91,-127,-31,2460,-1135,5582
-67,41,75,1790,-1057,4847
-1,-79,-5,-590,-1308,6114
65,-48,37,-432,-346,5212
-29,66,106,182,-444,3735
82,21,-75,1095,-750,389
31,-116,-120,2035,755,-843
-36,86,43,609,1259,-809
-55,-32,50,1519,1197,-947
-33,-118,97,1463,396,-1275
-4,123,121,546,-165,-936
-1,97,112,116,-466,-571
1,71,51,140,-579,-276
22,74,-4,-189,491,-234
29,86,-13,-524,1356,-44
2,61,-38,1104,266,408
15,125,-15,830,-346,782
43,-92,-22,158,-284,504
43,-96,-20,97,-99,193
25,-109,-28,385,-434,-1
27,-94,-32,19,-287,73
27,-98,-41,48,-151,72
44,-86,-55,-352,732,-21
38,-97,-37,-36,406,-64
34,-95,-43,366,-53,93
44,-76,-54,-87,43,39
44,-80,-70,118,88,56
49,-68,-80,16,198,134
50,-73,-78,199,106,167
51,-60,-75,96,9,230
54,-40,-67,-89,56,287
54,-37,-63,152,-34,340
63,-30,-68,-20,157,197
66,-18,-66,-108,112,186
100,-38,-102,-2526,1673,-3999
-1,41,112,-1393,2260,-4634
10,-68,42,-6961,2746,-4446
-63,17,-24,-7239,1509,-3683
6,-13,52,-2823,1427,-3894
-90,-65,126,-3535,1747,-4837
48,-64,-67,-2654,800,-5754
116,86,-83,-2309,664,-6104
41,-18,-13,-882,-306,-5542
-105,19,-101,101,561,-4553
-79,55,121,2297,721,-1506
-94,67,24,2424,851,4551
121,34,-92,-136,2201,5594
-68,28,117,2427,3322,4582
85,-50,66,5323,3307,5341
-7,78,-66,4016,2940,6087
107,-3,73,1463,1026,6741
6,-91,-106,1213,-3041,5836
24,102,81,-562,-4773,7190
38,127,105,467,-3492,7901
71,39,61,1692,-409,4800
-44,6,-19,474,-1227,628
39,-18,-41,5269,-163,-2835
-8,82,-102,2370,1296,-801
-122,6,89,-223,790,-619
-76,-111,66,1028,187,-725
-34,112,28,478,385,-1302
-3,39,3,847,355,-1335
-13,30,14,314,97,-1077
-9,21,19,16,115,-566
-3,-12,3,199,331,-383
17,-9,-11,253,342,-53
20,13,-18,152,45,430
10,27,-18,246,78,606
18,57,-3,258,244,678
20,85,-10,473,119,1001
28,122,-25,275,192,829
30,-112,-53,130,176,424
29,-122,-55,304,123,305
7,-123,-51,366,110,265
-5,-98,-35,-155,-53,220
8,-110,-53,-6,175,-74
48,-126,-64,386,-36,-88
33,-115,-62,254,41,-274
25,-125,-72,210,94,-455
76,117,-85,229,-38,-247
38,115,-85,303,-57,-93
18,112,-90,326,56,-122
61,121,-95,280,-61,172
29,-119,-90,72,-148,82
51,93,-4,-3344,-269,-4414
-57,-72,-95,-3478,959,-5290
52,122,33,-6312,619,-6023
-12,121,-1,-4659,-985,-5748
113,73,-7,-5711,146,-5388
85,-123,32,-3709,-599,-6374
-76,-117,-82,-1433,-1444,-7389
-124,-54,-36,-495,-646,-5186
-120,-78,-48,2533,828,-3543
60,-30,-16,1703,1029,720
-31,-96,-74,970,908,4592
-6,36,90,-1052,1793,5357
-120,-77,77,3099,2077,5469
64,-108,-55,5855,2868,5859
110,126,99,2347,597,5544
-40,-11,92,3939,-1461,6612
-44,87,68,3272,360,3822
-60,-124,17,2537,-1018,5482
-51,48,-51,-591,-1278,5686
61,34,104,-221,-1053,4049
23,43,126,110,360,3606
59,-53,97,2871,28,1144
-59,-89,68,2880,-143,-837
-84,113,-1,463,991,-986
-108,51,-42,-1378,720,-921
119,-47,-29,-511,-346,-762
-105,123,-35,954,-90,-667
-62,-91,-23,156,418,-757
-20,-113,-49,206,373,-906
10,111,-52,368,149,-1106
25,92,-52,218,184,-1129
19,56,-57,166,271,-968
-5,38,-63,212,113,-496
-26,48,-59,-27,-62,169
-24,124,-73,-712,23,692
-31,118,-92,4,-13,668
-15,-124,-89,551,6,907
-4,-77,-88,357,116,990
-3,-74,-106,415,137,888
14,-49,-111,321,21,877
9,-38,-110,244,72,567
20,-35,-110,381,102,250
17,-37,-110,381,173,-167
23,-59,-110,442,225,-428
28,-87,-116,367,220,-482
31,-100,-114,280,115,-320
26,-106,-112,62,71,-135
29,-109,-110,47,72,77
30,-101,-111,63,80,230
30,-79,-117,-1,91,265
-115,15,52,-1701,2406,-5203
-100,-13,-58,-2771,1393,-4967
86,104,-114,-5154,-178,-4678
-15,-117,66,-4107,-424,-5099
111,-127,96,-3427,-1084,-5735
-40,58,-70,-3475,-2225,-6202
-79,108,118,-2322,-898,-6166
-40,38,66,1872,219,-5174
-16,63,-3,693,484,-1430
-18,4,-26,622,1982,3202
81,-39,-110,715,2384,5476
124,66,-52,487,2342,5470
25,126,-48,4394,3236,6083
4,-4,-60,5902,3798,5725
41,-121,-120,-440,807,6615
-23,-21,-5,4197,-791,4596
55,0,-92,2821,-751,5578
37,94,-60,-1460,-1750,6735
-84,122,-65,-209,-900,6970
-119,5,-12,3,-986,4759
-74,11,103,1667,-1763,1063
-10,110,-115,3851,-750,-1771
-61,79,104,1862,756,-1773
-111,7,52,-718,1358,-1097
-126,118,24,1048,524,-688
-119,112,7,813,299,-804
-49,108,-18,-8,448,-970
-19,71,-31,70,228,-1221
15,25,-30,129,15,-1277
16,19,-17,-450,21,-892
19,-33,-32,758,307,-1100
32,-16,-17,539,358,-632
26,0,-28,-266,152,-142
14,3,-42,-356,31,412
-7,19,-80,-58,-43,838
-4,58,-83,-35,-71,1082
9,90,-99,156,55,1057
26,-123,-110,145,-83,938
28,-93,-100,-123,-158,892
15,-72,-92,-86,-105,749
1,-59,-91,106,34,434
0,-41,-89,-67,61,178
2,-37,-95,-134,117,-47
2,-39,-104,-213,150,-260
10,-47,-121,-217,195,-407
13,-51,125,-248,94,-457
24,-62,114,-123,150,-496
34,-59,110,-153,54,-422
33,-61,109,-96,-41,-407
33,-63,120,-46,4,-345
-109,-29,-63,-2887,3191,-3351
106,-43,95,-2760,2559,-3656
-3,65,20,-3804,833,-4136
-70,-38,-77,-5683,-145,-3407
115,47,56,-4778,-420,-5422
-74,-50,43,362,-1414,-6792
108,-98,5,-1915,-946,-6207
-87,68,-30,-2243,-334,-4801
-3,-60,-4,336,430,-3059
-82,21,26,1734,2537,2056
3,127,-125,-841,1532,6179
-10,-36,118,1546,758,5531
-68,106,-86,5190,1328,4690
-97,-54,-18,7923,2433,4952
18,-23,-96,3473,2166,5266
-55,-37,-103,2808,-708,4275
-107,48,-37,3717,-1633,4762
-76,78,-83,-1029,-280,4707
-25,-3,-78,-912,8,5136
28,23,-74,286,-313,4841
7,63,-36,2696,-1059,3096
119,-119,70,2363,-2046,1132
27,125,96,1524,-632,-137
-48,-15,47,2068,984,-1174
-89,-73,23,2021,1020,-1244
-108,-111,14,1474,784,-765
-99,88,8,1159,561,-1109
-86,54,35,68,73,-1211
-11,10,24,-461,2,-694
34,-16,5,-87,209,-787
55,-42,-11,462,79,-1002
35,-30,-9,25,56,-957
32,-24,-19,-544,7,-569
43,-45,-48,-126,142,17
27,-30,-57,424,81,360
37,19,-47,115,-106,569
27,51,-34,73,-13,575
29,24,-66,907,569,102
44,28,-69,1151,543,97
45,38,-73,913,339,167
50,29,-73,763,428,318
45,18,-84,957,409,443
62,22,-94,1017,301,581
64,37,-81,958,315,453
61,35,-82,921,363,54
83,12,-85,1092,253,15
70,24,-69,233,81,448
48,58,-65,-563,-78,724
49,65,-77,-478,-54,390
51,73,-88,-258,-1,70
-54,84,88,-2326,2311,-4640
-71,88,21,-3318,864,-5050
8,-22,-77,-5055,321,-6038
-16,-56,-115,-4043,-1135,-6790
-14,-100,-70,-2805,-1494,-7471
-107,29,-83,-1671,-2409,-5709
2,-53,91,-1261,28,-4140
56,96,118,1689,2280,-922
-33,-123,-79,3058,3211,4715
94,-62,-50,-285,3669,5516
-96,1,-67,1636,4061,5463
50,118,14,4345,3667,6974
-56,-16,-9,2434,2543,7302
-97,-95,-95,4959,913,5956
-70,-103,88,1067,-43,5004
99,-106,127,-1572,-994,5584
-127,-33,-37,652,-1311,4261
-4,-104,-33,-781,399,3928
-111,-90,-45,-393,548,1669
50,101,49,1876,-973,1403
11,95,28,1997,-17,944
-77,116,9,460,355,571
96,56,-2,72,-20,94
114,7,-19,329,184,-364
-115,-6,-35,5,247,-651
-63,-41,-55,-123,251,-1124
-35,-72,-58,-25,150,-1461
-13,-111,-61,2,-22,-1636
19,103,-57,-179,-92,-1520
38,80,-66,-403,79,-1459
43,77,-60,-397,-29,-934
-13,72,-64,-481,-121,-739
-37,98,-51,-738,-244,-114
-30,125,-71,-655,17,596
-27,-115,-115,15,92,831
-20,-94,-121,481,34,1023
12,-59,117,441,216,1114
-3,-39,125,354,-43,1156
-16,-29,120,400,-94,1154
-8,4,-117,179,-276,1198
3,18,-100,364,-305,1162
8,29,-92,587,-146,724
20,23,-80,766,21,-1
11,1,-84,666,408,-552
6,-41,-109,317,619,-747
9,-75,-118,397,288,-506
-2,-79,-114,222,94,-200
3,-64,-84,-94,89,-107
73,-44,-97,-289,570,-122
87,-65,124,228,479,-434
-89,86,15,-3725,1249,-5678
-35,0,-42,-5297,289,-5691
68,-84,70,-8281,-1007,-6597
25,57,-95,-3214,483,-8626
-53,4,-42,-2177,-1617,-6434
77,-58,-53,-999,-2088,-4868
-114,86,-123,738,-348,-3310
-86,-103,1,2253,975,2172
111,53,-62,403,1871,6326
58,-125,-57,1774,2768,5846
2,51,48,5273,4236,4926
-56,6,126,6365,4192,5957
12,-20,-115,2108,2628,6297
0,16,87,835,-134,5515
-43,75,-53,1350,-1678,6064
-33,44,-37,71,-2315,6070
49,-111,-58,-1428,78,6139
41,-45,-32,-1259,314,4390
-80,-114,31,2655,-1119,1425
30,-65,60,3195,-1012,-505
-47,-114,2,1766,535,-1641
-108,18,-23,956,899,-1943
-75,-91,-31,1014,528,-2053
3,76,-27,524,269,-1777
12,54,-15,-254,-138,-1385
7,37,-10,-430,-259,-650
4,23,-34,-326,209,-422
13,17,-57,-12,244,-442
16,36,-74,-150,-10,-121
17,61,-84,-491,-32,303
6,73,-89,-217,30,455
-2,92,-98,207,133,501
-2,126,-91,98,58,599
9,-117,-101,259,134,555
18,-97,-108,304,92,397
21,-91,-108,274,81,357
15,-90,-104,394,105,309
20,-97,-107,699,240,164
26,-93,-112,575,238,69
33,-103,-124,530,155,70
39,-103,-123,247,83,127
33,-114,-123,351,56,156
38,-101,-113,118,96,178
46,-105,-120,247,119,5
43,-101,-114,15,77,57
43,-95,-120,-121,164,113
42,-95,121,30,112,74
51,-87,114,70,177,84
52,-71,103,-20,32,86
52,-71,103,41,50,47
-5,124,39,7654,-1247,-662
-18,-74,4,689,15,265
-62,-24,-114,-2684,-1734,-2690
-89,27,36,-1749,-1974,-4037
127,-35,114,-4285,-615,-5539
-67,-67,9,-4612,-2537,-4888
4,-21,111,-5703,-4830,-3396
69,-47,121,-7374,-3786,-3369
89,-102,97,-7557,-2704,-2788
-42,68,-92,-5657,-1998,-5022
-18,87,-62,-849,-803,-4966
82,106,-35,-335,-239,-3696
-39,62,104,2708,1051,-1815
-2,85,4,1307,3236,3651
62,-100,-119,538,3006,5044
107,-5,1,4496,4095,4413
-10,-14,125,8723,5314,3475
-51,-90,-90,6197,5344,3489
-114,-115,86,-1291,1811,6232
-116,64,12,2740,1452,4889
-32,-26,-46,622,927,6735
-9,-106,-111,-3373,-799,7377
35,78,116,-4467,-1566,8078
-32,-51,-14,1310,-2236,3491
83,-48,111,2454,-1014,-2165
-16,28,74,4205,735,-3816
-63,26,29,1925,1754,-2331
-64,-49,-1,-313,1467,-1697
-35,49,-37,555,410,-944
-40,33,-46,762,-71,-641
-45,29,-47,33,72,-609
-43,11,-43,74,28,-407
-18,-1,-47,350,128,-259
14,1,-61,587,239,-189
-3,4,-63,516,50,-143
11,16,-65,217,146,187
7,2,-80,754,262,64
13,1,-86,910,298,39
35,9,-93,608,249,330
42,15,-100,417,299,532
52,12,-120,540,252,684
29,41,-98,278,-21,1042
7,72,-100,-58,211,1029
-22,96,-103,-237,96,865
-7,-128,-123,-382,224,680
18,-122,115,-113,239,416
20,-113,106,121,134,218
2,-92,112,-94,111,-54
6,-100,112,-103,142,-304
24,-107,107,-183,127,-404
-128,-31,-98,-4856,2262,-2802
-22,-107,110,-1746,2101,-4691
86,-46,-2,-3654,3192,-4928
44,30,-59,-5388,2747,-5140
105,6,36,-3843,1621,-5214
125,50,99,-885,1135,-3814
-98,-24,-71,-1316,467,-3095
68,88,-2,-1666,-226,-2801
57,-23,81,-769,-785,-4095
30,2,-88,-60,-550,-5283
-7,88,55,418,-1198,-4805
77,0,-9,701,-1034,-1742
94,47,-41,3594,1414,817
28,-52,-103,-425,2163,3923
3,13,70,-1551,1188,5044
-92,88,53,2169,1185,5207
127,-119,-122,6024,2254,5562
85,112,2,5372,1863,5895
-106,61,-68,2433,1384,5407
-23,88,81,1278,-1148,3329
-35,-96,-25,-283,-1914,4614
101,-104,-35,243,-602,5835
-1,46,3,1752,-695,6751
125,9,75,1947,-1854,4794
72,-89,-103,-930,-1892,-46
-7,-17,48,4964,962,-1904
-121,37,64,3450,772,-1014
-118,91,-97,-1180,-182,-1181
5,-81,-105,-1387,-17,-1945
75,12,100,375,743,-2436
69,-55,60,1065,468,-2203
63,-38,47,377,-7,-1441
60,-58,0,-131,-12,-736
42,-60,-15,-398,39,-124
16,-60,-34,-71,-158,472
12,-22,-49,791,-52,1217
8,7,-18,2774,-741,1138
28,70,-7,1530,293,215
20,-127,-23,-378,759,687
-5,115,-47,-1069,124,738
8,102,-66,-1095,-40,558
15,102,-79,-1019,176,435
19,102,-87,-498,71,404
30,114,-83,43,-20,394
29,-117,-72,12,-52,288
29,-99,-69,-158,88,147
33,-104,-79,55,204,45
40,-104,-92,224,147,-14
44,-94,-91,75,98,20
41,-95,-93,71,139,-21
-94,21,-69,-6941,676,-6089
-13,-112,-124,-7484,-1039,-6304
-6,-73,-23,-5046,-1145,-6300
-28,-103,-46,-4685,-2337,-5668
53,108,-58,-1761,-2030,-6059
81,25,77,251,-768,-5228
-118,-27,15,428,-63,-4086
-33,-95,38,2693,1508,-796
-84,91,-7,1378,1426,5900
87,59,-88,2735,2215,5957
-54,-60,70,3191,5008,4010
30,-56,45,7320,4417,3839
-111,66,-117,3988,5081,4156
-82,63,-82,1237,2107,4036
-128,41,-92,1337,314,5025
77,76,72,-23,-435,5407
-6,-120,12,-1517,-2351,4649
116,-109,13,-685,-442,4237
-107,-61,97,-1509,726,3556
-111,65,54,2063,221,2480
89,80,45,2319,-82,1134
-29,93,49,470,-180,-114
-33,-23,37,599,104,-457
-36,-99,3,924,369,-325
-29,-104,-14,365,215,-309
-27,126,-27,319,73,-283
-15,100,-31,270,11,-262
-6,101,-30,152,20,-243
4,90,-27,128,-2,-299
14,85,-32,105,54,-183
15,95,-33,-82,-4,-122
18,93,-44,5,54,-71
17,109,-51,-54,25,26
19,122,-62,-46,48,82
18,-118,-71,28,72,170
18,-103,-76,56,86,190
22,-88,-79,68,77,167
24,-81,-82,209,109,114
29,-84,-77,375,214,27
52,-69,-82,170,134,96
28,-69,-99,-194,53,6
47,-93,-93,290,152,151
34,-78,-103,327,106,211
39,-52,-99,-3,42,286
45,-52,-106,234,109,80
52,-50,-105,195,43,-21
58,-52,-104,13,52,84
51,-56,-99,71,15,154
53,-49,-98,156,105,178
56,-38,-95,172,135,126
11,123,-35,-2214,2236,-3601
107,-2,63,-2207,2450,-4266
119,55,-14,-4351,1104,-4260
31,-105,104,-12578,1595,-4154
41,-12,-97,-3132,3116,-6174
93,49,59,-2999,1506,-5727
-89,-33,87,-3071,-209,-6348
111,95,-73,-285,-318,-6459
125,115,108,132,201,-5614
44,-2,-120,-1069,1964,-2280
-24,-27,-59,1884,1616,3362
79,125,122,304,-326,7090
-100,-48,116,3137,887,6353
58,-95,33,6588,2390,5000
-87,-120,-99,6398,2716,5289
-27,76,-66,778,1524,4681
-102,-23,21,-644,-607,5108
99,87,55,2949,-2664,4239
52,38,97,5368,-1670,5161
109,74,21,1707,-1062,6417
28,-38,70,-1651,-102,4727
115,84,95,150,-302,2548
-13,-53,-82,2538,-710,-722
-55,115,-113,2222,617,-2092
-52,-30,68,1123,1632,-2227
-44,-117,20,643,1050,-1615
-29,74,-1,415,-105,-637
-35,50,-5,158,-338,-515
-24,23,-14,-32,2,-429
-8,14,-24,114,65,-162
-5,28,-14,101,-173,298
-1,66,-9,-199,-184,570
-2,87,-9,-92,0,609
-3,111,-23,137,11,516
11,-115,-37,-115,52,501
4,-98,-45,-133,-6,455
0,-91,-58,148,118,317
1,-79,-64,155,179,112
4,-75,-73,186,115,1
7,-79,-89,191,133,-178
22,-82,-91,40,52,-229
24,-91,-90,-64,10,-124
22,-93,-84,-24,41,6
27,-89,-87,71,67,63
27,-74,-90,72,82,23
29,-72,-94,68,115,9
32,-68,-99,1,81,76
35,-65,-103,82,88,131
36,-55,-106,86,108,151
38,-50,-111,159,118,157
100,0,-121,-725,2553,-4849
-61,75,24,-3593,2768,-5421
-40,118,0,-4224,1253,-6487
-63,77,-46,-4920,328,-6316
46,-25,-36,-2803,-428,-7316
56,-56,48,-1565,-1168,-7027
91,-45,-80,822,-1584,-6335
46,23,84,-15,-1170,-4626
-51,73,-85,456,267,-1572
-12,61,-27,2620,2055,2005
-117,-55,-97,-600,1711,4418
-123,48,46,-510,2292,5535
-32,108,39,3897,2600,6469
-101,-42,32,6179,3804,6914
44,75,-99,1070,2717,5881
-82,-36,-85,893,-774,4993
-93,-18,84,3521,-2337,4677
-114,79,-22,2012,-1296,4776
-112,56,26,-1761,367,4614
93,-28,46,-1789,-252,3103
61,-105,61,-1301,-863,2530
48,72,90,1349,-787,1546
8,9,57,2960,-21,-161
-49,-50,29,3013,282,-1272
-54,-76,45,1327,304,-986
-47,-88,53,-304,349,-186
-40,105,16,-421,228,83
-30,83,-11,276,167,-128
-14,89,-29,301,271,-386
2,69,-34,577,296,-433
9,57,-46,632,353,-294
2,77,-52,-5,75,-94
8,78,-60,-254,-42,132
13,75,-68,-50,-19,226
13,99,-71,-34,-59,278
21,114,-68,24,13,266
21,-124,-69,67,-14,218
22,-111,-68,-69,33,195
20,-106,-69,-48,64,181
39,-97,-83,48,183,132
58,-94,-85,239,116,253
44,-74,-78,172,137,314
-20,-67,-85,248,155,-90
-12,-69,-93,-48,33,-46
28,-51,-83,-482,-172,240
35,-58,-75,-84,-69,95
26,-42,-79,-79,63,8
4,-35,-114,-132,-16,-197
35,-26,122,-477,-170,-140
43,-22,109,-598,-372,-74
-104,-3,-18,-3274,1532,-3877
-107,113,125,-5211,1150,-4301
70,54,94,-4420,325,-5078
-21,52,110,-5755,-213,-4781
86,-115,100,-5175,-792,-5562
60,-36,64,-1119,-1664,-6963
-104,35,13,810,12,-4982
-55,-59,114,2341,1375,-1707
-126,-21,-18,1528,1246,4633
20,-20,-95,1432,76,7781
-112,14,124,2465,2553,4941
22,107,68,6760,3477,4465
-102,45,-46,4056,2161,5516
-122,75,91,2893,1440,3389
-64,-76,-78,3817,-1237,2288
-59,49,116,534,-1088,2767
1,-110,-38,-2620,-780,4428
-30,67,82,27,-2585,4917
57,113,97,2439,-1410,4302
-105,68,15,2598,1769,2693
123,112,-64,2552,1436,2539
3,-109,24,733,-1024,1366
-52,45,24,1192,-744,-167
-50,-41,-13,1900,968,-1253
-90,-98,12,1335,608,-1506
-66,113,24,586,365,-653
-49,88,20,299,231,-322
-42,49,1,408,125,-394
-20,59,-4,-40,143,-423
2,48,-19,-68,207,-447
9,27,-37,234,134,-441
12,31,-46,111,181,-305
10,33,-57,23,137,-107
18,70,-74,-393,248,207
10,91,-77,-632,99,193
-4,72,-84,288,-233,177
2,110,-82,137,-174,344
4,-123,-84,-234,-135,531
1,-109,-86,-249,-296,598
21,-75,-85,-279,-72,598
29,-48,-84,-429,187,433
34,-20,-81,-673,265,112
30,-21,-97,-469,159,-468
19,-31,-111,-295,82,-592
7,-33,-116,-298,-129,-422
10,-48,-101,105,61,-173
21,-58,-118,571,397,-71
50,-27,-121,64,825,91
54,-45,127,189,692,15
63,-52,-119,553,-9,137
-97,28,125,-1938,2721,-4676
-115,88,31,-3940,1040,-4562
85,101,-40,-4325,387,-4743
-34,82,-75,-4194,528,-4744
38,40,-70,-2478,-138,-4650
-112,-63,21,-2890,-2000,-6310
55,-96,-101,-745,-1410,-6480
-126,94,76,404,-59,-4419
-95,9,32,4661,1271,-2865
-72,0,-15,1160,2559,4267
101,7,-113,-37,1581,6898
-55,-27,-69,2272,3916,4786
53,98,56,5174,4437,4346
-99,-128,-18,2797,2752,5357
-53,119,-72,144,1070,4597
88,46,-61,3243,-379,2690
114,-35,1,3692,418,3325
30,73,-101,1256,-610,4237
1,-101,-74,27,-824,5193
3,-128,2,-648,-14,4360
66,38,-91,973,1216,2685
50,-24,14,2028,71,2007
61,-2,36,1806,197,2242
34,5,-4,1261,622,900
-40,-47,3,1235,176,-499
-79,115,11,1434,299,-1003
-62,99,9,582,643,-872
-46,66,-9,148,524,-756
-31,14,-27,250,141,-829
-3,-1,-29,211,-34,-736
14,-11,-25,189,1,-514
7,-6,-34,-207,-199,-369
0,1,-31,-500,-439,-108
10,19,-31,-721,-413,242
5,40,-41,-663,-138,345
2,61,-58,-265,43,237
-2,91,-67,-272,-30,229
-2,110,-82,-313,61,199
0,111,-98,97,103,213
5,-128,-108,70,169,170
4,-112,-117,73,163,95
4,-109,-119,105,111,61
6,-111,-119,162,139,103
9,-100,-127,123,101,167
10,-90,-128,93,7,165
8,-87,-125,216,0,167
-8,-92,-120,448,-394,359
3,-64,-121,-287,-419,423
43,-87,105,49,326,66
32,-100,105,519,238,-130
-103,-68,97,-1413,2986,-4030
122,35,-2,-4014,3009,-3486
110,-96,56,-9030,1193,-4343
127,-11,71,-2785,2117,-5243
-92,-77,92,-2301,1725,-5857
-92,105,66,-715,194,-6335
58,-56,-103,929,-248,-6030
89,24,15,634,-564,-3730
107,96,33,2167,803,-545
9,78,-49,2094,2347,2949
-14,110,114,-643,3056,4750
-105,15,14,2068,3798,4730
107,98,118,5940,3792,5986
-101,-18,-28,1151,-1727,7493
-106,-44,72,1446,-2586,5060
60,-94,-42,4111,980,4785
-100,36,-32,351,-1302,4022
-46,-63,-104,1732,-113,3417
-77,-123,-33,1102,-308,2511
59,-89,-42,-100,-741,2971
-40,114,111,-591,-1582,1303
52,-26,-63,1936,1224,374
25,-47,-22,2200,705,400
-117,-20,-2,1084,-415,540
-123,-18,35,-274,-114,111
-19,-114,-58,621,1078,-472
-31,79,-27,1040,201,-806
-63,89,-5,492,-77,-493
-37,59,-38,-17,805,-702
41,-2,-94,942,748,-649
19,27,-74,717,9,-115
-2,35,-71,2,-58,-171
21,16,-63,84,149,17
57,-4,-94,1185,396,228
42,34,-76,1102,-9,160
37,94,-52,-310,-45,280
25,71,-54,-574,25,186
41,46,-63,12,320,90
44,32,-79,723,386,4
32,40,-94,878,443,66
35,66,-96,169,71,485
63,114,-94,-513,-86,663
57,111,-102,-228,95,407
48,122,-97,-13,113,268
58,124,-109,255,340,47
58,124,-119,291,360,-58
58,119,120,255,274,-121
53,111,111,187,179,-128
65,113,111,13,114,-6
85,119,108,57,16,96
-109,-26,1,-7276,-158,1002
-4,41,-34,-4577,1913,-1385
-75,-39,56,-156,5449,-4934
103,67,92,-3544,6163,-5421
20,32,-80,-7581,2562,-5342
-66,-52,105,-6393,319,-6078
74,-47,27,-1716,-84,-7263
71,118,11,-1525,-658,-5907
-124,83,89,-2022,-785,-5272
86,-22,-82,3395,1833,-3903
38,35,67,539,1796,2923
-112,82,-74,1335,1852,5172
116,5,6,3706,2974,4817
-18,111,-75,5925,5388,4246
-38,23,101,6809,4446,5589
-97,-117,27,2268,-1765,9173
71,-69,-58,2119,-2161,6220
-88,25,-100,3351,-1497,4564
59,125,93,805,926,5238
78,-126,16,1483,1554,4762
-60,103,-101,1360,395,4234
26,-60,0,117,-633,-1243
-16,38,21,5057,-157,-3721
-20,96,-1,3964,1552,-1870
-30,-123,10,-359,1843,-716
-89,55,8,-1787,28,803
109,63,17,-1425,-1154,1473
-94,103,-16,-1357,-195,947
2,91,-63,11,938,-20
-27,43,-66,1921,638,-1019
23,90,-22,558,131,-850
2,83,-6,-976,183,-364
11,1,-37,-348,735,-369
32,-63,-91,1421,1016,-561
3,4,-59,589,100,4
3,45,-81,-1006,-34,281
-21,31,-82,-1017,-604,1260
-6,-67,-48,-1951,-856,2174
42,-51,-82,-1140,146,1156
27,-101,-123,1089,817,-319
24,120,-124,2386,299,-962
13,-65,-87,472,-98,-39
8,-59,-89,-796,65,100
9,-124,-109,38,-79,-61
32,-113,-98,284,-190,39
57,-76,-89,-172,35,-7
60,-94,-103,306,62,-223
57,-92,-94,287,-21,-241
55,-96,-92,216,182,-164
44,-99,-95,296,185,23
29,91,63,-2881,4277,-1133
49,125,-81,-4533,4073,-2727
-60,120,96,-3204,3343,-4865
-39,28,90,-2721,1687,-4754
6,-25,69,-3343,883,-5445
-119,111,98,-1097,140,-5943
117,97,-50,-1686,-69,-5051
-15,-4,-79,429,999,-4203
19,105,-70,2017,1738,-248
-21,-100,3,496,2490,5295
2,-112,86,922,2993,6770
-120,-110,-74,3853,4423,5622
85,69,67,5500,3607,6568
-109,54,-40,2326,326,7243
44,62,-31,2264,-2686,5119
-15,-18,121,4617,-2582,4404
18,105,-41,1277,-2104,6620
-118,-31,60,-530,491,5898
-124,-12,-20,1392,1005,4403
110,56,-87,1361,-692,772
-48,84,-99,2888,-661,-2583
-65,-50,118,2697,882,-2215
-58,115,49,328,1739,-1609
-63,62,33,-221,537,-553
-54,43,20,-652,-379,-164
-23,2,-12,-346,207,-766
-1,-57,-30,650,362,-737
-3,-44,-23,420,48,-375
2,-28,-17,-209,-108,56
26,-9,-31,-275,-18,396
13,17,-30,-189,-105,383
5,43,-41,62,47,289
0,53,-51,279,105,253
1,80,-55,88,5,421
0,109,-59,4,38,387
13,116,-63,87,98,216
21,122,-67,140,35,157
12,125,-64,89,205,87
13,115,-76,331,269,-26
28,118,-88,323,264,-62
46,115,-98,326,297,-128
44,102,-105,418,241,-175
58,93,-104,328,201,-80
58,102,-96,24,127,257
40,110,-96,13,153,296
47,112,-110,375,258,429
45,-105,-105,20,61,481
58,-87,-112,26,170,358
57,-94,-121,317,165,100
62,-80,-118,86,58,89
99,-107,33,-3776,2425,-5243
-34,18,-87,-2947,2600,-4009
-9,-18,-2,-7230,2005,-3865
-31,-77,94,-8787,115,-4110
-67,-28,-93,-5615,996,-4789
17,-34,90,-4461,1090,-6650
92,64,9,-2521,485,-6421
-47,103,123,-1611,857,-6335
-90,31,11,872,1614,-5354
-75,-35,65,803,898,-1083
24,-11,-8,3263,2112,5303
6,-60,70,867,2715,6994
70,-3,-121,4609,4560,5797
-66,113,-110,5217,3098,6617
-102,-58,35,790,-824,6629
-73,-100,-79,4834,-353,4179
126,104,-38,3024,-1223,4592
-116,-33,98,3921,-1179,5819
-112,85,-45,-91,1333,6756
85,-24,-94,-1483,1628,4933
64,111,54,280,-88,858
-54,99,56,4335,-184,-2587
-75,66,14,1992,442,-2108
-81,-28,-17,-499,533,-1044
-116,101,1,391,-448,-490
-71,32,2,787,-112,-805
-19,21,-25,616,718,-663
18,-5,-42,563,736,-320
-46,-5,-43,255,44,233
-50,29,-9,-240,-86,507
24,45,-58,-133,884,225
12,4,-90,1289,591,-238
-3,3,-76,1282,377,-28
-4,22,-58,419,500,226
12,2,-81,798,587,467
16,29,-74,613,206,539
13,49,-76,579,281,474
17,63,-56,335,102,336
51,58,-58,446,134,204
42,62,-25,395,165,286
39,44,-61,518,593,-2
60,47,-74,467,358,48
57,38,-79,367,161,-20
65,29,-74,295,317,34
80,35,-65,261,171,202
80,57,-59,108,206,337
73,66,-69,256,287,235
68,82,-80,238,183,139
75,90,-82,97,182,37
76,83,-91,204,132,8
96,-107,-43,-5423,2502,-3999
-85,-18,-56,-2556,1236,-8522
118,-55,-84,-4568,691,-6230
49,-94,58,-6487,495,-5984
99,-40,-64,-4508,-314,-6497
-17,77,38,-2811,-994,-6335
50,78,20,-1013,-2077,-4844
2,-116,30,-777,-1345,-3883
94,-83,-127,1344,805,-2582
-82,-116,-10,2304,2928,364
100,-77,-119,94,3048,4422
64,27,-83,1618,2285,6069
-50,-2,57,3909,2816,5930
75,-95,81,4472,2323,5904
-77,90,-63,3187,564,7426
-28,123,-10,4122,122,6362
44,-86,52,1891,515,5699
10,73,109,-2726,1008,5681
-55,10,-95,-1503,-307,5625
-27,43,3,-48,337,4350
110,-79,80,1956,-424,293
67,65,-119,3206,-728,-201
32,93,101,870,-126,67
-18,27,94,382,32,-350
5,-52,50,299,555,-752
4,-78,24,125,534,-920
10,-121,-3,452,483,-663
1,121,-20,405,284,-713
16,123,-23,99,214,-335
17,115,-24,42,59,-258
21,114,-22,53,68,-223
24,-126,-18,-225,-87,-182
34,-113,-12,-292,-28,65
31,-99,-13,-166,44,59
28,-82,-11,-34,28,123
37,-69,-11,3,114,169
37,-49,-19,-58,103,151
50,-40,-19,-42,138,176
58,-34,-30,165,168,113
58,-26,-40,207,137,38
58,-27,-44,239,76,19
81,-31,-35,416,149,50
59,-30,-24,54,-69,-248
59,-33,-17,157,-220,-163
84,-31,-37,435,159,-3
56,-33,-58,447,284,-115
71,-41,-61,471,200,34
71,-46,-67,428,36,-84
51,-40,-57,-38,-369,-79
86,-4,-51,-39,129,576
-114,-40,-116,-5880,557,-3082
90,23,-70,-6350,-519,-3428
33,-65,-17,-4440,-143,-3792
87,12,116,-2449,-505,-3980
-45,-51,-56,-2497,-1046,-3366
-75,-93,48,-2011,-1130,-3754
-47,-125,-36,-228,-584,-4280
33,102,-73,988,1297,-4194
127,-80,4,1041,3282,-1262
6,109,-102,704,1924,3217
-6,37,122,-1348,1320,5105
104,98,-70,1131,1663,5049
-31,-46,-27,3459,1252,5225
-103,91,65,2715,1584,4739
-40,-126,28,2561,119,4910
-38,-115,-54,2474,-869,4955
-109,36,-27,3172,-1825,4036
-124,11,-128,2463,-1296,4190
-14,32,-46,1258,390,4666
48,113,14,1012,702,4737
83,-103,41,1084,363,4130
127,111,-115,-1796,-1111,2393
-30,-75,101,-602,-138,-990
-14,-121,-102,3510,650,-935
-37,-106,98,1915,744,-862
-41,102,60,366,468,-352
-31,84,27,-245,136,26
-20,62,0,9,53,-44
-13,57,-20,262,37,-304
-10,42,-25,450,14,-275
0,0,0,0,0,0
0,0,0,0,0,0
92,-88,-109,562,868,600
92,-88,-109,562,868,600
111,-110,-102,952,668,351
101,121,-101,1101,539,267
101,116,-119,948,514,396
112,-119,126,501,389,478
107,110,126,772,-52,289
114,120,-125,396,-364,343
109,117,126,160,-453,431
101,118,110,129,-534,441
-117,-120,87,40,-287,317
-111,124,76,-39,42,-69
123,102,92,-100,237,-173
125,92,100,348,259,-123
104,104,90,819,280,-171
102,114,74,826,332,-216
116,115,60,606,578,50
-118,126,50,464,641,-175
2,34,59,-4830,-243,-3528
-97,96,15,-4878,-578,-4566
46,-54,-107,-3392,-231,-5570
123,26,-96,-2029,-308,-5760
65,125,37,-681,114,-5588
68,-94,35,368,-367,-4083
111,-39,120,2374,908,-1106
63,8,36,1544,2155,3092
-14,-58,-56,542,1969,6080
111,-23,-36,2664,2463,5808
61,-115,-111,5433,2959,5595
60,112,110,4095,1206,7240
121,-8,105,2710,-631,5822
76,-113,-53,6158,-1587,4356
-113,122,-74,3890,-1142,6117
-75,-33,-19,-366,1030,5261
57,78,26,-1361,240,4638
-128,-15,-106,-274,-1272,1220
43,49,-95,2490,-158,-1485
17,-58,95,2147,1050,-2007
44,-93,43,147,939,-1398
26,94,35,466,107,-394
8,74,23,519,-23,92
21,89,11,561,300,182
28,123,2,478,275,168
54,-113,-3,336,177,58
74,-107,-9,409,251,-31
72,-110,-19,639,207,-59
53,-91,-9,310,57,148
57,-86,-16,380,245,243
63,-57,-20,303,70,400
72,-31,-20,163,83,419
85,-14,-22,337,147,310
87,2,-22,331,131,209
97,6,-20,463,225,169
118,13,-21,581,288,196
111,20,-26,652,312,73
108,17,-31,643,247,78
113,22,-32,408,202,239
120,23,-35,473,165,362
118,41,-33,410,131,327
120,48,-37,475,139,232
126,50,-33,492,136,262
-94,69,-35,315,64,388
-104,69,-35,529,34,158
-120,76,-20,287,-26,79
-109,89,-10,-132,10,163
-103,71,-12,376,119,0
-95,82,-12,326,109,-33
-114,86,-8,175,19,-45
-89,31,-100,-2832,2034,-4550
-13,-116,80,-4873,1703,-4279
1,-74,-39,-7692,2572,-4107
36,13,6,-5478,1863,-4504
44,-36,96,-3966,663,-5017
99,118,-22,-3443,-63,-5350
83,-61,57,-1241,-68,-6173
1,-124,-41,609,-1341,-5348
-38,-92,41,-474,542,-3772
42,-51,-120,3707,1934,-148
-77,65,41,1528,2591,4570
98,-46,116,1654,2855,6108
-51,-67,33,4447,3522,5433
-88,-41,-27,5427,4402,6080
90,21,100,3434,2566,7334
-113,70,91,1759,87,5891
14,-120,-109,3791,-293,4413
-30,-108,-56,1403,-1690,6197
106,-92,8,-132,262,6410
-93,35,-35,-223,720,5500
-65,47,84,746,-1018,968
71,72,-127,4006,-736,-2597
54,-2,-126,3139,351,-2051
37,-81,87,652,1038,-1730
43,119,59,-108,418,-658
25,113,26,-472,-175,-62
36,109,-9,-393,-154,-123
16,124,-12,10,47,-162
5,-111,-22,135,83,-242
39,-85,-21,-114,-26,-13
52,-74,-23,75,177,-58
42,-57,-16,436,33,35
29,-35,2,367,-365,453
44,9,21,223,-198,741
83,7,-5,1066,331,369
76,-8,-26,1699,524,-120
51,14,-18,952,247,87
67,23,-9,-41,226,502
98,23,-6,-190,193,939
-125,76,18,-737,68,1051
-101,106,33,-499,361,624
-73,55,9,947,886,-366
-89,6,-46,1844,950,-1122
-106,26,-66,1125,808,-753
-99,20,-65,364,869,-189
-103,31,-7,-105,-13,654
-110,48,17,-606,160,650
-94,16,12,205,377,258
-78,5,33,1062,80,478
-76,56,56,468,-213,665
78,-15,-68,-3697,2314,-3507
28,26,108,-4509,1227,-4292
-104,104,91,-6334,446,-4300
19,-110,115,-7803,333,-5249
-115,116,17,-479,242,-6464
-41,-72,-60,1547,529,-7296
98,-15,50,-2092,-235,-3162
-74,-102,-109,2425,2156,226
103,28,5,1118,2974,4976
96,-3,127,1400,1514,7152
41,110,107,5569,2847,6112
48,-9,-103,3585,-222,7145
113,62,78,1502,-3506,5710
-84,-35,122,2770,-2143,3235
-108,-120,-108,408,-2507,3899
-67,65,-19,877,-2991,4590
80,106,67,1332,-1259,3075
-53,105,20,919,-681,1671
63,50,30,270,-71,-28
46,-102,-17,1036,1074,-1251
24,106,-79,703,927,-753
1,64,108,341,361,-249
-9,43,114,292,-99,85
26,39,115,179,-139,316
52,23,44,557,256,174
58,25,26,554,216,-116
53,58,32,317,-5,219
72,53,42,344,13,194
71,55,41,451,115,223
83,81,48,19,51,376
91,55,45,609,-68,367
100,70,46,508,37,473
103,85,48,392,42,538
111,76,38,682,203,409
121,84,46,432,328,377
-112,65,35,550,487,30
-127,72,32,933,48,149
-118,89,30,384,197,207
-106,84,24,192,128,203
-106,74,25,440,17,175
-102,84,28,300,120,175
-102,85,27,349,102,177
-99,87,30,381,108,191
-95,97,32,305,98,193
-91,93,32,449,131,146
-88,97,33,398,180,158
-90,99,29,374,137,191
-87,103,29,356,115,200
-87,106,28,318,126,213
-86,110,26,354,98,202
9,75,121,-5508,2652,-3717
-12,56,90,-5974,1773,-4156
126,-118,80,-7619,1223,-3796
126,-120,29,-3354,771,-5030
-98,98,-82,-1256,1403,-6045
-45,-30,-13,263,995,-6472
-38,27,-118,332,1010,-4847
126,31,77,1193,2360,-991
122,71,-4,2928,1772,4214
37,34,-77,1795,510,7219
13,60,-127,4436,4036,5380
-95,106,29,5877,4024,5586
-49,13,84,118,2072,5400
-48,109,-76,3598,323,4708
-88,-75,-67,-107,-3258,6500
-12,106,16,1685,-4392,6231
-114,-109,99,988,-1948,6286
-41,0,115,1044,-206,4043
-24,47,-94,935,-110,1102
53,98,-61,2366,938,-1995
12,-11,126,2191,1117,-2145
23,5,67,-809,1031,-1288
23,65,-4,610,12,-651
20,79,-10,676,-148,400
27,-84,-19,-535,5,374
63,-110,-43,482,188,-281
48,-119,-41,865,44,-372
30,-69,-5,-159,-213,297
54,-48,-1,-37,-315,599
75,-12,7,179,-26,301
68,-6,19,274,-63,240
52,36,31,-258,10,422
53,41,11,19,274,297
51,59,-8,217,207,192
68,64,-25,420,244,147
86,54,-40,782,280,77
89,58,-41,671,99,108
105,50,-20,449,-10,413
94,66,-17,343,-79,393
102,81,7,367,-134,396
115,95,8,434,230,361
113,98,3,561,142,194
124,113,-11,272,220,132
-122,108,-21,182,250,94
-120,96,-21,324,193,84
-117,93,-15,354,82,176
-120,102,-12,205,103,216
-117,114,-7,110,66,238
-107,124,-3,103,198,222
-108,116,-8,439,215,-18
9,-26,-24,1064,2545,-4511
57,53,-104,-838,3194,-5720
73,3,47,-1376,1598,-5580
78,-5,-111,-2333,846,-6048
1,-78,101,-2219,364,-6332
88,70,102,-4461,-413,-6486
-83,62,89,-1594,-1018,-5818
-14,7,-79,2026,-1752,-4809
-115,-24,37,377,-1377,-4295
-26,106,-9,1498,1119,-1884
-19,4,-78,1216,1695,1308
-110,120,-122,-1186,1281,4242
-67,94,93,1672,1351,5331
104,-23,-70,1543,1340,4956
-54,-107,9,1340,224,5302
59,-83,99,1458,-1991,5725
-101,-89,74,2408,-3503,6186
-66,115,126,3170,-3543,5591
57,-63,96,2216,-2273,5745
-14,-59,111,3388,-777,5057
85,-65,-51,337,417,4506
-75,-112,-14,618,-964,1564
79,-57,-40,1838,429,-720
13,126,-116,-56,757,-442
-32,33,77,-299,-93,-68
-6,-71,57,1404,-70,7
25,-51,27,912,390,-356
38,-52,18,112,283,-457
68,-99,3,934,196,-269
64,-73,9,349,51,-281
62,-51,21,-161,-122,21
70,-27,24,107,-34,-3
66,9,36,167,-79,-205
62,32,31,-113,62,-181
53,27,37,-3,21,213
49,47,37,-45,69,408
75,80,36,-9,164,430
86,97,28,94,216,247
98,102,15,264,349,35
104,98,11,338,334,22
100,99,7,289,270,89
104,91,20,489,189,147
117,91,22,678,378,115
117,99,33,589,259,113
118,93,55,639,259,92
-107,94,52,569,481,155
-86,101,46,725,257,261
-104,110,48,564,342,84
-79,101,33,470,194,150
116,113,66,-29,-232,383
19,-86,-67,-1000,1213,-5995
116,56,-116,-3504,1793,-7151
90,-91,-59,-2107,-196,-8033
103,-125,-43,-3022,-2263,-5927
-53,83,-116,-2922,-1795,-5383
-9,10,-107,-575,-2629,-5271
-58,68,53,1211,-3253,-4704
-60,-46,54,2152,-2291,-3239
33,83,73,1516,-513,-1422
103,-5,58,1466,1527,893
100,-122,-36,708,3716,2969
55,101,-123,570,4645,4153
100,-25,118,2569,3805,4770
-61,-2,12,2238,2108,6454
-36,-63,18,2018,-901,7326
103,-87,15,2823,-507,5942
5,21,71,4238,-715,5572
-67,74,95,3541,345,6562
57,-18,79,2967,984,5496
93,83,-105,-722,1091,4295
124,-89,79,536,-1242,708
58,-65,114,4009,-219,-1452
88,-59,23,3011,1695,-879
-27,-49,33,1558,423,-103
-23,-48,84,-510,-661,-503
56,127,57,-591,131,-1433
112,34,44,106,802,-1939
79,9,54,787,222,-1330
66,49,37,235,113,-303
51,87,13,-591,-18,173
43,89,-12,-127,-77,293
55,-126,-26,107,355,269
64,-70,-1,-14,87,525
55,-26,21,18,-365,761
72,-2,27,165,-222,841
78,17,31,499,-151,764
80,44,36,545,-49,603
99,59,24,307,302,266
111,70,37,362,436,24
109,33,23,715,336,46
117,36,5,591,245,215
120,43,-12,275,234,116
121,40,-13,402,140,131
121,36,-8,475,164,191
126,45,-1,450,233,230
-119,62,10,365,200,161
-111,67,16,313,-39,350
-116,77,29,239,3,485
-111,96,28,97,96,421
-106,101,26,253,67,281
48,-41,34,-1724,1249,-5182
31,-94,-47,-3192,520,-5218
-76,-13,-83,-2771,373,-4520
-43,-92,-71,-2741,-402,-5215
91,120,-3,-2594,-663,-5062
-24,-27,95,-2077,-795,-5697
-58,-127,-106,518,-630,-5866
-75,41,-6,1291,-804,-5104
19,-13,-5,-417,47,-1400
61,38,-63,905,1471,1345
-84,60,-124,563,1898,3889
-110,86,109,-1505,773,4817
61,-48,-18,2141,1068,5739
59,-95,12,4809,1726,6463
127,-94,-52,1927,597,6381
-67,-62,-106,1306,-300,5873
29,96,99,2338,-1432,6373
42,-125,120,2030,-3743,6859
19,-24,-126,345,220,6112
-57,110,-91,-303,680,4172
-26,73,8,1252,-1207,1367
102,-77,5,1991,-143,-271
44,102,-40,1502,408,-282
37,25,-99,1347,385,-517
59,-20,116,570,316,-802
78,-68,86,447,72,-1021
74,-107,78,676,-188,-682
57,-109,73,383,-174,-470
59,-99,73,-169,89,-147
49,-93,76,131,64,286
48,-73,70,393,-4,457
63,-21,62,164,59,586
78,-7,47,319,96,551
86,17,44,476,62,532
88,35,44,425,61,389
98,52,54,260,34,335
105,51,59,465,179,234
110,62,63,346,137,145
114,65,61,303,180,44
116,55,57,439,215,-25
116,57,50,373,188,-55
117,47,41,477,197,-49
121,46,40,416,105,140
126,58,45,216,-51,408
127,71,57,178,-25,473
-120,84,66,336,92,466
-115,99,66,255,71,401
-106,110,67,226,77,373
-102,113,65,359,158,284
-101,120,62,309,186,191
60,-76,-44,-2326,371,-5423
49,-107,-93,-2951,-159,-5399
-74,85,-124,-2983,-628,-5460
4,-23,101,-2793,-1456,-4938
91,113,108,-2565,-2068,-4654
-14,-75,-54,-2284,-1817,-4290
-79,51,80,567,-1304,-5201
-57,22,-97,57,-81,-2963
-13,-34,7,854,1599,-2069
-54,-39,-76,781,2132,1321
-110,-78,-126,-1145,643,5480
8,115,107,1906,1445,5565
-47,32,-112,4219,2536,5727
-96,92,-106,3518,2474,6465
-114,38,-74,1303,-565,6311
-28,-100,101,3401,-314,5208
-15,37,63,4680,245,4585
-20,111,-23,1187,63,5400
24,98,-8,887,13,4543
65,77,27,-184,841,4178
5,111,13,450,-301,3313
52,102,100,1501,-829,-135
57,28,121,1953,809,-1037
7,-5,117,905,779,-755
5,-14,86,-509,272,-208
34,-72,40,-270,49,-581
56,-119,1,532,305,-1011
65,-115,-6,254,392,-1090
66,-118,-2,13,104,-824
54,-119,-1,79,-57,-376
49,-96,13,-105,-65,-56
40,-69,23,-72,-135,263
46,-45,24,429,0,473
53,-30,1,2154,-201,-24
58,29,12,1136,270,-473
26,52,21,-551,-92,350
22,44,13,-426,-82,800
47,56,4,-283,124,687
63,67,-7,303,85,485
80,87,-7,228,129,354
80,93,-5,255,79,246
79,97,-1,277,55,326
79,109,6,261,71,357
92,121,4,277,148,346
99,-128,3,201,86,285
107,-124,3,131,89,246
111,-126,9,156,50,241
114,-126,11,185,70,238
118,-124,13,245,42,269
127,-117,17,285,93,272
-15,28,-68,-2427,915,-5245
-36,-32,-112,-2842,243,-5654
-102,-112,98,-3069,141,-6077
-9,-73,88,-2535,-761,-5750
119,-34,89,-1962,-1206,-5588
13,-7,-108,-535,-1705,-5182
-78,-61,113,881,-1781,-3992
-52,-51,98,2154,-551,-3530
75,-108,19,1051,1582,-928
57,89,-84,918,2007,2685
-14,109,124,-938,2339,4616
67,-80,12,1191,1612,5601
-69,59,3,3422,1870,5639
36,-20,123,1290,925,5928
110,-128,84,2872,-1369,7166
104,-25,-72,1768,-2261,6424
-74,-94,-39,3659,-1086,5338
-43,45,113,2096,-1938,6045
42,100,-41,-1470,-1319,5469
23,0,-57,329,-1646,4009
-76,-28,-24,1309,-942,1719
74,110,-79,2259,863,-1439
23,36,110,2252,1317,-1790
5,-38,26,1436,1320,-1725
15,-77,13,1089,517,-866
4,-78,18,347,-102,-125
22,-96,10,-3,-157,150
24,-87,20,251,-89,287
31,-73,23,396,-64,264
37,-36,26,334,-98,338
41,-13,35,16,-26,292
54,-14,30,324,59,236
61,4,24,458,153,175
63,12,16,393,221,119
64,22,6,274,180,267
66,26,4,262,109,361
73,41,-4,319,145,387
84,62,-6,279,84,353
88,73,-2,309,79,304
92,81,2,322,135,203
99,81,3,430,101,118
104,86,6,346,149,93
111,78,7,446,152,56
111,81,6,394,151,146
121,75,3,560,249,183
125,79,-1,577,180,199
-125,80,-8,662,278,190
-118,70,-11,851,298,114
-110,66,-13,749,217,190
-105,62,-11,629,240,421
60,-44,-45,-2436,-1060,-5287
6,-110,2,-2909,-1716,-6101
-87,5,92,-3039,-2174,-5846
52,93,-4,-1631,-2222,-5900
-26,-49,-109,1441,-1782,-5077
15,-86,-24,685,585,-3479
43,-8,-13,-894,1511,-380
13,14,-103,1561,2799,2389
-102,-74,105,-417,2094,3938
-25,-99,26,209,1356,5200
-89,39,27,4115,1876,6151
42,119,-14,1771,1794,6799
91,-97,123,796,-52,6959
101,-14,81,2823,-695,4393
90,107,103,3068,-587,4524
-122,97,-48,1899,-598,5691
-35,78,-35,2160,-342,5101
86,101,-35,1088,804,4238
31,-37,-31,-461,649,3684
99,-90,56,212,-912,655
67,38,69,2320,114,-984
37,-9,48,1684,962,-1430
48,-35,13,81,844,-1413
50,-111,-7,123,12,-905
65,119,-1,253,-282,-685
94,122,-4,59,117,-545
91,100,-15,525,255,-488
84,108,-12,927,157,-49
83,-96,-2,201,193,323
58,-70,14,11,210,280
49,-79,-6,861,571,181
67,-69,-17,1276,363,309
109,-31,-43,786,373,655
87,-18,-37,272,8,772
106,-6,-35,238,137,806
117,-9,-33,573,258,635
119,-7,-35,927,195,581
-127,15,-35,547,315,442
-128,6,-49,829,170,364
-120,26,-45,338,-34,302
-126,28,-36,141,-26,202
-115,14,-36,454,129,62
-111,17,-40,530,146,-21
-101,24,-44,411,140,15
-92,16,-43,560,146,-26
-86,13,-48,618,239,-154
-103,16,-45,294,76,-170
-99,-12,-51,349,209,70
-109,-5,-49,352,208,384
-103,-3,-47,537,199,569
-103,-115,-51,-2805,680,-5288
108,-7,-45,-3899,-945,-6035
30,39,4,-2128,-1685,-7194
-92,-17,-76,-851,-1921,-6041
-18,-116,-117,1948,-2123,-6243
60,-73,-33,794,-1163,-3875
10,88,10,279,1965,-1187
-74,-70,-83,2334,3142,3724
5,-90,121,-570,2387,5955
88,-9,111,789,2451,6339
45,-109,-125,3186,3114,7534
-98,-107,95,-54,1598,7182
-76,13,9,2060,-1815,6323
108,-42,68,994,-2462,3999
87,-69,-128,2970,-1995,4407
-40,116,31,4133,-834,5985
119,0,-68,2618,2322,5402
78,-105,-88,-274,2033,5202
84,-11,67,-260,-1487,500
24,-63,79,3609,-1554,-3188
71,-50,27,2132,1420,-1699
60,-90,17,-758,1538,-1187
55,47,-2,173,10,-498
42,43,-13,43,-664,850
54,97,-15,-670,28,444
87,119,-41,-405,512,207
88,-96,-25,-342,191,350
103,-86,-6,287,471,382
120,-55,4,444,449,403
109,-41,8,873,-164,316
120,-22,-1,672,223,231
117,4,-6,85,196,329
-126,4,7,306,-79,316
-118,16,27,333,382,241
-106,-16,25,1135,483,44
-91,-30,0,1784,416,-234
-95,-4,-2,914,319,-86
-97,23,-1,-317,79,66
-96,-13,-10,366,238,62
-97,-8,-16,725,305,-24
-99,3,-20,635,209,-22
-95,-6,-23,787,214,3
-98,-10,-30,968,27,53
-92,23,-28,353,73,266
-98,28,-16,330,-37,320
-97,37,-8,448,-27,320
-93,52,-3,368,58,303
-91,62,0,354,21,275
-92,74,-3,313,88,146
-94,71,-7,357,151,126
2,-123,-36,-2568,899,-4766
-81,84,-68,-2472,283,-5008
107,37,-71,-2038,-278,-5335
84,-4,-76,-2020,-739,-5938
19,54,6,61,-2079,-6751
47,125,-79,269,-675,-4705
65,-42,-23,766,435,-2399
51,-31,-83,1256,2305,-196
-78,94,117,587,1645,2692
112,14,84,-1259,1019,4430
-2,99,-63,892,1063,5816
-28,-16,19,3724,1285,6848
-95,24,-43,993,526,7722
70,1,16,-4099,-2294,5364
29,-84,89,7265,-2343,2100
56,-3,122,3011,-1284,4839
29,-67,-124,2883,40,4389
-118,-38,112,1880,1021,5108
-37,-102,46,1544,872,4412
38,-120,40,1101,123,4113
-20,-21,55,-152,-540,2746
75,113,65,578,-348,-1066
83,-40,50,2290,746,-1972
52,-115,39,1464,1200,-1306
38,106,47,838,343,-421
70,90,58,530,-61,-335
78,50,47,116,172,-618
92,36,25,485,401,-309
98,77,12,320,189,347
90,-119,8,110,-111,513
96,-92,14,295,26,520
107,-59,12,379,86,481
96,-37,21,331,-78,437
103,-15,25,263,51,432
110,8,24,196,15,394
116,14,22,415,68,216
117,19,20,474,187,86
126,14,17,572,195,57
-127,11,13,531,223,-32
-126,4,11,489,204,32
-123,1,6,546,184,98
-119,14,3,417,123,176
-119,23,3,332,105,228
-114,36,0,301,85,242
-115,42,6,383,25,263
-110,57,10,279,84,304
-108,72,12,218,41,302
-102,82,18,339,44,216
-97,89,23,316,146,99
-98,85,21,324,161,120
127,-106,119,-1762,-466,-5955
7,17,-121,-1994,-1348,-5914
-94,58,-82,-1799,-1529,-6107
105,55,10,-284,-1532,-6072
52,-105,-101,1418,-1090,-5168
113,6,-61,1431,1291,-3821
82,12,-91,-606,1809,-522
-33,-2,111,1078,860,2572
-81,-42,83,-992,228,5411
36,77,-48,831,539,6272
7,15,42,3338,977,6936
-60,-4,-8,2722,2244,6120
42,3,-32,9,951,6873
-16,-71,9,4123,-325,4255
78,107,95,1173,-1645,5154
45,114,-30,1993,-1396,4832
-27,-101,36,1577,779,5536
103,2,28,549,1353,5685
28,76,18,-322,484,3693
79,103,82,1876,-1444,-973
70,-23,70,3267,-825,-1884
32,-18,34,809,1325,-964
8,-61,25,-379,906,-352
9,-125,8,477,-160,-260
64,-98,7,-93,-101,-473
97,-118,-7,45,236,-690
96,99,-6,609,84,-508
84,-103,-1,-22,-30,30
87,-85,-8,171,-36,-5
66,-66,10,245,-106,11
67,-41,18,-1,81,139
77,-14,12,2,95,292
89,17,0,112,64,316
88,54,5,-9,-50,314
74,72,10,84,-11,228
69,77,19,176,-5,297
72,91,25,148,10,353
92,110,29,175,108,330
103,118,25,234,152,222
112,127,18,246,131,156
110,127,17,302,140,46
116,126,16,286,176,-1
127,124,18,316,129,-16
124,121,17,340,146,-67
117,121,17,228,112,6
117,117,15,288,110,144
127,127,13,244,55,330
-119,-115,14,255,5,373
-108,-105,21,228,53,372
-110,-100,24,329,69,270
-126,56,4,-2934,-1303,-4408
59,40,116,-2068,-773,-5281
43,-128,-111,-698,-486,-6066
-14,-88,-11,-324,-657,-5230
22,68,100,-44,-200,-4318
92,-14,-61,615,1139,-2140
35,-8,-116,2363,1713,1653
-78,-103,109,596,683,4440
-8,-90,45,-1100,1008,5459
-94,-35,99,2093,1287,6489
-117,-117,-74,6344,2155,8158
0,-7,-63,-205,688,5968
-25,127,-101,-2268,-2938,3301
-34,81,-38,3348,-2245,3742
112,34,19,4051,-870,4250
-109,-99,107,1289,-1509,5030
43,-83,83,760,131,5728
102,43,43,755,696,4673
-35,-105,108,3296,-1023,662
67,34,83,4059,-766,-1386
60,-23,40,2140,1125,-1728
60,-97,26,1035,1354,-1165
9,105,45,648,136,-364
23,101,45,264,-352,-296
76,98,27,-149,234,-626
89,98,30,-58,47,-635
99,103,19,-14,-12,-596
-127,-82,37,-755,-138,72
79,-50,27,-722,79,-264
27,-90,3,585,348,-629
54,-45,14,287,213,-6
59,42,33,-467,-191,280
67,65,45,-500,324,-211
60,53,37,446,444,-204
34,75,46,523,-235,255
47,98,25,83,52,440
60,98,27,326,-51,321
84,103,26,546,-21,222
101,-124,52,127,-143,400
89,122,53,313,157,237
92,94,34,762,296,256
96,108,21,522,25,488
102,126,22,215,-84,478
118,121,35,331,-10,494
123,109,30,574,123,336
-127,107,39,421,164,347
-98,108,28,394,357,429
-107,94,16,584,11,553
-97,114,25,174,107,798
-93,105,9,378,155,654
25,-120,-32,-1602,-39,-7547
113,54,81,-401,-1920,-6079
59,-83,-94,1013,-1500,-5358
30,-14,121,1157,-286,-4492
62,-84,-57,1256,1190,-1307
-33,18,-114,924,842,2711
-125,-98,115,-1192,1000,4841
-64,-122,67,-286,1054,4944
-66,57,105,3194,1511,6196
-68,-19,-32,4730,2299,6832
63,-125,-115,-278,1210,5959
-52,66,30,-489,-3447,2699
61,-104,0,2011,-3578,3437
-16,-47,-118,3426,-3404,4345
81,91,-3,3592,108,5440
24,32,13,7015,2878,4026
-47,43,-79,2925,3113,5331
-41,56,86,-1789,-814,3579
-20,-102,122,-2133,-2563,-406
16,-87,37,1058,396,-1821
16,-79,1,1069,2098,-1364
17,-48,14,8,711,-750
36,-99,-10,1068,-26,-778
58,124,-19,846,118,-1288
74,124,2,-169,-126,-956
78,112,15,-491,-290,-567
82,83,10,195,-28,-320
81,-114,7,32,108,4
56,-58,0,-444,-139,143
23,-3,12,-714,-462,505
21,31,19,-646,-373,832
19,79,44,-283,-468,1020
39,127,66,-319,-500,1126
72,-81,83,-568,-425,1022
90,-45,98,-614,-237,607
95,-40,103,-365,62,151
92,-52,91,53,358,-330
84,-57,75,164,366,-435
76,-61,56,148,305,-392
81,-57,47,-15,175,-297
92,-64,46,62,90,-331
106,-75,45,296,101,-454
75,-87,45,378,66,-543
71,-111,33,501,137,-378
71,-111,36,400,-83,237
54,-103,42,418,-202,727
66,-95,59,777,-76,859
110,-104,27,1443,603,815
-125,-98,-19,1675,445,646
-70,-93,-46,1278,192,764
118,123,-89,-1355,1569,-5409
-49,15,67,-4861,352,-8624
-61,8,2,310,402,-8416
-41,35,114,-1726,-1837,-5759
-72,-15,-54,-321,-2930,-4650
97,39,-44,2243,-4603,-3444
-112,79,70,1761,-1831,-2031
45,19,42,595,1852,764
-4,88,-40,59,3144,2900
-50,91,116,-534,3543,4542
-124,-2,-107,2138,3020,6335
-113,-103,-60,4340,2900,7757
-98,-99,46,1574,1529,8988
-96,36,29,-1891,-1566,9292
12,2,85,-913,-2816,3257
-51,3,-8,4177,-3295,4941
-38,-121,81,1777,-691,4345
-79,71,-22,1437,1424,2094
-97,105,29,2229,-107,2266
-63,112,86,2095,-1924,610
61,-49,92,2018,-1255,-1934
66,119,37,2335,958,-1933
35,94,44,1196,1292,-1354
56,121,69,27,235,-437
86,116,74,-443,-180,-436
111,89,34,-235,348,-926
85,58,25,643,88,-869
69,61,35,431,-102,-463
47,99,12,54,191,136
19,-123,9,-542,-216,403
54,-63,8,-609,-395,777
107,4,43,-428,-573,1496
68,46,5,-328,159,581
105,25,-8,596,84,-498
112,43,4,558,-255,-22
78,81,23,-156,-120,165
68,82,13,-191,7,86
66,102,9,-217,-190,84
74,-124,12,-458,-145,-72
101,127,4,-300,32,-68
108,-105,5,-326,-121,76
111,-86,13,-397,-162,110
80,-84,27,-89,-108,-85
51,-100,38,253,35,-191
80,-94,30,175,53,118
96,-78,29,22,-201,392
87,-68,46,53,-180,400
82,-74,56,404,41,304
96,-73,54,653,161,349
101,-66,41,734,168,349
18,-35,20,-3498,540,-4383
44,-14,23,-2643,-522,-5728
-25,62,-112,-2685,-1186,-5915
-118,85,-27,-1100,-1055,-5568
-102,-2,98,4390,-2497,-6632
-67,-83,79,1051,-2866,-4683
68,-89,73,-452,-832,-1927
78,106,-8,1665,1979,62
-15,51,-63,1075,3075,2502
-69,114,109,-2189,3125,4694
30,-55,-44,-582,2330,6002
-14,92,26,864,2210,6687
10,-29,108,4805,3926,6785
-33,-126,-109,-1778,2594,7086
91,50,-107,4094,-1123,4642
-7,-14,-18,2572,-360,3745
-95,122,-33,110,-895,5633
-33,2,-92,1276,257,5981
12,-111,-106,414,1796,6545
-24,-90,-57,-345,594,3828
79,-127,61,495,-1325,-208
23,-49,58,3402,-1276,-2538
47,-121,39,2568,672,-2633
63,-116,17,-172,1540,-1775
47,106,17,-963,129,-916
36,79,-2,-515,-463,-432
68,94,-35,-230,274,-659
127,-128,-61,-228,382,-429
111,-90,-77,-80,-42,-410
76,-83,-65,-114,-292,-678
37,-47,-5,-673,-558,-165
41,4,17,-1097,-377,596
46,75,55,-1340,-384,843
18,123,62,-1145,-122,462
38,-121,78,-1263,94,252
76,-13,96,-2588,0,976
75,-48,112,-666,-403,836
85,-69,123,1510,2,199
80,-90,49,3058,477,-389
59,-39,7,1196,74,-200
81,-5,13,-1252,-444,326
108,-83,30,-66,-678,300
87,-75,82,180,-662,324
99,-62,90,-93,-229,129
125,-68,91,130,-137,204
102,-77,103,448,-445,-101
90,-47,121,-245,-220,-18
107,-57,108,-297,279,252
94,-70,104,223,362,599
80,-60,90,606,718,651
-127,105,47,-1074,2450,-4718
44,84,36,-704,634,-3991
8,120,13,-1779,79,-4311
-14,58,-3,-1048,-25,-4634
-111,64,-45,-1119,-1187,-5312
80,-106,125,-1573,-2439,-6293
74,29,-67,591,-2634,-7288
87,-40,-128,2044,-1938,-5090
-93,-123,-17,11,-1027,-3214
-55,88,-40,-347,984,-780
95,-68,-113,986,2173,3193
-57,-106,104,-1323,1256,4989
-21,-125,43,-474,695,5908
-8,51,71,2892,1943,6724
-27,92,-74,3988,3218,7639
67,16,78,-302,1164,6568
-9,-77,48,771,-2474,4367
-13,-46,-107,1220,-3640,5902
-22,-45,-52,1093,-3388,7001
29,77,-125,2093,285,7267
-86,-110,-112,1691,189,3105
116,81,-59,1828,-1093,-1205
7,98,-43,2282,-523,-1976
28,76,121,276,1369,-846
13,-32,39,204,783,-1152
59,-95,-15,542,214,-1081
66,-88,-14,398,4,-892
62,-95,0,143,-31,-956
78,-116,2,534,165,-933
78,-128,11,766,232,-843
77,121,4,772,184,-517
54,-125,13,448,-56,88
35,-111,21,285,-119,664
44,-79,16,473,136,1112
69,-49,-4,838,190,1310
92,-1,-17,747,208,1362
111,47,-31,388,195,934
116,60,-35,167,127,687
115,64,-37,132,3,451
112,70,-30,-7,-13,425
105,85,-24,-182,-55,382
105,96,-18,-72,-1,207
116,105,-15,20,26,8
115,115,-10,-48,29,-149
119,117,-6,-31,54,-283
118,112,-4,71,49,-313
115,114,1,85,54,-291
108,117,8,42,73,-231
105,118,7,30,92,-113
104,124,13,63,-5,85
-34,13,124,-2803,-1203,-4496
-115,-51,-116,-2124,-1484,-5066
55,32,19,-1262,-1935,-5981
-21,-114,-123,686,-1938,-6147
-87,30,86,2456,-2605,-4657
9,19,94,702,-524,-2036
-8,-1,2,1172,1717,905
97,-86,-71,90,2105,3446
-118,116,-128,-434,2814,4165
67,19,-85,2142,3091,5262
11,-99,-13,3312,3672,6091
-56,-39,115,1758,2775,5907
25,78,23,3773,376,7215
-9,-75,-4,3996,-522,3915
106,74,-21,1555,-521,3506
65,-86,104,3527,-550,4425
100,-104,-127,3029,1655,3538
1,8,114,307,4343,3637
62,108,113,-2110,3664,4011
-86,77,-30,-914,-185,2180
15,105,67,2565,-2625,-1865
68,117,37,2362,-581,-2105
78,120,10,-128,1832,-1296
59,44,-12,53,1040,-895
52,22,0,841,-250,-355
81,49,3,525,-147,-62
96,68,-6,228,318,-351
92,55,-2,662,116,-351
95,70,-7,588,113,-55
94,102,-9,239,79,146
88,122,-19,323,65,295
85,-116,-16,393,46,433
80,-78,-12,275,87,556
93,-57,-19,291,140,600
99,-35,-25,292,73,595
101,-8,-24,280,118,509
105,8,-26,227,128,361
108,22,-31,214,120,220
113,28,-33,268,128,83
111,28,-32,315,107,50
111,34,-33,238,92,107
112,45,-27,246,85,132
119,54,-27,246,79,71
-128,65,-24,187,113,30
124,67,-19,243,71,11
125,70,-17,294,130,11
122,73,-18,335,131,25
126,76,-18,312,73,130
-128,80,-17,298,84,256
-127,97,-8,231,41,408
-11,60,-65,-2055,710,-5298
3,52,126,-1881,-537,-5969
-50,-67,82,-2414,-1788,-6934
112,-83,-113,-2084,-2033,-6785
-30,11,-5,-301,-1648,-6679
104,-25,-28,2289,-1073,-5492
-87,0,-25,-530,1690,-4177
127,125,-97,708,2414,701
-32,87,108,-36,1285,4482
-34,65,82,-2211,1072,4891
-127,-19,-109,900,1299,6604
93,60,22,3172,1533,6804
93,76,87,1966,3221,6576
-97,118,32,1410,-1267,8528
85,-72,-88,2554,-2051,6421
79,117,-36,1426,-2235,7804
-91,82,-82,1827,1142,6922
70,-19,2,-948,1359,4587
-125,-24,116,1962,-265,-1056
60,5,-124,5164,-1094,-1887
55,56,47,866,1099,-725
13,-48,38,-218,406,-502
37,-96,18,-241,-299,-743
88,-126,-8,-59,14,-1067
83,107,-15,421,182,-1151
72,119,-17,112,96,-977
66,-128,-20,-100,-93,-638
58,-125,-23,13,-59,-351
41,-107,-21,104,-137,-5
35,-87,-6,128,-148,361
37,-61,0,249,-50,630
47,-25,5,389,45,659
76,-4,22,602,901,-549
101,75,10,1124,1021,762
74,99,22,455,88,1044
79,119,3,-140,-131,1035
109,119,-24,-172,-77,985
116,101,-32,237,-60,556
119,93,-35,306,2,150
121,98,-33,241,36,-20
118,96,-29,228,-48,-80
120,100,-20,120,-116,-78
113,102,-10,58,-145,-104
111,100,-2,103,-69,-62
112,103,8,158,-62,28
105,116,12,164,-40,171
113,-126,14,14,108,225
-119,-118,10,80,179,321
119,-108,22,129,152,454
111,-97,22,264,326,359
44,-76,-31,-3291,905,-4817
-36,-109,-48,-2887,677,-4932
14,80,-47,-3388,-343,-5395
-112,-34,72,-2311,-965,-5328
25,-19,120,-1144,-455,-5746
-10,-64,125,579,398,-5333
-92,-5,-9,2119,-444,-4363
-26,50,-26,93,115,-2000
-4,-10,-68,1415,1756,1070
-82,58,125,-412,1923,4698
-28,116,98,-1580,2249,5095
-61,7,-107,2896,2315,6280
-96,-86,-46,4088,2937,6690
32,-9,-111,617,1964,6757
-116,88,59,1985,-366,6956
65,-11,48,1797,-334,3416
-33,116,-94,2563,-926,5310
-50,71,20,1817,-235,4431
40,93,32,1291,621,4472
57,114,21,165,1022,4073
-103,-48,40,-1228,-89,2909
27,84,74,191,-751,-691
45,-63,62,1528,888,-2077
58,-74,54,693,1148,-1756
57,-109,46,721,197,-877
40,-108,16,-47,-311,-354
45,-107,5,-298,-245,-383
62,-112,-30,179,190,-389
63,-105,-21,491,210,-357
61,-96,-23,545,-45,-198
49,-66,-4,89,-183,99
44,-54,11,-3,-194,348
51,-37,11,219,14,517
56,-1,14,315,-4,645
67,32,10,109,39,683
74,49,6,188,85,623
83,73,0,161,100,554
87,84,-4,232,109,471
92,98,-5,179,95,405
98,113,-6,147,85,304
104,117,-6,262,130,157
111,123,-11,262,127,12
113,121,-11,226,69,-73
116,115,-8,243,91,-128
119,114,-4,193,73,-109
114,110,-1,231,89,-70
116,107,2,311,92,-7
112,112,6,284,67,110
116,116,10,303,92,183
119,120,11,298,89,232
38,-10,-83,-3550,959,-4487
-17,-15,-97,-3176,169,-5108
114,91,-88,-2376,23,-5600
-62,-62,-7,-2447,-528,-5012
40,-72,40,-696,-271,-4823
-50,-14,89,386,-305,-5019
113,-13,-68,1201,-1368,-4889
124,13,-80,44,-1094,-3007
-96,116,-23,-1475,-591,-1309
-47,-68,-74,2306,2198,1100
-95,-100,127,-838,2677,3441
-33,-52,66,-1071,1962,4758
114,-7,127,2112,1874,5575
63,74,-15,3662,2412,6357
71,31,69,4079,2760,7129
109,28,-106,-410,672,7388
80,-35,75,252,-181,7682
121,-108,-113,4046,-108,4617
-58,47,12,1788,-130,5100
-72,92,57,-755,-268,5457
110,-15,25,-2447,-389,4958
-113,-31,81,-360,-1397,1400
19,-61,-111,3666,-789,-2808
46,-34,-115,2200,906,-2098
25,-7,111,-250,1612,-527
-30,-101,56,-134,545,-311
3,-125,30,670,-105,-573
60,-118,2,397,9,-757
64,123,-9,424,12,-885
55,118,-9,232,7,-844
44,114,-8,144,-34,-540
33,118,-6,206,-68,-188
19,-115,-4,167,-110,286
21,-84,-3,196,-61,671
28,-49,-5,472,-95,768
43,4,-6,341,-72,823
45,38,-2,-47,-48,808
55,56,-1,76,28,713
67,70,-3,162,127,607
75,89,-4,123,104,500
84,102,-9,232,143,289
89,104,-10,317,187,104
94,107,-15,289,196,16
101,104,-24,276,166,-69
102,101,-23,279,140,-143
105,98,-23,258,128,-158
100,91,-23,295,74,-122
99,89,-20,338,78,-26
104,86,-17,391,25,155
102,100,-5,267,-34,441
80,10,8,-6592,1345,-1245
33,-85,-38,-1226,2511,-6280
31,50,-64,153,2488,-6962
2,31,113,-5153,620,-6500
-62,-34,55,-3727,-373,-7094
-62,-118,94,-2909,-67,-7521
83,62,-71,-934,-523,-6303
2,61,114,1203,-851,-5261
-19,-123,-117,283,-478,-2939
-87,-64,4,657,439,-589
-89,44,-86,1430,2206,1906
-28,-114,119,-687,3281,3184
72,102,126,166,2308,4713
-77,-8,-31,1164,1270,6497
68,-55,-127,2000,599,7885
115,22,5,1008,-3029,10323
-112,-89,-56,-639,-2995,5511
115,-114,-1,2849,-768,2543
-68,95,-7,-966,-1869,6629
-30,117,-32,453,-2183,4348
27,-122,30,1001,-824,301
126,15,34,2418,353,-1588
70,88,-43,3629,902,-1373
19,43,108,1373,679,-942
27,-13,79,503,91,-222
47,-95,45,1337,237,-5
60,-42,65,431,134,32
61,-39,59,286,-5,119
76,-63,57,532,151,-65
70,-41,48,384,126,118
75,-21,42,131,179,176
85,-15,24,478,183,211
88,-2,12,510,185,202
91,-23,0,881,-31,113
93,4,1,350,149,318
85,10,-2,402,83,394
109,14,-3,609,78,376
109,29,-1,471,-27,435
107,39,0,311,-49,461
110,48,0,173,-60,394
114,49,-6,253,49,330
116,53,-9,271,102,208
119,58,-14,236,95,193
122,61,-15,234,44,133
119,71,-18,192,73,136
119,82,-16,139,17,228
-126,85,-11,318,61,251
127,89,-8,464,81,124
-126,102,-3,278,84,144
-119,94,-4,387,79,148
52,34,-77,-2183,1569,-4541
34,89,-95,-1966,450,-6152
-66,-64,-128,-1797,-311,-6432
46,34,-117,-1726,-1516,-6761
-95,-99,-54,-1178,-1635,-6664
69,-65,88,1514,-1635,-6163
94,-96,-59,125,-1068,-3339
-108,-81,5,1397,2604,-293
-1,58,-98,1634,2803,2516
-128,67,92,-1781,1829,4358
-23,-91,-70,159,759,5914
-72,3,63,2865,1115,6737
-55,-12,-25,2866,1376,7543
71,-75,-73,536,728,9348
-79,-12,-45,4905,155,4301
119,43,-104,1727,-2348,5796
95,39,-7,-1708,-1881,6049
-101,101,10,1822,-604,4373
115,-78,30,2386,624,2901
-87,-117,66,2320,-63,-12
62,83,97,861,-506,-603
12,31,112,218,391,23
13,-42,108,1022,396,-364
76,-43,53,478,472,-471
86,-87,30,538,320,-976
78,96,4,931,399,-1072
75,67,4,910,453,-470
43,98,-1,226,106,-164
64,-109,13,-407,-56,215
71,-85,0,-180,211,387
79,-61,-18,367,197,273
101,-10,-4,329,-36,188
79,5,11,29,-61,-54
92,5,24,53,185,13
125,11,23,213,120,-2
-119,29,35,149,1,121
105,36,35,199,136,-35
90,43,40,156,-106,92
90,57,41,-48,-59,337
102,76,51,-31,-20,402
92,70,31,466,220,131
-111,81,27,502,206,367
-90,96,22,433,4,553
-103,108,52,489,101,527
-123,104,41,638,350,120
-114,94,35,677,371,75
-103,83,13,617,331,182
-102,90,15,481,103,347
-86,92,13,514,241,252
-75,91,11,594,123,269
120,-122,21,-2301,1758,-4106
47,102,21,-2385,553,-4024
12,-72,28,-2780,311,-5325
-77,80,24,-1521,4,-6004
54,-86,12,-1119,-291,-6375
126,94,52,-188,-942,-5822
-11,-110,-59,925,-897,-5247
20,-76,-88,1227,-634,-3569
30,-84,-23,-216,887,-1134
-2,5,-102,1973,2534,1766
-48,-79,96,-330,2843,4354
66,126,-29,457,1995,5697
-19,-19,19,2735,2016,6678
82,-67,24,5549,3151,7526
60,-46,-26,1062,134,6812
-40,82,-99,491,-967,4700
-118,-19,125,13,-1094,4683
-94,-80,27,1835,-1457,5086
8,-73,-106,2487,-536,4184
-15,-8,73,-32,1009,3381
-100,-22,95,-74,103,2288
63,76,114,1472,-152,-626
47,-32,83,2668,689,-2078
58,-75,49,1478,1256,-1820
62,-106,30,597,609,-899
37,122,31,476,-399,-212
42,114,15,312,-440,-44
59,-125,9,153,-148,-54
65,-112,3,218,-11,-132
78,-101,-2,328,57,-184
71,-91,0,357,48,-10
66,-49,-1,169,58,5
56,-31,7,142,1,36
44,-32,-2,383,25,209
50,-4,-5,192,102,485
61,18,-13,32,58,633
72,36,-18,112,40,614
85,67,-19,-5,43,548
90,79,-14,26,4,492
96,96,-10,73,97,389
100,102,-7,321,60,246
103,111,-5,243,53,202
107,113,-2,248,87,183
113,116,-2,289,79,118
116,117,1,305,110,76
120,117,1,294,127,37
-128,116,2,317,160,39
126,115,3,314,146,39
-127,119,4,269,164,106
-122,119,3,310,146,149
45,-39,-92,-3079,1057,-5001
-35,-113,-92,-2121,320,-5634
74,64,-128,-2105,-159,-5838
-77,-56,-114,-2180,-239,-7048
69,-39,-30,1458,-1955,-6740
4,-111,-119,2981,-1767,-5713
98,31,16,-274,31,-2583
101,-28,-62,1355,2131,460
-14,108,-121,839,2314,3319
-91,-128,87,-2178,1641,4687
40,-41,-41,499,1216,6067
-1,89,86,2897,1679,6808
-9,-98,-25,2086,1890,6936
99,-59,87,1205,636,6568
-124,17,-65,4292,-987,5333
-2,-116,27,2287,-1455,4407
-93,46,-48,1992,-2149,5539
31,-35,11,-449,355,5951
16,2,-94,863,1578,3687
123,-76,25,1111,563,449
38,28,85,1662,-517,-1417
41,-57,73,1191,332,-1503
42,-65,28,-547,1071,-1127
21,-117,17,-146,309,-602
27,112,-8,602,22,-335
46,-125,-17,449,217,-449
68,-118,-30,426,312,-427
68,-113,-30,415,56,-346
73,-106,-31,306,51,-175
63,-93,-21,172,-21,31
56,-79,-20,202,-49,308
57,-51,-12,131,-58,586
65,-18,-10,213,55,717
73,11,-9,223,19,803
84,41,-9,194,56,754
98,71,-14,203,103,565
103,80,-18,306,139,357
107,92,-24,297,143,163
106,95,-25,213,118,92
106,95,-26,221,112,31
113,97,-31,217,90,-19
112,100,-30,229,50,-83
118,101,-24,215,49,-133
117,96,-21,307,66,-151
118,99,-17,245,24,-73
115,101,-10,247,50,20
114,103,-7,254,61,113
118,109,-2,212,53,245
123,119,2,274,96,334
-128,-128,1,318,144,374
-33,-81,-124,-3149,353,-4799
-119,125,99,-2287,189,-5647
-19,36,122,-2867,-41,-7687
108,39,-33,-1225,-1558,-5932
3,-128,51,334,-1854,-6145
-74,-88,31,1759,-1902,-4692
14,22,41,85,-524,-1532
81,-50,-22,1916,2272,992
-9,83,-95,302,2975,3807
-15,100,72,-547,3054,4895
-118,-14,25,2054,2606,5908
120,47,-126,5083,3469,7474
119,125,-78,4773,4005,8609
107,64,-31,-4018,2095,7149
1,-124,93,-2651,-2310,5440
-29,-102,114,3219,-3958,2540
-128,122,74,1006,-445,5760
-88,104,52,341,722,4649
110,-29,68,453,-982,3212
-120,-54,-97,1098,-2258,-428
69,84,-73,1969,-604,-1741
70,8,90,1160,1833,-1787
95,-63,9,370,1908,-2009
81,-113,-20,257,546,-1422
79,126,-26,481,-116,-886
86,109,-34,357,161,-750
74,107,-36,599,193,-348
63,115,-27,588,-14,-7
67,-112,-10,322,-145,536
67,-79,2,50,-204,810
82,-38,17,-14,-203,1097
86,-9,26,211,-160,1227
97,25,24,333,0,1136
118,66,2,258,194,773
122,75,-12,349,192,350
115,74,-21,394,140,91
111,76,-27,170,49,50
111,71,-30,178,104,82
106,70,-31,321,-54,66
113,87,-26,177,-79,61
123,87,-22,255,-68,-41
-128,97,-11,192,-88,-100
125,97,-4,149,-32,-177
120,96,3,134,-34,-183
111,98,15,60,14,-82
107,98,16,111,87,29
111,106,15,144,128,200
124,115,12,227,160,357
123,-124,9,158,154,365
-128,-115,7,240,192,351
114,-13,60,-3655,1594,-3910
117,-51,7,-3690,1616,-4202
-4,111,-20,-2773,1248,-4767
50,-23,6,-2085,532,-4581
-100,-77,17,-3074,149,-4440
-45,-105,32,-801,-300,-5224
67,82,114,2233,-1423,-5400
54,96,-94,1526,-1621,-3607
-103,-105,50,-331,-16,-1712
-75,-56,-18,2427,2197,914
-127,-34,-105,-470,3122,3604
-70,-55,41,-707,2497,4620
99,-6,73,3154,1704,5589
-102,-114,-112,6087,1549,6822
83,-49,-126,2582,1593,7233
-74,84,-65,4643,1547,7690
0,112,-3,6569,-97,1888
74,5,26,3065,606,3763
-81,108,-26,-5151,1664,3986
-100,-46,-58,-3185,578,4854
-34,79,34,-2952,-839,4721
-48,50,47,2121,-1195,2299
106,-12,69,4268,-444,-1882
50,-52,51,3489,407,-2494
46,-81,16,1279,1550,-1479
35,-122,3,-152,902,-535
24,93,-12,58,-278,-134
58,115,-19,-115,-229,-295
89,127,-28,-81,175,-597
94,114,-28,407,117,-851
86,110,-20,604,-69,-766
70,122,-7,223,-103,-456
48,-127,0,111,-94,-11
40,-110,3,143,-51,465
47,-77,-1,112,15,785
64,-30,-5,150,123,931
80,-2,-15,300,125,971
98,40,-25,291,126,869
105,65,-26,122,77,699
110,81,-25,128,58,527
114,94,-25,186,87,335
113,101,-27,187,30,203
112,111,-23,105,36,82
116,111,-20,207,70,-108
119,111,-20,167,45,-236
124,107,-19,184,59,-303
123,101,-15,227,49,-344
116,97,-13,243,64,-324
109,97,-9,120,33,-198
107,96,-3,100,52,15
13,-8,-61,-3319,1000,-4367
28,26,-91,-2714,362,-5297
-126,-58,121,-2894,-33,-5997
-24,94,11,-4354,-1451,-5655
-98,-15,3,-2452,32,-5465
-45,-44,94,1732,-31,-5608
103,33,-42,2453,-793,-4091
118,-30,-31,-30,-324,-1752
-89,-2,-36,298,1146,293
-103,7,-103,1519,2282,2099
-75,29,107,-158,2904,3541
68,-61,-115,1131,2324,5097
-24,-4,-28,3420,2237,6590
-16,31,-124,3108,1790,8179
25,26,-48,-208,94,7601
-38,-56,80,664,120,7923
40,-56,93,5799,-500,2696
-106,-76,-77,3030,-271,4498
19,-1,8,-2164,603,4022
-56,79,-14,380,11,2742
-111,70,22,617,-25,1071
61,21,37,490,-89,-398
42,-77,45,1216,37,-1287
34,-115,32,1280,331,-1015
34,-111,19,400,466,-467
35,-120,9,45,136,-246
43,-122,-3,59,4,-204
63,-108,-5,17,42,-232
112,-103,2,222,95,-151
112,-54,24,139,153,40
-25,-68,12,64,49,-772
1,-85,-24,391,202,-268
86,7,7,-379,-347,1122
65,56,-21,-868,234,902
68,70,-7,-454,-32,364
89,95,14,-39,-55,91
100,89,27,465,164,-70
83,88,27,686,237,-307
84,80,19,596,239,-337
97,56,6,742,207,-120
94,56,2,689,158,203
94,70,9,501,39,456
106,93,1,611,48,474
116,94,-4,682,63,247
116,98,-6,491,53,390
117,101,-2,416,53,517
-125,108,-5,505,119,448
-121,124,-11,371,41,428
-113,-125,-10,235,119,343
-98,-125,-14,359,169,167
8,-62,62,-2048,2136,-4092
28,-11,-22,-2736,1589,-4849
-36,2,-25,-3194,469,-5451
122,59,-49,-2289,586,-5189
124,87,-48,-1704,-462,-5260
2,-114,-48,-1024,-684,-4894
-112,52,47,2081,-1629,-4517
73,46,31,2472,-1919,-4845
17,-95,39,-276,-313,-1283
50,-25,-40,2424,3227,1273
-81,-4,-117,-368,2825,3260
-42,-55,-49,353,2507,4679
51,-11,36,3051,645,6131
-77,121,-88,2642,809,6992
123,89,48,3985,-732,8262
-19,-128,86,1572,-2235,7566
-24,0,108,1369,-1611,4121
-128,-73,-33,2261,-1507,4121
113,-10,33,338,314,3554
-29,-60,94,1154,-380,1642
116,-123,106,1867,-336,-242
53,65,81,1072,786,-1312
53,-30,34,611,1282,-1327
49,-106,28,2219,477,-457
39,-87,34,1409,164,-115
61,-58,16,-299,309,38
79,-89,-8,20,308,41
78,-86,-13,344,121,39
78,-67,-13,267,139,101
54,-84,-14,664,-259,-317
37,-38,-40,783,75,43
78,-6,-43,165,154,307
96,2,-38,352,-119,416
74,18,-13,17,-164,161
76,13,-4,235,-21,86
88,24,-4,291,-37,150
73,47,-11,282,-159,73
85,57,-36,377,169,14
86,54,-42,480,152,77
83,73,-41,172,73,256
87,76,-36,141,105,272
94,84,-39,293,229,321
102,93,-36,298,132,162
107,97,-35,376,52,61
111,93,-36,445,101,70
116,102,-30,336,71,242
120,105,-27,328,70,231
121,113,-22,331,105,256
125,121,-19,312,138,305
-123,-123,-22,232,223,348
9,56,0,-3443,1246,-4955
-29,-21,-12,-2215,449,-5273
65,110,-37,-2511,69,-5256
-73,3,-65,-2564,-691,-5376
42,55,-118,-1028,-1214,-5508
-53,-124,-108,2107,-1605,-6271
-29,-110,118,2520,-1218,-3161
2,-84,56,58,1865,186
-109,80,-77,-109,2875,2578
111,102,117,-1852,2655,3850
33,20,-63,1150,863,6194
-25,-113,-37,3597,988,6860
-114,-110,118,3204,1,7455
84,49,-14,2674,-12,6694
76,-23,-82,3393,-768,5106
-127,6,-42,-115,-1718,6626
-39,-32,-64,-101,-424,5072
-65,-7,15,708,-238,3812
-48,-26,123,1432,-950,723
112,80,-126,2710,109,-1890
102,-8,65,2006,1534,-1714
72,-58,9,424,1085,-1312
81,-79,1,-106,-50,-520
95,-123,-21,65,-286,-470
87,-123,-23,150,-23,-513
83,-118,-24,243,97,-468
82,-111,-21,397,-1,-229
77,-88,-11,204,-139,113
76,-66,-6,49,-73,320
80,-48,-7,269,33,417
81,-29,-8,521,20,499
92,-1,-14,432,60,562
98,24,-14,424,29,587
103,38,-17,398,112,482
108,51,-19,380,103,375
120,59,-22,348,186,309
118,66,-25,318,161,208
119,63,-29,358,217,168
124,64,-34,330,130,231
123,82,-32,156,68,251
-128,87,-26,285,144,86
-119,83,-33,480,131,-113
-118,85,-32,300,53,-75
-121,81,-24,258,6,47
-123,81,-14,315,39,147
-125,88,-10,308,62,200
-121,95,-12,345,66,207
-109,109,-16,250,41,272
-107,113,-16,312,31,324
-113,123,-13,268,59,316
94,35,32,-4164,2583,-3651
38,11,-8,-3933,1765,-3839
-15,34,-9,-4273,1909,-4792
31,83,-8,-2758,1190,-5460
88,-61,-9,-3166,446,-5405
-19,-96,-40,-1076,-50,-5888
92,26,111,2984,-1614,-6304
-3,-36,20,-1250,-562,-1914
84,101,56,2456,1903,1008
-7,-8,-51,2097,2690,4315
-65,-93,117,-566,2721,5175
53,4,4,4099,1999,5290
4,-15,73,4428,2224,6422
11,97,97,1361,-209,6755
100,120,67,2312,-1246,4858
125,44,47,3605,-1493,4641
82,-45,47,502,-2102,4280
-50,-123,6,1064,-653,4142
19,92,76,1823,489,2877
2,26,-10,3259,695,1721
-113,100,89,810,-379,1181
96,101,92,-1499,-176,924
57,-16,49,-78,632,370
30,-37,47,1284,530,5
36,-1,26,840,591,-34
71,7,-9,393,630,-251
88,-25,-34,702,587,-722
98,-55,-42,789,425,-1015
96,-63,-40,549,256,-845
85,-61,-29,322,53,-573
60,-59,-2,225,-224,-376
64,-63,9,462,148,-193
91,-60,4,802,212,181
-115,-34,-8,968,316,443
122,-8,-4,638,-143,318
-122,20,6,-76,-52,232
-120,-1,10,232,139,245
120,-9,7,708,210,358
116,14,-1,578,241,466
-124,22,-22,699,326,439
-121,25,-33,801,230,379
-116,26,-40,858,200,348
-100,14,-52,1078,332,194
-90,13,-51,1005,131,241
-81,18,-43,672,171,274
-101,25,-28,349,371,151
-87,34,-29,142,501,124
-76,56,-15,164,226,297
-68,50,-16,574,-88,290
-70,55,-25,408,-52,209
-6,-4,122,-4422,1869,-5024
-8,-7,91,-3935,1381,-5640
41,25,69,-1942,1087,-6918
-48,26,-128,-2349,-358,-6218
44,-63,-57,785,-1260,-5767
-77,68,-28,1904,-1339,-4972
-3,-91,-11,-158,328,-1954
-33,-87,-57,838,1541,698
-88,24,-122,1154,1910,4005
17,105,74,-139,2430,5945
-12,1,90,2035,2513,6371
74,-98,61,5868,2947,7621
7,68,39,2189,2274,7746
14,52,-74,-931,-514,6266
62,101,-96,3514,-1856,4692
126,69,-30,1621,-1566,6538
-80,-25,-85,206,1468,5799
48,41,3,-122,775,2563
105,-71,57,1911,-863,-1059
17,-36,109,3062,-815,-2780
60,-29,72,-123,1087,-1824
83,96,25,-685,900,-874
59,40,1,789,-120,-1239
83,97,14,209,-93,-577
75,99,-9,-315,196,-537
65,93,-18,-35,221,-369
59,98,-28,364,82,-79
63,125,-23,458,145,326
61,-101,-28,516,35,679
68,-68,-20,448,-37,857
79,-22,-18,280,76,973
90,-8,-21,451,52,907
106,20,-23,349,42,832
113,48,-25,261,62,627
111,56,-27,269,54,332
116,60,-25,318,111,143
111,63,-28,293,72,25
117,64,-27,252,95,-32
119,63,-30,333,87,-124
123,67,-31,257,91,-213
120,64,-27,251,48,-260
122,58,-25,313,107,-221
118,62,-24,252,49,-87
116,67,-16,229,8,90
115,73,-11,237,62,214
122,80,-9,324,94,313
-126,98,-8,314,81,399
-123,109,-8,290,102,432
-116,120,-6,335,134,451
-109,126,-10,399,159,448
76,27,99,-3745,2225,-3575
60,3,36,-4212,2075,-4229
-88,116,48,-2077,1650,-5058
-25,43,66,-2756,518,-4734
53,96,83,-1902,-41,-5101
-56,37,79,682,-166,-5471
92,-18,-18,1233,-1458,-5867
-77,37,-15,783,-737,-3277
-46,-30,33,1467,208,-1063
-75,48,-39,1079,2340,2117
122,70,-104,-1796,2293,4544
-56,-71,81,273,2150,5195
-69,61,77,4106,2290,6079
-58,2,115,4596,2846,6021
31,95,9,1658,445,6591
54,-29,-82,2372,-1238,5236
-8,-42,-35,4357,-103,4188
-128,49,-105,2920,575,5418
-117,-19,94,561,2155,5665
26,-76,-30,1384,-148,1915
122,-128,100,2208,-1166,-171
30,101,-22,1699,-713,-405
79,3,89,1249,2027,-1442
59,115,-54,-1440,1589,-1765
25,-64,-82,1681,-301,-976
59,-62,-62,1556,-391,-427
38,17,13,-554,-847,-232
-6,74,84,-1782,-1200,355
2,89,24,-676,-65,848
34,-112,20,-216,286,742
86,-49,-16,476,609,723
60,-50,-54,886,528,243
50,-14,-34,158,91,239
68,-18,-46,155,330,390
75,-30,-53,596,301,341
85,2,-40,321,209,456
99,8,-34,404,334,487
110,1,-29,1185,349,364
124,-8,-60,2184,775,3
98,5,-56,1990,26,-433
115,21,-50,314,280,-421
125,-8,-47,-408,68,-153
127,-17,-40,-329,-81,-33
-123,5,-22,-618,-22,147
-112,38,-3,-775,-111,570
119,50,6,-274,60,416
115,51,6,478,215,392
-114,78,-4,414,193,607
-106,99,-8,315,76,691
-90,122,-12,629,23,445
-13,46,-113,-4292,1154,-3954
-50,-67,84,-3144,1254,-4243
30,-105,75,-3266,960,-4566
111,41,33,-2661,136,-4814
-28,-105,27,-2155,-560,-5004
-77,-119,57,-89,-754,-5417
-113,-33,-117,2834,-1451,-5808
22,57,-24,775,-230,-3114
63,56,56,418,-115,-1982
25,-27,-15,968,2598,973
127,122,-112,-1356,2908,3559
-39,109,94,-1045,2128,5448
118,-15,-78,2228,1967,6301
108,-109,-57,3796,2797,6105
-29,-67,117,3404,1191,7272
31,-5,93,943,470,4904
101,117,89,4422,-747,5358
74,12,-89,2272,-288,4926
-112,-53,-10,2581,344,5618
-78,55,-34,2322,1362,5066
122,-16,-75,-379,2253,3865
-121,-13,-45,-900,556,1829
11,86,47,933,-1061,-1335
2,-1,72,1054,-494,-2092
34,-30,60,-99,271,-1647
59,-96,49,-647,86,-1447
66,127,44,-424,-223,-1358
61,79,35,254,-8,-1169
48,85,29,324,-59,-631
39,-125,32,-111,95,-281
22,-116,20,65,-10,43
13,-102,23,403,-44,609
12,-58,20,375,-75,939
36,-1,17,319,-70,1195
60,32,9,264,-61,1262
71,71,17,145,-122,1234
90,106,11,101,9,901
105,119,15,289,-62,428
113,123,15,276,47,-6
100,121,28,293,111,-150
92,114,21,188,178,-265
108,105,15,230,177,-195
115,111,20,118,63,-256
106,101,9,211,290,-489
110,85,2,338,121,-496
101,82,3,285,82,-287
95,82,14,256,18,-46
101,77,26,379,55,142
97,100,33,249,-56,526
99,121,42,52,74,641
77,-16,66,-3135,1497,-4793
-13,33,-43,-4213,1112,-5806
-79,-61,-125,-3528,194,-8224
-23,-109,-58,-1688,-1682,-8068
-96,12,-17,451,-1189,-6715
-55,5,-13,1192,-1641,-5493
79,-62,-33,1118,751,-2970
-110,-103,28,-1249,1433,273
66,37,-78,1295,2010,4342
-16,30,125,1042,1594,6459
24,-32,-29,1823,1895,5999
-57,93,19,4113,3067,6376
-125,0,-95,777,1863,6069
-85,58,120,2350,-1167,6005
-33,-75,56,4136,-1240,4174
-51,-2,119,5864,-925,5121
19,102,2,2537,30,5833
108,66,-25,-3072,2192,5002
13,-10,26,-348,-205,3506
-101,-79,-121,2098,-789,-87
48,114,-110,1887,-49,-1698
30,35,95,703,903,-1474
23,-57,58,549,581,-1095
28,-97,37,288,-124,-550
44,-98,22,-21,-267,-350
38,-96,19,-172,-150,-319
36,-95,22,100,-44,-187
29,-89,30,400,-33,21
32,-64,30,424,84,279
42,-36,24,306,60,397
48,-12,17,364,22,483
55,12,14,223,28,577
67,30,12,275,154,439
79,52,9,458,200,353
82,74,10,237,70,399
91,79,3,285,33,312
93,84,4,286,40,212
99,82,1,363,85,125
102,87,3,321,35,75
113,83,0,399,76,-1
112,89,5,241,14,-14
115,92,10,134,302,-442
119,101,17,429,317,-381
102,112,28,289,-20,-35
104,107,24,202,46,245
107,104,22,266,44,457
116,114,14,320,27,587
127,-126,10,203,-14,548
-115,-123,9,277,-7,393
-113,-120,12,328,55,276
107,89,-34,-691,-793,-6719
11,-65,-45,31,-1010,-6191
-91,-39,71,1576,-1613,-5117
-61,-55,-120,1371,-512,-3506
122,-100,-57,815,1266,-842
-81,62,-127,816,1971,2249
-80,35,94,-1384,1829,3903
54,-95,69,380,2250,4840
-14,76,88,2211,2166,6109
122,-26,9,2004,2080,5774
-41,-50,-10,1086,757,6232
26,-8,-77,1643,187,5211
9,-78,-29,347,-377,4511
7,55,-21,2159,-1030,4552
63,106,90,1452,-870,4976
49,-43,116,39,-363,4275
-46,-10,109,668,-163,2513
76,-17,-127,-177,-233,305
23,84,-75,648,-203,-219
34,-11,-60,741,423,-222
35,-43,-119,1052,373,-398
37,-66,96,838,167,-457
49,-77,71,257,171,-448
54,-96,59,383,153,-337
63,-96,55,508,185,-289
70,-83,59,432,133,-204
100,-81,50,464,193,-133
87,-48,50,-150,-205,124
64,-42,57,-207,2,199
84,-51,43,514,78,272
79,-17,46,300,16,599
74,16,57,130,78,662
87,23,46,696,251,492
112,49,33,645,183,448
118,62,30,404,209,356
125,68,35,412,267,253
124,59,41,585,119,204
-123,63,46,486,150,242
-106,63,45,562,178,109
-116,64,43,449,141,-17
-111,59,46,304,126,-24
-117,46,42,419,71,71
-114,46,46,498,153,180
-108,56,38,512,164,224
-114,67,37,429,95,250
-101,76,35,393,125,275
-96,87,35,309,43,271
-95,99,38,216,43,161
-96,91,33,243,30,178
-106,92,32,236,-4,264
110,113,-70,-2463,1350,-4471
-106,-106,-125,-2944,1308,-5539
88,-67,125,-3378,-10,-6007
-15,-44,102,-5939,-828,-5481
43,57,101,-2426,-674,-6017
-70,-84,-10,2095,-1028,-4963
103,46,94,3570,-1835,-3308
49,-55,82,130,-2692,-1461
124,12,-118,-2214,-2016,-1818
75,-16,96,2949,-366,-1252
-5,114,37,-1372,2861,595
-57,-86,-66,195,3945,2839
-43,-89,105,-568,3365,4712
104,113,80,1180,2608,6098
112,-10,90,4444,3245,6914
-62,18,-33,4586,1607,4865
-24,31,16,3373,436,3511
-101,104,39,1014,-312,4530
-109,-100,100,3615,334,3650
31,-18,-63,1436,3007,4565
109,53,-80,-531,3228,4918
-124,33,-50,-1195,1746,3039
-64,-2,46,1158,-759,-291
96,-115,-99,2664,-1587,-1458
124,-65,-126,-129,500,-85
59,-106,81,-625,529,580
32,-126,48,249,-170,608
85,-84,16,134,87,50
115,-85,-12,65,57,-978
124,-103,-8,287,-71,-1320
120,-118,-4,234,-165,-1344
109,-126,8,104,-141,-1118
94,-123,10,31,-116,-725
74,-123,14,63,-178,-295
52,-98,27,86,-139,413
55,-69,22,204,48,764
78,-24,20,518,104,1050
102,11,3,581,549,219
-118,60,11,722,733,219
115,90,15,462,151,474
107,85,16,132,-85,591
110,76,11,167,48,685
116,79,4,309,-1,684
-125,92,1,286,0,585
-112,98,-3,254,-7,357
-112,100,5,201,-14,37
-113,94,10,269,47,-79
-115,93,17,200,21,-33
-121,95,20,163,46,-42
-113,91,20,309,118,1
33,-12,-17,-2241,1580,-4224
-117,-5,-80,-5693,2686,-6472
-118,-87,-24,-3896,1458,-7085
-89,-44,104,-3068,1111,-6192
-91,32,-58,-2084,762,-5678
35,50,-68,697,-412,-5661
-33,91,84,176,-2420,-5760
-69,-27,-43,747,-188,-2899
9,-54,36,1609,1283,2555
112,120,-39,-24,989,5175
110,126,41,2446,1325,5635
-58,91,96,4043,1849,5783
48,81,-124,4629,1594,6731
87,-35,72,4197,-769,5546
-82,118,-99,3480,-2833,6172
-20,-126,-77,2106,-1501,4239
15,93,88,268,-2192,6321
125,126,87,0,-1761,6053
-123,110,52,3527,-1032,3357
18,-94,-83,4241,-807,516
116,45,22,-655,1299,98
0,31,-38,2445,490,-871
2,4,-83,1656,857,-1161
32,-45,-122,313,331,-1248
68,-88,-125,-232,-284,-949
35,112,109,472,-31,-975
41,82,83,1135,319,-968
81,78,57,814,309,-615
50,98,53,472,-222,-20
34,-123,71,21,-180,-1
44,-113,53,279,106,46
49,-77,41,344,-8,376
72,-53,36,572,117,511
68,-4,34,460,-15,671
52,17,29,356,-21,559
46,40,17,144,-3,491
44,62,10,-94,-85,427
90,89,4,-677,-137,687
-109,112,36,-768,-90,693
112,79,27,1063,-59,221
100,116,40,690,20,-45
109,116,33,239,48,-92
106,82,27,670,-63,-142
99,79,25,628,8,-159
104,80,13,365,134,44
102,74,10,344,20,248
93,88,13,276,-102,385
112,107,17,292,33,358
116,110,6,492,211,129
-114,118,0,333,216,89
112,-1,-108,-1856,1874,-4681
-34,99,-89,717,878,-3662
97,-122,109,-2149,-30,-3597
110,-91,50,-2519,-758,-3110
105,-97,-6,-2120,-374,-4099
76,-30,-14,-3438,-222,-5282
30,-90,-16,-3111,-770,-5792
-42,27,-50,-271,-841,-5764
-44,-124,-122,1539,-751,-5291
-6,104,-58,696,-104,-3159
37,-86,-24,1884,1443,562
-59,119,-99,254,1859,3645
-89,43,110,-1445,2239,4698
99,-26,-118,2054,2100,6313
47,-36,-72,3687,2480,7118
113,44,120,1988,1183,6136
-79,74,3,2794,287,4007
-56,-34,10,3023,-441,6006
111,-88,-90,2474,-1399,5120
-71,-47,-13,1145,577,4844
-35,-80,-89,1127,2927,2588
-39,-92,-48,2087,1803,2566
113,-113,-17,1204,300,2073
44,28,2,147,-532,273
50,-75,10,760,-440,-631
40,116,14,948,65,-576
23,109,13,614,207,-415
28,103,2,400,51,-377
62,122,-1,-142,-86,-375
76,124,-11,-281,-39,-461
81,127,-16,-164,11,-437
76,-128,-31,189,70,-311
63,-114,-35,114,234,-420
56,-71,-28,69,87,204
56,-52,-40,119,-52,446
68,-26,-41,241,-24,539
78,3,-44,406,33,564
84,22,-38,386,-36,510
87,40,-32,332,-19,416
91,54,-20,269,19,337
91,59,-17,321,53,335
95,75,-12,293,104,343
99,83,-15,269,181,245
105,100,-18,211,165,188
108,103,-23,247,199,83
113,100,-29,330,191,78
123,102,-39,336,149,93
124,112,-37,213,35,124
124,110,-32,275,32,78
126,115,-26,261,20,112
