AccX,AccY,AccZ,GyroX,GyroY,GyroZ
48,-88,-12,-1221,97,-7713
65,-100,-64,-1567,-2146,-11335
-37,-70,114,-2380,-4457,-10701
-35,111,120,-1721,-1708,-6523
-76,104,115,-1319,-1334,-4369
27,-42,-114,-1844,-1299,-3090
-97,-97,93,2348,-1335,-1676
43,-57,-115,-628,359,1349
54,-36,-7,3480,-604,-732
108,-88,82,1488,-25,211
-41,24,85,128,-47,409
32,18,68,-1020,449,314
-37,68,48,-3343,1422,1576
-20,-119,36,1944,2894,3281
74,40,-83,4308,3986,5771
-83,93,102,1493,4249,6397
3,-36,-59,2961,4135,8370
5,120,43,656,3429,9196
-86,-44,-59,2593,209,10261
97,123,26,1259,-2420,5304
-45,-40,-113,-2629,-1915,3114
-73,-42,-94,1159,1599,563
-92,-72,-99,5885,-759,-3657
-14,16,-26,287,342,-1889
-119,56,-111,-961,-1114,-793
-108,8,23,-1827,-673,14
-87,9,-10,-1295,226,347
-64,21,-53,-121,546,300
-73,81,-35,321,-192,74
-53,87,-27,454,-431,-187
-22,96,-16,225,-275,-84
-6,64,-41,642,279,-34
-51,68,-56,929,37,32
-28,107,-35,818,55,60
5,122,-26,928,172,-173
14,-127,-50,512,-8,-13
20,-126,-71,-56,279,-521
34,114,-84,286,213,-149
37,101,-93,656,-14,49
45,115,-94,584,-143,138
52,-124,-99,305,-49,161
58,-123,-102,427,-61,105
75,-127,-99,786,87,-67
74,-111,-95,417,-1,-10
81,-113,-111,388,-18,11
87,-109,-119,291,-16,-20
94,-111,-128,301,-4,-18
100,-110,125,349,2,-33
103,-110,124,409,-4,-86
111,-104,123,439,-5,-14
118,112,31,667,-2002,-7867
-18,6,-124,-992,-7682,-8853
-39,-124,-56,-1200,-8652,-6552
70,20,-67,1215,-8095,-3982
-66,89,-35,1984,-4485,-1673
21,104,-24,1718,-2527,1203
-19,41,-107,-3965,3482,-121
-56,-124,39,1630,-849,586
46,-106,-57,-51,-628,-29
123,-39,63,125,-260,-279
-67,62,64,1035,137,122
-66,-3,48,100,183,93
37,82,109,1222,257,-194
-25,1,-43,-560,3180,1471
-26,114,-71,1542,7632,2234
75,98,47,2921,8223,2817
-34,-48,-22,1899,9000,3963
-47,74,118,-478,9152,6817
-67,33,-61,-4749,3467,10212
40,74,14,7447,-2334,4713
-104,45,43,-1931,-1464,4921
-110,-18,38,-1407,2351,-451
53,54,6,2910,-2382,-3289
-82,72,-61,240,-2674,-2000
-123,59,-57,-2394,3526,-628
97,127,98,-141,-1319,-55
-50,-69,15,510,-772,-45
-8,16,26,-372,-222,302
-25,30,0,-1070,296,-135
-6,4,-50,-353,619,-329
-1,-7,-54,731,58,-295
11,1,-41,1320,-315,-425
34,19,-39,794,-86,-251
30,33,-38,180,-21,20
24,30,-52,215,-60,281
26,41,-68,486,-14,359
36,74,-79,381,-121,372
52,95,-90,758,21,111
86,98,-53,1306,487,-372
74,113,-47,184,-94,-34
71,82,-79,416,-70,9
72,87,-93,255,-29,49
81,98,-113,140,-7,68
87,102,-119,210,-10,0
95,106,-118,230,31,-26
103,110,-120,345,32,-36
110,112,-119,525,17,-60
118,119,-118,549,29,-36
124,-127,127,533,6,-22
123,-117,124,431,12,-44
-19,54,21,1965,-151,-6688
-65,-85,-108,-848,-2802,-8176
-57,-69,-16,-974,-6229,-8604
58,112,-121,1197,-7608,-5695
72,-96,-21,2365,-6256,-3417
-111,-47,-88,2929,-3590,-1403
53,-39,119,2998,-4230,342
116,-109,-104,-2810,-1871,573
-73,94,-111,2612,1748,62
25,114,-89,556,-478,16
107,-40,42,514,204,-279
3,126,-104,1181,-397,87
-55,-57,-80,67,1692,-523
-11,-16,50,-3192,6603,1170
70,-16,105,958,8626,939
-127,-79,111,3544,7395,678
-103,-9,112,1141,9769,1326
-23,-87,21,-4352,8731,4131
-83,8,32,-4772,4327,9558
-76,-116,112,2761,-2312,5565
107,-106,2,412,-1286,5021
69,-21,-23,2325,892,1881
127,-44,-56,5482,-266,-2482
-60,-120,-60,-290,-2391,0
-45,78,-80,16,-581,115
14,-62,-110,-584,975,-1332
-24,65,-106,-4439,-668,318
-2,44,-93,-6108,271,464
-25,45,86,-4548,316,-344
8,-14,95,-62,353,-655
21,-46,-121,3752,230,-1367
8,-33,-102,4028,-254,-1537
29,3,-38,1895,-582,-740
46,17,-16,-336,-293,113
32,22,-52,-1595,-35,832
13,52,-83,-1629,-976,1334
-4,-58,124,-2188,-1494,1766
52,-128,123,2890,1543,-988
57,-52,-19,1559,182,-875
41,-81,-104,250,-302,643
39,122,116,663,44,0
53,-113,115,92,263,36
59,-117,95,-136,147,140
65,-125,96,533,-139,48
87,-106,123,702,141,-106
88,-95,123,583,4,-114
91,-91,111,373,-25,-32
101,-95,104,382,-22,-59
109,-94,90,308,49,11
109,-96,81,398,-3,-56
124,-102,11,4349,-363,-6679
-53,84,-28,-55,-4009,-8850
111,90,15,1331,-8918,-7149
-88,-128,109,660,-9164,-3740
-46,99,-119,703,-6039,-2312
50,-25,-48,4539,-3653,-992
58,-21,30,-4332,3976,2192
30,-33,51,3873,-1203,125
-61,30,68,276,-845,175
-81,-56,-11,-417,218,76
-110,91,32,813,-453,-53
-109,-72,-36,288,352,14
-84,-81,-17,628,-149,183
-72,-68,-46,371,134,23
50,-96,-70,517,402,-73
-9,-102,-42,573,185,-139
29,14,-3,-1578,3359,-764
81,-80,56,-1690,9176,35
108,-69,66,2308,10861,-714
-1,70,126,1751,9467,1299
86,-46,-92,-5008,7123,5912
-25,79,-76,-8440,5611,13205
-112,-127,56,520,-3672,8333
-83,36,-41,11063,-2368,379
121,51,86,6581,1860,-21
13,-69,54,-580,-450,-2519
-29,81,71,-8133,365,-440
-68,-106,56,-7008,-26,-1617
-8,77,-34,-3632,434,-1074
-26,75,-68,-16,226,-296
-66,78,6,3347,-627,-817
-43,-120,49,3366,-737,-949
8,-78,73,1627,-4,-708
34,-73,69,-232,368,-214
9,-84,51,-1054,-286,533
-18,-63,14,-876,-756,1152
-34,-44,0,242,-1135,1006
28,-57,10,4431,987,-654
64,116,125,2897,312,-127
2,80,18,-997,-147,164
25,37,-37,-1778,384,253
17,20,-91,-1963,436,429
10,8,-128,-324,128,230
16,5,-115,1529,-256,-110
66,80,-56,809,207,-90
65,84,-63,423,132,-10
67,83,-72,360,-15,-52
74,83,-74,392,-62,13
80,90,-101,268,14,10
84,92,-115,305,41,-42
-121,-16,108,3266,984,-4749
-39,32,-103,1875,-55,-7857
-6,23,26,-1658,-6201,-8547
-20,-86,-68,1768,-9373,-7094
45,-47,42,1183,-9465,-3765
-25,100,-36,1176,-5690,-1703
-115,-118,31,5688,-6996,523
-106,64,85,-119,279,1209
100,-96,-110,2384,1522,-629
0,-121,-66,-163,327,173
-36,-112,92,720,-572,-237
-78,-108,45,460,-399,-129
-87,125,39,412,9,169
-40,-74,10,149,-306,89
-13,119,-13,306,255,52
8,-77,-6,192,-44,247
86,-95,-8,-380,388,234
60,-12,-10,-1772,955,-297
36,-1,-75,-3917,6608,266
56,-36,16,1723,8539,-247
70,64,-14,861,8328,1451
80,97,46,-1388,7249,4882
49,55,-70,-1209,6300,7013
-11,36,-11,-2865,2199,6507
41,66,-2,1561,560,6813
28,115,-33,350,655,3593
-74,-98,75,1051,-1040,2082
55,-28,59,-465,-1106,1140
-57,-21,-91,-1257,-2419,-201
101,37,-26,2902,2916,-2495
-61,97,20,226,-655,-1229
-89,-120,97,1499,-952,-1540
-16,-27,-120,-867,-318,-727
-23,-105,76,-805,829,-329
-62,-126,24,-129,788,-121
-84,-108,23,497,-118,34
-25,-102,15,1047,43,132
26,-86,-9,980,475,295
14,-36,-7,345,54,569
1,-11,-6,33,-287,736
-25,23,-10,-75,-236,700
-32,27,-19,154,-140,406
-17,33,-31,507,125,308
-3,44,-49,799,237,113
11,46,-61,919,197,-92
16,43,-71,913,123,-234
26,29,-75,825,39,-279
31,23,-75,584,63,-254
40,15,-75,473,57,-203
60,21,-77,366,98,-90
9,124,117,3185,-3758,-8131
1,-5,12,-2093,-6735,-8578
-17,67,-42,2021,-6876,-7234
30,-118,-1,-632,-7491,-2458
-110,-54,20,1813,-4882,-832
14,0,-90,-5921,-1551,1886
-43,-34,66,4040,-1504,1062
-36,-2,4,1160,840,-643
68,105,84,233,-270,334
38,-62,44,819,-349,-270
103,-19,4,214,-95,-159
-88,-91,-15,206,80,24
-52,-53,-35,207,51,70
-26,-93,-29,353,407,-111
-94,-29,-13,-586,1604,-757
-125,123,113,-3700,4321,777
34,-79,-3,656,6176,511
114,-49,69,1724,5596,913
-71,7,-1,-641,4791,1784
18,-94,-24,-296,3819,3336
-59,28,81,61,5828,4666
38,-85,87,-1375,3052,5565
19,-52,77,-1026,1938,6882
-74,107,-49,772,393,5393
90,-54,74,-1914,-980,6377
52,-65,99,33,-696,187
80,22,86,2994,-108,-702
-14,67,-7,2901,-1578,157
-8,99,65,3214,-391,-1661
3,-121,17,-2551,730,-905
-24,-13,127,-2798,778,97
-39,127,37,-775,487,-9
-21,121,11,1455,504,-720
-6,-99,31,2026,-498,-1293
47,-65,72,759,-225,-329
37,-68,40,240,-240,-244
29,-62,19,84,-260,7
30,-59,4,164,-298,178
37,-35,-14,123,87,347
44,-9,-35,-6,201,484
39,0,-41,76,-150,511
33,18,-37,35,-360,432
43,30,-53,228,-193,319
46,39,-64,349,19,136
52,47,-76,424,70,25
57,57,-90,406,24,-24
59,57,-98,408,2,-29
65,62,-109,379,23,-59
71,62,-119,392,53,-58
76,67,-125,363,-28,-35
-82,108,-20,2143,-1390,-6398
79,-6,-23,1030,-6319,-7220
-87,98,61,2974,-8974,-8093
-52,-100,-17,577,-8642,-4424
103,50,-16,2734,-5860,-1718
120,-77,45,1442,-5170,1089
-16,82,88,1814,-1064,361
28,-120,107,69,2597,756
-92,-101,70,1219,-625,308
45,64,105,57,125,-12
-92,-91,-105,186,-177,-31
-10,-71,94,130,-223,175
-88,-83,43,287,226,52
-124,-83,58,452,76,153
-90,-56,-10,-285,988,-6
60,11,52,-2009,819,-22
-5,36,62,-2146,3311,-236
-37,93,20,-27,6666,-326
115,111,39,203,7537,551
-5,27,-113,928,6534,2364
86,37,-62,-294,5549,4291
-93,-100,-43,-1386,4925,5216
-21,48,8,-3583,3984,8815
-85,29,84,4004,-760,6780
-127,-4,96,-2405,233,4859
55,75,72,-778,1306,2210
-26,-73,13,1511,-2059,-944
-73,100,-101,986,-2630,-2233
6,71,-87,286,121,-1603
-21,24,-86,-1067,1505,-115
-109,-54,57,-98,-665,183
-41,-61,32,1144,-200,101
-16,-10,47,589,31,-179
18,-11,12,85,473,-650
31,-53,-12,537,397,-700
29,-71,-18,932,83,-526
37,-63,-26,779,-20,-125
34,-21,-19,-111,-130,323
46,-8,-43,-206,51,351
53,-7,-58,338,90,296
61,12,-66,538,7,296
70,48,-69,352,-108,312
66,63,-71,217,-40,210
69,59,-82,400,65,48
69,62,-94,543,10,27
75,73,-100,376,-23,36
85,72,-110,439,17,-52
89,66,-120,607,-27,-139
95,67,-122,545,-73,-116
97,73,-121,399,-101,-34
111,-82,75,1806,-4487,-5100
33,33,-26,-323,-6175,-6307
46,-16,47,-3065,-10906,-6643
46,66,6,-1707,-8836,-4356
49,-6,102,99,-6141,-2278
-32,-28,-71,2104,-5871,237
-80,-19,39,-85,1520,242
-15,29,114,888,-312,1464
-100,-119,83,765,410,-38
17,95,110,365,-23,-221
-60,-19,-118,108,-275,-6
-111,-61,82,45,2,-15
-121,-101,58,255,419,1
-38,-40,19,-544,929,387
-19,-75,-25,479,1455,-204
-110,-29,42,-288,2622,-595
-87,-55,-34,-325,5476,-858
-19,-22,109,1190,8581,405
-93,105,-38,2988,8083,1628
85,75,38,1567,6711,2924
-111,52,-105,-4648,9327,3448
-44,58,20,-11907,1699,10703
-19,-83,-109,1167,-4734,5386
-77,-126,59,-1999,-5843,7374
-50,89,-72,19564,-859,-4484
99,-90,92,-9045,2332,-3789
-31,-64,3,-6239,-591,-1076
-37,28,-80,-922,-850,-944
-40,87,-50,889,110,-597
-41,-90,13,1052,-423,-210
-3,-25,34,578,-469,233
28,-16,6,55,103,219
47,12,-12,-370,35,284
22,40,-17,-591,-400,358
10,20,-32,236,-342,505
26,62,-45,639,39,848
40,102,-69,634,312,820
43,117,-93,749,185,354
52,115,-107,943,20,-260
62,112,-99,686,-32,-267
64,100,-90,344,9,-236
67,77,-89,516,12,-288
66,56,-97,934,36,-274
73,68,-92,638,-70,-88
101,87,-89,96,-50,141
-124,91,-89,220,101,30
-107,68,-104,932,190,-241
114,70,-102,946,54,-194
112,89,-97,391,21,3
118,107,-106,70,215,138
25,-31,-114,3483,-1918,-3792
125,-37,-77,792,-2054,-5749
-21,95,-13,-2080,-5740,-6568
-118,-115,43,-1640,-9520,-5167
102,-55,78,-845,-9956,-3800
-78,-94,-81,1371,-6323,-1417
-82,43,-13,1006,-2989,25
77,96,106,876,-819,970
-72,124,-26,2487,774,729
-52,116,-51,-948,629,-276
-47,15,2,71,156,160
-127,9,23,-235,129,-28
-122,-11,-19,15,393,-80
-41,15,-49,60,-184,231
-57,-31,-54,412,240,131
-24,-19,-62,415,315,-56
9,22,-94,223,62,143
22,-43,-86,442,420,-167
-104,-66,30,648,-145,-120
24,87,-88,-491,2597,-1815
102,-95,-27,-948,9891,-533
-38,20,-80,2708,9358,1099
14,25,-125,-5906,8156,4981
80,34,10,-5136,830,9364
57,54,-111,2761,-907,7388
113,127,-69,-35,98,7846
-23,-119,-37,1974,291,2121
52,-80,-93,1964,560,1868
-48,-87,-106,3633,-1480,-711
-70,-108,75,2917,-2878,-1375
36,-80,-115,-998,1128,-1667
-48,-39,-48,-2629,136,-950
-15,-120,110,-1499,411,76
-39,-119,80,-474,-79,145
-23,-90,54,388,-138,57
-10,-64,38,559,70,-137
-16,-54,28,440,-82,-204
-28,-47,21,187,-304,-12
1,-56,11,269,-301,157
107,-40,-2,414,87,641
106,25,-56,404,603,607
29,25,-65,906,417,-489
18,27,-37,1270,-181,-373
57,40,-20,385,-105,-15
72,24,-54,565,105,-114
100,29,-74,819,485,-108
88,41,-78,913,224,-103
70,55,-68,470,-269,69
115,55,-44,418,64,-297
-38,50,-54,605,1010,-55
-50,94,56,-1234,-4330,-8727
55,3,-102,-1939,-7705,-8996
-2,-95,-45,-630,-9583,-6933
77,60,-95,-875,-7128,-3648
25,-101,-10,2271,-4979,-62
-93,-1,-49,816,3672,397
-70,121,-82,1067,-1022,1243
-5,120,-46,-10,321,-110
120,-65,70,507,269,-166
-74,-32,60,73,3,-15
-69,-75,17,62,248,301
-20,-34,13,-458,893,201
-87,49,-79,-655,4977,-120
-88,-61,97,3374,6412,-524
109,-97,-92,7,8718,1427
30,70,-2,-1178,9211,3615
32,20,-73,-4194,6498,7044
-92,3,-6,-2594,1642,7377
-125,74,6,-2805,-1793,4922
-118,-114,-77,1753,-4978,3718
-75,49,-70,-2161,1197,5328
-7,8,39,3036,-2314,-1921
121,-104,15,1909,1436,-3870
-47,-48,54,433,-403,-2244
-18,-86,-26,220,-371,-93
-21,-66,-29,-27,210,271
-4,-25,-25,-253,219,278
29,8,-48,-285,275,453
41,35,-53,187,-243,407
50,43,-47,772,-265,132
57,61,-46,676,-55,31
53,83,-40,240,-24,118
48,70,-57,484,23,75
50,68,-68,633,72,52
56,84,-83,368,106,90
64,89,-93,314,25,-12
89,89,-95,419,105,-187
103,82,-99,657,82,-173
101,81,-98,695,-4,-148
102,79,-102,604,7,-102
102,87,-102,329,14,85
116,93,-103,456,27,132
120,104,-104,557,3,57
-125,109,-107,622,55,-40
-110,108,-108,654,148,-122
-111,107,-117,646,121,-123
-107,100,-122,703,103,-135
-100,101,-128,621,108,-71
-96,103,-128,559,46,-62
-90,97,-96,978,-85,-128
-24,55,115,320,-2073,-6424
57,6,-6,328,-8672,-9332
112,13,-52,-1393,-9681,-6994
45,19,26,1691,-9186,-4108
-69,-101,104,4124,-5681,-437
104,103,65,-2040,-2138,382
104,-27,-96,296,536,679
89,112,-18,1192,492,-357
-28,121,-76,1644,-257,9
-91,27,-31,560,178,-157
85,-72,-7,351,-49,22
-108,-74,21,359,-35,64
-56,-88,1,291,62,227
-25,-95,-62,917,-566,-29
-34,-71,-62,582,110,188
3,-43,11,43,232,152
-30,-71,5,119,413,-329
123,39,61,-1498,4313,-73
-100,-31,-66,1453,8257,-467
104,75,-28,2305,10837,450
-13,77,-126,-1393,10894,3285
-115,-59,13,-7355,5441,9431
-45,82,-75,2154,2939,10926
-45,-2,111,5168,-3800,3808
52,90,-105,-5245,4465,5903
-119,-32,-76,5539,-1647,-1775
80,-16,75,3191,-3794,-3982
97,-64,-119,-3501,1982,-1540
114,94,-98,-1708,315,388
118,-120,106,-982,-431,-120
-74,-65,112,-724,-668,-58
-62,-77,82,205,51,-68
-56,-44,68,454,244,-170
-46,-20,67,23,-60,-445
-7,-44,45,175,65,-185
-17,-22,30,165,-134,22
-45,0,27,-74,-332,5
-41,16,22,-295,-230,224
-23,48,10,-139,-79,453
-15,69,-14,211,123,232
-5,80,-44,505,94,-117
-3,68,-54,759,43,-327
19,54,-51,873,54,-201
44,61,-53,870,251,-157
63,54,-66,1027,243,-99
79,70,-78,836,371,-51
28,38,-106,1046,-292,-55
-1,97,-44,-351,-754,326
77,120,-72,-888,451,280
117,112,-121,257,554,559
-9,108,96,1939,-1117,-7676
115,75,-46,-1550,-7836,-8730
-13,79,74,2293,-7397,-9245
-122,84,18,3754,-10618,-2515
-38,37,73,996,-7338,-394
22,-22,-62,-8023,5752,2243
25,-87,-95,3594,-1000,166
83,75,-11,788,-1286,1086
120,-89,59,1589,987,-974
-27,28,-59,-45,-212,177
113,-80,0,180,-100,-102
-90,74,-10,982,190,-213
-35,-61,-2,523,187,161
-9,4,3,-863,870,-728
90,82,111,-2896,2763,339
-94,26,3,774,5680,1012
38,-10,30,914,8548,1312
-80,-58,119,858,8584,2755
85,0,84,-2950,7501,5602
21,98,125,-8177,1450,10875
-26,111,9,-2690,-3936,5653
-81,-27,-72,2864,-3921,2647
-121,89,-98,4801,-1950,4458
-88,-112,47,4308,2324,-3456
23,-114,95,-4460,61,-1262
-56,-51,14,-3453,-1091,-952
-48,88,-48,-149,374,-958
-35,48,-94,3002,1365,-440
-29,-74,-20,1970,120,64
12,1,11,166,-371,426
63,-16,-32,-215,-63,144
80,-31,-32,216,-178,-36
72,-51,-39,982,-116,-49
34,-54,-40,1341,-195,106
26,-43,-12,1438,-748,611
84,-56,51,5365,818,-548
105,114,111,2374,-79,250
72,73,9,-1878,-8,403
71,0,-71,-1577,307,276
49,-5,-99,-1440,352,-24
60,-21,-118,-516,123,-307
96,-9,-115,256,65,-359
78,-11,-122,1041,11,-361
71,-10,-115,1217,-183,-393
125,-11,-116,1046,16,-143
-107,1,-122,498,-99,449
124,34,116,286,-412,555
-90,66,-18,2160,763,-713
-88,-74,79,831,-645,316
-125,95,-128,-1851,66,82
36,106,94,-2075,-2342,-5075
102,-92,-32,-1942,-6137,-5976
114,-59,-4,-858,-8136,-6716
29,17,-47,2226,-10196,-4178
-19,-37,23,2909,-6833,-1150
85,71,71,-6004,3659,2381
8,86,37,3648,-2824,192
-40,-6,-109,1037,446,888
41,3,-33,-347,95,318
-93,-5,87,739,100,-254
-120,17,-122,15,-85,161
126,-43,22,177,305,5
-79,-37,16,378,162,16
-94,-22,-41,736,226,-403
-53,28,0,-443,618,45
-42,-37,-45,54,336,-198
78,-30,-36,-402,363,-151
-123,-61,39,-2903,558,-915
40,-74,67,809,4700,-2344
-119,-8,-51,1218,9440,-1893
-33,88,-75,1570,9312,-847
56,92,1,-5794,7716,4293
50,70,70,-6570,4417,8412
-65,-13,62,-2182,1370,10424
-115,-88,79,2267,-349,9642
-71,126,34,908,-3568,1591
-52,3,68,8602,-1848,1570
-87,24,119,2023,1114,-5103
-75,-89,-2,-4238,-757,-494
-85,81,-56,-1887,-471,-411
-112,-3,-103,-454,406,-414
-64,44,119,843,955,69
-64,-97,-107,-228,33,402
-54,-77,-123,-744,-482,632
-31,-62,102,-505,-262,576
-11,-53,55,-5,223,163
-30,-51,35,567,238,-95
-33,-54,29,882,-101,-133
24,-12,30,605,-102,223
-15,8,6,-295,-41,-109
-31,-21,15,-201,-564,-17
2,14,11,-395,-255,448
22,27,-14,219,430,-26
5,38,-56,433,139,51
-1,58,-68,-80,-55,8
36,62,-70,157,75,-116
39,37,-92,899,444,-497
38,6,-108,1516,304,-496
62,10,-107,1211,4,-165
97,32,-101,386,-116,258
104,16,29,-4903,1626,-1718
-26,18,28,1575,460,-6337
-26,118,-20,4531,-2476,-7085
51,-41,-93,-1530,-6127,-6947
-59,-56,-89,104,-8205,-5335
97,-126,-127,2783,-7916,-4277
99,53,63,2179,-4678,-1275
-101,87,44,1410,-3447,1208
105,105,-113,-685,3250,-818
-1,11,-64,-7,-1341,815
29,109,66,1514,139,8
35,18,64,82,-92,260
60,-73,-54,322,-170,48
-99,-85,-47,478,-240,106
-64,-96,-99,665,171,-69
-23,-46,-107,504,132,103
-12,-34,-121,295,132,-66
27,-69,124,623,4,57
66,-23,-107,326,-83,94
-77,13,-42,-132,-241,292
-22,43,57,-970,1792,-899
-111,-49,-100,-178,7156,-629
60,57,-38,601,8457,-549
-91,114,51,2736,7142,796
126,-43,-74,-197,7262,4007
77,-112,-68,-5094,8939,8354
-78,114,78,-1616,2344,8163
78,-75,-49,-380,-817,6069
-94,94,-60,-252,-1212,3997
61,83,38,1757,-1073,910
61,-63,-67,1917,-1301,-3975
-79,-46,-52,-2862,4061,-1731
73,-77,-10,-1193,-1341,-525
93,80,112,1000,-2110,-622
-64,-64,-114,44,-546,301
-18,-29,64,-888,1594,150
-78,-95,-38,-667,1649,-766
-71,108,-32,1744,309,-1234
-7,104,26,3064,-766,-1239
27,-98,72,1690,-723,-629
23,-73,105,-46,-476,-232
34,-70,99,-865,-375,644
15,-65,50,-663,-162,889
-16,-44,39,-3,-468,836
17,-11,0,745,-24,578
4,-40,-19,2557,-381,-160
18,23,-29,1989,281,-203
2,59,-15,-149,511,-212
-5,12,-36,-274,-2,-97
20,-14,-56,-273,128,-19
54,74,-57,-542,-4174,-7592
-77,-83,33,-593,-10489,-8280
125,-20,-82,-1076,-10364,-5520
15,112,-126,1622,-9871,-1336
-113,103,-106,1257,-4616,-35
-90,62,-45,3480,-1768,41
76,-110,-71,-670,2021,202
-44,-46,125,159,-211,-48
63,-84,123,739,39,-182
-113,-11,103,-766,91,239
-58,86,73,274,102,42
13,111,42,740,203,41
63,-16,58,-666,350,345
53,-124,42,-2766,1171,733
-68,4,23,850,6438,-646
14,-65,81,548,10727,-290
-104,112,92,86,9464,2443
45,-36,100,-2359,7402,6683
-19,-88,-75,-4182,4561,10025
90,-100,-20,-1132,1868,9711
-106,-121,-85,5214,-2555,2672
-81,-45,122,-3066,-1872,3946
112,119,39,-1129,-1783,1438
-105,-11,107,6846,729,-3512
-29,98,42,-3183,676,-1982
-72,-57,21,-3560,109,-1655
-71,81,5,325,192,-616
-75,52,3,3509,31,-369
-58,-91,78,1550,-254,-380
-7,-71,71,315,69,132
-7,-83,62,-32,-231,470
28,-30,102,-606,-825,1147
1,11,35,-627,-228,1116
-58,-18,30,646,-511,176
-6,29,29,859,-33,291
7,41,-23,1138,687,310
-30,66,-53,693,402,9
-42,61,-51,-91,-52,-392
-1,25,-58,193,0,-359
10,-27,-77,1263,150,-643
9,-61,-66,2186,-27,-670
30,-22,-46,1489,-151,-194
89,8,-15,325,-240,-28
-111,7,-29,170,196,451
29,6,-61,224,-98,-280
64,-27,-60,744,0,-227
100,6,-87,103,494,552
84,26,-126,232,191,424
79,25,107,814,7,139
60,59,120,333,-199,-198
110,-97,122,-341,-1249,-7478
18,98,-114,2383,-8066,-8846
-48,-18,-121,9,-9010,-5552
106,-38,26,745,-6898,-2109
-26,-74,31,2038,-7590,1345
-123,125,2,77,1961,225
31,7,-26,899,1262,-328
-60,-33,-95,-757,-142,495
47,26,34,-469,3,358
-55,-77,65,-6,-357,7
104,-76,32,-94,14,158
-116,-18,15,-262,330,20
-85,35,100,-2089,1251,-76
122,60,-2,-1642,4371,1309
-65,73,-104,1680,5751,1071
86,123,-45,707,6952,2337
-107,-49,88,2133,6476,3571
110,-120,-13,2946,6579,4423
-26,-118,-24,-4746,3984,7403
-118,-15,86,-6086,765,10654
58,-110,0,-1751,-3666,4965
42,-115,-9,580,-4306,837
30,-117,-10,4796,-1812,66
74,96,109,7479,3501,-3078
-57,68,25,-1721,-1572,-1003
-11,68,91,-3569,-1269,-432
-34,-91,-41,-2570,-285,-812
-19,121,-104,818,1172,-44
-24,-103,-75,1954,618,-316
0,-51,-33,1662,-296,-476
51,-55,-47,1293,130,-477
95,-87,-35,1258,85,-469
76,-95,-25,1063,-91,-63
73,-91,-9,642,-287,303
108,-76,5,646,-75,924
91,-44,-25,632,414,843
70,-13,0,835,-249,574
98,42,-26,-446,414,684
60,17,-75,237,151,108
85,33,-83,364,238,331
64,42,-101,246,269,-128
70,14,-111,786,144,-396
99,10,-106,629,78,-437
106,8,-102,549,124,-299
106,2,-102,506,114,-380
-119,-1,-100,504,71,-174
-87,16,-99,153,50,-61
-78,35,-99,299,127,-83
-122,23,-118,368,-12,-172
108,57,-68,-294,-558,575
50,-70,83,3832,2409,-3252
50,114,-82,4222,-4848,-7833
43,-54,103,-4691,-5015,-8600
-87,-83,-41,3135,-7028,-7860
-27,-114,10,1920,-10516,-6008
69,-65,112,1473,-4481,-4883
-46,-19,3,133,-8115,3162
12,-63,-1,807,4477,-33
-114,-8,-123,697,-2179,1554
93,-71,-46,2625,985,-1056
118,66,39,-366,-198,99
-61,-112,16,532,-147,11
-99,-54,82,-202,284,187
-99,59,-14,633,50,123
-88,-69,10,113,217,121
-56,-81,-32,15,192,66
111,28,-126,-1440,-14,-133
-10,91,-126,-3279,3561,1335
-62,60,-36,-634,6746,1790
76,-49,80,302,7594,3486
-103,-114,13,-3825,4660,7605
50,95,-125,-5213,1089,8021
48,45,114,6220,-4443,7055
-99,-124,-51,1166,-192,3052
124,-52,15,2302,-3,3081
38,34,103,2193,-880,2438
83,-65,-82,2127,-1528,1647
-107,-82,-37,2944,429,-454
93,-35,19,-619,881,-1078
-57,28,88,-1179,-534,-414
-72,-83,50,251,-160,-460
-68,123,19,1547,548,-765
-2,-124,11,1826,843,-700
49,-95,20,1423,376,-267
78,-97,54,1211,-90,-32
50,-86,51,912,99,32
-5,-86,60,398,-259,163
45,-64,49,-146,32,828
84,-42,-10,-33,395,825
66,-52,-47,968,287,322
28,-35,-44,1127,-154,-118
39,-39,-27,973,-303,-384
70,-50,-21,941,-12,-138
77,-57,-5,1017,-24,-145
82,-64,-6,1264,73,-327
116,-58,1,642,427,16
-117,-50,-27,-306,898,356
100,-76,-45,726,-152,418
46,-82,-55,1395,-625,-236
-111,-42,-17,1074,-646,94
-43,25,-11,3185,-1273,-5989
-29,70,-36,419,-1475,-6695
72,-83,122,-518,-9562,-7992
-58,79,-70,2913,-10028,-4849
70,-8,68,3572,-8650,-1183
35,95,-28,320,-6900,2791
14,-42,-105,-2795,8753,-311
-66,59,18,2990,-3679,948
-82,-34,55,1434,288,-621
127,77,80,-223,-15,31
-57,-41,-20,37,7,202
-101,-99,-46,332,-60,34
112,124,-108,567,271,-158
114,-115,-64,299,78,237
-119,-106,94,-88,464,-50
-58,127,91,50,297,-20
93,21,121,-1497,76,191
-97,99,73,-1840,2236,-152
-128,100,127,-143,6052,-333
-34,41,-114,1243,9477,-580
66,34,104,232,9662,1958
-119,5,16,-5438,9811,5761
-50,-72,92,-3346,4985,11109
-51,-35,38,-1804,-1303,7179
87,127,127,3882,-3109,950
-81,-91,94,2165,-885,3061
8,-98,94,-2562,653,3730
-103,-127,74,3758,-359,-2552
24,-128,-124,1871,744,-3277
-77,9,-57,-688,-1067,-1044
-57,-65,120,-683,-386,169
-56,-115,66,416,519,208
-15,-51,57,-77,650,237
-18,-46,-4,38,493,45
-63,-40,28,164,-737,117
-5,3,28,-480,-321,583
3,12,-20,-173,472,439
-11,14,-60,405,555,105
-36,31,-61,478,-28,1
-22,47,-56,228,-221,13
21,43,-57,211,111,62
11,34,-80,641,329,-67
7,34,-88,893,47,-128
49,59,-73,577,13,-72
67,68,-61,414,177,-97
90,98,-41,277,199,137
72,59,-99,804,225,-571
48,66,-58,562,-679,49
80,123,-62,-721,-19,543
106,125,-103,-212,565,366
84,-110,73,-538,-3083,-6768
-104,62,-3,-1993,-6853,-7033
-17,-12,-121,-845,-7531,-6519
-122,101,-57,110,-7233,-4601
-27,4,-81,2421,-5043,-3070
-26,-12,-113,2227,-5825,362
-110,34,-12,42,2256,-480
52,-96,-99,85,27,845
-14,60,110,809,-332,-8
-122,-49,21,-39,-345,376
-5,87,26,119,-247,-37
-66,114,-30,15,171,131
-78,96,-18,861,-169,222
-55,-26,12,-418,314,-285
-98,4,85,-1413,1304,-942
-34,-107,-110,-710,5894,-494
-69,70,55,53,8044,838
-8,58,42,-783,6929,2674
121,118,2,-3381,5400,5245
-7,-112,49,-4233,4226,8346
-19,24,101,44,2165,7930
-31,-70,-67,3712,61,4401
68,-87,-59,-4288,-1415,4243
-88,-61,-46,-1185,-2804,3196
46,-126,15,2258,-1376,978
-23,-67,92,2476,-1591,-668
20,-96,-83,2882,-235,-1813
102,-38,77,-2634,1977,-1000
-84,36,104,-1494,-690,-626
1,-82,-30,951,549,-471
-11,-66,-58,1133,1154,-1008
-29,-65,-85,930,669,-880
-37,-83,-92,1579,25,-785
-2,-71,-51,1239,-561,-270
85,-58,-16,757,-420,270
69,-28,-13,187,-110,558
42,-9,-10,-98,-176,607
62,-11,-61,306,241,544
55,15,-38,690,-630,806
89,111,-43,-269,-155,871
70,91,-100,-319,689,-43
50,45,-119,605,94,-350
42,75,-115,538,-124,-37
39,88,-114,186,0,-296
72,49,125,741,292,-551
86,30,118,1012,106,-428
90,43,-128,685,-180,-284
-127,22,-124,760,-78,-140
115,42,-113,697,45,4
91,80,-89,229,-317,113
-89,-119,-119,1534,-3679,-7295
56,127,-40,-1278,-5786,-7571
-60,-62,-73,2051,-6798,-7484
-69,29,5,1972,-7514,-5113
-98,26,-90,4261,-7815,-1537
-30,25,115,-1733,-4292,261
119,-63,-36,-3072,5814,636
-13,-71,-106,2882,-2118,336
88,13,-79,1067,532,-96
-87,65,110,-105,-247,27
-32,-63,-29,469,-290,111
-91,-68,-40,232,-123,236
-101,-93,-68,650,-6,17
-71,-24,-54,345,235,199
-26,-12,-67,74,604,310
-120,-36,9,68,641,207
126,118,-2,878,2194,-116
111,32,-65,737,5378,866
-15,-77,0,958,7640,1558
94,62,-82,1958,8166,2694
-49,51,51,-2420,9550,6341
-18,-63,-83,-6528,5795,10383
62,-22,0,-217,-3888,2033
103,72,88,-4,-4765,1724
-100,103,-34,-1803,-929,4603
-13,-85,61,833,-1079,968
-95,32,48,3498,-506,-1645
-42,40,95,2829,460,-1348
-48,58,125,1605,620,-206
-99,51,118,-522,-191,247
-68,8,90,-382,-331,42
-22,-45,40,184,389,-496
-11,-93,18,1395,557,-1223
12,-121,19,2066,63,-1292
79,-92,59,1391,-187,-672
88,-57,52,90,182,-87
37,-87,23,-14,30,-352
36,-127,7,511,-82,-162
76,-95,-11,248,364,551
93,-66,-52,226,445,827
63,-30,-81,576,73,694
28,-24,-72,835,-150,-152
74,-46,-55,1374,134,-537
-122,-26,-20,1296,459,-26
117,3,-20,713,186,251
-128,5,-19,561,-66,94
-74,22,-1,347,73,242
100,24,-23,270,27,-384
109,-13,-31,492,-54,-519
-105,15,-66,-249,205,270
96,51,-109,367,-1989,-7093
18,-14,7,-315,-7382,-7164
56,-11,-6,2480,-7337,-6167
63,87,26,3712,-8764,-3133
39,121,-113,-1210,-6500,988
108,40,-49,-4297,5540,614
13,-101,-115,3419,-3130,930
41,-31,-12,-214,355,194
-105,12,65,-236,172,496
-52,21,27,-368,191,193
120,-74,-57,-50,708,-126
-114,-97,-55,-960,227,325
101,-8,39,-361,1366,196
3,-64,-14,620,3738,-47
6,-80,121,-623,6852,715
-21,-127,115,1816,7522,1704
-30,13,58,48,7398,5001
0,-12,32,-3119,4850,8471
-73,-2,105,-502,2176,9110
-61,-16,-125,2980,976,5470
65,-116,-80,773,-443,4486
-24,42,2,1437,-3184,870
81,-56,-21,3143,1159,-3509
90,102,18,-2889,231,-1204
-57,87,91,885,-1201,-857
1,52,68,1121,-751,-879
64,125,60,-198,521,-355
55,-108,29,-1592,703,74
50,-116,-14,-1173,217,231
59,108,-58,608,123,149
53,-117,-38,1627,-363,406
90,-48,-21,1997,-918,931
92,-4,-1,1215,-776,-8
88,33,7,-447,42,-124
88,9,-28,-1002,501,201
59,-17,-75,-588,318,140
48,-23,-96,-42,23,118
55,-7,-109,208,154,126
76,14,-121,125,158,127
96,20,118,379,166,77
88,20,115,763,-20,-40
87,25,123,908,-111,-93
109,20,121,978,83,-52
106,34,117,642,25,239
104,55,125,411,-314,369
-118,84,-109,493,370,-153
-95,121,-65,-102,128,-53
125,77,125,123,-671,272
-109,109,103,-286,273,25
-121,85,84,36,498,-412
-100,-66,-47,2712,-491,-7211
5,126,-98,369,-3324,-8300
24,20,-67,624,-5875,-7467
8,7,81,1504,-6726,-5404
68,-51,-98,1541,-5760,-3316
-92,-38,52,2468,-6283,-448
32,-13,20,-2626,6178,1947
-112,-94,25,3200,-3505,698
-106,51,91,1213,301,-21
51,-24,14,-431,831,-186
120,-70,44,-18,26,335
-115,-2,-22,-798,528,408
-125,90,-60,226,347,-76
-52,19,83,-240,669,588
-122,-20,15,2073,3717,-64
87,70,-79,-131,6917,953
-112,-80,50,-932,8366,2058
-44,-28,56,1582,6817,2850
116,115,29,-1174,6361,3935
-82,-105,-57,-2035,4042,7246
72,-115,-15,-1140,903,7570
35,119,-60,4062,-211,6188
-30,-20,-74,570,-3788,2978
-117,-5,29,-447,236,571
-47,-113,49,1642,712,-2601
51,-82,54,-61,491,-1638
-71,24,-76,-1869,-953,-21
-33,-73,30,-2103,9,-376
-2,-89,-37,-1164,978,-341
-14,-82,-62,20,529,-215
-28,-58,-43,711,-375,-226
13,-62,-54,1062,-75,-491
55,-69,-62,1398,204,-575
54,-38,-51,791,-74,213
30,16,-37,-156,-297,754
32,3,-62,157,-21,451
42,4,-77,716,91,268
55,37,-79,811,-144,243
53,56,-85,574,-144,91
54,58,-87,388,-60,-134
50,44,-89,437,-44,-212
51,38,-102,319,34,-177
69,24,-105,96,718,-1547
-112,44,-109,965,1070,-1952
-50,109,-82,1074,344,-260
-86,118,-55,235,-237,-14
-105,93,-81,524,-171,129
-107,121,-92,-393,-28,91
-69,-102,-119,-639,173,161
-34,-103,-118,89,718,-600
21,98,-109,-887,-3304,-7057
29,69,-60,-561,-5246,-7594
-49,42,-66,1175,-6454,-6313
13,61,-22,1797,-6132,-4293
108,-19,-123,478,-5013,-1871
92,33,71,-1711,-999,387
-70,64,67,1013,2747,151
-73,-9,-84,2626,-1128,176
84,-3,23,-705,92,-4
39,-51,120,-263,-249,434
-125,-108,126,813,34,-90
-13,62,-80,-211,169,205
-127,17,-24,-620,830,448
84,-29,-71,41,2640,1643
12,-124,12,236,5632,2419
61,30,-90,1740,5148,3268
-36,-117,102,577,5611,4801
0,-125,64,468,5312,5647
48,-25,-3,-288,4482,5594
96,8,79,946,1593,4983
-67,-80,-78,-200,-708,5793
13,42,-60,1595,-1405,108
84,-108,76,786,-2099,119
15,104,123,-216,-2025,707
-109,-6,37,2939,3645,-1930
37,87,115,213,-1245,402
16,-59,48,-774,-559,170
23,-43,73,-1611,-587,416
33,-46,-40,-1827,489,318
22,-75,-79,-81,657,72
11,-78,-77,1534,-28,-241
41,-44,-61,1704,-230,-506
70,-34,-53,929,-91,-418
80,-49,-46,460,-137,-147
72,-66,-55,638,-217,180
55,-41,-45,597,-383,383
64,-15,-28,1145,-147,145
-105,30,57,2525,744,-748
98,107,6,-648,-663,480
108,74,-45,-1996,-174,686
103,20,120,-1209,600,328
101,-19,91,932,828,-259
93,-7,97,1636,185,-253
108,52,110,759,-115,-35
114,42,97,269,93,-75
-125,37,93,237,-22,99
116,45,93,437,-236,105
111,50,92,553,-294,-71
-117,86,99,-179,-213,318
-76,-103,107,-650,26,63
-4,-45,-30,-1906,-1907,-7486
80,113,124,1230,-4672,-6197
0,92,-102,-4,-5412,-4638
10,15,-88,1700,-6577,-3201
-6,-50,-32,3320,-6184,-1584
-37,117,118,-662,122,470
-84,36,121,-1508,334,1051
-2,51,74,496,-345,252
99,104,-39,579,131,123
-51,98,-9,60,65,51
-118,85,-55,133,49,-94
-113,65,-79,80,97,15
-42,88,-62,81,103,237
93,119,-29,-830,368,44
11,49,-56,185,1749,643
-58,40,-88,-138,4655,615
14,-84,32,997,5722,1209
64,-67,-77,470,5453,2881
-70,-83,126,-311,5111,3919
40,-73,97,205,4854,5458
2,89,126,28,3775,5969
32,48,-119,3284,1903,7368
-110,-110,71,771,-13,4900
-64,54,26,413,-84,2618
47,-106,77,-1093,-560,2266
67,104,77,-1973,-1270,178
-34,-13,104,-834,-1740,-1054
-50,-45,126,1154,-1678,-649
-76,92,-128,1390,3844,-1524
-71,43,8,920,-1934,649
10,30,71,-1814,-799,487
-4,-63,-19,-428,190,-443
-6,-69,-53,271,954,-712
1,-51,-45,223,393,-706
22,-80,-72,931,207,-587
25,-84,-76,1233,-10,-348
34,-41,-44,277,-363,89
62,-11,-34,-510,-362,422
96,39,-42,-1093,-321,711
52,64,-71,-861,-21,550
17,24,-121,643,245,-149
50,78,-113,617,95,488
65,-122,124,-146,109,753
74,120,78,403,244,238
56,94,73,1186,-4,-358
67,89,92,1104,-381,-518
90,78,103,656,-253,-335
84,74,122,79,-235,-86
76,68,-94,133,-302,-168
-78,84,-12,999,933,-108
-83,-89,-85,1416,-2656,-7558
107,107,80,-1465,-5430,-6863
27,108,-16,1078,-6346,-5301
26,-53,-51,3551,-6507,-2884
71,25,48,1031,-5838,-2163
-26,46,95,219,582,-96
-58,-127,-60,-635,1400,536
16,-25,20,-290,-604,378
113,25,71,240,-137,607
118,-18,47,564,-245,24
-107,21,52,707,-96,-201
-35,40,97,722,-56,-154
33,52,58,646,32,-200
89,25,80,785,91,-56
111,72,63,453,230,-73
100,93,85,-145,310,-16
-126,64,58,-55,248,-49
-101,48,50,28,219,-19
-98,82,66,196,38,-17
-104,87,68,343,-183,-34
-71,56,37,943,-615,173
-60,84,78,636,-155,-217
-60,88,-120,614,-394,-83
1,86,104,561,-143,-131
19,91,116,667,145,-55
27,-128,123,207,192,38
37,101,-126,178,272,54
13,85,112,582,290,-33
24,-109,-104,176,259,65
59,-113,34,531,-450,544
-18,33,51,-2444,1501,1245
-123,95,25,-658,3648,1526
-49,115,-36,1253,4578,1558
29,-105,-121,-614,5073,3721
40,51,80,-592,4473,5292
-118,-63,-89,1431,3336,7996
-52,-70,84,-337,644,6112
95,-90,68,2402,104,3016
-56,60,117,279,1243,3330
-43,107,-117,-488,-128,4472
-87,84,-61,1977,-2891,3307
-118,-82,52,798,-3389,641
116,106,31,1145,3927,-2520
-103,123,-87,-2138,-939,-2098
-98,-118,116,-1003,-841,-1682
-49,101,109,-255,-161,-766
-29,79,67,1094,683,12
-25,-123,73,565,406,-111
-13,116,47,1075,102,-305
-14,94,29,1538,-119,-375
-108,111,61,2187,96,-7287
123,66,116,-2349,-1138,-7543
49,76,103,-862,-3982,-8479
-89,-92,95,118,-4503,-6726
3,10,-108,1480,-4422,-4736
8,105,-115,1460,-4418,-2844
78,120,-42,463,-3284,-976
-85,-95,53,548,-2046,494
-127,-89,-69,4721,6343,461
-46,-73,-4,-1738,-1930,498
122,85,78,-2301,-41,539
118,116,40,565,-843,523
-4,-48,34,-1522,1046,593
-8,-38,97,-1381,2703,1719
111,-109,14,-239,3322,2369
77,85,-9,1068,4656,3475
-62,-36,59,3011,5362,3689
-53,-13,-94,1379,6472,4583
-115,99,82,-2904,2464,8103
38,67,60,-5376,-2631,11467
71,119,61,4003,-5036,4033
62,104,60,4548,-2111,4311
-45,-15,-17,4531,-3473,-1417
-29,79,78,2031,4227,-4784
108,-37,-22,-632,-282,-1640
-45,-97,44,59,271,-641
-63,47,22,634,702,-990
1,99,6,-567,525,-115
31,-104,-16,-783,-236,1168
9,-102,-44,4,-448,934
6,-72,-63,386,-236,412
20,-44,-64,-37,-283,283
-1,-85,121,-4863,-827,1429
-68,-89,117,-3480,-2447,1001
-42,-69,-85,4197,2842,-1615
-11,96,-81,2130,-1045,59
59,40,119,2306,-276,-235
34,71,-91,846,511,-435
2,-12,123,1038,295,-520
35,13,-112,609,-335,496
62,69,-98,20,-385,889
66,65,106,542,525,159
38,69,95,300,61,-141
43,52,85,211,-194,-231
62,45,81,364,-303,-67
67,46,83,611,-359,-147
113,110,126,-416,668,-63
116,98,-120,-131,355,-271
120,91,119,-10,473,-167
84,57,65,928,-257,-358
57,88,63,1052,-2650,-5166
6,-71,114,-630,-4390,-6399
69,-44,42,91,-6315,-5735
-115,4,-7,101,-5949,-4397
-123,45,-42,805,-5525,-3106
-108,-76,5,1179,-5007,-1481
18,-80,-3,675,-2190,-870
125,-11,14,45,-189,-289
125,-72,79,1766,-1716,378
-67,117,12,3443,3531,-1768
-117,-7,-58,-1222,-930,-36
103,110,-24,248,41,164
-50,-100,-31,-91,-337,344
-84,70,78,600,-193,246
-48,-90,-93,207,-368,182
-13,-101,122,434,-62,-17
49,-51,120,104,63,3
87,-81,-117,445,193,108
-107,-38,-98,185,535,106
-4,43,-41,-358,566,-83
-31,12,56,-266,2668,229
-121,-63,-21,-1447,6179,1165
-24,30,88,-308,6562,2444
98,-80,-31,-1340,6512,5347
46,-31,-89,-1372,5780,5352
-116,38,-113,532,4725,5577
111,102,10,-220,967,6247
-86,126,-23,241,-819,5847
-6,-82,65,314,-2339,2967
-106,98,-85,-3910,-3385,2389
99,11,-70,8615,1962,-4418
113,-112,63,-323,717,-1361
-62,-82,86,-1970,64,-1161
-2,-81,91,-2075,103,-144
-39,66,-5,11,493,258
-59,100,12,1157,17,256
-47,-107,49,984,-605,452
-6,-52,60,444,-515,709
6,-24,60,-188,-440,661
29,-5,91,218,-788,495
93,-33,-68,3185,977,-1385
-6,39,95,-172,-548,310
13,9,32,-1683,240,663
20,-1,-52,-1059,822,645
13,-13,-110,539,575,85
16,-12,-122,1435,185,-308
29,7,-105,1303,-330,-465
62,4,-89,813,-331,-282
73,4,-70,445,-319,-71
57,9,-38,356,-568,64
-36,108,-99,-9206,-244,387
44,78,17,-1092,1158,-1292
-111,52,-8,4558,527,-7337
-70,-24,-62,-3079,-861,-7892
15,-78,62,685,-4749,-11141
44,-107,0,4675,-9634,-7839
11,34,-98,1545,-8709,-2117
-120,115,-115,985,-3206,52
88,-10,48,-3910,6542,1828
115,-58,-12,4685,-2455,1016
-103,-1,8,103,700,-745
-99,57,-90,-1100,-146,301
-53,61,24,614,-318,-74
-99,115,23,365,-97,-81
-112,-117,-2,481,86,-91
-80,-86,-13,221,231,-118
-16,-112,-31,202,290,-22
12,-62,-69,-91,432,30
29,-112,-71,88,493,100
61,-62,-107,117,460,26
56,-13,-106,-186,271,183
85,6,-78,-588,177,517
96,-68,43,775,-272,131
117,-36,-123,-60,202,159
-81,-47,-60,713,-95,-93
-45,41,-112,276,177,-45
-32,65,-107,10,360,80
14,60,-92,-367,239,306
113,71,-3,63,327,198
80,-89,126,-1720,3520,-535
-8,-4,76,-845,5521,2019
48,-104,-15,-57,6357,2392
111,55,-89,222,6115,4431
-33,60,118,-1206,4925,6682
-103,-120,-57,-1144,3827,8716
-81,-16,-88,-298,2364,9169
-72,-121,51,1444,-712,2932
93,-6,-90,-140,-2006,3107
-61,-11,-96,-239,-1545,2499
-47,-22,-40,-756,-1317,544
35,30,111,5898,2797,-3294
-116,-44,109,547,-664,-818
109,97,-59,-2543,-1428,159
-112,10,-113,-2542,-452,-147
-68,-82,59,-1085,811,-328
-97,-92,53,1034,622,-516
-117,-106,100,1819,-644,-903
-56,-65,-127,1180,-608,-348
-27,-32,107,-281,158,98
-46,-66,66,-51,332,90
109,-111,-118,-249,1318,-8200
122,-114,76,536,-3826,-9231
-99,-14,-84,411,-6207,-6062
109,103,-66,1571,-5046,-3452
-83,32,-19,1062,-4545,-1447
-92,92,48,-698,-3713,117
-114,-80,-108,654,-1132,61
88,106,12,1005,2088,-750
67,-26,80,-1312,-682,558
40,-102,-81,130,-88,220
-113,74,-50,857,-22,83
-98,-9,-60,371,-86,16
-52,-68,-47,653,-118,55
-12,-48,-79,561,20,-105
37,-6,-65,389,-83,157
50,-37,-68,526,50,65
93,0,-83,359,128,41
123,0,-75,356,130,148
-111,10,-77,276,265,157
-117,35,-93,302,-13,265
-114,29,-114,361,-89,181
-76,9,-70,590,-147,84
-63,42,-61,400,-53,-70
-37,45,-77,541,-21,-152
1,63,-75,460,69,-96
7,75,-58,393,-11,47
13,89,-63,231,49,102
15,80,-59,249,169,26
25,91,-57,207,195,91
37,107,-50,44,212,112
43,92,-38,175,262,104
73,-123,44,-209,-98,-27
-17,-84,70,-842,1655,7
20,-27,-125,-108,4284,1554
94,127,51,396,6899,2060
120,54,-50,958,6488,3406
-44,-5,-50,348,5758,5379
-70,-99,121,-2107,4468,9016
57,99,-6,-508,1478,8584
113,-19,-35,-1701,-125,6779
-125,-78,-102,852,-2859,3631
65,26,-84,1278,-851,2737
-89,-40,-10,2644,-1684,-715
101,100,-113,5596,-1694,-3177
-5,-38,16,4036,2025,-2258
101,-17,-80,-1362,-1219,601
-106,-121,107,-2447,-116,680
109,2,14,-2801,388,-12
-127,-79,-58,-1091,935,-414
-108,-107,-90,531,447,-578
-85,-114,38,2403,-285,-7420
35,-25,75,-2730,-4968,-8087
-59,-76,52,-1258,-7114,-8248
115,-83,-6,3558,-8303,-5564
77,21,65,2671,-7150,-2264
-48,118,97,204,-6078,250
-114,119,-89,-1690,3946,517
41,-56,-36,1457,-824,16
-86,57,-84,-604,705,-121
32,-98,104,357,-92,292
69,-104,44,23,-124,441
106,106,-23,429,-201,223
-110,89,6,799,-258,-33
-52,-81,-30,310,13,0
-28,-100,-29,395,-106,8
23,-96,-37,358,-55,76
66,-57,-48,68,66,246
125,-20,-4,-695,172,319
67,6,56,-1630,1138,478
75,123,13,-776,4586,1799
-122,118,-87,-305,5841,2746
102,49,97,1434,4617,2767
26,-112,-50,1351,6363,3753
36,-70,-49,253,5706,4650
-124,35,-117,-1136,5247,5718
18,105,123,785,2056,5529
-23,3,-54,1912,148,3671
51,36,-15,2188,-34,3444
-82,123,97,1232,-630,2625
2,-93,-90,522,-1483,1360
-69,-90,-14,-580,-1494,410
-49,-111,-17,-947,-1059,351
22,-115,80,-137,2840,-1748
-79,53,50,145,-1443,-228
-78,-26,-74,-556,-1210,-130
-34,-70,97,108,81,-469
-67,-99,59,377,907,-1069
-67,-89,63,-34,279,-557
-49,-81,18,-113,-44,409
-47,-69,-3,120,-131,739
-40,7,-10,-212,-236,835
-27,37,-27,-471,-87,514
-14,42,-41,-160,0,151
-16,38,-64,594,42,-137
-36,43,-51,656,-351,-319
-9,59,-42,156,-159,-52
6,60,-63,0,137,14
2,46,-84,520,83,-153
7,47,-95,610,-32,-139
24,59,-99,439,-31,79
67,19,-84,2545,-256,-8266
-66,-28,110,617,-7488,-6181
45,-11,-80,-2650,-10068,-5951
120,51,-91,1057,-8960,-3282
121,94,32,3193,-8156,-771
-11,4,-32,2138,-5068,1474
-85,8,8,-6343,7570,155
-55,-24,-116,2950,-2910,463
-88,-57,-100,284,587,-87
26,48,-60,183,167,82
-69,-21,78,-249,-106,151
-21,124,76,415,-69,-13
-83,-99,-16,291,375,-61
-112,-53,12,161,105,103
-81,-86,-33,240,322,4
-25,-77,-57,154,384,89
-13,-81,-67,525,653,103
19,-79,-108,498,763,-266
77,-66,-70,404,575,36
-78,-31,-22,661,479,-94
-123,62,97,-616,953,204
-66,-49,40,-2234,5073,1458
16,16,40,37,7158,2352
86,-97,-37,1589,6096,3576
-39,-2,-113,396,7234,5944
-10,12,-4,-464,4824,6598
-11,-24,25,1030,2098,9529
-120,-120,-26,78,957,2875
-120,82,-13,-2490,-159,3028
20,0,45,-3202,-2233,898
-98,118,-104,-1348,-3873,-1057
-45,-28,-80,3600,-46,-2492
89,-105,123,3812,3492,-2375
115,105,-70,4255,-1800,4
-8,-49,-31,994,-72,364
5,-5,-58,382,372,818
-77,-13,-128,-1103,285,273
-73,-81,92,-996,-108,274
-26,-50,72,-456,108,916
-33,-23,22,28,440,372
-58,-34,-10,576,287,-623
-42,-73,-6,1138,-108,-1253
3,-90,7,1246,-246,-848
14,-87,19,750,-160,-422
20,-94,12,507,73,-264
23,-123,9,902,-122,-153
58,-106,19,1029,10,417
59,-46,8,200,72,690
27,-12,-2,-255,-69,435
41,-35,-26,172,248,70
108,-124,-120,95,-1845,-6805
10,71,45,-2541,-4659,-8396
-71,-81,53,-454,-5699,-8467
39,51,69,1902,-4452,-5812
12,-41,-64,3657,-6608,-2734
-74,98,-65,754,-4995,552
91,-128,57,-427,-2035,636
100,-46,4,3682,3224,-801
122,63,76,-242,-957,-336
114,-42,-52,-872,424,404
110,84,34,-74,-209,264
-121,76,-80,512,171,281
-102,124,-41,556,137,-118
-77,-86,-90,252,369,-128
-31,-91,-72,272,114,4
7,-87,-109,490,257,55
55,-56,-82,390,248,174
-48,49,123,-1501,633,-457
6,-31,-93,-2615,4619,1578
-119,-6,57,-423,5911,2457
40,40,45,-262,5548,4621
121,69,-10,-425,4008,6232
44,108,83,112,4827,6931
98,3,-45,964,3538,7910
-94,69,-99,2709,906,4127
-52,-119,-74,1370,984,4235
73,-80,12,-732,155,3805
-110,-12,28,-691,-1620,2813
-20,-99,37,1890,-1535,214
-96,-48,16,444,-1009,-477
-113,127,11,1166,-791,-488
-85,89,-2,592,354,-647
-37,46,-74,-828,1951,-1096
22,-2,107,-1948,1940,-1230
5,-88,37,-639,1437,-820
-83,-113,36,536,-1470,-846
-19,-111,15,730,-1082,208
7,-61,14,448,-391,107
7,-47,-38,220,566,-596
-9,-57,-64,1042,-159,-100
-4,-48,-35,895,-307,61
11,-16,-12,446,-213,215
6,-35,-25,1381,-364,192
19,-19,-28,1605,-397,418
32,16,-11,806,132,346
60,25,-12,356,364,358
51,1,-64,657,192,69
32,25,-48,333,-340,342
63,49,-47,46,50,172
63,59,-86,41,225,-99
6,-63,33,-208,-4911,-7303
104,67,80,-349,-6340,-6872
96,101,-91,321,-6062,-3463
-113,-6,125,1103,-5226,-2426
-16,-100,71,2261,-5008,-1334
-109,-78,-75,1828,-3888,448
66,126,-28,-3665,3682,897
78,116,-94,2065,-654,-161
27,8,-12,-683,-395,535
-70,-117,-115,588,-6,-65
108,-100,26,765,-101,-36
-126,-52,45,280,25,-125
-78,-95,-2,517,241,-102
-24,-110,-17,804,338,-59
-24,-60,-35,582,480,105
15,-35,-36,318,627,-34
-109,-63,117,628,367,-88
-103,-14,-92,-1209,2764,1219
-3,-96,0,-1204,5154,1778
14,-19,56,1170,4460,2281
-114,-14,-18,927,4515,3954
-19,51,-126,-394,5210,4276
92,-16,28,538,4988,5758
43,-128,0,-679,1509,7061
-85,-19,-61,1184,-1016,7016
-1,-67,-113,246,-2038,2567
8,11,2,1068,-1146,2202
1,-81,82,2503,-1045,-227
-42,107,-27,4011,-2286,-1641
-97,-105,-61,3854,2676,-2360
-79,101,46,44,-581,-488
-99,-57,-54,-1564,-948,-35
-36,-86,-127,-1765,259,419
-13,-66,44,-1808,1015,608
-74,-87,-29,-389,523,11
-74,-98,-32,1021,1,-448
-28,-82,-23,1459,-162,-599
-12,-72,-11,917,-202,-490
-1,-72,12,456,-349,-242
-8,-62,35,277,-521,203
8,-41,32,99,-241,356
46,-7,9,127,222,443
24,12,-44,-109,334,189
13,23,-30,-263,-401,429
41,53,-65,-395,190,472
25,42,-107,301,324,0
23,36,-128,759,212,-196
20,43,119,594,-18,-162
43,42,121,459,-126,-94
43,26,114,774,-41,-162
-94,54,122,-3470,2252,-3539
-77,67,56,2048,-1418,-5213
125,71,27,-1529,-2929,-7077
-66,-82,-68,-505,-6437,-8427
-80,102,77,256,-6072,-6828
111,-18,-7,974,-6826,-2970
-78,-128,13,2034,-5198,-1701
30,-58,108,1279,-4914,88
29,50,-68,1453,5582,-291
-34,-100,-74,-1108,-1983,1442
-36,24,81,719,78,-16
-125,14,-87,-699,196,87
126,-80,56,-132,386,-135
-124,-41,27,327,118,235
-115,-106,121,1262,132,-482
-111,-106,22,1051,317,-292
-37,-40,14,279,257,158
-3,-18,0,-74,398,-482
28,-29,-51,-519,1400,563
-117,127,-98,-1658,6041,2613
-105,18,3,502,7085,3388
28,10,2,1160,6178,4620
-52,-81,-43,-362,5182,4466
13,-65,107,-1082,3875,6377
-6,-82,0,-476,1073,6746
-59,-127,96,3712,-505,4680
-74,126,29,1250,-2993,2475
-4,19,61,-877,-1046,3051
60,-26,17,-1416,-689,1966
-40,35,64,9552,-776,-1880
23,94,-7,1683,1607,-3138
-56,12,-108,-3897,-356,-1136
34,86,-27,-2070,765,199
-58,71,-6,128,-319,-452
-55,89,37,449,-902,-280
12,-91,52,458,-601,988
13,-58,-9,178,665,722
5,-38,-54,-139,728,124
-7,-21,-60,-159,-298,34
15,-31,-51,279,-795,76
0,-25,-42,547,-652,125
-19,-10,4,665,-719,267
14,-9,-18,1360,-26,335
51,8,-35,1810,646,-210
72,54,-16,1356,480,-510
20,79,-2,-949,-732,195
31,41,-53,-1292,-65,357
59,28,-128,-491,779,193
49,31,106,196,578,-223
50,21,81,828,268,-366
6,88,-123,-6327,1000,1495
43,-60,-116,-1659,2060,-2274
-32,87,124,4663,785,-7689
-96,-24,-87,1437,-607,-8408
-58,120,96,1620,-6453,-7537
-71,-101,65,105,-7579,-3752
103,16,-106,1432,-6963,-983
-10,38,113,647,-6302,730
60,-114,51,-2440,-3458,10
-39,40,-93,1634,4520,-1420
90,28,111,17,-1865,334
15,26,65,-246,-21,691
-126,-55,-33,793,-109,200
-90,-44,-31,580,-96,178
-36,-17,-53,362,14,-61
-110,-21,-57,467,7,-55
-116,-26,-92,349,13,68
-79,-37,-113,546,9,11
83,-69,93,-1736,-206,-6
70,108,75,-527,1427,121
30,-42,88,92,5351,949
-86,-74,-32,-937,7782,1952
-48,39,82,507,6349,2953
101,120,6,-2296,6734,2755
77,74,-120,-2730,2817,5910
46,68,87,744,-375,6107
92,-17,-61,1506,321,4998
38,107,-29,2294,724,3367
12,117,38,1567,65,3353
-53,-127,75,1011,-417,2626
83,-45,-5,209,-1684,1080
101,-78,-4,-135,-596,-18
74,45,-75,1135,669,-94
-24,-31,-128,1865,602,-561
-70,-42,-112,932,-206,-494
-18,-75,115,-72,-59,13
37,-85,74,-332,286,89
31,-111,30,37,19,-129
8,-105,37,257,-519,-263
25,-94,55,-61,-612,-237
51,-97,49,-71,-301,-95
38,-112,26,541,21,-102
37,-110,16,950,106,-25
53,-74,15,856,-71,67
82,-73,3,725,152,178
103,-49,-8,526,333,522
46,-37,-55,603,276,155
25,-32,-44,292,-298,323
80,13,-49,-287,93,740
80,18,-101,245,410,118
-33,-71,4,2459,-1033,-6660
-3,-78,7,-465,-3072,-7148
42,-9,-92,-8136,-5879,-7585
2,-73,-62,2209,-6389,-7086
-23,85,-6,2755,-4275,-5256
-110,66,42,3375,-4717,-2264
69,49,6,2712,-6406,-67
1,35,-34,-9580,7151,1219
-34,-81,-6,2762,-2800,83
111,-100,33,1203,533,-583
101,50,-123,-635,-192,154
111,97,57,299,24,268
101,-92,29,211,-146,42
-111,-117,-28,463,263,-38
-95,-69,30,320,13,628
-116,-57,-57,-480,1259,-105
83,62,-84,-55,3140,1320
34,-35,-93,1255,6121,1783
100,11,2,838,5605,3242
16,-27,122,-1637,6640,2351
77,-71,63,-3452,5586,5029
18,99,55,-559,2333,5533
80,-38,55,-1076,1144,5423
85,-84,119,2390,-820,5207
76,40,-105,334,-298,2758
-16,-79,-79,1739,-319,1493
93,-128,80,2832,-1388,1527
49,-72,-69,1145,-1240,1572
-4,-46,-58,-369,-925,1147
-36,114,-22,1094,-709,-383
48,119,35,101,681,-1171
-43,5,53,-1257,-521,-241
-29,-42,-4,-999,145,-294
-45,-76,-53,72,417,-376
-44,-93,-85,1157,105,-389
7,-104,-90,1755,-97,-405
104,-113,-93,1678,251,-123
107,-91,-88,1279,152,460
59,-60,-28,938,-695,569
118,-25,12,604,490,451
63,45,2,-302,803,405
32,19,-19,-172,-84,205
48,9,-49,283,-59,316
102,15,-80,518,457,290
115,4,121,1197,687,32
79,19,116,1010,525,-200
86,9,-110,707,150,-134
50,19,-63,431,-708,-292
86,-8,-57,739,-117,-808
-93,-23,-28,794,103,-592
-42,-34,25,-2950,-5855,-7157
64,-91,91,-184,-9358,-7220
-27,-101,50,-1423,-11072,-5729
41,-107,92,1777,-10837,-2621
100,122,-75,2100,-6190,1311
-51,27,-66,691,1851,948
-4,76,-86,672,296,178
95,-47,-44,-568,-40,420
118,106,-26,258,-6,-120
-26,121,41,-62,-292,237
-112,29,-79,851,-4,-330
-107,-93,-53,-15,38,212
-105,65,-106,643,81,146
-70,-90,120,60,82,304
-51,59,118,491,-248,434
-36,123,81,355,-258,227
17,115,69,441,-46,84
101,-101,68,342,153,215
127,-71,105,151,383,-130
-100,7,-41,-985,1834,881
99,101,-52,32,4715,1549
-78,19,-48,-149,7806,1831
-21,-6,-27,2186,6791,2402
-40,-120,-17,400,7041,5157
-109,46,-94,-3065,4644,7141
32,-57,95,361,1109,8493
73,9,12,2544,-858,5656
121,116,-12,1340,-1137,3794
-42,-4,-79,-1727,-458,3042
-45,106,-111,-649,-106,133
84,-96,-46,1728,-1261,-2110
114,60,-21,1666,-659,-1525
94,-9,-28,121,1167,-286
43,-88,118,1850,40,-661
-106,-16,95,1369,-96,-305
-94,-18,97,466,-87,-472
-66,-56,92,780,4,-299
-68,-47,95,759,-30,-54
-90,-50,82,828,-155,-139
-45,-10,98,205,-94,296
-33,-1,42,54,569,73
-73,-29,14,590,42,143
-67,23,9,146,-62,377
-62,51,4,-276,122,170
-51,22,-26,427,315,-323
-37,-7,-51,1277,220,-660
-24,2,-47,1058,2,-591
6,10,-43,459,40,-389
39,-22,-53,664,93,-140
24,-1,-70,570,47,165
119,99,-41,175,3319,-6419
-59,76,-35,5548,-2500,-8115
-7,-26,-99,-1256,-7529,-5921
-91,65,-82,-2606,-8641,-4763
-48,26,-109,605,-6777,-3915
-69,87,8,1498,-6761,-3049
-123,37,-119,616,-5348,207
-113,-122,-107,-2594,6367,707
2,83,111,2373,-2571,1306
116,101,-106,-131,209,134
-123,-113,125,155,254,158
-59,-100,26,690,-215,2
-104,-66,30,171,-140,81
-86,119,-22,781,90,-118
-48,-49,-28,262,191,96
-42,-72,-44,518,145,44
-23,-85,-53,477,73,-72
48,-68,-75,238,267,-20
68,-39,-68,-220,828,-3
-101,-27,-38,-106,1326,-582
-54,-122,-110,-2482,2452,1134
45,33,52,441,4409,1869
-56,8,-120,1307,6076,2575
-1,-46,-1,1029,5325,3522
-122,-47,-33,509,4833,5281
18,-109,99,-1732,5550,8388
73,-96,66,641,2561,7369
107,117,13,1932,-641,5542
-99,-28,27,400,-1022,3900
-52,37,-128,-1559,-1511,2260
25,-24,-127,556,-974,47
109,29,-25,4029,-1335,-2047
108,58,9,1819,-714,-1839
-85,50,-29,-1988,1126,-177
-113,-72,98,-543,274,-192
-110,-87,49,248,521,-45
-118,-119,36,1761,-146,-741
-82,120,65,2251,-434,-818
-27,-111,116,1668,-237,-387
-2,-99,108,563,395,-38
-6,-77,89,-219,298,459
-59,-75,52,-437,-215,388
-22,-52,45,-567,-213,433
-18,-29,0,-639,462,315
-60,-30,-36,-81,139,87
-59,-4,-41,331,-187,58
-46,6,-51,452,74,-449
18,-47,-67,1248,350,-961
40,-83,-75,1857,400,-874
36,-78,-61,1244,10,-170
-9,-116,121,-2286,-5200,-6439
47,-6,12,-1214,-8042,-6845
58,-72,36,678,-7859,-5738
-107,-21,51,1399,-7050,-2439
-21,11,-117,88,-5942,627
8,-104,50,-1330,6991,493
30,40,49,1649,-2360,980
-34,82,-47,415,478,-465
55,-30,-126,-357,-127,333
61,112,-4,874,-1,-225
-124,-3,37,-459,50,366
-98,123,-37,274,253,-35
-61,-98,-25,411,331,138
-11,-33,-22,181,589,221
-88,127,53,280,797,718
100,-77,35,2991,2125,554
-27,-73,-45,747,5026,2651
95,-30,-11,229,6414,3278
-35,12,-119,1590,6230,4661
-126,71,98,1323,5838,5410
45,25,34,896,2917,4931
107,82,114,2605,1327,4990
-88,-111,96,2949,1934,4349
18,48,-28,-11,160,3649
2,-31,21,-140,-1483,953
-123,57,75,166,-1742,-1525
-100,-24,-115,1005,-1565,-1760
-62,-27,-75,875,-445,-511
-86,-57,-82,890,569,-223
-66,-54,-89,32,129,-134
-37,-77,96,-288,284,-61
-32,-106,80,133,198,-362
-30,104,40,1094,194,-349
-17,117,29,1028,191,24
-9,-85,32,254,9,682
-39,-19,33,-632,-168,724
-48,-18,20,-435,-68,165
-13,-37,-22,156,264,-345
3,-47,-57,487,421,-258
1,-53,-79,844,192,-200
-14,-56,-93,918,16,-152
10,-37,-86,395,37,80
37,-35,-91,370,56,78
43,-33,-97,676,13,117
39,-10,-85,446,-54,152
35,20,-81,129,-53,274
52,33,-88,212,98,0
74,-7,-113,1067,421,-651
88,-47,-121,1882,302,-532
84,-4,-93,1099,102,63
