AccX,AccY,AccZ,GyroX,GyroY,GyroZ
-58,-106,39,-1186,-1444,-6080
-64,-55,63,-1723,-2802,-7313
55,2,120,-2429,-3559,-7345
-92,-114,126,1513,-1339,-6634
89,-124,-52,2745,-208,-4313
-14,-4,-19,1366,-383,-1382
20,119,88,-1593,443,1123
31,107,-62,-838,577,926
66,83,-33,-383,1098,1740
-125,-54,-27,-149,1692,2985
83,123,-63,275,2647,5190
21,16,15,-315,3528,6989
16,99,-96,-335,2782,7571
82,29,-103,-2814,886,8840
-52,-31,49,-4141,-1164,4868
92,7,91,4671,-2812,3152
104,26,-27,2608,-1975,2562
34,117,-94,-608,1136,2635
125,1,114,1514,17,575
10,-119,-106,2501,-833,-1385
37,97,-86,1073,-44,-1646
53,72,-76,-201,428,-916
35,-7,-84,195,-152,-520
63,-30,-84,572,-114,-526
97,-42,-76,144,0,-516
123,-39,-84,-179,6,-423
-123,-43,-105,-48,1,-551
-115,-41,-126,-2,74,-378
-124,-27,117,-17,37,-167
-128,-5,105,-69,-42,55
-123,9,102,-70,-67,259
-122,26,98,-17,-98,339
-117,49,95,-5,-96,304
-112,59,95,-9,-89,241
-114,72,95,-33,-95,163
-117,74,92,24,-17,103
-116,78,88,57,9,94
-113,92,80,-141,-45,92
-107,96,77,-151,0,29
-100,97,73,-195,93,-126
-90,100,70,-132,122,83
-103,110,74,-276,-202,218
-96,115,62,-381,-455,452
-111,124,65,-479,-99,109
-102,112,51,-40,-178,207
-100,119,64,28,-124,47
-93,-124,61,12,-125,149
-76,124,46,198,-120,89
-90,-118,40,-203,-304,135
-112,-106,44,-688,-453,335
70,-98,122,-2473,-534,-5453
-99,-31,-69,-624,-1796,-6668
-10,-78,-9,-1116,-3345,-8824
-99,109,101,-508,-4136,-7790
-21,88,-10,2656,-3682,-5698
-108,-96,-124,1157,-2502,-2941
64,25,-39,-341,477,-220
106,-111,-82,-556,1957,2039
30,95,-78,-1117,2326,3443
52,54,-38,-2742,2439,4412
5,-63,-112,1655,1269,5831
-14,-20,-104,2277,601,5582
119,-92,-64,-1338,223,3950
-44,66,-26,531,-1619,4634
29,-67,103,-67,-763,4325
116,-117,86,535,-1394,5091
-34,-61,-126,-74,-1439,4763
-14,47,-109,-1316,-200,2654
107,-79,95,2308,-763,51
39,-94,-117,1396,45,-779
-67,114,-108,-592,-147,-700
-31,45,122,-955,193,-854
60,-100,38,702,410,-991
34,95,17,910,21,-669
16,-112,42,-778,-49,-222
24,-118,24,-625,-258,-364
29,105,10,220,-157,-400
48,-123,40,-351,-216,221
41,-79,36,-664,-147,203
56,-82,40,-147,-92,170
72,-47,45,-118,-30,12
43,-50,41,-36,-55,-101
45,-47,32,-334,-194,202
61,3,30,-953,-376,424
56,43,47,-1269,-399,245
80,66,56,-1228,-302,134
84,55,48,-570,-157,76
65,63,33,-355,10,55
49,84,10,-427,-110,127
66,115,13,-834,-108,57
71,92,-4,-275,-158,-121
89,96,10,-283,-191,-178
85,89,26,-386,-209,-79
78,97,52,-364,-143,-53
96,96,57,-24,42,-133
109,93,55,103,50,-124
106,90,53,-52,63,-75
106,78,53,-65,49,48
116,68,48,63,122,127
124,79,43,-46,89,269
-123,-21,0,-1886,-398,-6391
-33,-63,94,-779,-645,-6896
88,-35,-124,240,-1993,-7540
101,-71,108,385,-4086,-7770
-6,121,-21,1252,-2963,-4772
-22,-83,-2,51,-270,-1280
55,80,103,-644,1541,688
-38,-76,108,93,1693,2875
69,8,11,-722,2174,4606
-94,49,17,-229,4213,5049
56,32,77,3201,4024,6801
-71,-85,90,-1221,2812,8752
122,-10,48,-3071,959,8219
125,102,83,53,-2604,5498
-2,-105,-79,-865,-1131,6114
55,117,-92,2401,-1189,955
102,12,-55,4748,-109,-1882
25,-73,-43,2282,639,-1884
70,39,-54,-586,312,-1214
124,14,-85,2074,-338,423
116,-77,-28,-202,-53,116
106,-118,-28,-112,-370,-340
121,113,-20,-393,-22,-67
127,101,-46,117,-38,164
127,-101,-60,-99,37,24
120,-101,-78,6,108,45
126,-102,-114,451,215,-71
-121,-87,-119,266,74,22
-123,-68,127,166,74,16
-120,-63,123,226,41,-6
-118,-64,125,334,-41,-3
-112,-53,-127,73,-11,15
-105,-58,127,166,-99,67
-104,-38,127,87,-58,14
-100,-38,127,117,-39,-14
-88,-37,116,88,-55,43
-99,-16,116,-251,-90,234
-101,12,104,-204,-54,92
-107,7,87,167,0,-26
-108,11,82,230,-13,-39
-88,-2,70,424,-68,-34
-85,6,68,196,-187,34
-107,30,72,-175,-235,-15
-56,38,57,11,-258,-174
-64,55,94,-201,-333,-214
-119,51,111,-578,15,13
-94,69,73,-131,267,-8
-58,58,22,596,180,-128
-26,98,31,-264,-126,-3
-104,46,41,31,-112,119
63,-3,54,1891,3154,-3295
93,-99,-104,393,2526,-4381
-54,114,-93,-1692,1005,-5843
73,10,-92,-760,-1676,-8380
100,-14,12,-515,-3441,-8742
57,-26,-62,2012,-3570,-6196
-94,35,16,1958,-3098,-4447
64,37,-37,1226,-420,-1223
115,-64,-63,-518,1502,1065
22,86,67,-851,2459,3400
-60,-107,98,-828,3575,5305
-34,-49,-55,1334,4860,6226
-40,-54,-107,2876,5960,6625
-99,-97,-72,-6564,1492,7071
100,-86,20,-1313,-3015,7412
55,-57,-88,-918,-4199,6601
-57,69,79,-972,-272,5823
-61,-34,-106,3219,-2170,-723
74,-20,-128,6369,-967,-3451
31,-42,-117,3316,1423,-2486
72,-109,-77,-322,1534,-1761
93,26,-93,200,-318,-1022
98,20,-82,215,-300,-590
113,32,-76,-421,-106,-1033
-107,19,-90,-185,-133,-925
-67,-14,-114,698,65,-655
-77,10,-95,196,-323,22
-99,51,-74,-1137,-595,397
-87,26,98,-803,126,103
-91,27,89,-46,30,183
-114,91,89,-540,-62,386
-90,95,64,-242,216,239
-92,90,38,286,136,88
-109,112,40,27,-210,152
-107,125,47,-330,-210,237
-112,119,49,67,-313,228
-85,-127,57,163,-230,128
-85,124,59,128,-159,-72
-93,-128,66,-133,-353,45
-84,-112,94,-558,-475,329
-86,-93,102,-486,-65,289
-120,95,26,1066,666,-826
-82,54,21,2031,435,-1078
-57,88,60,582,100,-245
-72,-69,106,-1770,-325,692
-85,-90,72,-1279,-222,492
-60,-107,11,183,391,97
-32,-101,8,718,110,-68
-58,-64,34,-251,-166,-2
-75,-93,34,-104,-161,-181
69,109,-77,-2204,-1046,-6993
-14,-18,57,-2052,-3020,-6766
-103,-109,-128,-832,-3547,-6912
91,65,-108,2906,-2633,-5698
38,97,25,2220,-2212,-3422
-14,-26,-47,-268,-166,-215
-59,-44,-115,-253,2157,2320
-69,85,122,-267,3101,4256
44,10,-123,-1060,3785,6040
-118,-104,-107,-3326,2104,7518
15,-60,121,-5352,-3938,7375
-112,-98,-71,8257,-2653,5081
68,32,106,2385,-684,4100
14,86,40,3937,-36,4444
-74,110,27,2648,930,4881
118,56,26,244,1010,3479
-38,-113,83,2434,-1645,-1285
41,-40,-55,2085,814,-2281
30,14,-53,1448,327,-1488
4,-99,-58,1347,-10,-188
31,-79,-38,433,172,56
93,-40,-75,300,-319,-168
-119,-13,-36,-440,-253,-662
-119,-100,-47,567,2,-640
122,-71,-54,-11,62,-393
126,-67,-87,-211,-52,-171
-100,-32,-125,-500,-98,108
-118,-20,94,-53,-116,19
104,-4,87,-137,-113,15
100,18,71,-335,-287,163
123,37,59,-372,-321,227
116,57,53,-345,-370,48
117,74,58,-558,-510,146
119,91,68,-658,-416,76
114,93,72,-451,-249,-127
102,86,65,-130,-90,-235
103,76,52,14,73,-199
126,76,28,56,56,-89
127,97,16,-172,-26,-25
-125,97,5,-75,-55,87
-104,116,-3,-36,50,114
-106,114,-6,268,-155,121
120,-127,9,-241,-346,199
-128,-110,22,-550,-386,320
120,-102,23,-148,-202,212
113,-67,31,-443,-255,210
113,-32,26,-691,-128,-59
-126,-47,13,-195,17,-365
-116,-34,8,-328,98,-458
-117,-57,-7,-54,147,-524
87,-60,9,-1601,-793,-6379
-120,102,-98,-2055,-1550,-7215
61,-76,85,-959,-2758,-8414
47,14,-34,1510,-3105,-6256
100,85,-109,1242,-2773,-4444
36,91,-2,1255,-709,-1610
-84,119,-102,37,1023,1025
111,20,86,-348,2687,3395
10,-75,110,-198,3824,5203
-62,26,83,347,4116,6658
-76,53,5,1181,4469,7049
23,110,-54,-918,2007,7895
79,40,18,-420,586,6798
109,121,-120,-972,-340,8639
28,87,-3,-276,-2366,5963
-88,23,-95,481,-734,-1663
36,-65,-46,6545,-477,-1650
27,23,47,928,892,-1049
27,110,-43,-492,-8,-1034
110,-24,-56,860,164,-853
110,-50,-45,328,118,-670
119,-40,-38,-446,189,-902
-113,-46,-64,-473,235,-987
-95,-71,-92,-18,-449,-895
-90,-50,-107,-43,-428,-213
107,-10,124,-348,-927,-147
125,37,113,-929,-643,321
125,63,83,-423,-582,51
-97,70,49,467,-119,-59
-124,93,58,168,-312,-141
72,90,80,-538,-456,32
103,92,64,-612,-264,310
99,93,45,-169,-42,290
112,-124,39,-431,158,252
121,-105,40,-487,-45,281
-125,-102,42,-503,109,215
-121,-90,49,-702,263,25
-115,-83,60,-527,-75,6
-117,-68,53,-498,-218,67
-111,-57,51,-507,-92,82
-113,-67,53,172,-93,-39
-104,-50,46,116,22,-2
-101,-57,45,119,122,-133
-105,-41,47,-165,-56,15
-102,-48,48,-19,-147,3
-96,-34,42,-186,69,-48
-92,-39,48,33,54,-83
-91,-26,48,-121,-97,-11
-91,-28,55,-71,-230,136
-85,-18,60,-227,-120,143
-119,-78,-117,-1465,2543,-5798
-102,-64,-23,-1469,1031,-5686
-49,125,98,-2301,-227,-5985
-29,-124,-61,-1191,-1024,-7368
114,-27,-63,-1689,-2409,-7895
-69,112,38,1009,-2571,-6635
9,-67,67,4767,-2824,-4509
-4,-18,6,194,-1765,-1715
-69,-44,-2,-1771,1035,434
74,-122,99,371,2946,2775
88,69,-96,-57,2657,4632
50,5,125,-1037,4417,5725
-45,-104,-108,514,3778,7152
91,6,67,1762,2262,7611
-46,-27,5,1955,1552,5387
118,50,-25,-1259,315,4786
-82,-112,1,-884,-1316,5325
49,31,51,-2163,-2006,4393
22,-92,-97,523,-2893,616
63,-41,-88,3400,74,-2162
58,-86,126,2681,1662,-2105
-27,118,91,1560,732,-1138
-39,93,89,491,-318,-547
-29,106,96,-1130,-898,-63
5,120,81,-2114,-737,-144
40,77,59,-1220,-393,-460
75,32,61,-58,227,-975
84,56,72,-317,638,-527
105,50,82,-325,138,-312
92,72,75,-216,-324,-181
92,82,67,-265,-269,-176
86,109,64,-516,-277,193
93,118,40,-253,-104,355
101,116,13,522,-78,502
104,-103,25,129,271,616
122,-96,50,-92,661,333
124,-115,54,526,59,147
-119,-85,59,-54,93,201
-94,-92,46,44,174,145
-94,-101,31,301,129,47
108,-103,51,-252,119,-77
-116,-113,70,-535,211,88
-73,123,50,31,232,71
-60,-118,58,149,376,153
-41,-126,65,257,767,-99
-29,110,94,455,532,-196
-35,103,109,243,450,-364
18,107,106,-13,553,125
-13,113,-121,-144,112,385
-36,114,124,225,269,365
119,65,43,2836,-721,-7743
-27,91,98,1362,-3000,-10020
-111,-25,-71,-3463,-5022,-7647
98,-37,-78,274,-3665,-6941
-51,-113,-54,3475,-3380,-4827
43,93,-70,3004,-3014,-2737
29,-111,17,901,-654,-712
120,-29,-93,-74,1549,544
-9,-78,-21,223,2313,1615
-61,-122,86,-327,3273,3471
-58,-50,-9,-2130,4974,5376
121,7,19,-1142,4353,8029
118,-22,-63,5718,3712,8870
109,-72,64,-6873,2744,6999
-73,-4,-110,-260,-2126,6364
64,-93,-109,12,-2535,5868
120,75,127,370,566,1822
-48,114,-116,4594,-424,-2126
-51,16,-24,2101,131,-1890
19,109,23,-138,142,-1463
61,-59,-9,485,-177,-488
76,-77,-20,119,-87,47
81,-2,-60,-717,-391,-546
97,-84,-87,125,-145,-473
103,-71,-103,101,2,-97
104,27,-113,-922,-350,-337
108,43,124,-1048,-340,-439
85,79,91,-1192,-463,-415
39,-114,72,-2422,-2013,64
108,67,98,-771,600,323
49,38,-105,493,-286,221
72,-86,122,-578,-417,217
120,-64,78,-16,803,-474
108,-100,35,1468,699,-705
93,124,34,2135,134,-463
87,-78,39,-353,-641,139
60,-52,18,-2191,-1139,631
77,-84,16,-541,-562,63
-78,-101,-88,391,461,-142
127,-7,-114,-1715,-281,532
86,-38,69,-955,-471,401
95,7,65,-1325,-313,494
88,10,23,-878,-208,532
97,12,2,-430,-132,357
109,-1,1,280,-162,30
119,-64,-4,2078,183,-607
104,-66,-14,1874,-158,-631
126,-25,22,-634,-133,75
116,-52,13,-764,-358,231
-107,-88,48,1505,540,-710
-92,-48,-23,-2023,2261,-4913
125,-46,-126,949,1003,-5503
112,-18,40,618,-64,-7002
96,63,87,381,-1907,-8068
-5,121,90,2516,-1971,-6157
97,-44,-107,843,-1501,-3246
24,-93,-86,-373,-658,-1339
-95,-111,32,-328,396,914
7,-39,11,-511,1228,2947
124,-27,83,-21,2243,4529
52,91,-28,-1315,3138,5427
3,65,38,-1571,2392,7414
-67,35,19,1917,1303,6044
-4,39,49,-1980,-461,6767
-100,4,16,782,-2250,7770
82,-23,-58,-3448,-1234,7130
-21,-80,86,3926,-1282,2635
-105,-57,-40,3591,-422,-1711
78,-44,3,1827,292,-695
-20,47,-46,830,-504,-167
56,-1,-18,1129,-4,113
-114,-37,35,918,80,-37
124,-69,49,1171,164,-352
101,122,56,1505,356,-503
107,93,57,592,157,-11
112,107,51,-332,-146,73
-118,99,21,-132,358,245
-113,-101,-45,-40,-70,162
-103,-59,-50,-423,28,75
127,-62,-65,159,-3,2
74,-95,-75,715,-35,146
62,-95,-69,-321,-372,819
77,18,-90,-1675,-684,766
121,13,-119,-817,-490,421
-76,34,-125,-132,-447,106
31,18,127,598,-150,-271
84,26,-126,110,49,-457
-83,-27,111,388,-208,-329
-123,2,126,-226,-291,-493
127,60,-126,-815,-233,-900
-87,74,73,-414,85,-1419
-99,94,53,-327,158,-1563
-87,83,33,30,163,-1291
-95,76,31,76,-82,-490
-107,92,45,-93,-369,268
-107,-119,60,-318,-166,515
-83,-127,40,459,189,320
-67,119,34,1072,278,-301
-38,-113,47,928,484,-78
-61,120,50,669,125,134
-43,7,89,-2108,-1648,-7644
-17,88,85,2683,-2442,-8300
-78,114,-75,1506,-5159,-7896
-100,50,-34,1499,-3274,-6085
41,9,120,2049,-2991,-3569
-24,-108,-26,-1587,-199,-429
-57,127,110,1211,2839,1819
39,63,-19,-9,3650,3987
28,-54,-47,-60,3901,5196
25,-10,-74,1775,5750,5256
-17,114,-16,-918,4798,7431
106,33,-107,170,2078,7044
126,20,18,467,1636,5181
112,-30,27,-2577,-1052,6109
-84,100,104,-1962,-1573,5198
-113,-81,-87,-1669,-1290,3768
-116,73,-31,2869,-1524,-336
38,-49,16,4220,27,-1837
14,-82,48,1143,819,-1418
41,94,47,-1018,92,-600
31,28,18,-1356,1,-53
31,8,-75,-1278,383,155
56,13,-126,-388,582,-56
80,15,70,277,652,-373
56,33,54,175,-32,-480
69,22,63,65,160,-386
92,3,49,595,-19,-271
99,18,69,488,-303,-235
110,28,82,289,-208,-290
97,8,89,692,-454,-187
111,32,114,390,-231,58
109,49,109,433,-241,100
101,57,106,635,-116,30
119,59,105,746,-188,120
125,69,117,763,150,-48
36,67,94,957,627,-88
-67,47,84,1448,-26,-949
102,-8,-123,1044,39,-1208
-58,8,-110,-782,316,-312
-77,-27,105,-351,169,78
-81,-10,113,214,22,484
-62,50,117,-213,165,527
-35,80,104,-219,153,290
-26,80,94,216,203,-50
-60,83,109,241,-9,-145
-70,94,114,-417,-44,23
-70,95,100,-439,4,97
-71,100,77,-198,-18,109
-62,117,66,-223,31,-4
-57,112,52,58,29,-86
20,-53,91,-318,-3000,-7770
-72,66,-24,-1430,-5042,-7633
-3,100,13,1346,-3730,-5702
107,13,-87,976,-3031,-3539
-16,88,-45,26,-470,-412
57,-111,-103,-2172,1509,1800
40,-78,-73,-1071,1172,1709
73,-91,45,-234,1932,2196
115,58,-1,712,3569,2935
90,87,77,1335,3805,5074
-34,-40,-41,1432,4617,5925
-92,60,90,-756,4849,5483
116,8,27,69,3438,3269
-7,-52,-32,1404,1726,3592
-52,-36,100,-1252,937,2934
-113,-26,-91,-146,-226,2944
-80,-23,-18,-467,-280,1885
-39,121,-7,-492,527,2222
-59,26,-52,1911,128,1513
-85,52,13,1449,125,450
-119,46,43,564,88,-395
-103,-13,53,312,-174,-486
-121,-61,41,311,211,-462
-119,-100,7,655,-133,-102
-122,-42,4,-693,-292,398
-114,-25,-49,-612,-102,139
-69,-34,-89,-111,-496,-52
-77,39,-60,-1265,-625,-21
-126,18,-85,-906,-522,-184
-88,4,119,-336,-317,-64
-90,71,-119,-1149,-710,340
115,-122,-125,-1871,-852,-370
59,-115,94,-849,-1374,-2017
-85,-53,39,-725,-119,-813
-102,-64,16,-64,-720,-685
96,-54,14,-392,-1337,-705
72,-52,-3,-1084,-939,-355
34,-65,-12,-702,-956,-37
62,-79,-59,-237,-623,157
26,-18,-5,-992,-843,898
1,20,10,-888,-625,637
42,-16,-33,623,-89,200
41,33,-5,-65,-114,547
-18,43,18,-675,-417,452
11,28,-23,58,157,341
88,57,-1,-230,223,663
55,77,40,-642,271,437
72,46,26,125,713,148
124,19,-7,689,246,-247
-111,50,21,-630,225,56
94,21,-81,-2277,2021,-3854
-82,-108,-111,-2764,1360,-5083
90,-32,-41,-723,1308,-6676
75,113,69,-1134,-2095,-7722
-99,-42,19,-379,-3565,-7080
-121,-122,125,2202,-3615,-5586
92,-111,79,2114,-2153,-3534
1,95,2,55,-138,-1268
114,113,-120,-118,2329,722
85,-91,31,-324,2556,2869
-1,20,-69,-1495,3240,5441
124,-102,-11,-2090,3715,6833
19,101,22,1038,3659,7689
101,-2,29,1173,1678,4650
42,1,-58,-1079,-491,4238
95,-98,41,209,217,4407
42,75,95,1666,-720,2969
11,107,-68,-463,-162,2887
-95,43,-103,675,-192,1190
114,28,-68,869,152,-509
108,-83,-62,1143,273,-1114
-110,17,-50,1633,370,-972
127,-1,-36,823,433,-688
-101,-41,-66,617,558,-671
-50,-96,-110,919,318,-410
-39,-62,-78,419,157,-346
-31,-93,-78,706,69,-210
-39,-80,-51,268,-54,263
-49,-64,-64,182,-88,577
-69,-1,-56,-300,-236,679
-91,-2,-98,205,-180,379
-91,25,-104,-184,-359,284
-99,40,-117,-402,-235,133
-23,-26,79,931,-378,327
-55,113,-77,-1421,-477,791
-113,116,-114,-1332,-186,218
-113,85,117,-265,-41,-118
-53,122,88,-558,445,-479
-7,97,53,14,266,-602
-62,90,37,-53,151,-765
-103,82,24,-538,-317,-382
121,107,29,-1256,-662,10
-55,-109,62,-1266,-347,318
-25,-54,98,-1042,-437,28
-64,-36,119,-650,186,-597
-42,-75,97,170,319,-683
-63,-66,87,-177,-284,-128
-123,-17,116,-1198,-436,134
121,3,126,-1214,-697,250
119,28,-124,-987,-415,154
-30,83,-63,-2700,1545,-4548
21,-44,1,-914,924,-6266
-13,58,17,-1550,-837,-7469
41,58,22,-3342,-2152,-7776
-39,40,54,-790,-3071,-8387
18,3,-7,2772,-1490,-4408
99,11,55,1165,-2011,-1585
-66,-94,125,-1741,601,1129
-44,27,-2,-1174,1197,1315
-3,49,-34,912,916,1755
-45,-61,-77,587,1610,1802
-9,12,-26,892,2735,3901
51,-21,-87,1071,3576,6121
-4,-13,-1,1588,5207,7290
-47,-111,-4,1930,3036,7326
-95,-123,-49,-5689,940,7384
21,-125,-61,722,-2184,7725
-34,69,-64,-112,76,3042
81,0,-18,3370,-68,-3637
32,-17,49,3697,225,-1767
9,-68,72,233,103,-207
93,-58,-11,-980,-608,65
-101,-30,-48,-602,-557,-1115
-91,-68,-29,259,-411,-1567
-126,114,-23,619,-175,-1193
-112,-96,-25,-614,-281,-379
-112,-67,-76,-1001,-359,391
-88,-32,-107,-318,-283,403
-78,35,-123,-1153,-335,504
-111,8,103,-726,-165,200
95,-9,66,111,-458,201
94,42,66,29,-291,77
118,48,71,174,-242,57
-116,79,81,-338,-148,62
-104,76,120,-562,-77,59
-110,71,77,-647,-148,175
123,54,38,-178,-107,67
115,45,39,364,-194,170
124,103,53,-35,-152,217
125,124,56,48,-39,69
-108,-116,36,-118,0,-171
-114,120,40,-264,93,-75
122,86,33,194,-149,25
-114,-121,31,-70,-14,37
-105,-103,42,-144,70,-11
-99,-106,38,-964,0,329
-98,120,15,-256,-104,245
-97,-126,12,226,-111,128
-97,-109,15,-20,117,-96
-90,126,17,368,282,-115
14,26,3,-3787,2388,-4310
104,-9,-42,-3061,2384,-5914
-19,82,-82,-227,1018,-7777
-21,118,99,-1993,-1407,-7867
104,-74,68,-2125,-2131,-6622
32,105,112,1557,-482,-5514
109,58,-27,778,-1233,-2077
75,55,-101,585,189,343
25,82,-121,-365,1248,2582
72,66,39,-1386,1719,3335
-84,44,34,254,2277,4612
116,-56,3,1729,3575,5504
-37,44,71,2640,3883,7028
122,106,-84,3387,2489,6769
79,74,-107,-4248,247,6771
87,-61,46,-1707,-2566,7092
12,107,-90,2185,-1707,5252
116,78,-38,4995,-217,4462
121,31,38,2972,-1011,2409
34,66,111,-316,-269,-875
21,72,34,1407,584,-1167
-20,-28,0,1297,184,-1044
4,-2,9,148,-74,-187
40,-30,0,96,-166,-919
100,-69,-32,921,-180,-1458
-77,-45,30,-433,-394,-1378
-57,-70,21,-1157,-300,-1732
-73,-113,-11,-672,-287,-1722
-81,108,-70,-90,234,-1091
117,-124,-97,-37,-597,-216
113,-66,-126,-599,-424,537
-80,-21,115,-522,-239,836
-66,-6,93,300,6,526
-70,6,92,686,-222,127
-70,30,107,337,-301,236
-94,53,100,-342,-463,486
92,99,81,-1178,-750,542
127,18,-113,2700,736,-814
111,-80,25,-411,-320,209
95,-60,98,-2590,-1061,186
105,38,87,-4761,-1456,234
115,39,76,-3461,-913,136
50,72,62,-2476,-807,370
9,-121,44,-2076,-519,490
33,119,99,-311,261,212
74,-40,-2,3940,1394,-1323
95,1,38,2808,746,-966
-93,24,69,126,938,-161
-81,-51,14,494,509,-57
-92,-81,16,883,-382,-33
81,106,-125,-4446,-2525,2037
79,91,107,-389,2604,-1852
-84,-87,-114,1170,2508,-5647
45,0,-2,-1002,400,-6721
51,108,19,397,-416,-9039
-35,-30,-119,2626,-3852,-8794
-94,14,12,-2639,-4541,-6357
-119,-110,98,-239,-2790,-5028
30,-121,-65,2966,-1932,-3363
-18,89,-37,-1935,-468,-799
97,119,115,-287,1769,1410
113,-14,-111,61,1224,1802
-74,70,-69,-609,1072,3563
-71,-47,-5,245,2450,4569
-35,-84,65,1174,4468,5877
-78,-88,-118,2367,5730,6671
-14,-37,-91,-337,5576,8584
-70,109,110,-7494,-3699,7029
-115,86,27,1702,-4646,5152
53,58,56,-967,-1186,3246
127,103,-1,2859,375,279
29,34,-28,3977,492,-1010
9,1,-2,392,655,-1372
49,59,-50,599,280,-897
38,-75,-82,1392,246,-218
40,22,-82,65,-27,-270
72,16,-112,-384,-418,-389
94,-37,112,-258,-560,-200
83,-34,104,-177,-572,-54
73,-16,90,-255,-552,81
58,-2,85,-708,-346,113
69,28,77,-692,-97,200
114,57,-78,892,374,-335
84,96,-115,-533,-666,52
93,114,66,-1411,-445,124
104,95,57,-1080,-331,268
61,94,77,-220,-140,66
70,94,27,369,-343,259
82,-104,13,83,-121,189
60,-101,8,20,-12,26
86,-125,45,-78,220,-71
117,109,61,419,33,-5
118,-125,43,240,-117,-61
102,-116,23,163,-66,-37
92,-102,11,-122,47,12
106,-111,19,-100,156,30
122,-124,18,192,99,-85
-121,-123,21,230,33,-87
-117,-102,31,-40,-10,-12
-127,-105,21,21,-20,3
-102,-29,7,1798,1999,-5636
-51,-42,118,-1468,909,-6254
-80,11,-103,-4746,900,-8821
1,90,-71,-1057,-910,-8170
-57,-57,-6,181,-2501,-6969
-31,-34,-81,2462,-2168,-4934
-49,98,22,1618,-1193,-2127
-105,84,-100,-905,299,547
3,-78,84,-793,1173,2230
-31,61,115,-163,2257,3198
-31,45,-36,395,3494,4992
-51,56,8,2128,3695,6413
-115,86,90,762,3691,7292
-112,4,-49,1187,2511,5815
20,-58,109,-3443,-2025,5899
-23,-42,-78,697,-455,3339
-73,10,98,-777,-3062,3833
62,110,50,-1807,-2258,2041
-17,-66,67,6346,4137,-4764
73,112,-38,428,-1451,926
-15,54,76,-2541,-926,368
-22,-49,11,237,-698,366
9,8,-10,30,-159,140
52,49,72,54,14,31
82,71,94,-317,-20,47
55,33,53,-304,-612,9
14,31,50,92,-855,-84
-25,53,45,100,-1409,-199
-30,79,14,-176,-1310,87
-41,122,-26,-966,-1039,555
-73,73,-72,-208,-1104,265
-78,102,-56,-802,-461,627
114,69,-73,-470,-675,634
126,72,-97,259,-440,31
124,123,-95,110,-278,-62
122,125,-82,156,-89,-140
121,121,-96,14,-12,-47
125,125,-96,158,-82,-133
-126,-123,-94,-65,-187,-35
125,117,-102,84,-55,-151
-119,110,-95,237,44,-205
-87,-125,-103,169,94,-326
-108,112,-113,-12,164,-87
124,88,123,184,-11,-133
-107,125,118,15,4,-15
-82,-128,-118,-254,249,238
-64,114,125,223,201,-50
-51,122,-107,-114,305,381
-79,90,109,143,121,-64
-58,102,88,435,6,-216
-11,88,40,-1684,2583,-5077
69,-117,-41,-1397,1533,-6932
62,-85,-90,-1254,-336,-7147
-104,106,-128,-1282,-2854,-6480
-39,-36,-94,-953,-3696,-6222
4,112,-123,3541,-3474,-4817
-60,29,115,679,-2760,-1681
-106,-45,-73,-628,-28,-153
-5,33,118,-1304,2374,1983
-15,1,126,721,2918,3292
-8,100,-115,606,4489,4157
-27,-1,-88,948,4367,5219
91,-5,114,-111,2962,6428
81,-76,16,1852,2993,5619
-18,12,53,3518,3115,5068
65,-1,-80,-1539,3119,6492
30,-26,57,-1855,-779,7677
-40,-83,50,-2613,-1463,4379
80,0,-117,2170,-1780,-1948
66,-24,-41,5324,322,-2515
96,29,-12,92,1517,-1924
44,57,-42,1200,-428,833
59,-116,-17,-299,-1051,-423
-124,84,18,-344,-743,-471
124,55,31,-305,-582,-441
119,69,12,-507,-442,-603
99,94,-19,-1192,-443,-265
-49,-60,-105,-1958,-195,-88
112,-50,73,-1022,-101,-628
-122,-57,28,-104,-154,-672
-70,-25,15,-387,-68,-297
-108,-43,-1,109,-378,-142
113,-63,30,116,-439,450
106,17,59,-837,-436,1066
102,86,51,-762,-390,580
112,115,41,-717,-194,66
121,-108,26,-850,-148,-163
113,-119,5,-695,-174,-49
76,-101,4,-988,-219,283
67,-45,-7,-1213,44,333
99,-21,-26,-919,81,212
115,13,-35,-891,125,32
127,-11,-38,-590,235,-51
-118,-39,-41,-96,149,41
-33,105,-26,1440,443,327
-111,9,17,-1919,-435,805
87,40,69,-2346,-502,404
-64,-54,54,-63,55,44
-78,25,63,-457,35,92
100,66,42,-1074,-197,-70
83,19,71,-1155,-2126,-6038
80,100,24,110,-3240,-6567
-88,63,-75,311,-3905,-5833
-25,70,35,528,-2131,-5586
61,-117,-84,2428,-1730,-2342
-43,-50,-104,-1274,419,887
-66,-6,-31,-2234,1222,1565
-97,67,-83,1081,1076,1652
32,93,124,385,1870,1391
74,-45,-89,-34,2809,2863
3,5,72,-309,3790,5320
106,-85,49,1165,4448,6285
-98,102,119,-487,4614,7097
111,68,20,-5231,1948,4841
101,-85,51,63,-2058,3146
116,28,-23,-2988,-1533,3813
50,106,-124,2526,-700,3549
67,-117,-95,4742,-462,4392
-76,97,101,2552,1273,2920
-29,40,83,2482,-991,-850
-46,-119,-36,369,-505,-1622
22,-19,-90,-83,1140,544
-37,12,-93,941,-973,379
10,60,-65,80,-173,-534
20,-29,-76,407,-178,-486
-6,-14,-65,225,-726,276
4,14,-73,-133,-394,9
30,11,-91,-133,17,-100
31,27,-95,-337,-247,-102
71,42,-121,-658,-77,-114
-77,78,82,-810,-45,-367
63,28,69,-6,-561,-295
-35,58,78,-638,-291,-266
3,55,69,-619,-353,-44
60,63,26,-128,-23,-137
84,95,9,-331,13,-100
102,-125,-12,-428,-222,-101
36,-80,6,-314,-350,-353
12,-65,14,-460,-159,-660
27,-97,17,-103,-164,-515
44,-107,11,560,-86,-470
37,-84,20,337,-227,-348
50,-12,41,-855,7,-307
40,-8,33,-111,135,-435
39,-16,21,1004,108,-738
39,-17,24,766,26,-568
78,-34,26,-78,-19,-43
-99,-64,0,-133,290,256
91,-76,18,-16,-200,90
37,-105,34,46,135,-199
-31,-99,0,-3384,-3150,-8230
-93,-58,-41,-1754,-3151,-10091
3,-93,-40,2551,-3468,-7118
-99,-105,47,4360,-2781,-3525
77,-93,58,-2690,-2183,586
102,58,104,-1184,2615,1726
-104,46,99,723,3279,3423
105,-70,124,439,3667,4861
22,-34,-70,-25,4522,4845
-98,111,35,580,4221,6247
17,-20,-35,2557,3188,6192
7,80,104,-763,1910,5428
-33,-11,48,-2552,862,6261
66,88,-25,-60,-322,7069
5,3,96,929,-1649,5028
-78,-70,-74,3081,-1990,-1830
122,43,98,3762,-663,-1748
28,55,-109,454,1253,-858
-89,-124,53,1171,80,-245
-31,-124,31,238,75,-168
41,-110,-3,-457,-436,-648
93,46,36,-426,-740,-278
96,86,25,-1393,-550,-158
-72,89,-10,-795,-295,-217
18,-99,-57,-668,49,-685
13,-46,-113,-813,276,-1039
-107,-40,103,-505,-221,-927
-65,-52,120,27,71,-749
-86,-31,-128,128,132,-902
-123,-13,-125,-304,279,-824
-117,9,112,-645,-194,81
-121,115,-118,-1631,-743,153
-93,-114,91,-1986,-65,198
-109,84,67,-403,-209,-215
-112,119,83,-303,505,-536
-114,109,42,63,133,-148
-82,112,43,142,-88,121
-85,125,53,-63,63,246
-118,94,25,865,-167,383
-121,102,26,863,-165,603
-94,127,34,444,-150,738
-80,96,24,1010,-265,287
-74,69,49,1018,-229,336
-98,65,65,582,-254,679
-100,73,63,282,-109,851
-84,72,32,531,-271,934
-104,111,58,57,-354,874
-123,-108,78,-459,-145,426
-122,-116,59,-263,149,-335
-109,112,33,21,342,-680
72,-89,22,-765,-1290,-7363
85,61,96,-1686,-3128,-7959
-71,105,49,178,-3718,-7239
-87,-18,56,1472,-3377,-5168
70,18,-60,1256,-2668,-2859
-3,-28,-69,-681,175,-184
-56,104,94,-792,2701,2117
-125,-58,104,492,2729,3419
78,118,90,-81,3626,5037
-72,-115,-108,1014,4292,5883
16,-125,-40,4699,3681,6801
36,-100,-42,-3318,3111,6750
-34,-29,37,822,134,5268
-124,-60,59,-3471,307,5909
-35,91,39,-147,-1406,4525
67,-58,92,591,-649,1217
39,91,17,1722,-325,-2184
56,-50,8,1739,1007,-1677
44,-61,-29,-205,362,-1490
-100,107,-114,-487,188,-1978
3,19,-114,323,13,-2419
17,-45,-87,201,285,-2119
-17,-73,-121,157,189,-1308
-68,-86,-113,-167,-216,66
-104,-35,-106,-767,-109,1123
-119,-33,103,358,61,1199
-105,-54,51,2107,83,1459
-81,-102,93,200,-610,1866
-102,29,-104,-2456,-629,1777
-81,-79,118,-302,-474,390
-85,102,122,1361,317,-842
-89,75,119,945,309,-896
-91,70,121,-255,-16,-408
-108,53,104,-564,54,-156
-103,32,62,-95,122,-37
-85,50,41,-30,-135,200
-69,83,57,-219,-220,463
-104,89,41,529,-10,-32
103,61,21,1176,-238,-292
-108,122,51,-340,-354,523
-61,-97,33,-929,-412,701
-60,-105,20,-53,-252,24
-73,102,32,799,48,-600
-81,98,54,153,-23,-235
-90,90,57,-285,23,118
-86,62,47,196,161,359
-57,83,41,331,485,437
-64,105,27,308,162,301
-62,115,30,-56,250,147
-50,102,30,45,229,132
16,-58,-51,-990,-969,-6532
-24,-117,-7,1626,-2921,-7363
59,-73,-17,529,-6379,-7057
-12,-93,-125,-1858,-5411,-4945
121,-48,-70,1908,-2438,-2734
-52,-67,-4,-164,-3,217
6,-34,-83,-988,918,1267
80,109,-12,-801,1321,2300
-14,125,123,-534,2310,2659
-27,-12,-72,2105,3651,3982
124,-56,-49,6352,4893,4889
0,-47,-99,3447,6290,2778
117,2,105,-1407,2821,4382
75,-44,40,2263,2384,4381
-37,21,-80,-1463,3733,3846
77,-56,21,-4384,1956,5436
-98,-54,-85,-2282,-1331,6486
17,30,12,1458,-2209,2141
72,-30,-61,4203,-153,-2490
36,106,6,3145,484,-2085
46,51,34,280,438,-1082
94,-41,-24,-417,218,-525
115,-116,-61,334,45,-431
121,105,-48,613,139,-441
-118,115,-27,236,56,19
-104,114,-20,8,249,260
-110,114,-34,108,282,316
-112,116,-52,402,380,398
107,107,-68,737,404,422
97,-119,-70,475,318,551
106,-98,-53,336,170,401
123,-109,-42,715,142,240
-120,-99,-12,796,443,-84
109,57,-68,2268,562,-526
121,98,-17,1293,138,48
-117,120,-14,420,-143,322
-107,127,7,231,-357,356
-96,121,9,541,-213,153
-90,-128,17,660,-189,20
-84,-118,4,410,-89,-232
-68,114,-24,530,-252,-184
-81,-125,-9,-179,-264,81
-111,120,-41,25,-163,127
-106,-111,-79,-42,-66,175
-102,-92,-100,-182,-95,267
-120,-75,120,5,-4,28
-118,-78,104,221,4,-107
121,-87,66,331,-168,-232
121,-92,68,-435,-651,608
-29,42,105,-2324,-443,1298
26,-88,-4,-1253,-230,-6567
94,121,39,-1872,-3781,-6146
-72,-55,-35,-1300,-3751,-6784
101,18,29,-398,-4874,-6576
-63,37,-13,2552,-5348,-5219
-102,103,-70,1994,-2394,-2105
11,-32,-23,-417,53,502
-74,42,72,-1867,833,1158
34,-67,63,1077,1122,1616
12,-56,16,76,2502,2086
12,107,-45,293,4264,3569
-67,-96,76,1204,4385,6009
79,-15,115,1041,4906,7441
51,77,11,-2209,2623,5672
67,86,20,-764,623,6059
37,104,55,-2563,-911,4606
-122,42,81,-2118,-411,5565
61,48,53,1644,-943,3670
101,62,105,3658,-1066,-446
19,-22,-107,3398,-315,-2089
96,-120,-46,1335,792,-1673
30,79,-54,-124,603,-862
-72,-68,-94,1150,-3,-1018
-12,-105,-71,972,-201,-664
122,-34,-48,-1124,-536,-302
-90,-15,-53,-1746,-541,-406
123,-47,-108,-873,-227,-647
120,-48,123,-321,-272,-492
-116,-12,106,-362,-137,-460
-119,-20,96,-140,-380,-424
110,-16,96,-310,-424,-78
115,32,89,-777,-405,353
74,75,74,-768,-419,517
18,110,48,-283,-264,389
60,-120,50,-96,-258,606
74,-75,40,-296,-171,510
70,-54,35,-280,-389,337
115,-17,50,-747,17,67
-120,-39,23,147,223,-456
106,-72,0,803,-59,-920
95,-53,27,-482,-131,-683
111,-69,16,-870,-65,-301
116,-79,17,-158,-9,-167
121,-79,7,538,240,-392
-120,-80,17,506,-170,-145
-126,-56,37,-441,56,141
117,-78,28,-16,46,321
95,-66,16,186,107,377
112,-58,7,305,75,428
-118,-58,-13,499,0,369
10,-93,-85,-1565,-1187,-7260
-114,-90,-92,101,-3311,-8891
-39,98,59,841,-5384,-8211
24,16,27,1951,-4531,-5021
-67,110,8,950,-2342,-2427
110,113,41,-285,233,532
-59,108,-77,-1013,3154,1896
-127,95,92,156,4398,3206
3,-22,-88,-848,3704,5579
-111,74,112,291,5368,6606
9,-121,-80,3514,3112,6941
58,-128,123,-4408,3835,6020
126,34,-57,3379,-1661,3836
15,-60,-47,-187,853,4001
-54,85,66,-1388,101,3293
-63,-6,73,-74,-550,3339
-106,39,119,401,-528,2002
57,10,-122,1394,2,-737
31,-99,-107,2344,38,-1934
69,85,-67,1090,269,-1877
116,-16,-88,940,452,-1763
116,112,-115,1768,125,-1371
-128,-116,-72,179,-207,-2
-117,-70,-111,-997,84,326
-103,-82,88,23,-194,169
-110,-48,93,58,-209,253
121,0,103,-277,-181,418
121,-4,91,250,-30,339
124,7,84,597,94,213
-120,35,81,364,-164,178
-119,54,78,-192,-321,79
120,60,111,-526,-518,-33
96,37,94,-325,9,-416
109,6,66,-33,-96,-330
-121,20,54,-496,-139,149
-99,49,51,-818,-91,395
-101,54,28,-181,96,76
-104,33,16,637,93,-59
-109,57,28,172,302,-37
-99,30,3,497,296,50
-88,7,-15,869,204,308
-93,30,2,393,-132,657
-128,66,17,-309,-272,660
-102,92,46,-779,-390,687
-108,107,39,-476,62,160
-107,73,18,525,42,-53
-111,117,25,-259,-6,-23
-120,-114,11,-968,-238,-47
-125,-106,12,-1101,-173,-140
-123,-96,2,-869,6,-328
36,90,66,-1112,-1564,-6489
12,12,-114,219,-3817,-7839
-33,-120,57,-22,-3848,-7440
-76,-39,-85,5411,-3494,-5759
118,83,32,-93,-2183,-480
-87,7,8,-2803,591,1121
85,-56,-79,1761,1801,515
-78,48,-71,26,617,1595
-66,-5,3,-672,2272,2018
-25,117,-26,1181,3824,3766
112,-12,-128,-557,4751,6241
11,64,84,341,4673,6793
-68,75,-116,464,2786,7336
-108,-90,52,-2558,794,5673
-34,11,124,1637,576,5693
95,1,-21,3993,-439,6000
82,-17,83,276,-273,1881
0,114,-125,1266,-464,-1099
19,-62,-121,1321,165,-1326
-66,63,-122,1018,-476,-850
-21,-114,-77,1765,-82,-449
58,-115,-70,1516,-78,-955
103,99,-10,1058,-561,-1092
-87,22,46,560,-110,-468
-121,24,32,439,149,-87
-122,18,11,847,427,-227
125,-9,-9,1254,353,163
103,36,-7,367,457,777
69,81,-60,321,134,853
83,108,-59,80,57,953
95,-106,-84,73,109,800
29,-110,-112,794,14,129
73,-118,-88,702,-58,-57
55,112,-79,572,-262,16
52,-120,-55,-60,-211,-57
72,106,-75,518,-211,-440
81,60,-55,643,-420,-481
87,112,-29,-871,-231,-76
111,-113,-95,-575,-59,-479
115,65,-125,1227,-80,-814
123,104,-98,365,163,-456
-104,108,-127,391,99,-322
-114,90,112,955,149,-420
-124,91,120,698,163,-39
-124,-117,109,249,36,181
-102,-81,106,6,56,103
-110,-104,92,654,-18,-61
-75,-73,118,147,109,288
-94,-60,108,295,257,325
-111,-62,85,873,443,99
88,-104,-67,-2032,-2314,-6382
-71,-21,3,506,-4927,-9384
42,-21,66,3501,-8980,-5776
32,-51,-67,2333,-4345,-3646
62,-43,-111,-874,-1910,-1060
54,9,119,-1139,1549,292
-81,59,-101,796,717,872
-108,-2,36,-183,-448,500
-86,-13,-8,-95,491,884
67,76,-93,-79,2457,3197
-16,37,-29,351,3853,4826
-55,-41,91,1203,6275,5953
-2,-116,17,2036,4100,7412
20,26,19,759,4411,7603
-103,-31,-88,-998,533,8348
-105,29,-15,-2150,417,6973
-12,-82,25,-257,-2624,624
-82,-105,48,5691,-354,-3942
2,86,-107,2926,1111,-189
-128,26,59,-1964,-851,1685
-7,-100,-4,1297,-395,-879
51,122,51,837,-442,-660
16,93,105,152,-266,109
49,125,73,-168,-273,-296
44,81,27,383,-3,-462
38,87,4,384,52,-443
79,79,-24,412,85,-406
96,63,-48,443,122,-311
83,69,-42,-148,-59,-38
92,122,-67,-940,-87,301
55,-100,-103,-902,-138,130
53,-86,-127,-448,112,94
63,-69,103,-36,105,-19
64,-62,81,287,224,-125
45,-37,67,-26,-149,-203
57,-54,85,479,-119,-267
102,7,-114,-806,-194,133
100,-5,93,-507,-144,214
92,20,79,-368,-180,114
75,29,74,-383,-232,71
71,28,63,-245,-76,-27
74,13,60,59,-37,-35
53,29,70,-42,46,-102
93,26,56,-14,161,-43
-38,45,2,95,372,-16
-15,49,-36,616,-473,-9
6,50,98,-254,-404,75
70,44,86,-421,155,129
-89,46,16,94,27,118
120,72,7,-107,-200,39
-17,-119,-31,-1176,-590,-6434
-84,56,124,-674,-2426,-6758
25,-77,-116,-1744,-3469,-6306
117,111,-14,1873,-4797,-6813
16,103,74,3936,-4602,-4736
37,-110,2,496,-2510,-1169
-16,-122,37,-2947,1213,549
-64,-108,-128,-81,2059,1002
-15,-71,69,486,1899,1919
-6,-43,20,-719,2315,2795
-9,-79,125,64,4293,4037
-88,-75,-39,2309,5320,6073
37,-97,-1,3118,5085,6129
104,-23,95,-1039,3968,7239
-77,-59,64,-1621,-53,4510
47,99,-42,-959,-1288,5431
118,-116,-75,-3470,-1491,5059
31,-58,105,-1321,-1107,3442
19,48,-79,3926,-1278,-1915
-5,-51,-59,3918,369,-3198
21,-102,-49,860,919,-2205
12,-70,-88,423,238,-729
24,-40,-89,-386,-21,701
75,14,104,-878,225,-173
89,-5,76,-59,-96,-771
86,-10,70,-56,-110,-951
76,-19,72,-272,-141,-473
71,13,62,-674,-257,-100
66,57,70,-794,-354,158
84,80,70,-479,-48,32
101,72,48,418,25,-214
111,77,48,484,19,-255
108,91,57,-108,-198,-78
113,80,63,-134,-67,52
118,67,60,406,-22,117
103,77,62,371,121,60
97,75,49,225,-45,366
115,94,46,-58,52,623
108,104,30,171,-17,531
111,-124,26,-5,-17,393
-126,-121,21,53,3,200
125,-122,10,83,-131,17
118,-117,17,-232,-219,-15
123,-122,26,-184,-153,-69
122,121,25,155,-16,-238
-117,108,22,320,29,-224
-114,92,17,180,16,-124
-106,84,11,31,-97,-10
-109,101,11,-280,-126,-40
-99,95,-1,-202,-135,52
126,-81,55,1038,-1914,-7238
43,92,0,-589,-3662,-7688
-49,119,11,2493,-4196,-6575
-26,29,-31,2129,-4395,-4090
75,-26,-127,-651,-1493,-904
-118,117,121,-2781,1374,576
69,-111,-21,283,580,530
5,-120,-52,45,757,1562
42,-40,55,-94,2066,2719
84,-58,-44,-453,4133,4335
-17,-8,-30,630,4746,6149
113,-36,97,-2378,5506,4512
-56,-100,58,-3764,-247,8989
16,83,-49,-3821,-3175,5844
-123,70,-48,1010,-3607,6838
121,70,-5,1096,-1593,2183
58,-5,-35,3242,736,-2750
55,83,-77,4200,1279,-1624
22,115,-79,613,530,-860
78,30,-86,-1048,-146,-46
98,-83,121,1151,216,120
-128,-33,-113,998,95,-262
115,-18,-115,127,-193,-580
127,-18,-99,-840,-281,-198
-105,-2,121,-660,-100,-429
-75,16,100,-216,-402,-569
-47,33,110,-425,-246,-605
-72,37,117,-510,-368,-550
-110,41,111,-675,-164,-451
-106,39,94,-422,-249,-50
-91,89,106,-733,-339,285
-98,99,64,-251,191,-19
-110,69,17,659,-72,116
-101,125,41,-366,56,390
-107,-118,42,-341,-74,402
-73,-127,36,332,-34,293
-37,-105,58,208,84,197
-80,125,52,728,394,-323
-81,56,25,1689,399,-474
-48,63,58,675,189,239
-87,67,52,-31,-127,666
-119,67,57,57,-332,708
-69,98,70,-361,-376,863
-52,-92,109,-1059,-601,934
-80,-97,100,-226,-551,90
-60,112,49,1755,-18,-513
-76,-92,44,98,558,-1193
-93,123,9,-454,22,-879
-89,112,8,-1279,-244,-160
-65,-109,10,-1649,61,103
12,34,-75,-4839,-1550,-2337
5,-121,24,-2577,-98,-4262
-64,-43,125,397,-626,-6965
-71,48,-17,-2171,-3073,-7214
57,-95,-46,-1419,-4799,-6960
-72,-77,-6,80,-3423,-5077
105,-101,-109,3116,-1168,-3487
67,-42,127,-2,-131,-342
6,-47,-127,-1310,893,483
109,-12,6,-274,1842,1222
-58,-39,-61,-402,2386,2874
-35,-2,-32,-810,3209,3924
-7,102,-78,-2608,4162,6034
105,91,124,1466,4250,7084
8,-110,-58,-1816,2513,6748
88,116,-11,1824,365,6518
57,0,77,-3322,-1007,7805
-73,66,-1,-2447,-828,4498
98,-28,98,4811,-544,-1797
57,110,123,4879,1201,-2117
29,-61,-71,581,518,-256
51,-119,-66,-1150,-880,-773
-49,22,-70,-159,-95,-1654
-65,-64,-85,1163,224,-2456
-84,-66,-55,412,-275,-1689
-39,-37,-45,-1176,-436,-688
-7,-45,-95,-887,28,-420
-3,-74,125,210,172,-386
-11,-63,-127,544,155,-196
-29,-37,-112,2,61,258
-5,39,-119,-1036,96,767
-7,-117,113,-1610,-48,273
-64,46,76,717,85,-17
-84,49,108,1303,232,284
-81,121,-126,-221,330,578
-79,127,109,-498,-93,575
-31,105,123,126,21,327
-37,113,-116,303,-59,80
-86,-128,-89,-124,-261,7
-75,-88,-74,-866,-249,-132
-22,117,-123,251,149,-539
-32,104,-115,696,-89,-463
-53,115,-110,-52,70,-316
-36,102,-119,-287,-238,-20
3,98,106,21,322,69
27,56,80,1180,-66,-23
-49,66,87,1100,-402,-160
-37,94,87,282,55,489
-33,101,75,-256,412,655
61,50,22,871,834,377
-14,127,-106,-1134,-1643,-6392
-42,-113,78,-1796,-3407,-7589
-8,76,-35,315,-3027,-7895
20,-92,-113,4000,-3044,-2763
-112,81,-6,273,-962,-1765
-42,-20,38,-206,72,-154
114,127,-71,-765,222,680
75,72,127,291,780,1146
-15,59,105,-991,2160,2330
-83,-26,9,-660,3073,3772
113,-55,-126,31,3447,6176
-2,1,0,1577,3130,7566
-1,-48,-53,-342,3202,7688
-99,3,-36,-621,1372,8946
-94,-45,-73,-1669,1117,9597
-61,38,-10,-5752,-3159,2778
70,-84,-118,6056,-2021,-4500
55,121,-50,5815,838,14
-57,124,-26,-1641,1042,-435
94,-89,118,-772,-597,-1113
123,-106,-109,2715,-937,-1796
111,-115,3,892,364,-1255
123,-113,2,-140,-355,-634
-111,-64,-11,-1212,-208,-594
-113,-117,-59,-571,-133,-263
-121,-80,-86,-176,132,237
-127,17,-128,-545,-82,187
-109,58,108,-597,-118,-1
-114,47,87,234,-30,-278
-123,61,93,183,69,-372
-112,58,86,209,152,-346
-100,46,84,329,56,-203
-104,57,100,-37,-197,57
-121,67,117,-319,-204,294
-118,101,-124,-597,-295,581
-99,125,-125,-435,-313,501
127,-100,119,-423,-208,128
-85,-82,-126,-531,-220,233
-107,-75,97,-304,234,-433
-83,-125,39,427,378,-700
-55,118,15,702,212,-570
-86,-127,22,249,-78,-478
-89,119,51,53,-154,-257
-77,98,67,429,-132,-33
-64,103,99,450,-79,176
-57,122,124,94,-16,323
-52,122,109,179,92,312
-65,117,90,275,-45,491
-98,-119,82,-236,-85,808
-69,-85,85,-457,3,949
6,113,45,-312,-1421,-6751
-110,-15,55,-750,-2472,-7106
-91,21,120,3766,-3323,-6568
-26,-85,-34,2536,-3389,-3961
-65,46,53,795,-1265,-1367
41,127,-76,-721,952,445
-56,-4,-3,-746,1245,1863
-13,126,107,888,2014,3128
25,-74,-11,-16,3736,4668
-32,28,83,-108,4702,6745
100,-63,-84,743,4067,6377
20,98,79,-1544,2557,6959
88,26,2,-1595,333,6396
-41,-19,126,-4317,-1628,9408
28,117,113,-571,-3173,2955
-122,-42,-49,3938,-820,-3664
5,123,-65,6105,472,-1698
2,-26,-57,246,951,-1286
89,54,-78,-337,-134,-837
-125,-97,-84,890,-557,6
100,-41,-50,73,-327,-529
104,-79,-32,-32,-378,-353
126,-60,-48,-567,-150,-214
-118,-68,-72,-231,-73,-91
126,-44,-105,-99,-66,-67
123,-28,-116,-141,22,99
121,10,108,-147,-206,102
-128,16,102,8,-138,122
-128,36,99,-58,-51,36
-128,56,100,-134,-65,-15
-123,49,98,6,-65,-19
-120,60,100,-51,-57,24
-117,69,94,-51,-96,-20
-111,68,88,-20,2,-20
-111,77,80,1,-94,-15
-112,71,74,102,-127,3
-106,90,66,-112,-9,11
-103,104,60,-97,-6,-33
-105,115,58,-128,-152,-37
-103,110,61,-29,-70,14
-100,115,55,120,-46,-4
-96,123,62,-15,-133,45
-89,-128,61,-44,-68,5
-88,-127,63,19,-77,23
-86,-120,61,-21,30,-8
-86,-114,56,-40,-27,67
-84,-106,49,-34,-40,36
-80,-104,46,21,-26,18
-79,-93,45,-105,-54,22
-78,-99,45,0,-47,20
88,0,119,180,-1144,-6939
19,-67,-113,-2228,-3263,-8707
46,-52,-113,-1272,-3830,-7774
9,85,43,2467,-3423,-6607
-10,-65,6,1019,-2204,-4218
-114,-125,-99,-810,-188,-626
-52,-110,-122,-951,1368,608
81,-100,-18,841,2116,2437
-99,80,103,157,3291,4981
108,-99,-95,196,3485,7129
-125,-126,99,1393,5117,7564
-16,-126,46,-1113,2389,8250
21,-91,61,-848,608,5353
92,-20,84,-2976,-1304,7088
-88,-14,-114,-1374,-1369,5485
44,87,-87,332,-883,970
89,125,-38,3688,-552,-2203
48,-15,-24,2437,529,-1619
22,16,-81,1131,216,-788
95,52,-77,-532,-278,162
-125,12,-102,-219,-253,-554
122,-63,-102,891,-48,-532
114,-45,-83,166,-96,-148
-128,-18,-90,-486,-29,48
-116,-27,-118,89,-47,62
-110,0,-127,46,34,168
-114,19,108,162,-43,130
-113,20,107,340,-121,217
127,43,121,62,-184,319
122,47,-128,83,-151,326
-125,64,120,20,-135,253
120,55,109,88,-137,310
104,66,95,-160,-170,431
-99,-128,98,-1063,453,882
109,94,82,-45,-195,282
-110,108,101,208,-16,-62
-115,85,99,217,-274,-292
-112,87,107,-26,-211,-320
-112,77,79,55,-44,-272
-83,117,86,-462,-4,-147
-88,116,53,171,76,-394
-96,120,43,221,312,-458
-123,88,23,395,-25,-408
-60,88,30,-166,-108,-21
9,-128,29,-582,-164,90
-55,-126,33,-95,-451,-33
-90,-123,55,-45,-40,-46
-95,-122,46,-81,-208,124
-74,-93,46,-210,-223,149
-82,-83,57,-301,-182,275
88,109,-4,-1256,-1785,-7547
-87,105,-21,127,-2815,-7012
-70,99,77,1192,-3782,-6502
-40,-113,92,2519,-3679,-4856
-95,-88,-50,2501,-2776,-2159
109,5,19,-580,-330,13
16,-124,-81,-1359,1365,1006
-39,-55,-61,1921,2372,2338
84,-78,30,-99,3193,4070
-75,104,94,-1770,4093,4987
-69,-124,-96,2119,2368,5602
-118,-87,-106,674,2963,5935
-117,91,90,1054,2537,5304
-3,-94,-100,-2141,-12,5132
-72,68,-17,-803,-106,3176
67,40,123,-1146,-560,4827
52,-127,98,-1146,-655,3300
-101,-121,108,947,-1156,557
57,17,-111,2684,-58,-1424
20,-30,-97,1288,127,-1108
3,69,-87,824,-9,-994
39,-15,-81,1006,40,-262
61,-13,-83,153,78,-139
77,13,-103,-639,-43,-50
87,-10,122,-164,72,-92
93,16,103,-359,129,-72
85,25,75,-187,3,28
87,50,65,-308,41,16
95,55,53,-101,3,94
103,83,52,-171,-65,-15
112,91,54,-77,-96,-57
112,88,55,28,-71,-91
113,94,63,-122,-112,23
121,108,66,-81,-95,-49
123,103,69,82,-12,-78
127,116,64,51,-34,-115
-124,116,65,-56,-51,7
-122,119,59,88,29,5
-116,124,56,131,24,65
-111,-123,46,108,-22,31
-111,-124,49,42,-11,77
-110,-119,43,74,-44,78
-105,-115,40,68,-30,81
-105,-110,36,99,-72,59
-101,-107,37,33,-86,88
-99,-100,36,83,-74,-4
-98,-104,36,53,-101,57
-94,-90,38,-28,-111,-26
-88,-101,42,154,-7,-50
-85,-87,35,58,-65,-151
-113,-71,57,-1750,-34,-6687
-26,-56,-34,-1015,-1772,-7759
-102,45,-62,-970,-2563,-8066
95,25,43,650,-3054,-7351
95,110,-21,3460,-3644,-4894
-94,121,-14,1740,-3288,-2131
-105,-36,-32,-2140,1036,-229
41,-77,114,-653,2657,1961
81,53,-50,-398,3142,3716
5,-99,-51,156,3406,5498
-53,-104,-20,191,3047,7656
79,-30,55,547,2736,7311
81,59,-30,1085,1667,5674
70,-98,-21,-169,-115,5487
15,5,-27,548,1768,6749
-41,94,43,375,-172,6880
-77,-97,48,-2542,-1318,3578
22,-21,115,1057,-2003,-2333
-37,127,-74,5237,-295,-2102
-7,-58,-60,1057,1143,-1831
47,-127,-78,-1020,400,-1119
54,-42,-108,458,-622,-665
88,-34,-84,463,-18,-890
114,-40,-80,34,-157,-843
123,-45,-91,-108,-179,-718
127,-18,-104,-494,-169,-727
-120,-21,119,-300,-84,-577
112,-23,108,-96,-273,-191
100,5,114,-399,-191,153
107,28,91,-339,-101,291
115,44,81,-170,-140,366
115,71,81,-203,-192,441
-126,88,83,-249,-146,538
-127,104,80,-95,-65,452
110,124,83,22,-51,234
114,125,81,173,244,-36
127,108,60,487,311,-92
-79,109,41,357,111,37
125,114,46,142,-47,-130
124,105,60,38,77,-179
-103,86,46,224,-6,-63
-104,93,46,114,-84,28
-81,104,47,-9,-27,14
-83,105,51,60,-202,28
-87,114,62,-81,-73,-26
-87,108,63,7,-67,-9
-90,113,62,-129,-71,76
-91,117,59,-144,-1,180
-77,-125,48,-25,26,214
-74,-112,42,30,9,101
-91,-57,-41,-1425,-874,-7382
115,105,-10,-1391,-2446,-7252
-51,-106,31,-674,-2496,-7250
-109,-36,-114,1198,-3033,-6663
-61,20,66,4381,-4147,-4339
98,-88,105,1321,-2838,-1466
109,52,43,-2084,483,658
47,38,-74,-780,2721,1433
45,77,-44,83,3876,2794
-71,-21,-94,-872,4051,4503
6,98,10,-433,3010,5860
-90,-32,99,1439,3653,6605
66,11,57,76,2396,5739
-116,123,20,274,1338,5930
-15,-18,-97,396,-46,4048
-48,-37,4,-807,-882,5083
-29,52,-126,-19,-658,3861
4,68,107,1116,-127,2956
115,118,115,1354,-662,363
13,-8,-89,1472,-280,-1979
47,65,-83,1730,374,-2092
27,-84,-87,1808,157,-835
39,-45,-69,436,63,-25
65,-54,-83,-295,-109,-86
85,-69,-85,-130,-250,-76
102,-71,-90,-2,-39,-77
104,-44,-103,-209,-41,-105
98,-39,-122,-289,-11,27
90,-9,104,-323,-3,-27
99,-5,88,-110,17,-28
101,5,83,-56,2,59
107,21,76,20,-13,49
108,34,73,-67,-93,-34
112,26,74,8,-44,-15
119,26,69,95,-84,5
124,43,69,-173,-75,59
126,49,64,-19,-37,0
127,62,60,-47,-92,23
-124,72,59,-117,-36,27
-127,78,57,-49,-68,22
-122,89,53,-64,-23,-7
-117,83,49,83,-10,24
-112,99,40,-57,-23,-13
-107,94,38,-1,-25,30
-107,101,33,43,-15,-14
-105,104,32,-50,-72,53
-101,111,30,-46,-51,35
-97,111,31,51,-34,55
-98,127,32,-117,-90,71
-94,126,32,16,-47,53
120,92,-85,-5757,205,-5330
-47,-122,125,-252,-1908,-8494
-45,43,-57,1577,-1999,-8749
-113,97,-100,1852,-4216,-6957
-83,51,-11,2933,-3758,-2914
88,104,100,366,-2410,-226
-6,127,59,-2420,971,870
-123,85,109,378,2508,1752
-60,75,122,1109,3446,2683
118,70,-90,-2508,4203,4278
-73,-94,-35,-759,2960,6296
87,83,122,1555,2657,6532
-31,38,59,1710,1868,5100
20,-75,66,-175,1115,4471
-87,-102,-18,-839,-717,3345
-34,90,46,-963,-876,3298
24,53,-81,-1620,-731,2987
-18,61,124,-35,-145,1912
91,-15,-99,2438,-682,-466
83,-13,-70,771,306,-1273
74,-112,-108,-75,551,-1107
71,87,112,46,219,-719
87,88,93,-259,224,-486
122,68,68,-19,184,-494
-97,42,73,475,148,-220
-89,60,92,303,-47,29
-97,100,113,-495,-131,1
-111,121,123,-873,-186,-40
-104,121,100,-536,126,-159
-79,109,83,223,67,-82
-81,120,102,282,29,86
-88,123,105,288,85,293
-101,-128,107,243,149,498
-105,-124,98,367,159,571
-78,-112,99,417,90,657
-70,-99,93,381,199,368
-74,-88,83,95,40,76
-62,-104,83,54,12,-6
-57,-116,81,245,16,-76
-52,-125,80,341,13,-204
-50,120,89,415,58,-274
-53,111,93,339,8,-227
-45,99,99,331,74,-149
-44,93,101,399,40,-54
-33,93,99,297,26,39
-30,104,102,54,-92,169
-35,108,104,-14,-55,228
-37,124,99,-166,-66,284
-33,-111,97,-472,-277,382
-30,-88,99,-597,-164,243
13,-91,-18,-381,-3066,-6709
-93,-3,-54,-2501,-3669,-5834
-35,-25,-107,166,-3897,-6023
14,23,-89,2011,-4360,-4475
-26,98,86,1620,-2867,-2744
-121,-2,-22,808,-227,-654
56,100,-92,-318,1843,1226
36,-128,26,-67,2638,2648
-17,-47,11,-240,4672,3650
96,84,59,-1272,4758,5599
-78,-26,22,2022,3619,5892
29,69,-45,2090,3030,5390
11,-56,38,-2719,896,4671
-21,-34,77,-6263,-759,5844
60,10,45,-1097,-2190,5674
0,-126,106,6433,179,3195
-42,11,-68,2024,82,4
79,99,-29,248,50,-674
11,-119,-67,1561,240,-869
44,74,-74,945,191,-959
117,25,-74,340,-60,-778
-110,-41,-66,174,-217,-400
-127,-42,-49,-22,-197,-184
-120,-13,-44,-502,-191,-96
-95,7,-73,-557,-265,-242
-87,34,-101,-418,-308,-335
-116,26,123,-45,-413,-309
87,48,97,-370,-798,68
85,89,80,-1015,-1247,454
102,125,39,-1310,-1095,397
108,-119,31,-1169,-622,325
90,124,13,-786,-240,-1
85,-111,38,-914,94,197
116,-125,115,619,-141,-7
103,-53,85,-190,-325,131
79,-23,20,-718,-293,169
70,-66,-3,-709,-245,278
91,-96,9,99,-45,124
99,-64,45,194,132,2
112,-41,56,16,149,-4
106,-86,-1,432,44,-81
103,-100,-4,818,39,-142
115,-70,40,796,15,-93
-126,-32,33,62,-51,17
119,-68,-4,54,-204,124
118,-42,18,-214,-172,77
-128,-53,14,-459,-103,146
-119,-76,-3,-456,-28,164
-104,-50,16,-464,5,148
-128,-49,0,-346,6,35
-23,-4,77,-2103,-1220,-7403
-13,40,-35,-2718,-3835,-7091
3,55,-3,-1049,-4550,-6503
-81,-7,-25,1381,-4847,-5616
17,30,-33,6275,-4109,-4220
-52,110,99,525,-3250,-324
110,-83,69,-467,1211,297
38,104,-16,886,3254,1255
-73,104,-83,745,6012,2470
73,-104,-100,94,6236,4245
12,-71,101,433,7918,5376
11,-37,120,7121,3537,5827
-59,-120,34,-9991,4762,7343
-72,-14,-94,-6754,-2032,9247
75,-27,-2,3682,-1839,3224
113,-109,10,5036,-1298,-2898
22,86,-96,1752,364,-2579
34,-118,-99,901,283,-2124
-101,-50,-52,279,407,-643
-116,-38,10,-681,-192,560
76,-15,-65,124,-601,368
73,61,49,-1139,-344,260
58,37,-14,-1213,-179,252
65,25,-20,-891,-32,231
80,22,9,-616,148,184
90,14,33,-75,64,124
112,22,43,89,43,43
105,45,53,321,-52,-52
105,50,8,398,-111,-31
98,64,5,309,-53,-31
103,92,27,90,-23,-6
112,96,37,-157,62,0
116,85,28,-209,-94,-42
-128,68,8,-33,-62,-73
-127,78,12,85,-113,-26
-118,103,11,-68,-67,32
-117,106,-1,-78,-69,6
-125,102,-4,-9,-114,2
127,115,3,-43,-87,20
-122,117,-10,20,-141,13
-95,123,-22,-62,-57,-3
-100,119,-18,-143,-79,-8
-114,107,-4,59,-38,1
-106,-124,-18,198,12,130
-109,-107,-37,-68,26,160
-111,-102,-14,-318,45,211
-104,-105,-2,-238,-19,108
-103,-108,-17,-93,-54,-39
-100,-127,-35,108,8,-100
-87,127,-24,349,11,-64
35,52,-90,-551,-3152,-7093
100,4,-16,-3148,-4767,-7253
-82,-56,53,704,-5436,-7384
-5,-1,-15,2211,-3557,-4681
67,4,69,1216,-1202,-2274
-54,104,-96,-517,1484,10
38,-97,38,-413,1568,2008
38,-92,69,205,1588,5202
-2,-89,120,1209,3166,6317
-28,-6,-99,2369,4711,6960
-91,-6,-30,-470,4163,4860
64,112,17,-5813,-1800,8053
-74,-26,78,2559,-2133,3220
29,76,-16,-68,-1799,4048
-106,2,-106,-721,-66,1215
14,-116,79,3976,-804,344
53,-94,87,4721,646,-1735
118,33,-28,962,-18,-523
111,-108,-111,-2113,-294,212
69,-32,65,-43,-478,146
40,17,76,-521,-497,300
52,41,67,-315,-318,287
64,64,29,-624,-105,322
54,57,3,-873,-265,341
71,49,10,-753,-155,455
86,43,30,-14,-51,150
79,76,27,21,-104,-24
79,100,9,-257,-112,3
78,92,-6,-254,-166,133
82,88,-7,-122,-81,94
103,112,-2,-143,-10,193
113,-118,5,-201,-60,138
98,-116,-1,-226,-112,-48
84,115,-5,-158,-99,-6
87,123,-12,6,-8,71
98,-111,-28,-32,-58,161
104,-86,-29,-134,-161,136
102,-87,-13,-427,-86,240
98,-115,-22,-15,-66,131
101,-126,-23,391,-44,41
118,-96,-26,414,-77,-58
115,-86,-27,191,-136,-17
113,-71,-18,-266,-59,67
108,-93,-39,-128,-136,52
113,-104,-38,-14,-114,62
127,-90,-46,-135,-135,35
-125,-109,-22,-4,-136,82
-120,-101,-40,57,-78,-32
-126,-111,-67,180,-107,0
-117,-93,-44,127,-52,37
25,-28,103,-1543,2836,-6178
122,-22,-24,-1734,158,-6608
95,-63,107,-613,-1747,-7216
-106,47,-87,-1049,-3039,-6410
-127,95,-8,1689,-3459,-5373
-97,31,42,1943,-3604,-3244
-119,-40,-14,301,-1776,-1362
106,-118,-75,-425,1955,717
88,-73,58,232,3722,2777
-69,51,86,371,3787,4574
-93,-22,-14,-204,4206,5454
-2,84,66,619,2669,6410
73,-10,-51,1030,916,6197
112,122,-50,501,-1537,5810
29,-30,22,987,-1574,4046
-13,-99,-59,-2368,-1477,4508
-104,106,-48,-989,-2892,2942
89,-15,14,467,-493,-858
-47,-80,2,3793,1098,-3714
80,-31,-77,-2788,-259,801
-28,-71,1,516,-130,-8
-75,-73,-43,1387,-453,-245
-36,24,-73,530,-60,-49
24,34,-23,326,23,-278
80,56,10,-449,143,197
66,17,6,-625,-182,236
42,-14,-16,-303,-208,179
27,-20,-33,95,-301,24
29,11,-47,129,-288,-31
30,39,-61,-6,-156,25
19,47,-74,-262,-199,80
18,36,-73,-163,-144,109
25,32,-73,-15,-99,23
37,43,-70,-20,-123,-23
17,31,-84,163,-47,-60
23,23,-102,307,138,-157
49,52,-92,201,152,-138
62,62,-73,-20,114,-49
57,34,-76,278,-15,-48
50,24,-85,434,92,-9
66,42,-93,353,193,64
110,51,-94,-16,151,242
92,36,-93,-47,-26,26
66,13,-77,-75,-102,142
70,44,-50,222,-320,-13
103,69,-95,-100,-119,137
89,70,121,-617,-37,351
78,53,-121,-799,96,187
95,-2,-120,67,93,5
99,10,114,515,42,-154
73,17,65,-1091,2405,-4949
-39,70,8,-1196,3077,-6156
-26,80,-66,-201,902,-6575
94,-104,82,-1063,-1309,-6053
-109,-65,8,-2949,-2301,-5738
-81,98,99,-9,-2805,-6991
111,11,126,5453,-3282,-5138
3,67,-80,2013,-2988,-2447
-111,29,-53,-1197,-67,1
69,-42,100,451,2347,1700
42,60,-76,473,3165,3396
-26,-94,-84,13,3767,4276
-125,30,55,-1741,3695,5227
46,-103,-109,45,2209,6990
21,-28,58,4011,1662,7195
58,-33,70,-540,1440,5345
-128,89,-5,-2903,-1781,4653
59,-80,104,-1575,-3650,3468
-22,43,-128,-781,-1881,1905
-124,-36,-111,-64,-1664,505
-92,13,-78,5285,2166,-3253
-93,-88,103,1147,-949,-14
97,88,-37,-1387,-618,234
1,-83,11,748,-833,257
10,-28,-15,113,-342,148
53,-24,0,144,-109,86
75,-27,30,-100,-53,167
73,-39,30,-315,-94,206
58,-75,36,217,-240,101
49,-48,28,485,-305,-16
44,-20,-8,378,-86,-94
44,-12,-21,122,95,-144
58,-2,-23,-267,295,-160
72,50,-29,-1237,185,130
106,64,-10,-1633,126,153
94,55,-24,-1246,-183,139
81,66,-17,-571,14,-111
72,59,-21,630,-57,-173
89,83,-12,1097,46,-166
82,108,-57,804,23,-132
114,-100,-30,-446,-66,157
-127,-101,5,-944,-213,404
93,94,-34,-510,-333,388
90,98,-56,-180,-257,310
100,107,-76,-82,-127,209
107,100,-94,288,53,-65
109,91,-72,605,37,-258
114,121,-31,398,-12,-192
117,-118,-37,201,-52,-125
118,115,-76,311,-79,-101
22,30,-107,-3932,3753,-5425
71,-88,-120,2456,6196,-9291
-72,-81,96,-1333,-284,-6987
-75,-114,-19,-3926,-1073,-6520
-81,-103,91,414,-1865,-7056
81,-45,-37,4257,-3843,-6285
8,96,49,5448,-4404,-3627
11,32,51,462,-1140,-1674
-111,-44,-96,-2523,1890,425
-50,-126,33,215,2182,1609
-90,70,-88,-173,1544,4196
-128,-125,87,-139,2332,3600
32,93,-46,1041,3279,4546
116,36,-81,-1393,3210,7003
41,3,102,-1667,554,6924
-68,-64,2,-1821,-4542,6582
63,16,-125,990,-3086,1287
89,-83,8,2759,-1600,2653
-84,109,-69,877,-1140,1622
83,13,-119,536,-1440,842
65,-82,108,639,-92,-17
34,93,51,2240,760,-1328
106,97,-99,810,793,-682
64,41,-101,452,-9,-225
60,15,99,527,-122,-158
61,26,58,35,-268,329
39,37,17,-90,-324,307
48,59,33,-350,-234,254
74,51,25,-411,-85,183
73,23,8,-315,-187,275
61,12,-6,-67,-191,261
70,37,-20,-186,-154,171
72,49,6,-195,-259,30
70,28,14,254,-157,-16
36,28,-14,551,-268,-59
64,58,-13,282,-32,-64
92,77,-7,123,15,-117
94,75,-12,-30,28,-90
92,65,-19,-172,-51,90
97,41,-34,-95,33,153
72,32,-46,146,-13,33
97,64,-13,287,-53,-95
109,101,-19,-35,-52,1
88,86,-26,-154,-56,154
89,94,-44,-443,-21,172
93,67,-71,177,-114,-130
106,78,-44,-224,16,94
-101,22,-39,426,54,191
116,5,-91,1139,200,-227
-119,56,-42,777,216,-365
59,98,123,-2138,423,-5683
-95,-83,-55,-761,-640,-6791
121,-60,77,524,-2607,-7396
-6,100,47,-1060,-4521,-6960
-64,-31,-32,1236,-4532,-4973
30,-92,102,2751,-3797,-2481
-92,27,-117,-2335,-1559,-167
85,-15,-123,-1109,1407,220
-70,108,50,-65,1827,2083
80,91,78,-1173,2587,4217
-116,91,113,477,4034,5273
-43,41,55,4263,4702,6523
83,-78,-54,2066,3997,7734
96,91,52,-1725,1437,5999
-123,-49,118,-865,-2166,5623
31,118,-79,-16,-1289,2547
45,100,-22,2475,1692,2371
4,32,-28,4246,1039,621
-8,73,-58,2269,1892,631
-111,79,-4,-824,589,584
119,-18,-25,-894,-213,371
-118,-81,-55,161,150,-8
107,-80,-50,379,-101,-413
127,-69,-34,-142,-325,-606
-96,-80,-35,-464,-378,-583
-40,-62,-16,-804,-520,-495
-50,-79,-69,-337,127,-969
-64,-113,-90,241,-472,-964
-81,-59,-90,-925,-906,-24
-116,-35,117,-1347,-1651,893
-127,-39,51,-990,-1521,1002
105,13,3,-1305,-974,849
96,18,-3,-219,481,-102
-107,18,-122,1244,281,-632
109,58,88,111,-246,99
88,39,31,343,-210,180
64,60,12,414,-373,-72
84,76,26,99,-597,194
115,105,2,-423,-127,298
86,82,-38,-530,-73,206
88,51,-45,-270,51,91
80,33,-33,271,-179,-7
101,60,9,212,-58,11
110,76,-1,102,-30,-82
104,67,-35,338,-219,-23
104,79,-54,262,-55,-69
101,91,-48,-59,-63,8
106,82,-26,-210,-105,78
112,77,-18,-93,-277,127
100,70,-33,152,-591,-35
-70,27,10,-1189,3710,-3222
-11,-71,-112,1611,1825,-6999
71,73,-35,-2698,1174,-6514
56,-8,-125,-910,-1401,-7367
88,-12,82,1656,-3950,-6696
-113,-34,-5,1474,-4677,-4807
20,-64,29,1433,-3547,-3101
85,-22,15,1003,-2424,-845
18,84,-126,-1510,373,637
-73,-102,46,-562,1758,1973
74,111,-126,541,3541,2790
63,-128,-50,497,4397,4583
108,30,-17,-1088,5182,6606
1,-32,-10,2035,4296,6721
93,-111,99,-4802,1314,7124
-5,63,80,-1758,-1504,5829
48,51,-2,1616,-3138,6637
55,-113,109,529,-1017,4373
-16,55,95,1432,-67,713
126,-92,-77,3220,-421,-1308
110,35,-5,2644,538,-1689
-107,4,3,521,554,-1338
-86,-74,-18,-130,-64,-766
-77,115,-22,-389,-542,-167
-61,114,-35,-791,160,-20
-64,101,-78,-469,-53,-42
-51,115,-102,-279,-141,48
-58,-105,-126,-605,-225,51
-65,-66,109,-82,-256,-180
-60,-41,123,388,-347,-93
-93,-31,-114,427,-1022,360
-100,-24,123,38,-279,100
-118,-18,84,-292,-357,262
-115,-19,47,-246,-252,306
-111,-12,28,-293,-19,150
-105,-7,24,-271,36,77
-104,-11,20,-161,148,-62
-108,-9,25,172,-4,-15
-112,-4,30,438,-75,-44
-98,23,36,324,-189,39
-96,46,32,-80,-102,74
-97,51,15,-348,-39,83
-101,48,6,-408,-128,179
-96,48,18,-441,11,135
-94,56,0,-227,-98,105
-96,64,-14,-170,-97,84
-99,72,-16,-131,-16,27
-102,79,-9,-28,-96,36
-92,85,-7,-9,-5,3
-85,94,-19,28,42,-18
-71,-97,27,684,2049,-5932
3,-42,-102,-661,1167,-6413
-85,-23,-80,-1755,-284,-7314
95,123,83,-1173,-2485,-7410
-98,-126,80,-530,-3563,-6992
95,116,15,2175,-4439,-5034
-3,-86,119,2177,-3468,-3103
101,-116,-58,212,-1285,-898
5,-113,-87,-109,982,665
-34,-113,90,264,1988,2317
70,-79,107,341,3434,3882
-33,75,-30,-1202,3964,5280
-63,-4,-13,-485,4761,6179
-59,-115,23,2994,3964,6232
-44,81,19,80,2397,5471
56,-108,83,643,1607,6259
-28,16,-88,-4558,-2485,5376
-29,-73,16,-3821,-125,4564
-64,-2,84,3454,-1300,1034
111,-11,-105,4409,-698,-1990
107,-53,-47,1319,575,-1885
104,-44,-84,802,881,-1409
-118,-32,-85,301,-182,-74
-105,-35,-90,-34,-346,-20
-105,-33,-76,-18,-95,15
-105,-22,-68,-157,-172,-19
-87,-12,-75,-244,-51,-147
-82,-11,-86,-247,-28,-179
-84,5,-102,-337,-43,-235
-86,0,126,-77,106,-272
-88,18,114,-123,-34,-141
-86,31,98,-48,-10,-54
-92,40,105,91,-25,84
-88,39,111,487,68,185
-77,55,106,434,104,213
-71,92,106,-209,-102,204
-67,87,96,-181,-39,60
-70,83,88,-9,-68,-32
-70,84,85,22,-10,-36
-70,93,83,-100,-86,6
-66,97,81,-70,-98,-10
-63,100,82,-13,-73,-42
-61,107,83,-96,-95,-26
-59,108,85,-48,-59,0
-61,112,83,-24,-67,24
-60,120,81,-83,-42,40
-56,124,75,28,-5,52
-55,-122,71,-57,-20,68
-56,-119,64,-15,-15,47
-55,-115,63,43,-13,41
-44,69,104,-47,-4211,-8286
42,24,22,2734,-5924,-7980
67,-86,-76,4204,-3630,-3542
-4,-93,-41,323,-776,-1100
81,98,-74,-322,902,814
-72,-21,40,-241,1287,1957
-98,-70,99,599,1936,2677
10,122,-22,-2356,2578,3549
65,107,103,-4203,935,4954
54,81,34,-2317,-1452,4850
118,-118,71,2234,-1548,2802
-56,-125,-50,2050,-1158,2704
-41,74,38,777,-793,2340
-50,-92,20,669,-711,2759
-18,-69,22,-154,-810,2448
24,64,-61,1078,-414,2323
64,58,-73,1898,-688,2061
93,115,-24,896,-219,1457
70,56,-48,857,190,999
40,-54,-105,1143,273,515
29,-55,-115,20,-69,399
17,-59,121,-865,-591,404
34,-63,101,-1136,-385,2
53,-67,86,-567,-91,-488
74,-96,64,45,-92,-894
82,-102,64,-402,-273,-717
73,-120,72,-635,-336,-478
70,123,73,-362,-306,-347
90,-107,79,-389,-219,-234
85,-106,75,12,-124,-176
80,-102,65,81,-130,56
76,-87,56,-52,-171,257
82,-70,51,-61,-227,522
75,-40,66,-303,-274,546
89,-26,65,75,99,4
102,-14,57,373,58,-193
97,-3,60,60,-54,-139
99,-22,51,-57,-15,-3
105,-35,46,32,-101,139
97,-29,49,-74,-131,103
106,-34,53,-6,20,-58
115,-45,45,66,2,-100
125,-40,50,-111,-9,45
-112,-43,46,-6,133,72
-110,-41,40,10,119,88
-107,-51,37,51,134,173
-109,-66,27,95,58,322
-102,-69,32,87,40,349
-71,-96,48,224,1189,-1138
-19,110,87,1617,1372,320
77,-126,-111,-1510,-1265,-7343
-10,-40,7,-702,-1473,-9626
24,41,-34,-233,-3266,-8233
-85,113,120,2021,-2702,-6784
-18,4,71,4894,-1371,-2786
37,-21,-71,-1145,-245,943
-13,-122,64,-1580,1690,2470
-49,-54,27,-369,2254,4817
20,74,64,1023,1777,6922
-103,-30,-58,1838,1910,7408
-95,-78,-75,803,483,6287
-15,-62,-48,1116,-359,5798
13,73,-113,-1413,-1587,6204
-88,-5,-54,-241,-1063,4955
-99,41,126,478,486,2870
64,-71,-81,2955,-975,-832
46,10,-22,2946,149,-2012
71,-101,-32,1260,705,-1591
50,34,-82,411,-195,-721
48,40,-82,-377,-462,172
59,74,-87,-1060,-496,120
83,97,-85,-1133,-533,-85
102,89,-105,-540,-144,-396
120,90,-127,-327,-49,-555
110,99,113,-522,-25,-565
100,74,90,-173,-16,-363
94,81,88,-161,-43,12
94,113,89,-348,-193,200
125,114,89,507,252,225
124,90,86,1968,142,56
-103,-126,122,1479,360,-128
-73,125,103,346,314,-2
-72,83,89,-2,-405,481
98,-107,-110,-1823,-389,997
68,-117,94,-1053,480,587
109,69,35,1844,391,232
-112,-123,54,1178,342,-146
-56,-102,67,-14,286,-430
-6,62,51,836,-66,-317
-60,70,92,206,-237,-103
-77,78,116,-433,-40,213
-78,49,94,402,-65,395
-80,59,85,865,-266,487
-87,89,65,1410,-241,8
-82,102,-117,1704,-328,-111
-90,-88,-112,-1006,-431,290
-114,-115,57,-1494,-446,382
-106,-123,5,-1579,-141,278
-97,-109,-13,-1637,25,105
-93,-120,-13,-899,319,-499
9,112,-113,-840,2039,-5325
121,-31,96,-1575,1012,-5649
-69,19,9,-1115,37,-7164
23,-43,54,-2809,-1168,-7369
63,-11,118,-3097,-1297,-7532
-89,62,21,2970,-3214,-7038
35,-93,-123,4543,-2094,-3218
-58,-95,3,1216,-1684,-1220
-105,27,55,-1174,359,55
47,20,-8,173,390,1025
24,97,-126,29,817,889
-32,-34,73,1483,2274,1945
-41,-11,-48,757,3889,3330
75,72,102,-382,4554,5255
-106,-81,-13,382,3732,6515
25,93,-65,1480,2758,6604
-89,45,-105,536,1768,6931
70,14,-31,2964,671,3272
-110,7,94,-798,557,4160
88,57,105,-3328,225,4681
116,22,74,-1238,-973,2783
18,-115,-102,2814,-1292,-810
-14,80,-61,3390,-159,-2334
33,67,-70,1282,1098,-2264
69,8,-79,93,909,-1467
59,-54,-80,35,-436,-377
71,-56,-79,-220,-645,-419
110,-50,-83,-670,-290,-493
122,-54,-82,-549,-362,-429
-125,-54,-82,-333,-413,-331
-117,-43,-78,-136,-237,-125
124,-33,-88,-56,-139,6
122,-22,-102,-81,-85,103
-127,-2,121,-237,313,284
-128,6,102,-144,352,-6
-114,50,79,-306,473,270
-116,79,96,-87,136,-1
-112,111,91,-133,205,263
-113,120,99,-58,-17,298
-114,112,87,15,-77,176
-108,124,94,-72,0,79
-104,122,90,-24,-81,-82
-99,124,95,-46,-109,-112
-92,125,99,-161,-112,-225
-89,-127,96,-266,-221,-217
-90,-112,91,-544,-252,-44
-92,-117,90,-326,-309,-125
-91,-107,77,-194,-126,-6
-94,-100,74,-29,-265,70
-102,-87,64,-129,-437,255
-13,109,-37,-1971,966,-6885
92,-85,-92,1849,-1420,-8904
47,14,-43,1631,-4738,-5776
111,118,97,1183,-4416,-4407
-17,-93,115,1814,-3190,-2894
-91,-114,-23,403,-1960,-1153
78,120,-60,238,1148,717
37,-81,87,-108,2112,2099
-86,-22,112,-416,3806,3541
84,25,-73,-635,4648,5036
18,-118,-64,1145,5299,6101
0,-51,78,-118,3436,6330
-16,49,113,-6742,3778,6160
-121,14,17,8783,-92,6492
55,110,24,-23,789,4517
-107,112,-71,-6536,-1432,2965
54,-8,124,963,-1669,1772
81,-118,-76,4466,543,-1035
73,-100,-15,2620,365,-1922
121,64,-2,658,-91,-1587
121,-38,-12,259,-289,-964
106,-90,-29,-92,-485,-428
119,-67,-30,-784,-477,-61
-118,-62,-57,-825,-491,81
-108,-54,-94,-589,-651,68
-100,-30,-104,-844,-811,48
-116,-14,-115,-983,-755,317
107,-6,118,-807,-871,528
96,35,94,-766,-421,270
-128,56,123,718,527,-464
111,103,102,-526,-46,123
97,86,43,-342,-19,184
89,98,41,-258,-12,0
111,69,7,243,72,-118
-108,75,40,167,-231,212
-123,112,87,561,307,-287
-128,-123,84,-51,-30,36
-126,113,45,-201,-51,145
-119,121,36,-309,-248,310
127,-100,62,-479,-97,94
-127,-118,31,-333,-8,6
-110,122,10,-14,1,97
-104,-116,13,-27,-16,33
-92,-116,17,148,67,-82
-82,-123,34,199,107,-22
-81,127,44,222,139,-33
-87,107,35,651,139,-36
-76,112,31,726,121,35
-110,-31,84,-830,-396,242
-96,-12,76,-1105,-304,308
99,-89,40,450,-1071,-7428
-12,-28,-86,1321,-2496,-6269
9,54,125,3434,-4451,-5316
125,-67,22,2269,-4937,-3368
-15,61,62,195,-2290,-684
62,48,-95,-570,965,64
-54,-97,-2,-573,1546,1029
-64,7,64,61,2113,2322
-32,27,-27,-1019,3722,3586
-87,98,72,-935,4140,4716
43,-48,-71,1051,2579,6169
-96,-48,8,1727,3592,4758
118,-27,21,-6137,833,3092
-106,104,-47,2824,-750,1667
-89,-44,-17,800,-377,3597
-45,-115,1,1605,504,2743
16,-100,-5,1151,1326,1835
-14,35,-47,1247,1170,1987
-37,-3,-68,638,368,2137
-61,45,-48,-403,-253,1363
-96,64,-66,-791,-157,311
124,-19,-77,523,-222,-633
-122,-48,-57,914,-224,-903
-80,-39,-45,-57,-166,-608
-95,-33,-48,-659,-308,-234
122,-35,-71,-576,-22,-468
-106,-59,-125,215,175,-756
-36,-54,122,289,-248,-637
-35,-37,-121,-238,-344,-410
-79,-35,-121,-411,-370,-245
-79,-43,121,-155,-291,44
-77,-9,118,-357,-408,467
-78,21,111,-397,-254,504
-76,33,94,-13,-109,371
-79,58,84,28,-106,277
-84,66,73,-17,-126,213
-98,76,68,-101,-140,145
-109,81,59,-131,-152,137
-104,87,50,-150,-133,127
-89,89,45,47,-91,132
-83,100,45,83,-46,103
-62,91,46,516,48,59
-71,99,51,493,-6,-70
-85,94,66,264,19,-197
-78,76,78,285,148,-208
-58,52,76,483,324,-145
-53,47,59,465,342,-29
-70,52,54,225,231,129
-79,34,66,545,115,317
-60,30,59,788,443,370
78,-120,-1,-1054,-982,-6213
-56,32,-115,-453,-3319,-6520
4,-54,-115,-1812,-4121,-6356
94,-114,12,462,-4171,-6433
-51,63,0,2150,-4699,-5110
-30,-111,-24,1735,-2416,-1748
122,20,111,-855,-268,495
10,98,37,-1083,943,1346
10,39,127,652,2226,2541
89,-89,16,-756,3314,4248
-54,29,26,-277,3688,6206
6,119,85,4719,2743,6319
-4,86,37,139,3464,5943
-46,87,61,-1189,519,5245
117,98,-28,-2207,-1827,7130
24,-18,-94,-6362,-2761,6743
-112,-8,-92,2417,-1302,84
95,81,-64,5450,1107,-3206
26,-5,118,2938,973,-1587
0,-69,98,82,432,-642
30,85,73,132,-28,-398
52,10,53,926,66,-201
33,32,85,514,-330,16
66,77,122,-641,-311,273
82,86,101,-760,-177,42
70,65,91,-121,-390,-260
91,106,103,-847,-168,-170
89,91,63,-531,-141,-161
78,106,48,-567,-175,-80
85,-119,44,-646,-94,-77
106,-125,24,-29,89,-296
-124,115,23,604,113,-362
121,122,35,275,37,-302
116,119,51,-87,62,-89
-121,104,46,122,417,112
-109,81,15,896,311,176
-109,108,26,553,311,252
-109,95,16,577,170,306
-110,88,20,478,44,469
-109,104,37,47,-20,676
-99,105,41,144,5,736
-84,119,50,373,127,541
-77,116,44,741,259,111
-68,112,47,699,310,-256
-58,81,50,704,318,-445
-53,55,46,709,341,-463
-54,36,42,532,198,-265
-59,29,52,173,-17,3
-47,23,67,193,4,197
-58,40,81,84,-123,247
-35,66,32,-994,-1258,-5893
-64,97,102,549,-2704,-6838
18,-99,-107,-214,-4715,-6685
120,-22,-92,2204,-4222,-5157
38,61,29,1170,-3928,-2333
-21,63,-125,-1116,-712,-438
75,-27,-123,-431,2753,1276
48,76,-50,635,3203,2984
-27,-1,6,-775,3983,4428
-25,-127,11,-1227,4393,6019
91,7,100,841,4315,7123
-56,6,3,1373,2540,6013
-31,-34,95,-1791,1321,6270
-120,114,64,-1416,-947,4718
25,-25,107,-1061,-683,6442
-18,77,91,1017,-983,4976
-64,-122,127,1800,-1069,340
55,-93,-76,3543,-443,-2154
62,102,-50,1994,714,-1375
9,52,-63,521,618,-546
-4,-9,-79,271,-333,-36
6,6,-64,52,-379,-655
91,7,-51,-581,-330,-1093
-113,-12,-58,-875,-306,-1174
-85,-48,-79,-287,-183,-1175
-72,-53,-88,-61,-38,-1121
-60,-45,-99,-260,-89,-890
-53,-43,-113,-328,-98,-536
-99,-33,122,-327,-185,-238
-116,-24,107,-403,-216,101
-104,-8,94,-238,-421,244
122,-54,37,2327,-1024,-49
124,109,93,-221,-254,638
-124,-89,64,-2011,-276,879
124,115,1,-781,-126,488
123,88,36,417,-165,322
112,-113,71,-120,121,285
104,-127,49,240,270,54
-120,-104,51,-254,329,333
115,-90,52,-759,275,221
-108,-111,48,-548,232,-115
-83,-126,52,162,161,-352
-83,118,37,487,225,-593
-81,109,33,194,22,-232
-101,-126,44,-486,-260,277
-105,-104,51,-485,-211,268
-84,-95,62,-220,-210,35
-40,-85,56,260,313,-108
-48,-120,21,845,71,-168
-71,-91,60,-519,-191,404
102,-84,-50,-5862,2355,-2898
13,27,109,3226,1993,-4942
-112,-76,67,664,-713,-5129
-69,-70,-109,-3183,-684,-4767
-79,4,51,625,-1275,-5933
116,-10,1,568,-2384,-6671
-101,-93,60,477,-3872,-6324
-70,-46,108,1081,-5837,-4173
109,127,-47,-1166,-4356,-1400
-106,20,-67,-945,4039,717
-69,-15,-14,-19,906,2174
-81,-99,77,-1591,1370,2908
-72,3,-128,1666,2991,3942
123,32,44,3637,3312,5031
80,-72,111,4847,5069,5417
-69,-24,92,267,2160,4169
-41,-86,64,-6468,-2135,5608
121,-81,-32,-104,-2315,6423
-43,-53,111,5768,-65,4486
-58,25,-98,2922,-307,3267
109,-107,82,-111,-539,252
15,-108,-124,2580,96,-1635
31,32,-66,2398,441,-1419
42,1,-95,1067,253,-694
21,-65,-96,1181,-295,-2
-15,-74,-89,613,-494,448
-1,-18,-83,-526,-280,505
53,-8,-76,-526,29,-134
74,-28,-97,-38,469,-1407
123,-37,-98,-650,323,-1613
-83,-98,120,-308,468,-1661
-62,-122,-126,649,314,-1506
-70,-83,-96,-111,575,-1377
-97,-95,-87,-53,396,-689
-50,-104,-121,212,201,237
-59,-70,117,79,-80,1002
-39,-33,117,-173,21,1286
-39,7,113,-272,15,1107
-105,39,112,-323,-167,783
-84,61,101,-740,-267,838
-104,83,102,-677,-275,846
-128,106,91,-146,-91,311
-125,126,73,-277,96,-305
-98,116,70,-541,31,-618
-69,98,66,-546,512,-895
-52,64,43,-182,208,-980
-39,77,61,-425,-207,-577
-31,100,76,-771,2,-501
-28,77,57,-50,75,-373
-58,72,43,226,-190,88
-49,110,110,-1524,-805,-6846
39,-4,-87,-627,-2492,-7058
-62,97,-80,-731,-3128,-6741
41,74,-29,1581,-2291,-5923
125,-42,87,4676,-3305,-4322
-86,-53,54,259,-2466,-1600
-7,51,-99,-1525,-377,228
-45,-111,12,-379,1101,903
58,39,78,1191,1697,1827
90,-96,2,-562,2605,3162
30,80,-105,-2255,4041,4028
-110,-43,30,-724,2215,6561
67,-43,-51,2417,3307,7334
-2,89,-69,561,3277,6804
-68,91,-116,2083,2299,7751
-88,-53,94,-1480,1063,8168
-19,-19,-23,-3432,158,6726
-86,100,75,-306,-1677,-2756
3,52,-122,6551,-313,-2493
-33,-124,-59,2144,867,-1336
9,91,-67,-1131,312,-939
54,-29,-104,-192,-673,-685
107,-42,-69,68,-472,-990
117,-37,-49,-291,-578,-1121
125,-46,-30,-606,-615,-882
120,-65,-45,-422,-320,-605
115,-67,-66,-126,-153,-238
127,-28,-87,-435,-137,53
-126,-5,-115,-569,-151,232
-124,8,123,-316,-22,231
-121,26,101,-7,52,254
-122,37,89,89,71,235
126,47,80,106,5,273
127,63,77,-89,13,348
127,63,74,86,14,391
-119,72,78,262,-19,397
-115,79,83,358,46,301
-128,85,87,176,-239,329
-122,117,115,-555,-236,497
106,-124,113,-698,-128,411
116,-112,93,-370,29,91
-108,-103,66,-166,174,-348
-103,-105,56,-255,40,-561
-90,-117,40,-314,133,-629
-87,-127,27,-212,-81,-510
-94,-120,22,-390,-202,-401
127,-111,18,-637,-348,-255
-119,-91,22,-943,-531,77
-99,-73,58,-681,-429,210
-72,-104,44,919,335,-4
-107,111,-37,-2974,-316,-5145
37,-13,71,-3851,493,-5858
-34,-23,-98,1357,-2069,-7583
-68,-2,5,-260,-3793,-7152
-12,-17,114,1509,-3320,-6223
-74,69,-63,2038,-3386,-4255
-31,7,-82,76,-2004,-1926
-75,51,-86,-1108,-478,474
50,21,-123,230,1887,1300
44,97,-74,834,2906,2500
-75,-65,-2,41,3955,3595
73,72,1,-378,4282,5670
-113,114,67,3031,4142,6111
49,125,-16,1419,4171,6041
35,98,-1,-670,1563,5801
62,-82,-110,-383,278,6040
-105,59,18,-911,-224,6332
-96,-46,65,-2011,-1538,6471
103,-24,61,98,-2084,1634
-12,58,-125,3740,-439,-2081
-63,-6,-83,2956,168,-2114
-61,-78,-6,726,494,-1503
-2,95,-19,157,291,-1403
53,6,-61,139,38,-1766
107,10,-47,-1256,-89,-1558
-118,-58,-75,-793,69,-1672
-108,125,-116,577,521,-1749
-118,127,123,660,380,-1027
-117,-94,-126,-142,-282,310
21,-45,108,-947,-328,531
91,-43,104,-787,-570,1470
-120,64,120,-1018,-195,2168
-124,115,81,-203,453,1697
120,-96,26,647,434,580
102,-90,14,709,93,-551
104,-121,30,301,-230,-684
105,-128,89,-744,-105,-317
103,94,72,-215,25,-281
-120,88,50,239,39,-405
-126,111,51,-149,-70,-549
125,93,33,-17,-174,-671
-110,68,35,121,-325,-429
-80,74,62,27,-236,-6
-68,71,64,250,5,54
-78,60,69,631,36,198
-89,67,74,486,273,441
-79,68,52,457,122,711
114,104,41,23,-55,667
109,119,59,-656,-477,882
-100,-104,54,-814,167,823
-15,96,56,681,354,-7501
-79,-104,-87,-1360,-2632,-6724
86,97,125,-2788,-2819,-5534
-84,14,-46,465,-3622,-6367
77,-86,-92,2058,-2698,-4931
-56,34,106,2377,-2763,-2701
-108,-13,-124,584,-327,-257
-19,-50,-126,-1362,1183,914
122,40,-98,285,1127,1831
-53,-23,60,1160,1820,2274
-74,-8,5,252,3395,3901
78,51,-120,-814,4666,5399
38,5,123,2211,4449,7541
14,116,-63,3018,2816,4196
-64,-127,38,1978,2558,3283
75,-103,18,-3835,1400,4285
113,67,31,140,-598,3490
24,106,-94,-310,-134,987
-67,-86,-38,-1968,327,3416
-40,115,-121,-566,-109,2793
-102,92,-68,1201,-1577,1831
-119,-36,-17,-284,-10,621
69,-80,-90,-531,645,-816
49,57,-125,615,200,-1129
59,63,-105,292,153,-1048
92,60,-122,-190,510,-1226
114,5,94,236,432,-1683
-112,-20,102,128,-18,-1597
-87,-33,120,-80,-410,-1237
-99,-33,95,72,56,-112
-126,-9,102,-12,-32,431
-126,10,79,366,-68,607
-123,28,80,484,-264,887
-126,68,111,0,-578,741
120,92,106,45,91,822
-100,59,59,1404,248,412
-68,84,44,1402,43,449
-115,-109,81,-451,-213,282
121,117,78,-1078,-337,103
127,74,77,-252,-138,-3
-84,49,88,851,93,-203
-53,63,96,931,556,-446
-57,47,73,750,259,-608
-67,24,80,202,176,-512
-73,16,79,-326,189,-242
-81,-17,64,28,64,214
-61,7,69,-57,176,727
-62,34,51,-43,-9,847
-102,76,53,-344,-98,717
-88,103,64,-656,-87,598
106,60,-60,-2990,621,-4793
17,-105,-68,-4129,958,-6256
83,-42,127,-1520,57,-6386
-99,-29,4,-2946,-1455,-7606
52,-106,-74,-857,-2498,-8934
-84,-99,76,2347,-3849,-6800
-60,11,-91,2806,-4075,-4967
10,-13,89,694,-1709,-2256
44,-92,52,-64,1034,10
-120,-30,-49,-490,2778,2274
59,58,-55,166,3276,3954
-62,-14,-119,-391,3451,5414
12,70,-16,392,3337,6551
-71,-113,44,5131,2935,6873
30,54,-13,1667,3231,7649
-60,-31,78,-1323,2433,7496
-117,0,1,-1424,-261,8859
103,39,96,-2004,-2859,2679
-126,96,112,6272,0,-2880
-36,-38,-104,5134,-95,-1180
13,34,-73,-847,1088,-66
9,86,119,-128,-541,-218
68,24,-105,1196,-214,-1147
60,-24,-43,1490,-13,-1143
57,-8,-12,-90,-302,-790
78,-14,-54,-425,-709,-556
87,-39,-79,-324,-850,-409
79,-33,-87,-337,-343,-156
65,-20,-100,-397,-238,84
68,11,113,-587,-373,340
58,47,80,-1053,-917,750
52,56,63,-36,-791,722
71,112,121,-673,19,-56
56,88,83,-957,-37,6
56,68,48,-623,-187,142
97,93,27,-473,-73,306
118,-128,29,-389,18,320
71,-64,62,-1160,73,50
40,-104,48,-795,-352,65
58,109,28,-54,-436,525
52,-79,35,-132,-158,525
52,-34,9,-365,-71,214
73,-22,-2,-441,-195,139
100,-10,-6,-481,15,-166
104,-17,1,-492,85,-330
101,-51,-12,-65,37,-386
101,-40,13,-350,13,-162
97,-42,46,-216,-9,-79
-115,-47,77,215,151,93
-120,-36,75,233,88,-76
90,-33,121,-1254,1729,-6347
113,-60,-27,-1647,-60,-7221
-82,49,13,566,-3132,-6998
-33,72,52,-516,-4668,-6710
34,-53,-92,4406,-5889,-5823
69,21,-60,757,-1817,-2047
-76,126,13,-408,-59,-45
-71,47,-72,-1078,827,1241
51,-39,-35,662,1691,2435
106,-21,-110,153,3988,3030
103,-42,56,1319,5139,4286
-71,55,-122,2913,5268,5957
57,-80,-3,-889,4450,6063
-112,-111,2,367,2654,5693
-83,56,-111,-3190,2774,7071
64,-13,-81,-4023,-1632,8569
-4,44,73,-1094,-3300,678
-125,-93,123,6943,-540,-2799
-11,103,-56,5591,43,-848
63,-88,-6,-328,1020,-341
118,-63,-81,653,320,-126
-117,40,-91,2277,-817,342
70,-27,42,-863,-622,628
43,-73,1,-313,-124,162
72,123,-15,1024,34,-115
-119,126,-69,953,189,-346
88,-83,22,-547,-552,517
66,-54,-30,-1039,268,1
62,-101,-77,60,170,-244
-85,-118,96,680,483,-512
-122,-88,-117,-56,-531,-167
63,62,-126,-2270,-22,-471
101,51,61,-1315,-362,-1215
-90,-75,13,1130,-77,-1011
119,-109,55,1191,-724,16
111,41,60,-1993,-194,601
72,95,39,-2744,-834,451
-104,65,114,-179,619,-282
-66,96,-33,-258,-264,332
-116,-99,83,-372,-547,242
108,-60,24,-1140,107,-286
90,-112,-27,-149,59,-338
-108,-95,-23,181,145,-175
-115,-95,-21,308,-281,-201
114,-103,2,-280,-236,157
-72,-120,99,541,450,203
-22,-53,-90,1412,414,3
-107,5,127,-1118,65,-847
118,-44,82,-1275,380,-266
-126,76,15,2105,427,416
110,-66,-88,1714,2474,-4139
-71,122,25,-530,1969,-5639
58,-20,104,-1515,319,-6697
16,-35,-11,-2183,-1642,-6760
-44,24,-125,-4902,-2805,-7249
112,84,-45,-4417,-1129,-7509
-108,88,63,6691,-90,-6820
-81,-96,-7,2292,-2046,-2450
-1,-7,-94,-3015,1246,756
29,14,66,615,1124,2069
119,25,36,819,1851,2853
20,46,-74,560,1932,3914
-33,71,-94,309,2597,5122
-41,67,21,781,3302,6642
110,-12,-98,1109,2518,8422
37,21,124,163,888,8789
-5,14,57,-2418,-1278,9008
-88,-44,-95,-2580,-1752,4733
-82,31,57,1288,-1589,691
72,115,54,2197,-101,-1518
-12,11,15,574,-292,-1672
79,-126,-36,-139,1109,-1249
108,55,-23,-439,636,-426
95,-6,-17,720,-5,360
64,49,-62,810,-222,556
71,100,-87,-234,-144,53
104,103,-104,-596,-111,34
119,94,-107,-447,46,-34
125,59,-115,198,80,-20
120,75,-111,236,-120,2
126,103,-114,9,-209,-237
-121,101,-120,-22,-197,-380
-127,90,-128,-104,-141,-188
127,85,-126,-67,-55,170
-125,110,-126,384,-151,119
-114,-117,-125,132,-108,9
-111,-116,124,-74,-39,26
-117,-122,114,48,-138,52
-116,-107,115,-197,-138,70
-112,-106,103,-114,-70,41
-105,-102,97,-56,-117,34
-102,-100,95,-76,-84,-8
-99,-102,95,5,-12,-8
-100,-103,94,136,-41,44
-94,-94,95,127,-40,51
-90,-85,98,36,-31,24
-86,-85,97,7,-35,29
-82,-84,96,-38,-19,33
-82,-84,91,-11,-16,21
-81,-84,87,34,-40,46
-26,127,54,-3988,-2001,-3789
-109,-32,115,-1874,-2782,-5856
62,21,-47,-2394,-3804,-6560
16,-34,21,1658,-4253,-6360
5,49,-35,4021,-4234,-3887
79,15,61,706,-808,-984
35,42,-29,468,3216,761
119,-58,58,784,4167,2212
-63,21,-42,904,4600,3721
-16,63,-60,1554,4879,3799
69,31,-52,199,5261,4639
52,9,-111,1342,3483,3368
-115,106,-68,-734,2469,4003
-53,29,53,-1142,778,4866
-64,84,82,582,-123,3005
-115,107,15,-165,330,2732
38,120,-125,-1096,-300,1637
23,-11,-108,-876,161,1454
13,92,-119,1442,-6,866
39,121,-118,1816,275,108
42,-75,-85,-450,-85,-157
51,-113,-104,-2068,-148,-231
69,65,108,-1237,160,-471
93,12,71,162,397,-844
120,25,60,494,123,-784
-120,36,54,62,-653,-425
-93,7,38,172,60,-488
-121,-23,38,448,-15,-577
-124,-33,43,196,137,-14
111,-15,63,-143,-244,728
109,28,57,-400,-305,1056
97,56,67,-430,-351,1131
119,84,73,-283,-90,1090
-125,115,55,101,-80,847
-127,-113,38,116,-254,449
109,-103,0,-74,-530,233
114,-113,13,-191,40,-165
99,118,-2,92,377,-674
127,88,-19,397,332,-931
-111,81,-18,174,308,-866
-116,53,-11,153,48,-603
-109,41,6,247,116,-258
-119,19,5,712,-294,292
-98,90,33,-233,-358,896
-90,104,14,-225,16,549
-110,53,-16,810,-11,-117
-104,70,9,568,-129,178
-106,78,12,108,177,332
-128,80,-9,29,-321,467
-110,-124,-5,-560,-294,622
3,-116,96,-1969,-1077,-6733
111,29,-77,771,-2083,-6879
-102,-102,-90,3518,-3801,-6933
-9,112,-91,1115,-4231,-4898
94,-107,28,1929,-3241,-3518
-122,32,-99,702,-1660,-767
1,69,-116,-353,1919,1180
14,-41,79,-1311,3051,2081
-41,-53,82,-219,4403,3427
-31,106,100,-1333,4778,4677
104,20,-25,-1486,3679,7010
60,-100,-53,-2687,2859,6934
91,-118,82,995,2622,10860
-24,1,20,218,-121,6504
-19,-80,-113,-5033,-4000,2794
-64,-36,113,2084,-1253,488
78,-17,29,4823,230,-571
71,4,27,1876,847,-397
27,-112,8,900,51,-464
41,59,-3,-140,-135,-827
94,-6,-4,-339,-218,-853
-93,-49,-6,-20,-27,-576
-54,-43,0,-12,37,-875
-30,-46,-9,-230,347,-872
-43,-67,-75,154,402,-581
-79,-46,-89,-68,161,-40
-106,-11,-104,-559,0,421
-90,1,125,-305,-31,633
-74,35,-124,-247,-235,688
-56,87,-108,-455,-166,515
-70,74,125,234,16,-14
-86,48,-118,488,-258,-140
-68,64,-105,-309,-193,307
-75,57,-121,-95,-311,646
-56,124,-77,-500,-537,863
-91,97,-121,7,-383,-14
-49,91,-113,149,-19,-60
-60,53,70,347,855,-483
-125,31,74,360,-278,258
124,-119,-125,-1731,-558,1277
92,-91,72,-1537,-255,651
-118,-106,63,-53,-304,142
-96,-39,83,-667,-166,-160
-87,-45,53,-256,146,-593
-67,-63,29,239,309,-842
-38,-64,14,143,13,-832
-40,-83,37,380,-148,-829
-16,-100,72,475,91,-825
-20,-115,111,338,-175,-634
-46,-104,-117,-350,-177,-348
-5,-31,-62,-637,1518,-6327
126,60,64,-570,-2003,-6146
117,-82,-78,-2571,-3334,-6332
-90,-116,31,-729,-4333,-6140
-50,-47,-84,826,-5301,-5494
13,-53,-41,1393,-4102,-4589
116,-122,14,1868,-3690,-3374
-41,84,-36,-436,-1348,-1546
-39,64,10,-702,1684,-496
57,41,-102,-17,3328,1559
93,41,-128,826,3837,2952
74,-93,109,466,4396,4065
-45,-67,-34,1094,5153,5278
101,125,41,1857,5573,6487
-118,-72,69,-666,6129,5472
12,-18,8,-417,2020,5392
-8,-89,29,-3421,180,7155
127,83,82,-6638,-1392,6502
-77,-8,51,-1118,-2994,3281
-121,-9,-116,5891,-1080,-932
55,-94,-81,3784,636,-1627
-57,73,-98,845,749,-2384
31,69,127,1271,-7,-2513
118,-39,-66,1148,-806,-2334
111,117,-28,760,-430,-1311
118,-59,7,-1444,-393,-371
-116,-64,-61,-1459,-254,-273
-105,-54,-90,-658,-281,-177
-121,-34,-120,153,20,-211
123,16,-119,-394,-62,32
103,45,104,-556,32,206
102,45,57,-176,-39,323
91,68,55,-96,-505,620
100,93,62,333,-269,653
111,-124,81,-158,-443,467
126,-109,78,-517,-458,287
114,-102,59,-808,-795,153
-125,125,-127,987,555,-669
118,-98,-100,85,-372,231
44,-89,80,-696,-540,204
68,-88,21,-1049,-248,358
106,-58,2,-1253,-232,397
104,-62,3,-661,-105,162
96,-80,-4,-265,-290,75
96,-73,11,-286,-299,198
99,-59,27,-521,-69,222
115,-67,33,-136,-85,160
120,-65,21,50,-92,43
125,-64,11,153,-34,25
114,-64,2,662,40,-85
22,115,-97,352,1065,-6705
-76,-21,26,-1318,-529,-6627
15,23,-112,-2178,-2199,-7561
-78,-98,70,-423,-3413,-8210
17,-3,17,348,-4008,-6627
83,112,106,1972,-3061,-4362
-95,-74,104,1204,-963,-1533
76,-73,-107,-1539,494,138
-21,-7,82,-204,1488,1396
-9,-102,-83,940,2313,3040
-107,59,27,-439,3385,4165
-22,-106,-102,-935,2958,5511
-106,-3,-58,1220,2385,6655
68,56,117,2899,3444,5921
120,48,78,-1386,2630,5392
86,-47,-107,-1713,-1662,6251
-110,-97,107,-1001,-3126,5528
-127,-108,101,-2262,660,3721
-120,101,-116,755,-1994,1010
112,-114,-54,6911,1499,-3686
86,12,95,329,844,-1942
125,-128,14,-3327,-554,-1074
120,-68,106,-111,44,-186
76,-52,72,1854,57,344
55,20,102,1072,-331,452
103,98,-113,194,-54,291
-117,118,-99,90,157,-15
-105,120,-101,-945,121,-127
-117,70,126,-1119,-91,-255
-118,46,97,-380,-79,-415
-112,57,90,143,-117,-119
-111,79,91,-29,-82,160
-107,88,97,93,-27,130
-99,98,107,412,-20,103
-101,110,115,367,48,29
-106,103,82,319,-129,168
-123,116,90,173,-218,180
-113,-102,117,12,-176,90
-101,-83,100,-477,-17,-40
-96,-104,68,-589,-141,-62
-86,-116,48,-665,-176,7
-92,-114,63,-487,-175,76
-88,-114,64,-84,-2,24
-84,-111,63,148,-102,154
-74,-92,65,194,-78,151
-84,-80,71,239,-10,12
-97,-82,63,-5,-118,84
-88,-77,62,-102,-44,113
-83,-75,50,24,-88,47
-86,-68,55,-238,-145,94
-75,41,120,-5565,1315,-6271
-93,105,-34,149,1546,-8365
11,-116,-110,-1657,-1260,-7694
31,-104,80,-1966,-1668,-7921
-89,-33,-57,1027,-2580,-6327
-115,-4,-79,4938,-2137,-3247
-77,-103,-108,-1216,-552,-719
88,-50,-32,-2403,228,512
110,124,-12,950,2479,1768
-52,77,-66,-789,247,1914
27,-96,-66,-1376,1606,2289
29,68,-28,206,3247,3855
0,96,107,-364,3784,5554
-44,116,-34,-25,5072,6377
-27,-17,23,3675,4783,7173
-55,96,86,-889,2856,8274
110,-114,-115,-4515,-3069,7577
-61,118,55,-1998,457,2980
-11,99,-104,6904,448,-2960
102,80,38,3298,263,-1886
-83,34,38,-349,1091,-933
-121,118,-28,501,-306,454
105,-60,31,-325,-30,461
76,-68,-4,182,159,-199
-121,-99,-8,884,-79,-259
-74,-56,32,-200,-473,-256
-113,-72,10,-690,-431,-357
117,-108,-12,-436,-674,18
-99,-31,-34,-1082,-302,296
-42,-30,-92,-83,-606,65
-90,25,-47,-590,-704,-77
-116,7,-74,-403,-28,-377
-85,-15,-91,42,-138,-85
-98,19,-103,-496,-156,-28
-83,32,123,-496,-228,-18
-128,36,120,-310,-215,-32
-111,47,110,-134,48,-22
-84,54,74,198,22,-6
-88,72,81,-95,-69,81
-74,63,70,309,84,77
-74,75,76,197,-86,202
-90,79,85,122,-78,302
-88,89,96,25,-47,445
-87,122,106,-263,-159,521
-62,-108,121,-419,-1,445
-61,-108,127,702,282,-202
-67,-84,-113,201,423,-594
-78,-121,119,-306,363,-436
-51,96,100,-748,286,160
-94,125,45,-782,-234,334
125,119,-32,-387,-1826,-6836
-53,95,-91,-953,-3432,-6124
-96,54,30,1515,-4606,-6102
-24,-64,107,2944,-3833,-4456
-60,-13,-39,1803,-2639,-1936
-112,-9,-49,323,-164,143
44,27,-83,-1464,914,1012
-42,10,27,383,1966,1573
92,-28,122,239,3706,2553
-13,-34,-9,-503,4978,3840
-110,58,9,-251,4855,5580
-22,-57,-89,-493,4524,6446
-72,116,-126,-1245,2798,6699
-105,108,84,2371,1973,8588
-3,6,36,-245,660,3587
9,87,-60,-3533,-1120,5616
53,-52,-121,-3338,-1191,4076
58,57,-123,2390,-1376,-732
4,-104,-71,4686,-720,-2369
1,-74,-23,1053,316,-2063
20,108,-49,-926,276,-1400
46,7,-79,-311,-303,-982
86,2,-92,-176,-285,-1328
125,-10,-110,-475,-119,-1476
-118,-54,125,-266,-397,-1069
109,-62,103,-341,-588,-634
78,-42,79,-863,-846,-2
50,-32,56,-861,-1101,700
33,-4,40,-782,-1008,1123
15,46,29,-651,-1109,1441
-125,122,126,2258,2180,-2147
118,3,-28,1590,-555,397
33,-115,50,-1199,-525,242
19,106,17,-1667,-442,634
34,94,-19,-273,-94,208
67,-120,18,-1,1,194
67,-116,0,-139,128,65
72,-117,3,-445,82,56
86,-121,29,-363,99,62
89,118,38,119,-5,79
88,-121,16,281,-42,66
88,-93,7,-58,-78,129
96,-83,2,-78,45,78
105,-92,-1,156,54,-17
112,-83,4,-126,7,18
93,-107,4,-160,-9,74
102,-121,9,381,-105,173
126,-80,11,193,-18,119
-123,-82,-4,-185,-20,77
-122,-90,-10,-219,53,-70
-31,72,-53,-1977,-573,-5718
-20,56,-49,-4051,-346,-8765
108,57,-39,556,-4899,-9260
39,-104,48,712,-4882,-4730
64,-57,49,856,-3593,-3393
-120,-80,-30,2099,-1755,-1576
98,125,-113,-404,646,805
57,63,77,-1195,2092,1627
87,62,112,644,3007,2651
15,29,-1,252,4536,3827
-19,82,87,-657,5468,6306
-73,96,103,2608,5718,7593
105,83,-34,-1185,3453,6720
72,64,100,-2441,-1879,5004
-13,-120,-105,-1414,-1917,4294
-73,-97,108,-2950,-2999,3663
104,-3,35,-1456,-1472,1642
5,-107,-5,8026,2682,-3993
91,67,107,-1291,-635,850
21,17,100,-1173,-807,244
8,-28,29,-334,-679,509
28,7,44,50,-221,90
83,77,99,-539,1,299
100,52,70,-579,127,-9
100,25,42,-408,-115,-124
113,31,66,-1052,-110,191
99,18,72,-428,-225,87
91,22,68,282,-200,72
103,52,48,339,-176,161
99,71,25,467,-256,92
92,102,22,109,-17,4
93,91,23,-250,150,142
102,72,25,-61,206,117
114,74,20,334,73,1
119,93,27,-54,89,76
125,81,26,210,65,23
-125,81,15,477,82,-78
-121,93,13,178,110,-9
-123,107,36,-84,55,14
-116,103,36,90,-91,87
-108,109,22,-244,-35,175
-105,99,5,-142,-77,132
-106,112,14,-142,-79,81
-107,112,16,-142,-26,106
-93,109,2,-131,-43,134
-99,-122,3,-143,-194,94
-97,-110,1,-463,-129,160
-97,126,-8,-321,-66,131
-89,125,-11,-161,-30,82
-89,125,-5,61,-10,11
55,-84,-113,-3539,205,-5436
106,-84,-2,-1716,-895,-7222
-112,30,46,-430,-1850,-6769
91,-2,122,785,-1845,-6713
40,7,-63,1601,2519,-5803
-96,42,-99,3145,-3397,-2691
-80,-97,33,-128,-1093,-1292
89,-79,92,-417,1147,580
-68,-81,3,621,1600,1920
-29,-20,21,-924,2234,2814
-24,4,2,-1289,2735,3668
2,117,-88,-1988,3782,5936
-122,-51,12,381,3127,7603
61,-101,-95,422,2531,7047
80,90,-76,-2290,-426,7840
111,-90,49,-1480,-1564,6622
-20,113,-118,419,-679,6421
74,96,-71,-211,-55,1800
40,-113,-56,2778,-2,-2119
21,124,1,3019,123,-1623
89,94,-10,380,654,-1347
106,-19,-62,426,-153,-768
123,-37,-43,-58,-118,-427
110,-29,-48,-372,-270,-501
-121,-26,-40,-380,-266,-542
-94,-45,-58,94,-37,-553
-92,-32,-58,-113,-233,-355
-102,-28,-78,-256,-269,-59
-111,-20,-96,-282,-249,235
-109,-1,-109,-182,-130,423
-110,35,-125,-233,-242,553
-108,55,-128,-188,-222,528
-105,83,121,-183,-210,429
-111,97,118,-151,-198,246
-112,100,112,-3,-99,73
-111,106,108,2,41,-55
-110,102,99,56,-41,-86
-96,98,88,140,27,-179
-93,96,84,82,15,-236
-91,93,83,-20,-60,-172
-93,82,86,106,-27,-65
-89,90,83,3,-44,117
-84,99,84,-31,-80,204
-84,110,84,52,-2,226
-82,123,83,-74,-7,267
-83,-125,76,-36,-58,253
-80,-118,71,-63,-1,217
-81,-110,65,-58,-28,175
-78,-103,60,-81,-75,108
-75,-101,57,-57,-91,25
-17,31,-57,1053,-2149,-7385
51,-97,-82,2663,-3989,-5963
-127,-18,-98,3306,-4003,-3857
-9,-99,64,774,-3059,-2540
-100,76,-58,145,-429,-1115
95,-53,119,-933,1367,289
30,120,24,-9,2467,1861
-97,-101,60,-266,3119,4006
97,-67,-96,-434,4214,4820
17,-13,34,-3616,3741,7220
65,-121,38,1761,3093,6062
-93,110,62,1698,1704,6812
118,-97,-30,-1287,524,5741
-22,78,-112,-4209,-1122,7941
44,49,116,-4103,-1699,6581
-63,-38,-56,3617,-1339,-631
11,10,21,5832,28,-3751
70,-108,-3,2180,1476,-1792
26,-120,-101,1838,662,174
15,46,-99,-1478,-423,697
64,41,125,-1741,-499,-657
94,-101,-122,828,-449,-879
101,-92,-73,972,-124,-714
114,-30,-54,-475,-12,-708
-120,5,-75,-1131,154,-815
-124,-62,-98,344,-240,-867
-109,-35,-81,509,64,-59
-117,29,-92,-393,-80,118
-109,56,-122,-498,78,169
-109,60,107,-94,52,-3
-112,73,105,-24,-100,38
-123,79,104,251,-287,-131
-117,79,93,429,-254,-187
-116,83,93,239,-230,-53
-116,99,89,-37,-248,95
127,109,91,-37,-252,115
-127,120,81,43,-58,18
-121,125,70,1,-25,23
-123,127,70,-155,23,5
-120,124,61,-162,-26,60
-106,-118,52,-298,214,126
-94,-105,54,-477,461,426
-87,-109,69,-349,184,358
-87,-115,68,-171,-217,94
-72,-109,73,-126,-110,-172
-78,-110,73,177,-331,-305
-89,-92,66,-3,-599,-186
-92,-54,55,-822,-479,-7
-100,-67,37,-653,-351,213
-101,-56,33,-334,2,272
82,113,-45,2165,-1935,-6324
81,95,30,-156,-5054,-6316
-94,67,-11,-566,-4392,-5661
109,-17,-32,903,-4676,-4704
41,57,56,483,-4353,-3523
-16,62,-81,881,-2331,-2240
71,-118,116,-64,170,-329
-13,38,104,-1076,877,550
29,-77,15,256,2321,2338
-17,-38,-118,-81,4570,3130
-72,0,-76,-101,5140,4883
-88,-118,-59,-434,5218,6446
-1,4,37,4872,4692,4759
62,63,89,-4183,937,5315
-45,-124,-110,-2174,-1642,5993
26,-56,56,-3386,-1193,4806
-2,25,52,312,-739,3401
-127,6,98,2583,-992,793
59,68,-109,494,-168,-1051
94,105,-77,1703,1636,-2371
108,48,-34,-767,567,-502
74,-63,-48,43,83,143
67,-62,-92,711,-160,239
104,12,-118,68,-125,276
125,32,-123,41,-56,2
-114,31,-120,-257,-96,11
123,13,116,-596,-23,6
109,-5,81,-173,-232,228
120,6,95,232,-173,162
-124,40,120,246,-94,261
-121,91,109,-919,18,153
-99,78,60,-392,217,-265
-109,56,13,140,179,-380
-99,-6,25,926,47,14
118,34,87,782,3,173
109,101,-70,538,-400,41
-83,-69,105,-838,-92,-96
-86,-109,12,-1016,-301,64
-97,-112,24,-1651,36,185
-99,113,39,-602,199,22
-103,94,66,-24,182,77
-91,85,42,608,-65,50
-83,104,39,596,-165,150
-74,100,42,940,100,-16
-61,86,47,1536,93,-79
-54,88,55,1422,61,-84
-53,86,80,1082,140,-89
-78,86,86,157,288,181
-63,76,77,124,297,300
-57,88,82,-13,39,441
57,11,-56,-3800,2495,-2644
31,9,17,1824,2384,-6212
-53,45,-92,-223,-15,-6515
-122,-54,31,-3061,-806,-6965
-16,-44,-55,-59,-1800,-7671
1,127,3,2643,-5377,-6337
70,-58,-69,-401,-3640,-5223
2,52,20,1666,-2125,-3901
-48,-12,69,852,-1232,-1059
102,96,-106,-1219,912,588
-85,-14,56,443,2445,2714
6,-107,83,-437,2510,4028
-90,-99,-80,-3441,2232,5160
127,-90,17,1056,1906,6715
54,87,-32,3722,1595,7222
-8,17,-95,868,2091,6076
-8,28,-16,-1249,-745,7022
125,-22,-94,-3618,-1409,6748
33,105,107,-3409,-1291,4823
-75,-85,-78,5263,-2172,-972
77,30,-31,5048,624,-2322
56,-4,7,512,339,-1128
77,-112,-57,-846,398,-387
60,-20,110,1194,-44,-248
65,29,-110,777,-1,-151
67,64,-106,-339,-295,-160
94,39,-110,-208,-352,-310
124,32,-102,-100,-254,-481
124,31,-91,-89,-274,-490
-127,31,-86,-262,-180,-432
-126,24,-102,-102,-17,-240
-123,28,-118,-81,43,-54
-123,44,110,-104,-10,160
-122,60,95,-175,-5,301
-121,71,83,-65,-70,380
-124,89,76,24,-118,408
-118,99,75,86,-49,357
-110,112,75,23,-117,312
-106,124,87,-36,-170,266
-116,119,90,217,26,30
-112,119,92,121,-40,19
-81,105,68,335,26,34
-112,127,94,-105,-225,125
-94,121,79,86,89,13
-116,124,89,187,12,-10
-107,-120,71,5,328,-364
-59,94,32,487,-160,-212
-82,121,62,-204,62,-206
-93,99,60,128,116,-262
-31,62,20,696,-274,177
-121,-118,-93,-1124,-275,-7543
127,38,-75,-2878,-1773,-7817
19,30,42,-824,-3166,-8250
-56,-111,-86,-51,-3765,-6744
-48,-18,125,3248,-3922,-5692
6,-62,-91,2104,-2890,-2743
-62,-52,-44,378,-203,-562
53,-108,-93,-1439,697,989
-104,-65,79,294,1640,1898
72,-122,-73,431,3482,2926
28,-108,-56,917,4204,4571
-112,80,88,43,4419,6209
38,-56,112,1417,4664,5747
-123,-10,-28,199,3295,5577
-98,-23,-45,637,2301,4556
25,-78,3,-2816,845,4787
39,-17,82,-750,-582,4158
-117,-85,49,1708,999,3654
18,-108,19,5542,-1375,2016
50,-84,19,-797,622,-290
-31,-72,-12,-258,-213,-621
0,26,-3,744,312,-703
70,4,-43,718,339,-739
79,-11,-41,91,-347,-745
99,-10,-34,-1163,-477,-609
109,-23,-38,-1197,-497,-343
62,-69,-97,-16,-124,-531
121,-52,-92,383,-65,-385
122,-33,-105,47,-445,-214
121,-1,-95,-647,-289,45
-122,-14,126,41,-68,-45
-119,-8,116,306,-171,3
-89,12,93,51,-337,309
106,57,-122,-777,-437,371
104,34,95,122,181,118
-101,13,68,1036,-375,598
115,90,108,-157,-5,726
76,91,85,272,54,576
77,120,51,469,-136,-23
-119,-94,70,-810,77,-618
-80,92,20,-94,-59,-969
-103,44,9,595,-52,-1074
-107,30,29,117,-325,-616
-108,35,54,-535,-208,-50
-91,33,55,-246,-127,297
-87,36,57,263,-26,463
-92,64,59,190,-102,706
-107,99,69,-470,-8,905
-122,104,53,-119,124,869
-115,109,37,255,227,758
-55,7,-97,915,1067,-6567
-14,85,-30,201,-876,-7713
96,17,83,-3439,-3680,-7341
75,96,78,1225,-3439,-6126
46,-9,125,-915,-3403,-4986
7,-111,126,-842,-3199,-5124
-41,-48,45,4405,-698,-2194
44,-63,-30,-182,-713,48
-84,65,-91,-2194,1776,1698
58,112,16,-994,2200,2085
29,-40,5,-5158,4074,2959
-26,-7,97,-578,4388,3800
-128,48,24,1302,2920,6490
61,-30,9,-1291,1896,7303
-42,19,-18,199,198,7981
115,-46,22,-3041,-652,8685
-108,-17,-72,-2469,-795,7183
76,-24,-104,4912,-4287,7878
39,-108,-61,-502,1270,4027
38,-114,-88,23,35,-1390
-49,17,-74,3753,-512,-1903
-21,25,-70,-188,777,-735
17,91,-93,259,-616,-870
54,28,-66,604,-399,-715
46,20,-66,-331,-258,-1610
39,-9,-77,-117,-332,-1333
-94,18,-113,-315,195,-1466
-83,13,-123,-146,-457,-1445
-117,19,-99,-824,-409,-1242
94,6,-114,-1203,-167,-689
79,9,121,-665,-113,55
80,39,92,-73,54,303
79,99,65,-120,-153,399
96,106,64,161,-131,546
-115,117,60,567,17,715
-112,-109,60,656,-85,527
121,-99,87,300,-256,401
116,-104,105,152,-67,381
122,-113,123,151,11,434
-122,-115,96,344,174,249
107,-114,94,-69,-152,172
-115,-113,113,-286,58,295
-98,-125,90,362,324,74
-120,125,63,365,132,35
-108,-121,64,-201,138,185
-105,125,48,123,111,150
-111,-128,41,194,49,83
-90,-120,42,-15,-35,87
-80,-123,37,51,-118,72
-82,-110,54,-118,-274,67
-89,-41,-57,-2608,-410,-5559
12,-47,39,-1684,-1272,-6259
-12,-5,-7,-1872,-3535,-6181
92,-82,73,-902,-4608,-5367
-81,126,48,-50,-4149,-4527
41,-65,58,1490,-2640,-4242
93,82,-101,2203,-2354,-2678
-43,109,47,-481,-367,-643
-113,27,-1,-490,2735,736
46,-59,77,654,3222,2524
-101,119,120,-1865,4023,3898
98,-88,22,-150,4653,5416
-10,-45,-110,-791,6540,5172
41,-113,113,1962,2852,5657
-16,-73,25,-2644,2427,3702
-9,-115,86,1670,1650,5761
-99,-116,-45,1108,1565,6393
16,71,-14,-800,1730,6201
25,11,-31,1293,-467,2087
-94,-83,-13,3091,178,1009
-34,20,60,592,-291,1014
123,52,-128,-794,-760,-37
-20,126,-98,856,-234,-1495
54,33,-50,1562,-304,-2247
108,-19,-6,1000,-285,-2296
-109,-91,4,551,-304,-1666
-104,-111,-9,96,-367,-883
-96,-119,-17,-451,-485,-476
-116,-122,-28,-726,-491,-318
125,123,-58,-552,-468,-66
123,124,-102,-359,-341,604
125,-94,-121,-507,-285,1127
124,-32,105,-647,-123,1479
120,42,91,-911,-89,1456
94,94,64,-839,-134,810
60,116,50,-760,-250,376
68,124,39,-809,-134,272
70,-122,15,-756,-269,123
89,-103,11,-800,-225,-76
95,-92,4,-889,-232,-321
53,-82,5,-985,-423,-420
52,-71,6,-1172,-238,-366
87,-68,-5,-762,-106,-218
95,-69,-15,-21,48,-369
100,-60,-23,166,98,-440
97,-55,-22,-171,-214,-283
84,-57,1,-372,-283,-55
78,-55,13,-363,-308,153
82,-37,25,-460,-224,252
87,-32,23,-114,-65,222
72,116,-110,-2027,882,-5375
74,-122,36,-594,-1945,-5407
-45,-52,-44,-1916,-2110,-6582
64,-15,-36,1358,-3480,-6232
4,9,-48,285,-7070,-8269
96,38,95,-933,-6920,-4379
93,-106,96,2103,-3888,-3180
-21,-14,-32,526,-1902,-1461
114,115,50,-1407,1872,-885
-4,38,84,863,3010,978
-100,87,120,164,2389,1561
112,82,4,-665,3624,4329
-3,-13,-121,-2691,4602,6674
-71,-93,40,-1511,5960,7255
-58,-20,-87,1684,3383,8429
-69,-126,69,-2751,1806,4974
-40,-49,122,642,-65,4028
-72,-62,-48,-1708,-1640,4392
69,39,-124,-3087,-280,2773
119,-117,-117,1913,-1004,306
49,2,-51,4009,-459,-1562
73,6,-34,807,581,-1205
69,-103,-86,-652,434,-722
66,74,-126,277,-138,-570
114,81,-128,71,98,-706
-93,72,120,-54,55,-1012
-71,52,114,31,-92,-1050
-62,46,127,-309,-26,-1011
-51,15,127,-90,1139,-2735
-21,54,-88,561,1372,-523
-50,35,-118,1255,749,405
-60,73,-97,372,-73,943
-39,104,-99,-674,-265,1158
-9,126,-109,-788,-110,764
32,-83,-86,-790,1442,-827
-7,-63,-82,921,1005,554
-1,-70,-45,1265,514,517
-23,-42,-19,-256,171,400
-69,-78,-60,-425,-67,204
-67,-78,-71,-437,-221,260
-56,-54,-73,-675,-317,237
-33,-12,-77,-378,-345,214
-33,-17,-95,270,-751,601
-40,-55,-113,75,-1339,188
-31,-41,-105,-1124,-546,-891
-51,-64,-115,-683,-256,-843
-46,-76,-110,79,-79,-550
-30,-74,-116,479,198,-305
-28,-70,-121,336,31,-40
-11,-63,125,263,107,47
22,108,-4,-1570,-1651,-6049
96,92,-110,-2994,-2318,-7961
-127,-14,-104,1298,-4071,-8123
115,-72,-41,1664,-4192,-5786
60,-51,92,1290,-2776,-3454
-40,-118,17,-352,-221,-503
-105,18,-102,-990,2273,1202
41,16,20,1283,2762,2337
-63,-35,2,-66,3513,4448
88,39,93,-211,3959,5133
-34,-64,-68,-254,4124,7387
-117,42,27,2259,3464,7412
8,49,125,-3072,2499,7743
-71,-72,-84,-3518,-746,8611
-116,-37,88,-69,-4291,8739
14,-96,-97,329,-2643,2109
61,62,-82,5496,-786,-3296
18,-12,-85,4637,801,-1318
-34,-22,-81,65,1406,-1051
-6,37,-115,1400,-154,-895
17,-29,-85,1865,-214,-901
52,-16,3,517,-464,-817
83,-42,25,40,-300,-834
124,-81,35,352,-135,-797
-114,-93,49,403,-16,-614
-128,-114,29,692,159,-481
125,-106,0,261,290,-197
124,-93,-35,-243,65,260
126,-84,-59,-193,145,476
-121,-82,-102,364,233,584
-115,-51,-100,224,2,713
-123,-15,-100,-182,-102,627
-127,0,-102,-127,-152,479
125,6,-105,35,-118,302
-116,23,-104,-108,-71,223
-127,26,-121,-164,-124,112
108,41,-123,-484,-280,107
113,54,121,-753,-322,102
117,66,113,-779,-282,131
116,105,98,-978,-375,73
123,-124,82,-1052,-210,-99
-124,-113,51,-773,-60,-380
-118,-95,47,-914,-234,-438
-107,-87,43,-808,-103,-478
-96,-86,28,-353,-43,-639
-79,-78,35,-362,-91,-573
-104,-70,38,-578,-250,-407
122,-66,47,-655,-306,-168
114,-53,62,-611,-229,139
127,-42,61,-360,-172,375
-25,76,20,-4747,2206,-2618
112,-44,-14,-3540,2108,-4419
-46,-95,-38,-901,1949,-4555
-7,127,110,-2095,1459,-5677
-73,24,-38,-60,686,-6280
-40,20,114,601,-868,-6601
-6,54,102,3319,-1261,-6555
-96,107,35,2018,-1159,-5041
-68,-123,-125,1918,-1042,-2504
-46,-55,114,-217,339,-674
67,121,73,131,1502,1961
23,-100,-62,-550,1842,3139
48,4,15,-1320,3219,4399
-32,28,108,-54,3696,6348
91,122,-50,652,3703,7100
-92,-127,8,-1402,2336,6622
0,38,-106,-3839,-1221,6173
35,-62,20,1355,-2145,4424
109,105,-39,990,-1351,4535
84,87,-9,787,-1004,4136
-115,84,-11,934,-514,1032
45,-43,-26,2304,139,-1133
48,103,-22,1814,425,-980
44,43,-34,445,161,-240
4,34,-51,-622,-61,265
21,15,-82,-672,154,12
53,-40,-116,228,107,-114
95,-10,-126,-304,119,-280
107,-40,109,322,30,-444
98,-25,122,103,-141,-401
118,-15,121,27,-84,-363
108,-7,119,85,-383,-300
95,-7,-124,203,-244,-274
-126,-34,-128,888,235,-155
-113,-14,-115,515,-296,363
73,81,-76,-1338,-343,512
86,65,-121,-1113,44,432
117,46,85,25,-3,495
127,116,69,-336,-473,622
121,-102,48,-893,-378,455
81,-107,30,-621,-297,147
81,-84,33,-757,-288,127
115,-68,37,-720,152,-188
127,-69,5,181,-109,-589
118,-46,26,-515,-204,-807
116,-60,24,-956,53,-726
-118,-115,-14,143,-30,-756
115,-106,6,-144,-341,-347
106,-75,30,-869,-247,49
-117,-84,23,-424,-132,271
50,-10,-53,-2515,905,-5475
-101,45,98,-1844,-1256,-5269
84,-85,-123,-3016,-1528,-6395
-50,-126,38,-3099,-2705,-7576
53,-124,-18,-240,-2487,-8707
-123,-45,58,4460,-4948,-5662
-48,-128,-67,2643,-5196,-2945
-87,-113,-109,864,-1918,-1595
78,-21,-44,586,226,-94
-15,65,119,511,1321,1228
124,40,66,252,1968,1982
43,20,-40,143,3212,2819
-117,97,76,172,4064,3502
-57,-31,-40,888,3380,3885
45,-13,103,3574,3152,3025
13,88,61,-1739,2519,2699
-70,-13,99,127,117,2548
-13,90,77,-726,33,3241
13,-4,-68,-483,128,2415
59,23,-59,-1835,341,2912
103,-47,127,-836,333,2785
-109,-34,-121,33,-32,2186
-121,-67,-83,710,-606,1352
113,-33,-14,-1104,-692,1096
86,-75,-65,-791,-272,572
79,-112,-97,45,-113,75
80,-113,123,-52,174,-369
91,121,98,-34,106,-622
119,99,78,55,144,-718
-120,69,58,228,68,-678
-115,62,61,148,3,-456
125,47,59,258,28,-300
113,13,43,874,-28,-51
126,10,54,743,-267,630
-121,75,97,-369,-472,1189
-123,106,91,-652,-467,1157
-118,122,85,-157,-408,889
-111,-118,79,30,-134,539
-120,-94,79,-140,-74,238
107,-110,46,184,-260,-189
109,-94,84,-616,-289,-45
116,-96,68,-636,148,-174
119,-115,42,124,117,-303
-114,-95,30,-132,176,-364
-71,-96,6,-104,12,-288
-67,-101,10,91,74,-482
-114,-121,12,324,35,-683
-105,123,18,173,81,-506
-78,104,11,262,88,-135
-67,103,12,217,-235,497
60,40,-15,-2597,-1656,-7286
-68,-119,-57,185,-3154,-6353
-27,51,-25,-411,-3549,-5782
83,-117,30,310,-4018,-5858
43,-50,-14,2243,-2847,-4093
-30,120,-72,2518,-1993,-828
126,-105,-62,-1995,32,834
26,-117,109,595,1931,1372
8,-100,127,996,2814,2494
-90,-20,-46,-339,3315,3726
-10,99,43,-562,3396,4926
-86,109,9,-1019,3893,4889
85,49,127,2399,64,4443
-87,-7,-124,1100,1525,4357
0,-102,-12,2022,1437,3085
21,-75,73,-538,1587,2997
-6,56,22,592,982,2373
69,-22,-116,-898,393,2484
116,-46,119,-2387,556,1880
-128,29,117,373,-526,1818
-96,91,-86,682,-211,1139
-102,99,-100,706,313,43
119,54,-106,652,-208,-606
107,29,-93,-99,-25,-660
86,-7,-112,-368,-142,-496
100,-20,-126,-222,-145,-363
117,-21,125,-71,3,-332
-117,-25,112,158,3,-232
-98,-11,123,57,9,-139
-81,-16,122,234,226,-91
-81,-11,117,236,230,112
-112,-10,112,393,329,187
-97,-25,98,756,247,399
-73,9,101,242,149,727
-79,12,91,303,87,715
-105,29,81,177,-129,618
-116,43,88,-214,-228,633
-114,46,88,-122,-201,598
-116,54,83,208,-124,355
-114,52,72,478,-146,-73
-75,52,68,27,-208,60
-77,79,76,-484,-378,-66
123,56,80,-29,-286,-614
-90,54,98,-384,-123,-457
-75,37,65,-11,55,-421
-76,41,52,-57,-134,-238
-73,82,54,-852,-117,90
-72,87,36,-564,-126,65
-51,108,33,-351,-22,89
-73,-128,26,-314,-53,-46
72,-86,-29,-1749,1132,-5406
125,28,0,1455,465,-7151
-31,-17,-45,-3771,-1657,-7088
-17,117,122,-1904,-2786,-7586
-118,-2,-33,-398,-3508,-7131
119,-83,-128,2026,-3241,-6324
-46,82,-118,3321,-3076,-5441
-45,-69,-121,1528,-1930,-1323
-124,-23,-16,-586,528,433
10,5,122,8,1750,2032
83,57,-64,-526,3197,3449
14,-36,-58,-1336,3897,5335
-74,32,-43,811,4615,6800
66,-23,3,4339,3667,6780
-116,-32,99,-797,3606,5720
8,-120,-57,-876,77,5319
19,126,-55,-1352,-596,5266
91,71,35,261,-280,5173
-11,90,15,2458,63,2546
60,51,83,3037,-59,-644
12,-44,-122,1970,-171,-1169
1,-112,-76,-61,390,-996
23,69,-114,-293,48,-1176
56,34,-111,-45,-53,-982
76,22,-88,-288,-209,-1115
119,13,-94,-280,-324,-1023
-111,-5,-88,-258,-132,-1125
-85,-30,-96,122,-19,-1138
-67,-32,-96,268,58,-923
-66,-30,-104,226,213,-549
-80,-38,-123,269,60,-69
-117,-44,111,610,-34,357
-103,-23,102,939,-169,825
-98,27,93,93,50,1040
-127,36,68,-235,-349,1064
-110,80,90,-992,-192,1162
-120,88,81,-429,-213,938
-102,82,56,411,162,289
111,87,71,324,140,-103
94,84,71,-183,36,26
-115,88,51,-501,-50,291
-124,84,43,-59,-27,165
-118,103,39,-149,-29,-106
-118,116,43,-337,-182,-282
-111,115,41,-539,-96,-319
-92,118,40,-522,23,-235
-84,115,35,-228,31,-270
-78,120,36,-177,26,-265
-64,127,39,-231,-53,-38
-90,-118,38,-326,-165,172
-111,-121,49,-341,-2168,-6850
-107,-72,-44,-1445,-3316,-6822
-83,-112,103,1737,-4134,-6721
-2,9,55,-154,-5090,-6587
-118,-127,111,2678,-3881,-4755
-127,-123,-120,2388,-1709,-1849
24,47,-31,-3100,2440,1441
36,27,2,2607,3501,1832
103,-113,91,-1322,3700,4351
9,-31,127,-1695,4189,5337
-72,-13,118,-1331,3146,7379
51,-59,30,1727,2567,5961
86,-111,72,312,987,4762
76,28,113,225,806,5136
48,22,-15,265,624,4554
119,1,18,-984,344,5434
73,90,16,-1017,-767,4310
-120,30,68,1984,-1513,24
67,-90,-104,3505,-722,-1101
25,127,-60,1621,480,-868
-11,83,-63,263,188,-90
-24,37,-76,508,-24,-88
14,31,-77,492,2,-663
83,40,-66,-290,-58,-958
-107,10,-89,-496,-2,-1318
-114,-31,-121,-218,-84,-1640
-97,-35,-118,-633,-263,-1321
-91,-42,124,-778,-304,-922
-87,-58,103,-245,-184,-653
-68,-59,92,119,106,-183
-93,-25,72,24,-58,357
106,13,70,-493,-427,552
-120,46,78,-866,-308,976
-115,55,61,-215,-52,990
-100,63,40,838,76,828
-103,101,48,525,-35,771
-99,-128,54,46,-16,578
-104,110,50,455,-101,140
125,100,61,430,-92,-30
-117,98,77,34,-41,-20
-96,95,79,-120,30,20
-91,89,67,-21,-49,53
-102,113,66,-364,-95,-38
-70,124,80,-620,-97,45
-48,-117,83,-595,145,-115
-63,-117,58,-346,196,-437
-85,-114,41,-544,132,-521
-93,-113,38,-741,134,-332
-86,126,18,-97,298,-243
-73,126,6,311,163,-130
54,-83,-54,-949,2920,-7688
-26,9,52,-1769,-1510,-8126
74,77,-14,-256,-1962,-8123
-105,-58,23,421,-2940,-8047
7,35,-53,2385,-3111,-6220
103,-41,-44,3364,-2658,-4132
32,-92,-72,-1076,-1373,-639
111,-78,-92,-779,1882,310
8,-106,-40,781,2382,2291
-85,-26,31,-197,3643,4393
53,-69,-106,-2445,3984,6313
3,-117,-96,-364,3188,8752
71,9,28,2203,1870,7818
74,-41,-104,-4098,-9,6641
27,-35,3,-1021,-2546,8991
-68,7,114,-1897,-2588,6939
-105,-82,-110,879,-2164,-2350
15,115,102,8196,68,-3974
69,-63,102,4055,1622,-2109
60,-110,-102,-488,1483,-635
6,28,-102,188,-500,361
9,-6,-106,573,-32,-155
77,34,-95,-174,173,-186
67,36,-89,-108,-356,-491
103,36,-71,-337,-27,-774
-88,32,-83,-601,-106,-739
-62,43,-99,-816,143,-862
-54,20,120,-356,111,-1013
-53,24,118,-323,265,-904
-56,8,84,21,434,-879
-81,-5,78,250,111,-349
-95,2,76,159,118,243
-70,26,79,-31,-273,1057
-102,65,84,-289,-469,1206
116,75,87,-30,-463,1059
-64,84,85,401,123,1195
-38,76,57,1417,219,939
-89,83,70,1402,-269,744
-64,-114,-112,-297,-165,976
-98,127,123,-277,86,535
-87,64,86,991,318,67
-79,83,83,493,300,-110
9,70,49,160,121,-28
83,82,92,-675,-683,-246
-85,85,105,-1078,135,-424
11,52,62,-129,247,-611
-38,32,79,672,-130,-543
-14,78,-123,-516,133,-187
-13,37,97,42,650,-358
-15,24,92,613,506,-320
-124,-47,-5,-4337,577,-5511
-44,70,103,619,1476,-7891
-106,-95,-21,2145,-3117,-7741
127,104,-51,-3864,-4448,-7621
0,-126,25,-3350,-4512,-6527
-108,-58,-63,1483,-4668,-5449
-15,124,-58,693,-2270,-4507
77,79,77,-375,-248,-1481
-37,-74,117,1262,252,-137
-31,95,87,-441,1607,2207
27,-117,-92,114,2030,3807
-16,-87,-23,1181,3701,4679
-71,-102,105,-420,3516,7234
40,110,-57,-576,3164,7815
-76,27,-71,-4595,-877,9325
63,51,-1,6405,-678,5948
67,9,93,4459,-142,5225
43,-9,-65,-4881,-1619,6156
94,12,-110,-100,-2304,103
13,-73,-84,5796,-444,-2362
5,-83,-46,3939,430,-2041
45,-94,-26,-195,847,-1321
62,8,-40,-470,-313,-571
63,-23,-35,27,-436,-465
76,-8,-20,-349,-83,-728
102,-21,-46,-473,33,-771
117,-33,-73,-305,49,-614
117,-23,-98,-360,-50,-412
123,-11,127,-387,-72,-259
127,-1,119,-337,-124,-118
-126,14,102,-276,-145,28
-119,22,99,-65,-128,189
122,40,106,73,-146,275
-123,52,114,154,-47,336
-108,58,114,307,17,364
-107,68,117,346,35,396
-112,82,121,93,-2,431
-106,83,116,180,67,418
-110,94,109,98,69,349
-113,105,96,-73,-6,281
-107,118,85,-323,-33,228
-97,116,73,-68,-39,108
-98,122,70,22,-57,-29
-101,126,72,-71,-110,-126
-94,126,78,-216,-166,-115
-89,127,81,-215,-154,-131
-87,-126,82,-225,-171,-121
-83,-122,77,-160,-90,-144
-81,-119,71,-138,-90,-120
-74,-116,66,-141,-90,-49
45,-51,52,-3564,-438,-6059
14,4,-56,-1641,-1045,-7984
62,-47,-18,1344,-2312,-8587
-121,-72,125,2221,-5111,-7411
41,-123,83,2222,-3846,-3920
-4,122,15,-781,-2394,-2038
125,-94,-5,-156,559,528
-45,73,-87,-1188,2034,1798
19,-65,-97,1,1501,2441
15,-90,19,499,2290,3658
-22,-117,-106,926,3152,4387
-58,-16,-3,291,4503,6521
-126,-4,7,3708,4228,10065
-81,12,72,-3635,-2115,5423
-58,-53,65,-2266,-1278,3904
-108,-90,-77,-279,-1801,3728
-43,-24,-108,1717,1684,2562
-22,-40,31,4293,1273,1643
-95,66,50,2518,-354,1011
47,90,-94,-776,-865,-286
49,-93,-95,353,-54,-1027
74,8,-98,1974,395,-1560
110,3,-100,1558,390,-1233
121,5,-70,466,-89,-545
105,-24,-65,116,-175,-49
120,-21,-64,-71,-38,20
-123,-3,-83,-353,-127,124
-110,2,-101,-322,-82,187
-111,4,-122,-69,25,241
-123,29,115,-126,-103,345
-124,41,105,-102,-111,399
-124,55,104,-42,-135,395
-121,75,104,-23,-111,303
-116,86,105,-62,-127,174
-111,89,107,-17,-91,74
-109,93,103,-56,-43,-3
-108,90,95,6,46,-91
-103,90,86,-1,-24,-93
-94,91,77,-57,-29,-81
-92,91,75,-61,-57,-71
-91,91,71,-30,-76,-26
-87,97,72,-65,-113,72
-86,102,73,-55,-96,139
-84,116,75,-95,-90,161
-79,122,74,-55,-78,193
-79,-123,70,-52,-51,179
-79,-118,66,-15,-42,154
-78,-114,61,3,-6,123
-75,-103,55,-98,-79,109
-73,-104,54,-23,-58,56
-71,50,108,-2263,198,-7417
-34,86,6,-752,-1954,-8175
-59,33,20,-380,-2637,-6963
124,-39,111,1643,-3881,-6438
0,-19,31,2768,-3164,-3985
-87,97,-119,1971,-2007,-2163
89,77,-35,-14,117,62
-22,-27,-126,-1538,1562,1544
-91,-43,-92,94,1871,2274
124,-29,-29,208,2800,3367
-1,32,-74,-1044,3245,5318
-61,-49,-51,-1016,4060,6389
50,-31,-115,3320,3389,7506
-28,-117,78,1930,4524,7166
-43,-115,88,-4428,123,5411
9,70,91,-2846,-2241,5492
34,115,-126,-132,-1517,5637
-125,-51,-108,318,-1323,-35
36,-41,-57,3382,-1120,-2595
79,106,-63,2412,813,-1971
44,64,-52,346,666,-998
-2,-28,-55,516,-234,-111
52,-56,-79,150,-78,-259
97,-29,-87,-528,-183,-335
123,-56,-114,-119,-220,-231
117,-11,-123,-492,-258,-319
116,27,124,-808,-238,-426
98,28,112,-440,-128,-497
102,27,-115,-415,125,51
97,28,127,108,-105,174
-128,73,93,274,-122,83
-97,-121,116,-123,455,-113
-127,-113,127,-279,-201,-302
116,-126,120,-415,-746,-152
-125,114,69,23,-953,206
94,-115,22,-235,-1078,188
54,-127,-9,-421,-1484,446
13,-122,-50,-952,-947,698
28,-103,-47,-1144,125,600
87,115,61,558,700,-356
109,-106,92,221,-355,86
121,-92,21,-99,-347,185
80,-95,-8,215,-132,147
43,-85,-35,234,-20,36
47,-75,-36,312,25,-83
80,-56,-19,100,200,-93
103,-75,-12,-148,310,-100
123,-101,-8,126,339,71
118,-115,-9,352,8,43
-122,-109,6,472,204,-171
-68,-30,-18,-1529,-1685,-5685
28,-95,65,-62,-3129,-7174
-44,-87,79,-449,-3951,-7409
-56,18,1,4228,-5770,-6059
-126,-42,-99,-2021,-4086,-2912
45,107,-36,260,-2143,-1134
-83,114,-42,-2562,1546,1148
-48,117,-62,859,2554,1859
-102,39,-41,-629,1845,2772
-112,15,-74,-1322,2572,4269
28,34,90,-42,2620,6155
-115,-7,21,-936,2804,6291
-126,-71,31,2029,660,4139
100,117,5,-2424,-1153,4257
44,117,117,-852,-1332,3643
106,30,-25,890,-950,3386
-51,2,-58,188,597,3753
67,-77,66,2853,776,3272
29,-32,42,3753,639,763
66,-62,-95,2856,-190,-1037
67,68,10,586,635,-817
74,-29,-53,377,195,45
94,-84,-70,677,-268,716
72,-30,-39,109,-108,993
53,-13,-45,356,-264,758
82,18,-22,209,-253,678
126,28,-41,355,186,283
126,27,-48,405,54,-243
-117,-16,-39,80,104,-546
-107,-108,-52,1034,450,-799
-81,82,-73,1348,292,-552
-26,105,-73,224,-41,231
-73,112,-105,242,-501,334
-71,-126,-109,589,224,185
-75,112,-126,1283,198,-101
-60,-123,-99,718,197,18
-39,114,-99,761,93,139
-23,118,-93,593,71,245
-75,125,-77,312,-64,377
-84,124,-75,96,126,564
-76,110,-103,446,176,812
-89,126,-102,675,248,980
-101,-107,-83,191,1183,305
-96,-67,-97,690,671,397
-93,-82,-111,1000,-199,251
-113,-19,-60,-1230,-508,348
-120,-60,-92,-1035,-476,196
-125,-101,-115,-219,-109,-140
-113,-81,-112,-449,-143,40
-83,-30,103,-830,23,0
-37,-74,124,-1680,-1956,-7451
8,-100,17,-1374,-2646,-6680
-1,-3,30,168,-2697,-5014
33,109,-44,569,-3690,-4431
-123,127,-22,1687,-2117,-2651
-100,102,35,784,-1233,-1238
-96,-8,-69,-1186,627,794
-62,-15,67,-261,1604,1311
105,74,36,-361,1476,2301
35,64,-58,-244,1621,2790
-110,-69,99,2368,2145,4456
-19,36,-9,3260,3457,5654
-47,-118,-126,2316,3267,4261
-7,89,-80,-349,2731,4232
85,-85,-27,982,2583,3172
-125,122,0,268,1715,2832
-117,-94,89,234,1465,3426
-82,-106,119,218,496,2965
-48,-117,126,-223,207,3010
122,-58,-83,-657,-1001,1957
88,-63,-82,-199,-57,211
53,102,-77,1006,-173,-510
40,3,-62,1042,14,-408
45,1,-61,-65,-130,112
57,7,-91,-609,-175,-72
74,-13,-104,-258,-212,-155
82,-29,-114,141,-82,-272
97,-22,-117,150,-70,-366
107,-49,-112,209,-105,-99
99,-17,-110,-381,-156,101
107,-10,-127,-215,-77,160
107,17,117,-211,-46,163
107,53,95,-251,-122,155
108,60,84,-232,-101,185
113,93,79,-299,-79,84
112,92,77,-27,-114,-81
118,70,82,127,-45,77
118,91,87,-73,-68,132
-128,93,81,65,-14,66
-123,100,79,7,-34,65
-119,100,73,49,15,69
-120,108,66,20,-41,64
-114,107,65,18,-31,121
-107,119,57,20,-44,83
-104,119,61,23,-76,107
-104,126,63,-46,-43,92
-101,-125,64,-33,-63,116
-97,-116,60,-50,-40,71
-92,-115,57,-22,-25,73
-93,-109,54,-41,-35,42
-122,-34,-125,1327,2060,-5659
36,106,14,395,1723,-7021
-46,89,112,-1651,-1341,-7274
-50,-48,109,1866,-2948,-7889
-76,88,-17,-1490,-5885,-7268
30,69,-74,2196,-5639,-5124
112,-79,-84,2521,-3709,-3735
22,118,-54,764,-134,-1595
-63,-36,-71,-1214,208,213
-13,-94,57,-254,2002,1676
-72,19,6,-625,1895,2735
73,102,-81,-1209,2342,2973
-44,-24,80,1552,2913,5316
81,101,-14,2161,3785,6270
-128,-89,-80,-3,2830,6145
-21,-81,124,1101,2525,7571
8,-100,10,-507,1051,4882
16,-20,48,-599,1051,6911
-126,111,74,-697,-963,6566
-37,93,-100,-1154,-1179,459
-2,26,-62,3875,144,-3246
12,-127,-28,2809,299,-2083
8,54,-22,-140,-52,-389
-31,4,-47,-630,-611,777
24,41,-65,-595,-542,189
85,35,-88,-353,-561,-386
63,9,-87,89,-1093,-642
70,-37,-100,285,-606,-825
87,-56,-108,-34,361,-428
92,-50,-123,-189,220,-193
102,-47,108,6,74,-114
101,-32,89,51,78,30
99,-5,80,-143,100,261
97,56,76,-478,-121,473
89,99,71,-681,-27,350
79,104,57,-154,-57,40
86,98,56,360,-141,106
101,122,88,102,-69,313
116,-119,104,114,70,214
122,-100,102,-4,25,-96
-111,-96,100,-461,52,-238
-114,-111,87,-455,163,-335
-110,-128,79,-1,224,-323
-101,127,60,217,269,-394
-94,-111,56,-189,103,-392
-87,-119,55,-240,49,-300
-92,-126,48,-89,51,-204
-87,127,47,105,21,-15
-91,-128,48,262,-71,138
-89,-118,68,195,-113,350
123,2,41,3303,-172,-6421
7,-91,44,-998,-1942,-6405
-42,-1,-111,-2518,-3194,-6418
9,-63,-111,-731,-3608,-4703
-18,99,-100,-581,-4556,-3990
118,-98,-42,509,-5138,-4612
-80,116,48,3703,-3148,-4827
-41,-33,17,2764,-1838,-1976
-56,35,14,-1520,-442,-716
-105,-82,-64,-876,2287,1149
78,105,-93,318,2930,2543
105,49,-54,-2441,2367,3588
-97,77,124,-2688,2159,6405
68,-112,-59,1346,2486,7113
-35,-4,124,1977,3407,6727
-29,-99,-123,115,1968,5495
52,-58,-17,999,729,5428
122,39,44,790,793,4917
-49,40,100,108,-432,5280
5,-69,-98,-856,-699,2151
42,87,-74,1331,-791,-1225
24,-67,-43,1862,-142,-1549
14,61,-39,1017,72,-1177
48,-11,-46,663,-18,-449
75,-5,-41,-399,-258,-404
91,-31,-47,-445,-258,-424
109,-59,-62,-2,10,-424
113,-41,-81,-159,-27,-242
115,-22,-102,-318,-46,-111
114,-12,-126,-146,-2,75
112,19,118,-260,-169,182
113,50,103,-484,-291,161
113,56,88,-394,-247,192
110,55,94,43,-130,258
118,87,97,59,-83,198
122,104,102,-95,-181,188
-128,108,110,-24,-99,94
122,107,105,54,-33,52
-128,113,103,-22,2,72
-127,116,84,-2,-115,64
126,121,76,-68,-404,-115
-124,116,60,78,-165,28
-116,126,63,-106,186,125
-121,-127,60,-54,-79,76
-110,-126,66,-42,-33,63
-111,-118,65,-69,-38,101
-107,-113,67,-95,-116,143
-82,-97,74,-113,-19,139
-85,-109,67,174,-53,148
-122,-84,83,-319,-80,216
-89,114,49,360,1929,-5736
-35,-108,121,11,416,-6771
-49,-63,-20,-1537,-2010,-7109
-13,-78,87,-1930,-3444,-7693
20,-26,123,1040,-5190,-7820
88,-100,7,2114,-4275,-5067
39,-14,108,1186,-2468,-2165
15,44,-117,-946,452,-315
-103,29,-10,357,2412,1326
-4,91,85,102,3053,2087
87,-30,-30,-1157,3127,3924
-86,65,47,-829,3050,5497
79,111,74,-1393,4453,6139
80,-87,-89,7587,3152,7113
65,-82,-84,-1647,4718,5107
-128,48,24,275,106,5343
79,-56,-55,3772,499,5202
94,-90,-58,-1008,1330,4022
115,-31,73,3337,932,3377
-128,32,-116,2635,-663,56
-14,-85,-1,974,58,-1512
11,-8,-21,1002,385,-1088
-2,-110,-30,1083,74,-92
20,-74,-21,-84,284,744
33,-44,-55,-82,54,293
74,-48,-48,746,384,-264
68,-70,-33,1291,84,-1090
86,-50,1,-236,-52,-978
92,-84,-5,-703,-200,-605
91,114,-42,-75,-286,-674
114,127,-69,640,40,134
114,-75,-65,-73,159,358
109,-59,-91,-38,-34,416
120,-52,-109,241,190,282
-116,-54,-124,452,104,168
-113,-42,-119,168,146,543
-128,-14,-99,-353,288,601
110,-29,-111,206,-9,461
109,-6,-103,56,-164,366
115,13,-106,-220,-240,408
121,36,-115,-476,-241,397
117,52,-126,-515,-285,207
116,74,112,-510,-102,-140
124,74,87,-374,-207,-372
-121,84,77,-555,-171,-486
-115,78,53,-426,-177,-580
-108,83,46,-402,-144,-635
-106,83,28,-425,-292,-545
-105,75,16,-280,-260,-247
-120,82,7,-254,-439,58
-44,92,74,-614,-1502,-6105
64,17,20,-705,-1860,-6824
-121,-2,-118,-687,-2044,-5429
-91,63,118,470,-2490,-4825
-124,27,39,1702,-1163,-2740
6,87,87,-350,-508,-433
-1,87,94,-173,1567,1073
70,109,-56,307,2297,3064
-30,-94,2,167,3707,4343
75,10,118,-771,2935,6164
47,-11,-110,2110,2407,7103
2,122,-104,-16,2369,6189
57,0,-81,-563,-194,7339
-13,-8,-9,-2272,-788,7630
0,-90,-3,-1724,-2261,4103
102,-12,-94,3677,-495,-1828
78,-26,-37,4812,1154,-2065
47,-46,-65,965,1002,-1212
47,-19,-126,1437,-226,121
88,16,-55,853,-173,212
93,64,-24,-303,-314,-189
-116,-16,-8,36,62,-481
-111,-40,-11,352,-138,-166
-113,-60,-49,743,-149,-172
-101,-77,-61,647,3,-128
-104,-72,-87,237,-63,-44
-102,-65,-106,-138,28,301
-108,-56,-122,-66,-104,326
-107,-35,123,54,-5,309
-99,-32,111,352,82,205
-100,-10,120,105,-26,198
-102,-13,-125,187,-71,320
-106,10,-119,-55,-86,363
-101,6,127,167,17,191
-99,28,121,-74,13,107
-98,14,109,99,11,64
-92,11,97,201,11,85
-92,28,99,-28,-8,63
-92,27,92,166,-43,-33
-79,28,107,81,65,-36
-70,32,96,-29,64,-57
-67,33,91,16,-3,58
-70,44,85,-112,-50,90
-66,50,75,-73,-7,106
-66,55,66,-16,-32,155
-68,72,61,-132,-80,141
-68,77,57,-29,-89,133
-78,99,57,-108,-164,85
-123,-37,121,-1258,-1251,624
-95,-29,-78,-2094,-692,99
1,-34,-81,-2799,163,-5193
94,-6,51,-2856,-394,-5394
-16,-72,48,-1667,-877,-6196
16,122,83,-2356,-1084,-6032
74,-100,-116,-76,-1342,-6161
-121,80,-34,4005,-1051,-6595
43,-40,-40,2824,-1348,-3596
111,-46,2,-709,-1283,-649
-119,-59,88,-864,235,229
98,-121,59,65,1831,2131
-64,-64,-105,764,3497,3470
76,-77,-60,-1431,4399,4157
-98,-60,49,-605,4361,5100
2,-55,-50,973,4147,5624
-82,-111,-107,-724,4106,8174
-30,55,101,2675,3204,4637
28,120,18,311,779,6190
-43,-109,0,-2898,-924,5845
7,88,50,-2303,500,4293
-10,-50,-99,2151,-688,455
-40,67,-45,3060,-736,-1931
13,73,0,1240,226,-1078
-7,61,33,-876,-88,-268
6,2,26,-1121,-439,-192
50,-40,-23,-649,-36,-554
69,-54,-47,160,79,-959
86,-65,-57,341,37,-1149
115,-64,-64,-53,-8,-1024
127,-76,-76,-189,-77,-758
-123,-79,-87,-230,-194,-390
127,-71,-91,-256,-106,5
123,-59,-108,-121,-52,231
126,-36,-122,32,-56,365
124,-15,-125,17,-92,527
119,7,127,85,-112,632
119,22,124,38,-13,661
117,36,125,59,-74,628
113,55,123,18,3,470
119,60,112,128,59,233
-120,51,91,258,48,-91
-119,56,105,-153,-101,196
-127,54,97,-102,56,204
-121,57,86,114,44,128
-120,79,80,-231,-72,61
-118,73,75,-126,-42,8
-111,74,67,-31,-37,-75
-106,82,63,-195,-113,-103
-100,77,59,-56,-76,-142
-96,81,60,-67,-80,-100
-94,84,59,-57,-95,-26
67,87,49,-3167,-684,-5635
-98,-100,124,976,-1475,-9499
-95,-70,-30,1067,-5025,-6859
-68,-117,-117,-976,-4733,-7337
101,124,86,3141,-1623,-4860
-53,-27,-100,2854,-1701,-2474
121,32,125,-127,-476,-70
31,-89,-107,-2101,270,1067
-38,108,-27,63,1677,1992
54,108,59,592,2556,3159
-38,-78,-27,-832,3925,4783
-87,68,46,-1718,4511,7231
7,-41,-60,386,3687,7732
-21,87,62,1721,2603,7257
-28,-15,-65,-942,578,5721
123,-78,-18,-673,-108,3804
114,72,87,-1197,-1175,4723
5,-79,105,-1778,-977,3775
78,78,63,1327,-736,-72
-13,-112,121,3623,-549,-2416
16,-127,-112,1940,295,-2024
22,78,-77,459,383,-985
7,-15,-65,365,-151,-160
52,12,-57,-485,-356,-135
94,2,-79,-524,3,-387
114,-37,-114,133,91,-668
115,-32,-127,122,153,-541
118,2,102,-326,103,-474
124,10,79,-177,3,-470
127,14,72,6,-80,-322
119,23,76,29,-205,-40
124,36,87,-91,-214,290
125,58,93,-218,-204,415
119,79,97,-151,-190,443
-128,88,92,-40,-73,432
-119,105,86,220,-12,323
125,-120,89,-358,-96,363
126,122,70,-64,37,132
-115,118,62,191,96,19
-119,127,58,27,22,-22
-116,127,53,-57,-36,-37
-116,119,52,69,-6,-94
-111,112,49,334,97,-211
-92,111,42,270,-7,-217
-78,109,43,32,-133,-37
-87,112,52,-197,-184,193
-84,119,57,-178,-39,391
-79,-119,54,-145,-89,529
-87,-87,54,-429,-124,509
-98,-69,48,-404,-33,308
36,-88,-8,-4034,-5,-4974
0,-9,92,-2619,-735,-6220
-114,-27,-85,-4122,-3017,-6174
118,-49,-113,-1994,-3144,-7192
-19,-30,124,-926,-3805,-6468
67,42,-72,367,-3653,-5538
72,-32,-53,1958,-1662,-4463
-16,-122,121,2582,-188,-2374
126,-92,26,-481,44,1064
49,-90,-61,-546,1784,2413
42,17,-94,-503,2566,4421
100,23,-37,-2248,1854,6128
-117,120,-60,-200,440,7497
53,-53,-46,1724,966,6287
88,120,-72,1792,2435,6434
-98,-16,-23,6271,3234,8110
78,92,-128,-666,882,5985
-100,4,23,-3336,-1982,2252
31,101,52,1775,-1069,-1161
73,-70,44,4571,489,-44
32,14,97,1912,132,231
-45,24,124,-681,-240,-319
23,-70,-76,-1278,-550,-1399
-120,59,-79,471,824,-1837
113,-25,-43,1715,155,-828
101,60,-18,-219,113,-796
-114,11,-94,187,364,-1058
-83,-2,-124,540,9,-926
-62,25,-117,-121,-216,-862
-38,7,-104,-249,-263,-438
-70,-2,118,112,-220,163
-120,67,-108,-898,-821,769
123,-111,-115,-1442,-686,826
122,-119,86,-151,-58,338
-105,119,63,1057,327,266
123,-85,87,165,-227,231
-119,-74,81,-533,35,-12
-91,116,29,807,61,177
-113,-94,67,88,-369,401
113,-71,76,-505,-402,238
117,-84,78,-84,-173,55
-77,-100,60,758,113,-5
-103,-81,79,229,-225,-31
-117,-67,91,-592,-193,-40
-114,-97,75,56,-32,-148
-96,-118,56,462,39,-80
-125,-94,64,-402,-157,43
-110,-84,52,-691,-99,308
-65,-91,26,384,205,327
-75,-75,26,472,-23,197
-112,-66,105,-1931,-1187,-6029
-125,-100,-85,-975,-2022,-6723
12,-127,77,-1952,-3292,-6693
13,-71,-101,-81,-3377,-6161
92,-37,-89,1005,-2991,-5403
-37,0,98,3571,-2095,-3242
-99,105,-118,-120,-1155,-1345
104,0,-108,99,339,579
-5,74,93,211,2201,2434
65,-113,-102,244,3171,2991
-41,-89,-90,1091,4153,3963
44,-110,42,-525,3683,5337
-100,-51,-73,924,3937,5856
0,49,-73,879,3018,5752
2,-124,15,1843,4173,5117
-111,25,-32,-2514,-127,5846
123,-91,-105,-3497,-2392,5989
57,-95,41,-2482,258,3111
46,-62,89,4298,-1287,-187
55,-113,-119,4683,149,-1527
51,109,-74,1915,353,-1117
58,-9,-70,-53,21,3
15,-57,-70,70,-420,886
0,-18,-53,15,-17,864
15,3,-62,388,-170,366
55,11,-59,696,-120,-70
56,31,-36,78,-107,-469
58,10,-54,-353,-27,-706
98,-36,-95,-10,-157,-744
106,-42,-85,-275,-47,-374
94,-22,-104,-524,24,-450
95,-27,118,-245,-143,-584
-126,-20,97,-552,52,-652
-102,-43,54,44,-127,-658
-118,-50,38,382,-530,-332
118,-21,60,-418,-266,62
121,-37,47,98,258,250
-36,-89,-36,2044,470,945
111,120,-111,-443,-346,950
112,-109,109,559,1274,-524
-91,-8,-9,5157,-7,-1424
120,41,-72,-2900,-180,-545
-109,13,43,-226,123,-819
-33,-18,96,782,-47,-798
-9,56,-96,-1351,42,-432
-45,43,-101,-2121,-87,194
-64,-13,64,-444,426,144
-26,-78,14,1972,377,560
-37,11,103,489,-299,1438
-76,102,112,-1426,172,1683
-122,-14,-89,-1628,-1041,-7213
67,-1,38,-284,-1671,-7868
-24,2,108,2075,-2373,-7087
-70,-6,43,2369,-2833,-4977
102,92,63,1133,-2582,-2579
-84,-21,115,-492,-1147,-937
-75,-33,-111,1379,1446,1266
-71,-120,34,219,2071,2730
-92,84,49,-603,3570,3821
66,7,-69,-2220,3405,5534
-73,-58,32,-748,1959,7078
-45,102,-103,2789,1839,7649
64,64,-72,-744,1843,7298
-86,-35,-125,-242,1069,10065
56,-107,15,-1835,-2387,9822
26,34,31,-4725,-2941,-599
100,54,21,7390,87,-4992
43,-47,101,5742,1052,-744
-26,72,-116,-2235,1370,-792
-19,-3,100,1222,-573,-350
28,6,-96,1744,-520,-644
76,47,-44,-78,-210,-1035
112,-31,-45,241,-339,-1091
118,-46,-33,84,-329,-924
113,-43,-28,-620,-232,-703
-123,-44,-59,-543,71,-393
-113,-29,-111,-215,92,-367
-115,-12,125,-211,62,-284
116,-6,101,-222,18,-141
-116,2,89,-149,87,223
-95,10,84,315,49,392
-113,22,72,453,36,290
127,49,99,-87,-222,533
122,52,96,-152,-58,625
-111,63,96,-28,-79,764
-100,84,80,176,16,655
-120,101,85,141,-76,377
-120,114,84,-72,-13,104
-104,100,79,101,25,-44
-107,86,77,283,68,-192
-88,86,76,25,158,-144
-61,78,64,136,0,-45
114,77,62,-121,-266,-172
-101,89,81,-722,-61,36
-78,68,54,-119,-17,105
-55,98,49,-118,1,75
-59,103,39,-11,-39,-12
-69,105,47,-81,-50,35
-76,97,52,42,-50,156
-76,115,56,-58,-25,190
-123,79,-43,-2269,-3045,-6754
-66,25,-113,-2303,-4632,-5571
50,-30,-126,-1595,-3424,-5186
53,125,10,-980,-3240,-4589
-104,60,-58,-949,-2645,-4130
22,64,73,1715,-2045,-3916
12,-85,-15,1534,-1836,-2414
54,66,17,436,-516,-964
-50,-39,-111,-1427,376,267
123,-80,61,341,1315,1120
-72,-96,126,-197,1898,1834
122,-97,49,-670,2894,3164
-40,-39,-88,-106,2665,5215
-48,-107,59,186,2754,5284
77,-13,-107,90,2415,5974
44,-71,-80,-3289,1205,3179
25,-71,-39,2729,-493,4978
94,31,109,374,-243,4022
-76,-58,99,2906,-495,4901
3,-48,-90,557,611,4621
-118,10,95,-395,781,4679
-26,-125,90,-601,-633,2020
-30,-11,-99,2080,-1088,-1978
47,98,-26,2286,377,-2074
37,8,0,859,401,-1011
-3,-110,-32,720,177,5
4,-86,-67,294,88,184
29,-18,-68,-1061,-358,192
95,0,-91,-1439,-164,69
78,-22,-117,-204,109,-298
40,-53,114,581,-65,-353
66,13,-103,-584,118,52
85,-3,113,87,320,-217
92,-24,94,750,93,-247
97,1,110,147,76,-127
96,3,106,102,30,-26
120,9,103,193,-54,43
118,26,107,-80,-134,153
112,38,112,-186,-135,212
114,59,104,-206,-63,185
123,63,98,98,-13,120
-124,74,90,176,60,23
-122,79,87,66,21,-31
-116,69,76,127,42,-44
-109,68,73,81,33,37
-108,74,71,24,-14,63
-106,84,73,-108,-45,134
-112,85,73,-57,-10,155
-107,102,68,-93,-19,157
-106,108,61,-25,35,97
13,-128,-60,1513,-1423,-6659
-111,58,36,-4317,-3479,-7601
-10,64,90,-1462,-3393,-6586
-18,72,33,-226,-3172,-5873
-27,11,103,1077,-3277,-4768
-68,58,70,1620,-2279,-3194
101,2,-106,-859,-1436,-575
28,64,-89,-1557,1316,580
43,119,-23,713,1438,1471
101,-81,73,401,1712,2158
-116,111,-2,539,2835,3484
127,-125,-120,389,3518,6466
51,18,-27,905,3096,7687
-92,-111,16,3068,2092,8371
-40,-119,-64,1139,2821,6631
-58,-123,28,611,1254,5018
-112,-60,90,-2481,-1377,5869
108,-125,102,488,-1160,4630
-124,-79,111,1908,-476,340
-43,69,-77,1981,-377,-1963
7,-80,-62,946,392,-1572
-39,-10,-84,1207,320,-337
-30,-10,-82,730,16,-406
10,-30,-88,-13,-181,-750
57,-93,-79,-296,-267,-475
78,-108,-87,30,-118,-173
68,-73,-83,-406,-193,142
54,-53,-104,-297,-35,103
41,-22,-126,-349,-115,203
43,1,117,-348,-23,292
45,44,93,-252,-26,112
64,59,71,-9,23,-166
77,32,63,289,55,-14
76,56,61,-116,-105,19
75,50,55,-105,-55,9
71,55,53,-204,-266,114
88,81,74,-399,-201,76
92,62,67,150,8,-96
96,74,68,-183,-32,44
97,70,55,-175,-231,131
105,96,78,-344,56,165
104,85,52,161,49,120
103,124,45,-333,66,190
117,113,26,140,124,114
