AccX,AccY,AccZ,GyroX,GyroY,GyroZ
84,109,95,-2330,-2648,-3258
-15,78,31,-1933,-3462,-4013
-116,109,127,764,-4853,-3448
94,-110,81,-3422,-4582,-1980
-70,55,-10,-1685,-4683,-2060
53,88,-25,-4225,-4374,-870
-32,-99,-112,-7640,3267,482
25,-51,41,2610,1384,-1584
-23,-97,64,-324,1811,1250
108,118,-128,2392,341,130
-121,-9,-124,2654,3737,786
13,-110,-98,1951,5387,2953
37,74,-111,1551,5009,3717
-79,-42,90,-2102,4716,4126
100,22,126,2359,1773,5161
-95,-37,-89,-5430,2489,5348
66,-44,118,2035,-1902,2802
-59,-83,65,-84,-492,-311
-88,-99,116,2444,1002,-1992
117,107,-125,1006,575,-1541
-93,29,-127,-126,667,-867
-62,-25,93,-805,488,-547
-62,-58,73,-622,499,-651
-46,-73,52,-611,506,-688
-25,-68,36,-502,535,-575
-4,-55,20,-604,528,-630
15,-60,3,-319,481,-714
24,-60,-13,-251,504,-792
50,-34,-12,-772,362,-597
59,-45,-17,-485,243,-557
73,-23,-15,-551,338,-573
84,-13,-17,-601,325,-584
95,0,-10,-695,257,-543
108,5,-10,-634,374,-511
119,26,-15,-657,389,-514
127,32,-19,-598,330,-535
-120,43,-18,-601,403,-549
-111,53,-19,-537,406,-546
-100,61,-27,-506,409,-589
-83,73,-31,-497,407,-624
-79,66,-38,-305,354,-699
-71,77,-27,-504,290,-545
-89,96,-11,-813,279,-344
-85,105,-11,-691,400,-421
-73,118,-25,-640,273,-496
-37,-117,-32,-647,272,-550
-23,-124,-30,-349,230,-670
-28,-100,-18,-524,244,-694
-46,-103,4,-696,302,-670
-64,-120,10,-490,475,-687
-72,-54,101,1036,-2648,-4591
-101,107,64,-2668,-2736,-2987
53,-23,-116,90,-4640,-3642
-120,44,-42,-2246,-3283,-1888
112,112,69,-4239,-2726,-1463
97,-108,-68,-3043,1226,-434
72,33,59,202,-115,-1389
11,-34,-21,-663,2317,528
103,-72,-37,567,547,416
-87,71,-121,-601,173,-431
122,31,-30,1047,546,270
-26,15,-115,662,1975,266
104,31,-8,1758,2445,973
-52,121,-62,-457,2404,1285
77,-59,5,315,3219,2423
69,-17,-67,990,1775,684
-13,6,-10,1972,2076,3154
7,-85,95,-977,3897,1856
52,66,-97,387,1744,3245
56,78,87,693,630,3048
14,85,63,-1484,1250,1119
-109,-100,-69,-422,2278,2527
100,124,-19,-133,943,1132
120,114,29,10,147,726
99,-105,33,-845,13,181
73,112,42,-565,-146,-791
83,23,50,536,133,-1548
105,15,71,513,300,-1511
-127,-2,65,350,461,-1245
-115,11,71,-356,308,-939
-82,27,54,-920,394,-709
-49,37,34,-1264,450,-378
-60,31,4,-1426,455,-468
-40,47,-24,132,529,-1031
-20,98,-14,-271,456,-781
-18,124,-20,-770,441,-559
-11,-115,-33,-780,439,-418
-4,-99,-46,-431,276,-543
10,-78,-43,-311,298,-616
16,-59,-40,-643,401,-562
19,-43,-36,-779,250,-472
36,-32,-36,-617,350,-531
42,-18,-34,-535,365,-557
43,2,-26,-697,307,-508
55,16,-27,-639,413,-549
55,20,-27,-445,379,-562
57,49,-26,-598,329,-591
59,57,-29,-440,373,-641
62,67,-22,-520,384,-536
63,89,-16,-661,338,-487
-94,-4,-90,-1706,-1432,-5173
50,97,66,-1125,-3459,-4729
-114,122,112,-516,-4655,-4581
95,-51,-49,-1962,-3863,-4331
-8,-50,-94,-4536,-5694,-3290
-7,-28,-60,-6948,-2404,-2426
-114,83,-101,3171,-441,-486
-15,-29,111,-1811,3665,3075
-68,-75,80,2207,2783,3083
-93,-57,-92,3700,2689,3508
-103,64,-55,2012,3323,3875
1,117,30,933,5005,4933
-82,-61,-80,2830,1483,7359
50,-36,-73,-5769,1357,5229
-30,-17,-7,-229,-1477,2953
118,-126,35,-1130,218,1070
17,-35,48,200,1240,-70
-68,-113,30,1081,449,-1179
114,107,3,1043,63,-1027
82,-98,6,-1192,216,-396
105,73,-21,-290,306,-591
112,86,-31,-467,530,-838
-120,78,-37,-717,436,-1237
-109,62,-37,-766,327,-1290
-84,46,-21,-769,235,-1207
-61,66,-14,-1127,421,-849
-56,79,-2,-1365,347,-692
-55,86,8,-1058,321,-514
-65,99,15,-878,468,-605
-59,-125,18,-829,498,-565
-82,-111,24,-837,347,-449
-67,-74,36,-1308,420,-213
-55,-57,50,-1082,414,-157
-27,-65,50,-589,588,-496
18,0,70,-1753,638,-211
-48,-46,104,-713,189,-519
-70,-43,-117,-702,358,-867
-35,-40,-116,-474,700,-543
-18,-25,123,-181,577,-417
-31,-1,120,-575,381,-557
-43,-2,-115,-695,111,-495
-32,24,-92,-1199,151,-285
-24,-5,-79,-575,205,-510
-19,6,-82,-350,353,-752
-34,-22,-100,415,229,-1033
-41,63,-86,-2031,447,-460
-37,17,-90,-1205,299,-318
-7,-25,-115,266,231,-835
-14,58,-96,-901,162,-677
-90,48,-73,-1209,500,-901
-122,-117,-32,-3535,2882,-4620
10,19,31,-2651,361,-3725
-37,-86,124,-751,982,-5302
-111,-101,55,-1506,242,-4901
60,21,-59,-810,-1093,-5102
-9,103,-113,-868,-1870,-4803
-10,95,-25,-502,-1934,-3401
106,-46,21,-4430,-969,-2292
2,-89,70,-2491,-1705,-3440
25,-25,32,-70,259,-2245
-61,93,-125,938,1785,2249
-35,10,-64,-731,984,379
-118,52,-47,2304,-523,-363
53,58,74,397,1234,755
-25,-53,-17,1943,1541,2014
-89,52,119,720,2316,3360
71,-111,40,906,2713,3929
-120,78,-74,2440,894,5726
-74,-30,-54,-1228,2125,3572
38,123,-115,2832,548,3382
-73,122,-35,-1219,396,3522
-77,-20,4,-137,-614,2574
-112,-29,53,-780,-222,1754
64,-52,86,-473,29,419
3,-77,114,-732,58,-974
3,90,110,-310,861,-1474
3,13,84,958,1285,-1511
5,63,78,-121,724,-904
30,62,67,-544,47,-498
59,26,35,64,340,-887
101,49,30,-426,631,-1021
121,39,17,-466,546,-941
-123,33,16,-219,370,-831
-101,62,15,-576,370,-638
-83,86,7,-741,377,-446
-71,101,-2,-708,431,-444
-61,-117,-16,-785,521,-417
-74,-121,-29,-263,418,-583
-56,-72,-16,-717,350,-330
-44,-60,-25,-580,455,-414
-36,-61,-36,-119,405,-668
-22,-35,-26,-302,236,-669
-16,-33,-10,-490,281,-637
4,-29,-3,-324,329,-608
1,-26,-5,-141,345,-731
27,1,5,-600,433,-610
20,-7,-1,-276,461,-693
31,-23,-3,310,627,-934
25,-2,-1,-51,537,-749
51,9,1,-450,501,-399
33,58,91,-1578,-2718,-4086
-70,76,-127,-1398,-2787,-3625
-59,34,-4,-3260,-2278,-3001
-18,104,-50,-3670,-2190,-2076
-53,-127,31,-4488,-905,-2776
-5,111,48,-1677,2109,-309
15,-113,-20,1780,1691,1833
28,-50,-24,-1399,-872,-311
87,-45,-103,264,650,972
-3,32,-101,1074,1953,1768
-44,-99,-46,2495,1826,2752
88,-55,-77,4577,3006,4800
42,13,73,1018,3347,5828
51,-9,29,250,1648,5970
-62,59,-65,2027,1210,3958
111,73,-62,-1187,617,2765
54,-125,-54,1017,-425,1529
95,49,29,1707,-548,-1327
83,-20,69,252,1043,-1800
79,-112,90,-812,747,-1360
108,27,72,360,638,-772
126,91,101,-1253,229,-277
-110,46,65,-759,231,-458
-91,91,76,-1233,270,-402
-80,69,55,-338,208,-565
-72,103,71,-498,247,-619
-66,117,63,-555,303,-577
-58,127,56,-461,209,-572
-52,-103,53,-608,130,-602
-34,-56,42,-894,366,-375
-31,-57,34,-673,416,-573
-34,-40,25,-551,367,-618
-24,-16,33,-814,355,-516
-22,-6,31,-797,352,-531
-10,17,31,-837,377,-560
-9,17,33,-537,359,-661
-5,43,40,-804,375,-563
-1,57,47,-728,321,-589
3,65,49,-549,373,-617
3,80,53,-627,378,-636
2,96,57,-646,312,-575
2,99,60,-447,326,-620
8,122,66,-611,397,-624
4,124,67,-453,276,-603
1,120,65,-158,272,-688
7,-97,77,-866,367,-540
-1,-119,74,-333,216,-628
2,-93,80,-666,311,-695
4,-97,82,-421,284,-618
-4,-101,75,-37,301,-667
-43,-78,16,-2175,-2598,-5058
67,-28,57,-1972,-3021,-4574
-30,85,-128,-2929,-2744,-4123
-28,-93,-22,-2963,-2270,-3208
81,101,51,-7714,-955,-1133
-114,-80,53,-307,-1088,-4605
-10,17,-25,-372,-1100,-368
-125,104,-90,-1143,4116,1326
-16,106,-35,1178,-2301,-754
127,-34,44,-389,616,-598
-110,-61,79,1165,1118,869
-38,-116,-123,2233,1655,1485
-128,29,48,3172,991,2166
-117,70,115,3304,3476,4179
7,-7,-55,2245,3047,4590
20,-39,73,5608,2505,3933
125,-71,-54,-5207,4262,5281
66,81,38,3607,-1029,3045
34,-108,-101,869,831,1925
-126,-89,-14,-499,458,961
-53,9,50,148,316,-937
-52,122,63,2315,69,-1673
-45,96,63,1187,538,-1529
-8,104,62,-786,897,-594
-9,27,42,-370,457,-657
11,-5,37,27,129,-931
33,-3,47,-319,86,-960
61,-2,47,-530,51,-901
75,4,45,-442,2,-919
97,38,38,-603,221,-814
108,48,25,-508,420,-878
119,70,21,-616,393,-712
125,96,5,-678,348,-657
-106,118,-8,-718,408,-625
-98,124,-22,-481,417,-623
-100,-95,-31,-615,347,-590
-84,-77,-41,-779,322,-618
-63,-55,-47,-764,298,-518
-61,-35,-46,-809,263,-528
-56,-16,-43,-818,270,-509
-46,8,-40,-858,344,-499
-40,17,-38,-729,379,-553
-28,39,-38,-795,382,-519
-18,54,-37,-731,388,-560
-22,72,-28,-801,387,-544
-24,77,-26,-590,424,-594
-18,100,-24,-675,436,-468
-14,118,-20,-686,374,-510
-6,122,-21,-438,473,-742
-10,119,-20,-356,395,-741
76,99,-46,-770,-3640,-4567
-27,-74,108,-2521,-4321,-3383
113,63,-61,1401,-4822,-3947
-57,-110,48,-4040,-3890,-1618
71,37,-11,-8001,-1856,-948
-62,-4,122,-1779,-2379,-3146
23,92,-76,-594,3847,1715
82,124,122,193,4200,1909
-5,-24,10,2136,-2342,1052
-102,-89,-79,3781,1130,1079
72,-127,-65,-225,3525,3000
-91,-97,-37,2888,3171,4455
-103,1,-11,2000,3967,5933
124,0,23,976,3266,3565
-89,115,55,3059,2158,4419
-68,-58,7,-4708,744,4398
120,-30,-20,1344,-2875,-137
-43,-26,94,1593,173,-3168
-41,-117,90,728,2037,-1890
-92,59,48,-75,751,-1347
-58,-33,12,1199,220,-1305
-23,-41,1,269,437,-1054
-16,-56,-4,-694,587,-664
4,-83,-7,-289,533,-487
23,-82,-11,-246,476,-631
51,-69,-13,-194,498,-480
68,-72,-19,-48,550,-513
85,-65,-36,64,450,-406
85,-21,-31,-762,62,-233
92,-29,-22,-903,482,-354
101,-42,-22,-516,594,-561
116,-54,-36,-170,578,-661
-96,-23,-44,-556,511,-573
-104,-51,-47,-128,412,-667
-112,-26,-26,-474,285,-508
-87,-11,-13,-666,523,-536
-71,-16,-18,-358,435,-594
-61,5,-12,-405,322,-653
-47,5,-6,-95,634,-931
-33,26,-3,-297,554,-664
-27,42,6,-642,292,-425
-24,37,9,-508,321,-491
-14,50,8,-546,465,-625
0,58,17,-614,349,-485
3,61,23,-543,375,-488
8,75,31,-475,435,-436
-3,88,29,-558,447,-452
0,-127,37,-1143,348,-359
7,109,44,-581,403,-402
10,124,44,-352,411,-593
-127,-105,91,-2332,-2474,-4658
13,-35,72,734,-4753,-4678
-56,-83,-31,-3752,-4963,-3030
-18,61,57,-3113,-4661,-1778
-101,-28,122,-4094,-1572,-2772
18,74,21,-2259,-2538,-1854
70,-97,-69,-1241,-647,620
-62,-100,-16,665,5371,1128
-22,-8,11,1426,-1698,607
-28,-118,-94,2228,2893,477
-113,39,35,3257,3820,1783
84,-42,84,1470,5254,4624
-35,106,108,2888,5112,3700
-86,32,-60,2051,2970,5049
-99,-122,50,-1638,3582,2771
-70,-123,-78,1886,594,847
-49,71,51,-1689,-687,1535
-70,64,24,3052,100,-1039
-83,96,46,592,1239,-883
-47,87,30,-1254,657,-531
-41,-59,69,233,249,-1302
3,-108,79,347,675,-998
13,-121,88,-106,460,-688
29,-122,58,-340,517,-453
49,-106,43,-711,473,-371
57,-92,41,-815,202,-373
83,-95,41,-440,287,-430
90,-78,42,-418,416,-480
98,-50,63,-708,257,-396
114,-32,58,-752,35,-193
114,-17,60,-740,159,-378
123,-24,39,-401,448,-698
-110,-6,23,-626,378,-668
-104,11,29,-817,168,-576
-93,5,21,-667,348,-852
-100,-2,15,-369,391,-946
-107,24,8,-605,286,-761
-95,35,0,-783,319,-674
-75,61,-8,-860,235,-595
-71,81,0,-753,133,-583
-78,96,12,-757,218,-611
-77,113,15,-673,348,-574
-78,-128,8,-701,315,-510
-64,-98,9,-891,313,-383
-72,-86,4,-666,330,-514
-64,-63,5,-726,345,-466
-44,-60,-4,-436,356,-542
-48,-42,-9,-485,305,-690
-61,-46,2,-559,261,-734
-63,-52,15,-538,250,-707
49,-52,-110,-3034,-1152,-4055
98,75,42,-524,-2902,-5082
-27,13,120,-529,-4020,-4238
80,-22,69,-1006,-4819,-3270
-8,91,-40,-5843,-1703,-3734
-67,-4,-54,2194,-6424,-2895
-53,-13,-103,-5171,-2566,-874
78,-100,80,-4229,1593,308
-95,-88,112,3542,3919,863
31,8,-17,-330,545,965
30,-38,-121,1974,-782,86
-103,26,111,2587,4492,1798
-39,-118,-104,118,5906,3323
69,-5,99,555,4565,5197
49,74,8,3382,1597,7016
70,120,32,-2904,4604,3053
-99,-14,13,-2548,68,5360
-45,-14,47,3035,-1900,1691
90,70,96,17,-130,425
20,-72,94,2366,358,-988
-83,-124,61,1508,774,-1989
-89,81,54,371,939,-1611
-99,-34,34,653,710,-1662
-64,-102,33,218,535,-1521
-28,-124,40,-344,234,-1148
6,101,50,-376,-1,-716
13,115,57,-701,-62,-555
39,-127,59,-912,107,-428
42,-88,55,-1147,165,-393
47,-74,29,-811,425,-559
47,-46,7,-743,376,-599
72,-27,-6,-796,477,-366
65,-25,-21,-533,416,-512
87,-4,-38,-554,472,-500
95,14,-37,-737,325,-455
107,14,-48,-538,385,-652
124,21,-46,-483,331,-662
-121,43,-38,-740,233,-512
-119,46,-36,-564,296,-665
-104,55,-34,-452,381,-763
-97,57,-34,-532,307,-652
-87,73,-33,-606,318,-642
-79,75,-29,-456,388,-726
-70,87,-27,-514,382,-658
-71,100,-17,-621,380,-464
-65,123,-16,-768,459,-496
-49,-125,-21,-511,478,-605
-50,122,-30,-168,441,-761
-46,-121,-25,-415,399,-666
-50,120,-23,-276,367,-620
121,86,-76,-2167,-3281,-3047
77,-37,5,-1505,-2496,-2070
41,97,72,-1992,-3634,-919
127,-19,-123,-6402,-697,-1442
7,44,122,-3195,-836,-2249
-30,23,23,-1870,2272,-363
17,-47,-59,-49,2081,1709
47,83,98,1213,617,767
92,31,-96,2731,1423,380
90,-70,-28,3908,3336,1257
105,72,75,1541,4842,3261
-110,-77,1,938,3859,5616
71,67,57,3314,2344,5142
-17,-91,127,-4231,2083,4095
31,-25,-14,2614,-1136,1956
-76,-75,-69,767,-787,364
90,81,-76,631,561,-798
50,13,-76,786,1264,-1278
44,-34,-50,322,841,-1170
79,-70,-42,254,457,-589
98,-84,-44,-35,394,-578
116,-106,-48,-272,316,-876
-116,-101,-30,-780,-23,-906
-107,-115,-17,-792,-116,-909
-95,-86,-1,-1145,-15,-701
-101,-89,-13,-843,390,-688
-83,-72,-34,-560,588,-691
-66,-45,-47,-703,467,-671
-51,-19,-53,-781,354,-477
-61,-9,-55,-755,424,-505
-49,0,-61,-571,460,-452
-37,35,-60,-683,384,-399
-19,48,-67,-594,428,-513
-25,57,-62,-435,282,-538
-25,92,-46,-892,254,-388
-13,98,-40,-724,402,-597
1,98,-45,-347,412,-746
-2,114,-44,-508,258,-771
-2,126,-37,-534,168,-743
2,-123,-26,-581,315,-722
2,-120,-25,-571,391,-703
0,-115,-23,-508,290,-588
2,-97,-18,-705,340,-488
7,-93,-14,-541,367,-508
11,-78,-11,-594,372,-467
14,-65,-10,-588,373,-468
16,-60,-4,-493,347,-474
18,-48,-3,-433,353,-543
20,-38,1,-435,435,-616
18,-40,1,-438,402,-580
106,23,-121,1636,-3157,-5188
45,111,-30,3955,-4019,-4081
-61,-9,90,-9799,-4487,-2720
-9,21,-74,-1966,-3435,-3292
-101,-96,78,-1981,-3292,-2212
25,5,24,-3883,-1324,-819
112,-73,90,1858,3175,953
107,-31,-7,482,2233,468
43,-10,-14,2762,48,1394
-55,110,16,2422,2774,1997
-37,121,-75,2938,6357,1757
-35,-107,-82,295,5840,3627
64,-18,-51,-2395,4639,4773
90,-21,124,2518,557,4374
-122,-25,50,2961,2269,1090
-121,-58,23,-536,982,-630
-38,-124,-89,254,-338,-104
-5,0,-32,564,532,-193
9,-32,-64,255,1128,-521
44,-75,-53,-442,781,-578
77,-108,-53,-200,152,-389
111,123,-23,44,-173,-444
-108,-116,-22,-733,375,-539
-99,122,-24,-523,441,-637
-76,-127,-24,-531,406,-514
-44,-103,-28,-598,399,-341
-51,-95,-27,-368,477,-409
-57,-86,-33,-372,589,-457
-50,-89,-40,-284,602,-458
-53,-73,-46,-475,300,-292
-40,-71,-63,-382,386,-476
-23,-47,-58,-540,205,-520
-3,-49,-60,-446,95,-629
14,-36,-45,-534,86,-660
10,-37,-39,-303,153,-731
24,-24,-34,-291,185,-609
13,33,-14,-1124,191,-477
5,20,-11,-649,456,-828
-14,-11,-39,-124,765,-1098
15,5,-44,-445,515,-532
44,85,-52,-1291,341,74
56,110,-45,-1281,341,-243
39,85,-43,-158,561,-887
37,114,-37,-425,428,-902
70,-122,-19,-780,177,-356
56,121,-23,-430,335,-676
57,-114,-5,-438,319,-497
60,-94,4,-549,341,-577
73,-109,-10,-70,579,-666
48,-67,4,-897,245,-363
27,64,-38,-2297,-1915,-4793
-68,4,25,-1459,-2774,-3935
74,-106,-11,-232,-2974,-4970
-81,-71,-54,-870,-4514,-3627
16,-128,-15,-7118,-2514,-3749
-10,110,-17,-2475,-4279,-3319
117,-68,0,-1130,-499,-3950
-22,-19,79,-4636,-2970,219
-19,-42,4,5169,4940,2196
-79,-116,-88,-2145,3465,2551
66,109,-84,4080,-121,1627
81,-128,-95,3809,1347,1302
12,-123,99,1035,4735,5265
25,64,108,-947,4996,3884
-47,-18,126,2853,2198,5852
41,-86,-99,-3872,2938,5399
103,-39,87,2555,405,4104
-119,-22,13,1485,-1435,470
1,-47,77,109,-1742,-702
-85,-4,102,300,866,-1940
-108,-104,64,783,2231,-2074
-126,114,40,663,1230,-1485
-110,61,37,390,187,-950
-79,55,43,-465,-64,-741
-35,81,55,-1985,233,-712
-33,70,63,-2208,270,-797
-35,-27,58,101,135,-1080
-29,-10,68,506,96,-786
-16,57,66,-873,222,-325
1,80,46,-1444,259,-236
16,75,36,-980,261,-331
27,82,26,-625,323,-434
35,114,21,-828,340,-413
43,125,14,-956,363,-445
47,127,8,-750,384,-568
47,127,2,-595,421,-690
63,-119,2,-748,363,-560
70,-109,-12,-698,357,-729
81,126,-23,-234,369,-840
94,-104,-18,-682,341,-724
98,-107,-13,-819,300,-646
96,-113,-2,-615,211,-568
105,-90,10,-816,280,-452
114,-85,13,-735,332,-393
126,-75,13,-569,334,-420
-119,-55,17,-696,370,-426
-113,-54,16,-526,372,-505
-112,-48,18,-534,401,-539
-111,-49,15,-481,409,-555
-107,-45,18,-503,391,-513
-51,-84,-95,-5353,-1703,-2785
-16,-109,-25,-4781,-74,-1992
-81,3,80,-2858,-1180,-3644
21,27,107,814,1729,2098
118,57,-47,-440,2364,3002
98,113,-28,2747,-274,2603
27,-108,115,5278,937,1284
-63,-42,-23,-634,4275,3842
-82,125,-27,-955,4553,6023
18,-123,-27,2510,-1059,6972
-117,78,-17,-2151,1764,3865
-17,-68,62,863,-278,2737
40,67,15,1489,-203,1602
-88,37,-15,639,439,-7
76,-59,31,-698,370,-855
102,19,27,797,146,-1252
90,-90,15,1602,249,-2396
105,57,-3,2120,334,-2475
122,38,10,1809,216,-1422
-103,85,26,-91,497,-453
-100,102,26,-1725,346,-227
-94,63,0,-737,338,-367
-70,74,-9,-190,420,-506
-38,118,-11,-350,431,-441
-32,116,-14,-160,383,-543
-20,-122,-8,-374,387,-509
-16,-111,-3,-596,472,-508
-14,-103,0,-527,476,-572
5,-97,-7,-507,610,-562
29,-67,-6,-815,445,-474
23,-66,3,-515,364,-627
33,-46,9,-622,527,-691
48,-30,22,-562,348,-622
49,-17,31,-373,418,-688
61,13,26,-616,523,-624
49,39,27,-883,450,-492
51,51,33,-901,334,-449
64,77,25,-894,466,-589
58,95,26,-919,250,-694
39,78,44,-505,108,-712
35,109,67,-649,269,-473
37,-117,65,-982,246,-452
58,-111,63,-707,152,-498
49,-96,64,-691,202,-556
60,-81,61,-699,257,-576
60,-74,54,-540,139,-675
59,-60,57,-674,168,-692
45,-65,62,-556,195,-664
35,-56,56,-543,302,-666
34,-41,61,-587,367,-563
-24,-62,-102,-2423,-2590,-4217
120,64,-82,-2363,-3802,-3974
-10,-80,28,-3669,-3751,-3259
-124,-115,-62,-873,-4015,-4082
-82,-23,21,-2840,-2734,-3192
-21,-79,-66,-2878,-3853,-460
-48,60,-19,-8437,-1894,-860
-20,10,24,-48,1521,-106
103,65,-93,2584,2260,683
-96,-125,43,-502,2183,2445
-122,13,-111,3758,2557,2322
-106,125,-40,2732,3395,2997
-44,54,-102,4875,3820,5677
9,29,112,1212,4293,6022
-23,45,2,-1831,2608,3438
-61,-113,100,-63,-423,4100
-104,93,54,927,-1593,-1121
11,-38,-9,1372,1197,-467
-48,-88,-2,-66,2473,-478
-16,110,-27,583,1168,-233
19,36,-44,1578,74,-764
53,13,-23,369,-147,-1339
77,-18,-19,-733,411,-1374
76,-70,-6,-917,339,-1270
91,-70,10,-1038,226,-705
93,-63,22,-1180,185,-545
105,-27,34,-1379,91,-403
126,-2,32,-1288,232,-370
-116,33,32,-1110,380,-349
-121,47,23,-845,444,-426
-99,76,27,-996,473,-308
-81,94,23,-734,586,-407
-89,99,10,-366,548,-738
-75,100,0,-286,591,-759
-58,115,-9,-560,477,-566
-87,-124,-2,-761,100,-379
-79,-113,10,-740,281,-465
-35,-106,11,-629,452,-544
-24,-92,13,-637,172,-516
-28,-66,28,-793,24,-797
-47,-87,24,-554,326,-1251
-64,-87,38,-663,255,-1004
-55,-86,42,-421,208,-703
-54,-88,26,-166,170,-735
-61,-47,30,-731,126,-481
-78,-53,40,-733,197,-550
-64,-56,48,-534,330,-474
-50,-49,45,-369,364,-404
-54,-39,35,-401,348,-337
-50,-25,33,-636,260,-254
-62,88,89,-3292,-1762,-3950
120,19,-43,-2931,-2073,-5799
-62,-111,-17,-1539,-3374,-4779
47,51,1,-3466,-3707,-4248
-6,127,120,-4588,-3644,-3721
56,63,70,-4558,-1903,-3200
1,-27,-118,-5830,-1466,-3256
60,-14,112,-3410,280,-835
39,16,34,3879,2192,2971
-82,32,-106,-560,1182,2826
89,29,-2,6713,91,384
-14,-51,47,4745,3997,3509
-47,-110,-121,2808,4763,5816
16,32,-88,1376,2703,6218
127,9,-79,2467,1864,5312
-26,2,45,-4617,278,3443
54,-43,113,6149,-1291,411
79,93,-63,414,790,-851
-5,-120,-46,478,1327,-1612
-5,-6,-40,1051,531,-1971
17,-92,-18,353,237,-1745
62,-95,-2,-543,178,-859
60,-116,5,-522,222,-495
57,-105,-2,-688,286,-415
97,-68,-13,-1378,382,-478
116,-77,-24,-919,256,-598
114,-66,-23,-608,203,-783
-115,-52,-28,-649,403,-716
-122,-44,-35,-576,373,-606
-113,-4,-38,-850,296,-400
-91,14,-44,-881,395,-438
-82,19,-55,-523,469,-716
-82,27,-61,-372,339,-721
-76,53,-56,-797,263,-502
-65,60,-55,-684,212,-473
-60,61,-55,-333,314,-648
-62,74,-48,-433,189,-578
-46,106,-37,-820,218,-447
-40,105,-38,-668,298,-581
-29,-128,-33,-840,271,-589
-23,-128,-29,-652,287,-611
-29,-124,-27,-489,362,-585
-27,-103,-26,-678,340,-441
-22,-91,-25,-668,340,-468
-3,-72,-24,-559,466,-608
-9,-83,-32,-220,346,-768
-19,-64,-26,-590,306,-636
-17,-62,-18,-799,313,-510
-17,-69,-15,-522,347,-551
-6,-48,-16,-685,390,-519
1,-33,23,-1138,-1980,-5254
-128,-42,39,-2011,-3123,-4159
-71,-45,-62,-3221,-3391,-3653
-122,-3,112,-2685,-2766,-2862
-111,-87,24,-4653,-1908,-2432
123,-91,-103,-2756,-1525,-2376
119,121,97,-5028,-314,-1781
92,-4,104,497,-486,-2605
94,-78,-15,-532,2561,2611
89,-80,116,513,1880,2726
119,-56,87,3519,1197,1730
60,61,-62,6204,1625,1722
-68,-74,-25,2718,4105,4783
54,98,-60,2082,4900,3983
41,-121,9,2754,3643,4826
-47,-58,-76,-4236,2652,5864
59,-88,103,795,-1322,2270
63,35,88,-956,-1318,-1115
44,116,4,3063,1118,-573
-34,81,-6,1630,1080,-1604
-17,23,-13,458,446,-1113
19,-27,-22,226,271,-836
23,-84,-14,47,173,-1107
39,-97,-8,-592,211,-1021
51,-118,-2,-544,81,-970
87,-106,-2,-727,94,-739
92,-105,-5,-742,204,-702
103,-88,-10,-799,263,-590
113,-54,-8,-1057,216,-283
122,-16,-10,-1284,289,-171
-119,17,-23,-1136,477,-306
-111,30,-29,-779,463,-518
-106,45,-29,-701,442,-486
-104,75,-31,-924,511,-458
-93,85,-37,-854,474,-493
-88,92,-43,-620,461,-755
-75,94,-44,-547,411,-726
-68,116,-41,-795,290,-652
-60,113,-42,-577,260,-787
-55,125,-34,-676,234,-789
-51,-128,-25,-591,185,-681
-52,-120,-17,-615,208,-637
-48,-108,-11,-607,214,-585
-49,-98,-4,-543,203,-586
-45,-89,0,-563,284,-471
-38,-74,1,-586,312,-419
-36,-71,2,-371,329,-456
-33,-57,1,-459,411,-474
-33,-59,0,-365,388,-472
-28,-49,-2,-446,411,-469
-6,28,51,-1630,-3285,-3829
113,-51,-101,-2975,-4416,-3227
0,8,54,-1970,-4713,-2802
-4,-2,96,-4326,-3100,-2899
-40,119,-8,-3297,-4290,-2819
107,103,-5,-6284,-1486,94
-72,118,123,-736,-1589,-1804
4,-112,23,857,5071,2194
-76,84,-53,667,4763,2999
-16,-20,43,1722,2807,4493
-73,-87,37,4960,2019,3985
22,-6,18,9941,983,4728
-19,-67,86,-1898,5604,3707
-56,39,123,2332,3191,5114
94,95,47,246,627,935
123,119,-31,3457,872,-1446
47,-10,58,-64,1059,-1118
14,73,-101,-589,607,-853
46,1,-84,-279,655,-909
62,-11,-58,-663,466,-1069
73,-64,-46,33,-206,-1468
86,-77,-39,21,-37,-990
89,-80,-27,-828,393,-735
101,-64,-26,-1271,374,-505
110,-71,-31,-736,265,-604
-124,-38,-31,-893,425,-669
-119,-31,-38,-752,467,-755
-123,-24,-45,-468,289,-938
-97,15,-56,-648,472,-612
-97,14,-57,-681,621,-341
-81,57,-51,-1061,555,-69
-72,89,-38,-1110,345,-296
-65,91,-28,-611,173,-712
-42,119,-24,-776,564,-501
-53,125,-9,-830,410,-580
-49,-126,-1,-661,238,-445
-36,-101,2,-823,341,-423
-37,-90,8,-813,311,-479
-26,-73,12,-840,303,-460
-25,-63,19,-769,353,-593
-26,-63,22,-692,361,-676
-23,-59,28,-668,345,-580
-28,-54,32,-679,377,-652
-26,-53,37,-593,368,-625
-26,-48,43,-582,366,-599
-31,-46,47,-561,314,-605
-32,-42,56,-548,331,-561
-29,-35,60,-598,355,-505
-33,-29,66,-452,240,-498
-24,-15,68,-556,426,-433
-54,93,-101,-3383,-1184,-3693
-72,117,-54,-4308,-1999,-6996
-71,-24,-82,-4637,-4031,-6866
-105,111,5,-7932,-4581,-5326
-65,-50,116,-4434,-3348,-6296
-6,-44,-55,-6235,-2465,-4389
28,77,-34,-6236,-874,-3035
-30,76,111,887,-229,-654
54,13,61,1416,2877,3487
18,26,-119,3152,1927,5145
51,118,16,10106,3538,2213
111,-96,-72,9844,5011,2328
23,-42,-33,9968,9503,2379
-62,25,-97,-10644,6052,6787
22,112,-61,3634,296,6260
-30,81,8,1793,-712,1429
-120,79,0,-394,611,-598
33,34,58,843,350,-1948
-2,80,-123,1483,-526,-1893
53,43,-128,-78,515,-1188
30,-27,-87,-1049,95,-1041
77,117,-106,-246,212,-1133
86,-124,-100,-651,215,-895
76,-110,-90,-1577,223,-607
100,-108,-107,-1367,349,-539
125,-127,116,-516,477,-721
-101,-95,83,-683,600,-671
-104,-89,59,-552,456,-578
-93,-77,36,-494,457,-424
-80,-47,30,-964,467,-273
-58,-33,14,-783,397,-305
-41,-7,7,-674,346,-413
-38,-15,0,-282,351,-679
-31,7,1,-741,379,-508
-24,9,-12,-764,312,-497
2,12,-17,-617,342,-597
22,27,-28,-590,269,-763
23,11,-27,-484,229,-760
46,25,-19,-849,284,-516
39,21,-22,-515,271,-556
51,40,-28,-671,371,-473
70,68,-40,-811,317,-408
83,78,-41,-705,319,-435
98,93,-41,-648,391,-516
97,101,-44,-525,333,-625
98,109,-42,-620,358,-594
114,115,-49,-570,436,-630
123,117,-63,-362,353,-711
127,124,-60,-523,284,-623
-103,-124,-67,-729,382,-513
-27,113,127,-2005,-4074,-3622
125,99,-99,-4859,-3544,-2637
-62,34,68,-2194,-5193,-2841
-45,-59,11,-2115,-4846,-3077
80,16,104,-3781,-4484,-1802
19,53,12,-6384,-3656,-930
15,-110,37,-5040,1052,-538
24,-123,-60,3546,5322,1419
-77,30,-13,988,2880,2436
-41,74,119,4861,1841,1241
-42,-56,72,5150,4720,1381
-111,-91,20,2566,7372,5721
-10,124,96,2476,3436,3938
23,116,43,924,5153,1364
3,4,-46,1690,-535,598
-122,109,-57,8114,-1091,-6143
-93,-111,34,-4325,3827,818
79,99,-79,-1998,1309,1240
113,29,-1,-871,-186,-893
18,78,-91,-319,1037,-728
8,52,-91,290,826,-906
6,73,-76,-58,254,-768
24,65,-80,-277,254,-665
41,61,-72,-515,225,-645
43,57,-65,-485,100,-637
51,65,-56,-624,86,-637
56,79,-58,-684,142,-834
56,86,-57,-406,19,-704
66,104,-58,-667,232,-370
73,112,-60,-869,373,-359
91,115,-65,-719,392,-427
106,124,-76,-668,370,-491
117,-125,-79,-767,350,-493
118,-124,-82,-741,278,-459
126,-105,-76,-844,283,-398
-117,-99,-76,-762,377,-498
-107,-88,-78,-671,350,-515
-97,-72,-74,-860,316,-459
-93,-57,-65,-917,288,-446
-97,-46,-52,-761,351,-595
-96,-51,-47,-544,347,-645
-84,-32,-43,-676,421,-630
-89,-46,-50,-335,365,-799
-85,-38,-47,-518,330,-659
-76,-23,-39,-697,318,-581
-71,-32,-40,-402,378,-700
-60,-19,-28,-480,360,-596
-50,-11,-28,-481,481,-611
-35,-6,-34,-511,516,-551
-41,0,-34,-385,475,-689
28,51,95,-5910,-1009,-2466
47,-120,63,-4073,-2465,-4498
67,-114,-71,-5964,-3376,-5117
95,-43,-40,-2492,-4116,-5770
86,-17,119,-4904,-3782,-4946
-125,-60,61,115,-3939,-4845
-15,4,-112,-5440,-2164,-3389
-103,-101,-33,-170,-2273,-2402
-52,121,-11,-840,3081,1318
57,29,109,1691,4056,3038
-98,-115,-89,4443,1780,2734
-91,125,82,5521,4499,3006
-125,-118,-86,5359,6244,5612
-16,-63,-76,-4272,5959,3023
77,19,-107,6606,1534,7628
-87,-123,87,-4629,1422,894
6,-2,55,4067,-452,-538
56,43,-4,1491,-741,-2112
55,92,-26,447,1312,-1652
12,-35,-38,524,702,-1046
15,-105,-92,78,452,-773
76,-94,-106,-945,531,-693
93,93,126,-206,396,-935
87,64,-127,-46,209,-1065
91,69,-120,-645,243,-814
99,45,124,-554,349,-601
94,56,121,-573,404,-571
89,54,98,-496,625,-656
109,51,80,-348,566,-683
123,27,47,133,750,-935
-92,28,23,-149,676,-820
-57,10,7,-103,651,-746
-49,-1,2,3,336,-724
-61,19,31,-440,219,-521
-33,-1,38,-299,460,-619
13,-15,41,20,511,-714
15,-16,37,-162,471,-638
13,-9,47,-490,408,-523
62,-13,28,-331,652,-437
77,6,7,-219,455,-393
67,45,7,-620,418,-272
67,51,0,-693,469,-407
87,47,-7,-533,480,-521
116,62,-23,-703,352,-601
-81,70,-32,-929,302,-502
101,57,-10,-501,56,-782
84,59,7,-598,404,-920
-106,39,-17,-315,716,-848
-58,58,-45,-160,219,-607
-84,102,-16,-875,-81,-312
-85,-20,98,-5332,-1270,-3821
-70,113,-10,-2404,-2553,-5388
121,-72,36,-3685,-4731,-5318
62,78,-69,-2386,-5116,-5009
101,80,-21,-3467,-4311,-3926
-38,-63,52,-3621,-3204,-3890
3,-92,-99,-3663,-1352,-2936
25,29,38,-2729,750,-1478
-100,-117,-83,1478,3169,2139
113,-22,91,1174,2715,4532
-36,-16,122,4212,3428,4260
-44,43,-25,4705,2716,4605
26,-117,0,4719,5920,2048
60,56,-50,3041,4330,6718
76,32,69,-2545,1831,1415
7,-88,-45,2023,-141,1532
-120,87,127,1679,660,-353
89,-69,56,1912,1057,-979
90,115,66,124,294,-1206
-128,24,92,-654,264,-786
-107,-89,124,-199,85,-806
-114,-112,-126,-328,328,-905
-91,-119,124,-843,492,-682
-77,116,105,-907,369,-595
-59,104,100,-446,333,-600
-55,110,84,-545,462,-595
-44,111,78,-649,454,-465
-27,109,62,-458,437,-495
-18,110,56,-188,444,-536
-7,-125,47,-570,429,-470
5,-126,40,-609,360,-387
19,-110,32,-891,336,-320
33,-117,40,-534,283,-475
41,-121,31,-426,434,-654
48,-111,33,-666,324,-545
68,125,28,-389,348,-607
69,-115,30,-622,361,-567
79,-115,29,-642,346,-549
88,-109,29,-628,363,-532
92,-98,27,-637,381,-569
81,-107,22,-477,417,-690
108,-98,11,-632,371,-542
125,-89,15,-590,195,-500
126,-80,25,-571,324,-728
126,-81,34,-564,306,-613
115,-78,38,-468,354,-641
111,-76,24,-455,434,-753
-122,-84,10,-463,351,-590
-101,-81,-2,-509,173,-453
-88,-41,34,-1021,98,-212
77,27,-117,-2530,-968,-4608
56,70,-116,-5351,-645,-5141
33,-88,-102,-4705,-1188,-6374
-37,42,10,-5865,-1818,-5346
-87,14,59,-5559,-2101,-5015
-114,-60,-90,-5586,-1240,-4009
-92,-12,-6,-4337,-979,-4051
-87,-109,70,-1219,1175,-4518
98,-51,126,-2187,-233,-1525
-14,-112,17,477,4991,860
75,72,26,594,-1362,4984
-127,-103,108,3454,-1034,3708
66,-44,-103,11172,-220,2435
-85,-116,80,9534,2382,3054
-62,58,68,6599,4694,2284
11,84,-118,7296,4820,6208
-70,-1,-9,-6976,3484,4050
77,33,-98,5038,88,5418
102,-84,-89,850,-980,-1052
106,15,40,2478,1954,-765
-71,4,-98,-541,-194,-1239
-10,59,-50,-106,-413,-963
19,24,-25,-1282,477,-909
15,-100,-50,-1273,492,-1084
24,107,-52,-752,260,-1047
26,59,-69,-415,331,-1094
53,30,-101,-87,511,-1030
54,54,-114,-493,320,-664
74,74,125,-788,355,-374
93,99,99,-924,508,-336
91,108,69,-469,392,-548
111,124,55,-437,489,-695
116,114,33,-239,389,-754
-124,-112,37,-808,391,-459
-103,-111,21,-847,492,-378
-75,-81,3,-962,425,-464
-60,-81,-12,-636,523,-760
-45,-109,-37,-237,576,-1056
-23,123,-45,-60,438,-852
2,-73,-31,-862,437,38
-3,-1,-40,-1354,292,79
9,-41,-72,-327,691,-968
42,-66,-98,35,597,-1241
62,-48,-71,-494,204,-498
52,-40,-55,-776,341,-324
102,-37,-69,-414,628,-537
110,-34,-83,-49,446,-575
110,2,-71,-559,314,-485
112,-2,-54,-551,387,-506
127,1,-48,-514,462,-537
77,32,119,-5254,-2135,-5176
-24,7,-94,-1516,-3526,-4616
5,-64,-104,-5956,-4119,-5116
29,110,124,-3027,-4850,-4166
-9,-48,-18,-8955,-2017,-3644
-71,-11,3,46,-2666,-6476
16,21,18,-5974,227,-2999
-23,47,-25,1033,-21,-602
113,85,77,472,2163,3276
43,-20,-31,814,1612,4610
36,-30,64,6153,2557,2715
12,84,-42,4382,4104,3848
34,52,92,3650,2343,5906
-118,91,-33,4954,4271,3476
-75,-125,-1,-3161,1880,5312
104,127,-8,3284,61,3047
-35,82,1,1609,-209,-753
79,-101,32,151,1248,-166
-11,32,73,626,142,-296
-12,-20,61,491,177,-612
-16,-22,57,-702,333,-719
7,-84,48,-1267,294,-738
0,79,43,-480,224,-1239
8,1,30,280,251,-1394
17,-44,3,736,206,-1304
19,-6,-7,-466,284,-886
20,-3,-17,-1374,452,-490
12,-74,-50,-525,401,-525
20,-27,-76,-774,484,-310
42,29,-112,-1280,416,-78
60,33,126,-1136,391,-274
79,5,106,-60,291,-699
100,16,92,78,198,-1035
88,40,91,-884,246,-685
53,34,112,-1398,66,-452
98,19,88,-1413,561,-610
-128,-9,49,-783,551,-808
-109,-4,6,-733,309,-683
98,24,26,-1306,-128,-345
-110,39,43,-1616,336,-258
-77,15,22,-760,660,-690
-68,12,1,-43,485,-959
-62,31,-11,-121,508,-912
-58,25,-19,-34,515,-874
-55,12,-27,328,427,-956
-59,43,-6,-174,225,-579
-68,41,-13,-374,411,-469
-48,63,-21,-723,363,-46
-45,58,-53,-384,471,-356
18,83,-91,-574,441,-442
-38,98,-5,-4190,-1486,-2762
-117,75,-53,-3027,-2698,-4049
52,1,45,-3108,-3124,-4319
-18,106,-81,-3687,-2972,-4157
-106,-54,-75,-2497,-3205,-3743
-50,32,-81,-4594,-2501,-3087
-3,-107,-28,-4138,-1631,-2214
-56,-4,-115,-6070,1520,-993
-107,71,-24,4511,1566,1080
123,-85,108,-2756,1584,3939
86,107,-67,5263,964,2398
-118,14,59,5945,2190,3111
18,-102,-32,4255,4802,5709
-76,-53,109,2402,4793,5578
-57,107,101,-2988,1435,5798
90,10,-109,1616,-2467,4690
23,-124,-21,2078,-150,439
38,-61,-30,2934,1842,-1515
-106,112,-12,1111,51,-1360
-103,-81,-17,1037,103,-1492
-67,72,-10,-292,298,-1337
-31,-10,-17,-423,407,-1187
-15,-107,-12,58,407,-1148
-15,-111,-17,-162,479,-1023
0,-98,-21,-801,337,-726
32,-114,-16,-827,262,-435
13,-115,-9,-515,367,-432
37,-98,-21,-555,630,-334
75,-95,-49,-180,655,-364
90,-73,-65,-223,570,-374
109,-70,-68,-275,538,-410
111,-63,-63,-260,439,-519
107,-63,-52,-243,513,-704
-94,-61,-67,-398,528,-592
-57,-38,-53,-566,43,-168
-88,-18,-24,-657,147,-336
-97,-11,1,-580,411,-401
-74,2,-25,-560,595,-628
-54,18,-38,-558,276,-672
-86,6,-20,-288,152,-865
-87,14,-7,-469,431,-751
-59,50,-33,-822,515,-436
-11,73,-64,-804,396,-390
-13,89,-78,-574,324,-682
-16,99,-66,-625,114,-703
-29,101,-52,-759,250,-604
-43,107,-40,-755,200,-536
-27,122,-35,-733,206,-540
-6,-114,-28,-813,182,-521
3,-108,-17,-663,272,-659
-92,-108,28,-3310,-604,-4831
76,92,21,-3403,-1132,-5182
-50,-108,79,-1918,-2438,-5638
79,92,60,-3671,-2790,-3715
109,-114,-103,-2765,-2383,-5565
-79,126,-127,-4439,-1185,-2847
112,-32,23,-6263,-362,-2904
-80,25,-94,399,262,-3100
-27,86,24,303,1564,2301
72,-29,-54,-50,1135,4320
21,85,107,5258,1187,1999
24,-92,44,5393,1754,3698
-11,-92,-43,1315,3004,7340
-109,17,0,974,2563,6692
-38,-90,119,4472,1026,4593
100,-116,-44,-899,-333,3659
108,75,113,1748,-1789,497
-59,-6,-21,80,-225,-1041
110,15,-14,917,971,-1404
18,112,-60,1484,194,-1623
47,108,-71,496,117,-1141
80,65,-93,-221,366,-936
96,39,-93,-556,325,-944
108,-18,-106,48,77,-1204
97,-38,-99,-386,107,-1185
107,-45,-101,-1042,227,-830
-114,-61,98,-1297,314,-636
-125,-68,83,-870,92,-567
123,-70,71,-567,381,-631
-120,-62,47,-257,484,-487
-105,-46,33,-244,327,-223
-65,-16,20,-483,430,-74
-34,5,-5,-604,371,-213
-22,7,-13,-479,236,-534
-15,23,-10,-729,141,-546
-27,34,3,-847,-95,-548
-9,23,-7,-729,269,-742
3,31,-14,-879,362,-665
7,50,-15,-1128,403,-618
20,66,-25,-1166,633,-549
30,58,-41,-678,325,-571
51,80,-42,-675,385,-671
67,84,-53,-591,472,-874
72,80,-56,-539,428,-943
84,113,-42,-1279,774,-477
66,90,-37,-928,407,-586
81,80,-36,4,92,-542
102,118,-33,-342,249,-411
120,-110,-31,-764,348,-288
120,-116,-27,-543,198,-342
60,5,-63,-3838,-2723,-4338
-27,-90,17,-2923,-2723,-3917
-12,61,-102,-5086,-2414,-3323
1,-5,29,-4173,-2446,-3903
53,-110,25,-6511,-260,-1907
-17,-46,-61,-333,-43,-2204
104,83,-84,1348,2287,2792
-85,36,-67,-278,1132,4527
-63,22,29,4644,1446,3148
-36,116,-123,4653,1885,4449
112,81,29,5994,1803,6316
114,83,94,1003,2815,4825
-52,-14,-42,1435,1453,4123
119,98,-121,-689,-928,4671
35,-37,4,1758,-505,-1143
-45,87,33,1561,1020,-1109
-119,-55,55,585,593,-1547
-111,62,40,519,338,-1941
-63,-27,44,-288,758,-1560
-52,-41,45,-1290,773,-878
-35,20,41,-2840,675,14
-31,-22,13,-1452,159,-55
5,-2,26,-561,47,-605
31,23,30,-478,352,-828
30,-1,20,95,283,-931
42,75,29,-1443,358,-393
51,60,13,-891,159,-332
67,75,11,-668,371,-532
77,107,10,-950,479,-539
72,80,0,-579,407,-517
84,102,4,-730,278,-343
109,127,1,-907,381,-424
120,113,-12,-490,501,-786
126,-116,-9,-844,401,-692
126,-124,-5,-686,276,-649
-124,-107,2,-1043,489,-622
-105,-68,15,-1697,611,-303
-113,-111,16,-410,166,-656
-91,-53,33,-857,339,-565
-95,-73,32,-225,219,-707
-103,-102,19,985,11,-951
-97,-56,9,-210,107,-811
-81,-1,20,-1822,615,-291
-107,-99,18,-322,191,-682
-92,-64,30,-431,272,-565
-83,-45,31,-650,396,-558
-83,-68,17,-9,298,-768
-87,-61,14,-212,303,-749
-79,-17,20,-1168,423,-371
-83,-62,14,-390,254,-460
-5,-1,-33,-2399,1118,-4585
-74,-6,-93,-2252,1,-5021
-100,125,-112,-3375,-835,-5194
-63,101,-65,-1920,-1860,-5773
63,-71,67,-3707,-1950,-4276
1,-35,-71,-4455,-1560,-3802
2,75,89,-5098,-858,-2776
-82,35,123,-4193,872,-2781
-43,68,112,314,-75,-1810
61,70,-85,1009,1252,3908
-77,115,87,-89,149,4455
83,-13,98,4868,699,2923
-88,115,-52,4348,1023,4417
20,83,-61,4737,745,7131
34,-118,-106,859,344,5244
-19,-57,36,-3800,-72,7629
-1,-54,-34,2495,-2814,831
76,49,-125,4271,-1602,-1621
44,115,120,-1438,1935,-1163
-82,64,47,1196,415,-1347
-37,58,19,136,338,-833
20,29,6,-514,554,-920
39,-31,-14,101,489,-1268
66,-36,5,-707,621,-1526
72,-59,25,-1057,439,-1215
53,-110,33,-228,-16,-904
73,-60,46,-826,41,-545
103,-45,34,-900,234,-442
116,-29,14,-507,247,-555
119,0,2,-635,460,-559
121,14,-17,-626,502,-507
126,29,-27,-630,504,-458
-111,52,-28,-715,573,-503
-92,72,-30,-652,196,-363
-85,88,-29,-773,218,-506
-88,92,-17,-693,312,-616
-94,94,-11,-617,305,-627
-87,103,-4,-612,358,-701
-69,119,-15,-506,524,-958
-66,121,-20,-453,320,-898
-66,127,-14,-691,267,-746
-69,118,-6,-555,281,-716
-67,115,-2,-385,299,-641
-64,-121,0,-630,242,-448
-46,-116,1,-555,294,-390
-42,-104,5,-453,263,-406
-43,-92,8,-493,316,-439
-39,-85,14,-415,292,-434
-32,-79,8,-433,373,-469
-31,-70,3,-515,362,-501
-126,51,-44,-3931,5,-4308
7,-57,-30,-1697,-1110,-5014
-103,-18,11,-3964,-1373,-4489
48,1,-1,-2231,-1496,-5647
22,-42,127,-5700,-1319,-3631
-6,63,-31,-5799,-516,-3569
-84,108,30,-3306,625,-3894
29,125,66,3232,-238,-3234
-97,118,15,-2296,1643,5590
-91,-46,-39,3088,856,3179
103,-41,73,4578,2645,2716
-121,27,-127,4707,2337,4651
-54,119,11,1586,2012,7502
-102,-2,-49,1126,633,5243
117,22,-2,989,421,7549
-16,-93,-120,-3559,-50,4333
-4,-99,53,1866,-2973,-250
46,-76,105,3362,-317,-2630
-11,-89,40,43,2384,-1777
-61,107,5,-985,1222,-665
-42,-3,-12,190,-21,-912
4,2,-8,-215,224,-1308
47,-38,0,-896,372,-1590
59,-102,12,-491,287,-1555
71,-102,37,-455,61,-1152
88,-67,51,-961,36,-831
90,-65,42,-1054,277,-877
101,-43,42,-873,362,-537
105,9,20,-892,494,-544
108,12,10,-529,519,-577
121,52,2,-821,539,-354
-127,90,-7,-1138,504,-363
-116,92,-13,-898,465,-386
-105,111,-12,-720,349,-497
-94,120,-9,-618,334,-649
-85,-126,-8,-638,371,-711
-87,-125,3,-726,236,-722
-76,-121,12,-781,276,-598
-75,-118,20,-634,196,-593
-70,-97,27,-887,241,-552
-64,-94,34,-729,241,-540
-60,-85,40,-594,292,-588
-57,-65,43,-690,263,-618
-58,-62,42,-670,417,-663
-62,-72,42,-430,445,-707
-58,-59,41,-618,412,-524
-56,-55,37,-569,353,-543
-49,-53,38,-443,387,-594
-46,-43,43,-540,374,-562
-47,-45,44,-427,321,-579
-105,16,-124,-2920,918,-4590
65,-5,-87,-2551,-241,-4293
-26,-86,-105,-2807,339,-4539
84,-20,-43,-3654,-87,-3767
54,-103,-67,-4709,593,-3490
-94,4,-19,-2259,238,-3791
75,-97,89,-3441,813,-3179
-12,-84,-50,-150,378,-3464
62,20,-105,1188,698,3495
-37,-106,81,-1164,-374,3897
-80,10,-100,4609,841,1242
33,59,-8,3433,536,4028
66,-66,116,2774,1507,5588
-110,-56,41,3590,-116,5988
75,46,52,-733,-1018,7093
-3,-53,-2,442,-2700,762
121,67,17,2659,-905,1118
42,108,98,-1201,1322,-258
-47,-127,69,1225,470,-1390
-55,54,49,782,237,-1799
20,73,47,-1354,1434,-1054
-15,-89,8,-94,909,-1472
6,-91,8,164,346,-1470
46,-51,19,-796,207,-892
63,-73,12,-800,176,-698
71,-63,17,-740,214,-666
88,-52,12,-599,294,-696
98,-37,10,-617,342,-631
114,-12,0,-695,337,-469
120,10,-6,-830,290,-324
127,54,-9,-1079,287,-277
-126,54,-20,-734,384,-526
-118,71,-12,-712,312,-485
-106,85,-16,-557,454,-623
-102,85,-25,-410,463,-759
-97,98,-28,-592,291,-707
-91,99,-24,-651,276,-697
-80,106,-17,-730,313,-635
-70,-116,-9,-1035,307,-589
-68,120,-6,-364,238,-739
-63,-117,1,-542,327,-704
-59,-113,4,-535,334,-637
-55,-108,4,-509,349,-630
-53,-104,4,-514,358,-585
-51,-96,6,-564,362,-498
-46,-94,2,-464,374,-497
-42,-79,3,-511,330,-468
-36,-74,5,-496,346,-478
-34,-65,5,-481,324,-502
-31,-57,7,-544,343,-540
-20,16,-72,-2773,-2618,-4681
86,-38,-67,-268,-4063,-4645
-36,93,-125,-4047,-2863,-3160
-119,49,-22,-2356,-2720,-3390
57,-62,-61,-3077,-3235,-2159
86,-123,-25,-5275,-630,-1285
33,-34,90,-3741,1546,-807
28,-50,-104,-205,1505,-219
-8,-4,-109,-1648,1864,2032
-118,52,69,2125,843,2006
-49,108,3,1708,1130,2558
-122,106,79,5089,777,2601
-28,-21,-49,3652,2214,4816
1,-28,85,3824,4055,4535
-59,-118,17,4376,2090,5400
88,4,43,-5367,3926,5215
-71,-27,-62,2794,-938,1973
-102,-19,8,-1079,-1063,-527
29,36,2,1402,522,-883
-2,-35,26,17,1094,-2047
57,-120,19,-324,1017,-1422
82,38,28,-387,239,-1244
113,36,9,-329,561,-808
115,69,4,-828,324,-528
-126,94,-7,-1074,322,-477
-116,91,-17,-622,293,-594
-99,111,-29,-306,371,-627
-76,-111,-36,-564,446,-537
-77,-105,-47,-504,403,-594
-61,-70,-50,-756,288,-530
-57,-64,-49,-670,186,-598
-47,-36,-52,-694,273,-595
-43,-14,-48,-735,312,-658
-33,-3,-45,-739,337,-597
-27,11,-46,-639,409,-622
-32,15,-47,-547,373,-744
-22,37,-46,-740,383,-576
-13,54,-43,-747,301,-544
-5,63,-47,-567,320,-687
-4,75,-38,-646,289,-622
3,103,-32,-786,271,-552
6,101,-30,-507,330,-630
10,121,-28,-529,353,-685
8,-127,-22,-595,312,-627
10,-119,-18,-587,338,-590
9,-104,-13,-579,343,-565
15,-98,-14,-521,397,-628
14,-93,-15,-470,344,-619
14,-82,-10,-556,337,-567
16,-75,-8,-577,331,-555
61,101,-127,-3769,-1224,-4717
114,69,127,-316,-2685,-6756
89,108,2,-5625,-1862,-4472
20,-20,-97,-3774,-2275,-4247
-35,-51,101,-3728,-2369,-3100
27,96,103,-2972,-1744,-1952
67,-116,-32,2027,3543,3957
-85,23,-67,-1835,1125,5580
108,-39,-77,5785,624,1598
-48,13,8,5267,2609,3144
-14,14,89,3203,3045,5285
-110,-71,99,1702,3482,5012
30,67,-41,1174,-49,5269
120,-45,-59,2571,425,3469
6,85,-87,-2651,-399,1012
42,-6,-9,1635,-1267,-1569
-25,56,12,1593,647,-2203
-22,37,14,-671,1239,-1069
-21,-75,11,-87,183,-536
46,-100,-31,228,422,-677
53,-68,-35,-880,380,-805
55,-103,-45,-768,60,-787
48,-126,-42,-343,226,-787
63,-82,-46,-755,382,-512
76,-67,-57,-792,288,-498
95,-55,-70,-642,307,-555
110,-31,-63,-645,323,-517
116,-13,-64,-726,403,-525
124,3,-62,-724,373,-497
-116,14,-62,-728,408,-493
-110,27,-72,-589,494,-586
-110,39,-76,-515,405,-672
-104,49,-82,-690,377,-598
-99,51,-77,-719,310,-481
-84,81,-78,-873,303,-428
-73,88,-77,-761,265,-529
-64,102,-65,-640,232,-646
-63,103,-58,-582,260,-705
-62,108,-48,-549,277,-669
-61,115,-42,-559,284,-602
-55,117,-40,-386,302,-641
-55,-125,-44,-443,389,-624
-52,-112,-44,-630,325,-512
-48,-109,-44,-453,328,-526
-48,-100,-43,-376,352,-576
-43,-78,-43,-617,341,-503
-42,-83,-38,-418,305,-589
-38,-66,-39,-547,331,-600
-41,-63,-39,-535,284,-637
-36,-58,-35,-567,304,-630
