AccX,AccY,AccZ,GyroX,GyroY,GyroZ
-64,-96,96,-2727,-1210,-4269
126,-13,84,-797,-590,-4102
0,29,-9,-369,-638,-5533
24,-65,72,-3059,-1273,-4337
-110,-3,104,-2684,366,-3336
2,33,126,3526,1640,-264
-59,58,29,1596,4597,4364
-40,51,115,2388,4750,7714
5,-83,87,2934,6722,3061
123,41,-71,-6388,-3760,6071
74,9,18,2320,-2579,-8161
39,-44,-89,-6488,-1997,-5410
98,-103,-20,-5145,-1199,-5089
-117,-114,122,-4641,487,-4278
44,-121,-91,1730,986,-2511
-41,47,50,4377,2173,4455
60,-102,93,2072,4650,7685
-124,-124,-89,3312,4424,5208
-81,-84,23,-3651,-220,3892
33,-46,-41,5076,1536,-7517
-39,-22,4,-6674,416,-4443
49,-125,-34,-5469,1428,-7022
3,8,78,-7058,-26,-6614
87,91,70,-6557,958,-7787
-28,42,85,-4645,58,-7644
7,-81,-123,-180,2616,-7517
-57,-115,-39,28,1347,-4663
91,-72,-99,2410,4056,-2959
69,-117,-71,2178,6648,3438
58,-53,126,4711,6268,10782
12,127,73,-139,4127,11073
-127,54,110,-1686,-1581,2873
-48,68,-74,6255,2637,-5890
-18,127,-91,-4831,-2733,-735
21,22,-79,109,-399,-1118
102,-36,-128,-1886,-100,-574
-7,-47,-65,-1327,-1440,1422
-70,59,-13,216,997,1969
-15,-23,-63,752,2596,3683
-18,-21,41,-725,2342,5318
-59,-79,63,2507,1857,4119
50,38,-5,-2116,302,5188
-35,12,42,2364,1911,138
-73,-33,73,-2367,968,3620
-77,-89,118,4043,1516,-296
-43,69,-39,-646,743,-248
13,84,22,-682,2268,-228
-26,24,73,-22,226,114
39,68,45,-1149,529,-83
42,29,4,-1012,218,-211
-84,-44,32,1084,686,-7307
-25,-23,-64,-1996,-902,-6861
25,41,71,-3619,-1637,-5927
60,-13,-121,-3780,-1268,-5555
30,-28,6,-3844,289,-3534
-124,-77,62,1066,1309,-2991
-23,-110,-100,3687,2525,2659
12,-91,43,2138,2008,8074
39,-18,-107,4048,2949,7385
-127,124,-106,-4773,-2116,6278
10,14,12,2052,-1967,-9136
-117,97,7,-5614,-2654,-5185
125,10,37,-4933,-980,-5213
-8,7,114,-5314,1265,-4032
115,-103,26,1229,1432,-4261
-85,-112,123,3187,2337,3721
-89,5,-68,1917,3807,7400
100,71,47,3777,3121,7384
107,-123,-32,-5232,1713,7143
-96,35,-82,5319,1638,-7392
79,-75,-46,-5226,686,-3276
41,-86,-2,-4082,2629,-4955
115,96,27,-7121,2303,-3798
64,-82,86,-5773,3125,-4462
-126,-117,-56,-4980,2896,-5394
111,35,18,-6720,2904,-7137
53,121,-87,-1536,101,-6555
-66,91,121,-643,2394,-7477
-94,29,-45,767,3110,-4588
120,5,-89,2147,5506,-4290
73,-34,-6,3559,7533,406
-67,15,53,5233,8243,7300
-19,-42,119,3528,7456,12055
114,-22,87,-7483,-2772,13455
59,19,70,10315,3764,-7198
81,10,-77,-2715,-2798,-363
126,-42,-59,-965,-39,-1634
-83,123,-39,-2294,-1530,-1026
31,-35,-14,-2609,-288,620
-80,48,65,-815,541,618
-85,125,45,588,2136,2666
-22,63,79,464,1408,5225
74,-75,-98,-360,786,6128
-8,-23,64,2000,1574,2353
-92,4,-37,-1185,-216,5095
27,-3,-14,-485,-7,1241
-128,108,-110,1119,1858,1973
23,-112,-58,3954,331,-1520
106,-124,66,-3358,1501,790
-5,51,-53,-1090,-252,677
-46,60,-123,-1186,1039,-7221
68,19,23,-166,1246,-6768
-25,-14,-42,-1392,-1218,-7183
91,17,-69,-3168,-863,-6056
-66,-108,-98,-1847,-1048,-6592
84,17,67,-2764,-409,-4063
65,-61,68,-417,1338,-2359
-59,112,-60,3510,3055,4560
63,-35,47,1013,2230,9120
19,-47,5,4057,3844,6551
-52,-89,-71,-5142,-4046,6729
28,-69,30,2349,420,-7450
-6,82,-63,-3859,-2935,-6539
-83,117,80,-3884,-2333,-5516
-74,59,120,-5668,103,-4672
103,19,-41,-583,1842,-5392
-63,-41,-15,4127,1435,384
-37,-37,-2,1364,4731,8051
-58,-26,-47,4254,3973,9991
86,-60,-110,-6007,2619,8043
86,88,-24,1564,-602,-5581
-54,-59,-24,-3669,457,-6835
121,-13,118,-6478,698,-4697
-10,116,101,-6700,2960,-4821
100,-93,16,-5337,2910,-5478
86,103,109,-7013,2687,-4603
-95,17,-75,-4093,1296,-5428
1,98,-29,300,2159,-6872
5,127,111,-39,1350,-6869
-67,-55,-32,-1480,1038,-4293
-82,-82,-5,2709,5009,-3958
79,-58,-109,769,5632,1002
-118,11,-9,4786,7814,7343
109,-120,81,6103,8953,12512
41,99,31,-18833,-8061,14408
-74,-14,34,16903,5233,-10462
118,-79,51,-4103,-3260,943
72,41,-11,456,-1563,-1752
75,126,0,-3272,-1298,-305
98,55,53,-1724,-669,-512
63,109,-102,-811,-766,1894
-38,-10,-53,552,1232,1980
123,-39,42,-646,1543,4688
-17,-118,-29,1932,1508,3660
123,11,103,-1026,578,5089
-17,-39,-123,2573,2235,1524
69,126,19,1417,560,4087
107,-88,104,-377,2803,2280
34,53,-92,-333,-487,1825
85,1,15,-804,-505,1972
-79,14,-24,-809,1127,-6737
115,-110,-125,-196,-81,-8046
104,84,-9,-2543,-35,-8419
108,-11,62,-2256,-1356,-7517
-93,19,-69,-1556,-1745,-5101
-102,28,29,-1842,307,-2847
-24,88,28,4002,2591,2087
78,-75,-45,-1090,4508,8879
95,-4,-31,3279,1177,9999
53,-67,-54,-3821,3078,6258
-71,27,-107,1171,-3714,-3380
-13,-99,41,43,-389,-6820
-48,-19,16,-6227,-956,-5660
9,71,-95,-5774,-703,-5254
-36,98,-18,-4160,1700,-5870
40,-21,65,380,1700,-5542
-22,71,115,2952,2106,1321
106,123,-69,2316,5070,7439
11,17,-7,1866,4410,10222
-41,43,-68,3628,3674,7252
-100,-104,-93,-10315,-818,2414
-95,24,96,12474,755,-10404
40,119,78,-12161,1942,-5432
60,-54,100,-4852,1553,-7187
-16,-22,-31,-7681,2959,-8330
119,-81,63,-4086,2284,-8798
42,-3,-25,-7930,1418,-7589
-90,-107,-50,2556,3123,-7630
-63,27,92,6302,1017,-6482
41,-117,-65,-1267,-424,-1622
-128,96,-103,2364,4973,-2379
27,-79,-115,1893,6250,3
58,74,0,2202,7252,7414
52,-66,25,5106,4977,12496
97,65,61,-9899,-1350,14309
-112,-38,-98,9300,464,-6488
-113,-95,-44,1114,46,-552
-63,5,-20,-2263,788,792
10,106,84,-1377,1001,-395
-97,29,-64,-2323,275,-1017
-128,-54,22,1269,-1864,84
59,107,73,-24,46,617
67,-9,-75,594,655,2647
-70,-24,-102,992,3366,3925
-82,103,-44,-3446,3937,5295
-122,-99,-100,-312,325,4618
6,90,-36,8144,-221,2474
-79,-1,96,4056,1494,-1062
115,-86,-41,-5192,2914,1464
34,30,-38,-466,585,910
89,-37,-6,-1579,-1340,-7158
-30,62,-47,-1669,-2144,-8078
110,46,-78,-4028,-3646,-5931
-60,76,115,-5175,-1664,-5264
67,-18,37,-2082,-693,-4076
-19,96,-51,264,735,-2584
46,-57,-112,3355,2809,2927
-125,-72,99,1458,3087,7993
-54,-52,-36,4104,2571,8378
52,74,-2,-8034,2270,7107
-109,29,125,3562,-2697,-5382
39,116,-43,-2139,-1425,-5713
44,-78,-112,-4629,-3011,-4937
46,-88,25,-6141,-1341,-4028
81,101,98,-1913,2005,-5316
30,25,88,1847,2807,-1449
-62,55,-101,1890,4247,5902
-92,-9,19,1621,2314,9444
-36,6,-28,2666,1155,6463
28,-22,-97,-6387,-544,4367
-32,-27,80,7942,1437,-8151
64,-64,118,-6822,2420,-1877
127,106,1,-1657,2295,-4480
50,-105,-104,-4582,2654,-3668
-19,91,-56,-4890,3121,-4496
48,-75,56,-3845,2694,-4976
100,89,-110,-4638,1456,-4796
-45,16,-103,-4756,781,-4324
-4,-59,83,-3038,973,-5356
-106,26,-77,-2358,1234,-5890
-114,-6,-92,-2135,1982,-5614
79,-102,23,-538,2531,-3796
97,113,-112,2105,3114,-3445
78,21,-105,988,3546,-1322
-19,-108,118,2919,5320,138
-112,-83,-86,3546,4981,3523
82,7,16,6501,6569,8643
51,-110,-66,-458,994,12151
54,-68,29,-6137,-3298,9312
91,113,-26,7755,1560,-4904
51,32,60,-147,398,373
-36,73,-65,-61,1043,1555
-90,-127,66,-1530,371,3122
21,96,64,1338,1577,2433
63,-62,-47,-2391,1817,2735
60,-35,-31,1503,-956,3096
100,-56,-24,-1686,2247,3033
27,-40,92,1227,-634,1593
64,-124,48,157,1684,966
18,62,-96,-265,173,751
91,-50,-75,2052,-349,-6289
-85,39,28,-2654,-708,-6578
-88,-31,98,-3736,-3439,-6911
-102,120,102,-5046,-2149,-6491
108,125,62,-3705,-1306,-6379
-25,122,74,-4602,-162,-3200
115,99,108,3078,411,-2762
82,-89,107,3716,3664,3996
-28,-114,43,340,4289,9684
97,-104,26,6840,1118,8022
10,-91,119,-8671,-80,6611
-125,-15,0,4040,-2723,-7438
-15,68,58,-4835,-1730,-4764
42,99,-88,-5731,-2022,-4964
-20,-33,-18,-5600,-322,-5471
-106,67,-126,-2721,1325,-5285
111,41,6,2878,1360,-2572
3,-26,-1,2798,3985,3709
-117,-61,-113,2,5726,8907
26,-127,-26,5805,1874,8324
-43,88,-56,-8469,317,10354
-81,-25,-112,7903,1885,-8265
114,80,125,-1493,1463,-5087
97,-32,-100,-5082,2608,-4930
116,-101,-27,-6143,2092,-5008
93,84,-59,-5838,4004,-6072
99,-32,-64,-5329,3230,-6410
47,125,-89,-3288,1549,-7156
76,-3,19,-6643,1015,-6230
-21,-36,-50,2818,2482,-7334
17,110,17,4110,1196,-6409
-124,-58,53,-643,1668,-4718
-70,4,76,1465,3350,-2963
24,23,-50,915,4912,-505
-21,-24,111,1855,5979,4660
-72,-71,125,4097,8617,8289
-61,125,-55,3555,5928,11779
-103,-36,-126,-14048,-3546,9383
52,-75,62,9250,971,-5166
60,-110,66,-2546,-234,395
-15,94,-65,1481,-358,-894
30,63,-24,-2772,320,-226
9,-23,-25,-852,-773,320
84,96,0,-742,75,1143
-6,43,-101,-1078,683,2931
101,-12,35,288,2454,3748
-123,-11,77,-534,962,5175
-4,31,117,1218,-1506,5085
91,-113,35,2493,2298,1085
-55,-15,-100,-329,888,2365
119,84,-63,-2870,-1073,-6876
45,41,-64,-3804,-2885,-6731
12,-84,-52,-3831,-1866,-7329
-121,96,12,-4239,-1198,-4755
-127,99,116,946,-254,-3906
35,-80,-43,2893,3696,1705
-10,-38,-102,2659,4097,7929
79,-24,112,4525,4586,7474
52,-94,-89,-5403,1307,6383
33,69,-21,1653,-3666,-6189
-14,102,23,-3347,-2033,-5312
60,125,52,-5403,-2460,-5367
-113,-85,-98,-5764,478,-5121
-4,11,64,3488,2510,-4297
117,77,-4,522,3472,6939
-36,-21,72,1972,3146,8880
-85,101,55,1735,4071,4714
102,-67,118,-2676,-2504,2406
125,-112,94,4075,2078,-6174
-107,-100,-54,-4972,2067,-2162
119,94,40,-2843,2940,-4220
15,105,105,-5218,2616,-3173
-9,76,-127,-4623,3533,-4516
-81,62,25,-5106,3133,-5023
-58,110,111,-3713,2307,-5530
-41,5,-24,-5075,1381,-6069
82,21,43,183,1321,-6220
-36,-17,43,658,1953,-7033
59,64,8,2771,1517,-4962
103,5,-111,2169,3594,-4580
-67,-100,115,1869,3845,-1488
91,-52,48,2202,6385,2155
-95,34,11,3585,8719,7376
38,-81,89,4450,8213,10259
-89,13,-80,-10315,-545,13548
96,124,-64,10040,-295,-7030
-116,85,38,688,-452,-1953
101,52,54,-2614,-1015,-187
-84,-121,31,-2717,-460,-626
-44,-49,-37,-1025,-762,-1075
41,37,15,-877,-379,15
-91,31,-64,-2500,305,2008
-9,108,-121,279,1628,2897
82,61,-61,637,1745,5222
-37,-38,113,375,1079,5814
81,104,9,323,922,4691
-127,0,-87,1608,-533,2848
-125,-120,68,2266,481,1662
95,94,-4,94,1800,483
-30,101,120,2741,1589,-294
124,38,10,-1486,-2149,-6888
-2,-31,-5,-4014,-2513,-6431
-5,14,79,-5329,-2301,-5847
94,121,1,-4542,-1567,-5283
-91,-109,60,-3090,-235,-4187
-120,-120,-92,-444,1209,-2777
-90,-74,7,3118,2135,470
23,-59,-104,1990,3389,6764
32,0,-39,4249,2533,8413
24,29,-81,2323,4032,5205
13,-42,-103,-2688,-5148,2918
-90,-118,-120,1215,-1053,-6107
103,70,-37,-5048,-2139,-4377
-45,92,-96,-5283,-1898,-5055
-59,-99,-45,-4470,-898,-5109
-72,-117,122,-2626,1132,-5108
86,-23,8,1419,1097,-2476
-58,-67,23,2664,3515,2355
20,75,-4,1706,5053,7207
-74,96,23,5296,3814,8343
121,78,95,-4786,4346,7279
-127,1,7,4301,-581,-4099
-67,61,-60,-1729,841,-4077
85,105,-29,-5237,2249,-3004
0,-103,-96,-4870,2271,-4048
-30,-118,-42,-6138,2800,-4114
98,103,-100,-6644,2812,-4285
6,-96,72,-5771,2752,-4806
1,19,-21,-5931,1388,-4968
121,97,-70,-4576,1479,-5947
47,-61,-122,-1720,1851,-6375
97,-78,-89,-562,2549,-6377
107,40,-49,1226,2700,-3691
33,55,-126,2386,4462,-3202
-4,83,2,1341,6322,-451
61,79,49,4741,7587,3468
76,-119,-45,5532,8651,8187
-10,-60,-119,3030,6043,12264
-43,43,-90,-8777,-2078,6409
74,-74,-98,7694,1233,-3996
-111,-119,-103,-2268,-1864,908
51,90,-20,-533,326,-463
40,-31,59,-2216,-140,302
-64,-108,-78,-392,904,358
126,-52,-108,-1774,-1249,2964
-82,113,25,883,2745,2438
-38,108,95,-336,2260,4172
67,46,85,1364,800,4409
-102,-49,30,1601,3084,1611
-107,103,-60,-137,1542,2676
27,121,64,-4097,1797,-7674
-32,-126,37,715,-2757,-7373
-25,-100,-2,-7854,905,-5774
-13,-121,36,-2517,107,-7026
-60,13,37,-2065,-92,-5841
-117,-120,-99,-2453,474,-2720
-87,-25,-64,3986,2108,-387
30,81,-35,2065,2807,6729
-40,31,120,2101,3208,10036
126,-128,52,6494,3310,5726
-14,-54,52,-8383,-5052,5691
21,-9,-86,4915,-696,-8083
-102,-57,-64,-6831,-2173,-4495
102,-108,109,-4947,-2310,-5577
124,15,-41,-6532,381,-5070
14,81,86,-529,1172,-6073
-100,-116,-73,4360,266,-3395
-47,-62,-107,1466,4238,5048
59,85,-6,985,7279,8659
32,60,46,4676,3481,12102
8,-36,-55,-11989,1232,4632
58,-78,-7,9088,-2674,-6840
-48,71,-64,-6246,2973,-3166
92,-96,-21,-4644,2057,-4363
74,-68,-22,-7128,3558,-4587
-17,-110,0,-5583,3194,-5365
85,17,-6,-5876,2218,-5509
110,-38,-66,-5781,1621,-5086
-128,4,-102,-5636,895,-5304
76,12,106,-1379,3003,-7850
41,46,-44,1525,1480,-6225
-117,54,45,-153,2968,-4238
22,-19,-71,1789,4669,-2366
-41,5,45,2237,6760,1284
-84,69,43,3933,8477,5340
-81,10,-37,4619,8021,9351
-48,33,-23,-3407,3406,13569
-65,-126,-43,-179,941,1758
74,88,118,3546,452,-3264
-36,30,-45,-3686,-1145,294
21,13,-43,-43,-429,-923
50,-32,-77,-1478,-458,-919
-72,6,-9,-1330,-1788,630
-120,71,108,-1621,-533,993
108,-108,-94,876,1569,1852
-90,1,-96,29,2783,3320
16,-50,78,-20,2823,4767
45,-71,45,326,844,3907
93,74,57,1864,610,3039
88,-121,-81,-1740,1375,1723
-15,75,-116,-1474,845,-6373
36,-67,-67,741,112,-6328
52,-27,-63,-1786,-2648,-6436
-122,119,-105,-3963,-2751,-5269
-29,22,-89,-3387,-2222,-6214
87,-69,-115,-4228,-1157,-5015
28,-104,86,683,-113,-4708
-93,-76,-81,2899,3000,950
-75,90,-9,1367,5687,6385
-39,-1,-16,1972,2662,10265
12,-8,73,5551,5411,4342
46,-23,121,-12886,-3142,3954
-121,-23,78,7229,-2043,-7333
-126,-63,-49,-6074,-2951,-4786
76,-101,-77,-4512,-2610,-5358
-68,-50,-11,-4995,13,-5239
-121,-3,29,-195,859,-4131
82,35,87,3186,2583,522
22,16,26,2599,5701,7566
-90,2,-44,2025,4428,9276
-91,-4,3,-631,3798,7212
66,-86,-118,-1539,536,-2241
20,88,4,1475,528,-7739
-45,-24,15,-7290,130,-4931
-86,-65,9,-8547,1412,-4458
92,-43,5,-5700,3688,-5421
-3,-68,50,-5557,1742,-4615
20,6,90,-4894,1450,-4932
49,64,37,-3871,657,-5805
71,-114,-96,-2175,1662,-6942
82,-39,-113,1947,2084,-7123
-123,76,96,-501,1974,-4732
93,-34,-62,2631,4809,-2785
62,-10,4,1722,6163,177
-79,64,-45,1981,7615,4250
-123,-79,-54,4161,7758,10016
1,-65,90,-3618,5882,10097
-44,-63,-68,-4516,-1811,1518
-6,-92,-21,4562,1127,-3659
-102,121,61,-3769,-1575,-405
123,29,16,-417,-1702,-395
-44,123,28,-2265,-201,-225
-44,57,-111,-1122,-1072,777
52,-113,-110,-378,372,1428
-6,-111,21,-1209,1530,2781
96,45,-86,1008,2023,3622
-88,57,124,677,2739,3871
-37,-56,-121,1982,728,3695
11,15,70,1070,2436,1484
56,72,-37,1262,2027,1131
-128,54,64,-2099,-764,-6178
-48,-74,-45,-1375,-1645,-6597
41,123,-30,-4587,-1977,-6061
74,3,-90,-2441,-1993,-5719
-18,42,-107,-3384,-456,-3493
-45,59,-61,1263,1304,-2413
-22,-102,112,4094,3947,3740
17,-1,-3,1769,3899,10722
109,71,-105,5275,3831,7447
-48,-29,61,-6567,-3057,6790
-18,6,-81,3940,-968,-8012
116,-53,36,-3785,-1657,-4167
63,-118,-106,-4163,-2205,-5078
76,-111,-63,-5547,-1167,-4262
11,-20,83,-2338,392,-5078
-71,1,-78,601,787,-3752
38,-1,-91,4052,2219,1320
-128,23,46,1571,6998,9564
76,122,-13,4350,3958,10483
18,69,-61,-9933,415,9021
-52,-106,-102,9534,109,-10277
100,68,39,-4222,792,-4596
-14,-6,-113,-5312,865,-5573
107,6,-70,-8735,2100,-5269
21,-2,-57,-6279,2616,-5740
-51,-65,-76,-7861,1700,-4823
-50,99,61,-5131,1083,-5494
90,-122,84,-4631,1780,-5864
-83,100,-91,496,1267,-6585
-42,13,68,-1602,2593,-6140
-50,-50,40,2098,2586,-3818
-105,8,125,2742,4002,-2595
111,11,-6,3497,6283,744
84,51,-100,3703,7735,5610
3,-114,41,2309,8988,9684
95,24,109,-93,318,12118
-68,-110,-78,-1828,2473,-141
107,-80,-128,3444,-3100,-3832
73,6,-5,-2661,-1627,-815
-16,-118,29,-555,-686,-692
107,33,-120,-3836,-1190,931
-87,37,56,-846,674,-41
115,0,9,481,-265,1677
-104,60,126,2653,2105,670
-75,82,-112,329,2059,2631
27,-30,-1,-1013,678,4162
94,-53,102,2742,1919,1463
4,-87,1,809,1768,2550
38,-31,-105,2252,3282,134
101,33,-15,511,2376,1400
9,9,-45,-2371,-2474,-4566
-20,-25,-19,-2435,-3359,-6866
-35,31,-29,-5440,-3257,-4662
87,-64,121,-6904,-1456,-3770
75,98,92,-1361,-1013,-4642
120,9,45,-2353,-33,-2268
-111,-94,30,4232,2158,-1622
-68,114,-80,3217,4741,4835
98,-101,36,2879,2693,9879
74,-85,-90,7102,2970,4620
-74,16,-7,-7942,-4025,4257
-16,-92,86,3767,-1412,-8879
111,-98,-80,-8255,-1259,-3480
-111,61,-120,-5052,-1582,-4969
62,75,-27,-5344,30,-4446
72,80,-49,-1793,-278,-4735
8,-30,109,-1309,574,-2806
10,-78,-39,4046,1015,-970
45,48,98,4937,6838,4959
101,-67,-30,965,5239,12639
3,-58,2,6775,4383,4182
-16,2,-37,-1873,-913,-2631
-69,-74,-93,1962,862,-6963
-62,-96,-124,-7826,2127,-3300
63,-75,59,-7322,2559,-4129
-77,21,-30,-7046,2730,-4551
36,114,-63,-5788,2257,-5356
-67,98,-68,-6388,2860,-5793
-95,-88,-49,-3562,655,-4873
109,113,92,-1680,2238,-6392
28,-52,71,-1172,855,-5487
116,-41,-29,291,3458,-5541
-7,-69,87,2548,2900,-3969
50,-26,83,598,4910,-1612
-15,0,-28,3389,7351,1479
-37,84,-10,3933,8820,6744
-34,110,-21,3646,8833,10068
-123,-34,-50,-10995,865,13951
-67,-9,109,11862,215,-5806
42,-1,116,-136,-741,-1837
-120,-42,-56,-1118,-655,-705
-85,-89,-23,-1639,-754,-912
20,47,56,-3191,-1968,660
90,58,52,-992,-911,-202
-36,-82,-64,307,-1563,1074
39,126,-40,348,1847,2175
45,-22,-1,-163,3301,3062
-115,-66,113,2504,2816,2613
17,65,-81,-1036,1087,4901
86,11,21,-499,-830,3440
29,-82,-21,-1836,-804,-5410
101,-109,-78,-2152,-1784,-5672
-56,-58,-12,-2831,-2195,-5104
-4,15,-1,-3125,-1793,-3819
-60,-28,-113,-1700,-72,-2984
-25,89,112,2056,2028,-903
-60,-31,76,3491,4882,3826
80,-8,-125,1408,4180,9022
-83,68,-83,3485,4367,4786
-21,-122,121,-4356,-4684,4358
-12,-30,-98,3302,-1351,-7599
-8,-46,22,-7086,-1958,-3454
102,-60,-36,-4975,-2891,-4884
79,-117,-14,-5689,-492,-4568
-11,-85,97,-2554,1449,-5214
119,53,92,4500,536,-2493
-2,9,95,610,5362,6086
-1,-115,34,4418,4180,8946
38,99,-34,1649,5354,4669
-62,42,43,-2724,-2043,4041
-83,-115,92,3414,-51,-6315
-77,110,-107,-5247,502,-1610
-97,-75,64,-3531,1778,-3367
95,-14,-94,-4500,2696,-3310
11,79,12,-4332,3131,-3572
-71,-108,-100,-4686,3711,-4106
-18,-18,109,-3768,2629,-4003
82,-57,-39,-5111,1960,-3612
106,-52,1,-3727,1967,-4650
-101,-4,117,-2574,1277,-5372
-128,-123,-55,-3799,1978,-5737
123,-14,-23,3633,3551,-6412
31,-112,-96,-10,3455,-5803
89,26,12,3272,3481,-3203
-74,65,-3,1169,4279,407
16,75,-121,2315,5029,4509
118,-118,104,1836,6151,7363
69,89,-66,5130,3760,9485
77,24,124,-8098,-222,9309
85,-43,14,5538,-127,-1543
-100,100,6,648,73,-1067
53,-38,52,-587,-231,1414
-88,-62,27,-1595,904,1657
63,-26,87,-69,62,2580
-23,20,-18,-1297,1141,2520
-66,-6,-119,657,-139,2264
-21,9,-120,187,1136,2549
18,67,122,-875,1159,1897
27,-20,-88,2011,1295,616
77,-1,-31,972,1527,140
54,-80,-88,-3516,-1330,-4097
-89,-123,105,-2537,-955,-5088
-31,35,98,-2466,-1676,-5654
-1,-48,-4,-2590,-1641,-5020
-101,120,-65,-2574,-413,-3922
-69,-4,84,978,1165,-2671
-113,-6,2,2398,4030,3163
-60,-63,-69,2046,5308,8049
-8,-114,-105,5276,3926,7699
34,-4,-98,-3250,-1263,5178
-82,-44,-24,2884,-2684,-6567
111,109,-65,-6293,-2224,-3230
-14,-92,-78,-5301,-2436,-4082
56,-42,83,-6151,-160,-4220
97,109,84,-1126,2509,-6277
33,93,55,3483,734,582
105,99,43,2369,4969,7299
33,-34,-107,3542,4113,9220
119,127,-66,-2882,1562,7208
-114,-20,-78,665,-826,-2717
25,73,-100,424,867,-4487
-84,-15,11,-4464,2083,-1934
109,-29,-37,-3615,2619,-2951
68,50,21,-4188,2947,-2408
-69,-27,-100,-3596,2804,-2674
93,-70,28,-3154,3140,-3321
-64,-93,23,-3765,2308,-3179
55,59,-95,-3706,1931,-3087
117,-62,-14,-3312,1664,-3927
-28,17,-61,-2721,1032,-4245
-39,46,-104,100,1940,-5698
126,-111,-42,1071,733,-5418
-107,-117,11,-1482,1392,-4977
-122,-106,120,1187,2333,-4752
67,88,-44,3716,2757,-4431
-107,40,-78,1138,4688,-2636
74,65,-78,918,5462,3421
-77,100,73,-731,9247,7451
-70,-60,-96,5572,4465,11075
-123,-86,-32,-11228,-3600,11445
90,-128,37,6434,25,-3304
20,89,10,2871,203,-2073
-115,-104,-71,-2486,413,1054
-88,-30,-90,-3707,-821,2241
-90,-5,55,-288,1202,497
-72,78,10,356,-936,1684
-12,-59,119,425,1299,1402
-63,-2,12,-255,989,2831
43,-46,-75,531,1082,3187
79,23,-83,-1166,811,2501
-92,-107,-58,-2144,736,-5387
91,-42,69,-927,-798,-6691
-50,-56,41,-3962,-1055,-5926
-8,-98,54,-3803,-960,-5697
100,42,-110,-1903,-412,-5751
11,30,36,-1494,282,-4081
122,87,27,2348,2616,-2294
57,-114,-29,3722,2850,5196
-59,99,47,213,3855,9829
125,-53,-7,3228,4482,5845
-29,73,84,-4595,-5148,3563
83,-33,83,1856,-910,-6414
-73,-53,63,-6132,-796,-4246
65,121,7,-4015,-774,-4897
104,0,31,-4412,1135,-4418
19,-3,5,1351,1723,-5038
-66,83,-26,3469,1179,-110
92,29,-32,813,3823,7458
-66,-92,35,3045,3151,9183
81,-10,-3,848,1530,5470
-52,112,-31,-771,-947,-3055
100,52,6,233,-64,-5052
-92,8,46,-6154,1554,-2131
117,-101,-47,-4503,2429,-4317
89,108,37,-6642,2226,-3409
-16,32,-89,-5241,3214,-4776
-23,-57,74,-5307,1523,-3394
93,59,-72,-5685,2126,-3755
113,87,42,-3762,1402,-4178
-13,-72,111,-4711,1720,-5005
40,98,61,-328,2578,-5544
3,-45,0,-798,3293,-6079
-12,97,-71,2297,2884,-4341
-10,-121,-124,1172,4060,-3026
18,62,24,2110,4539,-300
81,104,100,1672,6608,2755
123,-51,123,2855,8142,6707
-103,97,111,388,7623,10389
-47,-111,-81,-5430,-4025,10597
-11,-6,98,5881,2400,-4692
-17,77,7,-791,-1979,360
-94,-116,-121,-1080,225,-827
42,-30,27,-2095,-1584,435
99,-11,-22,-1423,-1229,639
82,-102,-125,-714,-1368,1866
80,53,-42,-1036,181,3088
-115,9,-106,2216,1719,2987
-31,-62,61,192,1737,3789
52,81,-110,1705,1633,3702
60,-51,55,-944,479,2690
-12,49,95,-1423,-1011,-5771
79,-82,-20,-3002,-1917,-5677
-116,-43,119,-3909,-2314,-5816
-5,-55,65,-1937,-2425,-5256
-29,-2,55,-3859,-781,-3254
-84,51,-47,1754,911,-2400
-65,-110,-79,2886,4024,4164
21,80,91,2795,5078,8539
-100,54,-27,6074,4132,9011
-126,38,0,-13212,-1049,7187
-82,97,116,8156,-3105,-10081
-5,-78,-123,-5819,-2347,-3923
-48,-37,-126,-5994,-2964,-4581
-43,-15,94,-5634,219,-5315
19,-85,35,3096,2304,-6530
-63,-108,82,2740,2255,3946
-42,75,-4,1220,7546,8600
2,15,107,2974,3894,6282
74,-66,-78,-3238,-763,3567
95,-121,31,4776,60,-7241
90,-124,64,-5558,66,-1913
78,-29,-52,-3996,1739,-3790
-17,-19,7,-4692,1701,-3698
-54,50,66,-5198,2265,-3614
2,37,21,-4092,1918,-4022
-104,25,-12,-5534,1534,-3311
-43,70,-42,-4415,1768,-3732
23,-27,51,-4079,962,-3958
-93,-26,75,-2608,1386,-5485
-86,68,-76,-2502,1380,-5732
-5,118,31,904,3497,-7160
-60,-120,-109,1020,3448,-5490
-98,-16,-63,3702,3594,-3744
-17,16,91,69,4350,-189
27,24,-28,3159,7859,3406
74,6,-45,3418,7740,8486
-78,110,-24,3349,8177,8538
77,111,-81,-15500,-5637,10387
69,-98,-60,10701,52,-5454
65,-81,67,1475,-1021,-196
-11,98,-96,-3477,-778,1513
-104,72,68,-453,700,270
-41,-42,71,-302,1256,-368
-90,28,-72,-39,188,1364
41,-80,111,-1336,1454,1615
26,-71,-68,-208,1207,3046
84,27,-71,-1397,1273,3227
-128,-10,-126,279,880,3362
-51,42,-33,-848,235,2804
16,121,123,1133,946,1656
-113,54,58,-1894,-908,-7017
56,-102,-30,-2440,-2609,-6165
94,-69,18,-4808,-1375,-6187
-91,7,-62,-1540,-2173,-5469
-3,-56,84,-705,-1258,-3957
18,-89,26,1620,1017,-1348
-24,-89,-111,3862,3825,3902
-43,24,-94,1103,5411,9094
-7,-32,14,6396,4728,5024
-31,-77,-56,-7471,-3283,4824
-65,-54,17,3218,-2351,-6230
-43,-84,-52,-5515,-1534,-3879
57,-76,-125,-3970,-2646,-5138
97,-48,-17,-5603,-74,-4612
51,-67,4,157,829,-5635
6,8,59,3857,878,-544
20,-15,81,2193,5143,5064
-74,47,109,4540,6001,7444
-45,-68,-72,-2101,6937,4949
20,-39,-114,1595,-3665,684
-95,71,90,949,669,-6125
-63,125,37,-7478,1083,-2174
-110,21,-106,-5136,1321,-3982
-118,-86,31,-7986,2298,-3452
-3,81,-86,-5346,2550,-3860
21,-73,6,-5455,1795,-2784
-100,37,-111,-5447,1376,-2325
27,86,39,-5163,1664,-2428
93,-10,-112,-1796,1175,-2783
55,70,32,-4949,1313,-3855
119,-80,-83,-452,2127,-3625
-102,-58,101,501,4510,-5676
83,64,13,2296,4724,-6010
85,-117,-106,1623,4169,-4046
47,90,73,1831,4229,-1123
-15,123,13,1570,6068,2127
-36,-32,24,3762,7875,5770
-13,-113,124,4791,7690,8000
21,62,127,-9315,3346,11485
40,-40,81,4507,-1866,-1476
27,65,-6,2108,-1031,-1790
-79,58,-95,-2138,-1168,69
60,-89,2,796,-1163,-518
30,71,-55,-4804,-1329,1887
7,45,110,983,-826,-55
69,5,77,-2495,55,2839
17,80,87,-1433,1000,3159
97,-40,-70,3797,1980,2187
-75,-95,4,-956,2277,2696
-19,116,-37,472,397,2264
-48,-4,37,-3817,-1191,-3399
-56,-41,-83,-2461,-361,-4845
-20,-81,-96,-3133,-920,-5123
25,54,126,-2563,-738,-5676
64,31,-42,-1897,-1138,-5567
-116,112,-69,-1895,-646,-3890
76,-46,5,-1462,127,-2672
59,-50,94,2567,1476,-1699
-7,-25,104,5146,6158,3468
73,110,-106,1193,5988,10445
114,-6,-34,2491,4903,6408
-106,-126,19,-4535,-5296,3423
-122,-1,121,2129,-2119,-7932
15,-113,113,-7821,-2033,-4154
61,-28,-111,-3046,-2402,-5666
109,16,-11,-4099,1004,-5665
-73,-52,109,4306,840,-2401
-80,-50,77,2430,5057,5290
125,-68,-28,2827,6266,8707
-39,-117,-44,-4953,2636,7560
53,74,-112,286,-2953,-3608
53,113,30,-638,1110,-5407
59,81,19,-7435,287,-1816
-44,-59,-39,-5322,1917,-2867
100,-6,-55,-4931,2039,-2339
0,39,-119,-5255,2314,-2454
-103,-27,125,-4815,1994,-1938
34,99,119,-5145,2157,-1938
-119,126,-64,-3273,1737,-2834
8,-2,-16,-3776,1536,-4004
-13,1,-11,-2812,1188,-5116
-123,5,-86,-1881,2575,-6686
-76,-111,85,-34,2642,-5821
-124,-25,120,1319,3821,-4431
100,-28,24,874,5873,-2097
43,0,-95,2219,6763,2266
-90,91,-18,5117,9267,7210
-99,-17,112,3872,8670,9784
-101,-36,-95,-13053,1355,13516
-112,-18,-17,10715,-1365,-5742
-119,-37,91,35,-1076,-406
56,-116,111,-977,271,974
126,21,74,-1963,1412,789
108,108,90,-263,224,1188
25,-59,-26,359,1222,1233
-79,-97,-37,-2690,146,3540
26,7,-66,2495,2487,1513
79,-71,-106,-1211,1275,3379
86,-55,2,1205,1679,1675
121,55,-79,-236,1211,1541
56,-23,-97,-2944,-709,-5464
-75,-89,63,-1760,-1918,-5873
-87,-120,17,-4737,-1805,-5369
-23,-103,77,-3534,-1316,-6311
60,59,59,-2818,-1061,-5262
-68,-3,-1,-2702,-46,-3449
-48,87,54,4739,1676,-1683
73,108,-52,2026,4812,5503
-117,-47,-76,991,4486,9678
-44,-52,38,4818,3521,6734
64,-94,-90,-6581,-1251,4678
44,-123,8,4001,-1209,-5111
77,52,-104,-3807,-53,-4666
-88,-120,21,-1786,-1295,-5858
-82,-8,-27,-4801,-1746,-5468
-16,73,-124,-5023,162,-4380
86,-99,13,2496,1116,-4609
-87,32,-89,2176,3226,3184
-105,-10,-117,349,4540,7950
-17,81,-23,2938,2161,8497
86,125,-35,-4625,643,5513
99,-66,121,4321,846,-4143
66,-123,-1,-277,1399,-4508
40,-63,70,-3644,2574,-4790
-106,112,-19,-3511,1121,-5421
51,76,-35,-6451,1316,-5274
-112,-30,-125,-4126,968,-6034
-58,40,107,-3812,164,-5789
-36,98,92,-6592,-453,-4468
118,10,-61,-3821,-171,-5056
32,126,81,-481,581,-6759
93,42,-100,516,-163,-5675
-112,-116,-21,1230,2034,-5553
29,-27,-24,806,3196,-3801
-89,-79,101,21,6116,-2198
4,20,48,2171,8647,1858
-20,119,68,3581,9232,7094
54,82,57,4567,9213,8559
81,-113,84,-13942,-1945,8750
-45,-29,81,8248,-243,-3284
-118,127,111,202,-668,-1512
-89,-20,-4,-843,-1469,-1373
-43,-123,69,-3041,-1249,-1274
50,-113,68,-1033,-328,-1570
-44,-88,-79,-1108,-45,-301
-87,89,79,-2271,984,1291
-25,-88,41,1047,2363,3141
4,-123,82,-316,2491,4132
-117,-90,37,-1178,1092,4909
-60,123,-60,852,437,3672
-79,-40,17,3919,3753,3220
121,-5,-17,1643,6181,10841
-32,-99,64,648,2161,8526
94,8,105,-1232,-3520,-1609
44,-112,65,1255,-1651,-5786
-38,-41,9,-7100,-1504,-3589
-35,102,-80,-4585,-893,-4403
-10,-88,-62,-3730,-12,-4500
-107,23,36,238,464,-5345
93,101,-97,2659,1029,-3754
-43,-9,-11,4945,5588,5542
-101,65,-72,592,9775,12242
88,-76,-110,-6555,-1459,10515
-113,-115,-35,6369,-857,-8213
115,108,-11,-3941,-448,-3770
-71,-3,-29,-6650,382,-4915
16,-3,62,-7844,340,-4620
-3,-105,11,-7854,2117,-5334
14,-90,76,-2702,-80,-5371
-77,-74,-64,-7430,857,-4537
-24,2,-125,-3811,376,-3732
-26,30,7,-2956,702,-4272
-40,-105,31,-2180,267,-4998
114,-75,80,-1696,201,-5073
67,84,-116,-697,1857,-5109
-119,-82,-116,547,3431,-2932
24,-40,116,1972,5956,1062
-68,62,-103,4935,9994,5160
1,15,-30,4306,9148,10133
-116,120,99,2985,8459,12141
-111,18,92,-3763,-4002,3379
-82,48,-7,7064,1750,-6301
26,-57,57,-1662,-406,-976
-91,-116,100,-1329,-157,-151
7,108,86,-3520,-7,-18
116,72,116,-759,-1083,181
-46,-18,-119,-1260,-204,840
98,-52,23,-1453,-94,2770
-107,-67,11,-686,1584,2814
-75,-36,-24,1281,2102,3363
30,126,12,1994,1134,1655
-101,69,-100,1059,2787,2065
52,91,19,853,1077,889
-112,-114,-47,1842,2126,424
72,-64,89,110,772,191
76,5,9,2187,949,-1349
81,-117,-121,-1644,743,-532
91,-87,110,-1445,492,165
100,119,97,-1147,93,177
-123,106,72,-1208,268,339
80,-106,-95,-3274,-1866,-5202
127,-7,-91,-2534,-3358,-5413
-41,-123,-53,-5722,-1703,-5065
-28,-100,106,-3358,-2150,-5569
-31,33,-112,-2764,-1100,-4906
105,81,79,-2276,-453,-2686
121,-80,-55,3004,1584,-1946
-25,70,-119,3400,4591,3860
-96,-113,-54,3206,6047,9335
-6,-41,16,3719,6675,4518
-48,-19,-116,-5877,-5171,5109
-71,-70,26,3113,-4449,-6547
-94,-100,-105,-9453,-2214,-2992
-126,45,-92,-4943,-1242,-5550
95,-52,2,-5657,278,-5440
11,-91,114,-404,-153,-4892
-107,114,-83,3641,500,-1670
33,109,67,4547,5498,5791
5,39,-17,1118,7197,9905
-53,102,-128,1334,4456,5880
22,49,27,752,-3419,-2268
-33,-105,15,543,535,-6304
66,-1,121,-7546,1671,-3934
-9,25,-67,-7016,1724,-4574
15,8,49,-6415,1769,-4382
61,-44,65,-6293,1515,-4554
41,124,99,-5513,551,-4732
15,-106,-28,-5931,143,-4958
77,-65,-29,-2239,889,-6684
-22,9,60,-516,958,-7110
-114,96,-68,929,904,-4710
-66,-126,73,661,3586,-2686
14,-73,-78,3088,7806,179
60,20,104,5531,10353,4194
26,40,125,5746,11325,9289
14,63,-32,-10708,1833,14198
-117,-17,-109,9169,-340,-3377
71,107,110,1918,-234,-1516
-114,115,107,-1988,439,370
-91,4,-68,-3212,-372,1109
93,-4,5,-477,829,59
15,-21,126,-181,-298,959
10,-104,-38,-1695,634,2112
88,83,-92,329,1860,2178
94,-40,-5,-129,1611,2134
-26,-73,-11,1272,878,2394
35,-43,48,-1256,976,2943
125,-68,-13,1986,828,1675
-10,43,64,-33,2211,1079
-72,62,-13,2186,1761,467
-105,-111,95,1090,-1699,-5320
72,89,50,-2206,2017,-6953
-10,75,118,-4403,1371,-7462
105,22,-92,-3138,-441,-7841
115,37,-28,-4851,242,-8186
89,13,8,-1504,-942,-6597
15,96,-98,-1196,-169,-3562
78,-52,120,4620,3118,-406
-99,112,91,375,5699,7508
24,39,8,2293,2962,11703
-102,98,121,2658,3186,3465
-127,-78,-61,-4128,-6996,1939
41,-115,-118,-1339,151,-6726
9,-53,-40,-7027,1013,-4541
-122,-10,91,-2966,834,-6354
9,-105,-79,-3227,2495,-6636
-73,-65,0,119,1864,-4803
-58,89,-79,3240,2219,3434
-47,124,-29,198,3375,8075
-111,-16,7,3529,1937,8508
-111,43,-36,-5100,646,7024
65,45,-117,2324,-959,-5187
104,95,-114,-3383,1158,-4856
61,-71,-65,-5874,1980,-6672
-69,42,21,-5970,1228,-6037
40,33,-6,-5059,2461,-6897
-128,-63,59,-4267,1077,-7736
85,-99,-77,-4816,68,-7137
56,-70,92,2199,1894,-7102
-2,98,52,1870,1108,-2373
46,97,-65,5550,6572,3071
35,63,33,5458,10180,7945
126,-91,90,-2770,650,13894
-41,-16,58,-6801,-1882,3771
48,69,-92,7885,154,-6986
38,105,63,-554,-1519,-191
96,97,68,-1088,-711,1836
-98,-40,-93,-2104,-78,2746
123,14,-42,1447,2342,1784
127,66,-63,2717,3109,1426
-78,-126,-104,-1843,2610,3355
97,32,-56,1117,4411,2258
97,79,-83,-1990,1760,3285
-119,5,73,5,1910,1896
-127,62,2,2986,1029,934
-80,74,12,20,2313,723
-120,-73,46,222,1409,728
101,-86,121,-1030,650,377
106,41,69,382,885,-336
106,46,122,490,337,-350
117,-62,-116,-842,-1775,-6128
116,125,60,2651,-3950,-6964
-45,-73,-46,-7023,-3386,-3641
60,74,-45,-5127,-1939,-2730
-70,28,104,-795,719,-3634
66,112,53,4031,465,-2482
-27,99,-69,2207,4785,4791
-18,-20,-52,1480,4634,8227
-45,-102,65,5343,3255,9205
-8,-99,50,-11852,2152,7614
-62,-41,17,5845,-5093,-4691
51,-128,103,-117,708,-6314
65,-80,-95,-5864,-1232,-4552
-80,23,84,-3926,-2474,-5237
82,-99,-123,-5378,1108,-4127
-77,-36,-33,2247,1949,-6282
-90,-73,96,1219,3740,3110
105,69,-61,1119,4306,7327
-50,-85,44,3823,2258,6201
-36,-78,56,-8531,1039,5513
109,-100,-25,7233,102,-5911
47,-121,-95,-2803,1880,-2379
-81,-102,87,-2426,2403,-2793
125,26,75,-3159,2629,-3976
80,91,122,-4291,2402,-3712
-58,117,38,-4441,2230,-3929
76,-4,-55,-3780,2243,-4175
-74,-61,119,-5057,1991,-4118
-46,-26,-59,-5952,1288,-3973
106,-109,10,-2961,1406,-5413
33,-122,80,-1347,1520,-6285
19,48,-124,-2227,1648,-6085
83,-72,26,1053,2651,-5825
30,-83,29,2095,3056,-4020
53,-91,73,843,4514,-2420
-9,52,-49,2622,7579,-85
46,90,-42,2072,6609,4692
56,-77,4,2600,9749,10143
-67,-103,-126,3223,2417,13388
-98,-30,120,-14590,1689,7732
90,63,-61,10785,-1486,-1056
-8,-119,-53,-1146,-573,2808
-107,127,-116,1410,2301,2565
-26,46,-69,-1676,2230,2440
-53,83,46,-29,909,1921
-23,105,51,-224,910,1308
79,-84,14,-2153,536,1421
-50,82,16,1415,3672,686
73,12,-28,-328,895,1093
100,-65,-127,-175,1511,366
85,38,87,-2753,643,-6015
-6,-71,60,-2083,120,-6488
-94,116,11,-4643,-695,-5607
-88,47,110,-3016,-1052,-5947
-18,-75,42,-1517,-963,-5672
111,-30,99,193,127,-5279
98,71,-42,7600,1337,-20
-18,-109,37,-1543,4468,9473
56,-23,26,4558,3326,7967
13,68,-29,-6637,-418,6307
-75,32,-33,8886,-455,-10596
27,54,-37,-5913,-1698,-3475
1,70,-22,-3470,-4466,-5340
88,84,116,-7550,-1552,-3353
107,82,-117,-1345,1514,-7062
26,102,-88,3793,4334,1077
120,-10,-72,-1393,4290,10251
-54,103,-57,2125,3667,8101
90,-55,-24,-7357,-734,5693
-67,61,54,8514,475,-7992
59,-91,35,-4782,-1118,-6872
50,39,-54,-4843,-2778,-9282
-24,-35,-31,-6695,-2876,-8462
-64,126,-73,-6522,318,-10214
-110,30,-92,-4336,362,-5955
-3,112,106,-248,3724,36
-103,30,31,3315,1856,9583
43,-89,24,2856,5818,8115
-116,63,113,-5134,-2022,8018
97,46,-60,5006,-1108,-4556
110,-81,0,2012,-2283,-1680
106,-100,13,697,-1614,312
3,124,100,1286,326,4330
-70,-60,-78,-860,1226,5850
67,-37,107,1327,2845,4390
41,-7,25,-2100,1919,3168
-56,18,83,7126,1931,1991
-94,-102,-3,-2351,4342,1353
62,-24,-73,2708,1837,781
-29,73,-125,-1654,860,1125
2,-9,75,223,1143,528
19,13,-106,-966,928,292
61,-46,-102,-554,838,163
-109,-74,-95,-241,761,-388
-120,-88,-70,-5,203,-1524
-78,-98,-43,-275,-82,-1790
-38,-96,-45,-1336,-499,-1499
-36,-100,-71,-1570,-546,-1194
-49,-73,-99,-1801,-304,-692
-69,-39,-119,-1950,-229,-596
-45,75,-9,-807,693,-7310
48,12,-22,-452,-1762,-7634
92,-1,-43,-2627,-2165,-6582
-100,-105,-104,-3847,-1242,-4503
83,32,39,-1475,469,-4000
91,-84,54,2734,2683,-286
-39,-59,39,1131,5631,6824
-17,-107,-79,933,2522,11092
33,-111,-12,684,2117,6195
102,75,-54,1863,-4905,-3338
-43,70,74,-241,133,-7714
44,105,-107,-4864,-2164,-6285
87,-101,-75,-6858,-1582,-4972
-79,-73,-39,-4457,2744,-5431
30,59,-52,7552,2192,-1381
-85,-34,-61,-1196,6393,8301
-67,6,-128,3847,4318,9310
-124,39,36,-10911,-64,10837
65,-80,73,14028,17,-9446
-82,121,19,-3756,-113,-4426
85,-40,-10,-3130,-1183,-5840
10,-50,-63,-6394,-738,-6339
-95,-108,5,-5805,-1131,-7142
18,-76,-23,-3266,-766,-7525
-118,-7,49,-5564,-840,-7064
-89,90,-61,-4137,-400,-6794
-34,-108,120,-1337,667,-5613
117,56,-39,1500,2391,-4794
127,-92,-102,3913,2423,-703
126,-28,59,2854,9009,7374
86,-64,67,5262,5773,10495
-54,33,18,-4775,-3245,12225
-59,31,-82,2363,2635,-5727
-71,-115,-126,3823,-296,-4707
87,-28,57,389,-618,-1630
107,-128,91,-2826,380,628
88,49,65,-949,2,572
-77,-62,-1,1065,1350,1062
55,-116,122,-2379,948,2439
-91,-61,69,334,1808,3106
107,-3,-57,2043,3297,3829
-92,-16,-125,-1530,1794,4369
108,42,3,-386,2063,3929
-99,-25,-71,1131,553,3656
-27,8,71,-1933,2270,2668
-113,-36,10,-50,-301,2086
124,102,-86,2550,834,724
32,-126,32,1030,787,-306
28,110,21,-1276,1267,-681
36,-23,-36,-43,1261,-1115
-99,-46,8,-2501,-1531,-6256
-64,85,-99,-1233,-2872,-6411
110,-73,113,-2943,-1946,-4993
94,62,-17,-332,-671,-3327
20,12,-81,5924,2865,1162
-22,122,24,-120,5367,8259
-63,3,122,4232,3382,8980
-26,32,-44,-3332,4534,5387
105,96,16,892,-4494,-4354
-13,91,-86,-2290,-2461,-5252
45,92,-113,-5014,-2761,-5074
-120,-89,1,-6104,-60,-4489
-50,-68,91,581,3471,-6951
-92,17,51,1868,2094,6156
92,27,-115,-185,3901,8706
-96,-92,-69,4130,2812,4821
-46,80,-47,-5841,-1476,3443
11,-72,-64,5523,1478,-7152
53,93,3,-5613,1003,-4768
116,-51,16,-4054,1003,-6045
66,27,-63,-6471,1185,-6380
-58,-31,-47,-3710,1405,-7596
-11,70,79,-5808,345,-6430
-21,-41,-94,-4440,-16,-6002
78,48,-103,-875,1893,-6881
-26,-12,-23,2675,-411,-3777
110,-21,-9,3365,2392,-1948
83,-4,-34,5178,6672,3739
-94,100,116,2746,8281,8993
-90,100,78,6686,4957,10414
122,-5,-8,-7165,-3552,5106
-40,55,72,7172,232,-4196
35,-9,97,-790,-504,1571
-86,119,44,-49,1243,3138
-127,101,111,-48,3445,1312
-82,83,-77,-2038,1183,2905
-44,93,11,1313,2034,1653
-15,118,-55,-2272,1167,3077
-34,-55,-101,-45,538,2549
-25,93,-94,1713,2271,537
6,-107,59,269,1138,468
54,53,66,-126,1735,87
76,-100,86,1529,1399,-502
91,-70,-88,-438,527,-360
115,112,-93,-509,668,-418
-124,72,-83,-375,593,-532
-116,65,-84,-323,634,-647
-114,62,-85,-291,441,-687
-83,56,-97,-209,664,-989
-63,67,-98,-188,469,-758
-51,70,101,-1591,-1175,-5960
115,110,-57,-1202,-2108,-7017
85,105,15,-3164,-2517,-5832
98,-127,-21,-4116,-1211,-4767
63,98,88,-177,72,-4792
-111,0,51,3203,5321,1445
-121,20,-74,-1582,5459,11469
79,-48,4,3192,2657,8249
44,116,-128,-2780,-3095,-211
-37,-32,-108,655,-1711,-7584
-35,-17,117,-6911,-2339,-4324
127,36,-27,-3085,-630,-5619
-3,-45,-70,-4031,-354,-4784
64,-121,69,-1291,368,-5235
-36,-67,-14,2485,981,-3266
67,-75,-31,4912,4538,5445
99,-36,77,-584,8659,15109
64,120,-73,-2479,-1956,7691
-50,71,-103,4273,-1001,-6944
87,122,108,-4636,-1131,-3081
-89,-52,51,-3480,184,-5078
95,36,-55,-6562,1065,-5269
-35,-13,-14,-5340,1534,-6403
-8,-86,-67,-4719,955,-6498
6,77,5,-5258,714,-6290
42,43,62,-5405,287,-6472
79,73,66,-887,1371,-7511
121,125,64,700,855,-5658
-95,-12,33,2371,1548,-2090
-27,34,40,6121,8112,3138
-125,19,-16,95,7084,8969
-104,60,62,8279,7161,9629
-74,94,15,-13788,-3489,10019
-96,100,54,12529,1918,-6620
83,-26,86,-2490,-1428,1299
-127,-22,-68,619,247,538
-113,84,-31,-3074,1053,1165
-106,14,-58,317,177,1167
82,102,-118,-2187,1499,1841
-38,63,5,-369,11,2221
-117,6,126,815,1886,2393
-106,25,42,-2083,882,3328
26,116,-33,620,1654,2725
44,-76,-119,-340,-126,3428
127,-102,36,1721,1807,539
85,125,123,628,639,414
68,25,-103,-408,-118,888
101,-99,104,-329,120,726
82,120,85,-493,505,58
79,123,91,-980,336,-173
111,18,-39,-1383,-873,-7277
-83,-73,58,-3113,-1489,-7317
119,35,91,-4633,-767,-6170
-39,-102,-42,-2267,-585,-5764
-122,-55,60,-1955,359,-3228
-43,7,-104,6176,1106,-1778
50,-111,-61,-1030,6248,8924
15,-121,-37,5303,486,8871
112,-21,-92,-1884,-560,4267
-78,87,86,890,-1211,-4545
-29,-49,-91,-3731,-976,-5337
-58,101,-17,-4428,-1674,-6055
41,0,-94,-5806,143,-4852
95,98,-125,-1218,14,-5026
79,-106,72,2164,520,-653
27,-127,-122,2018,3962,5047
70,-98,-27,2339,3925,8230
65,45,93,1301,2611,6022
-51,-105,-87,-4144,-2107,1224
113,-15,104,2354,1515,-7278
44,101,30,-6023,1559,-5980
111,-66,-90,-6404,3235,-7043
-34,94,-74,-6979,2313,-7025
-32,-92,-9,-6478,2311,-7480
87,29,10,-6561,354,-5776
-69,-70,103,-2231,2164,-6859
67,60,-4,-737,1066,-4959
95,-41,-120,2111,3016,-4003
108,-40,26,2601,5126,-2282
-34,-39,51,3773,7633,2849
63,28,-101,5197,5339,10085
21,-70,-67,181,6798,11341
7,-84,87,-3765,-4243,8607
8,-73,-80,5293,1610,-4618
87,124,85,-1301,-783,82
33,92,8,18,754,-93
-111,59,115,-707,1326,-942
4,71,19,-2088,-915,-71
108,-39,-14,-832,718,257
53,113,106,-9,515,1748
85,81,18,1162,2516,1875
100,59,23,-489,2105,2947
80,-68,24,-719,897,3213
127,-118,22,-54,1004,2406
-105,94,-106,-760,1436,1454
-29,-87,-44,-167,772,1814
18,127,-94,178,1639,387
50,7,-65,759,1294,871
79,-57,-24,116,1063,923
59,-80,14,-204,50,234
-81,9,3,-2446,116,-5554
-43,29,-41,-2541,495,-5432
-6,-48,-49,-871,-1008,-6188
-12,79,-13,-4524,-347,-5233
88,-65,-35,-1617,-467,-5537
-72,-79,36,-1955,-114,-4771
126,113,78,-971,932,-2847
-42,-35,63,4448,2595,-1129
79,-98,-69,772,2836,7244
90,84,8,3613,3010,7874
-23,118,86,-1422,2433,5337
-18,-87,-41,410,-4550,-3145
114,-41,-26,-2835,-492,-5297
-13,-42,-61,-5814,-461,-4375
-11,-27,7,-4005,176,-4641
-125,45,-10,-1454,183,-4806
-1,35,-112,-946,454,-1976
30,106,32,3996,1588,-358
1,10,-84,3010,6177,5155
112,-2,-63,1105,4099,8803
-18,-54,-98,-742,3419,2908
-11,-12,-82,2758,-2257,-7163
-65,-77,-85,-7217,625,-4298
-49,-61,-79,-6654,753,-5025
-102,65,-120,-7731,1898,-4565
-43,116,-21,-6185,1960,-5610
59,-82,-104,-4098,1120,-6830
-48,65,-87,-5289,-1476,-5542
60,-17,24,-1245,1683,-7768
38,9,-45,1623,384,-6047
95,0,64,663,3440,-4266
-75,-51,16,3830,7575,-1378
55,-11,-101,2184,8748,4687
-65,47,52,9316,9662,9253
-79,-58,98,-7197,2317,16260
-80,-122,-114,2297,245,-2182
-24,77,-110,4677,676,-3131
-32,115,102,-3790,-54,210
-113,83,7,-2568,-1051,418
72,-83,-44,-1856,497,-862
72,4,26,-41,-775,-47
-57,-119,-105,-761,-161,1081
-3,-97,82,1945,2552,1655
49,65,50,1159,2057,3233
-88,45,65,-2310,1441,4197
-9,100,63,2124,-400,3818
20,-16,-122,-825,1624,2602
-9,123,86,2907,1045,651
34,-121,-17,50,1417,1040
31,-109,-81,983,1765,859
34,70,-83,-2184,-1015,-7176
65,-110,38,-2203,-4234,-7182
100,-48,77,-6366,-2653,-5611
-83,122,63,-3093,-2111,-4827
42,-109,72,-2897,-1222,-2919
70,90,34,5282,2640,-63
-2,-39,95,3723,10016,6429
-128,-118,-109,2577,3813,13114
52,-61,-120,-8395,-3877,8088
-102,-1,-97,4508,-1706,-6739
28,57,-113,-4139,-755,-4404
111,118,-10,-2535,-1993,-5985
81,-40,69,-6508,-468,-4207
-14,-16,-92,-2547,288,-6104
-18,43,-78,155,1466,-3459
-42,-56,-67,6340,5821,3136
77,-49,-43,-2387,8516,11762
59,63,-14,-887,572,6927
-53,103,-12,1695,-1667,-4960
31,-22,78,-2841,463,-5628
7,2,26,-6882,1381,-6031
-40,122,75,-8874,1372,-6267
60,-13,78,-7156,1457,-6548
46,40,57,-7400,1374,-6427
119,-121,12,-6094,789,-5537
23,16,83,2097,2825,-7848
62,-122,94,-4157,2397,-4552
-111,40,-34,3331,4740,-1184
-47,119,52,3700,7578,1652
-5,-34,-85,5101,7129,6348
-97,62,-76,3129,5725,13920
44,-98,122,-6980,-1262,13923
-52,-44,-9,10980,2403,-6983
43,-102,-75,-490,-1726,121
7,77,67,109,1701,-796
97,35,-57,-3634,-212,-281
-66,5,-113,-770,-774,-738
81,-61,3,-2387,265,-189
-103,-26,80,-432,570,-136
-43,-23,-92,-1498,1517,1740
-5,-34,-110,-57,2395,3021
38,-87,22,-1213,840,4368
-4,118,-120,1227,1214,3938
84,-110,-36,368,833,3329
-92,60,-75,1117,1400,2576
-46,114,-31,2074,1801,547
-104,-92,58,-569,1175,788
-119,116,49,976,748,291
-84,-34,81,-2249,894,839
90,64,8,-1843,120,199
83,44,-95,-2253,-13,-6889
-67,-40,30,-1589,-1414,-7608
-67,55,-33,-5186,-884,-6607
-12,-36,-11,-3036,-1298,-6664
15,20,0,-3295,-403,-5117
12,104,74,284,1121,-3493
-85,127,61,4024,3257,2704
-128,36,108,2080,4881,10207
32,105,-34,5161,2648,9697
4,31,-39,-5103,-609,5108
-101,-88,105,3262,-3502,-6212
73,40,35,-5217,-734,-3501
40,89,123,-5235,571,-5189
0,-68,-15,-4429,-68,-5231
-72,-101,50,-2341,318,-5509
-72,121,-105,440,2049,-4506
-116,-55,3,4762,2678,3750
-12,88,84,-820,5674,9472
101,57,-29,5577,3642,6017
-48,-26,-93,-7475,-1772,2264
70,-13,99,6334,120,-7552
-105,-118,33,-8128,771,-3373
3,49,-46,-5276,2765,-4710
86,19,95,-7375,1294,-5046
-45,-59,81,-2839,1849,-6821
3,-39,41,-6060,871,-5981
107,-127,-55,-5044,144,-4909
-74,123,94,-2243,1963,-6487
100,51,24,898,2357,-6553
80,-5,115,2723,1151,-4221
-115,13,-104,2270,3774,-2641
-92,20,50,1876,8808,-1027
-6,47,-82,3078,6672,5493
43,-116,31,5214,8566,10947
-122,120,113,-4475,-188,14972
-28,124,-27,-292,-2800,623
-95,70,-13,4729,1429,-2999
-48,82,-43,-2696,685,1140
65,-23,-124,-658,1354,1305
76,-90,111,-664,973,459
-42,18,21,382,1472,821
-89,-4,-92,-707,299,1145
-15,32,48,2100,1983,1584
52,45,113,-945,2242,1935
72,-92,-9,1660,3115,368
5,21,-102,-534,732,1019
81,-84,109,-941,2360,623
49,-11,-70,1385,941,657
82,60,-5,169,1372,66
93,-26,-8,1410,1690,-608
-104,111,81,-1990,-1394,-4776
67,119,107,-2891,-1312,-4852
-73,97,-67,-2573,-1583,-4653
-110,69,50,-2687,-792,-3936
116,-25,-94,-839,-271,-2215
-34,39,38,1667,920,267
-3,-97,97,5910,4126,3149
-59,11,-54,3138,5512,7404
-29,-120,-62,4191,3832,8728
-93,70,98,-4866,-739,5596
-116,-49,20,3760,-3701,-7357
-42,-45,-55,-6755,-1417,-4144
-89,-96,34,-5234,-1611,-5546
-47,-36,6,-5150,-1009,-5573
-70,-67,-127,-1098,482,-5830
-47,101,-100,4566,924,-406
-98,91,-32,950,6917,7820
-114,-13,4,2785,4152,10208
124,-23,-29,-4063,2410,4909
72,-22,-128,3130,-1324,-4314
125,-49,-29,-2811,1611,-3621
59,-98,42,-4833,2857,-4731
-56,62,-61,-5127,1083,-4619
-113,77,-95,-6059,1643,-5012
-56,-107,43,-3905,626,-6581
98,19,-34,-5858,-67,-5868
43,-26,127,-4395,655,-6546
-14,-12,-53,-1911,1274,-6277
-112,23,-47,2822,1160,-4034
88,-113,98,2408,2032,-1825
77,-54,-65,3310,4746,-1092
-88,-39,16,4719,7212,3025
-6,25,70,5970,6226,8548
5,125,-108,294,4643,11283
14,-54,-51,-2329,-3165,2465
69,-82,-128,5425,-944,-2574
59,-9,-121,-2945,-737,2422
-49,71,14,-68,1091,1696
54,-13,-38,-2566,1558,1944
31,-69,-100,695,272,1340
-109,-10,-72,-739,15,1842
-110,-55,57,2650,2568,742
-92,-16,-66,-443,1194,2453
-63,75,49,1321,2456,1384
-109,-31,-39,-31,41,1726
-88,29,-108,1206,1944,610
92,-20,-6,1739,571,-58
-123,-20,60,392,1277,-66
105,-100,69,1214,837,-868
-122,-121,118,106,863,-564
-94,49,124,-3717,-714,-6041
-70,61,114,-2644,-1139,-6923
-78,-52,16,-1657,-2025,-6339
60,-82,-5,-3462,-1665,-4667
47,55,104,-167,-320,-2951
-22,69,-34,5972,2221,781
-109,-46,-67,1546,6233,7235
38,82,18,4135,3547,10611
-8,-78,46,-1594,3434,5806
-104,-118,-1,-388,-4030,-2456
-69,-60,58,-1505,-1158,-6398
84,-6,0,-6508,-1616,-5038
100,81,38,-5330,-1002,-5274
-89,-76,93,-2730,2125,-5999
-88,-102,-25,6554,605,-2479
122,-87,-45,-1382,6988,8479
19,124,114,3017,4794,9218
121,60,-30,-5830,1178,5861
-127,101,36,8549,-868,-7469
54,116,-120,-5975,1424,-3964
35,34,-29,-6096,1501,-5837
2,29,-53,-6905,1667,-5993
-103,-7,-29,-6520,1607,-5982
-97,74,-111,-5650,1605,-6422
-88,49,37,-5240,79,-5745
107,-86,108,-3419,2572,-6846
23,-124,86,1687,1513,-6958
-80,13,50,285,1977,-4348
-89,14,4,3105,3646,-2646
25,-114,85,2120,5798,-336
-40,88,29,4955,7505,4797
-14,-64,-121,5438,7321,10172
-26,59,-73,-2237,5327,11781
-69,55,11,-3564,-4302,5788
-53,-44,-124,5594,381,-3451
95,-9,54,-296,635,1260
-68,60,-95,-1654,-16,3759
-16,61,-119,618,2079,1970
-99,-48,-1,-3404,1070,3220
118,32,-85,2495,-462,1517
10,-79,-51,-232,1821,1265
-4,74,-103,1183,1856,1001
-29,25,-85,1311,1402,347
0,-45,-85,1130,1560,155
-9,-121,-14,929,1690,-316
20,17,8,1192,1636,-639
57,10,55,215,1212,-281
86,-23,124,-531,657,-139
120,-62,-124,-435,548,-92
-110,-79,-88,-499,768,-164
31,-61,-60,-2583,-1177,-6115
44,49,119,-2569,-2005,-6497
4,-5,-70,-4609,-1634,-6256
92,29,73,-2253,-1727,-6663
36,-44,34,-3375,-1022,-4611
-6,113,94,293,-73,-3662
102,-79,-32,5248,2156,277
-70,-40,102,1715,5436,7677
-79,0,23,2969,3129,9798
-77,87,111,-316,6194,4316
-124,-72,-116,218,-5656,-518
91,-39,61,-28,-1242,-5302
99,-79,55,-6700,-318,-4116
-74,25,-2,-4620,-1016,-4840
-72,-52,24,-3702,-551,-5005
-67,-25,111,-1062,908,-4996
-11,123,19,3618,727,-1570
66,47,84,1925,5339,5632
33,7,-37,1549,4907,9427
-17,-97,-123,2462,2975,3979
-34,-54,-63,-709,-2609,-328
93,71,97,-1409,1851,-5297
-41,-97,121,-7628,2227,-3873
-18,-73,-112,-5300,3007,-5815
-87,43,-119,-6878,2815,-5251
-47,-97,-33,-5417,2304,-6802
11,-13,106,-5680,1265,-6557
41,-61,-37,-2332,925,-7233
103,-81,112,-815,1435,-7567
-49,29,-81,587,1993,-6902
70,27,104,457,2742,-3714
-58,-14,-87,1581,6238,-2073
54,121,106,2439,7774,2250
-50,107,90,5002,9316,8735
12,-10,52,3045,8883,11867
-67,58,127,-12309,-2848,13332
-124,-115,94,10130,1069,-6087
-126,25,29,-537,-276,674
106,-71,90,-1660,942,2167
-100,56,68,-1634,774,2173
18,-99,-29,627,1728,1568
52,52,-8,-1624,1712,2019
-120,-73,-31,1009,675,2429
-64,-33,-95,-1414,2609,2294
-84,29,-24,594,1209,2720
14,-57,-101,1502,1716,1143
-60,27,107,-700,1134,1165
-14,31,-29,1305,1961,446
-37,74,125,-425,810,403
0,-99,79,430,1168,347
123,16,-26,-1045,-1630,-6827
-74,-86,-73,-3835,-2707,-6563
-96,38,7,-3627,-2053,-6372
-1,-39,-51,-2939,-1959,-5319
75,85,-81,-2404,-885,-3372
69,6,-37,1039,431,-2475
9,52,25,7553,3276,683
54,115,15,-1210,6234,9425
30,57,-15,5105,1799,9760
-116,56,124,-3801,4382,4943
48,45,-110,2329,-4784,-4433
38,-95,85,-3503,-305,-4802
-61,-24,-96,-5961,-797,-5241
-36,-128,86,-5274,-1057,-4773
-98,65,37,-3487,-25,-4463
65,80,-84,-1219,1102,-4291
-120,-49,104,4658,2040,-1440
-126,83,-16,1446,5629,5210
19,-117,-86,5029,6188,7440
-54,-128,46,706,7237,3961
-35,-7,38,-2613,-5622,624
-55,102,23,-899,254,-5452
-102,-46,-39,-8926,1451,-4779
35,-24,-36,-7448,2769,-5896
-75,98,-18,-7564,1654,-5811
-51,99,2,-5897,778,-5643
8,111,101,-7004,620,-4722
-121,125,-48,-2787,703,-5196
41,19,-127,-1278,1810,-6026
-50,-17,117,875,1152,-5191
7,31,-85,198,3050,-4844
-41,47,24,1195,4389,-4379
68,-60,-38,1071,6167,-2179
45,-54,-9,2939,8019,3977
-3,51,93,6107,9668,9675
69,121,-32,-3123,7796,14408
45,76,-99,-9028,-4699,9178
-65,125,-80,10610,2826,-6202
121,105,18,-1205,-858,1727
77,-27,-39,505,755,1318
123,-88,-15,-939,2100,356
-63,8,7,-386,902,1852
14,74,-42,-1300,1156,1266
26,78,70,-894,1372,2316
94,70,77,-483,1264,2868
-103,125,2,14,1763,2261
118,36,95,-866,1770,2455
84,-57,-15,3400,2135,133
55,-115,-48,41,1207,727
21,-122,-125,1407,1922,-265
-27,-45,74,-3262,-1171,-4760
-104,-38,-21,-2838,-2080,-6475
-81,48,15,-3151,-2478,-5681
-29,25,60,-5154,-1680,-5311
-62,-2,1,-3110,-1740,-5004
62,-22,-39,-2585,-1343,-3439
42,92,-108,-3705,834,-1542
103,111,6,7741,2592,-1376
42,-49,-105,281,7934,5910
94,59,33,4710,3835,8979
-67,-109,93,3727,5066,4265
-11,54,78,-4347,-4114,3061
-39,-53,-66,2235,-2101,-6927
-90,-37,-110,-8268,-1276,-3855
-3,-122,77,-3879,-1585,-5458
-11,-28,104,-4976,-799,-4972
-87,1,0,-1823,227,-5428
-22,52,14,1426,1078,-1538
101,21,37,4907,3820,4156
-21,-20,14,1788,5802,8615
-91,121,113,3836,4104,5038
8,91,63,-4447,-3987,2865
-14,-54,99,286,940,-7273
-42,-126,123,-8070,1595,-4213
-23,-15,40,-7364,2470,-5609
-85,122,70,-8390,2896,-5753
-92,-94,37,-5641,1614,-5760
-111,-45,62,-7452,879,-4451
26,-28,-70,-3763,752,-4767
2,-107,45,-2651,1478,-5082
7,-9,-120,-1824,2410,-4387
47,124,101,1744,3283,-3418
-41,-1,60,1020,4120,-2420
-45,21,99,2382,5978,-788
117,-26,24,4281,8046,4048
122,-125,71,6398,7016,11105
39,-22,116,5593,6738,13091
59,12,-116,-20165,-4191,12075
-66,-97,79,10717,1205,-4934
126,93,20,574,641,1622
-37,86,-43,-565,1994,2251
22,94,-96,-1615,1316,1334
48,93,-124,106,452,1686
-78,-48,114,-1190,633,1630
-55,-72,-115,-594,1435,2520
-46,-65,-80,170,59,3385
-35,23,-12,1809,3159,643
-85,-91,120,333,1690,925
105,89,-59,-670,422,798
104,-83,-68,960,632,90
7,-8,-66,-3094,-25,-5856
44,106,74,-2134,-604,-7437
19,27,74,-4357,-617,-6621
77,91,-70,-2325,-259,-6248
-17,44,96,-3076,671,-3155
49,55,-60,-1324,1067,-1898
122,-18,75,4578,2668,-308
119,-97,96,2014,2450,7099
53,78,-5,4708,2534,9236
84,80,-30,5959,5173,4783
-32,81,-32,-8313,-5212,3943
48,-64,-13,2564,-2103,-5984
-22,-79,41,-6915,-344,-3925
65,-43,-35,-4360,-672,-7008
99,-64,34,-6553,-693,-6016
29,-1,-27,-1228,525,-6723
77,88,58,723,1204,-2081
-69,9,91,4160,3989,4594
120,-52,-11,2935,7360,7921
93,105,-4,6022,5974,5352
125,2,119,-10499,-1950,5266
94,-95,-99,6101,-1101,-6795
-41,-84,-52,-9553,892,-3603
66,-31,-81,-7485,2982,-5557
42,-116,-55,-10095,2856,-4829
117,31,8,-7979,2985,-5092
-28,23,37,-7639,287,-3879
17,-92,121,-4362,452,-5069
-78,29,-11,-2365,1086,-4668
72,-39,-128,-1284,3775,-6010
-126,73,103,-1031,5018,-4869
40,-89,-116,-386,6294,-4308
-77,75,96,1599,6295,-1338
89,-109,-112,2030,7062,2739
107,28,90,4900,6723,8837
-55,0,109,5408,9608,11107
10,-108,-111,-1137,1113,14705
-125,94,-109,1027,1238,-499
125,99,-61,2319,59,-1239
-49,52,-47,-1839,1560,824
20,-47,-118,-133,1281,-701
-123,72,120,-2066,-185,-638
31,-62,-123,-87,680,-419
-17,-66,5,-1365,-200,1090
93,-125,-107,-355,2299,1570
87,-89,98,1012,2111,1802
115,79,94,-517,1285,2701
93,95,86,-524,2311,2111
-4,109,8,-614,-668,3227
48,106,93,1216,1784,1071
66,33,69,-2999,1862,-5205
58,-24,23,-701,86,-6525
31,30,85,-2039,-1002,-7699
3,-28,-6,-3198,-2733,-6837
89,-34,37,-5417,-1159,-6375
68,-105,-21,-1353,-701,-6058
-65,74,-75,-2833,-165,-3569
-40,54,-87,1982,2120,-3340
6,110,-3,4167,4035,3390
-35,-63,-114,1462,5169,9315
80,-65,-75,5377,3718,9323
1,-35,-77,-3907,153,6065
51,-4,9,2789,-3519,-5286
65,-50,105,-7054,-3236,-3075
5,-73,-50,-6076,-1141,-5162
74,-3,11,-4892,62,-5226
65,-44,38,-2498,1458,-4376
-17,-99,105,3111,1427,-1465
-102,84,-107,3674,3487,4375
34,-76,76,2928,5662,9424
48,-53,-29,3038,4486,6860
78,99,-86,-7016,-2310,1325
97,-88,73,4435,1416,-7734
-30,-23,51,-9383,1903,-3456
0,58,38,-6950,3074,-4935
-92,-43,98,-9152,3697,-3888
-87,-68,-49,-8787,3789,-3889
12,-107,5,-8296,970,-1495
-70,-7,64,-4350,1843,-3361
120,41,-8,-3751,1306,-3302
-4,-52,-22,-1311,3371,-4308
24,-67,-24,-2990,3891,-4440
-59,68,56,-73,7247,-3403
-4,91,-54,604,7257,-2298
96,77,-124,2098,7956,269
106,-56,11,4980,7105,5988
-74,-112,-43,7485,5995,10258
72,-111,117,-2705,8274,14068
-114,96,89,-4829,-1486,7461
-67,34,-45,8677,2903,-5065
-26,-77,82,-4314,-1406,1813
-29,67,98,28,16,1107
-118,-74,-114,-2903,561,335
12,44,97,327,-522,600
111,8,115,-1155,1044,1237
60,-41,-21,-1516,460,3368
-65,56,-39,1806,3445,2039
9,85,59,707,2576,3039
-114,-17,4,-1827,-175,3319
-42,-31,30,1269,3139,1039
-30,102,79,-5529,-1127,-3015
85,-74,21,-5465,-856,-3497
-60,114,-24,-5353,22,-5025
1,121,50,-2487,68,-5584
-64,26,111,-3741,1007,-5066
-102,79,85,70,635,-6970
-97,76,-92,369,-517,-5433
121,-54,17,-3099,1755,-1652
106,31,87,6152,2595,-1535
21,121,-109,2689,7305,4373
-29,-91,75,1635,5184,9642
71,-78,119,3369,306,7700
57,-114,68,-2535,-5365,-1076
-53,-71,109,1238,-1329,-5579
89,-32,-65,-6035,-32,-4765
53,85,-111,-4330,-1088,-5440
32,60,-109,-3954,-292,-5256
-37,-93,38,-41,61,-4763
17,9,-128,3940,1397,-960
-55,97,76,-279,8603,4719
-111,-117,116,1920,5543,8807
53,25,-53,-436,3316,7143
111,66,22,2222,-1733,-6360
41,-69,-90,-3086,1261,-4848
-109,-23,-46,-11625,2701,-1554
-17,36,-91,-9992,4087,-1874
-21,65,97,-9448,5281,-2505
97,-77,31,-7951,3079,-2842
63,-103,79,-5455,1966,-1869
-91,54,71,-6546,518,-2705
-102,30,-42,-1165,3300,-3233
72,-100,77,85,5382,-4707
-108,-52,125,-453,6148,-4927
32,-93,-117,1130,7278,-4418
52,12,-125,-747,6820,-3142
69,-89,50,924,8454,-1139
115,-121,-103,1111,7400,3434
27,84,-39,4925,8490,9389
-113,89,59,1954,7711,12576
59,29,-34,-8869,-1728,11334
72,101,62,7681,3981,-2302
61,-44,42,-1339,-788,1680
62,59,-24,-1340,1167,731
-59,8,27,-1188,796,624
68,-59,-64,-1586,108,916
-92,10,-62,-1767,759,1823
109,-7,18,-256,-56,2463
18,107,39,2015,3244,1222
-96,-85,26,-224,1758,2640
121,14,-71,1743,665,2047
-106,-119,-107,-1169,-2015,-5593
-69,-31,-48,-2498,-2323,-4923
8,64,-29,-4235,-2262,-3846
116,-117,33,-4037,-1352,-4303
-64,56,-3,-3001,-1119,-4322
123,67,-60,-2306,-296,-3065
89,16,40,125,853,-2474
-19,-78,-86,5096,2685,-226
48,119,82,4636,7265,4018
55,-27,-24,5485,3538,9026
51,48,57,44,3815,6695
27,-51,20,-1552,-3110,-783
-24,105,112,-1529,-1070,-7279
44,-63,-23,-6821,-2580,-3869
-91,-47,103,-7839,-1035,-2723
-3,104,114,-3434,-625,-4115
117,-34,-43,-2787,-12,-2541
-9,-80,-61,40,1423,-1332
37,-81,-5,4444,2553,124
68,-40,1,2351,5446,4026
64,48,-71,3274,4609,4980
-45,-12,82,-5947,-2359,5023
31,-5,79,501,1227,-2681
-125,-91,97,-6837,4148,116
-74,-77,103,-6056,4631,482
-22,107,23,-7121,5089,975
79,89,-78,-4269,4468,-1263
-121,-95,81,-6363,3824,-1290
-46,-86,111,-4378,2803,-2881
119,-46,-51,-4006,3270,-3410
-19,83,-58,-3049,5819,-5113
-126,-108,127,596,6153,-5861
37,-76,90,-1029,7295,-5346
100,-98,-42,1601,5853,-2936
-6,-54,81,1359,6931,-1475
50,-8,67,1929,7170,2188
-30,110,103,2911,6091,7791
-43,42,57,4472,6983,12427
84,35,0,2331,-2198,14054
109,126,100,448,4851,-4684
-113,-38,-21,247,-1548,-38
-37,49,75,-1860,658,537
98,-16,-104,-239,581,-1596
-109,-100,-42,-2229,-406,-624
-3,-46,-117,-802,-268,-1987
43,-10,-69,-2342,-552,-1513
78,-99,-103,-731,-730,-2030
125,-87,-65,-1572,-498,-1295
-68,-4,56,-966,-34,-751
-92,-78,123,-731,-894,1813
-76,-2,-78,-1221,-954,-6538
-6,-26,93,-2105,-2371,-5536
-106,-50,115,-3272,-1956,-4476
-21,104,-52,-1774,-1143,-3802
85,8,65,1818,-460,-2342
-86,-20,-24,2058,2224,1108
-15,-10,90,1130,4233,5793
4,-24,-68,3756,2480,7399
-69,19,-114,-4926,591,5967
-9,-60,-89,2451,-1707,-5688
121,-118,13,-2930,-1491,-4184
-84,-66,25,-4304,-963,-4785
-81,-122,-88,-5456,146,-3772
3,-104,51,-922,781,-4419
-55,115,127,-191,1167,-1910
93,73,24,2658,2875,1452
-69,-48,-17,1356,2486,6607
45,22,-37,3793,3559,5519
6,100,-35,-5642,1360,3645
9,-82,112,4276,1437,-8096
-19,-9,81,-5431,-608,-6563
-108,78,-45,-5397,63,-8192
-57,-49,61,-7084,416,-7614
100,45,73,-3604,2480,-8372
91,-51,126,-2867,902,-8185
-18,37,-51,-891,1320,-6235
-93,42,54,227,2003,-2707
74,55,-9,570,3459,1696
29,-85,-97,2888,2742,9085
60,38,52,4188,784,9885
-91,83,4,270,-278,6287
123,68,98,-465,1166,-2710
-36,-27,43,2401,-352,-3208
123,9,95,-2991,-904,-1739
-128,80,28,60,-1193,-2268
90,-100,56,-2289,53,-2088
96,20,102,-1377,-533,-641
-15,15,47,-139,1213,105
107,-63,92,829,1102,1412
16,80,47,1180,1791,3628
47,-28,-3,-552,370,5039
100,84,83,1478,1038,4316
-70,-106,122,253,962,4972
-57,-80,-124,2220,2036,1717
110,-81,37,-170,2743,2722
-36,-82,-23,260,548,293
6,93,103,-266,900,534
-6,-44,110,-618,987,258
2,-73,98,-630,153,375
58,-113,79,-954,659,-61
42,65,113,-3284,-1318,-3907
-63,126,81,-582,-2154,-5608
-119,-97,-2,-4465,-1598,-3826
75,-87,30,-1079,-784,-4389
59,71,125,1056,350,-3203
-38,-34,-99,3082,3155,1084
34,63,-66,209,5982,6400
32,18,-65,5249,3702,7466
86,121,22,-7458,266,4917
-52,-13,-2,3095,-4175,-5193
-30,-59,53,-4231,-771,-3758
90,-34,-117,-5151,-1096,-5145
115,122,-106,-6002,234,-5386
64,16,-67,-2489,2419,-5436
127,52,-43,4316,1432,-4787
-15,-59,32,1289,2436,3437
-105,25,-4,1740,3771,8004
97,24,-119,3627,5176,7418
35,117,-121,-7262,4425,3934
-64,-52,110,6857,-2157,-6271
-123,-31,108,-4451,-1986,-5265
-11,-20,127,-6012,-2289,-7167
-8,0,-127,-8604,633,-6871
30,80,32,-3671,802,-7840
82,-109,69,-5190,-369,-5998
77,-128,32,-527,683,-6029
21,69,-57,-1834,645,-3956
-62,-111,127,1760,3111,-3279
61,-128,112,296,4057,7263
80,78,111,-244,3416,10906
-86,-25,1,1801,-9953,12302
80,-107,-64,4045,2972,-4660
-1,-14,53,-2658,206,-2071
-77,-52,29,-2526,-1130,391
39,105,24,-1846,458,-924
126,126,101,-167,378,-2013
-117,103,65,-1288,-181,-1467
-55,-120,-126,-815,-888,-1014
-100,-122,-76,-640,-675,1571
-44,-103,106,2066,-263,4221
-66,-25,-101,3351,99,6141
81,-44,46,1274,950,4780
-43,-4,1,1067,-1,3192
-78,-20,-67,3070,1065,1815
98,-75,113,-2094,1678,1138
-29,34,28,1557,-107,921
23,74,118,-1707,613,567
27,-74,44,-388,757,137
45,-104,49,-176,776,95
35,85,39,-69,612,-455
-70,-41,-127,-2082,-823,-6783
11,31,78,-4666,-1811,-5711
53,-58,30,-2691,-1199,-5364
112,-38,-65,-1970,-1169,-4324
23,105,91,-2982,89,-2825
-30,-44,-77,2894,1758,-1694
-124,33,57,2898,3994,3053
-20,0,59,2078,5863,8530
-105,-66,-55,6418,3324,6323
5,100,75,-7537,-5115,5952
-39,-31,-50,3613,-1602,-7754
-3,-68,-52,-5365,-1548,-3833
123,-23,-32,-4235,-1645,-4731
90,105,-115,-5052,-787,-3923
-31,-97,-14,-2710,-362,-3959
57,-94,-13,-1388,95,-2177
99,0,-119,2301,1613,-977
-119,36,-65,4477,4287,3182
35,19,-84,2953,5920,7409
-93,65,99,162,3736,6667
3,-81,77,-548,-2924,-2696
104,-39,-48,-386,2312,-6010
-54,-61,106,-6155,3099,-3763
87,33,-78,-9837,4087,-2333
-119,-12,-20,-8391,4196,-2716
-29,-54,-5,-9266,2110,-874
118,6,9,-6239,1920,-2704
-109,112,-8,-3372,1345,-4388
-118,-125,-15,-2286,3367,-5354
-7,2,103,-1426,3824,-5159
5,-7,60,-1134,5637,-5364
-106,-95,-49,207,5653,-3892
-10,-32,-60,-453,7204,-2132
74,-110,-98,1728,7345,1575
29,39,32,872,7862,6437
73,-26,-76,6828,4094,18259
-114,101,99,-175,-876,18747
99,-54,-86,0,6697,-9342
-70,-12,-108,351,-2195,3149
-72,106,95,-2344,1338,85
-110,-3,-39,318,185,-1279
-5,-107,5,-1202,358,-690
59,18,-76,-1274,-295,-1359
-55,-46,-126,-2946,-1018,-1708
-11,63,-96,-756,-1110,-1175
23,27,-111,-1371,181,-1380
91,5,53,-355,-1737,791
49,-46,83,-790,403,1570
62,-14,-127,1188,-521,3605
123,-81,72,3355,3125,1806
99,41,25,-2080,-2341,-5362
-105,9,-62,-2340,-2680,-5194
-82,52,111,-4001,-2082,-3417
62,15,-9,-1903,-206,-3185
57,106,13,2063,962,-1471
10,-23,25,2194,5226,3493
75,19,86,279,4528,7847
-79,91,119,4835,2469,4498
-12,75,-14,-4479,-3764,2642
-36,-67,-24,2337,-1621,-6317
-105,-63,-2,-4959,-1105,-4666
-108,115,90,-5416,-1429,-4549
103,24,52,-4134,-26,-4574
46,-75,34,882,1712,-5098
78,-17,65,3677,2450,1260
-28,-4,-22,-30,5212,7248
71,-122,-108,7430,4571,4062
-87,-22,-43,-6692,514,6199
-41,-121,-107,4582,1046,-6384
36,-123,-33,-3893,607,-3508
89,-13,-105,-5706,2461,-4357
7,-82,94,-7119,2854,-3859
84,81,-117,-7042,2795,-3698
83,-113,55,-5704,3596,-4751
97,10,39,-5369,2544,-5125
-5,60,-32,-4466,491,-4139
-77,114,46,-3370,1075,-4709
-80,-69,-120,-1968,1672,-5546
-21,2,-28,-1982,2487,-4984
-18,108,114,-188,4805,-5373
-104,23,-43,-52,4881,-3900
-123,-90,-9,776,7304,-2273
26,-46,-37,2258,7395,3198
-113,120,29,2376,8494,9320
-68,-116,-55,3575,5469,11558
-124,67,39,1604,-5042,14768
-41,33,-73,-1890,5742,-5692
-113,-33,-33,2017,-1767,869
-106,-27,112,-3041,759,628
-23,71,-13,689,662,21
107,-101,-49,-2584,215,-379
-74,103,-124,-728,-95,-413
-41,20,-87,-474,-771,522
-27,30,-46,-2117,155,1403
-6,-73,-75,-277,-1540,2470
15,-54,-116,-124,1243,1943
37,35,-53,156,387,2643
125,-86,63,2663,1671,1493
108,-52,-6,-194,1294,1618
52,0,-26,1347,661,793
-28,-12,-6,-1669,-1034,-6941
25,103,-108,-3368,-2453,-6016
-123,56,21,-4591,-2479,-4106
-53,-75,-62,-819,-989,-4149
95,-25,-69,1292,497,-1090
-45,1,-115,3543,3805,3370
-119,-126,-101,-87,3474,8969
118,-51,-18,8931,3293,3771
-2,-124,37,-9619,-3668,5561
-34,8,97,5281,-2281,-8524
-83,-36,78,-6305,-1752,-4676
89,-83,-72,-5332,-2464,-5018
42,27,83,-5470,191,-4401
-91,87,-84,1017,780,-5260
113,-52,-107,1462,4406,3332
125,-67,0,804,5311,7390
-97,6,80,4171,3673,6559
-80,-99,28,-8906,-1003,8071
-68,5,-124,6791,1672,-7365
-57,-29,55,-1821,-2059,-1069
49,66,112,-4243,4184,-3439
-64,-13,54,-4266,3874,-1570
97,8,-85,-4781,4706,-1317
-83,-59,107,-5607,4018,-575
24,3,70,-3340,2911,-573
-90,85,-56,-4523,3347,-1707
-105,-111,-114,-3864,-365,-1037
101,-45,124,-4391,2377,-3991
-57,22,-73,-2978,1009,-4345
84,-120,-93,-2371,2205,-6413
99,39,-21,-1495,3142,-7732
-57,-97,-83,-616,3938,-7127
-62,-91,105,-279,4059,-6374
93,-114,77,-474,5197,-5328
33,54,52,-767,6152,-2217
-107,58,47,46,7211,2319
110,-96,2,2693,6453,6411
18,35,83,7683,6635,8627
3,-72,-57,-820,1424,13855
-78,88,-9,-3930,2862,5400
-77,39,-93,8141,625,-3059
82,75,-108,-4105,327,2998
-78,9,98,855,-131,2345
-11,107,-120,-619,1421,2184
-47,39,-98,-2057,1008,2339
-44,77,-61,260,-771,2822
29,-64,-8,106,2968,864
-34,81,-8,299,901,2102
-54,47,-53,4378,3242,-325
81,54,23,439,850,384
6,55,23,-1919,1845,-6988
-23,-108,-52,231,-627,-7265
13,10,-58,-2977,-1557,-6539
-112,-56,-58,-2012,-1397,-6020
-6,5,-51,-2174,-1260,-5293
-104,48,-26,-129,-734,-4265
52,-120,89,-197,-461,-2588
-85,102,-98,2683,1468,404
115,-116,-27,727,2523,4825
124,-54,10,1614,2692,6839
-12,72,-110,2985,4545,5874
-77,-46,-37,-4370,-1157,6553
-95,83,-77,2493,487,-3051
-1,33,22,66,-874,-5155
118,89,92,-1487,-2251,-6086
-10,57,94,-4471,-3371,-5043
68,-36,-120,-4043,-428,-4797
89,-51,-36,3106,3182,-3535
-85,-16,78,-1205,2631,5976
59,-69,-7,1082,3655,6423
-84,127,127,-1191,4975,5077
-54,-7,117,2299,153,-4574
44,-42,-66,139,-2276,-7283
-58,-8,-45,-3795,-4704,-8990
-125,56,4,-8127,-2235,-9194
-72,22,0,-1755,1734,-10374
-6,86,-6,-5039,-680,-6275
-46,117,-69,378,1791,-2085
-34,122,-109,1464,690,4883
126,-66,-82,3941,-1477,12975
-7,-120,-121,4165,3892,6108
93,50,-100,-8403,-776,2870
63,-60,105,5278,808,-6155
76,72,91,-1410,-923,-2955
81,-105,-9,-717,-30,-2100
15,38,-43,-1954,-436,-988
-19,-77,-92,-2320,-152,1647
-64,96,119,1242,-895,3067
-118,-60,-26,1725,-427,6109
-85,-26,76,4810,2509,5411
-89,-60,-25,1210,242,6922
25,-127,41,-1803,3205,2727
12,-52,-47,3735,622,5096
4,-113,123,-4826,1434,1944
115,-96,-75,-3168,-485,1500
27,-97,-76,323,-266,-916
-20,94,-46,837,-145,-1869
-1,63,-64,-235,-383,-1425
8,19,-115,-1074,-175,-866
6,29,105,-1074,200,-353
8,-89,34,-649,-1853,-7361
65,-11,44,-4310,-2314,-5554
-113,-103,112,-2360,-2121,-5043
36,119,84,-1827,-1802,-3561
25,46,-61,497,-100,-2260
108,47,83,3590,2011,740
-47,-15,-126,2364,5027,6351
30,67,-87,3580,2935,9335
-105,53,8,866,4366,5436
-97,-32,-96,-1080,-5802,-891
-33,-127,-38,581,-896,-7886
56,-119,-49,-5429,-1916,-5803
102,11,115,-6635,-2388,-5163
103,23,-13,-3419,-201,-6134
-123,105,73,-8,1407,-5214
-87,-42,-39,3769,1255,162
41,-6,-16,-1917,8047,5974
34,40,80,5518,4918,9151
-27,-11,-80,-470,7436,5116
41,79,78,2297,-2204,-1340
-73,20,5,-920,-393,-5821
-29,-125,122,-6273,1194,-3800
-30,8,38,-7193,1392,-4668
-48,-64,33,-8120,2013,-4178
-107,-86,-19,-6561,4678,-5362
25,-22,-35,-5378,1786,-5534
-4,57,52,-5184,-151,-4953
-10,-25,-51,-3617,819,-6076
87,-111,83,-1535,297,-5422
-32,-82,27,-1095,2710,-5233
-112,30,-15,745,4168,-3931
5,90,120,428,5183,-3360
38,-77,82,1608,6487,-1150
-7,-42,103,215,7088,2495
74,54,49,4101,6947,8171
108,-51,-15,5901,8689,11220
117,-19,101,-3985,-5651,17639
79,-41,-88,3067,2374,-3147
-30,89,-111,648,1567,-3297
-75,113,-70,-2632,-490,2335
6,-105,118,-1099,1371,1095
75,-118,122,-1789,911,646
-91,-52,27,-312,1614,-206
-76,-74,120,-1329,-467,1465
-17,69,22,-756,677,1680
37,124,34,-56,1804,2069
8,-27,121,331,143,2610
-116,-128,17,1521,1015,2124
92,-127,5,2439,1389,550
39,-53,-59,730,191,858
-25,-49,-4,-667,-2358,-5896
102,124,-106,-1172,-2990,-6260
-89,71,-49,-1933,-3360,-5711
13,39,-34,-2503,-4796,-5627
70,-113,-41,-3470,-3862,-4540
-128,-52,-89,-2904,-1325,-4866
-82,45,-56,-1441,-1993,-1753
44,80,-80,1812,1410,674
-57,-89,95,3155,5409,4134
71,-57,25,2064,6407,7494
-52,60,-4,5447,4605,7222
-64,-109,-90,-3813,-297,7388
-118,-38,-24,1357,-883,-4130
87,91,-11,-2334,-1732,-4618
-22,91,-113,-3496,-3386,-5873
-56,38,43,-7974,-3010,-4644
-105,-102,55,-3507,-1084,-6770
-108,24,30,-4094,-506,-4425
-68,70,25,3008,854,-1774
-74,-24,-122,1958,6006,4994
-95,-41,108,2625,5528,8776
-62,-76,-115,3805,6312,6268
-112,-42,-5,-5206,-1117,5378
-23,74,101,6501,1424,-7329
-68,-39,48,-6137,1384,-2984
-22,53,69,-3965,1349,-4581
-60,-64,-116,-6977,1457,-5052
37,11,-78,-6962,2047,-5748
11,50,17,-7033,1717,-6023
39,25,-46,-6572,1068,-6138
111,1,-35,-4587,1122,-6370
15,-47,-58,-453,1535,-6158
48,-85,110,-1352,2820,-4607
-24,80,-26,1465,5008,-4064
-15,63,56,432,5961,-1575
-50,33,69,1874,8190,2946
-94,126,41,4542,5730,12525
-25,-101,-90,280,4275,12280
81,-57,-114,3053,-1701,8326
74,84,-6,379,5130,-6545
103,55,25,-305,-2732,1443
65,6,-71,-2087,954,-791
115,-76,-115,-1239,-660,-589
6,127,88,-2966,-221,-1268
93,8,71,-1445,-709,-1548
20,-90,76,-522,57,-1528
-62,91,-83,-36,212,137
-112,53,-27,-312,391,1605
80,75,9,-421,1678,2423
-81,-104,-21,1015,1723,2825
-115,88,19,-1414,-840,-6077
10,-46,-86,-1690,-2874,-6115
87,-127,113,-3230,-3077,-5891
-80,-113,-22,-3239,-3699,-5244
117,-127,118,-4359,-2571,-4806
85,55,-113,-2376,-1954,-3741
-115,8,127,-616,186,-1764
-48,105,109,3469,3265,1460
-121,11,76,654,4602,6536
104,28,91,5192,3373,7268
-8,1,2,-1388,3179,5887
-16,63,58,-73,-4603,-825
-67,99,37,-1414,-2953,-5331
55,64,63,-6183,-2450,-4539
-80,-95,119,-6960,-1669,-4527
-39,-53,-117,-4468,67,-5094
-14,10,-43,-1399,1609,-4165
95,-100,-77,4438,2994,879
122,94,-67,430,5105,7709
125,126,14,4203,4311,9104
-101,-43,100,-2416,3976,6473
-3,-88,-102,5149,1701,-4612
54,99,-70,-2527,316,-4956
59,-86,-94,-3712,579,-5173
43,-97,108,-7230,1255,-5407
82,79,106,-6663,1819,-6399
5,70,12,-2359,2145,-9471
0,0,92,-9966,-1302,-7050
-26,69,41,-3771,478,-6295
-93,-91,-54,-368,1711,-6367
-105,-20,75,-278,182,-3161
125,-128,-12,850,2356,-3827
-25,-79,-10,-843,3423,-2786
-75,-98,34,1376,5494,-381
28,-101,-70,-265,9022,5142
-96,95,-3,5460,6035,13115
38,16,15,-2778,-773,13154
-34,67,-40,-2243,520,4171
-112,-92,-68,2810,2516,-5342
-50,-12,-60,-1600,-1444,97
102,89,-73,-2297,-637,89
-66,-32,89,-1963,-409,-1090
-88,-31,75,1408,-371,-1206
-113,93,-58,-2871,-1010,1273
78,81,-67,-1157,539,1531
59,46,-90,1408,2254,2183
-43,-101,-50,2497,864,3008
110,39,-114,562,1827,3160
-117,-108,-106,2192,625,3967
-126,-11,-87,1593,1372,1868
-124,19,22,-3157,-1315,-6496
-88,8,-77,-3714,-2511,-6092
89,-74,-16,-6107,-1888,-4920
-97,80,-86,-2600,-1716,-4921
-128,-64,115,-3799,178,-2927
-17,67,-127,6044,2134,-2204
50,-112,100,2094,5193,6206
-81,-85,5,2666,5592,8429
1,-114,-92,3103,5396,5918
22,-121,49,-4963,-3541,3980
-87,-127,-41,2599,-1655,-6977
3,53,83,-5201,-2806,-5050
-102,121,125,-5251,-3371,-5183
10,107,-116,-6243,-1249,-4887
-65,-96,10,-2940,-141,-5047
127,-30,-106,1147,579,-3275
75,124,-30,3802,4865,3477
-96,-20,40,1528,5998,8411
91,50,77,3791,3895,8266
66,-88,28,-6252,-764,5787
-68,11,74,5113,144,-7270
-27,-59,47,-4348,-776,-4912
83,-41,6,-5429,-506,-6421
-121,47,42,-8719,-94,-5719
59,-58,25,-7398,1116,-6317
23,108,-63,-6894,811,-6052
12,-98,-12,-4890,1524,-6760
15,-61,66,-1968,1808,-6591
44,49,-47,-1372,2250,-5392
102,24,41,373,3908,-3047
-126,40,-70,1428,5354,-1129
-64,89,98,882,7344,2704
-97,-51,31,3601,5677,9784
24,-83,31,4974,4670,11352
-89,39,-101,1306,-4620,15196
-67,-5,89,-684,5856,-6385
-108,36,103,1598,-760,-1743
-77,-118,-59,-4690,-268,302
47,61,75,1652,858,-1683
-86,38,94,-1788,414,-1290
-115,89,61,-573,-743,-1030
124,59,84,-1389,-270,321
-21,-119,60,360,34,1019
41,-113,-80,1008,-295,2800
-128,43,95,2907,542,3128
1,35,-31,-504,1164,4372
-114,88,27,848,437,5051
-29,-40,66,2367,1178,3646
67,-3,-88,-2090,-2196,4929
-60,-123,-62,-2601,784,1659
