AccX,AccY,AccZ,GyroX,GyroY,GyroZ
94,38,-120,2412,3743,-3924
-37,-96,104,1918,7026,-7531
-67,-93,-29,-376,5212,-7444
118,43,79,-2038,2819,-7158
118,-119,81,-776,3233,-6153
125,-50,-47,-2070,-594,-3545
-43,-47,110,-770,-181,-755
-68,-37,-10,2491,-1051,5050
91,45,121,2436,-518,9170
27,54,-19,1376,2541,10934
41,106,-26,-3929,2652,3930
-26,114,-46,4296,-1312,-7167
118,29,31,-2430,-49,-6459
-93,6,-27,231,-130,-2317
98,46,-120,235,-241,7373
-14,87,63,-1155,-856,9087
-22,73,96,-1660,2230,2745
-91,84,-116,8042,33,-8705
7,-125,-25,-1285,-2915,-10426
72,28,-97,-2230,-3809,-12083
101,45,-86,3347,1358,-11056
111,-29,-103,4221,1786,-5343
66,31,99,2216,-276,1914
117,-21,44,4363,1291,7362
3,-122,-116,-1782,15,6577
-106,123,-50,-387,-2909,6590
97,77,33,-543,1059,-4686
-45,106,49,985,-1265,-5179
55,2,75,-69,-1349,-2439
-119,-12,41,-893,-582,539
-121,2,95,811,89,2940
11,69,-71,322,-1351,7180
-28,-69,89,4526,1278,9615
72,104,-10,603,854,9805
-39,-69,33,2390,-570,4584
51,-114,-126,-1819,-1936,5745
74,-122,102,-1322,-1551,2152
-116,70,87,-755,-1111,3548
-119,-16,-8,1512,-501,2136
-85,52,42,1401,-467,2030
22,82,-38,362,134,-286
-20,-10,-21,555,4,-1263
23,-63,-44,99,304,-1099
37,-73,-74,-441,-128,-570
14,-80,-62,-523,-497,-250
23,-110,-121,-129,146,-1047
81,-128,115,252,76,-1248
96,-108,-127,-229,-462,-647
48,-79,-104,-1142,-707,-430
28,-117,-123,-694,-250,-457
91,-63,-72,3412,7542,-8871
66,-80,113,76,2778,-6437
-59,-106,-62,-1410,-294,-7112
-124,-117,50,-536,1587,-6697
27,-122,-53,-519,2100,-5646
121,59,-105,694,-721,-3920
23,-80,64,-192,-1353,-1491
-51,-126,124,2899,-490,3739
72,97,-47,1031,75,8000
-67,70,103,1722,1162,10028
110,110,63,-2998,1082,3248
104,-99,43,3927,-922,-6452
-51,54,75,-1525,348,-5448
-101,-100,-97,-138,-750,-2069
83,-77,124,961,-1297,6047
-70,95,14,-1107,-1843,8296
-18,115,-61,1560,3645,6903
-89,-94,48,1077,-1194,-6868
41,37,-74,4087,-582,-9488
23,-95,-89,1285,-3407,-11205
41,-37,-103,2464,-2521,-11171
8,52,-111,4715,1296,-7282
-31,-30,54,5628,-77,-340
-71,111,-108,3165,-97,3103
102,71,101,1814,-347,6043
-72,126,-36,-3162,-1225,6036
2,-66,-24,300,-384,3639
65,70,-122,5754,2344,-7052
-29,-6,71,-1914,-1236,-5715
124,-42,69,-1265,-1441,-1628
113,-90,71,-601,-292,1020
-64,-56,-101,220,-1634,5834
10,120,-44,3978,-1245,10510
42,-29,-67,3404,820,12837
-10,-68,-47,1122,-5,9086
-94,77,-96,-2770,-2575,6423
65,87,64,246,-1185,3118
30,-70,-23,7665,840,939
13,65,-11,2487,-773,4726
39,-34,38,-3247,-445,2447
81,53,-33,-1009,478,-1892
-42,89,-48,1525,1212,-2823
-56,64,-39,1262,114,-610
-8,-117,-50,-413,-119,982
-62,-72,-58,-805,-330,54
-20,81,-114,1082,397,-1174
-17,15,123,1297,582,-1077
-8,36,113,201,161,284
4,122,97,-1329,105,267
36,120,71,-518,222,-91
-107,-64,52,7663,4323,-9061
-64,99,-65,-2817,1683,-8153
-34,-99,88,-1639,200,-6231
64,14,124,-1394,1820,-6894
-76,-66,77,-576,1290,-6257
35,63,120,-692,1436,-5592
-52,-78,122,-815,390,-2732
-57,108,74,355,-99,650
117,-99,83,1734,-26,6506
78,-97,-70,1712,-1639,10470
-83,102,62,1307,3438,9189
-36,-95,-23,-3002,-1294,-4361
46,-67,14,1064,-594,-7480
103,92,-100,-1439,-184,-4253
32,6,88,1293,945,-204
6,45,-6,-555,-2085,8218
88,-94,-108,-1034,-3190,9109
97,17,36,2900,3467,6836
62,0,-34,68,-879,-6780
78,61,37,3643,-23,-10088
-71,-37,75,1077,-2301,-11657
-99,79,18,2919,-334,-10298
53,125,-9,1983,1152,-5250
50,-62,-116,2672,267,598
-85,-54,34,1624,-232,4834
-10,-107,-72,-245,423,8855
-107,121,38,-1916,-1211,7076
-115,86,120,-4029,-953,-594
75,16,69,7314,1970,-6103
111,-85,50,765,-1854,-6153
-12,-75,90,-2624,-1901,-3884
104,-7,-52,-365,-831,-199
79,-80,-109,-528,130,2518
23,29,12,237,343,6986
-99,-92,100,537,-394,11238
-11,-76,12,1013,1794,9267
124,74,-58,-901,-1429,9197
-83,7,-108,1145,-284,4383
-43,110,44,-169,221,3898
49,81,9,925,-795,3807
30,112,79,844,-1229,4963
-84,-99,-1,-362,298,2246
-16,-12,-25,1106,255,-1655
25,94,-18,772,701,-3028
77,31,-28,495,886,-1542
45,-50,-35,856,297,-390
53,-43,-35,595,-92,99
98,31,-35,-665,-18,55
-119,16,-83,-211,109,-207
-124,-6,-91,411,80,-104
-109,-105,-32,7050,2620,-3894
104,37,52,1079,398,-7818
113,43,98,-2290,2190,-8288
-86,-63,48,39,1481,-7677
37,24,-100,-1907,1564,-6574
-33,67,86,-708,54,-3827
-80,31,-36,741,-179,-441
24,126,-8,1329,1029,5762
5,-118,-76,4226,-5182,12667
-115,-34,-54,614,5309,7537
-90,-50,99,-3760,-1634,-3212
110,86,-103,4139,336,-6056
-79,100,-33,-1663,-459,-5861
54,5,10,-1153,-1400,-2204
-17,-3,80,442,981,5862
105,104,11,-958,-4764,11980
69,-106,-98,378,6269,5462
-27,13,-33,5055,-3087,-8525
56,61,-114,1535,-1716,-9863
-127,-38,-86,1185,-626,-13241
120,124,-81,2916,63,-11412
38,-19,14,4203,1855,-8153
88,109,-74,3622,-692,-1414
8,34,28,3095,421,3559
48,-70,45,3516,1123,8475
-68,85,-67,-1093,-1345,6509
-80,-88,-12,-2310,-5716,6368
73,-46,58,2196,7217,-5173
123,-118,101,1053,-342,-8221
79,23,109,-1520,-1522,-4781
-26,60,-79,-2712,-837,-2322
-23,42,45,-1368,145,1796
-113,-57,-93,-344,235,5763
-15,61,30,-621,-1822,9211
3,-102,24,2015,1969,11056
-98,10,-25,-143,2209,10831
21,-60,-71,2052,-3285,10958
70,-119,51,-1923,-3715,7109
98,-14,33,-530,-309,5835
48,15,-33,3076,156,3604
18,115,18,1347,1200,1423
103,0,15,-410,-613,-4605
-25,102,-39,604,1088,-3310
-16,90,-63,774,1114,-223
-40,61,-34,265,-339,-765
38,93,-61,-299,-140,-569
61,57,-62,-85,-108,-708
65,58,-71,10,188,-625
38,63,-78,-40,161,-563
38,61,-87,113,93,-228
-123,41,-119,4736,2612,-5115
97,-122,0,-173,3339,-6014
79,107,-56,-817,1153,-6689
111,-5,1,-110,1464,-7041
17,-9,-64,-1434,1330,-6570
111,19,-124,-182,1522,-6542
-48,-93,-85,-967,896,-4018
55,52,98,1863,-191,-609
47,125,-6,1113,1049,2438
-12,-113,104,1582,-2785,9130
-49,70,126,2296,-1107,9582
32,17,-79,4202,6050,8898
-47,95,68,-2646,-5473,-6668
53,83,73,2540,1018,-7757
8,5,-111,-1763,-148,-7609
125,126,32,-1789,75,-4972
95,70,-70,1892,1798,4937
98,25,126,-842,-5546,13006
127,100,119,-462,-2060,10010
28,88,-77,-2779,3094,2916
8,-95,28,8107,-2126,-9033
-90,52,45,806,513,-12480
-60,-87,-111,948,-2632,-12873
-122,120,93,3383,70,-9868
-65,44,-16,1499,1728,-5481
-2,-79,-9,2216,-150,222
37,60,30,4461,485,10103
-92,-52,-79,-1715,-46,8442
-55,-53,-35,-6170,-5181,5319
-42,-27,34,2523,5009,-2595
-1,-21,22,6251,257,-6258
125,24,-33,-1427,-1901,-5367
-109,98,103,-1445,304,-3006
87,-21,87,-588,67,-718
-82,79,-65,-1340,518,1398
116,-44,34,-1559,-2208,6861
-59,25,127,2749,19,13073
-69,9,-19,-2911,1329,8370
-113,61,33,3140,-3429,11748
-52,102,-10,-1126,-316,5914
-30,-17,-26,3970,-1765,3817
71,100,-48,696,2199,1383
-19,-125,-67,-1363,788,3358
68,2,-98,2609,-861,2034
18,16,-26,1545,596,494
-30,-93,-28,293,1024,-857
-24,71,-25,330,58,-1009
8,27,-42,648,11,-398
12,31,-44,212,144,-240
31,49,-48,-188,-4,-128
86,-105,-50,-497,2587,-5945
-104,1,114,-528,2093,-6825
-14,-92,-37,-1170,3592,-8294
122,-32,-59,1044,-244,-9228
-37,-58,-95,-2539,-1574,-7171
77,-67,6,-1277,-967,-3944
42,88,72,599,668,-190
-70,-103,-68,1298,506,6667
-121,-80,-109,4094,-2397,12327
-110,-55,-2,-2245,2497,8172
-69,-37,123,1854,3454,1306
17,113,-25,818,-2142,-7557
67,-122,-10,-4078,-214,-7910
-48,-33,81,-1037,-288,-3777
117,-78,-74,4042,-159,5499
-43,24,-18,-605,-5586,11287
-60,38,-55,973,-1225,7463
-6,-87,89,-2881,2656,-704
63,-121,-36,3707,-687,-9275
31,-100,-4,1310,280,-11802
-55,-10,-110,177,-796,-11982
102,0,46,2652,2315,-10106
-47,-96,-58,3836,2569,-4456
67,93,-105,3873,171,1103
84,20,-12,2959,-375,5904
-37,-112,-117,322,-2045,6325
-66,-5,64,-203,-3368,6360
-102,117,86,-2983,-2145,4065
-34,10,9,8599,6700,-5911
-105,-99,111,833,-1336,-6947
11,64,-63,-933,-1213,-5118
-78,110,33,-1136,-1647,-2669
-29,3,-59,-1313,-741,207
107,23,43,-87,257,2973
82,-69,95,81,-1230,8972
-15,108,88,3208,70,12457
49,-50,-40,-1135,317,9522
-125,-67,54,2541,-135,6915
-47,107,66,-491,720,7623
-105,104,-17,2611,88,3885
53,14,-69,966,518,4559
53,23,10,2069,-1006,2280
104,40,20,2293,114,2496
20,99,20,560,814,1417
-84,-59,11,692,-2,-1439
-56,117,23,1272,-78,-1576
-31,61,17,837,367,-1373
0,28,-3,164,218,-1174
17,28,-5,-374,-190,-689
65,13,-24,-513,-254,-611
90,107,-46,1495,1733,-5863
60,-90,99,3295,1095,-7074
85,-70,104,4370,-2439,-10425
120,-6,0,-6587,-2844,-7652
-93,-87,-50,-2949,-2530,-6173
29,22,-21,-885,-1562,-3320
-13,94,-47,207,-361,1821
-1,33,53,1334,-136,7661
-125,56,24,1159,758,8927
107,34,17,4605,4184,8667
-9,-57,-101,-4109,-2366,-2865
12,82,-21,1206,-195,-7399
25,-66,-28,-3140,-161,-5218
123,-19,21,1747,2556,1177
84,-108,-8,-1568,-1580,8213
102,67,92,-1348,-1744,8012
-68,90,-49,1003,3682,2257
65,76,-62,8670,1688,-5941
-113,22,3,-1016,-1538,-8626
67,-43,-83,2970,-2008,-10208
-84,83,-59,2438,-1313,-10604
-110,-52,-104,3760,2077,-7622
80,107,-2,5962,1593,-1466
-28,24,106,3196,-229,1937
-65,45,-18,2970,132,5886
-7,20,80,1072,485,5651
85,67,59,-1928,-1310,6714
27,-68,14,-4266,-2234,3491
41,99,126,8298,4048,-4902
-89,-57,114,-223,-2479,-6795
83,-33,-54,-1238,-1129,-3861
115,66,17,-1250,-1124,-1535
114,8,-127,-2226,-667,1257
-20,6,-39,-889,-426,4529
54,63,98,-97,-972,9936
96,46,-106,561,1411,11719
-61,-67,111,2752,3261,10383
19,-69,46,-3768,9,6116
-30,-34,55,585,-967,7514
-94,-75,18,5,-2618,3819
-104,38,-127,-1496,-1559,5342
-84,-15,-101,2624,1015,820
126,-11,23,3938,843,-4449
-4,-8,93,-2172,-836,-1409
-32,-36,15,210,-289,891
-7,76,-22,51,-197,643
43,71,-87,-689,-94,-894
68,-15,118,299,578,-1298
68,15,-97,242,390,-540
88,23,-121,375,158,-269
-121,-79,99,4416,3695,-6495
-77,23,1,636,5907,-8375
121,100,-24,3115,1162,-7820
125,61,18,-2209,1233,-7114
114,96,-8,313,427,-7889
-15,98,68,-2493,1295,-6046
-118,30,41,-361,355,-3486
-112,11,3,735,176,2441
30,41,33,469,-137,7961
28,-44,48,-677,960,9185
-66,-11,-121,-913,2620,10131
32,61,-13,-2560,2073,1252
12,48,69,8484,-859,-6033
41,33,-65,-3527,-2752,-8974
121,-33,-8,-940,815,-4249
-21,93,-77,1978,-82,5903
-100,5,83,-2790,-2213,9245
-98,-5,-106,-1642,-210,8826
-80,52,-61,-6097,2026,-244
123,85,-41,10374,-580,-6622
-93,106,-19,2576,-1458,-11981
61,-101,-64,1830,-2671,-13121
-32,24,-83,3896,1190,-9943
52,15,-49,4914,792,-1777
119,103,-25,2679,-276,3519
37,-33,78,1806,749,5264
-7,-104,-36,-1055,103,5441
-121,117,-61,-397,-722,7048
124,-86,95,-4609,-1804,1132
-41,-128,-7,7229,1590,-5718
26,-61,-53,-96,-2280,-6435
87,115,118,-1103,-1818,-3773
-113,-6,-17,-358,-804,-1059
-110,115,-94,-164,116,1814
58,-109,119,-644,305,7165
23,3,-84,-379,874,11803
21,-87,-125,-1221,2656,8861
70,121,78,-3055,-2751,7903
114,12,-8,-2229,-17,4701
124,36,-89,458,-1689,3442
-10,86,-126,1244,-3506,5306
35,-37,93,-278,-758,2200
98,-64,32,552,535,182
69,-33,4,1124,643,424
43,-83,-17,1069,492,-321
56,-113,-21,601,293,-230
74,110,-25,36,79,-29
77,105,-22,60,-93,130
92,111,-19,56,-87,218
100,118,-23,-5,4,-30
-31,127,52,3254,3439,-5160
-96,-42,34,1424,2303,-6433
-65,-77,-110,-179,1817,-8117
-29,-126,-37,-3369,1760,-8045
119,111,103,-838,2299,-8246
-29,89,-128,-69,2011,-5117
-95,107,127,-232,-181,-216
11,102,-126,801,-1953,6576
-75,-80,-72,1801,-2416,10358
-112,93,95,-918,1327,9220
-39,-105,82,-1531,2837,3354
-19,116,69,4320,-2828,-6270
110,-27,97,-1341,-1031,-6975
-105,24,121,-883,-806,-4185
-98,38,11,513,1548,837
70,-54,-22,1048,-3525,11697
-67,46,-80,-1100,-2632,7721
37,12,49,-3488,1631,-1167
-60,-114,115,7046,512,-9563
-92,126,-70,3456,490,-10657
55,-32,-44,1459,-4160,-11366
-62,73,39,1524,41,-7021
103,110,-26,3109,658,-2069
-64,116,69,2611,-380,3557
-24,-69,13,1966,1139,9806
-8,78,40,-2810,1539,6130
-102,121,-33,-2995,-2520,2450
28,-95,71,8053,2363,-4976
16,-24,54,-777,-2843,-6100
-109,-37,67,533,-4449,-4764
80,-118,79,-2399,-1481,-2566
105,-93,-22,501,-362,-323
-101,-19,-51,1937,1612,2499
89,-46,36,777,1998,8130
43,90,10,543,3278,10780
-115,-118,74,-522,5498,8979
31,-68,-108,-1793,-130,7600
16,117,70,-7,832,3693
-29,20,107,-1180,-2099,4030
85,-39,37,-2946,-1504,5325
115,-67,-10,-1937,-1923,3854
19,65,-40,1655,-233,-24
-19,8,-24,1691,791,-2124
5,-86,-4,594,225,-1277
-3,-125,-19,-299,-48,-482
14,117,-43,-488,66,-532
51,87,-72,-148,229,-695
78,91,-62,235,-72,-429
73,103,-59,-4,-142,-336
82,110,-58,-234,-92,-154
50,72,59,4369,4701,-6655
125,-41,-127,-26,2482,-5659
-58,-48,-73,-1685,3223,-7230
-47,44,46,-1198,1913,-6820
31,-2,-94,-591,1002,-4888
91,57,127,-933,451,-3260
30,-4,52,-1135,-437,-89
21,92,46,725,-1760,5002
-128,-75,60,2616,-2524,7545
96,102,97,3528,-1472,8106
35,-11,-71,6520,6509,3373
89,36,-43,-5163,-1854,-5515
60,122,-64,1003,-246,-7148
40,4,15,-2840,-900,-5662
46,83,123,-33,2714,-1283
-41,-124,73,915,-2302,11093
-71,-107,-42,737,-3049,10707
-54,-4,88,-2123,4950,2797
11,74,-9,6123,-1399,-7772
-37,65,5,104,-1078,-10583
-44,-12,-44,-2067,-1976,-11497
63,13,-107,4093,2691,-9374
-8,-29,111,1637,478,-7100
55,-36,-118,3249,-1239,-1442
114,29,76,2639,-630,3767
8,-115,126,3465,544,7617
-117,104,43,-2238,-692,6163
-73,102,-77,2430,-1589,7543
-9,-23,22,2786,5214,-4322
15,-19,85,2759,-3002,-6914
70,83,26,-1421,-3023,-5514
41,-115,124,-2529,-877,-4020
102,98,-69,676,-106,-1718
73,-88,-68,191,1212,611
22,-128,45,424,836,5933
-127,-92,95,-222,3058,10250
127,-17,23,44,2955,8646
-31,-40,-85,-2881,1361,8740
-3,-23,-72,-4534,-878,7476
56,84,81,3426,145,3968
-43,76,-116,1931,1542,4106
-41,-9,115,-1070,1250,4367
63,-94,20,-2209,-1270,3674
-21,113,105,-2317,-775,-1393
61,-101,85,1047,617,-1355
50,48,71,1746,663,-884
28,100,47,-441,-43,-349
54,106,-24,-1334,-254,-8
77,92,-57,-442,-186,-73
88,119,-58,-178,-149,-214
42,45,-31,-886,3954,-4020
-110,88,72,-660,4615,-4071
-126,85,39,1310,1903,-6680
4,93,-38,-232,1972,-6650
97,22,25,-1340,-309,-5487
0,-86,-21,-365,794,-3283
46,-93,-61,964,586,-187
-102,-103,120,1692,-862,6919
74,-32,-116,1601,-317,9424
-64,125,20,836,1243,9334
88,-93,-5,-1667,2492,1851
13,21,58,4086,-1658,-5376
-95,57,58,-43,-673,-7201
-67,-81,93,-2543,-1974,-4940
74,-48,93,1461,1508,1722
5,9,26,602,-1414,10558
-87,-41,-61,-2183,-1039,9294
-27,-88,87,-1,3744,4666
61,45,-63,6431,-2105,-7695
116,-36,72,104,-2603,-10711
-89,-110,62,1039,-3505,-11976
16,31,-62,3620,-2125,-10977
-61,-76,45,1850,-99,-7448
38,-109,63,5505,177,-450
-32,-14,2,3496,-97,6038
-89,-50,96,244,-71,5827
-96,-122,-60,-1189,-2623,6554
16,1,81,-1219,731,3845
36,-79,35,6714,4438,-5384
105,-4,56,-2830,-2526,-7987
-37,-79,124,-1869,-852,-3640
-70,-30,106,-1091,540,-449
32,95,-118,-982,-782,3514
-82,109,68,1409,-1263,10662
64,-75,21,2796,420,13975
51,-13,-23,238,1627,10783
40,76,-126,-4192,-1608,7331
44,-50,-88,2925,-2431,3238
13,57,-31,2218,-231,3741
-117,15,123,-833,572,2666
13,103,41,-220,-328,-552
49,-81,-19,385,202,-2173
60,95,-35,977,652,-1436
38,54,-37,956,172,-465
67,75,-23,-289,-140,70
72,92,-31,-1016,-336,161
96,75,-61,-401,-92,229
92,111,-68,-63,-46,68
87,-128,-66,-45,-128,51
76,-100,-64,-312,-220,179
59,56,43,1722,7189,-5269
-41,20,38,8407,5622,-7869
30,127,-88,-1525,2369,-8738
61,-114,17,-3125,1883,-7664
-59,31,-79,-1026,2880,-6370
5,-15,-87,-405,1106,-3273
-116,-97,78,-247,-1051,1306
-41,8,-30,2375,-1350,8658
-41,-64,-58,-1121,-1345,9974
23,-71,90,2285,1587,8982
127,-101,-56,881,-965,-7457
90,124,-72,904,1142,-6129
-27,23,32,-1114,494,-3005
90,61,-101,670,-504,4416
-48,75,77,-2939,-5682,8268
-68,-59,-99,2194,532,6017
-7,-2,-72,3907,2565,-8462
122,-108,-94,6104,2441,-12662
117,5,26,5047,-4009,-11322
-93,71,90,4862,305,-9696
79,-39,-104,4254,1474,-2429
-107,-125,30,4013,-189,5665
77,28,-2,1992,-1688,8428
95,123,-67,-2358,501,7350
127,121,108,-5675,-3532,-954
31,-123,-93,9438,1073,-5560
-90,-16,119,-2561,-1127,-6586
108,25,111,-1524,-881,-1983
54,-101,-4,-1132,-355,1582
-116,38,126,-2225,-398,4974
49,50,89,1756,-1392,11733
22,13,87,1408,183,13150
-5,-48,23,1683,-1434,9109
-76,110,8,-1822,-1093,6535
76,-39,18,2895,-1059,3947
-111,75,33,571,-578,4122
-71,35,-30,-1370,-144,1774
2,-114,-28,-143,-2,-1205
3,-75,-52,1312,537,-2910
44,113,-48,1128,830,-1954
44,103,-49,-158,482,-739
21,90,-65,-313,-281,-248
62,116,-77,-325,-165,-273
103,118,-102,-75,236,-447
85,110,-113,441,81,-176
77,111,-100,654,-275,54
87,-65,-91,-1001,40,246
79,-64,-86,-757,-279,260
102,-51,-108,-491,73,121
90,-38,-108,-252,-41,-33
-4,115,-30,3206,3283,-4972
118,28,-113,2844,3725,-7228
112,-102,89,-1633,4413,-9459
60,95,70,552,2059,-7208
-86,-56,-5,-699,737,-5710
109,-62,-34,-1277,-171,-3691
84,108,-101,63,-522,-434
12,-86,-116,336,-798,5553
-22,121,-82,472,-870,9149
65,89,126,-1768,-259,7753
-103,-67,-44,-1616,1572,634
53,-82,62,3646,592,-8026
12,-32,-57,-362,-72,-8143
-39,-86,103,23,-767,-2612
18,65,-10,62,33,6332
86,112,81,-447,-2963,10714
-121,-30,-9,-2504,-2548,9591
-15,111,46,-2312,1559,187
11,112,98,7347,152,-7769
94,75,105,1246,-611,-10894
-45,-46,109,677,-1681,-11361
84,18,23,2797,1824,-9135
-117,120,-41,2902,2321,-3622
63,-60,124,2142,-73,3391
125,85,21,553,-2522,7955
91,33,100,-2931,-2614,6081
-48,-43,93,-3108,-4699,4842
53,-97,118,12380,7375,-4696
-46,-23,52,-307,-2909,-7820
124,-94,-19,-1878,-2254,-4633
4,37,3,135,-412,-1477
44,-10,-50,-619,-491,971
65,64,105,-701,2138,2991
27,42,-43,-2628,-670,10124
-88,-117,-120,454,578,13484
-12,120,-4,-831,2504,10429
42,-90,88,-1586,-1240,6220
58,-48,-82,-3125,-3877,5804
72,-95,-76,-1090,-1776,2680
112,-112,29,1464,-925,4140
-1,-75,-22,2137,513,1550
-20,67,2,1196,378,-2695
46,-110,-34,1155,1382,-3553
86,72,-61,1014,1331,-1921
42,47,-42,382,59,-560
64,50,-70,-124,-155,-79
115,76,-85,-504,27,-107
-125,75,-97,-104,-21,-247
127,77,-94,36,-104,-188
118,86,-92,-54,-15,-25
49,-93,92,2819,2667,-5079
-26,24,-103,1730,2713,-7722
67,55,112,-1533,1196,-7986
-75,108,-6,-2173,2622,-8817
-58,120,0,149,1742,-8686
0,88,-57,-847,-1676,-4605
-15,-49,37,-141,-1475,-1246
-5,49,-36,1476,-1617,5133
-110,10,114,1929,-688,9372
93,68,-38,164,236,9999
-89,-76,81,-1542,3471,6796
-31,-73,-114,2268,-2186,-8894
75,-84,-109,-936,123,-7758
-12,-102,-18,-865,-215,-3388
-96,76,53,3337,577,7497
50,-68,-15,-3210,-4150,9453
14,108,-39,2674,-488,9426
-16,57,125,-87,1316,-6849
1,84,-21,8137,1437,-10736
122,-111,61,3230,-1448,-13163
4,-92,97,5914,344,-10757
13,-82,9,4205,1326,-5543
-83,22,105,4558,247,1998
68,100,17,1711,-775,7140
-75,-122,-111,-346,-777,7934
-77,3,-82,-2919,-3861,7369
-28,-42,84,-1819,3384,-3287
17,-55,-7,7575,229,-5177
90,29,42,-1246,-1408,-5282
13,52,117,-1730,-985,-2813
66,48,-84,-1425,-833,-736
-31,48,7,-1675,-1,2721
16,-114,-43,-808,-296,8445
-128,64,74,2744,-115,15027
-23,-39,119,-406,389,12056
120,-99,0,-1270,-2137,6528
24,83,32,-5427,-4709,5989
0,3,30,3968,-2176,2927
-37,-82,119,8641,1798,-89
88,26,26,3184,1273,3404
75,20,-87,-3149,1992,-5
-68,89,-28,1380,-1095,-3163
13,30,-7,2557,-512,-2081
22,48,3,419,458,-800
-10,42,-7,-1049,322,47
35,27,-59,-489,-1,171
72,66,-69,-476,-83,35
85,74,-102,-273,72,-286
60,112,-68,-814,-513,233
60,-87,-76,-1622,-158,298
14,-17,-47,2726,1902,-5124
93,-110,-62,346,1700,-7177
-84,7,104,-2591,-315,-7211
23,114,-112,-3836,-1237,-7890
9,63,-83,-2077,645,-7274
-78,-38,96,-703,230,-4579
12,-87,-114,-937,-234,-1848
34,29,105,937,-17,2800
-39,-39,71,1908,-146,7296
-86,-48,47,1091,490,8927
62,-57,65,3006,3086,9143
-25,53,78,-1795,-1356,2777
-40,16,36,5904,438,-6929
-40,18,-116,-3841,-1203,-7097
-61,4,30,-3234,-1789,-3561
115,49,-72,1700,2364,2733
19,112,34,-1716,-1864,10146
-64,-102,27,94,-1235,10141
80,93,-85,-3746,-290,-2491
-5,15,23,10262,1100,-7475
46,28,-116,2529,-4455,-9466
0,115,103,1437,-7406,-9888
110,-108,109,252,-3499,-7816
-59,-44,-107,4051,251,-2658
-69,97,50,1950,-677,2707
-28,-118,-101,1106,814,5201
-71,65,-61,-394,-1239,8550
49,-57,-15,-1886,-457,6770
109,55,-44,-881,1757,-1838
-11,3,27,5350,-2962,-7357
-114,75,-82,-1420,-2327,-5586
100,76,-117,-1280,-582,-2985
16,62,-11,-632,-383,-251
-63,93,109,-1233,1020,2289
-127,-95,118,-287,1500,7981
-26,123,75,2824,3093,12409
-23,110,-17,4111,3695,11400
116,80,94,-1180,1593,2846
-86,-115,0,-1393,-637,3665
-46,39,-53,124,-214,4322
39,80,-20,-948,198,3617
-90,42,-39,-1764,150,1714
106,-32,-78,328,273,88
31,124,-46,1310,-109,-1475
56,104,-27,93,15,-893
51,44,-48,243,-45,-231
54,60,-44,-82,-177,232
51,71,-51,-140,-166,-54
77,83,-79,-242,86,-46
93,88,-92,-17,-118,-25
-41,123,-71,2029,3298,-4880
91,118,-50,1987,4187,-6505
19,-72,-115,460,2739,-7163
14,114,63,-1504,1624,-6880
-66,50,-59,-241,296,-5628
102,80,-116,513,346,-3651
-27,106,-109,-450,-686,-804
-21,-106,-120,597,105,2543
-79,-65,-97,2152,851,6887
-35,-87,58,-1673,920,8663
60,63,84,469,1825,9311
-122,-111,107,-4525,-2844,-3618
-43,20,68,8322,-790,-4515
-50,-65,-116,-2951,-2331,-7401
103,-92,-56,-3272,-39,-3561
58,-12,111,2193,2548,1527
43,3,-90,-1361,-979,8923
49,-13,-94,-1900,-2426,10481
-81,-44,-57,2068,117,6771
126,0,-58,3487,-1233,-8391
36,-44,-11,1182,-284,-11573
-49,77,-113,3314,-4226,-10811
127,-52,20,1319,-2597,-9704
-36,-115,-115,188,-94,-6839
58,46,35,3913,1559,-2785
-53,104,106,2263,66,4106
-83,-59,101,2613,-763,7156
-77,-91,103,-3920,-2473,6061
4,-57,25,-1313,-1018,6563
-46,84,42,-2475,941,376
79,-4,123,9251,1749,-6541
-61,33,-75,-977,-161,-5763
-46,62,66,-1919,-1027,-2965
-92,85,-28,-979,-441,-853
-69,-32,-74,237,71,1227
-78,-83,-92,-1099,1130,4457
61,4,-72,80,1099,8294
19,25,-104,456,2704,9012
-57,-89,127,-2239,3388,6489
16,-91,-52,-5352,2447,3121
71,74,-9,-3072,-2139,1947
-89,-92,110,-1839,-3796,4380
35,64,-89,1355,-4199,6130
77,46,-121,2083,259,1933
-111,-47,84,1290,1662,1555
-50,28,49,1852,-873,-261
52,-122,78,-162,-1300,-1519
126,107,28,-1108,60,-827
57,32,-14,28,51,-524
85,45,-25,387,137,-514
-117,20,64,2486,2708,-6297
-107,-83,100,-2099,4657,-7552
46,48,-77,-705,3768,-7892
47,109,42,158,2653,-7326
-12,77,-72,-1353,113,-6233
-11,16,77,-1706,-854,-2241
70,111,-7,1770,-1724,5160
116,29,47,2204,-1032,8026
-14,64,87,1171,64,8868
-22,-12,-23,-659,2569,5198
-61,-67,-121,2467,-3127,-6351
56,91,-28,492,2008,-7432
-73,-93,-67,-951,-126,-4045
-109,-65,28,899,403,2663
28,-72,-29,-665,-2314,9026
-93,8,-72,-406,-1633,9527
49,-26,37,-270,5730,815
127,-75,59,6549,-2241,-9481
-127,-120,73,1062,-1362,-11183
19,-99,122,-1235,-3177,-12645
61,3,7,4970,2753,-7697
-6,-12,55,1485,821,-2340
-87,-118,36,2752,-603,6233
-24,-114,-106,436,-604,7003
-89,-107,-7,-673,-1399,7506
6,-72,35,-2740,-2935,2424
99,109,-64,6506,1903,-7299
112,-33,84,70,-559,-5945
33,-62,-31,-1653,-1206,-3369
25,114,45,-1264,-105,-402
-26,-6,-19,219,898,2695
-35,88,-104,1570,-411,8763
-101,-11,1,1699,656,12896
78,31,-67,-2782,-19,7290
-11,-85,-3,-2372,-3978,6793
-79,-122,-103,52,-671,4169
-117,46,-61,4607,-664,4807
-5,-71,-96,3277,-315,7006
82,-104,53,-2556,-325,3628
-15,-29,-4,-1757,-351,-3122
49,82,4,2464,1006,-4041
86,63,-4,2319,949,-2320
20,61,8,437,102,-912
17,50,-43,-614,-65,-86
70,64,-59,-583,-283,92
126,93,-75,-196,-116,142
119,106,-69,145,-292,-196
116,111,-63,55,-226,-301
107,114,-50,-134,-309,-69
98,110,-56,22,-301,172
75,98,53,2482,4331,-5305
96,-6,124,1056,4985,-8668
68,55,-7,86,2955,-10025
-70,-77,-32,-2653,882,-8854
11,-20,102,-948,-36,-6276
125,-16,5,-2174,141,-4162
-80,125,-20,542,-1011,2708
51,-127,127,2541,-2265,9882
-118,-77,-38,1011,539,9410
120,96,33,3905,6669,7171
-119,-98,43,-1772,-3661,-7332
74,-82,14,3041,926,-6067
-22,111,32,-1390,-1309,-5038
-1,61,31,803,1615,1912
41,34,116,-344,-3409,13174
22,79,-47,-2492,-3904,13036
-20,-21,-78,1939,2579,6407
-102,-79,106,4851,472,-7424
47,-115,4,1547,-1663,-9936
79,-125,43,2385,-1453,-8086
-91,70,-84,-227,-666,-10578
73,-71,32,1366,-860,-11308
-106,-125,-3,734,2182,-7781
5,105,88,3622,1989,-2608
72,-92,16,2464,761,255
36,-105,126,1613,-1294,4853
114,-38,-77,2975,-2065,9304
119,-39,92,-3809,-1533,5665
-24,-27,47,84,-709,2663
123,-64,62,5638,3052,-4445
-58,-90,-106,-87,-1083,-3095
68,94,32,-1144,537,-683
111,53,-97,652,249,1538
-89,-95,87,-510,630,4566
52,0,89,-1082,765,7002
94,-108,83,662,2459,6717
37,-29,18,-2958,804,7638
84,113,-29,-2982,721,4604
70,-61,12,-3015,-2324,5073
-2,-78,31,-937,-2834,4109
-61,-78,28,2734,-1809,2966
21,-61,70,3435,-828,2662
-64,78,-30,653,1722,1168
-3,-23,-18,472,136,-1248
46,115,-20,1002,-192,-1378
79,123,-3,257,-20,-521
-8,109,-18,-152,-47,-979
78,55,-58,-4,156,-1229
-114,68,-64,-110,-24,-802
55,70,-80,-286,-457,-1006
-47,72,108,2304,2646,-4314
13,-56,-82,3032,4242,-5014
45,17,-23,3823,5409,-6351
121,-82,-44,-1247,694,-7662
-13,5,79,-1600,-1221,-7624
-61,-81,17,-1816,49,-5582
113,1,-22,559,64,-402
57,94,52,265,-422,5844
6,-27,96,1307,1359,9705
-92,18,-110,-1161,2444,8711
-104,-41,-20,843,5766,6821
127,-33,21,-302,-7894,-7045
-6,14,67,1689,-334,-5370
-93,-87,-82,-3791,-1151,-5066
-29,-8,-124,-52,3618,-204
-10,29,-28,-292,-2619,9968
116,83,62,-1783,-2914,9081
32,-78,116,-8763,-11014,-5051
98,-92,7,8166,-2598,-8948
91,65,-59,-1320,-1714,-10160
-23,74,-48,-163,-755,-10448
-41,36,83,2495,-10,-9905
83,70,63,539,1059,-4429
4,115,-49,1234,112,1289
-94,81,-112,2560,-600,3935
-4,-86,54,786,-911,6427
-27,111,3,-1626,-1942,6646
115,90,68,-5507,-3427,1593
127,46,73,9403,3623,-5707
120,-31,16,-1048,-1158,-5336
-43,-95,-70,-205,-576,-2704
-7,-116,70,-739,569,-844
-74,-87,-95,-885,674,1357
10,18,-114,-1756,618,2772
-118,-29,117,353,822,8886
-120,-110,-4,-427,47,12593
-58,42,13,-66,1917,9471
-71,-17,-104,-4191,-88,5741
71,51,38,-2447,-1636,4362
-34,62,-76,5950,1609,3587
-60,-70,-62,6773,2036,5088
-56,-47,54,613,1289,4255
-27,84,52,-1476,-1269,-615
-40,29,81,1668,-2013,-3374
116,-16,78,1407,633,-1834
105,-54,61,428,1545,-577
10,-45,55,-157,-206,517
-7,32,58,-1441,-1357,1104
66,110,21,-2241,-1098,854
76,110,-21,-1398,-432,-95
84,-77,-8,3289,5264,-4087
-71,41,82,2993,4001,-5725
-51,30,56,2491,2268,-8621
23,-40,-90,-1912,2722,-8423
-85,-38,-85,-2897,4458,-8136
59,52,111,-99,1461,-4366
7,69,-12,-747,-1172,1856
112,105,-27,41,-4222,10098
-68,25,67,531,-809,8969
-124,16,127,3033,3405,7814
-15,115,70,-2454,-1961,-5578
100,-88,61,-52,-100,-6954
84,-96,78,-1662,883,-5288
-37,-41,-36,621,2014,595
95,-71,111,449,-2614,10103
-48,123,-53,-2145,-4177,9731
5,-109,-80,-2003,1788,3282
50,124,-128,6683,-3228,-7561
20,2,-79,1421,-2436,-10145
12,-94,-24,813,-3484,-11411
-18,18,36,2700,1322,-11027
-86,28,89,3681,2748,-8768
110,-122,87,4594,1876,-2353
81,-92,111,3878,-239,2076
-117,80,50,3349,-1525,6523
-77,7,-75,1804,-190,6201
71,16,-77,-1389,-1864,6531
121,75,112,-4362,-1144,-1980
-14,16,4,7154,1474,-5264
1,103,124,-1059,140,-4227
-57,-111,-60,-136,154,-1035
-96,-32,18,-90,384,470
95,113,-94,-2622,-329,3953
-52,27,115,48,516,7803
-77,-72,60,-597,275,11206
11,-31,-3,1110,3203,9254
-48,17,0,-241,1068,6808
-54,-86,-120,899,2283,2741
-64,71,-67,116,490,3591
-10,-94,-8,717,425,1469
49,13,26,1062,603,1327
83,-107,36,2190,367,1042
103,-115,61,1454,361,428
36,-112,126,-250,-578,-9
24,75,103,-176,-256,-303
71,-17,59,716,136,-58
63,-1,51,548,-38,414
70,69,44,-391,-292,755
97,69,11,-389,-185,638
111,91,8,-375,-646,585
-44,17,87,3650,3717,-4788
-91,122,88,4182,4203,-9940
83,36,113,-3847,-49,-8276
90,29,-65,-3389,1403,-7290
-37,-51,-122,-923,3342,-5227
-88,81,-119,-2895,898,-1982
103,-20,0,1333,-2138,8246
-88,70,-98,-59,-1351,9003
4,-37,-82,-639,-85,7927
18,-106,-49,-3477,-580,883
78,-118,2,5939,1191,-5516
-62,54,-95,-1634,439,-5606
105,69,71,-1818,143,-2333
124,-64,127,288,-812,8322
79,-49,-23,-1711,-3138,8611
49,-122,70,1874,949,6917
-62,-122,-99,857,2690,-4222
53,-57,43,7723,1634,-6654
-105,15,95,1460,-1453,-8791
43,-108,-85,1761,-1248,-10239
-40,-53,-4,3214,-1193,-9950
111,-62,-4,3327,1240,-8302
-87,-93,-72,5209,1225,-1983
-44,43,-126,4315,703,1466
-68,1,-88,3433,-640,4179
16,5,82,2835,-885,5891
39,-96,-88,-1915,-1182,4728
8,-96,-40,1372,572,4531
-90,-119,81,2400,1129,-5944
61,-126,112,641,-1063,-5111
-123,48,-97,-2099,29,-2894
22,-56,-86,-897,383,570
-8,84,49,-559,600,3563
-21,45,-13,-1628,-1319,9108
48,-43,-2,1762,-1818,12277
-104,-40,19,-915,-2079,11250
-90,21,-48,-1440,-3254,3837
16,-103,-95,-690,-1967,3733
59,-102,63,1992,-90,1144
73,106,85,498,81,1426
77,65,35,-32,-356,1662
46,18,62,739,-945,1138
-9,-42,53,1511,-228,-349
15,-64,27,866,864,-340
7,-103,-32,983,627,91
-14,-101,-25,859,-195,604
-6,-71,-31,185,69,623
26,-98,-65,799,282,181
40,-94,-75,752,255,-82
45,-115,-92,610,102,-212
-47,63,-107,2211,3701,-4757
-22,42,85,3115,5789,-6156
-12,-97,117,3517,4665,-7116
95,118,-25,-3320,2602,-7267
-54,97,-39,-852,2168,-7236
107,103,-122,355,-736,-4821
101,73,55,-1675,-251,-1589
68,99,19,1880,-1037,5897
78,-23,-73,1731,-1137,10482
-34,86,111,-1785,-2053,10096
65,-2,-50,3168,2649,6328
75,38,-59,4891,-1175,-8875
94,5,-104,-635,-36,-7195
-99,96,118,-1392,723,-3965
103,-31,12,669,4695,4914
-126,-121,10,-3439,-6952,12100
75,100,-44,-2409,2314,4253
-75,-77,104,4637,-1159,-8709
-29,47,48,3470,-1359,-9539
88,-122,-6,2359,-3030,-10945
-120,87,4,1906,-174,-11731
85,-103,55,2649,2872,-8917
-121,-88,-126,3317,2291,-1876
-10,16,61,2792,141,1279
-47,-13,-31,2268,-3678,4584
35,-128,126,1549,-2844,5060
96,-86,-39,1301,-841,5492
79,-108,-51,-910,-2969,4435
-48,-88,3,3004,4673,-4590
-93,38,90,1172,-1557,-6045
98,-20,-36,-2171,-691,-3993
49,-32,121,-2413,424,-1854
2,60,-39,-3571,1059,651
98,85,58,147,-2236,4245
-112,84,-117,3596,-3777,12202
21,114,-14,2645,-2354,11810
70,114,75,-224,-402,7962
-30,110,124,-688,-1997,6330
112,124,27,1564,-882,2883
14,-86,87,3338,1663,2586
96,-5,-18,3888,1583,3959
98,85,16,1702,42,3571
30,-110,17,-1695,-716,355
1,-1,-29,499,-630,-1692
14,-92,-19,723,149,-1397
-20,104,-6,-90,-283,-941
-48,-120,-1,-1471,-817,-131
-6,-100,-28,-1882,-642,-275
66,-71,-66,-1658,-336,-626
77,-44,-85,-1419,-496,-958
-40,51,-47,299,1956,-6153
104,15,-94,-2421,2281,-6594
-33,52,-93,-2355,4178,-7638
81,57,-38,341,2251,-5911
89,57,-114,342,-139,-193
72,-34,-107,487,-2389,8269
-107,-69,14,3396,-4312,11581
6,14,31,2289,4824,7735
-19,-112,115,-3006,2931,-2959
127,92,-14,2883,-1066,-7116
-22,100,62,-1259,-2152,-8528
-114,-16,-81,-1185,-739,-3936
-5,-90,-35,63,1153,3545
-62,36,-115,-204,-2915,10974
-120,86,57,-1563,-3541,10200
106,33,81,-2817,3843,342
-36,-90,71,8474,2970,-10626
-63,-87,-3,1964,-1258,-10811
31,39,8,1702,-2951,-11090
-1,64,119,3368,4428,-8508
-5,82,-123,4926,3942,-3709
16,107,-111,5690,2800,1879
114,107,22,3521,-478,3640
74,74,44,2293,-1730,4406
-120,-124,-24,2379,-313,5655
85,-70,-71,-479,-1652,6848
-73,-57,-96,-2872,-634,2610
-74,110,36,8764,1250,-5867
38,89,107,153,-1660,-6245
-88,-126,-31,-364,-1450,-4326
122,-91,-91,-2609,-1375,-2675
-59,-20,74,423,1323,-188
83,6,56,-1177,-208,5264
86,-5,-78,975,129,13265
-50,3,79,1890,4333,12379
-60,-30,122,-1232,1351,8209
98,-126,76,-5165,-971,5668
-12,17,-31,-350,-724,3150
-108,37,127,4442,-189,3655
43,75,79,476,-30,3987
-86,88,49,-1251,-232,3712
-84,-128,7,5,-78,2711
33,11,-44,1840,281,-1506
21,-118,-44,2235,488,-3331
51,107,-22,1071,354,-1757
1,78,-14,-235,-203,-136
1,62,-31,-487,-362,-50
65,97,-43,-524,8,-271
88,81,-54,179,112,-802
115,40,-67,962,49,-603
31,-39,13,4340,6062,-4747
92,9,-17,3925,5776,-7674
109,-121,-54,-1053,2867,-7550
107,-64,76,-2919,3523,-5497
16,-34,-126,-337,38,-2088
-1,112,65,507,-247,4584
-87,-59,-100,1213,-739,10640
-53,-69,-119,-2755,1132,8558
121,-72,-48,557,5045,6176
110,4,-1,3161,-2520,-9260
55,35,98,818,-809,-6674
118,33,56,-1634,-1824,-4260
10,-1,-13,-120,1353,-584
-4,64,85,618,-211,7518
-41,-15,-113,-3187,-3549,9729
75,65,94,5024,6713,3189
62,96,-67,4815,-2265,-8760
-118,66,71,2581,-1715,-9273
70,-48,5,1282,-1957,-11016
11,-109,-75,3252,977,-10297
119,73,65,1270,4614,-12956
104,-104,82,3086,4106,-5564
65,-3,-95,3502,1613,3577
40,10,41,2479,967,5054
62,-5,-16,2479,405,6132
1,61,27,3736,1773,7945
-33,-95,-20,55,-1104,8587
-4,104,-103,-3013,657,6426
-41,111,-50,-3395,1228,-1889
-6,-70,72,6914,-1152,-4668
2,82,-83,-1034,-863,-5468
-70,99,-105,-1470,-1080,-3141
-17,13,-39,-410,269,-1056
-105,-23,-58,-1714,-215,1103
-69,-115,93,-833,1361,3177
23,-89,-116,-1037,514,7872
-81,-110,-108,2910,-158,10998
-75,101,-61,3,1688,9618
-46,78,84,-1574,1214,6037
-54,126,-64,-3591,-1030,3489
-49,68,9,-181,-2405,3625
44,72,57,1113,-404,1326
40,-60,82,3068,1072,32
29,-97,12,2108,1539,851
49,-53,26,263,476,2139
44,-53,-32,-910,-321,1320
56,-94,-60,-667,-544,-15
72,101,-78,298,-66,-920
74,59,-69,1033,288,-1118
70,38,-60,774,161,-833
-116,40,54,3303,3604,-5453
61,-83,-96,1934,1511,-5922
82,-74,-13,884,1965,-6740
109,35,105,998,689,-7725
116,-69,23,-2354,-312,-7669
78,96,79,-959,-862,-6985
-3,-77,121,324,-574,-3816
70,-13,-74,-113,-607,2853
4,68,27,1448,-752,9923
-19,-32,55,-855,1024,10285
80,-103,58,2809,5025,8953
72,120,-97,-1142,-4470,-6198
56,106,54,3785,628,-7436
69,3,-64,-1911,-2052,-6375
93,25,-5,520,2773,879
49,70,32,-1036,-2525,12183
-34,-66,-85,-3881,814,7151
38,-49,42,1035,4828,56
47,38,19,6682,-516,-8012
78,112,93,2268,-2189,-9532
75,-40,83,-93,-4774,-12663
-101,31,-41,3899,980,-10491
99,110,-121,4910,2134,-4884
-52,-70,-13,5536,672,867
18,-77,125,3227,-613,4504
-124,-56,65,2947,667,6458
27,-112,-14,334,1592,5676
86,87,-52,-546,-523,5469
61,-122,41,-972,-820,-3059
-110,-53,-104,3946,-913,-6012
52,46,-62,95,-256,-5212
7,-93,55,-1583,-926,-2799
76,-90,67,-93,58,-114
73,-103,19,-1399,-2383,4297
64,-35,117,3460,612,9895
92,-37,55,-216,1505,11414
-79,74,-80,392,2463,9721
-19,75,-11,68,234,8732
-72,-10,-22,-1788,-2375,6298
93,-58,-111,443,-204,3163
-80,114,93,4757,-1207,5460
51,71,15,892,1454,3090
-79,112,-41,-334,353,-3099
12,-66,-48,578,427,-3826
80,117,-48,-12,440,-1845
21,38,-42,497,-521,-778
24,27,-55,562,-433,-336
70,88,-54,-414,-367,-306
84,99,-61,-508,-418,-580
88,85,-63,-174,-343,-679
-119,-85,-126,3650,5913,-6636
-42,84,-103,6423,4129,-6579
113,96,-107,-4262,2581,-7938
35,113,30,-2523,3048,-6660
41,94,120,-1551,1385,-3105
42,69,-6,-980,-1149,1405
122,-15,-13,803,-1705,6443
-118,-40,-30,-979,-649,9092
-82,-13,101,9541,-1061,13732
-34,104,-86,-7577,-2278,-9523
2,-78,-23,2836,481,-5146
-77,-102,55,-999,-266,-3020
-56,-81,42,1398,4252,2225
-121,114,-37,-2410,-3905,11479
-45,-96,-61,200,5334,4450
-94,34,-118,3115,-128,-7045
59,-27,-56,4562,540,-8076
100,-96,120,1485,-3029,-9955
83,-68,52,943,-2134,-10687
93,-31,95,4166,-808,-9390
-99,51,-110,3891,933,-3949
87,-3,-121,4475,187,1185
-116,-94,30,3084,-628,5225
19,-43,104,1876,816,5082
-41,-96,-119,-2152,-2635,6847
54,85,-17,-4094,-857,3909
52,-25,35,2496,1534,-4161
47,-8,17,4547,-221,-4847
104,-48,-47,1104,223,-4330
-67,117,120,-737,-25,-3015
-73,16,123,-741,-8,-441
66,-89,65,-1458,-1161,3204
119,11,125,655,-217,7701
-12,-39,-25,2947,3068,10844
-36,-38,14,-1438,2704,9789
-45,6,127,94,2017,4645
33,67,50,-3103,-2693,5026
-22,-128,-43,-1940,-2983,4651
25,-84,1,3751,-3122,5851
-45,7,57,1762,759,5874
70,65,-25,-1642,1781,1441
121,87,-2,1532,146,-4632
88,60,-37,3648,1174,-2750
61,92,-34,1732,1271,-916
-37,41,-28,158,11,-520
-9,28,-44,-431,-558,-130
52,56,-44,-903,-625,-131
99,67,-53,-667,-326,-283
-126,48,-74,378,-173,-506
110,54,-54,611,-222,-551
-117,90,78,2935,1467,-3676
89,-79,-52,1818,2943,-5587
63,127,60,1724,2771,-8621
-39,18,-52,-3283,1208,-8251
-127,94,101,-1778,1763,-7986
66,96,101,-1290,3052,-5347
109,-117,-125,-1556,1971,-1486
-30,66,-119,-536,-5590,15707
-72,-52,-15,-1435,3376,9248
-59,58,-58,-3442,2457,4761
-27,-78,-72,6391,-2003,-6690
-44,81,96,-1,-340,-6477
36,-121,-62,-1159,-1912,-4281
72,22,-56,-43,1210,-388
-122,-126,107,782,-1754,9719
10,-121,68,-1729,-4945,10704
72,75,78,-3096,3354,3599
-22,-119,-96,9086,2752,-8001
-82,67,-64,1945,-1537,-10455
-58,-2,28,2815,-3707,-11373
-5,-30,49,3553,289,-10597
-47,127,122,3384,2286,-6763
36,1,48,4332,1526,-138
-116,19,-109,2395,-548,3280
65,57,80,3047,-1008,6932
75,82,31,-224,-1023,5668
-32,53,-48,-2880,-1490,5516
49,74,90,-3859,287,-2634
82,-8,36,9001,1600,-4907
-118,37,-48,-1202,-2019,-5171
51,29,118,-1504,-255,-2341
1,-12,-68,-432,346,-475
-12,-9,-49,-1491,1494,2337
-10,113,-40,510,-1210,9198
-47,-46,71,1851,912,11673
-94,17,-6,-2171,1549,9012
-122,-34,62,-1264,-1511,8792
-46,-80,10,570,1956,2623
-12,55,-36,2802,-426,4872
-106,-118,106,597,-1235,6484
-71,27,-102,-3114,-2503,5431
85,51,1,-3280,-269,1497
-49,48,-56,1808,1030,-2695
30,121,-92,3590,1515,-3913
36,-92,-44,1573,233,-1751
-23,110,-36,-506,-530,-918
25,92,-54,-1309,-366,-830
72,82,-73,-834,-442,-637
104,93,-70,-221,-196,-520
85,91,-67,369,-184,-645
-62,-109,49,2984,3873,-4671
-8,124,-94,525,5840,-6946
126,69,37,794,7182,-7132
-115,113,91,2213,5727,-7821
55,57,-17,962,3106,-7627
38,-83,14,-2124,-61,-5630
-90,-22,48,320,667,-142
-114,106,20,2775,-1744,7866
24,-50,92,-992,61,9157
-1,-113,72,-2238,437,8614
-48,-72,87,-1977,425,-2501
117,-105,44,4249,386,-5845
39,2,125,-915,-24,-5766
15,65,71,-1430,547,-1889
-100,115,-42,-524,-532,6319
-15,34,25,-2250,-3089,9568
-106,-97,55,2166,1280,8585
6,121,125,-2493,-607,-6133
-106,68,-24,6930,399,-8715
-101,-110,66,2215,-2336,-11105
-52,-79,42,2945,-1618,-11868
4,9,115,3127,949,-9468
124,30,-56,5311,2206,-2787
-107,-71,-106,3600,401,2171
-50,63,-44,3972,-570,7001
-77,-89,123,822,-533,6187
34,-66,-101,-453,-1913,6959
-4,62,98,-3327,354,-429
58,46,-81,3986,1683,-4850
120,-15,-38,-1336,-316,-6204
-25,21,96,-1621,253,-2976
75,64,122,-1227,801,-841
49,-103,104,537,-278,1375
7,81,92,-228,-3134,6969
-26,-128,42,3045,-2816,12697
12,-12,99,838,545,11373
-93,-19,-2,-1323,645,6207
29,68,-51,-2178,-3404,6636
-28,58,117,-1808,-1677,2908
121,-2,68,3602,-1485,2922
-14,-101,116,2350,-591,4397
116,28,18,-701,244,999
-34,87,-25,582,36,-2259
26,-75,-48,1611,742,-2439
25,-99,-44,1045,401,-1367
5,-108,-36,77,-160,-565
28,-120,-42,-564,-325,-455
72,126,-56,-202,85,-636
101,94,-72,582,101,-744
89,93,-70,533,-31,-524
-51,109,-105,1625,2832,-5030
-89,-122,-89,-239,3478,-6609
-82,-103,123,-1546,4122,-7948
-121,-97,53,-661,3196,-7172
-8,-124,-17,295,2616,-6609
-51,-126,-37,-476,2322,-3859
-122,7,-73,-825,-125,-649
-101,27,-40,158,-2867,6490
67,-36,87,-71,-1013,7917
-79,127,-34,-798,1089,8317
-28,-79,-114,-838,4683,-1147
91,-17,-44,2007,-2627,-6829
-71,-117,53,589,-484,-5646
33,38,-122,597,-399,-1925
-12,-10,-67,956,-63,5476
88,75,-4,-676,-3915,12220
112,-81,62,-1468,821,7982
-42,-46,55,-6142,-653,-2232
-11,81,-31,9337,568,-7517
54,63,-62,1057,203,-9466
-128,-22,-83,1586,-1526,-11596
-115,35,-105,3798,114,-9711
-4,-24,64,2606,2012,-5201
-47,11,-50,4288,445,-80
-70,56,0,3119,-285,3920
48,21,-66,2767,-508,9175
100,-100,55,155,-2189,7259
45,87,-79,-3502,-595,3424
-9,111,30,4849,1460,-6166
-95,78,43,1182,-1659,-5727
102,-22,-88,-2602,-1109,-4221
-124,-54,-13,-937,430,-2226
93,-46,79,-601,1181,521
-9,53,80,-2634,318,4481
-74,-24,73,27,-278,11828
-20,25,-114,774,2242,12104
-68,106,-48,-2536,1025,9352
14,-72,17,-3396,-1933,5174
80,82,-23,-2745,-1976,3039
-73,-42,102,1919,-3491,6478
125,-79,17,3094,-68,2931
-88,-6,105,1730,-589,1917
-119,-109,-27,-1445,1244,1288
2,3,-54,-374,4,-1545
17,-113,-58,939,-255,-1966
43,-127,-45,360,-124,-1186
25,127,-40,-564,-257,-884
58,104,-55,-552,-155,-736
86,102,-66,-204,50,-793
120,94,-74,226,175,-751
110,-84,52,2753,2254,-5104
-104,-102,-75,4419,4816,-7802
67,78,-36,-763,2984,-8208
-6,-68,121,-1339,318,-8539
-128,-23,-59,-1356,522,-8007
81,25,86,-445,41,-4627
52,-65,-34,287,-470,1716
-108,66,34,2065,-1456,9633
-124,90,91,1089,337,10017
-123,-102,94,-386,2031,9607
96,-101,-115,-5414,-1411,-3325
-70,-113,-11,3387,305,-6883
17,-68,63,-1499,957,-6085
44,48,99,-337,2090,-1499
-126,76,-25,569,-2130,9476
-72,-34,-59,-2361,-2699,7716
104,106,-95,792,246,-4307
37,-105,-97,5041,-1518,-10557
-83,-31,-55,131,-2951,-11867
119,80,-57,1181,-348,-10539
-98,89,-95,3713,1827,-5466
61,49,30,3290,142,-1275
-76,103,-77,2045,-984,3257
65,-117,107,2421,440,6448
115,-51,-34,665,860,6778
-46,-91,-54,-2543,-3193,5991
38,-90,-58,2181,1744,-5041
-121,61,77,2939,-1040,-5796
-47,-77,20,592,-170,-4173
-87,98,-75,-311,161,-3374
39,77,-11,-2160,-567,-1223
5,55,4,-1878,621,810
11,51,-25,-182,-1083,7473
103,106,-104,1155,2019,12231
101,94,-24,-153,2356,10245
-101,-22,33,-1439,537,6727
28,-56,125,-5324,-3840,7202
56,-31,32,95,-4194,4938
-110,-90,74,2740,-776,3079
16,-4,116,3285,483,3039
-65,115,38,874,1114,1738
38,59,-9,93,462,-755
12,-62,-28,577,101,-1704
23,113,-11,-81,-249,-648
-24,44,-28,299,-675,-23
9,87,-18,-159,-512,549
36,109,-47,-286,-399,-8
75,-101,-22,-1062,-353,170
63,-123,-37,-754,266,-401
76,-121,-59,-110,414,-310
31,-121,-73,3400,2500,-2999
-11,-64,86,3650,3236,-6969
-113,19,109,1185,2964,-7373
107,46,77,2511,1893,-6909
-17,-106,41,-1777,218,-7437
13,-39,22,-3449,1449,-7779
-34,122,49,-65,969,-4645
-51,-110,-46,929,-203,698
-107,-30,8,-876,-25,6250
56,-59,11,-569,161,8816
-24,-30,99,-4409,-555,7819
80,-87,99,-42,1741,-533
67,117,113,2042,-1547,-5073
-73,-105,-92,-1598,-822,-6290
-104,-97,-107,92,1406,-1181
41,-12,-124,537,-66,7498
96,4,54,-2946,-778,7429
-99,12,53,-1213,738,-3174
115,-86,-9,6094,-10,-7521
7,-43,45,2949,-2048,-9656
118,-71,7,1430,-1275,-10889
27,-88,-25,3271,2014,-8377
-125,-90,-62,4497,2515,-2613
-68,-92,-46,4545,237,3001
102,-70,96,2085,-1513,4230
-36,18,99,1283,-64,6502
98,41,30,-2063,-1136,4895
-35,73,80,-2623,-1830,-690
78,83,-57,5825,1391,-5500
-61,55,38,-1722,-753,-5451
-1,32,112,-621,85,-2617
67,56,-84,-524,436,-614
30,-89,5,-469,567,1614
58,101,-61,853,-422,7537
-71,123,-45,1814,132,12043
126,24,116,-2103,2532,8026
-105,-62,13,2184,333,7916
-70,-73,3,-2080,2409,4853
-89,-80,-3,2300,225,4108
66,51,-46,3428,1791,4464
55,-8,-91,1191,-425,2205
91,53,28,-5198,715,1672
13,54,-56,-5531,-1293,1696
-18,-54,-104,-1536,-1236,127
24,120,-54,2408,271,-924
20,-117,-25,2096,543,-983
22,-77,-7,232,27,-548
38,-100,-25,-653,-146,-419
50,123,-31,-273,-251,-333
68,-128,-32,-40,-50,-282
26,123,104,3630,8312,-6097
-44,24,-22,5676,4028,-6539
1,86,-72,-230,463,-7848
-13,102,13,-408,-336,-7434
51,118,-125,-992,-95,-5096
56,-112,15,-266,-67,-501
-92,-23,100,495,-578,6370
-18,97,-47,714,794,9472
-56,-27,-39,-459,3066,8930
113,123,-59,-2711,-2532,-5581
127,124,-30,3253,-1012,-6144
109,78,-99,-1044,67,-6392
65,-127,121,-590,706,-2642
64,-76,119,1092,710,3047
49,-36,-77,-342,-3209,9628
2,-44,47,-1857,184,7515
9,-128,30,-6439,96,-1884
-5,-65,-33,9443,484,-7626
119,-72,112,1492,-584,-11255
54,-97,43,1578,-2061,-11428
80,50,-52,2625,1851,-6989
-92,-125,14,3324,645,-3225
0,72,-43,2442,-789,609
123,-100,2,2785,-495,3066
-52,93,-66,2455,-1431,7469
96,-119,-96,-905,-3096,6655
-103,101,62,-2256,-2391,2428
-58,-1,55,2795,4316,-4882
78,94,75,3295,2153,-5592
-57,1,-92,-112,161,-3589
-7,-60,-47,-1851,-586,-2211
50,-35,31,-350,436,94
-22,-45,-13,-724,-223,4318
-112,-34,68,2151,-1162,12004
91,49,-113,2140,1986,11083
-128,28,-18,-2304,-1677,9497
-56,-93,-29,-4129,-1634,4285
-107,65,-106,-122,-1915,5888
-86,4,64,5588,-1141,6006
-65,-66,76,3838,-213,5885
-8,-93,40,-2261,-86,2269
53,61,91,-1423,-2619,-4227
35,106,82,1812,697,-3155
39,37,45,1329,2156,-1550
-59,64,36,283,275,-441
-27,98,0,-687,-219,351
27,117,-68,-909,-84,160
39,-126,-77,-443,-197,-90
54,-122,-86,-54,-150,-410
52,-126,-74,116,-138,-420
13,103,22,1767,2208,-4777
108,18,-37,511,1072,-5945
-114,91,44,-828,2056,-8422
110,30,-67,-302,3174,-8824
-95,-121,-50,-731,2398,-8474
48,113,-85,528,810,-4134
21,40,57,593,375,-173
49,-101,86,900,-1096,6663
83,61,36,2007,-2262,12376
72,-59,119,-3886,456,8820
21,-125,29,-464,3197,1653
-108,-108,64,2889,-3097,-6764
-109,29,127,-849,-1932,-8774
-4,122,77,-777,-1011,-5197
-45,32,63,2133,2450,6314
-58,-119,-91,-1381,-4376,10237
-1,46,-50,-1493,522,6883
-40,-124,42,-84,-3351,-8445
-44,-90,-40,3522,-264,-10852
-70,-33,-19,1455,377,-11802
23,-62,-35,220,3260,-10442
-55,119,-47,3401,2665,-4342
-32,-25,90,3119,579,2096
19,-110,-3,3020,-1594,7934
88,-94,-60,1650,658,6819
-2,111,116,-2153,-545,7080
120,61,69,-5281,-1864,215
54,-88,-101,8177,1050,-5555
-118,88,36,61,-189,-6300
-91,-58,-61,-902,-1564,-3936
86,92,25,-1670,-97,-1639
55,-123,102,-85,695,1276
5,-101,41,112,97,5273
39,18,-112,894,803,12604
106,12,31,-823,2504,10811
-116,36,78,-3058,705,7087
102,-19,1,-2637,-1198,6299
-10,64,-3,2131,414,3179
-58,-72,55,3561,488,4436
45,109,66,116,-117,5619
-123,-64,29,-2209,-1403,2450
-17,53,8,-1347,-1165,-1949
46,74,-16,1673,934,-2485
48,49,-9,2192,1049,-1652
10,73,-7,692,254,-488
34,-127,-8,-1530,-469,245
78,-127,-47,-1271,-457,-135
105,114,-69,-295,-141,-608
107,106,-68,326,-30,-909
106,116,-60,-44,-121,-774
32,-52,-22,2680,3323,-4583
110,-16,22,1188,4609,-6975
68,71,122,115,3476,-10050
82,100,-15,-2758,1694,-9751
-56,-124,-108,-2686,3026,-6602
112,-46,-90,-420,165,-2646
121,-86,94,1566,-2807,7513
29,-14,98,3483,-173,11316
-120,-36,3,-983,1612,9855
-122,77,51,344,1823,6775
-102,45,121,2062,-2163,-5932
121,46,24,-258,-170,-7048
33,-69,34,-2381,-451,-4689
18,39,27,3064,3370,5563
-97,41,-51,-1898,-4369,10520
70,-63,70,-2069,6058,4120
12,121,98,5402,399,-9443
-76,-116,122,3074,-3083,-11272
-77,-14,49,310,-4284,-12359
54,65,11,5836,1229,-9285
-122,-87,-127,5250,468,-3345
-18,-87,-92,5013,-145,2083
-101,-115,-28,2487,-152,4308
-54,118,-57,1502,2164,4449
-45,106,85,-802,133,5512
-77,51,-90,-2495,-1502,2927
120,38,-111,3470,-1797,-5266
49,30,122,2744,215,-5229
-76,27,49,1710,-124,-3471
-56,-118,84,-1552,-412,-2342
101,-127,78,-1394,707,-155
36,21,-38,-491,-63,5583
-8,62,100,3141,2259,11677
43,-92,29,269,3322,10766
78,26,-98,2026,2555,9243
-125,-103,-72,-6310,2135,7105
111,94,2,3879,-2034,4261
-71,-102,-63,-700,-701,3842
28,0,26,-3030,1407,4641
66,122,-65,677,-150,817
-15,-27,-40,1820,-532,-3194
40,-84,-23,757,-63,-3072
44,123,-28,-152,107,-1477
12,73,-30,-107,-244,-753
17,68,-30,-291,-292,-491
46,86,-37,-422,-139,-285
68,98,-47,-173,-121,-83
69,112,-55,-42,-164,35
75,-111,-60,80,-121,275
72,-107,-63,374,154,-189
118,-14,44,1956,2048,-5425
53,26,122,2078,4600,-7201
-3,63,-47,2307,3820,-5963
80,-83,-47,-1491,1120,-6735
-120,16,62,-1047,331,-6011
-98,101,-76,-1134,271,-4216
119,86,117,-1117,216,-755
53,5,46,2052,860,5693
77,18,-94,863,1423,9060
23,98,41,-1761,1276,8658
84,76,-105,-853,1682,957
60,72,-3,1193,-1895,-6583
-97,-90,7,-497,294,-4140
-112,108,-128,1033,2838,3043
22,-74,74,-4144,-2790,8443
-44,116,92,-90,1526,6570
92,-3,11,3042,-2878,-7961
-82,49,33,2451,-1153,-8973
102,-91,-112,1906,-3453,-10137
122,-66,-89,2939,-1644,-10558
14,15,-42,153,-181,-8084
-1,-57,115,4446,1451,-2008
-78,-33,-32,1759,-795,4543
8,-109,24,1767,-3,6169
-21,-31,-21,-1567,-175,6576
-108,-47,126,-559,-296,4778
125,-48,51,4483,758,-4590
-111,-44,-50,1766,-1974,-5460
-69,14,-87,-218,-1976,-4468
-44,2,125,-2015,-632,-2794
70,47,-43,-330,358,-554
5,-45,18,464,575,2363
35,62,-110,523,-615,9801
88,-126,22,973,3093,10887
-15,49,-78,-1527,2568,8406
-123,-94,42,-3135,-1788,6631
-98,-73,1,-4332,-2515,6525
20,16,85,786,-3449,4509
-22,19,118,6326,-2696,5694
33,-56,-102,-517,1782,1103
-123,18,23,-1313,1951,473
-46,59,69,1188,-892,-2103
59,-38,36,-235,-175,-2183
81,-124,-13,-726,420,-1254
30,82,-33,-292,-69,-782
63,111,-59,-405,65,-376
92,110,-75,165,58,-691
95,91,-79,458,-127,-837
100,91,-36,56,-435,-173
120,111,-26,-151,-300,193
111,89,50,798,3122,-6478
-55,-84,3,1551,3117,-7163
-50,-34,-103,-175,1720,-7809
-103,-25,-115,-2189,-1231,-7239
-40,120,25,-912,-706,-3818
97,-117,-15,-1642,-356,-787
-44,-57,26,-1055,-1932,4375
88,-109,71,2099,-971,7683
55,51,-50,-832,1113,7857
-33,46,-84,1853,4762,7048
10,-51,54,-2426,-4672,-7380
90,63,41,-921,1643,-4873
28,-92,-27,2246,1387,-2307
46,88,70,130,151,2296
-2,66,46,730,-4622,10148
74,-37,-84,-831,601,7511
63,-87,110,-3209,-12,-1332
-89,105,15,5468,1692,-6856
-86,96,-92,648,-359,-10235
6,-11,-49,1872,-643,-11007
-126,-107,-117,1489,417,-9010
-120,-62,-33,3264,1359,-3587
90,88,-99,2873,-2066,2173
122,78,5,2984,-1791,5501
-94,-4,-72,788,-62,5425
85,-107,63,1070,502,6371
44,-75,100,-1628,130,-1083
47,-63,75,4442,-1017,-5819
-127,-81,-113,-1011,-1486,-5370
45,-71,-125,-1314,-1094,-3291
75,64,-58,-1279,-518,-557
-6,-32,-44,1456,1081,3083
-17,89,10,2167,-171,8863
-99,-60,-84,2804,2089,12244
-111,-29,-109,850,2350,8271
-68,-58,-109,-2979,-2355,7375
55,29,61,-2162,-1358,6025
49,105,59,2614,-298,5056
-125,52,6,4265,412,5603
25,-71,122,-1848,-775,4217
-77,-26,-6,-3034,-1026,-2853
72,119,-68,687,1362,-4374
86,75,-47,2412,1169,-2396
-63,89,-5,1289,-310,-720
-56,90,-22,-662,-266,-333
7,102,-48,-1248,-72,-56
60,126,-71,-799,-229,77
89,-126,-81,17,16,-289
119,-126,-78,353,40,-494
117,-103,-55,-365,-305,-117
43,-101,-26,4824,4483,-7083
-105,108,39,1471,3477,-7087
-119,12,-109,-2412,1802,-7687
-66,72,-28,-2490,2292,-8391
-84,64,105,-894,3071,-7299
-34,57,-98,-966,1111,-3545
-27,10,121,-365,716,1643
14,-1,-116,1916,-1526,9155
-43,97,-32,504,37,8690
115,64,-122,3706,4187,8846
-8,-127,78,-2321,-5687,-7643
-126,-56,99,165,-611,-7683
-15,51,90,-221,49,-5231
-113,109,120,1654,1915,-762
56,108,-107,264,-1389,9621
110,-108,-15,-818,-1764,9534
51,-50,-50,-1247,4570,3434
16,-94,87,3934,-5155,-8377
114,80,39,4903,-466,-9782
-105,30,-50,1831,-3924,-9549
-37,-122,-94,1153,-2415,-8851
-59,119,-50,1000,-486,-3040
58,64,34,924,-164,1986
-120,74,-72,1698,-1329,7800
-17,87,13,-2807,781,4924
-112,83,-52,2705,1203,7181
-99,97,-89,-461,364,-6126
35,9,-104,3504,-2230,-5718
82,49,-86,-2411,-1824,-4732
-19,-61,63,-962,-898,-1735
-37,32,-56,1476,630,1062
123,102,-89,103,585,4199
40,-125,-115,778,1262,9487
26,43,115,1597,2384,10711
-50,-106,-51,-2001,1765,9550
-112,74,17,-3506,-3146,7890
61,96,5,-2089,-3396,7024
-120,-7,92,3612,-2420,4243
97,-33,65,3226,825,5315
21,78,-27,-815,817,-639
127,-85,28,951,-1579,-5720
94,93,-5,1457,915,-2877
42,33,0,264,798,-917
-9,29,-11,-290,-310,-105
61,60,-34,-550,-162,-43
126,76,-77,-370,221,-427
117,56,-83,308,-8,-863
121,68,-79,14,-105,-576
-127,64,-78,-92,26,-274
-119,48,-85,556,392,-26
83,23,-72,2994,1338,-8367
-116,64,-73,-576,2253,-9064
-91,120,-127,-2344,5589,-8234
76,-10,-82,645,1739,-6816
-83,-30,10,266,613,-3195
-5,88,-86,1214,-831,2471
-66,-11,-25,-26,-1122,7301
-15,-75,57,-1687,1187,6709
-124,-114,-6,-3667,372,7017
20,-39,-95,-2358,-103,545
71,-126,-71,5693,128,-4486
-85,43,37,2056,-888,-6178
-46,81,-71,-734,-2281,-5476
-83,97,31,541,975,657
124,52,-57,165,106,7019
2,-33,26,-3474,-1756,6662
9,-77,20,1804,1429,6602
-49,13,114,2016,-1150,-7908
108,122,119,3124,411,-8210
-87,-74,-5,3337,-1037,-9075
-3,23,-35,2256,23,-9002
-60,47,-24,1445,420,-7124
68,61,113,1980,278,-1902
-23,-18,-97,767,-656,3253
51,-33,-59,1545,-501,7471
-110,94,77,-1030,-488,6283
45,-58,19,2096,-1322,8728
-42,65,39,-8068,-1181,294
-63,-122,-12,4094,320,-5329
81,-2,68,92,1027,-5672
-101,-105,-9,83,852,-3778
-67,17,117,-832,1078,-2548
70,84,-96,199,1031,41
39,-93,42,229,970,3431
85,115,108,-1310,-537,8962
103,99,-37,-358,2484,12677
113,123,-126,-3574,1768,5066
-13,-20,-64,-1620,-1204,3901
50,77,20,-2408,-3001,1365
114,93,112,-2395,-2461,427
-115,64,69,-1751,-2467,898
-75,44,92,-2689,-3303,1047
-22,125,-127,-3142,-3512,1954
49,-116,87,-980,-2435,2669
117,116,46,1542,-5,1138
109,123,14,1281,553,-603
3,44,-39,915,-928,-1070
-18,9,-30,-755,-1343,-358
-89,-24,-56,-1384,-1474,388
-125,26,-11,-1633,-1771,841
83,43,120,2711,2848,-2924
-73,-42,72,5138,3866,-5125
-51,-89,-104,2893,2758,-6768
82,102,85,3467,3155,-6656
-24,-75,-51,2242,975,-7059
-24,-70,21,96,-974,-6627
-81,-83,-101,54,-1042,-4730
-128,-59,-95,-96,-356,-2449
50,73,-40,1784,966,3471
-119,12,-101,-1607,1535,6998
111,10,-26,-4013,192,7657
-91,-86,-93,-1877,2721,7330
91,-40,-51,-1785,-4922,-3677
115,117,-90,6407,1550,-4223
-125,-60,14,621,636,-4401
-52,-108,-3,-165,-244,-1450
-57,-39,-54,-36,813,6560
88,66,64,-2914,-1442,7501
42,-4,44,-3358,587,6313
-59,19,22,4656,-1365,-6906
125,32,2,6228,1457,-7601
50,51,-81,7565,-4158,-8035
37,4,-109,3835,-4339,-9401
75,-44,85,3127,-927,-6129
6,-58,119,3536,372,-432
-71,95,-57,1532,149,4008
36,-62,6,183,355,6420
55,31,7,-1145,128,7303
-37,-34,-1,-6042,-2795,234
61,81,50,10791,1536,-4972
50,45,23,-1245,-2895,-5724
-34,124,-104,-1417,-2693,-3171
33,38,24,-1266,-919,-1106
79,61,102,1283,894,1949
11,28,-67,-807,765,5698
-114,-21,-60,-5,1946,10119
117,40,-11,-2300,1693,9172
96,24,9,-5377,-863,7179
10,80,12,-2870,-3147,5462
40,-22,82,4100,-2566,7232
-17,94,79,8697,-2471,7603
30,61,-43,604,1433,4066
122,104,-72,-3708,-1045,-1725
-12,-53,-66,-1185,1066,-3048
102,-9,-118,2554,2048,-2463
-62,46,-42,2707,311,-534
-53,81,-13,466,-31,-475
56,112,-35,-1840,-32,-674
-88,67,-88,-572,23,-716
-110,26,-92,986,-190,-1319
-126,-4,100,6203,4049,-12861
17,-95,-74,3278,956,-9092
4,114,-36,-4176,-1243,-9346
-21,8,-127,-4730,-1581,-6113
-54,-7,-84,506,206,-1033
-3,-51,104,1207,-3417,7895
87,88,82,1559,2412,7505
-89,-111,-73,853,2204,8631
38,-49,-65,4748,5352,-903
-103,84,75,-537,-3105,-9428
28,108,20,-2656,-1931,-6413
43,-94,-99,-1762,-620,-2407
55,23,77,2411,-76,4144
-91,-97,95,845,-1183,7673
-126,18,-81,80,-1688,8967
35,-85,-90,3124,2996,4839
5,-55,-5,-1770,-1547,-6216
-72,4,-44,3748,-1949,-8813
-14,85,-101,3868,-3801,-9504
84,97,-5,-3489,-4280,-10409
-4,98,23,2174,-1645,-7544
-110,-106,-89,2213,-369,-3843
-123,95,39,2225,-769,849
-34,107,-96,1789,858,3552
4,36,104,250,91,7727
15,-69,98,-918,-1167,9228
99,-60,-18,-3449,-564,-292
67,46,18,7349,501,-7009
-80,114,-114,396,-317,-4679
-53,79,57,-2604,-890,-2081
-50,87,-115,-166,575,-183
-122,-74,99,-1273,700,2733
-54,-117,-84,-218,526,8650
40,-41,121,3690,3273,11727
-52,40,-26,-1238,4873,8853
-18,-89,48,-1019,580,4307
-116,82,-94,-2123,-2034,4308
44,-58,16,-2253,-67,3198
116,-98,10,1819,-472,4322
-11,-52,77,2442,-719,4040
-119,113,119,-1131,-126,1774
15,-90,-14,-27,535,-1650
59,56,-17,1956,634,-1748
69,55,-6,1193,375,-1268
88,101,22,-1050,-330,-809
95,65,-24,-1133,-308,-1131
-113,31,-51,-517,-120,-1061
-104,16,-69,373,164,-933
-102,21,-78,519,95,-731
-95,52,-66,4,-269,-241
-127,-118,-54,3561,2592,-2903
-86,7,113,1570,4188,-5546
-108,-55,-120,1958,2928,-6653
-102,53,30,-458,763,-6929
-6,69,106,-734,51,-6905
3,20,47,-1426,157,-5054
27,54,-56,678,1194,-1333
121,53,40,-375,1009,4131
-16,-79,83,-1020,376,8853
69,35,-115,-2294,1028,9085
-57,5,4,-417,3613,7826
-10,81,-30,4491,-2836,-6538
-47,76,-38,1093,-2120,-8066
-100,86,23,-1078,-1483,-4848
115,-112,-97,-434,1570,3651
115,-52,53,-311,-1375,9495
-47,-80,81,-2619,-112,7794
23,80,-124,-2895,1085,-186
54,73,-55,7721,-884,-7179
106,-123,-55,2828,-2348,-9946
79,10,35,1108,-3540,-10304
27,122,-106,3772,-1860,-7922
-50,4,-10,2428,197,-3263
68,-112,46,2888,196,2122
-102,55,-75,2588,52,6949
-97,93,-15,-1287,139,6309
0,84,46,-1256,332,5883
44,36,13,227,2942,-4639
30,106,-14,6975,-672,-5212
-110,-118,-112,-2764,-2079,-5621
96,16,27,-1430,-813,-2095
58,15,-84,160,39,779
-7,41,-84,-1047,1112,5132
-54,52,-122,710,1635,11287
-69,1,-44,-446,1813,11644
-5,-44,40,-3036,88,10216
8,-13,-29,-6127,-2254,7574
64,15,-41,2429,-3656,5447
-115,-15,85,8503,-349,3489
-127,38,50,1813,2778,3326
-20,-64,-77,-1932,1190,-1202
-51,-113,-21,1014,-1738,-3232
46,83,-3,876,-890,-1807
38,71,13,-389,-41,-1142
47,17,-22,-197,316,-1386
-124,-1,-36,174,-233,-1219
-114,13,-36,-218,-406,-1039
-102,16,-40,-537,-344,-835
-111,7,-57,-463,-326,-327
111,34,-44,-391,-482,259
91,17,70,4357,4852,-8029
-67,78,20,-163,3705,-8692
21,20,-25,-756,2487,-8232
11,87,122,-600,2121,-7750
-104,87,-22,-1235,1395,-5853
121,-48,-13,1188,116,-533
86,77,18,1230,-1115,7710
8,82,103,2113,794,9555
10,63,-109,-3896,484,8392
54,121,-82,3265,4257,1792
76,121,113,814,-3207,-8128
32,75,-8,-708,-1056,-5697
104,59,31,-1027,-1394,-2490
-9,61,63,1524,974,2951
94,27,-91,-205,-1173,8268
49,-80,5,-1829,551,7456
43,-93,-102,-2396,-269,-3587
-121,-81,-23,7469,244,-8613
-84,-99,80,2762,-3384,-10774
-12,-7,-76,1327,-3950,-10768
-87,16,7,2212,60,-8790
-20,-61,22,4908,1373,-2363
57,78,60,3141,304,3654
-45,-86,-95,3074,884,7927
122,-61,33,-4456,878,4583
-30,96,-63,630,-812,7504
-106,-16,64,-1980,339,-3105
68,17,94,4202,-2097,-6838
126,58,-117,-1816,-1020,-6107
38,-75,123,-814,366,-2678
27,-67,-39,547,865,-399
-47,-105,33,-1117,833,2442
-65,98,56,487,349,11152
-23,114,65,1088,1584,12181
-73,-29,-123,-1314,764,9834
-91,-105,-18,-717,145,7093
-101,50,-6,-303,-155,3557
-35,27,123,-1119,-1353,4302
-101,118,75,191,-2361,5276
-3,-94,75,388,-1393,3889
119,-79,-22,318,593,233
-7,0,-56,916,924,-3695
56,-104,-58,1729,613,-3011
51,105,-36,873,39,-1615
42,81,-31,-321,-392,-966
84,38,-62,-294,-195,-672
102,37,-65,94,-172,-372
95,54,-71,17,-126,-126
87,81,-83,-354,-238,238
92,98,-104,-68,-330,560
-19,27,60,5466,6154,-5714
124,7,-94,5790,6952,-8751
85,32,-43,-1538,1300,-6821
-31,65,-115,-2598,1221,-5487
43,-19,-34,162,788,-3410
28,27,-97,-416,296,-169
75,-13,123,752,160,4757
-64,-125,13,428,-547,9167
70,0,-6,-2560,8,7883
5,-121,61,517,2597,-124
-109,81,11,3684,-1687,-7026
-61,126,-73,-1274,-649,-5991
-108,37,-122,-1716,-476,-2591
-89,-87,-106,941,1902,4628
-121,85,-21,383,-2978,10530
7,-22,86,-1757,2452,6479
96,-107,-121,-2074,-1638,-5978
103,89,109,5076,-28,-8005
86,-99,0,1673,-1517,-9701
-75,-100,-107,603,-1216,-9707
-61,-68,52,2177,37,-6998
-91,82,20,2311,654,-3087
-52,-64,32,1856,-770,1960
3,-52,105,2692,-1158,5517
81,116,14,311,-1443,6560
8,40,54,-55,196,5514
126,-71,60,-4766,-1084,-2076
-43,110,-87,7417,109,-5712
-20,-114,21,-1221,-107,-5212
-105,41,-127,-1633,-878,-2321
-23,-111,-13,-496,836,-278
-102,-53,-119,57,841,2021
-69,-112,108,763,1020,6216
69,115,-83,17,1122,9291
37,23,11,-1700,606,8609
-120,117,100,-1338,-229,6222
33,75,-83,-4009,-1978,5200
-24,-40,46,1035,-784,3344
-89,-33,-113,3628,-2449,6161
87,89,-113,1427,-831,5639
-44,-24,69,-2260,-236,2864
-12,60,5,-518,-498,-1511
9,-120,6,1634,309,-2776
31,82,-4,1777,934,-1994
0,108,21,218,166,-601
39,119,-13,-950,-266,-269
86,108,-34,-702,-289,-541
110,107,-40,-289,-153,-757
114,91,-56,130,39,-1009
112,90,-65,-39,-6,-845
10,16,20,3168,3733,-5226
-93,126,121,-653,5488,-6709
43,69,125,3496,3515,-6177
-115,-114,-95,1478,1148,-7022
-38,54,7,-1798,-302,-7168
69,14,-109,-62,2069,-4163
-54,92,-41,831,169,567
-14,76,43,651,-710,7386
69,86,103,-2183,2812,6953
10,59,51,-8572,-5277,6421
-84,-12,-31,5683,5059,4261
66,-96,-105,2155,-276,-7718
-34,-113,-53,-57,-2187,-7102
-95,109,-99,-504,-970,-3730
76,-70,-41,1872,2473,5970
-78,29,-36,1541,-1581,11880
37,-65,-118,-5624,-2679,11244
-112,77,30,-2414,2057,-874
-50,79,-118,9130,373,-7690
72,38,-104,-225,-1608,-9264
112,-102,-25,181,-2114,-10255
-91,38,-115,2582,-139,-10170
-12,23,124,754,405,-8303
6,-28,70,2832,1222,-3451
78,-71,98,3497,888,3069
103,50,-100,3768,465,5986
5,-17,88,-2,-1289,7411
-99,-89,29,-1824,176,5527
126,14,34,-4315,-1843,1164
-104,126,-10,9415,1995,-6141
118,76,18,-1199,-1188,-5255
-23,-122,-96,-1099,-1536,-3708
-10,-34,73,-1505,-500,-1710
14,47,-50,-627,162,748
-11,-84,28,1480,1089,4145
111,59,-77,445,408,10571
69,58,-70,948,1872,11290
116,5,2,-953,1715,7006
111,-125,125,-3134,-1376,7393
-107,-43,37,-3285,-1615,4944
-116,-106,32,2314,-1949,4262
-53,45,89,4302,-1174,6424
-4,-128,86,-1154,-125,3421
-105,-91,43,-2302,-923,-3406
26,127,18,1816,871,-3586
29,60,3,2689,1295,-2045
-28,109,22,262,98,-874
11,114,2,-1210,-237,-430
76,82,-53,-865,-87,-520
103,64,-67,238,77,-829
-95,26,-35,4764,4292,-5517
-101,-19,81,4560,4777,-9277
-99,106,69,-3170,944,-8693
-39,-47,32,-1385,1697,-8386
-54,80,-95,-268,348,-6602
53,-33,27,-597,-546,-3445
-110,-114,-2,234,-764,1039
-63,37,65,2887,-572,7958
66,-52,121,2060,966,9902
1,52,2,-187,3778,8792
-4,92,92,2099,4065,156
91,53,49,1581,-3925,-7021
-85,20,82,-2640,-337,-6275
-70,-61,45,-17,787,-2973
18,61,65,2654,1598,4425
60,-90,-41,103,124,8939
102,38,118,-1192,172,9264
21,16,76,-5031,2738,-2543
109,25,-128,8979,-2515,-9559
67,-100,45,-687,-2870,-11304
-64,-7,4,-1448,-4042,-11170
-64,-67,-87,5551,662,-9839
14,-81,26,1766,1382,-3797
41,127,56,2278,816,2434
-24,5,-118,2725,273,8307
-20,110,-91,1419,1187,6802
-21,89,85,-473,670,7951
-76,-79,18,-712,3689,-3678
-58,48,-125,5648,-5319,-7473
10,44,59,-4628,-2828,-5153
118,12,-12,-743,-483,-1332
19,20,111,2178,882,1658
-72,111,-59,-700,684,6499
-105,-73,-71,1947,3831,14020
-122,-116,86,-3218,5885,9182
-28,13,-40,-1887,786,7611
94,-90,-101,-2523,-2025,3611
-34,-67,23,-506,-3685,2953
-98,63,25,1791,-2565,5664
-38,-73,-11,689,-159,4610
3,8,-65,-1146,1522,2345
-23,39,-44,-2085,1139,-2052
28,86,-67,1245,682,-3205
59,92,-40,2016,384,-1432
41,-121,-24,-240,-125,-828
76,-128,-42,-1346,-12,-674
113,81,-95,-441,196,-471
122,84,-99,262,65,-637
118,98,-100,99,-179,-697
71,77,-112,927,-1254,-1141
88,-21,-54,2882,4708,-6322
-98,89,-25,996,3608,-6906
-106,-21,49,-1748,2942,-7357
-107,40,-101,-437,1423,-7910
63,35,44,418,552,-6048
-35,52,77,-905,-307,-1682
72,9,-121,4331,1537,6052
-58,-103,-97,2537,2796,11080
-1,99,-122,-2906,3132,10460
64,-28,1,-5553,2943,4300
60,25,108,8635,-4519,-6180
93,-63,-13,-4572,-2954,-7561
35,37,116,-1003,-2599,-2835
43,-104,119,1967,4009,4953
109,-112,81,-3278,-1322,8725
-41,120,-38,1854,4021,2675
-87,-103,59,1983,-5830,-8848
-48,115,105,675,-2894,-10770
-102,-79,-101,481,-7547,-11561
-93,10,115,1855,-1146,-8225
-123,21,-1,1668,1532,-3027
-71,-8,36,2076,662,1583
58,32,-72,2845,140,8112
68,-18,53,156,-2279,9307
0,91,-72,-1172,2121,3156
84,-10,64,246,1066,-5563
-127,-80,-81,2448,-3724,-5633
8,-39,89,-2193,550,-2645
65,-90,-10,1037,641,-685
-62,51,-29,338,475,128
-42,23,-48,-155,890,3654
-125,-59,-78,470,2847,6426
45,-65,-51,888,2476,10674
-96,5,-67,1457,2671,9497
63,49,-76,-3407,314,8454
21,-39,-5,3791,-1032,3481
79,-96,-66,3055,1060,1994
31,-114,-82,-1251,3389,3601
99,-20,-56,-172,649,868
-23,69,53,1692,-2248,-2164
73,47,56,847,-477,-1500
67,-15,-2,198,1231,-830
34,-55,5,400,254,-475
69,-20,-3,87,-423,334
115,-14,-23,94,23,-46
118,-24,-34,616,-57,-355
124,-14,-24,368,-192,-296
125,-14,-22,365,-244,-173
-120,0,-31,158,95,96
127,2,-39,-49,-11,-2
67,121,-51,5565,3904,-7653
-115,40,-80,-1424,1754,-8301
-70,56,-32,-3286,1393,-8963
-75,20,118,-1640,1889,-9109
64,-3,-104,-496,1790,-6503
-67,11,107,-712,1481,-3086
123,32,101,-72,-1473,3753
-55,29,-113,1807,-1252,8009
-53,-27,-4,904,1174,10152
-1,19,-49,-1261,3843,10226
70,-115,104,-833,309,-3978
85,-106,-24,2745,-265,-7134
-35,39,-9,-1441,-119,-5984
6,-107,74,-1276,737,-1484
120,123,-116,-111,628,7398
61,41,-6,-1558,-1339,8852
12,102,45,-2127,1665,7082
7,102,-127,3969,-2261,-8426
-93,102,68,5435,810,-9591
-83,-10,-124,2473,-3480,-10903
-19,-85,68,4771,683,-7438
108,-63,-85,4882,1065,-2957
-45,101,-63,2215,-1502,1392
-99,-42,93,1418,-2362,5269
-84,-84,-43,2309,-2093,10739
127,115,91,-2759,439,4419
-113,-100,67,2030,2478,-5712
-33,-35,63,2895,-3287,-6052
100,93,-107,-1440,-1027,-3689
-79,5,86,-1334,-863,-2375
-26,-124,-55,-311,-108,-1330
-83,-70,96,9,1104,87
121,12,-128,-87,517,5239
47,-116,-24,336,967,11142
26,-33,-119,2003,2151,11577
-122,52,-69,1422,408,9665
-77,103,-15,-1438,-159,5699
126,10,-99,-828,-429,4123
77,-126,9,3961,178,4883
-48,118,56,679,1471,2625
-73,127,-2,-1421,694,2187
-26,37,13,-330,-1438,366
-14,111,15,531,-840,-2288
43,78,-12,426,779,-1720
23,35,-34,432,757,-985
5,36,-42,13,-183,-218
45,61,-62,-423,-260,1
73,79,-76,-489,-266,-80
87,95,-77,-425,-208,-190
86,90,-82,-106,-186,-269
-15,-91,-96,5022,3159,-7192
-44,38,-34,-550,3678,-7122
110,-64,68,-1679,1294,-7143
85,45,-85,-2322,1246,-6856
61,-116,59,-3385,1267,-6821
103,-20,88,1154,1909,-5710
-52,-90,-123,-707,2148,-2559
-48,-40,-60,-1361,-592,2930
102,74,-72,2803,-2484,9287
69,79,-56,2559,1885,8927
-102,82,94,-30,4601,11547
106,24,-13,-1774,2741,-3340
83,66,91,3546,-3916,-7283
125,-47,-7,-2857,-2724,-6928
31,-50,22,-995,670,-3922
-46,39,85,2791,1861,6388
-111,109,53,-1866,-2288,11281
37,-114,-50,586,4801,6231
98,85,-57,1199,-3612,-7615
-114,63,9,3625,-1886,-9907
12,-8,-32,514,-4206,-11437
-115,85,-19,1320,-1173,-10323
116,-3,-17,3616,1541,-6985
-30,101,19,1587,1597,-980
38,-70,79,3169,-1246,6802
52,93,-128,3207,-1081,9727
115,23,119,-2230,-985,6576
-65,67,53,-6884,-2874,1597
38,5,49,9737,3231,-8542
-28,-3,19,500,-1157,-5676
-24,-74,-110,-939,-1458,-2273
12,-19,-9,-2268,303,-1291
109,-116,96,-148,538,1426
118,125,121,-1355,1291,5714
4,-69,-119,2440,1080,10766
-75,125,-25,-1720,2003,10845
-30,-93,51,320,-1411,8805
-36,-57,-9,-3004,905,5952
-65,-58,115,4223,-1027,3920
-128,-11,60,979,173,3030
38,68,45,-2393,-46,4063
-61,-51,-8,-3325,-1047,3735
-5,84,-24,-704,-1330,-867
12,121,-10,1980,314,-3619
52,119,-10,1762,1083,-2386
16,109,-7,224,294,-1043
1,113,-23,-1179,-489,-32
34,110,-71,-1043,-278,-51
68,124,-102,-402,17,-249
83,126,-107,274,24,-488
-107,66,75,1327,2462,-6120
-40,-124,60,770,3573,-7482
-69,45,-38,-755,3022,-7917
71,126,-88,-1262,2023,-8634
-55,103,117,-390,1794,-6654
-50,-23,42,212,2690,-3965
17,-108,119,-730,-2152,5595
77,93,-95,3093,-4769,13674
83,122,34,-1963,3659,7517
55,126,112,4876,6872,4288
-57,32,-92,135,-5317,-8175
-84,-33,116,-1012,-1898,-6851
18,124,-97,-1857,-290,-4217
112,-2,0,1895,3779,5334
-49,-72,10,-3114,-4039,11518
-8,59,44,-1453,4190,5667
-32,-7,87,1477,-1822,-7315
94,110,84,4564,-683,-7313
24,-34,64,2321,-2842,-10466
17,-92,55,3491,-1201,-12064
-56,14,24,3631,1592,-9278
41,24,53,1736,1304,-1737
15,-84,48,2486,-295,4659
31,-33,-47,3214,-1325,9949
-106,-48,-18,-1091,641,4386
-42,-49,-52,-2916,-3632,3839
20,-73,86,5465,4043,-5491
124,-3,90,1026,-2320,-5328
126,-22,-77,-2516,-900,-2947
43,48,-84,136,955,4
78,-115,85,-376,-396,2291
26,98,72,-138,-358,7493
-23,97,-116,229,1403,11099
-38,-95,-39,-543,1168,11209
18,19,-107,-1170,-1195,4513
40,-38,68,-3745,-2261,5901
-71,19,-1,850,-2151,3976
-114,-45,10,5991,-723,5946
61,60,27,2191,628,5184
-76,121,-24,-3655,-475,-1679
-40,-44,-19,-578,-82,-4433
100,45,-36,2356,999,-2794
13,72,-23,1433,362,-869
-17,102,-3,-570,-328,-220
46,111,-60,-1311,-165,-48
78,103,-81,-411,-153,-185
100,96,-97,534,79,-461
95,117,-77,307,-149,-513
97,117,-79,2,-62,-381
87,108,-69,34,-242,19
-79,-81,-123,4480,4637,-4248
-101,-101,58,2997,2803,-6416
50,98,91,-1234,814,-7572
113,-21,-113,199,664,-7929
-128,-82,-27,-258,978,-8040
102,46,-72,-167,614,-4780
-26,-72,116,-191,-1162,378
85,-18,-128,1171,-1207,8934
75,113,-28,1001,823,10028
69,124,20,3247,6961,8947
77,108,-128,-4241,-9057,-10838
113,120,-53,2067,-1672,-6939
-9,95,-98,-2680,-568,-5399
-30,-115,-122,3442,3534,3250
18,-54,-92,-655,-836,9068
-21,96,14,-2840,-866,8736
-106,-18,-95,2704,6918,1620
78,-85,-21,2434,-6881,-7812
-119,-87,-115,7961,-453,-8790
35,82,-102,1601,-5424,-9883
74,111,42,2419,-574,-6443
19,-95,-10,4348,1800,-49
-29,-84,114,2199,575,3752
112,-121,-4,-224,83,6160
-30,-49,-96,-1767,-1382,7877
114,-97,-73,-4453,658,213
-32,-8,-74,8534,-1813,-8545
-102,-94,115,-2285,-4064,-4727
25,120,76,-843,-1586,-2094
-42,55,-26,-1302,-130,-110
40,-115,-44,653,-390,2248
77,33,-20,723,1834,5092
61,-37,63,1506,3502,10587
-79,-120,-15,-1859,3444,8803
55,22,109,170,3775,7558
-47,63,40,831,1033,3623
81,-100,-22,-282,1201,3057
105,-10,79,-1659,-890,4378
-92,-39,27,-1652,-2608,3573
-80,55,-41,-1692,-1777,3015
69,0,-53,750,-736,638
11,-79,-22,2017,228,-1257
25,-107,23,675,886,-1108
16,115,26,-554,220,-609
48,86,-20,-780,-73,-394
81,76,-66,-465,44,-638
96,96,-92,-628,-142,-540
109,116,-81,-839,-329,-421
120,85,-110,87,173,-472
109,97,-92,256,-53,-453
115,12,78,3795,7096,-8701
-84,49,-99,3754,5547,-6862
0,-102,63,-2913,1026,-7286
-85,-7,-36,-1525,1003,-7851
-110,13,117,622,2773,-6233
-15,55,-76,-663,-1752,-2302
72,6,102,-743,247,2258
82,-94,-75,1854,-287,9323
2,-60,22,-604,605,9548
80,-120,-116,2295,3674,8393
67,93,-100,-473,-4264,-6774
-128,123,79,2018,-82,-6929
117,-68,23,-1858,-422,-6003
-74,-25,-22,258,2673,-584
-4,-53,-67,-375,-325,6298
-36,-125,-5,-1238,-2519,9497
-58,67,31,1485,2443,6714
-9,-119,-32,-4605,-2500,-4162
-23,112,122,6581,-574,-8314
-125,-91,-107,1897,-1147,-11136
-30,-44,36,1100,-770,-13296
67,-106,-9,4053,2942,-7479
-104,-106,36,5141,1701,-582
90,-96,-16,3023,599,3369
-44,-58,-114,650,-37,6134
-83,-65,-32,487,-1225,7917
10,-55,-60,-4055,-103,4520
87,-128,-28,3313,2287,-2496
34,-106,12,4981,-1644,-4491
-62,-32,-65,-1082,-1866,-4813
-127,-3,-104,-1482,-1560,-2553
-33,-50,-27,47,-651,702
-56,14,-84,202,482,4088
69,-3,-63,-653,870,8909
67,-68,-2,-815,1397,12059
-47,71,-98,-816,1763,8852
-117,84,-20,-5417,-998,5418
-98,82,-68,214,-3831,6125
106,59,86,2534,-2869,4184
-94,70,36,2678,631,5149
6,47,23,-814,364,2990
-71,-109,41,-1651,-1479,-2428
48,-78,16,1344,265,-3075
60,122,7,1724,1239,-2049
17,123,-4,198,829,-1370
50,109,-55,-625,420,-796
91,-126,-77,-987,-446,-419
112,-123,-80,-885,-228,-737
102,108,-86,-47,11,-672
112,104,-91,426,202,-355
77,43,-127,3603,2744,-4813
-5,-110,91,3333,3709,-7613
-74,48,42,-219,584,-8823
-38,11,-10,-2990,-208,-8617
-66,-40,-45,-1938,672,-7134
1,124,-121,782,899,-4988
43,-67,126,-268,-598,-2251
-109,-106,95,-504,-1541,2157
-23,62,-111,897,290,5564
-52,77,0,248,1337,8454
-69,-57,112,-1847,1036,9722
57,-52,-16,-714,2138,8401
90,48,-48,603,-1600,-6934
-61,12,-110,2997,774,-5556
-26,118,63,-1102,-166,-4956
15,49,71,-1430,-671,-2347
66,-116,26,349,6,4958
85,-56,-107,119,-4807,10425
49,-71,30,-2626,1733,6330
112,-58,-96,-1394,-1016,-6579
-75,89,59,3276,-12,-7366
45,-80,124,-514,-620,-9565
-68,-125,118,726,1867,-10215
-86,12,79,2003,2287,-9781
85,102,-101,1757,2562,-6349
114,65,-10,3339,845,-1018
69,-93,-37,3440,206,3984
113,83,80,3305,-2353,9088
59,-118,-14,-735,-2741,6672
105,-105,118,-1937,-85,5031
98,107,81,-971,2039,-3700
-84,-105,101,4077,721,-5921
89,-53,61,386,2372,-4786
-114,43,-88,-569,-23,-2246
-65,92,-42,-263,-550,-472
-78,12,125,-1600,-827,2248
3,27,38,558,-250,6110
-64,-14,-81,566,-523,10941
117,-82,19,-205,1657,10537
-14,-15,-49,-3894,-1222,9887
2,89,98,-922,-1620,3598
117,58,-106,2144,-2034,5696
67,123,110,2763,-1460,6029
33,64,91,-662,-311,4844
-9,81,82,-2767,-1621,112
-78,-19,59,305,-725,-3478
20,-123,32,2283,1581,-2640
-58,-121,23,1250,1168,-1315
-64,-97,-7,-517,103,-389
3,-76,-56,-1307,-132,-101
99,-122,-102,3323,3827,-3371
-57,108,72,2507,3242,-4108
-61,74,91,3521,-1105,-4799
15,61,-35,-870,-1377,-5318
33,-36,88,-4909,-2188,-4900
-89,74,50,-6450,747,-7308
42,93,14,689,4183,-8285
103,114,-79,-1487,0,-1387
-93,104,78,1382,619,3826
-33,-27,-48,1193,137,7880
-90,37,79,-416,1074,8517
66,113,71,3190,4461,6753
42,122,-114,-3755,-4476,-5992
-46,22,-45,3489,856,-4485
-52,92,-76,-453,-783,-3292
-58,6,-4,24,-858,369
-36,-77,35,370,-524,6602
44,-9,69,-1021,-771,8528
82,97,-108,-2154,3537,3011
-75,117,-105,6016,-3069,-7629
-107,15,-42,280,-3350,-10287
6,-50,51,1231,-4492,-11999
53,-77,22,1206,-1531,-10766
115,111,112,1099,760,-6071
16,119,79,2249,1230,-957
50,-75,-126,2498,450,4384
-35,56,-115,1979,613,7017
23,-61,-48,-1469,-2605,7995
-28,51,-46,633,-1557,4940
115,5,-41,1931,2748,-8008
45,-92,-114,1212,-2393,-5946
70,41,-121,-1779,-905,-4325
13,-42,12,-1075,775,-2194
22,-16,121,756,1251,352
-83,-23,115,-1096,1077,4206
-80,-23,-90,1092,1719,11640
93,107,-69,379,1998,12842
-111,-41,114,-989,3300,8891
74,-83,50,-4620,-1508,7843
65,-125,26,-1192,-2504,3289
58,103,-52,2390,31,1338
75,105,-20,4198,-674,4594
-92,11,60,-1378,603,5428
39,-20,-119,-3366,213,-1056
-15,-116,-80,1559,-598,-4617
101,15,-33,3121,4,-3742
103,22,-15,1304,410,-1852
14,-8,-1,-322,-11,-299
11,0,-55,-1058,-401,334
21,29,-80,-1171,-692,457
-83,71,48,3359,3001,-6167
66,62,77,901,5652,-8873
91,58,-114,2741,4616,-8726
-23,108,99,1603,608,-6657
23,-49,53,-256,-1146,-5036
50,-40,5,-690,-632,-1667
68,-25,16,-1644,-473,1830
-92,-24,-118,-2114,-1808,8379
-117,13,-78,-2815,-1704,8533
-86,-97,1,100,2594,7871
106,2,-8,2978,-683,-7480
-60,124,54,2418,1695,-6203
50,-112,-8,523,-274,-4303
55,94,106,-705,-921,-694
-125,-103,-95,564,-483,6988
-38,61,77,-2478,-4678,9477
57,-119,-37,1197,-1171,11166
88,-122,57,-5996,758,-2268
-41,31,58,8554,1079,-7106
68,-37,65,3394,462,-8142
-7,72,67,1396,-2010,-11064
59,-51,0,3624,-693,-10240
43,-41,95,-539,1078,-9057
50,-26,-79,3531,2675,-5432
-10,-100,32,2625,768,-745
-27,-45,-36,1174,-2211,5310
19,68,89,1896,-4056,9853
-66,112,6,1931,-2581,6920
34,-72,-41,-1538,-1180,5575
-117,-62,59,3164,4250,-5392
109,-88,-97,2331,-1582,-6393
119,-18,-102,98,560,-5277
-3,54,-128,-1258,-358,-3938
-100,-1,110,-486,-394,-1143
7,34,15,-289,-144,1835
104,106,81,-509,-1651,7659
-106,-2,35,324,79,11964
-121,-69,24,-1339,3370,7210
-112,77,4,-1351,564,5438
-13,-77,-100,-681,-684,5136
-118,48,-31,-1861,-416,4270
48,12,-52,1584,-1245,6002
6,-110,52,-692,-405,4905
-47,43,85,-1099,-18,2360
-20,123,-45,2113,239,-1472
4,-2,47,1512,84,-1851
44,-103,58,-375,-95,-1003
28,82,-12,-45,-150,-260
57,95,-38,-38,49,-47
93,-124,-70,-87,-105,-66
44,-55,-85,1884,3510,-4297
-58,27,49,-1079,5130,-8086
-82,-92,-70,4325,1495,-9876
-127,121,-15,-906,987,-7781
-34,4,30,-200,118,-7391
-127,-33,57,-438,-99,-3361
-34,89,-5,-1197,-1876,2357
-67,43,45,618,-1445,7209
27,-68,-74,902,-151,9213
108,93,-70,-1085,2692,8442
-47,46,71,-1579,-1380,-4708
118,-55,-36,2652,-369,-6130
-17,89,-40,-1155,997,-4617
-93,59,-22,-3003,-480,-1803
-54,57,-24,-2165,-419,2426
-18,107,-9,988,-6293,10091
-38,-95,-43,710,-6454,9318
-36,116,-80,3095,2297,5518
-63,-99,-94,771,2976,-5463
-84,-2,-69,3278,993,-7436
51,89,49,2665,1785,-9659
105,-30,20,3414,1161,-10685
14,102,-114,2726,1010,-9598
-39,-101,-118,3473,1554,-4934
-48,-56,18,3251,-988,-443
-52,-46,54,2215,-1522,4018
-102,109,-120,2471,-1495,5885
-33,76,-1,-755,-2022,5093
-67,90,111,-400,-1931,5102
62,81,84,-1678,2310,-1403
-108,115,-23,7067,2417,-5261
1,5,-33,-906,85,-5087
65,116,-126,-1502,-180,-2668
78,-104,-22,-1125,191,-850
47,-90,50,-786,999,1984
-102,75,26,-806,274,7179
79,59,-65,-163,-1404,12789
-96,-93,-53,-2133,3086,9346
-30,-66,42,-2055,-864,5701
-79,-30,-71,-4074,-5235,4763
-12,78,16,-118,-1167,3046
41,-38,65,5362,-1159,5435
-83,-127,124,3284,-421,4551
118,-32,-15,-2653,1668,1202
-9,20,-58,-1190,-336,-1755
2,90,-38,2004,-581,-2022
22,108,-3,1099,-94,-1394
29,99,-11,-287,238,-610
34,58,-49,43,49,-280
41,66,-71,-43,-217,-27
-55,-69,43,1591,4676,-5387
-31,-52,-120,6197,5054,-7630
30,56,26,-1966,1143,-9665
106,-26,48,-2239,718,-8399
-122,109,101,854,1894,-6537
-15,33,67,-264,-1064,-1231
-89,39,13,196,-2711,6990
-22,127,69,2256,-1059,10433
105,-37,-77,875,1250,9023
-76,-51,97,-3111,3570,-289
66,125,-55,3964,-1357,-7682
94,32,43,-829,1060,-5684
114,-42,-42,3,-788,-2664
-31,99,112,-213,524,6376
-61,92,-49,-776,-4250,10613
122,47,-59,-1914,3034,8692
-118,-86,93,2030,-1211,-9443
-19,75,73,6818,1882,-9170
33,-110,19,7090,-2187,-9179
-66,-120,39,3510,-4930,-9256
66,109,76,1503,-1491,-5635
52,-20,53,1932,53,-753
-37,-85,-117,1405,-997,5218
-72,1,-51,2371,-1887,10449
44,-60,-113,3235,577,7610
85,-38,78,-6886,938,-4869
94,17,15,7079,-2648,-6652
39,13,-75,-3500,-2211,-4311
-19,-101,48,-3041,-951,-396
-56,75,50,1279,2243,2387
-89,-2,127,187,755,8278
114,-39,81,3709,1821,14171
107,-114,-122,-4598,6560,11223
31,16,-35,-3193,-2702,5379
95,36,28,4997,64,5161
-41,-29,74,-3337,819,4122
-113,-2,-46,-2488,-73,3275
5,-126,-21,-905,-2167,213
37,-27,-41,929,63,-2770
97,-102,-73,1492,1300,-2652
87,115,-67,884,584,-2102
88,113,-59,8,-518,-1262
102,121,-59,-1103,-1014,-845
93,-101,-33,-1919,-1276,-624
97,-93,-61,-1725,-476,-502
87,-114,-82,-151,-4,-83
84,-94,-89,444,26,241
85,-37,-101,104,-140,617
109,-5,-96,-347,-335,818
120,9,-96,-243,-380,768
23,61,106,1060,1054,-6545
-37,38,80,-578,1303,-6122
-54,-73,3,-826,1196,-5006
-111,71,115,1520,-1238,-5437
40,12,-41,-2717,-1190,-4282
16,-14,-60,-80,294,-1096
-116,57,-101,1471,161,4975
-104,-87,-93,404,-1269,9426
116,57,19,-1501,-529,8980
13,31,-44,-1446,2207,4776
-15,-105,-9,4466,-1331,-6289
-25,-77,54,184,642,-4880
-59,-10,52,-1195,-1003,-3437
52,-66,116,-1380,799,-553
30,92,30,413,-558,9133
3,-88,-76,-970,-3598,10524
73,28,-75,-1234,2023,1933
106,83,-102,11292,1688,-7683
-114,-4,-21,813,-614,-9128
91,114,-59,1304,-2558,-10611
20,-93,-108,3437,-1273,-10752
-99,73,-115,577,177,-8563
76,-42,35,3303,1598,-3498
-102,55,2,2185,796,1862
-40,59,48,2362,-885,6886
-125,-41,-116,49,-2416,8454
71,5,-41,-147,-3511,8302
54,-16,-30,-4305,-1397,1885
28,52,-128,3058,2115,-8294
106,108,27,3029,1447,-5523
-98,74,-63,-1419,488,-3946
-61,-18,25,-1657,-28,-377
22,83,-127,-444,1591,676
-51,-104,55,177,1592,4292
90,-89,57,461,1218,9095
-88,122,125,-437,273,10539
66,105,-62,-1772,-157,7879
-29,-104,-31,-1445,-912,5656
80,-48,-5,1754,-563,6066
-78,114,-117,1346,-789,4660
21,-16,67,-2526,-193,4244
106,-58,-5,-2101,-566,606
22,6,-18,2088,194,-2328
40,-96,19,2013,833,-2644
49,-128,7,222,552,-1405
27,108,-9,-736,-471,-410
57,93,-35,-489,-329,-296
93,79,-66,255,-173,-257
99,97,-73,19,-153,-422
109,105,-82,-238,-227,-371
-121,-121,48,2703,4256,-5675
28,39,100,1323,3443,-7162
82,115,-48,48,1307,-9073
-86,84,23,-203,851,-8985
-126,-89,-51,-1382,634,-7903
-10,-73,65,-222,1640,-3889
81,53,73,183,-914,5449
45,-29,-93,0,-2086,9493
57,-122,-43,219,181,9682
8,-1,114,2099,2778,8849
-124,-57,52,-2381,-2041,-5138
114,101,119,2661,943,-5348
116,38,-117,-745,423,-4593
-26,127,-8,-1459,-1082,-1741
-98,-58,115,718,3,4980
48,-70,-52,120,-2315,8697
93,103,-27,536,1914,7028
4,-76,-80,992,-1324,-8132
-21,100,75,4346,252,-9788
89,-21,114,2149,-3026,-11667
78,-28,-106,-306,-760,-11733
71,25,42,5595,3393,-6103
78,-113,16,3388,753,38
90,-106,61,2131,-469,5091
-87,-23,-70,1114,-915,8808
-67,-35,63,-1816,-708,6231
107,-31,61,-3474,-2152,-471
28,-108,96,6893,1457,-6867
-67,72,-18,-1179,-653,-4877
-13,-7,65,-2415,-830,-2048
-3,56,127,-88,721,339
-68,112,-5,-268,954,2852
-19,16,-1,102,-1165,9682
122,-113,-46,2255,-1884,13553
-48,89,-15,-1573,1018,8851
79,0,75,1002,-1326,7369
-7,114,94,-1788,647,1985
-53,-72,-116,-652,-1806,3479
96,-67,-13,2400,-739,3270
-98,39,85,1614,-1565,3568
-95,-93,30,-1285,202,1853
9,9,-51,5,188,-1577
35,-109,-33,1846,295,-2251
44,106,-33,1259,404,-1535
25,97,-26,179,-90,-576
28,92,-34,-355,-200,-161
65,93,-48,-237,-202,-67
84,110,-48,-109,-114,-143
88,109,-64,165,-17,-198
94,125,-75,-58,-116,-74
-35,36,19,4567,3948,-7144
122,13,35,734,4499,-7583
-55,119,-91,-1151,1562,-8588
49,-93,29,-2035,1704,-8462
31,-118,-90,-122,1944,-5821
59,-18,82,-815,107,-2791
42,81,89,-95,-1133,6250
-118,-10,114,1828,-1588,9518
84,43,-8,-211,380,9826
27,49,-82,-2251,4450,1980
122,-116,-101,4260,-3041,-6908
-34,89,22,89,363,-7716
-31,24,122,-870,-1392,-4514
-113,-5,122,958,1880,552
-5,-60,-121,21,-2076,10442
-126,-4,-106,-703,-2511,10638
-57,-76,-26,720,3643,5790
87,111,85,-602,-1274,-6408
-99,36,46,3449,-1497,-10185
-6,118,32,2560,-2243,-9623
-88,71,-17,2047,-1700,-11326
0,-13,-45,2618,421,-8317
-11,-39,-90,2367,1527,-2622
98,27,-21,2009,-993,2748
127,121,111,2563,-1269,10791
26,6,-45,1396,-269,9776
103,89,89,-5732,-2061,1894
111,61,-47,8001,1288,-5409
-89,-106,-102,238,-1846,-5874
-72,-51,-26,-1947,-3216,-4587
1,87,35,-3578,-524,-2429
-44,9,115,-354,510,661
-34,47,-65,1628,2383,2962
-1,-113,94,-806,-590,10582
7,19,95,1315,1045,12850
-108,-64,-121,-1196,2801,7566
-32,116,85,-563,-2629,6721
-32,8,17,-2861,-2638,6138
102,0,-53,-1797,-1219,2860
110,48,54,1532,-2689,4496
77,-2,87,-290,-262,3172
-28,67,-34,1245,291,-2744
24,-103,-28,2879,893,-3624
41,-125,-20,1883,814,-1821
1,105,-5,-16,21,-506
17,82,-40,-707,-216,-266
69,82,-60,-493,-236,-247
93,94,-74,-189,20,-436
108,87,-82,276,-26,-524
125,87,-89,312,101,-421
52,71,-28,3478,2149,-5157
-122,-37,26,3549,4866,-8363
-45,67,-65,-2152,1027,-8335
11,111,-46,-2385,1735,-7280
11,34,119,-1382,2346,-5822
90,-26,66,-1622,815,-4132
-73,-51,-4,487,143,-916
46,61,24,841,-804,6814
-1,96,113,1686,-2164,11715
48,33,-114,2021,1339,11110
-50,-66,40,-5398,729,-2395
-91,55,116,7978,-611,-5540
25,20,59,-2220,-713,-8705
-60,17,100,-1664,-1337,-4381
127,-114,88,1174,2192,2592
-104,-62,106,-1486,-2122,10418
-87,67,-90,-3106,-2271,8461
-126,-97,-6,-2812,2471,-1220
-124,-122,-7,6414,-2186,-10345
44,-120,-32,1662,-1519,-11263
-125,-108,114,852,-1553,-11116
80,91,-19,3936,1046,-6884
85,50,-81,1930,568,-1954
-128,19,-14,1592,-530,3928
-70,-117,101,1326,-1980,9599
47,-126,-4,769,-2572,7740
-28,103,23,-2341,274,-129
-8,61,52,6621,-91,-7598
86,-92,-10,-2046,-1775,-5623
2,47,93,-1925,-805,-2534
-120,29,-51,-891,-436,-522
54,-35,31,426,1084,2781
-30,-29,75,-225,1304,9431
-26,127,-107,1588,1206,13374
-113,-58,115,-1662,2536,7121
77,81,11,-1251,-2628,9979
-42,35,-52,258,-2036,2589
-19,79,-3,-1038,-1395,6074
51,-64,-45,-741,130,3972
-76,-19,-14,-830,86,1770
1,101,-66,662,26,-2227
27,-53,-68,1778,429,-3380
51,-71,-67,962,301,-2028
23,-92,-52,-506,-424,-863
33,-104,-68,-1180,-590,-744
69,-108,-79,-961,-175,-691
95,-107,-90,-280,-9,-621
90,-103,-90,61,98,-646
100,-94,-88,-7,203,-451
93,-89,-90,-127,162,-259
-39,29,29,3794,4156,-4775
96,66,102,2740,3444,-6446
-90,-97,-19,594,2280,-7659
-127,-1,30,943,1173,-7759
88,75,-121,-2012,1581,-7750
-32,83,-79,-1501,1931,-5501
-42,87,-84,157,-186,-1384
46,78,120,725,-219,3525
17,1,-119,2201,-1509,8835
127,-69,-72,120,1489,8831
90,-114,82,370,653,11148
-18,39,-9,-3767,-1322,-2530
77,49,100,3277,-339,-5539
-13,-82,-45,-878,-987,-6951
-12,-124,22,-2545,-1514,-4231
-16,32,55,-13,3018,219
19,32,60,146,-1043,10262
-23,66,-48,-1569,-5603,11251
-55,93,53,-1057,-629,4149
121,-41,-16,3682,4592,-2698
24,-43,-87,2105,-1608,-7842
54,2,120,1517,-1502,-9129
-89,91,92,2388,-1903,-10904
3,91,93,1634,-1667,-11209
73,41,-103,1927,144,-7055
-20,17,-107,3210,214,-2510
24,-15,-60,2489,-141,2820
37,-64,-102,4312,784,5969
-7,40,71,-1003,-1100,7266
-14,109,-17,-2242,1712,2867
-13,-35,-13,-50,272,-5944
96,-108,-33,3433,-1452,-4678
53,-109,-104,-3695,-157,-3234
-93,-60,-33,-3019,143,-293
-81,-91,-46,624,1409,1650
109,-54,93,-475,-1919,7317
-126,68,-104,1731,-668,9981
-79,113,-93,-1886,745,9506
78,114,-31,-2728,-2742,7090
-37,61,-103,972,-1448,4008
27,-79,107,1652,-1270,5592
-97,72,65,1371,-1457,6314
69,-76,92,7,-1687,5378
-100,-6,18,-1510,-398,1790
-37,76,16,1226,-348,-1861
-28,-86,8,2910,635,-2786
-9,-72,7,1395,813,-1703
1,-73,12,-814,-59,-865
46,-98,-6,-1433,-630,-983
104,126,-29,-874,-158,-1263
-49,-122,51,4703,4384,-8185
-125,-35,-77,1058,2105,-7739
41,81,-53,-1644,1090,-7089
77,66,-31,-2670,5,-6734
-35,3,2,-1279,-653,-4293
68,30,119,-2052,-58,-1521
-108,-68,-68,1152,2040,3543
46,-72,-54,1667,1856,7482
72,76,-78,-35,1164,9902
-21,20,4,-705,1461,10268
-36,4,-64,-6834,-2768,-3507
109,1,9,8385,-83,-6499
-53,-80,56,-3508,-1375,-7113
-67,-96,113,-2427,-1346,-3909
36,112,123,1879,2475,357
44,-110,-47,1065,-9,9789
38,90,-43,-1494,-1210,11788
-6,-119,62,-5863,4026,1862
124,69,60,7603,-3258,-7853
127,8,35,-430,-3550,-10217
-126,-115,-67,-494,-5342,-12413
-93,-33,-2,-1623,-1028,-11894
106,-1,-100,3662,3249,-6818
58,125,-24,3384,535,-547
5,-31,107,2139,-258,4796
-42,-113,-116,2595,712,8354
-100,2,23,-1522,-1082,7925
14,87,72,-3385,975,1183
-51,-47,48,5638,2172,-6645
75,-85,-86,2781,-888,-5859
8,119,80,-1815,-2960,-2370
-20,126,-33,-1138,-731,-254
-120,-24,117,601,314,3026
42,-87,-44,829,2821,7703
-2,64,65,3045,9717,9488
-34,-87,24,-8270,2850,4594
39,80,-9,-1891,1379,4581
73,-12,-77,-859,-852,5550
1,-22,-85,-1925,-2512,4128
-58,-42,69,-597,-3046,7172
18,53,1,-3601,-1639,4814
-91,117,-92,-2890,-110,1620
-8,-75,-69,1324,262,-2092
46,107,-38,3464,542,-2640
59,-122,-16,1665,478,-1436
19,-96,-1,-968,-98,-153
24,-115,-26,-1410,-552,-108
73,120,-54,-304,-384,-868
-107,105,-101,1144,566,-1489
-56,97,-89,979,1756,-3001
-92,-13,97,3627,5519,-6569
-78,-123,127,933,4110,-6782
77,-122,-22,153,3206,-7127
65,15,71,-734,3460,-7263
101,-25,81,498,397,-4369
99,-54,-77,-995,-865,-370
-34,42,-111,407,-293,6066
123,55,-111,1046,77,8539
121,64,-22,-806,-127,9660
17,-52,74,789,2492,4890
-122,-2,-31,2026,-2304,-5244
89,31,-121,506,-873,-6150
54,75,48,-2381,-578,-5202
31,-10,-97,-6,1763,-870
-105,3,28,1570,521,7243
-12,96,-15,-2982,-2699,7744
-84,-30,67,587,1921,3811
-101,92,13,4828,-1642,-7891
-102,56,34,1221,-2729,-9071
105,-43,114,1143,-2299,-10636
71,87,92,1515,-1400,-10108
-115,12,67,1222,628,-5664
111,-60,11,2490,151,236
70,-37,75,2395,-452,4674
-116,-22,-43,1696,-1071,8370
71,-89,40,-2953,-579,5567
-64,-39,7,-1531,-1680,-200
-83,-87,-3,8749,1008,-7239
69,97,-9,-440,-1104,-6682
-23,-77,-75,-3081,-2171,-3648
-19,-118,-6,-1860,-336,-1197
38,58,49,2624,2903,2104
69,85,-36,667,2762,12000
109,48,-98,-830,4593,11113
-101,59,-123,-2865,502,10482
42,-93,60,-5698,-2398,7220
11,-80,30,-1408,-2333,4940
78,127,95,2794,-2277,4109
15,92,104,1519,-1678,4810
-30,8,51,-1593,-68,3149
-6,-92,21,-1500,-342,-1378
19,-44,-11,1546,683,-2861
38,125,-27,2258,931,-2504
14,-122,-2,585,99,-1205
35,89,-11,-378,-83,-483
83,84,-61,-655,86,-96
97,108,-76,-380,-124,-325
95,113,-89,-42,-77,-573
90,104,-91,145,-9,-371
84,114,-94,40,-163,-42
-62,33,76,438,2696,-4950
-92,-35,-113,9,3900,-8036
20,2,-35,-1300,5056,-7608
-127,-13,-77,-2440,2593,-8157
-112,-26,36,-1650,3052,-7841
68,-57,58,318,3259,-5901
-100,-106,-16,-3463,776,-1018
17,106,-101,2860,-5307,13024
-31,56,117,2579,1684,8496
-30,-50,74,1722,2856,9925
70,99,-50,-2998,5,-7017
-78,111,-79,-582,-1752,-6473
-23,54,92,-743,-731,-4265
-63,-23,17,-678,1845,1496
-33,59,118,483,-1996,11624
-50,1,-87,-1165,-3149,11423
115,-59,-100,-1638,-1592,9906
0,83,124,-4204,4073,-3078
-9,114,123,7711,-3574,-8013
44,-78,-114,1193,3137,-6511
27,-19,57,-891,313,-9631
30,109,-57,3470,-2288,-11254
-39,-15,-110,1523,-1138,-9963
-122,-115,97,660,22,-7129
4,53,66,468,2397,-3750
30,-77,-41,3728,-749,6513
88,-6,75,830,-3392,7966
-53,-89,-47,312,-3625,7974
-35,66,11,-303,-3199,3825
10,69,58,-2425,3272,-4389
27,8,-4,7054,604,-6312
71,5,-63,-1438,-12,-6084
-46,78,122,-2382,-803,-2471
24,-86,112,169,1159,168
-65,69,61,1014,960,3318
59,7,43,897,481,8831
-105,-53,-106,1972,1293,11939
23,-11,18,-2524,544,8350
33,-45,-56,-3838,-5862,8676
39,-103,95,-3605,-4508,5505
-71,-20,100,5692,-1740,3671
-107,-12,72,7018,-66,2771
-50,92,65,-604,1690,2129
-45,-53,45,-2275,-64,-959
-44,-100,1,1300,-43,-1600
-56,-70,31,1022,206,-745
-31,7,13,-1326,254,-412
53,-20,-62,-1558,284,-1121
86,-58,-97,-684,96,-1725
105,-75,121,-545,90,-2269
7,97,-46,1242,3204,-4163
67,-93,-52,1057,2425,-5426
-78,-9,95,469,2515,-6698
-81,-13,-40,720,1879,-7858
64,1,-52,-437,55,-7563
-62,-20,-87,-1761,745,-4503
-98,111,-57,-482,1757,-1036
-63,65,3,-351,795,7092
-117,-126,-95,986,597,12885
15,29,103,-5069,90,11211
-52,88,106,-1023,85,-2900
-82,-18,18,5918,83,-5130
89,-77,-94,-870,-1016,-7337
-65,-122,-126,-1249,-1927,-3884
102,-41,-11,-384,1677,614
-92,-47,-77,-697,-1888,12485
-103,-40,-118,-1673,4954,4564
-10,-86,15,1316,-4410,-6043
-119,63,-116,7553,-350,-7514
-27,66,104,6968,-4520,-8909
-32,110,65,4056,-4966,-10140
106,-83,107,3098,-665,-5730
57,18,49,3574,310,-663
-93,-65,85,3589,-1115,6962
-76,37,-47,848,-1630,8386
-66,93,-27,-2995,1534,6046
-94,-120,-52,1816,1341,-5676
42,-42,-83,4961,-3377,-7832
-124,-7,-44,-3139,-1638,-4849
-120,-90,105,-2488,97,-2310
121,61,71,397,2159,196
-3,-51,98,-1149,1234,3763
-77,28,-88,-1539,-509,13247
-41,94,87,1218,3555,15580
111,127,-54,-765,2985,4254
89,-91,121,-2245,165,5605
-8,-7,64,1133,1179,4270
-96,48,-126,-121,-110,5612
39,-3,-29,-4057,-1060,6589
-68,-122,-88,-4894,-129,1561
22,-47,-80,4857,798,-4396
94,113,-61,4793,1021,-3506
114,-99,2,-184,175,-2265
82,93,-55,-2095,-420,-949
72,44,-109,-918,-174,-668
97,71,-97,16,19,-53
120,-115,-67,-273,30,203
-122,-71,-61,-319,-359,223
-90,-73,-63,236,-254,-176
-72,-65,-42,379,118,-1093
105,78,94,3421,3889,-3626
19,-47,-124,1215,4609,-6132
-67,-85,-31,3145,4802,-7212
49,-86,-94,1736,2635,-7165
-95,-85,93,295,1529,-5580
70,112,-70,476,59,-1679
-2,-37,-114,-214,-1185,3381
-106,-60,-34,45,-717,7565
-36,-75,74,-2248,-1072,7879
-3,-105,41,-2654,-2018,7486
60,125,-70,-4809,-3223,-1122
66,82,-114,5071,1345,-4319
100,49,59,273,615,-3696
108,-91,17,-387,-1253,-1435
-3,-1,33,1692,624,4462
-13,90,-70,-2877,-1782,4671
-24,53,26,99,23,4375
-117,12,-82,5931,2820,-6892
-98,22,-120,3634,1013,-9399
6,119,-104,2561,-1155,-10887
32,-78,-59,5483,243,-12402
-80,5,69,-26,1265,-9057
-97,-124,41,3839,494,-1268
-42,115,114,1939,620,2815
45,11,1,2747,1568,5529
90,40,100,-24,-2415,8837
-121,-42,40,-4294,-4648,6339
-65,-56,125,2718,-2591,5505
20,50,108,-978,3781,-4221
107,-43,-66,6615,1938,-5180
91,3,86,-666,-90,-3596
-4,-37,45,-2037,-811,-766
-48,98,87,507,698,2921
103,119,-51,-1879,-209,7071
54,21,-5,-43,1883,9336
-98,-16,-16,-1591,1857,8121
-47,98,-44,-4031,-191,5030
57,-31,14,-4706,-4562,3774
-84,76,-24,918,-2969,4400
-112,-19,-15,7400,-13,4183
124,107,5,3955,1803,3978
-65,-14,36,-1231,745,1813
13,75,-28,-642,-510,-546
31,111,-21,1317,75,-1147
30,96,1,1074,323,-762
15,99,12,201,-114,-593
93,116,4,-716,-252,-562
-120,111,-2,-459,-194,-713
-117,116,25,-410,143,-798
-74,117,13,-695,638,-781
-76,106,121,732,6102,-6766
126,-37,-80,835,6846,-7291
-127,-102,-73,3718,1977,-4869
75,-116,-27,2743,576,-5556
80,121,-47,-1181,-994,-6338
-124,-100,-84,14,-15,-4446
-10,32,-85,693,843,-637
-103,-47,-44,812,-1807,8714
69,66,-71,-190,930,8030
4,-110,119,-2238,-42,9355
-114,-81,-18,-2327,-2197,-4243
-3,-123,7,5031,1407,-5400
-78,14,109,-394,-548,-6656
-81,-100,-102,-2475,-2078,-3526
95,96,-54,218,534,5250
-113,-70,-17,-339,-5018,10164
120,-116,96,-894,-1164,7659
31,117,108,-1696,411,-5305
-48,110,59,4212,-347,-7983
21,119,16,2492,-1253,-9220
87,-19,-36,2345,-2274,-10022
75,-69,52,1339,364,-5816
34,125,69,1675,397,-215
22,-1,68,1590,-1598,4096
-90,-89,-117,1345,-2397,6773
95,16,78,1399,-2395,5433
37,-94,38,-1839,3392,-5466
-66,78,-70,3947,-1703,-7257
-67,-33,-42,-1127,-496,-5934
18,2,107,-1068,-500,-2576
37,-68,108,826,579,4
-32,20,59,735,721,2918
94,106,-120,865,-168,9462
-115,22,-105,2817,1530,14192
-4,-95,-65,-3321,1949,9556
52,66,88,-5188,-5334,10011
49,-120,40,478,-2011,3839
27,37,49,8755,-234,5151
-61,-67,97,4438,298,7354
-116,-87,-43,-4914,1558,1183
12,-59,-27,354,-1647,-7233
60,-123,-13,3460,876,-2832
24,88,-54,1679,1076,-1155
-73,63,-25,-435,-418,-426
1,103,-57,-1489,-555,120
69,119,-77,-1026,-254,-212
-89,109,-85,322,-26,-884
-119,77,-48,1036,-475,-1616
63,72,-31,-107,-418,-1376
47,77,-37,-1160,-501,-421
-33,-21,45,4535,5483,-6019
-18,-90,71,5544,4723,-7369
100,-36,-27,413,-1842,-8595
-120,-66,102,-1747,-203,-7710
116,60,-18,-954,13,-5974
29,-15,112,277,923,-2659
-94,-62,-122,-410,-506,3954
21,50,-60,844,-353,8720
15,52,-112,-2094,-391,7841
-82,95,-9,5717,4958,6790
14,25,-85,48,-5160,-7159
25,115,125,102,-194,-4666
117,127,91,-2289,-1040,-3034
-43,50,-72,-350,2306,247
-12,-57,-8,1077,-443,8497
78,-7,41,-1559,-2381,8368
-87,101,-72,423,4069,1312
-31,-123,-46,5420,-2810,-8190
9,30,-4,1338,-1415,-10423
-54,-87,27,948,-3018,-11494
31,0,20,2251,-772,-10040
-125,-108,47,3083,1485,-5424
-50,-118,-37,3692,909,-160
-48,-99,63,2176,-108,4511
-21,-27,104,2474,-695,6276
-114,-110,37,-1580,-2487,6300
10,-123,-88,-4,2823,3032
45,-41,-104,559,256,-5547
-122,72,8,3249,-2010,-5029
56,-64,64,-2764,-704,-2996
-14,31,-69,-278,52,-1
-102,115,107,1374,334,2878
107,78,-75,625,446,6897
69,-122,-13,423,1957,9971
33,-98,6,-744,2822,7942
46,-106,6,-1913,211,5582
-117,54,-91,685,469,3220
-106,96,-18,-1973,-1476,3302
-49,61,-36,-446,-1869,3857
0,9,-1,41,-2488,4918
112,-99,43,-1807,-1157,4727
92,-101,-32,-705,822,1865
24,-3,-48,2410,395,-1678
45,-79,-14,2576,360,-2249
-100,-110,-25,593,860,-1337
33,118,-15,-411,-412,-951
10,59,-29,-308,15,-1436
120,74,-9,-721,382,-274
-115,65,-79,45,981,-339
-109,69,-102,650,742,-437
103,-122,75,3094,8207,-5515
51,41,-110,5949,5467,-5542
-127,42,-9,1606,2347,-6689
-42,84,74,414,1067,-7111
54,-22,84,226,434,-5176
62,-113,-62,48,348,-2162
16,-105,-104,-121,-245,3100
107,-79,-33,419,-164,8056
-11,-86,68,-1122,142,8789
-43,9,64,871,4515,8542
-26,20,-42,-2011,-3702,-5960
-7,47,86,3676,-872,-5186
98,-34,66,-1656,-1878,-5962
-111,-36,88,-1819,-241,-2560
27,94,94,1864,2095,4605
91,44,-73,-273,-1861,9384
-6,36,29,-3166,1562,6708
31,-54,-115,-4443,-1999,-5882
48,107,-84,8546,1893,-5914
-50,97,-118,2920,-28,-7886
-43,-74,-74,-477,-1352,-10177
-4,37,-49,1248,2017,-9979
-107,-82,-35,3454,3378,-5507
-91,5,-38,3962,667,-2229
81,-84,62,965,-2368,1737
25,-53,-118,983,-1931,6568
107,-54,66,1680,-5235,10279
58,-44,-23,-2172,1059,3561
-46,-16,93,-4806,-1752,-504
-25,-74,84,7927,1861,-5892
-105,88,-47,969,1166,-4941
111,105,126,-1183,-629,-2701
-14,-50,-30,-556,-72,-1085
-55,52,-77,-284,96,671
-81,22,-113,505,189,4639
58,110,34,26,-152,11232
61,-64,50,-361,2834,10062
-66,-107,-116,-1987,413,6267
-54,-11,89,-3508,-2886,3925
83,-31,47,-912,-2639,3017
-127,89,-88,297,-3656,5103
88,-9,70,1463,-1392,4775
-71,60,-107,1469,-1648,3971
-91,-88,23,-649,999,1204
-22,25,4,1151,224,-1930
8,-86,-5,1855,588,-2149
34,-121,10,821,451,-1159
19,-109,19,-591,-223,-168
22,-109,2,-984,-153,-97
49,-118,-40,-238,257,-418
-128,102,31,1336,1470,-7295
-122,-76,86,541,1717,-10612
88,19,-127,-5145,-1171,-8309
92,20,-33,-2771,-515,-7346
69,-88,-3,-10,604,-3950
67,102,-108,-1344,149,836
91,-8,97,1430,-35,11099
82,-28,-47,1965,2000,11694
-122,-77,-90,660,4664,8777
106,-9,72,-3365,1316,-1317
-88,-76,-96,4269,-3763,-5703
-30,95,102,-1879,-3744,-6748
69,-101,-119,-2668,-2235,-3583
-49,-41,20,3248,3282,1399
70,-84,92,944,-195,9692
18,-27,-36,-2725,895,7189
-86,78,-121,1731,3024,4109
115,-14,-117,1536,1982,-4409
20,-93,-66,6300,-4769,-9034
42,5,-6,-973,-4454,-10450
39,-122,-98,-70,-4822,-11480
44,115,6,-406,-923,-8725
25,117,52,3077,1089,-4772
-48,20,-109,2705,566,-533
20,-103,-31,1238,1548,4804
59,-107,-3,2633,-449,10244
67,84,30,-2320,-1083,7866
59,-75,-64,-378,-465,3068
-5,-37,-86,414,1216,-4919
105,8,67,3346,-3180,-6813
4,-33,73,-4598,583,-4802
-75,-23,19,-2358,-725,-1839
-86,-15,107,2290,190,152
98,-32,68,3076,271,4099
-35,15,2,1074,2763,11078
-100,-23,3,1754,5100,11154
-121,-27,121,-3953,1517,8069
-14,-61,47,-2635,-3444,4209
30,52,39,-2115,-3808,4422
-123,80,-126,1126,-2659,5379
-55,-95,100,394,-121,4017
68,-59,83,-977,41,691
10,37,27,482,254,-1804
40,-46,15,1223,760,-1899
39,-101,-15,317,838,-1675
49,61,-47,261,581,-1215
91,23,-84,220,511,-386
-128,-1,111,710,211,-189
118,38,-119,152,-379,238
104,110,-104,-711,-443,402
35,73,-22,3647,6332,-4399
-111,-71,95,5649,4634,-6325
35,46,41,289,3366,-7206
-20,-53,87,-1505,97,-8125
64,-86,86,-384,311,-6587
-17,73,74,-377,296,-3087
101,65,100,453,1324,3556
-122,-88,-30,2267,-1766,11393
96,87,-86,731,1957,9084
67,-6,-45,-1081,6225,7449
-78,79,108,819,-5191,-6220
-91,3,-112,1771,154,-5413
124,124,2,-4040,-817,-7385
-7,85,29,-3283,797,-3491
16,-117,-119,-510,1141,881
-112,-16,115,1131,-1752,10319
28,79,3,-1078,-3475,10602
104,13,107,-5203,1208,-731
-125,36,-118,10977,-1491,-8163
19,65,-35,1472,1145,-10858
-11,-97,10,3618,-1474,-10020
-88,-63,-51,1113,-54,-9750
-18,126,45,575,995,-5911
-20,36,55,1406,1268,-3076
125,89,18,1939,-716,2281
-90,36,61,1782,-1668,5443
72,-95,-11,179,-3431,9260
-62,-91,-92,-3179,-6348,8192
47,-63,-35,-4520,-2383,4081
-41,110,91,811,4996,-3487
10,51,58,5588,3210,-6856
-47,-116,20,-19,1965,-5224
-76,-35,-65,-1877,38,-3467
42,49,-12,-1309,797,-514
70,61,58,1378,1554,1735
-61,-92,48,914,-1133,6964
126,-47,-70,-33,-3070,11325
57,32,32,-338,-563,11938
-113,13,-16,-5300,-1203,8327
-100,67,-38,-2247,-6834,4994
60,-84,-110,4234,-5937,6733
-34,78,-33,3907,-797,6718
-18,101,60,1310,-156,-1796
-113,1,87,3784,-331,-4826
-10,-44,63,2588,1571,-2152
-86,-50,93,-836,838,-484
-54,-45,65,-2258,-686,-130
81,-73,-16,-1837,-252,-1114
-109,-120,-41,-355,493,-2120
-104,92,-35,849,312,-2215
-34,102,104,10948,4332,-10568
-110,-13,-63,-250,1786,-6808
-39,-121,21,-2125,-448,-6030
-14,95,-128,749,-988,-7344
1,-83,62,-1604,-1569,-6148
11,-18,86,-690,-737,-1052
27,110,-73,1252,439,7030
100,44,-105,-775,1098,8562
-112,89,-63,-2108,123,8787
-58,29,84,1857,1461,7057
-87,73,33,362,-1004,-4710
-101,3,106,2552,8,-7457
97,60,-117,-2290,-1623,-6606
-9,7,-91,-1264,630,-3469
-108,-109,-107,2811,2276,5810
88,121,37,-1645,-1870,8858
38,-27,59,-514,-518,7443
-45,32,-127,-1131,140,-5828
40,27,-93,5503,-249,-9064
87,124,113,944,-2508,-10800
-44,-97,87,898,-2492,-11894
-49,-19,-120,-661,596,-8374
58,-116,86,2485,2210,-2699
107,-100,70,1778,769,4458
-93,104,44,2622,284,7461
27,-10,-49,-3423,-1261,5561
125,22,35,-1845,-2172,5383
-19,96,-50,-295,946,-3560
-82,80,122,5003,-88,-6494
5,32,-110,-1049,-978,-6078
8,-34,113,-151,79,-2376
16,-47,-54,1285,396,-1
-87,113,-52,-482,-330,3449
4,13,-20,721,1078,7868
-62,-127,86,543,2007,9716
-92,124,21,-1060,2041,7538
-76,58,40,-2840,-771,5756
-29,-63,113,1589,-156,5605
114,-18,-6,1620,-133,6823
17,-72,-12,3732,1443,7137
15,105,-13,441,3223,2394
73,23,-31,541,-572,220
-19,-1,49,-223,-1882,-949
54,-102,29,-1517,-202,-1812
67,63,-17,-876,289,-1276
55,32,-33,-33,-245,-908
76,55,-47,-329,-230,-880
112,60,-66,-566,-261,-835
-114,67,-67,-457,-379,-602
109,73,-56,-158,-523,-543
-39,-117,-122,2422,3895,-6035
111,-95,22,2303,3143,-7423
-126,80,101,2772,2148,-7648
30,-48,-34,-418,-85,-6333
-75,95,59,-2681,-1034,-4135
77,30,48,357,908,336
89,-46,-58,149,700,5874
72,119,-98,-142,1177,8390
-88,-93,-10,-1510,1922,8813
4,91,-65,744,3712,1736
-10,37,-106,2928,-1748,-4893
35,-88,7,-692,-1443,-4832
-121,-48,-98,-1689,-634,-3301
59,36,-37,61,1442,288
-49,-39,-87,1325,717,6213
-108,-97,55,-1631,-3047,10468
-51,101,89,-2734,-2773,7460
33,19,-79,-2580,5531,-4965
-83,-70,115,6206,2121,-9358
-23,28,15,2782,736,-8320
-2,-49,19,-1627,-2364,-10149
-74,41,-15,730,-1824,-9676
-120,-116,87,-25,-153,-6985
76,-71,-4,2970,828,-3665
-125,93,55,2990,18,857
-41,7,-92,3041,-506,5645
-1,42,15,1438,-2807,8212
-54,-122,-111,-2583,-1022,5046
120,-125,64,-230,1563,233
64,8,17,4269,1990,-7087
23,118,-27,-1255,260,-5316
-78,126,78,-2203,-1072,-1745
-109,-121,-74,-309,-692,516
-117,-36,-7,518,-394,3260
-120,-72,124,2238,-2827,7859
-44,-83,-37,2735,-482,10082
-1,24,92,-1978,-3929,8859
-10,-73,48,-681,-2499,5940
78,-35,34,1727,-2232,4908
-85,75,-14,1366,-1780,4139
119,-87,-55,1506,-1732,2201
52,66,-100,1600,119,60
8,17,119,1451,387,-1057
13,-54,98,541,248,-1154
-2,-90,62,24,247,-796
6,-124,26,17,277,-825
59,109,-11,60,108,-786
80,113,-25,-52,-21,-712
91,107,-38,-171,-11,-688
85,97,-46,-77,-109,-497
120,27,44,3725,1881,-4386
-84,-16,-28,6147,5839,-7476
64,-123,80,2941,2796,-6322
126,-69,-2,-1430,-258,-5302
-44,-24,-17,-1449,208,-5074
-63,-81,-112,-989,-186,-3018
16,-52,-103,-791,-45,529
17,-93,-27,-743,-706,5276
65,106,12,-700,-151,8601
105,-80,100,-10,-221,8724
-110,-108,-126,-2124,2450,-2745
86,41,90,4620,-1778,-5807
-54,-121,22,-1471,-829,-5556
-112,81,87,-1564,-643,-2937
64,-87,-21,-743,276,23
121,108,-125,2205,554,6016
58,-84,21,427,-1585,9839
-32,-115,27,-2280,2203,5808
0,-93,-118,-265,-597,-6971
22,26,-80,3016,-1666,-8865
-82,-68,-72,1661,-878,-12130
-24,-110,46,-2414,-916,-13667
-104,118,-110,2299,3238,-8557
0,61,2,2700,2226,-3713
88,92,-4,2700,-148,2831
-56,-18,67,2841,145,5508
63,60,29,1325,-1233,9203
-2,-119,-103,-2619,-173,5755
10,-102,57,-645,677,1655
97,-117,109,5279,613,-6641
79,-46,96,445,-811,-4735
-57,-121,94,-2614,-1944,-2850
-91,-95,-9,-1849,-1074,-709
-45,29,45,1016,964,3417
70,-19,64,1525,1687,9017
55,-120,-44,-16,1362,11514
87,-69,-50,-545,4431,9648
-69,-37,63,-4697,-2338,8079
-40,95,-64,-900,-4204,3114
105,55,119,-174,-3123,4119
56,59,-9,-929,676,4419
51,-104,51,1101,-615,3172
51,-80,86,492,-1392,-1595
28,-12,62,351,581,-3296
67,-108,12,554,1677,-2098
1,-122,-2,92,269,-979
61,-92,-27,-1136,-98,-734
-128,111,-91,-317,494,-787
107,110,-81,300,42,-360
83,-85,-68,-279,-196,-218
89,-117,79,3423,3109,-4255
59,-38,-63,4080,3414,-6763
64,-88,8,-453,2509,-6949
5,-100,-98,294,1819,-6932
-50,-18,-34,-441,1759,-7834
-10,-84,-79,-847,2118,-5560
-108,77,-86,-877,-915,-714
-43,-10,-112,89,-350,4778
94,42,-56,1023,172,8058
-52,54,113,-1600,231,9048
97,89,-124,-1027,2314,8362
30,25,47,-1421,-927,-3359
10,4,75,4033,-927,-4912
-90,18,-19,-1878,-2169,-6020
123,-38,62,-1859,-745,-2831
73,76,57,1787,2539,4139
58,48,-60,722,-1986,9271
-15,69,36,-2029,4749,4660
-4,-119,-51,3208,-1303,-7157
-25,71,86,3453,-193,-7682
-128,-61,-42,1701,-2561,-10236
55,48,-96,1183,-1256,-9807
-71,11,62,1510,1272,-5780
93,-107,-35,2385,14,-444
-32,6,13,1368,-1498,3137
-4,-123,116,1423,-2267,6346
25,21,3,-357,-3465,7047
43,17,126,80,247,1956
86,33,25,3445,3246,-6296
113,-67,42,1401,-1245,-5402
-21,-52,125,-2629,-1102,-2870
-121,-93,-63,-266,-15,-528
-85,-89,56,2275,281,2394
-123,-74,-85,347,67,5799
27,31,12,210,1029,9042
-115,-46,-3,-1746,2045,8559
-28,-111,59,-561,-1329,10152
-90,82,63,-1911,207,2739
6,90,-66,-1008,-4451,5041
-91,97,103,331,-4251,6936
78,-16,-120,-444,-2669,6013
-117,55,22,-1765,84,227
-24,73,66,1452,342,-3508
22,-104,23,3027,1604,-3644
13,-58,14,420,1235,-1670
-30,-67,-4,-1599,-119,-473
31,-97,-57,-1101,-86,-395
89,-97,-93,-321,481,-753
116,-105,-112,530,278,-1063
116,-101,-108,249,119,-1048
46,-87,-91,8539,8157,-2580
24,98,-43,5792,3656,-5794
-109,46,-56,925,1298,-7354
-112,-74,-43,1143,-243,-7882
-92,91,7,-1192,-1490,-7108
-112,-57,-91,-907,-762,-3428
11,73,-103,-69,-10,2248
-44,5,-13,1843,-1368,11554
-29,53,-14,-1221,1265,8505
86,95,-101,2816,3483,8694
28,9,-27,-1827,-1813,-4875
69,7,61,229,-2171,-4122
-109,83,-16,-902,-1761,-2967
-71,-84,26,283,-114,-468
-65,-17,-40,-731,275,4131
98,20,-74,81,-1823,10313
47,57,-44,-4779,141,2816
69,-5,-44,9845,5393,-5105
-92,-94,-128,-848,-912,-8492
-81,50,85,3651,-930,-8352
-126,-30,-2,1240,-779,-8829
28,-37,-94,1133,390,-7014
4,122,-127,2127,-254,-4916
122,-77,127,1709,-127,-3558
-39,-114,-71,1475,-1262,-975
23,39,-121,2879,-934,5358
-4,66,-77,2587,-1996,7978
28,-115,18,25,-2762,8687
118,105,13,-3478,-539,-1805
-81,79,-72,3195,3494,-3749
124,-58,-104,5638,-674,-4558
-90,25,-103,-2495,-878,-2970
-75,12,21,-2478,-120,-846
-72,73,-85,104,505,1637
-74,-8,-122,547,-259,5357
114,95,-27,119,108,8233
57,-13,-69,1862,2174,9383
116,95,105,-2893,-222,5494
50,102,19,-2108,-2462,5128
121,12,-18,-1548,-3046,6220
-6,94,1,510,-2374,6536
-26,-86,94,374,-851,2497
96,75,39,2453,18,-1083
33,-65,69,3373,429,-1958
32,-94,60,1132,992,-1325
8,94,18,348,620,-303
-3,52,-52,244,82,109
27,97,-69,-286,-139,-13
79,107,-97,-90,-106,-414
86,100,-104,182,-321,-872
-4,96,118,2982,3573,-6258
116,100,-53,179,3953,-6075
28,96,126,626,3362,-6259
-123,122,33,-415,1397,-5503
-115,98,104,-1622,-102,-3667
68,-81,8,-1020,-253,-1005
23,26,-15,1152,123,3346
-23,90,-124,1635,100,8115
47,-100,103,-2039,285,7489
-64,32,-68,5094,4222,6333
-106,69,32,-394,-2055,-8266
97,-80,-114,-1924,-740,-7642
-52,53,-46,455,783,-4196
90,40,-56,2190,1781,-103
-23,76,7,1179,-828,8085
116,124,-81,-979,-747,7546
23,96,-123,-3103,34,5263
102,-25,-55,6211,269,-7381
104,47,35,1966,-773,-8654
26,-53,-112,1065,-2593,-10397
120,61,-85,2810,140,-9289
58,-88,106,2443,999,-5471
58,-19,26,2174,168,-467
56,29,73,1427,-1335,5483
57,-95,-120,727,-1931,7062
57,-87,28,-2357,-475,4789
-19,91,-29,-2316,-1187,239
42,95,88,5942,1128,-6071
-107,-124,-29,-106,-563,-4920
-31,114,-119,-2294,-790,-2794
-20,-108,-79,481,777,101
-87,-44,110,1333,377,2369
-88,-68,-52,-1037,589,6702
37,94,-62,-56,2660,9370
-47,-21,-82,-643,3824,6265
-7,-5,68,-1440,2938,4702
-124,-18,127,-636,-1644,3465
91,-77,59,-3482,-3217,1446
-63,-84,64,-4799,-3311,1920
-56,-114,-40,-775,-4804,5537
-57,-92,1,956,-2032,4790
23,-79,115,-1144,-658,3040
92,-108,-88,625,537,-218
18,-30,-45,2432,-513,-2315
71,-42,11,535,-246,-1078
-82,-107,-24,-979,-170,-643
-7,92,-63,-91,-373,269
54,-91,-29,-244,-277,909
54,-33,-47,-379,-3,360
55,-19,-66,-183,-82,-112
-68,-113,28,10494,1105,-1265
-69,11,-113,7253,978,-1853
-104,-12,63,3729,2201,-2210
-38,-46,86,-944,1409,-456
14,-18,29,-4809,-443,380
106,-13,65,-6799,-385,-1037
-101,42,-79,-6192,-1225,-1374
92,55,-92,-2292,-1867,-1291
-39,-112,100,-677,-2013,-513
-77,-110,-69,701,-191,521
-46,100,-65,2978,1106,838
-2,105,-48,4072,491,1641
70,69,-28,5907,861,1884
33,107,-75,4067,2214,90
13,28,-70,3423,785,-481
28,-9,-19,554,-362,-793
50,-97,-20,597,-227,-706
57,80,-31,1651,197,-960
83,-106,5,-771,-408,-507
111,-31,-11,-3877,-862,-204
80,31,100,-5707,-925,-89
-4,100,22,-4758,-1590,284
-26,-91,72,-2479,-1480,129
3,-35,-88,337,139,-92
-34,-29,-70,2249,-263,1067
-31,34,-76,1037,-815,1250
-39,71,-90,-1092,-897,760
-39,25,-111,-916,194,-177
-46,-35,-125,662,621,-207
-46,-7,-127,727,-29,-32
-19,8,117,203,-2,-125
25,-74,97,1608,42,-169
-6,-73,57,8608,-1392,-1556
-54,68,12,7053,684,-2178
-102,-62,-94,-1561,1230,-1733
-63,25,-124,-2614,-588,424
-18,75,39,-6359,0,1157
-6,-100,-92,-6782,-288,337
78,-45,-110,-3899,-1378,491
-68,86,74,-2470,-3415,781
-67,-53,-78,-2412,-998,915
-14,107,-40,1354,-52,136
-41,115,-49,2723,171,32
-51,-87,-62,1131,-249,-105
-51,-85,-44,-827,-100,117
-67,103,-67,26,55,108
-52,85,-99,723,408,-206
-39,72,127,923,491,-367
-61,43,101,1093,27,-501
-78,-29,84,2252,17,-503
50,27,74,6203,1245,-4016
-35,110,104,352,3611,-4122
57,28,106,-372,916,-6235
23,46,116,-744,-1212,-8223
-60,34,-57,-1193,-1158,-7420
75,117,53,-2576,-1203,-5425
-25,-63,48,-57,185,-1746
99,0,113,2210,767,3540
-25,-76,-24,860,1325,8365
106,-34,-1,-420,2023,8100
41,54,-49,927,4961,4998
-75,100,-57,-1531,-3404,-4626
50,-39,-67,4244,-247,-2737
38,11,64,-808,-1865,-2681
-46,70,33,-1198,-2156,-210
-50,-96,34,-484,5,6210
42,47,19,-1484,1399,5817
-39,-75,95,-2205,362,-2788
-24,-120,-125,5942,114,-6275
7,78,92,4756,-1459,-6231
10,79,25,1688,-5466,-9855
-105,-118,73,2124,-1826,-8601
64,-114,-111,3020,250,-4710
21,74,97,3386,172,-1136
-99,10,-122,1712,-123,2559
-88,104,-112,2783,-1024,6832
-58,26,4,-1772,-996,6069
-80,-61,-66,2423,505,4234
-112,-113,121,-3566,1396,-4067
60,94,-33,5734,-1183,-5179
-44,36,106,-1402,-466,-3675
-124,-90,62,-1444,-1497,-1497
1,-42,-118,-829,95,1004
-74,77,127,296,376,5483
52,105,-60,1495,1341,9543
-89,-57,-81,838,4928,10413
-44,-95,54,-2700,3519,6031
17,121,-94,-2305,-1403,7285
102,-25,-32,-3368,-3453,6986
108,-25,70,-1706,-4469,7696
98,58,23,-104,-412,3681
-11,-86,33,2384,436,-3539
-31,-28,-24,3426,1219,-4773
35,-90,-61,1939,1606,-2649
-8,-96,-35,-884,-290,-771
-11,-108,-58,-2070,-1433,-252
39,-106,-119,-1881,-490,-615
32,-92,119,-1187,-609,-704
57,-49,120,-1035,-686,-740
124,-27,116,-784,-289,-555
-24,42,56,1603,2714,-6622
36,119,86,2303,3736,-7044
-125,-71,6,-2085,892,-7923
-114,36,36,-1427,-210,-7706
97,126,-25,-4594,1126,-5154
-113,-80,-59,-1683,270,-1311
-43,10,-11,2705,-612,5607
-23,-5,-121,965,-974,8817
23,126,31,-159,1000,8377
13,-55,-112,3195,4666,4228
40,85,-111,-1503,-3494,-5265
-35,105,-79,1500,1616,-3951
34,47,37,773,-1166,-2078
77,-92,-44,-1731,-600,341
-127,-68,-58,-161,-2930,7971
66,32,-53,-369,1135,4858
-5,31,8,-3297,-2107,-4996
22,107,-40,6158,188,-8236
115,117,-115,6383,-566,-8069
-20,-81,44,441,-4773,-11225
105,56,81,3141,-1466,-8370
55,-9,59,1667,1221,-3502
69,-9,-20,3271,-195,3693
84,-56,57,3811,-1717,7534
-56,90,21,-445,-3265,5957
37,-90,-89,-1606,945,3576
125,123,41,-3107,674,-1704
96,97,-121,7070,632,-7692
49,-124,-62,-979,-152,-4355
-7,-55,41,-323,-386,-1961
-77,-117,-99,-704,179,24
119,-60,-91,-603,469,4020
-106,-109,-5,618,2138,11047
63,127,-43,-410,2699,11617
41,-91,-90,-6288,610,7220
114,-87,-114,-10893,-10082,5814
-10,-13,81,11114,-1324,3094
-125,-35,-70,8132,1733,3173
62,-106,17,4575,-22,7798
-65,-83,39,-9046,2518,4422
3,38,-106,-585,-2890,-4683
50,-58,-37,6532,-9,-4734
-125,17,-21,4535,2114,-2723
47,36,41,125,1228,-1051
-9,-29,11,-715,-165,148
24,-3,-7,-1348,-1163,857
65,83,-14,-2222,-832,763
103,80,-64,-914,-70,213
113,49,-85,1236,258,-577
118,71,-78,1145,-66,-498
-9,80,-91,2208,4327,-6464
120,-11,-44,190,6144,-6578
79,41,-9,-4356,3845,-5883
58,66,-93,2212,2845,-5716
-15,-40,89,868,1980,-5615
-53,65,-61,-659,162,-3138
7,70,12,1441,365,1115
55,10,-20,3092,-1798,9453
-36,49,-84,685,106,8347
67,-110,108,1433,2743,9216
3,-112,69,-2425,-3047,-5898
96,33,119,3733,1401,-5157
-84,98,-65,-664,-421,-5073
49,20,-22,-3068,-2211,-2584
-62,-60,-20,-1520,-168,1749
-112,-120,-25,900,-4238,9133
-54,-94,-39,-71,-2510,6707
-54,-97,85,-3327,1573,-1975
113,-82,65,4004,453,-7435
108,123,-117,733,-94,-8276
-11,-54,-103,249,-305,-10725
51,-70,17,1737,531,-9585
80,-63,66,1687,1715,-5980
45,29,22,2578,1352,-2520
117,93,-11,2916,-757,3032
-38,-90,46,3898,-1831,6275
27,122,54,524,-2595,6667
-23,-33,79,-557,-313,5159
107,55,83,-2358,241,-3486
0,-36,60,4863,1319,-5730
-43,-68,92,-1318,805,-4804
-22,-77,-115,-1300,345,-1792
22,7,-60,791,1154,537
-65,105,55,947,811,2537
-86,79,102,-133,-1271,7180
-3,-122,-4,-158,-526,9132
82,33,13,-1117,839,7675
116,71,95,-485,-1651,7186
3,24,-6,-309,-520,5618
-103,118,109,1829,-2737,6017
-115,125,90,679,-687,5124
-44,-99,-128,1109,-1292,4377
-110,-22,80,-177,-121,1409
-31,-18,-20,2603,251,-2917
-3,-121,-10,2862,826,-3172
-28,87,5,1383,634,-1812
-58,39,-8,209,-150,-672
-24,72,-24,-623,-486,122
33,103,-52,-742,-545,24
62,126,-55,-725,-390,-35
73,-109,-99,2977,4032,-5705
26,28,20,1141,4930,-7385
20,117,35,-1264,1387,-8857
21,-26,-79,-1119,1612,-8084
95,-100,-74,-1385,328,-5366
99,-6,-109,-684,-22,-1342
43,25,-105,-44,-112,3928
-71,74,-82,879,-565,7443
47,-94,-31,282,1439,8223
-16,4,106,-5221,657,5353
46,-39,117,3,547,-2051
-85,-115,-92,3588,1367,-6042
-89,110,62,-784,41,-5627
54,69,34,-63,-591,-2602
-67,-39,93,799,233,4961
-41,-16,75,1718,-2946,10508
-32,-117,-86,-112,-3463,11205
-92,-10,-14,-9363,232,-5
99,86,44,8244,-1957,-7065
101,-87,-106,-1192,-63,-9148
-14,18,105,783,-3049,-10570
51,17,-128,347,-720,-10913
62,-38,121,562,-265,-8843
35,44,29,1134,1130,-4416
14,42,13,1036,-192,116
-7,42,38,2050,-1086,5165
-64,2,101,1422,-1419,6049
-59,-127,98,-3845,-1364,3768
-101,-126,-124,125,1966,3058
23,66,118,1602,863,-5408
71,28,5,5097,684,-3779
-46,60,9,-2199,-920,-3914
52,-41,-6,-1353,599,-1428
13,9,103,237,464,1832
-32,-127,114,-1321,-276,6056
-63,4,-26,-1470,-395,10878
-8,75,-14,-1264,2980,12034
-65,-41,81,-2973,2002,7535
-15,-76,11,-2311,-1409,4718
-67,-83,42,1121,-3574,4770
-102,-57,7,700,-1753,4218
40,109,97,-2282,-1891,5182
-46,25,-63,-3116,256,3098
-41,64,-26,1243,-393,-2376
6,-99,-35,3518,690,-3455
37,-113,-28,2241,934,-2190
2,-103,-11,-428,193,-634
16,101,-52,-966,-282,-554
69,90,-79,-437,-123,-726
91,80,-101,132,-43,-807
93,-29,103,2354,2934,-3656
18,73,-16,3073,4164,-6242
120,47,-42,457,3036,-7542
-106,73,101,-461,1122,-8004
-99,107,-64,-761,998,-7477
-105,-29,107,-423,868,-4235
109,103,-76,431,73,58
-38,-88,-37,891,-2122,6962
35,-59,-117,1340,-1528,9599
-82,46,-120,2208,3736,9269
42,-113,-21,-2554,-710,-5524
119,-107,-107,2706,-451,-5838
-5,59,53,2293,-236,-5264
-94,96,-8,-1447,-1411,-3481
76,61,-108,-1198,458,1346
18,-38,-124,99,-1778,9428
-74,47,-43,76,-3308,10781
61,85,4,-1842,1477,6010
-52,-63,55,-3577,-1143,-5219
36,86,-127,6398,825,-8337
79,47,-29,1064,-1416,-10222
-69,-76,107,-596,-1878,-10457
7,119,-12,3004,-382,-9008
-126,33,49,1239,688,-4612
-97,116,59,1806,657,-542
5,3,53,2679,-133,4794
-119,-106,-9,809,-1380,9864
-38,100,105,-794,-627,6122
-103,-92,-58,-5715,-1159,710
-51,-111,-101,8128,-129,-6599
-87,-78,-58,-863,-1146,-5419
-103,98,118,-2532,-1439,-2875
-102,-123,-58,-1203,-73,-952
-127,114,91,1276,614,1494
33,-98,75,2319,2206,7430
31,-10,-49,2425,2118,12996
-111,-64,-101,-1808,4995,8172
-124,-62,15,-3352,-648,8449
-128,-54,-44,-6757,-4592,6274
-34,-94,-86,-3367,-4588,2937
55,96,46,6309,-3020,3709
-83,-46,113,3581,497,3254
42,-9,-59,-608,2023,-2012
-8,-52,-43,1966,685,-3430
21,97,-38,2339,296,-1954
28,122,-4,249,-46,-801
42,84,-36,-808,-95,-669
40,48,-45,-147,-301,-744
72,45,-38,103,-147,-463
110,48,-42,310,257,-236
60,-111,2,2432,2392,-3492
6,-98,114,3454,3832,-6067
-110,19,-51,2613,3556,-7236
-100,50,-76,578,692,-8594
112,24,35,-929,-425,-7573
106,-72,-100,-839,-295,-5469
32,-58,-82,-822,24,-1957
50,-83,-98,1,676,3523
71,-53,-33,495,-292,9472
-44,-84,3,-753,859,9686
27,115,-30,2147,5056,7506
117,93,31,405,-3965,-7056
98,73,-51,2685,810,-5788
110,103,92,-296,-411,-4834
-73,32,-4,-1301,-661,-1631
-70,99,106,800,-70,5639
106,92,-29,-1613,-2247,7654
-19,-31,49,1370,2606,4273
101,-31,57,11,-2473,-7777
125,-106,-102,4266,1405,-7995
19,-28,116,2903,-1567,-10098
0,104,87,758,-1852,-9742
-63,29,51,1682,964,-6650
59,-37,2,3348,600,-785
-127,9,-1,3418,-926,4370
-37,-109,91,2740,-198,5822
37,-50,51,-2649,-1085,5993
19,-56,100,-977,-364,4185
98,59,14,-350,1919,-4753
70,-82,-120,6149,-640,-5177
13,-30,-87,-2244,-338,-4767
-31,-62,-9,-1709,-725,-1272
-3,-57,47,2216,1048,1083
-124,-111,-102,-1620,-170,4980
28,-113,-72,788,999,10872
14,90,-72,1409,3331,10867
116,67,-113,-2866,1284,10079
90,90,-48,-4875,-1827,5746
85,100,-117,-2343,-4630,2944
93,34,53,3137,-1846,5262
-45,100,16,4218,552,4329
68,-108,-19,1806,-82,-1474
-29,-40,36,1537,-752,-2764
19,102,43,680,505,-1554
-7,73,17,-279,690,-487
28,63,-21,-239,-62,168
1,91,-50,-437,-509,-221
65,95,-51,-493,-325,-544
117,103,-61,-340,-51,-610
109,71,-82,507,104,-848
-93,13,96,2951,3516,-7243
-31,-27,84,168,2956,-7580
53,110,36,-3280,1601,-7140
35,59,-62,-3663,2161,-5909
-61,115,82,785,1292,-2779
-111,-116,-14,1891,-452,1115
-14,121,34,2038,-2731,9119
22,-97,106,1836,-291,8849
58,0,-104,-3396,-2069,8885
-28,-10,-108,-5809,-1565,-2678
86,93,14,8546,1525,-5388
-84,55,54,38,832,-5379
-38,23,57,-1976,-2003,-3068
106,127,126,-1613,162,-272
-18,83,12,1246,619,3915
-35,-115,-97,418,-3480,8942
-126,55,22,-2292,1032,3863
45,113,87,1309,-1118,-7811
-78,88,44,3548,2386,-7479
55,103,14,3105,79,-7651
125,124,-87,57,-1416,-9804
-54,-9,110,1723,347,-8180
-13,-30,104,1606,1081,-5198
113,47,9,3148,1177,-1231
61,50,37,3276,-720,4198
119,39,-92,3937,-1442,7209
33,66,-128,-1885,-612,6412
-116,29,-12,294,2432,3059
123,-84,-111,74,405,-4421
31,-8,-61,4063,-883,-4991
9,18,59,-1888,-1170,-4032
-10,-38,30,-1946,-1020,-1344
13,-72,98,486,439,1281
-26,68,124,1241,526,5699
-104,120,-73,1298,1568,10049
94,66,-78,-314,3319,11373
50,-64,-45,-1093,766,8179
-26,-63,-43,-5111,-2220,8179
51,9,-24,-1289,-3144,5292
120,-38,13,3462,-1862,3884
-58,51,86,1446,242,3868
6,58,20,-1200,-88,-1284
-29,-62,-12,1337,517,-4002
33,-120,-44,2194,1371,-2384
-20,-123,-31,585,327,-1276
0,121,-51,-1070,-372,-634
59,112,-71,-1089,-345,-870
115,100,-90,-623,-153,-1022
123,92,-95,-11,-130,-931
108,102,-89,-115,-181,-692
84,-67,108,-1967,3873,-5588
7,15,-6,3128,4304,-8698
125,-94,-63,-3690,1018,-7240
-19,-35,46,-2451,2243,-4336
-67,42,81,512,898,-954
-22,63,-105,312,-562,6146
-108,99,-24,741,536,8738
-95,69,-104,-2195,-1069,9382
98,110,-95,2849,2757,3966
-88,91,-47,1541,-993,-6627
-111,-79,33,521,752,-4636
125,69,103,-877,-1169,-2555
-48,-121,-29,-1100,-165,677
-25,25,100,1067,-1762,6478
14,89,18,-127,-2490,7285
-116,16,-128,360,3915,2973
48,-58,56,3535,-1049,-8210
-122,83,15,2217,228,-8431
-54,-79,20,1875,-1666,-9408
78,-120,119,1351,-1565,-9888
-22,111,89,598,83,-7067
-68,-88,28,2817,330,-2205
-110,-52,13,3566,-638,3110
-38,-77,64,2524,824,5121
-28,-16,69,-3413,-1731,4905
-123,18,-26,2086,158,5113
112,1,86,-3362,-177,-3443
78,33,95,3796,-671,-5134
65,-36,12,-2237,-300,-4534
-31,-14,30,-1053,-207,-1642
-101,46,87,2851,84,981
61,-61,75,2446,-499,3369
-119,-107,-43,984,107,6645
65,86,-21,2496,2101,9080
53,-61,41,-758,1603,8216
-18,-8,-24,680,841,7787
-71,-120,110,-4578,-2327,6145
-26,126,55,-2243,-2905,3945
83,-50,41,1561,-2275,1817
-97,22,90,2465,-663,2040
116,-39,8,3258,652,703
89,-13,15,2209,652,448
23,-2,20,-16,35,12
-18,-80,-2,-571,-247,-430
5,-118,-20,-226,-97,-418
9,-122,-25,-197,-125,-619
62,121,-32,11,-318,-799
83,117,-38,94,-728,-1107
77,98,-64,-102,-287,-1318
76,53,-83,-138,407,-1160
-47,100,8,2763,4199,-3177
-2,80,87,3087,3310,-4922
-40,-6,4,1305,4871,-7670
-116,-22,52,237,1030,-9244
60,119,12,-3262,186,-6234
-97,119,124,-1159,805,-3476
-18,89,111,256,973,119
84,-65,30,-150,-471,7317
3,14,100,1551,90,8991
112,-117,120,-2001,5824,5160
35,98,92,-358,-1862,-2480
65,69,-43,4128,-682,-4957
34,-40,-9,-473,-1247,-3759
-33,108,127,-1196,-2034,-1232
126,15,50,717,33,5818
-109,5,92,-671,-2023,8757
93,102,-108,258,5212,4352
46,-79,11,1660,-4982,-6765
-16,25,36,2179,337,-7669
111,107,-116,1855,-1183,-8545
109,46,67,1950,-2034,-8994
110,-55,43,2600,-605,-7115
-51,22,-24,3611,489,-3841
-37,-11,41,2783,-841,1319
-85,116,93,3735,-1239,4535
-56,92,-67,1604,104,4845
3,-35,2,-2581,-13,5910
-42,116,-58,582,715,3041
126,-51,-2,-108,1457,-5142
48,20,-40,3702,-2949,-5101
41,82,85,-2630,-1302,-4181
-102,9,25,-1702,-1370,-1219
-58,-10,116,1315,194,561
-123,-75,-101,798,102,4101
-20,122,-60,1537,1067,8346
-105,68,-98,1662,2852,10864
79,-110,-76,1069,2584,5014
-38,110,3,-3422,214,5654
102,-29,-97,-477,276,2371
-56,-116,44,-1939,-434,3035
7,-56,-6,82,-1045,3486
-69,-17,-30,3023,-997,3938
65,-66,92,1621,-1394,5255
21,-101,38,-2267,560,3189
39,-33,-91,342,273,-1325
85,81,-71,3086,288,-2395
19,62,-31,1723,31,-1599
11,86,-11,-805,-470,-305
33,91,-26,-1735,-515,-4
70,89,-66,-934,-284,-333
42,-60,39,3740,2505,-4731
-19,-101,113,466,3970,-5310
62,43,21,1182,1092,-7364
58,12,-32,-170,-871,-7937
29,-5,-86,-1544,-966,-6834
26,-128,104,-502,52,-3119
-77,-79,61,702,-290,1669
-19,18,-96,1377,-228,7979
76,-6,-10,-340,642,8419
19,24,7,2368,4133,9015
103,109,13,-5233,-2873,-4686
50,106,-30,4680,-810,-5546
-2,24,-60,-1094,-1073,-4569
-7,-8,8,-898,-1820,-2238
-95,56,91,1382,1928,4265
-83,77,-53,297,-2407,9130
107,52,19,-2456,1475,6307
60,-67,26,-3029,-694,-5309
83,102,33,6382,1169,-7415
45,-114,-23,1633,-725,-8843
103,-120,-92,346,-2174,-9948
-4,-32,88,1786,351,-7680
-34,-72,104,1383,1460,-4541
-39,124,-66,98,-367,-1367
2,56,77,2617,814,4904
4,15,85,2659,451,6745
-76,-66,-19,-2362,-1778,6231
-16,13,-104,3536,558,5181
83,-36,-22,-4392,550,-5091
64,-79,-41,6070,-1993,-4922
30,-124,-116,-2504,-1331,-4502
-57,48,8,-2220,-1313,-1373
-20,-12,56,971,365,936
-103,-100,-118,1036,-419,4892
-21,-87,-5,853,83,9396
71,58,-42,2464,2934,11681
-43,-48,-121,-1740,3669,6271
-25,-20,121,-2717,-822,7473
5,-23,-49,-4092,-2627,4607
94,104,1,-1062,-2879,2868
25,-14,94,2719,-2082,4501
-21,125,30,2120,517,2138
62,57,-38,1380,642,-1909
26,-95,-23,1761,346,-2168
-15,88,-14,1415,133,-1261
13,91,-21,-238,141,-91
23,105,-65,-1071,-214,16
56,100,-94,-540,-340,-255
112,-126,-85,-302,-363,-335
124,-121,-71,52,-229,-721
89,9,-104,2605,4143,-6714
-80,-123,-110,421,3931,-6656
80,-23,85,-820,1734,-7102
62,30,-25,-777,645,-8205
28,36,-82,-1161,842,-6347
109,27,91,1733,633,-2445
-7,50,-122,-448,-996,2435
-53,61,100,1610,-1672,9237
-11,-26,-114,1682,-12,10106
-99,6,90,-370,2697,9240
51,-85,-118,-2167,0,-3993
28,75,114,4010,-2621,-6696
-6,127,-87,-1604,-656,-4942
-97,97,59,-822,-987,-1360
16,-100,82,1511,2149,2103
62,-101,-26,-698,-3473,9441
60,-86,-55,-323,1737,5311
59,-69,127,-3643,-1607,-3233
-34,-80,-78,5891,204,-8106
-57,-105,-61,1182,-1554,-9962
53,123,76,429,-2113,-9188
94,-21,-46,3503,503,-6078
17,-56,-33,2730,388,-2185
-81,83,0,1886,-59,2593
-79,-66,64,2620,-1792,6870
-104,114,16,-2018,-2042,5931
47,43,33,1293,898,2736
23,-48,-65,977,547,-6292
-115,79,-65,1994,-1341,-5192
47,-37,-116,-960,-29,-3806
123,-7,85,-1748,-695,-1626
-44,-60,105,1785,886,378
-111,122,-124,618,589,3785
-38,-115,-33,-889,-74,8470
-32,-91,-61,1015,1393,11217
-14,-45,121,-181,2990,7996
-49,70,-15,-2432,-359,7030
-55,-90,-59,-3148,-2340,5567
92,72,-35,-2241,-3708,6900
-90,54,85,2330,-4457,5340
99,19,75,1455,-155,3162
-34,-56,77,236,226,-2866
-32,-10,36,2142,1311,-3183
-30,-92,-22,1713,1560,-2086
-8,-75,-32,-164,383,-973
-1,-105,-60,-1154,-669,-908
72,-115,-70,-1053,-339,-868
-108,123,-117,-158,449,-1224
-116,111,-121,299,-82,-1348
-126,-111,-85,-524,-282,-913
68,0,-81,1093,5803,-7949
81,-52,3,1766,3210,-6570
-61,-122,-59,-239,928,-7833
57,12,-15,-2753,1405,-8071
-21,-10,-104,-906,2396,-6192
15,-43,-99,-331,956,-4308
-31,53,80,-945,-850,3562
21,115,42,2411,-845,9010
-106,-32,-81,818,-227,9998
6,96,53,2703,4560,7829
-60,79,122,-3255,-2131,-4275
-12,38,-3,2010,-750,-5080
2,33,-85,-1395,-1608,-3373
15,-63,-40,-1054,272,93
88,-84,-126,1176,-881,9476
108,-80,-60,-879,-1582,7055
62,-125,-73,-2242,461,1572
119,106,-64,6763,465,-6720
109,18,-17,1721,-140,-7568
-47,117,-108,2569,-1779,-8458
-65,106,-116,3146,-1955,-9635
-1,2,-100,1318,-668,-8634
64,-17,73,3367,1128,-3720
53,-65,35,3559,127,846
-2,-2,76,2659,-176,4570
-20,-12,-109,1704,-1075,6634
-109,-105,49,-1819,-2417,7101
-7,48,29,-591,652,1423
42,-122,58,3842,1408,-5765
125,89,-105,1355,-1944,-4917
76,-64,126,-2611,-1166,-3078
-100,-102,68,-1253,-804,-657
-86,61,-118,1375,1141,2214
-86,69,-48,277,1389,6624
92,46,-73,570,1805,9436
-58,73,97,299,2706,9790
71,11,-81,-356,1547,6872
-58,88,-120,-3723,-958,6402
-12,93,-101,-19,-1640,4710
-90,77,22,2768,-992,5280
-55,-8,-89,-984,-1495,5434
-115,19,-31,-3338,1110,2203
-35,-31,-36,2903,-114,-2896
-1,87,-20,4872,329,-3474
32,118,7,1744,1041,-2217
48,87,9,-843,668,-768
121,27,-37,-685,-158,-52
47,36,-43,-464,-857,-287
87,95,1,-1341,-845,-19
74,125,-40,-1689,-181,-252
99,-117,58,2578,1533,-4899
53,-18,122,1206,3979,-6362
-104,-119,99,1930,3767,-6820
-117,68,25,950,4224,-8235
5,22,111,-2818,1381,-7100
98,-75,-47,-862,1209,-4202
-6,-75,83,1965,-54,317
-1,102,-80,-606,-2677,9408
-63,-22,11,-605,-1015,8954
-112,-41,-125,5828,5499,7191
-9,69,6,-1720,-4644,-7792
31,82,-11,576,-1342,-6826
93,58,126,-1414,-1324,-5234
-61,-97,-80,30,1422,-1728
-50,12,103,957,1307,3122
110,-23,-103,53,-1127,8660
62,19,-36,-33,-2169,8790
-102,64,-68,-4747,4747,-239
-6,-115,-103,6262,-4836,-8066
9,109,12,1242,-1379,-9633
89,-6,58,604,-2392,-10032
-112,-59,16,2143,-1036,-7737
107,101,45,1508,532,-4530
-19,-86,45,2266,743,-307
-41,-68,97,3433,-590,6507
-20,85,-72,1237,-996,7047
93,50,-12,-190,439,6727
-65,-91,-76,-4985,-1128,-3274
108,46,-87,5950,-860,-5682
36,-128,-37,-859,-708,-4253
-19,82,-126,-2013,-812,-2307
-24,89,-82,-248,861,-500
123,90,46,420,1489,2344
-19,46,103,742,573,8779
-70,119,5,2561,1053,14218
40,85,20,-1961,4581,6929
40,-123,111,-2725,385,5384
57,-13,1,331,-1225,8760
125,-102,-7,320,-1183,7417
24,51,-58,-5375,-645,5502
-120,-21,41,-780,-3664,-2541
14,19,73,5071,-358,-4904
47,114,34,3533,2860,-1975
-39,-84,41,-447,2124,-809
-55,-122,-4,-1448,-73,378
29,116,-58,-629,-427,26
107,-126,-79,-45,238,-637
110,96,-99,902,329,-1469
-113,95,-74,573,-191,-1453
-82,94,-67,-219,-268,-1094
52,72,35,5258,5923,-8681
-104,79,-65,3603,3221,-7559
58,-105,20,-1551,-1370,-6901
-110,-128,105,-2452,-594,-5350
-64,99,-54,-327,756,-2223
-58,-128,30,1439,1221,2331
-46,11,60,192,-767,7010
47,9,71,820,-1595,9034
-86,-110,-124,547,2128,8512
