AccX,AccY,AccZ,GyroX,GyroY,GyroZ
26,-54,-112,2622,-574,-4928
-117,-114,25,1807,-1228,-5849
21,5,-30,562,-3417,-6607
-53,-21,20,-2180,-2551,-6458
52,118,78,-2652,-1254,-5399
-111,-103,-87,-2228,749,-2928
-120,114,-42,4429,1520,2937
-51,-34,52,44,2854,8951
-63,-83,-104,1450,2849,10104
96,125,60,2090,4084,14565
98,-57,-94,6523,4779,2442
-90,-50,-51,-4117,-7073,-10695
-72,-10,-13,3843,-2737,-8330
-19,-41,119,-3931,-4750,-8336
-110,66,33,-2388,-1201,-7706
64,-51,-24,-1991,1328,-4902
106,70,-42,770,2366,6347
-64,-71,-72,-909,746,9795
62,-125,-36,2837,2619,9960
117,-85,-21,6655,3457,12676
-51,-51,67,-1164,11421,3605
1,114,89,-217,-12130,-11537
-74,-3,101,663,-3588,-7681
37,69,101,-6492,-6688,-10213
24,70,-23,-864,-4537,-12774
13,47,-41,-1829,-4938,-9611
-15,-9,110,270,-2697,-7429
-78,-31,-11,3502,-2222,-4717
-70,60,117,3409,635,933
-103,27,56,154,2328,2614
-79,-123,-89,3051,1869,6094
21,96,26,3030,3167,9809
56,-112,-116,-271,4282,11001
-105,-126,120,-7894,2674,2966
-29,53,75,8329,-2872,-2961
-18,18,127,5113,3513,-371
82,-69,71,-187,2326,1133
88,0,-8,2493,-3591,103
-117,-10,-125,-1432,-967,3019
108,-64,58,139,2743,5204
-109,1,-84,1751,3361,5096
47,-70,40,1631,1603,5912
-97,-128,-40,-285,1044,4875
40,-57,-31,6367,70,3068
38,101,-112,1562,915,3223
-87,-115,110,-2031,1414,2705
-46,15,-108,-1561,-1094,328
-121,83,3,516,-2627,-2127
-43,79,15,1391,-1554,-1876
14,67,-7,469,504,-1022
59,-117,32,2112,881,-6067
-107,26,-19,1572,-832,-8192
-124,24,-80,-461,-914,-8470
-60,68,60,-1178,-1454,-7898
-113,49,-109,-2957,-768,-5066
103,-1,-90,1009,-323,-3211
-36,-105,7,2497,3278,7311
104,76,26,-1534,2588,8382
-102,75,27,2099,1398,10490
95,109,-35,5126,2252,13294
45,32,53,6198,6854,3422
119,-91,22,-8865,-9204,-8930
21,20,-95,4797,-1777,-7111
103,-64,55,-3106,-3496,-9103
64,-37,4,-1985,-1564,-8065
-102,-90,97,-916,-643,-6569
-45,-80,-128,3867,-642,1706
2,28,34,-2940,5240,9086
81,125,125,-964,4263,8816
62,-14,96,2201,1464,12956
-62,-110,0,14516,1560,15150
-79,30,-87,-23843,11839,-1790
-70,-83,-58,10559,-14570,-7216
-53,-77,84,-2200,1391,-7077
-23,-72,3,-2500,-4494,-11337
46,69,-33,3090,-6414,-11502
-120,103,-9,-3133,-8107,-10525
-14,-77,5,-2577,-3868,-9395
59,27,-25,-12,-2604,-6276
-73,-48,41,1203,619,-2887
-24,13,-56,-390,-613,1729
-28,84,118,939,1531,2028
126,37,88,2446,502,8205
56,-82,90,5287,-674,10260
121,103,95,8410,3245,10448
-88,-120,21,-12289,12695,3622
-42,-30,22,6384,-3862,-2153
56,-98,-53,4098,-5844,4233
-28,-62,73,722,1714,4471
-18,59,-33,1142,1318,5085
-23,-67,57,2158,4760,4445
-124,-2,-94,3112,398,4038
-80,-2,-18,-1250,877,4795
76,-72,116,174,-2219,2498
-66,-78,-67,-164,-682,1129
43,-124,108,4353,259,-1101
-22,-41,115,2626,397,-233
-71,-73,108,1092,515,-762
-63,96,109,175,651,-855
-55,78,-95,-604,-379,-504
106,71,-124,1370,-344,-7694
-54,-98,-107,238,-1731,-8212
26,-60,59,-281,-2438,-7047
-56,99,-71,-1515,-984,-3511
-82,-84,24,1488,-1220,-1151
112,-59,47,1900,2311,2984
-4,117,-5,716,4040,5718
29,17,101,798,3491,6762
10,-91,108,221,1319,9376
41,-80,52,-8175,2689,7610
90,47,-25,7558,-4759,-5748
-65,119,-40,785,1048,-5336
-105,-117,-109,-1198,-584,-7744
99,-22,41,250,-2728,-8602
-74,-75,-1,-2721,-2713,-6793
-125,-114,34,1241,-1405,-3153
-58,18,114,1289,1884,4933
-64,80,101,-2292,1319,6765
-69,35,15,2029,2644,6827
99,-99,57,3318,-114,11087
72,-97,-90,3296,4083,10454
112,-7,-23,-2186,-4721,-1337
-35,-126,125,3741,763,-8922
68,38,119,-1464,-1102,-7804
70,-127,83,-988,-4231,-9557
-60,90,39,-1384,-4152,-11457
38,-23,-38,-3363,-5496,-10138
43,-2,-52,-739,-2062,-8686
91,-34,102,-1321,434,-4490
-76,72,85,2496,2132,-1938
9,-17,87,2230,1921,1598
45,9,43,-1427,1795,3489
-11,33,5,2517,-174,8657
123,-98,63,3706,1889,10446
-67,69,-57,1697,1491,12571
-32,93,45,-18034,-1561,4869
93,-115,60,19149,-5055,-3868
-91,27,-95,4954,1011,1894
-121,98,-78,-2441,568,2632
-60,-73,-66,-7,503,4066
23,-42,67,3012,1592,3963
10,-93,75,4071,991,1620
-121,87,84,979,1379,3918
127,-15,-54,1232,2434,4182
89,72,-62,1638,1378,2890
9,-62,0,1108,2,2964
108,98,-86,598,-2132,1898
22,27,-71,14088,-339,-2049
-79,-21,105,2186,-1874,-2077
-1,-87,-84,-3780,456,106
73,1,-87,-136,-1290,-7144
86,-88,93,-1589,-402,-7299
76,119,106,-1732,-520,-7049
-60,-110,72,-726,397,-3952
-120,-45,-120,3645,369,726
111,89,2,-490,1330,6017
70,-82,-120,-136,917,7751
86,60,24,3218,292,9773
15,73,41,3333,-1839,12150
-13,-50,-73,8796,6004,1501
108,97,-59,-4926,-5152,-6726
120,34,114,1886,842,-6766
35,60,35,-3004,-3784,-8030
104,53,-39,-2402,-2311,-8527
83,-29,-29,-3473,99,-5251
-125,-116,60,2435,136,-2533
-17,-108,32,-1783,2294,9239
119,-31,89,-166,-400,8281
41,-34,-26,3680,-574,10495
92,18,5,8571,-275,12314
-88,122,-62,-3108,146,-4436
66,86,-33,1787,-3565,-7532
21,31,31,-929,-2616,-9657
-96,126,25,-3444,-3286,-11834
119,85,-20,-50,-5384,-12575
68,103,-123,-1626,-3840,-9110
-121,95,-78,726,27,-3257
19,16,32,561,808,-3274
-126,110,115,1016,1709,-563
-81,-27,125,2639,-511,1304
20,80,-99,-204,2359,5596
-86,19,-125,2973,-376,9160
116,-54,15,3092,1041,11018
16,9,-73,-17,5509,6886
-106,69,67,-3197,2792,1373
-80,2,-81,1121,-3568,-376
-38,-113,92,932,-1812,704
93,-28,94,-1059,429,2283
86,-38,21,197,-1789,2506
126,-72,-31,2529,-1474,2770
-69,58,-19,680,-713,3278
13,104,-122,221,-252,3834
-41,102,-87,2033,-1383,3445
75,56,-39,1258,-482,3733
26,61,-60,3485,-271,2388
-57,-3,-97,3174,600,1168
17,-83,8,1264,-550,1056
-8,31,-14,1092,338,951
-41,-6,-8,194,103,1083
-68,-72,25,735,-702,874
23,35,-92,2110,276,-5917
45,-115,98,-534,572,-6152
-128,18,52,-152,-108,-6530
-37,97,100,70,-829,-4767
67,57,-119,235,-679,-3051
78,84,-42,4390,1661,2195
1,47,67,-1891,2650,7538
43,-16,111,126,236,8005
21,67,2,3295,-350,11629
67,-17,109,4891,1507,5159
-40,-53,0,-4975,1525,-8195
-18,-103,36,6264,-3311,-5834
-35,85,-30,-3396,-1509,-7818
-22,-2,1,94,-2647,-6771
-118,69,-124,-819,-2003,-6811
-88,25,-3,4470,1762,439
56,-42,75,-4160,3343,11738
105,-85,120,-1704,833,10023
115,-65,-30,2696,-257,10336
-49,11,-72,13885,3029,12732
-92,48,74,-6190,10454,-6765
-101,38,117,4073,-13801,-7472
58,-32,-99,-2259,-364,-9952
125,-58,-27,-940,-7059,-10253
42,-10,50,-1156,-4244,-13122
-43,55,-24,-1478,-5598,-12367
51,-110,101,-2508,-3142,-11549
0,-99,65,1755,-2830,-6416
118,69,75,1672,1172,-1358
-69,-55,51,3151,2112,1513
56,-121,-77,4678,2180,2101
53,-54,-2,1413,2984,6749
-44,-128,-47,1974,3172,5716
-41,-76,-107,-198,3068,8604
10,82,-49,-1604,2530,9332
-119,-10,79,-2742,3012,3178
-38,117,24,3320,-1426,85
14,-39,-69,5178,-1968,102
-119,84,78,798,970,2389
75,-35,-31,869,1076,1657
-90,110,102,-675,1126,2540
-48,-35,25,2830,1042,2678
-3,31,21,2528,2422,4064
36,7,72,375,798,4923
-100,-13,104,493,-32,3493
100,-30,-36,-52,624,1901
38,91,-69,1262,916,1943
-83,-10,-15,1578,-493,1752
-73,41,-65,9448,-1381,103
25,64,64,2201,-110,-195
31,32,59,-5827,2341,157
-45,71,-119,-4612,1276,-81
-22,-10,105,-1507,-28,-746
4,15,-108,380,-361,-1385
19,0,-93,1560,-292,-1468
37,8,-74,1530,-197,-1273
43,11,-68,690,-71,-891
43,4,-73,242,-46,-585
34,-6,-86,245,-190,-177
31,9,-98,261,-122,255
45,67,-109,-292,-101,504
53,104,-118,-690,-204,626
60,-121,125,-676,-233,529
63,-91,110,-320,-179,397
60,-80,111,540,-190,74
100,-58,-78,1178,752,-539
80,-43,-89,589,-289,6
85,-50,114,-16,-170,73
88,-55,99,-317,126,-185
95,-87,77,135,332,-311
92,-83,82,437,30,-15
98,-65,84,333,-29,76
117,-52,81,252,91,62
125,-43,83,321,92,117
124,-41,70,524,12,-50
-124,-36,78,503,-206,-188
-108,-45,83,528,-63,-194
-120,-51,92,564,-132,-140
-113,-46,100,552,-113,-11
-107,-39,93,626,105,-74
-106,-34,79,382,107,-120
-105,-44,66,350,-52,-47
-109,-47,82,412,-161,-322
-54,44,124,-26,177,-906
-3,41,109,1712,187,-2477
115,-79,-121,2325,-171,-3702
73,-9,-21,595,918,-7014
93,-50,-18,1220,-1077,-5975
-81,69,-22,-1395,143,-7452
-13,41,41,615,-1925,-8367
13,-55,-6,-758,1032,-4001
-52,-44,102,3212,1420,3651
-64,111,16,-1328,3242,8556
15,-34,-125,597,873,11980
-9,47,92,7078,1547,13057
72,-111,28,-4278,3329,-7590
-23,-103,-98,4907,-6575,-6567
-56,94,120,-1796,-2124,-7868
-68,42,1,-2276,-3503,-7734
-90,-53,105,-1806,-1120,-6107
14,-114,-17,3155,-732,-4202
-102,-54,-39,-2168,5431,9242
42,107,-112,-1905,347,8154
-61,-104,0,3458,903,9627
-45,48,-106,4841,852,12309
-106,117,83,4281,11865,12814
-106,-90,1,-5989,2148,-11997
-118,-7,57,7586,-12061,-3757
-97,15,91,-7652,-3061,-9983
127,36,-49,-824,-6288,-10387
-82,-31,24,-2157,-4630,-12567
28,48,-100,-5135,-6012,-10466
-16,86,65,-1647,-592,-10153
1,53,106,2397,-1318,-6038
110,42,115,-8,716,-2476
-54,-107,-47,234,1382,1808
-103,-91,-80,1567,1199,4375
-74,69,119,1461,909,7018
-25,-106,35,5108,1466,11596
33,28,50,8400,3670,14852
35,92,-77,-9969,9692,6520
-99,-92,105,2865,1221,-2470
75,-7,65,1664,-8667,-665
11,-30,-83,288,-3802,1015
14,-18,-34,-902,-998,2745
16,-46,-81,236,-299,1363
35,96,23,247,71,1564
-32,-52,-54,3452,-661,3104
-16,69,58,1542,116,3316
63,-8,-33,2961,868,3220
-94,113,-62,1675,1697,3489
23,-30,-60,2071,-314,1984
64,-121,3,533,-556,1480
65,14,-88,1683,543,942
-23,-83,-44,2204,-171,159
8,75,-59,2509,-26,133
-5,73,-26,2068,-331,169
13,55,-20,1237,-90,15
7,70,0,47,-132,34
-7,44,-5,-472,-276,-242
14,3,-27,231,61,-444
27,8,-31,186,101,-439
21,15,-55,76,95,-430
11,19,-68,-106,132,-546
29,1,-103,228,296,-519
43,12,-111,244,179,-304
52,25,-126,250,162,-105
68,47,117,360,6,-97
80,59,111,534,72,-221
86,84,114,359,-149,-194
78,85,-60,-732,-1176,-7068
-36,-70,59,-99,-461,-7038
-122,98,-54,933,-1316,-4629
81,-33,109,1702,3531,7071
118,24,40,-1225,2180,9756
124,-77,86,-254,279,11130
-17,-45,-95,4056,1306,14995
12,-101,-106,-5771,-6263,-7526
-44,105,74,5328,3861,-8100
-118,-45,-64,3545,-1347,-8173
-42,-52,47,-1921,-794,-9019
92,124,116,-329,-1604,-7993
10,-119,-57,-1032,-762,-5423
-10,26,96,3210,671,-1454
-99,36,2,-1528,3169,9645
-106,101,66,-1809,907,9071
-110,-19,107,1164,568,10930
44,96,-109,2789,-320,14612
65,10,-106,-5300,-267,5799
17,-125,95,1414,5130,-12790
78,-56,20,7560,-7098,-4726
-28,-115,2,-6196,-814,-9452
-104,-41,110,2284,-3015,-11715
-34,-104,-56,-846,-3065,-11233
-54,100,-38,-1621,-3598,-10768
82,36,122,-12,-2010,-7087
-5,38,-52,2036,-259,-2706
-114,33,-25,-1111,-665,-1562
12,76,-1,2603,-1244,1687
46,-10,-46,1029,510,3377
37,-24,-49,3500,50,9210
-14,-93,-80,5147,2239,11784
32,-58,-26,-3215,6657,7316
-24,-69,3,-6724,3218,2068
-71,109,-35,5516,-1730,247
-4,-90,57,4913,-5399,399
27,-86,39,-2203,-503,2267
-51,40,-72,-151,36,2748
116,66,-3,2324,-2104,2574
-99,-27,21,1032,-1680,3562
-128,-58,-93,2433,97,2666
-47,22,-16,3269,464,2672
-108,90,125,2728,170,2051
88,-82,18,-660,-515,1055
-3,66,-49,2866,475,-41
-75,-28,-35,3108,591,-517
-104,104,-67,2539,58,-753
-88,98,2,761,-170,-34
-32,61,6,273,337,-109
2,-36,-30,1256,588,-308
-53,-70,-58,856,-2107,-5890
-36,-37,-94,1762,-6361,-4809
102,121,95,-3384,-1158,-3387
-1,104,-103,-3019,-1832,-3581
-46,-25,-110,-526,724,-4132
-76,69,80,89,1368,-127
-4,78,107,2119,2743,2678
-23,111,-67,349,3080,6733
88,23,-18,1846,1403,8983
121,60,-9,6089,2616,9782
60,15,48,-2130,805,1893
15,93,-40,-2721,-2501,-7564
22,-87,-15,2529,-646,-7398
37,91,-52,-3055,-2730,-7576
79,55,-8,-3585,-1116,-6710
-72,24,71,-573,-611,-4673
-36,21,29,5476,978,-1778
-88,92,-19,-2724,3860,8319
64,-69,107,-814,1021,8171
94,-2,-24,2989,1471,9818
29,12,70,9416,3754,10198
60,94,-110,-11178,-1387,-819
76,15,124,2989,-1611,-5236
-117,-23,83,2157,-1584,-7115
96,79,-112,-1996,-4553,-7146
42,-108,-28,-1356,-4220,-9342
87,47,-43,-1762,-5648,-9383
6,-28,-73,-3065,-4509,-9766
68,-61,-114,8,-3830,-7814
101,-113,120,1855,-1391,-2948
-88,-98,114,-2894,-327,-2218
-122,109,64,2748,2026,512
64,-107,33,2177,2848,3320
-7,76,53,1417,2613,7348
-50,25,41,5425,7838,12746
122,107,-12,-4537,4551,7137
-113,-104,-103,-6854,2699,-6
16,6,-17,11405,-3498,24
-18,24,62,1258,-628,287
-10,-125,-66,-763,877,3446
26,20,-20,891,2931,4089
68,49,-125,224,1348,5802
124,-70,-14,607,1885,4187
-78,14,-66,2056,2021,4551
65,-80,4,1886,675,4497
-56,72,112,40,481,1685
42,21,17,-1377,-284,2406
-42,122,19,-2835,-405,2030
-81,-89,-54,550,-251,927
-84,60,-82,3133,590,-391
113,65,-96,2898,-2249,-4958
-53,71,21,977,-1981,-5647
-124,46,-23,-1333,-3083,-5151
0,52,-70,-1839,-1599,-5001
-102,-116,-53,-2929,-991,-4401
-19,-40,-23,-2239,-937,-3055
34,-12,115,2892,1075,-2333
-105,-69,-126,868,1145,3030
-124,100,25,1565,2358,4907
56,101,70,2908,3109,5456
-74,66,116,4583,4545,6303
63,-89,-3,-6455,-5243,-1173
63,-26,-104,4818,745,-7031
110,-13,99,-1739,-2443,-6976
-39,30,97,-1774,-2110,-4640
91,-14,-117,1241,-489,-2579
-114,-116,103,514,1125,2143
80,53,-16,-784,1265,5967
58,-86,49,2563,2220,5970
-73,-92,-3,2222,-490,9159
54,-74,30,-924,-750,8043
-52,28,-22,-693,-3788,-3711
21,-111,-87,1577,1840,-6595
127,-103,-28,-3543,-602,-6630
37,10,-75,-2340,-1542,-9195
-112,82,110,-2325,-3121,-9369
24,-115,-22,-2280,-3111,-8532
36,-116,-10,709,-2825,-5074
47,90,-116,-549,-1274,-1338
-107,-1,43,1980,-547,-1322
-86,81,69,2314,856,-50
10,22,-12,1480,1646,1212
79,50,115,1465,2681,2221
-89,-68,50,4796,1922,5433
38,43,-26,6157,4415,7970
-115,-21,30,-9383,4152,8708
-77,7,-121,3732,-1218,1087
106,-122,-51,2040,-1327,163
51,88,15,1790,-321,915
52,111,-5,1797,493,1665
65,-17,-99,3308,528,1252
-120,33,-126,1900,253,1330
-108,43,94,3225,875,2198
-67,-87,-104,2078,1346,3858
-106,103,-65,1209,1476,5934
121,30,77,763,2081,3973
16,-89,-44,-138,-864,2878
-5,-33,-9,1200,618,610
-81,2,30,2640,621,-748
-125,110,50,2478,-97,-725
1,-3,115,-1783,-2242,-6406
-74,36,-48,-2880,-2268,-6558
103,-52,-17,-4013,-917,-4018
63,-104,79,2279,-478,-2459
-56,88,4,3332,2351,4011
-116,101,-108,-366,2629,7439
-121,14,-98,3397,1756,7753
48,-23,2,6220,3724,11177
-66,47,59,-7840,-5383,-3984
53,42,73,5385,1363,-6937
69,-36,37,-506,-573,-7116
-20,111,25,-186,-732,-7498
102,-27,51,-2066,-2111,-5088
-73,77,-120,4765,583,-1529
-89,-59,97,-1549,1609,7577
91,36,49,443,1915,7213
61,19,-3,2651,-89,9453
-13,26,15,6006,2655,4831
-6,-55,57,-10604,-6133,-1239
-47,-59,-100,6331,2005,-9464
99,-92,14,-1905,-1639,-9152
64,3,-50,-1918,-3586,-10813
-27,-7,59,-3214,-4185,-10401
-86,92,77,-834,-4450,-10051
-86,-1,102,-1308,-1301,-1457
80,89,38,-315,139,-1502
-111,79,-56,2801,1233,-1023
-46,-93,-77,2272,2314,2528
-67,97,104,-2147,2358,7665
67,114,-40,2532,-858,9239
45,-40,-77,3096,828,8040
34,75,-77,-950,1642,2379
-40,125,-57,2511,-2244,4
-99,100,114,928,-805,1106
89,-67,41,2395,271,1755
62,24,-37,1229,-713,2750
-105,-48,116,3203,1058,2531
-95,-90,-57,1444,596,3257
-80,7,56,3487,1110,4168
-9,16,24,1932,2065,3964
102,-34,127,44,142,4903
62,76,-5,2739,1135,1814
-31,-48,-47,2670,-721,787
-35,105,-10,470,410,396
-68,-92,2,1092,27,207
-43,92,24,938,448,-51
-57,38,21,1793,-130,-183
-69,56,32,857,2,-70
-62,49,26,191,0,-208
-59,3,4,483,-2,-304
108,-45,-19,-1381,-1624,-5447
2,-92,22,-1774,-1463,-4941
56,92,79,-509,-710,-2856
-64,-74,-73,4062,-270,-556
-95,57,25,367,4133,6110
48,-88,109,-378,2682,8143
-24,126,18,2034,1888,11082
96,-89,-21,-2672,384,-2403
2,-18,33,2608,-4156,-8126
36,-69,-110,-1930,-915,-7464
-28,82,-90,-786,-905,-7244
61,-31,-73,-723,-1890,-5456
-125,44,28,2253,751,904
49,69,7,-3052,2529,6859
-51,90,64,1721,1672,6407
87,95,-12,4282,2477,7746
93,61,82,2279,1578,10306
44,0,-65,-2083,4102,3829
52,-122,113,1034,-4931,-9799
-26,75,13,-61,-365,-7286
-67,120,-75,-1767,-5148,-8641
73,4,-39,-987,-4244,-9842
-125,-5,10,138,-6552,-8746
-80,83,36,966,-5172,-6585
23,-78,101,-3602,-1429,-2982
19,97,-12,-1356,758,-3119
64,-40,42,1866,1424,-1294
-115,-44,15,-1706,995,1170
-32,91,-78,-50,1064,5542
33,-78,-78,24,611,10855
-37,90,87,257,-1131,12811
-98,-37,-83,123,4184,1375
70,-124,-66,4081,-4510,-2153
-21,114,43,1813,-3128,1124
107,-59,119,-107,444,3339
83,77,-12,3202,-910,2650
-1,99,-22,1487,790,3538
15,-32,127,3568,940,3837
-113,69,55,2910,1375,4055
-76,-60,64,765,554,5035
-63,-32,105,1237,1037,4582
63,24,-91,4050,243,3371
-97,-16,-25,3328,732,1157
-50,-85,-10,2572,42,-1034
-110,64,-42,3119,114,-1976
-50,-63,21,346,-506,-1772
72,-31,9,-541,-306,-1303
48,121,7,214,-818,-988
22,93,48,49,-882,-330
10,125,47,-1089,-546,363
-91,30,87,-973,-986,-7398
57,-92,-2,-123,62,-7979
-99,-123,28,-2969,-1120,-4598
75,-1,101,4259,-1784,-2809
-77,80,92,838,2528,5022
18,-52,-54,-682,3017,6516
34,-7,13,2898,2468,6444
-99,96,-76,7930,1746,6551
-39,-64,56,-7483,375,115
-88,-23,-35,4844,-3532,-6210
8,-67,-18,-1420,-588,-5717
-123,9,-36,-1906,-902,-6149
-94,23,-93,-1741,-627,-3879
-13,-61,-112,-1164,372,-1070
41,-25,-83,1792,1070,836
87,86,-87,516,1917,4926
43,-103,94,1455,1119,7039
28,-21,37,2035,579,8690
40,79,-36,5384,2545,9989
22,57,1,-5042,-668,-369
82,118,-71,5182,-2458,-7798
125,40,114,-3543,-1631,-6348
64,-123,-83,-1173,-3286,-8082
-85,116,-40,-945,-2560,-11095
14,-88,-12,-1327,-4425,-9915
73,-28,99,-1233,-2019,-8559
89,78,74,876,-1066,-6144
98,-84,77,1862,1091,-2285
-35,-52,-8,-875,777,-272
-91,39,78,-1318,460,2192
16,57,103,37,24,5043
-50,40,-18,1083,-1688,9867
93,-20,-42,-1112,-1879,8941
-25,-111,29,3257,424,3662
-112,49,43,5165,82,-2304
-62,115,-60,866,-2238,593
94,-56,-112,2111,-808,1621
56,-35,-30,688,-823,2912
73,-119,-77,532,-505,4247
-128,49,118,4044,1549,4138
-38,57,-119,3249,1819,4600
10,9,117,244,969,5624
-55,-59,-116,1808,720,4371
82,-33,118,1173,-964,3151
50,68,56,1153,1286,2214
-73,124,47,2276,-505,869
-18,53,95,366,-506,721
-25,-53,21,1085,804,659
-87,120,-43,2151,738,-69
-110,-119,-53,1465,63,-441
-28,113,-91,3487,367,-6386
-4,-1,92,-3258,785,-6429
-17,-20,-48,-679,-72,-7236
36,-72,-71,-2635,365,-6134
80,-39,-46,-1859,-133,-4816
64,33,6,25,-182,-3369
37,-80,-119,2096,-1012,-631
32,-85,-48,2305,524,3068
-70,-9,-51,1932,2110,4822
-10,20,95,3011,2101,6419
2,59,64,3097,1590,8992
7,-8,-36,10179,727,9507
-14,80,-97,3421,9272,2947
70,83,-31,-8268,-3841,-4395
87,15,-2,4466,-4184,-6030
-47,-4,24,-5111,1104,-6478
-95,90,-31,-947,-2284,-6056
-60,-77,68,-1084,279,-5812
42,105,-121,-912,-48,-3355
53,-84,-27,1085,-1092,-2303
-89,75,-6,2545,2281,4851
31,105,23,-1347,3179,6713
-99,-2,-103,-742,1055,8757
33,21,71,3102,1484,9943
64,-11,41,239,-3993,-3902
33,79,-90,-279,-342,-4831
-33,100,-89,-971,-228,-5349
-74,91,5,37,-2217,-7045
-72,-44,127,-1683,-1789,-10400
127,122,112,1783,-4558,-11334
-127,-69,8,-948,-3816,-7470
-8,23,-120,-165,-573,-3473
-78,127,-109,1719,1130,-1325
37,86,86,2740,4,-210
24,80,-70,5596,4031,5538
107,-65,-118,2719,5050,7476
-36,-125,-67,-5538,5759,8376
84,105,73,-2464,962,7332
-88,87,-101,-747,3826,2269
120,-121,62,1392,-1537,1572
5,73,57,-2159,-4554,-2090
53,-71,-17,-422,-2734,573
41,119,-26,-116,-1986,3807
-35,78,77,-955,-3109,5179
-12,-70,8,1076,-1860,5032
-41,-10,108,1468,-1063,4729
-64,22,35,3746,-579,3719
4,-111,3,1243,-1991,884
-121,103,-67,2740,933,133
-12,124,51,4043,1351,-659
-22,86,109,1777,-1926,-6625
-121,-76,63,-2034,-141,-7606
0,-111,-14,-596,-1434,-7965
88,67,-27,-2009,-1132,-7171
96,0,8,-971,-970,-4438
96,-105,76,946,-441,-2169
-128,64,-74,1964,287,2169
-68,-62,-55,167,1923,5152
88,-35,122,1425,1889,7041
-55,10,38,2174,1725,8443
-111,105,-30,5675,2261,10605
33,27,-73,-8390,4138,3781
-1,-11,0,2487,-9335,-7415
36,117,-26,-1475,2244,-5329
28,111,91,-1482,1421,-6572
111,105,-87,-360,-1350,-8372
-49,115,24,1456,-1361,-6751
-61,54,-76,-555,-2293,-2329
86,-92,27,1878,836,3190
-21,-114,41,-504,4053,6441
-27,122,102,782,3570,8627
102,19,123,1330,1466,11406
121,-16,-92,10983,5712,13424
24,32,83,-4022,2050,-9831
-84,48,90,1493,-9536,-8484
85,47,-30,-1915,-2726,-10231
80,91,44,-2738,-4215,-11222
31,-39,-120,-546,-4282,-10220
-106,17,-80,-2520,-1432,-9361
89,-82,77,580,-2400,-4841
77,-110,-30,-260,-617,-2495
-74,19,-116,1243,-525,-1220
30,-29,-91,2239,478,770
-44,-125,-117,872,1067,2262
104,84,104,2582,559,5195
-35,104,115,-2669,-1397,12366
-107,-114,-5,-6138,-4297,9284
13,-13,-53,3787,-1835,385
98,-18,-122,7779,3182,-4319
56,3,82,4372,-3496,-846
39,-88,44,1630,-558,1026
108,-24,-54,3823,1664,2912
77,-101,117,3567,1058,4157
-32,-42,-85,937,666,5495
8,19,64,2584,921,5381
78,5,104,3332,1789,4461
-52,32,-66,2787,405,3914
78,17,-4,-187,662,2595
-85,-28,84,862,-134,1286
-108,45,37,2529,529,488
68,-24,57,438,-723,-7366
-58,53,32,-480,-2876,-7127
-72,-82,-9,-2750,-1190,-6958
63,-36,71,-1506,-1228,-4728
82,-41,125,-1466,654,-1210
-66,-12,-116,3111,1134,1953
63,69,-107,305,2171,4984
31,-19,36,1978,1758,6933
5,125,-8,4642,2640,8000
-56,-20,48,-1820,2659,5348
-66,-9,-77,-1012,-5600,-4953
-27,-115,8,800,1164,-6421
-1,-74,114,-2094,-1188,-7015
-45,-20,0,-214,-1332,-6011
93,31,82,-1828,-442,-2559
124,16,-116,1782,-493,-1016
-34,47,-5,822,991,2549
33,-84,-57,704,987,5440
64,-92,69,2630,1825,6690
100,79,36,5967,2611,8202
46,38,76,2000,3998,6509
-33,101,126,-2402,-4400,-1606
-75,34,37,2308,-1180,-6997
-125,30,-46,-1944,-4123,-7338
-69,114,-39,-1168,-5563,-8443
-65,3,-114,-2556,-3971,-8767
7,103,127,-2974,-4261,-8058
-30,-60,-75,960,-3699,-7458
-96,13,-20,504,-2493,-4289
-35,-119,10,1021,-679,-774
94,-5,89,1011,-418,250
119,-61,75,4790,1950,1747
-36,-106,39,3505,5047,5383
-17,-82,-23,1499,5237,6875
58,57,122,511,4124,6269
96,95,-108,-6632,64,5244
-57,-114,82,5713,109,-889
32,80,-89,1559,-2325,-211
-68,120,-23,1969,-545,613
-98,103,-14,1618,-412,2766
74,-88,-68,866,961,4225
60,15,-83,1936,810,4296
115,-54,86,2138,1773,5707
115,-100,56,2693,1334,3200
-87,-52,-110,2635,1219,3711
37,89,9,1098,169,2467
-43,-105,73,372,707,1802
-80,-31,23,1955,485,1387
-89,-50,61,1156,-462,1108
-49,-99,51,643,2,476
80,-105,20,-1551,-1780,-6965
-124,-40,-63,-4274,-173,-7225
9,13,-69,-1441,72,-6229
6,119,-2,-2042,150,-4250
-66,-127,108,763,-107,-1822
118,106,-68,2204,580,1888
-45,-38,-53,1539,1741,4499
-93,-29,62,3023,2322,5621
-59,46,-7,2281,2503,7862
56,-97,65,-2452,3711,12066
114,-82,17,3645,-3139,371
56,105,53,-929,-4191,-5402
100,122,9,-1029,245,-6817
59,-52,-47,-1476,2,-7869
103,42,38,-650,-332,-6138
-90,116,9,-3515,1191,-1485
-8,34,31,3155,-617,679
-34,62,-105,778,386,4651
-119,-68,121,864,410,6435
-121,-118,64,3023,404,7397
112,-94,-107,1720,66,10275
-61,111,82,-8522,1634,1702
99,17,-58,899,-3804,-6427
121,-40,-123,-369,3132,-7829
18,-12,-1,-3886,-686,-8740
-82,-38,-32,-1412,518,-10241
-46,65,92,-987,-896,-9664
42,-105,-90,-1570,38,-8635
-86,-92,56,2713,-1837,-4954
41,-30,88,1309,-679,-1000
-65,123,120,-1459,-610,-278
67,-20,125,874,2,-1751
112,-122,102,586,1287,1640
6,-72,-10,2102,1686,4354
51,-63,111,1877,1007,7988
-94,-39,-34,2244,1496,9077
110,109,-90,-1063,1141,9618
45,-51,119,-2372,437,1635
-29,-49,65,4041,-1172,605
125,-6,1,1419,-2426,1954
-76,-50,12,-263,-2131,3364
44,-55,33,1192,-1122,3775
-126,48,116,424,-1709,5199
57,65,-102,3962,-957,2966
-11,67,10,2391,-562,2056
28,30,-95,944,-2067,2689
30,65,67,1516,222,323
-72,124,-80,2904,-191,308
-96,7,89,2851,1047,593
-126,-38,77,2177,442,856
112,-6,108,258,665,-8262
124,39,75,-1444,-633,-7732
38,-115,-48,-1402,239,-7477
113,-31,-90,-1649,270,-6168
67,-128,53,3154,-1922,-4262
-16,-121,-16,5003,1572,3814
92,-51,53,-2573,2953,5574
-41,101,67,2784,2082,6288
45,117,28,1431,3528,7757
20,-11,122,5999,2476,7768
1,-106,-100,-6067,-2612,-423
-128,-126,-64,4199,-964,-7611
120,111,79,-1721,-491,-7254
8,11,-61,-423,-2213,-7058
11,66,5,-1637,-2073,-4994
25,-97,-124,1022,-1867,-2927
127,-31,66,2203,1466,2988
-97,73,91,-1657,2327,6116
101,75,108,1937,2204,7582
78,3,84,2635,2430,8834
102,-115,14,18664,8132,12833
76,53,35,-11872,-4939,-7530
67,11,-73,1030,-6530,-6183
-43,18,58,774,-7477,-8084
-57,58,-117,-5259,-7899,-9764
54,94,114,-3087,-5012,-10305
11,48,116,-1990,-3983,-9995
41,-36,-10,188,-2397,-6659
-10,-86,-121,1273,1898,-4385
-117,-41,125,-710,3158,1197
101,52,36,2164,302,6889
-10,-37,-75,6195,1600,7747
8,79,-63,5273,4465,9395
47,121,33,-7075,6226,6588
88,-69,18,-6318,-587,7371
-84,53,12,5902,-2487,-154
-95,83,14,3416,-2526,1628
15,-125,73,-379,-387,2776
42,-12,-67,939,1350,2109
45,-69,-17,-1067,913,2545
-35,-91,-121,3055,-762,5196
-5,112,120,3274,218,3253
-124,92,3,859,-20,3266
-35,-19,80,1047,-1166,3359
-57,101,76,231,-559,1486
-83,-118,88,2446,133,1834
-87,-48,-6,4816,1050,1470
-73,-56,-18,3161,1161,-210
-9,-16,38,-2406,1363,769
-75,74,-51,-1145,418,-100
-33,40,80,722,-1244,-6480
-107,7,94,-2164,-1495,-6627
-61,104,92,-1451,-1987,-6404
-81,-35,20,-4228,399,-4778
-97,98,8,-1816,290,-4975
-77,-40,42,129,448,-3795
68,-96,88,576,531,-496
-125,-9,-123,-366,1679,4022
42,-123,84,3254,1732,5320
-51,32,16,3478,2384,8052
88,65,112,2352,1321,10276
-99,37,77,-938,-771,5375
109,-71,-108,-8187,-5185,-1948
-31,-36,104,5112,2311,-8380
11,123,-17,-1346,381,-9757
56,109,79,-1756,-1295,-7795
-31,-41,-103,-4231,778,-6026
123,70,-16,4471,470,-2765
-88,126,38,-99,1390,6193
75,13,120,647,1704,7751
101,92,-39,5213,1589,7862
58,84,67,10,2974,11334
-22,109,-24,1237,4083,10087
46,-28,123,-9213,-5407,-5310
23,-117,-92,7422,552,-7418
-79,38,-116,-3673,987,-9752
-81,-107,35,-1643,-4839,-10829
12,-26,120,601,-3351,-12160
113,-31,26,-2467,-4694,-10863
-47,15,-28,504,-3429,-7822
-57,-50,24,310,-2570,-4927
110,38,-52,1005,-2063,515
77,-97,98,3378,5499,4707
109,50,-105,3095,4639,9043
99,92,61,718,4838,6627
84,-37,-1,-5918,1342,8647
-26,103,-124,-5508,1419,-988
-56,51,80,7433,-3429,-714
46,-63,-116,2552,-2211,537
-69,105,52,-1304,-2181,2119
94,45,-112,3908,-1063,3208
68,85,-85,2350,868,2792
-80,-53,85,3177,860,4885
-107,67,64,3513,1312,4588
-87,124,-63,966,197,5458
88,-104,67,2028,-1656,2758
-26,118,-105,1406,136,1462
-125,62,-84,1566,1013,812
51,-51,81,3753,1453,-83
93,-88,37,2659,1123,24
119,-116,99,1176,-1256,-5679
88,-16,23,-2539,-1226,-5733
124,3,-107,-1133,-985,-6172
-10,-2,-36,-836,-470,-6415
-20,75,49,791,-463,-4331
56,-69,-105,-781,-845,-2638
117,68,-41,1097,-1154,-453
-68,60,-5,1941,887,3741
113,36,-11,1896,2674,4459
-79,117,-115,3089,3465,7835
36,71,112,1742,3366,11343
-100,31,25,-4651,3487,1665
23,-62,30,3196,-5726,-7156
-66,64,11,-285,-702,-7371
23,26,69,-1441,-2882,-7438
41,-76,118,-172,-2295,-7202
-29,-23,-10,-2758,1079,-4381
44,121,-46,3399,2161,2807
98,-65,89,-3872,2759,9053
-61,51,44,465,1406,8431
-65,-27,61,2126,1282,10505
97,18,-83,17312,-750,13768
-1,49,21,-15685,3621,-5233
-41,103,64,6870,-6434,-8343
-126,-18,83,-4268,-1989,-7468
59,15,21,-5655,-5139,-8866
-13,69,-42,-3450,-2880,-11035
57,-7,-83,-3280,-3683,-9903
-85,127,117,-1823,-2461,-8968
50,-68,-16,60,-2440,-6579
-54,25,-18,-50,-300,-1973
-26,38,32,-1561,289,753
-69,64,127,2095,1992,7460
110,-97,-47,7380,-141,9555
13,-112,-36,8038,4987,9939
47,64,38,-2139,6707,4962
-8,37,89,-5854,-871,-666
-72,-16,-8,1972,-3488,1012
123,113,-95,5156,-3901,160
29,14,-25,1308,-508,2307
124,95,24,-1364,-412,3189
-9,-23,-118,2086,-341,3703
-112,-14,-70,1756,361,4413
-116,-36,-79,1241,837,3915
-95,-117,31,1209,-777,2061
-108,-1,-48,3134,313,-357
-66,84,26,3201,28,-337
67,83,-108,1646,75,327
105,-20,-124,193,1085,1157
-119,-122,78,604,974,2113
95,46,126,-1024,-1013,-6847
4,64,-123,-1504,-1075,-7250
72,-10,0,-796,-820,-6047
-90,-80,77,-809,-518,-3221
-110,-18,-64,2005,-842,-332
-76,-1,-35,2904,2035,3348
77,-111,-85,1863,3641,5098
80,-94,35,2888,4192,7079
42,36,57,1519,3666,9818
39,-93,112,-9735,-3717,3952
-72,6,-69,4203,-1503,-7174
87,110,-38,720,2876,-6978
75,85,39,-2200,-2517,-6928
-4,-112,-61,-872,-1054,-6000
69,110,79,-738,-645,-4160
-116,74,-120,332,-221,-1254
34,9,-77,1642,1246,1888
121,76,-67,1649,2633,4674
93,122,115,1897,3592,6372
32,-32,-120,1085,3378,8731
121,-75,-107,-1380,1666,11990
8,-122,67,-1325,-3952,-3923
-110,97,69,2084,-530,-6238
-20,90,2,-2597,-1704,-7725
-13,-46,39,-4901,-2359,-9916
49,-101,-115,-3738,-4554,-10815
99,120,-57,-1204,-1376,-9751
7,110,-10,165,-3286,-7124
-116,-11,-39,-1414,836,-3646
5,-12,22,-190,197,-2133
24,33,-14,1338,2114,2270
-104,44,81,4435,3218,5623
-101,-122,-80,-1172,1062,11268
-107,-4,18,-2149,-2022,10415
29,84,-112,-2873,839,5023
-60,47,-100,7845,-3730,-3652
13,-70,25,3828,-2764,-1691
-98,29,-20,214,-2110,2449
6,-90,-67,5042,-1976,1464
-57,-18,-58,3139,829,4278
71,-59,-85,4862,1241,3750
92,-72,-24,3633,3920,5000
99,-79,-53,2232,642,5839
123,-27,-42,727,1050,5031
-118,66,-80,-2159,-2201,3691
16,-116,62,-2289,-1287,2113
-109,11,84,18122,-1520,-6749
86,9,-7,4012,1228,-1185
95,47,-82,-3864,1669,-513
124,-31,5,-2742,2169,-109
-40,-63,-57,-983,-1706,-7004
48,86,92,-90,-968,-6806
-68,8,-28,221,-338,-6613
-41,-65,38,2409,4963,3583
-56,-17,26,-1311,2059,11958
25,43,105,798,351,11760
37,-78,-47,-1418,2815,-653
-11,3,-20,2714,-6347,-8660
-106,-68,120,-5137,3910,-7213
-119,28,-90,275,-604,-8098
16,79,-56,1322,-1477,-5806
88,52,83,973,-837,-1808
100,109,-23,2984,1431,4125
65,7,-22,1771,4407,6342
104,87,81,3009,5737,7736
52,-60,-115,-153,4543,12851
-92,77,-109,-5788,1896,-1510
-36,77,-102,2604,-11814,-8509
-98,117,49,-6523,790,-9412
-70,80,-105,-3156,-2396,-10495
-104,10,-3,-206,-3193,-11229
-111,88,69,99,-3178,-7678
13,89,78,2463,-1449,-6719
97,-107,47,458,520,-3346
10,-36,63,2074,1881,-1294
-105,109,-30,2719,1789,2445
31,-22,53,1793,2717,6471
110,-2,-74,4141,4378,10531
47,-10,2,3329,6372,4833
27,70,34,-10872,1723,5218
-102,-75,-47,5197,-541,-2916
112,-84,-42,4913,-3793,1114
103,76,113,-1582,-1671,-156
47,13,23,-72,-411,1581
24,-113,14,-1279,-972,4643
-28,-8,-68,2483,382,4120
-103,-32,-106,5633,1860,6671
-66,6,-69,4251,4325,7024
107,-125,21,1112,583,4744
-54,-111,-105,2070,-351,1553
119,-31,34,2018,466,1895
-43,22,-20,1536,1491,1245
-80,-61,20,1191,120,1083
-18,-110,14,1005,172,1018
-21,-119,-8,896,343,494
-78,112,-14,913,-64,-543
-84,51,6,1233,-485,-983
-61,15,37,920,-474,-924
-48,8,46,386,-284,-986
-7,-22,40,316,-15,-1170
24,-33,15,452,647,-8816
-119,-106,-39,911,-2068,-8937
94,-70,-41,-2482,-940,-8334
8,-56,-33,-1607,-47,-6980
-48,60,65,-1457,-1051,-4591
-59,-109,-104,2741,-1456,-129
-51,-18,27,1612,2255,4244
109,-73,-70,1085,4360,5456
107,-79,24,3000,4378,6195
-127,21,-18,1852,4871,9295
2,60,98,4555,1016,1593
-73,79,-1,-6363,-7719,-2902
-109,77,6,1400,-1608,-6801
-5,23,-69,-4091,-2190,-6690
120,-7,20,-2869,-888,-5794
-95,34,10,-755,523,-4125
-69,86,40,15,999,-1499
19,-40,126,2171,135,1853
-79,43,-78,1596,2452,5859
-117,104,117,1941,3133,7637
47,-21,71,3030,4352,12457
-76,-31,-41,9984,6605,-2105
-95,28,59,-9333,-11183,-5899
23,69,-115,1845,-6078,-7738
-35,-101,10,-4692,-6812,-9771
-46,22,-94,-1505,-4074,-10163
-8,10,50,-1436,-1247,-9606
4,-51,-41,2184,-2401,-6011
-45,61,1,1660,-2652,-2798
42,41,0,1983,-701,6
94,90,107,2604,3302,3720
61,-106,50,1782,5175,6666
-12,73,43,883,7046,7609
22,119,-115,1455,7216,7680
-68,-68,32,-5363,3043,2901
-87,5,-7,-2538,-1025,-1364
-96,-48,-4,4115,-4285,1026
68,96,-11,1055,-3487,-52
-50,-1,20,324,-3408,1716
95,103,45,1005,-3045,3368
81,88,-12,971,578,4962
96,-60,-21,2970,2836,5278
-62,44,13,1747,3815,7213
-86,-110,99,1214,-821,2685
-102,-125,-97,4058,-803,2238
34,89,74,-121,-41,1581
-52,25,44,1675,309,1345
-54,56,40,4662,-326,1354
17,63,31,7436,-446,-159
82,37,98,-848,2012,752
-102,-27,0,94,78,-8293
35,61,13,1317,-2995,-8650
-112,-83,50,-2378,-1187,-7648
-53,-126,85,-1652,-1515,-5985
-116,-45,-84,217,-1326,-4178
6,48,-35,1994,1761,1719
67,-123,-17,-1179,3838,5696
-48,-83,92,1241,2542,6029
117,18,-28,3275,2771,7375
90,43,97,4865,2984,9852
105,52,-59,-2721,2346,164
-46,82,-125,398,-4618,-4480
113,62,65,-994,-2615,-6423
-97,47,-31,-1652,-4101,-7169
73,53,-63,-2755,-3330,-6626
-85,27,-32,-1621,-1474,-3178
-103,-76,99,1385,99,-462
107,10,-55,690,1465,3717
-73,-119,-123,1786,1764,5070
82,103,6,1872,1671,7007
-89,-110,-63,6734,2611,6129
103,-128,-58,-2139,-872,3734
-44,112,61,2031,-2525,-3919
-20,70,91,-1182,-2588,-3628
11,119,-109,-2116,-3623,-5363
28,0,24,-4272,-4289,-7842
54,-6,-48,-4082,-4899,-8029
-20,-15,76,-2853,-3996,-7368
-60,99,1,-2202,-1602,-5521
-48,-77,-69,3364,-857,-3625
69,-120,107,-868,829,945
-73,-48,35,6539,2033,3229
90,-64,-89,2635,5242,4392
97,-102,1,5448,4981,7338
-69,-78,-4,-2147,3345,6814
-13,-2,80,-2692,1748,2899
-117,-64,-86,3232,-2196,-1074
-81,9,-87,2064,1004,335
-59,52,121,-500,725,2031
-27,123,118,2793,33,515
-104,83,119,1745,384,709
22,-84,-126,3105,1315,1362
-30,126,-65,108,1687,3656
7,-68,91,3470,3680,4359
-1,-63,92,2459,3696,6219
-59,27,0,-420,2506,3402
49,-5,-9,2164,73,1056
-66,-82,-65,1298,134,-1173
-84,-120,115,3290,403,-2072
-41,65,-107,734,540,-1181
-58,54,127,-656,-2081,-6067
34,46,3,-301,-2401,-5501
-73,-20,122,-1074,-1555,-3016
33,-127,9,4145,-559,-1089
61,-51,84,325,3051,4536
-90,93,-125,1837,2807,5885
83,-49,23,3978,2514,7385
-35,71,0,2186,3580,2056
-5,-92,-18,-1731,-5819,-4879
-12,-88,76,-2731,61,-6126
74,-89,-10,-2468,-1468,-5934
103,-110,-44,-1410,-2207,-4513
-63,-66,22,-2074,-464,-1640
1,123,-96,3032,181,-423
14,-35,-27,2153,1847,3311
72,-47,105,4186,3360,5426
-85,-29,-65,5349,4258,7208
-111,33,-1,3856,6085,8872
-16,-94,-40,-2860,-3212,1253
-18,18,88,2914,-2834,-7296
-123,63,31,-3860,-4274,-5367
-62,-86,118,-3036,-6661,-8056
26,-23,13,-4390,-6282,-8535
87,-64,-4,-1611,-5509,-7858
-55,23,-5,-461,-3658,-4316
76,-88,67,-1037,-1129,-1926
-114,75,115,-148,-78,-249
-52,33,-80,5028,2136,409
56,-76,7,4212,4317,5421
-93,52,-97,622,5172,7945
-1,-21,96,-742,944,7009
123,-76,-71,2522,290,481
-66,-18,-124,2915,-2852,-1078
7,-95,-111,211,-1571,342
-99,107,-109,3145,-1460,1387
113,49,-96,111,194,2094
-29,-93,111,2305,677,3087
-56,-49,107,3629,1317,3805
67,-70,53,2925,2065,5258
-122,-54,4,3653,1732,3225
55,80,-123,1188,15,4436
-33,-23,36,-898,554,3131
-51,50,127,2807,234,1442
-88,-37,82,3780,-36,502
-27,-33,79,1685,378,155
-31,122,35,913,285,78
-80,67,32,572,430,-479
-114,-28,59,297,47,-1061
-75,-118,44,1304,352,-1371
-60,102,50,1749,-190,-1061
-21,73,-10,8336,-1385,-215
-91,-15,116,-2479,5320,9236
8,-87,-74,-1956,265,8795
14,-76,-83,4756,1141,11096
-103,-27,120,-7194,-70,5547
-1,-105,-41,5011,1424,-12033
-43,71,-98,3714,-2522,-5369
-23,-78,5,-5655,446,-8343
45,71,-118,2629,-3492,-8781
-90,-2,105,-1163,-1630,-6225
66,41,-48,-954,-3244,-4613
66,110,-115,6934,2578,3000
115,39,-62,-1411,5699,5225
-83,-100,-126,1584,4735,6537
-36,-49,32,1281,5281,8862
-118,48,-23,-3029,5583,5516
89,72,-122,794,-6687,-5588
52,67,-21,2251,-3076,-6885
88,91,31,-1289,-4797,-8538
-90,-51,-125,-3396,-6996,-10172
13,100,23,-1400,-5169,-10979
-123,6,-106,-2296,-3470,-8098
25,-87,59,1494,-2650,-5861
-116,87,14,1575,-1441,-1705
-72,50,125,3124,2632,2159
-9,-12,54,3282,4813,5823
46,-114,-111,-1204,3989,5611
-120,-99,-61,-212,1494,8652
1,82,51,1207,2741,6847
78,42,114,-7367,-923,3632
63,-61,-45,8280,-137,-1607
44,34,96,4289,-1880,-357
-125,-86,-23,681,-589,1593
-75,104,-8,2127,674,2374
-77,-36,-41,2223,2261,3446
-42,25,127,2609,2334,4162
34,113,70,383,2938,4604
56,122,90,394,1022,4984
43,-10,-11,-722,72,3786
37,38,-62,-135,755,3471
9,-58,-41,927,-1001,3542
33,-37,-39,1288,-1097,1996
21,12,-19,563,-146,931
-88,-17,-32,512,212,-631
-115,100,-49,2143,16,-2294
-81,13,-46,2831,-92,-2346
-64,-29,-20,2091,-262,-1953
-14,-55,9,747,-260,-1418
23,-90,2,74,-5,-1031
84,-125,6,-391,-15,-887
89,-98,-116,-1597,-2606,-5862
-81,-12,68,-2899,-2395,-5692
-128,50,121,-2232,-1626,-5463
-83,70,-45,88,-1588,-3836
-125,116,-57,1255,-1069,-1494
41,20,-127,1894,-796,2025
-106,72,84,2368,1945,2021
-75,-92,-126,3580,4676,2914
-82,-77,-70,1792,5731,5213
-35,-36,85,3813,3857,6069
-34,98,95,-2778,4193,7487
98,41,-31,-3137,-18,-2147
30,48,-109,4687,-646,-7445
64,102,88,-838,-2683,-7044
-117,-56,-71,251,-4048,-7108
-69,-12,-36,-1013,-3476,-5467
-33,-58,48,632,-2166,-2793
-35,-28,-25,2056,-863,11
-92,93,7,973,2100,4086
14,-42,70,-242,2872,5875
-127,41,-90,1789,2029,7324
29,-65,34,4851,2632,8315
42,60,-34,-3471,-177,3208
53,88,-68,130,-1905,-2681
-68,79,126,451,-1040,-7281
-29,-111,64,-1420,-3924,-8939
21,65,36,-2925,-4398,-9579
34,5,64,-2760,-3861,-8634
-43,115,-20,-1969,-3289,-7154
-106,-83,-19,603,-1513,-3792
115,39,21,855,3,-1085
30,39,38,2407,990,650
-37,88,-41,1903,2077,3158
-126,-58,10,6172,2339,6142
-120,-97,25,1090,2647,7448
-76,23,95,612,1120,6051
-70,14,-72,33,-53,1672
21,53,9,3609,-1275,-314
66,29,-56,2871,-1027,-173
-32,116,-22,4063,1056,956
-83,87,119,920,1573,2681
37,62,30,2612,1961,3118
11,-73,-81,4934,3490,1741
104,-21,-18,-635,2516,2553
12,110,-95,1286,2348,1323
45,110,104,-458,-368,822
-53,21,72,1916,222,2
60,-95,-57,1324,703,6
-114,83,-105,1159,789,489
12,108,115,-381,897,1183
-40,123,-26,-3065,-1532,-4309
-53,-70,56,-818,-2222,-4788
113,-43,-69,-824,-783,-4713
-104,95,16,268,-1331,-2631
54,-114,55,340,-863,-1401
15,66,13,-432,1507,339
39,98,-28,838,1294,806
-20,-110,47,1137,2437,2741
-15,-20,32,2421,3361,5327
-41,33,-56,1000,3679,6983
48,21,-118,2234,1746,9982
-76,-65,100,1145,2874,10432
93,99,-93,-401,-4623,-4560
77,-3,76,2883,967,-7831
82,38,-109,-2859,-2084,-7048
103,-23,125,-1620,-1548,-6865
72,123,-90,-1175,-1632,-6154
-40,-120,-69,-513,19,-3147
-32,-16,62,842,-178,1211
-75,42,44,335,1329,4885
74,-117,-30,354,2010,6990
-15,-52,-83,1263,1881,8743
122,-21,-52,1088,1070,10362
93,-75,13,4526,3543,5871
44,57,114,-5359,-4757,-7803
20,17,-11,3834,-4120,-9501
-104,51,43,-2854,-7236,-11566
-57,-25,-38,-2267,-5597,-12145
51,40,84,-2446,-1326,-10306
49,-27,-18,315,-1582,-7093
70,16,-58,551,-1136,-3236
-92,-39,-54,2301,804,159
104,55,76,2061,393,3974
80,65,87,3157,250,7132
117,90,84,3873,893,11474
25,99,122,-1086,4128,10312
-74,-98,29,-3917,188,3205
-106,-97,44,7442,4164,-442
82,62,-46,573,-2254,2403
90,-92,75,1981,-2271,1705
122,-42,-110,2028,100,4175
-16,47,-26,-750,248,5881
2,5,19,3784,2023,5713
58,70,-15,2760,1960,5205
-44,-67,73,177,1557,3565
17,-1,36,221,-2631,2495
-3,95,-7,1295,-1564,539
-56,0,-26,1096,259,-1053
-66,-86,13,18,522,-1630
-25,54,26,47,304,-1159
114,-17,79,-420,407,-7175
-69,-37,27,-1097,-1700,-7965
-93,-60,-72,-2922,-78,-8191
23,-102,-107,-1569,-521,-7142
26,-33,-68,-923,-93,-4991
32,68,46,1429,-770,-1036
-15,-12,-42,2169,989,4590
21,51,-93,1621,4550,6455
93,46,71,1394,5036,9334
-29,111,90,134,3541,16647
120,4,55,13592,4761,-6115
-86,36,81,-972,-12771,-8132
-51,89,-27,-8486,-8908,-6840
47,-102,-68,-4667,-2184,-8593
-53,52,-84,2813,1196,-6954
-17,77,100,477,-15,-5546
112,121,31,-1270,82,3684
-101,94,41,515,1139,7920
34,-45,-84,1737,3264,7598
-97,57,68,1853,4540,8713
24,-59,-118,-2532,2942,11733
39,-20,-43,-2723,-308,11205
-67,-26,126,-12842,-6447,-7135
-32,-60,-127,12061,1072,-10165
-27,37,-112,-3149,-1944,-10501
110,-100,28,-4616,-3732,-11095
-76,-92,77,-2292,10,-11097
41,-82,51,-321,-2173,-10906
107,-64,-34,1890,-2041,-8548
90,57,-117,1692,-102,-1421
-51,-49,-53,2334,-195,4465
-113,115,96,8974,2704,7947
45,76,-85,11798,11728,10599
50,-125,-121,-16285,12477,7433
89,62,63,-5499,-4033,-6223
49,-125,26,11827,-5713,1074
48,-30,63,2922,-619,2211
-112,-105,31,-3531,3001,2522
-36,-106,106,-763,1896,3789
112,-62,-96,812,2594,6071
19,118,101,981,-1231,8900
-10,59,-14,919,176,5894
58,-78,10,224,-493,7041
42,23,-79,-3601,-2176,4072
46,63,13,20803,-1879,-6427
-101,-117,2,-6165,1192,-3732
-104,57,-69,-4925,-1760,-52
-76,39,103,-654,506,-57
-70,-23,91,3084,2302,-351
-84,60,-125,2640,1556,-1157
-30,-6,69,1199,452,-7773
-16,-54,-4,31,-934,-8791
-68,-108,9,-2330,-1713,-7752
-120,105,124,-3866,155,-6949
126,62,-115,-938,-618,-6279
-16,121,93,2035,-1867,-3752
92,76,-17,3183,-1390,-348
-91,-82,27,-233,3375,2523
-122,-96,-105,967,5540,4771
-111,-23,45,1513,5349,6207
-100,79,19,327,3970,9561
-31,10,37,1077,2966,10292
67,118,-87,-6489,-7690,-4499
24,121,-49,5013,-2100,-7235
-11,93,116,-4308,323,-7252
35,82,-3,-691,-1515,-6798
-124,112,73,-397,-907,-5876
-31,-89,-82,737,-249,-3924
-115,82,59,992,4091,8207
-21,-120,-26,-242,3263,8425
-58,-14,-73,1189,1590,10200
-120,-83,91,3550,2530,14611
35,95,119,-4442,-88,-2582
-54,93,44,2336,-6117,-7393
33,45,69,-3288,-4092,-9392
4,-91,0,-4514,-4287,-10879
115,124,13,-1501,-4603,-12290
91,-103,-11,-2041,-3838,-11049
63,11,-74,2680,-2355,-8259
-41,4,-74,636,-1261,-2585
-79,-14,98,1978,2079,831
43,34,53,4172,2994,4505
-23,-26,-42,704,6013,6883
-66,-93,81,3916,5138,11036
-10,-65,-91,128,7675,5992
-36,-114,-58,-4374,648,1766
-78,56,88,1348,-859,221
71,-7,-71,1395,-4056,294
-111,73,115,1344,-686,362
-125,-113,-23,-270,-1390,3302
23,59,-61,-261,-1311,3332
60,16,-103,2652,-79,5487
107,10,-102,2068,1628,6649
-126,43,-37,1612,3628,8142
-48,84,-61,0,-1397,5967
-1,5,-16,2584,-2852,-139
-121,-1,23,6760,-5748,-3303
104,-47,124,5039,2750,-4141
64,-42,73,-2109,1000,-30
-57,17,-58,-1467,2529,770
-42,-12,83,664,3305,-5680
-47,29,68,408,-866,-7150
19,16,-84,-1981,-891,-8299
107,-83,108,-865,-240,-7608
-83,-78,-14,-1115,-401,-6331
-11,-13,112,1284,-1675,-4753
-88,-121,78,5716,2069,3901
87,107,100,-276,5852,7960
127,-88,-102,1091,4250,8139
-61,-50,70,-803,2781,12482
-119,-49,-64,-2325,-3361,-3588
42,-75,-86,5386,-2286,-8520
-12,-117,118,-2733,-983,-6870
15,90,111,-1081,-2738,-6721
-68,101,-37,-1859,-676,-3729
-42,-85,65,1539,2411,-1663
97,126,123,-638,3842,7956
-72,-109,-77,-552,1476,8889
-35,-1,41,1879,1862,10386
-82,3,42,2273,556,13617
-71,43,-89,298,-209,-71
26,76,-36,5011,-2298,-9522
-45,-37,76,642,-4329,-6676
-100,63,-28,-2619,-6831,-9534
3,68,65,-2475,-4605,-11306
-116,33,-75,-1359,-5699,-10476
-67,-79,95,403,-4660,-10430
-97,-10,-12,1256,-1354,-4425
-119,9,55,1765,-937,-1835
-50,57,90,3617,1399,2638
23,-65,8,979,4294,6171
-118,-48,31,6379,3037,7763
-33,47,-21,501,7954,8848
70,115,116,-14331,-905,6306
111,-83,-21,10486,-1267,-2074
111,-30,53,7099,-3469,-235
115,-106,-16,59,-950,2182
-70,72,-111,197,1418,2547
-123,-51,65,3174,1470,3088
-44,-120,114,2472,2757,5423
-96,-54,112,1228,2854,6442
108,-50,-34,1636,2841,6038
8,99,-67,-2423,185,4028
-50,51,67,-2002,-1669,1900
-92,82,-83,4405,888,2317
-3,-127,84,4364,1934,303
-107,70,-122,2232,-11,-903
-64,-38,-67,747,-887,-689
-39,114,-59,520,-500,-727
-53,69,-37,599,-543,-1199
115,63,94,2784,-395,-6744
-53,-69,-43,-942,-841,-9225
-25,18,-44,-1866,-2782,-9314
-70,-22,-98,-3094,-1155,-8177
-21,-109,-48,-1261,-1277,-6500
99,-56,19,2853,-706,-2536
-41,-10,-18,2323,-244,1923
25,-104,84,96,2674,5755
-21,122,-106,2461,5282,6551
50,-69,-15,3263,6800,7186
-126,83,-44,4029,6985,11110
-13,21,-49,-9977,487,8153
89,85,-99,4173,-6414,-7930
-127,13,62,-1586,-2756,-6935
103,5,-117,-3030,-1936,-7845
109,34,-80,-2420,-2421,-7568
60,-5,-20,-610,-394,-6655
72,-33,45,684,-1275,-4278
106,111,-36,3256,-1172,2113
-76,-18,93,983,2765,6622
96,29,-46,2113,5114,6397
63,-20,112,2489,5249,8983
-1,33,-111,925,2809,13329
-97,-107,94,-5790,-2274,-4417
-76,91,110,4738,-6221,-7250
80,31,-23,-3621,-3573,-9816
-89,-117,-7,-3808,-5683,-10825
-39,-63,-79,-1982,-5134,-11324
8,-42,77,-609,-5677,-10007
-66,99,-61,-767,-2504,-6112
-13,-100,-17,2312,-2114,-3994
-93,-13,123,2022,3374,2935
-91,29,11,6929,5918,5450
127,-27,-61,7464,6946,6382
51,82,-21,321,6350,3059
83,3,-90,-6492,5725,6061
-85,-37,-112,845,2409,-67
32,117,-12,1487,-2390,271
111,-63,52,660,-3953,1557
-5,85,-34,253,-484,665
80,69,-31,-530,466,2449
-32,-52,-53,516,-467,3138
25,46,-69,331,275,5575
100,0,101,3098,1220,5561
-99,92,-35,4931,2537,6219
-113,-31,-32,2755,943,5958
-63,42,103,913,-927,3798
-5,-35,-40,-669,-874,2700
-24,18,10,1857,-1203,-346
125,-96,62,9034,-410,-4279
-47,-80,97,1434,201,-7190
-60,6,25,-1561,-439,-8531
47,86,-63,-122,-1627,-9542
-128,81,-128,-2399,-988,-8616
-76,-4,-90,-1335,-1436,-6597
-73,-56,-12,-771,-663,-3919
117,40,-122,2363,-739,577
113,80,-29,2156,704,3091
-1,-85,-58,1970,3155,5100
76,-16,62,2484,4946,6628
-92,6,-17,2517,5717,8819
-61,-11,-49,2601,3984,11484
119,75,-71,-7011,-4279,-3121
-24,98,120,3131,-4875,-7326
-20,127,74,-3083,-1239,-8414
124,50,13,-763,-1862,-7542
52,-72,78,-1631,-930,-5573
47,66,-16,-622,956,-2882
35,-34,125,2498,-667,1839
98,72,-28,1796,1857,6451
23,-123,-89,1957,3504,7551
17,-43,111,1668,3750,9041
-52,121,95,1066,1730,15437
-53,-107,-53,-4150,-1392,-5576
-72,99,-109,3016,-4951,-7739
92,61,68,-2085,-3668,-10288
122,-76,121,-5006,-3465,-11252
-48,66,58,-579,-3252,-10793
-1,124,-64,-1631,-2935,-9720
53,-37,-19,2063,-2495,-6931
99,-25,-87,2275,-610,-3262
12,85,98,409,2342,2737
-56,-122,67,550,2241,6515
121,-44,21,3962,2196,8768
-116,50,-40,7337,6924,11384
-85,-40,12,-8182,3430,5446
-54,-88,1,3746,801,-1455
-114,-125,-29,3525,-5945,-671
105,-18,-57,-435,-2676,80
32,63,38,84,-2396,2327
-5,65,-21,79,-822,2902
-110,41,-50,1481,361,3993
-17,114,-105,3750,1671,5763
77,-86,-83,4113,4402,6281
-63,28,-61,-675,-264,5684
118,10,30,138,-3739,2331
-14,114,114,-1088,-6521,2467
-116,-115,95,11797,5922,-5142
-26,6,92,2610,-276,-560
-105,-9,63,-1213,211,-6
-12,115,-106,2126,1033,-6757
-121,-76,-69,-423,154,-8476
65,16,79,-1430,-1167,-8315
13,-96,-45,-2552,-627,-7761
42,32,-99,-1620,-460,-6017
2,-68,-21,681,-1586,-2391
-59,-16,-52,1554,308,-453
-75,56,62,1025,1252,3309
89,2,-25,1291,1877,5385
-101,54,38,3317,2125,5768
54,-83,2,2602,2923,7992
-32,-102,-58,4098,3556,5261
-120,-118,-28,-2766,-4282,-4148
-53,95,52,259,-244,-5893
-71,-87,-120,-2664,-1523,-7018
10,-75,3,-1121,-1057,-6652
-76,48,87,-166,-1094,-4533
-44,-52,7,1594,-1000,-633
-104,19,85,110,966,3564
-29,-26,2,401,1502,5487
-13,-51,-88,2510,2654,6660
108,48,79,2514,1030,9624
74,10,-125,3362,1759,9477
30,107,91,-3124,-3007,-668
-27,55,9,4337,-551,-8983
-106,42,8,-2868,-1925,-6491
-29,-115,-41,-1423,-4976,-8756
-70,12,-23,-2430,-5153,-10626
-22,-108,90,-1512,-4122,-9542
23,-48,116,-106,-3259,-7201
32,15,112,672,-258,-3494
-126,-88,42,1302,58,-1131
-65,-63,13,4538,1281,733
5,-49,-24,2249,3324,3962
13,-38,-61,4298,3444,6740
-59,114,-111,4004,5055,10178
-88,-31,-121,-4284,6526,7536
-118,-104,105,-2859,-3,670
-25,-105,93,5350,-2025,-1177
-18,61,25,760,-2273,-190
-106,-89,24,-132,-973,978
-71,1,-18,2486,-264,2146
-81,97,-14,2129,797,3379
-121,-105,-85,2276,1695,4409
-1,72,-34,2414,3206,6054
48,-101,86,-1632,2360,6175
86,45,-40,-664,-4950,5282
94,-76,-91,-631,-6734,1918
120,-78,-125,12650,5909,-11614
-106,0,-19,682,-1065,1180
17,11,68,-3247,2072,-6736
-86,56,-2,-963,-894,-7153
-79,74,67,-5005,2581,-6961
-83,88,60,762,550,-7664
-74,-26,-67,323,-399,-5766
19,-50,-124,-994,-266,-1067
-73,-65,-6,2210,1095,3771
51,-88,-70,2106,1745,6408
0,-40,57,3558,2538,7502
-39,16,-72,3980,3570,9109
20,13,-85,5586,1728,8395
120,-100,29,-6953,-5474,-5201
-10,88,75,1850,-1730,-6114
95,99,86,-2493,-529,-7767
10,43,28,-2153,-743,-7012
-74,-123,92,-403,-90,-5818
7,-127,120,-275,461,-2643
73,-80,-57,2242,606,2240
-31,119,-51,449,2630,7134
-114,-45,115,1010,2322,8127
34,-73,118,2312,986,9994
100,90,102,6967,4428,11985
-90,110,-80,-6673,-3819,-7058
90,53,-53,1250,-5391,-7492
54,60,68,-5138,-3947,-10334
-23,-57,-102,-3639,-3161,-11712
110,-127,-99,-2672,-3194,-11733
45,100,112,-261,-1219,-11528
118,-27,79,458,-911,-5861
-121,66,14,1909,1490,-2198
-90,-104,29,3488,2500,2423
94,-117,24,1254,2912,8021
-68,-96,-23,6722,4771,12721
122,-71,-82,2422,7428,8288
-62,31,54,-16577,1543,5091
18,36,81,10267,-1059,-2499
51,-125,57,6599,-6126,-752
-60,-12,22,-1706,384,313
-88,-67,-38,-248,467,3381
-116,-125,121,1718,1034,4447
27,-22,-111,922,480,8510
-46,72,-118,2367,3254,4939
-12,24,-100,757,805,8937
-120,122,121,-970,552,4090
21,-99,51,5103,-4981,-484
-17,-67,53,22556,-1706,-6376
70,-97,-32,2744,700,-3677
-66,-32,-33,-4865,2960,786
-103,-8,102,-6243,2415,489
-58,57,-122,-3547,1275,52
-94,83,84,1069,1602,-6734
27,87,46,-325,-1450,-8259
-60,-108,10,-2867,-1190,-7499
-110,-105,-117,497,-956,-6395
5,-45,-38,-1583,-817,-4976
69,114,97,460,-1921,-2142
-50,81,-49,1538,-482,613
-74,35,14,2548,1827,2784
-105,27,-42,3507,4285,4739
-75,-117,100,2008,6501,6455
-105,5,48,-530,7387,9762
-114,113,-25,297,1149,4768
88,62,124,-1980,-5257,-6502
81,38,8,1665,-2320,-6279
-9,-45,76,-1378,-3253,-7793
51,-93,116,-2184,-2468,-6777
-51,48,103,-1406,108,-4483
-43,-15,-108,698,116,-2308
65,-40,-6,1516,132,1928
-46,100,-26,424,2815,6373
-117,119,-111,1336,3268,7496
97,-26,122,1159,2839,9537
32,33,-98,16597,3010,17187
13,-117,-74,-12184,8587,-1107
-17,66,-63,-342,-14259,-5642
5,-35,82,-7270,-526,-3789
33,114,-75,-4406,-7467,-9049
79,-7,96,-4960,-3917,-11449
24,-101,99,-2673,-3725,-11637
-41,-97,-127,-391,-5006,-9020
16,-9,-117,-811,-3915,-7720
-121,35,32,2930,-176,-1514
3,84,117,-245,4522,8271
89,-68,65,3156,1559,11322
43,-28,72,3680,4075,9288
-110,-30,96,-171,2525,8292
-99,67,-93,803,3510,-823
18,68,25,2960,-3122,-155
75,-87,-10,-300,-1754,975
5,103,-87,-501,-322,1999
77,71,-106,1263,-545,3559
-2,-72,-122,2511,180,3717
103,127,-123,1560,515,5860
-50,38,-14,708,1475,5688
25,17,-56,101,1533,4667
-66,-69,11,310,-1768,3386
-29,-21,-110,16666,-7497,-1440
35,33,9,4225,4963,-7384
-121,-80,-121,-4992,2004,1468
-100,88,-6,-1921,1002,292
-39,29,13,-361,-950,-7567
-95,-18,-22,-4088,154,-7746
72,44,-63,-2173,581,-7208
18,74,27,1116,-12,-5681
-123,23,-108,-1821,622,-2397
18,-59,114,-335,1334,309
28,-108,116,1899,1250,3588
-18,-68,113,2326,2034,6253
-35,-14,69,1988,2755,8444
-34,73,-20,2426,2360,12220
-99,117,6,2599,3181,6424
75,126,126,-4894,-3398,-3777
-1,61,5,2677,-1695,-8026
40,45,-121,-1042,-2687,-9721
79,13,-96,-1600,-3163,-8545
16,92,13,-1784,-1561,-6816
103,115,-16,1357,-1274,-1723
17,51,-65,1435,3101,5646
116,54,-3,-1141,3284,8063
50,-115,70,1867,2275,9185
-29,33,65,2931,1611,13234
-28,-5,4,2095,2033,1777
51,105,-3,-3247,-3561,-5725
-35,34,-111,4040,-2318,-8107
71,45,1,-4050,-4916,-10880
43,-62,4,-2674,-3868,-12141
32,-76,-125,-859,-5164,-11162
104,42,-7,-515,-1889,-9453
10,-97,95,2242,-3216,-5641
77,95,96,2490,-46,-2182
-24,88,79,1514,3682,3638
-78,7,-74,4197,3529,5133
-13,35,-112,4529,4909,8144
-78,-56,-68,3889,6757,6332
-16,-109,-119,-15257,-539,6361
-7,-109,-65,9829,-171,-1299
-125,-93,-68,7391,-3101,580
-83,-19,47,-2210,849,2689
-123,-19,-12,722,-74,3681
2,110,83,1394,1552,4574
-115,-47,48,1867,2300,4128
-47,73,30,1353,1518,5531
-117,-103,44,-1636,767,7037
-38,-29,113,-1503,891,3439
-123,-91,59,6462,-2938,4846
-85,110,-12,14659,-664,-8099
114,-120,27,3472,1501,-4121
72,0,125,-2532,1421,1953
67,-41,41,-3736,901,1596
-113,-50,-88,-3342,1873,612
-126,-51,13,-722,-100,-10263
-41,56,40,-1392,-2443,-9206
87,-59,-127,-3265,429,-7636
54,-121,-120,-702,-732,-6753
66,-60,-17,-1825,27,-2517
-48,-37,-117,848,-127,288
-34,-17,-36,2262,828,4014
127,-119,-52,2184,1967,6518
-52,-116,69,4226,3098,7567
3,-32,24,2477,4735,9116
-75,105,-56,2919,3930,14157
38,-84,-89,10169,2801,5219
-35,-115,-55,-10337,4105,-12925
70,121,21,7984,-12858,-3943
114,45,-36,-8529,120,-9891
-18,118,-109,-1294,-2813,-7761
23,102,-52,2156,-569,-8047
125,-93,-83,259,-2071,-6188
41,-67,118,3323,-338,3481
-106,-112,127,253,4583,7517
116,106,-29,4,3727,7080
-23,-38,-99,1182,2986,10404
-2,56,-46,9239,6566,14914
-98,-96,-89,-5754,1542,-8941
-98,10,6,4055,-8002,-7039
27,-25,-56,-2716,-6355,-8776
14,89,59,-2477,-7233,-10710
-75,-92,99,-1834,-6598,-10889
-18,51,25,-1686,-5054,-10455
-87,-119,2,-914,-2846,-7298
85,-110,111,1297,-1124,-4353
3,59,96,2693,1873,1148
-76,97,50,2718,3813,5551
87,116,122,3408,4053,7127
-66,62,-55,3918,5951,10978
121,-59,79,-3118,4890,5459
-17,0,98,-2251,4309,3619
-91,-14,-13,3278,-2186,2971
81,-64,45,-1882,-6099,-410
-34,-39,-74,-2059,-2932,-472
-100,112,-74,1243,-895,2354
83,66,40,1098,-877,2723
54,-25,-22,4530,474,3831
-2,-97,-104,3274,2313,4086
-89,115,-9,1639,3408,6214
125,-27,-87,-2432,-462,4512
-81,13,-15,-1974,-597,603
63,1,-26,3707,-2013,-425
-85,-15,-29,2634,-4207,630
-42,3,59,560,-1106,41
94,54,-10,7388,1340,-2273
-87,44,-81,1933,1469,-1411
-34,-70,-47,-50,1979,-126
-38,-121,-10,387,947,362
-55,-116,-21,234,394,227
-14,-64,-5,-52,-293,925
15,-26,-3,-102,-130,999
52,-13,-65,399,853,646
17,-1,-80,832,636,63
70,1,-59,1082,-139,38
-13,16,-83,1026,10,-740
-21,-36,-56,883,-472,-1025
60,-14,-43,46,-164,523
69,74,-61,-1443,100,792
26,50,-117,-505,93,-185
3,27,-125,586,93,-679
30,27,-118,1162,-371,-409
118,-22,-40,715,-1140,-2286
-45,-62,29,1648,-279,-4866
-114,-77,70,-1225,1405,-9613
88,68,-39,553,-1887,-9661
-118,107,-114,-2970,-473,-8659
-96,-95,-96,-1027,-462,-6938
77,-31,57,-2621,-461,-3319
83,75,116,209,759,410
-79,11,9,1646,472,2435
91,-108,21,1803,1965,5739
120,120,-111,3685,3461,6059
58,-4,33,2182,5570,8312
14,11,102,1099,4505,15583
-123,55,21,-8537,1905,6192
-106,-118,-112,557,-5018,-8135
23,62,113,2360,-840,-7991
8,17,103,-3348,-1256,-7793
37,-74,-39,-579,-307,-8511
37,-31,31,1831,233,-6262
119,37,-53,-2464,1489,-2025
0,-56,20,566,2618,2226
-128,80,73,540,1974,6716
79,55,16,-276,948,9323
-11,87,-44,78,441,10845
-103,32,-34,8034,1821,12813
-20,-110,-37,-10164,-1821,-4177
65,107,-27,4527,-1798,-6688
110,-24,-75,-2448,-2654,-8651
11,53,-16,-2577,-5747,-11759
126,-118,-82,-1746,-2855,-12523
83,-97,103,-1185,-4981,-10303
-59,82,-7,278,-2712,-8815
-30,97,-69,2286,-3264,-5953
-12,44,106,1738,2653,3760
102,98,-34,5186,4172,6539
-110,-5,31,5875,5571,9550
18,-60,118,3330,10370,8844
-2,-50,-29,-8531,3470,3825
15,-102,55,-4286,-2164,-1019
-70,85,28,4163,-3272,811
99,-2,0,3554,-4636,-243
-126,-6,40,-588,-1890,3396
4,0,14,-457,-244,4523
-50,68,120,5501,656,4005
-11,-13,123,7150,3609,5227
109,118,-63,-2134,2919,6119
31,101,-14,3494,1390,2784
-32,-92,-2,3127,-3674,2509
111,87,105,1732,-2434,-3917
126,-112,-24,5905,1951,-2547
16,36,74,2703,172,-2414
-77,-92,99,-9,-107,-1559
-22,51,91,-32,1109,-1057
-7,-43,68,1484,1082,412
17,57,104,-155,794,1438
34,-104,82,-1820,376,2238
13,-35,-29,-1200,131,2563
16,-96,-35,4530,-1052,1259
-18,-64,-49,4622,-13,-1584
22,72,26,552,530,-1243
70,-12,19,-1181,926,-45
-61,-118,-45,-513,362,-419
-57,-123,-11,-558,-645,-414
24,-80,-34,-892,-187,504
51,-6,-93,-1382,597,530
22,0,-115,-613,247,-116
2,8,-122,174,-87,-415
43,82,-115,598,-603,-273
103,-16,-77,871,-702,-2483
-10,81,-73,1641,-1092,-3275
116,17,60,1262,-1616,-6445
-111,52,104,-172,-1514,-7722
-83,48,69,-3706,-3455,-7980
-72,-112,80,-4671,-650,-7795
-2,-122,-76,-804,-1139,-6031
-71,85,71,-1294,-197,-3216
-6,-78,-98,2131,325,800
4,-6,-11,1898,1822,4373
-59,-118,-87,2081,3215,6232
-44,112,25,4112,4672,7076
-4,-14,-17,2292,5491,8647
54,-3,-11,3328,1856,10444
61,73,99,-2537,-4680,-4443
86,8,74,2980,-2021,-6232
87,11,-9,-4215,-3122,-7714
-22,-51,-46,-2575,-2628,-7349
-111,-23,64,-2300,-892,-6267
-54,33,24,-162,474,-4058
-109,-55,-109,1339,-266,1777
16,-49,-32,1488,1935,5466
2,29,-90,2283,3649,6936
8,105,101,3653,4370,9282
-110,4,95,2340,5196,16149
-94,29,-83,-1230,4839,-2815
103,48,91,-1295,-4855,-6838
-66,-19,7,5289,-4514,-6988
-109,24,34,-2957,-7453,-9851
122,-103,67,-1164,-7270,-10237
97,89,-37,-1216,-6372,-10606
-15,-113,5,-1928,-3447,-10052
46,54,9,1679,-2785,-6093
-78,48,-45,2396,-695,-2120
60,73,109,2478,1983,1230
-72,-74,64,2367,4373,6379
-29,50,-74,174,6400,7976
7,49,-18,2679,4610,11224
-15,-44,55,-6043,403,7037
46,-40,104,1615,1346,495
-61,24,74,6805,-1580,-1646
82,46,82,1638,-1982,406
-13,125,-91,2152,-1551,3420
-29,-18,44,-1987,-438,2525
-29,-115,2,792,127,5060
-69,79,-87,3746,1911,6513
73,-111,83,207,2826,7298
88,26,79,2223,3016,5782
-68,-65,127,1746,-1670,2990
23,125,-18,-2895,-3872,1550
-78,-17,71,16090,1770,-6404
97,108,-99,2596,-433,-2162
-84,45,75,-1261,1416,-691
-36,102,3,-1151,2624,188
-50,112,-43,-506,1998,372
-50,94,-55,1573,156,683
-64,-92,7,1643,-1265,539
-38,-4,72,-260,-1169,562
-4,11,39,-964,-161,301
1,-35,-30,316,729,-143
-33,-41,-13,1197,-87,-359
36,-28,24,1279,-318,-127
-6,38,7,139,413,-38
-51,4,-7,-153,-21,-561
18,-5,-45,-541,265,290
-24,94,43,1680,408,-7579
91,-85,44,392,1384,-11794
115,-126,-121,-1619,-3391,-9104
-58,-30,117,-2218,-822,-8592
-20,25,38,-1009,-610,-7042
62,111,-35,-1102,-216,-3176
62,-30,-11,254,-220,441
33,-62,23,2369,1279,3939
-67,-87,-99,3359,2347,5685
-41,-40,55,3972,4021,7140
39,68,19,469,6359,8646
-36,1,2,2538,5482,11449
114,45,10,-4180,-2220,79
-78,35,61,1259,-4705,-5235
-12,3,30,594,-1852,-7483
21,4,1,-588,-4477,-8447
28,111,53,-3062,-2984,-7093
-61,104,51,-1227,-460,-5217
82,-111,-71,1835,-411,-2373
-121,61,117,913,1222,3397
-39,37,60,-404,2548,7207
-83,45,-87,2460,3014,7839
18,-24,112,2696,4450,10278
-59,17,106,4057,4151,14486
61,74,-106,-1227,5962,2303
36,-53,56,-6757,-7495,-7283
-113,-64,43,6727,-953,-5765
-113,-16,-109,-5092,-3388,-8323
-15,60,45,-529,-5967,-11993
-107,92,-109,-1309,-5950,-11608
-30,-26,78,-1053,-6875,-9564
-58,91,-100,-1159,-2966,-7511
4,-24,105,3363,-2866,-3916
-109,84,125,1470,2862,2951
89,46,9,6825,2238,5076
-22,82,6,6551,5219,8802
-87,23,-45,-1198,9854,7081
-100,-117,-115,-8182,5195,7830
-127,-6,43,-4179,2770,-632
59,18,-125,7208,-3554,-1253
36,-93,56,1999,-7859,-849
-52,-92,-61,462,-4704,1941
-111,-69,-95,1692,-238,4863
-99,-3,64,3273,-2115,4806
-119,1,-20,5600,1031,2823
111,24,-23,3906,6636,4508
-71,13,-99,-318,5791,5906
55,64,-128,1923,1992,4856
74,48,77,1587,-7287,1831
-70,71,43,4569,-7658,-1513
-45,9,64,4102,3891,-2411
92,54,-1,-1511,816,-1999
-53,121,-13,709,933,-78
-84,-104,28,782,498,306
-50,-95,1,843,270,246
-26,-10,31,-77,-383,678
-40,50,47,-1666,-687,379
-44,49,-1,-1413,-241,52
-22,35,-50,-283,387,-226
-41,42,-42,470,305,-466
-6,8,-64,1320,201,-771
50,36,-48,1236,-49,-116
-37,36,-75,815,67,-654
-41,11,-68,333,-358,-451
7,64,-42,-987,-430,824
44,-86,-73,-1676,-139,1116
24,-123,124,-113,455,-94
19,102,101,1461,488,-654
30,116,111,1334,28,-473
39,-124,108,1057,-372,-38
117,72,-29,995,-1331,-1642
100,35,27,3351,-532,-5470
-50,75,9,1038,1081,-8306
98,42,-42,-2304,-2991,-7861
-13,-115,-126,-3986,156,-7131
33,-24,-98,-1097,542,-6679
-88,-33,106,3185,-1652,-5157
-123,-55,-44,-1095,431,-1195
15,38,-28,-195,1796,2164
116,56,3,4029,2795,3928
83,-102,-83,993,5891,7674
43,9,110,-132,4812,11047
86,96,-78,3722,4109,14751
116,101,-89,-4626,-3443,-4909
-112,21,17,2947,-5131,-6073
-35,-3,-73,-2496,-2130,-8843
112,-112,-80,-2359,-3897,-9821
-124,-84,29,-297,-2082,-8778
-120,-23,106,-1398,-1044,-5111
36,-51,86,43,205,2225
81,25,98,892,3151,6695
-31,111,-51,1588,3251,7596
9,-72,111,3317,4005,9627
-108,100,-124,980,4763,13304
119,67,10,-10071,3188,6266
127,-105,70,2566,-11256,-11775
-102,59,-27,-5098,-608,-5689
10,-128,-66,-2596,1441,-9741
-69,-87,32,-1370,-1725,-11324
-20,-76,108,-2440,-2663,-10634
10,-77,-53,-813,-2030,-9855
-85,-123,-6,1110,-1840,-6675
-112,44,-6,1974,-1392,-5284
-43,119,93,1622,3316,1733
-13,-95,58,2611,2205,4958
-105,-29,57,664,3425,9543
6,-120,11,355,2489,11788
105,106,58,-1516,-564,8967
-32,-41,42,-6973,-2251,2745
-46,114,-43,6014,-1127,-3682
-39,-40,-54,3832,-4065,-2983
62,-23,21,1021,-3586,2067
-33,-13,-27,1930,59,2070
-53,93,28,2805,627,4885
110,-43,-90,3907,705,6520
2,-47,92,1409,540,5035
92,-31,-111,3130,1864,4421
70,-63,-45,3749,-6463,2417
-110,-65,-70,-3097,-6970,2057
-103,126,-96,11219,7878,-5663
-106,-42,115,2441,1213,-470
26,37,66,-308,638,-178
-55,-31,22,-836,967,-146
-10,100,-55,680,1056,-365
-13,58,-60,3358,417,-279
-24,-106,58,1332,-823,51
-15,-37,114,-1150,-1003,691
1,-71,46,-647,-283,1206
41,-67,-13,884,-122,1792
-18,-4,-17,2947,-172,904
10,67,100,4254,545,-2150
32,-122,89,-790,250,-267
11,36,-24,-2679,451,406
-11,-19,-80,-1849,182,-22
-16,-54,106,-45,565,-225
-11,-52,119,1317,82,-343
16,-25,-120,1183,-224,-108
28,32,-111,185,-73,160
38,-98,-68,381,-1027,-1739
54,11,-4,2418,-485,-5335
53,-9,-75,2689,-290,-7616
-18,68,58,-2267,-2009,-7338
-17,-37,-69,-3057,-1430,-8054
-62,84,-104,-2703,-1118,-7164
29,-36,-111,-337,-1079,-6114
-39,101,96,272,-822,-2644
44,24,-47,1994,536,1332
72,-121,37,1138,2115,4611
-32,-92,-50,2175,3431,5862
-43,-69,124,2774,4713,6756
16,53,84,533,5836,9316
58,2,-83,8072,7218,13358
102,-8,-72,-5429,-2098,-4143
28,13,-5,1278,-6330,-5589
74,-25,89,-2749,-2492,-6952
63,122,5,-2358,-3478,-7716
35,0,74,-2051,-1693,-7174
90,117,110,-980,-12,-5182
51,-22,-43,-491,364,-2107
-27,85,8,2825,604,3341
97,110,3,927,2385,7095
-48,-99,-68,1611,2288,8135
-107,8,93,2028,3305,12843
31,18,-74,9569,4411,5574
4,-127,-62,-13657,-3286,-3284
-37,24,6,5170,-4232,-7710
109,6,76,-3962,-4819,-9975
116,48,31,-2613,-4330,-9558
3,9,94,-1437,-3404,-9792
-1,-105,14,822,-3575,-8634
124,120,48,311,-3408,-4729
107,65,113,634,-3010,-3161
78,-18,103,3262,1226,150
5,105,60,5381,2848,2808
-50,126,-8,3276,5174,4885
-43,-127,-73,4298,6122,7104
108,33,-99,546,7874,10472
94,2,100,-3002,3820,7507
1,16,86,-3433,-226,-2583
68,-39,114,4314,-3753,-1233
-18,-125,46,3321,-4099,49
110,-105,83,234,-1128,2391
-68,-92,56,895,1300,5531
-94,49,-120,2305,3849,5005
-70,101,-118,4294,4354,5986
51,-103,43,767,-681,2199
9,50,-53,2249,-1488,-1250
30,-51,20,-947,268,-526
-88,-29,-2,-1674,295,192
-118,102,-68,-774,-146,979
-100,98,-65,59,-567,577
-103,82,-36,1216,-597,500
-94,74,-87,2061,684,538
-60,93,-92,1276,787,426
79,75,-65,4168,-638,-889
-74,-117,0,3773,460,-904
65,-30,-83,-129,2427,-1001
72,-36,46,-1132,-375,955
56,-86,-29,73,-259,631
101,-105,-77,1307,388,686
-36,67,-5,2350,1217,-4802
14,-14,-86,1501,-988,-7031
107,-84,120,-2029,-1871,-6771
117,-39,53,-3905,-426,-6842
42,56,0,-1514,187,-5848
48,58,25,1006,511,-4436
60,-10,108,947,-734,-2343
8,-88,-87,999,11,928
42,49,-19,2881,1096,3826
0,117,-79,3643,4124,5772
-7,-104,79,4353,5368,6394
-66,79,-35,3419,7527,9751
-36,-105,-94,3312,9296,7409
-83,15,-31,-4976,-5931,-4086
79,-15,127,-724,-6307,-5227
-93,-14,-23,-5059,-3070,-7261
122,120,-68,-3116,-1542,-7815
-43,-82,-8,-543,502,-7261
16,18,39,305,1230,-6385
39,-43,2,1131,-711,117
105,43,36,349,1321,7160
77,75,-87,3122,945,7397
-49,62,28,4932,2169,7954
13,-70,-4,6479,5971,9862
14,-60,-1,2161,7897,1963
2,28,-94,-8000,-5578,-5265
-96,77,99,5391,-6817,-3747
-61,-3,89,-6787,-6538,-7006
44,38,-6,-2551,-7302,-9481
-16,-65,-54,-3477,-5964,-9836
-88,89,118,-5444,-4876,-9135
40,-10,100,-1730,-1694,-5404
27,-44,28,2011,-194,-4714
48,-78,39,2750,430,525
-53,-116,45,5234,3365,7088
29,53,-77,6294,6497,9145
57,-58,1,-1459,7322,9197
-126,-83,-30,-3060,3184,4417
69,55,-114,-1167,840,-419
-125,-34,69,243,-3715,248
-122,26,-94,3863,-4771,-306
-39,-67,-46,1036,-2705,2842
67,28,27,-826,-861,3707
61,-99,106,-186,-644,5650
54,121,26,3652,857,3240
84,36,123,6353,2383,4526
53,-81,113,2432,951,2718
110,18,-106,2305,-745,2419
81,-98,-94,1595,994,883
-57,15,-127,1277,1180,522
-14,-85,-94,2649,649,-8166
110,127,-42,1348,-1110,-8848
-60,60,-70,-749,-4517,-8745
10,65,-107,-3935,-3249,-7676
-128,-80,-62,-1858,-2266,-5686
99,-93,73,-3157,-942,-2212
15,60,-61,1474,199,2574
39,44,-17,1685,1089,6097
-69,-17,-115,1646,1389,7058
-25,21,-9,3000,1665,8417
-57,-111,-120,2964,1378,12571
-91,28,89,540,-881,963
-98,-128,73,1952,-4718,-5277
-57,41,-1,-1944,-705,-7074
-14,91,124,-2685,-1138,-8345
-37,-99,-61,-3326,-1362,-6856
84,55,-104,-3161,477,-5172
-100,-5,-33,342,-296,-1680
-20,62,102,-379,-280,3010
23,29,-83,2128,185,4857
22,88,89,4042,1530,6415
-114,-69,-10,3697,2790,9210
50,-2,20,1314,1411,11405
99,-88,122,3343,601,6605
4,-104,102,-1502,-2485,-3276
-55,59,-67,2043,-611,-5689
-36,21,-87,-4707,577,-7205
-97,88,-52,-795,-3057,-11208
-23,-49,19,181,-3910,-13549
-75,20,105,-1577,-5467,-12529
38,-40,43,-1473,-2802,-8668
55,76,-99,989,-1369,-6314
92,4,93,1702,970,-685
124,-124,73,4909,2102,3406
11,-8,23,2799,4466,6135
-37,47,-55,6791,5705,8987
47,18,22,3851,11844,7201
-5,123,-16,-9634,2161,4775
-99,123,33,-1461,-845,-3339
78,54,-85,3858,-5078,2187
57,-59,20,2752,-2757,-691
-84,78,15,-1207,282,3963
-94,9,113,2386,1814,4204
-8,-88,-120,2258,805,7405
102,20,-42,4620,2541,5248
-90,71,-109,3162,3785,6805
-114,99,36,1007,141,5445
11,31,-92,-7542,-2579,643
-128,19,118,-2033,468,262
-43,-25,-4,3732,2543,378
1,83,-14,2702,-2231,-8491
-123,82,54,2206,-4700,-8231
-90,39,23,-6199,-4423,-7286
4,21,-53,-5081,-1832,-6557
-62,-54,-22,-1353,-624,-5678
105,-116,125,360,364,-2297
-47,-86,-7,1802,623,4535
57,106,-123,1556,2464,5612
16,-72,0,2673,4036,6087
79,-41,-112,4018,4101,8087
40,-10,106,3591,5910,10918
-32,-44,12,-12438,-3995,4867
64,47,-119,9603,-3886,-10914
38,-43,11,-3127,1331,-7554
-56,31,-38,-5427,-2117,-5251
-80,-29,79,-2265,-2156,-5944
49,65,-62,-131,-685,-4299
-95,64,95,183,-450,-229
49,121,-36,2706,1021,1106
5,-18,5,1646,3393,5107
-87,57,121,2005,3603,7465
-111,-70,12,2404,4805,9159
-30,-65,56,-224,6922,12013
-114,64,23,150,-7562,-5810
16,40,-97,-2672,-5465,-4688
60,38,42,-1685,-1989,-7257
125,90,-74,-3427,-5248,-7749
39,-37,-53,-3535,-3588,-9378
111,-58,-102,-1961,-2396,-8570
-99,5,48,-2077,-1844,-7186
95,35,1,73,-775,-5828
20,112,-70,665,-1384,-4017
24,117,-96,1172,1134,-157
-124,-46,88,2136,750,3356
-123,-17,-123,5517,2933,7242
-51,-28,87,7086,5728,10508
-7,29,-37,-4171,11510,9829
120,7,70,-16639,-272,5056
-76,-102,10,14131,-3670,-4131
76,-90,-112,4803,-5024,619
-91,-112,-62,-2670,1138,1658
-44,43,-36,4289,797,3234
109,-72,-23,1899,2262,5320
-39,-42,-45,3422,3711,5261
120,111,-105,-36,1710,7033
-115,-12,-13,692,2682,9167
11,-85,-5,6321,-2693,4600
-34,-51,-113,2406,2997,-2851
-24,59,56,5179,-112,-1145
47,75,-57,3399,-1275,-2163
-108,-14,-125,-4257,5544,543
46,-117,87,1658,-1209,-442
80,-63,-57,1003,-880,-1152
127,-81,-20,925,-173,-1182
-128,-73,-21,1077,-1202,-729
-32,120,6,-45,-1191,-1541
6,-96,-12,2564,-281,-3192
-2,62,-66,903,-964,-3832
42,1,85,813,-858,-4362
46,66,13,-412,-1794,-5039
44,-99,-63,-646,-1779,-5275
-72,52,44,191,-1466,-3931
63,-18,-33,1368,-628,-1937
-36,41,-115,1748,1280,1404
-22,-89,-89,-10,2183,3581
-125,-104,26,92,1932,5636
-73,79,-64,2444,1013,5609
74,-5,14,-327,1493,2324
51,-80,-106,-346,-2643,-5461
116,-116,53,-1062,-1096,-5432
30,-73,92,-1565,-1317,-5161
41,-23,36,-638,-1827,-4166
-54,-43,85,347,-805,-2614
19,94,-8,2165,-420,410
-127,89,68,908,2299,3802
60,115,-87,1562,2365,5024
-56,61,115,632,2575,7613
50,-29,-94,3403,4872,8246
116,-125,-84,-1394,-2250,886
-103,80,-75,1152,-398,-5066
10,64,-87,-253,-1303,-7616
-117,-111,33,655,-4928,-9323
-120,61,12,-1702,-5382,-10186
-70,-48,34,-2365,-5006,-10008
18,-95,35,-662,-3734,-7447
117,-77,54,-362,-475,-4198
-88,34,-18,1980,1087,-1240
-53,-44,21,2080,1864,2122
80,-8,-57,3395,4065,5689
119,-23,117,5538,2386,9408
113,-21,-114,596,8584,7451
87,-35,-110,-6900,1298,4920
-125,4,86,351,-1452,-453
-100,-24,97,3106,-3674,805
24,-2,1,780,-2079,572
-31,104,7,1529,-1152,2860
122,-92,103,-1268,-336,4069
-126,79,-74,2656,1588,5129
-72,-101,-71,2699,1854,5297
-15,-32,-67,395,334,5713
-7,106,27,-1017,1695,5465
-124,-12,125,6634,5130,6963
-109,-67,-72,-5147,-238,-102
-91,-28,-40,2885,-3181,-7058
-110,-40,41,-2249,-3821,-7644
34,-63,-51,-2644,-2384,-7200
88,-10,-85,-1054,-1147,-5052
9,66,10,-827,-1619,-2174
-125,86,-27,2532,717,871
-49,-4,27,1909,2380,4509
105,-59,-87,2465,3469,5417
62,119,13,2563,3667,7898
-68,-84,-42,6551,4002,8687
112,-58,116,2170,6071,3594
-25,64,-111,-2329,-5341,-6037
-99,63,-33,-168,-4014,-8089
-82,-77,-21,-2976,-7326,-9874
-23,-108,27,-3790,-5185,-11193
-78,-61,45,-1257,-5448,-9591
-47,16,-45,-1804,-2283,-6900
-37,23,126,-66,504,-2753
-80,-90,-91,2009,2914,2248
28,6,-10,1802,2080,6109
107,-47,-18,6045,4203,7807
-112,-7,-50,5572,6671,9463
117,-72,-68,-4456,5496,7175
110,-54,-66,-3570,-767,1962
-94,88,-60,3204,-2973,1488
-17,55,101,2950,-2548,756
-107,88,-67,2882,-405,2190
43,-84,-52,-399,1782,3897
40,-9,70,606,2192,4161
-69,-78,63,918,2011,3642
127,-116,-87,171,1363,3162
81,80,73,1909,-44,1024
18,-97,-107,1481,1478,-22
-89,49,15,1714,2196,335
-126,-44,25,837,52,337
-52,-114,62,-253,-804,546
87,36,30,-267,81,865
91,-6,16,749,266,1214
85,-24,22,1485,-126,853
114,-8,15,1449,161,514
126,-8,7,1274,46,430
91,-12,5,1141,-194,66
78,14,5,1040,-214,78
54,46,37,1337,-232,-716
-126,61,11,1213,422,-387
-37,114,1,-186,315,-397
-126,27,-79,1053,35,-866
104,-107,66,66,-1880,-9215
-85,7,-55,-3036,-863,-9004
11,-18,-116,-1389,-1260,-8157
22,18,-119,-1821,-565,-5898
126,28,1,548,-343,-1994
-16,-103,-120,2553,422,2527
60,81,-70,1090,1791,5553
78,-95,92,2514,2545,7321
110,76,-4,1989,3125,10181
102,26,-95,1145,2920,14480
-87,42,12,4085,-321,535
81,-99,-76,-5629,-4243,-6528
-73,66,22,3648,790,-7249
126,49,-106,-1814,-3224,-9688
-128,66,-8,-2229,-1467,-7578
-96,84,-95,-1699,420,-5523
104,-88,-50,-84,270,-1961
-105,-44,-104,2341,-384,3716
47,22,-57,-119,581,6780
-23,-118,88,1601,1048,8187
76,-89,67,2304,1158,9243
-97,-72,60,5985,3053,14657
1,-1,16,951,-2454,-5486
-8,56,121,-1256,-1616,-7245
-85,4,4,841,-4213,-10309
-19,83,54,-2621,-6938,-12412
58,-44,-86,-175,-4639,-12692
41,-5,104,-1577,-4550,-10415
80,56,-99,-164,-2227,-6496
127,-84,12,2498,-625,-2672
-22,76,33,2713,1870,3499
-109,92,-40,6207,2307,7322
-58,60,-99,5909,5189,8057
42,-1,-97,1118,11600,9565
27,-120,-27,-9106,3050,5228
-87,28,-95,-2761,-544,-1632
80,-91,123,4261,-6686,-728
-9,-84,-71,1502,-3688,-241
-61,-34,-36,-582,-1258,1978
-86,-44,8,1246,-1531,3682
99,-54,-26,4010,89,3608
61,-59,-84,3940,2391,5647
-65,-26,-126,562,2302,6324
42,48,-8,2077,203,3966
-127,-67,9,2586,430,2349
-24,-125,-8,393,666,1163
-14,106,12,2856,-957,-254
-108,-69,6,2738,-828,-728
-59,-72,7,680,202,-163
-43,90,-39,-304,812,-264
-64,-86,44,-1528,-219,-7112
55,-77,-28,-288,-2221,-10364
-43,110,-45,-2608,-896,-9046
15,-116,-74,-2160,-306,-7991
-81,120,-56,-1403,182,-2683
3,-54,55,3117,-20,-264
-52,35,-61,1474,684,4153
-10,104,93,901,2057,6454
12,-87,2,3712,2150,8106
-24,-73,42,1436,1519,11430
109,8,-20,7378,3974,6461
-54,-104,-67,-7260,-2856,-4006
-117,44,75,4092,-1636,-8222
-47,33,-24,-2440,-3633,-9629
-66,68,29,-2386,-2718,-8004
42,-119,63,-2820,-118,-4774
44,122,-100,3436,958,-773
-55,-51,54,-1149,714,5888
90,25,-93,-750,1265,7020
45,-68,55,1545,1290,8430
-47,-59,36,3480,1036,11152
-70,91,46,4291,4774,9264
-5,-44,1,-4804,-4748,-5306
73,84,-23,4197,-1409,-8573
69,19,68,-3632,-4070,-11230
-62,-108,-25,-2328,-4026,-12419
-115,-42,73,-1069,-4632,-11318
72,44,125,-2010,-2221,-9417
41,-98,-36,1001,-2312,-6929
-31,112,-98,-408,31,-2911
120,127,12,2139,1700,2065
97,-86,-112,4907,3121,6263
69,-90,54,3560,4091,8873
8,-10,125,4059,3688,10782
-105,-62,103,-3989,6517,8837
83,-83,-124,-6081,299,4144
-17,-18,-59,-1473,-3024,-1710
42,122,69,2082,-4622,-1636
-43,-17,-119,2711,-3911,1429
67,-119,-101,-211,-1262,2530
38,54,4,-2749,-854,3338
-3,-21,48,1516,-1069,3792
-12,-13,103,7208,-944,4047
39,-1,79,2120,1059,4035
-115,-72,-74,2586,-1786,2395
-72,-68,67,4260,-4498,-1014
79,-12,112,6838,1987,-3467
-33,3,80,-932,2179,174
-17,-42,-34,1107,2488,-30
12,97,-39,1763,1371,-363
-103,-63,-37,991,322,-7604
93,-92,124,-303,-2340,-9548
108,-46,-12,-3941,-671,-8400
-67,-74,-98,-1599,-654,-7347
54,-13,-39,-1648,-70,-3308
39,-40,36,-820,261,-334
-118,98,-113,1678,75,1029
-102,-76,-27,1759,347,3631
88,-47,-69,2177,1604,5384
102,-53,111,3020,1607,7571
-51,44,13,1411,1955,10145
-46,-91,91,6716,758,12282
-107,97,90,1018,1910,-379
-91,118,18,-2149,-5026,-6375
-64,18,-71,-631,43,-8378
82,-36,-10,-1728,-3150,-9561
-73,116,-24,-2201,-598,-7320
-84,-47,-27,-1507,1202,-3457
-42,99,89,2591,-738,-213
-120,14,-44,797,-39,4422
63,23,-101,423,1311,6984
-28,63,48,1864,1247,8253
-16,22,-16,3313,1317,12343
-76,50,-115,2200,3382,2456
-79,87,21,-778,-3274,-2280
-38,53,126,66,-2154,-7151
65,24,54,-1601,-4023,-9415
-113,101,8,-1923,-4853,-11999
-37,84,-65,-1806,-4385,-11560
-99,25,127,-132,-3979,-8906
-91,98,-12,-624,-2645,-5625
-71,6,-18,401,-698,-3161
-107,126,117,1898,1546,2944
117,126,25,4564,2923,6190
82,16,79,5041,4208,8793
17,-91,-26,11484,7766,6308
76,-72,33,-10946,8698,5215
-80,38,123,-3252,83,513
-70,-4,126,3235,-5144,1623
80,123,85,133,-2257,319
-100,-86,0,-2261,-404,2865
67,-119,-68,2174,-1944,2651
-48,-23,29,654,-1059,4696
-54,-70,-107,2717,1457,4441
95,-55,97,1034,2670,5266
-48,-28,90,2705,2577,4889
-63,-101,126,1056,-2684,5164
-80,-51,-26,-796,-7645,2873
-37,-88,27,13450,1850,-6846
123,66,44,-4143,117,10
113,-97,63,-1398,315,-6465
-89,115,-14,-1167,-1836,-9265
-86,-21,-42,-3579,-1604,-8259
85,-104,124,-3619,-1175,-7709
-5,75,62,-544,-376,-5963
10,-109,44,-1012,398,-876
-48,-83,-99,1762,69,706
-23,11,-37,2255,1014,4256
-44,-123,-105,2811,2616,6848
-12,-86,30,3447,3547,8441
22,3,-39,2021,3675,10937
-109,91,-5,1961,4636,13172
-19,117,-128,1707,-4034,-4356
125,53,115,-2121,-2121,-5691
-88,12,73,-1202,-771,-8171
-20,52,-78,-1978,-840,-13579
-109,-69,114,-1921,-802,-9205
-54,-5,14,-1584,-360,-6225
28,52,-45,1574,-354,-988
-10,-115,-86,2331,-716,5768
-83,50,-43,421,120,8247
87,87,99,3560,1217,9245
-122,-75,35,3731,3505,10743
-53,26,0,7056,7295,7333
62,-97,64,-9209,-4447,-2175
-85,100,37,3368,-4761,-6742
-98,23,-108,-793,-3090,-9671
125,76,26,-2195,-5658,-10703
21,7,-123,-821,-5331,-10805
99,63,-79,-2093,-3866,-10973
-79,-96,-24,108,-3467,-7932
100,-106,-113,782,-104,-4839
57,50,-119,542,1605,-148
45,-81,-54,831,1707,2819
-120,8,69,3391,1850,7423
-67,12,-59,4429,2904,9885
-117,-24,2,6697,5596,8028
-11,-114,-88,-899,4464,6647
-64,-59,-52,-6990,217,2147
-17,100,-73,335,-2168,-668
96,76,44,2953,-2000,-132
105,40,42,1681,-1666,1774
-43,-15,51,67,-606,4247
-39,49,-25,1790,359,4586
124,-30,-106,1798,1055,4431
28,-61,125,1414,223,5180
21,-9,115,2097,539,3636
-116,-31,-110,2221,-235,2714
51,110,44,1772,-912,1201
2,-100,-17,1771,546,266
118,6,-48,92,-1309,-8587
84,56,72,198,-2528,-5852
19,-18,-12,-3231,28,-3573
36,77,24,647,-601,-3132
80,-91,-79,2168,-1089,-1841
-117,119,125,3182,1107,2554
-69,-21,90,2117,5545,7734
-106,68,80,520,5323,8870
47,92,108,11,2767,10436
57,-71,-60,4850,-1154,13612
-37,120,5,1778,6600,8263
-13,27,-93,-527,2671,-11403
-121,-67,-90,2520,-11133,-1679
-128,97,-1,-7402,2482,-8702
-12,-105,88,1632,-298,-10705
-28,83,14,10,-1634,-11968
84,31,-111,-625,-2249,-7492
84,-126,-86,-213,-2116,-5646
-28,11,111,4309,825,793
-121,-53,-124,-1786,5419,9456
43,-62,-88,-1041,1990,7339
47,15,0,1718,808,9856
102,8,83,8470,3100,13712
31,69,124,1974,6471,-4451
-41,23,7,-140,-11802,-7175
74,49,110,-1605,-6142,-9599
-17,-65,-106,-3335,-5076,-10588
79,83,-72,-600,-4746,-9710
-106,-3,-1,807,-3537,-8086
77,101,-48,6101,-3344,-4885
47,-125,20,3649,-2306,-2956
101,53,125,-1795,-1780,450
-42,-61,71,2613,4424,2874
-8,44,-20,5813,8616,6003
76,102,-48,6336,9988,7833
-51,125,-106,-7892,12283,7589
33,-72,-56,-10018,-2037,-2459
-76,33,61,2434,-6185,157
91,100,-111,5364,-4432,2153
120,-69,102,398,-2746,1622
111,75,58,-4603,-1896,4049
-104,-91,-111,411,629,3053
40,72,-50,1917,442,4693
-56,40,-42,3608,-605,5989
118,-19,-70,3391,246,4549
-95,3,82,3312,-459,4420
73,-26,114,-7905,-6087,1168
-108,-24,47,12008,2635,-4905
-77,104,48,-2482,360,-1260
-102,50,-23,-1251,-250,-340
41,-6,-58,-3440,2475,-7851
91,-57,-17,936,668,-10289
26,121,-46,-674,-214,-8654
117,-4,101,-3028,-936,-4883
-84,47,-68,-2659,662,-3753
80,102,120,1107,-1232,-2375
-118,126,-2,2322,728,1444
34,23,69,1517,2082,4783
-122,-16,112,2986,3343,6321
-31,4,-1,4469,3512,8571
60,10,-30,3494,5045,7313
-85,68,92,-2837,-3492,-4618
94,103,87,-368,-1254,-7551
-45,16,44,-5351,-1816,-8271
100,-97,-121,-1863,176,-7482
122,83,22,-1123,1604,-3820
33,-103,-127,1412,-237,-106
-57,78,11,1565,-804,4048
68,-76,-61,2108,328,6615
106,-82,-118,3988,563,8938
-75,-116,-105,5798,1461,11378
41,-55,74,5487,5780,8181
-62,71,-87,-8370,-4604,-1318
51,26,-80,4504,-1269,-8617
-25,17,61,-3894,-5309,-8742
-15,-123,93,-1383,-5127,-10809
-100,-19,-115,-809,-5202,-10803
2,-8,6,-777,-3704,-11362
104,-86,87,-609,-3519,-8552
37,-94,53,645,-1212,-6659
125,-44,-65,1035,3058,1669
119,-100,76,2675,5078,6899
113,-121,71,3378,4980,11141
16,-59,84,-1985,4637,11363
79,44,64,-8196,-3329,8529
-38,110,53,2576,2691,1239
-127,-78,-75,4038,-4039,-2384
33,4,108,2366,-2071,-1024
-38,39,-42,-949,404,681
26,65,-52,2522,-1338,2941
4,-115,-122,-870,-2601,5003
107,-43,127,202,1024,5140
64,116,-107,1911,-2376,6178
85,2,9,1601,2142,3941
-50,112,30,2301,683,3664
73,70,-78,-106,-2748,1894
-18,124,-41,-2436,-6342,703
-115,19,-95,5537,5297,-2833
51,9,4,5249,1153,-1578
105,14,-36,2160,-41,-890
100,-44,41,-3015,3652,-3506
92,-21,106,2533,2078,-5712
49,-119,7,-821,2217,-6832
83,80,43,-1458,1997,-8255
-100,-13,3,-301,1638,-7304
-1,42,22,-844,927,-5767
20,-2,85,2902,-846,-5904
-117,23,-42,1163,3572,7569
108,92,21,434,1221,8272
-91,-44,-65,1513,676,9156
-95,71,109,4629,2440,10902
38,-99,53,-4865,-594,-6634
38,-95,35,2268,-1836,-6864
83,0,74,439,-1216,-9564
-54,57,-65,-163,-1900,-6184
47,113,-27,263,-1818,-4366
-88,-51,7,1222,1045,434
-122,-11,45,-270,2943,5001
86,75,-83,2046,2885,6991
79,-55,-126,2802,2876,8406
-4,79,40,1491,2059,13777
-87,9,84,4927,2868,-2881
87,2,76,-3802,-7613,-4312
-27,24,-30,-3996,-1894,-7820
112,116,2,-3394,-2799,-11699
21,27,96,-2146,-4390,-13063
-92,30,83,-3340,-3282,-11442
-126,33,-20,1877,-879,-6992
-31,-27,-83,31,1723,-2097
-87,60,56,4527,-219,657
-128,-52,-67,2295,1152,4378
0,49,115,3066,1339,3384
-88,-68,-38,5265,4059,4669
-75,-19,70,825,7981,10839
90,-54,9,2335,3726,7597
126,125,90,-4608,3461,3504
92,94,27,-978,-4267,-331
41,-40,-94,-281,-2514,-323
-67,-120,-125,602,-1063,1271
-60,122,-90,569,-1706,2296
82,5,-73,309,-1792,3416
122,118,77,7392,-877,4072
-35,-36,-63,6027,3266,4417
11,-60,-111,-4835,-238,6918
58,19,22,-1691,-4578,2881
19,-11,75,9736,2368,-6907
-84,-23,72,4950,2244,-3697
116,-124,30,-3417,1563,885
-116,111,-28,-347,897,275
-51,114,-82,854,1653,536
86,92,89,1155,-4001,-2846
42,-110,-3,284,3731,-5215
-93,-100,-81,177,115,-7767
-99,-18,106,1522,-2796,-9090
-106,-61,-50,-6540,-507,-7301
-35,99,-71,-5754,-314,-6061
-86,-90,-14,-658,669,-4889
107,106,30,256,-89,-1957
-45,38,21,3436,785,2346
117,88,40,452,2867,7340
93,-37,59,2477,2609,8962
-126,100,-54,1976,2255,9650
-33,-70,1,11877,673,5964
-65,69,97,-10778,-689,-2663
11,108,-12,4891,-645,-8425
90,-127,-79,-92,-4087,-9498
-112,-113,111,-2925,-2175,-7767
45,-82,120,-2756,-167,-4750
-108,94,-98,3458,1453,-792
2,55,70,-1503,774,7198
-73,-102,119,101,394,8510
-34,-45,29,2862,917,9938
108,56,47,990,1267,11548
-80,30,-29,8368,-1885,11065
-56,12,85,-14408,2536,-4714
95,-31,-2,12674,-3533,-9098
102,18,-57,-4414,-2780,-11535
97,92,-56,-3820,-5872,-11437
73,-77,-64,106,-4641,-12698
26,68,-87,-1030,-4501,-10283
95,-27,67,152,-2430,-6122
-102,-15,-1,1220,-1536,-2187
98,116,84,2370,1731,2096
-73,69,63,3806,4633,4606
121,-50,3,5995,6584,10681
-43,111,0,-1490,10227,7801
-1,27,61,-16821,-2726,8181
0,-74,80,7530,-2404,-1333
10,101,11,8166,-5333,-896
-116,94,-38,-3240,2255,1303
76,-25,76,-927,633,2389
-71,107,-83,232,-2976,4847
-3,-40,120,-97,-2391,5448
15,-48,25,802,-2661,5244
34,-57,16,2530,186,4567
-27,78,106,1362,1925,4632
73,-31,102,829,-2388,2882
-5,-84,-21,-1468,-8393,-333
42,7,-23,10408,4048,-4989
84,-22,-125,1373,223,-2046
-104,-10,-100,1604,905,-5572
31,-51,22,-287,1159,-8783
64,-106,-37,-1614,-216,-9167
-113,121,23,-3734,456,-8863
-77,81,-85,-3630,-986,-6057
77,34,51,-929,-350,-4312
65,-66,59,450,-351,-1567
-117,92,18,3890,737,391
-52,15,98,3889,2474,3675
-15,-8,-83,2129,4793,4719
9,41,1,1669,4548,7173
-78,97,39,3669,3239,10642
-116,-25,54,-1763,4355,6760
-127,42,45,-3938,-9096,-4254
28,51,-27,-1,276,-8830
17,47,68,-2324,-2769,-9100
103,6,-120,-4133,-1296,-6313
114,127,38,-2564,1280,-3867
-117,69,87,3467,87,274
-106,-63,47,776,1058,5651
41,-98,-45,1728,1934,7164
57,122,72,4474,3365,7481
-43,65,102,1621,3622,10176
76,-75,-18,2257,2898,5614
71,26,-30,-2297,-4337,-6543
-16,-8,61,2556,-2795,-11020
80,113,115,-3027,-9875,-11456
73,19,-16,-3183,-6494,-11292
31,46,39,-2450,-3701,-10506
-6,117,-59,840,-786,-7810
-64,95,-96,1333,-477,-3477
-25,-115,-8,1139,2121,3081
-24,-43,-119,5398,2371,6209
16,-31,108,6171,5602,9902
21,94,73,320,10882,10537
-82,-40,57,-5415,1866,8134
-21,-8,69,-29,-258,-1916
10,-123,15,3726,-4944,-1127
-19,-44,-54,-1106,1547,876
26,31,-111,-266,117,1127
-108,93,10,1004,-4326,5281
114,39,-91,-437,-461,3131
-23,58,51,-360,-1095,6698
-58,-74,-19,4393,-46,5333
68,-99,58,5754,3076,5290
66,19,-89,336,-1175,3390
112,-48,26,-3984,-3566,1244
113,103,116,10306,1777,-6614
87,-51,40,2217,-476,-721
93,-4,83,-283,-1053,-74
-124,15,121,-1891,177,-6676
60,-55,-94,-2710,580,-6784
-47,-45,101,-2655,1509,-7026
58,-93,116,-1226,1610,-6359
17,-12,-21,-155,1144,-4297
87,8,60,229,232,-2150
-55,82,-114,4168,121,-1863
103,124,-43,1233,4312,10093
-48,-22,-95,1424,2335,9026
-37,-12,70,2724,3187,10781
46,7,12,290,4119,6226
86,78,-61,-2050,-7909,-7716
72,61,57,997,-1066,-7556
14,8,97,-2429,-1064,-8575
-94,88,11,-2632,-592,-6930
-9,-83,27,-1492,220,-4739
-42,27,58,1021,-256,-1789
83,-13,-67,1963,389,4611
13,62,-54,1775,2347,6815
5,-55,114,2294,3183,8398
-93,25,-116,1042,2522,10671
47,40,-60,6433,3830,12940
4,110,38,-8151,-3052,-2741
-39,73,48,2139,-3252,-6876
-86,1,-77,-1108,-2045,-7602
-51,78,55,-3979,-4894,-10295
53,-39,-44,-1566,-3591,-12502
-71,51,75,-1781,-5138,-10836
-36,-6,18,-790,-3116,-8395
-31,-101,-117,511,-1780,-4295
85,117,-11,2290,-669,-1922
-93,120,107,771,2865,6386
114,-41,-40,4526,3390,10311
-6,-97,56,7943,2736,9471
68,43,-66,-1294,6302,6698
83,-51,106,-6540,-655,681
-106,-119,-4,6856,-1673,-1828
-8,4,108,3895,-1434,-525
-87,3,-69,471,-1712,1816
101,-24,-17,-994,-1800,2668
-121,-24,69,-736,-2364,3806
124,124,56,2371,3,3903
48,104,-60,1654,2896,6229
-1,51,17,3025,3598,6565
-8,26,-15,-1084,602,5316
-86,107,-42,-3803,-5852,4852
101,-19,112,7178,-5674,-3558
88,94,-43,8522,4439,-4927
-100,60,69,50,-1982,72
114,-95,-5,-649,307,-493
-46,-119,-62,-829,-618,-8147
110,-91,59,-2337,-2268,-9300
107,61,-78,-3584,-1744,-8180
93,51,-67,-1307,-1304,-5841
-75,-46,-65,-1596,-1358,-2921
-74,100,126,1350,-1278,-1269
111,16,68,2640,1171,3055
8,-84,-2,1704,3487,6245
16,-13,69,2523,4155,7189
-57,75,-59,1677,4188,8889
59,-74,-57,1582,679,13425
-41,-1,-115,1654,-2368,508
-84,-122,40,1452,-1770,-9109
92,30,10,-2411,493,-7527
-65,-126,121,-2032,-2757,-10147
-10,3,44,-2083,-2028,-8190
12,-14,70,-2192,35,-5573
-61,37,25,2671,-1547,-919
-104,62,-35,2621,430,5543
100,108,-30,1452,2415,7177
114,126,58,4030,3909,8477
113,92,40,1079,4156,11118
-90,62,121,5963,4448,13283
56,55,-13,-6181,-1158,-2179
-27,80,-82,2195,-4600,-7463
-114,-15,-29,246,-1628,-7417
81,28,-12,-1516,-5394,-9044
64,-77,-39,-44,-5802,-11896
127,16,97,-1238,-5860,-10711
66,10,15,-1105,-4180,-8721
3,29,120,433,-585,-5065
25,-65,127,3162,-608,-3367
91,-48,83,396,1881,823
-82,-119,-4,3170,2817,6020
23,-68,-121,5600,4441,8532
-76,40,-120,-721,7826,10180
29,70,100,-13770,1699,5937
12,103,14,8979,146,-896
115,96,-68,7237,-8004,4716
-91,-76,54,-4266,-1308,3339
-56,36,-116,-2358,2120,786
-18,-118,-50,3529,-2483,4060
5,-82,-76,2944,-836,4308
-49,-94,-24,697,737,4800
13,-27,-76,807,-74,6036
-35,3,-108,-840,1287,2172
72,52,75,3281,-3625,908
85,66,124,4029,1665,-386
-59,22,-86,4049,3191,-1154
-88,-107,-70,2806,818,-381
