AccX,AccY,AccZ,GyroX,GyroY,GyroZ
105,-102,-12,-246,3488,-4622
-41,70,10,1904,889,-3309
-102,-29,-39,2636,-132,-4335
38,49,20,1098,-92,-5022
96,83,98,921,-420,-5469
99,-23,-3,4478,70,-4946
-33,52,11,8186,-374,-4453
22,-94,25,4442,2145,-3108
99,13,74,3488,3023,-2456
-76,9,91,2148,4950,-1216
56,91,-119,1653,1652,-755
-81,94,-26,-382,-432,-182
-15,50,35,-356,7,297
-51,123,-1,18,473,-253
-86,-67,-59,836,-549,-247
-8,-33,-61,-383,-1562,73
-113,-29,8,-3834,-3868,1271
-80,-71,42,-6122,-4879,1864
-14,94,11,-6658,-2941,2727
51,49,14,-3438,-899,3104
125,-22,55,-729,-3864,5620
-31,-51,105,-1108,-3098,6923
-86,16,-65,-1292,-3156,5171
-44,12,116,-1677,-1656,3920
-114,-12,16,4454,-1256,2700
-7,55,-66,4820,-66,3250
-118,-107,100,2296,206,592
-44,-56,-59,1798,-1034,-2869
19,104,-96,1564,608,-2256
-28,32,-79,957,883,-1328
-71,36,-73,607,325,-155
-59,34,-89,-306,306,-318
-9,47,-106,-359,115,-118
14,64,125,-334,54,-162
7,60,98,67,-88,-269
20,53,80,322,290,-283
17,69,92,221,166,2
16,104,117,102,246,97
18,-122,-121,227,-13,172
-11,115,-118,907,-40,97
2,-90,-114,303,5,78
5,-82,-125,631,108,-126
-4,-95,117,900,31,-288
0,-22,-122,-2039,165,469
-12,-14,119,-1361,-58,514
0,-91,-120,1708,-218,-189
7,-9,-111,709,85,-425
-6,-10,-111,250,76,-460
11,-18,-121,324,144,-440
16,13,-119,-196,7,-517
-82,-58,-123,2833,1256,-4319
-90,-115,-68,7127,-3098,-5666
-31,86,-84,996,-2958,-4782
-46,70,-71,-1311,-1494,-3611
-89,108,-25,2153,-540,-3120
-111,27,114,2515,739,-3478
-58,13,-91,4956,2840,-2876
-16,104,100,2011,2852,-1300
-124,-59,-82,2775,3715,-1833
-25,31,39,-48,-308,-397
-86,34,-23,-1189,-1311,402
-62,65,-32,-652,-1977,265
47,-57,-22,-4830,-3155,398
42,-66,-15,-4964,-3219,2074
111,-125,-33,-4283,-2460,3595
-30,38,90,-3699,-1520,4545
-40,-119,-70,-1585,-1988,5198
70,-83,-43,1604,-2946,4956
8,98,24,-619,208,2194
-54,15,75,4456,419,952
124,33,125,-42,137,3165
109,-23,-46,1960,615,2450
-52,117,117,3327,899,2522
-96,-115,-128,2245,1031,2112
24,95,-80,1518,0,955
37,8,-85,840,373,-365
36,-37,-90,1488,369,-454
-37,-41,-44,1538,-268,-157
18,16,-28,-72,29,-266
5,6,-46,-230,165,-819
23,-44,-76,710,292,-1265
70,-28,-85,612,353,-1363
99,-15,-96,303,147,-1363
100,-14,-94,257,58,-1142
84,-11,-96,294,131,-944
68,-6,-96,442,172,-553
59,-4,-104,620,229,-154
49,17,-95,618,119,394
44,37,-84,531,433,574
-75,36,-114,986,482,1034
41,50,-102,978,-142,832
41,75,-65,352,89,876
103,71,-102,439,762,603
63,41,-113,1564,241,173
84,76,-91,961,290,-62
35,56,-78,852,313,-593
46,38,-60,781,261,-664
77,46,-55,390,270,-541
76,35,-58,472,40,-359
59,58,-48,103,-102,-136
107,71,-6,3680,84,-4755
95,0,-92,793,-309,-4979
-104,-79,-7,1459,-953,-6691
84,-118,75,-284,-1564,-6077
-63,-33,117,2434,-808,-5300
35,-61,-60,5815,-231,-4373
63,-68,80,4157,2446,-3021
-47,101,20,4352,3267,-3422
68,80,44,2729,4153,-2679
-70,86,-30,1073,4539,-2192
123,5,4,681,1275,-1147
-124,-3,58,-728,-1344,1084
-32,70,-73,1514,-2313,464
17,-45,-106,-1070,-2788,986
26,83,-53,-8014,-2743,2773
-89,57,-49,-9015,-2582,1219
112,117,53,-6729,-1999,1249
88,100,-67,-2417,-2430,2183
47,-101,93,-734,-3106,3619
85,-116,-59,-852,-5449,6413
-83,104,-121,2232,-6217,6173
-22,-122,22,661,-2965,4566
-27,-106,-71,2218,79,862
92,-12,-63,5057,1204,1177
88,119,-22,671,197,3955
-16,101,70,-1328,-2404,1109
-78,105,-52,1590,776,-2358
-42,47,-97,1914,2424,-2833
-70,4,-111,1564,809,-1491
-72,-2,-106,747,-467,-122
-49,-6,-122,310,213,-135
-22,-12,99,349,347,-186
-59,-2,111,278,-282,-98
-48,69,124,-509,-196,-299
13,40,93,702,243,-850
-12,43,124,1339,-519,-724
-85,106,-93,197,-399,-534
-82,87,123,310,408,-443
-30,58,107,1194,317,-73
-40,113,-102,960,-243,380
-30,123,-101,533,270,121
-43,118,-122,691,601,-97
-26,115,126,734,481,-76
-10,116,105,790,538,-64
-11,113,98,919,453,-159
3,104,97,1075,388,-212
34,104,118,898,404,-118
4,87,-127,956,286,-260
16,64,-117,1019,347,-171
32,69,-104,700,266,0
121,-119,32,3532,-942,-3738
-43,63,-4,4121,-1797,-4989
-84,-38,-5,1630,-2890,-5356
-60,37,72,282,-3557,-4830
54,78,-61,-133,-2211,-3917
-94,92,76,3294,-348,-4058
-60,-93,11,3957,1449,-4030
94,-24,32,5398,2103,-4005
3,-12,18,3067,2634,-2868
21,-35,-99,1451,1322,-667
-94,-85,52,-859,655,-216
121,-43,5,-204,-442,134
-98,-98,-29,374,-1093,290
-16,-34,-87,-3445,-2578,1843
-21,60,-43,-6254,-2671,3054
102,-21,-41,-7525,-1382,3571
-18,84,30,-5377,-1258,4550
-27,126,-80,-1757,-1224,4948
-121,40,58,1687,-1725,5141
51,88,120,-992,-1868,6088
-40,-54,69,-5532,180,4192
-25,-79,92,3578,325,-213
127,-88,18,7490,-10,1966
24,99,62,1613,1,2741
89,-30,-36,532,-285,273
60,78,-41,1335,-144,-1327
42,52,-11,1119,195,-1427
-9,20,-34,678,521,-1282
-3,7,-46,429,223,-951
14,5,-68,523,279,-415
36,21,-91,386,202,-337
49,37,-89,390,65,-262
51,38,-95,560,111,-343
41,54,-82,521,53,-263
59,52,-75,915,107,-69
-20,50,-95,1050,181,-677
100,25,-112,868,85,-127
55,93,-51,-532,-748,1477
-36,-96,-53,-1033,-412,1284
11,124,-97,558,420,90
38,-126,-117,1305,277,-248
25,-84,-118,446,181,-458
49,-105,-118,335,74,-368
-3,-111,-111,445,112,-420
-1,-117,-112,681,413,-505
37,-116,127,857,270,-616
47,-111,-107,578,-85,-672
9,125,-105,443,252,-696
6,100,-103,864,133,-190
27,120,-112,811,90,341
-51,-73,8,1443,2746,-3847
54,127,106,4753,1015,-5938
-75,5,12,4197,614,-6813
84,-29,63,2443,-1876,-6621
37,27,-97,-579,-2357,-5244
49,-25,68,2091,-1402,-4626
-2,67,-91,6152,1699,-5964
-34,69,-127,4509,5011,-5378
70,-31,43,2679,3543,-3327
-86,-42,-112,-217,2844,-817
73,35,50,-3613,-3694,1828
-4,-19,91,-5806,-3936,3353
-18,82,-107,-7313,-3726,3152
41,-53,-96,-4978,-2698,3569
-77,-104,88,-3941,-3327,4697
-103,26,-10,-537,-4101,5879
42,-88,-121,2227,-5592,5750
4,14,111,821,-1738,3458
-3,9,55,1579,89,1779
-28,1,16,5354,140,245
41,79,-26,4218,-373,3409
-113,-77,-73,-664,706,2519
-104,-75,-75,1186,-227,-901
-95,34,102,2975,1180,-2152
-89,46,109,2214,1166,-1665
-103,19,127,1600,522,-810
-101,-17,-110,1038,-72,-55
-69,-8,-84,716,-774,-379
-58,36,124,1151,11,-324
0,20,-121,1164,535,-924
29,2,-107,804,288,-864
3,-3,-73,243,-260,-647
10,-2,-79,-41,-66,-422
-4,-17,-119,519,507,-444
-27,-21,96,1025,413,-231
-28,17,96,534,32,464
-8,73,107,-431,-25,844
-2,87,82,-355,202,749
21,78,104,219,-62,359
13,92,120,593,-7,-45
9,80,114,832,142,-437
-6,93,121,539,130,-79
-20,104,115,163,8,39
-20,123,99,-20,-17,179
-20,-118,90,9,-60,98
-1,-89,89,166,-48,-35
30,-73,79,706,-158,-444
15,-78,94,506,-73,-1032
4,-91,109,254,178,-907
-11,-112,97,301,274,-716
103,-110,41,-8738,-962,955
50,-9,-35,-1867,828,-2126
54,97,-17,2058,2975,-4192
73,30,77,2059,1573,-5907
124,-103,-81,2877,1454,-6558
36,-92,-89,-1557,2446,-4943
-35,-11,-72,2572,1510,-3415
67,-47,84,5525,4031,-4085
112,69,-92,9663,4181,-4873
-66,-111,-75,7400,4172,-3275
47,-62,99,542,2781,-589
-106,108,-17,-1897,250,1088
8,-14,104,765,-1105,237
47,40,-92,1023,-1213,-151
-126,-121,48,-1645,-2786,652
53,32,117,-5759,-3051,3634
-84,-34,-87,-7807,-2613,4134
-77,101,3,-5183,-2803,4190
83,-122,-61,-5227,-2032,4630
-67,-25,-122,-3426,-2099,3696
87,-110,-103,4785,-3210,1963
122,-32,52,2602,-1477,3698
79,88,-116,3141,-1168,2823
-64,-70,-60,4879,172,2533
8,119,62,4383,762,2319
0,-30,-79,2479,-994,3244
-19,-119,-66,1648,-811,462
-90,8,-51,1264,147,-2011
-25,-116,-53,2158,1423,-1869
-68,-83,-30,1236,612,-991
-102,-61,-19,3,-234,-125
-77,-47,-53,-777,-31,-45
-49,-59,-106,-180,242,-560
0,-67,118,760,123,-1005
17,-51,121,921,13,-1290
15,-48,-125,689,-69,-1332
31,-45,-98,353,-39,-967
27,-53,-104,517,-7,-621
41,-45,-100,697,-120,-225
34,-13,-91,255,-21,116
-8,-13,-110,296,84,283
-22,-5,121,524,71,789
10,28,104,527,237,1195
14,66,98,388,140,1189
23,96,102,255,169,734
10,89,109,450,-5,-133
-12,53,114,991,7,-433
-6,75,122,454,146,-38
-16,81,112,295,129,-51
7,78,97,506,133,-109
84,-19,90,1518,383,-6208
116,6,-15,599,-707,-6558
54,-65,17,-617,32,-5282
-38,37,71,-570,1318,-4055
-127,-15,11,2510,4546,-1793
73,-74,-101,5315,4697,76
25,-68,-121,3073,4765,-169
-52,19,-8,-126,6263,-1226
-113,12,-22,909,3776,-559
123,-61,73,1181,-963,179
93,69,-83,-421,-1940,694
-88,88,-114,2047,-472,-376
-36,-121,101,493,-3163,-139
27,-96,8,-4179,-5240,1412
-41,83,9,-5012,-4686,537
34,100,66,-5982,-3828,2021
54,121,121,-4557,-2335,3622
2,106,71,-818,-2542,4859
111,-45,-67,4345,-5028,6076
-78,83,-47,2463,-724,3564
68,-2,-4,-1064,-1987,5011
60,-85,122,848,-1485,2673
-97,-69,9,4137,-623,2829
-35,-22,-29,3254,-71,3125
58,11,-59,1809,-324,1455
-107,-86,-47,1699,-690,-921
-90,74,-58,1685,428,-1510
-103,11,-65,1271,857,-1294
112,-1,-67,880,183,-744
114,23,-66,-42,-246,-170
-108,36,-92,-656,-148,-373
-63,35,-112,-212,37,-558
-6,23,116,681,190,-781
-30,49,-128,605,-106,-658
-117,46,126,374,-291,-824
-64,77,-95,-381,-275,-58
-52,85,-121,-75,163,-60
-46,87,122,582,130,-350
-53,121,-121,472,196,-592
-40,-127,127,387,151,-126
-64,-124,-123,585,176,246
-53,121,112,964,226,273
11,-115,127,822,48,819
-44,-75,-96,601,-19,930
-50,-66,-97,189,84,297
-32,-37,-101,-325,290,-63
-25,-62,-118,260,437,-609
-1,-74,118,529,557,-893
-19,-97,96,703,340,-856
-39,-94,108,556,-32,-382
-33,93,-109,2049,789,-5279
-65,-36,-118,-2462,302,-5733
-33,-32,18,1778,-364,-7874
16,27,49,897,1290,-6569
-60,-121,2,2273,911,-5224
-6,-97,120,5148,2371,-3843
49,49,89,4999,1144,-2888
-111,-48,-74,4275,3739,-1256
-42,66,-48,681,7210,-1179
-88,27,-21,234,2828,-675
111,-117,18,-2268,-2058,246
-39,-84,10,-5973,-3744,727
112,1,44,-8101,-4294,922
-58,-88,-94,-7990,-3387,2062
5,62,-102,-6292,-3968,2887
9,3,34,-1063,-1863,3536
51,-47,77,6394,-5656,3890
79,120,96,1393,-2076,3943
-53,-114,73,1115,-3241,4492
-54,-96,-97,2583,-576,1950
-100,-89,83,2358,-1779,1537
10,102,70,149,-801,148
-11,-76,-33,1099,1066,-591
-75,122,-92,1415,914,-576
-115,-87,-85,370,-31,-13
-123,122,-84,931,-1083,-432
-49,127,114,335,26,-111
-77,123,119,-100,491,-305
-97,56,85,885,318,-530
-71,53,72,900,304,-495
-58,81,64,534,70,-216
-78,97,98,268,-322,117
-87,108,100,352,46,-48
-80,106,101,680,111,-191
-83,121,98,717,-66,-129
-59,-111,111,302,-67,56
-46,-115,114,553,113,-157
-32,-126,96,764,283,-281
-63,-121,90,397,-28,-109
-59,-112,99,200,40,182
-50,-103,86,520,168,-13
-36,-91,77,549,248,-135
-44,-102,74,668,57,-181
-39,-101,79,587,216,-202
-18,-121,75,864,100,-213
-41,-95,99,136,-144,122
-45,-93,107,262,15,146
-42,-78,105,623,73,-114
-60,-70,89,705,256,-428
-47,-90,69,902,90,-436
114,53,101,5891,2543,-6429
-51,78,-92,3369,-1970,-6217
110,-92,94,-361,-2402,-6377
40,-27,-98,-65,-1657,-5561
-102,67,-50,1607,-1012,-4177
84,61,46,4399,823,-2417
20,-102,-7,5830,3595,-1780
-11,115,-33,3099,5055,-1422
48,37,-56,2281,6349,-1229
90,-29,-14,2653,4458,118
-102,-122,104,-1759,-1682,192
-73,107,-67,-251,-1897,484
36,113,-115,1044,-2156,-388
126,-32,-123,-5698,-3325,1504
95,-21,-65,-7401,-2928,299
113,60,5,-6565,-3564,1061
-107,-4,-109,-4424,-2251,3125
-38,120,-69,2211,-412,4939
-4,-15,9,2224,-2083,6650
98,-45,-17,1739,-1670,4954
-22,-46,-75,-1289,1480,3172
-113,-93,-70,-2564,-289,3325
-118,100,80,1281,-1465,2582
125,-99,70,-115,-2034,4331
94,14,18,809,-1551,3444
-21,-19,-128,2307,-573,-1789
-62,100,105,1878,1195,-4429
74,49,104,1321,1629,-2962
-55,28,-88,995,-304,-904
-125,17,-88,696,-763,-210
-81,40,-81,-335,-225,-120
-14,74,-93,-459,207,99
-23,52,-122,815,236,-296
1,71,-123,1117,151,-59
-25,-126,-109,-264,-53,49
-53,126,124,-177,150,-319
-37,91,96,1070,-1,-508
-1,-102,-126,941,-242,-215
-4,-69,-123,79,246,124
-47,-109,-127,731,9,-12
-42,-117,120,755,105,-258
-19,-127,110,427,134,-161
-12,-125,127,535,143,86
-34,-89,126,289,-149,583
-11,-81,116,360,91,286
-12,-95,97,762,101,-59
-8,-80,115,289,-15,-137
-10,-79,119,179,12,-33
-25,-96,118,651,-3,-37
-15,-87,102,655,175,-130
86,16,107,-5800,-1903,1309
22,-125,52,-4131,519,-2064
-79,31,-96,546,1030,-5160
16,-45,-44,330,3675,-7319
98,-32,0,-645,1654,-6951
-4,-35,61,-338,1601,-5303
-43,107,30,2356,3921,-5539
-97,126,-70,5883,4079,-4938
66,90,91,4963,4683,-3180
24,61,-127,3627,4457,-1721
-78,73,80,1661,5237,-1376
50,121,76,371,1757,-759
42,87,-12,-620,-1391,464
-121,114,-106,111,-1205,731
-43,-51,60,390,-1738,174
65,64,109,-4482,-3663,1224
83,100,-100,-6697,-3627,898
94,110,-7,-6854,-2036,2320
53,24,-95,-5625,-2846,3773
85,-32,111,-1634,-4144,5515
-19,-51,-60,1860,-3444,4863
-28,-21,-4,2774,-2168,3801
-8,-115,27,-3017,-3538,5476
-119,-57,95,1937,-1637,1855
-100,-59,-122,2681,-1756,3155
92,-57,51,1448,-635,97
-32,-9,54,1169,587,-1791
-63,45,-25,1099,1318,-1208
-103,76,-48,868,-17,-184
-87,95,-75,538,26,-125
-53,97,-94,445,333,-364
-51,97,-114,594,270,-368
-40,115,-94,459,178,-293
-32,99,-108,736,340,-487
-30,85,-100,869,275,-461
-13,78,-115,863,323,-562
-17,34,-128,1836,-123,-432
-28,5,-125,3027,-153,-445
-15,52,-97,512,274,-29
-12,113,-123,-856,130,942
-43,80,-125,411,-489,590
-33,107,-123,391,118,3
-22,113,121,756,174,-128
-17,123,116,693,123,-223
-16,109,114,664,169,-408
-17,69,119,931,105,-467
-21,76,-125,532,103,-175
-18,83,126,467,171,-300
11,70,104,855,269,-268
6,79,102,568,100,-70
-87,43,-109,-9603,-3160,4740
37,-72,-21,-4020,-1131,1507
20,-70,107,2226,1416,-3325
-4,16,-23,-77,4098,-4743
-52,-11,-88,776,4259,-4940
-65,-97,-54,2334,2573,-7783
-61,-62,79,-550,1619,-5759
34,-33,1,3264,2344,-4908
-3,-44,-108,7079,3206,-5345
127,-100,122,5466,3214,-3426
-39,-21,81,5564,3391,-2600
59,115,42,2299,4078,-1330
-113,-57,-21,5799,4439,-1663
65,-31,105,-5380,-823,1000
65,-125,99,1644,-2096,-160
-92,100,-29,-8,265,-268
119,120,61,-854,-1593,-51
61,-81,60,-8039,-3629,1828
30,-33,52,-10408,-3814,909
-47,119,-110,-7621,-4054,558
1,33,-25,-4839,-3332,1532
-107,95,-101,2053,-3154,2563
-84,-50,70,4025,-4114,4381
102,-95,41,4565,-3243,4728
-72,77,65,2007,-39,4650
-30,-24,41,1055,-1067,3235
-125,-15,-38,2266,-1422,3988
0,126,-33,537,-888,2944
-55,-2,14,1062,-988,-1053
-55,35,-80,3455,1323,-2938
-50,43,-116,2587,1900,-2440
-66,84,-98,-340,881,-1020
-87,40,-106,-118,-289,190
-78,5,122,576,-24,-177
-27,25,113,789,352,-366
-8,31,106,893,114,-466
-4,35,127,741,-202,-456
-17,36,-114,453,-193,-391
-44,31,-98,526,-56,-212
-40,35,-100,616,-14,45
-10,62,-102,328,-18,242
-12,79,-103,278,-55,207
-14,88,-113,392,159,102
-23,89,-121,588,189,54
-14,102,-126,545,193,101
-14,115,126,538,165,-31
-27,114,120,599,249,-233
-18,116,110,470,125,-218
-3,123,102,258,-12,-122
0,125,103,307,43,-211
0,5,87,3576,-137,-6531
18,40,117,5327,-808,-6611
113,-75,22,3546,-1907,-5276
102,-17,76,1749,-1727,-3034
32,-113,-35,3357,175,-1875
122,-45,-29,2729,1914,-2903
-58,-2,-97,5106,2963,-3265
9,49,26,2175,3906,-1941
91,44,-43,-292,4190,-508
-4,36,22,-1195,1181,-332
-57,-47,127,630,-1060,-347
-24,50,-92,858,-1401,476
15,-77,100,-1237,-1722,205
117,-90,81,-4523,-3906,590
33,13,-78,-6595,-5275,895
122,122,-40,-7204,-3248,1300
-30,-123,80,-4205,-2304,2486
122,105,35,24,-2487,3546
-116,99,-5,1163,-4999,6096
81,37,-20,28,-3339,4232
47,72,-44,2242,-2198,3237
93,39,-38,1295,-1807,3106
-127,-66,45,190,-150,2633
-122,45,-67,767,-314,2315
104,41,-72,1477,-1113,2176
51,95,-89,260,-326,978
-30,12,-115,509,342,-1006
-67,-32,-111,430,653,-1375
-71,-83,-108,230,756,-1029
-100,117,-92,1148,93,-325
-76,-98,-96,414,180,-47
-40,-99,-114,247,257,-261
-44,-92,-108,-118,136,-108
-34,-93,-104,27,231,-119
-16,-84,-106,600,325,-174
-10,-12,-85,-323,332,-107
-21,-51,-103,533,553,-510
-17,-66,-93,826,463,-482
-17,-62,-88,503,545,-500
19,-67,-84,485,578,-570
83,-60,-80,550,192,-80
-5,-54,-42,631,-42,4
9,-88,-39,1206,482,-130
12,-89,-51,1391,229,157
0,-59,-43,627,-114,278
17,-61,-45,406,-27,235
62,-83,-70,766,93,204
19,-56,-44,486,-178,408
19,-61,-47,567,226,-49
41,-77,-57,797,293,-316
28,108,-41,-4532,-2687,1333
41,68,5,-1693,-635,-92
-111,119,-40,-795,3143,-4560
38,-104,-115,874,3995,-5551
-98,-5,22,1444,3418,-6458
116,-60,4,294,3875,-5341
19,-119,-74,3376,3270,-5576
-27,127,-89,2607,3381,-3853
58,42,124,3286,3387,-2461
127,11,122,3978,3884,-1053
-34,-10,116,5775,3799,-1147
21,95,97,1523,4247,-2326
14,-39,46,-5295,3364,-674
-99,73,-72,-710,287,-364
-116,-68,-86,2195,-506,29
119,21,103,2284,-1319,-457
-25,-29,19,2392,-3426,-425
25,-26,-1,-3335,-6193,1695
-116,-61,43,-8010,-6056,2608
105,-67,-62,-9006,-2985,2441
7,-5,107,-8102,-2482,2229
-18,58,109,-621,-2588,1241
77,34,58,5949,-4899,3860
5,113,73,4870,-5155,5334
-33,85,-121,1467,-2053,4063
21,-25,32,277,-4842,6879
41,28,26,3217,-1595,4279
89,94,3,2761,-725,-446
-112,-80,39,2768,-147,-3117
-80,36,-12,1964,2024,-2375
122,-3,-40,1619,1178,-854
91,12,-3,1101,-483,445
-118,26,-22,22,-65,84
-74,3,-34,326,334,-509
-55,-14,-32,791,233,-793
-32,-1,-29,308,378,-738
-30,-18,-39,257,249,-658
-14,-15,-52,450,304,-408
-40,-3,-76,595,322,-343
-48,34,-82,198,203,-290
-46,40,-93,412,116,-27
-38,55,-99,340,-152,12
-12,86,-87,54,-60,181
-21,86,-78,545,-229,212
-32,113,-67,481,-173,169
-42,-124,-64,395,-22,91
-44,-114,-66,398,-165,59
-36,-99,-64,454,-169,15
-32,-107,-70,631,-152,-26
-31,-104,-77,247,-177,259
-52,-30,-32,1571,2002,-6302
121,-128,-31,1427,1311,-6428
102,18,-28,2466,1706,-6004
-53,-127,102,8329,1132,-7033
55,-11,-70,3686,2091,-4476
-123,-120,-81,5381,3620,-4054
6,-5,18,2502,3238,-2109
25,-46,-27,4002,3124,-2735
2,52,-82,-807,1957,-891
-112,-17,-37,-1136,-1182,237
-72,-82,-92,839,-1605,411
-48,38,22,-791,-2969,456
54,-88,-62,-6584,-4753,2694
-93,91,-54,-9688,-3762,2241
119,-120,-81,-9097,-2357,1220
-42,55,-62,-7618,-3539,1636
-46,-111,98,-1015,-2909,2509
102,-4,32,8162,-3932,4655
98,0,7,3018,-1930,4878
-11,-68,42,342,-2428,5826
33,89,53,2848,-768,3236
99,-37,34,2993,-109,3465
-9,1,-32,1506,394,2641
-16,-47,10,1635,-537,-39
-56,73,-1,2397,331,-1649
-44,-37,13,2236,754,-1906
-30,-28,32,1152,456,-795
-64,-27,32,-12,-124,-62
-32,-32,1,-93,165,-109
4,-27,-31,326,453,-658
15,-19,-27,648,462,-931
15,-7,-27,567,229,-980
18,1,-26,433,43,-639
13,-6,-31,637,-135,-211
-21,-49,-45,2397,-1176,327
-38,-74,-63,2934,-1115,-114
-23,33,-68,-619,-63,427
-47,23,-112,-1548,-56,612
-63,27,-110,-799,-204,732
-57,39,-118,141,-13,624
-36,77,-117,463,168,214
-39,72,-126,1853,223,-413
-46,62,122,2272,258,-1025
-22,103,113,652,92,-592
-30,80,109,-287,33,-409
-33,70,122,-163,98,-277
-21,83,118,-36,142,-64
-42,105,-127,-81,-20,-209
-22,113,117,112,55,-183
-28,126,123,586,-523,-60
73,-22,-14,-730,2028,-6319
-101,-91,-37,863,2071,-5579
90,-50,126,3707,1735,-4989
112,-121,-45,2739,1372,-2714
2,-70,-60,5867,2458,-3040
122,-78,-91,5456,4483,-2801
7,-44,-95,2380,4937,-2346
35,-116,97,500,2260,-845
102,82,117,-2208,-933,607
122,-47,107,-862,-1920,1012
-124,112,55,-1643,-2230,820
-83,-12,105,-4829,-2960,1167
-90,86,-19,-6925,-3386,1107
7,-20,76,-6232,-3161,1954
-65,114,14,-5423,-2617,2930
-104,-12,-113,-443,-2563,2801
30,-40,8,3955,-1755,2879
-33,2,33,1179,-2042,4192
11,-63,3,-406,-1120,4200
-9,-26,-48,436,-2682,4128
-36,-30,51,4184,-1219,2260
-4,-36,14,3352,-148,2560
-117,-3,-20,1788,-1,1800
-14,-61,-17,1573,48,238
-46,-104,0,669,1154,-1052
-66,102,-21,1051,385,-955
-80,65,-26,547,-253,-600
-104,34,-35,351,-575,-498
-80,58,-24,-257,-307,-460
-26,37,-51,374,-136,-899
-16,23,-61,803,-150,-1162
-35,18,-78,794,-361,-1008
-48,29,-93,438,-1143,-661
-39,69,-109,-224,45,-314
-61,62,-117,269,237,-232
-66,52,114,989,197,-299
-65,89,119,577,-10,72
-53,100,114,373,309,-171
-41,110,-126,892,644,-126
-57,-104,-127,639,-250,586
-48,-76,-121,-2,-88,699
-65,-75,120,141,-174,714
-69,-68,110,268,-43,424
-59,-59,97,226,61,131
-51,-45,82,142,-187,-61
-39,-27,85,-126,-297,-136
-52,-24,75,-120,-195,-403
-71,-34,70,153,-232,-549
-58,-26,69,59,-331,-506
-35,-7,86,-126,-350,-448
-5,68,65,-1021,3751,-3660
-38,107,111,1652,5383,-6954
105,-9,67,1563,2160,-6457
8,18,-31,232,1390,-5999
124,-123,-56,2499,810,-4826
-14,-25,16,4119,1180,-2921
-29,8,-66,2121,4214,-2156
12,18,61,6167,4089,-1960
64,-99,120,6439,4368,-1857
99,-4,-78,1065,4352,-558
-55,-71,63,578,290,29
-106,-76,-54,-215,-800,-29
-85,-75,-6,423,-942,317
18,66,54,-1629,-1671,-296
-73,-3,-49,-6847,-5841,199
-60,-80,-23,-9967,-3825,1970
-95,-101,34,-6644,-2427,703
-47,1,-123,-4232,-3725,2526
-59,118,122,2400,-5103,3925
-82,43,-106,4967,-5263,5190
-89,-5,43,837,-1281,3189
73,34,38,-652,-2540,4338
101,24,-70,2043,-1680,3352
112,-36,50,3077,-66,2970
90,60,45,1821,-720,274
-30,-62,27,1725,766,-1768
-29,95,-40,709,1499,-1431
-90,35,-56,289,15,-187
-110,29,-73,446,-270,239
-63,49,-69,751,-69,-144
-38,73,-67,396,80,-391
-20,49,-63,657,-65,-566
-27,38,-63,451,94,-431
-34,35,-65,226,-185,-263
-26,51,-66,211,-102,-112
-29,72,-82,436,-64,-224
-27,107,-88,294,-5,-413
-28,122,-92,148,129,-362
-37,113,-98,609,111,-322
-40,-127,-101,623,188,-213
-38,-125,-91,590,-215,-8
-33,-115,-97,386,-158,14
-35,-103,-94,281,-181,-20
-34,-101,-93,393,-130,48
-30,-85,-92,260,28,56
-33,-88,-97,583,14,-74
-31,-72,-96,449,87,-4
-29,-71,-104,375,15,-95
-32,-67,-106,402,114,-86
-33,-67,-110,321,67,-71
4,-52,-93,6495,631,-6454
-52,60,80,6322,-508,-8545
61,16,-27,-597,-3335,-5327
101,77,98,-3804,-50,-5085
89,10,22,2060,81,-4513
31,122,-86,4803,-290,-3020
-117,-2,-91,4823,1863,-3401
17,62,106,5716,3710,-4198
88,92,-6,4084,2597,-2769
-109,40,-44,2890,3241,-3341
28,42,120,-1044,1336,-520
109,-58,0,-790,-1606,1147
-50,-99,-30,1684,-288,105
109,15,-119,-1135,-2334,2408
-61,106,121,-6620,-5239,4407
21,-27,65,-8908,-3275,4230
-63,-120,-9,-8608,-1818,4166
122,-91,-70,-3834,-2302,5013
4,-105,-84,2525,-3345,5072
33,-60,-22,3440,-1628,5102
-70,54,88,783,-187,4318
-72,122,63,1801,-900,3536
69,64,-71,5065,-173,3410
106,17,-49,1602,1043,3167
-21,1,-57,-62,-16,-135
-60,9,-58,2634,210,-2760
-1,-75,-66,2752,1241,-2404
-53,-73,-22,930,-323,-602
-79,-82,-53,-248,-494,38
-53,-74,-77,-375,-122,99
-17,-51,-91,-180,-51,-135
3,-51,-93,416,65,-514
11,-38,-83,624,78,-677
-1,-27,-91,279,-99,-582
-2,-17,-91,225,230,-315
-13,-11,-101,373,24,-27
-12,21,-110,144,-46,188
-6,47,-124,190,-22,210
-8,50,123,534,29,146
-10,75,126,494,-10,94
-6,82,116,404,24,52
-10,91,122,441,82,-4
-11,104,121,424,44,-51
-6,113,119,315,30,-120
-12,114,124,367,-6,-169
-7,114,125,460,134,-200
-9,119,120,482,119,-229
-4,124,112,430,91,-216
-5,123,109,500,94,-173
-5,-122,107,404,86,-89
-114,-25,2,985,2998,-4811
98,-56,-94,2463,3308,-5701
-22,90,112,5,3983,-6613
-4,-43,36,4718,1556,-7539
22,-53,36,4819,229,-6104
-40,-126,-41,7082,-388,-3842
96,57,40,6073,2557,-4133
19,47,92,3820,4416,-2773
93,-37,-10,1536,3778,-1571
25,85,54,-1381,1666,-475
-104,-55,118,528,-698,-192
-78,-20,-128,303,-1545,492
19,16,-9,-1171,-2098,644
-108,20,118,-5485,-4943,2173
-28,-122,45,-12754,-4625,2133
-42,28,-128,-12535,-2817,1673
-83,-88,120,-6578,-3791,2168
62,78,-39,5250,-5022,2388
68,-62,33,8994,-7110,5607
87,-47,-112,548,-1165,3637
93,-43,121,1934,-381,2553
-102,-3,57,4580,-943,4474
-76,119,-32,2968,-400,4739
-19,67,-76,1556,-1490,-431
-73,113,-33,2673,-91,-2380
-72,31,-51,1720,1440,-2102
-111,-3,-68,439,794,-947
-102,12,-58,-54,-228,192
-47,-1,-101,146,402,-550
-14,-32,-99,791,395,-1031
18,-50,-88,830,361,-846
11,-37,-80,300,260,-730
15,-37,-86,400,204,-474
16,-27,-98,576,222,-452
12,-2,-94,522,154,-114
0,10,-98,545,157,14
3,33,-82,526,51,126
10,60,-67,465,196,146
39,60,-70,629,168,128
38,76,-54,648,197,156
44,75,-62,715,33,87
31,91,-60,355,52,194
-34,108,-54,160,198,-72
-16,82,-96,638,372,-424
28,86,-104,567,-60,-105
58,101,-98,424,14,185
37,116,-82,468,-48,69
5,108,-78,796,119,-233
24,98,-78,915,317,-278
32,93,-86,827,248,-149
-69,-10,108,3874,-886,-5387
-52,64,86,3699,-3783,-5421
82,-53,87,257,-2118,-5575
-57,-47,83,2711,-2849,-4661
-71,-92,102,2411,-1163,-3879
124,-77,-56,2996,-269,-2718
-47,-79,-43,-1690,1741,-265
110,13,-34,1198,2625,-2093
-1,52,48,5154,2914,-2413
104,101,-70,1397,5181,-1862
22,30,81,398,1066,-33
-100,-13,-10,1310,-1493,148
-49,94,16,-333,-548,427
-85,93,122,-6,-827,358
5,-61,86,-4416,-3779,1248
1,-54,-63,-6836,-4571,2301
118,-64,-62,-9506,-2742,2599
-52,-22,53,-6746,-2751,2610
-98,-50,13,-2042,-3127,3317
71,-89,-52,3692,-3091,3696
-10,-65,-26,2551,-2848,4043
-76,109,-92,1269,-1520,4144
-37,32,113,984,-1452,5662
-123,-121,19,571,-744,5483
-95,78,-91,3302,-1341,329
-46,-113,-36,3896,-456,-3731
-5,47,-117,3458,2187,-3371
14,72,-107,968,2254,-1399
-59,32,-75,734,77,-4
-63,3,-63,515,-628,-44
-3,20,-73,117,-308,-376
3,56,-20,-445,-863,-212
5,40,-32,83,-272,-393
-4,17,-49,986,88,-768
4,51,-63,926,9,-601
-17,85,-83,111,2,-634
-15,66,127,124,222,-862
60,45,107,745,30,-596
30,76,124,538,-204,-303
19,56,-110,820,-305,108
-71,101,-103,402,115,590
-123,107,-93,954,-601,476
-41,-112,110,426,365,328
15,-109,73,116,111,519
25,-60,74,-456,-256,762
-68,-70,96,-204,-1123,-221
123,-41,103,90,-510,-27
-33,-16,79,-538,860,-538
-121,-44,37,502,651,-558
72,-80,62,1803,-38,-878
-90,-62,101,4251,-3373,-6870
-66,66,-25,1059,-6085,-6049
-116,52,-44,-1886,-2036,-3956
-13,64,-120,4748,-792,-4996
-31,-109,-32,5784,2811,-4325
-92,40,-101,2116,5583,-3296
7,-27,5,1682,3457,-2217
-16,-39,44,-552,367,-527
-124,70,-125,-1276,-1325,583
-117,99,-104,-2698,-2622,2041
-127,-25,-36,-5049,-2398,2821
117,87,-16,-5546,-1223,3218
36,6,36,-4487,-999,3914
2,96,123,-1394,-1020,5532
121,32,-96,1616,-167,6494
111,79,-91,-635,-430,5141
-21,74,-55,82,-1984,4940
30,-82,-20,-2030,-1385,4422
38,-27,-65,1578,-927,3516
-44,-79,122,4600,56,1055
7,-21,-103,3127,-579,-1457
-75,-83,-72,1598,344,-1722
-69,60,-115,789,1377,-1691
-44,23,-121,635,712,-1077
-73,50,-106,11,-196,-401
-29,51,113,-310,172,-1147
22,42,101,-17,237,-1399
45,42,85,120,138,-1611
46,46,87,93,24,-1342
34,50,94,247,20,-817
-2,60,93,380,-60,-380
-15,80,105,208,-214,92
-19,107,113,141,-191,582
-18,127,113,276,-59,744
4,-112,108,553,4,881
0,-85,103,373,-28,913
0,-63,108,274,-132,799
0,-58,96,448,35,397
9,-53,97,517,-25,177
-3,-78,90,1186,189,-357
-22,-101,93,1531,-56,-408
-19,-68,102,350,94,-36
-33,-55,100,-143,65,-220
-9,-88,82,632,221,-900
13,-104,72,789,60,-980
11,-90,85,100,-37,-555
-11,-95,85,146,112,-484
5,-117,72,785,133,-415
-1,-85,85,242,-178,-28
-16,-70,109,42,24,75
-13,116,-88,3208,1326,-7361
109,-120,52,2606,-16,-6684
-71,-78,57,4409,-597,-4784
87,-105,-21,6893,-110,-3455
-123,77,73,4074,1589,-3528
-36,35,65,3603,3030,-2005
66,10,-20,2275,4509,-1898
-21,-32,36,486,1529,-1125
117,-86,-93,-1251,-353,432
100,94,79,208,-1677,914
-37,2,55,-2705,-2976,1949
8,100,-62,-7455,-4526,3311
88,91,-72,-9927,-3268,4204
-108,-69,-8,-7760,-3260,4009
-92,-97,-36,-2439,-3405,4423
-126,71,-114,5677,-4254,3891
109,-19,60,3674,-2580,4400
-14,121,21,589,-2032,4341
33,67,-11,1784,-986,3437
-114,-3,-57,3436,-618,3412
-48,107,-71,2014,354,2088
-73,-63,-79,3201,-666,-2168
-76,96,-73,2729,385,-2820
-36,49,-92,778,1929,-2017
-60,7,-93,125,893,-1284
-66,-25,-95,658,48,-501
-37,1,-111,207,-70,-335
-4,15,-115,20,14,-398
16,9,-122,415,121,-578
15,-6,-128,978,186,-718
18,-4,126,837,448,-827
15,37,-88,538,165,-105
0,46,-93,497,-301,251
12,60,-101,347,-124,302
16,63,-114,396,63,176
12,74,-118,365,155,204
5,89,-117,359,150,284
0,90,-123,677,-1,307
0,106,-126,776,-93,222
1,113,-128,676,-49,58
2,122,125,438,12,-108
25,112,117,503,93,-242
13,122,-127,243,-53,-195
-10,123,117,67,77,-215
14,-122,120,24,9,16
11,-108,118,171,128,-37
7,-83,121,204,253,-256
15,-91,109,500,389,-594
15,-106,103,744,332,-644
-6,-104,108,574,255,-635
73,71,111,2292,1994,-6367
-8,-91,-30,3188,-1149,-6162
122,48,-103,961,-606,-5153
-118,-118,20,3551,-833,-2995
117,-62,-66,5143,974,-2934
-50,-50,-17,6173,3086,-3590
103,2,59,3046,4023,-2482
111,-80,-65,1538,2540,-847
-127,-103,-3,-254,-1516,9
-51,122,-29,-1266,-2494,1220
4,-34,30,-4138,-3497,1877
-117,45,-10,-5255,-3345,3142
31,-9,-16,-6055,-1256,4336
-122,108,16,-3775,-2029,4250
-89,44,-83,-1766,-1667,5683
-4,-28,106,2627,-1163,4006
-8,13,89,1194,24,4300
36,13,101,-690,-81,4182
-125,-55,95,-1751,-92,3958
-23,-30,-81,719,-1261,2775
48,-101,-85,4437,-552,2283
-88,-63,94,4023,269,49
-8,-128,-84,2891,-458,-1676
-34,39,-76,2176,415,-1482
-44,13,-50,545,814,-808
-46,-4,-75,288,594,-273
-18,-27,-105,624,402,-627
60,3,-121,32,262,-822
53,-2,-125,18,160,-941
47,-8,126,299,329,-1204
55,-20,105,574,440,-1419
65,-12,110,581,185,-1010
61,2,113,424,-9,-320
23,39,-117,-148,-310,519
15,62,-126,-161,2,554
45,70,116,469,33,459
51,90,118,564,-92,571
38,-125,124,196,-101,633
27,-122,119,275,-55,318
22,-125,118,584,20,21
38,-122,108,595,95,-107
27,-117,111,409,-2,93
18,-106,110,392,112,-155
22,-123,101,755,128,-484
20,-120,110,490,-59,-344
46,-128,122,561,216,-301
52,90,118,1672,480,-499
-19,95,111,1418,362,-594
70,100,95,457,400,-86
68,104,81,138,-92,323
-39,-128,-94,4459,3229,-3963
120,-110,23,2469,2143,-5837
-9,74,-105,2067,1354,-7608
-38,118,19,3944,-765,-6709
-81,-45,48,1193,-1096,-4630
-5,-38,34,7706,-952,-2073
38,85,-28,5090,2191,-2476
28,45,94,3675,4193,-3629
-63,-113,-54,2579,4511,-2312
111,78,10,-1274,2683,-813
120,-128,-27,-629,-865,-14
117,-96,-67,-1477,-4159,1529
-44,13,6,-4951,-4485,2013
114,64,-104,-9805,-3570,2245
9,-109,-102,-8259,-3300,1492
-124,-33,-117,-5251,-4698,1143
-125,-32,11,-799,-4482,1410
-70,25,-33,3616,-5010,2619
-112,95,56,2320,-2315,2782
-73,115,74,1967,-3105,3585
67,-48,-109,2932,-1632,3791
122,-15,40,4967,-695,2364
-14,-8,-103,4601,704,2994
98,-75,60,30,-1561,3074
-92,57,21,-395,-709,721
-125,69,-101,2854,1397,-1560
116,87,111,3085,1684,-1891
-118,107,115,1319,835,-1255
-87,89,-124,-2,-49,-360
-71,58,125,143,-382,-457
-41,40,124,587,-33,-899
-48,37,-100,728,-273,-1057
-50,41,-88,336,-171,-931
-44,27,-97,300,-21,-666
-66,33,-96,336,-205,-209
-66,66,-99,-142,-165,-111
-22,88,-93,-180,16,273
-27,77,126,608,442,269
-63,110,-127,612,67,525
-59,-110,117,-71,196,733
-32,-100,106,182,244,726
-30,-99,87,898,92,166
-24,-80,118,573,-14,-41
4,-112,112,896,585,-344
0,109,101,1384,224,-271
-48,-114,114,120,-180,203
-100,-75,123,-1230,-326,736
-48,-54,125,-864,-174,699
-30,-46,120,291,-116,73
-14,-6,125,242,-19,-757
96,-121,-113,2344,1640,-5366
29,-13,16,576,979,-6249
37,13,110,1062,-713,-7224
-54,-75,-121,1753,-625,-5777
25,49,-112,4280,-634,-4134
-36,115,55,7411,-128,-2450
71,108,97,7681,2013,-3902
46,89,93,4313,4370,-6328
-35,-91,117,1342,4181,-2854
-71,68,125,-3814,2969,9
-93,56,120,772,-913,135
-38,-73,-90,261,-1672,930
9,1,-98,-1725,-2889,1706
67,89,-24,-6521,-3906,3886
-34,8,9,-9281,-3565,2954
55,-76,-7,-10334,-3422,3259
-31,-52,30,-7733,-2820,3404
-19,20,10,-314,-3852,3283
-59,50,50,8097,-5715,5055
-49,32,-64,986,-777,3886
51,-64,-116,1887,-687,4065
-123,33,-11,2747,-682,3704
61,103,60,972,-2005,3527
5,19,35,1000,-1461,565
-51,111,-8,2295,471,-2310
-54,64,-40,1732,1623,-2122
-81,40,-54,619,969,-1266
-86,-5,-43,940,-128,-346
-63,-25,-71,789,157,-351
-44,-20,-99,400,432,-450
-37,-40,-107,901,95,-420
-21,-14,-106,521,69,-388
-16,-20,-107,571,-1,-270
-19,11,-94,340,-66,-12
-19,31,-99,325,51,-49
-29,37,-97,491,-73,31
-23,60,-99,426,76,112
-21,76,-106,421,60,79
-28,96,-110,392,38,-19
-30,89,-120,658,172,-233
-33,81,124,801,108,-300
-14,85,118,632,-35,-198
0,91,124,327,-96,32
-2,118,-108,-17,-134,187
-25,118,-107,309,145,-73
-18,112,-112,704,202,-188
-22,-126,-123,450,112,-137
-30,122,125,520,168,-207
-6,114,112,762,153,-275
18,121,110,520,-49,74
107,-82,41,6295,-4428,-6394
81,1,22,2742,976,-11514
108,-89,119,924,1954,-8014
79,69,115,2374,-980,-4384
-122,-25,-30,1797,100,-3236
53,114,-33,2972,3383,-1321
-27,22,113,4134,4113,-2221
-12,-24,88,1236,944,-885
-125,51,-44,-800,-559,272
-125,-1,116,96,-776,-198
-87,60,109,-2239,-2480,763
69,-90,-69,-5273,-2502,829
3,7,29,-7571,-1822,2503
97,-62,40,-7743,-1632,4009
-26,-42,-28,-3966,-2201,4862
98,-37,58,-96,-1961,5275
-127,-85,-68,1272,-3686,6153
35,-62,-128,-1439,-2677,4649
-10,-128,84,2210,-1445,4699
35,34,-6,3360,-1731,4492
71,6,109,-688,-3162,-73
-35,41,-85,2041,1428,-4740
48,23,87,1742,3640,-4125
-23,67,-44,1217,767,-1084
-91,55,-55,1084,-551,478
-6,94,-89,-702,49,17
36,97,-118,-487,433,-291
60,62,124,699,253,-765
28,64,-113,1113,126,-793
11,70,-106,562,410,-801
65,51,-93,373,411,-399
63,65,-78,341,54,256
30,102,-54,-41,-273,275
43,113,-79,357,-32,154
32,108,-96,971,-55,60
28,-116,-97,483,-189,276
21,-91,-90,-47,-227,435
0,-101,-89,348,-139,455
0,-89,-93,462,-20,403
0,-61,-103,119,24,303
20,-47,124,-55,147,19
-4,-40,-126,21,-234,-223
4,-52,127,431,23,-610
33,-60,115,829,333,-840
28,-73,109,917,-77,-1056
-4,-61,-116,266,-439,-759
-43,-67,-81,-54,-432,-464
-13,-75,-98,278,272,-146
-9,-64,-102,420,136,-57
-19,-48,-110,388,88,71
124,37,-78,3302,2679,-6662
-21,-106,26,2871,885,-7457
-25,-64,14,-1758,36,-6221
-104,-77,-3,-2087,1297,-3883
-11,20,-41,5311,1263,-4086
8,9,-40,6637,2737,-3883
118,63,110,8689,3866,-3765
74,127,119,5092,3533,-2543
-67,-62,-62,-2410,3352,-481
-7,-59,-47,-5039,1609,1021
83,30,78,2262,-2408,-213
-86,-34,-96,1163,-1812,164
-35,79,-118,-1917,-2427,67
-13,24,-65,-6246,-3910,2455
-63,-90,-65,-10296,-3247,3105
-8,77,-5,-10231,-2573,2489
-50,-28,-43,-4705,-3456,2406
-91,-65,-79,7325,-4369,3688
-94,75,3,806,-4848,5555
116,-57,-119,1119,-1846,3885
-117,74,-99,2351,-2802,2787
-91,-11,-11,3416,-844,2069
98,55,101,1994,-2671,793
1,-88,23,2763,-404,-963
-124,107,-24,1581,1438,-1698
-120,82,-65,337,1311,-1264
-81,24,-59,1160,598,-88
-69,-49,-100,2106,449,-382
-53,-29,-105,1256,478,-712
-27,-35,-103,-114,274,-453
-35,-59,-102,-125,-312,282
-37,-1,-96,-213,-117,212
-22,26,-93,-4,285,-406
-16,-21,-126,1009,729,-1020
26,-77,116,1176,443,-703
9,59,-43,-567,-502,1017
-29,43,-69,366,17,122
3,42,-83,960,734,-481
12,4,-113,1167,247,-256
11,70,-39,774,-135,783
-5,57,-101,1368,379,-315
11,66,-112,466,449,-636
1,3,126,606,4,-26
14,103,-93,-261,-438,671
-7,52,-124,848,65,-526
19,65,-110,462,-93,-79
-2,107,-76,166,-363,204
-3,110,-80,456,-170,-296
36,-127,-76,218,-85,-141
-8,120,-85,707,-35,-286
23,34,-121,2675,6157,-5670
-67,98,-107,2539,1391,-5151
-90,-23,1,1884,1370,-6521
6,-54,127,1569,1157,-6018
-8,-50,-27,2883,1136,-5110
12,-16,123,7580,1390,-4485
113,-84,-62,5850,3455,-5288
122,38,-61,5957,4897,-4063
85,-14,-94,4477,4525,-2209
-127,93,-121,-928,1317,-91
104,41,27,-2308,-1786,901
-47,-92,10,1528,-1679,585
71,77,17,-1767,-2645,1337
58,100,90,-8215,-3072,3754
-59,-6,-15,-10910,-2489,3426
-22,-79,-55,-8865,-3639,3568
-30,26,-100,-3727,-4258,4656
43,-14,-61,3505,-5703,4125
70,69,89,2284,-3575,4826
-12,-67,-90,-133,-531,2552
-82,41,49,4359,-575,1284
-33,-18,-6,3636,497,2793
-87,43,-73,1618,25,2395
-22,-23,-5,1286,-1409,715
-40,-124,-34,1517,656,-1260
-10,78,-40,1207,1273,-1544
-53,42,-41,1033,273,-577
-100,72,-61,47,33,-104
-53,45,-98,250,172,-579
-7,56,-104,304,173,-542
7,85,-113,71,4,-540
1,85,-116,141,-97,-752
-14,90,-110,113,0,-848
0,86,-118,222,243,-866
-2,84,-120,365,139,-672
-24,87,-124,559,16,-382
-36,118,-126,71,-22,-56
-22,111,126,547,23,15
-18,113,110,768,46,114
-20,-115,-126,167,-258,638
-21,-111,-123,528,-184,844
-7,-98,124,777,-12,642
8,-75,114,450,-47,569
-58,-70,-119,479,-249,753
-50,-56,123,698,161,209
-10,-57,91,657,249,-477
-19,-64,100,516,-75,-591
-9,-84,103,513,163,-802
-1,-107,102,673,84,-673
-14,-88,120,217,-150,-426
126,3,-53,2779,-1351,-7132
-58,66,-17,3903,-2875,-5654
127,-52,38,2859,-1866,-3840
67,35,-50,2827,-349,-1561
-37,81,-31,1823,1632,-1378
-125,90,-89,6423,4024,-4602
-80,-77,-100,3276,5023,-2571
-127,31,104,-554,1923,-204
124,109,101,-419,-1688,-209
-23,-119,-68,-3651,-2959,1587
37,-63,-92,-6155,-3316,2033
-46,102,-82,-7087,-2791,3363
3,61,-21,-7556,-1958,4102
-105,-11,103,-5899,-3019,4632
0,57,4,-738,-3663,3587
-33,-68,-36,1634,-3537,3687
-89,112,-121,2772,-1238,3218
55,-17,-96,3294,1302,3920
-98,122,-6,1780,-1736,5173
96,-19,-11,2380,-1747,2326
-88,-73,-44,3258,99,194
3,-89,-51,2094,330,-758
-56,98,-66,1232,968,-557
-53,66,-59,824,628,-505
-21,-52,-117,1834,935,-1200
0,-83,-114,1714,773,-1005
-3,-23,-44,-317,-208,-308
15,-80,-77,-510,-33,-520
44,-74,-95,-132,156,-460
27,-31,-87,-951,93,-483
23,-119,-125,-3663,327,-532
41,12,91,241,104,-898
21,49,-122,1393,6,-235
-21,107,-107,728,-328,146
-20,-85,-78,22,-354,216
-3,-25,-68,-1150,-48,161
4,-45,-79,205,-332,-62
4,-24,-38,280,-585,-342
-16,-26,-53,880,-151,-95
19,-27,-95,1043,243,-287
-5,-2,-105,676,-26,-167
-19,7,-77,158,8,-216
39,-28,-45,194,572,-383
17,-32,-84,-196,1119,-709
-10,-48,-102,16,381,-481
-28,-17,-41,209,-779,378
-14,-11,-48,270,-344,100
10,3,-59,232,158,-58
6,11,-64,230,-299,-105
-10,13,-53,182,-307,-133
-119,96,-17,4507,1177,-3957
-63,91,-126,3115,-1334,-5901
-94,-91,-55,1911,-2634,-5983
-40,23,-62,1295,-2894,-4949
78,114,6,1319,-2380,-3861
-33,-24,107,3042,-1142,-2674
-73,-73,44,4028,643,-2363
-126,-105,51,4396,3035,-3430
125,-60,9,5717,4105,-4578
-29,-79,7,3896,2979,-1138
115,83,23,-5861,1496,769
-121,-10,108,2919,-2751,938
-9,32,-35,-1879,-1868,887
46,40,3,-6397,-2511,2434
-35,118,-24,-7831,-1756,2851
93,-79,-7,-5686,-1877,2935
-28,-30,-112,-5031,-1751,4150
6,-22,-86,-1324,-1825,4174
67,0,101,4803,-4855,4456
-39,-122,-54,1871,-871,2508
8,56,88,-550,1730,2123
-56,10,91,294,1123,1269
11,-69,-52,1044,-545,2425
122,-120,-86,1147,1027,2884
-7,66,40,2617,1658,1988
-104,118,118,2942,75,1201
-14,62,-98,1720,-750,-613
20,60,-76,-45,283,-671
14,-38,-99,689,488,-565
9,-46,-91,1242,117,-389
28,-8,-73,442,13,-260
21,-3,-93,-63,190,-644
10,3,-90,-367,-145,-408
22,42,-91,-627,-17,-89
27,64,-110,-520,279,-362
28,72,123,-102,206,-560
47,96,110,5,213,-479
40,98,103,432,305,-720
62,78,75,1012,450,-1004
50,78,78,872,-56,-770
32,109,107,141,-506,-33
4,-106,-122,-489,-517,410
-10,-110,124,153,-275,249
11,-99,-124,687,-164,321
10,-77,-115,747,-29,204
23,-79,-120,934,247,124
14,-92,127,1171,382,-79
17,-111,105,1277,337,-66
-4,-120,106,1045,267,193
18,-118,94,833,483,324
-98,-116,97,1829,-1574,-4945
0,117,22,3775,-2582,-7416
-53,75,71,-2623,-2408,-6041
-71,109,-128,-687,-1983,-5755
26,-59,-82,6363,-2832,-6382
109,42,-13,4851,1842,-6337
-14,-62,-55,1456,4123,-5534
-36,-75,98,703,4187,-3267
16,-28,66,-1395,2032,180
45,-64,-99,-2809,-3656,2230
-38,-35,27,-5007,-3925,4236
-107,63,-88,-5671,-1895,3468
-78,-3,-5,-3851,-1615,3625
-113,50,-81,-2546,-2127,5416
-46,-35,-43,1021,-2019,4794
-96,113,-8,2868,-833,4448
-28,37,-58,4320,591,2298
1,59,-128,2689,770,2598
-127,49,78,1143,1911,3953
-57,-92,77,886,716,3591
-80,96,-72,-1421,-477,1422
-80,-119,-62,697,-891,-1058
-57,-26,-90,2601,-31,-1396
-41,-37,-116,1559,739,-1828
-34,-24,-126,105,707,-1536
24,-53,90,-258,705,-1777
54,-47,110,681,159,-697
-5,7,-116,29,-403,169
-33,51,-106,-613,-120,407
-9,60,116,-169,401,178
5,48,90,863,220,-297
33,64,92,963,6,-116
18,89,97,292,-139,282
-7,102,102,39,-76,476
12,118,107,254,-109,496
4,-107,107,213,-14,223
-8,-126,97,871,119,-185
24,-128,85,946,216,-337
14,124,94,673,-56,-248
-3,112,104,413,108,-231
9,86,95,837,254,-151
11,102,102,586,40,34
35,95,95,462,75,-403
-54,49,45,1730,-1175,-1036
-39,119,51,1024,-37,215
-35,-113,38,-116,388,662
-20,-103,41,-4,393,1236
26,-92,39,-15,687,936
12,-101,77,286,-44,288
-11,-109,89,734,-79,-509
-72,101,15,9716,-2954,-7372
43,18,120,2582,-5294,-3859
-120,87,-105,-1112,-4610,-3827
29,110,1,-1842,-3909,-3050
103,76,-127,-982,-2463,-2822
43,-101,-82,2706,-1168,-2626
-93,-21,70,311,1094,-1117
-54,101,-26,2755,4435,-2052
-54,62,104,3201,4609,-1310
-15,53,-56,145,4089,-1818
-85,-3,-112,1683,-1391,-110
20,7,3,-655,-2446,1380
-60,11,57,-1442,-2911,1733
0,53,85,-3458,-2570,2742
66,-17,40,-5868,-1957,3451
68,30,97,-3899,-852,4163
80,-77,-34,-2484,-124,4717
-65,122,-27,1689,126,4174
-94,-80,-26,2004,567,4428
-13,-56,-42,-5087,440,5012
-34,-97,42,-2897,-2707,4036
-36,89,-78,3374,-425,-1617
-13,10,19,6420,2057,-1
34,82,56,2862,16,3150
29,-12,-8,-555,632,2190
15,51,-75,1059,350,1421
5,-8,-88,2532,279,63
-9,14,-54,1423,-121,-456
12,13,-46,-27,228,-625
12,-42,-62,382,-93,-687
4,-31,-29,380,-279,-640
10,-49,-67,596,338,-960
35,-67,-94,825,461,-844
33,-50,-91,673,66,-466
59,-13,-81,-17,-149,-45
45,-9,-92,10,219,19
1,-42,-126,1029,-52,393
-1,28,-103,8,-552,942
6,51,-106,-438,-176,637
58,43,123,144,280,220
10,9,82,1254,572,-401
-29,35,113,1182,-344,239
5,127,-95,-543,-596,722
19,113,126,-453,534,147
-37,17,74,1550,307,-535
-1,125,-121,337,-357,177
14,-92,-124,-530,76,-134
41,98,107,669,488,-617
-16,66,83,1543,43,-857
4,115,114,311,-157,-317
-13,47,20,3174,4189,-5742
62,74,25,4963,535,-6239
-75,125,121,-1563,86,-7371
-11,-16,73,-2202,1898,-5208
-112,0,-11,306,2762,-4440
-102,99,43,4213,2145,-1740
-49,-19,102,7573,5089,-2465
42,-116,27,7415,6063,-2152
6,32,-55,705,3358,242
-12,56,-82,-1328,486,235
69,-60,53,-13,-2453,-335
25,28,66,-3630,-3742,-115
126,36,90,-6673,-3636,980
-62,109,-64,-8123,-2187,1595
-33,-102,73,-4863,-3393,2511
-69,63,82,-2587,-4223,3941
43,43,-77,3051,-5396,4525
43,42,-19,2314,-3149,3494
-37,-82,127,1431,-1978,3088
-47,-29,116,1946,-1806,3088
-23,105,40,2445,-1270,2729
-110,32,-25,3528,-160,1470
-20,-23,-63,3702,-22,-984
-77,-84,-115,2162,987,-1749
-73,-120,-124,229,1161,-1393
-84,75,125,366,246,-678
-96,80,125,-40,-221,-207
-65,94,96,-275,79,-585
-27,102,87,-29,4,-853
-15,95,78,265,85,-1119
-23,118,100,-212,-97,-991
-42,116,99,-75,-14,-908
-31,112,105,229,-117,-613
-19,125,111,362,94,-258
-26,-110,120,287,114,-163
22,-115,94,424,482,-282
11,-123,107,624,-353,612
106,-78,-101,-118,-432,818
-16,-67,121,-20,709,760
31,-74,81,978,811,517
-8,-75,91,1556,-28,149
8,-60,106,801,385,-232
24,-111,110,1148,347,-79
-16,-118,-108,1107,120,254
1,-112,-105,772,646,-67
116,-115,-112,759,330,100
29,-110,-90,528,-13,-162
14,117,-84,504,313,-171
32,-126,-67,420,292,261
36,-120,-81,641,347,-169
11,16,-17,5328,3474,-6899
-100,91,-30,1336,-741,-6171
-95,36,-93,-3247,-2481,-5124
-128,104,74,796,-842,-7245
-78,-77,-120,3547,-1804,-5990
59,10,-48,5891,-1857,-3565
37,4,116,4865,-676,-1847
35,-5,68,3682,3484,-3727
0,43,-82,3884,5376,-4137
-60,41,81,339,4350,-2495
-21,1,61,-487,128,-226
15,107,30,-70,-2498,1182
-59,-59,-122,-386,-2773,1785
-13,85,5,-4589,-1963,2875
-96,-55,65,-7354,-1684,3417
21,-2,29,-5847,-1502,3752
-76,108,-89,-3600,-2237,5004
-38,-60,16,48,-2325,6167
121,118,47,2024,-1760,5017
39,-6,73,1701,-286,3640
-83,-12,60,1975,203,3385
107,-22,25,2496,-258,2449
-105,-60,-58,1648,380,2403
112,95,-54,1789,71,1933
23,110,-74,1531,-229,649
-40,87,-46,724,-129,-902
-30,-29,-52,1270,474,-1498
-50,-64,-55,1515,503,-1395
-55,-54,-49,864,415,-711
-58,-3,-39,-579,-19,92
-18,25,-73,-1079,55,101
-20,14,-118,-447,358,-788
-7,-22,-125,571,123,-1076
7,18,-110,281,-14,-488
-6,43,-116,181,77,-341
-10,47,-120,345,5,-355
0,59,-124,407,48,-278
-8,60,-120,688,59,-191
-4,57,-128,884,200,-171
-15,66,121,752,-49,196
-8,89,-123,363,-178,612
-6,97,-117,463,-44,614
23,113,-117,636,133,510
8,119,118,588,157,217
-5,-123,101,148,-83,205
-13,-108,98,-492,-306,316
-23,-106,114,-307,-273,296
-27,-113,-124,470,35,69
-33,-92,123,497,-174,-23
-54,-38,-98,-535,-414,107
-81,-104,-53,-1676,2274,-4957
15,33,-7,6302,926,-6882
75,98,61,5200,-2284,-5894
51,-31,57,-401,-1685,-6048
92,124,-70,2662,-1047,-4939
-126,123,83,5487,-93,-2548
-62,-43,78,6737,-851,-456
126,32,-92,133,1229,-2449
24,-2,-9,872,4439,-2075
-75,-1,92,1082,5473,-1879
15,23,-95,844,-834,-675
-127,34,28,-1894,-2603,1670
-47,88,104,-2747,-2935,1365
-23,-48,-102,-5478,-2954,1291
-87,-8,-35,-5034,-3229,1496
55,-84,99,-4707,-1416,2088
20,-78,-57,-1979,280,3471
-69,94,-121,-1202,880,4173
40,-40,-6,1109,-669,4509
10,-4,21,1161,-397,4503
-116,-11,21,-37,-700,3822
-31,73,-104,2121,-833,3210
-83,-5,42,1360,-285,2235
-58,42,27,-945,-571,1795
-110,66,-1,-1132,221,145
27,32,1,2927,432,-454
-20,22,14,3181,-60,106
-53,77,25,572,-321,659
-53,121,9,-2027,-671,909
-42,87,-36,-1021,-683,486
-28,66,-60,412,-208,-409
12,69,-69,926,461,-997
0,86,-72,454,166,-867
-23,122,-78,-635,-126,-517
-48,-118,-95,-1014,-89,-365
-40,-112,-123,-546,22,-494
-3,-77,121,-387,-148,-393
-39,-39,-126,-751,-475,-273
-26,11,-95,-1161,-387,-108
-14,17,-117,-319,447,-489
-24,-10,-109,1023,160,-949
-46,-10,-78,956,355,-1155
-37,-5,-50,505,380,-888
-27,-22,-54,564,130,-390
-48,-39,-66,704,-92,-14
-56,-33,-76,441,-7,290
-49,-36,-97,637,184,481
-42,-41,-104,974,2,723
-25,-31,-97,956,-59,957
-11,-26,-97,940,36,859
-69,24,-128,1549,2869,-6179
-106,-80,-34,401,3405,-5797
-54,75,64,2934,1470,-7596
-68,85,65,3932,-306,-7019
-45,122,39,4040,-714,-4838
11,-86,-125,4899,2585,-3886
32,73,8,4265,4543,-612
98,23,5,3264,2027,-2136
-13,-110,23,401,2483,-988
42,85,16,74,-732,204
105,-109,47,-371,-212,229
85,-89,-9,-465,-404,195
3,49,55,-5004,-2498,375
112,7,-29,-6014,-5441,1003
-10,17,26,-9126,-2919,2287
-27,17,-118,-6802,-2227,2699
87,97,-40,391,-4580,4384
-11,-7,-58,9182,-3213,5540
-55,-94,-49,-583,-1863,6363
-104,117,-86,569,-936,5914
-92,16,-73,7879,2946,5753
-124,68,-55,924,-6496,4852
-125,-91,-101,-237,-362,-2741
-60,125,-56,3960,4248,-3372
-125,37,-10,1426,1228,-1517
-36,54,-10,-892,-442,-883
50,-43,-61,-119,-140,-1812
39,-104,-50,1340,110,-1837
24,-104,-22,1244,385,-1518
-10,-64,6,32,77,-746
-42,-62,-13,51,-238,-313
4,-62,-15,137,-406,125
20,-32,-38,154,-410,639
-12,15,-67,180,-759,987
-16,56,-84,-113,-576,780
-7,86,-110,-199,-636,315
12,83,-118,-87,-499,202
-48,84,-105,167,-522,281
120,100,-86,173,-226,244
-108,105,-112,711,211,-541
-16,-111,126,1366,853,-701
3,-46,124,384,697,-279
-28,-60,126,-146,271,-528
-32,-115,107,384,475,-682
-43,-97,116,315,380,-464
-66,-84,123,-62,-99,-215
-59,-79,-100,-109,-242,148
-30,-54,-68,-159,-173,165
-2,-51,-76,-49,-429,311
-30,-80,-111,303,-31,-73
58,66,-4,1912,-258,-6064
123,-28,-22,1822,-817,-6336
-45,11,-111,2031,-2663,-6045
-47,54,-105,1109,-1875,-5155
-111,-79,-64,4375,-1651,-2970
-38,67,-128,5067,1767,-3882
-95,16,59,3665,3589,-3389
20,-52,-42,2477,3080,-2763
4,1,85,576,2182,-1380
82,117,-118,153,-287,-64
12,117,-115,-143,-2302,1481
61,-57,127,-1441,-2210,1905
-118,81,-86,-3728,-2394,2257
122,-98,-18,-5209,-1874,2809
19,-43,72,-5156,-1549,3856
-77,-109,-121,-5605,-1009,5961
85,-60,-76,-2142,-2286,6543
43,-114,-102,-191,-4133,7550
7,92,-115,2033,-1185,3506
90,62,19,4508,1081,2397
-122,110,127,3909,539,2810
62,41,-128,3287,-1611,3661
17,52,-66,873,-1808,1897
108,-119,-33,589,-250,-1594
-52,-68,-77,2181,2130,-2783
-13,120,-30,3254,1214,-1785
-75,-27,56,756,-402,287
-54,-26,28,-1318,-40,328
-53,-89,-46,-443,285,-160
1,-118,-102,709,835,-666
-6,-78,-122,753,576,-683
0,-48,116,111,314,-581
2,-88,97,287,-710,-815
-55,122,107,2864,-1412,-77
11,64,-126,-15,275,527
-47,-32,76,7,524,-726
-22,-49,111,302,111,-160
-55,-50,120,201,-269,59
-36,-20,109,200,-34,509
-26,97,96,-734,-311,814
-19,110,82,-432,-194,428
-30,54,76,1125,107,-158
-39,113,104,395,-21,149
-43,-101,122,-475,-336,192
-28,-119,111,5,-380,-495
-41,83,86,1313,245,-799
-35,82,63,1232,634,-714
-48,-126,53,197,192,-66
-50,-78,52,-794,-241,327
-33,-62,39,-790,-147,155
-31,-26,57,406,2950,-6551
-77,59,46,1541,2206,-5679
82,-87,-22,-1422,1836,-5064
-29,113,59,3268,700,-6075
42,83,0,6321,-403,-5782
-59,-26,-99,4271,-1274,-3677
23,-116,70,3565,232,-1910
115,-83,2,5436,2773,-2731
-31,-25,-115,3655,4168,-2795
26,24,-78,878,2563,-984
13,-29,70,511,-776,-14
10,-20,-86,19,-1545,753
56,-3,-77,-593,-748,534
-93,26,74,-3393,-2608,2240
55,56,-81,-7789,-2434,3834
91,65,-38,-8785,-3017,4504
68,-72,46,-5898,-3080,5588
86,-57,14,-1171,-4150,5951
32,-41,-95,3898,-4367,4588
122,-66,92,4443,-4073,3471
-59,-80,102,1476,1301,2069
39,3,-111,1718,1537,2050
49,-53,27,2983,1838,2314
-114,38,-79,1352,-1549,1653
-28,-87,-24,1514,-1945,-1032
-45,4,-82,2513,372,-2434
-47,2,-96,1793,1515,-1880
-66,-13,-73,1483,922,-828
-96,10,-77,561,326,337
-62,70,-93,-1199,24,487
-3,52,92,-558,314,-174
6,38,98,488,126,-1026
17,39,95,645,56,-1245
0,74,112,-231,-301,-1037
-7,75,124,-430,-268,-613
-22,70,114,-5,-116,-398
-28,100,121,62,-173,-79
-16,125,115,34,21,102
-15,-105,107,80,-56,136
-9,-91,87,-24,-4,-34
-16,-57,-124,-129,-149,168
-27,-96,118,970,275,79
-24,-81,127,1043,9,259
-12,-57,122,451,163,452
-10,-59,119,422,97,429
-2,-63,118,639,173,251
0,-59,107,587,171,62
4,-47,100,257,88,-21
-7,-59,101,398,37,-193
-9,-78,100,724,118,-281
19,74,79,3278,-1704,-5947
-50,-43,4,2803,-1351,-5325
-102,77,35,4726,-674,-3572
-94,-96,-9,1955,-46,-1229
74,114,-118,3873,3033,-3504
33,-126,65,1955,3938,-2850
96,-74,121,1747,2542,-1579
48,120,102,-1847,1888,313
-108,-32,-33,1002,-1071,-182
-18,79,-90,-1168,-2495,965
-73,-92,-108,-6011,-4473,2020
86,-69,-78,-6103,-3804,3427
17,97,19,-6006,-2523,4552
75,-71,-82,-2509,-3358,5641
-123,42,80,-536,-3532,6186
-66,18,-108,-851,-3565,5034
111,60,113,-1634,-1421,3248
35,39,75,4068,-2579,1656
110,25,20,4180,-1970,2798
92,-69,-6,361,649,2865
-17,17,104,2201,282,-670
-75,-99,-100,3707,-410,-2050
-87,-95,-111,1579,586,-1535
-86,106,123,-14,1046,-948
-111,93,119,-92,290,-297
-79,84,94,346,-23,-367
-59,121,84,-267,144,-680
-55,114,83,-32,270,-943
-34,93,66,620,493,-1100
-18,119,85,435,-7,-690
-34,-125,78,250,-82,-480
-24,125,85,361,-343,-309
-31,-111,90,52,-231,45
-54,-96,90,-4,-494,410
-71,-52,120,-388,-546,983
-83,-2,115,-597,-408,884
-71,12,98,-181,121,20
-36,-13,73,906,433,-747
-69,-6,66,766,167,-967
-70,-35,56,617,-175,-1046
-83,-36,87,95,-251,-279
-110,-23,97,-165,-100,70
-78,-57,57,773,357,-207
-48,-40,65,967,-224,236
-40,10,76,81,63,289
-76,-18,81,540,187,-178
-36,-74,45,1612,391,-311
-4,-70,60,1183,28,407
-18,-47,68,363,234,786
-36,-53,73,506,138,775
34,111,-125,-2946,1647,-4298
51,-26,-67,-107,1005,-5772
-12,-2,44,343,2016,-6440
-127,86,-17,1556,1995,-6081
7,92,-54,3277,453,-5518
-76,-43,72,2972,401,-3859
78,14,17,9097,1318,-5289
26,85,-72,5880,950,-2687
-98,-43,-63,3371,1159,-1948
124,-51,-85,827,596,-399
43,-60,31,-2229,123,1014
7,103,-71,-808,-1430,1550
58,38,-34,-4726,-1044,2880
82,105,-77,-6017,-1928,3716
112,-83,-72,-4641,-2367,3360
-66,3,103,-4051,-1350,5041
-43,-64,82,1570,-522,4647
-97,58,-23,82,-1903,5786
62,-101,-46,-2545,-1473,5601
-60,5,98,1276,-4151,5413
100,-44,-105,5398,-2531,2921
36,33,97,3703,538,881
2,48,74,2448,594,-753
-118,-102,-107,1897,-291,-1333
-103,100,-98,829,295,-1036
125,98,-81,-122,580,-734
-119,38,117,22,617,-1254
-49,27,73,119,978,-1676
-5,28,41,156,898,-1764
45,42,29,288,447,-1559
26,47,33,268,-29,-1364
26,60,38,-263,-264,-1153
26,78,45,-371,-264,-596
-10,91,64,-69,-266,-267
-31,97,65,262,-196,-12
-34,-128,92,88,-189,272
-18,-112,96,384,52,534
-23,-101,114,799,65,780
-5,-96,95,1302,500,718
-7,-103,67,1749,597,782
-6,-79,63,1224,563,767
52,-82,45,733,378,530
-18,-92,84,427,-67,240
-8,-115,103,513,149,38
24,121,89,642,395,44
37,124,79,626,149,37
33,-125,81,342,46,2
13,-111,114,-32,-93,-230
15,-98,-93,-367,-112,-436
90,-127,-95,281,676,-538
-92,-76,-85,2476,-322,-5591
47,-9,81,5173,-1032,-5796
-23,73,15,3222,-884,-4509
-38,-108,-25,2504,-306,-2034
65,52,-19,5817,2462,-3579
-20,17,-48,3961,3541,-2508
120,41,-107,-996,3206,-679
-44,-8,63,93,953,-959
70,-4,-51,1162,-1470,291
93,91,80,-1308,-665,676
89,103,109,-1680,-1869,476
20,117,66,-4939,-4033,2709
-60,-105,-66,-6690,-3922,4207
0,104,-60,-5926,-2726,4166
96,20,-65,-2358,-3182,4405
-79,34,-121,892,-3276,4652
113,59,-104,3639,-2398,4076
-103,69,92,1018,-159,4602
-45,-27,-64,-572,603,2954
54,55,-39,1906,-2232,3864
-116,-74,49,567,-2946,5119
68,53,-73,1793,-1109,-41
-113,123,-77,3515,903,-3517
-57,-104,-89,1494,2513,-2728
-76,-87,-93,-361,1094,-919
-114,119,-95,-61,-770,-44
-20,-111,126,-605,37,-286
-9,-91,101,-354,118,-453
-41,-127,95,-153,-19,-864
-33,75,105,99,213,-607
47,44,36,915,178,-165
-36,47,51,1266,-467,-131
-103,86,86,26,-149,-35
-66,33,52,678,-30,33
-97,6,39,1638,-228,-46
-70,61,48,1095,-15,338
-63,56,18,1961,-445,155
-54,23,21,2849,-59,-266
-59,68,51,1317,283,-25
-62,48,59,1032,1207,-74
-18,56,83,357,1156,-511
-21,82,97,764,-189,475
-33,55,83,710,-112,271
4,72,92,147,207,344
28,91,77,95,-75,252
19,88,54,566,59,-337
-17,69,57,676,80,-565
-34,67,81,98,-36,-225
-25,58,73,66,-8,-95
-2,59,41,375,101,-298
21,79,-85,4157,-2410,-7339
16,-6,123,2472,-2191,-5629
-90,-114,-98,8547,-3388,-3623
97,-12,-46,1612,-543,-1613
82,-48,61,1053,906,-2613
5,107,-51,2531,2011,-2181
-26,122,76,1011,4697,-2488
21,-122,48,-788,2563,-1025
69,60,85,802,-1096,356
71,-63,-25,240,-1325,439
108,-14,4,674,100,32
-119,48,-121,-1150,-1804,411
-10,44,-97,-4788,-3732,1840
15,81,-54,-5208,-3231,3592
47,-23,-23,-5607,-819,3645
-114,-91,-114,-3630,-1461,5128
-120,-39,-8,1655,-366,4849
-126,-101,15,3031,451,4656
86,-27,-26,-1243,-91,5186
123,6,-111,557,-424,3975
120,77,-114,-333,31,2871
-30,-100,-91,1155,-1367,3442
-102,97,40,2798,-129,1755
43,-117,73,2054,-211,23
-62,87,63,1286,225,-1776
-25,-7,74,975,178,-1820
-32,-51,104,411,-123,-734
-96,-57,-124,74,-153,40
-78,-69,111,250,156,176
-46,-35,70,-62,44,10
-23,-26,56,-36,36,-101
-26,-33,31,172,260,-98
-44,-29,26,350,219,28
-28,6,33,46,350,80
-20,9,33,477,84,73
-8,35,48,210,254,319
-8,35,42,483,304,67
-18,78,62,171,137,229
-11,81,69,308,377,-44
6,33,54,1208,-231,-214
10,80,74,503,-103,222
-20,124,80,-513,287,-511
-33,-128,80,291,-17,-1569
53,-103,5,919,92,-1163
-6,-48,67,-260,-364,-375
-49,-41,65,-476,-131,-142
-66,-42,80,-242,-89,-213
-2,-46,56,211,138,-272
-5,-47,63,354,-213,-115
-46,-8,73,-334,-72,231
-116,63,20,2058,-809,-6295
-30,-90,112,893,-1414,-5364
-62,-46,115,2376,-541,-4155
103,58,51,3735,507,-2487
-66,-20,2,4534,2650,-3479
125,-121,-118,2912,4485,-3331
44,50,123,1701,3622,-1812
120,80,96,-1039,3540,-755
-14,-96,-120,-1062,997,-549
80,116,45,269,-1344,507
-104,-68,-91,27,-1276,374
-73,76,-105,-3434,-2477,484
-25,35,-116,-4121,-4173,1103
-50,48,43,-3836,-3598,2404
46,-36,98,-4646,-2313,3451
-66,-60,-48,-1949,-1790,4311
-40,90,63,-413,-871,4773
-104,-13,1,2039,-1039,3443
28,-81,73,-96,-1394,3742
83,58,119,-1035,-887,3328
109,63,99,447,-151,2917
-118,-105,-35,2599,-123,2311
-33,-95,-25,3085,-749,2954
-47,-96,-73,2656,816,1716
47,101,-75,3052,141,133
-9,59,-5,1798,-20,-1010
-28,26,23,566,714,-1033
-40,-43,-1,531,452,-798
-23,-57,-33,565,563,-889
102,-36,-51,90,139,-449
69,-3,-27,-447,-511,72
24,8,-17,-435,55,-129
26,-16,-50,807,549,-672
46,-21,-76,1342,487,-784
47,20,-43,634,192,-462
22,14,-54,278,156,-346
76,3,-57,514,17,143
46,19,-51,676,-84,310
78,13,-64,860,144,534
21,58,-24,527,-99,793
-5,43,-92,795,312,124
75,60,-85,535,-92,637
39,72,-82,514,-305,639
16,92,-65,400,57,229
43,77,-101,817,208,-225
48,90,-104,682,-236,-220
2,93,-89,231,-53,-462
-8,102,-95,-365,-61,-217
9,116,-116,-502,-47,-110
42,118,-127,206,178,-280
37,-107,-92,2766,126,-5911
-72,-88,42,3705,-1797,-4876
-99,73,45,2813,-2175,-3151
2,-95,111,7439,-1973,-2952
-28,81,-105,8954,-337,-5036
-71,112,79,899,2587,-2757
71,-9,96,1025,2810,-2174
104,38,-18,267,3633,-2337
-65,-106,52,1359,884,-984
-98,-46,49,-729,-790,433
-51,-82,52,291,-700,344
29,56,-59,-1902,-2143,501
116,-128,13,-3918,-5183,2910
110,-118,55,-4183,-3356,2997
31,96,-111,-5763,-1022,4323
-51,-66,-81,-5898,-176,5194
67,-12,-84,-3692,346,5906
-86,23,54,2589,-1795,6452
-114,-22,33,6155,-1247,2156
-44,118,-75,4387,2247,744
-37,-31,-58,2843,2319,2653
-78,30,37,-2530,1214,4346
88,-28,-110,-3479,1069,4114
-52,85,-109,-1673,-426,1242
-41,-107,-76,3022,-80,-2523
-13,-127,-53,4345,381,-2598
16,-26,-3,1579,608,-1879
31,-17,-5,-701,31,-1307
21,120,-62,2027,-1077,-1509
47,-91,-60,2929,-131,-1027
46,0,-23,70,91,-372
40,-4,-41,-1060,226,712
42,10,-63,-2394,289,1493
38,-56,-109,-1174,-456,580
61,-85,112,2252,-450,32
-15,10,127,1525,200,-235
-10,40,121,377,645,-328
68,3,84,388,463,-120
91,-9,118,405,159,-414
70,16,-109,-35,-58,-345
49,11,-105,123,-28,25
49,17,-110,267,81,391
39,61,-112,49,58,488
41,60,-127,131,154,148
42,49,107,430,194,235
24,72,112,-27,-286,566
31,82,111,38,-88,903
12,108,106,287,-63,892
9,-122,113,434,-39,815
8,-101,97,504,100,345
-48,-8,-117,2462,-307,-5315
89,-48,-39,5565,-2033,-5878
22,62,-62,3912,-2355,-4325
49,57,-4,3119,-1497,-2882
-10,112,2,1940,-330,-1351
58,-20,33,2721,2154,-2442
-77,-75,29,3511,3353,-2011
59,25,-87,581,4108,-2237
-12,-15,25,-549,1714,-1241
-128,-7,-126,-153,-684,-89
-61,34,-54,1440,-881,360
-61,-115,-56,-44,-120,-55
-30,-122,104,-1218,-2538,369
7,-52,-4,-4294,-4505,2677
-69,34,-1,-7821,-3876,3200
-2,-114,-32,-8393,-2499,3138
3,-117,0,-5375,-895,3489
-63,111,39,-2791,-4913,5082
114,2,-2,-200,-6791,4828
12,-65,-44,2949,-1999,3032
69,0,-127,6532,-267,2241
113,62,-114,5038,1221,2377
26,-42,29,655,-481,3241
23,74,0,-646,-921,520
-3,125,-53,1668,623,-1379
-6,40,125,2565,1640,-1720
-25,52,-122,2024,854,-1106
-29,55,-103,935,49,-380
24,-127,-73,-1730,322,531
32,104,-79,-2008,543,-181
35,-29,-56,1394,103,-733
38,31,-33,1476,92,-446
53,104,-29,-230,162,-102
96,126,-49,-949,1019,472
96,66,-50,225,966,-207
102,51,-29,1183,506,-190
79,99,-33,534,238,180
51,-128,-40,-246,-237,225
48,117,19,321,-497,243
46,79,18,1876,-1,-118
53,112,13,1342,160,-412
104,118,8,275,261,-284
107,94,9,354,157,337
8,82,-29,1047,265,58
66,94,-34,886,169,117
60,101,-43,690,15,281
40,102,-31,536,-275,376
50,101,-18,604,-44,297
48,102,-27,844,-99,332
33,124,-24,573,-66,444
72,-84,88,8735,-4646,-4280
29,-61,-89,3150,-3650,-8854
55,-104,86,1083,-6193,-4838
17,-47,122,-1753,-4388,-2886
83,51,61,-204,-2638,-2253
-35,18,-24,1568,-1137,-2343
-44,50,51,889,352,-1840
-67,-12,-34,1416,1509,-1710
-17,-22,-4,1697,2785,-1709
73,97,-110,2741,3412,-1947
110,-79,27,975,2652,-829
-94,104,40,1542,-1540,-497
-15,115,78,-601,-2870,957
113,-73,111,-3276,-2966,1873
90,-45,0,-4053,-1802,2643
-15,53,72,-3787,-754,4123
84,117,122,-1516,482,3611
-120,-39,-64,-2491,1270,4684
-52,22,116,-75,1261,3147
103,113,-110,-391,321,3912
-103,-108,-58,-1932,-490,3296
-51,4,-56,-2277,-598,3176
-23,-53,-87,1502,-1064,2612
44,-115,-86,2900,-299,2068
100,-117,-119,2004,505,2091
43,-108,121,1362,9,1521
-7,-120,-125,1607,-165,620
-28,97,-64,1624,133,-450
-39,65,-107,1242,796,-718
-47,25,115,1135,572,-646
-31,-7,83,633,694,-715
-22,-18,106,316,-54,-372
-4,-31,110,-159,-497,-145
3,-45,118,-52,-346,-363
-9,-58,117,539,-312,-468
-12,-11,-96,171,-479,-226
-20,24,-97,8,260,-172
15,7,-125,342,55,-168
-42,50,-119,-7,322,244
4,44,72,486,498,-226
3,46,70,830,13,114
5,79,71,386,55,103
19,85,67,184,160,189
-36,91,91,389,-194,458
-31,107,96,484,169,360
30,-112,86,64,170,87
5,-117,97,33,-822,-637
-26,125,55,900,-18,-868
-9,127,59,233,465,-566
-17,107,39,503,48,129
-120,39,19,401,1899,-5946
7,91,-65,2777,1816,-6639
42,47,45,4794,852,-6589
-6,-41,-60,3414,65,-3991
67,-90,-43,4138,2727,-3503
80,92,-70,4923,2521,-2284
-29,-108,-10,2432,3969,-1777
-86,36,59,2111,3999,-2253
-2,-8,-39,478,902,-659
85,3,-118,-550,-929,790
99,47,90,-15,-1594,720
-16,-110,39,-2274,-2928,1232
-100,-91,15,-7409,-4114,4397
-56,88,-15,-10550,-3582,4557
-92,-99,-64,-8319,-3550,4488
-126,-82,-44,-3323,-4588,5151
103,-10,114,6247,-6531,5046
-120,-74,-3,4772,-1916,5636
-71,-39,117,458,-914,1798
46,-56,80,4373,1087,2424
4,-76,-62,608,-1503,2196
-20,69,39,-127,-1824,-724
-54,-97,-104,3551,1937,-2820
-26,77,-121,579,2491,-1092
-82,61,-94,539,-64,-110
-60,-24,-97,1047,-586,-167
-41,3,-108,286,693,-303
-29,-47,101,1248,767,-739
-16,-38,96,820,299,-598
0,-22,102,553,93,-299
-6,-43,103,824,-28,-321
-1,-35,117,844,-6,-300
-5,-28,-128,809,-65,-89
-15,12,-127,113,-127,157
-9,14,117,637,-203,266
7,33,124,1184,-155,-49
5,39,124,878,169,-402
-27,37,-121,439,102,-312
0,19,119,501,103,-109
14,36,111,439,83,-175
17,33,113,659,141,-234
10,39,109,578,218,-226
13,49,106,456,262,-78
-1,70,89,359,215,-145
-12,59,82,725,224,-232
-4,57,64,1006,220,-221
29,91,70,694,-51,-249
23,68,76,920,-31,-401
22,59,90,778,-191,-178
31,64,107,492,83,126
38,65,111,5063,-2582,-7506
26,121,-21,2381,-4457,-5193
123,-33,-102,2864,-3211,-3477
43,-3,32,4156,-1198,-2943
-120,52,-56,1581,2235,-1990
27,113,75,2906,5510,-4301
-44,43,49,560,6286,-2350
-89,-19,66,1180,4666,-1121
91,-69,20,-546,458,-597
10,-113,-36,-193,-1467,810
36,-61,16,201,-1410,617
69,3,-67,-865,-1993,845
17,52,-40,-3503,-5096,718
-28,58,-15,-4491,-4946,1582
-22,-107,17,-5188,-4407,3268
-24,105,49,-6183,-3029,5704
32,-83,116,-3473,-3585,6677
-50,109,65,-792,-4494,6471
-68,-59,94,436,-2588,4893
-80,2,73,2516,-1726,3114
74,-88,48,2523,195,1474
54,13,59,5453,2138,399
33,72,89,4634,131,1659
43,115,-52,523,-1399,1618
-57,-60,-68,326,-1042,-839
-40,19,127,2272,931,-1677
-37,29,-106,2100,747,-1229
-46,79,-84,525,82,-194
-57,82,-99,-670,26,-279
-22,29,117,265,491,-773
2,-3,93,1222,240,-1004
20,48,-128,425,-102,-479
10,67,113,-309,124,-445
-3,41,104,323,115,-442
-5,30,93,867,179,-457
9,41,91,861,127,-61
14,82,110,178,-237,555
3,108,124,-187,-129,588
0,100,115,376,208,278
-4,78,99,1357,212,3
27,103,94,846,117,256
17,-101,115,-223,-122,587
-3,-126,109,242,126,93
16,106,101,1071,282,-149
19,117,97,1010,152,-202
14,-124,105,240,125,-122
4,116,97,237,49,-45
8,120,101,345,42,-32
3,-128,99,410,104,-200
11,-122,99,322,20,-111
38,-119,-77,-3463,960,-5153
-1,-76,45,1802,1149,-8235
-44,-97,-82,2247,599,-8714
27,-45,106,4858,-18,-5753
-111,95,-121,8865,-775,-5177
79,-40,29,3324,2102,-3264
37,95,39,4628,3667,-3475
44,94,19,3233,2630,-1235
0,57,-81,-2203,2382,-295
95,108,-68,-402,345,-142
107,-102,-79,-583,-482,582
84,-56,85,370,-633,280
122,66,7,-1434,-2336,536
67,43,120,-5985,-4825,1734
41,112,-76,-8614,-4235,2857
35,-61,-105,-7830,-2242,3414
75,-95,-84,-5509,-4182,5152
45,120,3,627,-4654,5721
44,-102,51,5113,-4774,5411
5,-107,-73,1165,-1424,3743
49,64,97,3238,1702,1852
-71,99,-51,2105,-1090,4115
39,-21,1,-214,-3200,4830
8,29,8,1053,-1774,-1540
-72,10,-111,2970,2768,-4164
-55,42,124,1468,2691,-2092
-71,-126,-74,591,-176,804
-59,-11,127,1461,-449,-190
-18,28,119,514,601,-398
-32,-2,112,724,333,-469
-20,-17,109,992,153,-535
4,3,109,380,217,-455
-7,4,111,326,-10,-70
-12,13,116,351,-122,-14
-7,52,117,168,-34,141
-10,75,116,186,-131,126
-11,91,119,265,-73,-16
-9,103,122,396,-12,-116
-14,93,122,593,31,-167
-12,107,127,236,2,56
-14,120,125,146,30,38
-4,122,121,406,184,-129
4,115,106,677,193,-248
6,115,105,464,135,-93
-10,115,104,383,63,50
-4,-125,103,370,91,47
2,-115,103,421,40,0
3,-115,105,494,72,-39
-1,-112,111,490,63,8
-10,-107,110,407,55,-10
-39,-67,46,1803,-987,-7610
16,90,62,2402,-1905,-6791
-117,-127,-103,476,-752,-4411
48,-58,-83,5660,-56,-3251
65,116,33,7044,1132,-3543
-87,4,-126,5743,3647,-4273
-94,-36,-37,1626,5013,-2329
44,82,27,-3247,4597,-451
-19,51,-112,1218,580,-1216
-94,-65,-27,-151,-1919,1111
-35,31,59,162,-469,-108
-34,123,-38,-2610,-1965,243
39,-84,-5,-7311,-4556,1544
21,-78,-54,-7604,-4618,2616
112,69,-37,-5470,-3337,3274
-2,21,80,95,-1753,4153
-6,-43,11,536,-2345,5468
111,-114,4,715,-1585,6679
85,-25,-73,-118,30,3468
19,-89,-29,1558,-279,4068
99,63,-51,2072,-1430,3726
65,36,-59,1307,-509,3186
79,-11,-11,1774,-1393,696
-47,57,0,3088,-230,-2127
-36,-15,-75,3223,2001,-2641
-35,-11,-99,1647,2117,-1927
-39,-34,-94,603,856,-710
-28,-34,-92,-74,-344,-23
19,-18,119,-738,-402,-239
30,-15,115,-437,-372,-568
13,-20,107,152,-426,-738
35,21,-126,-17,-422,-627
6,20,116,147,-368,-722
20,21,127,347,-294,-466
-3,39,108,187,-212,-214
-8,59,120,-115,-474,358
-11,92,116,-191,-90,577
18,103,112,318,212,613
0,116,92,810,281,343
-44,124,85,625,9,214
-44,-106,95,-172,-90,610
-57,-87,68,-487,45,538
-26,-89,67,134,-135,655
-12,-21,75,-145,-18,402
-11,-21,73,111,118,-499
-4,-72,59,1142,324,-1031
-1,-96,65,1320,93,-1069
-8,-89,76,529,26,-710
-17,-102,85,180,4,-398
-18,-115,92,158,-30,174
33,42,-60,-5498,-2110,806
-119,-20,63,-249,-1028,-5072
-64,-109,118,1909,2943,-7760
-106,-1,29,2295,827,-6823
9,-47,-32,432,603,-5199
-28,67,111,3500,1009,-4351
-29,85,-88,3600,1504,-2945
-67,-65,97,4893,3604,-3599
58,-50,54,6711,3626,-2873
-83,-71,-80,-48,3672,-1052
8,-127,-17,-1233,901,214
96,33,-124,638,-1808,89
-50,96,114,343,-1836,271
62,-8,104,-6474,-3995,1705
-16,-113,-128,-11324,-4065,3426
62,-114,124,-7692,-3356,2682
-25,118,-94,-2693,-2949,3489
65,114,102,2241,-2799,4651
-19,121,-111,3437,-3877,5682
112,54,-113,677,-2662,4158
27,-60,38,1022,-1317,3598
-17,-8,25,2175,-1252,2114
25,-76,-10,3455,-262,2242
118,-29,-83,2470,428,1101
-33,-78,-69,1810,-30,-900
-76,99,-85,1247,661,-1697
-57,-3,-106,1096,1225,-1812
40,-73,-98,2026,457,-1358
-64,40,48,251,-741,680
-92,78,-39,-2073,457,-234
13,-110,53,980,1726,-1891
34,-36,111,1412,423,-1227
78,33,112,270,-60,-308
5,40,-114,-145,-736,-33
9,38,-105,-39,-417,16
12,61,-112,-17,-165,20
6,70,-96,305,-316,175
11,95,-122,-45,63,284
6,-128,121,-190,-369,711
-4,124,-120,573,-169,619
7,123,124,958,254,227
10,-111,120,754,46,329
-34,-93,124,25,-201,377
-27,-88,-128,-61,1,338
-8,-101,119,616,146,30
10,-80,108,583,199,-235
-13,-87,109,519,53,-530
-14,-101,121,407,254,-569
-1,-116,111,513,243,-549
-4,-117,102,516,147,-486
111,-13,-53,2398,-1035,-5754
80,67,-103,2249,-669,-6407
-83,103,22,2005,-1461,-7067
77,56,22,1789,-2034,-5570
62,64,-10,2767,-1299,-3784
105,-33,110,1925,89,-1381
-80,47,-120,3187,2495,-2118
54,35,-78,2248,3562,-1886
117,4,63,1740,3082,-1665
-35,11,0,844,560,-449
112,111,-61,-1970,-741,914
105,24,119,1018,-1409,344
-76,-89,-6,-165,-2054,-76
-125,-97,84,-4060,-4250,1816
88,-64,-17,-5769,-2724,3609
2,15,84,-5117,-878,5112
-111,106,-55,-2422,-896,6119
12,61,-4,126,-487,5908
-20,26,61,377,-1247,4863
94,4,28,-122,-1052,4090
-99,-9,61,416,-948,3527
36,19,-114,4200,1029,2588
-64,-25,-107,2857,-237,3683
87,2,-61,1185,-1528,1065
-81,62,-34,1026,-925,-3160
45,-61,-112,1642,2310,-3052
26,-94,-96,1812,1411,-2178
-28,-92,-59,1930,-330,-617
-3,-54,-68,103,-376,-35
41,-8,-84,-1310,-47,42
49,-4,-95,-1162,-375,-236
70,21,-108,-951,295,-421
70,-20,-124,1022,557,-611
39,46,-119,234,18,-269
17,74,-120,-39,-381,146
18,63,120,402,-57,130
15,85,121,449,-78,155
12,91,116,645,-8,145
46,119,120,164,168,259
42,122,122,397,104,200
40,-128,-125,638,124,125
31,-123,-119,610,135,231
2,-118,-111,595,-95,218
14,-102,-121,287,-79,35
26,-114,112,495,143,-290
29,-118,99,392,164,-435
30,-124,99,387,48,-376
18,124,108,429,23,-281
17,-125,120,275,75,-55
18,-123,123,343,67,107
-43,125,-5,1157,1562,-6797
44,3,-24,1790,-110,-6701
-35,11,-57,2277,831,-6354
-72,97,-118,3340,748,-5866
-28,-99,47,4245,1876,-5898
102,-119,37,4073,2606,-4409
-14,5,-103,3955,3638,-2669
-88,64,-27,0,4533,-1506
66,76,55,41,1258,-693
-102,-25,-1,101,-874,219
-48,65,18,184,-692,291
-55,124,-25,-13,-671,106
90,-121,86,-1812,-3138,1086
-62,104,23,-4743,-4231,3757
4,67,13,-8032,-2142,4033
-22,17,24,-4326,-1458,4282
-26,-95,-102,-2553,-1033,5933
82,-104,-59,-1564,-885,5242
-36,15,126,-7313,-2394,2256
19,-112,32,758,-3813,2676
-78,54,-26,8388,-2204,2597
37,-20,58,3709,666,3558
77,59,-86,1571,1363,3840
50,-45,-84,3291,-1614,370
-47,93,-11,1496,-573,-3196
85,35,-65,-142,2595,-2798
62,-56,-65,774,1146,-1884
-6,-49,-49,1032,-273,-364
-1,3,-53,-472,-366,128
25,7,-99,-319,-127,116
35,30,-100,20,-503,-27
47,19,126,761,53,-464
41,14,-126,1148,148,-566
18,25,-108,892,-169,-158
9,39,-97,398,-189,118
17,50,-109,223,92,308
17,47,-116,639,23,292
17,72,-112,515,-66,319
12,80,-122,364,-73,290
14,76,124,579,224,164
1,83,115,620,143,144
0,90,116,544,80,189
4,99,115,433,69,162
9,105,115,460,80,24
13,106,116,551,95,-173
16,103,114,530,125,-227
13,107,111,337,26,-199
13,107,111,294,65,-177
13,108,109,380,42,-190
18,105,109,593,149,-197
95,127,-45,2214,979,-6716
-81,-65,-105,2499,599,-6620
119,-104,-20,3938,1434,-6764
-7,-87,77,1764,629,-4043
-49,-85,113,3432,2820,-4162
75,-50,-55,4276,4483,-2599
-120,86,6,869,3597,-1450
-99,31,110,1153,3421,-1263
4,37,-86,1484,982,-1514
-32,81,-115,518,-2502,262
-102,82,113,-2528,-4052,1981
-72,-110,-68,-5530,-5238,2793
28,26,-4,-7905,-3566,3004
-27,-67,18,-7605,-2670,3246
112,85,-37,-6725,-4305,4540
45,-13,111,-4777,-4243,4284
-106,47,13,3289,-3342,1936
32,-122,-15,2190,-3893,2915
54,66,-92,822,-2272,2094
20,-124,8,2286,-1340,1527
33,67,-89,2652,-230,1682
-121,106,-10,610,-1684,3391
99,-22,-24,1875,-390,1737
36,121,-116,3620,930,-1379
-23,-109,-66,2556,319,-1861
-30,-60,-19,-818,526,-958
-45,98,-68,-92,568,-755
-65,51,-111,937,274,-659
-38,76,118,902,326,-536
-3,22,98,2075,372,-798
9,10,96,2346,491,-948
8,58,-127,515,174,-649
17,47,119,-375,55,-237
4,36,120,-87,-280,-48
13,36,115,370,119,80
4,8,112,1752,-216,-234
-6,16,97,2314,-209,-26
12,107,115,-173,500,546
0,94,101,-625,241,718
-3,86,91,-239,8,675
0,96,93,212,141,436
1,104,93,550,145,185
16,115,92,667,106,5
4,116,96,568,-17,-105
-2,117,101,378,0,-103
3,115,96,334,81,-93
1,116,95,394,-1,-128
15,122,92,430,88,-159
19,124,89,461,113,-220
11,-126,88,344,144,-354
-31,-75,-87,5038,-186,-6663
-60,3,111,-389,1616,-6916
-86,74,-56,2457,-2026,-7533
-28,-42,-31,2203,-1425,-6804
-74,-99,-103,2290,-52,-5035
-36,89,28,2571,1453,-3036
103,21,-41,3293,3846,-3227
81,-57,115,3684,4929,-2800
101,-69,37,4204,1564,-1173
-107,-65,88,-11,-231,-87
92,-64,102,-2001,-1833,2139
124,-37,-96,-2288,-1531,1741
-85,72,-14,-6005,-1236,2902
117,-101,-16,-7499,-471,3875
68,14,-21,-6871,-487,4451
18,-90,106,-4347,-1639,5461
116,-71,-76,-228,-2689,5431
91,88,-1,1179,-2684,4592
-2,43,-43,1393,-341,3579
39,90,-123,3181,527,2170
-54,47,77,5263,790,3070
95,-12,-117,1975,-261,3408
-65,-110,-14,484,-2513,-766
-36,-38,-39,2245,-445,-2056
-39,-109,-47,2373,1523,-1770
-66,-94,-49,1173,1074,-1114
-54,-99,-53,723,193,-419
-5,-64,-86,-619,-71,-452
22,-59,-105,-998,-216,-749
53,-79,125,-195,-29,-1063
63,-53,123,-109,85,-1184
83,-4,109,-907,280,-945
77,12,102,-683,23,-691
37,28,114,-302,-184,-476
7,63,-125,-447,-112,-238
24,88,126,-44,36,188
24,117,-125,186,-1,382
117,-66,116,-542,662,1435
-6,-87,-104,-881,-143,677
36,-117,-63,225,-94,814
80,-76,-71,220,163,686
75,-94,-77,1039,179,455
51,-66,-67,793,151,326
44,-49,-61,-22,490,162
43,-52,-55,-543,655,-13
70,-109,-54,544,464,-181
78,-87,-40,209,189,-55
99,-85,-32,330,60,69
84,-87,-34,615,-1,-37
62,-77,-29,472,54,-85
-60,109,-46,4330,-687,-6079
-60,-45,72,321,2031,-6637
-55,81,57,2398,173,-7408
86,23,29,1720,-1176,-5520
53,-12,38,1874,-653,-3720
68,-26,-68,824,1122,-1356
-126,34,-115,5062,2633,-1912
-11,-63,-102,4866,3594,-1979
93,-71,115,4011,3732,-2822
-5,-116,80,921,902,-483
111,107,-61,-1871,-527,944
107,39,-97,91,-1441,1088
-49,-112,74,-1196,-2484,972
88,-40,-76,-5921,-3047,2529
-55,67,28,-8880,-3358,3297
-4,-32,-28,-5965,-2201,3722
-98,124,-88,-4836,-3632,5588
29,47,37,-3090,-4339,5808
57,-121,-21,804,-5509,4424
49,86,-16,2926,-2897,3129
120,28,-118,3069,-981,1900
103,-47,17,4832,-471,2029
-80,71,-27,2401,-651,1471
-34,-31,-3,1796,-698,-1143
-65,41,-32,2733,826,-2368
-70,-44,-62,2306,1453,-2095
-93,-102,-39,2033,334,-668
-61,2,-14,-513,-270,1217
-41,14,-103,-1851,-197,116
-23,-54,112,392,281,-423
-41,-46,123,1197,79,-529
-41,-24,125,765,132,-296
-38,3,119,87,-48,-53
-37,8,113,-78,-385,251
-31,21,123,-266,-175,387
-35,36,-126,26,4,128
-30,53,-127,545,-37,-38
-27,90,-127,253,35,-128
-32,93,125,349,29,-68
-36,97,120,396,67,-82
-34,95,115,509,100,-36
-28,112,107,374,69,-39
-28,105,106,532,63,-56
-27,108,104,518,83,-43
-26,117,101,441,40,-4
-28,116,104,493,39,2
-21,127,103,451,69,-1
-23,-123,104,461,-3,16
-20,-108,102,375,15,-13
-21,-114,105,486,-17,-1
-101,34,11,607,-1288,-6412
-47,-69,17,702,328,-7533
-18,2,44,3225,-891,-6239
120,-91,59,5343,-633,-4572
-39,-28,-82,1988,1092,-2514
119,119,-100,2240,1619,-2947
-91,-112,103,5331,2399,-3259
-31,58,-4,1331,2849,-1668
24,-20,-84,1149,3131,-1481
-96,-1,10,-215,1114,-511
111,-48,-77,-452,-280,437
111,-26,-125,777,-847,259
120,87,37,-87,-1888,238
-16,90,28,-2320,-4854,1768
75,-64,-75,-5558,-3901,2773
112,65,-6,-8538,-2005,3200
-70,121,69,-6485,-1533,4497
-121,-111,-40,-2817,-566,4948
34,-56,70,924,-966,4879
-26,-91,-102,2421,-2230,5180
-100,-18,-96,2734,-465,3675
5,86,41,5877,1354,1058
-76,-15,-4,-1416,1449,3293
104,-80,14,42,-1316,3209
-121,39,-53,1477,-450,2232
61,65,-59,1378,-16,683
-16,39,-60,1284,-75,-1142
-6,-21,-26,1285,8,-1407
-1,-95,-13,1306,203,-1051
-18,-106,-4,884,-38,-381
10,-70,-17,92,97,-67
24,-84,-56,223,273,-238
21,-74,-74,245,105,-219
22,-50,-99,95,137,-318
20,-46,-118,275,118,-342
18,-14,-121,81,-89,-226
14,6,-120,121,-69,-144
8,10,-117,375,-51,-24
6,33,-111,373,-79,98
5,55,-105,181,-58,156
8,67,-109,236,19,131
9,76,-109,436,45,127
6,93,-115,361,109,68
3,100,-128,442,69,-12
4,101,123,559,81,-48
6,116,119,280,33,-76
0,110,122,370,-11,-121
6,103,125,456,58,-83
12,108,126,387,19,123
9,-128,126,368,35,-12
94,-6,113,2466,115,-7064
-60,-103,30,3960,-1218,-8388
120,-8,-123,2046,-776,-5702
96,-20,-75,4218,-778,-4554
108,114,-58,4425,1551,-3950
-36,71,-68,4364,2541,-3475
-75,-91,120,3495,4534,-3357
5,-19,-61,-313,2268,-1055
69,121,59,-109,1280,-558
-97,-32,27,133,-1431,615
-6,-6,19,74,-1017,110
-6,49,13,-1803,-2878,863
39,70,-18,-4629,-2645,1828
-110,-37,10,-7268,-857,2700
47,-88,-37,-8218,-995,3513
92,-3,-3,-6526,-367,4008
9,73,1,-1786,-1697,4562
77,-84,-68,92,-2422,3830
23,-65,21,659,-1934,3142
104,121,-10,332,-830,3524
-114,-87,120,1602,1137,3134
-120,0,-35,3459,584,4042
-27,114,22,2787,-1774,5282
-12,119,-2,1992,-1464,1913
-46,29,72,1569,251,-1508
-17,-56,66,1109,1410,-2008
-5,-59,72,398,427,-700
-38,-47,52,-117,-680,-47
-2,-19,28,-431,-270,-387
59,-28,-10,23,-248,-705
41,-19,-13,-73,-276,-784
-11,-56,-42,-311,-75,-811
46,-81,-77,-229,-521,-119
9,-56,-110,-114,-159,-107
-105,-46,111,205,-165,-294
-46,-40,71,128,-225,-55
44,-8,61,330,-593,595
-42,44,82,702,-599,650
-98,61,94,487,-73,269
-56,84,96,169,-410,498
-45,95,116,462,-614,452
-77,-113,125,447,-213,368
-73,-127,114,699,374,-323
13,74,81,1432,405,-262
-5,86,96,966,135,-138
-94,80,122,967,-370,-302
-75,59,119,841,58,-86
-31,72,100,675,41,124
-24,85,83,833,160,-3
-39,82,83,926,348,-8
114,55,-39,2563,-2816,-3599
56,4,-27,6451,-2714,-7674
-60,96,-36,6402,-5833,-7045
-17,-71,-114,-292,-6445,-4115
18,52,-20,-515,-4320,-3054
-17,16,123,574,-2731,-2229
23,-13,87,1038,-541,-1503
-44,-115,-92,2696,2569,-3068
51,22,-63,3211,3658,-3794
113,67,97,-139,4232,-1669
17,105,101,-363,935,-267
-12,0,-6,-168,-1226,871
8,120,126,877,-2087,657
-109,28,-69,-211,-1638,380
-93,10,-73,-8331,-3992,1039
-75,120,23,-9924,-3121,1858
-110,118,-21,-6507,-2793,3238
-61,73,-106,-3490,-2243,5660
12,-33,-125,1878,-3760,7527
28,106,-78,2789,-2417,5188
55,43,-56,-3032,431,4155
50,35,-76,5330,-2431,4857
-55,118,-94,8194,396,4975
34,-54,-24,3257,2886,4017
-101,122,-92,612,-1749,-836
117,9,-55,1746,-1399,-3772
2,-44,-109,1495,1481,-2265
-54,-95,-71,1241,539,-959
-104,-74,-8,97,-648,259
-15,-36,-27,-931,87,334
-37,-52,-59,-656,-235,-195
-29,-59,-54,64,-177,-487
-20,-38,-83,146,340,-531
-33,-22,-112,581,136,-390
-39,3,-109,387,-59,-306
-24,33,-68,91,-246,-82
-9,-5,-83,877,204,-23
-20,-6,-98,1199,350,-4
-18,38,-114,486,200,263
-16,43,122,151,238,293
-14,41,115,479,100,325
-9,58,107,521,22,299
-36,76,-124,496,-181,327
-31,98,-103,392,45,129
23,102,-117,450,139,-108
4,106,-117,407,-197,-410
-5,110,-96,54,-194,-390
-18,103,-96,99,-64,-331
-23,110,-97,133,-31,-291
-20,115,-112,271,-27,-140
6,-54,30,1822,1778,-4871
66,-63,-83,4832,-443,-7273
98,-99,50,2079,-1978,-6684
-63,-88,104,539,-1264,-5812
-92,-24,-81,205,2066,-4321
-122,-82,-23,4968,1214,-2204
-61,-98,54,5791,1569,-747
-101,57,-18,6199,2192,-1599
119,4,-33,2011,4036,-1902
-63,60,98,-2184,2531,34
-69,-48,91,-142,-357,-675
-29,34,-106,-2141,-2595,479
54,43,-112,-8085,-2475,-235
17,1,84,-6316,-2525,-656
98,37,68,-6855,-3212,154
-35,98,-72,-6417,-2840,1258
-104,91,-127,-2883,-3339,2710
39,-7,-29,3566,-3480,3043
-64,9,-117,-737,-1386,1502
-76,-8,-117,489,-476,782
120,-82,106,938,-1439,1030
127,23,77,1101,-1389,1571
-99,-55,46,1020,-1630,2637
-79,106,-37,1020,-2610,3976
43,-46,91,2389,-1785,3633
101,-100,-22,3802,1653,-313
50,4,-16,2877,964,149
-38,81,64,-507,52,-641
-34,-97,6,966,112,-670
-57,-112,-7,370,-70,-334
-88,-120,-33,-354,-616,-103
-68,107,-40,260,-376,297
-55,118,-36,550,-435,530
-33,-112,-53,67,-59,-187
-11,-124,-46,434,228,-285
25,-123,-58,321,492,-657
1,-113,-62,68,172,-823
-14,-110,-42,-373,414,-614
-5,-123,-45,-221,627,-495
5,-81,-39,-219,249,-303
-41,-74,-36,725,-1157,657
-36,-14,-51,-475,-1326,736
-39,-2,-33,-840,-779,449
-12,-34,-63,486,154,-250
-62,-12,-53,479,-125,-357
-81,8,-57,66,-171,-95
-46,-21,-86,825,-196,-32
-54,9,-60,312,-325,116
-75,19,-42,49,-70,41
-79,2,-43,401,347,-199
55,92,-7,423,2658,-6834
-61,93,-113,2366,2356,-6437
82,-62,87,1513,1890,-5188
-52,100,-76,8909,1267,-3563
-73,-105,-30,7293,1505,-1191
-123,26,37,3191,2607,-1135
-19,35,-48,2365,4088,-1227
-109,-85,-19,1478,6320,-605
44,60,69,882,8125,-2315
-30,-36,-72,2396,-2120,1029
106,59,-73,-1773,-1269,602
99,46,-83,891,-160,239
36,-114,116,915,23,-231
47,-61,76,42,-2206,236
-98,-13,110,-6334,-3747,69
-72,-23,-7,-8945,-4880,235
-35,80,-43,-8459,-4455,605
-120,81,-7,-4552,-3586,2578
5,-37,-14,-3198,-3473,3860
46,-41,47,292,-2923,3528
-42,-53,25,1989,-4533,4459
-125,12,-76,507,-1787,3265
-58,81,-41,3364,-2140,3363
115,10,-35,3023,486,3759
-16,-91,48,569,-1999,3526
28,77,20,1638,-1874,833
-98,-119,-12,2326,685,-2455
-72,-108,-32,-59,2072,-1932
-65,91,-79,-371,1204,-1255
-69,-38,-64,1044,-15,-180
-21,2,-46,746,144,682
14,47,-77,777,324,-159
3,44,-87,620,45,-567
-15,80,-69,-958,57,-55
-48,30,-99,-136,-89,245
-40,99,-86,-39,-316,505
5,-112,-110,157,33,46
11,-85,-91,-186,-161,35
-30,-98,-84,-20,-30,-135
-29,-91,-85,249,123,-299
10,-59,-108,415,231,-553
6,-35,-93,-26,-196,-753
-45,22,-57,-1628,-73,-509
-68,-6,-52,-779,-49,-454
5,-118,-69,2599,767,-320
-22,-119,-107,3999,376,-323
-39,-42,-103,1202,275,-220
-37,-58,-124,128,54,-23
-19,-79,121,-315,-88,99
-14,-102,-119,550,-167,146
96,61,-100,4817,811,-4181
47,-37,76,1435,158,-4285
10,73,116,2752,-1581,-5252
-109,79,44,2476,-1573,-5623
106,-97,49,3299,-77,-5473
69,-38,61,6063,-476,-3903
-103,-44,-95,5216,136,-3241
25,76,102,5638,1360,-4093
8,-59,61,1513,-59,-1579
76,43,81,1069,2399,-2283
70,-126,0,-1410,1586,-879
23,-49,62,-79,521,-289
-6,6,40,274,-1330,497
17,80,30,-1428,-2094,1356
21,-97,51,-4779,-2630,2664
26,-64,24,-5139,-1560,3115
-68,89,88,-6643,-775,3563
54,-40,-119,-6565,-802,3990
55,3,-69,-4006,-977,4128
-106,-15,-13,484,-1396,3644
13,-107,82,88,-2329,3845
107,-71,30,-483,-1200,3606
83,73,50,252,-1890,2562
-90,-101,-8,2432,-706,2597
-87,124,-8,2756,-485,2160
-93,90,-26,2862,513,1830
29,49,-49,2682,388,277
-19,52,-12,1187,106,-497
-20,29,-16,-344,592,-615
-31,-58,-57,225,411,-540
-41,-48,-52,416,127,-187
-36,-42,-74,236,226,-338
-14,-29,-88,133,41,-461
6,-19,-103,118,42,-540
16,-6,-110,46,29,-632
34,-5,-116,191,62,-574
32,5,-107,381,-120,-452
4,27,-79,134,-410,-168
6,59,-54,-93,-339,162
40,93,-88,141,423,112
32,92,125,549,425,-486
30,89,97,590,126,-553
31,89,94,299,57,-192
-16,81,98,566,-129,202
-28,114,119,324,-107,541
-1,-105,122,44,-54,625
23,-98,117,445,-80,363
18,-107,121,798,42,-106
19,-122,-123,833,260,-118
21,100,-120,1048,32,-65
-34,114,3,2129,1540,-5186
-88,84,4,3022,37,-6536
40,-69,18,1655,-13,-6251
67,-30,23,3126,-1195,-5359
-3,35,5,4540,-1094,-5124
-19,-72,114,5669,-605,-3931
69,118,31,5370,850,-4308
-82,113,77,8459,2125,-5953
35,-112,-101,1518,3529,-3223
8,-31,15,-2987,1372,150
-77,49,94,321,-662,-56
-1,-127,-99,-1534,-1535,735
49,-107,119,-5019,-1883,1211
-78,-45,50,-4869,-2241,3064
74,-3,-12,-7397,-1745,2845
-19,-23,-22,-7668,-2034,3969
-89,92,66,-5801,-2559,3708
-52,-51,17,-3123,-2454,3949
65,11,100,3296,-1574,2489
-12,19,103,675,-1768,3883
28,-62,-9,511,-1076,2485
-69,-16,-18,2655,-1414,3343
-17,12,29,1568,-876,4327
-97,-75,-62,2134,274,2552
67,-49,-7,1254,-300,583
33,109,2,1935,53,-1053
-56,87,11,811,723,-917
-93,-111,-17,-1637,509,-620
-35,103,-48,-311,781,50
68,12,-121,1993,446,-518
3,107,-53,-288,-206,-301
-26,101,-78,-544,221,-552
3,9,-120,1385,610,-1157
77,15,124,1619,661,-1083
69,18,-110,788,-219,-560
-4,94,-25,-934,-902,715
-24,60,-60,196,-121,404
19,85,-95,909,289,176
56,125,-114,615,-71,209
1,-121,-59,233,-531,591
-33,-108,-66,114,136,417
11,-125,-92,706,306,229
18,-96,-89,424,-175,379
-8,-75,-81,-157,138,242
-15,-107,-103,490,250,-130
13,-103,-111,421,189,-147
39,-126,122,721,119,-159
-1,-94,-78,-75,-332,237
-2,-100,-92,350,312,-167
9,-108,-101,819,164,-307
-8,-31,-101,3420,-275,-5738
42,19,-32,3454,-2216,-5633
6,31,-43,1715,-2694,-4519
72,57,9,4175,-2003,-4778
-84,23,-45,4283,515,-4850
117,5,-50,3876,1670,-4892
78,71,-123,5444,439,-3709
92,85,-16,-5490,570,1760
-23,-81,-18,-7819,1038,2916
-98,-18,71,-10066,489,3599
57,125,-9,-10987,-2695,4315
10,-4,-110,-7397,-4179,4439
91,14,-107,-2213,-4882,4493
50,39,120,2027,-5301,2601
6,-101,96,2458,-2482,1651
18,74,66,3007,-1211,804
-15,-70,-71,4666,555,542
-41,9,-82,3329,187,1807
71,1,-57,1103,-17,1657
-38,-91,-84,980,-456,-44
-44,120,-73,1024,-324,-369
-75,-110,-63,-381,59,-360
121,83,-116,-138,795,-1488
94,-101,7,1953,1741,-2620
-25,47,-114,734,-173,-110
-60,82,120,-403,-199,-201
-2,7,55,536,532,-1048
37,26,70,989,130,-632
27,47,68,559,-174,-296
-25,79,92,-234,-404,436
-62,92,91,-292,-202,698
-53,104,86,138,-65,639
38,-124,62,501,245,677
36,-110,47,783,89,521
-28,-95,66,573,-203,204
-15,-91,64,270,144,-32
-23,-111,69,583,-95,-37
6,-118,51,755,-61,-74
-53,-94,79,9,-382,0
-77,-92,85,-365,-180,-25
-32,-92,76,-137,-86,179
-52,-48,86,-575,-261,355
-45,-19,98,-596,-18,145
33,-66,45,758,425,-331
20,-22,63,340,-170,88
-21,11,71,-571,137,-54
-40,-35,53,95,384,-409
1,-59,34,812,219,-116
10,12,50,-79,-268,400
-19,46,92,-589,-259,369
-4,-27,41,-427,3853,-6900
97,83,-45,3302,1105,-8321
-119,47,-53,2441,494,-7641
-127,27,-112,6881,1313,-7760
100,55,-78,3601,3032,-5428
-20,62,-121,5135,3224,-3682
127,-41,-23,-1322,4564,-2043
-46,-33,88,-2725,1618,553
44,36,126,1630,-651,267
81,41,-71,26,-535,463
-98,-113,-72,-1060,-636,548
-75,-26,6,-5818,-2506,1131
-19,6,-64,-4593,-3344,2336
117,76,14,-5664,-3955,4262
119,12,34,-5946,-3737,5464
-51,-8,116,-1666,-3080,5845
-101,71,-49,936,-3111,5314
-105,13,-126,-409,-3726,4998
65,53,56,2149,-9,2927
-107,-27,74,5021,2179,893
-79,122,71,4279,141,1867
124,67,-22,2863,-2276,1440
-54,-126,-43,2013,-452,-1094
-50,91,-76,1110,1725,-1214
-50,1,-124,1986,1271,-1089
-38,-8,-94,1916,-111,-483
-31,8,-86,586,-561,-447
16,25,-46,-428,-198,-284
-18,12,-111,-625,142,-1135
-6,-21,-110,213,208,-1478
119,-31,80,585,312,-1590
15,45,-91,-401,-879,-469
-13,44,123,-362,29,-575
38,23,75,424,498,-739
64,45,79,670,-113,-171
-14,75,114,284,-634,410
-51,122,-121,-424,-222,784
-13,103,84,492,340,545
40,96,54,1474,-118,535
-4,-110,105,657,-613,992
-49,-75,111,-131,7,718
19,-117,46,682,505,-151
36,-125,74,1087,-435,17
-53,-91,107,114,-139,189
-71,-94,91,-34,436,-247
18,117,31,897,485,-496
31,123,31,808,-230,-266
-19,-91,74,-193,-328,246
-61,-87,70,-386,141,-110
-25,-121,51,800,196,-367
-33,-97,82,2692,-969,-6274
-55,0,108,1381,-517,-5763
114,55,-109,2392,-2442,-5904
-115,-94,-7,1909,-2156,-5347
52,-9,-19,1870,-999,-4956
82,-124,3,1545,567,-3698
-58,-38,-31,3858,1940,-3231
-109,-113,113,3977,3181,-3614
-60,73,95,3574,3437,-3684
9,-121,-84,1260,3194,-2414
111,86,30,-1169,957,-694
-90,-64,-64,203,-1038,803
-66,22,-26,769,-436,169
-79,105,-34,916,-218,42
-60,-96,-64,-440,-1586,1236
68,-53,-3,-4111,-2915,2943
34,-89,111,-4773,-2563,3280
118,0,-127,-5488,-1312,2965
-6,52,-86,-4299,-1011,4074
-20,-126,-59,-3125,-1742,5186
-118,-94,-19,-2470,-2633,5375
87,121,-64,881,-2780,5851
59,96,5,2405,-2267,5096
-21,-56,0,2623,2272,3994
125,62,87,4198,29,3891
41,11,-23,912,-851,561
13,120,116,3858,749,-2661
-34,1,35,4954,2274,331
84,-35,113,-1127,-2264,266
-6,-105,-83,-1957,-2039,-2063
-112,-48,16,2388,2789,-1032
55,80,-18,433,1934,-1288
-9,17,27,-2688,-978,178
83,4,-81,-1313,-65,1394
58,-39,70,111,1111,-867
39,-72,85,1541,565,-1831
36,-98,-64,2078,-1202,-543
82,64,-22,57,-299,1802
52,-3,100,-23,715,327
-24,-50,79,954,-79,-1635
-1,-112,118,1935,-72,-1851
48,-126,86,1616,429,-834
54,9,-88,-428,-47,1417
16,117,-107,-1905,-104,1219
26,68,-109,-48,-9,367
50,40,-87,1624,147,-36
60,111,-96,612,416,375
54,-114,-91,-156,158,484
46,107,-111,510,233,191
51,122,-104,611,252,23
15,90,106,-8571,-3842,3318
-67,5,-105,-9943,-3935,3693
9,109,69,-389,-1337,-2509
-57,-31,-14,3944,-1868,-6149
38,-19,53,-569,1629,-8372
120,93,0,735,736,-8699
98,-83,63,-819,900,-6330
85,-41,19,2217,2186,-6485
-73,115,-37,4002,2848,-5398
115,-51,78,4958,4997,-5265
50,5,-88,373,3345,-1824
103,-46,19,-1261,3572,-1107
67,89,116,287,-435,71
51,-63,-117,350,-1112,750
71,23,-76,894,-323,25
57,101,71,586,-1727,244
-44,23,59,-1001,-4677,2205
62,57,4,-4264,-3352,3764
87,-109,88,-4780,-1587,4416
99,33,-98,-4313,-1908,5890
-31,-24,-44,-2746,-2260,6842
127,-28,-55,1678,-1745,5842
78,110,-78,2571,-1970,4120
96,-128,-90,-1438,-433,4549
44,-77,118,-2061,386,3575
88,-45,-93,1543,-995,1374
-81,98,42,4254,979,438
-115,82,90,996,271,2021
15,6,105,522,-3,547
-61,78,114,2421,-22,-1703
-54,95,-54,1257,-140,-1416
-32,-123,-4,-186,112,96
-12,79,-51,294,1018,181
0,46,-91,1498,663,-254
40,-119,-112,-269,1277,-421
53,32,118,874,1019,-962
39,-31,111,1778,814,-1000
28,-30,96,1686,470,242
35,-23,92,1978,-48,1038
76,12,96,2412,921,1211
23,-77,-112,2601,-247,-744
46,-83,-21,1347,-597,-409
55,67,19,1382,28,-115
59,108,7,-360,430,235
76,-78,-67,-1905,406,280
26,-99,-99,458,-586,-419
76,-73,-60,2008,-354,524
118,105,-92,-880,641,1221
30,110,101,-847,-67,290
49,115,103,-830,461,-800
2,10,5,2291,-807,-6069
36,-108,41,999,60,-5954
-4,-103,48,-863,478,-6026
55,69,-119,328,1185,-7613
81,-11,54,2778,-809,-6234
-58,-60,2,6017,-947,-5197
-70,-110,-82,5228,928,-3513
-75,66,-36,3543,3033,-3221
47,-35,-70,1545,3495,-1984
31,24,59,-300,1991,-135
46,1,-107,-598,-339,207
32,15,-103,-1238,-1794,1555
91,-118,-106,-4380,-1724,2222
95,110,-89,-5255,-2664,3107
114,-10,-32,-5905,-2554,3567
10,100,41,-4916,-2152,3921
-19,-87,-78,-3248,-2682,5066
32,-51,17,715,-4097,5472
69,78,35,3624,-1901,3531
72,-46,-69,3223,-634,3082
97,110,-99,2152,-572,3547
65,41,-69,2062,-549,3569
-98,1,-69,2265,-674,1705
-57,63,-59,-125,16,-144
-96,-56,-123,-1676,888,-1632
124,1,-86,1515,395,-1259
-101,-61,114,2369,978,-464
-59,102,100,-771,422,493
-87,47,116,273,-438,50
-70,-37,48,1093,959,-1141
-5,5,47,288,440,-299
-55,32,100,68,-785,71
-86,-4,80,651,517,-590
-27,-7,69,460,230,-25
5,107,65,-779,-621,702
-78,64,126,288,-340,201
-61,22,79,1200,600,-367
15,125,75,164,190,465
-2,124,122,-378,-16,104
-107,64,-109,1124,-169,-265
-102,81,-123,1169,980,-545
85,43,-8,1316,362,-131
17,-43,97,-988,-702,1192
-60,84,81,571,364,-293
67,99,52,1103,336,97
-26,-39,-104,-537,-974,314
-69,-127,-109,803,18,-493
-13,57,92,1908,915,-844
64,68,47,1286,-37,-316
0,-117,-122,-330,-502,611
-104,-35,79,-7064,-2433,1603
57,-120,-77,-1958,-2269,834
84,-127,3,391,-1186,-2159
80,24,10,-331,-582,-5664
-116,44,126,-253,1579,-7354
102,-110,27,-454,1938,-6716
54,-68,-28,-2321,2403,-5986
-21,119,-83,4645,3062,-8694
-14,-64,-8,6551,4150,-8533
52,-32,68,3809,3291,-5871
43,-128,121,2172,3993,-2576
-17,-5,-35,-3412,3369,758
-22,75,78,-917,-763,172
-26,-97,125,1942,-1231,307
9,42,-75,-62,183,-112
59,20,-128,35,-959,385
0,-107,-100,-4390,-3840,2475
-18,-82,-82,-7278,-3826,4000
60,-115,93,-9828,-2057,3236
80,27,-30,-7450,-1633,3827
84,-33,-1,-1897,-2514,4108
-3,46,47,3533,-3694,4836
-81,-35,79,2772,-2674,4526
-67,78,-54,961,433,2878
-27,80,-51,1794,-1118,3537
13,60,5,2667,-1768,3846
-40,59,12,2100,-1846,3517
-20,-63,-42,703,-891,-1102
-47,68,-60,568,1198,-2588
-47,-67,-98,1162,1789,-1779
-78,-16,-58,1037,-201,111
-59,3,-77,347,-263,334
-24,43,-122,-261,172,-61
-20,7,-127,681,107,-449
-12,25,-127,501,157,-326
-18,11,-125,337,47,-193
-17,45,-124,-99,-85,46
-20,60,127,112,-94,-28
-22,69,122,490,-4,-108
-23,79,125,323,-6,91
-27,106,120,63,-4,107
-25,102,123,269,-4,147
-27,127,123,306,34,40
-24,-123,122,430,113,-50
-23,-119,117,423,39,39
-16,-100,115,175,16,-33
-17,-116,115,476,24,-76
-17,-105,119,289,59,-38
-15,-111,117,358,75,-33
-12,-102,111,334,31,-61
104,57,58,-6242,-3324,934
-52,49,-126,489,-2694,-749
-94,92,41,-973,2284,-4918
-100,46,-115,4891,1603,-9883
74,55,-64,7585,-1703,-9700
-86,56,-87,5098,297,-7711
115,-119,121,4557,937,-4501
-19,21,18,7881,133,-5106
42,-76,-8,2247,2816,-2224
-113,-2,-79,-2749,3891,-33
-48,-8,59,1195,204,-687
-70,103,-125,-464,-723,581
-45,89,-123,593,-289,300
-48,-60,61,-329,-155,274
12,-71,-5,-1967,-1334,676
121,0,28,-6541,-2720,2098
36,53,-3,-7317,-2724,2015
-120,115,-67,-9921,-1737,1864
11,-107,-80,-10392,172,2061
20,-59,-4,-8739,-1054,2314
-71,-18,73,-1276,-4,1456
68,-106,111,1931,-5944,4389
123,-46,-67,-242,-3519,4716
6,40,-123,-391,-2503,2629
-122,11,97,93,-2807,2968
71,-2,46,2659,-891,2153
-89,-87,-74,4417,922,-485
58,-68,-77,615,1335,-1418
17,109,-116,276,156,-339
-14,81,-117,821,-604,495
17,-127,-120,8,-372,59
62,121,-124,-90,183,-692
63,60,106,1049,433,-661
35,58,95,603,205,-526
48,79,80,-77,118,-257
50,70,68,361,8,-81
48,112,85,103,-135,87
39,116,85,377,-68,63
31,-124,83,427,60,26
21,-128,79,525,-55,182
34,122,77,877,-31,183
54,-116,76,529,19,-2
15,-124,63,157,-94,-47
-2,-121,75,483,-316,401
6,-108,70,413,-149,58
23,-84,81,44,221,-129
-1,-96,93,794,-189,-53
32,-103,70,683,430,-440
16,-123,56,1107,-123,-538
-4,-80,65,624,-260,38
-47,-20,21,5480,181,-4143
34,-22,30,6352,1164,-4702
126,-47,115,3833,959,-4885
-10,76,64,-712,-655,-4549
-8,63,-96,2222,-1229,-4679
62,33,78,4203,-998,-4273
87,-79,57,4790,-657,-3629
-124,21,-95,6130,-33,-3343
-128,-124,-47,5992,1949,-3699
-91,115,16,3421,1613,-1728
-61,-68,31,-800,1756,-67
23,-10,112,1406,405,-600
-41,66,-100,-85,-439,773
-120,42,-76,558,81,221
123,96,-111,406,549,-106
109,98,54,746,-47,-186
-111,-122,35,153,-558,477
23,-81,83,-2188,-1453,1726
-119,-9,-82,-6380,-998,3611
94,-84,-126,-8449,-495,4382
-43,4,85,-6837,-1938,4750
93,-74,96,-5818,-2038,6811
91,-111,-124,-2088,-2308,5439
-22,77,68,-891,-3689,4872
67,36,28,-728,-1366,3872
72,-115,-11,1217,-883,2232
-81,92,-20,3585,-477,2244
-22,113,-50,4128,-943,2261
91,-97,-72,2805,-915,912
-100,112,39,1091,-776,-891
-110,-105,6,1176,1466,-1826
-103,-125,-2,724,423,-138
-114,-76,-45,-467,-367,413
-87,-118,-106,184,229,-128
-106,117,120,912,210,-415
-84,-104,107,535,368,-483
-78,-121,108,649,60,-317
-72,-110,111,401,136,-113
-67,-98,118,352,72,-135
-57,-90,115,316,-19,-101
-52,-68,115,292,-103,246
-51,-24,113,46,-193,261
-57,-12,102,375,-84,-5
-66,-3,110,401,-109,86
-72,8,103,351,26,11
-63,15,82,476,184,-181
-52,19,67,424,31,-215
-48,20,67,300,-52,65
-57,52,70,110,1,78
-53,33,68,662,33,-126
-33,-41,-73,-1054,3843,-7417
39,-34,31,908,3551,-8739
-101,-15,71,3748,37,-7718
9,-118,67,3553,1073,-6360
-126,15,2,4203,3507,-4732
44,102,-107,3524,2876,-3464
-83,-79,-98,2917,4093,-4264
-35,-68,-60,-2112,1826,211
-56,-36,74,405,-1172,1118
1,-66,11,-10,-439,863
10,38,30,637,620,-526
8,115,-7,378,201,-111
16,97,-25,128,-505,254
46,120,-36,-802,-669,631
-80,103,-75,-5384,-1721,3280
-25,6,-97,-5386,-2138,4064
-24,-63,-33,-6096,-1663,3528
90,42,73,-4403,-2033,4900
15,-103,-75,-2954,-1742,5970
46,-45,55,-379,-920,5665
-13,24,-29,692,-1996,6077
-128,41,35,824,-802,3605
-68,-104,-87,2988,180,1416
-38,-19,86,4023,1009,1178
-119,-123,-58,2544,-608,3365
104,-96,-54,661,-1169,1812
-105,-19,4,1123,-1367,-1462
-47,122,-9,1279,1093,-1845
-68,103,10,116,613,-393
-79,96,-3,733,-428,442
-46,112,-55,644,301,-134
-37,-122,-90,266,333,-297
-45,119,-108,415,181,-208
-44,115,122,463,311,-246
-38,-115,124,359,62,40
-39,-101,117,297,27,66
-31,-60,119,33,-17,-19
-21,-73,-126,414,66,66
-5,-37,-117,42,106,103
10,-10,-117,-4,66,130
-6,16,-113,-209,199,-15
-31,10,-119,-39,268,-25
-57,73,124,-1028,81,191
-35,97,87,-1280,95,-219
-26,-114,100,-1718,-69,41
-28,-35,111,-2451,-498,119
-55,-48,-89,-776,-592,415
-82,20,-67,-1103,-459,409
-58,34,-74,-378,-194,327
50,67,-84,88,-73,389
92,124,69,3463,361,-6697
-100,39,47,92,3209,-7483
-2,-128,-90,3758,1039,-8858
32,29,66,2992,416,-7273
-58,117,-17,2799,522,-5722
18,125,8,3375,890,-4389
-112,-66,55,397,2449,-1168
45,-83,-102,58,1027,-9
72,-86,-82,69,-470,690
79,7,-9,-8,-236,535
-102,75,7,-256,269,384
95,-120,-35,-2604,1112,1164
63,-54,-53,-6390,2526,2516
47,79,49,-5313,-375,3299
-121,75,108,-5674,-2177,6592
62,-128,36,-3535,-1652,7337
-90,-20,-78,-634,-2489,6835
82,20,-104,212,-2091,4324
71,-101,112,2199,-1778,4663
40,-79,11,3194,1092,4071
69,-104,15,890,-1321,3168
65,110,76,3368,-3793,-2808
-53,-21,43,3519,865,-2775
-52,16,9,-394,3148,-2165
-101,119,-18,1185,1119,-884
-104,-103,-4,1307,-227,17
-74,-61,-25,54,-24,-262
-33,-66,-56,27,356,-499
-37,-59,-81,121,237,-750
36,-61,-95,73,68,-780
-17,-36,-73,82,-155,-581
-22,-56,-127,692,162,-1266
85,-31,-102,322,-86,-544
55,22,-95,-248,-118,-2
20,-6,93,485,220,-703
10,34,122,94,-582,-2
-37,82,-121,-680,-292,208
-17,62,89,-25,294,-2
-31,75,84,479,-234,286
-9,117,122,214,-298,777
-15,-114,127,335,348,502
-26,89,77,1710,626,-461
-24,85,108,1689,-30,-275
8,101,107,549,355,189
22,88,-127,487,21,643
28,87,125,794,444,539
-3,80,121,1232,355,98
-12,72,-125,1181,343,42
45,90,-106,555,489,163
25,75,-98,851,369,-179
-104,-65,-54,-7776,-1836,444
-71,-85,-27,-5598,-2059,76
-109,-119,102,-1986,-2828,-530
121,95,-106,357,-3710,-1866
-123,-120,-123,185,-4126,-3515
13,20,95,2305,-3260,-5127
59,-75,58,-2226,-103,-5351
-24,103,-68,-2606,2259,-6405
-125,-31,112,-2166,1785,-6576
-121,-12,-120,1779,1222,-7411
-91,-92,-110,1776,1839,-6796
-92,73,74,1370,3639,-7066
113,81,96,1026,5998,-6953
-62,-11,120,578,5029,-3753
-122,91,-119,-2315,2327,503
-45,115,-27,1519,-468,-590
25,66,88,237,-517,837
37,86,114,387,59,-74
15,-124,122,505,47,-116
15,-109,123,429,-812,363
101,-88,104,-2346,-2206,2377
-39,56,-73,-3911,-2083,4168
32,-78,1,-158,-3710,3416
-9,-2,-89,-5539,-3552,4224
-34,5,47,-5950,-2047,5725
-124,114,109,-5180,-1474,7630
126,-111,-87,-1877,-1675,7824
104,-31,38,1071,-1309,6406
-25,43,-73,-53,186,3884
-116,48,-127,-212,1318,2864
87,-21,121,3321,977,468
-57,-111,85,7487,-371,795
108,-119,-14,3219,-410,4189
122,117,14,-463,-626,1644
-71,-78,-13,2337,-635,-1990
-73,41,-20,3752,404,-3966
17,104,19,1835,1010,-2421
14,115,36,67,734,-676
0,88,15,-446,-66,-238
60,75,-26,-28,150,-349
89,98,-35,379,265,-612
90,70,-56,1268,195,-1033
103,68,-23,1843,-141,-480
49,-109,15,1266,-589,316
53,-74,2,-108,1,-191
70,-95,-55,-423,358,50
81,-109,-82,104,157,314
72,-86,-96,141,-81,301
54,-61,-95,-116,-64,378
64,-43,-104,58,108,169
3,-77,91,-5682,-2315,3210
40,8,-97,-4240,-5782,2357
79,53,-117,-1998,-5302,405
71,-66,-20,1549,-5246,-2834
-58,104,-14,303,-5587,-4183
79,-76,-13,217,-5905,-6213
-83,94,22,-2195,-1767,-8159
117,-121,73,-2573,-2322,-5897
119,-21,105,-6158,2362,-3645
-62,91,5,1491,2449,-8435
-36,32,-7,1589,3269,-7246
-99,9,52,4637,3705,-6854
9,-68,72,-180,3457,-4424
-46,96,49,-1158,1671,-1196
86,33,74,-238,108,262
-15,118,-122,597,-387,121
-35,-61,-95,711,-103,127
-29,-30,73,1064,-599,121
40,-40,-111,1097,-2140,923
79,96,22,-3587,-3708,4814
82,64,106,-7136,-1649,4541
109,-116,58,-6306,-1947,5567
82,47,103,-4327,-2177,6612
112,-45,126,795,-335,6050
5,-114,-20,1564,1104,5103
112,43,-65,103,925,5474
-61,-12,48,-258,-207,5261
84,-103,-126,-1609,2106,4230
-112,-94,65,3779,639,1417
-106,-69,73,7443,-653,2347
-75,88,12,559,-595,2960
67,77,2,-1550,-1385,-2894
-60,95,-79,1382,1424,-3642
-26,76,-26,1496,1475,-2461
-40,-109,-3,252,-36,-823
43,125,-54,390,9,-414
70,-119,-67,387,237,-668
66,-108,-57,410,-44,-681
64,-103,-61,263,192,-805
54,-105,-72,533,316,-564
21,-46,-82,-24,-64,406
31,-28,-100,-258,-277,1015
48,-12,-120,137,-144,1174
21,6,122,616,116,870
12,0,112,1075,177,479
13,16,126,1033,153,424
12,16,-127,1032,269,212
16,13,-120,932,297,-36
22,9,-116,843,336,-296
56,-8,-123,971,389,-488
-58,-91,-59,-1174,-1737,-5478
-93,115,70,178,150,-5475
2,-50,75,318,906,-5372
-73,109,-56,2996,1333,-5230
-33,-15,-117,3857,1484,-3943
-32,-29,28,2595,4171,-4408
-61,120,-104,6619,5008,-6066
71,28,54,3293,2978,-3381
101,69,-119,-1165,2361,-568
-87,-28,41,-1084,-873,870
-104,-8,27,365,-1282,627
-87,59,15,760,-620,85
-86,-86,21,-3359,-1672,1482
-65,-57,-40,-6364,-2299,3337
-28,-93,-102,-5904,-2122,3160
-124,-20,-30,-3862,-1750,3488
8,-116,102,-2613,-1366,4637
-13,-58,125,-1388,-856,5557
124,101,-127,-687,-996,5684
-3,-71,-64,-1562,-1797,4530
82,124,-102,-1221,-1544,3276
-61,109,-79,2071,-20,1420
16,37,80,5236,185,1247
15,-47,122,3499,309,2107
25,-107,-121,1710,-677,90
-9,28,-77,1734,-491,-1245
-20,-35,-87,1543,515,-1037
-58,-36,-68,538,397,-539
-70,-41,-76,198,186,-21
-58,-23,-112,-425,146,-9
-24,-10,124,-454,134,-346
16,-6,94,-199,233,-755
55,5,75,-49,99,-1052
49,23,84,-178,-36,-1182
25,27,66,-171,91,-1320
4,29,76,17,-71,-1046
-3,37,77,211,38,-649
-2,55,71,198,14,-207
12,72,81,237,-90,378
23,89,78,369,88,575
12,105,94,635,9,727
16,98,89,1040,288,750
11,105,92,1106,188,839
12,106,91,992,268,890
33,100,84,1079,370,842
47,96,75,1173,232,648
51,102,81,946,196,407
37,120,87,246,67,227
29,126,103,-192,-54,121
22,122,112,-1,198,-131
-125,-109,67,3897,364,-4440
36,72,18,6420,3596,-6540
-44,-20,51,5246,6180,-6553
117,63,-51,349,6531,-3736
-107,70,34,1381,2692,-259
109,-89,-36,1616,4500,-2647
-122,-107,-77,860,52,-373
-46,-41,21,-859,-580,852
17,-32,77,1351,179,28
-30,127,107,548,323,-277
-42,119,97,431,-556,151
0,111,75,-358,-1623,563
80,-67,99,-5310,-2687,2213
113,-101,7,-7892,-4020,3819
57,-80,-78,-7752,-3716,3659
-110,47,-64,-6384,-3108,4764
-53,-60,97,-4193,-2835,5457
1,32,-2,-1910,-4325,5952
-93,77,-26,287,-2858,4493
110,44,-9,1061,-2665,1836
-52,73,78,5089,-228,1074
-78,-16,117,3787,-1165,4601
40,-122,-58,-356,-301,4382
0,121,-110,3877,-1794,-791
-60,12,-57,5086,-762,-2868
-70,39,-64,2185,1478,-2652
-75,-12,-70,-62,1782,-1785
-99,-82,-91,324,581,-547
-84,-60,-105,0,-276,-137
-18,0,-119,-1106,-197,-322
45,2,101,-856,169,-1044
63,-38,85,618,172,-1699
88,-24,106,874,32,-1537
46,-22,98,716,190,-1208
-20,-27,112,633,-203,-500
-1,14,126,-85,-162,566
15,42,111,-335,32,746
27,49,106,286,20,859
34,59,100,740,70,839
21,85,99,601,25,708
33,97,93,320,-60,901
1,116,93,22,-212,935
-8,-116,99,-164,-246,956
-34,-92,109,-204,-194,809
-12,-93,83,278,273,203
22,-87,84,581,-164,-32
-27,-25,97,-818,85,-119
-17,-53,70,-361,414,-1026
11,-114,46,913,115,-1524
11,-73,62,112,-51,-1048
-109,-14,9,-4604,-1523,-1898
31,-3,7,6162,-909,-5666
105,-9,69,3734,-1104,-6222
94,-61,-61,-1347,-2560,-5697
34,-109,-7,-2816,-1334,-4695
-87,-103,10,52,-458,-4862
99,-125,-74,1135,476,-4075
-50,-79,-90,4723,2669,-5269
41,-101,-10,6780,4414,-5752
-29,-113,-121,2509,3256,-3236
116,-23,127,3264,3162,-3460
30,-32,-39,-76,1167,-976
94,115,-86,-575,-1572,1448
-96,2,78,484,-734,384
-95,-126,76,744,105,-451
-78,100,-3,-415,-1712,875
-126,-66,49,-6386,-2873,3531
93,68,31,-6467,-2136,4601
-1,-2,14,-6594,-1686,5286
-26,101,73,-4300,-2236,6269
-41,-30,-112,-2014,-2534,7937
98,-5,12,-2423,-3288,6962
117,67,71,-2393,-1177,328
56,-70,126,6619,1935,-744
-73,-4,-20,3990,1819,1593
-73,-63,90,-1357,-762,5207
-87,118,-106,1734,-414,3188
27,33,-64,3773,-687,-824
-19,27,-17,2261,442,-2193
43,-17,-16,814,1308,-1761
26,-75,-28,935,440,-666
-4,-102,-29,1221,-157,-32
-10,-72,-45,431,-302,383
9,-33,-66,-540,-58,308
32,-47,-94,56,115,-200
49,-48,-97,606,62,-476
35,-24,-87,148,-101,-343
35,-33,-98,316,141,-325
43,-16,-107,483,108,-103
19,30,-111,19,-117,77
20,32,-116,8,-101,55
25,30,-122,350,98,1
35,42,124,504,181,-29
31,53,117,438,48,61
21,64,118,316,-50,186
13,74,123,290,-11,276
20,91,124,304,-2,254
18,105,123,365,3,99
15,118,127,174,-73,40
25,126,-128,138,33,92
63,24,-2,6499,-1455,-4810
107,52,76,5266,-4015,-4998
11,-61,1,1584,-5004,-4216
-54,-95,94,-369,-4876,-2849
115,-105,-11,-218,-3596,-2185
24,116,90,1425,-2118,-1716
-27,60,-6,1801,-174,-2356
11,-120,-90,1156,1042,-1399
65,31,-52,-2198,1044,117
100,-30,52,2854,4640,-2480
-104,-64,-47,106,5091,-2591
110,32,-119,1021,2067,-1692
89,33,-36,-215,-1881,927
-100,79,66,-910,-1700,1300
-95,-44,-14,-1228,-912,65
-28,-73,-120,-1615,-3171,1918
63,-106,-17,-1955,-2272,2823
-74,3,111,-3738,-948,2995
62,22,115,-2895,476,4756
-30,47,105,-4031,-130,6775
9,-30,42,-2151,-1462,6873
69,-101,-66,-4082,-3716,6827
12,-16,6,-4761,-2521,3641
-54,-65,-37,7133,-200,47
43,123,-88,6765,-258,1665
-55,-113,-51,-78,1591,2531
8,31,-121,4501,-35,-1101
15,37,-12,2860,-221,-647
-30,52,40,-284,690,-523
-44,-46,-21,49,1072,-498
-45,-91,-55,1119,685,-452
-3,-47,-55,659,453,-346
30,-44,-77,520,736,-438
32,-55,-106,915,395,-637
24,-44,-94,682,-100,-495
29,-18,-100,-51,-537,-241
34,5,-76,-548,-727,21
61,7,-117,-183,89,-173
24,-1,-114,586,-266,-256
11,39,-89,127,-462,71
48,72,-91,-44,117,78
28,44,-110,780,224,-276
18,45,-113,920,163,-77
19,70,-118,394,170,270
1,79,-124,242,59,476
8,83,124,449,225,447
15,99,109,521,96,543
18,-123,108,-21,-9,585
24,-85,104,-498,-313,495
-18,-63,116,-754,-790,291
43,96,65,602,-1550,-6591
-80,127,-89,-315,-1296,-5983
113,-78,-38,-256,167,-4987
73,25,5,1964,1455,-4611
-80,-11,-79,2807,3647,-5023
73,55,-11,4260,5241,-4746
14,-72,5,2562,4641,-2944
-33,-50,-57,1026,4407,-2937
72,113,-65,1022,1554,-1365
-121,95,-41,-352,-1318,908
-39,-65,84,-892,-241,665
-54,-74,35,1524,334,-579
-100,34,-16,194,-345,-49
-62,-27,-56,-388,-1731,414
88,21,-29,-4203,-3292,2259
-72,-63,67,-4469,-3345,3944
61,73,88,-5247,-2324,4544
91,-89,-116,-5482,-2106,5522
-6,119,19,-4857,-3324,9164
61,-76,111,303,608,8653
126,-91,49,1744,12,4482
-63,-58,47,1165,-2440,2157
-42,-27,-93,4208,-2645,579
-101,97,8,7665,-97,1379
-85,55,-7,-462,2076,3928
72,-120,-78,-1727,522,-218
123,48,27,3984,-1287,-3168
-55,73,28,3965,-65,-2584
-30,-60,80,-306,1192,-1307
-47,-100,36,-1419,589,-596
-21,112,-11,-785,-312,-253
16,-127,-55,-287,-60,-589
38,-100,-76,-44,-64,-667
58,-54,-88,-407,46,-526
55,-47,121,-153,-36,-832
64,-50,127,223,-82,-802
77,1,-112,-440,620,132
47,-16,-100,-325,192,-223
41,-13,-93,633,-241,340
37,31,-91,191,-78,412
41,44,-103,142,-185,542
30,57,-108,356,-242,723
50,88,-105,295,-65,800
56,95,-97,583,181,747
29,96,-99,955,310,339
29,80,-112,1470,521,-182
36,70,-125,1515,285,-610
41,55,125,1210,201,-671
44,58,-116,497,168,-362
49,48,-106,373,-38,-331
29,-53,118,1930,3611,-7062
-43,12,122,1659,3098,-6578
109,118,-126,3655,668,-4351
109,14,33,3677,1785,-4215
-86,125,116,5477,3322,-2932
61,87,108,7865,4797,-2648
-103,20,-103,6823,1468,-2935
83,92,0,-57,2616,-1503
-79,-27,-84,-408,2145,-769
76,-95,3,-75,178,-803
-4,-39,-91,-552,-347,639
-17,36,125,672,-12,149
-24,-95,90,117,162,33
17,-85,20,-263,-896,-106
-58,-58,1,-3673,-4340,63
-34,-92,124,-5876,-7289,835
94,-5,-52,-5346,-4818,3546
-99,-117,16,-4866,-3810,4741
45,-89,121,-1590,-3010,6124
106,104,-12,-1780,-3003,6583
9,-65,-84,-9089,-6296,7072
-96,-59,-69,1087,-4352,1155
-82,76,-40,6381,-1528,-1013
-112,2,88,5322,1099,2545
94,-85,28,2866,2977,2627
39,87,-50,3515,-2573,431
-41,47,-32,-758,-1405,-1262
15,-89,-75,-769,1510,-1510
-24,4,-102,1688,1650,-1513
-54,95,-94,886,656,-568
-36,125,126,54,205,-42
-9,-119,102,-67,-48,61
-49,-126,-127,117,-376,-130
-44,-125,-97,165,-292,58
-28,-116,-93,284,-44,119
15,-93,-101,286,304,97
4,-93,-118,533,131,-215
-7,-87,-122,228,62,-242
-15,-90,-123,201,-117,7
-26,-117,-121,1020,-314,-13
-11,-92,-117,932,267,19
13,-103,117,1143,598,-287
18,-120,115,1214,424,-464
8,105,117,962,391,-472
9,98,124,642,296,34
-25,70,-124,1158,-53,463
-20,70,-128,1406,66,610
-3,75,-126,1356,-65,834
44,107,-127,831,48,1041
32,114,120,657,-68,641
125,9,-59,-6104,-1990,-63
29,122,123,-5735,456,-610
-100,-11,91,-1399,-2113,-804
4,13,-56,404,-3725,-1135
114,-36,-99,-1713,-1525,-4595
-69,63,-122,1306,809,-7559
81,-43,92,1086,91,-8021
-89,-126,81,-1739,1587,-5843
125,69,59,702,704,-5130
-77,-47,-17,3194,3161,-6219
2,-99,19,8583,2538,-7430
78,-26,10,-758,4079,-3655
57,65,3,2608,3766,-2884
12,83,89,-2824,4153,-1237
-7,109,-95,673,284,-270
125,-105,-45,512,-1922,1256
-40,10,112,443,-123,138
-107,107,52,365,-499,162
-85,39,-77,-183,-2074,820
-100,6,38,536,-4500,3392
-124,-114,-77,83,-4447,4163
113,-55,-20,-4649,-1951,4699
-65,-13,-50,-6221,-207,5501
61,-37,-33,-4039,363,6165
98,-124,125,-2602,1468,7724
-49,-36,-118,-2311,524,5876
-70,114,22,3883,-3945,5182
19,73,-40,3080,621,4706
5,-87,0,1509,2578,2073
23,36,82,5002,865,3726
60,29,-94,2021,634,4184
61,98,68,905,-3211,-1841
-90,70,9,2677,-868,-4223
35,98,5,1910,2421,-2179
-27,105,60,466,1183,-780
-70,94,48,358,152,616
-30,107,41,19,-247,456
22,126,12,202,-143,-57
22,113,7,555,-38,-849
28,100,4,832,-28,-806
21,108,1,471,69,-331
8,121,-10,141,-118,177
4,-107,-34,-156,-126,668
11,-91,-57,-8,-7,639
7,-63,-64,177,59,592
-12,-43,-93,420,131,93
0,-29,-98,416,53,77
4,-11,-110,214,-59,9
-1,-8,-107,251,-19,-70
-9,-7,-110,414,7,-253
17,119,-118,-6179,-1413,1700
113,-119,108,-8206,-3780,745
-27,-52,15,-2714,-2656,-4408
58,-66,105,4034,-331,-8392
55,65,114,817,-1104,-6276
-9,-12,-89,-2342,1150,-5254
-71,-60,8,2632,1997,-7147
113,-116,-114,1558,3480,-6408
91,-34,-26,2330,4884,-6550
55,-46,-78,4296,4384,-4768
-64,-127,-6,3568,3574,-2555
-49,-72,-4,-4356,398,1959
100,112,103,1770,-1624,559
-79,112,46,-387,-426,935
-13,-65,-67,-1158,-1077,1092
23,73,-13,-342,-3285,2916
-114,5,71,-6184,-4854,3890
-64,68,117,-7455,-2771,5343
-116,18,41,-2851,-2960,6379
-45,-121,65,-1906,-2160,7554
-48,-40,53,-995,-3167,5325
-69,-92,32,1701,-2731,4295
-87,0,84,4035,943,2087
-77,74,4,7189,2529,1365
-2,30,-51,3915,2484,5349
-75,15,-125,-989,-126,5967
38,23,2,1366,-3946,-2829
13,-55,-97,2558,-430,-3482
-17,-22,-78,1258,2523,-1354
-115,-47,-41,-262,816,-913
-73,-121,-76,1069,-277,-16
-89,-71,-16,970,-484,-3
35,-53,-48,-226,190,-860
-65,11,-52,-1287,322,-142
120,-82,-69,59,-453,-1258
7,-57,-81,-268,423,-1023
93,-27,-84,182,930,-87
54,-45,115,1376,1153,-403
15,8,-86,447,175,-417
57,-5,-110,543,499,-43
107,3,-114,491,287,24
-117,6,-81,1051,-110,729
43,17,-68,834,29,461
34,8,-57,904,153,540
66,31,-49,774,-91,947
59,53,-40,493,-74,1040
50,34,-71,818,195,680
23,46,-63,769,-105,658
0,61,-63,405,-50,467
9,58,-68,388,-153,324
-116,-121,-66,5640,-3205,-6911
96,-52,4,1989,-6120,-4967
-1,-51,-115,-1961,-2985,-2737
26,-127,-67,924,403,-3289
-72,7,-10,4016,3494,-3775
61,-31,40,3807,5363,-2825
46,-32,7,1020,3854,-432
-33,88,-29,97,1473,-95
96,-68,-84,334,-1122,631
87,-72,-1,-1172,-1510,1533
119,-9,-34,-754,-887,154
-83,95,-123,-5326,-1859,870
11,-21,95,-4672,-2973,1258
-102,-96,4,-332,-3029,1992
-11,79,-121,390,-990,4337
-30,17,-98,344,359,5850
29,108,8,1244,1248,5695
102,-60,32,1627,-549,4552
7,78,31,1767,816,3832
75,89,99,-1362,1705,2844
73,62,-94,-177,82,1877
-108,-66,122,2920,132,839
-56,46,-109,2613,-432,1688
4,71,-48,843,-362,-246
-80,-47,-55,1408,0,-1710
12,-106,-75,959,1285,-1991
107,-88,-114,437,1519,-1126
-19,-67,-81,165,49,-838
-57,-74,-69,-172,-550,-1004
68,-45,-94,-883,412,-618
118,-61,125,-85,870,-484
67,-69,109,1047,494,-677
62,-44,-126,959,67,-373
48,12,-115,-127,30,250
42,-14,-126,235,56,395
37,-6,-104,606,-87,679
14,45,-64,333,-428,911
-109,69,-50,30,-56,1628
111,116,-74,-62,395,1756
-49,83,-97,630,47,282
10,99,-109,877,385,-330
48,99,119,528,367,-608
111,89,112,435,216,-244
-22,101,-113,165,-242,-530
16,76,-111,262,-71,-674
60,101,-103,229,-155,-9
16,-117,-80,-236,-488,-32
14,-107,-86,-458,31,-223
41,-124,-121,-46,278,-348
19,-113,122,93,30,-211
-114,2,-120,3291,-1035,-6173
-43,105,64,3051,-2549,-5930
92,-102,62,1858,-1873,-4502
9,125,5,3814,-1647,-3496
2,-46,64,3181,-1508,-967
-114,-27,117,-541,1222,-1215
119,-3,73,2316,1339,-1556
56,95,107,3495,1753,-1817
-119,96,97,4578,3474,-3009
-38,1,-101,4237,2234,-2428
-35,68,-93,-650,182,-20
-70,-12,45,-596,-298,127
-52,-2,-3,305,-580,134
-31,13,-59,719,-1388,56
61,61,-20,-3663,-3726,2125
47,-82,2,-7258,-3931,3625
-101,-21,-80,-7456,-3736,2765
9,-73,-32,-5434,-1703,5502
-52,105,-108,-1027,-1064,4930
35,-112,-127,-835,-1466,6194
24,43,-113,-380,-612,5591
-106,8,87,687,-1039,5128
-85,-23,-2,2120,-1846,1868
-28,81,-43,3603,-774,1925
29,-101,-58,2468,5,2917
99,-111,-124,1978,518,1166
-44,49,-34,1779,-919,-1591
-33,-116,-49,2049,210,-2123
-10,-68,-34,596,907,-372
-45,-64,-21,-417,-138,206
-23,-86,-58,-91,-177,236
-10,-105,-67,420,244,-390
4,-122,-85,533,380,-383
35,-69,-95,-137,533,-347
23,-89,-118,562,448,-320
43,-34,-122,124,75,62
0,-42,-128,233,-141,126
8,-14,123,323,170,99
33,3,116,534,-115,-85
12,13,-121,240,-236,172
11,8,-113,366,-26,152
22,36,-108,170,-148,276
8,38,-106,358,-94,306
27,61,-112,351,46,70
-4,68,-112,461,68,44
2,56,-124,622,275,-110
16,62,109,489,143,-95
16,61,108,389,16,24
9,58,107,497,27,-66
9,65,112,371,-60,118
-95,88,29,2487,1707,-5027
20,-53,25,2767,-290,-4236
-6,88,98,-605,-234,-4630
99,-41,26,2243,-1452,-5163
-36,-12,71,4060,-1372,-4952
-64,55,70,4628,-83,-4154
-23,24,-108,3141,702,-2599
46,16,-57,6472,1139,-2705
-108,52,-34,5245,3112,-4019
109,86,102,1689,3927,-3676
-23,61,110,-1591,4319,-1135
71,2,125,-1324,1451,-512
13,-117,43,1519,-1503,413
87,41,78,218,-102,428
31,84,50,926,-515,122
28,-128,25,620,-1807,508
-119,-110,107,-3410,-4018,1809
-64,-86,-113,-7225,-4872,2943
4,-55,45,-8038,-4083,2987
41,41,3,-6555,-2551,4353
-50,-105,100,-3883,-1574,5872
4,-3,-21,-962,-2175,6187
-94,-86,56,-250,-3274,5740
-124,-13,63,1515,-1813,3329
122,-20,-30,2069,-317,3815
97,58,-27,1989,-1459,4998
-14,-87,-33,575,-2006,2576
-60,-86,23,1268,-360,-3509
-6,111,120,2926,3432,-3700
-46,121,-58,-2,281,1558
-115,37,-53,334,-1643,1092
-24,-6,125,722,83,-197
-5,1,99,720,803,-1194
-29,-53,123,946,11,-669
-16,-5,-111,208,-119,64
-4,-38,-114,417,129,-254
-7,-35,-118,127,109,-114
-4,-6,121,55,40,192
-11,22,113,98,47,89
-1,31,89,289,174,-32
0,46,95,604,-170,214
-17,72,108,230,46,28
-19,71,99,553,36,-20
-11,87,94,328,0,57
-8,104,99,630,-29,-207
0,30,98,2206,309,-326
-1,-116,125,-197,-56,148
-15,56,117,766,-5,-203
-14,52,120,577,220,-170
-20,51,110,550,173,-201
28,104,112,4131,529,-5273
27,119,6,5475,-1732,-6658
-46,108,-3,4556,-4556,-6005
4,-100,123,1244,-3842,-2846
-95,-5,-128,3058,-3081,-2435
103,119,-63,4320,-1312,-1871
-75,-128,-29,3001,876,-2515
127,43,-6,1617,3137,-2221
76,-75,42,993,4201,-2202
-57,32,10,-3037,2770,-391
77,24,-26,-2927,965,288
81,109,35,1794,-1742,303
-64,66,-43,1223,-1309,567
-34,-78,-40,-99,-1329,389
57,-92,27,-3770,-2562,1304
43,38,96,-7854,-2843,2477
93,-94,-55,-10316,-3535,3047
-74,-42,7,-5508,-3670,6804
-42,-16,58,-657,-4108,5823
47,105,-80,2819,-1886,4148
18,78,-80,1100,-694,3271
43,36,114,1628,-892,3844
30,-79,115,1172,-1072,3051
-80,26,28,2126,-259,1204
16,-27,-1,1027,352,-467
-6,103,-17,1410,666,-946
-23,18,-51,2090,595,-399
-17,91,-32,282,47,205
-1,61,-50,385,-102,-55
33,16,-69,727,365,-487
28,6,-70,588,282,-404
11,28,-67,87,64,-224
16,1,-83,523,186,-107
16,21,-91,754,48,-202
22,44,-84,369,5,-27
20,42,-91,601,-94,-55
24,64,-80,359,-16,96
18,75,-83,346,-66,81
16,74,-83,575,-88,90
12,106,-78,303,-18,12
10,95,-85,575,12,5
7,111,-87,363,-16,6
13,114,-93,379,102,-20
9,108,-101,576,79,-138
9,111,-104,439,51,-15
8,121,-108,225,4,3
8,115,-107,399,-8,81
11,-119,-106,262,-15,-7
9,-122,-102,342,-22,48
5,-116,-103,389,35,-3
-123,56,85,4698,-1009,-5519
90,62,-124,6278,-716,-4683
-45,-123,57,769,1845,-2322
-122,81,-70,3408,2804,-1911
-85,-100,112,6225,3540,-2333
16,37,-53,2577,4328,-2012
38,3,-116,1067,2441,-802
-115,-2,-45,-102,-885,-240
-108,32,-3,-1030,-1434,777
-87,58,0,139,-1082,177
-72,113,-68,-1134,-1722,63
32,78,-86,-4653,-3270,601
62,71,-38,-4935,-3811,3059
98,-14,40,-6901,-1893,3997
-72,-98,95,-6011,-1494,5668
-101,96,115,-2029,-685,5456
-118,106,-27,-51,-3758,6195
74,-123,0,-31,-5762,5618
42,11,58,1492,-360,3269
28,97,-29,3870,2650,488
126,-50,84,4826,1669,934
-44,102,-68,-162,-1255,2140
-20,-117,12,683,-2579,18
-36,-38,-71,2349,154,-1222
-21,-38,-58,1508,1528,-1627
-15,-49,-48,1166,910,-1177
25,-72,-43,1098,143,-627
12,-28,-27,-168,101,9
-14,-64,-85,292,494,-430
21,-73,-111,942,342,-547
30,-24,-98,334,-167,-77
24,0,-102,-232,-130,131
7,-13,-116,195,-206,-29
-7,8,-98,307,-431,360
0,59,-91,-303,-187,438
16,71,-103,38,-56,273
13,81,-117,410,80,-97
11,96,-116,363,58,-256
8,99,-126,329,210,-315
2,91,119,429,122,-290
12,98,115,369,91,-212
16,98,117,422,63,-124
6,103,123,391,-9,0
-3,116,-123,306,-27,122
3,120,125,412,98,128
4,-125,120,369,-15,159
1,-112,119,267,-93,239
-8,-106,-127,331,-98,252
-4,-103,-126,467,37,192
-2,-85,-127,344,46,181
-80,-40,70,4635,-1505,-4858
78,28,100,6255,-1139,-4508
8,-103,-15,1343,1641,-3520
-4,37,-98,4648,2420,-3810
35,23,-99,5253,2627,-2418
-48,96,-106,2952,3787,-2170
31,-104,64,1711,3607,-1199
-59,-20,-71,-811,434,988
-85,-96,93,727,-692,207
-21,-10,64,-341,-823,625
53,77,45,-3545,-2642,1156
80,65,45,-5677,-3032,1987
-22,-70,49,-6835,-2246,2583
102,58,34,-6344,-933,4058
45,-91,111,-4697,-759,5456
-104,22,-25,-1614,-620,5519
44,-8,82,-1958,-766,4620
-76,20,-8,802,-945,3810
-14,62,-117,3512,492,2515
-79,48,117,990,-486,2615
-83,-114,45,1027,-388,2702
-106,108,8,1151,-771,1870
74,95,-15,1151,-365,508
23,42,-39,1605,784,-1119
5,-6,-16,1333,487,-1407
17,-29,-6,925,244,-1002
20,-49,-16,558,-35,-840
32,-39,-25,121,-11,-580
48,-37,-42,88,76,-591
79,-37,-61,378,773,-781
108,20,-17,-230,1282,-1069
75,24,-4,720,-130,-360
56,53,-12,327,-581,3
43,62,-37,15,-581,323
39,61,-65,165,-373,528
32,69,-76,413,-345,555
43,94,-79,291,79,473
30,108,-70,322,0,464
28,119,-63,374,18,454
25,126,-65,422,-3,386
23,-123,-60,439,-44,218
22,-119,-61,474,38,30
26,-121,-76,440,113,-114
18,-120,-79,399,18,-88
16,-119,-84,383,171,-160
27,-125,-91,536,147,-284
32,-118,-92,335,106,-293
21,-120,-84,305,77,-317
25,-126,-83,404,72,-215
22,-121,-79,344,73,-68
69,51,66,884,-684,-6578
-92,-66,-125,-697,556,-6584
102,-113,102,396,1089,-6613
-114,33,-55,2269,45,-6740
127,101,-50,5916,1522,-7956
81,-125,62,3982,5144,-4585
34,79,83,1300,5218,-2969
72,81,117,-1281,4164,-793
56,-23,-20,2115,-90,-218
65,-23,-19,-1304,-9,160
113,-47,-9,1021,-927,498
-93,68,25,-344,-563,37
-51,61,-116,-1701,-3216,522
-88,60,-100,-6835,-5156,2713
-116,-37,-77,-7117,-3787,3587
32,71,-2,-8564,-979,4490
69,-36,-19,-6340,-2451,5025
-91,11,-81,1808,-2569,4548
38,-2,0,5028,-2737,5583
-45,-76,94,1010,388,3723
-12,75,127,5723,442,4867
111,111,77,1740,382,8371
21,-106,63,-4697,-4527,3690
45,5,-24,2067,-1821,-6441
67,111,-86,3715,4854,-4176
-34,99,-83,-1029,2345,-1012
-103,-50,-84,255,-802,437
-54,-17,-102,705,-589,879
-20,15,-101,-112,364,-29
-15,8,-94,299,68,-426
5,7,-78,392,19,-450
6,13,-83,121,206,-192
-11,39,-71,-210,-190,8
-2,48,-88,-37,42,-126
0,48,-88,330,220,-55
-3,80,-95,51,22,68
-5,94,-102,263,-17,42
-4,114,-102,325,62,80
-10,-119,-101,300,-29,-52
-1,-113,-101,312,61,-81
-3,-117,-105,551,27,-204
-1,-110,-101,261,23,-64
-2,-106,-101,231,-36,36
-4,-100,-97,321,10,35
-5,-89,-96,265,17,-15
-2,-97,-103,465,60,-33
-7,-80,-105,272,-46,-2
-10,-74,-114,332,-55,-41
-13,-68,-122,247,-45,115
-6,-81,-114,409,22,251
116,87,-124,382,-3116,-4973
101,-81,106,2073,-4066,-6724
-92,-3,80,234,-2533,-6112
-38,55,-20,1121,-775,-4582
-63,108,105,2965,715,-4638
107,51,57,2945,3582,-4533
-6,-16,-48,2363,3957,-4202
-10,22,-59,466,3431,-1595
62,-23,4,-849,3501,-1470
117,-113,-106,695,-484,-85
89,-76,-53,482,-1372,790
-113,-8,29,578,-591,191
-88,-21,-55,145,-1637,701
68,50,23,-3098,-2974,3289
-29,106,117,-6048,-1412,4167
49,-36,45,-7041,-129,4614
-93,-95,78,-6042,-248,5979
-57,-25,108,-3307,-214,6205
-106,93,19,-249,-1805,5266
81,-41,68,-258,-1656,4506
-81,-2,-2,2963,-455,1981
-39,-121,-84,3652,954,1636
-15,-93,-85,1774,249,2531
-44,127,-62,1703,323,2680
20,27,-46,2236,-814,105
4,-21,3,2292,86,-1145
9,-62,41,1056,898,-1259
3,-76,34,707,598,-470
-2,-81,27,543,317,-231
36,-56,8,-171,590,-356
47,-67,-16,231,283,-770
64,-59,-35,351,161,-1010
75,-51,-49,364,49,-915
73,-41,-61,247,-76,-677
63,-26,-61,70,-159,-423
56,-20,-58,216,-143,-135
57,-1,-59,281,-131,66
55,28,-59,169,-124,176
56,36,-60,237,-66,293
44,54,-49,303,-108,549
35,72,-49,308,60,666
29,87,-63,385,41,541
37,103,-88,479,81,289
40,108,-103,476,88,-1
35,101,-111,545,-3,-98
21,90,-110,665,-258,-69
19,86,-119,723,-340,-11
18,103,-113,99,134,116
4,102,-106,182,21,165
15,105,-110,503,49,-38
107,-21,41,1586,1486,-6789
-69,-108,95,868,2475,-9668
-39,118,-9,-67,990,-6761
83,-124,-92,2388,481,-5988
16,24,-65,2705,553,-4531
-100,109,-121,6481,2425,-4657
-73,-74,-6,9028,1727,-5259
-22,87,18,675,3058,-3458
124,86,-65,-1958,5540,-552
-74,-106,-21,-2789,2500,826
-5,80,-28,2404,-1962,52
123,90,63,-950,265,211
116,45,-93,-1068,-391,166
39,-34,94,-6036,-3135,1763
-64,-124,-89,-6511,-4789,2749
-37,36,-28,-7494,-3951,4680
112,-107,121,-3802,-3555,6520
-106,27,6,-1259,-2027,5858
87,-66,45,5044,-447,3135
36,70,-24,5134,2056,2371
83,26,26,2153,636,3077
-10,-41,-113,2538,-137,3062
25,90,-113,2586,-42,2773
121,-101,-77,991,-19,1503
-15,82,-66,660,25,-733
-43,-102,-95,2750,201,-2442
-29,-121,-92,3482,-15,-2321
-7,-49,-53,413,180,-932
-31,-95,-68,-649,-576,-287
-9,-79,-94,-1358,-318,65
5,-67,127,-1129,-28,-116
29,-53,112,-366,-307,-347
46,-18,92,-123,197,-685
36,-1,97,3,276,-1063
13,10,102,465,-235,-655
-7,32,110,266,-200,49
-18,45,100,77,141,736
-15,51,106,32,41,896
15,54,70,645,-162,595
31,94,75,542,-270,465
-1,105,83,868,-287,-21
21,90,95,1548,335,-314
23,63,67,1747,309,-396
15,79,94,564,-223,353
-3,80,97,-54,-163,687
-26,59,54,86,543,-151
-6,64,69,973,932,-939
-4,65,70,1487,-60,-472
42,87,76,591,-84,-216
40,100,75,-41,-187,-277
66,-103,31,6203,413,-3073
104,45,-97,1405,545,-1314
100,12,-42,-1252,675,525
62,-4,-73,-3037,858,2098
44,22,84,-3893,1175,2261
76,59,11,-3583,630,1703
102,-126,26,-2309,-489,1144
102,-112,54,172,-575,438
118,-116,87,1638,-97,-367
94,-66,116,528,-326,-249
60,-59,-120,-324,-586,-51
42,-49,-98,-944,-417,-50
77,-56,-117,-378,228,-156
57,-52,127,262,-533,669
52,-33,106,-920,-1,987
16,-88,93,-304,-432,673
32,-64,68,-586,-443,719
42,-52,61,-418,-188,604
14,-26,60,-361,-626,622
9,-15,86,-360,-188,646
32,3,90,-57,353,334
38,3,109,488,-57,143
44,24,110,164,3,128
54,1,112,532,-41,119
11,-6,122,921,-98,-17
17,-7,109,1061,408,-589
34,-5,88,811,899,-800
48,-45,97,1171,648,-976
7,119,113,2230,-268,-422
29,-89,112,985,-669,731
34,-11,83,-1102,-185,594
22,-56,55,-205,127,190
5,-126,53,1215,-336,-76
14,-39,50,-360,17,846
10,39,61,-2610,-426,1474
9,-124,115,-3877,-1251,1875
96,56,-6,-5473,-1508,2118
83,-114,86,-4305,-341,432
-46,-21,119,992,1048,-2389
55,111,33,2598,-521,-4923
-118,119,86,2067,429,-9877
77,103,-110,795,1638,-9116
26,17,114,3291,358,-8521
52,-122,53,5037,825,-6966
-37,17,68,4650,1962,-5726
-105,57,-48,5381,1978,-3763
-66,-32,71,1332,3564,-2621
119,121,61,-3071,1171,1365
-52,-9,-98,1413,-1031,91
5,-122,-18,-244,-347,268
-47,-83,-31,-3800,-2514,2175
4,-92,-9,-6216,-2636,3937
127,-88,-44,-7262,-1167,4481
94,116,67,-6063,-1079,6212
60,23,-48,-3873,-1926,7511
32,-60,-95,-2197,-2076,7321
25,-66,-98,-854,-706,3661
-37,-115,43,5777,-1167,529
95,77,30,8275,712,602
-17,62,-127,1164,1240,3928
-80,4,-71,-638,-609,3281
-3,25,-40,1960,-1640,-775
6,-96,-78,3649,478,-2327
12,-108,-49,2741,976,-2331
27,-89,-12,962,357,-748
4,-91,4,-128,-158,480
-9,-86,-33,-738,-187,508
18,-81,-72,-376,61,79
35,-71,-95,264,-110,-360
43,-59,-100,402,-26,-632
46,-41,-103,108,-29,-660
47,-45,-117,233,-24,-656
42,-41,-120,313,-66,-479
43,-21,-120,162,-41,-107
32,-6,-123,156,-34,175
34,8,125,300,95,187
31,26,113,482,44,169
30,37,110,401,4,152
26,42,106,460,-18,193
22,45,108,510,1,345
15,53,104,520,108,418
20,66,94,514,112,451
23,75,88,503,20,401
22,87,88,417,4,238
20,90,89,499,0,-34
24,88,93,552,-30,-232
33,97,102,252,-45,-115
16,108,109,77,122,-120
20,100,98,453,260,-386
26,98,78,572,167,-473
27,104,74,263,22,-352
19,102,72,217,4,-218
11,102,77,272,-59,50
18,116,79,218,57,173
15,-112,87,293,1,344
25,-96,87,245,-38,293
23,-86,89,263,-79,147
22,-80,98,248,-51,24
17,-79,108,211,24,30
14,-79,108,294,117,4
-31,-84,-8,-7038,-2885,2927
126,-58,-20,-6512,-4298,2040
-45,-31,16,191,102,-3536
-17,-26,-37,1718,1709,-7618
44,90,-71,1365,588,-7816
57,76,-71,929,470,-6422
-11,46,-84,4161,-2,-6516
17,-74,-117,4215,1518,-6636
-126,-44,71,5120,2280,-5572
57,-57,-123,3720,3530,-3810
5,-78,-48,211,4350,-2040
-20,-96,77,-1510,1782,-552
101,25,-22,1462,-1026,269
-77,-74,97,-607,-189,321
-115,-34,37,199,100,10
124,39,-16,1118,-64,-389
-84,14,-117,-197,-1244,117
-103,-1,-105,-4207,-5077,2289
75,-118,-36,-6123,-5849,4060
75,6,-95,-6694,-2509,3919
41,-59,113,-5873,-1678,5281
21,0,-4,-3539,-1201,6219
-86,73,-82,317,-2240,5737
-30,19,-14,3893,-2704,4923
76,-127,64,-763,-494,4596
18,-81,-48,289,294,2138
-24,69,-121,4683,-101,1355
52,-12,-120,2738,545,2452
71,-18,91,1434,301,1086
-11,112,-114,1702,-488,-1216
-4,55,-102,1041,78,-1582
11,-59,-35,1672,-123,-1510
34,100,-71,3925,242,-1355
41,-77,-9,2398,-413,-393
-73,-4,9,-772,-76,-244
69,-70,-78,-1007,289,-258
84,-89,-114,20,-115,123
-5,-65,-120,421,-468,-161
53,-51,118,248,183,1
6,-18,107,-14,-171,500
-73,28,-117,-749,-795,690
-24,65,-114,-997,9,672
24,41,69,231,905,-16
71,35,42,1564,555,-103
-26,100,68,475,-384,-132
-31,119,92,-849,-550,12
0,112,75,-661,9,132
-9,99,60,520,18,-171
-6,-127,61,544,-175,-423
7,-116,64,231,-268,-263
-13,116,-52,-6303,-1752,959
39,110,115,-4310,-2591,1668
-15,-95,35,-2421,-1356,719
110,64,59,1004,1551,-2712
2,-105,44,1816,3833,-7666
-126,38,-105,3885,4015,-6544
10,-92,-25,3216,-539,-5652
-46,-115,-51,686,70,-5979
102,-5,22,4688,713,-6403
49,68,12,5402,1931,-5790
-12,-65,-93,4666,3680,-4348
-54,-59,-25,2476,4415,-3141
-97,85,-125,1182,4522,-2448
-10,-44,-54,-1093,1149,-268
103,-123,-65,-36,-1111,562
-105,-2,-7,216,-764,476
-60,28,-63,-2041,-1969,958
46,3,-89,-5520,-4261,3236
33,78,-76,-5548,-3739,3832
30,34,-11,-5467,-2566,3738
114,-72,-124,-2643,-2490,4805
-65,31,31,-821,-1525,5510
103,34,55,928,-12,5509
119,12,-78,-656,1742,7028
-18,-9,-53,2366,-2313,4019
-25,110,-123,5094,-1826,239
-43,88,-57,6209,404,-47
-37,-101,-33,3169,-385,1738
9,108,-110,311,1879,1122
-71,-47,-40,1278,-58,-986
36,126,-47,2089,114,-1232
17,-95,-17,1099,410,-830
-104,-93,33,-141,-696,-497
-54,-29,-29,-2093,291,251
-6,-62,126,-1732,551,-449
64,-88,87,-25,329,-912
64,-65,83,799,77,-1285
45,-28,110,313,-149,-1222
39,-27,108,137,157,-1124
26,-59,93,769,200,-902
16,-41,117,847,-189,-113
84,4,-116,489,132,390
112,12,-122,440,562,132
107,-69,82,1889,783,-11
39,-54,104,1846,28,1118
35,0,-114,306,-266,2057
41,47,-109,-739,-204,2589
10,91,-119,-905,-499,2469
-3,116,112,-481,-236,1472
-9,-123,76,4,295,-23
81,23,47,1535,-1813,-6096
-101,10,48,1057,-1794,-5844
82,14,124,1949,-937,-5341
47,35,48,5495,671,-8220
68,124,-48,4858,2856,-7696
0,9,-119,5313,1630,-2483
