AccX,AccY,AccZ,GyroX,GyroY,GyroZ
106,-43,78,763,-2124,-9955
124,-106,118,-1366,-1916,-7724
7,127,-59,-2437,-1976,-6829
-72,-49,105,-3193,206,-7020
63,71,51,-5233,10460,-11293
32,43,-104,2116,13350,-19821
-92,39,-112,-7434,7801,-355
33,-112,77,487,-2133,1199
-96,-94,74,-1124,-1907,1138
43,47,-62,1086,162,-361
-118,31,42,-947,-2545,472
43,-44,-80,-553,-2361,875
127,-45,37,-508,-865,343
-105,-10,-101,-2764,-1947,1264
97,-12,66,-5888,-2684,2961
-77,-24,-50,-12171,-3614,4115
-103,-8,5,-9135,-4902,5228
110,12,-109,-6070,-3878,5645
-112,97,-58,-347,-3913,3764
127,72,69,2903,-2717,2829
73,-99,-112,763,-1711,4549
101,-122,56,-3043,-5382,6636
111,102,53,126,-2770,1711
-21,-28,18,3288,-809,-1871
63,-36,103,1038,-2198,1330
73,66,-92,-1310,-921,507
-16,-3,124,1265,708,-3305
-19,-37,122,677,2594,-3000
9,57,-114,-1893,1810,-1102
-8,-47,99,37,400,-828
-3,-60,74,963,226,-1228
67,13,74,-696,831,-877
84,-14,39,-607,748,-1064
93,-13,30,-610,749,-1114
106,0,26,-829,697,-1085
109,0,21,-590,660,-910
110,16,29,-719,520,-719
118,48,35,-867,304,-464
-122,50,35,-531,207,-551
-96,78,42,-560,270,-553
-92,91,45,-591,279,-578
-88,106,52,-685,275,-565
-90,110,60,-612,254,-665
-86,119,70,-654,290,-625
-74,124,66,-559,401,-653
-71,-127,69,-472,339,-661
-65,-119,68,-521,435,-755
-59,-122,65,-405,533,-799
-58,-118,60,-447,519,-756
-56,-110,58,-549,443,-670
60,49,-83,-498,-1380,-6818
126,103,-101,248,-3062,-9972
-18,-127,28,-1103,-3608,-7344
25,-6,-67,-4549,-1640,-2908
-84,64,96,-2359,690,-6647
21,-38,22,-2805,4418,-8548
30,-80,-35,-1758,13480,-17236
8,-29,53,-1967,15166,-15009
95,-86,-91,-5760,-5605,6873
-76,45,98,3274,-459,-332
17,-80,2,-1197,-275,417
-109,-97,88,-96,-1911,84
108,124,-114,-1383,-3975,2060
98,72,102,-6946,-4208,3148
-94,86,-36,-9515,-5113,3015
32,-127,-96,-9345,-5338,3077
-65,-115,-71,-8073,-3776,3673
108,0,110,-3885,-2901,4210
111,-57,70,-212,-3814,3557
-1,33,2,482,-5299,3915
-31,-67,-39,471,-4867,4796
-17,-11,86,-2159,-3445,3668
-22,-45,60,1888,-1218,-831
-75,122,9,1651,-1742,1127
67,-9,78,2420,101,-501
-70,97,102,221,-704,-378
99,-18,108,1305,-88,-1107
49,-119,116,672,1528,-2379
82,-78,107,-1421,1957,-1109
52,117,111,-218,215,-831
83,-104,76,-625,112,-674
116,-93,67,-678,367,-842
124,-108,50,-159,500,-1164
-107,-83,41,-196,554,-1108
-111,-73,31,-53,570,-1169
-119,-101,14,569,125,-1447
-92,-14,24,-1051,341,-835
-80,-42,2,-650,416,-832
-80,-19,0,-665,437,-891
-71,12,10,-958,388,-751
-64,17,7,-632,373,-713
-59,34,17,-687,332,-673
-41,55,20,-620,341,-607
-36,67,22,-566,384,-647
-38,59,15,-1,353,-854
-33,93,25,-600,415,-699
-34,101,25,-850,406,-538
-31,106,23,-611,394,-653
-25,103,23,-279,251,-786
-18,-112,30,-897,380,-577
123,-83,3,-2851,3586,-2675
-35,-23,42,-2177,2909,-3037
4,-37,49,-342,-110,-4892
39,-124,25,516,-742,-9364
-124,-84,122,1528,-4233,-9556
46,-128,7,-1384,-3737,-7068
-83,88,50,-2015,234,-6841
-89,72,22,-3037,6224,-8364
-49,104,-85,2242,11468,-19581
-103,58,124,-396,12580,-14519
17,-80,103,-8167,-5028,9179
-41,85,15,4927,-1361,-1222
-39,97,-5,-416,-1297,229
114,84,-69,-920,-1052,603
-61,-50,81,-2669,-2528,2604
-64,-88,78,-7145,-2651,3262
4,126,38,-8141,-1973,3399
74,-118,-51,-9984,-2055,5490
5,94,-60,-6844,-2080,6015
-29,79,120,-3092,-2625,5865
-89,87,-19,-811,-1887,4465
-104,16,-36,-1130,-3627,3748
-113,22,-47,603,-2608,2854
-64,125,80,-472,-1129,1241
-120,-53,-61,427,-3213,1355
81,-79,86,3003,-1375,-993
28,39,93,1081,-273,-305
-95,-33,104,1651,29,-1243
56,-46,98,-304,1187,-2034
104,-62,101,-1303,1776,-998
97,121,60,-548,853,-862
92,103,33,422,376,-1089
-110,-96,1,108,799,-951
-78,-68,21,-1132,776,-1004
-59,116,-33,443,1065,-1094
-54,-68,4,-803,705,-1049
-45,-90,-10,-393,616,-827
-39,-73,0,-554,463,-752
0,-18,6,-1302,493,-190
-12,-35,7,-503,26,-322
-16,-3,29,-790,-113,-502
7,32,59,-1083,438,-261
-2,7,40,-442,712,-839
3,28,48,-374,521,-741
12,46,53,-689,524,-610
15,29,59,-258,504,-654
11,44,80,-465,616,-744
31,40,82,-525,853,-787
39,50,85,-422,496,-614
28,62,88,-379,363,-549
-6,27,-3,-2950,1595,-3959
-30,-6,-28,-1783,-510,-6325
60,-26,-89,-429,-3378,-10243
-79,-33,-10,1005,-6272,-10532
63,67,100,-2113,-5816,-4490
-115,-82,117,-5531,2544,-4935
-46,99,-17,-3439,12870,-17445
82,50,116,3368,11907,-24593
50,44,-118,-6748,-2718,9730
-15,-45,14,2450,-1079,-1866
-81,-64,84,-429,-460,1909
-72,75,-32,-933,-2744,1706
0,85,110,-2787,-4188,3820
114,41,7,-11663,-3213,4505
56,55,-67,-12363,-3825,5806
-55,3,96,-7288,-2914,6898
-57,-67,113,-1649,-3212,6408
-126,65,13,189,-2813,5681
97,23,-73,-771,-3033,4976
126,-91,-54,-40,-2531,4245
-91,-38,84,-898,-1269,1752
-101,49,109,1618,-1883,-136
-120,46,31,2998,-1315,-655
26,77,-122,277,-683,154
109,6,-91,-115,-291,-321
54,-99,-127,829,638,-2152
29,-89,88,-204,1605,-2512
60,115,41,-61,1362,-1634
55,119,38,-270,562,-785
69,-98,19,-1113,277,-601
113,-95,-7,-933,756,-701
123,-97,-19,-555,685,-945
123,-66,-18,-821,588,-802
-109,-45,-11,-1056,588,-542
-95,-27,-12,-590,290,-449
-105,1,-4,-595,289,-612
-100,33,22,-915,338,-541
-81,22,22,-475,401,-621
-53,49,14,-566,454,-626
-54,73,18,-691,411,-745
-54,68,22,-594,458,-881
-43,75,35,-711,523,-759
-38,44,30,-107,493,-811
-47,75,38,-311,310,-718
-44,85,27,-556,652,-863
-1,81,10,-406,652,-713
-7,103,9,-498,220,-535
-47,127,42,-855,52,-650
-22,106,64,-634,448,-703
-9,111,78,-388,309,-560
-45,-52,-94,-1976,1583,-5555
-77,4,116,-1434,-705,-7229
70,-120,75,761,-4656,-10932
-87,-57,-36,203,-7072,-8069
35,-128,-51,-4085,-4011,-3844
-7,89,-21,-4149,-480,-5751
-38,-84,81,-4269,12585,-19199
-104,91,-77,-540,11994,-24433
-127,-30,-54,-13177,1818,9238
-45,-19,-126,7097,-2531,-1572
-108,75,-82,-1593,-1550,2112
-121,-122,24,842,-525,-207
29,-40,-17,-170,-2402,2543
-12,127,-47,-3586,-3261,3424
-105,23,-107,-407,-2316,2772
13,-58,127,-8775,-742,6199
54,6,127,-6500,438,7727
-14,127,89,-2334,2668,7115
121,-99,78,-3084,3119,7601
-62,71,22,-2902,874,7718
-123,79,55,-5108,-3077,6683
44,102,37,1097,-3580,339
23,-90,-105,2203,-1288,10
56,-108,61,2335,1745,-742
17,-54,28,723,1073,-479
-60,0,-114,-286,-1365,628
103,-122,102,-600,116,-1322
92,29,42,-231,2111,-2416
111,31,37,-435,2051,-2135
-117,52,43,401,631,-1225
-99,98,49,-171,228,-513
-86,-124,35,-993,281,-507
-62,121,23,-533,386,-683
-42,-116,19,-343,453,-789
-35,-63,28,-1110,528,-581
-29,-69,13,-697,445,-672
-21,-38,23,-778,479,-624
-16,-27,25,-639,541,-741
-6,-11,23,-513,664,-810
-1,6,22,-647,559,-794
8,15,30,-526,413,-735
23,23,27,-505,567,-838
30,29,35,-437,393,-799
29,41,48,-509,405,-766
26,39,56,-388,459,-751
24,43,58,-222,411,-700
23,61,56,-341,304,-585
28,78,57,-399,46,-507
28,108,69,-749,112,-413
30,109,80,-725,267,-567
-58,-79,41,2016,-5620,-9154
-110,67,42,1209,-7658,-9133
-99,-66,67,-2256,-5984,-3109
72,28,-62,-5193,-1290,-941
113,41,18,-3750,4904,-8908
-123,7,88,-1175,12917,-23618
91,-22,120,-5401,13843,-11912
-121,-112,-77,-4066,-8327,8290
-8,-118,-15,2780,-406,-40
84,-90,-128,161,-144,-33
19,47,-61,-894,-1957,1716
43,60,102,-3094,-3487,3915
-67,-50,-8,-6705,-2893,4270
-112,-102,83,-11556,-2002,5389
19,22,-94,-7836,-1337,6719
-47,-103,118,-1456,-1018,7255
72,-128,-99,-1854,-622,6905
78,-82,-94,-3434,-2425,7751
125,-10,93,-512,-3650,2467
31,34,90,953,-1378,380
52,72,-113,532,-1002,980
-48,112,-53,-210,-1292,1044
-99,-59,62,1412,679,-1860
120,-5,91,-79,1230,-1699
93,-43,73,-252,945,-1293
55,-103,63,-152,482,-1409
83,-110,52,-252,488,-1073
115,-102,32,-471,585,-727
-128,-104,27,-491,462,-844
-110,-103,39,-480,841,-914
-101,-96,17,-643,1051,-982
-98,-55,9,-1014,853,-732
-97,-19,-14,-797,616,-546
-97,5,-25,-634,507,-652
-74,54,-2,-935,135,-485
-35,47,0,-410,240,-429
-40,71,20,-549,318,-763
6,64,19,-321,610,-910
5,73,41,-461,345,-915
-12,74,39,-568,427,-1000
-1,88,76,-1037,500,-693
-11,83,75,-553,336,-590
-28,98,64,-408,395,-759
-12,125,70,-696,323,-655
-11,126,74,-562,345,-711
-13,125,78,-483,461,-739
-9,-115,77,-597,421,-651
-15,-102,80,-539,279,-601
-9,-93,80,-552,431,-656
-2,-84,87,-515,369,-678
-33,-21,-69,-2904,2444,-4210
68,54,-92,-2228,268,-4965
-60,-23,-119,-1013,-1490,-9134
-80,-85,24,454,-4336,-10604
104,88,-122,-978,-5019,-6635
-95,-107,-14,-3280,-517,-5973
-38,-32,-38,-4266,8981,-9272
104,72,126,2879,9495,-18682
90,-98,25,-3684,11749,-12536
-99,45,2,-4874,-5982,10057
87,61,-87,4568,-181,-3027
78,-117,-113,1,-1890,1181
-80,65,2,1010,-3977,1877
4,-116,48,-3045,-4265,3171
-45,-125,-50,-6220,-2518,4604
-94,-51,-91,-12049,-2509,5101
56,-76,-35,-7608,-1697,5212
7,-39,97,-4435,-2656,6840
89,17,77,-1696,-4640,8435
-44,-58,-101,956,-3313,5361
9,82,125,-586,-4257,4865
44,-68,78,-1759,-3117,2475
122,75,36,3564,240,-1970
87,-33,-103,-625,-763,1230
28,-11,-116,1270,-1744,43
-69,-13,-88,864,-233,-661
38,-71,-116,450,1000,-2256
40,-113,115,-196,1820,-2007
51,124,74,-420,1440,-1275
37,-108,63,-756,237,-817
39,-99,43,-940,-542,-396
70,-81,7,-1433,151,-459
87,-117,-2,-576,557,-829
111,-70,0,-848,406,-640
118,-59,-2,-734,380,-624
119,-45,11,-658,429,-622
106,-4,13,-847,501,-611
117,8,10,-694,124,-394
-117,46,34,-890,91,-189
-106,39,18,-458,661,-642
-86,63,12,-450,741,-843
-75,102,23,-1221,855,-736
-71,86,22,-786,785,-864
-70,92,33,-555,674,-1033
-64,110,41,-703,669,-927
-56,-126,48,-853,528,-810
-47,-125,62,-732,372,-701
-34,-109,69,-803,445,-739
-30,-107,78,-620,478,-769
-36,-95,86,-695,438,-776
-68,-52,-31,-265,-1336,-6907
-11,90,126,729,-3698,-9729
93,-95,-99,-1272,-8402,-6386
-21,12,-17,-4634,-3896,-2184
49,-12,114,-4498,1111,-3485
-89,-118,-12,-3383,5782,-8056
56,4,78,1725,4751,-14771
88,-54,72,-1153,11758,-15603
-50,81,-87,-6584,5317,-26
-109,-70,-119,577,-135,-742
108,71,116,-204,-1464,1246
41,92,-21,926,-2266,1263
-113,-55,47,-769,-4359,3716
39,-18,-11,-6766,-5330,3863
-92,124,-117,-12541,-4981,5036
-120,113,105,-11389,-4751,5825
12,12,-105,-7105,-4348,6479
31,-70,21,1421,-5021,5488
117,55,17,2066,-2277,3567
-4,112,92,105,-3412,5421
56,-60,-97,-2167,-4042,7159
-92,103,-106,457,-2340,65
-70,95,-13,3164,-404,-2657
2,-15,37,1406,-38,-487
-17,-126,-71,-1432,-727,961
59,-80,-87,677,-778,-1506
16,-120,124,533,1626,-2109
35,-115,91,-32,1647,-1885
42,-118,63,-206,876,-1485
89,-106,72,-670,406,-751
90,-127,61,-451,188,-734
98,-114,45,-736,403,-913
-124,-101,50,-818,406,-777
-110,-90,41,-772,444,-765
-102,-83,37,-568,430,-761
-97,-67,37,-549,518,-697
-101,-29,35,-809,528,-578
-108,-34,23,-165,338,-741
-89,19,25,-873,415,-527
-70,19,37,-684,424,-446
-64,27,21,-467,535,-749
-51,59,42,-691,312,-652
-50,54,44,-392,318,-926
-41,54,46,-518,559,-875
-38,62,50,-607,446,-757
-30,78,57,-660,412,-685
-32,83,57,-595,575,-832
-24,93,61,-661,526,-750
-22,108,64,-744,457,-669
-20,116,71,-628,354,-696
96,-126,126,-1585,2152,-5451
117,-46,66,61,-2378,-7611
92,-65,14,-560,-3901,-10234
-42,-124,-85,-64,-5475,-7541
-50,75,123,-3189,-3195,-3558
-77,-5,118,-2565,214,-5094
-5,-88,121,-2912,5262,-7487
82,-103,110,2320,7136,-15137
11,122,95,-465,10833,-12863
63,-96,25,-5925,4823,757
75,7,42,1833,-3083,1253
93,24,80,-376,-1097,1227
-44,-20,-6,932,-2471,1753
81,-92,86,-3527,-4106,4853
-61,-63,-36,-6010,-4241,5137
-15,-110,114,-10171,-2640,6322
60,-10,41,-7304,-1477,7053
-7,-18,-126,-4039,-1023,8111
1,124,-7,-398,-1164,6503
-48,39,-96,-1023,-869,4894
-120,106,-113,-2760,-3349,6940
45,-119,-94,372,-4950,2756
-93,-70,0,1358,-150,-1830
2,-38,-46,2075,218,-1345
-8,-71,-85,-589,-1260,1370
117,-106,115,1192,-1228,-1832
62,83,-110,753,1093,-1694
61,-107,-88,-997,1152,-876
32,44,89,352,718,-1218
62,91,64,-5,707,-991
63,113,59,-594,-101,-725
52,88,16,-430,-59,-737
69,97,20,-732,267,-847
90,91,5,-394,321,-850
93,118,19,-766,328,-737
101,76,14,129,846,-771
127,-91,-12,-844,983,-565
-125,-95,-59,-206,755,-765
-108,-36,-69,-1206,674,-640
-67,-59,-57,-604,252,-565
-71,-21,-14,-809,178,-524
-60,-24,9,-382,737,-831
-62,-31,20,155,779,-1189
1,1,-2,-130,962,-946
2,63,22,-702,410,-536
-14,52,16,-658,297,-759
0,64,25,-826,448,-675
-7,74,53,-807,118,-555
2,71,57,-577,353,-600
12,88,72,-565,504,-575
71,61,-101,-188,-2298,-6391
-83,123,62,1175,-5069,-9380
-45,-96,-97,650,-6378,-8083
-112,67,49,-2346,-3861,-3426
-97,13,14,-5906,4930,-4028
-107,36,8,521,3122,-12870
114,56,118,833,11175,-18592
-2,-41,-6,-7753,8391,-2215
14,-74,-73,1533,-2192,949
-15,92,-67,-623,-834,998
-36,-83,-23,1473,-746,514
14,25,-56,120,-1495,1535
40,45,92,-3651,-3734,3030
-12,117,-126,-8730,-3964,3870
-50,0,-19,-13368,-4586,6313
29,54,-11,-9474,-2164,5870
-1,79,57,-5320,-2695,6300
98,38,-65,-2055,-3172,4854
37,125,-40,-898,-3153,3800
99,-60,73,-208,-4632,3745
51,-124,-50,-1246,-1797,2819
56,27,-84,1264,-1829,-451
-11,-66,93,4028,-734,-369
107,-63,-108,-1285,-704,1196
-112,19,-97,-528,-849,-828
104,-113,116,1009,1086,-2378
98,-48,119,-705,1658,-2021
87,-107,88,-252,1183,-1939
111,-126,80,161,792,-1529
-116,-77,86,-619,561,-993
-95,-98,68,-355,391,-1082
-88,-91,67,-283,736,-999
-86,-73,47,-375,912,-1001
-66,-58,27,-48,563,-777
-74,-6,28,-388,163,-494
-104,27,45,-733,-93,-356
-65,32,59,-637,-86,-116
-36,56,61,-457,-336,-106
-37,84,57,-524,-174,-437
-50,84,60,-745,171,-841
-52,79,76,-688,256,-784
-76,83,83,-736,370,-749
-73,86,70,-715,564,-726
-58,100,71,-639,284,-567
-39,122,63,-845,418,-691
-6,119,69,-790,751,-802
32,99,63,-359,915,-987
33,98,66,-32,865,-890
4,99,68,7,999,-1077
-4,98,74,-185,1064,-998
4,75,37,-803,-2050,-6152
-95,-45,-69,-470,-4647,-9399
-75,-95,60,901,-6743,-8285
-3,67,-97,-2396,-4620,-3432
-22,122,-116,-3805,-537,-2993
-37,32,-125,-2393,5747,-10070
-93,-91,-114,-410,7322,-14324
-49,-15,117,-967,12820,-15467
-13,-96,61,-5014,-4079,7056
33,-43,13,2847,-729,-1010
-117,45,-14,-479,-1351,1572
-15,103,-108,252,-2190,1845
-9,-67,110,-5696,-4299,5039
91,41,-125,-11351,-3877,4867
44,-15,-78,-13266,-4754,7878
90,-53,38,-6442,-2444,8767
124,112,-49,-836,-2582,6349
88,40,63,1651,-1918,3503
-25,-63,-122,-1674,-1232,4527
-13,-83,-26,-4399,-4996,6151
67,-69,100,-300,-2236,-484
25,18,13,5407,-73,-3283
103,-35,-42,-133,-1153,1442
-65,45,-55,217,391,-1894
-96,-41,-67,1081,1800,-2331
113,-6,-70,-456,1076,-1413
30,-103,-120,669,-231,-1285
48,-73,117,67,-353,-678
68,-56,106,-1119,178,-534
95,-101,66,-544,789,-1181
-127,-79,63,-730,696,-1200
-97,-67,68,-825,552,-1144
-87,-59,45,-939,912,-1157
-62,-20,28,-1033,647,-615
-74,18,35,-900,-69,-162
-73,44,29,-784,79,-275
-57,79,45,-880,220,-243
-58,91,52,-655,230,-251
-66,114,57,-715,388,-419
-59,105,23,-170,577,-797
-74,-108,52,-643,-110,-608
-65,-113,70,-914,387,-880
-37,109,75,-594,878,-1080
-37,102,79,-361,455,-954
-47,123,78,-714,388,-925
-44,-128,87,-792,507,-927
-47,126,100,-623,477,-825
-42,-121,101,-589,499,-702
-26,-102,97,-521,476,-582
-33,-89,90,-490,444,-746
-2,63,59,-396,-1985,-6709
101,-35,73,674,-5388,-12569
-96,112,11,367,-8732,-7466
-125,22,94,-6147,-3108,-185
54,-43,124,-4404,595,-2525
-32,15,-56,-2334,6341,-11463
87,14,3,1456,7524,-16664
-63,11,-35,-4849,14066,-11570
-115,38,103,-2639,-1117,2126
55,3,89,1406,-574,-13
-5,41,102,842,-1709,1457
-52,-69,60,-598,-3062,2765
-22,-48,80,-8385,-7322,6068
28,-46,-110,-16845,-7990,5108
50,-68,44,-9933,-4282,6065
-55,32,43,-284,-3791,5279
55,122,19,1755,-2351,6078
-4,125,20,-440,-1563,6296
127,27,-37,-2318,-4550,8224
95,36,30,-4860,-4228,2728
35,-105,-32,6321,-507,-4378
-33,-16,-29,366,203,947
101,-118,-17,-573,-1365,1244
-55,21,-95,1816,-1323,-813
122,8,-60,197,876,-1957
105,-70,-98,-4,1858,-2362
94,112,87,556,1481,-1817
98,125,88,-354,1068,-1194
88,-127,57,-498,531,-692
99,-116,66,-519,-85,-411
99,-99,62,-835,-271,-458
-120,-61,68,-1395,-151,-226
125,-59,41,-992,321,-705
-120,-35,44,-810,270,-695
-83,18,70,-1193,235,-520
-83,-28,68,-16,321,-919
-60,5,107,-653,410,-497
-66,14,69,-475,1172,-702
125,11,4,44,1420,-1239
-115,74,4,-1133,557,-786
-62,74,33,-1234,-20,-201
-29,73,59,-727,202,-528
-17,93,75,-539,416,-804
-18,112,85,-805,416,-726
-10,96,93,-519,406,-748
-37,109,74,-375,408,-759
-38,-119,100,-909,58,-408
-37,-123,114,-633,181,-479
-31,-120,116,-383,350,-666
-24,-97,-128,-667,373,-646
-88,9,-102,-1447,-2846,-6875
57,106,61,-1314,-4654,-9422
80,41,85,63,-8535,-7107
-100,-23,107,-5819,-3691,1028
-3,25,43,-4265,-243,-2237
52,-79,-69,-3168,5226,-8665
108,-52,30,-1795,8782,-15044
-107,-89,-64,1162,9317,-17335
-101,-52,40,-10643,4510,5706
-108,118,89,4735,-1233,-2493
114,59,-118,-512,-3133,3499
71,98,-30,1721,-2802,1437
97,-79,56,-3901,-5084,6067
-40,72,-37,-10426,-4054,4432
-67,102,-27,-11469,-4172,6379
58,-68,-65,-7338,-2847,6800
-29,113,86,-3257,-2552,6512
95,42,70,1007,-3742,5655
-8,-43,-94,1659,-2995,4178
-100,-113,-113,-1384,-3304,5876
63,109,91,-1979,-2986,2779
-44,-45,110,1229,-1065,-1746
13,83,81,1613,825,-547
68,-117,-43,-573,-604,349
123,-45,-110,1234,21,-1082
66,-67,-102,532,949,-1476
49,-91,-119,388,626,-1605
27,108,95,1135,398,-1738
57,-90,119,-859,712,-1108
64,-122,75,-708,870,-768
78,121,52,-641,714,-778
114,-104,51,-874,562,-591
-112,-78,32,-864,622,-643
-97,-87,26,-292,579,-905
-84,-73,23,-327,611,-914
-80,-34,14,-763,545,-712
-79,-38,14,-561,388,-667
-72,-2,21,-856,370,-554
-59,17,26,-759,346,-561
-48,24,31,-545,232,-676
-21,46,45,-801,353,-574
-15,33,51,-322,350,-747
-11,43,64,-441,512,-751
-13,33,64,-141,489,-783
-27,36,60,42,547,-717
-11,62,57,-249,590,-558
-11,31,48,405,538,-795
17,33,49,332,697,-709
13,25,46,417,491,-718
9,17,48,380,418,-768
97,-121,-55,-1905,-2144,-5949
15,-18,115,-2442,-2644,-8587
-62,-113,-54,-1190,-4543,-8246
-35,69,-44,-848,-6719,-4347
-103,-100,74,-4752,-1758,-1820
-96,-83,41,-3159,3255,-5348
94,-67,114,-67,7131,-11456
-38,-58,-7,-1753,10028,-12329
83,78,-106,-2472,9612,-8506
53,-31,122,-3552,-1140,2510
-126,4,103,1802,-1767,596
-26,8,-16,1198,-2185,1285
79,-90,-10,-2927,-4242,3994
-12,-24,-90,-6525,-4736,4641
32,17,121,-9715,-4697,5233
-17,-80,-118,-11852,-3709,6440
-72,-114,-81,-4337,-2398,5468
24,124,-35,-540,-2770,4556
-51,-26,14,2021,-2575,3964
-33,-83,-69,-1703,-2692,5866
-68,-128,-84,-2140,-4037,3615
-68,-113,-53,2679,-3836,851
34,119,81,328,-40,715
59,65,126,333,457,-1229
85,81,23,3271,847,-2663
-34,95,-29,-1109,-381,1280
103,-18,-92,-265,-1071,618
46,125,107,897,146,-1401
63,-81,99,-1062,2116,-1085
61,127,77,-680,1418,-870
72,-126,74,-53,581,-593
107,-108,49,-297,673,-807
-124,-84,38,-667,455,-793
-117,-91,16,-529,391,-853
-125,-103,4,-176,488,-1042
-111,-58,13,-785,333,-707
-88,-53,10,-601,412,-669
-79,-50,15,-413,469,-852
-63,-18,35,-676,490,-745
-66,-9,41,-501,327,-783
-58,-3,48,-189,454,-950
-46,33,57,-731,493,-806
-44,24,58,-454,409,-862
-40,48,78,-684,415,-722
-39,45,83,-500,388,-803
-31,35,84,-248,451,-776
-27,66,83,-587,491,-625
-25,73,79,-589,371,-635
-18,81,84,-533,436,-637
-19,98,90,-532,388,-658
-19,47,-98,2271,-3832,-4031
-6,-35,-9,1015,-2816,-5260
-88,-39,-5,-3337,-1715,-6348
-63,-101,-106,-31,-7013,-10158
34,-95,123,730,-10783,-8625
31,113,-92,-8258,-2687,3283
20,8,94,-4770,-1248,-626
-78,33,-77,-2070,1938,-5858
18,46,91,-904,5190,-10027
54,-10,45,-2399,12773,-14464
32,89,-107,-4921,8373,-5577
-45,-83,-108,-1331,-1868,2811
78,-26,68,1845,-1897,518
-28,-119,93,896,-1915,1071
64,-41,-94,-1549,-3805,2996
-29,7,101,-6766,-4447,4227
-3,95,111,-8867,-4065,4923
12,21,27,-7040,-4585,6786
-14,-22,124,-4620,-1285,8113
-71,-100,15,-1219,-879,6577
-82,-44,17,134,-1141,4918
110,-81,82,-1514,-1769,4571
82,-85,-101,-2626,-3156,3978
32,23,-103,1923,-2397,81
32,-19,-64,2437,471,69
-46,-117,-39,719,-998,1878
-26,-26,125,1930,-1418,-598
123,-41,-71,62,-207,-1143
78,114,-117,-580,1422,-1389
63,61,118,-12,1020,-1472
54,74,96,-61,-80,-784
61,127,83,-1362,-6,-222
64,89,49,-541,130,-573
111,118,44,-706,317,-663
123,-123,44,-810,590,-672
123,-109,33,-769,643,-782
125,-84,26,-806,697,-655
124,-62,18,-917,599,-563
-109,-48,12,-487,567,-618
-87,-14,7,-736,726,-675
-75,3,6,-720,715,-715
-69,11,14,-439,376,-827
-60,41,16,-949,468,-687
-59,31,20,-640,454,-750
-53,51,29,-627,276,-705
-43,65,43,-734,324,-694
-36,66,59,-658,336,-701
-29,79,71,-689,370,-647
-26,80,74,-538,420,-633
-23,95,75,-460,364,-633
-125,-18,87,-3203,1617,-5327
-107,-116,42,-1868,-751,-7035
-125,16,56,-879,-5135,-9033
32,122,-64,-1611,-5470,-7058
41,5,123,-4584,-2013,-3511
-31,36,-126,-2052,135,-7775
-101,-63,-37,-3025,8013,-13744
-99,56,112,2914,9056,-19853
-30,94,-74,-9642,13466,-4298
-8,-112,-89,1527,-5142,3614
49,79,-22,-407,-3061,2261
-106,87,0,1149,657,-527
-78,-34,2,-2106,-2616,2396
58,-88,35,-4244,-3024,4170
-118,36,-119,-9180,-3297,4566
115,119,1,-10493,-2888,6611
-13,-39,31,-6587,-1587,7877
-35,-93,14,-941,-2255,8721
77,51,-4,125,-187,4794
-42,15,69,-4625,-1059,4789
-15,31,-5,-973,-4671,3938
-34,121,106,1926,-1080,-246
60,-44,122,2523,250,-1217
127,-9,-128,1630,-372,503
-24,100,-114,-1054,-672,313
81,-119,113,277,-140,-1716
99,74,127,583,1021,-1721
53,120,119,-286,501,-940
63,107,123,-553,-34,-773
88,94,105,-198,33,-847
99,104,122,-692,229,-1003
-125,45,-110,253,462,-833
104,89,118,-102,940,-841
-125,-102,75,-1093,1027,-673
-121,-108,21,-782,840,-911
-73,-52,20,-1373,522,-664
-64,-71,23,-719,652,-828
-77,-37,21,-924,556,-949
-34,-4,34,-995,364,-527
-34,19,58,-930,175,-595
-43,28,65,-595,539,-884
-53,68,89,-967,413,-700
-19,61,84,-678,503,-703
10,98,81,-638,527,-709
-9,-127,76,-889,243,-748
-26,119,98,-800,231,-692
-37,-102,-122,-1019,-76,-330
-45,-108,-117,-535,256,-601
-22,-72,-114,-729,521,-661
-16,-72,-122,-525,487,-703
-128,67,-87,659,-3970,-10610
-75,8,-123,1054,-7003,-7425
106,29,-109,-4033,-2347,-2856
-73,-59,125,-2593,860,-5343
-93,21,81,-1153,4053,-8428
-125,-115,-76,1114,6025,-14261
-45,112,-95,685,12045,-14220
68,-98,51,-9381,-2016,8435
16,-91,67,5635,-360,-2591
66,0,49,-2252,-1268,1564
-62,54,-92,1252,-2212,467
112,119,10,-2292,-3618,3655
-53,33,-63,-5643,-3278,4279
47,-48,-94,-7528,-2097,4446
-86,7,-58,-7661,-2056,7637
-15,103,44,-9023,267,9433
-88,-19,100,80,-1543,7196
50,-65,63,-31,-2113,5770
79,-67,123,-3806,-442,5288
-37,35,-125,1312,-4216,-372
32,76,-79,3292,-721,-734
-106,3,-46,-2533,692,1370
-21,-127,-63,2255,-536,-747
-125,-37,-127,-644,1233,-951
106,-81,-121,-625,485,-695
103,-127,-117,-64,95,-578
116,-84,116,-738,311,-450
103,-95,85,-575,637,-670
92,-108,62,-424,708,-863
-126,-71,56,-828,601,-512
-108,-74,42,-423,421,-433
-91,-61,27,-392,535,-574
-83,-43,30,-546,446,-520
-77,-36,23,-518,218,-525
-65,-35,9,-378,438,-546
-65,-39,10,-161,571,-651
-47,-33,8,-130,533,-659
-49,-12,13,-422,380,-599
-52,-26,35,-419,409,-664
-32,-24,54,-722,453,-670
-6,-41,59,-489,585,-666
-10,-46,62,-350,647,-820
4,-22,53,-576,639,-809
0,-24,70,-482,365,-675
9,-16,85,-561,514,-649
15,-9,102,-179,375,-560
-4,24,113,-599,440,-703
11,17,126,-393,484,-690
18,52,-125,-634,513,-720
32,91,-114,-1133,546,-867
-67,111,23,-515,-1053,-8115
-69,-12,-61,-65,-3887,-10564
95,45,76,196,-6772,-7577
119,125,112,-2113,-4010,-5788
-92,-6,70,-3848,2327,-5864
-122,-37,-75,-859,5233,-9504
-73,101,79,788,12551,-17616
33,-55,-2,-5308,8070,-4376
120,51,-3,-1321,-908,1562
86,7,-81,781,-3184,1706
109,84,49,1930,-2910,1674
-88,93,34,-3039,-4047,3271
46,-64,69,-4428,-3417,4770
92,-50,-38,-10491,-3552,6324
41,19,-4,-7316,-3267,8857
13,-100,-112,-2463,-1131,9430
3,-106,28,-557,408,6698
75,38,27,-1599,1875,4411
25,7,-122,-2858,-1554,4534
-85,-120,12,3967,-5174,1479
44,-88,28,-319,327,999
-124,-68,97,163,659,-337
-89,-125,127,1852,-318,215
-70,-53,104,52,-605,-576
114,100,-97,183,-442,-1632
121,47,-125,-388,1348,-1523
119,22,109,-68,647,-1108
104,53,107,-248,148,-456
82,61,57,-481,627,-653
116,78,77,-569,762,-566
-117,106,37,-407,760,-790
-108,-109,-3,-818,1093,-931
-114,-84,-8,-1017,687,-1061
-52,-64,5,-1047,922,-1187
5,-20,50,-1168,320,-613
18,-16,53,-560,-151,-517
-21,26,71,-834,85,-709
-18,13,58,-861,745,-1084
6,33,62,-815,538,-792
20,40,94,-102,98,-539
-6,77,88,-641,357,-756
6,81,85,-690,514,-743
7,86,76,-618,269,-694
3,109,82,-993,135,-608
-5,104,100,-622,142,-707
-14,114,106,-577,380,-909
-16,-128,109,-765,409,-775
-20,123,99,-517,407,-768
-11,-116,90,-550,412,-651
-4,-99,87,-519,276,-669
0,-26,30,-1065,234,-6779
32,9,-33,-1603,-1268,-7900
60,-10,-26,-788,-3649,-9046
-31,-3,-68,-932,-5597,-6801
-111,80,-80,-1281,-4894,-5196
-14,49,38,-3472,1973,-5322
29,43,77,-1964,7564,-10559
-32,104,99,-102,14141,-17495
22,-50,-99,-5017,3523,1132
-42,4,-38,239,-1806,931
17,-81,97,1351,-2702,1102
-69,27,-116,1588,-1479,616
-29,-95,-7,-2003,-4081,4064
32,71,28,-3296,-2242,4391
-18,-43,11,-5335,-4628,5601
-49,-46,-55,-6067,-577,7981
34,-64,-17,-3246,2056,7541
74,-10,56,-1667,3740,7273
107,-97,-101,-3211,1650,6891
115,-15,85,-8086,-1283,5958
-42,-109,-87,1235,-6137,910
-11,60,-91,6198,-711,-1213
18,-23,-11,-3065,233,2691
-18,-54,-119,2599,-363,-1230
-74,-125,98,3167,-162,-1445
-69,123,-43,-2107,-28,903
104,88,-122,793,-49,-1155
87,48,81,765,988,-1974
89,101,93,-622,664,-1285
82,83,64,-559,317,-692
89,102,54,-839,114,-458
125,107,36,-599,256,-637
-100,-99,30,-1069,302,-705
-82,-112,30,-713,418,-951
-69,-110,12,-503,765,-1180
-57,-58,15,-1278,654,-737
-55,-58,-8,-738,532,-574
-69,-20,-17,-734,518,-676
-57,-25,-17,-332,333,-659
-35,45,4,-1122,232,-258
-24,19,-1,-398,288,-477
-7,53,2,-608,447,-605
-6,71,-3,-604,466,-751
-12,75,6,-640,417,-790
-8,77,14,-588,451,-739
-9,83,16,-500,420,-719
-6,91,14,-355,339,-771
0,109,23,-537,343,-743
1,113,30,-568,372,-744
3,103,28,-287,333,-817
-53,-93,81,-3377,3533,-4027
60,-76,-122,-2178,648,-4850
-70,-19,126,-1645,-925,-8180
-120,88,-79,-844,-3380,-9672
63,110,73,-2503,-3193,-7170
17,126,-56,247,-3980,-9159
76,-115,-46,-5866,9447,-7646
-18,-11,-14,3434,8985,-16014
-117,-83,-27,-1382,12397,-15136
110,-120,57,-7848,-1365,8607
54,-54,-48,3948,-2340,-1468
-61,94,-36,-1259,-410,1048
23,0,-23,1157,-3138,889
-100,91,-92,-4215,-5707,4695
-27,76,40,-5361,-4977,4643
-111,26,-128,-7959,-3676,7734
-44,116,-120,-3902,-503,7582
-34,-91,21,-1510,1789,6398
-24,54,108,-1180,726,7440
82,-77,-105,-1551,55,7944
-14,-121,37,-3714,-2125,7165
-113,-38,43,-871,-3344,1357
84,-115,65,2489,-251,-2319
25,-22,-127,297,1254,-276
-75,95,-8,-403,-1724,1442
-63,-87,127,1741,-1044,-1369
-115,-77,-124,-363,1709,-2061
106,-127,78,69,1582,-2184
98,111,76,173,700,-1770
-121,-79,88,-985,505,-509
-128,-116,54,-548,526,-771
-79,-82,42,-840,568,-783
-55,-68,46,-879,442,-706
-40,-65,39,-671,551,-844
-30,-36,42,-796,649,-851
-39,-45,37,-289,481,-900
-33,14,52,-1203,507,-484
-44,1,45,-612,317,-464
-29,40,57,-760,263,-363
-18,42,55,-187,113,-529
-11,41,53,108,188,-827
10,117,76,-1361,399,-496
-1,64,62,-315,454,-806
0,96,69,-659,528,-801
0,104,71,-648,470,-787
-16,83,66,-142,107,-1201
-8,124,66,-698,242,-951
2,125,73,-650,576,-655
-9,118,79,-489,534,-751
-7,126,87,-460,411,-664
3,-27,-76,-619,-3231,-8850
103,80,35,-1696,-5285,-7270
-39,105,65,-3747,-2469,-3675
123,2,-70,-1681,-1900,-6032
-27,-19,-103,-2152,701,-5277
-122,119,40,-642,7758,-10618
29,113,21,3109,12151,-17978
43,-78,-30,-8053,7587,-1894
99,53,14,192,559,1974
113,-46,-92,1897,-3523,-540
-58,-87,-116,130,-448,912
-40,-85,64,-1069,-3677,2184
76,76,-40,-3294,-2574,3296
-128,64,106,-7821,-3347,4928
-13,-89,57,-7243,-2125,4718
69,-47,-75,-4697,-2851,6815
91,1,-10,-3312,1060,7210
85,16,45,-2065,1423,5976
-82,-98,48,-2034,-844,6450
-85,-61,-86,-1632,-1713,5518
109,65,112,-1142,-2613,1523
31,117,73,3058,-1689,-261
-8,38,-111,-59,-103,1088
84,127,85,798,-641,395
17,-43,-101,-696,-1024,434
-93,95,115,517,182,-1343
100,115,98,-602,1461,-1762
94,100,76,-515,1108,-1572
106,98,75,-206,551,-1044
121,-122,69,-699,398,-613
-120,-121,47,-685,593,-829
-79,-102,41,-866,697,-892
-63,-87,36,-915,758,-905
-59,-77,31,-784,753,-967
-64,-47,34,-842,653,-877
-46,-30,55,-893,461,-644
-23,-6,51,-833,505,-630
-2,24,59,-929,581,-747
15,58,57,-1046,576,-752
25,93,75,-1388,668,-954
25,-117,99,-1785,687,-930
24,125,102,-1166,787,-954
-10,-76,-124,-1369,443,-1000
-10,-54,-120,-996,277,-544
-7,-21,-86,-1216,187,-476
-2,-36,-78,-739,314,-722
-9,-40,-79,-357,359,-611
-21,-24,-73,-95,218,-402
-11,-19,-76,-101,322,-492
-2,-24,-98,-189,365,-633
-50,-73,7,-1497,-1211,-7912
29,-122,-54,-1518,-4521,-9635
-108,-125,-7,-733,-7839,-8315
20,20,35,-4494,-3428,-2614
-25,-38,32,-3962,321,-3624
-120,-59,123,-939,2739,-8103
-89,75,77,-806,9659,-13621
75,-117,10,17,12849,-13590
42,9,10,-4530,3135,2319
106,11,31,1302,-2155,518
-20,-116,-44,-1376,-1660,1459
51,-50,54,1127,-320,-240
-99,77,111,-3461,-5521,4465
10,4,-37,-4851,-4330,4716
106,62,36,-10333,-2807,6273
78,92,-82,-6633,-2180,6927
70,-39,102,-4869,-694,8261
-92,-118,49,-1103,-1156,6458
-98,88,108,1490,-245,3805
97,41,-124,-456,722,3056
-68,105,68,-2033,-3198,4779
92,-98,43,494,-4420,2955
-18,101,34,2036,-1459,-159
-1,-105,13,2065,140,-1041
110,26,109,29,124,-448
86,84,-121,511,-58,-1559
82,82,-115,-2,786,-1092
51,75,116,-717,875,-999
52,25,82,70,644,-1211
86,73,92,-796,625,-746
111,81,71,-997,469,-684
-123,67,57,-569,635,-927
-103,106,54,-968,853,-832
-115,123,29,-765,818,-949
-116,-97,27,-833,528,-922
-84,-49,36,-1062,482,-663
-73,-50,34,-816,538,-909
-42,-29,45,-897,628,-892
-11,-19,53,-723,632,-933
-23,-11,58,-535,763,-1040
-33,9,52,-452,762,-1039
-30,39,51,-577,347,-871
10,100,72,-753,19,-684
-1,110,66,-594,429,-1134
-27,119,92,-646,308,-993
-31,119,86,-677,520,-960
-16,116,84,-369,272,-752
3,-112,81,-460,238,-663
-7,-85,76,-542,372,-828
6,-75,80,-544,247,-710
55,77,-89,-2510,589,-5400
83,69,28,-2477,-1860,-7419
4,17,81,-262,-6093,-9263
-72,122,59,-1033,-8646,-5634
122,13,-39,-4583,-2497,-2257
-75,101,-45,-4602,3018,-3836
-37,118,-9,-120,5378,-13244
-29,75,113,2250,12834,-18706
-77,-67,82,-7141,8502,-698
32,-110,-105,3477,-1855,-520
61,-5,-75,-1774,-2215,2428
-27,72,46,1830,-1539,472
24,27,-77,-1962,-4338,3576
70,7,69,-5338,-3668,5768
12,-5,92,-9302,-3278,5861
103,-104,8,-6839,-1793,6297
22,10,-117,-5632,-582,7425
-56,-50,55,-2198,-1753,7359
108,117,19,1637,-2288,5404
-90,78,79,1242,-323,5208
45,-116,83,-3352,-1357,7177
-80,38,-102,116,-872,1469
-128,80,51,3701,347,-2473
-54,-1,71,2678,-177,-432
34,0,-125,572,-1593,716
-119,111,-119,153,-1106,-494
-101,71,-94,-425,167,-1055
-110,12,120,37,965,-1675
99,-47,92,1042,75,-1877
99,78,127,-1485,871,-900
59,-19,6,-547,1395,-1393
74,32,-10,-691,952,-1011
86,79,-31,-782,539,-732
-84,95,-1,-1113,194,-383
-53,117,9,-564,92,-166
-44,-97,6,-466,383,-597
-17,-95,-3,-112,234,-804
-8,-34,14,-752,182,-560
-21,-42,23,-763,498,-814
-36,-47,13,-571,534,-1005
-32,-28,37,-554,400,-755
-26,-13,40,-624,385,-707
12,-6,19,-237,493,-878
18,31,35,-835,219,-1088
35,34,21,-431,903,-661
1,37,27,-451,906,-943
-10,17,19,328,753,-943
-30,52,41,-195,397,-756
-36,56,64,-489,264,-572
-4,63,62,-334,490,-386
-5,-96,-102,-1315,2062,-4941
-98,-30,58,-1481,755,-5452
-60,-66,112,889,-3953,-9886
66,-10,10,-293,-5848,-10507
-93,8,16,331,-9857,-5593
-81,-13,-53,-5855,-2213,-253
94,-95,65,-3826,1094,-3012
65,-77,-80,-698,4274,-9484
48,-123,48,92,7162,-12440
23,-12,119,-983,9161,-10489
-74,40,51,-4379,4594,-188
95,-111,-121,224,-1780,940
39,113,75,734,-2215,1171
-48,-117,64,481,-3863,2523
-8,-25,36,-2587,-4387,4264
96,108,-56,-4911,-5077,6217
-56,85,-25,-6232,-2476,6152
119,-113,-2,-5701,-517,7045
3,79,48,-4449,-1110,9530
-46,38,81,1834,-442,7421
-70,-105,114,-1160,557,5613
86,42,8,-938,-2758,6261
-42,120,-102,-1591,-4664,3675
14,-98,-11,1218,-1612,-983
-67,-51,0,531,1408,-921
40,121,-20,148,-764,580
-107,-82,-93,2317,-650,-1371
108,-20,-69,-134,1031,-1380
24,111,126,500,1019,-2187
52,-122,104,-485,1270,-1676
42,121,99,-569,774,-1016
32,105,75,-174,397,-678
54,-120,60,-394,298,-588
95,-90,48,-486,198,-530
126,-71,44,-768,362,-667
-116,-58,46,-905,453,-853
-116,-58,34,-721,613,-1028
-106,-38,36,-874,677,-840
-108,-29,32,-611,452,-671
-99,5,32,-735,335,-536
-86,23,39,-828,281,-516
-65,36,42,-670,410,-590
-58,50,47,-629,408,-671
-51,61,46,-530,468,-731
-53,68,49,-512,430,-753
-50,84,50,-696,448,-722
-45,80,52,-582,436,-722
-39,97,64,-680,381,-662
-41,84,64,-256,365,-744
-29,122,78,-876,422,-573
-89,-98,46,-1540,1301,-5784
64,-98,-56,-1319,-670,-8271
79,-19,-31,42,-5017,-10332
49,-1,73,820,-9501,-9250
113,51,-122,-4163,-3046,-3797
-31,70,54,-5941,3675,-2493
-89,-91,-49,-995,3268,-8680
92,121,-94,32,7661,-13082
-109,-64,84,-997,11280,-11148
-33,112,-91,-6060,1108,3751
-66,-44,-13,2818,-661,-1572
-31,122,-104,-1354,-1491,1548
73,-13,-16,1628,-2048,423
2,101,29,-1557,-3745,4478
26,26,-9,-3011,-4190,4719
104,-59,-111,-9433,-2782,6643
-114,-7,72,-7283,-1367,5486
115,-57,-18,-4090,81,6113
59,-127,61,-674,179,6259
-69,-56,98,-510,260,6361
93,8,106,-662,806,6047
10,-102,-103,-5068,-2603,6987
111,84,46,-872,-5290,2937
98,-36,31,2365,-1543,-2098
76,-111,94,1133,53,-450
-105,-118,-82,690,-777,808
-63,-60,-86,-21,-965,-65
30,59,-127,615,974,-2176
25,54,89,-219,2219,-2306
44,52,83,-560,1467,-1443
48,37,78,-40,176,-781
89,81,73,-751,-55,-316
112,75,32,-740,468,-721
-111,74,31,-264,519,-884
-105,94,20,-499,702,-943
-100,111,3,-545,520,-837
-108,121,2,-476,351,-703
-95,-100,17,-792,248,-370
-78,-96,14,-414,251,-471
-53,-67,18,-326,343,-593
-43,-51,18,-464,581,-698
-38,-51,18,-337,473,-649
-38,-37,21,-400,346,-547
-36,-29,19,-360,362,-681
-44,-25,24,-380,402,-757
-33,-21,33,-596,434,-605
-16,-29,37,-269,310,-508
1,-1,38,-313,363,-638
-6,-4,35,-227,614,-880
-14,-4,41,-422,550,-810
-13,-126,111,-1823,913,-6488
125,93,57,-450,-1285,-9807
57,-6,10,316,-6349,-11297
5,34,-60,-1184,-7931,-7400
95,-74,1,-5566,-51,-4223
-89,-121,60,-4227,3202,-5238
-127,-109,98,432,4616,-11379
-56,-47,-51,-664,9986,-11891
108,-57,92,-1219,8616,-5815
-104,-66,92,-3992,2897,1537
-7,-120,23,1079,-2340,9
45,105,-57,206,-378,150
-66,87,70,-143,-1724,1379
76,16,-110,-2230,-4793,3837
75,-3,72,-6916,-4205,4331
120,8,41,-10337,-4136,5558
-68,-13,-50,-9131,-2451,6175
-29,-81,64,-5843,-1795,7238
-109,-113,-30,-2153,-3346,7437
7,76,-128,482,-3456,4672
-7,-66,7,78,-2747,3872
-19,-27,-35,-1494,-3296,4836
-71,-31,-8,-922,-242,725
-114,-67,4,3836,1738,-3357
-116,-55,-107,280,45,641
0,33,-75,238,-2092,-46
117,-47,-100,-358,287,-1512
86,114,91,-530,2080,-1984
78,96,95,78,-191,-887
45,-84,103,-1149,-1381,282
57,-111,35,-992,25,-554
39,-96,32,-739,721,-887
34,-65,16,-855,750,-906
80,-56,7,-468,758,-835
76,-11,1,-678,422,-691
60,22,-4,-1018,314,-677
65,30,8,-987,352,-689
94,54,23,-943,430,-645
106,70,14,-608,382,-898
-123,84,14,-692,396,-888
-119,104,37,-789,421,-811
-113,111,38,-745,600,-931
-85,123,52,-703,527,-797
-84,-127,57,-397,289,-746
-82,-118,55,-430,512,-772
-77,-99,60,-810,370,-708
-105,-104,83,-611,212,-753
-122,-103,90,-614,563,-868
-127,-111,103,-455,479,-820
-117,-113,94,-281,550,-767
-124,-85,64,-605,-2157,-6931
-38,115,-52,944,-6317,-12602
75,-90,-115,-1623,-6562,-7689
-120,-79,34,-2518,-5342,-4544
68,89,-22,-7895,1445,-203
-120,-105,39,-1323,-599,-6572
2,74,-70,-1670,5595,-9895
98,-88,-39,-807,10377,-13925
53,-109,-95,-3798,11544,-6104
44,-4,-64,-2394,-1795,2232
102,109,125,2212,-2010,-511
29,73,79,73,-2133,1572
-73,-31,32,62,-3819,2950
117,113,-89,-3905,-3469,4974
33,-32,125,-9031,-4322,6005
-11,-65,3,-12782,-3283,6868
35,42,-70,-7563,-229,6305
90,23,-47,-3216,-1149,5840
-127,-75,-77,3557,-2845,3964
52,-21,-118,-711,-1517,6107
-40,-102,16,-1168,-4253,7463
-100,67,-35,-2985,-3032,3773
-119,-18,-46,176,1197,-2629
124,21,0,-161,183,-770
38,113,-57,3630,-1501,-650
-81,13,-63,-799,-131,-134
96,-111,-99,102,-39,-1024
41,111,-128,62,932,-1617
54,99,119,-145,697,-1318
47,119,94,-451,188,-626
47,110,60,-355,290,-521
71,123,50,-432,389,-621
107,-119,49,-492,533,-673
-128,-120,33,-458,803,-777
123,-121,18,-129,672,-902
-107,-87,20,-581,574,-586
-101,-55,28,-908,355,-556
-96,-45,38,-683,330,-753
-82,-29,47,-787,517,-729
-76,-15,50,-736,443,-750
-60,-5,51,-602,398,-733
-50,19,57,-794,438,-639
-49,30,61,-776,285,-714
-40,24,64,-451,413,-754
-36,56,69,-848,568,-708
-38,48,63,-411,469,-785
-38,75,71,-692,441,-707
-39,82,75,-662,424,-724
-30,95,87,-744,405,-595
-24,115,86,-824,365,-638
11,-112,67,-1466,1488,-6598
121,99,35,-948,-1674,-7564
7,-35,18,14,-4819,-10300
64,-6,-126,1082,-9096,-8595
-18,18,-105,-3469,-4479,-3401
-86,-37,-30,-4998,984,-2589
13,17,-63,-2136,4474,-8428
-95,48,80,-276,8166,-14412
9,-51,46,170,12148,-16691
-40,-38,74,-9409,2053,7194
-47,109,87,3878,-1670,-1386
45,67,97,-569,-2476,2032
-30,-2,54,560,-3802,2656
76,61,-37,-3236,-3484,5419
-53,-29,-125,-6540,-3287,6526
-37,4,-73,-9749,-1448,8404
0,60,112,-6214,42,8607
-75,-91,-34,-3627,-35,9061
-110,25,36,-182,-458,5406
-65,-47,-63,-883,-62,3712
87,-7,73,-2469,-1903,5149
48,111,-110,-333,-3072,2129
85,-14,-123,1287,-840,-1475
-65,110,77,2561,1286,-1376
-94,100,-14,-1522,-491,1400
-85,110,123,1908,-891,-1209
127,-95,-71,-453,589,-1384
103,107,-128,-159,1526,-1483
71,53,99,702,631,-1745
105,92,104,20,512,-698
112,118,96,-902,653,-544
-107,117,73,-704,556,-618
-69,-125,75,-595,572,-713
-54,-111,61,-405,554,-854
-63,-109,53,-381,403,-818
-65,-71,54,-981,515,-609
-63,-74,56,-597,336,-601
-37,-44,68,-764,317,-450
-25,-33,68,-398,291,-649
-8,-16,77,-564,351,-584
-6,15,87,-855,406,-587
-13,6,89,-500,364,-764
-8,19,100,-533,405,-724
-6,38,98,-700,493,-708
-8,42,100,-533,355,-746
-3,65,104,-859,406,-682
-6,81,116,-971,363,-635
-4,85,122,-850,363,-679
1,97,-120,-828,316,-638
6,114,-113,-863,417,-652
-30,124,22,-883,-2421,-6226
54,68,-47,-933,-4282,-9529
-117,51,114,-30,-7904,-8919
13,18,66,-3479,-4845,-3866
-34,-27,-104,-4951,67,-2328
-59,46,119,-2389,4321,-7400
108,-125,17,-13,5852,-12215
22,-78,-93,598,12213,-17072
54,-24,1,-7804,1680,6665
-9,30,-119,3205,-1477,-1123
51,85,-120,-226,-2231,839
31,31,68,1474,-2958,729
45,67,-111,-1509,-3525,4077
46,90,50,-4381,-2506,5891
-123,43,-70,-8261,-1939,7105
125,-68,-96,-7802,-335,8553
-73,116,-28,-4300,1346,8253
111,77,108,-1889,1164,6724
50,58,89,-31,-906,4504
57,39,95,-549,-944,4145
39,26,108,-2320,-3054,3968
-59,44,-112,-3087,-966,1025
-128,-51,-122,3289,-45,-1440
-36,-16,-82,209,-109,912
62,-54,-89,886,-1581,766
-121,81,120,3196,-1225,-1360
72,-105,-121,-279,1323,-2119
79,-122,116,-2397,2308,-1327
41,80,85,-1227,-220,-700
24,96,63,-539,-938,-223
56,100,29,-659,620,-524
97,-126,22,-841,1119,-856
126,125,16,139,347,-847
-106,-117,25,187,391,-979
-106,-127,17,180,757,-932
-85,-65,26,-1137,522,-428
-78,-98,15,-526,436,-458
-69,-98,12,-152,632,-717
-39,-51,15,-706,587,-418
-41,-57,5,-414,462,-506
-33,-29,9,-631,417,-534
-36,-34,30,-543,352,-533
-39,-35,35,-498,453,-622
-26,-17,48,-665,413,-565
-12,-23,42,-374,354,-645
-7,-21,54,-273,350,-643
-3,3,65,-613,351,-618
0,-11,68,-411,364,-642
7,1,79,-536,336,-609
10,9,86,-519,451,-613
63,-52,87,-2413,1968,-6974
97,-97,3,-1040,-1112,-9007
-97,3,-17,699,-5147,-11117
19,46,-79,319,-7404,-8933
-64,-103,-27,-3108,-3668,-3632
-117,-85,6,-3366,75,-3435
-34,28,-71,-1414,5887,-7632
106,86,82,3548,5164,-13026
79,42,-79,-7292,18316,-8159
-17,63,-75,-441,-1786,2828
-37,85,99,1183,-1135,-1151
-1,49,-89,246,-2329,962
-113,62,-78,348,-2632,1049
16,-119,60,-3222,-3050,3333
-45,-67,-43,-6938,-2824,3639
28,72,96,-11108,-882,4868
52,-17,-16,-9407,-178,6592
-41,126,15,-9952,2149,9246
-15,-26,64,-4242,-2264,6805
71,-58,-21,1687,-3131,2473
64,-30,-9,-1755,-2614,3502
-68,-23,47,-2112,-3059,3265
-14,-124,-38,862,-1334,134
-5,-68,-70,899,-431,-520
-74,-19,-35,-39,-1320,606
34,-24,-26,-160,-1219,-97
-100,-114,-12,-228,444,-1389
123,120,-50,-541,1781,-1433
58,-98,-116,-977,932,-1047
30,-88,-127,-260,-258,-623
41,-68,100,-410,136,-913
100,-47,97,-788,273,-882
-125,-60,111,-670,94,-860
-106,-74,110,-409,417,-1081
-127,-73,99,-251,626,-1179
116,-60,111,-428,488,-959
-116,-36,108,-983,892,-698
115,-15,84,-855,633,-741
118,17,58,-735,658,-779
-106,66,65,-1147,320,-719
-73,58,99,-615,58,-516
-58,108,112,-1015,357,-709
-60,102,125,-658,422,-957
-56,118,-124,-965,453,-890
-52,117,-106,-779,207,-729
-51,-127,-106,-670,476,-773
-49,-119,-88,-659,476,-697
-53,-122,-112,-395,498,-789
-66,-91,-93,-651,389,-683
-72,-108,-108,-384,559,-825
82,22,105,-409,430,-8093
-26,-18,90,-626,-2563,-9410
-117,41,-124,114,-6778,-9881
-15,-89,19,-313,-7382,-7789
79,108,80,-3394,-1591,-3987
-95,97,-89,-3570,4542,-5442
88,95,-89,-960,7316,-11544
45,-27,74,505,6638,-12085
-55,-112,-11,-5598,7145,-236
-110,-6,-92,2155,-2010,-113
-11,-28,83,-311,-2755,1447
4,82,-49,1487,-3571,1858
52,-8,60,-1221,-4697,5284
19,-26,-111,-5619,-2207,6226
118,45,-14,-7395,-1796,7748
114,-56,-37,-8123,1161,8415
-81,-80,-2,-6330,1415,7880
123,-58,73,2533,-1858,4249
56,53,-83,2195,-1129,5527
-42,-58,86,-3552,-2281,7871
-90,20,104,-3730,-4623,3867
127,-44,49,3882,-178,-2950
118,78,-96,-37,443,354
-96,30,32,1031,-2562,1119
113,-123,-121,2132,-364,-1947
49,-96,-65,-659,1611,-1617
19,99,-111,-683,1378,-1279
-4,44,125,-230,622,-1445
-19,73,107,-402,-932,-1113
36,101,52,-839,317,-679
63,112,32,-1002,720,-418
56,93,10,-651,644,-852
101,-125,18,-816,560,-572
90,-111,9,-821,582,-674
98,-86,5,-963,520,-614
106,-78,4,-508,122,-778
-119,-35,13,-906,498,-397
-103,-17,12,-778,553,-525
-103,-11,5,-440,525,-735
-97,14,9,-642,338,-795
-90,44,15,-1055,250,-762
-80,24,7,-620,577,-724
-79,41,24,-678,386,-693
-74,50,23,-461,356,-755
-61,61,30,-563,481,-760
-58,61,32,-424,409,-774
-57,66,33,-247,309,-794
-56,74,36,-352,352,-841
-47,107,40,-799,385,-590
-44,91,42,-534,384,-652
21,46,-35,-1697,4045,-6269
-44,49,-60,-400,-2194,-6976
-39,-103,25,393,-5572,-12519
-91,-110,-127,1268,-11725,-10872
92,87,-49,-4370,-3098,-1970
104,-31,96,-6791,1052,381
-110,-52,-62,-789,2489,-8578
-84,123,-90,-1450,6411,-9891
-44,65,108,118,11786,-14103
34,-124,125,-5713,6070,-498
3,108,-112,305,158,-1192
83,-106,-56,-178,-3008,2267
-10,-90,-97,2719,-4118,1557
-42,75,58,-661,-4446,3954
-125,62,6,-3190,-4910,5300
-9,-40,-87,-6424,-3401,6095
-81,112,-38,-9223,-906,7292
12,34,-96,-7092,689,7612
-96,88,97,-1515,482,6417
-72,53,86,493,-892,6098
102,29,120,-285,-1696,7192
34,49,102,-3524,-4685,7181
55,-93,16,-1294,-2516,2032
24,55,50,1706,1283,-2245
44,102,71,2733,405,-855
-19,45,-77,691,-2045,2280
-46,0,-27,-397,-2023,-84
31,5,111,690,2008,-3158
13,15,71,-521,2751,-2785
33,116,97,-1242,-517,-710
45,78,23,-610,-161,-442
65,82,1,-95,1002,-697
92,-121,11,-338,458,-872
-104,-118,8,-146,443,-753
-102,-119,19,-190,459,-947
-104,-111,26,-260,469,-917
-105,-103,19,-483,596,-869
-90,-90,20,-496,388,-762
-72,-71,33,-727,233,-580
-63,-42,41,-1076,147,-570
-40,-52,56,-526,302,-617
-43,-37,47,-355,515,-815
-41,8,60,-864,364,-632
-18,0,46,-546,467,-664
-18,32,48,-847,421,-681
-26,42,58,-901,330,-652
-21,51,56,-831,654,-729
-27,68,59,-697,395,-706
-29,80,61,-593,186,-673
-8,119,65,-929,539,-630
-73,88,-56,-2105,2785,-3897
-101,59,-14,-1597,1583,-6254
119,45,-45,-734,-738,-8810
-35,-90,-33,-540,-3168,-9459
-16,-77,-51,-1507,-4128,-7994
-58,-82,-80,-324,-1989,-8653
111,-63,-2,-3015,5488,-6454
74,103,-81,1300,8434,-11921
-42,7,99,-250,10285,-12324
92,-78,61,-8712,8802,2308
-39,18,31,3239,-1819,-1143
28,-120,-104,-342,-2227,242
21,18,92,1684,-3167,563
22,46,126,464,-5240,2386
-123,-84,32,-5253,-4026,4884
19,105,18,-6373,-2531,4994
93,23,-105,-10246,-1145,6095
81,61,4,-10455,1753,6725
107,-66,67,-5481,-210,5259
-2,113,106,2707,-3375,4947
37,72,11,-2438,-2650,6099
-55,84,66,-3111,-5390,5994
95,-14,78,654,-2983,1850
51,39,59,-2050,232,-756
-4,-17,122,2741,-1258,-1389
68,-93,57,-961,-2354,3313
-75,54,-41,-541,-1018,-1482
31,84,109,1532,3351,-3844
23,-90,87,-870,2018,-2457
13,-65,88,-524,-665,-251
28,-61,60,-1003,-285,92
61,-70,29,-333,550,-601
115,-49,15,-418,959,-1141
-123,-29,38,-966,793,-1038
122,-52,29,-858,813,-1035
117,-22,32,-1150,380,-686
127,-17,35,-1032,268,-455
-115,16,53,-991,299,-493
-92,37,64,-883,289,-580
-88,44,68,-553,328,-747
-79,73,63,-457,474,-764
-81,79,58,-443,476,-813
-80,92,64,-603,449,-707
-77,109,75,-794,324,-620
-74,87,77,-296,330,-786
-60,123,92,-829,540,-672
-67,104,87,-380,441,-831
-65,109,84,-448,450,-785
-63,118,90,-552,384,-706
-65,122,93,-477,329,-693
5,106,100,-1549,2421,-4822
-40,58,-50,473,-480,-8696
125,-82,-59,1608,-5566,-12719
8,0,92,317,-7570,-8289
117,-102,62,-4079,-3457,-3736
-13,-60,-46,-3758,809,-3882
-106,48,21,-1684,3491,-7519
-66,-56,6,1625,5073,-13757
-39,72,29,-4457,14197,-14377
7,-82,58,-5949,-2228,7084
-97,-7,125,3997,-1687,-1399
87,-65,107,-370,-2104,1521
-33,99,-27,2345,-2453,198
27,-17,-99,-2779,-3719,5190
44,116,84,-2976,-2124,4133
70,-26,24,-9220,-1197,6306
88,83,-107,-8317,-660,6930
7,54,-12,-5577,394,8430
-81,79,32,-88,-985,6739
-96,-57,37,-328,18,4999
-97,110,-62,-1767,-848,4614
109,105,-24,-3838,-1715,4323
-118,-36,-87,-524,-1600,680
-95,68,-105,2664,-404,-1364
6,99,43,-955,-2565,2668
32,-91,-50,105,-1459,169
-102,88,-110,873,323,-914
118,-97,-113,-557,1105,-1168
64,88,106,-137,1136,-1760
59,69,88,273,463,-1896
87,120,73,-623,373,-584
90,117,44,-933,544,-293
98,106,11,-470,693,-1010
-106,-114,18,-835,835,-898
-79,-79,16,-1149,701,-917
-75,-82,18,-624,546,-917
-71,-42,36,-865,345,-706
-76,-36,36,-685,170,-544
-69,-5,47,-986,122,-520
-51,1,48,-642,294,-460
-45,32,57,-953,300,-560
-41,30,61,-420,361,-755
-34,55,59,-580,483,-714
-26,88,68,-1068,509,-607
-30,67,61,-611,610,-773
-17,125,83,-1437,492,-481
-26,71,72,-129,349,-802
-13,123,90,-716,502,-738
-15,119,90,-703,377,-707
-16,113,90,-387,358,-756
-7,87,97,707,-3189,-10468
-71,-5,-103,-539,-4862,-10116
-123,69,7,-1334,-3213,-9077
-13,-27,-2,-3292,1513,-6651
6,94,-74,7,4395,-11000
-55,104,11,-177,8478,-13672
118,46,-7,-6765,4767,4327
82,-100,-45,1939,-1863,61
51,54,30,305,-2204,-211
22,-15,65,1145,-2403,807
91,115,67,179,-2838,1822
-7,-83,43,-4440,-1508,5137
124,27,28,-5732,-1968,5434
1,78,105,-8155,880,7243
20,-122,77,-9068,613,8442
-80,-68,112,-4449,448,7706
29,98,63,-2356,-1760,4771
-41,-105,109,675,-2532,2720
106,-94,-113,-1805,-3065,4133
-91,85,-91,-3622,-1827,1553
55,64,54,2799,-1144,-821
-67,-93,-26,1236,-485,801
-121,-124,-33,-1166,-1142,1116
-61,-88,-124,1702,-611,-1346
-106,-3,-79,-843,879,-1058
89,-93,101,-782,1743,-1522
76,116,82,222,886,-1414
85,-112,65,59,483,-899
105,-89,46,-728,405,-716
-101,-66,29,-820,502,-467
-93,-86,29,-433,420,-820
-75,-47,39,-908,486,-765
-77,-61,35,-471,424,-860
-64,-30,48,-851,444,-674
-69,-21,44,-682,334,-687
-61,1,47,-604,187,-630
-59,8,51,-395,86,-677
-30,64,58,-1087,476,-400
-39,35,48,-342,333,-732
-25,90,61,-960,449,-633
-32,72,61,-568,435,-845
-39,66,55,-258,344,-933
-27,121,76,-1161,345,-618
-28,91,71,-550,389,-785
-21,114,82,-630,369,-717
-20,119,87,-573,363,-717
-17,127,91,-632,419,-685
-18,-119,96,-564,360,-701
-20,-128,96,-290,320,-754
-9,-89,104,-868,493,-529
-51,44,-120,195,-884,-6994
28,-97,127,1396,-3404,-9680
12,101,-26,-102,-4000,-8699
88,-72,46,-668,-2767,-8260
44,70,29,-2577,1039,-6697
-99,96,-21,-1249,6214,-9806
-44,-122,32,2266,7914,-14886
31,19,-2,-6080,1781,7232
-110,85,74,2096,-2791,634
25,88,-54,1058,-2990,-672
23,-112,13,-2388,-2129,3807
67,122,-67,-3510,-1077,3769
70,5,76,-9672,1118,6709
40,-116,26,-9659,380,7349
-36,82,80,-7219,630,7008
21,-68,-45,-3915,-1127,4930
-83,105,21,106,-2657,2880
-8,-128,-17,-1021,-3295,3791
-44,-124,-83,-1157,-3111,3492
-73,-54,-115,-953,-1931,645
105,15,-33,252,-1824,539
-42,127,-82,1484,-994,348
-103,49,-51,507,-1884,1433
-68,0,-54,480,-1077,-1159
70,105,124,-160,2729,-3155
103,93,89,-815,3048,-2414
61,53,84,310,528,-1144
82,124,80,-652,173,-202
111,-122,59,-688,384,-413
-92,-81,42,-711,378,-418
-68,-59,50,-976,268,-558
-57,-60,44,-723,628,-721
-61,-60,33,-406,641,-846
-63,-25,38,-690,372,-706
-59,-13,39,-714,327,-673
-51,4,46,-630,279,-697
-39,20,54,-702,232,-671
-36,34,60,-685,227,-750
-25,51,68,-730,378,-755
-28,61,74,-765,343,-764
-30,66,79,-636,356,-820
-36,62,83,-276,203,-881
-28,88,88,-672,331,-729
-25,96,91,-781,495,-674
-24,103,93,-639,414,-668
-20,114,94,-625,420,-670
-16,-124,100,-764,474,-642
-18,-125,100,-594,447,-696
-15,-111,105,-596,445,-658
-15,-101,109,-682,362,-592
71,17,-36,502,-256,-8568
-101,-116,-43,871,-2802,-10524
-27,-3,26,1065,-5568,-8535
8,99,-52,787,-5946,-6942
41,69,-101,-913,-543,-5394
-72,-49,121,-1827,3295,-4650
50,-27,49,60,7289,-8844
-115,-97,-86,-555,10176,-11024
-56,35,-99,-4644,3199,2779
-2,18,62,1752,-2707,-62
83,-12,101,1199,-3396,8
-81,109,18,-165,-3579,2568
-78,-69,-30,-3298,-1728,3567
-95,41,99,-6209,-923,4832
-5,-95,59,-9536,-316,5677
84,-69,54,-10971,-77,7134
-93,-96,118,-4913,-1011,7216
-3,-113,68,1442,-2034,4015
28,-10,-55,-1231,-788,4124
19,-103,-66,-1739,-3428,5478
98,38,119,-3353,-5163,4943
98,-13,52,1699,-1743,-1133
-127,-55,81,-153,825,8
-82,-39,-77,590,-2174,941
-66,-87,-121,1762,-1123,-623
82,-41,-115,-712,1180,-2221
35,78,90,-477,2253,-2804
57,69,82,-624,1625,-2225
89,110,68,-145,1026,-696
78,-128,56,-573,555,-645
120,-113,37,-807,609,-698
-89,-93,20,-703,548,-765
-71,-80,21,-858,627,-791
-58,-58,18,-812,630,-742
-65,-53,18,-514,497,-745
-61,-17,23,-837,400,-550
-60,8,33,-893,194,-506
-49,11,38,-546,116,-499
-33,46,56,-815,197,-440
-33,44,55,-516,150,-601
-25,65,63,-625,229,-635
-24,80,70,-722,308,-678
-27,85,72,-700,350,-720
-26,92,78,-718,361,-738
-26,97,81,-566,409,-791
-24,110,86,-638,404,-763
-20,121,87,-714,521,-774
-21,119,86,-573,457,-810
-17,-121,91,-697,465,-713
-21,-120,93,-537,414,-711
24,104,25,-1216,1916,-5157
6,80,-3,-806,-8,-8726
-45,75,113,203,-3687,-10179
67,6,20,-1671,-3761,-6123
115,17,-83,-524,-1791,-7425
-95,-121,17,-542,970,-7045
-44,48,-17,-1538,6734,-7058
38,37,65,2308,9267,-10080
-84,112,10,-3861,7032,-1171
-50,97,105,-1247,177,2197
-106,-48,14,1663,-3566,-1723
62,-110,-41,-525,-3020,1146
-35,112,-29,-1069,-3003,1879
88,-28,-88,-3842,-2081,3577
94,-62,37,-5129,-970,4826
-2,88,-59,-6781,339,6543
-117,18,-42,-5917,2402,6728
70,-79,53,-3716,1931,6110
-71,-44,52,-794,1181,4610
-51,-98,-28,-630,-1966,6056
95,81,-128,-4861,-4751,6568
113,-22,-38,1124,-2095,-486
-24,-66,-81,327,-507,619
99,-13,69,-1470,-2084,2509
45,4,-9,1041,-1554,357
59,-82,-31,158,1092,-3310
100,48,121,-308,3359,-2808
55,50,75,-810,1623,-1601
48,106,78,-775,-382,-260
96,101,46,-268,160,-309
-96,-108,23,-565,683,-619
-73,-78,35,-739,534,-714
-68,-90,15,-669,836,-1141
-63,-85,10,-728,921,-1099
-69,-76,14,-622,448,-894
-59,-58,22,-248,-3,-745
-46,-8,29,-894,175,-522
-37,3,34,-812,288,-508
-37,13,39,-529,304,-609
-28,36,49,-685,331,-574
-25,47,48,-547,297,-606
-24,62,51,-507,239,-689
-23,58,56,-312,221,-795
-13,98,65,-906,399,-625
-19,69,60,-329,433,-779
-14,106,68,-756,438,-724
-21,96,65,-471,339,-810
-23,87,72,-208,233,-854
-5,-127,75,-728,363,-574
-8,123,70,-576,444,-715
-124,-104,45,983,3229,-7702
-4,55,13,357,-1758,-10032
43,-111,3,1741,-5490,-11643
-113,18,66,1017,-8450,-7996
-57,-71,53,-2329,-4012,-3278
46,-35,-76,-2433,1573,-2958
-53,65,42,-658,2044,-3573
-107,-124,46,214,8803,-8045
-53,-94,-69,605,9005,-9779
-3,125,99,-1602,140,335
-6,118,-92,-1408,-2429,2920
-39,-17,83,1188,-3441,-1039
-26,101,-116,-1006,-3657,3248
-3,-37,-128,-4472,-1706,4113
44,-47,61,-6320,-228,5196
-39,113,-108,-7704,186,6930
29,15,-98,-6094,1323,6670
46,0,-11,-3712,-74,6058
-105,-37,-25,-1626,-1597,4996
-72,9,-45,-487,-3784,4689
-41,-117,-44,-1409,-3096,3379
55,-16,79,21,-3533,1256
-85,-63,99,1688,-59,-1456
-78,-15,108,-1816,1163,305
85,-102,-4,267,-1981,1734
-43,-110,123,1936,-1119,-102
118,-45,-126,-518,452,-1680
108,-107,96,-882,1991,-1669
77,95,69,-189,1445,-1627
73,119,64,-189,702,-987
93,-103,61,-426,213,-528
-123,-74,40,-843,480,-609
-87,-83,25,-528,627,-884
-72,-54,29,-886,557,-850
-76,-60,25,-681,435,-889
-65,-39,36,-817,425,-649
-65,-36,33,-567,348,-654
-60,-5,30,-667,370,-719
-52,20,40,-967,167,-671
-46,36,65,-884,262,-583
-45,34,71,-495,508,-762
-38,55,73,-592,432,-562
-30,65,71,-452,321,-617
-21,94,65,-690,426,-704
-23,84,68,-366,486,-768
-24,100,63,-574,498,-781
-24,99,68,-450,386,-690
-28,105,71,-467,323,-756
-23,106,84,-428,328,-670
-29,111,100,-510,272,-625
-119,47,-4,-355,-930,-9003
-25,-69,6,277,-5103,-11901
-101,-2,-66,20,-8484,-7604
-99,-107,-90,-2033,-4913,-4810
33,-14,70,-3811,2988,-3229
-86,-75,56,-594,3278,-5352
7,22,-17,390,9431,-11420
104,-90,52,-1485,8970,-8497
-12,-7,125,-3361,381,3407
-121,26,-96,1134,-3359,507
-2,109,-53,1855,-4157,-326
81,122,-20,-1665,-3417,4892
100,-52,-74,-5164,-1273,4938
15,-87,-81,-8930,163,7721
40,-121,-113,-5304,282,5884
99,39,40,-5044,1286,6216
46,103,16,-696,795,4203
34,-63,-61,470,-52,3941
-30,-108,71,-1535,-2139,5620
98,-127,-75,-2605,-2048,4538
116,-92,-122,442,-1642,707
-69,-120,-82,1113,-507,63
-5,-123,19,-1969,-2351,2504
-38,-122,127,526,-927,-1029
-125,92,-102,229,625,-1207
99,-85,-109,-1281,897,-437
48,91,79,-29,782,-1114
76,121,74,-321,705,-990
85,-123,56,-457,650,-715
97,-116,48,-549,398,-683
116,-126,36,-289,272,-734
-106,-113,27,-627,695,-795
-102,112,13,95,721,-999
-105,-89,10,-693,537,-782
-97,-60,28,-1018,341,-526
-84,-68,23,-516,342,-586
-65,-22,34,-843,392,-527
-46,-19,28,-509,485,-722
-40,-11,25,-392,524,-896
-31,14,27,-786,515,-765
-43,7,35,-525,358,-765
-47,19,43,-462,249,-727
-33,36,54,-695,317,-630
-22,46,58,-588,327,-671
-17,50,56,-408,327,-698
-16,77,68,-668,253,-630
-20,70,68,-492,402,-719
-16,92,83,-756,311,-603
-17,76,81,-290,380,-701
-15,111,79,-622,420,-697
-48,97,0,1101,-1487,-7084
74,-111,37,-367,-3368,-9877
26,-100,114,-1247,-4960,-8861
-10,-73,64,-1293,-7153,-4902
-69,10,-14,-2072,-5524,-2379
51,-29,47,-1482,1079,-4949
109,-97,34,-1714,7739,-6381
-4,-79,117,1544,11943,-13477
-86,115,16,-2084,4472,-2801
-47,-76,-100,-1614,-541,2468
-116,-95,-8,1029,-2688,185
-22,99,112,-738,-536,-262
126,85,-65,-1405,-3678,2699
48,20,115,-3208,-2528,3586
98,-28,106,-6732,-1364,6464
-94,-26,-67,-6691,606,7372
123,-47,16,-5015,1785,7631
-8,67,80,-1193,1776,6108
-95,97,-55,-90,2042,3670
-2,30,-35,-1347,-1938,5212
76,-120,12,-4056,-2701,4502
-5,-73,-116,2229,-379,-1272
-53,-115,-91,2855,11,-605
24,-36,-34,-1968,-2271,3048
14,-127,-58,1349,-371,-201
-77,-51,-4,-687,-305,-81
96,-124,-86,-1241,630,-722
84,58,106,-506,1020,-1374
101,91,106,-781,620,-862
114,101,81,-648,546,-696
126,108,66,-430,579,-758
-108,-102,60,-989,645,-655
-84,-116,48,-568,645,-834
-52,-111,26,-436,880,-937
-44,-87,10,-581,584,-862
-37,-70,18,-773,369,-554
-53,-42,34,-784,271,-563
-52,-37,41,-570,376,-677
-31,-6,46,-524,59,-582
-5,24,65,-665,145,-589
-14,27,83,-666,258,-647
-19,35,86,-528,371,-696
-15,50,81,-664,401,-668
-12,56,81,-645,325,-635
0,67,75,-504,438,-719
0,78,75,-506,391,-779
-5,85,84,-529,382,-718
-14,90,85,-649,304,-684
-6,91,93,-550,382,-654
0,108,94,-512,395,-681
89,37,-23,533,-1983,-9215
-65,-30,-37,1561,-5308,-11057
34,-41,55,-1779,-4256,-6886
-39,127,-81,-2960,-727,-5120
-88,100,20,-2356,510,-4742
2,117,-2,-1149,6196,-7249
-34,43,94,887,11336,-11613
6,-126,12,-5141,14504,-7872
19,71,112,-2217,-2261,3299
-47,-122,43,1168,-778,-942
115,121,-118,751,-2533,53
24,-89,-77,520,-3268,618
-68,-110,96,-1901,-3194,2945
-47,-77,-61,-3812,-3442,3298
-33,-101,63,-5092,-3096,3502
63,-120,126,-8851,-2273,4954
-75,-112,113,-4437,-641,4713
-119,95,26,-523,-21,4129
-21,42,104,4028,370,3531
2,78,-74,408,4618,5026
72,-117,122,-3994,2349,7477
-120,46,-45,-5805,-4487,7865
-61,28,-124,4758,-4798,358
23,-60,38,-785,1461,707
112,-10,62,-145,328,401
96,-63,18,-897,-1773,2086
68,67,-119,150,-366,-1369
38,-11,117,530,2038,-2706
92,3,70,-777,3127,-2523
102,-35,38,-32,1550,-2122
-122,3,76,14,41,-1217
-70,71,45,-1008,161,-431
-61,48,19,-747,603,-783
-50,59,20,-607,414,-942
-15,120,34,-1127,330,-531
-36,90,19,7,95,-937
-21,-95,34,-748,276,-765
-16,-75,23,-876,360,-504
-20,-78,12,-479,387,-616
-6,-25,19,-851,257,-480
0,-30,20,-532,191,-570
8,3,27,-700,306,-649
17,4,25,-525,381,-709
15,24,28,-657,391,-745
13,41,34,-730,365,-711
15,40,36,-584,360,-748
21,63,48,-743,405,-681
24,67,48,-546,522,-802
27,92,48,-739,549,-743
29,99,37,-644,447,-771
51,-58,-37,104,817,-7840
-120,-124,-109,1995,-2721,-9780
88,-68,-74,1276,-4407,-8892
-13,-24,89,-146,-3513,-5528
110,87,-63,-1466,-2445,-3927
-127,-1,40,-2515,1047,-3227
-58,34,35,-1114,3343,-4682
107,35,-51,-1001,11160,-10784
-86,-95,-12,76,9509,-10121
-41,-25,75,-4152,6,5232
-110,-81,117,2498,-3050,-1349
-29,69,-26,83,-2086,789
3,117,20,-353,-3381,2021
-50,-111,-80,-2317,-1788,2990
44,37,-36,-5608,-1863,4469
4,-120,8,-4178,-932,3913
-93,113,-80,-6996,-1395,5143
-89,24,-117,-3909,392,5723
102,2,29,-1903,881,5296
-106,20,55,-650,1075,4880
17,13,-54,442,177,4193
-78,11,109,587,-3329,4354
104,-87,119,255,-3818,5085
-18,-43,-11,-1377,-1496,3600
-80,90,94,2158,-805,-2488
59,-12,73,2508,760,-911
-15,20,-22,-3033,-171,1731
38,-43,99,1534,-796,-890
42,28,-113,92,501,-1277
56,81,95,-1657,1462,-811
33,-24,46,-245,736,-1179
45,42,41,-829,601,-781
40,47,16,-883,765,-743
77,54,-9,-664,569,-635
-116,102,-34,-857,434,-522
-97,120,-31,-882,364,-627
-94,-114,-15,-991,480,-703
-107,-111,-17,-749,848,-896
-104,-98,-31,-443,652,-1002
-79,-62,-46,-684,599,-885
-75,-42,-54,-728,376,-739
-79,-23,-21,-624,-347,-425
-36,-5,16,-717,-20,-375
-27,0,33,-534,508,-785
-44,-5,8,-184,735,-1163
-48,12,-11,-497,662,-967
-60,39,-15,-751,146,-557
-64,44,-2,-690,-40,-428
-50,48,33,-410,-75,-379
-2,63,37,-243,267,-560
33,-125,16,-1126,-609,-6985
95,0,47,33,-3639,-10368
82,55,-89,565,-6266,-8382
12,-112,127,-569,-5763,-4879
-126,47,99,-2674,933,-4200
-107,115,124,-2368,3280,-3131
80,78,-104,72,5548,-7590
95,-100,-38,-669,10743,-10004
-100,-99,110,-3191,6906,-3529
121,42,-75,-965,-576,2510
-82,-113,35,1349,-3403,-895
-15,2,64,785,-3088,-274
-121,59,-100,-1142,-4471,3545
94,23,126,-2829,-3261,4239
-54,-18,61,-6361,-903,5815
-8,-45,77,-7529,71,5142
-82,-17,120,-6838,483,5725
70,-25,-38,-5417,1255,5872
44,45,16,-972,322,3768
86,99,23,953,-818,3763
-90,-34,60,-2138,-3700,6017
-121,0,73,-1497,-3818,3265
-105,-16,20,2827,-3555,1370
-65,-51,-81,1507,-1237,688
-78,78,-6,-1259,-1531,2320
120,87,119,861,-666,-600
105,90,-91,633,234,-996
80,-128,-84,-399,624,-673
1,28,110,458,859,-1580
34,53,94,-426,1193,-1476
61,45,77,-530,828,-977
63,77,82,-873,495,-619
92,72,59,-529,505,-810
115,94,49,-582,619,-906
-110,121,45,-863,778,-864
-89,120,16,-555,803,-1036
-73,-112,29,-658,396,-813
-65,-77,23,-853,393,-793
-56,-75,25,-734,562,-995
-38,-61,36,-706,493,-821
-37,-30,41,-704,275,-697
-36,-12,46,-664,262,-679
-30,10,60,-688,200,-632
-24,20,72,-580,202,-594
-13,40,72,-574,308,-653
-1,46,80,-593,371,-592
12,55,85,-591,374,-552
10,53,81,-247,637,-811
20,58,83,-264,595,-725
4,56,73,-20,627,-781
-38,-51,-15,-598,-2860,-6904
29,54,-48,-659,-4721,-8783
-70,41,-107,-216,-6804,-6693
-122,-34,108,-2497,-4245,-3179
29,-70,52,-3183,-746,-3043
-5,71,94,-2234,1673,-3611
-36,-119,61,-680,4967,-6777
34,72,63,234,9041,-9806
-39,82,-97,-2780,10606,-7650
71,41,-72,363,-1130,1452
-106,18,104,215,-2143,411
-43,48,-56,415,-2388,807
23,114,-63,-762,-3767,2010
14,79,-120,-2130,-3462,3533
-21,-23,36,-6464,-993,4905
89,-118,61,-6940,-1295,4761
19,113,49,-10452,925,5565
103,18,35,-8032,1417,5996
-59,12,-35,-1637,-479,4243
-96,-118,81,-52,-2488,4720
43,11,-75,-1570,-5070,5299
118,-114,-99,-1788,-3359,3610
-44,74,-8,-751,-850,-317
7,71,2,3549,-533,-991
4,-19,-18,-3371,-2613,3035
31,55,-60,3452,-1167,-412
-28,27,25,-164,-411,-118
78,-52,-27,-665,473,-1321
84,85,-96,164,1389,-1646
54,-103,-110,-1109,-276,-267
18,74,60,502,211,-643
65,-115,60,-556,971,-882
117,-109,57,-656,775,-699
-119,117,50,-219,681,-891
-95,-117,52,-533,744,-711
-90,-112,55,-497,533,-657
-96,-106,60,-413,407,-660
-90,-83,81,-705,418,-491
-91,-72,81,-628,389,-550
-60,-60,93,-564,391,-499
-50,-46,94,-603,559,-633
-20,-47,89,-295,452,-680
-42,-19,101,-617,379,-668
-41,-19,108,-591,397,-682
-24,-7,125,-539,234,-546
-18,0,-128,-477,464,-747
-16,-4,-125,-240,585,-872
-18,11,-125,-556,503,-737
-19,8,127,-414,431,-705
-31,23,-122,-463,300,-631
-125,63,-50,-219,-2548,-6938
-119,-67,-74,452,-4986,-8369
-39,-81,-108,1034,-7456,-7170
3,-23,101,-2079,-4085,-3926
31,-113,28,-3930,115,-2348
-8,26,102,-1746,2714,-4511
46,84,89,-542,8328,-10780
44,60,15,-749,10411,-10918
-61,40,-44,-2525,1073,3185
-76,43,-78,223,-1862,1312
-40,125,-25,716,-2569,-533
60,-106,-12,-1119,-2151,1585
-12,-62,97,-2553,-2227,3298
-94,74,-73,-6042,-971,4459
55,-121,99,-8419,1112,4809
-84,-20,-112,-6206,609,4732
121,100,-69,-6198,928,5753
102,-78,-6,-2400,657,4551
13,-42,38,-1314,-923,4385
109,83,-15,-1145,-2902,4140
19,-56,-54,3748,-6078,4407
-73,41,-41,-2446,-1762,4172
-125,-123,31,133,70,6
123,-37,40,1591,299,-871
-109,-23,20,-1187,-805,2133
122,-88,-35,-978,-1703,4
17,-16,-95,409,1349,-2212
54,100,-120,-1397,2350,-1452
48,52,98,-176,691,-1273
57,65,84,150,482,-848
74,104,74,-940,736,-812
-123,105,60,-728,430,-727
-102,102,74,-367,404,-859
-103,125,69,-597,1076,-1133
-83,112,34,-360,981,-1348
-68,-93,71,-705,240,-527
-85,-76,72,-828,433,-615
-54,-42,77,-821,570,-672
-28,-34,69,-451,344,-648
-9,14,83,-1043,234,-581
-19,7,95,-798,450,-637
-36,14,88,-686,556,-756
-30,35,96,-620,59,-516
-3,26,105,-360,301,-593
-26,46,109,-526,576,-900
-39,26,111,-94,585,-908
-23,33,90,-109,607,-856
-3,71,89,-451,248,-601
-15,73,94,-249,82,-677
-17,92,117,-601,26,-614
20,92,53,224,-1854,-7711
106,-96,13,1030,-5472,-9781
-28,48,-95,382,-6870,-7785
-46,-125,-62,-776,-5801,-4421
-47,13,114,-2624,140,-4139
-106,-5,-49,-1845,4081,-5314
-10,79,-53,390,9409,-12279
-62,111,-13,-1721,9132,-7425
55,59,77,-3824,3039,2692
90,-37,36,1391,-4634,542
-14,50,-120,365,-3196,380
16,73,-28,-2247,-3526,3847
104,118,-114,-4759,-2291,4387
14,91,81,-9037,-1327,6516
40,-58,11,-8100,-358,5503
32,103,-106,-3973,271,4709
97,99,58,-1174,1267,4360
-57,-77,82,566,209,4457
-30,-17,-100,2611,-1148,4494
36,-113,-36,-3943,-506,4847
74,20,90,-4886,-2938,3937
85,12,89,9421,-103,-2593
-33,127,111,-5436,-1,3291
-70,79,-81,925,-1465,1209
-86,113,-86,1384,-1520,325
119,-58,-70,-1593,-193,-452
83,109,112,-1011,1268,-1171
75,71,84,20,1479,-1832
100,87,61,-69,1275,-1723
-109,105,56,-511,888,-1223
-97,107,63,-653,317,-1011
-96,110,65,-790,378,-882
-77,-127,87,-1093,158,-583
-44,-114,112,-544,151,-390
-49,-110,40,1,1005,-1172
-51,-45,68,-919,280,-742
-39,-20,102,-939,-204,-204
-39,-51,58,64,564,-826
-27,10,81,-710,496,-557
-25,16,87,-616,239,-522
-17,0,69,-204,597,-872
-9,22,71,-475,492,-776
-18,44,82,-898,53,-539
-22,48,123,-857,59,-414
-4,22,96,-133,907,-953
-5,41,60,-58,435,-909
-13,101,118,-1170,-691,-40
-4,81,-111,-749,-62,-230
-2,62,117,-187,1043,-1075
-3,90,113,-308,775,-1027
-98,33,-19,1047,-3760,-8295
-107,-1,28,2761,-8246,-11119
-56,-43,123,1697,-11172,-6219
-81,-69,45,-2400,-4348,-1223
65,-75,-61,-2489,1642,-1783
91,35,105,-876,4270,-4213
39,-123,-69,253,5915,-8459
44,-92,57,-656,8263,-8579
71,-101,94,-3464,2530,2530
-82,84,93,-569,258,370
-93,0,70,644,-2048,-1445
58,69,32,-892,-1630,545
4,-10,-34,-847,-3753,2518
-109,-63,-2,-4275,-1001,3930
58,121,120,-4398,7,4028
-13,-79,-62,-7624,732,6715
64,-96,-100,-3713,1371,6066
112,-74,-10,-2108,3458,5601
-26,1,-94,-1551,2575,5065
77,108,107,-1848,736,4678
80,97,-98,-3611,-1510,3864
118,65,-72,992,-2823,1324
-10,32,-76,1650,-480,800
14,75,-2,-2172,-1627,2335
-10,-93,-73,-618,-1102,-696
126,52,-90,139,988,-1932
101,96,-126,-890,1762,-1669
85,55,89,93,951,-1327
109,80,81,194,416,-787
-123,126,78,-693,373,-564
-83,110,58,-630,402,-873
-60,115,61,-686,709,-877
-60,111,50,-485,780,-998
-56,-113,47,-867,678,-878
-45,-104,54,-689,506,-667
-32,-70,55,-650,435,-555
-32,-60,52,-324,349,-701
10,-32,76,-642,326,-484
-14,-26,70,-354,443,-742
0,1,88,-689,433,-632
-7,15,96,-748,360,-554
-20,26,90,-549,618,-711
-10,47,90,-494,339,-579
0,58,86,-257,397,-722
31,51,70,-64,463,-913
52,82,102,-889,154,-638
28,44,103,-320,624,-990
5,27,102,137,788,-1138
8,39,75,91,541,-1033
-3,70,76,-515,95,-715
65,-95,-111,408,-1910,-6616
-9,98,35,1386,-4717,-9370
115,-69,3,2393,-8324,-9741
-120,63,112,-1291,-5523,-4011
-105,117,122,-3605,-458,-3232
19,18,-53,-1755,704,-4782
18,-19,96,-1070,4863,-7225
97,-50,33,4,8190,-10613
-115,-64,81,-352,9087,-9663
43,-57,-45,-4595,546,5073
104,81,-125,1795,-2333,-824
32,-48,-10,481,-2593,841
12,55,103,-1645,-3218,3297
68,95,-33,-2139,-3326,2865
-86,-111,-48,-5033,-844,3582
37,-63,-83,-5907,-1279,4780
-59,-86,-84,-5713,267,5107
111,-48,-38,-4954,1979,6077
54,-76,-73,-2673,2206,6115
-90,-19,-5,-1657,632,5979
-80,-78,118,-2328,87,6105
-76,16,-68,-4120,-3172,3964
83,115,3,2196,-4507,1622
-87,83,-67,2950,-1151,48
-108,-38,-109,-147,111,957
-47,-110,-88,-91,-760,230
123,88,-87,694,-546,-744
61,126,-96,-721,881,-1158
41,52,101,-268,1510,-1771
41,48,111,-177,829,-1472
72,69,113,-433,580,-840
98,94,84,-1083,760,-898
127,54,53,-314,829,-1186
-87,116,57,-1050,910,-1007
-90,88,39,-274,785,-1143
-73,-127,46,-392,597,-1049
-57,-87,48,-780,549,-751
-54,-86,50,-462,337,-720
-42,-56,65,-694,314,-543
-40,-42,69,-573,220,-590
-19,-19,89,-691,278,-492
-11,-27,82,-182,260,-634
-4,1,86,-411,299,-626
5,11,88,-610,499,-539
11,-2,84,-255,456,-670
8,10,91,-347,515,-704
2,20,90,-436,596,-710
-7,9,82,-147,429,-749
-6,31,91,-401,185,-560
0,42,99,-498,195,-641
98,11,-97,1102,-2206,-6443
-111,75,-28,2721,-5275,-9318
123,-107,-34,2967,-8340,-8499
70,1,40,248,-7381,-3683
-126,-123,-79,-3777,-895,-1684
-72,-99,-59,-2833,1386,-2581
-110,-68,-72,-463,2884,-4721
-55,54,-128,181,8160,-9403
-73,-57,-21,-671,11179,-10227
-20,90,77,-1369,3460,-2276
-44,42,-94,-1595,-1018,2036
-82,-88,-80,1049,-2685,165
-106,67,71,-571,-2252,949
99,79,-61,-2504,-3354,3407
-111,13,-106,-5484,-2284,4279
28,-77,108,-6726,-585,3214
-39,-50,-100,-6192,-2096,4245
106,6,-110,-5943,636,4513
109,-77,-55,-1909,1460,3947
-37,80,5,-1115,1408,4672
94,16,14,-2820,-293,5755
-115,-90,-55,-832,531,3803
126,47,6,-957,-1898,3370
-75,-46,-15,609,-1558,2102
-114,-44,14,1544,-667,550
72,-36,-24,372,-1095,1576
-40,-19,-12,-1616,-1119,827
100,-49,109,1733,37,-920
-105,-119,-63,-1170,191,340
91,77,112,-139,372,-533
89,59,77,231,783,-1250
107,81,75,-469,806,-1160
125,82,76,-547,496,-889
-112,82,76,-508,389,-930
-103,92,73,-518,648,-1213
-45,80,9,-355,1073,-1672
-66,-116,63,-1359,167,-923
-81,-84,113,-1499,-387,-178
-74,-96,98,-814,285,-579
-40,-68,91,-348,687,-672
0,0,69,-790,648,-699
-3,11,48,-948,675,-939
-20,32,66,-1124,517,-789
-26,38,73,-816,626,-792
-17,46,67,-566,528,-771
-5,99,81,-953,276,-592
3,89,85,-587,313,-779
7,98,100,-553,476,-819
4,94,107,-339,521,-890
7,-125,119,-948,370,-731
-64,-26,59,630,-4146,-7168
126,-99,-10,-309,-5165,-8645
-52,111,-86,-414,-7149,-7082
-33,0,-74,-2668,-4103,-3187
125,6,94,-4167,-278,-1924
-35,107,110,-2576,1562,-4080
-2,-74,97,-703,4396,-7421
-39,-86,-88,-875,10263,-11167
57,7,45,-1715,9141,-8425
-23,72,-117,-1767,-463,3170
100,53,124,136,-1524,548
-41,-89,-67,1137,-2638,67
-76,12,11,-1197,-3617,3682
52,-97,43,-3637,-3807,4081
-80,-115,126,-5146,-1618,4980
-36,43,-66,-8014,-2124,6636
-104,-110,-124,-5716,386,6147
33,-92,5,-3766,868,4855
-128,27,77,610,293,3446
93,-91,-2,1551,-175,4663
10,-128,-41,-3500,-2876,7225
105,-128,-82,-2788,-4015,4572
-119,85,-106,2920,-2070,-649
39,-114,2,179,-1191,991
-69,123,-117,2215,-899,-232
-27,58,-38,-720,-588,839
37,112,116,550,299,-1310
25,64,120,818,895,-1555
18,122,-124,-687,744,-820
0,42,79,32,90,-897
28,52,83,-121,87,-681
38,40,58,-164,401,-909
49,54,47,-305,484,-924
49,25,58,112,545,-1105
77,81,55,-1122,735,-655
95,64,22,-586,748,-659
95,107,-23,-683,864,-880
110,127,-32,-553,463,-775
-90,-102,-27,-889,397,-574
-47,-87,-1,-526,158,-389
-69,-67,5,-453,382,-898
-52,-47,25,-699,609,-865
-52,-44,27,-631,508,-831
-56,-33,27,-527,386,-796
-54,-17,37,-574,384,-773
-29,3,42,-663,456,-684
-31,28,60,-901,278,-636
-27,20,53,-441,568,-882
-26,42,51,-530,569,-851
-9,64,46,-608,454,-729
-78,-88,-5,698,-4147,-9451
-122,0,27,610,-6871,-8982
11,1,38,-466,-6613,-4451
18,88,-127,-3146,-2065,-2196
-65,-95,-36,-2447,1503,-3668
76,-11,-25,-993,4558,-5816
-123,-84,23,387,9765,-11645
31,-50,54,-964,12210,-12879
79,-90,-120,-2858,1903,-184
-22,-71,-66,172,-838,246
-14,-41,-32,320,-1996,1215
-107,-32,-112,809,-3090,625
94,55,112,-1745,-4864,4567
6,62,43,-4647,-2873,4135
-101,-91,32,-8779,-3665,4906
-22,-48,-48,-8859,-3865,5252
121,-5,-77,-7800,-1140,5252
57,-115,-116,-2403,-1801,5137
-35,40,124,449,-1521,4369
119,77,-27,1416,-1247,3666
-44,20,43,87,-1823,5531
-5,-28,55,-5536,-4492,7261
-44,98,15,-287,-3570,-863
-52,49,45,3963,-821,-2375
70,-108,13,-909,-1087,1600
46,-107,56,-1566,-2265,1171
48,118,-61,1822,454,-2710
44,-61,-72,85,2593,-2168
1,-102,-99,-258,1420,-1612
14,116,110,465,635,-1007
58,-112,63,-286,798,-1001
82,-113,59,-632,385,-975
115,-123,70,-375,404,-709
119,-98,60,-598,506,-827
-128,-93,49,-498,323,-756
-128,-78,38,-386,194,-776
-113,-50,38,-714,373,-623
-97,-19,56,-938,355,-590
-97,-40,58,-110,247,-848
-80,8,70,-739,471,-782
-70,4,62,-515,588,-726
-71,10,61,-434,491,-796
-62,23,59,-579,499,-724
-55,40,62,-699,472,-697
-54,32,63,-428,330,-762
-41,65,78,-816,421,-634
-40,57,79,-476,344,-714
-35,83,91,-661,413,-799
-27,89,98,-484,444,-790
-23,108,105,-782,450,-657
45,-116,-24,65,-2882,-7700
6,41,-25,-47,-4518,-9349
-90,4,-122,1054,-6770,-7436
-26,-60,-62,-1945,-4129,-3368
-88,32,95,-2741,288,-3296
-80,-120,64,-2482,4345,-4682
-52,102,127,233,5897,-9050
91,8,-64,-906,11124,-12623
-46,-31,-29,-424,6475,-8048
-21,-72,43,-2936,-1572,3817
49,46,123,1503,-2294,516
-37,-18,-2,180,-2805,2130
-108,54,95,-735,-3967,3523
10,-46,21,-4731,-2998,4989
-116,14,-93,-7264,-3831,6121
-30,-1,108,-7930,-1573,6907
-120,-39,115,-6798,921,6254
71,94,49,-2525,-166,5018
-111,81,37,184,-246,4364
91,28,-86,-941,-1986,5182
81,76,-80,-3101,-4305,6391
-65,-25,107,-1160,-2901,1985
55,-94,5,2020,-1084,-1207
22,77,34,143,-1172,1547
69,71,53,-1358,-1285,403
63,12,121,3250,57,-2016
126,-4,-61,-948,518,-343
79,-102,-106,-43,-96,-479
70,98,105,450,579,-1348
95,103,102,-13,1172,-1242
95,98,69,-230,1183,-1166
102,100,72,-552,788,-1022
122,111,71,-695,483,-758
-117,126,67,-674,285,-711
-94,-108,70,-738,397,-622
-82,-81,70,-794,409,-623
-81,-76,69,-539,327,-688
-62,-36,76,-924,455,-575
-59,-33,69,-554,387,-689
-50,-7,73,-641,397,-690
-45,4,73,-563,360,-733
-40,25,79,-705,363,-681
-45,21,80,-405,261,-787
-28,54,95,-810,416,-733
-33,44,93,-602,397,-847
-25,60,103,-711,375,-746
-27,59,105,-513,378,-793
-20,77,110,-662,421,-739
-18,78,109,-493,401,-749
-15,95,113,-626,424,-702
96,104,-13,1073,-2960,-7664
-105,9,63,59,-4826,-9722
-77,-108,-13,1972,-8849,-8469
-3,-106,39,-1372,-6400,-2999
72,54,125,-3770,-327,-1882
35,-75,-52,-2407,3556,-4430
97,-48,52,-1056,8405,-10938
1,82,-16,2595,14848,-22522
127,-117,-94,-9790,-3299,12519
-59,-45,30,3925,-4242,1741
-82,-81,-89,1307,-2611,-956
32,-91,73,-681,-3689,2549
-81,109,42,-4225,-2627,4512
-128,22,110,-8277,-1826,5600
-80,26,48,-9275,-1428,5868
76,-49,34,-7185,-91,5353
45,-72,127,-4853,-246,4995
-119,-121,32,-1365,-1212,5283
-16,93,-98,720,-2847,4065
13,-108,87,-2233,-4201,5829
22,-53,-122,-893,-2235,1573
84,-7,-9,3002,-1620,167
127,20,-95,-1595,-1509,1948
41,0,20,1155,-1134,-470
-112,6,14,-693,390,-1125
59,121,-78,122,1160,-1772
50,-126,-101,-152,556,-949
48,118,106,-236,253,-591
77,-113,86,-296,305,-561
92,-101,54,-521,372,-816
121,-108,48,-493,500,-791
-127,-92,53,-517,275,-631
-126,-86,55,-405,308,-701
-115,-72,59,-481,356,-647
-114,-71,51,-264,281,-608
-99,-40,51,-557,310,-534
-102,-49,47,-262,196,-575
-91,-30,54,-463,312,-556
-74,-36,52,-230,277,-517
-52,-25,49,-359,394,-519
-70,-24,39,-247,240,-651
-61,-30,44,-405,392,-664
-74,-41,39,-432,525,-763
-58,-38,34,-367,386,-596
-50,-26,34,-465,472,-583
-61,-18,32,-400,421,-652
-54,-16,33,-393,430,-649
-38,-4,44,-569,427,-651
-28,-8,50,-354,446,-765
-24,-9,62,-350,545,-802
