AccX,AccY,AccZ,GyroX,GyroY,GyroZ
-95,120,-108,-3764,3253,-1156
-17,-85,-80,3155,2108,-6142
-99,-70,-87,3732,-330,-6693
-38,75,3,5874,-3079,-5911
66,123,113,8907,-8578,-8314
26,10,109,5096,-7007,-3389
20,50,52,7176,-3284,-5597
31,-60,21,-1867,1822,-3692
-88,-84,44,-1741,5907,-5703
64,-12,21,-1661,9120,-4845
-60,-42,45,3443,-5203,692
-120,-56,-32,-1611,-2152,7245
8,-92,-28,-466,-3810,1191
85,108,66,-6903,-2008,4340
-124,-25,30,-9013,-3062,2913
-65,10,0,-6438,352,4758
81,-77,-25,-4549,-115,7380
-54,15,100,-43,-2672,8915
-101,-28,30,2496,-1396,6958
-66,-5,-81,1812,-1063,6480
102,97,-62,10580,-693,2820
-2,92,-115,11625,-1249,5771
118,-109,3,-4106,4327,3483
-26,105,97,-5542,-1847,-6131
-35,-48,30,-5042,-680,-4751
-103,-126,-37,-3047,3423,2609
-43,-5,72,1251,-920,-61
45,-36,52,5229,-1148,-850
125,28,28,4771,25,-1000
-102,84,99,782,513,-710
-81,108,104,-2277,531,-179
-92,54,42,-2209,-27,-101
-96,40,34,-593,-307,-354
-100,57,53,329,-469,-217
-113,-104,-122,-810,-334,-91
-45,-68,-55,-279,983,41
-109,106,123,2499,-395,-134
-72,-106,103,1996,25,18
-72,-92,89,1074,150,172
-84,-81,48,-378,185,335
-89,-89,35,-380,76,321
-93,-117,36,790,-75,36
-78,-95,67,1061,166,-220
-38,-50,-126,390,544,-157
-56,-83,118,795,-81,-75
-58,-70,93,208,-37,30
-64,-81,63,76,54,-25
-62,-81,58,75,40,-2
-60,-70,66,3,60,24
-56,-59,76,122,125,-42
1,81,-52,2926,3286,-5875
14,-82,-29,7826,-1032,-8135
-75,24,85,6895,-6259,-9757
60,-58,41,6676,-9727,-7050
-92,121,-53,5635,-6392,-2787
40,-45,37,4853,-2828,-2370
-19,0,-32,-1722,4744,-6423
114,17,112,-1185,7994,-7896
-62,-2,-103,615,7675,-6126
-10,-97,52,-2252,-6584,5049
112,115,113,1682,-1731,2937
-2,-127,70,-2439,-3694,2621
-95,6,-34,-7252,-5273,3106
-99,78,-78,-9429,-5543,2224
27,-8,119,-13629,-3264,2576
115,24,46,-8110,-3603,2812
17,127,93,4818,-4375,5785
1,-65,126,8211,-4257,8131
10,83,-91,-1875,-5151,9338
-17,57,-25,-791,-2836,4222
-92,-85,122,6117,-1475,-50
19,-54,-25,8151,-3189,2007
41,-42,-14,2935,-2155,3506
98,-68,-51,1104,-1426,-1281
36,-72,-38,-108,2564,-3647
11,69,112,-3541,1393,-848
-15,-5,45,-10,658,482
-20,-61,42,2144,705,-565
12,-19,75,1976,357,-1079
74,31,106,245,-352,-498
-118,-107,-79,-3992,-287,678
-103,60,107,-1712,295,534
94,-1,106,1478,-226,-597
92,53,101,1882,-4,-285
102,71,83,2117,233,-382
113,81,71,1930,147,-312
-122,93,82,1205,327,-332
-114,86,97,881,306,-314
-108,81,113,563,92,-83
-103,82,121,582,31,11
-104,86,117,568,30,-15
-96,90,103,548,68,-101
-91,99,94,294,56,-72
-92,96,88,116,110,-86
-91,91,88,302,66,-82
-89,88,88,654,61,-100
-82,102,91,730,93,-91
-83,113,81,602,96,-75
-76,119,75,484,80,-49
-75,-127,70,354,21,-46
44,29,-91,1477,2557,-4693
58,18,106,6610,-577,-8947
67,-41,91,11813,-1983,-9839
110,-56,-72,18682,-6580,-8672
-113,-66,-32,13821,-4664,-7095
-61,-36,72,-2305,-2796,-622
11,-55,3,2866,3810,-2893
-15,-71,-5,-5185,1131,3237
-61,-52,-51,1356,-1616,463
-74,-87,-105,-3189,586,2185
119,71,109,-10279,830,3150
94,-80,101,-8178,-1437,3183
-16,-28,-103,-8489,-950,3976
7,-49,9,-6358,186,3989
7,-1,111,-3620,-465,6111
46,-18,-3,-977,-2178,6001
0,-70,-15,-548,-1806,5935
101,124,-4,-531,-1393,3089
-111,-104,-30,3592,-858,2517
70,-107,-80,1276,-439,2109
-31,-73,121,1973,-1339,879
-92,-44,-40,-852,-2482,311
71,-110,48,5001,118,-1212
-97,-63,-124,-2903,2202,-261
101,2,25,420,368,-216
83,-13,52,969,272,-792
113,20,89,553,-208,-350
-111,107,127,-1901,-193,500
-44,120,-115,-1527,265,712
-83,48,113,884,-165,-296
-82,79,88,949,164,-254
-104,104,81,1079,-67,-32
-103,118,68,747,207,-147
-90,-122,85,628,60,-96
-67,-103,104,373,146,-45
-73,-111,95,393,94,-120
-74,-122,89,433,88,-48
-64,-119,78,545,107,-70
-65,-112,83,463,134,-96
-66,-122,86,673,90,-125
-63,-107,84,631,107,-70
-57,-97,80,520,69,-63
-56,-92,81,458,119,-123
-57,-99,79,508,104,-100
-56,-99,79,532,76,-96
-45,-92,83,501,85,-83
-43,-91,84,565,79,-86
-40,-86,79,510,114,-73
-40,-83,74,489,88,-74
-39,-82,80,489,106,-89
-33,-101,-41,162,3018,-6036
114,-96,-18,10263,-1409,-12028
-48,-21,-10,19399,-8712,-13950
75,54,-46,8043,-5860,-8144
113,19,19,4554,-629,-8265
-116,-113,-118,4506,2208,-5167
-120,90,-16,-1792,-220,4631
86,91,126,-2608,907,3017
77,-107,-87,-1592,174,741
57,-47,-88,-6009,208,2768
-109,-50,42,-6758,-218,3066
116,122,45,-9240,-308,4317
126,-63,-15,-9046,741,5345
93,-77,27,-4468,-135,6183
34,-94,-96,-935,514,6548
99,-123,-51,-2686,-1141,7295
-23,49,126,1194,-2632,5541
-7,125,-124,6170,-3157,2727
82,-103,-123,4660,-4491,1513
58,37,16,14151,-3057,-1687
-21,-60,2,-18064,6958,948
44,31,-35,-7727,2365,1262
19,-54,-97,-2735,1164,-397
80,-97,6,5221,-286,-2041
91,-91,-22,7123,-192,-3005
-106,-24,39,3822,-332,-2325
-20,36,-95,-414,-188,-647
-23,68,-6,-3690,-1578,801
-45,-3,-94,-1625,-1276,912
-48,-96,95,2546,659,292
-103,16,117,2565,1356,-397
-67,81,115,460,718,189
-53,91,86,-592,281,561
-57,57,67,220,258,389
-43,64,74,657,252,263
-64,87,80,875,81,168
-90,94,94,882,-242,76
-114,114,112,456,-262,77
-99,103,95,261,145,-121
-79,80,69,773,449,-409
-66,24,45,1835,356,-876
-48,36,62,1784,-19,-706
-40,21,68,1367,-38,-713
-33,-22,72,1403,-75,-609
-17,-31,82,1190,-117,-121
-16,8,98,248,-402,676
-13,69,105,-857,-142,1137
-54,77,79,-821,-28,673
-35,94,74,511,779,-953
41,-87,-33,2325,-89,-737
85,-61,7,2385,-1754,-9347
-50,1,-110,14449,-8556,-11419
7,1,27,15342,-8482,-8541
46,-16,5,-3522,2632,-5236
-68,-32,37,4364,2654,-8134
-124,-102,-78,-346,381,2204
8,-68,-67,-1103,-33,4054
46,10,119,-2919,921,1086
-117,-48,-82,-3146,-354,1031
-19,32,25,-8622,900,3317
94,126,-4,-7373,-2380,1690
-100,122,10,-7298,-290,3873
-7,-26,49,-6539,48,4800
-7,84,111,-3837,-66,5652
107,115,-78,616,-3093,5230
76,122,24,-389,-2054,4729
-126,84,-116,3531,-877,3077
101,48,88,2537,-209,2938
60,114,51,4431,-1934,2934
24,97,-28,9283,-5372,2926
-37,-106,-105,-3979,4676,-3374
-92,122,18,-8225,2747,-990
-119,-37,-68,-3665,436,147
115,-90,-4,2062,160,-321
97,-104,39,4560,-124,-1346
-127,-44,82,3667,-163,-1448
-74,-7,-118,954,-321,-584
-47,-20,-103,-243,-245,90
-79,-42,-127,-555,-280,500
-105,-35,-114,382,-891,634
-1,58,-7,1555,1927,-1088
-41,30,-14,3215,-375,-241
-63,38,-101,-119,-333,268
-49,19,116,-652,295,412
-75,6,72,-852,590,353
-80,-1,67,297,65,158
-75,-1,72,1327,-201,-57
-65,32,89,1226,-100,-104
-35,71,-128,628,453,-330
-42,67,-116,447,-2,-129
-45,52,110,294,-64,-28
-49,49,89,227,68,-50
-56,44,65,357,77,-82
-52,58,71,325,21,-21
-46,69,76,456,87,-67
-43,83,85,559,96,-137
-39,86,81,613,42,-87
-41,95,68,563,72,-89
-45,97,63,496,46,-117
-35,111,58,374,15,-23
32,-60,102,1623,-432,-6129
-86,-29,76,2495,-1391,-6312
-68,-15,37,9239,-5323,-6722
120,-94,106,20398,-10473,-9251
-117,114,12,5973,-1895,-9642
49,123,24,-859,3485,-5803
-52,17,63,-462,1689,-844
-100,34,118,-894,8,3715
-95,92,-62,-7672,-341,4390
-13,-38,95,-7988,-3490,3814
-15,57,87,-9827,-37,5042
126,90,-72,-7211,-977,4885
124,-9,22,-4131,-437,7151
-11,-36,76,-1022,145,6189
-79,-60,115,948,-332,5149
-85,-106,99,-132,-1123,4702
-90,6,-110,5767,-2973,3120
-37,-49,125,3570,-552,2506
-105,-28,-122,2415,-1511,251
36,-29,-50,9032,-2794,-1163
62,-60,-98,-7226,4052,738
36,30,9,-4645,504,831
17,-37,-22,-1967,651,96
36,-71,15,837,542,-805
75,-19,60,1270,325,-1077
-106,53,96,-590,193,-26
-67,62,90,-592,155,356
-100,12,92,1568,-331,-520
-94,38,101,1955,128,-303
121,43,90,2351,-324,-248
-120,57,90,1887,-199,-234
-93,70,90,730,104,-333
-88,42,69,655,-9,-419
-97,-3,56,1242,-235,-571
-71,-4,67,1144,-166,-370
-69,17,87,486,72,-240
-50,28,109,499,198,-234
-35,20,97,979,175,-245
-36,20,82,1083,43,-146
-44,34,81,823,119,-94
-58,46,78,269,87,-59
-66,45,67,-61,125,111
-69,32,51,130,248,19
-62,33,47,639,268,-24
-61,48,40,698,280,-56
-32,62,48,584,398,4
-14,44,57,766,215,-200
-9,80,55,517,904,-260
-34,40,53,940,-371,-317
0,-124,76,21,953,-882
16,-14,-92,5156,-3231,-6153
99,-71,70,3199,-4980,-7326
-45,11,8,9389,-7178,-4899
-50,68,61,15273,-5610,-4644
32,-67,93,1336,1537,-10131
102,14,20,3839,5335,-10952
-69,51,14,-1053,-682,3882
-104,-9,-17,-1624,-712,4599
-56,21,-6,-2759,-868,2022
51,49,82,-6279,-412,1833
-82,29,45,-6758,-2227,3006
11,-42,5,-10719,-373,4360
-37,-65,-103,-8671,1003,5594
-70,90,80,-5127,-1452,7668
69,25,-79,1152,-2460,6611
-96,-93,-79,3289,-1282,5384
25,-80,-52,582,-2939,6765
49,74,-124,-235,-2335,2410
34,19,8,4828,-2913,-1175
-104,-22,-46,9939,-2340,-2715
-5,-125,-126,-6999,3254,-636
43,-44,-9,-3654,782,-1274
66,-119,7,679,548,-549
31,-117,61,1606,313,-403
69,-32,95,272,156,157
-94,14,107,43,365,525
-76,45,111,689,-304,129
-82,20,94,1240,-81,-690
-119,4,95,1257,11,-509
120,-34,84,1611,95,-543
-120,-48,83,1952,73,-545
-63,-64,68,2397,173,-595
8,-55,86,2112,149,-232
-39,14,-82,1226,609,-618
-32,4,19,1050,-150,-571
-55,-36,-48,443,-436,269
-46,-16,116,-901,475,810
-64,-8,94,-724,586,715
-71,5,58,-136,358,218
-80,9,60,804,55,-551
-34,-1,103,1600,-344,-741
-21,-20,84,1536,42,-926
-36,-21,94,1145,365,-1114
-19,-23,106,795,-658,-451
-10,26,85,-41,-375,216
-76,21,60,-253,-359,-92
-24,-123,123,-487,-401,914
-106,49,49,2158,-954,-80
-41,0,15,2673,3078,-1280
-38,103,81,-759,-1339,573
24,12,89,-2424,1146,-5507
88,-59,118,-1320,383,-6569
-3,-120,32,1158,-1361,-6433
-20,-127,100,6794,-2732,-7218
-110,39,17,17945,-6831,-9459
-49,109,55,11752,-2772,-14449
31,-6,-111,-4327,5947,-9780
-123,85,-123,3758,1991,-3299
-5,112,-87,-2788,-787,3798
33,-16,-40,-643,400,690
40,-104,-118,-2703,481,1656
115,-115,-120,-7573,-3130,3778
-82,-61,24,-8609,-3577,3837
68,31,-78,-9162,-1795,3413
38,69,-12,-6606,-1036,4239
41,76,45,-3138,-889,5515
-38,21,33,1610,563,7552
116,48,-4,2056,-1354,8191
-30,-57,51,-340,-2422,5790
-89,7,102,561,-3066,3414
127,34,24,14901,-6767,-993
84,79,-9,-5709,8353,-4336
83,113,80,-5163,16,27
-124,-54,26,-1409,411,1270
56,-113,33,1332,876,-98
73,-123,36,3077,692,-1294
-105,-101,87,3315,324,-1305
-58,-71,108,2137,189,-328
-48,-47,-115,327,-427,156
-33,-42,-73,-899,-967,402
-33,-92,-122,477,-71,355
-65,-101,-96,1488,264,-70
-45,-113,-76,2095,787,-261
-5,-38,-3,805,1371,225
50,-37,-5,977,-84,1116
-50,-44,-56,1274,-646,683
-82,-56,-21,406,-1207,-193
-68,-44,-122,-119,-104,-152
-75,-27,104,-585,670,154
-106,-34,87,157,364,29
-102,-47,54,1093,437,-408
-81,-37,56,1281,198,-764
-60,-29,81,940,-223,-714
-55,-29,88,513,-172,-604
-49,-42,86,447,-298,-539
-1,-9,101,231,-398,-117
1,-13,87,470,93,-80
-72,0,105,375,110,-365
-53,9,-128,350,-341,107
-29,36,115,-3,216,635
-32,-55,47,-9332,2274,6
113,97,9,-5717,1207,-3484
-41,112,-81,4363,1997,-6042
53,-2,11,893,3450,-8073
34,36,74,8309,-226,-9116
81,55,-48,22863,-7685,-10507
-26,57,-30,7118,2376,-8236
-124,12,100,263,3063,-7241
-47,49,81,8699,2879,-7387
-128,-97,88,-4584,-1634,6745
-13,-17,5,-1106,100,1588
-55,-52,58,-6766,-278,4175
-42,62,-77,-12560,-4619,5410
-117,91,4,-6833,-2683,3480
-47,-72,96,-2007,467,5261
57,-5,23,-4374,847,6150
-19,109,114,-3507,544,6751
127,-112,-124,-8137,-1653,6730
93,29,-84,5402,-3213,1363
108,-6,60,8308,-143,739
-77,-94,80,1099,-1758,2737
117,-1,-27,1388,-2533,1867
16,-57,-77,2742,-3746,871
35,-28,119,5334,577,-2426
125,121,-41,-1922,2261,-1219
59,-120,96,2431,126,-855
61,-103,-112,2435,426,-431
91,-82,-90,1148,739,-199
126,-53,-86,-258,725,130
-94,-75,-108,-404,225,230
-78,-107,123,834,126,-124
-87,-118,127,1691,-17,-606
-73,-126,-112,1918,-106,-837
-52,-114,-88,1553,-219,-188
-43,-70,-34,660,-390,633
-55,-34,-44,-177,154,801
-112,-65,-87,-2,199,220
-65,-53,-113,-51,269,385
-38,13,117,-642,227,1006
-90,12,88,-180,225,259
-123,-23,64,962,370,-756
-103,-13,70,1119,250,-993
-83,-15,72,941,37,-810
-73,-19,74,673,15,-496
-82,-2,99,356,-189,-278
-74,-14,95,770,400,-699
-49,-5,108,1012,181,-549
-41,19,98,1070,-125,-499
-9,29,82,1659,-417,-369
8,53,84,805,85,-404
-28,6,-101,4030,-230,-10319
-112,28,90,5488,-4342,-9982
-98,-12,92,19909,-10711,-5378
-26,-7,102,3744,2916,-1692
-107,-87,-46,-3889,6429,-4345
38,-124,122,1611,7715,-8008
27,-113,96,-74,344,-4468
55,-92,117,883,-4442,9538
-37,-94,-55,-59,-573,1762
53,-47,-58,-7510,-4761,3961
121,69,51,-11382,-3259,4269
-65,-15,-120,-11714,-2291,5768
72,38,31,-6451,-834,6132
44,32,114,5876,-3925,5404
-104,118,30,6499,260,3728
51,-64,-55,924,-414,4992
49,19,-17,519,-2079,3936
94,84,-87,1588,-1950,3733
-52,-123,125,2104,-1376,1895
20,-22,93,2200,-580,-1092
67,52,72,2649,-2146,-1982
77,-40,-61,2246,1721,277
-87,82,40,-929,1117,223
28,-53,14,1839,-511,-568
99,-62,92,2620,286,-1097
98,-43,111,1484,915,-990
101,-43,113,561,914,-586
115,-73,114,592,458,-405
-101,-119,106,1469,175,-304
-72,-81,114,1092,59,189
-38,-23,-102,-242,-445,661
-61,9,-94,-718,-222,727
-109,-79,102,933,342,-315
-99,-40,-119,925,-146,215
-63,83,-122,-616,-143,1212
-97,79,86,-771,252,481
-124,32,58,313,449,-587
-125,23,58,1221,135,-944
-93,52,76,815,-175,-717
-57,34,77,650,29,-677
-45,30,75,764,188,-302
-62,45,77,513,55,-205
-56,35,70,693,172,-208
-56,36,56,723,299,-46
-49,52,51,536,116,237
-56,75,78,411,-309,358
-40,58,82,1061,243,139
-28,114,78,188,401,303
-34,127,58,-241,213,311
-34,113,32,232,185,-159
-122,-39,-12,1757,1488,-7583
85,-74,-29,16651,-8573,-22430
-122,-23,-25,16201,-9404,-17686
-57,3,-100,3238,539,-4969
-21,73,46,4161,951,2179
109,6,-94,-6545,-31,6540
98,86,57,-11474,609,7197
85,88,-44,-9378,40,5903
-47,-62,-120,-9812,-789,8493
22,93,-105,-6310,284,7550
120,-80,-83,-400,271,5949
72,-55,106,1729,-1564,4795
24,-119,-11,-1970,-2011,4653
-24,31,-75,1255,-1394,1535
78,40,126,4721,-834,1735
87,15,51,3704,-730,1612
23,14,82,1766,-1401,1464
104,-45,-73,-4888,1664,-172
-55,97,-53,974,-16,-1209
115,75,53,1488,-310,-851
112,62,68,2098,172,-727
-124,52,47,1907,779,-915
-102,65,45,1105,348,-544
-101,76,85,98,-670,50
-63,89,123,-83,210,-123
-20,95,-73,1104,507,-153
-80,94,105,1032,-425,242
-72,105,89,750,9,20
-85,110,50,194,8,140
-93,90,44,345,19,-105
-91,66,42,1210,-95,-413
-84,62,36,1434,-20,-498
-37,70,51,1224,613,-717
80,93,-114,1837,1406,-841
1,123,-33,1380,-100,-94
-47,82,-44,1199,-750,156
-35,77,112,-701,-464,217
-24,67,47,-196,92,419
-40,64,25,499,233,535
-86,80,18,125,143,43
-91,56,22,758,-202,-530
-70,63,48,1110,-121,-229
-40,-116,123,-134,623,-38
-75,102,96,920,-759,-27
11,74,50,1594,-412,-82
35,-121,60,0,434,157
-15,103,43,10,297,-241
-44,84,62,603,-244,-77
-17,120,51,-21,372,263
-25,121,27,277,421,126
41,-56,5,-5338,-815,-1862
54,-65,52,-2438,-156,-1045
67,-46,-14,-3710,893,-2006
-18,73,-115,470,-76,-4246
-9,66,4,10354,559,-8491
-53,-77,-108,19034,-6250,-14298
22,-59,-2,8127,-5138,-13046
-78,103,48,5283,-525,-7144
20,-32,23,5270,1238,-3376
-80,-103,102,-105,-1486,2799
18,88,11,-3642,1462,2647
-41,21,-67,-4239,1349,2712
-37,72,71,-7809,-2878,4201
58,-40,110,-11609,-1128,5509
-84,88,77,-9862,-2103,4672
-26,86,-100,-7800,-714,4303
-6,54,125,-2806,-1693,5190
-115,-9,-9,1892,-2093,4098
-8,-79,23,2172,-3391,5713
63,23,-53,495,-2017,5788
104,121,-27,2578,-2560,5527
2,-119,57,1461,-65,4037
-1,-42,80,1533,-2898,-26
120,49,-46,4888,-4670,-2853
54,53,-124,1516,4644,-1372
-42,-127,-88,-5055,457,-1629
94,-70,37,-335,316,-12
73,-125,94,3713,57,9
46,-51,124,2102,158,-998
111,-13,-92,894,-133,-584
-81,-31,-110,64,376,-393
-80,-71,121,457,140,-479
-76,-74,125,705,-427,-380
-80,-39,-102,-262,-496,-182
-5,19,84,-375,306,-140
-32,97,-43,4596,183,-194
-75,2,-84,1432,358,-78
-63,59,-106,-1639,808,778
-78,17,71,-1663,828,890
-120,3,50,-259,-479,1000
-123,35,60,562,-394,571
-106,66,62,700,112,-160
-105,46,46,918,259,-807
-95,33,42,1053,-33,-787
-79,25,58,825,-394,-363
-39,69,121,-932,926,-362
1,72,-40,384,598,-50
-23,49,-44,1733,-322,8
-24,105,-114,973,-158,429
-68,108,114,318,-335,175
-21,20,20,-9105,390,1246
111,48,-111,671,3586,-5103
22,79,-40,2434,1157,-4733
-58,-104,-103,-5834,-84,-2953
69,0,-23,3156,1352,-5858
38,-2,-56,12780,-360,-8572
-22,-70,106,18996,-853,-10637
-61,-63,-79,6469,848,-10143
-105,-75,47,10525,-424,-8219
-54,39,55,3360,1107,-111
-8,22,57,-1173,788,2051
-34,41,87,-3987,1271,3042
-92,118,-111,-7514,-478,3950
35,-62,24,-11123,-1996,4397
-21,4,72,-12010,-1522,3646
-66,109,21,-9325,-971,4283
-112,60,-35,-5465,-2767,6022
-62,-36,-119,-585,-3806,5997
-60,-48,-81,4417,-3577,5510
-60,48,-116,3097,-1916,4008
-51,-82,54,29,-54,3442
-122,-46,37,1876,-1986,1648
-7,31,39,2293,-3494,-319
-2,-92,-30,11879,75,-2806
81,-117,13,-4055,2316,-1227
6,49,80,-820,-5,-689
67,-62,23,1007,1519,-683
73,-72,23,2602,1273,-805
109,-72,52,2866,500,-777
-99,-49,99,1857,-182,-343
-81,-48,124,814,-744,38
-67,-30,-108,-213,-922,298
-84,-19,-112,-768,-768,477
-94,0,125,-298,-541,599
-47,75,-74,133,981,-981
-30,10,-18,3027,603,-1068
-79,-13,-68,2234,-338,-123
-68,43,-70,523,206,73
-85,5,-124,156,-28,216
-85,2,108,-266,-299,623
-74,55,81,-897,189,766
-94,56,51,-404,418,655
-109,56,31,571,259,131
-110,87,54,581,-215,-150
-95,97,69,486,-173,-231
-96,71,62,832,209,-551
-93,62,72,1023,142,-609
-78,55,76,1081,57,-468
-11,45,61,926,317,-342
-18,82,68,489,118,125
-66,23,-63,4183,-860,-10353
-103,-109,-120,1605,-5030,-5879
75,-109,-28,874,-2669,-4478
-90,-45,102,6607,-2590,-3003
-89,-20,-27,8106,-640,-3205
-66,-1,70,8825,-2740,-4245
60,32,-92,8514,518,-12590
-79,32,31,2775,2012,-7575
-123,99,-99,1488,-315,3605
-11,-31,42,-1801,496,2311
54,65,46,-4762,3305,1919
-49,-95,-21,-4371,-3172,2740
-25,-116,48,-9211,294,4928
16,-111,38,-9457,-2638,3222
98,112,-100,-10403,-174,3560
28,-36,-106,-8050,-931,4903
46,-72,16,-2653,-2253,5845
-77,66,-88,149,-4103,6753
118,-59,104,2270,-2890,5088
-25,-24,-117,4193,-2514,4391
58,-82,-112,1730,-1697,1541
-85,46,88,12754,-7894,-5043
34,-86,-57,-1813,8511,-768
-43,-95,124,-5288,-202,389
-113,58,-8,-3088,1146,2568
47,-49,-10,244,1179,1146
108,-44,35,2435,589,-854
108,-69,43,3332,103,-2416
-104,-86,70,3215,-395,-2139
-71,-69,-115,1719,-1062,-773
-50,-32,-68,-555,-983,420
-87,-34,-101,-1357,-736,907
-108,-35,120,-690,-711,568
107,-61,117,1188,-1712,-529
78,-90,67,406,2991,-1080
-78,-7,-55,3311,-858,10
-53,28,120,432,-114,-145
-81,6,88,413,249,-195
-117,-25,101,60,17,-172
-81,-27,82,89,197,656
-68,37,78,-154,108,1167
-78,40,53,1139,439,-7
-78,84,49,599,266,35
-100,70,51,-360,-156,-217
-100,28,43,626,-73,-262
-109,26,59,952,67,-292
-88,38,57,890,86,-281
-51,29,45,1020,79,-306
-59,33,48,919,-54,-283
-15,39,60,748,213,-303
-55,41,8,2644,2061,-5635
40,-59,-90,1507,-215,-6712
-5,-84,89,7901,-2702,-6506
-115,8,125,11352,-3913,-5958
-44,-92,-104,4474,-1350,-3616
-44,95,97,5494,-1748,-5394
0,43,35,12933,237,-11024
-124,111,-64,1149,1934,-5398
29,-60,-66,-7295,2316,5737
-55,125,-101,289,212,-1156
64,-49,-61,-4046,-2395,3280
-57,5,-47,-5966,-1641,2667
-70,-69,126,-7326,-885,3404
89,54,60,-9803,-1771,2735
89,-82,-126,-8540,225,3565
85,-35,-37,-4918,-376,6725
-126,21,78,-1934,-2135,9393
5,-5,25,1610,-2452,6144
-71,-54,68,5091,-2395,2978
-71,43,93,1508,-1841,1798
-85,1,18,-97,-1527,1448
73,39,-8,13165,-764,-3797
-92,-60,-1,-8273,3553,-974
66,26,-6,-4639,395,657
99,-96,-10,1044,1099,627
89,-101,36,3230,1004,-868
-115,-80,54,3611,516,-1595
-52,-72,68,2757,336,-1042
-22,-72,111,1643,-123,-300
-20,-35,-85,-425,-910,490
-52,-33,-89,-1295,-1142,684
-68,-74,114,82,-461,510
-45,-64,-115,984,828,176
-36,3,-68,302,423,87
-23,-23,-88,1971,-409,38
-22,-24,-71,2226,-702,-221
8,46,-59,378,135,74
-89,48,-97,-1371,643,-165
-69,11,115,-1435,648,1
-40,45,50,-151,233,858
-67,44,37,995,303,249
-73,54,23,1179,390,-724
-61,52,29,947,185,-907
-43,47,46,814,-231,-548
-47,39,62,682,-223,-310
-59,25,64,880,-164,-253
-39,31,80,975,-197,-6
10,41,83,849,-112,244
4,88,92,307,133,464
-88,65,89,147,-256,-160
-89,-122,98,3863,-3008,-4581
73,-86,-28,5276,-1639,-3396
-84,-61,58,3140,-566,-2490
-8,-49,113,5932,-438,-2440
-28,64,-118,10454,-626,-6935
18,-49,-10,10003,-523,-10015
-71,-97,-84,1137,3858,-7636
-21,-71,115,-5239,2014,2429
35,-31,-102,159,-817,863
-55,82,98,-2996,-3000,2530
29,-55,-57,-3668,-2052,3108
21,-48,-29,-8691,-1680,3433
-96,-80,105,-7234,-3486,2073
-103,-82,-9,-10526,-715,3052
23,118,-63,-6408,-1816,2361
91,64,72,-4488,-1550,4393
-124,41,-96,-1326,-3263,5920
38,-79,113,975,-4108,7430
93,-119,117,4119,-4620,4707
-51,122,56,4766,-1189,1887
-124,113,37,4515,-2236,1298
-16,56,-124,5502,-4172,-861
111,-78,-10,-2838,6901,-3039
-31,68,80,-4371,-1280,607
117,-28,-36,-1282,1037,844
49,-75,-10,1466,597,-356
64,-39,14,2518,434,-888
-128,-17,30,2067,388,-551
-56,14,65,836,-136,55
-55,18,92,-17,-646,473
-84,7,118,-224,-762,482
-87,6,116,225,-604,608
-97,-4,-55,1589,-1434,569
-45,-66,-96,4552,1577,-1758
-28,46,-46,2930,511,-636
-50,98,-46,-875,-128,1172
127,28,-125,-1293,535,472
-89,-2,88,-1219,1169,455
-53,61,50,-1219,1069,767
-89,51,17,135,590,-7
-94,4,8,1750,151,-1280
-62,13,23,2011,-181,-1251
-36,32,45,1313,-471,-651
-38,48,81,173,-654,-196
-42,29,83,121,-515,-124
-34,35,115,276,-631,-29
-37,29,-125,807,-527,41
-23,56,-110,995,-65,324
-8,98,-89,521,357,733
-23,95,85,401,1301,177
-127,74,43,1620,-984,-6009
2,-52,-95,-1973,-147,-7105
-107,53,50,-2763,-655,-6153
-66,63,109,269,-408,-4692
-82,78,-27,4120,-730,-3781
69,121,-22,10337,-680,-3534
45,-109,-36,14325,-1751,-4871
-82,87,29,9040,-1796,-6596
-92,-81,59,3679,-172,-7804
67,-29,10,6135,1662,-9526
19,-46,30,-4751,1405,3159
-45,7,-20,-1402,1939,-408
11,-30,95,-2544,-2152,3439
-82,88,16,-2944,-2294,3115
-29,98,106,-6280,-1997,3546
-96,-38,-47,-8920,-1126,3938
72,-4,31,-9612,-1689,3453
68,110,-82,-7134,-156,5061
53,-123,1,-3985,-768,5314
-23,-112,95,-48,-219,6099
73,55,111,1970,-2000,6431
-92,18,67,745,-1700,5078
-44,11,20,1666,-1863,3754
-122,-80,96,1673,-3227,2609
-52,78,-123,564,-4198,913
-54,6,90,9620,791,-4662
29,-46,-86,-6657,2837,-1229
106,28,75,-4593,1512,-77
40,71,-11,918,713,471
55,92,42,3766,296,-343
120,-94,79,2658,623,-765
-81,-83,103,1342,530,-397
-56,-75,-100,448,-221,162
-74,-61,-75,-479,-1199,534
-85,-46,-71,-573,-1286,750
-88,-56,-77,320,50,553
-107,-40,-86,578,374,218
-96,0,-87,563,-219,434
-62,57,-103,30,106,652
112,18,113,135,291,-486
-126,-7,-119,466,147,-627
-74,59,104,-3,656,482
121,49,53,87,603,-85
-117,21,27,770,559,-775
-86,22,20,1035,326,-654
-70,34,33,959,-254,-409
-83,34,44,726,-375,-388
-89,15,59,848,-370,-283
-76,42,97,778,-594,294
-70,92,121,227,-317,227
-74,-13,-41,1035,-2667,-5366
-58,82,-29,1653,-3958,-5410
120,-49,71,8800,-6614,-5986
46,70,-100,15587,-6455,-7282
-71,87,-30,4451,-1828,-7230
25,-63,34,3997,2442,-10255
26,55,126,2239,2086,-15
-112,-60,58,-4294,-959,6435
-45,-82,-44,-5282,-976,4624
-119,17,-67,-10372,-1972,4828
-123,-121,-71,-9471,-2664,5122
40,-126,63,-9478,-1277,6699
-19,54,126,-5341,-611,6141
-113,40,-73,-1730,-2066,8490
77,60,18,1921,-922,2775
59,-2,4,5706,-157,2247
-4,-127,-75,-179,1157,2540
-47,16,123,855,651,2269
-41,35,90,2043,-725,1747
-10,-18,91,1754,-1259,1149
-43,-107,85,2329,-2531,881
-99,51,61,2205,-3253,1184
26,-92,113,-871,3578,-2085
104,109,-45,4855,-1148,-1600
103,-76,118,2281,43,-704
-96,-87,-85,721,580,-473
-96,-126,-118,533,558,234
-103,119,120,990,276,171
-87,69,102,1656,468,-397
-38,98,-122,1088,144,650
-49,-75,-116,-611,375,1222
-98,-67,111,-939,477,479
-102,-112,82,1168,286,-882
-68,111,59,3328,113,-1419
-62,-105,105,2440,-390,-898
-54,-98,-122,755,3,-549
-27,127,-113,41,268,-123
-11,101,-120,459,228,-298
-4,112,-117,955,41,-362
5,-82,-85,414,128,-398
92,-124,-111,857,747,-648
20,-43,-82,323,-3,421
-70,-6,-93,-460,-404,45
-19,19,-88,-915,-278,4
33,-46,97,-397,153,-420
48,-37,72,877,215,-772
50,24,49,272,397,-1087
61,59,69,-5,-112,-286
35,40,86,712,-669,-9
26,66,126,84,265,1215
-28,-117,-10,5465,-1991,-8059
12,-2,37,8436,-4137,-5253
25,-22,106,10924,-3621,-4127
-124,125,112,10773,-3259,-6029
69,88,41,698,408,-6756
-51,10,12,7880,2347,-7648
115,-50,-118,-1842,33,3988
82,-4,-12,-6615,2725,3565
-105,-30,108,-4674,-1845,2419
-98,-44,-12,-10427,-2055,3971
-106,104,30,-9951,-2081,3693
-97,80,-4,-8011,-1321,5034
-106,-43,92,-5522,-793,5860
-54,34,-19,-1918,-1856,5757
101,99,-107,681,-2940,6081
-28,63,-102,3596,-2638,4066
44,99,100,3349,-1643,3048
4,-39,76,2070,-861,782
-38,10,101,3745,-1051,-859
-98,-54,83,3369,-1354,-963
99,-60,26,1164,-2794,-722
119,-65,-36,523,2665,-678
8,-10,-122,831,-257,-355
107,18,-120,581,1352,-1108
-97,47,-124,-275,1434,-571
-54,76,50,-167,609,-306
-49,29,41,1291,696,-1332
-43,46,77,1196,238,-1281
-29,56,98,757,243,-856
-9,11,76,985,109,-760
-8,-7,89,931,-33,-359
-37,-13,89,644,-337,23
-42,-17,76,538,-225,453
-43,21,78,307,-614,991
-39,103,106,771,-680,371
-3,-82,-79,1463,5,-244
-9,66,-37,-296,252,215
-30,32,-99,-306,481,-473
-36,-45,86,767,413,-1274
-23,-81,57,305,388,-1198
-5,117,38,502,-78,-789
-25,75,27,103,-101,-487
-26,48,21,442,-88,-158
-49,26,27,686,-412,382
-56,23,44,816,-520,1225
-39,17,56,1471,-693,1697
-20,29,76,1993,-761,1992
-20,70,67,935,-100,1635
-52,49,29,1319,-78,1210
-103,70,27,968,-159,440
89,30,126,2673,-571,-8697
-63,-70,-106,2573,-1151,-8119
-80,69,-31,7012,-2278,-6579
21,-56,-117,17901,-5382,-5105
-49,-23,-94,11483,-5482,-5915
-24,76,-121,-2984,3019,-6453
119,-67,-58,5786,2746,-5523
-126,-19,35,-2929,645,3969
21,-86,9,-2628,706,1642
100,50,-79,-6396,-417,2613
-127,54,-77,-12733,-5021,5791
50,16,37,-12794,-582,5109
7,107,-120,-7578,-2096,4692
108,113,-97,-4075,-1861,6074
-68,82,68,910,-3288,4898
108,-9,-59,1210,-3322,6176
-27,69,63,1833,-4619,5627
51,14,-50,1350,-3744,4335
34,43,79,2650,-801,195
-5,-95,-23,4827,1937,-2465
-24,-60,-47,4127,1256,-1880
-114,-58,-123,1685,-1278,-564
0,73,-117,-7282,467,669
-42,-4,57,730,596,-107
20,-57,96,3476,-1159,-743
73,-1,92,3450,-23,-780
107,10,64,1974,1425,-1266
-93,-10,48,1152,1759,-1057
-51,-8,66,958,679,-125
-63,-1,113,321,-654,101
-71,-30,108,567,-759,-303
-53,-31,-117,907,-607,-117
-26,-2,-94,563,-146,200
-69,6,121,411,499,108
-84,5,-127,379,-149,82
-58,24,98,209,207,570
-57,51,68,-57,316,458
-83,22,44,926,14,-28
-86,45,64,901,-295,-136
-89,60,77,467,-239,-131
-71,51,91,516,-75,-171
-75,34,81,871,155,-350
-72,36,81,858,21,-270
-59,43,83,714,-33,-172
-38,39,81,715,156,-219
-28,52,81,647,209,-139
-90,29,56,815,-90,-403
-86,49,92,340,-495,299
-9,120,84,-655,266,837
-34,111,31,-281,766,112
91,-60,-47,-2337,1384,-4733
-53,-46,32,4146,-870,-8283
-118,-80,107,5702,-3661,-6861
-49,-72,63,7298,-3921,-5503
112,121,-84,15012,-4447,-6562
-101,71,-91,9764,-2650,-7858
20,105,-7,-3779,2589,-4095
58,-76,-81,6183,2726,-5642
-69,109,123,-2113,-536,3477
-67,-78,3,-3205,700,2550
80,-35,-48,-4129,-1691,2321
-37,80,-102,-9512,-4790,4786
-58,-6,-118,-6451,-2459,3359
-102,7,1,-6906,-949,4843
100,-94,4,-6309,103,4907
123,-90,60,-2789,-308,5694
-14,-15,119,182,-2085,6829
-53,6,-77,955,-5610,9843
-5,115,75,-2974,-3888,3991
-21,45,-34,4193,1109,315
-48,-12,-76,6299,1287,-662
104,-11,-50,5502,-1850,-194
95,57,8,-598,-6301,-432
-94,-92,-2,-1574,5071,-972
-46,-24,95,739,-1900,-1353
78,-83,72,2038,37,-603
79,-45,93,1241,1375,-655
127,-25,74,30,1977,-544
-63,-40,34,595,1468,-15
-68,-57,62,1467,148,-313
-74,-82,80,1761,-630,-734
-39,-63,101,1188,-702,-306
-38,-27,-116,-65,-741,409
-67,-16,-110,-328,-592,638
-72,-35,124,485,-27,351
-74,-38,117,1070,148,58
-42,7,-118,896,44,277
-80,29,110,316,158,128
-94,19,122,224,-161,39
-40,49,101,1,432,455
-65,46,76,257,507,-123
-80,18,58,993,317,-572
-75,37,58,725,235,-390
-63,40,51,461,261,-268
-40,14,27,803,354,-443
-36,23,31,815,-48,-324
-40,45,64,388,-503,-257
-26,36,83,530,-118,-370
-32,20,84,867,153,-406
-37,34,107,832,-84,91
-110,40,-70,2282,-1011,-5321
-45,-14,-89,4856,-2009,-5017
85,118,-98,11086,-3405,-4974
95,-83,-41,12748,-3340,-4860
106,-110,-2,4609,440,-5261
3,-5,-7,4036,1910,-5706
11,116,-27,3850,824,-2860
18,19,-89,-3899,136,4767
77,60,-116,-2049,180,1384
-53,110,-109,-6343,-2030,3620
59,-101,-10,-9966,-1230,3569
16,-25,67,-10305,-1568,3651
-39,-69,-11,-8212,-687,4412
-68,12,-116,-4982,-538,4771
15,103,43,-1826,-1337,4697
-78,-110,-97,3205,-2271,4530
-2,16,-90,2962,-1852,4111
46,-69,103,3880,-1803,4036
65,118,56,1584,-111,2204
76,8,-27,1297,-564,1967
98,71,-37,8240,-8778,1287
70,12,72,-2936,7050,-2971
104,109,96,-4333,412,-372
124,8,-39,-2134,882,423
116,-71,-20,2164,1192,159
127,-49,10,3636,568,-790
-81,-32,28,3173,212,-1095
-39,-28,53,1695,-219,-510
-13,10,-126,-374,-1079,350
-42,-4,121,-1145,-1124,479
-75,-26,107,-163,-817,451
-95,-22,94,1055,-306,549
-109,20,111,730,-188,316
40,123,-31,946,2405,-1385
-12,-123,-45,684,-778,0
-50,103,-109,-288,-759,441
-93,63,87,-275,-585,378
-90,69,41,-468,476,192
-90,36,11,809,972,-238
-76,53,18,1449,437,-309
-69,65,16,1153,34,-328
-44,61,24,912,-212,-319
-37,55,44,618,-234,-185
-56,50,65,660,-243,-119
-63,41,82,938,-214,-59
-40,54,79,796,143,154
-24,90,78,172,197,478
-60,85,46,454,204,-185
-7,101,102,939,56,-336
-4,-111,74,-277,-133,528
94,108,14,1407,-1236,-6727
117,-76,38,3590,-1772,-6116
-42,-24,46,8210,-2002,-4425
-54,-85,17,12287,-420,-3046
113,90,-29,8773,-185,-3890
-111,62,8,6146,1030,-5948
82,4,121,3162,-50,-1827
-127,-68,-71,-974,-111,675
111,103,5,-2590,787,1822
-52,-115,106,-2431,-970,1381
53,106,-121,-6926,-1453,2933
81,-117,20,-8164,-1478,3056
24,50,-111,-9911,-1049,4305
-18,119,41,-8003,199,4598
-32,52,-95,-5506,-995,5807
22,-113,25,-2718,-2658,5271
-96,39,-88,-984,-3172,4734
10,-60,7,3235,-3102,2645
110,-50,-66,4666,-1488,1715
48,-126,-83,3082,-1034,998
45,-11,-108,2457,-139,718
22,-103,-107,2104,-674,653
-26,121,-94,770,-638,238
-109,77,-73,217,-259,-921
-106,27,-47,332,639,-658
86,-50,-126,1399,484,-622
100,-43,97,1714,473,-688
-111,-29,82,1509,606,-327
-97,-18,90,744,311,-236
-72,-18,95,431,-65,-180
-62,-56,84,1058,24,-710
-48,-85,94,1686,-38,-861
-50,-68,-120,1176,-263,-401
-24,-53,-104,570,-79,249
-78,-38,121,150,300,209
-63,-62,114,471,-212,334
-19,11,113,-373,-38,1247
-46,55,69,-752,235,741
-86,19,50,360,146,-275
-88,17,50,860,82,-478
-64,48,54,663,-42,-221
-52,44,44,569,145,-333
-64,28,38,830,111,-598
-53,11,36,1134,-37,-686
-29,9,46,1005,-66,-480
-21,16,64,683,-140,-10
-38,54,72,154,-17,317
-91,35,61,226,-238,-95
-25,67,77,74,-59,658
-24,115,53,-408,344,597
-61,-104,103,-4046,-148,-5488
5,92,-77,2645,-1186,-7165
-50,-16,13,3840,-2067,-5658
-120,65,-64,14754,-3663,-6706
-35,6,72,11016,-1480,-7599
-59,89,92,1076,830,-4887
-73,-92,126,5027,1079,-4909
-115,-57,-89,2375,355,-875
56,118,42,-2232,-47,1948
122,-65,10,-439,1055,854
-46,-85,-86,-3464,-2031,2634
104,26,-46,-7271,-1837,4011
34,-73,64,-8393,-1883,4486
-70,107,-105,-11425,-1914,4531
-78,-74,42,-8880,-823,4766
-75,13,-76,-4571,-1996,6403
23,71,77,621,-3640,6548
-57,-9,-82,2160,-4703,6246
-107,71,81,2798,-1213,2707
-67,71,-111,2352,-1663,2739
97,101,102,3620,-1834,1017
-32,0,-115,2365,-3659,-56
54,46,25,4860,3711,-2888
9,-43,113,-4714,1996,-202
72,56,-2,-3296,1177,254
109,-51,-22,405,1076,219
109,-54,9,3280,309,-468
-118,-27,28,3098,52,-1029
-75,-10,49,2027,-42,-696
-53,-19,94,761,-511,-354
-55,-32,108,1,-680,-10
-70,-49,116,147,-734,247
-77,-37,110,371,-645,563
-97,4,105,-46,-595,787
-94,25,108,1403,191,-601
65,57,36,3723,1331,-1409
-51,73,-44,1322,-603,309
-109,36,123,-1162,-163,155
-78,-18,80,-615,-15,292
-56,1,53,-239,616,610
-87,26,49,263,366,219
-86,-2,31,1509,191,-205
-73,33,40,1222,57,-104
-48,37,40,717,-22,-125
-53,31,52,553,-225,-62
-61,32,83,538,-308,-76
-44,26,85,716,243,-143
-46,7,77,841,320,-279
-18,16,94,949,-263,92
-27,46,82,622,120,-30
-44,41,119,4849,-1724,-6478
87,-125,123,1803,-1671,-6991
-35,-86,66,7928,-5700,-6328
-76,-33,-5,11909,-6873,-4093
-71,87,-66,8924,-4063,-4878
-11,56,-111,638,867,-5946
32,-5,-98,7257,1107,-7842
-94,121,-103,308,2029,-250
-97,93,-92,-2491,-166,2207
2,-106,-90,-919,-318,928
-83,-85,101,-3312,-2440,1944
-125,0,-121,-5622,-1955,3486
105,-124,105,-8160,-1695,3622
17,9,-54,-9956,-1558,4554
18,48,99,-7557,78,5662
16,-63,-89,-5019,-791,7771
73,117,-9,-3921,-2442,7651
-84,-68,-116,-4618,-4458,4968
51,-109,48,3528,-3310,1673
100,-87,-59,4554,-381,676
44,99,-99,3019,-1114,207
42,0,88,3493,-967,566
10,33,55,2042,-1549,610
-47,-1,88,613,-2688,-1704
-67,89,28,-676,3079,-361
30,-31,29,1984,338,-1775
126,11,78,1096,253,-1078
-103,-14,60,936,893,-180
-102,-73,39,1553,983,-255
-86,-72,60,1699,426,-223
-52,-72,91,1520,-208,94
-27,-56,105,853,-399,438
-27,-40,115,153,-212,497
-51,-47,-121,331,-602,704
-44,-29,-105,474,-442,913
-111,5,117,172,-29,475
-101,-16,119,233,-43,-235
-57,24,104,-73,279,349
-89,55,85,-414,128,271
-109,-4,54,969,330,-654
-96,3,49,1147,457,-667
-78,18,37,837,298,-482
-75,4,26,824,189,-435
-63,8,26,590,65,-269
-56,35,49,169,-426,86
-48,38,56,251,-154,-26
-41,30,48,619,224,-277
-36,40,52,673,-96,-141
-9,66,62,413,-81,184
-61,61,44,371,-48,-309
-37,-39,-52,2158,-799,-6215
-93,-54,-71,2308,-1143,-7177
-95,-30,-126,4242,-637,-5091
-40,61,-87,8597,-959,-3370
126,-55,87,14634,24,-3766
-5,77,-50,14681,2522,-10641
-97,-97,-67,3851,-1339,-1026
6,64,-79,-7055,-1398,5903
-91,-60,9,-697,-434,1913
93,-88,-104,-4097,-961,1204
-41,-33,-40,-8986,-587,3887
-78,-2,53,-9625,-1035,4100
-98,-52,24,-9500,114,5478
123,-58,121,-7387,-1273,6764
-81,94,47,-587,-3345,5715
-34,13,31,2663,-4019,4021
57,17,-122,3785,-2182,2577
47,51,120,1805,-990,2635
24,-92,85,832,-704,1732
-37,0,16,2167,-843,23
-58,82,93,5078,-2245,-1948
-88,-127,-38,-2489,2326,371
87,103,18,-739,-914,374
84,32,46,208,346,-595
86,-14,11,1712,1203,-1067
127,11,24,1937,1181,-856
-89,28,45,1713,354,-314
-71,23,52,1124,60,-244
-59,7,52,662,-129,-378
-40,-5,77,602,-414,-93
-59,-10,92,811,-384,96
-63,-15,100,1135,-52,8
-50,-3,94,1062,196,122
-42,3,92,831,-9,363
-11,22,101,598,-8,765
-80,32,69,441,188,140
-67,-3,83,783,-194,-244
-27,60,79,24,112,585
-71,74,72,-416,100,270
-87,30,43,611,328,-468
-70,29,33,1069,290,-495
-60,49,26,697,37,-351
-50,44,23,530,-113,-355
-46,53,43,325,-208,-237
-45,46,46,509,11,-385
-38,38,49,808,14,-400
-34,50,50,641,-24,-144
-13,68,54,244,-90,188
-37,91,45,186,108,53
-59,72,51,490,-187,-315
63,-104,-16,1867,-1274,-6312
-128,43,-126,3857,-2479,-7239
97,-65,-55,7640,-3802,-5715
-87,-127,-115,5459,-1518,-3463
33,114,14,2692,35,-2443
77,1,123,9257,22,-5193
-62,-8,104,6593,326,-5683
99,43,8,2221,-21,-1187
-42,-83,122,-924,1006,1721
93,-98,62,-1429,228,1660
95,-52,79,-2922,-753,1911
0,56,79,-5831,-1499,4103
-28,-89,25,-9406,-1387,4326
-40,23,23,-8940,-260,4633
-73,84,74,-6705,121,5271
-34,-69,-95,-3909,321,6354
48,-50,0,-759,-1552,5823
-31,75,-43,1965,-1897,4828
33,111,117,3389,-2722,3911
104,125,93,3016,-777,2237
98,119,38,1174,-110,1523
-39,-28,-4,1701,-1809,436
119,-69,-98,8944,-817,-2771
-77,-62,-115,-3243,2408,-655
-123,-22,119,-2139,-574,159
-119,-68,65,-529,456,520
97,-104,39,717,1201,-236
-116,-81,59,1721,712,-505
-66,-62,60,1665,474,-309
-45,-48,72,1200,74,-259
-41,-35,97,225,-496,-98
-45,-28,111,-231,-653,140
-56,-38,112,197,-474,188
-58,-35,108,792,-120,69
-56,-20,105,887,153,-86
-45,-9,99,857,102,-75
-46,1,105,600,-153,121
-52,20,107,325,-52,147
-83,2,92,339,-21,-224
-34,15,93,202,151,372
-40,59,74,-268,216,477
-82,29,47,592,188,-290
-68,27,45,976,244,-421
-51,40,33,741,224,-161
-43,34,20,685,102,-170
-47,34,23,641,-101,-187
-40,40,38,547,-275,-152
-26,41,55,588,-118,-139
-29,38,59,743,79,-245
-21,34,63,939,37,-124
12,-112,-70,2834,-815,-6543
16,0,-112,5693,-2763,-5877
74,-16,-74,11279,-3618,-5265
-65,17,71,9228,-1297,-4978
-122,64,65,6829,-542,-4710
125,62,56,3875,964,-4636
102,-31,59,2718,147,-1433
127,-76,-76,-336,837,1090
69,106,81,-1525,647,979
-11,69,-126,-857,-121,1213
98,-26,-25,-4380,-933,2986
110,112,-94,-7107,-476,4057
51,-76,45,-9527,-366,4221
-10,-124,43,-10618,398,4990
-58,-119,23,-7577,-657,5343
-3,-18,114,-3825,-1284,5065
106,-104,-64,318,-4204,4199
-29,-42,-27,3378,-2877,3548
27,-41,-81,3326,-419,3224
26,-114,79,2124,258,1958
35,97,43,1269,-808,1293
22,94,18,1649,-2055,816
65,-10,-26,794,-4161,-1955
-57,112,126,88,4814,-846
40,-40,-4,2155,169,-1901
96,81,87,114,-116,-494
-114,23,38,204,719,495
-95,-49,21,2072,739,317
-77,-36,37,2214,425,13
-39,-21,61,1665,-94,291
-21,6,110,515,-623,590
-43,-1,-126,98,-628,412
-73,-56,121,1255,-89,-39
-59,-63,124,1817,187,-69
-36,-12,-108,730,61,590
-86,23,124,-107,56,522
-95,-8,120,117,-112,-5
-56,24,101,-116,325,307
-78,21,81,111,281,-92
-86,-14,56,1040,269,-651
-77,-1,53,972,160,-680
-59,-2,48,698,71,-647
-39,-18,46,726,-29,-571
-35,-13,58,580,-147,-400
-32,-13,69,611,-130,-327
-32,-17,85,786,-71,-219
-32,-7,93,709,-50,113
-3,18,109,440,-5,491
-39,46,79,286,287,230
-46,45,91,419,-151,135
61,-69,-89,2097,-1155,-6227
94,104,88,8152,-2945,-6052
97,-13,125,7660,-2938,-3999
117,5,23,8991,-2452,-3128
-60,34,105,5402,-1210,-1845
-31,-46,-31,4998,-1593,-1386
-6,-9,15,1984,-905,-1611
-72,48,123,3752,218,-3111
38,-98,-63,861,880,-1460
-63,96,-86,-2094,2651,232
57,-74,26,257,-1201,778
40,69,-22,-1685,-1715,2804
-104,32,79,-4646,92,3346
126,37,-13,-5078,193,2980
92,-48,-79,-8879,491,3358
91,-66,-56,-7276,1475,3227
108,85,-78,-7474,1836,4496
91,-72,-45,-5163,255,4467
-55,70,22,-2209,-877,4913
-4,121,105,940,-2060,4712
92,76,109,3658,-1629,3593
120,120,95,2987,-206,2483
77,97,-126,2127,-719,1921
-60,-23,-55,211,-1874,1173
32,-17,-100,1889,419,-550
19,98,45,2376,1767,-1354
98,60,-29,-3062,-1361,431
-104,-43,87,-1253,889,96
-120,106,7,1202,2087,-807
-89,127,57,2549,1010,-971
-49,-101,81,2568,220,-508
-16,-86,111,1564,-362,5
-12,-48,-104,-286,-1027,710
-27,-12,-94,-1465,-1190,1065
-70,-7,125,-1289,-906,1068
-89,-13,99,-57,-299,629
-96,17,-69,1384,-446,-1338
54,56,0,2873,964,-767
-88,64,-106,1671,-640,242
-120,62,113,-763,214,314
-101,27,83,-1318,586,418
-78,51,39,-937,825,728
-111,51,17,485,466,309
-101,30,14,1487,208,-727
-56,55,14,1327,-256,-734
-44,75,35,611,-539,-237
-65,66,52,166,-320,-295
-74,34,54,629,-159,-304
-65,44,69,865,-339,-23
-47,61,79,606,-479,-73
-73,22,-86,3726,-1065,-6870
9,-51,-112,8352,-2268,-6150
109,28,50,15572,-3786,-6744
-22,19,-40,10167,-2302,-6509
36,27,-63,3492,-1205,-5708
97,-68,-117,3980,-1389,-1419
-84,56,-94,-199,716,795
-40,-106,15,-1972,1795,1357
93,-53,5,-3071,82,1945
-85,58,-59,-5962,-180,2795
19,106,78,-7565,-685,3149
104,64,-64,-10130,529,4322
45,121,86,-8904,80,4243
-127,-102,98,-4564,228,5365
-92,111,8,480,-883,5595
13,-36,26,-28,153,5103
96,-127,48,668,-436,4842
91,92,62,2153,-461,4107
79,-36,-91,4337,-957,2339
23,-55,-79,2230,-153,720
-15,-72,-21,669,-5312,701
-113,25,-117,-2247,1745,474
-114,82,58,-3408,4523,-253
68,-35,-33,-1425,1564,-860
108,-49,60,1718,75,-1281
-79,-82,5,4086,-120,-1353
-55,-60,36,3329,-123,-1143
-30,-29,110,1252,-520,-520
-23,-10,-102,-797,-601,330
-42,-26,-114,-748,-550,707
-47,-42,114,243,-126,620
-71,-34,120,1150,20,556
-55,10,-105,984,-166,805
-24,79,-121,252,385,1043
-82,43,92,32,282,-22
-53,25,99,358,141,-186
-16,97,66,-325,561,697
-86,95,58,-191,292,14
-97,16,13,1329,551,-1183
-46,38,21,1290,359,-839
-24,56,23,846,-37,-501
-42,49,36,371,-379,-525
-39,39,43,330,-380,-399
-36,38,71,506,-537,-104
-20,51,92,571,-449,117
-24,62,99,623,-17,101
-32,77,115,727,217,240
-4,87,111,586,358,530
-36,-124,104,45,352,544
-46,115,80,57,32,226
-32,-97,120,3381,-2106,-6601
-17,-45,32,9707,-4748,-7016
77,73,11,13504,-6488,-6708
-11,93,-44,9024,-4830,-6305
100,-48,-98,4269,-170,-5576
-11,110,-2,3609,548,-3026
-3,-125,-83,433,540,-42
-107,-89,-125,-285,1356,-189
-45,-63,94,-412,-117,294
16,-64,45,-1961,-1487,2772
-95,-97,-114,-4580,-884,3587
-128,31,83,-6658,-683,3422
96,112,-53,-7265,-673,3346
108,-26,37,-7977,547,4272
60,27,-65,-6079,262,4825
118,123,-72,-3335,802,5809
-43,7,-82,-707,1812,7422
-19,101,70,384,-1953,8770
52,-73,34,1577,-1792,4499
-122,-47,-102,912,-1486,2426
30,94,-51,300,-863,1490
-46,-86,-64,1383,-110,10
-74,-111,-31,1872,798,-1871
-47,-123,38,378,494,-1248
94,-23,-94,672,-236,-478
101,-52,-125,1035,424,-703
118,-54,103,1085,737,-578
-108,-42,89,764,678,-356
-102,-59,84,1152,195,-318
-96,-63,96,1159,-223,-261
-81,-44,-126,873,-476,-21
-73,-56,-105,1193,-347,-50
-50,-45,-100,1317,198,-84
-39,-32,-103,1077,239,-200
-10,-41,-114,1181,223,-10
-48,-25,122,924,293,74
-65,-76,124,941,-232,-560
-8,-62,-115,693,-189,200
-23,-21,-124,-370,71,408
-55,-66,116,449,96,-201
-63,-90,113,1263,149,-330
-70,-63,120,968,52,-44
-44,-43,117,492,66,238
-30,-44,115,595,132,54
-37,-58,110,1063,161,-309
-22,-69,119,1308,101,-346
3,-65,113,1021,213,-128
16,-51,109,329,47,343
-71,-36,123,107,-275,396
-46,-24,-125,25,-197,574
12,-94,25,-4221,1520,-4531
-82,-58,112,-3534,1556,-3633
-8,14,-111,3168,546,-4219
-68,11,-79,16818,-1449,-5668
93,-97,111,22215,-2733,-6568
-48,-96,67,6045,-385,-5128
-95,-21,98,783,-574,-3645
9,-5,110,2632,189,-2365
-119,-45,-44,-2131,319,1745
98,-110,70,-3469,1747,2572
-101,18,-73,-6562,-30,4316
-49,-85,-16,-10161,2328,5041
115,11,-36,-11671,965,4374
-83,-103,73,-8681,2370,5277
-61,58,32,-5294,-371,4944
105,-93,36,70,-2371,5491
-53,-74,-67,2927,-3672,2578
7,-96,-82,4047,-2154,904
109,-31,-36,2127,-329,1733
0,68,-32,1308,-341,1027
-59,-94,-124,1913,344,390
-68,124,110,1375,91,208
-91,59,113,1294,-468,79
-70,-9,105,1646,-384,177
-84,2,86,1280,274,443
-103,25,87,408,448,294
-120,17,77,160,180,221
118,-23,62,1086,78,-413
120,-36,70,1469,-17,-591
-115,-30,77,1086,-34,-410
-105,-10,91,640,-14,-79
-89,-50,93,893,-167,-38
-109,-113,39,1847,-632,-722
-100,-88,82,957,274,-948
-45,-73,114,55,-33,44
-11,-44,116,-424,516,838
-16,-88,61,345,1006,-113
-74,-97,84,1888,101,-580
-42,-53,-95,948,562,-768
5,-4,-72,25,601,-834
24,-61,-112,1484,1192,-1232
54,-34,-77,1633,727,-1244
99,42,-7,515,470,-575
74,47,0,164,-58,-1094
75,52,13,-112,639,-1241
69,106,-32,109,-581,87
34,-89,-49,-102,-830,1840
28,-97,-60,-178,185,740
100,-63,-76,-160,1021,612
70,-48,-32,-86,211,291
-99,-119,-68,3030,-1246,-8142
79,-39,-56,2768,-3246,-7751
-55,-75,5,9701,-4178,-6216
92,-50,-4,16941,-5170,-5695
114,52,-77,5287,-1442,-6147
82,-95,-103,475,1095,-5224
-128,-63,-107,1223,-781,1581
-104,-127,112,-601,-21,770
-17,82,-118,-1257,936,716
-41,67,-57,-3656,846,1124
57,-89,54,-7613,698,3056
63,120,39,-8500,-1394,3637
67,89,-126,-10912,672,5950
-42,57,-4,-7780,92,6476
-15,-83,68,-2858,-142,7796
-122,-107,-7,2563,-1057,6716
90,-8,-76,2169,-1671,4669
27,73,-50,810,-2439,3855
-10,-96,-44,-1174,-844,2213
-39,-16,71,764,1615,1020
111,-76,93,1291,878,-867
82,57,114,2499,-251,-2003
84,-26,-127,3380,-619,-1962
121,-12,-94,1958,72,-1203
-111,-9,-90,410,606,-691
-111,-74,-107,324,495,-527
-81,-115,-116,1405,310,-386
-61,-91,-98,1526,100,-46
-56,-52,-77,621,34,468
-46,-11,-65,-177,3,780
-64,-60,-108,512,216,278
-58,-50,-97,964,132,242
-41,-29,122,769,579,212
-74,-38,108,1085,133,103
-70,-23,124,921,-126,113
-77,-6,-124,518,-31,-165
-58,-61,-124,1250,99,-780
-37,-83,-115,1787,-33,-791
-30,-56,-82,1112,-97,-466
-16,-83,-76,1152,131,-464
-9,-96,-67,1311,138,-296
20,-88,-77,1010,144,160
23,-51,-70,444,-30,726
-61,-50,-94,456,9,31
-27,-69,-78,1374,-172,-96
6,-19,-102,584,445,194
-19,-5,122,-60,143,82
-23,-29,103,218,-31,-225
-30,-12,117,-289,-52,-298
-11,-44,108,318,38,-559
126,-61,-90,11220,-3362,-8570
125,66,78,20088,-8819,-9901
108,28,-76,9785,-4829,-9699
-115,-50,50,-661,1163,-1898
83,-19,-60,2351,238,-1665
-89,-12,-100,370,831,43
-42,-83,-104,-1208,1131,785
-120,89,-26,-411,281,300
-35,-96,-18,-1302,-252,581
116,-8,15,-6255,146,2567
71,94,42,-10180,-1451,4403
124,-41,-32,-17404,-2394,6264
41,43,62,-12059,-4985,5753
-99,-66,-58,1710,-3243,4318
47,-78,73,4394,10,1711
-64,-92,44,-913,-857,2420
-12,18,-72,3623,-435,1663
14,19,-77,2094,-227,1796
80,-75,-83,1774,170,2876
-124,66,-87,2549,611,3513
-106,-3,-72,2067,-42,3343
-71,-21,-90,696,-490,3257
126,-99,-106,623,-831,1579
88,90,105,649,-377,73
91,59,78,1646,618,-748
65,32,92,1636,792,-1263
94,-52,93,1860,600,-1939
-95,-107,92,2683,343,-1887
-44,120,117,2808,244,-1338
-30,122,-65,1751,-38,-616
-26,-101,-41,-12,-225,11
-26,-71,-59,-886,-98,433
-33,-36,-96,-1211,115,662
-60,-29,-123,-659,227,429
-61,-13,116,528,338,378
-60,10,-124,896,240,235
-43,27,126,791,396,240
27,24,124,540,538,234
-15,33,-119,688,160,181
-80,40,-87,850,-110,-438
-58,110,-18,41,-348,-227
18,95,-42,-630,334,-611
39,64,-88,290,813,-929
-13,45,-88,1266,135,-1186
-6,48,-83,1075,27,-888
-14,64,-81,550,170,-134
-33,92,-87,8,16,471
-32,-120,-78,-302,-292,732
0,-82,-74,-459,-223,589
9,-90,-83,198,-145,395
65,-74,-80,4311,-734,-7181
-44,96,127,8769,-1768,-6443
99,36,70,16225,-3912,-5427
6,-1,-44,9694,-2624,-4067
28,-48,31,-1846,-186,-1971
-49,-39,-123,3068,946,-3255
-56,-52,4,1652,524,-700
-57,-26,-82,-1839,-21,2977
19,106,107,-4642,-179,3125
-28,68,-114,-9977,-536,4742
-61,83,-53,-12739,-1635,4510
-79,-76,-65,-11902,-331,6255
-117,27,-63,-7063,-1070,8714
36,72,-84,-542,-4090,8110
19,3,93,2155,-5269,4913
-41,-56,108,4279,-1810,1449
112,99,77,4427,-757,363
45,10,43,3718,-400,1116
-24,-19,-40,1750,-1922,589
67,33,15,6447,389,-2054
-108,-34,23,-3640,1017,-661
122,-78,116,-1675,994,-712
103,101,86,2338,1148,-563
105,-111,-87,1990,-85,-1014
-72,-46,-60,534,-248,-174
-52,-55,-118,-282,863,-169
-80,-80,121,77,318,28
-87,-53,119,181,-211,164
-80,-41,112,172,-151,-158
-27,-56,108,828,-23,-295
-36,-49,107,1012,-33,-266
-71,-22,-116,556,-480,-38
-59,-40,-112,900,-198,83
-50,-32,-116,977,129,295
-44,9,-115,296,2,664
-48,43,-112,-120,-131,926
-92,43,96,58,-13,307
-71,96,-116,-517,-579,810
-29,-119,101,-654,287,313
-65,86,46,444,870,-695
-85,83,47,679,432,-975
-60,88,36,692,101,-832
-34,87,31,648,-21,-691
-27,75,23,607,64,-840
-37,76,35,547,-171,-651
-40,76,55,588,-233,-499
-32,30,42,1428,132,-571
-53,42,59,1269,-167,-61
-40,71,98,547,-253,727
-50,-122,119,-404,190,1209
56,74,84,1536,-39,-6450
-119,-49,51,10206,-3166,-8133
-74,75,-55,15104,-5355,-7724
-93,-49,26,13308,-3403,-7841
38,-114,-122,3670,738,-4744
98,-58,-111,2400,-877,2040
-37,-23,119,-1467,1075,1331
-76,26,-90,-1119,1270,969
73,13,-14,-4071,1021,1459
26,-17,-26,-7838,-1501,3537
79,-67,-50,-11959,1130,5186
-95,10,-82,-10925,-707,4836
-34,-42,-69,-7622,-717,7351
-42,29,120,-3556,-3161,7277
-65,-78,-101,1860,-3669,5787
122,84,-10,5066,-2235,3091
-24,106,124,5647,-347,2613
-107,65,27,2905,501,2595
47,84,-125,134,-1388,2599
85,-9,-92,-1847,-1521,189
34,13,110,803,-76,-2993
67,-78,69,3088,1446,-3739
116,-47,85,3078,1142,-2536
-99,0,-122,1152,294,-727
-76,-14,-113,-276,-60,-179
-57,-90,89,195,157,-532
-40,-127,80,1577,241,-745
-47,-105,108,1542,-157,-204
-39,-66,127,538,-246,551
-41,-53,122,101,28,692
-51,-67,101,517,175,649
-44,-47,101,743,23,710
-15,-32,87,745,173,514
-28,-19,76,1073,84,78
-79,9,127,377,-304,-143
-53,-3,-106,158,563,-581
-4,-19,-111,610,751,-342
6,19,-89,-17,529,-384
20,39,-78,58,749,-665
43,52,-51,58,650,-801
97,67,-52,329,492,-742
54,29,-98,1090,55,-781
-18,24,-114,848,-306,-556
-21,37,-115,483,23,120
-15,81,-104,-300,-43,770
7,105,-114,-420,-221,873
24,111,-110,35,-154,582
49,-127,-98,427,147,303
50,-110,-86,691,303,-5
33,-100,-82,494,17,-7
-115,60,2,5822,-2226,-6350
-98,-39,-62,13466,-5702,-8074
-31,67,-111,17836,-8661,-7937
30,-79,-85,5044,-3125,-2337
-89,5,-57,-591,1332,-1599
-108,86,60,2590,1721,-776
109,-6,-104,-1068,-383,2350
22,-13,-45,-1341,475,1398
87,76,60,-5135,625,2084
-56,-48,-16,-6357,-1541,3076
3,77,59,-9756,-653,4230
-36,-111,69,-8657,307,4827
-85,32,32,-6245,-743,5379
-11,-83,87,-3628,-353,7159
-7,126,19,-1679,-2724,8403
126,-80,121,3737,-6321,9348
-12,56,-115,3138,-2823,3831
-19,63,90,-1335,1483,-1358
119,103,21,4705,1962,-4152
65,58,58,-1296,2164,252
7,-2,-4,3090,-1090,-1522
8,70,-110,1987,-1097,-1537
72,15,59,1482,1113,-804
-95,23,27,1429,1826,114
-78,28,53,730,1260,170
-67,-4,40,1046,533,-62
-57,-12,77,1285,-739,-39
-35,7,-125,821,-1247,284
-67,3,-127,798,-466,410
-86,-19,125,1175,270,120
-87,-22,126,1287,615,-40
-62,-20,121,1278,44,247
-20,-13,-125,1049,-393,609
-17,5,95,695,275,332
-91,-12,127,621,-459,-371
-57,0,-109,305,-163,10
-38,12,124,165,552,1
-63,-23,102,801,374,-444
-76,-14,98,838,110,-600
-55,-9,92,472,223,-622
-46,-12,106,202,601,-1530
7,3,110,1381,478,-1463
30,53,-127,1206,132,-214
18,63,-106,355,-10,-527
49,43,-124,785,158,-235
48,87,-109,147,161,255
13,65,118,435,-206,210
10,112,-109,-591,-323,857
29,-119,109,-825,59,1121
7,111,78,261,249,247
-19,-24,-12,1749,-2501,-5628
42,0,-86,6105,-4172,-5971
-45,124,12,9379,-4831,-4144
-38,-106,45,10289,-3931,-3675
124,-7,-3,6034,-1893,-3650
-111,-99,-34,3300,943,-2871
100,93,-56,2780,236,-932
-68,23,-104,-1441,988,1198
-109,-97,119,-1521,1314,636
13,-107,23,-3582,-864,1710
-35,-114,13,-5591,-1600,2423
37,119,-113,-8202,490,4018
-92,116,-18,-8990,-406,2994
-3,43,58,-7318,1284,5000
-22,-73,81,-4210,94,6068
98,-83,-94,-3920,-484,9537
-62,-117,-75,242,-3431,9471
-24,54,68,6513,-3007,564
91,42,-13,3412,-963,1390
-25,42,110,4671,-192,-861
103,-20,-63,4094,2908,-3141
-96,-51,-10,-2411,-1199,-461
-116,74,118,-4707,-1414,546
-113,-48,-13,-1314,1217,-100
-98,-94,0,2501,1332,-437
-85,-30,78,3020,333,-790
-50,-9,75,2013,-21,-419
-4,13,110,539,-414,79
-11,28,-112,-681,-746,428
-50,9,-118,-176,-650,475
-69,7,-101,750,-220,409
-59,29,-116,1064,351,344
-43,57,-125,839,368,409
-28,65,119,681,223,640
-45,79,90,448,446,321
-89,43,93,665,-379,-142
-30,70,115,320,-274,346
-19,89,95,48,296,91
-65,36,75,825,267,-772
-71,52,89,761,-2,-475
-64,60,86,366,-11,-262
-42,51,68,339,281,-195
-46,50,56,489,42,-138
-50,70,65,298,-343,-74
-23,69,73,419,-159,-186
-41,62,82,690,-160,-272
-41,76,87,774,-215,-24
-24,96,98,574,41,139
-21,102,77,571,583,-34
-41,77,62,877,31,-1
-122,68,-54,-2320,638,-5199
-88,51,117,-900,1900,-5974
48,45,-116,-1323,1858,-4343
-102,87,125,3297,1373,-3274
-60,-86,93,17140,-183,-3656
-96,74,91,17985,-950,-4327
63,60,-113,7902,-979,-3914
-95,-86,-10,3739,-1040,-1930
78,59,-28,2367,-571,-2427
-48,-74,10,609,362,-696
101,-73,-9,-1514,1066,409
-74,123,41,-920,-232,676
94,11,58,-3468,-666,2255
106,87,88,-6605,-1027,3103
-96,-104,-72,-7777,1107,3979
27,-21,26,-9449,-778,3658
89,73,90,-8477,1939,5291
17,107,-87,-5540,-579,5040
95,-93,-27,-4329,-731,6324
108,108,-117,357,-3470,3100
-47,-103,-67,5054,-2555,2181
66,114,-39,1821,-700,2698
9,-38,12,415,-805,2289
2,-83,-41,3129,-488,907
4,-22,-74,1103,-244,-547
93,-105,74,1569,1490,-791
75,8,-113,1468,-339,-166
93,-3,-81,-249,55,-364
-128,-59,108,671,1034,-167
-113,-54,100,997,767,40
-94,-37,111,1090,50,49
-84,-49,-118,1216,-457,-343
-83,-52,-103,907,-343,-349
-79,-42,-73,484,-319,112
-84,-39,-71,564,-164,456
-74,-19,-81,555,3,394
-71,8,-72,685,-214,61
-29,-5,-94,1051,207,-117
-56,11,-103,672,440,-175
-72,0,-98,464,12,-41
-54,11,-125,-83,435,401
-73,1,97,278,444,93
-68,-24,65,1102,338,-133
-69,17,77,618,-75,68
-65,32,102,213,-518,14
-55,13,112,570,-57,-337
-58,-17,108,1193,183,-670
-37,-19,122,1227,-4,-415
-34,-7,-125,719,-118,26
-25,14,-116,233,-96,396
-27,-106,-100,8212,-1645,-7054
-113,-18,-90,21451,-6343,-8154
18,-121,-98,15526,-3175,-7821
-126,-22,25,-1374,606,-2005
-24,91,-66,3065,503,1595
-107,80,79,-3350,471,3399
-23,-50,-109,-2407,-121,1565
81,20,-13,-2705,367,629
-6,75,-67,-7055,425,2330
-22,55,-64,-8011,-452,2924
3,59,55,-8860,1671,4984
99,-116,34,-6808,-636,4130
-12,42,96,-2229,470,5490
98,5,49,-2200,-1009,6493
-110,101,102,-3831,-1960,5552
-37,-34,73,-517,-2695,3745
9,-48,109,2384,-2702,2589
41,-62,25,3211,-2058,1192
25,-80,-18,-2364,596,-2865
67,-102,-128,778,2267,-910
85,31,-57,4176,639,-516
66,123,-122,1552,-1761,-1154
-81,92,82,733,132,-587
-64,53,-12,979,1917,-325
-75,110,62,-19,390,135
-80,112,77,-174,-675,310
-40,122,87,257,-658,363
-41,-118,99,444,-170,127
-48,-112,96,446,201,-234
-48,-115,107,574,155,-262
-45,-123,106,847,51,-277
-28,-128,104,905,134,-296
2,-115,111,703,124,74
-53,-99,106,203,142,-206
-64,-126,108,486,-104,-10
-41,-96,101,-40,70,543
-31,-102,86,269,111,408
-36,-105,68,675,13,101
-50,-110,69,783,-140,-29
-43,-113,80,623,-134,-7
-33,125,77,754,-40,10
-33,-107,89,381,-92,166
-34,-119,88,598,24,-74
-26,-107,94,461,76,-76
-7,-118,95,690,-66,-35
-4,-74,117,124,43,232
-49,-95,82,-44,223,-332
-26,-102,106,273,-81,121
-40,-88,64,56,317,116
-36,-112,66,827,-49,12
107,48,-91,-2459,2669,-4619
-108,96,88,868,3185,-8840
66,5,-39,15886,-1127,-11941
35,111,2,21705,-7488,-11978
-50,75,79,6441,234,-7986
113,-48,-79,7259,55,-2485
74,66,-16,-3095,98,3164
12,-127,-104,-2159,574,2109
101,2,85,-6541,1522,2574
-88,-76,-85,-10777,-1871,3393
26,-11,20,-10160,1066,5460
-90,-13,-51,-9689,-619,5871
-33,-56,56,-8162,-1242,7781
38,-58,-33,-4574,-4494,9246
47,35,-23,2073,-3565,2492
51,12,19,6530,-1059,2730
-47,-128,-55,2656,-183,2493
-26,-71,122,1133,-790,984
-54,-35,-121,2617,-1148,-4
-122,100,-72,2526,-1061,-755
-12,-45,90,-2565,1979,-266
-24,45,-127,1506,567,-544
101,-23,-85,1611,-1088,-101
-126,-23,-117,1880,-99,-424
-118,-37,107,1213,931,-1145
-74,-63,97,928,913,-1091
-82,-75,119,1364,-89,-463
-79,-77,-112,1003,-497,-193
-51,-71,-104,718,-153,14
-47,-64,-105,590,56,250
-49,-58,-102,665,-231,465
-23,-11,-79,257,-304,1004
-57,-19,-126,664,159,-141
-78,-11,-89,990,-515,65
-52,56,-79,142,95,206
-56,59,123,-420,481,180
-71,18,77,-1,684,-213
-78,0,52,470,429,-257
-72,11,53,641,-7,-430
-31,7,47,715,-71,-415
-39,41,73,140,-331,-123
-34,59,97,-443,-235,78
-27,46,87,13,250,-182
-42,15,74,1058,320,-383
-32,35,83,1101,-51,100
-52,113,106,49,-204,701
-49,108,109,-166,-238,661
-30,-112,-128,-467,-240,1024
15,-77,86,-614,552,743
-21,-98,53,239,912,-129
-2,-103,-16,3895,-2861,-4563
112,-120,10,7417,-5347,-7252
-106,-19,39,19524,-10791,-10048
50,-74,59,6347,-4588,-5179
-37,-97,-11,2237,-1869,1189
-13,124,13,2451,1541,-1674
65,69,2,1712,1351,604
-91,119,-27,-2281,-57,2207
-91,-88,-97,-1271,218,777
-63,-89,-44,-5812,-1022,2568
100,48,-8,-8099,-354,3088
83,84,-17,-7880,-11,5277
-75,62,67,-9250,-366,5738
124,-11,-13,-5301,-613,7889
-22,-52,84,589,-389,9363
-91,-20,-30,-1084,-77,6894
-2,-61,60,-881,-674,3944
36,-64,53,1795,-495,1608
0,9,13,5829,-2999,743
112,-18,-45,2193,-2057,-1633
13,-82,-62,2389,1990,-1095
-128,-114,125,-427,-272,247
-124,97,55,-2239,-173,926
94,-43,-4,48,1307,-466
73,-35,1,904,641,-984
104,-38,0,1661,-167,-964
-122,-35,8,1325,-155,-884
-90,-40,30,689,-173,-494
-88,-36,33,310,-337,-20
-86,-50,50,548,-425,262
-95,-49,71,606,-151,383
-95,-35,61,890,-408,895
124,-78,36,2480,-1582,845
116,-27,21,3169,-1472,-113
-59,82,-62,584,994,-1713
107,-95,80,1479,-889,503
60,116,-58,1252,-317,-473
13,90,-22,308,-369,-453
71,91,87,-326,637,315
79,104,44,733,-151,-13
86,-121,-8,449,-223,-62
81,127,-13,512,-203,15
56,-118,-20,784,-539,-112
40,-112,-52,379,-303,-61
57,126,-59,527,-204,-92
74,-115,-26,919,-104,-183
83,-86,-42,770,-118,-170
94,-53,-48,20,274,-30
89,-49,-12,99,165,169
75,-80,-74,266,181,354
56,103,-7,-985,1937,-5402
-20,91,107,2584,251,-7664
-103,-76,-67,11200,-3193,-9602
-120,-68,19,20777,-7320,-10020
52,100,-6,3947,-373,-7917
94,-66,92,2518,1276,-3685
47,57,-14,1633,2180,-1141
-16,57,-49,-1480,335,1086
-21,-81,-32,-1427,-45,395
104,-68,99,-2613,-1020,1089
72,5,-103,-6585,-3323,3035
107,-59,-38,-11419,-586,4182
-39,22,22,-9625,-2500,3579
28,91,-17,-8637,-639,6744
98,56,-87,-5014,-1488,7002
98,58,66,513,-2270,8274
4,-114,-7,3471,-2744,4819
-114,-94,30,4059,-1814,3041
-11,-91,6,1447,-1411,1821
38,-86,-61,2117,-1437,481
-91,-26,-100,2120,-1082,-1084
-11,-29,62,-2289,1370,-1259
-14,42,101,9,297,-284
-118,-84,-85,2489,-646,-652
-113,-71,111,2038,53,-571
-30,-79,93,1972,759,-301
11,-36,102,337,1060,318
-1,-20,99,-286,493,531
-43,-42,112,158,-381,119
-46,-72,103,1103,-141,-253
-42,-47,127,1056,99,245
-50,-12,-127,289,267,604
-51,1,116,142,259,647
-30,37,109,-246,55,624
-29,41,106,-142,-52,201
-38,48,-107,302,-322,176
-72,40,110,564,421,-359
-68,29,102,630,235,-400
-53,123,124,-668,-71,399
-63,98,75,-427,346,-349
-88,41,50,1139,288,-1261
-39,29,51,1682,152,-1394
1,48,66,1391,-140,-780
-8,56,88,694,-394,-532
-27,34,91,728,-274,-433
-35,14,88,850,-161,-163
-38,1,76,1056,-113,125
-21,30,91,568,-590,900
4,21,-65,-2403,-2106,2202
36,28,93,-2209,938,158
70,63,20,2110,-2630,-5081
-73,23,47,12251,-3812,-8026
-10,-113,85,18858,-6154,-11233
-52,-86,33,5086,1887,-9884
-85,16,-33,5825,1246,-2429
-108,88,-128,-63,1027,1507
-128,19,-114,-1618,1798,1730
34,40,123,-2892,591,1001
70,31,105,-5723,-975,3553
122,95,-44,-9204,-3405,3803
92,-14,24,-10028,-1504,5405
-13,-114,103,-11743,-1845,5434
-19,-113,37,-7556,-413,5800
48,-76,4,-2209,-2598,7674
-22,-111,-116,2852,-4268,7707
94,69,121,3432,-2618,3441
45,88,-123,4603,-1186,1779
96,118,76,785,155,1016
91,97,70,4091,-3641,-417
122,-79,-121,-3804,2816,-474
15,-122,89,3802,-1441,-507
-83,-93,-16,20,-128,-1114
1,46,53,-868,3880,-2219
-62,-20,26,229,1828,-1979
-85,-84,28,2549,329,-1064
-72,-31,75,1379,141,-471
-57,-46,81,804,120,-303
-36,-23,65,695,-90,518
-46,9,71,303,-725,1145
-47,23,85,456,-1523,1094
-3,85,34,278,-535,1120
-24,-113,60,-335,-2126,1196
20,-74,46,-7525,4986,-1893
25,41,106,5420,-4057,673
-102,91,-88,2531,-2346,-442
35,-3,37,-2464,2507,-637
-21,-125,-46,-2404,3223,-303
-120,55,-51,515,333,96
106,75,-65,1411,259,-238
117,-115,-22,235,-107,-87
-125,115,-16,693,-441,505
-121,-111,0,347,-959,823
-86,-83,29,122,-1008,551
24,87,1,3105,-7325,1887
-10,64,-11,-1908,4217,-1162
93,-21,-55,5559,-3169,-252
27,48,-34,-1588,1336,-528
-88,-86,-10,-1267,2107,-436
117,122,3,602,147,379
103,118,-11,967,521,-622
-39,37,-112,5500,-805,-6558
60,35,78,7412,-3648,-8231
-54,-69,60,14174,-4691,-8576
127,44,24,14087,-2924,-7048
-53,-127,-113,1228,-1357,-3083
-69,31,-5,2154,653,-2157
-51,-90,43,3885,1024,-1230
22,19,54,-50,625,894
10,-81,49,-1184,915,1344
125,83,-111,-5660,-223,2570
24,118,0,-7513,-2173,2640
-114,72,-73,-11259,-1825,3439
110,-104,51,-10733,-1533,3453
84,-14,124,-8003,-1642,4786
-123,-79,28,-2942,-2185,5446
-63,-110,-115,2193,-3193,5704
114,5,121,3836,-2864,5898
-125,-91,-110,2269,-465,2368
-65,53,-77,278,1302,3085
36,59,-71,-506,-2151,1423
-46,-63,65,2151,2835,-4001
-13,-41,-14,2932,-3412,1110
-15,-61,-116,-998,1217,-877
60,-117,-107,-1168,3499,-1311
23,31,-99,818,1760,-528
-23,24,124,1799,329,-218
9,68,116,910,328,-136
20,74,121,347,-5,102
37,68,110,401,-246,320
40,91,122,-190,-427,401
21,51,-128,200,-1137,458
23,60,-120,786,-1279,727
1,68,-104,1484,-1711,477
-106,-113,-48,2256,-4224,747
-16,-116,88,-1379,4410,-191
78,42,24,3747,-3291,80
-59,-74,48,-950,956,-411
-23,-92,41,-1993,1763,-286
-92,71,-18,-396,573,-130
-92,77,37,1259,9,-176
-88,120,104,984,-680,-175
-40,-103,104,315,-268,231
-22,-91,103,195,-229,390
-42,-95,111,504,-273,69
-44,-98,120,739,-256,-31
-23,-71,116,503,2,96
-21,-63,114,273,25,36
-20,-59,115,306,-70,119
-29,-42,121,7,110,25
-39,-73,106,309,262,-30
-46,-55,-128,2492,-1497,-4443
-102,90,2,5869,-1716,-8191
-34,-23,29,11016,-5329,-9214
-1,41,90,16149,-6912,-8701
1,-44,-17,5312,318,-6381
-53,-89,-42,1291,1195,-1182
107,111,-36,707,1757,885
-42,93,-9,-1160,-1241,2710
-111,108,55,-687,364,978
-9,-10,-41,-7931,58,2978
60,-10,17,-9477,-2579,3594
68,-45,62,-10901,-47,5511
-42,80,-51,-9012,-616,6328
112,-70,-123,-4875,-1237,8062
-100,-97,-120,-2122,-3476,5859
85,109,112,2432,-746,2902
-123,-105,-46,3553,-418,2302
-3,-53,-77,2080,-683,1241
-18,97,-98,2306,-648,585
-69,7,-83,1904,-324,201
98,-37,-108,1528,-2558,-28
95,-10,94,-864,2269,-811
26,96,111,916,83,-614
-91,-96,74,3169,-864,-561
-108,-24,114,832,734,-1025
-60,-13,-118,-631,905,-242
-51,-35,108,-375,282,409
-31,-44,90,828,242,521
-28,-27,-122,1044,228,-68
-19,-8,-110,883,26,-237
-10,-4,-97,637,-170,-33
11,5,-78,445,-23,109
22,33,-72,569,321,155
-14,32,-67,906,212,-168
0,40,-54,918,61,-20
-45,16,-80,568,-1,-273
-6,3,-70,199,-282,305
38,14,-106,-222,276,655
-4,10,117,12,171,534
-9,15,112,171,22,169
-2,24,102,322,116,60
-7,15,93,676,173,-401
-2,-21,82,1393,156,-560
-13,-16,93,1278,-48,-256
-16,7,117,765,-268,228
5,36,124,431,66,238
10,45,115,726,108,-123
1,34,-122,1124,-162,-162
18,60,-108,648,177,73
-17,40,120,462,-63,-27
-53,14,116,14134,-3186,-8225
7,-92,125,23549,-6449,-11627
27,-93,118,4416,759,-6656
19,86,101,1093,299,1744
-23,-23,41,-1877,714,2340
121,-104,-110,-1657,-115,1610
73,-113,42,-3522,256,1479
-36,-41,-75,-8620,41,3234
-14,-16,-128,-10621,-548,4647
-43,-104,-93,-10873,681,5697
-47,21,-50,-7747,-533,6011
41,46,-86,-2593,-1710,7106
-121,53,63,1505,-3226,5171
15,-107,49,4252,-2255,3818
101,17,-5,2649,758,1797
36,-107,59,2667,-421,755
0,107,102,1954,-2000,1291
52,-79,122,585,-4209,854
-41,26,-40,625,3790,-1587
-38,-125,5,1572,-1105,-699
9,-54,23,89,2,-672
48,-110,-2,150,1530,-790
87,-97,20,-2,1082,-589
-100,-23,21,301,602,642
-86,28,63,-311,-139,1064
-90,39,71,-529,-369,662
-101,23,60,636,-315,79
-106,8,79,1729,-339,-285
-91,27,84,1303,89,-315
-72,34,72,807,393,-200
-56,37,74,567,113,151
-98,34,72,862,-131,-239
-55,46,116,670,-239,-222
-58,68,88,-232,155,177
-77,18,47,330,365,-269
-66,9,40,895,268,-261
-61,25,31,533,261,-117
-61,32,31,450,40,-155
-48,22,35,629,21,-168
-53,19,39,751,80,-170
-65,24,43,756,37,-54
-46,44,50,502,-50,138
0,50,49,730,62,230
0,85,65,542,6,257
-37,88,66,235,-286,-48
-14,103,106,-38,-91,52
-16,105,72,-214,523,25
-33,67,35,616,364,-210
-34,76,21,755,183,-146
-41,98,14,309,94,-126
61,-58,-10,1623,-1779,-5241
61,126,95,1956,-4139,-6896
67,-34,-68,8021,-6716,-6081
4,116,2,14562,-7810,-5555
-89,26,5,5652,-3296,-8733
75,-65,-28,2495,4803,-7615
114,-2,-15,2345,1816,103
-105,-85,-113,-2617,-2176,5037
26,115,-86,-2275,197,1418
-117,-17,33,-5291,473,1328
-27,-103,-100,-8875,-2842,2508
94,36,27,-10957,-279,4607
-22,-69,-116,-10398,-586,5825
-21,125,-38,-7855,-879,5844
93,-54,-28,-2884,-2873,5783
-45,114,109,3109,-3048,4479
114,31,120,2551,-1084,3009
-121,46,-88,2667,-1804,3040
88,11,-110,317,-416,1946
15,78,104,1465,43,890
-90,-55,-64,1347,-1997,709
100,-49,-95,845,1521,-425
13,92,102,3586,624,-1090
-121,62,-120,1628,-1447,-106
-69,12,112,526,366,-398
-92,-43,69,-216,1696,-949
-55,-41,71,-49,1022,-432
-44,-40,82,733,-155,-42
-73,-50,90,1374,-752,-211
-67,-29,104,882,-516,-177
-45,-7,124,262,-279,255
-39,-19,100,479,4,421
-34,6,104,412,-188,540
-42,44,102,174,-273,536
-78,39,100,210,-514,268
-40,72,106,-228,-228,528
-56,111,71,-386,209,379
-100,94,53,18,168,-331
-83,77,26,374,347,-584
-70,72,15,866,154,-605
-68,61,14,1100,-42,-813
-53,47,15,1144,62,-894
-43,31,19,1149,103,-705
-59,10,31,1198,-154,-345
-58,6,47,1303,-185,-71
-1,98,100,145,-280,978
-42,83,40,-202,264,429
-30,77,58,154,-153,548
-28,-107,47,-397,59,914
-46,123,38,321,108,-17
52,9,-36,4214,-3405,-5634
34,-45,-124,11788,-5587,-8627
69,-5,57,7604,-4692,-4133
35,90,-103,4267,-3508,-1293
53,-109,69,6700,-2466,-2348
-76,-33,-99,3322,273,-4420
-39,-63,1,4058,1092,-2435
65,44,-23,-1380,-741,2184
58,34,76,-2647,336,1602
-79,89,-114,-5390,-766,2373
-34,104,50,-10584,-1982,3089
5,-57,75,-9071,-2242,4272
-92,-64,-22,-9456,-2273,4871
-90,-54,98,-7362,-1110,5787
-66,-28,65,-2064,-3026,7595
125,-52,-34,4094,-2917,6641
-96,-45,-118,3717,-2380,4423
113,-31,71,-331,-839,3825
34,53,64,-470,-693,2504
-48,25,89,1180,-876,388
104,127,25,-608,1695,-1632
58,-15,-13,2042,308,-408
-100,126,102,1853,-1088,-409
110,34,32,2127,-581,-1101
-117,7,28,1551,1313,-1241
-90,5,35,1065,1243,-836
-66,-5,68,989,170,-248
-52,-8,81,883,-351,221
-58,17,88,194,-490,570
-64,20,91,144,-323,521
-63,3,81,1068,-205,284
-59,17,87,1397,32,167
-57,43,81,938,-59,270
-25,104,98,992,280,-103
8,93,-83,483,1034,-1055
-40,51,-88,266,-1267,295
-30,90,111,-845,-393,617
-68,48,61,-126,-27,-107
-55,29,38,381,510,-489
-10,56,42,519,607,-217
-20,69,29,503,324,-324
-24,58,30,861,-12,-448
-39,86,56,392,-179,-227
-43,92,63,55,-11,-113
-32,70,54,684,143,-192
-33,69,52,1117,-30,69
-26,112,65,393,-105,207
-21,-114,67,-75,-128,568
-7,-112,70,-90,23,555
-12,-110,57,142,64,486
-106,50,-109,3031,-390,-4973
62,74,-6,2624,-1378,-7002
-53,31,-59,4197,-6106,-6126
-91,-2,46,16125,-9134,-5734
-70,118,-70,9670,-3834,-9892
118,-43,80,-1330,2156,-7909
-118,27,49,3922,1387,-1962
-44,-42,-93,-64,62,899
-61,86,-99,-505,314,1243
-46,127,60,-4196,-600,2545
11,48,46,-8276,-1100,3565
22,-32,-1,-7864,-3904,3412
105,-120,87,-9003,-648,4696
-30,-70,-116,-5443,-1101,4492
2,-49,-17,-5813,-923,8148
-22,-49,-125,-3810,-3941,7636
-64,41,-25,-80,-3557,4485
124,-86,97,5512,-4415,4021
-84,11,-37,2561,-292,1990
59,-70,41,2102,1478,217
-77,72,81,2194,-993,-75
72,-78,-114,2039,-1734,-761
-95,117,-128,25,2513,-504
88,55,-54,1472,-705,242
112,-44,118,1926,-411,-157
-115,-30,-107,915,415,-538
-93,-26,126,80,797,-444
-76,-45,-121,281,6,-137
-80,-65,-110,954,-255,-364
-50,-53,-82,993,288,-553
-17,-30,-91,563,441,-132
-33,-31,-103,413,279,-92
-32,-11,-66,494,-146,22
-34,-7,-76,905,-327,-45
-44,29,-74,651,-189,-37
-41,30,-81,651,-35,-105
-37,19,-106,802,-46,-170
-7,23,124,626,-251,104
-99,48,119,86,-345,63
-80,40,79,-141,-182,-311
6,72,67,-173,-25,307
-62,75,58,37,-115,-177
-63,32,51,1386,-129,-533
-29,89,76,524,-63,-22
-20,78,59,614,147,3
-64,69,75,1140,-105,-1
-65,70,96,1241,108,-26
-27,96,99,537,405,32
-2,69,67,656,487,-178
20,33,53,1288,264,-75
