AccX,AccY,AccZ,GyroX,GyroY,GyroZ
-106,-66,23,5615,1114,-4564
123,93,112,9796,1374,-9357
112,-41,-24,2116,2226,-10927
14,98,37,158,1246,-12608
48,90,54,3780,-2350,-13690
40,93,23,637,-2353,6
-85,-48,52,-1830,-5713,7567
63,6,127,-3834,-7361,6895
87,-100,-42,1684,-1539,1597
-100,-58,-66,1006,5016,-6494
46,-126,-99,2852,1982,-3406
51,-116,114,-1796,621,2675
-96,14,-20,3760,-4659,5298
74,-126,115,2067,-3632,11065
-78,37,-90,6374,-2319,9913
120,-128,-124,-1389,-431,6739
-87,-63,62,-1704,959,5405
-17,-79,106,676,-1341,5023
111,-39,-46,938,-759,5251
-38,16,-34,-1299,-2,-709
93,-18,-58,-1128,939,-3136
40,68,-116,1741,624,-1312
-28,28,-119,1211,-556,783
51,-110,118,-53,83,-72
90,-92,102,-456,12,-525
80,-125,-125,-35,-195,-183
96,-96,-113,84,-105,-182
105,-91,-116,106,-85,-369
95,-103,-116,185,-175,-117
111,-100,-118,224,31,-52
111,-82,125,-56,-84,-28
121,-83,123,-39,67,49
121,-69,105,68,-160,135
-123,-40,107,-329,33,31
-120,-49,103,43,-120,132
-117,-26,100,-95,-64,-16
-106,-43,103,5,-24,36
-113,-40,99,2,-148,38
-99,-41,102,-19,62,-45
-100,-54,91,185,-149,39
-81,29,-98,16555,-641,-6638
125,66,-40,-6145,5742,-15682
63,-93,-30,-248,-373,-12001
-89,79,-74,4966,-1114,-11941
-21,-73,-76,-841,-116,-7688
-85,-7,70,-70,2210,-708
-52,21,18,-5897,-9957,10490
73,107,119,3006,-13538,7486
124,-24,24,-14284,19899,-5743
77,122,-93,5974,-2936,-4268
108,102,-20,1366,3609,-2966
-85,47,16,1033,-1791,2633
-37,76,-74,2041,-1419,4563
38,-122,-83,541,-2734,7695
63,-104,-58,4320,-3523,11466
-75,-111,-52,-4553,3192,5305
55,-108,-97,1033,-868,6700
17,79,-3,-1734,-112,1864
-74,-108,47,-1797,-2901,3768
104,-68,-116,-603,62,3304
-67,49,-25,1067,-424,1523
122,15,-22,-414,1109,-1099
25,-93,-90,1703,452,-2054
1,71,-82,1652,-345,741
12,-78,-96,-308,-310,42
75,-101,-93,-543,339,-439
85,-121,-104,251,-252,61
84,-89,-106,-265,-28,-169
81,-65,-107,10,-151,-196
70,-82,-104,77,-105,78
90,-48,-111,52,-35,17
118,-56,-112,109,18,-8
105,-63,127,66,-109,-11
113,-62,-126,-38,4,-19
121,-60,-128,26,-69,148
-125,-36,114,1,-34,-73
-123,-41,119,-18,-69,18
-119,-37,119,12,-51,41
-114,-30,116,57,-81,-55
-111,-28,-127,-10,2,-53
31,26,2,14291,-1846,-9623
-107,69,102,-1041,7016,-14573
-18,115,113,2018,-1338,-10848
-16,23,52,3105,-1280,-12392
105,2,-33,466,-46,-3852
-92,2,34,-93,-3884,-176
41,-114,14,-4082,-10668,6982
31,48,94,-4063,-3675,540
-100,-59,-74,-2593,1842,1100
81,36,121,5895,6541,-6103
-125,-16,-7,-1954,4743,-2211
3,92,-72,3758,-2501,3958
-2,49,-29,-1940,323,4376
6,86,-93,-146,-3375,9493
14,2,77,2504,-2027,9894
-119,-82,-22,2575,-887,8357
90,108,19,-2462,1793,6140
46,64,-50,-2080,-1391,3674
99,67,-123,-1130,8,4246
-94,-80,-100,-383,-839,4528
-63,116,-14,-404,-1126,1024
43,-36,-43,-457,803,-2943
64,-58,-68,1938,1060,-2182
-12,25,-109,2607,-648,-398
13,-108,-98,-155,-285,563
69,-114,-109,-804,279,-888
103,72,-118,176,-139,-305
64,79,-108,300,-487,-104
79,116,-93,-691,180,-165
88,-125,-111,-346,-162,65
82,-102,-113,-69,33,22
92,-79,-120,-12,0,109
101,-79,124,-66,54,157
114,-65,119,24,38,132
124,-54,108,-1,22,106
125,-54,102,151,-44,42
127,-53,103,45,-42,4
-125,-63,106,9,-28,50
-122,-66,112,57,-86,171
-116,-63,118,-48,27,139
107,54,89,16367,-1377,-6504
-54,21,-35,-14,2128,-14451
49,-70,82,1868,-4016,-16387
27,60,1,4234,-1230,-15258
-54,-120,108,-185,1477,-7949
16,-54,-64,5599,-6930,2381
71,35,125,-5123,-9713,12461
-124,-75,-5,-6039,-3651,2484
106,61,56,-2555,2872,1555
102,26,-28,9374,6129,-9523
91,-87,53,-297,5920,-4936
37,-87,-22,1232,4300,1816
121,104,27,1815,1137,2247
99,81,-23,-2225,-285,6083
-29,-105,91,434,-2047,15571
-11,-23,-64,-3434,-2072,14786
-83,45,22,-3777,493,2341
-60,-60,0,-1476,-1846,6891
-103,-47,38,2324,-3477,6276
-109,37,-126,1113,-200,1881
33,-12,54,-2645,1862,803
23,77,-81,416,-354,-2660
13,71,-52,1788,-140,-2504
-28,-35,-92,239,-36,-873
-22,12,-116,-2180,205,-803
23,-60,106,-2109,448,-796
34,-74,72,-1260,150,-238
35,-49,86,-838,-347,-277
53,-43,123,344,42,15
58,14,-93,461,-4,300
63,55,-91,-78,426,311
68,88,-110,-774,338,263
78,65,-118,377,-166,532
105,97,-122,496,-120,302
111,86,113,329,87,172
119,53,93,696,-202,88
121,44,101,328,-56,-75
119,9,97,270,-169,-38
116,-7,109,201,-138,89
121,-7,120,520,-170,127
20,-105,84,5661,2407,-3488
22,32,89,14523,1749,-9067
-16,117,-58,3062,6997,-12330
118,17,-15,3774,-2667,-11509
92,-9,68,6259,-9316,-10621
-63,74,-66,-1408,-6002,-786
-26,-8,-120,-2122,-2768,3199
81,23,46,-8317,-10744,4640
123,-55,11,-6551,-1025,6537
71,-99,-108,-3830,7457,-2591
97,-68,-95,11333,5861,-4846
82,-108,67,3099,1526,-2969
-30,-108,-32,-22,875,4564
-47,-113,69,212,608,2874
-94,-74,-100,1719,-3467,10940
20,-120,103,2368,-6549,14015
72,-24,16,1012,-1309,5680
40,-77,35,-2688,1715,5524
89,58,-105,-1689,-1261,7354
83,32,-116,1011,-1553,3507
96,24,62,622,106,1316
108,88,-64,46,723,-548
26,-121,-84,1324,-228,-2499
-22,-42,-67,960,-90,-1515
-28,-99,-81,598,-53,-686
9,-115,-86,-132,208,-529
55,95,-122,-61,59,-454
77,93,117,355,-137,-447
76,-127,100,-386,-220,-470
66,-112,103,-478,-161,-223
59,-74,114,-438,-294,103
62,-49,123,-14,-170,144
70,-39,-116,17,-123,258
81,-20,-119,-308,73,115
94,-22,123,-32,72,95
104,-21,107,70,39,124
110,-15,95,31,78,74
113,-32,84,230,-17,199
114,-17,82,-149,-33,205
-128,-18,84,-10,14,160
121,-119,-16,8462,984,-2262
10,-66,125,17618,-5843,-10066
-110,57,-35,-1675,-4266,-10947
-55,121,44,-1585,-3382,-12637
-84,-10,106,804,-2272,-13785
-25,-69,-108,-3844,-1563,640
-124,50,31,497,-8140,349
55,-42,-79,-6168,-10030,7423
90,-17,58,-4404,1310,-726
-31,93,92,6528,3754,1032
115,-127,87,2211,4849,-7382
121,50,120,48,3611,-2971
-14,-86,91,4023,-412,3451
9,-1,-55,330,-807,-116
53,26,-128,1025,-331,4113
-14,14,-45,867,780,9754
-8,62,-81,-208,-2406,10807
-65,114,-69,-1413,-2020,7521
-128,-8,27,286,1110,4910
-125,-52,27,1402,-185,4641
22,80,122,-550,466,4465
58,-104,-20,1015,743,4165
8,7,-45,-957,449,3420
96,23,-126,-2747,-598,-1548
20,19,-103,403,42,-2666
0,42,-65,2840,148,-316
-15,99,-99,1886,-430,525
19,-120,-97,-243,28,83
66,-109,-120,-954,36,-230
61,121,-123,-130,-237,110
46,-116,-105,10,-170,230
61,-82,-104,-89,-59,137
66,-98,-105,105,0,301
72,-67,-121,92,3,197
95,-56,120,44,26,135
86,-79,106,364,-40,100
96,-61,99,111,-63,84
101,-73,90,-12,-86,60
108,-78,94,134,-112,19
110,-89,94,-50,-77,89
-46,61,-74,14415,-197,-6941
65,48,-49,2046,2295,-13664
-31,-79,-115,2559,-8530,-11122
82,-116,110,2292,-2834,-12156
59,104,121,1124,-376,-8092
-13,-92,-37,2706,-4319,-1768
-70,50,127,-493,-12326,4629
-127,31,10,-4259,-5964,8124
-23,7,-31,-152,-4921,2793
-47,9,2,8546,2149,-3797
10,-30,64,2461,8796,-5869
-38,-4,-4,595,4144,-3313
-109,-58,-10,344,208,1678
36,55,65,705,1373,2111
3,97,70,-1884,754,2240
55,3,-2,-975,-2294,7691
-35,58,-28,-2113,-760,9905
-103,73,6,3668,-334,10259
26,112,-75,-2830,2137,5337
74,98,71,1243,-2236,6946
-10,32,102,-2475,1179,2937
-43,-58,-45,-1561,-400,4218
121,25,67,-3317,-109,3444
-33,-48,-29,-2614,483,374
92,5,-65,-134,1039,-3262
42,-16,-76,3557,-1130,-2049
16,-17,-41,693,-1120,-1601
-56,-59,-59,-1782,-153,-1006
-29,-58,-74,-1704,300,-649
21,-68,-96,220,175,-27
58,-77,127,856,256,-114
77,-55,98,603,71,-5
81,-49,92,-203,-13,-114
70,-57,74,-231,22,172
72,-61,81,-96,1,431
67,-54,71,331,-311,657
85,-26,90,165,2,993
92,-1,94,-217,-16,636
102,1,81,465,-327,1038
97,10,88,247,-283,550
-77,41,73,11635,-2755,1052
-123,20,52,17018,710,-7452
-65,0,85,1737,-7564,-6233
58,-68,5,-4357,-6296,-7828
-71,-6,62,2055,-8081,-10792
8,48,85,1135,-5281,-11058
-87,118,-89,1344,-359,-3757
75,87,-14,1998,-8406,4640
-104,11,89,-3823,-10359,9794
39,91,107,-4420,-2362,4481
25,-5,-26,5390,2252,448
-127,123,-124,-70,1870,-9031
33,78,85,-2396,8645,-6716
102,28,19,5633,1958,-1715
-70,-103,11,179,179,106
125,0,36,1499,-2426,3363
-95,102,24,850,-1033,6787
-53,63,5,2089,52,11957
-92,7,100,-1091,705,9662
70,-33,62,1191,-1908,10044
-28,-43,80,-3466,2544,5346
74,-48,-121,339,667,3126
123,-69,7,1757,-429,4306
-50,-42,24,571,-70,3629
-35,-123,124,-2480,-229,-82
-32,-101,92,-1202,268,-3131
55,-48,-48,207,1346,-3043
-28,83,104,2263,-820,-345
7,-117,-83,-1852,546,-188
52,119,93,-785,1347,-260
89,-85,71,-1263,-186,-817
85,-71,80,-695,-344,-1041
81,-76,118,19,-182,-512
57,-84,114,402,-131,-23
64,-53,123,-354,27,202
65,-38,101,-353,-268,360
87,10,127,-614,87,269
98,9,111,-188,31,385
111,18,108,204,-9,418
117,36,98,200,-81,334
101,-43,78,13964,1316,-4480
99,-59,-41,7706,1001,-12100
59,77,22,7780,-7785,-9381
25,-120,48,2730,-5047,-10694
-39,11,-122,745,-2918,-12282
-111,-121,-63,-208,-2065,-151
1,60,20,3959,-7518,2401
-2,92,14,-2323,-14008,7630
104,-77,-61,-6446,94,4260
88,76,78,4234,-9585,6472
-59,91,109,5259,8267,-10629
-84,-93,41,-1761,5871,-3893
-97,95,63,2117,1298,-110
23,-91,-5,4972,-2863,874
43,118,-107,-1676,-1847,5709
-79,-57,39,2026,-592,10487
73,103,-45,-1270,-26,10615
113,10,99,-263,-726,7631
-70,53,11,262,-548,7565
85,1,-16,-2671,283,4555
103,42,-82,-27,186,4087
-94,-69,14,-557,-579,4586
9,-81,-55,-1686,122,1795
102,100,-101,-2802,1710,-2097
110,31,-121,-7,1593,-2099
-4,-56,123,218,-1191,-274
5,23,-62,-1601,-252,200
62,48,-86,-559,749,-245
97,20,-106,764,-71,-326
95,17,-127,234,27,-432
77,2,126,-553,29,-211
100,26,-112,-1077,26,-272
93,8,-121,-838,-192,4
110,11,-114,213,96,-240
95,-1,122,511,4,-218
114,19,-121,-400,-18,96
-118,-5,111,139,-105,259
-125,-1,116,748,-390,366
121,12,96,327,-411,346
-104,59,-125,-726,138,86
76,-99,91,14271,1079,-7242
85,40,-87,15062,2770,-8215
-90,104,16,2287,-975,-8791
36,-2,106,1409,-7554,-12593
-13,-120,-85,1151,-2281,-11637
-94,113,97,-4218,-2613,-4880
27,-74,-93,2494,-3019,2335
63,42,31,-1501,-7992,4515
30,53,-9,-4716,-5414,6398
-120,-46,112,-5822,-5632,2943
71,122,-121,9077,4567,1755
59,88,-120,7768,-917,-6845
-15,-125,125,-1513,5247,-6221
-99,-72,94,504,2753,-801
-9,121,-71,1084,-1114,-1644
-40,-33,44,3151,-1134,2424
-63,-24,25,-326,-2463,3476
9,65,6,-475,-442,7838
80,-4,-120,-1011,-155,8760
25,-50,-121,1785,-1531,10677
-25,-35,81,-2743,1404,4844
-54,100,-86,1937,-1209,7600
-94,11,-96,-85,1062,4176
74,-12,81,-2088,-884,6211
-86,8,-16,-1720,234,2031
-14,-101,-122,-373,-289,-1498
49,-25,2,-119,576,-1601
-67,-117,-53,620,-439,1170
-23,23,-93,47,-142,-168
30,-45,-124,-448,585,-843
6,-121,104,-156,-313,-223
47,-77,-117,-282,-173,-343
57,-71,-122,-322,79,-383
39,-56,-126,78,-390,-364
43,-47,127,-438,78,-355
55,-55,119,-116,-84,-106
77,-45,105,95,57,-34
88,-29,99,95,-89,-56
80,-37,96,57,-20,18
88,-24,89,153,-86,100
-10,15,33,13899,611,-4254
17,-9,109,8841,273,-11806
78,83,-7,1192,-6725,-8779
56,-12,-128,1135,-3116,-12236
30,46,-69,1993,-1560,-12404
85,-60,38,1844,-454,-420
-119,-4,48,3718,-3591,1424
-78,-99,-128,-1227,-7086,3220
-21,76,-79,-5056,-6517,9009
-118,22,-83,-6121,-4208,-582
-47,-125,45,4015,-2238,2115
-93,75,83,5693,6783,-8591
120,34,93,283,2919,-3590
112,9,116,707,2345,64
-81,74,96,1229,1207,-248
118,64,-22,-526,-879,4046
12,-95,55,1310,-1297,7608
-28,-66,-56,77,-492,10473
-1,-52,-91,302,-838,10573
9,56,-41,947,-394,8152
37,-28,18,-1807,479,3383
94,-122,-81,-1957,686,3038
-105,-3,-63,-2514,444,2332
-79,-53,-17,-2048,-33,2517
-123,-30,-77,-144,-2420,1080
116,19,-76,-260,-3,-1399
51,99,-92,658,872,-2768
57,-33,-112,434,-97,-1881
2,-61,127,-786,-75,-577
-19,-42,121,-502,208,-644
74,-66,-128,-270,202,-137
116,-32,116,-630,2,153
76,-13,106,-339,-57,-137
50,-31,98,-55,-192,36
53,-49,98,-175,-116,654
66,-10,78,13,-227,1034
89,18,60,820,-37,1445
103,-9,50,3274,-1233,197
100,7,48,3458,-1531,162
82,-70,93,827,274,94
-56,26,-22,8593,3331,-2611
-64,81,125,10252,5954,-5444
-112,81,68,836,-8583,-9002
-8,-108,-61,4894,-4133,-8556
70,-96,59,1733,-4187,-12879
-1,77,43,2833,-113,-10507
-59,-58,-119,2352,-2299,-1276
-123,-107,108,1645,-3914,4148
23,-36,38,-3343,-7405,6661
52,52,0,-5763,-7998,6201
97,119,91,-3383,-5564,327
4,118,9,5945,5188,-3929
-42,-26,116,4684,5163,-6655
30,-52,23,-2690,4697,-2269
122,-65,-93,7127,-2986,2660
-123,-4,39,-4808,575,2356
2,12,114,989,-1831,7994
88,-70,-103,-181,-1318,10715
-77,-95,88,1282,-2261,11932
125,95,-55,2028,825,5985
55,-85,18,-1437,352,6323
-104,-109,-88,49,1449,3938
-14,68,-51,173,1207,5451
-52,-43,44,-2724,131,3921
-126,-38,-45,-617,1220,-3079
32,18,8,2682,-365,-2732
73,-45,0,1307,-607,-1757
-16,-87,-105,-1526,-380,-1266
0,-104,93,-1716,687,-941
24,-114,91,-197,-438,-311
87,-85,-123,166,-402,226
-112,-28,-126,-292,198,-160
-118,-41,114,556,-423,-904
119,127,113,545,-344,-606
53,84,82,-369,-1674,181
44,59,-110,-842,-866,740
53,126,-94,-730,140,1340
124,14,110,-517,263,1518
-72,95,98,580,88,763
120,53,-111,1351,-118,-662
-68,-89,83,14474,387,-3645
97,-10,121,7044,-11898,-9462
44,96,73,-5220,-5310,-9667
98,90,101,-2547,-1757,-12168
93,-70,-87,2306,-2241,-12496
47,-33,98,1538,-1026,-1805
-42,-23,-40,2749,-4129,1954
16,58,23,-2209,-3496,3255
60,-110,27,-4250,-8565,7243
-8,-63,52,-1230,-2679,2942
4,49,-61,5274,3770,-2038
64,18,111,1333,3271,-7763
-80,79,-11,-1221,5688,-5172
-78,4,-113,4839,-5155,1156
95,-23,-45,-38,1832,1545
21,-3,71,776,-1502,4419
-71,-75,-53,366,-2315,11598
118,-22,-125,-1961,-741,10052
55,80,35,3184,-2594,10732
-53,49,-38,-1095,1308,7247
-2,76,-13,-333,166,4005
125,-87,-19,-1008,421,4334
-68,-62,57,-2705,1801,4772
16,118,-13,-1041,-405,2009
26,38,-73,642,-572,-3036
56,62,-47,789,402,-2418
-50,-118,-92,1086,-353,-744
-20,-96,-84,433,7,818
11,-60,-124,103,73,-12
62,-42,115,-409,81,-509
65,-90,109,156,-296,-600
66,-110,-126,272,-266,-170
50,-110,-127,-103,12,-147
51,-76,127,-418,-151,80
76,-6,123,-895,107,3
100,41,112,-588,-93,-321
86,30,108,109,-208,-716
88,-21,119,565,-120,-150
102,-24,109,125,81,-119
113,-21,102,-174,-48,-199
-44,82,-112,18288,-66,-7466
22,13,107,-1676,6359,-14588
-49,-115,125,4031,-6274,-13149
122,-9,76,3762,-2061,-12484
-38,-118,-22,3786,2071,-7957
-102,-5,97,-923,606,2313
15,-84,-122,441,-16991,6767
-27,-19,-65,-5497,-8985,5461
100,102,40,-9114,-4450,382
63,-66,-37,16164,11870,463
-68,35,60,1638,987,-6425
75,-49,53,1703,4467,-2233
-61,-80,-22,2848,193,429
88,-124,3,-3241,1750,2159
25,-125,118,-1542,-1705,8145
34,-83,-96,2547,-1979,13984
-69,-13,-82,-3337,1248,10283
11,48,81,-237,-3163,8231
127,-62,-82,-415,-1964,7613
-120,-43,10,54,1359,3021
123,-101,71,669,-718,5122
-115,44,91,-2342,669,3559
-120,-99,-115,-2557,176,-957
56,-87,-74,483,102,-3399
18,-117,-60,2993,-41,-1839
-52,101,-96,1333,-310,1019
4,-41,-123,-1010,342,-75
75,-68,111,-961,352,-565
46,114,108,503,-343,91
46,-98,-108,-245,251,384
89,-10,-95,-1307,858,275
117,7,-112,-1801,1023,263
107,-11,117,64,-141,-21
124,-1,-114,950,-604,30
-122,9,-127,110,90,-295
-124,-11,114,79,-68,-149
-123,-23,116,360,-202,73
-111,-8,110,-26,-60,-175
-111,-22,123,-88,-87,-123
-116,-28,121,140,-215,-51
-20,-117,-69,16413,164,-7295
23,26,126,1479,2803,-14958
-2,-91,60,2464,1487,-13383
-106,101,-86,7931,-2848,-9578
70,-61,40,185,-14008,-6202
-75,86,122,4772,655,-2139
-124,-95,-17,-1610,-6839,3161
-122,45,59,-5387,-8409,5981
-126,-34,-23,-204,-1734,2314
117,39,-108,7074,6729,-708
-14,73,52,1222,3804,-5986
37,-10,35,-1423,5665,-3517
-41,-7,-36,2905,-6075,612
-7,-81,109,-1214,595,3657
-44,-74,-121,955,-1380,6825
-119,-67,6,-648,-1905,10991
66,111,-73,-1088,623,10790
12,62,106,-749,-3662,7754
119,-41,-49,63,-602,6646
61,65,117,-1040,-300,3533
76,-11,72,-934,48,3730
-123,9,57,306,1418,2274
119,125,-122,1655,-744,-127
46,4,-107,-454,-766,-2089
44,48,-78,-797,-68,-1748
-5,-69,-110,-129,-373,-617
21,-35,-106,-611,-19,-293
63,-38,-105,-367,-83,-247
82,-44,-126,-128,-296,-410
75,-83,-103,-50,-219,18
59,-83,115,-54,-398,181
70,-65,-124,-583,-625,399
67,-69,125,-75,-589,612
74,-22,113,8,-730,410
72,11,102,585,-312,565
74,-8,81,668,-162,598
75,-29,66,847,-656,707
56,10,52,-342,-370,373
73,0,40,-38,58,169
75,-3,28,476,113,-327
-7,-101,120,11423,1142,-4072
-5,27,-63,10484,-3650,-11038
97,37,11,1108,-5110,-8344
44,124,-120,1592,-3675,-9004
31,42,55,-809,-1255,-10287
122,2,-26,2079,1903,-8836
70,-77,119,2366,242,-1277
4,-122,-25,2530,-6176,1839
61,73,72,-2270,-3497,2312
38,81,-101,-6744,-5675,7565
-27,-89,-79,998,-4782,3188
4,52,-123,2063,6559,-876
-44,-57,90,207,1335,-7356
-34,92,27,1793,6757,-1393
-32,102,-60,428,-3150,-1965
21,77,-121,-457,1087,1636
56,107,-45,3119,-4244,6727
1,-21,-114,-808,-3663,5160
-73,-106,-103,920,-3122,9818
-66,-109,112,1590,-164,9339
-24,-115,2,1931,61,6130
-33,21,-75,1826,705,5435
84,-75,-29,-1819,1210,5577
44,21,-72,-1421,68,2459
30,-66,5,-2058,559,2973
-80,11,-33,-996,357,1546
19,-43,-50,780,-619,-1121
13,94,-67,1079,-378,-1505
13,16,-115,39,-72,-988
16,25,125,-1028,-462,-711
65,15,-107,-1223,11,-745
99,0,-113,-65,40,-887
85,-65,-122,996,-197,-1067
71,104,-116,792,-182,-608
66,127,-123,-406,-79,177
79,-83,127,-556,-97,-4
96,-90,127,-17,-88,129
90,-103,120,272,-197,943
-117,-51,-127,-513,-173,974
69,42,-121,-1068,138,972
-2,112,18,7237,1323,-3674
98,95,-123,12735,-733,-8737
74,70,121,3882,3372,-8711
100,-84,-84,6349,-8583,-8783
84,-46,11,2267,-6609,-10525
-111,23,68,249,243,-9081
-118,-34,-43,-2364,1563,-141
101,-110,0,3182,-6762,1963
18,112,-110,111,-2968,1443
58,-50,101,-4097,-3097,6393
69,-66,39,-773,-12021,5186
59,-40,-124,1757,7803,-3547
32,-86,95,1843,3419,-5931
77,105,29,476,5371,-2718
42,-18,-97,2454,-3944,1498
94,66,-39,-482,84,533
-59,-13,29,-1110,-797,4027
-59,23,-91,2714,-4940,10921
5,92,-108,-195,-2827,8963
106,117,21,2848,-971,9033
-57,-42,-113,-6024,1860,6372
88,49,-106,-561,-263,3395
104,126,117,-147,-1075,4953
38,4,29,995,-1043,3950
-54,-122,32,-1818,110,2643
86,72,-58,-1399,-9,-1363
22,64,-56,898,120,-2188
22,-1,-47,1764,-371,-981
8,7,-85,284,-70,-820
30,-28,-97,-598,138,-855
48,-59,-107,-1,-120,-502
60,-50,-114,-109,-38,-438
74,-31,-117,-121,-134,-313
81,-6,-101,-239,23,-281
107,-9,-104,420,-75,-396
98,-25,-111,423,-36,-427
88,-34,-119,-34,-64,-233
84,-39,121,212,-44,141
100,-27,113,707,-271,327
117,-1,112,273,-49,51
82,-28,76,11940,3876,-4478
52,60,89,6057,-2259,-8226
11,-76,76,152,-6182,-11849
3,114,-14,2149,-3716,-11019
-53,49,-116,-1326,-7205,-6367
-115,101,-9,-2455,3243,294
10,-53,-52,129,-13077,2985
96,37,1,-4270,-6047,5183
-7,75,89,-2051,-2749,1468
-60,99,-55,-1086,-2723,1836
-64,67,122,5001,7210,-7264
-112,-85,62,1409,4058,-3821
25,-105,9,5016,63,-781
-115,34,44,1908,1418,-12
-120,-23,93,-679,635,6482
43,39,-99,2841,-1569,10057
-86,69,94,1525,-1527,11923
99,48,40,-1276,324,7977
52,46,-80,1184,-521,6948
-55,32,-59,-1492,-84,3858
-72,58,26,-2336,815,3853
52,50,12,197,-159,2241
108,-65,-1,891,398,-2395
77,-127,-10,-2595,3063,-3098
-3,-8,-99,349,-1432,-402
-30,-57,-109,-1095,-1095,372
-16,-4,-109,-1564,-496,-131
63,-32,-112,-781,664,-389
66,-82,114,1297,-120,-430
63,-123,101,1691,-290,-193
39,-122,99,244,-289,62
43,-99,110,-781,-59,281
51,-113,81,-557,-404,728
49,-77,78,-291,-626,800
34,-77,34,-570,-2122,1669
47,-12,65,-546,-2030,1465
73,37,112,-230,570,501
32,51,10,990,-115,-412
42,17,32,708,-483,-8
49,27,47,-432,212,-120
-80,-64,-98,3757,2238,-4223
88,46,102,16994,303,-4635
29,49,100,12695,4472,-10515
106,79,104,3436,-10855,-9780
120,-43,-22,-3069,-4729,-11548
59,-99,33,1411,-1051,-10844
108,-40,124,485,1130,-7270
-42,-100,4,5320,-8498,3641
99,-98,37,-3560,-10397,7437
100,37,-92,-2082,-4041,6620
-54,103,107,-480,-3083,-2
111,9,-82,8285,8257,-5620
-104,-14,66,3586,4681,-4992
51,-37,35,2491,2693,-3781
79,-62,50,-1982,-1994,-870
-9,60,-127,-1706,0,2092
16,83,-76,-696,-1349,6735
22,-13,29,2004,-3063,12638
-125,-30,-64,2211,233,10880
-78,23,35,-2243,-926,9185
45,-33,-82,-1679,632,4458
-81,-2,-33,-484,-1855,6228
70,59,94,-1358,-339,5552
78,-82,83,-1487,-473,3097
80,-51,-27,-27,195,-3064
55,-109,39,974,505,-2858
-55,-33,-84,3555,-763,-1144
-48,125,-76,-666,-202,229
58,-88,126,-1919,1157,-623
45,63,62,484,-144,-134
29,69,73,898,-694,131
46,-107,78,-669,232,160
46,-80,52,-837,132,72
66,-56,71,-323,93,172
65,-27,75,-104,111,173
74,-16,90,193,-114,363
76,21,92,-323,-371,334
103,38,117,-345,52,42
91,6,109,401,-187,-33
98,0,107,54,-60,-30
-7,-8,-45,11062,1259,-3616
-6,-17,54,13274,-2064,-10031
-1,83,4,-1616,-4511,-10360
20,-4,-66,3719,-3103,-12634
-114,94,86,3075,-3641,-10284
44,4,-81,1955,377,65
-40,89,2,7887,-14757,1955
33,-99,16,-6820,-7089,4274
-79,-111,-31,-2779,-4831,8810
15,5,85,-1129,1565,-2467
-28,-126,-114,2996,5506,-8217
-45,-118,99,130,4153,-3243
-3,51,81,6761,-2044,-725
126,113,18,3871,-530,3275
78,-66,-77,1052,381,12326
-14,110,47,1056,2981,14280
-88,-71,-45,528,1533,11096
-41,12,-58,1927,2167,6955
-112,111,40,-6420,-1921,9988
32,-6,56,-4496,7263,-1152
-7,7,-74,4137,559,-5535
104,23,-60,5004,-2512,307
17,-37,-121,-1503,-887,1755
61,-93,-2,-3088,2152,-1277
67,33,119,387,689,-585
25,96,-78,1336,-1970,429
53,-109,-69,-204,-259,57
70,-100,-106,-725,985,-31
80,-45,-114,71,-248,165
73,-85,111,513,-304,155
91,-66,105,-111,318,-70
110,-59,124,384,-160,-75
100,-74,-88,-165,-47,-136
89,-75,-67,-524,218,-25
-71,-71,-80,-99,135,26
-126,-49,-97,-506,91,15
103,-53,113,74,121,213
115,-1,83,-739,-290,-86
-85,-34,-105,-351,110,208
-42,-1,-78,-711,-252,161
33,-18,-126,4812,4334,-5614
34,-15,-119,4925,-121,-5163
35,-37,-57,1795,3303,-7649
-50,3,-120,4693,2376,-5670
-121,3,97,-518,2751,-8498
75,-46,-67,304,3017,-7310
31,88,61,1766,1523,-4432
66,54,81,4371,-2760,-494
116,-33,-10,1508,-2061,61
-61,78,-35,1605,-671,1303
-27,-97,100,-707,-2816,3702
84,52,16,-2570,-2109,2833
16,-112,-19,-3149,-5971,4382
-43,-84,-31,274,-5511,5297
-4,-80,94,4057,60,-1079
-46,-59,-121,672,-1330,-1819
-81,-101,-99,653,-2026,-84
-19,25,-3,1063,-1718,259
124,25,-87,-976,-2040,184
101,36,-78,-510,-788,1235
40,115,-75,-859,-697,1790
69,-94,-118,1010,-1060,3099
-20,-40,-79,1528,-729,3866
68,-58,119,2815,-1117,4210
-67,111,-104,1287,-216,4401
-1,-12,7,-1573,-484,2968
-82,-125,47,-214,-273,3262
-119,-38,23,916,-766,3143
-104,-99,85,540,-420,3245
-38,47,35,1945,634,3327
-94,-63,-57,707,-485,2478
93,8,-44,-470,-496,12
41,50,-57,63,159,-1077
-14,-34,-99,36,-405,-454
-21,-37,-105,-923,-139,-447
6,-94,-105,598,62,-475
32,-83,-122,320,200,-412
40,-95,125,-133,-187,-437
44,-117,115,-60,-186,-583
36,123,121,-108,-68,-432
104,-66,-124,5793,3318,-4185
51,-28,-13,6331,3676,-5994
-61,47,86,3822,2383,-6695
115,101,-20,2676,2452,-8334
-71,22,59,468,4498,-8994
-3,-17,-9,1552,4609,-7186
10,89,-3,5122,-8288,3544
-67,89,-47,5462,-2495,-370
97,-114,-81,2272,-1043,615
94,-104,-112,2331,-1095,3494
50,67,-79,-494,-3195,3344
-37,59,100,300,-10603,8104
-67,-101,-59,-11416,756,3430
88,114,-51,5382,-1054,-2889
-77,-43,42,2201,-3901,-1935
-62,-78,44,143,-138,-1169
126,34,-28,1840,-4042,-116
-102,-46,85,-176,-2494,766
43,74,66,1237,-795,854
-10,77,-24,-1317,-970,2035
91,88,-62,308,-514,2961
115,-68,-77,3392,-1653,3520
27,-2,-100,451,77,3507
125,8,-118,435,-707,4614
-36,6,-63,2271,-678,3818
-18,125,-39,-734,-5,3210
-90,-59,3,1726,-935,3210
-66,12,95,-516,392,2321
-118,86,-12,1465,-133,2524
90,47,-42,1172,-768,2411
80,77,-4,754,-159,1920
46,122,-47,356,-269,906
1,91,-91,-333,-606,-304
-13,25,-71,-798,-95,-865
-12,-43,-91,-377,-99,-780
-11,-80,-111,-245,-13,-900
6,-106,-109,85,-57,-877
22,119,126,104,91,-736
26,104,115,-63,78,-726
25,86,109,-107,-41,-266
72,100,-79,17518,4956,-6036
94,-110,-83,7046,-2154,-9181
-25,3,-64,-1418,3946,-10548
-55,-125,-24,972,806,-8109
-11,117,-18,2536,-4415,-5267
-110,-19,-48,-1971,999,-2726
-12,10,114,2629,-6418,-795
-67,1,61,1299,-2441,833
102,-45,-14,-1326,-1544,2890
-22,68,-116,1,-1229,4912
-82,35,-106,-1842,-339,5126
-77,77,67,3677,-4053,-1710
109,81,92,-2754,-1140,-1548
116,69,-111,-574,-1068,255
-125,-72,-6,1007,-1961,656
13,-26,113,1501,-440,-1073
-67,117,54,1181,173,22
-99,21,-37,1494,-1164,1019
-92,-128,-91,-219,-343,908
-116,27,-107,140,312,2000
-38,94,83,-108,-1793,3001
-8,-96,103,-573,-451,3029
52,119,-123,1977,-389,3621
-107,-32,-112,1250,-1106,3083
-64,-39,-95,91,928,2781
-27,-27,-31,487,-764,3014
-8,-100,-20,1002,591,2631
-56,52,-102,1951,-447,2369
-119,30,-28,-432,63,2226
112,-64,-73,600,299,2135
89,-2,-36,23,-155,1991
78,0,-40,128,-34,1661
61,110,-18,115,-231,344
40,89,-52,-62,44,-903
7,-45,-63,135,-129,-894
20,-118,-111,-300,53,-836
22,87,118,92,-140,-760
51,85,106,-468,5,-694
46,55,114,-369,-140,-401
36,84,112,-381,-242,-301
-12,-35,-85,15321,2494,-7685
-60,-80,50,7183,-4634,-10645
127,-46,-61,-742,5258,-10592
-123,-31,-91,-218,1098,-10441
63,67,-26,5971,-14601,1007
-18,-70,121,-1756,-9,-2817
-53,119,26,436,-3868,645
-44,-114,105,-234,-1281,2550
-19,0,-100,-1358,-1375,3832
-45,-82,105,-1961,-1673,7822
-70,-68,102,1746,90,-2198
13,26,1,-1989,100,-1965
37,-93,-101,-75,-2302,781
-1,100,80,2561,216,-2041
-96,-21,0,2816,-851,-640
-91,-12,-25,-103,-1357,-371
-121,91,34,66,58,233
77,24,-39,-953,-776,858
91,32,-39,-769,192,1156
-65,71,112,743,-924,2231
-63,-126,-119,-1413,99,2251
74,-84,37,755,-1176,3239
-113,-11,61,1476,-1234,2762
123,-42,88,-896,-662,2993
-46,-123,-68,466,-727,3242
-74,-60,-40,501,-1152,3874
51,51,55,-655,-568,2578
-35,-77,44,658,-268,2331
-103,123,49,10,-521,2636
-108,84,62,1132,-51,2314
121,51,-13,1611,-182,1734
78,97,-36,251,-352,1332
35,56,-22,714,-327,803
25,35,-48,374,18,-150
20,0,-75,-168,22,-541
12,-74,-113,-432,26,-708
34,126,-122,132,-162,-679
33,113,115,-286,-110,-818
38,92,124,-261,-45,-584
43,80,114,191,-57,-432
33,-13,61,12719,7719,-6773
69,-80,-54,-2066,-3084,-10555
71,-45,-104,3393,3584,-7645
-50,-42,-36,1323,73,-7492
-58,54,-92,-1303,-289,-7032
-125,-68,-35,1690,2197,-7140
55,-111,84,1377,-4466,-2163
-124,-65,-74,2264,-4686,1195
53,100,64,-577,-701,835
67,15,85,1463,-2593,3574
-119,1,-8,-1858,-2027,7806
84,67,67,-908,5653,200
-25,94,-2,-2840,-2131,-2444
-114,-116,-49,-476,-353,-164
83,-47,83,1025,-791,-705
119,-28,-75,1407,-1656,246
-43,2,-76,819,-85,-763
-118,-125,11,-180,-1224,-286
125,-77,-28,21,199,1611
40,22,-74,1718,-1917,1425
117,107,-26,-3014,257,1841
-105,80,-58,93,379,2289
26,90,-112,1015,-61,3054
99,-95,125,-135,-817,3537
-87,110,-105,511,807,3275
31,-110,-103,-715,-555,4291
33,-24,-34,875,-294,3830
85,70,34,860,-1031,3159
13,-101,-29,2194,441,2791
-81,103,-53,1416,-890,2718
102,56,19,390,102,2293
115,90,-12,629,-262,1461
18,-3,44,1268,-874,1090
36,-51,12,838,542,662
-9,-117,-65,1478,-355,497
2,-83,-43,278,124,-236
-26,83,-80,-142,122,-293
-30,40,-94,-230,-311,-153
-23,43,-73,-153,23,-58
11,69,-101,-173,-47,-246
64,65,-49,4664,668,-6215
95,52,-105,13335,2292,-5147
49,-25,111,3059,201,-8246
42,104,119,516,3800,-8454
-123,81,33,2859,1372,-5138
-97,61,91,4394,-5793,-1609
-74,-9,-111,781,-2869,-1983
46,102,-76,-449,-2034,-1400
-24,38,90,3129,-5002,998
-49,8,-122,-33,-780,2395
10,54,104,291,-4351,1775
14,-38,107,-6184,939,5994
-126,53,95,3810,5110,-1880
-86,-56,-95,-2049,-2648,-1659
29,12,41,-207,-1861,-52
15,76,-126,670,-3144,42
99,-91,99,38,-1202,-485
115,55,90,2642,-735,80
36,103,41,-339,-956,438
51,21,-38,111,-709,266
47,-6,-29,44,-100,1130
21,-121,-67,-1295,-683,2113
68,-100,-48,-469,-146,2629
-55,-45,-74,1258,-5,3342
30,-4,-96,752,-528,3107
99,-6,-114,647,1358,2600
-72,15,-74,406,-465,3518
-72,26,-109,38,319,2696
-63,30,-51,23,-540,2926
-116,-24,-61,-450,-72,2569
115,-79,19,398,-871,2283
104,78,11,657,382,2193
91,11,-43,1551,-472,2432
82,51,-26,513,-274,1910
78,41,-23,946,-308,1837
40,77,-37,641,-438,683
19,43,-50,310,-542,10
16,-10,-39,-652,59,-793
10,-86,-73,-358,-142,-735
27,-108,-124,-402,-130,-939
13,-123,112,12613,4838,-5531
56,-13,86,9405,-5384,-7384
116,-42,14,2653,4475,-9462
-92,84,-38,433,-515,-10251
98,-66,-67,2230,-4429,-5768
66,-12,127,-1351,-240,-3798
-99,107,-51,1148,-5304,-2343
-51,124,125,463,-4189,-762
-77,91,14,767,-2550,549
-46,120,89,293,-2059,2061
100,-65,96,-2355,-1348,2171
-14,-42,-74,-621,-1450,5478
25,-7,15,6453,-4688,1556
-93,-112,-93,-3139,137,-2859
65,21,122,1348,-1473,802
-121,57,14,-729,-179,-404
-65,-55,-41,2890,593,-1425
-79,-115,5,931,-965,-523
-126,81,-32,-156,-466,-581
-96,-73,-102,967,-821,795
-102,-49,116,-851,-1135,2093
-128,60,101,-2044,-1223,1946
-106,76,-86,-44,-583,2424
-52,-126,-72,939,-183,3170
-126,-62,-64,794,-854,3961
-98,10,-95,732,-273,3572
-5,0,-67,317,-319,3627
29,-89,-84,1813,-585,3299
-2,-54,-38,-91,345,3037
-46,106,-33,272,-42,2991
-51,82,-12,423,-44,3092
-74,67,16,1669,-373,2963
-78,-94,4,772,-81,1814
62,-97,-51,1021,-703,406
-10,45,-26,477,-261,-507
-22,-42,-24,285,88,-456
-19,-88,-66,133,-161,-379
14,-92,-85,-801,-129,-584
24,-119,-98,-604,-72,-938
41,107,-101,-265,-36,-802
88,57,100,12574,-4715,-463
-79,59,-73,7870,-1122,-7200
-101,-94,125,2958,4113,-10525
-114,-71,-1,4905,3115,-10864
58,-22,32,680,4258,-8941
-88,57,-4,4671,-10996,1643
-52,-37,-33,-4579,-181,-2021
-93,-79,94,-536,-567,-1078
4,-58,-113,5010,-7572,-534
-45,84,9,2931,-4790,181
53,-24,-93,1065,-652,-1473
-16,-39,-8,-2251,177,1309
111,97,-87,-3436,-1192,3796
0,126,-52,2177,-43,2952
-70,113,46,2861,-2331,-653
88,-58,-119,-2406,-2802,-227
-106,125,-17,-1597,604,-1457
101,71,29,1636,-1120,-96
-66,-1,-116,300,-2523,977
101,66,-106,-934,-1867,1026
100,72,-83,-1099,-1605,1655
81,-99,17,-1090,-975,2054
117,-84,11,1116,-1327,2799
-9,0,20,1255,-668,3566
40,106,11,1604,-904,3031
-88,104,-7,575,9,3109
-94,53,-41,1159,-914,3282
-118,57,-10,263,3,2445
-85,-34,-16,530,-496,2756
-67,21,29,-626,-623,2549
-111,127,-49,1915,-754,2037
-5,77,-6,202,-346,2068
9,2,-26,1301,-366,2321
53,-36,-47,2757,-1123,2877
104,-111,-1,1593,-184,1148
32,-86,-82,-588,181,-637
-8,34,-99,-440,-208,-863
-22,-69,-75,-362,-416,-742
-24,-69,-99,-1248,-342,-887
23,-80,-67,-1551,277,-1143
-65,89,-76,7208,1148,-3723
-98,-46,-51,7137,-957,-6258
-77,-55,85,2099,5519,-10676
53,-6,-58,2671,5967,-8534
-76,82,70,1983,5444,-8103
-16,-124,51,476,3161,-4789
59,-96,27,1516,-6108,-2886
-87,-38,6,-331,-1069,214
-69,-79,-116,2418,-4020,-1202
-12,-73,-10,3508,-6112,861
27,41,125,699,88,1140
85,6,-46,314,-3336,2459
82,79,53,-1488,-2780,6743
34,108,85,1037,6071,1145
-111,-20,-72,700,-5712,-1901
99,54,73,-2386,1815,463
52,0,-103,1571,-1661,764
126,-97,-45,1002,-2257,-70
-43,58,-37,-925,-558,631
111,18,-72,152,-1353,1596
-117,36,-109,-874,-464,1241
-74,-109,-95,-1844,-506,1816
-103,-64,-117,-259,-734,2383
3,-23,-64,491,-746,3291
84,-3,-64,1279,-1397,2970
-59,60,-85,-23,143,3538
-13,52,-28,623,-1204,3027
-11,-10,-23,-337,-330,3010
-46,9,26,246,-811,2473
-57,-87,0,366,-204,2466
-108,104,-1,516,-946,2783
-111,81,24,1273,77,2119
-109,118,-56,546,-293,1814
31,-69,-6,-279,-1014,922
43,-123,-12,14,-434,-167
19,18,-65,556,-311,-443
23,36,-85,-1705,264,-1208
31,-30,-128,-1309,453,-1018
30,-94,109,246,-557,-581
48,-49,119,-879,324,-959
77,-27,22,4835,-2472,-2975
22,11,21,9622,5327,-6912
79,-46,-108,5021,3911,-10679
10,-10,7,3122,5353,-9459
-22,57,15,-2005,7037,-7073
24,108,68,4763,-16569,5847
-86,19,-107,-2040,3064,-2722
-85,-67,45,1610,-3152,-1146
-16,73,-21,4614,-7866,-961
20,-128,-124,953,-2250,711
-14,5,-22,-1783,-872,389
46,-46,-14,-359,-4095,2818
58,52,42,-1242,-706,4415
-14,-33,95,4033,1110,-1358
98,-101,-9,-804,-1444,-1722
111,-2,-108,-699,1791,-321
9,12,126,422,-2129,756
-87,119,-20,-597,-2153,516
-91,46,-23,921,-977,483
-85,97,-67,-634,-1215,1504
-125,127,-39,-594,-1175,1036
103,-98,-41,-142,-511,2086
-116,-7,-6,-334,210,1876
-34,-37,-57,-175,23,2877
63,-37,-107,2442,-1460,2701
-119,87,-80,-257,37,3210
-84,18,-77,231,67,2767
-77,-16,-87,1467,-1229,2886
-84,-14,-3,282,207,2609
-85,-121,-63,1467,-756,2364
-128,-84,8,-1290,192,2022
57,98,7,-754,78,1898
89,23,47,792,-417,2530
127,8,11,1139,395,1876
91,72,-61,-52,-489,1861
62,95,-28,-114,-600,694
50,82,-39,-40,90,-295
3,1,-96,98,-589,-298
9,-18,-92,-676,-207,-720
33,-62,-113,-360,72,-843
5,-124,6,8155,1145,-3893
17,-20,-126,6532,501,-6458
3,114,-29,2152,3191,-8009
-61,-100,96,5338,2384,-9029
79,19,-68,1924,3966,-9763
92,113,4,545,2965,-7354
-119,31,-51,4121,-12630,2596
86,97,126,-1437,2463,133
-63,-93,53,3296,-6671,1127
-53,96,-68,3453,-6358,-1057
81,-51,-34,-805,-1325,-1018
51,-100,13,793,480,-881
-117,-18,-44,-3125,3574,1818
109,114,80,-1688,-3143,6413
4,34,-51,369,-109,3364
20,-105,2,4993,-5840,-89
98,54,-7,-3835,47,-1317
48,76,-44,-1303,481,-352
44,116,-74,431,-3214,789
-105,120,-35,-147,-611,126
108,100,-80,-790,-773,655
85,99,-94,-625,-1737,1685
91,-113,-54,-1183,-452,1989
-123,-72,-90,-784,-1517,2624
-29,-24,-63,734,-1559,3676
49,20,-74,1458,-1391,3594
-127,97,-40,-1003,-487,3441
-48,-53,-6,2378,-2796,4217
33,33,63,719,-130,3641
8,-12,72,423,-909,3952
28,-94,50,2655,-754,3742
-20,109,-39,3187,-469,3069
92,-107,-82,842,-649,2197
53,-87,-35,-789,-178,1210
16,-120,-24,363,-621,540
-30,113,-38,324,-184,-415
-38,61,-67,-626,-106,-851
-28,-12,-83,-467,-118,-957
-2,-71,-104,-199,-177,-1135
17,-109,-115,-14,-64,-1336
-12,-2,-9,5398,1290,-3917
-10,-61,-32,2603,1156,-8602
56,62,-116,11462,2750,-6875
-31,-125,71,-5752,2292,-11993
9,48,-50,3018,3170,-6052
-86,34,115,-742,538,-2536
-6,-109,-68,155,-2091,-2037
104,87,28,955,-2734,-1154
-41,-15,64,3509,-5584,-600
-59,79,-120,1911,-2671,16
-84,42,90,809,-709,1768
62,14,-55,-1978,402,3558
41,54,-120,-99,-3063,6902
-47,-66,101,-3195,4914,114
47,40,-52,1603,-4618,-3640
17,-77,124,-1521,1365,1137
-27,40,-63,2701,-2348,382
-123,-68,-17,-158,-981,83
-90,119,-17,-380,-480,496
-128,64,-78,-346,-1268,528
-96,108,-70,-1425,-197,1374
-113,-124,-83,311,-1150,1399
-83,-108,-52,-834,244,1847
-11,-51,-79,-825,-804,2651
70,-83,-101,2392,-777,2898
121,11,-75,-322,33,2997
-62,37,-91,-266,-488,3230
-40,-68,-112,1842,-1002,3806
-37,-10,22,385,-1069,3195
-6,96,-31,1612,593,2907
-42,86,-104,905,-763,3188
-102,31,-47,860,-456,3075
-119,19,-1,1032,-389,3127
-113,85,25,683,231,2479
65,-71,-35,-174,-210,1448
18,-86,-58,-406,-541,-155
-23,92,-52,-554,-32,-968
-22,-41,-71,106,90,-1073
4,-68,-106,-431,110,-1437
34,123,119,-232,-31,-1504
34,99,-40,6156,-646,-4274
-46,73,-18,12874,2571,-9257
50,49,-119,8401,-600,-8091
-14,120,116,1431,5612,-10190
82,-20,5,-2533,1176,-5601
-92,62,65,1599,-4848,-2208
-60,42,-11,56,-4687,-1581
23,-85,-66,2788,-6392,-323
-69,86,46,578,-4058,-1529
-75,112,42,651,-1815,154
42,-36,2,-420,-521,813
111,25,17,-888,703,3442
-104,92,-64,1557,-123,4873
26,-103,-72,2145,-3651,-2622
-30,-64,-75,-1547,-1739,66
55,10,75,81,-158,-231
106,108,13,-125,-3082,666
-92,-76,-30,-822,-2014,-40
105,68,-33,-281,-1826,474
-108,-84,10,-1982,-1329,161
125,-8,15,-4791,346,793
71,81,-50,2511,-2846,2309
-58,-74,19,1422,-1984,3008
44,27,22,1804,-238,2809
-107,13,-47,676,-555,2892
-45,-3,-65,193,-1458,3531
-65,-59,-53,1995,-1142,3535
20,39,-15,-516,-710,3175
-20,-81,-14,1193,-1138,3387
-48,-110,90,752,-808,3154
-43,80,33,1949,-249,2744
112,-126,-21,967,-830,2207
24,-123,-14,709,-719,1231
3,120,-4,546,-127,346
-23,86,-51,-117,-23,-143
-27,64,-70,-782,15,-601
-18,-21,-97,110,-115,-741
10,-64,-123,-41,69,-1234
42,-123,121,117,29,-1367
58,65,101,651,-131,-1344
-78,-53,126,5043,5501,-5801
18,-8,-16,7802,2463,-6237
102,-114,110,2074,3476,-8557
-95,84,78,2498,6372,-7654
29,55,66,2773,2255,-7260
-1,109,-65,5557,-7186,-2213
-111,5,-51,-4511,795,-1160
-44,-54,67,2513,-5010,-1712
-44,-101,-57,2730,-3670,-1598
-52,-113,-58,1960,-2916,-624
110,-5,-26,865,-1346,-505
59,-94,-77,1891,-2060,3824
83,19,-64,-2841,982,3709
-72,7,85,670,3335,2250
42,-54,-103,535,-4946,-3197
-110,23,121,-2601,162,111
98,21,-80,2404,-3026,152
-117,85,88,-173,-2086,723
62,125,81,-1198,-818,-279
90,67,-31,-539,-722,703
98,65,-34,162,-1258,1789
-126,127,-26,-538,-731,1870
-104,-112,-42,-532,-307,2363
-7,-51,-66,122,-1259,3215
57,-19,-88,766,-1106,3340
118,2,-57,408,-415,3349
-25,2,-57,1010,-1804,3920
-43,10,-27,1754,-745,3386
14,-15,-6,-39,-830,3302
-21,127,-19,1758,-678,2872
-75,80,9,1708,-852,3281
-100,99,25,1324,-273,2763
119,-109,-4,928,-461,2005
50,-50,4,311,-471,947
-23,-118,-7,298,-345,-513
-42,18,-16,490,-135,-620
-32,-32,-46,-354,28,-846
-27,-68,-89,-687,21,-991
-4,-122,-113,-309,65,-1166
16,101,-122,54,45,-1014
10,-7,-52,14382,5318,-6352
102,107,-8,4784,797,-11476
55,10,70,7076,5278,-7508
14,-104,-114,-2512,436,-4725
24,30,-35,-3115,562,-3190
-59,28,31,-141,817,-3223
-44,91,12,2099,-5667,-2359
12,124,54,2841,-3955,-1138
-38,0,-74,1816,-5042,-853
-19,-5,-15,2107,-5328,331
48,-55,121,-151,-2561,744
107,0,39,-2892,633,1550
33,-40,-80,-2046,927,4461
-62,-54,-94,3168,796,506
-116,100,-115,940,-3841,-2133
-90,123,-123,-3223,1818,-727
26,56,-86,1191,-2055,224
97,66,-111,1049,-2048,196
-54,58,59,420,329,422
66,25,-47,54,-1587,1500
-97,57,-90,-845,-1349,1754
-120,103,-63,147,-1613,1608
-55,-114,-27,-842,-230,2248
-36,-100,-46,150,-445,2795
125,-92,-122,1389,-1231,3382
-117,4,-124,469,-1434,3565
41,48,-60,-907,-1029,4033
54,-27,-82,1431,-1936,3583
37,25,63,-18,-1198,3239
47,112,-15,2668,-301,3080
-45,-90,25,473,-1628,3259
-82,105,52,2250,-562,2509
70,-117,-3,2020,-822,2141
18,-49,44,283,-436,1108
-26,-101,17,-100,-44,38
-67,65,-27,207,-103,-403
-32,23,-33,-351,365,-1233
-21,-81,-86,131,284,-1252
-7,-116,-119,273,-89,-1254
19,118,-123,-329,-86,-1439
-40,65,-114,6067,5234,-4269
122,-76,27,10925,605,-7932
120,-44,-107,-2254,7352,-10023
65,-67,-81,5379,4006,-6998
-30,-4,39,-2644,1706,-3970
-57,64,52,-1293,-3222,-2266
16,-68,42,-1130,-356,-1161
-15,-70,50,1643,-2667,-1993
-4,-59,13,3063,-3941,-1619
5,-98,-76,2713,-2713,-1369
83,-73,46,987,-2198,-1214
117,120,41,384,220,772
-11,27,-43,561,-835,3155
-126,-50,3,-1462,-2925,5439
-30,-128,108,-1106,155,-1025
-31,-69,97,1001,-1168,-1577
25,-54,35,818,592,287
83,41,112,2330,-1866,967
-84,-46,4,88,-1215,542
-35,90,-11,-1035,482,-449
-74,1,-83,75,-782,1359
-125,27,-80,-31,-2252,1795
-61,127,-21,-3090,33,1517
-13,52,-57,-818,-833,2941
54,86,-49,2596,-2381,3788
-122,-25,-7,-620,293,3693
-25,-37,-64,-834,48,3548
81,-110,-46,1449,-1076,5123
117,-84,28,626,-341,4585
-18,-83,-17,1849,75,4901
-102,-22,-1,1744,-549,4146
30,98,17,350,306,2773
64,-92,-48,99,-715,340
-22,-50,-4,598,-361,-525
-19,82,-32,-34,-164,-262
-4,54,-101,-1166,80,-879
12,-30,123,-643,-176,-1410
31,-60,114,-532,-354,-1687
79,89,117,194,-263,-1638
-127,50,110,100,-140,-1403
56,16,26,7643,1764,-7895
103,74,82,3813,783,-9542
-91,127,94,1607,3722,-8888
9,48,-15,-2121,2856,-6240
-85,-8,100,3452,-5719,-834
-71,68,-17,-2738,2006,-2711
-38,-51,21,3898,-4859,-1975
-38,-82,4,3597,-5616,-1206
-64,51,-10,539,-1805,-1316
-77,-85,51,1736,-1504,-116
-103,73,-27,606,-1476,3190
94,-124,-11,-658,-597,6436
115,-41,18,152,2041,2135
-112,-67,11,387,-2157,-3646
68,-47,127,-1819,1390,419
27,43,66,146,-3391,973
85,-118,48,1070,-1928,758
-47,85,-12,-559,269,253
103,56,82,-1064,-2534,1251
127,-28,-127,-627,-1893,1787
-104,120,-57,-1650,-327,1571
-105,-125,-93,-884,-1147,3151
45,-23,-53,273,-1340,3706
-87,-2,-71,3041,-2733,4253
11,-119,-22,-651,-631,3971
98,-29,-53,2046,-1952,4584
103,97,33,857,-975,3512
48,-80,3,1947,-577,3680
-6,-24,30,682,-789,3219
-72,-87,54,1988,-249,2957
116,-18,3,1197,-238,2045
26,16,-39,664,-456,542
-17,-103,-52,680,-124,-838
-50,32,-74,712,-112,-952
-32,-51,-87,311,-96,-980
-5,-101,-113,246,-72,-1240
18,-128,-119,-212,-177,-1449
40,70,-117,-229,-186,-1423
21,41,-118,216,-307,-1148
17,37,-113,-321,-103,-866
-110,121,-113,7701,2595,-6123
3,77,72,5370,3945,-7601
-47,-44,-89,3973,891,-8335
106,24,-79,455,4913,-9005
34,16,72,3816,3550,-8507
-26,94,74,1167,1906,-4345
37,-52,-19,-1504,-1115,-1114
43,-58,114,2585,-4517,2582
-40,-94,-15,3985,-3813,301
-24,96,-69,3716,-3922,-805
74,125,76,-87,-462,871
110,-53,-112,1686,-3860,3257
49,-32,-79,-3620,-3794,6795
-94,87,125,-6659,380,6074
-72,12,-111,1410,859,719
27,-95,-64,2317,-5083,-5101
-29,-54,85,-1535,2420,102
48,-9,8,888,-2424,-450
127,124,19,-474,-1691,227
-106,118,-7,597,-733,-223
-80,107,-49,-380,207,337
123,109,-55,-81,-1677,1355
-108,92,-100,255,-1255,2141
-20,-88,-54,692,-1489,3113
1,-79,-111,1677,-2008,2999
-92,42,0,491,-711,3780
-41,-10,-24,1350,-1949,3988
82,78,73,90,-1385,3527
-81,3,64,1390,-1686,3132
-107,-81,76,2081,18,3026
78,80,-68,3354,-762,3204
-100,-68,9,653,-772,2678
102,-47,8,710,-150,1433
11,8,9,-153,-4,-52
-35,97,-30,1257,-39,-1430
-41,-34,-47,1011,82,-1259
-24,-103,-90,15,243,-1304
-15,118,-112,-551,-2,-1260
9,93,-117,-506,-233,-1161
34,65,-123,-345,-134,-1179
21,41,101,6187,1410,-4835
-74,107,98,8451,7558,-9297
119,-97,123,8060,14,-7203
-35,59,35,1837,1174,-9012
58,100,71,1288,823,-6626
55,108,-58,1403,-4179,-1765
-74,99,-67,-783,2062,2294
-38,-54,43,3557,-7682,-1319
-42,38,105,2265,-2965,-1640
-17,-97,120,1877,-3179,674
-27,-65,-52,3693,-3499,913
-64,15,-122,-2501,-1244,1623
116,-83,-74,-2901,601,3949
-17,117,13,-1161,-3660,6060
-71,-118,-23,5717,2486,-1184
-114,103,91,-2426,-3537,-1888
118,-34,60,-2041,1844,480
37,95,121,674,-2464,338
-116,-112,56,-545,-203,277
119,125,-70,-1386,-1906,1183
112,66,-97,-302,-1608,1252
-74,-98,-17,-861,-401,1170
123,-84,-34,-923,-1326,2035
-70,-25,-27,-888,-190,1972
29,-44,-55,1703,-2104,3282
37,11,-62,1424,-919,2445
-107,81,-45,-333,-1015,3370
-76,-34,-68,1948,-1935,3413
-46,13,49,573,-706,3157
-63,-74,-26,1371,-799,3352
-51,-11,22,-351,-1427,2890
-90,-124,86,1230,-815,2611
108,91,6,2493,-569,2255
51,-113,21,1819,-769,1326
9,-69,14,-481,26,45
-25,70,-19,176,-183,-385
-20,11,-27,99,140,-670
-16,-52,-78,-10,122,-839
-6,-77,-109,-129,17,-1000
21,-116,118,-387,73,-1067
82,-87,63,7197,-515,-5350
-68,-95,-13,12262,3749,-9499
111,80,-31,2007,3748,-11028
-30,-11,-63,-1027,7154,-9054
76,-2,16,822,-1567,-3925
28,38,-7,-2348,2139,-2019
-123,68,57,-1479,-1473,-240
-57,-41,69,3484,-5158,-2013
-23,29,88,1898,-1341,-2371
-30,21,-28,4445,-4050,-743
108,-77,-107,3288,-4310,748
-100,99,-107,1103,-1621,3360
-110,-19,-64,-4236,-693,2774
126,-118,-69,-2351,-3901,4794
45,-127,-77,2925,4128,-128
-128,-97,119,3111,-6335,-2478
-122,109,-127,-2420,2142,449
90,-72,-37,-653,-2307,-727
105,-82,-94,923,839,-1012
-95,32,-104,500,-1792,506
97,104,-97,-1018,-1498,760
92,24,-71,-728,-490,977
124,88,-60,-414,-1584,1830
-119,-58,-38,-1467,-826,2055
-43,-46,-3,1539,-863,2812
71,-52,-104,2420,-770,2840
113,-10,-114,1283,-608,3421
-107,51,-59,233,-1498,3289
-52,-53,2,789,-1105,3715
-83,-20,78,559,-876,3516
-69,-31,56,523,-577,3210
-95,-112,35,1550,-930,3153
124,94,56,1355,-549,2864
86,102,26,1173,-420,2377
26,-100,8,864,-748,1383
-3,-91,1,-106,-52,-94
-47,63,-32,250,53,-767
-57,-40,-52,195,63,-866
-40,-77,-82,143,161,-934
-15,-115,-110,-131,91,-1030
-122,-100,86,6126,-2482,-4015
-15,-25,-104,4308,3681,-6460
39,-85,-10,6180,5676,-8880
-36,-108,-2,399,955,-8816
-96,-43,71,1012,5608,-9335
104,-49,55,-20,2598,-7578
-91,41,14,1587,-2424,-2767
-58,112,-25,-1318,-3148,5777
-84,40,52,1544,-2708,-1003
-40,116,59,3328,-2942,-1320
-42,-111,54,2802,-3739,-573
-3,-15,-1,1285,-2611,803
68,103,-92,1954,-1815,1794
-47,90,-17,-2220,-1246,2942
39,-82,-50,-4907,1999,6840
31,-41,127,5327,2984,9
-34,42,25,-1827,-2619,-3653
-123,-14,98,-2052,3257,604
16,51,69,1366,-3996,1029
-55,-90,69,349,-909,181
-72,-121,51,-16,296,-7
121,61,-83,555,-2276,871
118,103,-47,-2302,-487,758
111,75,-27,-985,141,766
124,100,-54,-1250,-614,2371
-69,111,-124,-621,-1796,3926
-10,-94,-118,2322,-2374,3721
-52,65,-9,-1737,-230,4136
-115,-23,-95,940,-957,3585
51,-19,-9,1013,-1986,4759
52,-52,55,1151,-762,3721
83,-45,41,-5,-601,3927
48,96,10,2137,-1462,4175
-30,-6,24,549,-1297,2860
66,100,14,-168,-1588,544
-31,-31,33,-235,-641,-980
-72,56,26,991,-152,-780
-55,39,-23,-90,619,-1094
-11,11,-97,-1012,829,-1436
8,-51,104,-1131,357,-1538
-12,52,85,3672,3102,-4910
-5,-6,-53,5831,2120,-5454
31,112,-85,4123,-342,-6867
-17,8,94,2137,1727,-7573
-99,39,70,2426,-896,-8902
-31,84,-90,1946,1741,-8948
-90,-54,66,-1659,479,-3265
105,59,-72,2097,-1218,-2404
-66,-57,3,549,-3143,-629
58,56,-23,-5370,-886,4022
-9,-2,-77,-2159,-6348,2214
102,-83,51,-7762,-5521,1799
122,-99,7,-2761,-8862,1505
-72,47,100,3194,-8851,2491
-37,-112,-101,868,1271,-1204
88,34,-23,3143,894,-1995
-38,-91,-127,-1011,1645,-473
27,20,-124,2968,-606,478
-119,2,-16,2380,4602,1739
35,57,-49,4517,-3112,731
32,119,0,5223,3228,3428
54,125,-95,1432,2214,2887
111,-16,56,-1590,1739,2629
10,103,81,-115,-646,7163
-79,94,-97,-2565,-1947,5662
70,-128,23,-7721,-1667,8254
-79,-73,120,986,-4560,1956
20,-19,81,10295,-3755,-338
1,45,-28,-5582,5637,-2625
52,36,-35,-3069,1895,-2853
-1,-104,60,-1479,1710,-2089
1,-82,96,-944,-1118,130
-26,-39,91,12,546,613
1,75,103,168,-37,438
64,93,107,-606,133,162
93,107,-113,5,-379,137
82,106,-8,-411,782,-520
64,61,-54,-413,176,-230
67,40,103,205,-348,146
83,74,-124,143,-137,142
-7,48,-27,4777,4134,-3052
124,-98,-112,9999,919,-4941
14,93,-1,6301,2574,-9106
65,75,74,2998,3777,-9764
-100,47,-95,1088,4436,-11836
19,-31,-120,6046,2064,-6788
-23,71,-3,3100,85,-4724
30,9,-54,-340,-1103,-399
2,-84,2,-1652,-5860,2303
114,115,-112,-2047,-11234,4691
-125,82,15,-6997,-2194,5703
125,17,82,588,-5982,506
73,99,-51,-2775,-2708,1542
81,102,99,2158,129,-3742
-113,-35,97,5811,836,-4029
16,44,53,2086,-2254,-262
32,11,4,2241,-3336,1614
80,-12,-1,4284,-869,3068
-9,16,81,6398,-39,4896
-111,-40,-117,4062,475,7203
-1,22,25,1895,2478,5426
5,-55,23,236,-801,7864
68,104,103,4164,-202,4988
-91,60,-95,4606,-1558,4322
-106,-113,85,-816,-1019,2199
14,-48,-55,-3506,1953,-5516
-75,-48,-31,-2474,323,-1153
117,105,-122,-490,259,-234
-117,-100,110,-73,623,-127
-56,-22,-127,-1018,373,-19
-13,23,-112,-2010,184,-513
0,57,-81,-2898,386,-1047
12,28,-86,-2698,916,-1024
4,-10,-110,-816,513,-133
-6,-1,-125,354,120,180
10,45,122,1133,-462,418
32,83,-121,539,-452,394
59,106,-112,-77,-102,294
67,116,-124,-326,220,3
73,111,116,-282,98,-155
-34,58,-76,8630,1013,-2872
-113,100,-88,6220,1469,-5177
-111,115,-66,5665,-1384,-8667
-93,74,-27,1918,292,-10866
111,-14,4,1680,2811,-11577
78,-84,-45,2463,2037,-7099
84,-53,-120,2104,2083,-4786
51,31,107,659,-1139,1063
-73,-104,62,-2910,-4823,3362
-18,106,23,-4804,-6475,4816
-99,-84,-82,-1833,-9258,5335
-2,-107,-64,-7829,-5553,1398
52,80,-69,896,-5346,2039
-119,-20,66,656,4196,-2400
102,-18,44,3261,1656,-1582
108,66,44,4864,-3206,1432
28,-83,81,3155,-4575,3386
78,-19,-88,1170,-2623,3364
77,12,108,3688,-3045,6271
30,-121,-40,1599,-870,4883
-117,-54,32,1445,-902,5348
-84,-127,-56,496,-1287,4133
-18,24,-103,1509,-2718,2534
47,3,7,-898,1489,2591
1,-1,4,4914,1317,-1035
32,-62,-99,1538,-786,-2063
-85,-53,-47,-2481,807,-1116
-94,-106,106,-844,712,-261
-56,-102,98,292,450,19
-35,-78,64,-805,671,124
-4,22,112,-2643,-55,-404
49,60,-69,-2527,793,-581
34,30,-46,-981,821,-520
24,-11,74,345,240,-152
35,7,90,648,-248,65
55,37,99,-21,-1,53
68,48,95,-232,42,-20
71,46,100,-151,-153,20
77,50,113,-87,-112,97
84,61,116,2,-38,30
82,-98,104,6001,1393,-3226
105,1,41,5829,1575,-5984
-61,103,1,2194,973,-8909
106,-48,-93,2411,-32,-8921
30,91,-76,2233,346,-9981
-107,5,-82,1611,1716,-8338
14,125,-87,544,451,-4365
60,116,107,1256,-1139,-1005
41,-127,-104,-2284,-1890,1562
-15,-127,2,-2568,-5183,5010
-14,-78,-69,-2611,-6626,4437
-71,41,-98,-8055,-7002,3599
71,20,90,-2626,-4486,-1036
-3,-22,1,-852,-5505,74
33,-82,122,1865,1320,-2307
-22,11,-115,4328,1760,-3109
21,-5,3,6970,-2223,590
-109,-120,-44,2500,-1814,2251
-127,92,-33,3000,-854,3413
86,57,-70,5137,-853,5045
64,-96,-24,1196,1195,5365
100,115,-98,710,1820,5170
78,92,-115,1257,168,4342
-112,-116,-17,1021,-531,4525
95,83,-49,-3706,800,1033
127,-29,-39,137,56,2761
-81,59,14,2811,-3876,3293
-126,15,93,2607,-2442,1584
54,33,-59,-4358,4128,-4280
-22,-125,72,-269,371,-2065
-51,65,84,660,304,-467
-100,91,81,686,-297,-68
-51,-126,98,-58,-282,382
-5,-36,-88,-1408,-296,72
0,-34,-98,-711,-373,274
4,-5,-33,116,648,-380
16,-38,-109,309,64,-15
15,-31,99,-275,119,-17
37,-14,97,-414,170,-12
40,-5,88,-293,200,-206
-85,115,96,5639,1321,-4914
-46,113,99,5130,-1048,-8662
-100,101,49,1086,829,-11592
119,60,7,2273,-1198,-11365
-111,-32,72,949,2986,-8843
-122,-3,18,2312,1935,-5039
-86,-100,-124,291,1500,-1291
5,24,-13,-1515,-1949,2116
-109,-18,-55,-2803,-4402,3894
-122,-103,113,-3667,-4753,4059
-24,4,38,-7501,-5289,1767
3,-77,44,-5221,-10793,2308
21,-34,16,-900,-2616,1250
102,99,-78,2312,2194,-2706
13,-78,-42,4424,5058,-2908
34,-94,71,1096,-918,365
76,61,95,3125,-2826,1911
64,82,121,2782,-3436,3772
72,35,39,3712,-2638,3530
-101,16,54,4582,-2611,6028
31,46,-82,-407,717,6182
4,94,111,-611,612,5847
90,82,-39,-468,-1813,3949
5,122,-58,4209,-1920,5299
-58,40,-38,953,-1668,3265
20,-19,53,6668,-2376,-763
68,-113,23,706,59,-2917
-66,-33,-60,-1615,-66,-1172
-71,-121,-83,-2571,1218,-1256
-79,105,76,92,987,-238
-77,-125,69,-29,1060,-216
-56,-70,85,-1139,-483,12
-19,9,-99,-2675,-482,-160
15,30,-74,-1542,-235,-9
27,52,30,-394,1248,-568
26,-12,102,363,284,-143
47,-15,101,707,23,59
34,16,88,145,-27,21
32,14,80,-76,38,121
45,21,81,-158,-5,173
39,52,-3,-1492,-934,-9633
-79,68,-57,11,2320,-10796
-45,67,67,1664,1810,-9006
102,74,102,951,1372,-4231
32,102,-73,422,-350,-1077
3,111,62,-2621,-3217,2747
-16,121,-9,-3354,-5131,4370
7,-111,-119,-3243,-5780,3399
-91,87,-55,-9250,-5992,2201
-68,66,83,-711,-9567,-2213
-88,5,1,1996,-3656,2040
87,-48,13,1280,6257,-5823
42,-107,-50,5369,-2467,-775
-53,107,-80,3724,-5464,2242
122,-46,0,970,-3587,2091
99,-63,-57,3211,-1886,1643
-1,78,-60,4227,-2214,4685
-127,-5,-88,4882,-1404,5711
115,50,-122,2594,1618,5266
18,53,-118,2094,1037,4902
23,-40,21,4756,-612,4157
57,-72,-37,-3927,-5100,1206
-49,87,91,3156,3827,-2240
5,68,-48,792,397,-2687
-80,107,41,-3066,2098,-1722
-42,105,64,-1895,712,-596
-32,-118,82,264,-1066,589
-24,-34,126,-1324,341,10
7,-3,-113,-1235,-398,-43
9,31,-84,-1544,-442,-199
15,34,-46,-446,-38,-218
36,21,29,78,654,-102
29,0,121,709,130,84
44,31,107,312,56,6
61,39,104,-580,318,-90
74,38,93,-697,364,-52
77,35,79,0,-107,53
82,50,94,-59,-193,-23
90,61,120,-437,-18,-209
90,45,-126,-307,-52,-90
-8,121,91,3903,1948,-4901
-86,-24,118,3891,832,-6679
-47,104,92,1706,1357,-10130
-83,-105,-10,1249,877,-11589
-28,17,-38,953,2161,-10181
97,75,-77,2032,2401,-7010
-73,-62,92,1400,2304,-3044
-53,-59,110,215,1073,189
32,-105,105,-3969,-2027,3689
0,-109,-2,-4659,-11144,4337
67,69,-33,-4683,-8569,5118
76,-29,-114,-8565,-5733,685
-22,-116,-55,-905,-4068,-2327
-69,-69,-62,1850,2130,-566
122,68,-66,1145,5567,-3294
-50,10,-123,5946,-1918,-460
11,79,-18,3330,-5115,784
48,78,118,1416,-2813,2577
-55,-5,111,4440,-3857,4686
-19,121,7,1561,-1157,5683
104,-128,-16,2450,-1332,4821
-121,-10,-85,5485,-2461,6115
-47,-108,-65,5373,-149,6848
-102,-59,27,3887,258,5291
-104,-110,114,-3171,687,3467
-92,-124,12,-2717,-1380,1162
24,72,-38,49,-555,-2303
-19,-66,-22,-752,1861,-3191
-66,-112,-120,2460,631,-1781
-125,-49,-78,-1099,-302,-234
-90,47,25,-6378,1356,-551
-43,-96,-44,-864,903,824
-61,-46,-103,2306,1199,-603
3,-9,109,1823,568,-1561
40,-44,105,1262,-586,-509
13,-59,77,700,-624,-34
-12,-47,81,74,-788,10
8,-15,122,-1197,-132,-79
11,4,124,-1405,65,-15
7,30,-119,-1281,-252,-163
9,100,-84,8074,3962,-2219
-97,-1,-38,2117,3300,-3446
-28,58,103,7317,-50,-7456
-57,-92,-25,5321,243,-6861
70,-127,115,2739,1354,-9110
15,-51,-41,4269,839,-8482
13,87,95,4214,2378,-3965
-71,50,40,5132,-1176,-23
-7,21,72,1092,-3710,-756
-10,-128,-27,-2463,-5711,2663
-19,119,-33,-12223,-5905,8667
-30,-12,-21,1704,-4405,-298
-9,33,110,-1724,-7310,3275
-78,8,121,-6580,1907,-860
-19,-82,66,-543,-867,-2538
79,-54,-78,2551,-818,-2450
60,-66,52,4214,-2855,-1359
-123,61,-78,-53,-3444,1773
-2,-128,39,2305,-4465,2046
112,-40,83,2358,-2729,2271
17,-7,31,3970,-2243,3246
3,-101,25,3921,-1997,3530
17,-83,-36,3820,-1635,4667
-50,-109,-8,4635,-2070,4478
-57,-61,-7,3530,-554,3660
120,-100,64,-1480,847,1938
-65,72,15,14385,-6237,3328
-74,126,-48,-895,2080,-2035
18,32,-128,-3520,867,-1178
-85,-112,-120,-2754,1743,-2293
-112,83,-116,739,-384,-875
-99,86,-111,-198,783,-123
-66,-101,-110,-289,-269,502
-44,-52,-100,-1158,276,117
-2,-8,-95,-1465,-20,-32
-6,14,-92,-1794,-91,-375
-23,19,-32,-899,-1028,-445
-12,-41,-128,1146,920,46
-27,-52,-87,1537,-478,562
21,15,-117,312,85,232
47,48,-72,3737,-72,-7583
-49,-112,-90,227,-80,-11299
-60,40,38,1207,2105,-9859
-15,57,-84,2011,2266,-8035
55,63,16,1237,2704,-4291
-72,-117,49,-383,901,-1502
-40,6,74,-2721,-4176,1995
77,70,26,-3136,-5891,3832
-25,118,-115,-1416,-8523,3275
19,-51,11,-3186,-8657,2403
-71,116,72,-3336,-5142,329
-112,-23,-75,965,790,751
-73,67,37,974,3330,-1979
-62,-35,-19,1533,-1084,-668
-42,-17,54,-419,-1804,-94
-13,112,36,1624,-1788,882
-26,90,13,4083,-4648,2268
-50,-127,117,4853,-4188,2341
10,-125,-126,3483,-3853,3377
108,41,-1,3360,-1625,5278
-116,-78,9,549,1060,3498
126,89,-122,3954,-1343,3728
71,-111,-120,2801,408,3265
93,-2,-9,-1314,1187,1799
79,36,10,552,-569,1723
-117,64,81,3052,-6700,4213
-103,40,-74,-540,5064,-3187
-59,-17,-70,-3670,2846,-3134
-78,38,67,2018,254,-1360
-79,73,-86,1433,-94,78
-84,-83,-85,-1927,313,-296
-36,-86,-91,-1664,228,-157
0,-57,-103,-1325,504,99
-6,-11,-121,-920,159,103
-6,12,-123,-454,37,-224
9,-38,120,663,-153,-236
1,-28,-95,169,-487,46
21,-13,-82,-134,-88,368
28,27,-74,-611,102,213
28,18,-108,263,15,-8
-18,-41,-125,4954,895,-4269
-6,-117,-125,1696,2320,-6775
41,127,127,2265,2566,-8392
-126,-98,94,1761,3401,-10019
72,39,44,2352,4800,-9274
40,-99,56,2536,1198,-6025
66,34,114,1101,423,-2747
-42,-67,54,357,562,-878
48,-115,36,-1964,-2749,2382
98,79,91,-3877,-5708,2838
117,-4,80,-4781,-9892,3986
-64,24,-51,-4867,-5515,2976
67,54,-45,-426,-5508,-178
-113,-61,27,1848,257,907
80,-61,-105,2490,1562,-2913
77,-27,-98,2234,-3142,-146
117,53,20,-438,-3707,-349
-96,12,-37,1148,-377,-342
-54,53,31,5263,-1304,1168
-67,-20,-43,4230,-3206,3784
-37,108,-42,3308,-1941,5081
97,72,-23,1702,954,4810
-29,-52,-11,1706,-1216,5292
-69,115,-46,227,871,2876
1,-39,-36,2276,-252,4480
-122,-66,-112,3024,-1850,2440
-19,-2,-122,-6773,-2191,-624
-95,-97,88,4204,-1128,-2283
-59,82,28,2257,-2378,-844
71,-14,-17,-110,2089,766
51,-37,-50,616,65,-478
-99,-112,10,860,-35,202
-27,-86,-26,661,287,438
-64,-8,-63,-473,78,-10
-56,-19,-93,-1285,569,-434
-53,-57,120,-763,644,-588
-32,-124,89,896,-187,62
-47,-81,-108,502,-331,148
-20,-45,-62,231,144,85
0,-51,-110,93,-35,16
32,32,-31,447,4024,-8060
109,-23,-34,1475,4037,-9815
127,-118,36,1312,5951,-10226
-2,122,-26,2187,989,-5293
117,-64,-47,447,2806,-3375
107,85,57,-340,-334,-234
-94,125,126,-480,-2185,48
-96,-111,-28,-306,-4760,1901
-114,-90,106,-2853,-6813,2760
23,-95,-9,-4083,-9957,4194
114,-92,6,-5296,-1155,-1151
115,-29,-46,2619,-812,-408
14,108,-62,2677,4374,-1966
-98,18,64,6673,-3726,1797
19,43,-71,-373,-3469,2038
52,110,-37,-44,-2988,-113
36,-22,-92,4715,-2190,592
76,-111,36,7987,-2705,2677
74,-49,85,6526,711,4804
61,47,-76,-1030,5176,4337
-117,53,28,-1211,1866,5103
-116,84,-86,3173,-1538,5360
-27,-37,94,473,-2579,5340
92,89,105,-3600,-4523,5713
125,5,-124,-2354,7645,-5674
-16,24,88,-1027,-287,-2336
-99,-33,-15,413,1910,-1418
-122,97,-107,1988,-1708,450
121,-117,-43,-1504,521,68
-80,-100,-73,-1409,300,579
-58,-55,-45,437,-1267,1340
-10,55,43,359,920,-513
-1,5,-78,-846,241,-93
-12,-24,120,-1304,1146,-597
-29,-89,59,639,-187,-2
-27,-61,99,385,-343,101
-15,-52,122,197,-666,279
18,-18,-43,424,203,127
30,-14,-87,448,-14,56
32,-19,107,-578,117,-101
115,-115,84,894,1473,-9639
124,57,-80,-309,2235,-9364
-89,-115,-112,374,897,-6506
65,-116,59,297,2049,-3824
83,-108,28,478,-1167,-2237
-111,-96,123,-1397,-2051,-331
57,2,-97,-501,-4563,2567
3,-94,-127,285,-9699,7543
35,-18,116,-3646,-5686,5401
-124,110,-27,-8848,-1019,-718
-24,85,-9,-1354,-4869,1602
49,73,-89,2943,1506,-2360
61,17,-59,1762,1019,-2750
-61,116,-119,2461,-2186,-384
-10,-86,-110,2056,-277,255
-112,-126,32,2841,-336,722
-17,-18,-73,6727,-2661,3183
107,98,100,4128,589,3533
9,41,13,5169,-178,5833
70,119,-52,-719,388,5466
-47,-45,-117,-1803,1086,5780
-28,-105,52,-511,-1491,4934
13,30,116,-774,-922,677
-47,-55,-16,2489,-3518,2189
-107,46,-79,12299,-7642,1973
-115,12,52,-6379,6169,-4083
-27,32,-54,-1083,1090,-1143
-82,-118,-115,-276,-632,-589
-91,-124,-122,-342,-22,-195
-60,-83,-118,-288,172,473
-29,-18,-107,-1223,439,294
11,30,-127,-1738,504,112
33,40,125,-1376,266,-79
32,49,-112,-478,-355,-217
10,36,-93,146,-241,-503
14,3,-82,659,-154,-42
17,6,-80,598,17,417
39,38,-124,392,58,213
65,57,108,-307,298,-144
71,25,85,-272,211,-126
-102,80,35,1102,2607,-7794
23,85,-120,-67,7957,-11388
-107,-21,-64,2353,9363,-11853
77,-121,86,2504,4994,-6799
-70,-63,-93,1561,4808,-5868
-56,-102,-24,1872,1143,-2592
-24,89,75,-5426,-2545,689
29,2,-111,-916,-21079,3686
-64,97,-29,-7165,-7326,6437
-30,97,109,-633,-764,-3761
-9,-103,92,1662,-4068,3925
-13,36,-116,3502,1619,-4184
-64,89,34,1051,69,-3630
-107,-86,-92,1627,-3158,-99
-64,96,96,4653,-3665,1892
48,-116,-56,4413,-3163,1375
-104,110,29,5133,-1552,3457
57,123,66,4670,-961,3919
-79,24,21,1445,-126,5438
106,-107,-120,-858,-462,3562
47,96,-89,7200,-912,6290
69,-94,-123,-762,-46,2251
61,12,-95,3411,-5494,5284
11,111,20,2842,654,-3790
-65,-113,-50,-5048,4010,-3887
-22,-63,30,70,1803,-615
-114,59,110,3054,-1956,1122
-107,97,-75,-1218,1636,-833
-37,111,-74,-1290,171,-17
-40,-99,-62,-1119,-673,257
-35,-68,-67,-2130,545,-236
-22,-64,-52,-376,-623,-6
-25,-62,-63,225,494,-69
-4,-53,-86,380,262,-56
8,-58,-118,102,253,-18
12,-43,119,-182,-29,-61
20,-51,114,-224,207,-12
31,-48,108,-115,22,88
42,-40,103,56,-105,126
47,-26,115,-79,-160,-12
-20,106,-112,4710,657,-5996
24,52,-112,1560,1605,-8769
109,9,82,1212,776,-9713
106,-106,15,900,1636,-9884
46,-13,-90,-3095,4550,-5912
120,4,96,4310,2173,-2982
-50,111,34,44,-118,-1131
23,-78,7,-3216,-3486,756
-82,27,37,-1753,-7820,4494
4,-100,-50,-2923,-11201,7092
-67,-68,72,-4029,-6692,5992
-27,-109,-44,-6645,-2375,399
114,-38,-87,800,2840,-295
-104,85,55,2839,131,-3946
-11,-67,-128,3627,-1610,-2054
-78,125,109,-623,3833,-2924
25,114,78,3223,1465,-378
-95,97,94,4113,-579,1500
-24,-8,-43,3749,926,3302
41,-12,48,2459,-1866,4497
80,-99,-128,3048,-1327,6046
-42,-102,-103,106,1427,7740
-99,14,-95,334,-3375,6937
-82,-96,-5,-430,371,1976
-103,5,-53,2809,-2253,6624
-121,-83,-69,-1597,-2098,3416
-21,-56,125,-2685,1361,-484
100,56,78,5189,692,-1352
-114,-128,51,4130,-1419,1311
-27,-100,57,-3271,991,-1808
-101,-115,-96,-1713,664,-1227
123,108,-103,259,236,-138
-123,121,119,539,488,190
-59,-80,124,-360,55,322
-32,-47,-120,-1043,-115,176
-26,-31,-91,-188,-532,125
-39,-31,-53,923,159,-286
-15,-63,-71,620,93,147
-12,-56,105,295,-37,195
-14,-35,96,-147,-69,-12
127,127,-76,-2822,2295,-7098
70,-128,-11,220,1658,-8623
-18,96,-47,-566,2692,-8353
-100,32,-37,373,3024,-8866
56,103,127,2961,2314,-3522
22,95,-97,631,324,-846
-113,-44,-18,-314,-3258,3735
46,-47,51,-193,-4640,1977
75,13,106,-5788,-6503,4019
-7,30,40,-9177,-7724,3825
-31,-101,-7,263,-7818,1712
117,25,38,-896,4112,644
-23,93,10,5787,847,-2148
-32,14,-116,4282,-2186,-1572
-109,-70,76,1409,-1789,-1019
-38,81,-13,3694,-2886,1301
10,-33,-118,5687,-3234,1873
-89,44,-88,3036,-3011,1726
29,78,-109,4251,-2269,4195
95,67,85,3390,-297,3493
-8,116,66,1707,979,3770
61,52,-49,1616,-676,4649
90,-108,-52,1631,1866,3672
-112,-72,33,4612,3198,5679
-68,-33,121,-27,-6617,4643
82,-41,43,-4285,8213,-6090
113,97,121,-1297,-131,-506
-22,51,65,508,-691,103
-9,83,127,1588,-314,440
-126,-88,26,-1879,815,-298
-31,-104,44,-214,201,-147
-47,-81,-10,-313,1004,-153
0,-119,-124,-9,689,-648
101,81,95,1238,-772,312
-121,120,123,1949,-821,669
-118,-42,-81,1660,-203,39
-29,-14,-6,37,433,64
-10,-39,-66,-872,446,-187
-25,-82,-121,-1198,132,-359
-18,-93,-127,-1038,418,-421
-116,86,16,3150,1788,-6850
-62,-110,33,3360,1036,-8373
-33,105,29,634,2109,-9803
15,10,-34,1392,3628,-11293
14,-24,94,1858,-1410,-9243
34,58,-40,-528,586,-3215
32,48,-124,-13,1434,-944
-122,96,-69,1506,-1404,599
-7,-81,-21,-353,-1799,1543
77,40,49,-8606,-4368,2620
10,-51,-14,-5990,-16258,5790
-43,-86,51,-7586,-7428,3346
-59,74,-16,88,2781,-1
-76,31,48,5506,973,-2858
-30,33,30,-1057,1471,-4283
41,35,-84,9675,-4529,-1786
25,-95,1,-751,-2070,3902
-98,-43,-76,216,-1862,298
-57,-125,-68,8151,-5038,811
-93,29,-17,11420,-4565,4664
-51,67,-17,4163,-47,5372
67,-14,-106,-4070,2866,4396
40,-53,63,-571,-85,3817
-49,-78,89,4280,-1267,4230
43,113,-121,3335,2127,2303
-41,-82,-69,-1770,-784,-614
-78,50,-77,11201,-7147,4071
97,8,-73,-3559,4373,-3687
-29,-106,57,-3746,3275,-1123
-56,-113,114,-1464,1591,-1487
-81,102,107,1221,-1100,-14
-84,112,117,400,244,-211
-57,-106,-102,534,-782,252
-43,-59,-84,-1145,330,73
-30,-32,-94,-1354,72,-8
1,-22,-104,-1309,274,-183
-5,-11,-84,-740,-416,-343
-45,-37,-72,649,-911,-106
-30,-36,-55,894,-214,305
-4,-4,-74,410,365,302
103,-33,2,2117,3530,-7143
47,-98,-23,3199,3134,-8797
-15,-122,32,-4011,7939,-13052
-17,89,46,2796,6155,-6686
108,96,-97,4167,759,-3688
44,-48,38,-315,1164,-1045
-38,44,71,2509,286,-940
81,-28,-53,-285,-4541,141
-105,-93,44,433,-6720,3236
27,6,-83,-4866,-8298,5056
70,-20,-16,-7981,-7785,5114
-91,-66,99,-3089,-7568,-2065
-38,35,95,-857,1189,2479
56,104,-38,3554,2776,-3511
80,55,125,7204,130,-4251
-3,90,88,2300,-4179,2186
100,-29,-48,1514,-4379,2538
23,-100,125,4138,-2530,1745
-48,-16,22,4233,-2583,2250
-97,-13,2,3922,-4624,5268
110,-90,-91,-357,-831,4511
-45,15,-46,1492,-2240,4115
-116,-121,56,3957,880,4725
49,17,-122,-6262,-358,-2352
44,-71,-8,3924,1418,-205
-55,-49,94,-3529,1519,-3053
42,-93,-122,-1341,4267,-333
-25,-103,-96,5449,-4037,1811
78,-104,-30,1552,441,42
-51,11,54,182,1630,-210
-65,-31,-32,1459,-885,503
-45,-44,-64,-1962,1301,451
-22,16,-97,-2374,876,194
-48,11,125,-1008,609,-231
-40,-5,106,-735,897,-589
-34,-17,111,-342,204,-211
-30,-19,104,138,-112,-67
-8,-2,-125,-301,4,-140
13,2,-115,-521,148,-68
21,7,-113,-183,0,-42
-7,-88,108,2188,2903,-6624
-85,89,28,-1334,5466,-9012
-53,-27,105,2883,5344,-10681
10,35,-53,2440,4762,-8639
106,-126,-78,2147,2850,-5138
104,-107,81,-3893,10163,-687
-10,-101,74,4671,-2789,258
35,-58,-54,-1330,-4128,1027
72,-68,2,-4054,-15161,7034
-21,34,90,-4714,-10495,9164
-120,-115,117,-7290,-1159,-853
113,6,-18,-1951,-2235,4359
75,101,-86,-2325,2767,-2685
-87,-40,-86,7809,-3864,-3744
0,87,75,-35,-1087,-2949
47,117,87,1935,-3011,-1244
-90,40,30,2335,-2133,325
2,-30,-67,4927,-3241,1743
16,32,70,4742,-2237,2778
-126,-88,63,4571,-3384,5072
14,-35,73,2966,-4297,5172
10,-6,-32,1935,49,2728
-94,39,84,1984,1342,1365
15,46,104,6396,364,2134
124,-64,-117,979,19,506
79,5,114,6872,-3933,-710
1,0,11,-3981,3262,-2701
-82,-11,77,-1016,747,342
-117,-76,-48,-1703,458,-773
-96,117,-119,-932,1043,-635
-80,-108,-112,-1193,431,-552
-58,-99,-104,-918,-107,-268
-52,-71,-77,-1240,-209,-312
-47,-59,-48,-708,-541,-35
-50,-55,-14,561,-265,283
-27,-46,-10,1203,108,348
21,-27,-120,707,703,159
8,-20,106,-264,334,-215
16,-42,97,-413,-99,-31
9,-35,114,-115,-369,95
67,-35,54,5043,520,-5265
-116,-43,105,2036,2473,-7948
64,-45,47,-1770,3011,-11399
40,30,-42,-1394,5978,-11693
-119,-92,127,1172,6048,-9819
64,-46,-32,3282,5077,-3694
-47,-94,-32,4071,740,-1548
92,-16,19,-466,-2642,1950
-5,-1,117,-1850,-8968,3744
125,-61,57,-1870,-15334,7571
22,-104,13,-8229,-7707,7727
87,73,42,-6577,4506,-1135
-115,32,115,3692,-257,227
-35,13,-88,5685,2158,-3459
-6,73,-36,6348,-3717,-1458
68,-6,-125,2340,-4097,48
-12,-40,-5,695,-2481,333
-17,-81,28,2139,-1863,1229
-19,50,-127,6220,-2141,2669
3,11,-125,4551,-2730,3998
-76,110,-86,2612,-314,4556
-103,-76,-128,2375,1030,3604
-100,10,-91,4899,364,4491
-123,62,107,3306,4547,5404
-111,-119,105,-5042,-384,1160
-112,-84,-88,-1578,-4440,3065
-39,98,64,-2521,6246,-4160
-23,-42,82,-3384,1053,-2535
-5,40,-15,-397,2339,-1182
-64,72,39,3062,-1336,523
-74,115,67,669,383,-242
-33,-89,80,-1493,86,71
-67,-27,-113,-2574,-1345,-152
-14,-40,38,1873,-964,828
26,14,-110,631,1310,-155
57,-8,112,-1113,1107,4
46,9,55,-1459,640,-317
18,-12,41,-277,-115,-278
34,-8,72,-139,-253,124
56,34,116,-459,-62,-123
39,-80,7,4421,783,-5749
88,-107,47,1239,3504,-8024
-28,112,15,4894,1967,-7904
106,-42,-102,2727,1867,-9038
-70,17,-119,-406,1848,-10350
117,34,33,1263,2537,-8929
-106,124,-99,1175,2955,-4083
3,123,113,4021,1288,337
86,-102,29,393,1816,-1105
80,-63,96,1888,-2556,2481
-89,-36,-39,-1879,-3129,768
-102,-120,-108,-4121,-2907,2966
118,-59,-12,-3801,-8203,7765
-27,-127,-75,-10838,-14336,10174
124,-23,-18,-1939,-4064,1223
95,66,-98,2924,1123,-863
-121,-14,56,-24,-1289,-3914
-86,-114,95,-1561,-1839,-3600
117,-13,-83,4196,-205,-912
-44,-25,84,4133,4401,-903
-2,-83,-128,7076,1324,3288
-34,71,-72,3364,-1499,5145
-44,80,-45,1184,-1382,5706
67,35,60,-6,-2143,7229
-109,-10,-40,-760,-1667,3508
98,68,60,452,-137,6131
-102,13,-64,1475,-998,4422
92,-5,-86,1820,-7607,6035
-104,-31,91,-2826,8416,-6145
-26,-71,60,-3010,1001,-3099
-58,-64,-46,293,1940,-126
-115,101,45,2872,-2183,892
-105,-117,-97,-903,36,-1
-44,-65,-54,-1455,-115,497
-17,-14,14,1280,-143,4
28,-28,-32,-577,908,73
38,-11,95,-1739,886,-316
-8,0,89,-2168,168,-988
23,-97,-83,-44,249,-143
14,-85,118,1058,-113,243
-28,41,-51,2420,4894,519
32,-10,12,1111,5472,176
-96,-112,-61,-1487,3462,-2079
108,65,104,-54,3518,-3341
-103,-89,-38,1162,3087,-2934
-8,-79,-58,61,4415,-7249
125,-128,-11,-1887,3933,-4859
-8,-118,-107,-254,5031,-1963
65,93,-125,330,4478,-539
17,71,33,-1288,4300,-30
30,-15,79,433,2373,2264
-14,9,25,1769,-1006,532
-102,123,38,7357,-3297,482
-104,-45,60,6875,-6141,-1824
-11,42,63,9959,-6508,-364
-26,62,3,5735,-6169,-731
-95,-29,-20,6137,-6373,-2090
19,104,127,-5734,-4956,-4699
7,-86,107,6892,3095,-484
94,-120,-76,13769,-112,5520
54,5,75,-1542,-1515,-198
63,95,74,2663,283,2763
-69,104,90,1304,-1291,2955
107,73,-40,-212,-419,4197
-116,-124,66,1156,-897,4963
48,-84,-14,8031,504,6373
120,-5,-26,1857,-1787,4426
-37,-79,-25,-1847,-3253,914
22,-7,118,168,-526,-1204
115,-127,46,2836,2044,-425
-121,125,75,917,1773,-1109
-64,123,53,-570,747,-1820
15,88,14,-1204,373,-2268
-73,39,-56,-1711,737,-2427
-7,20,114,-275,1402,-1325
15,51,118,-389,1022,-1332
61,106,76,-583,715,-1138
15,111,73,-406,-94,-940
1,108,56,-647,-226,-742
-13,115,35,246,-256,91
-85,-3,37,6475,4613,2441
94,74,47,5236,5386,1370
8,-73,95,2307,5922,-937
2,43,-67,2341,5723,-2096
-14,34,8,-1178,5321,-3116
114,-90,-34,-1997,3860,-5704
-77,91,-37,-2866,4186,-6478
-94,-19,-54,6803,6522,-3131
87,-126,46,-2133,4657,-5707
98,122,-19,-1708,5565,-2649
-118,5,-50,-3344,2216,847
44,110,-80,5231,-409,1742
-125,-75,100,8529,-4674,-1028
-5,-78,-5,9749,-6564,-2166
65,119,32,4077,-6751,-2709
65,-57,-19,5905,-4244,-973
86,-99,55,676,-5644,-2578
61,-126,-84,-1124,-693,-4648
98,-96,-81,7591,3257,-1173
101,-57,115,13535,-1736,4083
58,-7,-73,-4448,-2790,-737
126,-94,53,7236,3066,2187
-58,-79,-3,2707,3366,2973
-5,-121,-89,387,-928,3031
31,21,121,-1488,-1364,2668
106,-86,-6,-1150,-1423,3242
-66,-38,-8,4372,-854,4783
-27,84,-86,835,-1170,3847
-74,119,60,1506,569,1602
92,13,28,1771,871,-806
-94,-41,28,-896,687,-1902
36,-100,-55,-1025,1291,-1308
123,122,-119,-193,1505,-1128
-93,63,92,377,1113,-787
-113,81,-127,-314,-2,-785
-72,-121,-83,-1438,-291,-1331
-14,-116,116,-1218,205,-1035
-21,113,59,-101,592,-320
-66,115,56,201,158,35
-84,-111,86,-470,-395,232
-83,90,-22,3480,4253,1485
-89,126,-112,2881,4845,786
122,-63,39,2346,4567,-132
83,-24,-122,-965,3670,-1414
87,49,95,394,4050,-1119
-2,-53,-87,-881,3881,-2325
-92,-35,-62,-1371,3378,-3229
-114,5,125,710,4126,-2798
58,69,117,-1198,4190,-2900
-60,-98,-125,-2580,1974,-3993
-47,32,55,-1914,3082,-3409
-91,-95,121,-860,4039,-2839
104,100,32,-757,4405,-1088
72,3,-105,-1812,2824,-1126
-104,9,-111,1649,-963,-1706
-10,42,-54,5261,-4060,-2867
94,40,47,9582,-5424,-2263
-103,-77,36,7297,-2582,-1996
-3,-37,-119,2364,-3200,-3873
-27,93,-11,-4854,-1892,-2808
-122,36,1,4152,41,134
114,-85,80,12495,2509,4883
20,-14,94,-2528,-3077,-242
38,-48,103,1093,-521,705
-44,-84,73,2921,950,3923
120,74,62,-68,-37,4944
119,20,-61,2745,-800,6396
-75,30,53,186,-4819,4765
-59,-88,-26,1115,-6652,2646
-109,-112,36,1905,-4332,488
13,-27,-120,299,-864,813
36,-18,108,1445,1588,1796
-52,-94,20,3211,2436,-642
-4,-111,43,756,1448,-1521
88,-10,-18,-2527,973,-2625
-105,-41,-104,-1470,260,-690
-80,-19,69,1256,547,23
-85,44,-88,-1020,-119,-604
-74,91,123,-670,121,-616
-79,87,98,-407,183,-428
39,39,85,1031,4126,-2262
-15,-100,-96,897,3768,-2605
-60,-37,-67,-583,3468,-3651
97,22,-104,-72,4035,-3698
-61,-59,-51,2123,4185,-4492
-37,3,38,-3725,3194,-6789
62,-106,-111,-3699,4873,-5145
64,-79,-23,-4056,5136,-3347
-1,69,18,238,4730,1655
47,5,-128,364,3466,2490
96,-62,-15,-2649,560,2723
69,-86,-79,2788,-1267,3701
27,-55,77,5392,-3102,413
-73,-17,43,5700,-4826,-2065
-93,104,-98,6988,-6822,-1098
-101,6,40,10957,-6647,-71
-56,99,-68,5755,-3154,3388
-19,-90,63,2629,-5986,-295
-28,-57,85,-892,-2744,-3478
59,118,-72,5638,133,-332
-121,3,-63,2995,-3843,144
24,-32,-87,3268,-1403,354
41,59,122,7192,-1057,2569
-32,-72,-78,2125,968,1729
56,42,-80,2248,-12,1677
-101,-65,-87,2517,1494,3169
53,-11,72,1476,797,4049
8,-116,71,-2019,-1337,2940
111,-55,-2,2984,-309,4833
-108,73,126,858,-1338,4408
-65,116,108,-1116,-581,1762
-126,20,-44,5200,2075,548
-111,-5,80,-776,1158,-2380
79,-75,-65,-1253,1775,-1859
104,114,126,145,1314,-1275
127,87,114,303,699,-1165
-87,74,-94,-414,-52,-1275
-58,80,-102,-876,-131,-1085
-32,73,124,-378,61,-750
-26,71,124,-357,-57,-307
109,97,-34,3610,2929,1394
-124,-119,100,3622,4514,431
99,-17,29,67,3911,-1372
123,114,50,6,4177,-1591
27,-13,91,581,4943,-3257
12,91,123,-592,5171,-4591
-51,-2,-114,-1039,3994,-6093
-20,-2,-104,-5041,2773,-6623
-64,8,-2,-1016,4301,-3680
-18,-104,-35,943,4088,-2747
105,62,47,-2667,3286,-3016
122,-43,-90,-3663,3746,-1472
-124,-2,30,-1262,2454,1575
-7,10,-83,3915,-1036,1951
69,26,-9,6100,-4401,-296
57,-89,18,7022,-3991,-336
-98,-32,-68,5974,-7723,-573
124,32,-34,3577,-9850,-1824
30,-128,-60,4145,-4665,-352
16,-83,19,-953,-2319,-611
-49,58,63,-2399,3003,-4018
-73,50,-61,6647,2476,-476
19,-52,83,4904,-3334,387
113,-128,-18,4001,-4135,-608
-21,-98,88,3811,120,1820
81,3,-72,4580,2230,2474
8,36,101,2387,1497,3347
23,81,13,215,812,4803
-17,-124,-3,2288,76,5255
-98,-54,83,3241,-379,5349
37,-71,-93,1289,-1370,1409
13,83,-125,-232,-666,-1917
-84,-81,25,198,1381,-1903
-18,96,-13,-102,1721,-1521
50,61,-65,133,1337,-1447
122,20,-91,34,1016,-1431
-35,-10,-116,324,1041,-838
0,49,-77,-421,247,-833
-9,67,-85,-1032,-84,-1329
-6,71,-126,-1018,-124,-1043
-106,-127,-72,3212,3245,563
-71,113,15,5446,5544,757
118,-79,-41,4064,4742,-358
-126,-9,126,-14,4141,-1884
101,102,35,4019,5888,-1115
-94,-58,91,4664,4923,-2899
91,113,22,470,2493,-5237
121,-31,-23,-2081,737,-5734
55,-13,-22,-3449,609,-6590
-10,-104,-5,1063,3599,-5092
-40,86,-88,-3656,3614,-6039
-33,113,64,-6207,4417,-3929
113,83,22,-2957,3928,5
19,-96,-78,-106,844,2685
-48,-61,-110,1689,-1286,1728
48,121,32,6115,-3846,752
-15,-50,87,7705,-5891,-1882
-14,104,-86,3823,-4929,-2904
43,-72,25,7212,-6468,-4070
-45,54,109,7362,-5567,-2398
75,66,120,6421,-3866,250
-57,82,8,-2570,-1405,-2124
76,-113,17,9944,1361,1252
-114,-52,96,-348,-3287,10
-4,76,125,3125,108,1129
-83,68,60,3876,3053,1710
0,96,111,-1750,1553,2374
-76,28,93,4,179,3601
80,116,-52,2372,57,5637
-5,13,80,-1202,-4668,4546
-125,-3,41,2590,-3501,4153
18,83,100,1316,-858,2302
-116,56,-46,3529,1871,292
82,20,36,2047,908,-590
-63,-118,74,-3767,-396,-2847
95,32,122,21,1309,-882
125,46,-120,1353,1110,-640
-98,92,-42,-1171,120,-1789
-41,-110,-72,-1568,262,-2674
17,117,95,-424,1179,-1921
-29,-77,-110,4731,6497,826
45,60,91,-512,4307,-2249
18,-68,16,1113,4551,-1875
28,7,-99,-4015,3082,-2454
32,-55,103,-2558,3634,-3216
-113,-99,123,-922,2455,-2743
-120,113,-92,-867,2813,-3353
13,90,118,506,2791,-2867
15,-126,-68,-3838,2444,-5544
38,-69,64,-7334,2198,-4820
-16,76,125,4450,4399,1068
-14,94,-77,1670,4263,-17
-42,104,1,-4980,3851,-1440
14,-64,-21,-5987,2696,512
33,-24,-26,2658,1651,3583
60,76,-5,-1002,313,619
69,-115,31,2643,-1586,-24
-117,40,-20,6598,-1900,-88
-41,55,-44,4672,-3896,-2749
-51,-91,-42,7889,-6040,-3596
-25,-76,-118,10854,-6443,-2042
27,4,83,7806,-1404,2047
-51,18,-3,2547,-3519,-1278
86,18,-65,4542,-1990,-534
36,-26,60,1085,-3482,-184
-43,-73,110,3403,-2374,1217
-121,-18,-120,2183,-1229,1727
-27,24,-7,3080,-783,1441
39,-72,-64,1263,1087,1926
111,-7,-55,1346,1848,2563
11,-120,8,5843,312,6423
-113,16,-33,-2597,-2182,2596
-118,-59,19,3251,-692,2201
108,-49,-121,2185,-406,1550
96,-33,-113,-309,-29,17
125,-68,68,-64,565,-458
-67,-111,3,361,1012,-923
-13,124,-14,-548,938,-1526
33,109,-69,-487,772,-1627
67,90,-101,-1440,23,-1862
-85,-117,127,-1674,2230,-3324
-87,28,45,-3794,1368,-4183
-109,53,-12,-2804,1147,-4267
-116,-31,-7,689,4096,-2493
-116,104,-123,-283,3578,-1107
12,-11,42,2213,5211,-93
-26,-38,17,-2481,3560,-173
-26,-28,96,3157,767,1371
86,115,-86,5320,-1442,47
20,-27,43,5945,-2614,-1048
-60,104,32,6618,-4707,-1522
-31,55,-69,6623,-3903,-942
-15,88,102,5921,-3893,-898
-3,-92,-120,4748,-3448,-1159
-45,74,53,3564,-2278,-620
66,-48,83,5438,-361,579
-68,-16,84,1624,-1047,888
-30,32,108,2156,-969,878
-117,-37,-127,2822,-1381,1418
-21,-118,110,1654,718,2237
-65,-89,-112,2468,605,3551
127,-87,98,1046,-859,3454
118,-83,46,2647,-1719,3909
51,-27,116,2102,-1664,3485
53,46,-99,1915,-980,3349
47,86,-61,804,-2,128
42,11,-122,-619,1487,-1501
-116,-93,37,-662,2018,-1991
0,102,-49,-521,1748,-1878
90,93,-81,443,1708,-1450
-78,91,-59,-374,1269,-1555
-17,96,-98,-569,863,-1520
-5,87,-112,-661,375,-1272
-8,72,107,-871,161,-1166
0,69,60,-862,-94,-636
-10,90,39,-192,-550,212
-37,106,49,-173,-847,549
-70,-124,74,242,-1221,856
-101,-105,124,-515,-1606,675
-112,-89,120,-150,-1255,874
-102,-111,94,3785,4358,1409
-116,-114,38,2733,4963,495
-112,-20,-98,-310,5632,-799
16,17,-61,636,5953,-882
-102,104,32,-735,4417,-2130
76,-54,-4,-718,3894,-2662
7,-69,-19,-961,4044,-3454
-46,-12,18,-1688,4491,-3778
-61,45,-89,-4537,4685,-2691
-106,0,-24,1208,3984,-1648
-89,9,0,-1498,2497,-3263
-83,86,-55,-250,3043,-1289
119,-18,-115,-2263,2008,-31
13,-5,-41,-1957,1016,1384
-65,32,-34,5040,227,4032
-103,-41,-44,8081,-1873,1027
6,-58,3,6044,-5118,-1535
118,-67,100,9544,-6179,-328
-49,-28,51,4498,-8281,-1654
-28,8,-86,649,-6329,-1341
44,-81,-44,-2994,-4616,-4298
-76,-57,14,5946,1727,-678
-124,-52,5,11920,1920,3679
-118,124,69,-5329,-3545,-467
-123,93,76,2342,1871,2485
6,28,-48,5940,2967,6085
-84,-34,16,-1723,-1747,2021
-100,-124,-125,-1650,-2550,1411
-84,62,-56,3026,-1802,2003
-78,23,109,-1674,-4043,569
-24,-1,-35,2316,-2166,1754
-32,-88,94,2846,-1512,1938
7,85,73,2063,633,1030
2,108,6,4114,1637,1884
-77,-118,102,704,87,699
-77,90,89,27,-257,-414
-1,30,49,121,259,-781
80,32,32,-537,648,-881
-124,45,-14,-505,795,-985
-91,60,-69,-643,824,-1010
-4,-22,51,7189,4327,1958
1,60,-6,8871,8913,1869
122,-126,-84,5332,5999,-1826
-122,17,53,-2332,3260,-5108
-90,-66,-126,1987,4326,-3911
121,26,-86,-1092,3516,-6045
61,-112,-124,2115,3840,-5679
81,123,39,-3510,2184,-8468
119,-80,-63,-1343,4654,-5568
7,23,44,-57,4980,-1877
-72,76,-31,-430,4584,222
110,-46,-86,-3522,1574,-1272
-92,113,-31,1049,-1664,1395
-92,3,28,7776,-3279,1995
23,-60,121,6188,-5344,-918
-33,103,120,10057,-6649,-1670
26,-106,85,6631,-5700,-1055
103,-51,-31,5333,-6460,-714
104,83,-36,6621,-1585,2197
-100,-98,-119,-1210,-946,-845
-90,-49,90,2567,1170,2894
92,68,80,2215,978,4725
-73,126,60,-531,1283,4876
72,115,-15,-202,-3644,2041
98,25,-60,-252,-4203,1305
60,-22,-107,135,-6697,-87
-76,47,-121,1107,-5529,731
66,-52,-80,5219,-2455,2055
40,-81,-63,4011,1068,1655
-67,-41,-80,3838,1910,1064
-121,-95,-21,-120,997,-662
-22,68,107,-681,1713,-600
58,37,-20,-445,2411,-435
105,86,-108,-217,2231,-488
-107,-124,-107,-506,1261,-733
-79,-113,-114,-929,374,-1321
-12,-106,111,-988,360,-1262
0,124,85,-348,445,-1121
17,127,87,-321,345,-713
21,-108,99,-181,-9,-603
-122,88,-43,3024,3771,-397
69,-107,52,3539,3971,-857
10,71,-47,1053,4030,-2624
-20,-86,-81,1274,4487,-4141
-83,-10,93,1510,4222,-5076
40,-41,67,486,2828,-6209
55,30,-24,903,3550,-4150
12,-11,42,-422,488,-5582
-114,74,38,-12288,3227,-8114
-97,-117,91,3853,5399,1786
89,60,-57,1191,2893,-1843
-18,-89,-90,-6119,1387,-1036
-31,-74,70,4877,202,4816
119,99,49,5025,-1981,2150
-61,-105,-52,5567,-3352,-1267
-1,75,25,6743,-4130,-1582
107,-100,-47,6325,-6328,-2626
75,68,77,7401,-5107,-739
-111,43,111,4932,-2410,-126
-19,37,110,-621,-2067,-3009
-14,20,-54,6513,4126,-1383
51,-16,10,4095,-531,-108
-74,-111,74,2235,-2188,-224
108,-78,57,2122,2028,1930
-29,22,-49,3709,424,4525
-80,-112,-78,-961,-2273,3882
37,70,70,1033,-4448,5465
107,91,-80,4971,-1819,8566
58,-85,-127,3247,-1842,6385
48,-13,-12,3775,105,659
48,51,126,3354,1286,-2158
105,-43,123,-401,1481,-1221
-100,85,-15,-870,1613,-228
-93,47,-82,986,1226,-305
-12,79,-25,451,425,-708
61,79,-6,-373,286,-1488
-73,61,-23,-1040,1128,-1265
-11,8,84,1051,2228,-724
-53,11,114,1353,1162,-515
-79,21,-70,-1237,-522,-889
-85,4,125,3950,2706,1754
35,0,27,1953,1441,1142
68,-20,37,1886,1649,571
-121,-5,83,3972,3306,717
48,-110,-27,4539,5063,-862
-55,77,116,2739,4879,-2673
-120,-109,-91,675,3158,-3408
97,-116,70,-265,2564,-3306
96,33,68,-769,2201,-3724
47,-85,51,1082,2563,-3968
20,-6,-91,-1920,2357,-5983
16,18,-94,3258,5396,-4121
101,87,93,1017,3760,-5391
-55,87,-71,-840,4304,-2306
-105,-36,35,-1707,2769,-75
79,32,20,-539,-796,1225
35,-116,61,12216,-3201,2092
-5,-2,-86,1638,-3934,-2815
2,11,96,2529,-4025,-3180
34,46,-68,7786,-5054,-2275
-36,59,37,8322,-4952,-1107
-10,-88,91,3318,-6253,-763
6,-64,67,-1642,-4352,-1926
118,35,101,11279,-2109,2904
18,-16,-82,5093,-6160,1199
41,-121,-61,-1648,-2675,-1505
102,3,-105,3013,-397,-144
2,27,-85,4209,-1010,1878
75,-56,-94,28,-729,925
-73,55,-10,1183,-294,862
106,-17,-18,-1631,-953,-547
-92,-107,72,3803,1266,896
112,-112,92,3048,1444,1244
87,-87,103,447,1156,621
-98,-122,-6,816,1756,492
-42,-112,-52,734,1558,117
1,-113,-25,-1446,449,-980
84,116,-114,-382,896,-623
124,109,124,-889,750,-726
-115,-127,96,-529,688,-373
-15,-116,37,4604,3949,2770
-63,4,112,8378,6068,4003
-31,37,15,3667,3747,518
-44,117,-95,1759,3257,-1499
-29,-16,-54,3464,4116,-2162
-59,84,24,500,4554,-3422
-95,78,25,-560,3315,-3451
123,-78,-104,1078,2943,-2858
53,-27,-103,112,1555,-3724
74,-21,122,-1001,1773,-3657
-90,88,68,1099,2118,-4285
51,-72,-40,-242,2984,-3560
-33,82,-99,2583,4457,-2747
-104,6,-34,-1702,3888,-3281
-69,123,94,-4621,3601,-1131
99,52,90,-1934,2097,1173
82,-8,-124,2405,25,3069
36,80,-75,5683,-1893,370
-45,-41,-47,4413,-4161,-3276
-120,-4,9,7660,-5272,-4369
115,-108,31,8954,-6444,-4310
-39,-63,-128,9291,-6892,-804
-14,8,-96,6528,-5209,2458
92,-81,-52,-3790,-485,-1235
-15,-28,-34,7231,-600,1345
75,-10,1,2283,-8265,60
12,65,71,-404,-4168,-1595
55,94,-81,4354,-1720,189
-109,54,88,3535,-318,-1091
32,87,22,671,48,-178
40,-61,56,4700,3949,2416
25,-21,75,-1554,-1983,409
102,-125,-111,-1382,-925,15
121,80,69,2499,634,787
-93,94,104,1134,1326,720
-103,-103,51,923,1510,395
127,-51,63,-1482,295,-713
-47,-67,-11,-2109,483,-1165
39,-52,-88,-1765,1152,-1038
121,-27,116,-1516,1369,-984
-103,65,-103,3921,3031,722
-121,117,100,3984,4559,580
59,-45,27,4238,4810,-289
14,90,-11,2298,4898,-1811
-45,-46,-29,2790,5458,-2119
94,110,9,1338,3960,-3865
76,-29,-34,-3234,4704,-4237
-37,92,-4,-4369,3092,-3086
-68,-113,14,6016,2357,-2917
-66,114,94,-2644,3228,-5326
51,100,-48,2745,4895,-2168
-53,27,49,-672,4877,-2120
37,-82,-31,-969,3971,363
-109,-23,-39,-1936,3147,1592
-101,-86,106,2386,-1199,4457
-72,17,-114,6846,-1697,2846
101,20,123,6214,-3760,-804
95,28,29,6698,-4945,-2832
-69,-57,-89,9619,-6495,-2349
-81,-104,119,6915,-3644,530
-29,-121,-25,1999,-6625,-1861
-114,-85,-116,5099,-4109,-1342
-65,2,-14,4561,-2846,1005
38,-60,89,5677,-2520,1866
-100,94,60,2842,-3056,1313
-110,-124,119,299,-2758,549
112,-72,78,1219,-1938,19
-37,-22,109,2277,-851,201
124,-18,-35,6623,1298,2746
-106,-6,96,2390,295,1986
83,-23,-10,3074,787,2231
4,-25,-35,1773,857,1587
17,-39,-95,1610,1599,712
30,-65,118,-5,1386,-464
-53,34,-53,-1099,1482,-550
-52,53,-92,740,522,134
-10,54,-38,-234,283,-996
114,30,-71,-828,688,-1085
-113,22,-113,-506,776,-555
-102,49,115,196,728,-285
98,3,112,4336,2888,2165
-128,-26,-5,6878,5588,1994
76,-108,89,3523,5888,-1036
102,-41,-81,1142,4610,-2234
70,64,-97,1252,4102,-2507
-104,-113,-53,835,2749,-4202
-123,-29,116,262,3430,-4095
60,14,105,-1720,2960,-4698
18,12,14,-1394,4424,-4874
-22,3,-11,785,5630,-4064
60,-120,-96,-5504,2196,-5665
-99,-24,-70,864,3726,-403
63,-106,-126,-316,3946,-274
-41,86,32,-3486,2428,434
-60,-77,76,822,838,3879
73,-93,74,6022,-666,3809
120,-5,-89,5514,-3071,-821
-100,26,3,5727,-3804,-2000
118,-80,12,8139,-5163,-1399
99,-103,-95,8516,-6013,-1339
-78,-67,65,7384,-5722,569
39,-62,-115,-3502,-6535,-3789
3,-83,-44,-543,985,-6011
88,119,-38,12730,2270,911
-46,64,75,7068,-4438,318
-40,-107,120,1603,-2358,-452
45,-87,-98,3556,140,1255
27,-12,-43,3696,2431,2937
-79,-69,-112,520,1930,4677
-9,62,106,5759,854,6196
49,-55,44,1290,-2099,2989
105,86,-127,3735,-60,2144
45,50,-59,1336,613,901
45,-52,76,545,1567,-21
87,-126,-2,422,1634,-409
113,80,-47,880,985,-300
-92,54,7,-142,81,-660
33,-8,-49,1933,1590,-225
-125,0,-75,2192,2842,97
89,25,-44,1135,1776,-835
-78,-87,76,3890,3800,2086
111,-95,-15,5749,3614,1851
69,-95,-32,3849,3236,1280
24,24,116,3501,3778,-492
7,115,-58,2212,3482,-1644
-21,-11,-31,1255,3588,-2461
-48,31,-24,671,3532,-3376
-79,63,-99,1463,3795,-2419
-3,121,-100,-256,2180,-3960
8,100,104,-1490,2206,-4171
-6,-66,13,-1359,3820,-3909
-78,-51,17,440,4080,-4605
-54,-110,75,-47,3258,-4759
-10,-14,11,-15,3935,-3555
-53,-126,-86,737,3353,-1170
110,102,55,653,2435,917
-73,-106,-13,3878,600,2021
-40,8,90,3017,-219,1311
77,103,-1,2707,-1970,-393
16,-117,-3,2327,-2625,-1951
-15,-9,-42,6387,-5881,-1433
-46,-63,78,10755,-5155,-304
85,82,81,6641,-5091,648
-57,-24,-97,1024,-6852,-983
-99,74,122,3059,-3248,-658
91,69,-106,4713,-1969,661
-47,111,7,3618,-2682,420
1,-88,113,2802,-3218,571
-42,42,-46,2777,-2356,76
-72,-68,67,3324,526,170
-81,116,55,892,1426,732
43,-51,1,3455,3235,2713
101,-39,49,2507,1030,2337
91,-73,64,2456,48,2267
80,-75,97,455,-305,944
118,-114,22,1308,697,829
107,120,39,385,672,-138
-82,104,4,-135,924,-494
-11,96,-48,22,1239,-686
40,104,-70,-179,996,-1023
-69,-65,-105,4262,3972,1607
-87,-53,28,6254,5856,1806
68,73,2,3688,6249,-353
-84,45,-59,3479,5443,-2140
106,-62,42,-121,3492,-3957
102,-23,-27,-1343,3659,-3662
-8,68,96,-51,2576,-2923
-57,115,83,-4903,-1320,-5593
74,-116,32,19,3148,-4882
-65,44,-85,-219,1888,-5824
-1,-24,-50,4594,1875,-1276
-71,-109,-105,4221,1551,-3188
106,-21,-124,-583,4070,-4403
102,58,90,-2806,6260,-1891
-31,-70,-62,-2683,3093,352
73,54,-86,-3153,2666,416
-84,-10,-36,-1095,174,-517
-111,113,72,8002,-3048,-1250
-93,108,43,12743,-4329,-612
120,99,-13,7052,-5790,-106
19,116,-44,5707,-6412,-1523
-86,-89,122,8060,-3059,1878
77,105,89,1074,-3987,207
-45,-17,-73,5003,-483,582
50,102,64,168,-3786,-13
18,-23,-48,2052,-3883,-138
-106,-119,-88,3219,-131,708
83,-65,123,1411,-1173,1179
69,-1,-85,3305,531,1271
-51,-28,28,1352,-447,883
-90,-39,-85,494,356,372
115,-105,87,-105,571,-251
-15,94,-58,909,2143,86
-55,125,-103,3821,2129,1769
-106,-102,47,-1563,-7,-117
-4,100,92,1055,1676,352
103,108,79,1350,2721,371
118,101,93,2625,2128,1151
44,40,-27,-201,68,285
121,33,-112,293,43,409
119,-46,-87,3205,2633,2112
110,-14,41,3183,3666,1877
109,34,-85,2947,4433,701
68,53,41,3670,5299,-600
33,-105,-101,1267,4707,-1635
-117,8,-14,603,3348,-2289
-93,76,-5,-1695,2997,-3958
-46,79,-101,-298,3977,-3413
-123,18,122,-475,3854,-3534
43,6,64,991,4285,-2959
101,69,41,1288,3844,-3036
45,95,95,-2756,1981,-4817
115,-45,35,-4311,2534,-3807
-70,48,102,3322,4816,-267
89,77,24,-672,3801,-729
64,81,6,-1312,3697,1449
-52,68,117,-1973,3726,2029
-62,86,-51,-4824,928,2262
-39,-29,-14,1416,-1119,4025
-9,51,110,8346,-2148,2571
-90,-4,-79,4803,-5042,-2448
-98,107,-35,9878,-4585,-620
-109,115,-52,8480,-7227,-1312
108,-119,40,8956,-5704,378
77,12,-113,5287,-8140,57
-109,108,127,-1150,-4207,-4298
-103,6,-104,10382,-1159,-185
-128,7,7,-108,-3592,-2125
67,-84,-76,2687,-705,-2304
-79,-33,-38,9648,3596,4646
-74,-120,121,5346,-1312,4988
-25,-82,-122,2787,-4274,1557
-57,82,114,5350,-2727,2229
93,95,-117,407,-685,1372
-39,98,-5,484,1708,383
-128,103,-76,-1711,1639,-1332
53,-54,-84,-2331,3525,-1898
-67,-109,-20,-698,3742,-757
-40,-95,-62,-133,2161,-1124
24,-65,-25,-894,830,-1806
-86,-26,-88,4304,3718,1856
111,25,98,3932,4074,1257
28,93,60,2621,3932,-1130
58,-90,120,2036,4235,-1907
28,-34,-110,1981,4317,-2706
-40,115,-78,-287,3780,-4002
-92,-121,113,-852,3674,-4257
90,-14,30,-863,4089,-4199
-52,12,3,288,4045,-4088
-97,-28,-1,-3473,3659,-4849
122,-118,-104,797,4940,-3146
123,42,-25,-2950,4797,-3437
113,26,-122,-1473,4189,103
27,0,-78,560,4016,3046
91,65,120,-772,1607,3208
122,-117,78,1842,-1615,1935
82,64,58,11102,-3843,1124
-82,21,103,8239,-6474,-422
-118,21,-126,6890,-7686,-578
-111,58,-17,7205,-7364,-1412
-95,-53,29,6928,-8586,-2007
109,-99,67,442,-7736,-3645
28,53,24,8358,3172,-289
88,-54,29,7161,-5004,904
126,123,-84,-690,-4518,-3054
-10,-112,83,4741,-786,68
-102,120,-44,-1738,-1124,-1363
-126,-14,4,5498,2866,1795
-104,33,-5,280,-227,657
117,42,47,1257,1267,1384
31,34,-35,-222,1171,964
55,105,-112,610,1759,1598
107,-88,104,-276,2201,1226
-56,-62,-57,908,3563,852
47,-20,-63,320,2973,13
98,-10,-15,-1084,1428,-625
90,111,100,231,1654,-1421
-76,109,-38,-1907,558,-1968
102,-88,-116,-1890,1421,-858
-124,-118,50,-437,1748,-136
-122,75,108,1052,3303,-3782
-52,-123,17,-421,3657,-3512
-43,-54,-89,110,5546,-1530
116,-48,116,1860,3980,1495
80,-90,96,803,837,65
-105,-37,60,8723,-4001,-1968
11,-16,-118,6833,-5380,-2856
-36,52,-100,2659,-6539,-3478
65,49,-93,9371,-4479,-1030
26,-57,-31,2641,-6316,-1517
-75,-41,11,1076,-4190,-2477
-65,-64,-69,7273,-472,1130
-7,38,-82,5155,-3307,-997
92,23,12,2576,-6318,-1061
5,-65,41,1960,-3803,-2204
89,-24,-29,3566,307,-105
-24,-54,-56,4847,869,878
-6,-72,-31,4135,-3,663
-124,-118,46,3573,-614,730
112,-26,59,658,76,-158
117,-37,-62,691,2079,481
86,-26,69,-2215,2420,-207
-117,78,33,-2762,2505,-48
-47,-123,-124,-1539,2740,3
-35,-110,51,298,2088,425
73,123,73,-1068,1438,-532
98,-113,38,-23,811,80
102,108,58,-332,244,-296
99,107,100,-270,-427,-150
75,110,101,-63,-427,17
75,109,-119,-130,-469,-36
62,125,-107,207,-298,350
65,126,-89,271,-49,458
39,-111,-76,-234,-37,319
61,-120,-102,270,497,49
79,-120,-97,68,598,-39
109,-101,-103,-117,561,-110
117,-101,-112,-327,401,-275
-116,-101,122,-357,443,-233
-95,-103,95,-104,404,-107
-63,75,97,2604,4508,228
-86,79,-15,2268,5319,-178
122,-50,108,1806,5806,-887
23,29,-68,1277,5067,-1817
-94,-86,-70,-254,3952,-3232
31,-39,113,435,3462,-3543
-35,48,50,-1589,3914,-4223
114,-110,-43,-918,3093,-4402
84,-80,56,-6238,1143,-7473
-3,-25,-113,4934,6464,26
-11,82,-63,-2142,3526,-3582
56,-46,88,-1533,4011,200
-58,107,-113,1513,4756,2755
97,-71,-127,-1609,2238,3057
-57,40,-17,-2549,-365,1585
-32,119,-100,8026,-3243,272
-7,-45,-77,5692,-5277,-2449
-105,1,33,5492,-6203,-3657
77,124,43,6775,-6568,-4902
-61,-34,-78,8142,-5666,-2908
69,-2,-88,4165,-5660,-1335
-55,59,-88,7100,1090,2372
98,42,10,2206,-4443,-890
48,1,79,-150,-7346,-2655
18,-101,17,948,-2259,-3365
69,118,54,1826,-744,-3232
97,-67,27,5479,881,-1509
-7,-105,-50,5858,-331,-152
-103,0,42,4477,31,-93
30,106,115,5075,801,758
-86,2,-121,1554,1227,106
93,-14,55,-1098,1423,94
-125,-73,18,-815,2926,669
-89,88,-112,-1009,3685,458
16,-62,36,-3149,3359,-328
117,7,89,-2042,2868,3
101,-19,52,-1369,1368,-807
-97,-15,79,-2528,1051,-1302
-65,-23,-40,-661,617,-322
103,-37,57,-1609,-380,-1209
-15,21,103,2998,4044,-381
-118,-122,-51,2423,3412,-1119
70,39,16,178,2928,-2457
47,76,-95,1722,4157,-2502
-87,-80,-93,40,3681,-3849
-67,-70,52,650,4074,-3501
102,92,61,1628,2205,-4076
3,64,79,-3081,2928,-5303
-58,26,97,3381,4151,-2992
-93,54,-82,-1263,3500,-3283
123,-72,-62,2628,4292,958
-84,101,-109,-1282,3036,1692
-68,-85,23,471,1,2351
62,83,56,5656,-3549,225
32,-21,20,8267,-5350,-1990
20,-114,-65,4358,-6119,-4043
-43,37,38,5756,-5871,-4856
76,-77,-110,7656,-4487,-2599
47,44,-116,3194,-6277,-2617
61,32,-80,3869,842,-512
80,74,-73,10098,-2620,640
-10,63,-3,2104,-7147,-1217
-43,29,-59,1249,-2592,-2531
30,-125,46,4082,-1187,-1118
-114,2,-123,4435,1610,680
9,-42,-38,2375,-841,216
-88,100,77,4013,524,1174
89,45,-117,1835,503,702
81,40,48,2731,2025,1319
23,73,35,1154,2174,550
49,105,-86,168,2474,33
127,120,-86,-2272,1585,-1106
69,-97,-4,-1211,2320,-733
-118,-87,10,-3374,1360,-1833
-42,-84,117,-1736,1771,-1199
-26,-59,-128,-1530,1053,-1001
-3,-33,86,-1727,943,-798
11,-55,32,-671,1078,-117
-36,-31,53,-453,431,-107
-37,-44,35,5,218,162
-47,-20,82,4388,2961,2161
-29,-109,-108,5726,3869,2699
98,24,119,5699,4817,2202
-22,108,35,3448,3852,-14
112,-39,85,4279,3723,-1129
31,-116,-46,1473,3074,-2948
61,-25,-82,-1061,2297,-4391
121,-24,99,383,2765,-4135
38,5,83,2753,3158,-3622
-3,33,-68,-1622,1094,-5159
4,31,78,252,2071,-4812
-34,-87,127,-432,2824,-5619
-47,97,81,1731,4444,-2901
40,-36,-85,-1617,4174,-2481
-11,-115,-10,331,4202,784
-56,124,-106,-36,2551,1511
-47,-83,22,1532,-400,2482
-49,-120,102,6492,-2024,955
126,-80,91,552,-4679,-4230
-103,-60,-21,7016,-4160,-3600
86,-102,60,8092,-5488,-3543
-3,31,-8,5300,-4393,-2687
-52,96,-115,3030,-3771,-2095
-55,48,-23,5914,-1752,-436
33,69,-123,6465,-3663,-212
34,-49,-55,1856,-6941,-1549
-18,-81,-77,2832,-2925,-2162
-6,122,-26,4550,-1173,-361
75,-80,44,1112,-737,-1079
103,-36,75,4505,596,715
-31,46,-79,-590,-1032,-726
14,21,126,5437,2806,1949
114,61,-49,3051,1815,1679
22,111,-67,1387,1126,1419
43,107,-111,689,1072,610
103,99,-126,-626,671,-335
-22,79,35,-599,1515,-212
27,99,-6,-1143,1461,-606
122,123,-77,-1554,1567,-860
-62,-120,108,-1743,1730,-810
-67,-5,30,5062,3222,2462
123,-27,-89,6202,3646,2920
-110,-88,-93,3762,4130,1627
94,-18,-122,7613,6647,1964
73,-31,-65,4360,4883,-488
12,95,39,804,3231,-3121
111,-34,-32,1059,3503,-3517
86,-9,-61,3,3455,-4727
70,-1,117,959,3983,-4373
-26,77,-64,-1608,1652,-5659
-98,-23,62,-3928,3494,-5820
-2,62,-98,4657,5328,-3863
-24,73,0,-527,3934,-4762
-88,102,-26,1828,4875,-1574
-119,-29,119,-1151,3623,1273
51,-66,-126,1,1177,2631
47,-60,34,3188,-1280,2678
55,36,-84,5956,-3784,-1862
0,79,102,3084,-4840,-4400
69,-57,107,7316,-4502,-4521
6,-73,90,8308,-5023,-2676
-5,-15,-66,7961,-4727,-2714
37,49,63,1046,-4188,-1987
-42,-122,-33,4483,1242,-1
5,116,-71,5273,-2858,887
-75,90,65,797,-4954,-1382
96,18,39,2835,-1670,-899
83,13,-33,2039,131,-402
-41,-113,93,888,-1698,49
-97,-95,38,6432,1583,2477
122,-68,126,1327,-2472,512
-25,29,9,625,-974,515
-9,23,-124,3483,1955,1616
124,71,-117,1194,1748,1012
119,82,74,449,1527,629
-96,90,-5,307,1585,190
-33,74,-39,-882,1021,-834
53,74,-97,-850,1017,-947
-127,51,-113,-1118,712,-1018
-69,60,85,-817,793,-743
-86,46,-116,3110,2659,1634
-95,13,-35,2787,3222,1474
-101,8,57,2412,4130,713
111,90,-114,2286,4436,896
5,-68,-27,3427,4631,-99
-115,74,-73,1325,3903,-2410
-74,89,-102,1631,5199,-2868
54,-107,-58,-641,4604,-3785
-103,-120,-120,-962,3943,-3716
81,-122,-126,-1520,1479,-3415
101,85,81,-4180,1069,-4959
-114,92,-81,2094,2633,-1970
61,3,50,1836,2994,-4106
62,109,-108,-254,2755,-4001
53,-117,46,-1520,4130,-2074
-69,-119,-59,3198,4460,1740
-34,-112,-11,-1019,3036,1743
-91,-81,32,3294,2667,5153
118,52,33,4558,1417,3836
91,121,120,-611,-1279,-200
-79,92,55,2992,-5189,-2132
12,-121,52,7913,-6990,-3757
84,-63,-126,7062,-8717,-4293
-7,4,40,5351,-7577,-2098
-44,114,86,3176,-5538,-1912
19,88,5,4693,-2741,707
114,15,-3,5483,4240,1375
89,-92,75,6103,-1342,1560
46,-104,24,-1673,-6988,-1049
16,29,-102,3369,-2382,-100
-3,46,-7,3990,-449,372
-1,-57,38,4374,254,1609
123,60,37,5085,175,2915
-86,26,93,1068,-236,1509
88,-13,-24,1952,1079,1191
69,-63,-64,494,1421,442
82,-102,80,-463,1279,-244
-109,120,-7,969,1593,-70
-68,116,1,-555,1107,-1087
34,83,-70,-39,1153,-1002
102,53,-127,4288,2288,579
86,22,26,2851,1706,931
114,-32,74,2524,2984,738
-122,-64,114,2896,3236,493
67,-15,-39,3438,3231,414
0,-1,-111,574,3596,-1121
-39,86,107,2806,4260,-962
-99,-53,-22,223,3238,-2634
-96,86,-92,208,3886,-1775
-9,84,-103,-2070,3171,-2578
68,86,-12,118,3381,-1789
-20,66,29,-2451,2601,-5085
68,-128,107,-8201,1317,-6091
-54,-37,-102,7474,4018,1699
-36,107,96,5814,1716,-1774
-9,54,-59,-1333,1795,-4480
-19,82,-64,4136,4194,-1762
-31,-23,84,-2945,3192,-2640
62,-83,-50,-4946,1947,-605
33,-87,121,-2750,2228,1690
25,-65,41,4965,1086,6108
19,44,115,1270,-2098,1819
113,-87,84,9620,-2838,-348
100,6,47,6912,-4891,-4002
116,53,-34,3275,-5872,-5946
24,49,-97,6038,-7430,-7177
42,79,-10,9403,-3756,-1281
-44,-68,-38,4946,-3698,-299
32,-42,5,320,-1050,-2103
-65,-1,-91,4261,-668,-325
46,-31,-50,717,-2605,-199
99,124,36,5240,-2219,843
80,-1,11,1482,-5092,-590
-41,65,-23,2370,-2633,-160
-45,29,110,2371,-2506,-529
-61,-23,97,3974,-1537,27
-55,102,-92,1668,193,847
45,-124,31,3807,681,1187
10,104,-62,1729,1618,1793
-113,-68,87,1999,2006,2098
101,-118,-27,6195,4324,3514
79,-67,114,9046,6665,4205
43,13,-95,5282,5046,945
-48,-76,16,1181,4060,-2404
-41,121,-29,1507,4448,-3492
-57,62,-56,-887,3760,-4874
-81,-117,92,882,4938,-4663
54,-41,-42,-1109,1678,-6616
-126,-103,-96,1605,4466,-5691
85,-100,-109,740,4441,-5358
76,18,126,-11,6448,-3700
22,-96,56,-3257,5417,-1254
-62,-9,-15,-6210,3076,1852
-26,9,-30,6161,1192,6911
85,-1,-46,2254,-3374,278
56,-104,87,8285,-3827,-378
-126,65,-123,4248,-6402,-3594
32,86,79,5598,-8023,-5676
55,-7,119,9674,-5143,-1406
92,-85,21,6526,-5640,-328
47,88,91,-2741,-3140,-2780
93,53,18,12831,1261,1283
-37,-26,37,-968,-5771,-342
-12,-107,-81,-155,-2899,-2248
83,114,90,7516,-271,784
-17,71,41,406,-676,360
43,-18,112,3297,145,691
36,105,-49,2838,2203,1899
105,11,114,4236,2501,2401
-13,-61,-36,-977,-484,352
49,-123,23,1848,531,863
84,118,64,527,662,-57
-105,112,49,-147,775,-361
-34,99,-11,-702,1064,-838
64,84,-86,-613,1480,-668
106,89,123,-2081,1047,-1143
-35,-92,34,-2757,706,-926
-72,-81,-52,1208,801,267
104,-90,95,23,-499,-381
-116,-100,89,782,418,-147
-30,-44,-72,3953,3764,2788
-79,-48,46,3289,3945,2539
57,-31,-91,795,2631,1531
39,-56,-54,-1059,1057,994
50,-24,-90,1328,2025,1647
3,70,39,2279,4195,674
105,-123,-106,1441,3247,-784
41,-73,-75,-139,2743,-1965
91,15,-30,-2059,2522,-2587
-69,72,-47,254,3857,-3060
-97,62,11,1016,4419,-3629
114,108,-18,2067,5060,-3446
91,-68,63,-2620,4191,-6590
-93,65,-7,-2262,6149,-3804
6,78,-96,-882,5222,-1148
-101,-121,-9,-1111,4530,1926
-8,-73,46,979,2974,5527
-99,51,47,1279,-831,5435
-38,1,-61,3392,-2015,5259
67,-104,45,4946,-1300,-87
76,93,-59,-439,-4187,-5958
91,-21,13,8902,-5180,-3050
38,-30,82,8080,-7444,-3651
62,72,25,7806,-7768,-4329
-72,25,-39,2452,-6520,-2736
-111,-34,-20,493,-1578,578
90,22,55,11586,2521,2458
37,8,113,3336,-9215,2138
-26,-119,126,-4894,-4380,-3863
93,-128,124,10317,-291,2716
107,124,119,-559,-703,-1067
98,63,-18,553,2900,-193
-67,-98,110,2718,1414,1156
-105,95,-83,-138,-333,473
-50,60,16,4080,1585,1755
-114,118,109,175,900,1109
111,-89,25,159,673,942
125,-85,-1,138,231,142
-80,-101,-44,263,615,-299
-11,-123,-88,147,927,-602
-124,-75,127,2808,3841,608
87,-40,13,2528,3748,-165
124,22,78,2255,3845,-534
-6,33,-111,1382,3469,-697
-117,-42,-68,-62,2938,-1990
-60,90,-98,-1413,3087,-3292
118,-118,-12,1446,4092,-2644
42,-33,33,-743,3650,-5044
-74,-57,11,-3312,3241,-4849
-125,-124,-128,3406,4629,-1613
-12,31,-62,-762,2272,-1863
75,-62,71,5132,3358,390
99,-88,-42,1732,5086,1022
-24,42,-90,-2345,3170,1625
-76,-15,-115,-1096,782,3799
126,-33,-70,6146,-1172,3772
70,-91,-114,3755,-3757,-2840
-78,-40,-88,7024,-5841,-3241
-25,-93,-99,8775,-8583,-3792
-37,-12,-3,7899,-5790,-1247
-116,71,-109,3537,-8009,-1609
-35,84,-86,-2262,-4309,-3382
-113,-91,-39,9401,471,1060
-55,14,114,2363,-3747,-1065
11,35,-76,-133,-4386,-2872
-37,0,78,4288,-1734,-1579
30,121,27,2227,-1297,-74
20,-52,46,5548,1291,1433
-28,-7,15,1816,-2248,-386
32,37,-78,2865,-501,528
-46,62,-109,4074,1165,2246
25,-121,-85,2525,1064,1596
-76,-86,112,683,1082,543
-22,124,59,-1291,1016,-466
-86,80,63,-465,2778,-59
-84,120,47,-2763,1841,-1401
40,90,-113,-1359,2146,-547
13,-67,-79,504,1600,-162
84,-83,-79,-706,2167,-1462
-105,-86,-113,-49,1949,-1360
100,-93,-75,2690,2183,2316
18,-30,46,16,1006,1397
17,-53,-18,409,916,959
25,-55,-35,868,912,1204
7,-63,-12,345,577,878
-2,-86,-14,560,657,955
-17,-96,6,577,498,721
4,-120,4,1019,943,688
-32,-102,46,897,655,924
-38,-116,74,578,372,291
-27,122,72,883,614,571
-28,115,93,903,736,610
-27,115,88,1171,948,635
-26,123,99,927,939,591
-26,118,109,1288,1010,736
-40,-119,121,1336,1203,479
-43,-128,-102,1742,1395,546
-54,-128,-62,2715,2235,658
-109,-49,-7,2372,2358,650
67,66,19,1863,2312,-638
73,-112,2,2053,2325,-1495
60,-54,18,1272,1567,-2041
88,51,-29,395,880,-2599
120,119,-62,-810,51,-3489
95,-93,46,1936,1058,-3234
122,51,-124,-474,-357,-4472
-38,90,55,5687,1832,-2688
-68,-98,66,1712,-373,-3950
-56,89,-7,2468,1432,-3584
88,53,31,2452,2026,-1810
-32,-47,11,1371,3448,-2247
-60,-23,-93,3698,3272,-43
-17,114,-106,695,1915,-1445
87,-86,101,-35,-116,-582
-119,-75,6,2260,-3016,-2128
-58,37,-108,8950,-4210,-1227
113,102,-70,4406,-6641,-3277
-14,-32,61,9028,-6456,-869
62,46,-27,10210,-6845,99
-13,-103,112,-431,-7989,-2041
-11,-103,-75,3182,4000,5323
11,42,-90,7186,4593,4193
3,-33,86,4254,4508,2238
-16,44,85,2879,5475,-79
90,27,-12,1919,4707,-2374
71,81,21,90,3205,-2938
69,-35,59,-2440,3856,-4282
-42,106,-84,1532,5843,-4219
-87,97,-5,-421,3335,-5857
17,31,-81,930,5113,-4711
-65,102,23,3327,5722,-2587
9,51,26,4665,6051,-4173
-22,118,79,-5181,3753,-3497
-37,-99,39,-960,4076,2835
4,9,119,1227,1512,4335
2,-44,-76,854,-2558,2983
92,51,68,7289,-5226,399
125,-25,-25,8144,-7246,-1490
-45,-54,79,5538,-8722,-1739
-32,127,-83,5695,-6875,-1771
91,-58,-79,933,-6306,-3060
96,-10,119,4202,-1206,-20
57,-77,-49,7083,-2169,-204
33,50,-128,653,-4444,-820
96,50,125,2937,-2835,-228
41,-75,-41,3032,-2327,-638
100,81,4,3094,2270,1024
-62,63,90,5280,-1003,2710
-41,121,90,-4637,-1394,-834
-51,-79,15,4945,1495,1561
106,107,-20,-1092,-854,223
-54,111,28,3311,1757,1578
-109,120,69,1658,1593,633
-107,-108,55,286,1235,104
-43,103,-14,658,1658,-213
38,117,-11,-865,1162,-1067
81,-92,13,-3770,-185,-1997
-26,114,80,-409,1360,-849
-6,92,95,223,1856,-383
-15,104,85,282,1550,-188
49,22,79,4802,3987,2618
-41,-13,46,5683,3856,2389
-83,-26,29,3107,4369,1478
110,-125,-106,1649,5468,90
0,96,-54,2308,6579,-1387
127,75,32,-2251,4837,-4413
-111,107,-64,-1622,3957,-4298
126,123,-62,54,3061,-5206
-85,126,-84,282,4324,-4584
96,57,12,-1108,3788,-6197
-121,122,33,-966,5136,-5843
-115,-82,62,-2218,6141,-3810
70,-3,112,-7838,4367,-1031
-8,-78,-119,-2890,2785,2148
112,66,-51,1652,173,4107
-50,-96,56,4531,-2367,1583
92,46,114,8243,-4220,-369
99,-95,93,5151,-5384,-1951
-92,-13,114,9799,-5599,-376
-14,65,80,3269,-5556,-1122
-60,-16,11,3646,-6577,-3003
-36,-125,-110,4429,-4274,-2162
-64,66,-117,6335,-2642,-1177
-67,-63,108,5638,-4177,573
-66,76,-50,1011,-1719,-904
49,-4,59,4836,-352,-106
100,-64,124,-2670,-2,-827
-111,-106,59,7649,1559,2765
36,-68,38,-877,-723,1204
41,-48,-70,1472,1914,2466
-31,-68,-67,5440,2124,3026
-125,-75,53,2354,436,2075
-104,-110,66,819,449,1019
-86,73,22,1007,732,695
-82,68,-6,409,839,339
-23,91,-23,-208,475,-238
9,78,-46,188,371,-618
64,79,-35,-479,412,-984
-119,94,-63,-815,364,-1300
-97,88,-108,-330,372,-1245
-59,-18,38,7340,3315,3048
117,-32,-65,3174,3435,1027
-76,10,-97,1486,4908,-221
110,122,-27,3377,4593,-114
64,-66,-58,877,3323,-1797
72,26,-80,599,4164,-2423
122,117,-112,1326,4709,-2239
-40,-56,-76,-2214,2944,-4947
97,32,-111,-3450,2721,-4717
-41,-128,0,2024,5487,-2510
-75,-85,-114,3922,3037,-3111
76,96,-39,-561,1958,-6118
-51,-75,37,474,3504,-4138
-84,-80,-55,2287,4724,-1082
92,-98,117,-906,4360,-92
-42,0,-57,-281,1634,3068
-118,-46,-10,1868,-2036,398
-96,20,30,4408,-3420,-1299
-45,-63,83,3002,-7371,-2398
122,58,11,9031,-6005,-2646
-3,98,28,5467,-6684,-2267
47,58,-41,1854,-6722,-3895
71,98,101,2839,-2356,-2513
103,-9,-27,7182,1388,1465
-18,62,52,7859,-4393,982
47,-77,-24,-3519,-7810,-3073
34,-119,96,3113,-2299,-2394
-116,-109,120,4299,1455,1213
-74,100,95,4356,-776,1843
-90,-76,-44,-1348,-3322,-276
-35,101,-104,5647,1454,1926
103,-115,10,3170,1341,1269
-25,-43,-19,1594,1165,916
5,-89,-57,-49,1005,-387
90,-111,-107,-1435,1257,-1077
13,97,-50,-981,2683,-915
123,63,116,-1563,2909,-1017
-46,91,25,-1405,1596,292
-110,126,13,-611,82,447
-81,-93,49,1073,687,-402
-59,-2,-114,4970,3230,2901
-43,5,46,4519,5024,2522
122,12,3,5021,5981,1184
5,-46,-32,3971,6307,-759
-37,14,127,152,5141,-2334
-89,-96,35,38,5100,-2663
34,-21,0,-1402,3619,-3524
21,14,124,-1013,4408,-3583
-24,1,75,-310,2871,-4762
106,-48,74,-2756,2922,-4709
83,48,4,3062,4580,-3035
76,-5,-98,1030,3957,-3315
-9,-127,59,1753,3765,-2013
114,59,-30,2876,3750,290
40,113,-27,-3547,3209,2018
-82,124,-123,-3586,-945,2160
-23,-29,-28,9246,-1662,-522
13,-39,105,5043,-6299,-4341
17,55,61,9229,-6471,-4608
-57,-112,-74,11817,-6587,-1999
-32,37,-27,4105,-7300,-1434
55,64,1,-1255,-3729,-2765
114,-40,34,6937,2027,-582
19,88,75,2514,-2064,-976
-28,111,89,2068,-3406,-889
73,11,14,3139,-1901,-1062
113,-64,100,2310,-680,820
-78,-121,92,5127,-373,1619
115,65,-18,1833,2161,2018
-44,-53,56,4855,3328,2879
60,-67,-86,-265,591,940
105,-106,33,835,782,1211
118,121,8,179,725,540
-114,107,-50,299,697,314
-68,108,-37,-134,495,-180
-11,63,-101,-158,627,-390
60,50,-116,-10,384,-357
102,71,-89,-546,43,-534
-88,66,-119,2,851,-361
-57,55,102,-166,916,-351
59,44,-93,4687,2284,1235
67,73,52,3544,2324,1315
107,88,93,1270,2266,843
46,30,6,14,1661,640
-14,7,-9,-844,-360,173
30,-24,-29,-3173,-1212,-763
-72,-25,81,43,207,356
-32,-27,-72,1073,1454,517
-57,-3,-67,3406,2821,1394
-118,32,105,1256,2350,926
-19,4,-103,-202,-75,683
-46,2,-126,-2803,-1398,-50
77,-24,11,-706,25,-694
-92,-41,-68,3393,2519,356
49,44,-90,2342,1352,-127
79,-22,-49,-126,57,-862
-91,-39,-96,383,775,52
-94,-51,-105,-607,977,120
-118,-84,104,376,1589,434
103,-82,99,2984,2991,1213
-12,107,-48,4209,4934,700
94,15,67,2738,3803,-1053
-43,-55,-101,1804,1461,-2363
17,58,5,-3748,-280,-4639
-104,-19,80,-2639,1987,-5027
104,-54,80,-170,2649,-4388
-126,81,-43,-813,2211,-3868
15,-49,-89,816,1353,-3751
9,-14,-96,332,2062,-4136
-48,-10,-18,1565,2864,-3580
-52,99,-14,1499,3679,-3434
-70,41,33,154,3306,-2571
-97,-99,71,-1995,2280,-1795
125,-46,-30,-8596,238,-798
38,99,99,8947,1715,6095
94,10,-45,-757,-1214,-108
21,27,-37,2301,-1989,-507
-37,-103,25,2027,-2794,-4762
24,25,-78,2869,-2787,-7095
-59,-40,24,12453,-1796,-3162
-113,68,-27,12197,-3683,-2477
-2,83,-52,1997,-6506,-2234
-35,64,-25,2071,-2342,-2014
34,103,119,8128,482,636
-23,54,-60,-776,-3833,-2340
107,-12,93,5112,-2154,363
89,84,-110,3369,-477,158
5,88,-91,1931,311,1190
113,-111,-53,3319,1782,2263
-122,-81,-60,2654,605,2047
111,-93,117,4093,906,2502
9,-69,-21,318,-634,1327
49,-76,-128,1844,416,1400
50,-57,-92,510,513,277
43,-102,123,-362,858,-709
-92,118,25,-452,1633,-921
-3,122,-15,-959,1469,-1335
52,79,-88,-502,1096,-1223
76,43,-106,-864,85,-1140
110,60,-120,-1605,-268,-948
-107,89,87,-689,73,-338
110,-120,105,-510,-26,-398
97,-86,121,-991,-196,-646
110,-70,103,-732,-129,-456
124,-66,81,-253,41,-168
124,-70,78,277,29,91
112,-67,110,-51,-312,135
115,-75,103,285,-181,257
103,-66,125,22,-498,155
118,-78,-125,229,-410,362
118,-84,-118,220,-238,469
108,-83,-119,274,-119,568
98,-73,-109,-112,-228,485
119,-57,-120,84,5,524
127,-39,-127,19,244,349
-124,-31,-128,-109,154,101
-103,-53,-125,-26,237,41
-86,-68,121,-187,597,43
-53,-74,87,253,838,209
-38,-58,80,332,479,179
52,75,28,-809,5868,337
126,-68,3,16357,9044,13388
34,84,-113,12018,3175,-1987
78,-107,-109,-12767,10842,-6681
37,35,-22,11325,5335,-4013
29,-54,24,-25776,3185,-15377
43,3,-101,20737,4132,466
15,-75,22,-15511,5073,-11603
-103,-95,74,2636,7421,2152
38,-67,-32,7039,1366,-185
22,-25,-52,1996,-3279,-5319
-24,80,-36,7628,-6526,-4847
122,65,91,9284,-5701,-5338
116,-28,105,-674,-7616,-6638
-41,-29,44,-876,393,-6286
-25,25,108,12945,5282,2339
96,-106,90,9817,-3771,150
-128,-45,41,-2720,-8178,-3218
-33,-93,-101,5583,-1207,-682
-67,-41,125,1545,2511,-654
-82,66,-54,10798,5025,2455
44,67,19,11008,1277,5196
-92,3,-86,-5256,-3954,-625
118,0,111,-1309,-654,-599
14,109,-35,-2461,3707,-405
58,-18,53,-7126,3921,-1845
41,-85,47,-4420,3925,-532
57,83,-64,3656,4860,798
-36,16,-104,-805,1092,-1659
123,93,107,-2128,819,-1507
113,37,28,-232,1010,-640
35,-22,29,222,922,-660
58,-24,73,-40,173,-605
32,-44,53,100,-368,-321
-50,-111,44,608,-1345,-149
-62,-102,104,-13,-2458,200
-12,-52,-115,-506,-2702,812
48,6,-126,1274,-1675,1837
-52,-12,-74,2246,-967,1875
92,-48,-58,1195,-261,828
-74,-100,-110,4421,5712,2359
-123,3,-52,6279,8122,2940
-63,-119,-126,10328,8558,-1943
-18,122,106,-6105,6243,-9244
104,-28,-106,-4351,2281,-4892
-18,-66,79,-1980,1805,-6589
-127,-30,-82,3268,3172,-4725
-19,-32,-5,-3786,3241,-7432
-14,126,110,369,5674,-3369
19,-19,-20,664,5355,-836
78,-118,107,2289,2765,1215
36,82,62,6389,-5042,2275
-38,-19,-98,4056,-4594,-2182
-7,4,-113,6160,-5771,-1277
-118,104,91,6061,-5860,-1972
-103,-71,23,1659,-5163,-2609
77,-9,-109,4639,-1073,-757
-56,-41,-94,6840,-2163,1101
-21,-67,-28,1409,-3744,-848
28,-120,-83,1728,-1917,-735
5,-93,111,4841,-678,97
89,94,-84,2197,592,477
12,80,-30,5331,-486,2707
103,-75,-116,3763,785,2563
-98,-9,-52,3744,190,2463
52,-58,52,-2175,-1320,154
-102,113,21,1553,1802,988
122,-125,44,214,1595,41
-107,-109,-1,-22,1130,-168
-28,109,-36,-223,945,-605
24,103,-41,-789,1107,-1113
107,110,-73,-1141,1089,-1326
-73,126,-124,-1641,895,-1388
-56,-102,98,-728,668,-953
-33,-85,109,-1230,327,-1005
-4,-54,74,-300,557,-716
-5,-56,87,-414,465,-803
16,-66,68,-34,598,-543
6,-77,85,-329,150,-429
16,-99,49,321,200,120
-23,48,94,2817,2432,1901
-48,-15,-37,1691,2115,2267
-69,41,88,6737,6057,3533
-68,23,47,5716,8000,-294
3,-127,-109,-2247,6058,-4804
102,-89,-16,-2929,5289,-3333
-23,-23,113,-1785,5299,-4749
-80,-75,44,-1018,3178,-6081
-115,-66,-94,494,6443,-5141
50,118,24,1372,5168,-4523
65,59,95,-3544,6204,-3431
84,4,-78,1321,4275,3706
109,93,92,9928,-3554,2193
-31,19,127,8558,-5521,-1435
63,-34,104,349,-7051,-1491
-22,-82,-80,6250,-4655,-1796
-48,16,40,7352,-4990,-1873
-80,-49,24,-1507,-5517,-3240
108,8,42,9467,-1033,577
12,72,111,7670,-3849,3259
109,40,-53,-3715,-4748,-2608
-93,-17,118,5399,-2302,567
42,18,-76,3903,-1283,-89
18,-55,52,3978,1525,1719
12,-3,-45,5065,1515,2546
122,-86,-24,1263,693,871
-119,-106,108,3808,1795,1750
70,-114,-82,278,908,416
122,88,67,685,1501,17
-67,76,38,-96,1445,-614
-1,71,-6,-897,1233,-1011
89,61,-67,-716,1166,-1144
-111,86,-89,-1271,732,-1420
-61,108,-102,-1251,286,-1445
-13,88,106,-628,579,-975
14,105,108,-783,778,-703
49,-103,105,-802,601,-610
14,-93,69,-71,474,-383
-5,-99,68,-342,245,-311
3,-90,62,-49,-68,43
-27,22,-54,3062,3439,1071
-12,4,124,3840,5034,1022
-99,100,64,3398,6236,393
28,112,121,-658,7006,-1704
-53,64,95,-2678,4927,-2171
86,59,-58,981,5621,-1366
-62,-37,37,80,4668,-2846
-59,48,4,-2551,3735,-4386
-38,-15,-123,442,4702,-2928
-102,50,-79,805,4284,-2960
-52,113,70,-1625,5604,-2707
75,1,96,3907,5349,1577
-104,0,106,1124,1607,1466
0,47,-111,5396,-1803,516
-26,93,25,10635,-5195,-1505
38,11,116,2560,-6476,-2870
32,-95,89,6422,-6612,-1629
-31,25,91,7827,-6542,-2327
-10,83,81,2369,-5090,-1993
-117,-106,90,4622,1229,826
-8,11,77,10411,-4152,2216
54,58,-22,-3444,-6039,-2270
-50,-36,-108,3818,-1829,-283
40,-103,79,5741,-2797,1197
-43,-27,-28,-2041,-607,-1134
39,-43,-122,5003,-47,1103
4,13,83,-327,1475,512
-103,122,49,5256,3798,2305
-28,-98,-72,-699,792,587
45,-102,49,469,916,861
99,127,33,79,1119,23
-71,-93,-2,-501,1337,-471
1,-70,-36,-1163,1324,-952
98,-47,-64,-1842,1180,-1267
-88,-25,112,-919,1383,-1023
-82,-33,115,-1366,759,-1197
-64,-33,90,-854,731,-935
-34,-34,68,-860,686,-675
-45,-44,57,-269,486,-468
-45,-44,62,-440,129,-227
-104,41,72,3369,3640,1296
-122,68,34,1705,4562,-81
126,112,-69,1873,5568,376
-10,-76,122,381,5451,-1088
121,71,53,988,5483,-1564
-30,30,14,-192,4206,-3776
-18,75,-76,500,4086,-4484
32,89,-70,-757,3839,-4296
56,2,-26,-2467,3734,-3192
-16,-26,105,2179,6464,-2194
-3,125,-93,2890,5358,-1483
82,4,40,-3535,3352,-1111
78,8,40,3700,399,2717
62,-114,-124,4479,-2047,1011
-25,-56,69,6096,-5097,-1610
-38,13,-91,4866,-8028,-3026
119,101,64,8158,-6097,-1856
-72,-3,-100,5234,-4002,-2155
-56,-61,-61,1404,-3820,-3587
-96,-49,-12,5740,633,-715
-74,45,91,7098,-3181,460
11,-4,-115,-770,-4083,-597
48,36,100,7513,-916,3313
-75,120,-27,1741,-2875,1411
-49,112,-127,3363,-1708,1877
44,31,-103,3393,-1804,1972
24,-49,65,-147,207,1078
-67,-97,121,4999,2024,2595
7,2,-113,2020,1691,2020
-6,-21,94,-832,1000,638
60,-46,-47,663,1329,638
-103,-49,-38,715,1567,-128
-17,-74,-74,985,1976,-685
62,-120,-81,324,1431,-1319
105,-128,-75,-757,266,-1661
-124,115,-93,-1222,-284,-1860
-70,110,-127,-1002,-174,-1585
-51,118,-120,-1018,-83,-1125
-40,-123,106,-824,155,-788
-50,-91,98,-161,59,-419
-62,-43,0,3280,3167,1074
-73,-75,100,3776,4161,1098
104,-11,25,3104,3944,384
73,48,-82,1576,3860,-533
43,-24,16,1386,5044,-1245
-25,86,68,-412,4409,-2645
121,107,-10,87,4532,-2943
34,107,-92,-1137,4075,-3435
-16,84,90,-270,3693,-3330
88,-77,40,514,2800,-4041
116,127,124,-7482,1107,-7477
71,21,-96,2296,5401,-709
80,-40,68,3585,4651,-804
84,-114,81,-3039,3556,-2148
96,48,88,-723,3462,1280
-93,-82,-120,3861,2105,4050
50,-18,46,1956,-1679,631
18,9,-86,5970,-3200,231
124,-84,124,2758,-3890,-1328
60,-22,87,3730,-4608,-1268
-67,115,12,6414,-4072,-470
-66,-122,-116,5310,-4205,-1939
-100,104,80,3836,-5438,-2006
113,-2,91,5087,-5842,-2391
-73,-121,9,4012,-5408,-1023
-6,80,62,2198,-1823,-1235
-59,5,122,4813,-1376,-279
63,-48,-61,3812,-1651,152
3,118,-1,1217,-884,595
116,113,70,3332,475,1696
-99,-128,75,-780,2,662
-110,-116,-98,1014,886,668
-105,124,92,356,837,859
125,124,18,1901,1156,1321
105,107,15,1206,999,1059
-112,-123,-23,1780,1485,958
-48,116,-25,1982,2056,406
8,101,-41,985,2144,-575
74,83,-25,-552,863,-1397
-104,46,-73,-1780,68,-1471
12,-80,102,4418,4012,2811
-22,-64,-70,9147,6083,3469
47,85,114,5446,6281,469
-21,-78,-32,1405,5045,-1121
-110,-62,-51,2069,4145,-997
86,-122,23,-1669,3305,-2931
47,-122,-95,48,4474,-3060
-30,-17,-122,1497,3931,-2910
-70,13,113,61,1698,-4676
5,-57,74,723,2029,-5228
66,-81,57,2585,3571,-3816
-69,93,110,2409,4355,-3419
102,-3,125,-1525,3140,-2054
82,-20,98,4050,3912,2283
-52,126,-84,5253,1100,1286
-123,63,-6,61,-2021,-1565
78,-84,-2,5195,-5190,-472
-82,-26,-120,2766,-6736,-2276
-61,85,75,7544,-7147,-2704
-29,-106,-56,10319,-3688,304
124,125,100,3251,-7980,666
-56,-58,-51,-2580,-2991,-2794
55,44,-110,5638,-959,144
30,73,25,2544,-2155,-200
13,49,-9,2856,-1962,-387
34,-25,70,2453,-1572,580
59,-107,-28,4869,682,2014
39,-51,24,3275,3383,3690
47,-81,120,9056,4478,6523
12,-49,-34,2226,-328,3599
29,48,-72,-8535,-3658,-1231
-82,-23,116,2675,719,1768
-102,-55,-70,2392,2056,1215
-115,-12,-64,1038,1757,-406
-42,-54,-77,15,1011,-1169
36,-85,-109,-181,647,-1416
90,122,-117,-326,-92,-1804
-106,106,-97,-393,-220,-1599
-59,94,-85,-235,23,-1449
-14,75,-96,-2,373,-1166
28,-16,-71,3513,2540,1845
30,-12,19,4858,3927,1800
109,7,123,7283,2762,1186
6,53,-116,-2564,2030,-2941
-38,-26,-67,2663,6755,-2377
71,-120,-105,329,7052,-3408
66,26,-56,-848,5642,-3916
-44,84,-86,-2989,3656,-5028
-72,79,103,-2684,4280,-5710
-39,81,-111,-6129,4306,-6638
-38,126,41,651,7331,-2477
-124,-76,97,-2108,4837,-2225
-66,69,123,-1510,4293,1199
98,86,-4,-1711,1410,3147
122,-108,-114,6828,-1570,4557
-33,5,92,5742,-4112,-551
28,125,-17,2369,-4454,-2738
105,-12,-80,7397,-6231,-3186
-113,-100,101,10554,-5362,-1620
-118,-41,63,4745,-7045,-3090
-107,-50,-68,-555,-4729,-4177
86,-19,-98,7895,-799,-123
-4,14,113,3052,-2551,-65
-119,-49,-92,1457,-3189,-1407
100,-122,-10,5041,-1051,-320
60,20,-92,505,-1985,-416
-118,-35,-74,3315,-959,556
115,91,18,2373,-1231,492
39,127,-128,5098,1309,2461
-118,116,11,1632,1,777
-113,118,-23,1400,399,998
-96,71,-90,245,1028,336
-82,56,111,-1,1340,69
-38,28,27,-866,1574,-152
58,38,-104,-1379,1633,128
87,107,125,-417,1237,271
-127,126,103,-42,1408,-32
124,121,104,-29,1180,-445
-101,-128,121,-680,781,-673
-70,107,86,-95,734,-475
-18,-43,68,2754,2797,1620
8,-58,-108,5853,4689,2790
82,71,-76,5547,7073,1923
41,-97,-15,3705,6623,-1596
52,-81,81,2853,6226,-1851
-87,26,41,1366,4326,-3494
-83,-87,0,-51,4093,-4181
43,-118,49,-1619,3444,-3921
46,36,3,-3927,3907,-8228
96,46,48,3912,8085,-3983
26,-75,21,-4826,4815,-3218
107,-118,-95,4684,5024,3179
62,114,33,1021,3182,2177
-118,-13,-108,-2097,391,3656
-38,42,96,-2183,-885,2237
-90,119,107,1524,-3822,-100
41,61,-112,6612,-5937,-1141
-43,-99,-100,12132,-8113,178
-78,101,86,3806,-10628,-2780
-52,-4,113,8262,-3503,-4195
-89,48,27,2801,-8434,2034
-13,-14,23,-4734,-15,-2503
64,107,-16,11020,628,3142
-68,-16,32,-936,-5836,301
-68,-36,-88,-1670,-3635,-2279
107,127,-114,6300,-979,3596
99,-46,40,3060,-4932,87
-80,-102,-17,-151,368,667
-103,16,-72,7132,1734,6274
106,1,-97,-1822,-2230,-1180
-13,-43,82,562,1519,1597
92,19,5,-2905,-658,-1694
-63,-110,39,-1815,-1066,-1096
9,-111,13,4297,601,1677
58,70,-57,751,-11,43
89,79,-94,2414,967,530
34,65,25,-1823,-757,-914
119,40,-119,909,467,319
97,84,-45,-586,33,-104
115,102,-117,42,580,4
-68,-49,-16,1845,5124,-1106
-88,-6,-121,655,4521,-2022
114,72,-23,-18,5791,-3493
-31,73,-1,-5778,6397,-5472
-113,40,-22,-3228,5467,-1402
1,-59,23,415,4986,-3632
-54,122,105,-5749,3509,-6889
51,-36,52,-5071,5525,-3793
-120,-93,-82,-4004,4913,-721
88,-100,-40,-3304,4081,1714
26,-19,29,-91,1464,4480
74,7,64,3821,-826,3823
-113,-103,73,3253,-2438,-157
-123,93,-108,4899,-5661,-3317
92,-127,85,13047,-6408,-663
-20,-121,-21,8529,-6751,687
24,-41,-60,2371,-5755,802
-23,-97,-79,-1646,-4425,-2823
-30,-31,-51,4905,109,-183
39,-24,-118,7077,-4337,859
15,-106,55,827,-5810,-812
121,89,4,4551,-1845,311
58,126,114,3120,-1630,634
-80,-111,115,1296,-2052,-154
-87,-2,12,2806,-500,381
39,-63,35,2082,-560,773
-2,-125,-53,680,413,610
-67,101,105,1877,1061,678
-43,86,85,797,1173,1168
-70,85,7,771,1538,777
-66,79,-32,565,1243,745
-36,102,-39,-354,583,307
4,91,-72,-206,477,98
41,70,-112,-58,783,182
76,99,-126,-755,657,-20
111,111,92,129,822,75
125,-124,122,-636,315,-401
-81,121,82,-71,375,-178
-74,111,88,-92,316,-193
-64,116,90,-192,95,-108
-73,29,101,3584,2429,1056
-116,51,16,3213,2700,601
-127,85,-121,2662,2939,-256
127,85,-32,2683,4109,-710
21,-106,118,2359,4403,-960
-49,-4,-67,-354,4188,-2388
109,-93,-72,1176,4855,-2750
-108,-49,-55,-2844,5239,-4420
25,9,93,2775,5279,-2567
85,73,-40,-3637,1946,-6253
-104,-15,-34,1667,3940,-3875
55,-63,98,-1669,2812,-4533
50,53,-36,1325,5168,-1784
-46,32,-49,2259,4007,-820
74,-78,-55,-2444,2870,-1229
84,-75,41,2308,1003,2645
43,5,108,1343,-1185,1538
26,29,109,4734,-2949,-237
-4,-115,40,4552,-5768,-2352
57,13,-120,3452,-6802,-2886
27,-91,-16,8681,-6521,-2502
-87,-78,-81,9468,-5475,-358
-93,84,17,601,-5484,-1136
32,-26,47,4494,254,786
6,31,-12,9890,-3364,3533
-34,109,-63,-3403,-5020,-2220
61,-113,23,5389,-739,1323
-23,77,-68,-1066,-1861,-955
-87,26,-11,6231,-215,2078
-105,-60,20,83,778,1626
-40,25,12,4944,1827,2869
97,-46,-36,-1234,-1347,617
-64,-76,-8,3973,692,2579
94,-60,107,1215,220,1600
64,-45,55,681,581,722
122,-51,50,-302,540,-219
-97,-84,-6,179,727,-543
-22,-98,-10,-697,905,-1115
71,-93,-58,-955,1199,-1349
120,-95,-97,-532,1203,-1406
-79,23,52,3433,2489,1851
-96,-33,-19,1815,1769,1219
-25,-111,-38,3146,2655,2137
-52,-75,45,4327,4103,2605
74,22,-3,2110,4030,2974
-55,37,-35,1409,4525,537
7,22,-63,3035,6091,-1328
-27,-24,61,2926,6152,-2430
106,107,-7,4320,2722,-3383
90,11,-113,3515,2999,-2223
34,-113,22,-675,2952,-1232
40,14,20,1661,2772,1546
77,-102,125,-3490,-1469,423
-127,91,-8,2804,-2477,-3146
-97,-64,-40,11347,-4310,-64
-124,-42,-114,4997,-7379,-2244
-127,67,-52,9437,-6083,-790
-89,44,-123,9193,-5771,2837
-85,-125,-60,-6802,-6852,-2753
75,49,98,4354,78,-1736
5,-71,-76,4209,-1115,-1471
-117,-123,118,2734,-1106,1185
-9,60,-123,2949,-2241,1387
-95,-9,107,2390,-627,1208
-96,-17,-125,1153,-703,449
-3,113,-33,1801,2126,1401
120,-30,-54,4278,3888,2171
24,-14,-2,3039,2113,2010
7,-28,4,1675,1014,1321
40,-93,36,397,-221,-65
-124,115,27,701,233,36
-27,33,-16,458,1058,-263
1,33,-26,118,722,-318
3,38,-27,-384,-92,-350
8,80,-40,-1707,-878,-332
20,99,-89,-768,-501,83
10,125,-60,-743,-572,-322
-13,-109,-66,-851,-347,-644
21,-79,-73,-1363,-8,-642
54,-57,-118,-860,380,-498
36,-111,29,2181,6193,-66
-83,-37,82,1478,5835,-428
10,-21,74,-753,5440,-1729
51,46,-39,-2993,4795,-3043
51,-118,125,-706,6404,-3313
-85,31,-25,-1114,5157,-4477
-75,-75,-51,-2827,5521,-4688
-92,26,120,-1358,5927,-2444
3,-97,-18,682,5880,-813
-100,-90,19,-3485,3964,-789
-20,6,37,-4416,1680,1688
-88,5,46,7455,-315,6196
-80,125,86,1611,-2585,548
111,20,-17,8725,-4177,579
108,72,-104,4432,-6858,-2813
-115,49,73,10200,-7271,-2027
-60,-44,-24,9575,-4720,-189
2,27,34,402,-6901,-2213
-98,-37,-104,168,-1821,-3547
76,83,-65,7886,-1848,-151
79,77,-70,2729,-3938,-417
-98,14,18,2155,-2171,-1154
111,107,118,5935,-135,1487
-118,-16,93,-950,-2779,-236
-93,62,-71,2976,2659,863
5,-86,-94,4194,2641,2446
100,-87,20,-1649,-990,1330
95,102,33,2716,193,2601
50,-120,126,1283,160,1425
71,-72,-122,-58,321,766
-103,-62,39,-2053,1013,-456
-32,-128,113,-1886,1418,-636
2,-94,66,-1122,674,-252
92,-113,21,304,525,73
-126,120,50,552,588,0
97,113,113,-744,-26,-334
-127,116,76,30,218,115
-110,-124,89,-129,210,77
-114,-106,96,-235,-103,-84
-120,-110,95,-314,-307,-93
-61,125,-60,-5429,1559,-224
83,106,-9,-7741,1657,-515
126,-11,48,-5187,2223,1279
-28,62,-88,-14016,-4013,-614
28,-112,-88,-12307,-2879,3357
104,51,-85,-2883,1897,10241
83,-64,14,-2556,382,5700
29,-46,121,3385,-1400,4981
7,104,-98,7075,-2363,2167
-96,-127,-77,4220,-5642,-2733
120,-125,27,19358,-9326,-4431
114,-22,68,1008,-11663,-9919
-63,81,-6,8631,-1704,3919
35,87,20,-10690,475,-4262
10,-39,43,1198,3002,-20
-60,-61,21,-1164,-1621,-617
63,-24,99,562,-155,-539
-97,60,97,74,1640,-76
-77,11,20,-52,316,-805
112,100,29,6092,-634,-115
-101,-10,-121,4186,-2954,2021
98,-40,27,2745,-4836,1595
-12,2,97,398,-3672,-805
-92,-71,65,6739,-1491,252
84,125,84,2721,-2986,802
84,32,10,2903,217,1164
88,112,-115,2908,2097,382
-28,78,-109,2504,1201,38
16,18,-72,1316,437,239
-6,34,-37,-718,-488,223
13,-63,-119,-253,-754,-383
61,-102,97,453,428,-246
86,-71,-102,-1407,352,-433
123,-52,16,-1215,1006,-484
-106,-25,-39,-1036,1040,-704
-83,13,-84,-571,1021,-534
-78,51,-93,-1682,284,-733
-68,83,115,-1814,-71,-706
-43,111,68,-1105,186,-544
-31,-120,54,-349,480,-318
-73,-95,86,-5295,1041,-1751
-16,127,23,-881,2919,662
63,-72,-98,-4866,869,-517
11,-105,-51,-5097,1536,28
-122,-94,16,-6329,935,-76
-120,-82,-55,-8549,1604,-183
84,-85,123,-8912,-28,-223
-112,-63,120,-6444,-175,1488
63,-16,-77,-13924,-3485,3121
-13,-113,-104,-5719,-1657,7847
-102,-68,-92,288,321,5749
20,-82,-110,6572,-3077,2372
45,-50,-45,3859,-2391,1595
-116,-12,55,9107,-5009,-356
119,51,-29,9575,-10105,-9385
106,-31,63,5095,-9472,-13980
-91,108,122,-224,-1934,-2335
39,102,-82,18812,1305,1378
33,18,21,-15313,-2411,-5380
-128,39,90,9377,465,1074
-38,-24,-25,340,-3383,-3119
-79,-70,-95,3328,-1737,-1811
-54,-34,-111,5666,-458,-622
-102,-32,5,3883,-927,306
98,-15,27,3503,-3766,-767
90,-78,-13,4595,-2125,662
4,36,89,1654,-641,-331
-91,23,-47,2321,2038,209
112,-36,-100,1430,2815,-138
62,-18,46,3488,3583,882
-19,-77,-94,1020,1756,-68
23,-100,123,1148,1066,135
59,123,-118,136,672,-296
-119,-125,-124,119,434,-437
-85,120,118,-157,313,-474
-67,114,99,-833,162,-742
-28,-110,35,-1332,-265,-461
-44,-86,-32,-1602,-685,-644
-23,-67,-112,-127,12,-208
-38,-25,-78,-297,148,-302
-38,-47,-50,3471,3987,2211
-88,112,-38,2164,3748,1009
-107,-58,-37,6045,6164,3250
-39,-58,66,2034,5511,617
8,-115,-100,3362,6044,1004
-60,-76,-84,-604,6329,-77
-13,96,10,721,6389,-359
-46,-81,94,-212,6356,-1292
-33,-36,117,1168,6970,-859
-98,13,34,4920,3023,-1582
11,-43,119,-6155,1570,-2874
100,-83,-103,10309,-475,-1711
-68,61,-127,1718,-632,-3572
21,69,27,7123,26,-1897
-26,31,-52,7850,-1453,-623
49,-74,-28,-943,-4014,-5547
-112,-55,-65,12448,-1891,-294
4,85,-82,9889,-6096,-1169
40,-71,62,-8119,-15179,-7463
64,-15,-19,-3076,-3168,-9453
33,-112,120,8866,6044,-587
9,60,109,8622,685,2082
16,34,94,3254,-6434,95
45,0,-51,3522,-2243,-920
-126,-49,-40,87,360,-713
104,-16,-80,3373,-624,1382
-58,87,29,-1470,-245,-1448
-16,86,6,4398,2534,1290
111,-122,-104,1394,-10,510
94,-124,-109,-766,-1176,50
-104,100,89,-1254,-1091,-355
-40,81,6,-194,6,-291
17,83,-63,1886,1684,309
4,88,5,808,1433,-175
36,90,-2,-393,1081,-281
85,76,-75,-487,857,-25
94,77,-118,136,778,160
90,74,-107,80,192,90
100,86,-98,-253,-138,122
116,94,-112,-121,-68,253
66,107,69,-3782,3682,-330
-71,-85,-54,-5871,2358,-830
-78,6,-95,-6199,3421,-482
115,113,-79,-7503,1990,-256
-113,5,-96,-7749,73,856
56,12,-102,-7035,76,1159
-22,21,-80,-3299,3046,1383
-115,-72,101,916,1486,2729
-70,-47,-61,2390,51,2800
-8,53,91,-240,933,-2643
76,-81,-111,23872,-9021,-247
-68,67,72,-10787,-12939,-11153
19,-118,-117,-1425,3082,-12538
45,-100,-56,-28720,4215,19452
89,-43,-12,-28845,-349,-15570
-106,-72,68,12390,4811,7329
112,-79,3,-6564,-2083,-3451
14,70,-49,2154,2686,16
0,-74,-60,-504,1646,-158
39,91,-38,1300,641,267
-112,103,108,2377,-545,790
59,102,58,3503,-1799,-380
-84,80,-40,8163,-2532,3990
-104,-123,5,221,-3538,-271
-40,66,49,1943,-1936,1630
-49,-97,-10,2142,-2147,-61
-59,-29,89,2006,-3344,1323
97,-74,82,-1156,-2995,-1243
-42,-87,34,3203,904,78
39,-85,-86,1762,1611,1840
-62,87,-102,-1992,450,-1064
57,-13,-97,1460,1795,-309
104,-23,-30,1455,1495,-37
107,12,22,169,585,-53
-117,12,2,-1236,203,-374
-65,-11,-88,-475,695,-537
-48,-17,-107,-585,-75,-181
-58,-66,-117,-552,-612,-607
-25,-78,101,640,335,137
-97,0,-95,570,-712,48
-37,94,93,-5834,4749,-1043
-52,-126,66,-8325,5736,-657
87,112,11,-11507,5419,-254
-121,-6,-12,-7898,4012,2910
-120,101,-92,-7613,2149,2771
23,-43,-90,-1384,2274,3488
64,2,-57,1875,-346,2796
-76,71,-114,-574,-337,-39
39,-77,72,10574,-3147,-805
59,85,1,14799,-9121,-3962
69,108,101,-3080,-9503,-10897
-69,6,-71,2041,-546,-14032
43,79,-4,26424,6707,17586
91,10,89,-25376,-1658,-13332
-56,-21,23,8381,1988,3113
59,-118,89,5911,-2022,160
106,67,8,-2061,-601,-798
-36,127,82,-2362,1217,-1727
101,65,122,1510,888,-156
-91,43,69,2903,-428,-63
112,-61,-103,1685,-1224,773
100,-10,70,2820,-1106,1116
-116,23,114,4707,-2659,1127
113,114,42,700,-2778,1635
46,-8,-39,578,-1655,434
94,-113,-98,2702,-1631,644
53,-107,-106,1217,-1467,168
