AccX,AccY,AccZ,GyroX,GyroY,GyroZ
-38,8,-124,-912,4026,-7066
-107,114,-108,841,5509,-9534
11,-1,-17,-855,6811,-7855
-26,-73,50,-3405,7473,-2591
43,125,-62,-1414,3866,3409
16,-34,47,-8599,-4060,4018
40,106,80,-1642,-9499,7774
-17,93,-87,7622,-4667,-1316
-80,115,-1,2311,-2626,-9108
-70,112,-2,-711,8519,-9437
31,0,90,1963,6906,-1139
-96,-64,89,-1245,1969,3288
-45,-76,78,-7260,-2476,4703
-92,-37,-124,-4153,-6765,7772
-27,77,88,-1264,-637,-3637
72,-54,82,7985,-7457,-7990
83,-2,-9,2107,7488,-9236
-42,55,30,3582,7332,-1741
-54,91,109,999,3543,1878
109,-11,6,-10412,2246,2841
-78,93,89,-8886,-4385,7040
54,-57,-15,-5140,-6899,11548
100,57,116,3249,-3425,-220
91,-82,11,5405,-7984,-6942
-113,-1,-30,4444,-1540,-9268
-53,42,3,5896,-4300,-9501
89,101,-79,3644,-1588,-2646
102,-42,-52,-911,-5150,1111
27,121,28,-3405,-152,2342
32,42,103,-495,-1439,3712
30,-69,65,959,-499,4062
29,89,62,-515,-733,4353
-50,-8,21,-2133,-951,4207
66,-113,-28,-7033,-42,8678
-20,-48,-6,65,-2462,1642
78,-63,127,-449,-889,1509
58,-74,21,-834,-1248,2057
91,122,91,-808,251,895
101,-84,-11,1066,16,2130
98,-87,-86,472,-1439,2273
71,101,124,4321,1363,-10071
-11,32,-106,-715,4137,-10503
13,71,-89,-4169,5619,-5794
78,87,-24,-104,5758,1448
112,112,-87,-7054,4445,5518
30,51,-35,-7957,-8941,8781
-39,-27,-67,2069,-6928,2840
-66,116,35,5588,-7332,-8993
10,73,-60,-398,4813,-9783
-63,-60,-61,1245,5606,-3327
-81,-107,20,-542,3658,2067
75,104,-14,-11556,629,5815
-43,-55,116,-3694,-7837,7674
97,-95,-77,5082,-8277,-3801
-4,116,-24,2922,-884,-8932
106,-85,-83,-2784,8626,-7351
23,97,-49,531,6474,-568
84,92,-99,-2391,2799,3548
106,19,-42,-9646,1008,4325
28,62,-45,-8077,-5070,8926
-45,-72,58,3949,-14396,13122
107,-107,81,2298,-1791,-6322
15,-79,-11,1558,-7552,-9442
-99,0,-9,475,-346,-10613
-107,-127,-67,3693,-4077,-6057
-71,36,-57,-474,-2724,-581
112,60,-4,-6531,2531,-1046
118,-15,-111,193,-510,3684
3,-58,40,-2686,2635,3848
95,1,115,-1278,-408,4736
110,48,41,-2811,-1287,3560
61,125,13,-882,-1551,4011
73,-6,-99,47,-925,3637
31,118,51,-4576,1263,1148
52,96,9,-3087,1032,-312
-85,116,76,-678,-2442,2061
-48,86,-127,532,69,1528
-27,100,76,-2042,2165,427
-48,56,14,-2398,233,-975
-81,-5,96,-789,-917,-663
-33,-62,0,9173,1402,1289
-52,33,5,5138,4222,-9711
-9,-73,87,2888,2353,-11886
90,96,-108,-547,6939,-5584
71,-82,-17,1514,5266,1077
-121,81,-77,-3493,3377,-260
38,109,22,-9370,-2679,2521
-11,58,-98,-7755,-8110,5263
30,121,-62,-585,-8395,4503
-105,45,-55,7282,-8872,-4383
88,-15,-95,864,-245,-11530
40,33,-53,1345,9020,-6686
78,76,80,3241,6724,-1064
-22,-29,-43,-5999,5195,1267
101,-11,-53,-9859,-1425,3545
25,121,122,-10191,-4738,5798
44,-96,108,-2604,-6409,4092
-21,77,-25,7159,-10956,-3278
-107,-42,-8,5534,-1812,-9574
-59,-112,-30,2809,2485,-8810
-123,-85,4,5731,410,-4442
80,-40,45,2164,-410,-2992
-25,116,14,-1607,394,-1958
55,21,-19,-935,-1429,-540
104,-114,79,-1248,-1016,939
120,117,-122,-2231,-1237,1613
99,-20,86,-1636,-1260,1807
108,17,50,-882,-1813,3263
112,-91,127,-1896,-985,3941
-114,-117,-77,-2047,-838,3570
74,-74,-111,-1664,-2268,4265
-86,62,117,-3204,-1473,2718
117,-128,97,-1526,-2112,3216
-17,-76,127,-2127,-1411,3409
-83,-68,106,-1771,-498,995
57,66,-93,-539,383,1672
114,-34,50,4603,662,1735
-117,3,-39,-455,-152,282
-99,-103,-45,-1049,736,-1387
-22,24,-101,-541,1149,-509
-57,32,96,8003,5408,-3200
114,101,-103,3892,4087,-5739
49,5,-29,3547,3479,-6485
117,-27,42,318,4187,-4497
-21,-25,-117,-901,6118,-3361
102,51,74,-476,6012,1394
-18,-22,121,-7742,-1295,5323
12,-71,51,-9489,-9748,8579
68,-30,-114,2119,-9104,-331
-73,6,36,7311,-4123,-9823
-58,-127,10,602,6434,-9516
88,58,58,-37,6354,-2464
-17,-106,-120,1674,4310,3036
-4,10,57,-12195,2097,2707
-2,-54,118,-10922,-7885,7588
-84,71,81,3175,-7439,7318
6,82,77,9512,-8782,-11175
-62,-125,17,4260,-818,-12339
125,126,-1,-882,9407,-8603
106,-118,8,3921,-3838,-3235
53,-99,91,-5149,861,-1879
-127,101,-104,-3272,-2340,2282
39,62,-117,-1178,-1732,3771
10,88,116,-3245,-2845,5628
-27,-30,-117,-3049,-2176,4205
-49,-114,78,-1159,-2460,4408
-86,-101,-109,-1530,-2247,3752
-42,-59,40,-2107,-580,2442
-85,-36,-3,-1404,-2877,3180
-13,-94,-60,-1753,-311,2678
15,120,115,-680,583,1241
-38,-119,-111,-2444,124,1128
32,72,108,2213,-3771,-330
114,-38,69,354,727,-589
66,-58,-1,575,1623,-1147
117,91,-29,442,188,-404
-40,39,-91,649,1111,-502
-65,59,125,-606,-343,-1301
-42,13,-91,-979,1269,-995
87,-4,-46,-1092,1328,-428
53,110,71,7759,3279,-1532
-50,93,125,4985,1998,-9800
67,93,-11,3108,6203,-12488
-111,14,99,544,10126,-559
46,-54,-127,64,3328,3587
55,4,124,-16443,-5696,4558
-36,112,92,-648,-11989,7976
46,74,-76,4078,-2589,-11036
-125,-43,80,7229,-2129,-12080
68,-56,31,-1294,8344,-2710
-117,-52,56,-2483,2338,1721
-89,-86,-35,-14767,-1569,8567
51,-22,-20,-9093,-5231,7442
-93,-102,-22,926,-2646,6345
-60,-44,-120,10515,-16084,-1590
-28,112,0,-920,1106,-15790
117,-111,68,2124,1371,-9390
17,48,20,5325,-965,-1921
-76,-124,-8,-4593,1625,-2357
93,-6,-53,-710,-2786,173
114,26,97,397,-3475,3051
45,-49,51,1291,-2034,2878
-15,-125,7,-2022,412,328
-43,59,26,-1778,-175,5578
-97,37,45,-4002,298,4021
-48,-84,-28,-2714,-3126,3848
-115,-66,109,-1436,-1164,2810
-111,14,82,-1278,-1222,3138
-84,-11,121,-2072,-896,2590
-27,-38,50,273,12,1715
-38,116,-42,-1225,119,1112
-115,40,-48,-1920,-487,511
118,-10,63,-2496,-303,912
-91,-37,-34,504,-36,529
-105,-108,-22,501,-160,-224
-89,-106,-15,-105,287,-32
-62,75,-70,859,671,-238
6,21,-92,1232,495,-1012
-91,23,-98,403,-135,-686
-90,30,-95,87,420,-457
99,-77,95,5467,4418,-7930
71,-103,-46,6294,9286,-11110
14,-2,65,-3569,6786,-6128
-118,-36,-77,414,6563,3045
119,-20,90,-9426,2685,1957
30,115,-24,-12987,-13108,7425
28,77,-125,5979,-5996,2573
91,36,-47,7955,-5139,-13621
-19,-33,-20,4512,5925,-10284
-32,-68,78,-711,4765,-2807
-67,103,119,1452,4867,2251
-92,-18,124,-13998,2409,4100
-89,-70,-11,-8099,-5303,11983
-125,127,118,-6119,-4247,9314
66,80,59,5440,-8699,-10422
14,114,-31,7014,-7283,-10211
124,110,17,5607,-9002,-7829
70,68,57,-880,-3100,-3173
-55,45,-19,4057,-4343,1962
-118,114,62,-1779,1924,-1109
-45,81,1,693,1006,1704
-34,-113,-50,-1917,768,1884
94,71,71,-2081,1682,2254
125,120,10,789,-97,3786
56,-3,-89,-2894,2926,4170
108,-105,-43,-4240,697,5383
-5,-105,-55,-3471,1375,2989
40,-67,-22,-1478,1403,4633
51,-89,118,-2452,2061,3852
101,-41,-85,-3845,2681,2939
-73,103,120,-2588,453,159
73,117,18,128,267,17
39,4,64,826,827,564
64,-33,43,2500,412,326
69,-22,55,2203,1026,-362
39,-83,-15,1372,-213,-400
96,-49,-3,468,-365,-1258
56,-127,-26,618,-763,-1164
-20,-83,-53,62,-1107,-347
-57,-95,-22,824,-877,-329
9,-110,-127,7010,982,-4935
-19,-66,-67,5409,-942,-9908
-8,-75,-7,-2523,7118,-9679
120,-63,47,1184,6614,-1398
-55,-95,-38,-4055,3515,1235
45,92,-104,-11266,-4927,6031
-59,-55,-60,-6683,-8578,10876
9,-45,-42,-3488,844,2433
89,-71,37,4366,-8729,-9178
-88,58,87,2486,1126,-8095
-111,15,123,1268,5109,-6784
-88,100,-90,1568,9944,1639
-18,18,-22,-2877,2689,4190
31,-71,92,-12831,-1497,5610
-83,71,92,-637,-4374,8566
-28,-107,8,3970,-10476,-5427
-26,-70,115,6203,-6342,-7630
-13,100,24,23,1441,-8165
-25,57,82,5732,-3368,-3396
54,96,-90,-865,1057,-1730
-73,-111,111,4950,-5059,517
67,-92,-41,-2797,2264,-905
-10,39,-37,-2447,700,149
79,24,56,-1584,1202,2935
-117,-74,17,-2409,253,4368
-14,14,53,-3037,159,4580
42,-125,14,-1799,-177,4887
27,-42,66,-1939,-1073,5165
59,-108,32,-4222,1040,2940
12,87,39,-3644,-541,1486
39,-104,124,-4547,1092,1847
54,76,59,-1429,900,1351
13,-18,111,2855,-2473,1636
-24,26,66,1493,-1631,754
-46,-124,-45,574,392,277
-34,-116,-58,903,6,-239
-30,68,-81,925,-146,-283
-37,70,-110,1287,65,-1166
-42,37,-72,-501,181,-851
-55,16,-75,210,-354,-900
-74,-39,-78,6158,581,-4927
-122,-34,9,3644,-813,-7755
52,117,-32,3072,193,-10160
34,47,-12,-4885,7001,-8654
-21,-32,47,-1085,6452,-1654
-32,65,27,-4657,2851,2170
111,107,-30,-11948,-5409,6449
15,31,115,-3509,-9585,9137
42,89,-24,452,-1619,-1810
46,39,-124,8085,-11338,-7470
63,-15,-117,639,6859,-8765
-123,25,-49,3006,5208,-3208
-77,-67,16,-2514,7525,-130
123,-107,-89,-10389,1003,4343
103,-26,-88,-10683,-3267,8723
12,15,-15,-2142,-6125,3505
-81,-128,64,6930,-9930,-6676
127,-48,-43,2218,-1425,-9344
-73,-93,-74,109,3088,-8189
-19,47,21,6390,1227,-1037
93,29,-40,2718,-2300,-805
86,48,-97,-5396,1010,-3764
-115,57,22,209,-535,-1457
-22,-50,28,-1472,-925,1765
-29,103,85,-1732,261,796
124,-126,45,-1107,-150,3627
79,104,42,-2984,-651,2436
-75,-52,17,-2214,-1935,4415
-103,-99,126,-1703,-2348,3690
-79,31,72,-2118,-1709,3354
118,43,101,-1089,-1585,2676
-40,-49,104,-133,-138,2275
-92,-89,98,307,1664,1065
-66,81,6,-692,-736,1953
-76,-6,-47,-410,-487,386
-90,-32,-20,-886,-209,504
-116,-47,-10,-919,-387,671
-94,-116,-28,-554,352,-71
-108,87,-86,740,-100,123
-90,88,-61,532,-230,100
-83,75,-110,9276,155,-7278
102,-123,-42,4221,-2383,-10167
96,80,-21,-2078,4918,-10082
96,-98,41,-2125,8451,-1276
1,119,-69,-3769,2617,1324
-61,102,97,-10751,-2590,5932
-37,-75,37,-5728,-10938,10474
91,-62,-71,-1383,-2233,-237
-15,119,56,3725,-7304,-7940
83,-12,-112,7465,39,-8474
-22,-112,-62,1725,4384,-7552
109,-92,-8,3609,4599,-982
-98,99,84,-5823,6654,780
32,-103,-93,-9649,1807,5215
-71,-40,-128,-10578,-1038,9480
-89,55,4,-4780,-3986,555
-44,76,-97,4589,-9221,-6040
-94,-32,-18,6807,-5422,-9415
-111,109,-30,3096,216,-9288
116,-10,-13,4448,-606,-5659
4,-33,-31,1554,-79,-2833
124,96,-32,-405,-1634,435
-8,38,55,-3646,2739,4298
-14,-44,-8,-1550,305,-560
104,50,102,-5154,2135,1972
-90,42,18,-725,-1905,4590
0,-42,-104,-1863,244,5369
-104,8,-74,-3008,1211,4677
-82,-47,-80,-2840,-391,3949
-66,-14,42,-3401,-644,2560
-121,-69,100,-3420,-1715,3407
61,122,-61,-4533,-1612,2473
61,79,-20,-2884,-1104,2490
27,-104,1,-1294,887,1242
-30,83,-96,488,1211,-608
-44,-22,96,-867,3389,-1630
-107,19,110,-2221,-332,-1153
-38,-96,44,-2466,1690,-1486
-56,-72,-32,555,366,1202
-9,3,-22,2541,262,1278
126,-46,-97,4859,326,-5570
-128,77,-50,5477,4435,-6093
-108,-2,53,1723,5036,-4587
82,-23,-87,-525,5272,-623
84,-78,23,-1400,3573,1064
16,-41,-8,-7639,-260,6004
115,2,-112,-9705,-5581,8514
49,38,-80,-4817,-5633,256
-98,76,108,2815,-6853,-6804
-87,-17,126,3494,650,-7189
68,49,-82,-1549,9211,-7675
-120,77,-39,5163,7422,3078
-25,-44,104,-6123,3796,3099
-83,56,-44,-9286,-1708,4182
107,31,123,-6705,-5315,9287
-101,-23,-113,4764,-5974,-3448
-19,-55,-57,5290,-6563,-8353
123,102,-21,2242,62,-9808
-102,-58,0,4851,-71,-6055
117,14,40,5641,-3460,-1584
111,-17,-97,-2109,-929,-497
65,-104,5,-3007,2901,-3242
45,-96,-125,635,280,618
-9,3,-97,3510,95,-2243
-53,-113,1,-4414,-1171,6867
-65,19,35,-2141,768,2327
-10,-115,53,-1959,332,4275
35,-40,80,-1738,-1769,4413
21,85,-77,-3052,48,3214
-15,77,-10,-2522,-1462,3898
50,-113,66,-1714,-683,3221
35,-103,-125,-2372,447,1963
67,14,49,-2450,1682,1613
-11,67,63,-1830,571,1213
-96,31,53,347,-1289,172
-104,-40,41,762,126,27
-95,120,-4,1092,837,-371
-94,-14,-94,1311,142,-116
-84,-9,-104,162,281,-214
-56,5,-65,-909,761,-409
-23,-108,43,4788,961,-4937
43,-111,-53,4110,-966,-11062
-54,-27,-12,-822,3029,-9189
119,106,12,814,5726,-1564
-116,-61,17,-1451,4591,475
-101,51,37,-9650,1269,4228
100,-126,-68,-7357,-8301,9169
96,111,95,3389,-8091,6062
24,64,32,3582,-6350,-9041
-45,-51,-88,613,5405,-9335
61,98,-43,1358,6055,-4717
-23,-20,11,1309,4035,-307
77,-26,-64,-5964,4304,1790
10,-115,51,-8521,-20,4418
-109,-99,-27,-9027,-829,9057
46,-54,51,907,-8039,-1027
-24,-18,-20,7212,-7576,-8443
-64,-92,-12,1203,-1344,-7932
-120,39,-63,1369,641,-6052
-86,90,110,4631,-221,-59
69,46,112,-1083,-1399,-2321
-81,-110,25,-1951,579,-2560
61,73,-124,-957,-746,512
32,73,69,-1155,231,1727
-113,4,74,-3400,1305,3167
-70,-2,30,-3094,-1275,3746
3,72,-34,-1948,-1053,4447
-15,-89,96,-2694,-1302,3253
-120,121,104,-2280,-1511,2692
-70,55,-108,-1728,313,1831
-116,-56,32,-2143,-624,1510
-116,-110,67,-3344,-191,896
-93,47,64,-1556,-749,1184
-77,42,100,-755,-1162,1018
-67,31,118,-1175,-415,588
-77,-35,37,89,-64,-44
-98,-41,62,-662,281,-612
-128,126,27,359,-474,-210
-126,97,-12,489,-156,83
-104,67,-32,724,179,315
-43,14,-111,4934,1465,-7743
93,110,-2,2498,2043,-8177
32,82,26,-1318,6022,-4965
60,13,54,-118,5777,15
-35,-82,19,-4559,2471,4194
-1,40,-7,-9993,-6231,7804
-100,-127,115,362,-6991,10349
-56,-80,13,955,-5938,-9335
-39,-34,-79,3870,-415,-7878
14,33,-24,948,6224,-7290
-54,98,23,2287,5542,-2142
8,-31,93,-2660,4498,334
-7,39,112,-9587,2377,3274
-95,2,-124,-9364,-1256,8197
25,89,3,-1250,-7576,4001
110,-14,-101,4065,-6398,-9203
-45,-84,40,1288,-3208,-10330
-120,24,-47,876,1094,-7446
-121,80,-63,5713,723,-2234
-81,-113,-71,179,-1642,-1633
106,108,-2,-3850,425,-1884
-35,-123,-81,-1499,637,192
-114,-14,45,-389,-1391,3204
10,-2,52,-3741,1339,3561
-121,-122,101,-3070,-2328,5484
-76,-100,113,-3168,-596,3973
11,104,91,-2247,-2246,3861
51,109,-56,-2520,-794,2965
-80,-106,29,-3165,-1256,1587
-82,-49,-29,-2598,205,880
-84,113,-108,-2290,-859,623
-124,108,-95,-1362,-1229,430
117,45,-78,-1162,-478,-42
111,-33,-121,556,10,-240
118,-94,116,391,532,-147
115,103,38,307,-18,-146
-119,84,22,381,-96,-199
-82,50,6,215,379,96
-61,66,-8,-171,415,-63
-60,73,-8,-278,650,-458
-37,4,33,5584,-4291,2377
33,94,-120,3120,3057,-7151
-104,-82,-46,6762,6076,-10369
107,-86,80,121,4184,-8407
-125,57,-116,-913,7272,-3644
-128,122,65,29,4527,2372
118,-7,-40,-12662,-1878,5640
-52,69,61,-5218,-14045,14122
-106,-51,-57,-2163,385,-6522
-120,11,-80,8099,-8942,-9569
-106,-82,1,1714,3512,-12767
-91,34,-3,-1763,7051,-5328
-39,-124,62,3411,3921,2012
-83,-23,122,-7687,4337,2051
-3,28,48,-12673,-344,4684
20,-74,-42,-6198,-6377,11589
-104,-111,-61,1009,-3922,-51
-54,-8,-106,7845,-12050,-10438
-93,-116,-2,1738,-640,-10109
73,20,-44,1699,2985,-7407
48,121,-9,6407,-1310,-2085
27,-100,-63,-2530,-710,-3460
-107,-33,93,-1138,-2056,-840
18,-29,77,2004,-1318,3887
20,-74,44,-3147,136,2422
5,126,92,-5531,1451,3642
26,-104,104,-1722,-972,4347
34,114,3,-1802,-893,4008
71,3,58,-1795,-1635,5446
-5,60,36,-2430,-1567,3817
-33,-61,118,-2006,-1114,1759
-80,-27,125,-2202,-449,2228
-44,24,10,-462,-769,2668
-40,60,2,-1357,77,1845
-38,-94,51,-1879,115,118
-110,63,-16,13,-2051,-6
-114,-30,-15,195,937,-1220
127,57,-65,2216,226,-257
122,-4,-79,763,773,-192
-112,6,-80,-154,273,-375
106,-24,-101,12935,2499,-11688
96,10,51,-2901,5235,-12473
120,-77,54,-1560,7626,-1376
-31,-26,40,-231,2652,2896
34,67,-126,-10039,-642,5425
-27,-67,52,-9448,-9631,11166
41,124,83,662,-3455,2455
90,57,53,3703,-8334,-9597
-104,-60,-71,5754,2282,-9192
96,97,-3,300,5119,-7528
-95,-3,23,1524,4696,-1606
-32,-105,81,-4785,5897,788
-122,99,112,-13063,-397,5433
51,-3,55,-8332,-4595,13880
101,112,83,2610,-4860,1188
-24,8,57,3429,-11846,-10364
45,-112,-18,6479,-5185,-6822
-90,-53,-18,-3708,6286,-8360
-125,103,-80,6810,-4037,-2448
-25,-55,-128,773,-2656,-304
79,-121,54,9780,2558,1487
-22,-118,-66,-11287,3118,-177
71,110,85,156,77,1836
82,123,55,-3270,600,2449
-78,-39,-10,-928,48,3767
-59,-67,33,-2059,85,4641
8,110,82,-1774,-837,3686
-39,74,83,-540,-872,4104
98,88,-74,-1189,212,4023
79,112,-27,-2978,1903,2168
-98,-22,-88,-1907,813,2742
-83,-5,-40,-707,-793,2590
76,63,-10,-548,119,458
-12,27,-54,-518,584,-433
-28,-63,-75,-108,966,-1101
-27,-91,-78,-180,351,-1372
-41,-128,-102,-956,656,-1448
-42,2,-123,395,195,-484
-40,20,-96,-281,380,-662
-24,-35,-113,679,-123,152
40,86,40,5469,1488,-4366
-96,2,-114,6267,1017,-6470
-39,113,-25,4936,464,-9112
-113,-101,24,-1965,2711,-7326
-96,25,13,-313,4553,-1082
-102,-82,-78,-2043,6103,1130
-11,1,-119,-9970,-1015,6925
69,-95,-3,-3564,-10222,10160
21,-101,10,1261,-8409,-750
5,83,28,3309,-4159,-8136
-8,-53,-96,-411,6807,-8192
-96,-92,-68,1321,6591,-3289
82,-11,-50,2528,5390,534
-3,-104,-64,-7962,3633,1207
3,-62,68,-9028,-1523,3956
-40,46,37,-3475,-7736,7501
-112,-59,-75,7329,-5297,-903
22,-56,-112,3760,-5659,-7969
104,-77,-15,2777,280,-9760
-101,-19,-8,4764,859,-2170
-38,-75,-103,3547,-2230,-2410
97,1,99,-2568,-1584,-2084
54,21,-120,-1183,289,-82
-103,-38,-78,-771,-226,1162
-115,-122,81,-2637,19,2749
-51,-57,52,-2993,-407,3747
34,-56,116,-1963,-767,4515
-115,-54,-81,-896,-1,4434
35,-26,-66,-1569,-364,3715
-5,-41,-19,-2526,71,3783
6,-56,-28,-1019,180,2916
-11,-31,6,-1622,-78,2051
3,29,-53,-632,575,1902
-12,-67,-83,247,-437,887
-35,-46,-47,-832,-17,632
-9,-90,8,-2274,1465,-831
-88,-7,-89,1754,-792,224
-54,-2,-48,746,396,-74
-72,-7,-61,-859,875,-526
-51,-38,-60,-80,21,-280
-69,48,-88,10173,-7181,-5306
-113,-10,-58,-1677,723,3657
-120,-36,115,-8,366,-638
-39,14,-103,-84,-77,-195
-40,11,-94,-1220,129,-454
-44,6,119,338,-397,-171
-43,9,-97,-389,50,-131
-49,3,-106,-250,93,-398
-43,23,-99,-330,180,-230
-45,21,-109,-21,47,-185
-38,55,-102,-173,153,-335
-36,65,-108,-43,28,-375
-22,96,-108,303,-41,-177
8,2,-71,1647,45,-337
-106,112,-2,2933,-456,-5238
127,59,-117,5542,1277,-9655
9,-110,-93,-1278,3669,-9228
77,6,-85,-1809,3908,-4216
-38,-105,-54,-1833,7030,124
-127,12,78,-988,5480,3899
-36,111,-91,-11980,-2680,6964
-123,-22,99,-4605,-17874,13437
117,-74,80,-9227,3303,-6189
100,-38,-117,8333,-6889,-8598
10,-36,126,1250,1068,-13968
-120,93,114,-899,8932,-6123
-17,-108,-78,2996,5948,-1888
124,-12,118,-5242,5444,1251
-105,54,19,-13019,91,3701
-21,63,63,-6375,-3750,12554
9,109,-98,-5242,-3725,4290
92,-80,16,1493,-6120,-9525
-87,0,-122,5005,-5166,-11692
-105,-95,-87,112,1462,-8940
33,91,-66,8009,508,-2133
93,-39,-48,-2372,1277,-3994
-77,-49,82,-1418,-828,-1773
-88,51,54,-51,-1451,1015
-67,-87,75,-1628,1734,2920
-85,53,57,-3895,-821,3598
72,121,107,6983,3602,-7713
80,-76,-70,2277,2735,-9231
3,-58,-39,-897,4433,-6518
39,-20,-89,-1951,5389,-249
111,40,-16,-57,2194,3009
45,82,-20,-8059,-1694,6610
26,45,-40,-9372,-8934,9679
-27,125,-99,5013,-10887,8739
33,51,-88,2372,-493,-10173
119,19,-108,3573,869,-12943
-69,-117,-127,-3093,5976,-6970
69,-122,-119,2816,5759,-1550
90,10,-84,1016,4791,1413
51,-26,10,-10484,3331,2740
21,52,68,-8086,-1966,4896
-126,-2,-103,-4922,-6276,11481
-11,-19,-87,2682,-4496,-672
16,96,-56,2847,-7460,-10934
43,-29,-122,350,1035,-9547
-25,-70,121,2183,3284,-5866
123,-128,-33,5040,-1900,-1837
-48,66,106,-2487,353,-1599
3,-38,-110,-233,226,-851
63,68,3,1213,-1755,1917
103,84,89,-3431,1078,2563
0,56,56,-3916,1220,3416
100,-8,120,-2637,-3476,6139
-32,-123,22,-2853,-751,4905
-54,10,-77,-2723,-1218,4005
-124,53,-52,-3611,511,1488
119,97,-5,-1544,-1324,1905
-74,41,-22,-1539,107,2884
41,-45,-49,-2906,1848,-339
-56,-97,-36,-321,-112,-1067
-70,-36,-124,1934,424,-112
-54,55,-25,2223,1231,-884
-42,68,-66,-176,239,-589
-46,56,-34,-215,-847,-442
-40,-28,-56,743,-175,123
-38,33,-35,2,-136,-257
-99,-50,78,4696,2059,-4348
-123,62,-128,3245,748,-6218
6,92,-52,5833,624,-10036
-29,-34,-22,-1985,5652,-6178
95,-57,26,-1104,5093,-587
-106,44,16,550,4740,740
54,42,-121,-8009,835,6880
78,44,-61,-12330,-6477,7536
61,94,5,1109,-8351,4273
-83,118,-69,2212,-5237,-7036
82,-25,-107,918,-478,-10973
111,-14,-120,-1472,5668,-8352
64,53,-112,5748,4285,-1110
-49,-2,-12,2033,5353,-1543
20,120,15,-8042,5733,1578
87,39,110,-8953,887,5072
30,-54,117,-3677,-6657,7713
-79,61,97,-269,-5119,1965
90,-47,6,6926,-10069,-6790
3,115,11,652,-1785,-7644
72,31,-15,2159,-785,-6046
-65,16,99,4622,-977,-3206
96,46,-70,-1852,-1614,-1193
84,-10,61,-2754,1079,-2822
117,4,71,295,-1149,663
-16,-100,124,-2592,-825,1962
4,51,-92,-3966,1561,1182
-60,-116,-117,-902,-1444,5462
-64,-34,-108,-2812,-2110,4181
6,-2,-113,-830,-699,4900
94,-52,-21,-980,-215,4131
101,-78,-50,-1282,-128,3946
98,-100,37,-3812,1231,2138
68,24,-27,-305,-1913,3177
34,-19,61,891,-1002,1309
-80,34,29,-1201,492,3212
-10,56,-106,1748,-495,921
-83,-4,-60,517,-116,24
-90,-104,-97,-70,532,-1329
-62,33,-115,-110,-230,-862
0,68,100,1916,4883,-10777
-17,37,88,953,6337,-4722
-47,16,121,803,5434,-3810
13,21,0,-5548,7552,-2776
86,120,33,-1878,1536,3706
15,-72,123,-10535,-4850,6013
-13,9,36,-5729,-17851,11051
-79,58,36,11332,-911,6062
-34,-123,-27,1548,-4949,-12640
5,-39,-104,3966,-1544,-10905
74,-80,-85,-621,4987,-7993
26,114,-80,559,3477,-2926
111,102,-87,-4965,6624,-2015
121,80,-104,-7145,2392,4693
-25,111,-101,-9385,-1326,7201
88,-36,-123,-2928,-5379,11958
88,31,-7,1166,-1832,409
33,-16,7,5840,-9515,-8313
104,-86,-102,147,-2503,-8668
82,-46,-42,2929,-3049,-7674
90,29,-61,1671,2311,-4062
-110,-12,67,-370,-755,-3502
6,111,65,912,1100,1481
-29,-8,40,-1418,-1925,-928
37,-75,-72,-3154,567,884
46,-44,101,-5339,974,3276
84,-110,-34,-129,-405,3492
-102,4,49,-4235,575,4591
-97,77,75,1114,-3900,4956
-28,-127,66,1403,21,3354
-69,61,24,-1591,183,3016
-32,65,125,-2026,240,3327
-42,-62,-70,-1884,-167,2517
-48,-85,10,-2441,-265,1720
-69,106,-9,-1214,252,696
-92,30,-52,-1539,488,366
-124,-67,-59,-58,-1176,959
-122,-59,-9,-1030,1494,-555
-93,115,-67,587,22,-254
-57,117,-20,-134,187,-347
77,74,-16,10072,1114,-7160
-49,99,-53,1352,410,-9268
107,90,-96,1733,705,-6935
-47,114,8,-1110,2168,-5285
-50,84,-24,-3184,2815,-2895
-42,-112,121,-291,2726,78
113,50,118,-3779,5474,3800
74,80,61,-11587,-5891,11148
-118,64,-79,5716,-10377,9165
-1,-80,40,3173,-3463,-11089
-66,0,-50,2291,1112,-10499
-117,105,-86,-1240,7913,-5919
44,-47,-61,4963,3252,1047
10,-125,105,-9762,3808,1898
-36,-33,44,-13325,-923,6662
40,16,-32,-4399,-7557,11682
86,38,94,4992,-5138,567
-105,-25,-50,4081,-6402,-12762
-106,-62,-81,757,-1408,-11267
-8,22,-116,4859,495,-5592
-29,85,80,4130,-2613,-807
37,-12,126,-4289,1240,-979
-88,-12,-72,-4079,1129,-728
42,22,36,-876,-1277,2949
-106,18,-126,-2305,782,4373
20,98,-119,-4690,248,4378
-37,83,107,-2861,154,6134
-104,-37,24,-3189,-2553,4332
48,92,-100,-3352,-2392,3007
103,-34,31,-2379,-1294,3170
-76,82,87,-3090,-791,2852
-24,-118,86,-1174,-1051,2813
-14,22,-58,1153,-355,-573
-77,74,91,1831,547,-1971
-89,60,-8,1893,-824,-167
-117,-12,-93,-512,27,503
-63,25,-88,-286,413,-434
-26,-34,-116,744,-264,-133
-44,-49,-114,100,234,-348
-62,-13,-90,-572,-107,-256
74,-8,95,14289,6976,-12677
102,100,-19,-562,13484,-2202
105,13,-68,1091,-9954,2031
97,-12,28,-802,15749,-1852
62,-91,2,7765,1846,3703
20,-107,-65,1825,6508,3875
5,-51,-116,3283,-5473,3321
-91,12,-11,-7710,-4451,4549
69,-128,-98,-6328,-6312,-277
36,-50,-82,-7059,-9077,-421
108,55,-55,-5627,-4495,-3570
108,53,-107,-2364,-199,-4675
-108,36,12,-2540,-1042,866
114,15,99,-2502,4383,3665
-23,68,-19,410,2560,4792
-122,-14,51,-275,1599,5405
-103,13,-66,305,1544,5167
103,-34,-84,8,900,4487
-106,104,-121,1600,-264,3103
29,-75,-33,-2084,1098,2885
-78,-15,63,1375,1723,1458
-86,-1,-122,911,130,566
-73,105,122,1643,-1425,-485
-63,-2,-14,759,557,-691
-60,-112,-49,-122,12,-820
-67,78,-90,-329,-237,-597
-71,101,-110,-428,171,-1270
-55,29,126,-244,533,-898
-49,-5,85,612,-556,-190
-51,30,107,-190,190,-26
-55,65,81,132,-6,-106
-47,94,88,-207,-42,247
-37,-116,83,-365,247,101
-34,-85,85,146,-139,77
-34,-71,92,-147,282,-1
-32,-65,81,193,-172,-9
-32,-71,90,26,63,-15
-30,-72,94,102,148,-191
-31,-88,88,334,20,-18
-31,-82,95,55,277,15
-46,-104,-97,-9400,-2537,994
27,108,97,-2277,1127,-9764
-35,-111,-119,32529,-5954,-14009
63,-113,-22,-2555,-3989,11201
107,-62,-87,-8970,4497,426
-94,121,95,10754,4414,252
64,31,37,9691,4125,772
22,127,43,-2639,8776,2445
-69,42,63,4099,57,3292
-47,29,-86,-507,-5035,5130
92,20,104,-6265,-467,574
124,-85,-42,-4683,-7952,1057
83,48,-37,-8205,-5461,-1669
40,58,-119,-4898,-6679,-3646
1,-20,32,-1874,-3268,-3635
-39,-45,38,-5691,329,-2739
99,-11,-127,-1749,862,287
-9,7,-109,-1282,3675,2949
-10,31,-61,-599,3484,3368
-74,100,53,-3577,6354,4230
-66,-95,-116,-713,-561,5153
22,102,87,-129,2001,4898
64,-39,49,-3,34,3884
0,47,81,829,110,3559
-93,-101,52,-3439,885,3605
42,-82,105,1798,1771,2228
-116,-84,-127,3248,-1992,2417
55,15,-92,173,-691,756
-19,-50,-85,-178,2,-493
-107,26,-66,1304,-613,-1028
-102,-60,-72,-14,-277,-1173
-87,98,-104,170,-468,-1044
-56,104,-101,-634,-281,-1210
-59,56,114,-419,-124,-1189
-69,34,112,33,-506,-895
-66,21,113,60,-193,-747
-79,37,91,-289,-151,-350
-89,62,89,-324,-50,18
-85,101,80,-271,14,140
-79,-94,81,-402,116,254
88,-2,101,7630,3253,-6374
26,-104,83,8081,3724,-5127
39,29,16,48,7982,-1339
-113,89,27,398,-2410,9642
28,-80,-8,-10949,-6458,-958
-37,2,78,7136,5450,-4606
-121,-110,-4,9399,-8290,316
-56,108,-52,-4413,13485,3571
-56,-2,-69,4532,-4934,6813
-82,27,-91,1500,-4663,3746
48,52,43,-8267,981,-1182
-119,95,57,-4174,-9738,-1473
45,47,93,-7316,-3626,-4638
-4,-81,19,-5045,-2877,-5075
6,-122,-85,-2957,1081,-5357
-52,27,92,-320,-1834,-2299
70,-1,-90,-1467,1608,3056
-5,8,34,448,1556,3788
-28,-53,88,-598,2745,3952
-18,-45,101,-895,2738,4325
87,-24,-53,-83,-985,4537
106,67,-107,-95,2539,3773
20,-103,113,1506,407,2854
8,-66,14,-590,988,3579
-80,9,5,139,1330,2377
-88,-50,78,889,516,2257
81,-128,60,1841,-943,2201
-6,-5,-119,-219,-333,743
-44,-79,-79,558,-400,-631
-91,-44,-65,2113,-524,-744
-108,-58,-101,232,48,-733
-111,125,120,538,-1324,-751
-40,-120,-55,-1394,164,-1345
-69,-6,-111,-171,484,-811
-106,-5,-112,454,-726,-177
-98,12,-103,-420,240,-1
-90,43,-123,-521,164,232
-84,86,97,-514,227,501
-76,-123,100,-396,103,648
-56,-77,89,519,186,276
5,16,-58,5807,-999,-7862
-101,-103,-37,12008,2623,-8540
16,80,-31,505,6478,-2658
-82,37,-59,-5325,8374,2177
-68,25,-78,2624,2312,9715
43,26,59,-852,1516,5128
-26,105,61,-1084,431,3979
-4,-7,-35,-1337,-3518,-780
115,68,100,-7901,-10453,-2243
60,-82,51,-9250,-4961,-4100
-60,-8,113,-6063,-1482,-4887
-71,124,94,-3297,-2964,-4484
-128,-79,-92,-1528,694,-3956
5,30,-81,-1676,-194,354
-15,123,112,201,3205,2748
8,-29,-88,-354,1073,4333
-86,-40,-101,-794,4768,4347
38,-96,-124,-544,-237,5791
-29,77,95,760,1338,4620
119,3,98,1134,-241,4002
-64,108,-114,1723,132,2966
53,-80,42,-1047,2517,1219
94,-60,83,1877,-343,421
-48,-50,-121,962,-717,-35
-64,77,-104,-114,192,-353
-58,18,-92,-623,515,-586
-93,-70,-111,918,-823,-310
-64,-70,-107,-183,58,-512
-71,110,107,-157,11,-404
-59,123,103,-316,-70,-188
-54,93,86,195,-157,187
-64,-111,96,-155,76,-148
-57,-98,82,-163,188,109
-48,-88,83,245,-38,203
-56,-72,88,250,121,93
-51,-59,89,-12,178,180
-50,-65,72,218,-97,182
-24,-31,84,-271,412,-12
-49,-77,73,581,-111,176
-43,-52,88,-37,89,71
-22,116,37,5363,2626,-4329
7,-124,126,9187,4320,-2562
-33,-99,-98,-1583,5217,1136
-53,93,71,267,-7263,7325
-29,72,-10,-8412,-4473,-5416
99,-68,-100,-3075,19382,-1340
26,56,-125,3308,-1200,3615
-8,97,56,294,6319,4941
27,-81,53,2671,-2753,6158
73,-126,-86,-5039,-1702,-744
13,117,-3,-4873,-3714,-4650
-92,-40,-2,-4808,-6015,-5273
44,-112,16,-5290,-5912,-7161
54,-122,-47,-1728,-4264,-6571
104,6,-19,-4087,2905,-3476
68,-35,-37,-568,-1047,1219
-29,112,94,-303,725,4510
123,64,-28,940,2123,4172
-11,3,55,-340,2071,4672
82,122,117,410,106,5298
16,120,-55,987,1281,3607
-128,102,51,-152,1969,3336
-65,12,80,999,503,1852
108,28,-75,552,305,1491
-40,93,-103,971,-551,1734
-40,126,12,212,116,1350
-52,-30,-87,-1733,758,1181
-10,51,47,1644,-73,162
-26,33,-71,2242,1,103
-90,-34,72,987,8,-701
-91,-86,79,-392,37,-538
-111,94,107,-130,-334,-418
-82,78,-107,21,-373,-334
-74,53,-90,-100,-111,-354
-78,41,-82,-171,-20,-176
-81,51,-96,-17,30,-115
-84,70,-107,40,326,218
-69,82,115,538,126,332
-56,115,97,365,123,305
-68,-116,87,122,182,330
-16,68,68,8906,-1956,-6709
-112,-14,-38,5079,3996,-6481
-30,-22,126,524,9130,5843
-31,77,-26,-12042,-8739,718
-36,82,-53,428,10220,-866
77,6,-44,12161,-11704,-280
107,45,-77,-1873,13402,4968
-48,57,20,5144,-704,2868
-29,55,-1,3546,-8453,2995
10,22,57,-9188,3555,-671
72,86,48,-4409,-9614,-2227
-116,-39,91,-7515,-4422,-5169
-22,116,-71,-6026,-4831,-3702
-43,-60,103,-1810,-2866,-4753
72,40,17,-2741,1656,-2010
-117,-41,-39,-2025,491,2177
121,-81,90,-413,3583,3562
-72,-120,122,433,1063,4082
-43,-113,56,-1246,2684,4778
124,115,-94,-553,893,4277
-94,-53,29,1371,512,3636
-67,42,-126,-785,1287,3475
49,-76,-114,423,599,2490
-33,80,12,275,1545,2084
-61,-128,66,1937,299,1656
37,37,-102,1994,232,452
-19,-127,107,1292,409,160
-63,52,111,659,229,-113
10,-18,-106,368,-115,-24
-38,-73,-90,-30,-866,-318
-36,-104,-42,-709,226,-806
-71,74,-40,523,-11,-515
-62,49,-72,586,-261,30
-44,98,-91,-942,211,-81
-30,89,-112,-11,-111,213
-44,-97,127,-323,41,102
-41,-84,108,-47,-160,-168
-25,-108,122,-150,44,-7
-42,-99,113,-390,-119,-104
-48,-107,112,35,-78,-1
-58,53,-115,7249,-1073,-8753
108,-32,113,4399,6342,-5362
-10,112,-106,-152,7202,5291
-7,-9,37,7241,-18496,9047
80,-4,91,-8516,3136,-5341
-28,84,77,1814,157,-2771
-47,-59,-13,7991,-2837,-135
-37,-62,114,-954,6866,4712
82,28,-109,2523,801,5732
-68,-30,83,6814,-2819,5904
-13,78,14,-5045,-1966,3070
-74,119,82,-6176,-5908,-3679
92,75,93,-7520,-6242,-5351
41,-86,-103,-3467,-5538,-6734
40,23,-21,-5589,1724,-5140
21,73,35,593,-2974,-1258
53,30,119,-551,2197,2875
79,-39,57,-895,302,3907
-12,-51,24,-379,1069,4260
8,34,113,-1258,1473,4238
81,-23,116,-1234,583,3959
-61,89,38,-597,1258,3247
34,-13,-26,1303,-1021,3020
-9,-53,97,-99,458,2419
103,77,62,498,626,1403
73,-21,98,1099,-156,1293
-2,83,117,961,522,1281
-47,58,114,558,-158,1075
-37,81,-93,177,-435,590
-61,67,-57,-191,144,-539
-67,-15,-79,382,-342,-555
-63,-83,-86,5,39,-898
-63,123,-108,-24,193,-691
-47,100,118,-38,178,-567
-44,57,116,329,-3,-326
-50,67,118,-123,239,5
-60,69,111,182,-79,247
-46,120,116,8,193,271
-39,-91,113,67,-12,384
-25,-48,118,70,334,82
87,-89,-68,4920,-823,-5713
90,-60,-99,6127,4868,-6049
83,44,-103,1962,5096,3523
-64,-64,4,-2182,791,10024
15,-99,-99,-256,-9972,-4944
-16,100,-91,-785,-265,-4381
89,-59,96,-3433,12432,1806
0,25,-29,2755,5050,3653
49,-62,-41,407,4492,5476
86,28,-50,2433,-609,4996
-52,-116,62,-1250,-867,3211
-20,97,-112,-4798,-4171,-271
67,-7,-69,-5157,-8616,-1887
44,-45,-47,-5496,-7210,-5893
55,55,16,-4270,-7148,-3132
53,122,50,-6604,401,-3057
-70,-25,-112,-1162,-870,-1524
-21,-64,-90,-486,2799,1806
8,13,-32,-264,1585,3298
-63,15,73,-2573,3643,3597
110,100,105,-1984,2295,4425
117,91,56,-1406,703,4746
-35,16,-73,-497,1074,3567
-124,-112,32,853,1469,3871
-114,-17,107,-288,1119,2762
-19,52,102,1468,-489,1910
113,-68,-95,718,384,1521
20,43,115,737,959,1330
-33,104,122,-75,-302,1092
-7,57,-58,673,-95,268
-39,-16,-69,1172,-529,-313
-78,-81,-31,-716,34,-306
-84,57,-35,442,182,-311
-70,65,-47,-49,39,-164
-86,76,-65,-185,-71,-290
-60,86,-64,-21,453,-477
-42,102,-92,-493,20,-28
-33,120,-100,438,-5,-194
-61,82,-89,-115,137,-12
-39,120,-98,-154,61,-170
-103,-24,118,5126,1498,-4734
-44,-109,74,10581,44,-7226
100,59,126,3130,8939,1006
121,-48,82,-540,-3288,6720
29,-84,61,-5039,-3059,-605
66,-65,-85,-981,-2775,-4740
79,-70,-26,-2147,11250,-2323
-100,-19,-33,1346,3907,2319
18,-2,89,1755,4581,4683
80,-52,60,4209,-1117,6368
46,-25,-99,754,-943,3263
4,0,48,-6819,-2566,-473
121,105,67,-3953,-10198,-4057
47,-41,120,-6413,-7117,-6609
33,-108,20,-4281,-5816,-5261
32,-100,-48,-9295,10314,-2349
-69,-86,-43,438,-3007,396
-92,33,112,-480,3464,3249
6,4,33,198,527,4408
-119,121,-119,-1028,2104,4169
-100,-91,37,-2024,1892,4969
-66,58,54,66,615,3284
86,-128,-126,1500,1012,3859
49,-76,109,766,406,3021
-98,112,99,506,408,1806
112,-118,-13,242,1065,2377
83,-123,35,1395,647,2000
-22,-86,77,1418,-809,1119
-51,-109,-120,818,-218,-70
-91,50,-121,1202,-634,-649
-78,-40,-52,300,-301,-1387
-91,89,-50,-41,183,-1094
-66,51,-83,-307,-13,-837
-29,8,-121,-110,183,-998
-25,-11,121,-152,500,-695
-56,-39,82,134,111,-225
-30,-27,79,324,6,127
-49,39,86,-372,221,188
-15,85,-116,220,469,248
-40,110,-110,405,332,407
-26,-91,83,7267,1082,-6452
-94,-49,-53,11172,4955,-3497
-17,7,-82,-768,-2470,6814
-6,-81,37,-3033,-11045,-1486
-80,-21,-19,14,1318,-5341
32,-114,53,13077,-7465,-1097
-89,-57,63,-4899,14268,2913
64,67,-95,814,7001,3328
-63,-114,60,9074,-10941,6784
63,77,84,-7445,2270,1209
108,115,70,-1906,-13083,-1629
-89,122,-95,-8805,-7087,-3218
54,110,113,-3366,-8809,-4156
-8,-116,-91,-4440,-2808,-3884
-15,16,112,-6065,6526,-1248
50,-72,21,102,-2171,1995
99,111,111,-306,4391,3230
100,-82,-77,1056,295,4237
-24,11,-120,-1070,2225,5356
80,-30,124,-501,1644,4433
-114,1,20,1510,2298,3389
-123,90,26,1325,654,3110
-38,-103,106,312,252,2770
125,74,-65,-455,1510,2186
82,-17,-64,1197,-289,1702
15,61,75,-18,14,711
-27,-86,124,541,1030,-8
-60,90,122,1547,170,-549
-48,50,-119,56,-174,-773
-39,-78,-123,-145,139,-1368
-37,-119,-69,-584,-51,-886
-70,6,-77,715,-363,-346
-66,28,-69,319,-234,106
-38,107,-87,-623,315,-279
-33,110,-102,-454,244,60
-52,102,-111,733,-5,383
-23,-60,-126,23,315,208
-26,-54,99,-189,67,197
-24,-36,105,-19,66,122
-19,-15,83,-219,15,-206
-34,97,117,9416,3409,-4754
-119,-85,-70,4841,7646,-2143
-32,19,-24,-1911,-5291,11198
65,-103,-86,-9496,-5252,471
-124,4,27,1990,22,-5475
-125,-104,-90,4210,2626,-6288
-122,-40,70,2011,7176,-230
-43,-47,61,-3500,6103,5174
-121,-74,-63,1053,-696,7036
107,21,-63,3704,-435,6235
-79,-43,108,-4300,-4934,300
-97,-108,-100,-6906,-6733,-5397
11,95,-58,-4754,-10360,-3520
-5,24,-11,-3999,-7639,-4544
15,-115,105,-4130,33,-2194
-122,79,83,-556,-2358,-631
-101,-73,-67,-2223,3947,1932
-39,-30,-73,-1055,1728,3294
49,-90,121,-1873,2868,3414
77,7,49,-444,1098,3764
-65,119,124,-358,343,4683
103,23,-106,-505,1812,2984
22,-44,-68,958,348,3707
-61,-65,-67,1947,262,1812
-114,82,-14,-954,777,2716
42,-76,-2,1608,980,1735
77,113,18,2229,-444,1380
-59,4,60,736,51,1267
-51,20,112,-518,1075,1312
-42,67,119,472,204,595
-33,-106,123,629,-892,-262
-54,-7,-127,819,346,-1008
-111,68,-110,264,-242,-688
-92,27,-65,347,-486,-419
-79,17,-77,-404,166,-527
-73,5,-98,164,-149,-166
-69,15,-109,-68,315,-103
-69,49,123,226,-22,206
-58,126,101,-377,108,89
-51,-108,90,-54,36,150
119,10,60,3870,-4182,-6487
-46,-57,9,8670,-3118,-8244
-81,-124,-89,-793,7746,-1547
48,-49,-56,-6444,4775,8880
-60,-10,93,312,-13739,1815
-14,103,-108,1246,112,-7133
-21,-87,-89,12731,-3542,-1840
-27,-34,-110,-4421,10366,1311
69,-114,56,5038,2794,3366
-65,96,-105,3202,3079,3750
10,33,-63,-1598,2615,2741
69,21,87,-2308,-1435,976
-28,-21,103,-4884,-6449,1399
65,-46,-57,-5185,-5068,-3603
-110,-70,-25,-2119,-13657,-3344
103,98,-36,-5440,-5222,-1485
70,95,-11,-3501,-3058,-1557
96,11,-57,-382,-906,295
-30,-69,-39,-301,2456,2326
-15,28,18,81,3943,2613
-13,-30,-80,-486,3737,3695
-17,-60,121,-953,1881,3920
-16,36,67,975,1463,4073
23,113,107,-11,3447,2906
-64,-99,-85,905,1922,2555
-25,-8,73,95,1166,2595
102,63,125,1812,1023,1670
63,70,-21,161,1061,1744
-2,23,29,310,951,1134
-13,74,71,-155,1380,644
-55,7,102,1019,249,170
-53,-3,-103,1024,-1041,-302
-71,-101,-103,-59,-303,-1101
-69,101,-69,-33,-142,-1019
-74,37,-68,258,-603,-891
-42,33,-70,-342,-50,-687
-31,-11,-78,-86,-91,-485
-55,-1,-75,-122,-198,-158
-55,-7,-82,68,122,19
-51,56,-109,-124,73,259
-76,-50,52,3836,-3564,-5423
68,65,-76,5400,1350,-5355
6,-86,-44,5281,1611,-2007
50,-65,47,-572,5685,3041
17,-92,101,-1427,-6224,7642
64,-17,80,-5930,-6296,-964
40,-26,77,662,-3083,-6690
4,-13,-99,3827,2857,-3253
55,115,-12,-2439,8220,2134
-9,85,-89,2846,2259,3906
-20,8,-111,5035,2608,4535
93,37,-51,-828,-2216,3324
-80,88,88,-4907,-1619,620
-85,22,70,-4868,-12014,-891
-50,-34,-106,-7048,-6533,-2209
120,-59,-65,-4983,-8816,-4628
120,-53,-98,-6773,2307,-2961
8,-115,120,-1796,-1530,-1383
-48,-17,30,367,2221,1517
69,37,16,-295,1582,3720
-76,76,-97,-952,3288,3466
45,-18,61,-822,1856,4272
-33,-5,-41,354,66,4288
106,-2,-126,421,2293,3442
108,-63,85,1969,219,4082
-105,85,108,183,1358,2691
-65,84,103,1842,355,1620
116,3,-15,876,457,1540
32,-88,-2,174,1062,1625
10,-104,14,1060,528,1177
34,-58,69,667,100,-116
-13,49,90,1108,-77,-688
-44,-39,121,434,-289,-800
-51,-95,-89,-588,-147,-691
-39,71,-81,-229,231,-434
-42,64,-79,591,-152,-250
-40,76,-95,99,-62,-341
-37,44,-127,-64,220,190
-36,101,106,-35,-18,239
-27,-45,59,-604,-84,163
-57,113,-118,6275,1874,-4026
121,-18,-61,5788,4546,-1992
-46,-24,103,-2020,7391,5161
-42,19,79,2395,-12068,8486
-127,83,56,-7979,-2064,3007
-122,-1,-87,-2804,-4453,-4100
-75,114,-3,2982,2142,-7036
-72,-1,0,1108,3398,-1426
112,-28,-76,1068,6314,3196
-98,123,-83,2175,3470,5349
-73,109,38,5096,-1850,5491
-68,-60,4,-4617,-392,2473
-26,-112,81,-5382,-9107,-1579
71,26,-110,-4551,-8480,-3237
-42,-35,-32,-5371,-9911,-2503
-87,59,90,-6553,-2765,-2389
103,27,126,-2977,1763,-2407
66,-114,-125,-293,455,703
-32,-127,-79,842,1714,2996
126,44,-79,-404,3604,3687
-118,-38,-102,-425,2195,3983
21,106,-100,-800,2208,4381
83,-30,-124,366,1794,3581
115,-66,18,-456,2912,4425
87,123,74,133,1488,2936
43,10,73,2176,731,2381
-93,-26,-106,968,-252,2393
83,-15,13,-545,541,1260
12,-69,59,627,876,403
-14,108,-112,1310,569,-350
-30,58,-100,1631,-1483,-438
-49,-22,-105,560,-572,-1021
-49,-79,-112,-529,345,-1342
-25,122,-107,159,-713,-1166
-13,78,-95,-127,-367,-1276
-9,22,-74,15,65,-897
-35,-12,-80,399,-176,-473
-40,-14,-88,-125,240,112
-41,19,119,486,-103,654
-28,119,-128,-31,157,383
-7,77,-7,837,-4899,-4772
-71,78,89,2058,-1544,-3703
-67,-20,5,5926,-1133,-5109
16,27,8,1585,5637,-677
-112,5,-102,-5731,4667,6012
123,-42,-46,-732,-10031,7514
65,55,43,-3778,-3174,-2189
-10,-53,-8,1549,-715,-6227
-78,107,-116,6590,-2209,-3025
-22,16,12,1687,7065,-1248
23,27,-85,-487,8898,2951
-21,14,36,4969,-2635,6339
-3,-100,38,-3238,438,3994
112,113,45,-8564,-5825,-560
68,-110,116,-5900,-7561,-2146
-76,-27,-109,-4112,-8437,-3749
-118,38,89,-2778,-3825,-3430
37,59,-102,-2573,-3460,-413
-25,-75,-74,-1084,1623,97
46,48,-5,800,2126,1799
36,-69,-126,-343,2321,2640
-102,44,44,-2679,5413,3799
-48,33,-85,-149,792,4466
40,-121,38,-226,2742,4026
-73,-25,3,-1033,2549,2896
-103,122,-124,-84,1613,3454
100,-68,-46,-360,894,2653
5,-55,-18,2184,887,2678
-49,-94,-23,1805,-914,2204
117,-66,41,-299,410,1449
71,-105,48,1288,264,150
31,100,105,1718,-752,-329
-5,-59,-50,-46,694,-388
-76,-88,-117,-387,67,-467
-41,94,-102,1157,-937,-604
-12,83,-77,914,-546,-931
3,60,-24,-624,247,-565
-70,-36,-64,-77,344,-185
-54,-9,-74,112,-53,168
-44,44,-87,-143,404,235
-49,-110,-66,5184,-8153,-4947
7,-109,-56,2254,2493,-7195
125,76,-123,4052,3980,-3254
10,89,115,-162,6655,3189
-125,35,124,-3139,-1220,7398
27,-116,-84,-4512,-7560,2808
96,13,-93,-1409,-3125,-5271
-92,81,117,1377,5186,-5025
33,117,-26,1175,5738,-1187
101,37,71,2901,4054,3651
-16,119,78,1954,1925,5706
118,54,22,672,-2804,3139
-41,-20,-70,-7419,-1793,128
-96,-14,-31,-4807,-8337,-3450
-65,-22,64,-7787,-2924,-7574
-103,93,-9,-4411,-5015,-6499
-99,2,-22,-5463,2266,-3584
-60,-103,-98,1256,-2389,-1165
-21,27,-86,-1614,1595,1655
44,-8,75,-1102,2986,4238
93,-57,23,1639,166,4112
-1,-34,-93,-762,3373,4300
112,-81,-128,1256,-420,3898
99,-69,37,-113,1715,3510
100,-106,-125,512,1338,3334
29,-56,100,1581,44,2156
-83,27,-41,638,203,1641
69,-24,12,581,355,1451
1,120,61,1039,524,1001
-39,66,72,703,769,581
-35,60,59,-81,596,357
-50,37,81,53,279,-59
-52,-70,127,855,-421,82
-33,-34,111,-308,-80,-910
-55,94,109,949,-31,-810
-69,73,-127,446,-522,-595
-62,52,111,-713,355,-495
-78,34,124,-56,-5,52
-67,59,-113,216,-171,68
-61,83,-122,-51,265,271
-105,-85,-3,9019,-82,-4360
99,-26,-38,5434,316,-1648
122,27,79,-2667,8710,1603
68,14,24,-2530,-11656,3799
-73,79,113,-8053,-3242,-2911
-42,107,83,2349,3884,-6306
126,52,-9,7348,-2339,-3098
123,57,-17,2731,7636,-30
-55,43,-61,2262,4485,3927
101,99,-33,3112,-84,5570
109,14,-24,-2686,-1066,3067
123,79,33,-7755,-3675,-126
-24,-115,87,-5695,-8904,-2661
-100,42,-104,-7696,-4850,-4542
107,29,28,-5631,-4352,-3777
72,-127,-36,-5019,1159,-2100
91,-42,-91,816,-2352,-321
13,38,-16,101,4491,1450
-93,61,-43,-129,1922,3317
-83,-86,-19,1147,3454,3710
-86,3,-114,-103,1199,4599
-22,-59,57,-46,954,3824
-23,-104,-76,335,3247,3269
78,-104,22,328,2740,2759
-18,112,63,2332,-859,2145
122,-61,101,1073,690,1624
68,110,-118,495,1259,1522
6,55,-66,258,86,1819
-8,62,-20,170,-554,1476
-16,69,38,405,247,305
-21,100,63,319,-328,-418
-19,60,78,-421,-118,-1451
-48,-124,96,461,299,-1760
-83,91,112,51,-142,-1265
-71,-4,124,481,-100,-760
-58,9,119,-135,279,-126
-54,38,74,-134,210,-112
-58,67,58,12,139,252
-42,121,41,-164,292,309
-32,-49,11,-219,-61,401
-12,63,-108,7761,1024,-5109
-102,28,-66,10673,3386,-2052
-47,-61,92,-1453,5541,1817
-81,68,39,-10594,-5418,9590
4,110,-69,-4751,-6638,-3895
101,-80,84,1226,158,-5897
-49,-63,-37,5662,-840,-5380
-64,-98,73,669,7852,-985
-80,-46,-83,714,6016,2336
-16,55,25,1615,5639,5366
4,-68,29,5874,-5463,4060
-102,-19,54,-9020,253,1731
87,-63,51,-2681,-11027,-1714
88,-102,-98,-6938,-7757,-2171
-120,-91,-73,-5040,-8791,-2199
90,82,-122,-6864,-1073,-1043
-86,-92,-34,-661,-2631,-1125
38,65,-65,-1092,2273,297
9,-20,13,1038,3025,2447
-91,69,9,165,2414,2500
79,32,-86,-679,3911,3058
-111,-83,5,-1203,1873,3952
75,-18,99,-692,2043,3834
-44,79,-29,-848,3362,2689
-54,26,69,1316,186,2591
-122,1,122,2081,447,1216
59,-6,-91,1871,666,1083
98,-88,2,-304,3410,351
82,119,23,11,2316,1230
83,103,91,57,-1106,2575
50,120,-75,1542,-2032,1304
18,100,-80,-519,870,98
11,47,-91,537,-558,-253
-10,-23,-74,803,-270,-505
-33,-62,-85,-23,-127,-745
-33,-127,-73,-501,226,-638
-20,48,-78,1403,-212,-65
-12,61,-88,671,249,-113
-5,-121,112,-1410,417,-138
-12,-98,71,-429,-501,242
67,48,-29,3720,-6083,-6558
-97,-11,-21,13739,280,-6030
-101,21,103,2301,5040,-2118
-13,-72,-32,-4744,5325,4234
-37,-34,-99,-5225,-6240,8210
33,119,109,-5805,-4939,-1764
75,85,71,3561,-2123,-7219
30,-128,-104,7379,-1864,-3658
97,-122,84,-1439,8169,281
105,68,-22,1185,6742,2168
-101,20,58,1720,4610,3417
94,-117,3,-490,-496,3965
77,-67,24,-6260,-1944,1762
-116,111,34,-4646,-10464,-2179
112,113,-114,-8070,-8704,-2818
-122,37,-59,-4013,-7892,-3761
124,-79,76,-4466,-619,-1546
43,-89,-38,-285,-1262,456
-12,44,68,-835,3537,939
26,14,126,1078,3696,2521
100,-64,43,567,1726,3205
3,-54,-31,-2198,5188,3837
-91,23,11,-1417,2340,3468
-58,-32,-119,690,2344,2986
-6,-66,27,454,1746,2856
-74,112,39,1958,-104,2105
-78,-2,110,930,574,2159
100,-104,-81,837,1132,2028
101,-110,-22,148,745,1663
41,-87,30,105,501,796
33,90,96,970,456,204
1,98,120,1914,-237,-921
13,-39,-85,457,181,-1036
-47,-114,-104,-419,-833,-468
-30,76,-71,13,-651,-642
-6,74,-59,-608,395,-876
-31,32,-114,189,-160,-255
-34,68,-98,-254,-67,111
-27,111,-105,-301,431,33
-7,-95,96,-117,4,212
68,35,81,4796,-3328,-4463
-42,61,-107,6176,-3454,-5017
116,-43,18,3140,3501,-3318
57,-80,60,-2605,10571,2477
-94,53,-99,457,-7838,10492
-123,-32,5,-8135,-4412,-3629
119,72,-127,955,2417,-5621
-26,-73,10,10311,-8224,-2745
17,-36,-11,-534,8818,-78
101,-98,-20,-50,7326,2978
-24,61,-26,1437,4457,3429
37,65,52,1458,-1964,4621
116,-95,-8,-5660,-138,1011
-45,95,-20,-3303,-8379,-1204
-26,-61,69,-6010,-4920,-2573
-36,89,57,-6084,-4430,-5925
-81,55,117,-2440,-7990,-4778
-73,-7,-71,-4868,3560,-3412
-74,-78,91,25,-1003,121
-111,48,-98,-2774,5961,3769
102,-105,-73,1160,1137,5071
95,-128,-79,-24,1743,5186
44,-110,-26,-594,754,4794
-9,74,16,139,2127,4325
9,-43,-19,1312,1806,2372
-60,19,-74,1166,-813,2089
51,78,-15,1155,1388,1554
32,-87,-7,657,1077,1156
6,-99,6,460,106,811
-21,119,28,-54,-206,231
-33,20,101,534,-16,-714
-49,-28,-119,122,-27,-1034
-72,78,-91,360,-85,-608
-70,68,-102,-51,-411,-199
-39,53,-112,-5,158,-246
-59,45,111,98,-99,-243
-70,57,-127,56,17,337
-52,-103,99,-399,49,279
-28,-55,80,-378,-40,159
-20,-20,56,-232,186,-87
43,91,-36,5595,483,-4099
84,0,-118,12967,-4677,-3762
37,-79,63,1430,7823,-2378
36,31,-122,-2936,1943,10040
-97,125,-90,-7405,-6390,-2035
-64,101,-34,647,-3065,-5292
68,43,-6,5223,-1099,-2422
-66,-34,46,-894,6761,-589
103,-121,122,3270,4305,2378
-91,112,-49,1204,5571,4291
-11,100,25,1102,-3650,4770
-5,-21,16,-6411,-796,1024
19,-53,-1,-4699,-7999,-4220
52,-33,107,-7901,-6737,-2725
-51,37,71,-5732,-3745,-5916
-84,-127,78,-3989,-2642,-3597
74,-101,-85,-1770,-863,-1375
-26,39,-61,0,3406,2806
-58,5,-35,807,1617,4201
7,21,-56,2122,1730,3206
-21,72,32,510,1113,4208
42,-74,-71,-399,3354,3376
82,-3,-96,-784,1728,3304
23,-120,49,869,886,2598
-43,-87,106,441,956,2058
-123,15,-64,-18,575,1632
91,-102,21,-25,1625,1251
43,-94,84,-660,645,1248
-1,126,110,184,-240,793
0,83,124,1137,-363,541
-4,16,87,1456,-128,-183
-56,-22,107,279,-102,-480
-70,-94,-119,-196,-300,-662
-60,112,-107,94,109,-522
-45,93,-101,56,37,-315
-48,74,126,-413,147,-241
-49,57,126,464,-150,-70
-46,95,-126,-156,208,39
-32,116,112,119,74,168
-33,-105,94,38,42,96
-36,-3,-127,3673,-2087,-6564
-99,-108,-84,7939,-1935,-6408
21,113,-31,464,5771,-1557
-52,70,62,-3614,6235,8969
-67,88,-27,-4050,-14157,4314
-78,-84,49,1750,-2047,-8918
14,-24,-66,9518,1552,-4648
-34,-76,-18,-829,11300,273
121,-119,68,6187,4301,2230
92,58,-51,3134,-1231,9981
112,117,-24,-12156,1733,3641
-56,-93,-109,-983,-17357,-5658
-31,43,104,-10451,-7046,-3309
113,126,-121,-4728,-5776,-5590
120,-78,59,-2514,-580,-1000
29,-58,-106,112,-1668,117
-41,81,2,751,2522,4627
14,119,-35,140,4725,3686
17,117,27,1085,2564,4234
73,-87,-105,862,2042,4716
74,-104,-63,73,1734,4619
-109,54,57,-437,2424,4012
-100,-22,54,234,1479,3121
51,6,127,896,-417,2519
-48,57,-20,1484,-396,1616
95,-15,70,493,1002,1023
37,-36,49,1587,-560,237
-33,-127,84,1195,-543,-253
-57,-15,73,1131,47,-737
-75,-86,86,466,-196,-786
-91,97,99,374,-312,-372
-88,111,125,-352,-211,-254
-55,99,113,-164,-8,-308
-48,92,80,282,-131,-336
-67,104,50,-165,-119,-385
-95,95,25,-592,19,-206
-69,100,30,-170,-32,36
-64,124,11,-204,-69,10
-66,-108,22,-424,31,114
-64,-103,15,-105,-40,180
36,-73,-14,3554,-457,-8221
-34,56,63,1205,-1032,-10052
124,-79,127,576,4337,-9231
93,61,107,9106,7624,3698
0,-66,-65,-8845,17072,9348
-45,-68,-98,-1297,-10118,10845
-1,-120,74,-1240,-11338,-743
-6,-99,116,-8084,-21168,-10599
80,-3,64,-4048,7756,-5163
-112,-8,-67,8542,6799,-564
124,68,-50,-5415,23699,7526
121,-122,38,6294,-7656,6325
-106,-124,-42,-3140,-7484,938
109,96,99,655,-8085,-2349
59,1,90,-1122,-9995,-8615
80,-51,-53,-2864,-340,-9472
55,27,-47,1959,-1572,1698
122,86,-50,-5453,-8003,3842
12,-16,-110,-6860,7870,-4982
-102,-120,8,1604,-2449,-2623
-119,92,-9,2538,-2177,-8
66,-25,82,-279,1205,810
77,0,13,-3000,-796,4079
-119,-100,12,-2172,-1199,9157
81,-27,126,-1100,-232,9629
4,82,51,-1289,-83,8791
-124,86,-69,480,-1598,2400
-120,83,-16,-2155,-116,114
77,-34,-12,-1758,1034,1925
47,-110,59,-286,44,-749
-98,-66,-9,-574,-444,-727
-90,88,-11,319,491,-434
-116,69,-104,643,-476,147
-97,-123,-66,-607,78,169
-114,64,-86,1300,-833,427
-83,-124,-59,-309,-422,47
-92,74,-71,235,-264,356
-95,87,-84,529,-582,31
-90,36,-87,1355,-763,381
-95,64,-82,924,-647,194
-31,-104,-37,8342,5270,-11401
77,-81,-61,6032,120,-7142
-14,89,121,8310,11272,-1
-35,12,35,3032,11733,2642
-34,62,-55,-8397,9580,10552
-58,-126,78,-3348,-22099,1125
127,81,-97,-8984,-12613,-10657
-93,79,85,2797,18116,-6380
-43,-15,119,1375,13247,-758
47,-115,-57,-2252,9515,9723
-31,24,3,-3585,2748,10845
-45,8,-109,-6991,-5653,2766
27,40,-88,2220,-7509,942
78,59,-68,-2938,-6317,-8636
-36,74,-99,1945,-8311,-7268
69,58,-10,1390,-7437,-4249
111,7,122,-1809,-10868,-1353
-40,-11,36,-7375,-8648,-1455
-10,-12,-60,-6827,-924,2755
-58,-99,81,-2888,-345,-1511
99,-58,-63,2656,-2756,1338
49,101,11,1316,-2669,2112
61,-54,-113,2356,-1039,5964
122,-45,61,4517,1655,7230
64,-118,-64,1217,4024,9535
16,-5,1,4109,-2272,10235
79,93,-57,-2018,-341,7068
-42,81,-13,-6806,-1350,5306
-25,-73,-124,4073,4240,-7555
98,-4,-11,2193,-609,-3801
-14,-31,-46,267,-175,-559
-104,31,32,-1671,1665,-903
65,23,70,146,160,309
122,-116,100,-448,-1160,1179
96,-18,66,-2792,208,117
85,-25,55,-1457,23,-28
-121,-1,-22,1838,1105,-528
122,-33,115,1784,-1426,429
105,-40,46,346,-474,351
122,-24,61,-133,271,44
-36,62,110,7573,4869,-11563
-31,-103,119,12894,-6412,-12081
76,105,-94,-4099,26093,-796
52,-68,39,11071,9967,5979
-31,29,30,-18963,-22624,3871
124,104,-21,-5438,-14641,-14740
-17,31,32,13365,18762,1005
10,-84,48,660,12715,2056
-24,-101,-68,-2931,10651,21669
83,127,-60,1499,-9608,-8003
115,80,114,-4172,-11147,-2042
-50,-87,-108,-6765,-9869,-10029
0,-63,23,-2770,-10395,-10726
-120,73,-47,-8164,-6071,-1434
-50,-125,39,460,-1429,2078
-13,4,96,-2877,-2598,1907
48,125,-43,-2083,-1148,-220
42,89,-116,-176,882,354
-82,75,2,1665,-3573,4473
79,-19,-24,2558,-2237,6960
117,116,-66,6205,1189,7777
91,25,94,-3127,4742,8460
119,-35,56,5934,-5428,4973
73,1,44,1156,191,7171
-57,-44,-18,-3249,-2718,6520
123,-42,29,11714,-6061,-2352
-127,-52,-89,-1140,2865,-5140
98,113,15,-1511,-1360,-504
-28,75,1,-5509,2943,-548
24,-126,-46,-3435,2966,-1050
92,55,-34,2231,-799,-13
72,-82,51,802,-2277,378
99,35,123,-2457,343,3
-72,20,-62,-900,2425,-545
-125,-65,48,1503,-1650,65
123,-36,68,548,-761,388
-107,6,106,158,504,302
-114,25,88,558,-645,250
-113,10,56,207,-203,84
-98,-3,49,145,144,9
-58,-48,94,6273,-2750,-3742
-53,-51,-2,1071,4354,-12533
-72,58,87,8785,-2427,-12004
17,22,-21,-3291,15598,-5309
91,-119,-96,2128,12671,2443
-76,122,-50,-14696,-10584,23067
19,-27,73,1764,-12184,-443
-23,-73,110,-9058,-4677,-10075
-76,-44,85,31,12565,-6348
12,28,25,814,12152,1954
-89,-79,92,-2003,6727,5901
68,67,99,-5999,1169,11300
-16,94,4,1231,-4153,7657
36,24,-20,331,-6787,5301
-62,69,55,-10063,3052,-5642
109,18,-69,-1239,-9288,-10302
-80,86,-23,-2738,-9718,-7542
-94,18,-33,-6283,-7740,-6790
113,119,124,-4434,-4795,-6073
80,62,-78,-5153,758,-516
76,-30,-70,-2987,-3349,2860
35,86,-102,2404,-5965,3229
1,-74,-95,-241,-806,1732
59,-79,9,-942,-529,5011
89,-96,-49,3620,-378,5283
38,-48,-70,2685,2639,7470
34,113,39,2537,-1535,5905
82,75,0,-24,47,5988
27,39,11,2995,-2537,3178
-121,-91,-50,-4040,2462,1501
48,89,101,543,-794,673
-46,-114,81,-964,-3076,-469
-24,73,-25,1966,781,-1297
-94,75,74,-997,265,-1479
80,-76,28,367,-607,-52
71,-44,85,290,-576,-154
114,-60,62,314,205,28
100,-36,33,42,-140,81
125,-10,70,-98,-329,68
-105,-2,-119,284,48,28
109,38,-91,9726,1948,-7113
-104,-26,-16,7160,-1067,-9311
-117,-59,13,10254,3590,-9216
-105,2,-115,-667,18264,-1561
88,-27,-73,1527,14058,4079
85,58,65,-1987,-13321,16992
109,-3,-104,-9415,-8738,-586
72,15,86,796,-24708,-4541
-37,8,86,-9271,12493,-6257
83,59,-71,7541,7661,1290
15,-95,-84,6247,8120,2230
-69,-76,83,-4609,4394,4300
15,-103,71,-5364,-63,15383
9,-108,-115,-1528,-8488,1550
-34,38,107,-5328,-2158,1198
33,57,-33,-2534,-5938,-9800
-42,-53,-52,-1834,-5139,-8351
7,-14,99,-1033,-5763,-6476
-28,56,123,-6096,-9118,-5971
123,38,120,-6869,-2291,-6007
9,-24,33,-402,-2519,140
11,84,71,-2593,-1591,422
80,29,91,-1292,-2329,145
-69,24,-17,2465,-2627,1495
-73,-65,-59,227,-2098,4767
36,-22,-3,991,534,5674
-65,58,-18,6047,-1813,9575
23,114,-32,404,1350,7443
-62,-70,-126,4501,-1955,5337
2,-4,110,-2329,1110,5807
29,31,6,2977,-3142,3683
27,76,-33,-3792,-1199,2376
-54,9,71,128,591,-563
-119,96,53,3515,1347,-3099
55,82,89,-718,-466,-1979
19,-109,100,-770,119,624
-14,-86,90,1370,-1103,-75
19,-59,106,1066,-1036,-341
71,-60,87,-466,694,-2
67,-71,56,-47,580,-450
-66,-1,-50,-6665,3853,364
-30,-29,94,9404,-2233,-10335
-106,52,95,10624,-1788,-16588
-98,94,-107,-5574,20449,-3517
-79,51,12,1989,9630,5384
-108,26,104,-7994,-17417,11124
61,-66,122,-1086,-15901,-7591
-119,45,-79,-774,5304,-6529
10,-115,-77,1187,15172,66
107,82,6,-1606,12938,8168
18,-52,-128,-2580,-9561,11515
18,72,-28,-1483,-5918,2857
4,121,-18,4130,-11329,-4852
-14,22,-83,-8570,-6281,-14324
41,75,-65,4739,-5266,-7229
-21,85,9,-2015,-3479,-4722
79,95,-63,-5504,-8247,-272
-87,49,74,-6157,-7174,1001
-106,-5,10,-2400,2542,-2070
89,17,-9,4704,-1710,-2466
-2,106,117,994,-2712,1218
26,110,126,-957,-1534,3988
104,-82,127,5958,-1553,8553
45,-96,-59,6264,4296,11216
-53,-81,6,-5260,2203,14557
45,68,-73,-152,-1662,4626
-29,45,-18,7052,-6779,4859
96,9,-68,-4945,1195,-3535
-20,65,-60,804,3318,-2586
85,-127,41,3624,-1684,126
-26,-9,86,-1006,-1465,-1516
24,121,82,-2805,2095,-279
16,-96,123,260,-259,890
50,-44,105,2021,-931,359
87,-50,75,773,-400,-115
81,-88,121,1216,-844,601
117,-20,-120,-60,288,520
107,-4,53,-634,953,-719
120,-115,0,-147,535,-609
97,-75,35,-259,-931,595
-65,-101,76,10117,-1679,-12024
96,7,37,2305,-2065,-11640
31,-102,124,-1257,15396,-7423
86,-57,57,4951,13353,1431
60,26,12,-14296,14695,10467
-104,-84,9,3157,-19056,14468
-57,-115,-83,-11117,-7851,-6763
122,-71,-92,-2845,-4495,-7138
-14,-45,16,-4264,10290,-8366
76,-115,-65,6236,9272,579
110,-128,98,-9109,7045,6654
-4,13,-16,1797,1765,16603
75,53,-87,-1804,-6833,1271
-46,-46,67,-5776,-13799,2897
9,69,80,-8512,57,-14047
22,84,122,1149,-191,-10922
45,-89,123,-2557,965,-7164
-108,118,-14,-4991,-6802,-5565
60,70,-73,-4647,-4224,-3676
17,-36,42,-2980,1052,17
-32,125,125,-2951,-2365,-445
102,-80,-35,3048,-4226,707
28,45,32,2467,-3573,1916
105,114,45,-92,-2574,4799
-2,-118,0,-1577,-163,5180
115,-100,73,4303,-4011,8048
-22,23,-75,2048,-1875,7612
-16,30,12,1246,-2547,4529
-110,108,-83,-1796,-1115,5375
-58,-119,116,-1216,-4244,2572
-32,-21,121,2819,-2598,-1824
-70,61,47,8931,1464,-4284
-29,-32,101,4786,-3333,-1057
-47,-84,117,-356,-1544,982
-50,-81,-124,-1841,2105,422
40,-64,102,-1277,818,254
66,-7,83,-1565,413,-138
95,7,45,-2664,1968,-968
120,-59,46,-608,1186,-1040
95,-118,41,2451,-879,-615
-78,11,-61,5322,-1730,-10197
-60,113,91,4030,422,-10291
39,-65,-125,2016,12036,-3333
67,-110,56,4237,10419,3819
29,-60,31,-7502,1494,9153
89,-117,2,5725,-12984,9509
-44,97,-76,-7665,-8672,-2930
87,-107,-51,-6726,696,-4606
25,-5,91,-2378,4540,-6901
-80,-52,-119,10600,2044,1669
-88,-112,-67,-5879,11493,2084
-92,88,-121,-2938,4797,7430
-49,88,26,-3929,-1943,10740
-32,-44,-13,3853,-7920,3770
-34,-124,15,-8465,470,1165
5,31,11,-2546,-238,-2476
43,83,-17,-10833,1805,-5483
-16,-110,-37,5727,-1314,-5311
42,-108,-99,1172,-4119,-6744
-118,9,-7,-1803,-23,-7345
30,106,-26,481,-1129,-5152
83,96,15,-3531,1292,-5416
-36,-123,-43,-1934,-1427,-4731
-59,106,1,-5791,-737,-3287
-40,120,-108,-3394,-2063,-2355
-83,-48,88,-1961,-3683,-1399
102,-89,-47,-141,-846,-1304
125,21,-107,1946,-3019,42
61,-6,91,-1422,-2622,1121
59,-21,-86,472,-2509,2512
-48,-11,-116,3121,-3607,4368
-93,-84,54,2945,-2232,4919
74,-91,-33,3155,-1550,7706
84,11,102,4259,-4756,5898
49,16,93,2870,-541,8599
-1,38,-11,5134,-8081,2918
-82,-55,60,5215,-2258,-3499
33,83,-77,1566,1911,-2367
-126,-68,124,171,-798,118
97,78,-116,-1618,1081,219
-96,27,-50,-5720,4210,-3446
-53,-76,68,2775,1656,-8081
-96,-96,10,9681,-34,-10248
-22,-105,124,-642,12479,-12285
102,23,-49,-5465,21847,7275
-49,68,-7,-16739,3997,25143
-34,70,-37,-1426,-16580,-10096
-81,-48,7,-8188,-16467,-2251
60,114,60,13632,12904,-6757
-6,99,-94,3144,11603,3276
34,-110,-3,-3230,14812,7645
103,-73,77,-2575,-6101,14046
51,56,86,-7881,3933,-1121
29,-119,122,1751,-15245,-4352
-58,-8,-91,-7201,-10384,-8474
-88,93,-82,-1541,-5255,-7316
-84,63,-113,-1582,-3064,-5326
-85,7,-69,-6112,415,-5735
81,-5,-23,-5681,-2913,1038
4,51,-41,-244,-3890,-723
-93,-123,103,-936,-2248,818
56,-118,-120,-2473,-1195,-1586
110,46,38,-2327,-178,-251
14,-8,44,1368,-2719,373
-27,91,96,-120,-1876,2732
55,19,-26,784,-3259,6558
-33,-77,-114,6030,-4751,7068
27,2,73,-1241,118,6545
-62,41,40,1417,-1939,4901
-105,-6,66,2368,-1937,3745
19,51,88,2896,-1780,4261
63,2,-5,3053,-4209,1541
-110,-25,97,-219,-2299,-399
101,16,50,2861,1488,-1180
57,56,42,2853,-2083,-852
-15,-52,-56,-827,-200,-529
-13,-121,-119,-1492,1439,-471
-25,118,100,-291,-8,-394
-10,-127,86,-381,213,-22
12,-89,83,-546,129,154
-119,73,-8,-11339,1019,-1201
-125,70,77,5983,4692,-8372
-37,-5,-31,26449,-5610,-5266
-46,74,-74,-4502,20657,-2779
-72,-96,-76,3113,15499,6771
118,-23,85,562,-27761,2664
-55,-113,62,-11465,-9231,-11353
60,101,20,-8171,-3460,-2425
124,35,-72,3150,16979,-3915
33,4,97,17349,38,3578
-86,-71,-121,-7016,18568,1708
87,-21,-5,-11633,-1851,14983
-97,53,-85,4049,-4657,6197
-11,63,87,-4362,-6241,143
35,68,-122,-4527,-5385,-6578
-105,67,1,-3588,-3381,-11491
-60,14,80,991,-4787,-6037
-66,-7,92,-488,-5529,-8964
-53,61,56,-2167,-4044,-5840
-33,48,48,-2843,-7157,-3974
-119,-86,3,-2607,-1972,408
-116,43,29,-1085,-4024,-337
99,-85,31,-889,-3011,324
29,90,101,2275,-3180,4847
83,39,87,2025,-1813,5525
63,-83,98,4946,-1795,8969
73,29,-121,1890,1576,9611
-4,-65,-102,4495,-2388,8087
55,-105,40,1313,-1557,6865
37,87,-66,1253,-5431,2531
-83,-19,22,-5022,-2514,2120
79,-63,-75,6277,5336,-3631
26,94,68,4680,-3169,-4586
-78,-114,-117,84,-2118,2209
-25,-63,-84,-1306,1787,342
-23,-86,89,1030,-815,-150
33,-113,71,551,61,-93
62,-44,47,-1931,1256,-15
66,-13,65,-2063,97,-386
61,-46,80,-232,-332,-289
0,-94,95,5585,2441,-7135
1,57,-42,8153,-2950,-10814
-95,-2,106,-2204,9417,-8780
-8,21,-59,-3549,15817,2373
-29,33,-24,-4928,4372,12555
111,-32,43,-5630,-16636,6189
-115,-38,-119,-170,-12052,-705
70,44,84,-8519,2149,-8500
-112,44,-6,6969,996,-8843
-106,-77,-62,-1792,11008,-4403
-2,-69,112,-923,11108,3236
45,-44,-66,-4015,2292,8199
74,50,99,-1941,-797,12864
66,-83,74,-500,-5952,3228
14,55,-124,-6797,1439,-4552
-94,116,-77,-1607,-6968,-10230
-116,-91,63,-1260,-1544,-11270
-22,49,-82,1100,-4523,-6983
-115,70,19,-5823,-1222,-7021
85,114,-49,-3042,-1921,-1130
-8,-59,44,-1904,-1521,-6
-32,-103,24,-1303,-3127,226
-111,114,122,-1603,-1553,-1191
-119,61,-103,-694,-517,-1628
-125,-121,17,1750,-4266,2071
-32,60,58,1488,-2943,2564
71,27,-105,3083,-2509,5319
120,29,-23,3683,-360,7115
102,-49,-93,4249,-2021,7545
-5,-31,1,-1549,1853,5671
86,-23,-114,2122,-3651,5494
-51,6,30,-1612,-147,4191
-97,73,74,881,-1280,249
-94,-100,-34,5644,-3111,-2631
104,108,77,-399,208,-2592
6,-50,63,-2608,1327,-1050
0,-88,73,-1284,-193,-1185
33,127,47,-389,1432,405
10,-55,2,564,-174,10
38,-44,31,388,-671,-175
37,73,-43,-6783,6245,-3360
88,101,95,13554,-831,-10398
-30,85,97,3347,-1376,-8758
-90,23,-110,4343,15603,-997
-50,-90,-125,-677,8277,6534
82,16,-86,-15546,8568,13472
1,83,-67,5035,-20853,2581
-113,-87,-1,-8180,-12416,-5225
28,-121,-85,-8959,2139,-5848
36,-75,-90,1429,14502,-5482
81,62,-44,6955,8362,-2096
-121,-12,119,-4456,13824,5891
84,-21,-125,-9511,2650,14391
75,-26,-53,589,-6286,-537
116,-125,17,409,-6733,2081
-109,36,85,-4717,-5897,-8517
-96,91,109,-858,-2670,-8612
81,-34,34,1215,-3002,-3569
-77,78,84,-2457,-5731,-1553
11,-106,-87,-4002,-1957,-2675
-72,-86,34,-3826,-3053,-2079
-39,113,68,-1674,-1199,-4258
-76,33,-84,-2164,-2173,-1808
69,-90,55,856,-1864,353
-63,83,45,611,-1093,1167
97,109,0,907,-1286,4200
-111,99,52,397,-826,7036
-84,-99,-90,5094,-2549,10703
71,118,-28,-79,2218,6917
-125,25,21,729,-5661,12589
92,-57,111,-489,-4137,-2457
103,93,-118,9544,-3756,-1394
39,68,71,-4953,2625,-1645
-39,-35,-113,-2173,2656,-1466
51,65,30,-284,1370,-475
122,84,-86,3459,-3627,669
60,-113,-110,1053,789,1090
77,-40,54,-138,102,292
47,-42,30,-704,-202,-336
37,-73,85,-251,158,-541
118,2,-61,-8956,4622,-1353
54,-85,-35,3095,6099,-6543
81,-118,-1,14234,-5751,-16416
73,-64,106,3004,-2913,-10218
-85,34,-94,-2380,13834,-3107
-5,-84,46,-216,13751,2203
-21,-12,-54,-3525,11664,4727
-128,90,-22,-11257,-3929,8762
18,-48,-41,-10130,-11923,2783
-79,40,91,-706,-18043,-2933
-9,-44,119,-7563,7044,-8588
-14,-95,-54,821,18122,-10356
-19,-100,-49,-17,9373,-2077
107,14,55,-1901,10226,6797
96,-56,-3,-6602,-76,16552
-65,62,-18,5413,-3816,-7033
38,63,-10,-2416,-12050,-8125
-14,-94,11,-1930,-10767,-5361
-78,-26,1,2339,-8868,-2919
93,78,116,-3852,-7553,-5975
90,125,35,-11218,3,1727
13,-38,-44,5006,-3515,3117
-44,-28,-26,-775,-3114,6959
29,-121,72,1775,-601,6679
-98,-124,-6,1481,1246,7681
92,-83,79,682,2598,7607
-17,-11,-115,4943,-4313,10204
22,75,27,-5857,2179,3361
121,-31,-21,-2579,-2353,3934
-122,-121,23,16877,-4655,-2098
-34,116,-2,3326,-4185,-4021
-26,112,-33,437,-1315,1776
-57,-63,-24,-4646,3370,195
49,-62,-42,-4540,3717,-1592
-73,-104,-115,-2600,1334,-1437
-4,-11,-59,-5052,3272,-1416
-81,-11,37,-6674,7411,660
56,82,-108,5001,-4322,-154
-108,-9,88,4130,-5453,724
33,-70,-30,-41,1417,874
-12,49,-49,-672,1709,-11964
-87,-35,56,-3823,6507,-13875
123,-116,-72,6977,3204,2407
112,74,-31,4324,9892,4508
45,45,-85,1469,12492,5166
109,121,24,-9099,281,15795
117,23,100,-1845,-18463,1004
53,-52,-120,-5575,-19859,-7893
67,-19,87,-6294,10115,-5093
-15,-110,-80,4129,21745,-9134
13,-52,7,274,12275,-5315
39,52,21,-8485,4245,12952
-7,78,-67,741,-5769,13650
95,127,35,-3094,-2049,335
30,80,91,-2847,-6814,-3690
118,3,-54,-6119,-9956,-7756
-53,15,102,-3085,-1935,-10525
0,-128,-121,-3893,-4951,-7284
108,25,117,-952,-2797,-4445
-16,106,-25,3882,-10006,4696
-32,62,102,-12502,2419,-1329
10,27,127,-5091,3370,208
112,-95,67,2215,-4237,1010
67,23,-99,191,-2041,1695
-15,-98,-29,1571,-1932,4922
27,60,82,3557,-3438,7550
-55,62,-119,-295,312,5879
52,-55,-122,4198,-2777,6342
82,62,-114,1709,-1774,4589
121,103,-13,3624,-1800,4308
123,-121,17,-974,-1300,1800
-36,-37,118,-745,-1878,89
-117,52,-85,3900,-913,-284
106,17,117,-1034,2842,-2162
-20,101,98,1328,-1472,115
-9,-119,90,-794,470,-405
6,-125,118,-500,201,-95
28,125,93,510,-616,92
78,-108,126,103,-67,349
98,-75,125,-24,162,-115
120,-52,113,3859,5923,-8252
1,34,51,7283,-1520,-16192
97,-66,53,768,4739,-12960
55,83,-12,-1882,12296,9470
74,29,-65,-1789,6899,13622
8,-44,34,-11699,13191,14908
-120,-37,73,3057,-18556,-600
90,-57,28,-8419,-15838,-8827
8,56,-121,-7782,12493,-5168
64,98,101,-3866,30413,3761
-17,74,-71,13882,-10112,-4133
-81,-15,77,-8929,12481,10618
121,56,-120,-3183,-4862,14237
-15,-58,13,-3718,-3014,-1454
27,102,-73,-2786,-6840,-5394
-106,85,19,-4719,-6523,-10384
-19,107,42,2698,-6484,-9143
-122,-8,-36,-3979,-3592,-8751
84,-45,-72,-7982,4144,-1451
1,90,-102,4034,-6177,-1347
-17,47,102,-2211,-4828,250
95,3,-93,-568,-1736,1127
84,4,-39,-2436,937,-1931
-33,80,14,-629,-1266,2528
127,-51,-41,-880,-4331,4232
31,-82,39,-486,-1772,7500
-122,-47,98,5547,-4133,9041
95,-93,-12,1451,1375,8301
-70,-30,17,-1012,-2201,7324
67,-21,-128,-2529,-6908,2255
116,63,21,18220,-8226,-1199
30,116,-91,-3440,3292,-3848
-42,-98,1,-1801,821,-379
127,76,-66,-3967,3482,-247
-102,109,-32,-775,238,-252
42,-91,84,591,-150,167
112,14,97,-1549,1134,-187
108,-33,120,774,-868,82
118,19,79,-121,85,-173
106,-2,61,-299,69,-399
104,-18,-111,-8704,4950,-1409
-24,-5,79,8275,-1625,-8681
-78,-6,65,6447,-1543,-11679
-48,111,126,-1051,8107,-7452
26,-86,-100,4251,13724,3248
-23,7,-127,-9003,11513,8477
63,-70,29,-135,-19745,12736
-19,61,126,-9561,-6758,-9096
-126,-50,76,-8085,-1154,-6414
-7,65,3,7486,5209,-5065
-69,15,-44,208,13220,1131
43,-48,7,-2198,8932,7773
-118,-16,63,-3087,1747,15792
3,-17,-126,124,-3639,843
8,127,90,-10493,-6931,-1658
76,80,23,-6110,-3329,-13101
-19,64,44,-2840,-5931,-8644
-56,-76,-100,616,-5394,-5194
-89,29,-18,-3440,-4095,-6813
73,-25,45,-3152,1429,-2021
29,-62,45,-2279,-1731,-1047
-79,-12,24,-4001,-2286,-971
-27,-2,-109,-4112,-2450,-1096
109,-97,80,-1224,-2929,566
-5,-33,49,2099,-4150,2919
-27,-75,-32,2426,-1350,5172
-84,-32,122,3241,-621,8376
-117,122,-26,3574,-1548,8000
-13,70,-6,1694,-621,6602
22,-44,-21,4782,-2681,5342
-26,35,97,176,136,2508
120,117,-96,1167,-3822,1035
-63,6,29,1958,-3799,-485
98,92,-56,2304,3382,-2258
64,-51,69,-300,354,-376
-40,-107,-18,-1486,684,-586
-37,-128,42,-1158,473,-657
37,116,112,-584,422,-39
56,121,90,509,-91,259
75,-91,103,487,-242,134
-91,-72,-126,-12030,8908,-5540
-3,-101,-110,23425,-3449,-12550
116,56,118,-5087,13043,-11787
-86,-87,-7,3631,20821,5120
127,-106,39,-21553,-3871,21072
75,-59,93,7050,-17475,-4611
-85,16,-79,-12639,-12624,-8639
108,123,101,8747,22067,-6459
-98,-7,-1,-4013,11273,4741
5,-77,87,-2418,-2355,15465
87,44,118,6620,-7126,1156
-111,-111,12,-5676,-4545,-3521
-118,61,-38,-4237,-8260,-11560
-72,-55,78,-3153,-2455,-9097
-122,116,123,3243,-5976,-3248
21,31,-5,-1096,-2897,-8651
-38,-31,111,-5601,-5325,1086
84,-64,-44,-2773,-5409,1889
-29,77,-77,2014,-3339,204
-58,46,-61,-3442,-601,-650
-90,-87,-83,-3705,-288,1640
-91,-20,99,8273,-5285,7189
-35,41,-95,6112,-2181,9041
11,-63,-15,-1583,6332,6280
20,-56,95,2907,-3650,7225
50,48,-66,7076,-4260,4418
-57,114,15,-1319,303,2421
-7,46,119,-34,-851,759
124,-115,-100,4417,-668,-2042
85,59,6,1551,-1491,-798
50,-74,69,-562,1027,-47
31,-106,18,-1279,1933,-1013
35,122,29,-165,-225,-717
35,-119,57,-736,-323,-99
53,-90,84,-234,-270,407
78,-72,112,1013,-374,247
107,-34,93,647,46,147
83,-27,41,4,-91,-126
94,-58,38,80,-140,-167
115,-66,58,-70,136,-139
-1,-105,-118,587,2628,-10194
-80,38,20,4170,-1098,-14112
-80,99,104,463,7022,-9106
-81,95,108,2481,15437,2065
-18,23,90,-3656,7834,10674
102,-123,-99,-6018,-17513,12416
-60,9,-111,-7142,-9985,-7245
-81,69,-35,-14954,-9150,-4489
-22,-72,-51,11166,13264,-5652
-126,-13,-80,4784,13336,-2028
94,61,101,-7450,13449,4058
26,10,-111,-2199,-3918,14592
-90,-128,19,1116,-7126,-5079
71,97,99,430,-10290,-2687
110,28,-49,-5315,-6290,-10271
-55,-88,97,59,-3018,-6748
39,76,-67,-2784,-2462,-2514
-9,-7,76,-6308,-2104,-3192
-27,83,-96,442,-6487,-3102
112,75,-54,177,1492,-519
-69,79,3,168,-3009,989
30,-93,84,-1889,-2071,867
-3,-102,-21,551,-2046,1374
-92,-49,125,-238,-2058,4494
-1,50,-45,2289,-1770,7160
-43,14,51,1682,270,7665
-48,6,-100,1891,-1173,5411
-87,-12,4,3710,-2265,5747
55,81,66,-1372,-276,4681
-24,-67,43,-36,-1486,1738
44,111,93,3319,-2903,432
8,0,49,2978,1733,-3088
55,43,109,122,-641,-514
18,-63,20,-1100,383,-407
-35,118,4,16,381,-522
21,-99,63,-131,7,295
52,-53,94,64,130,-9
98,-42,-97,753,-276,147
104,-41,-127,832,-535,193
100,-51,75,419,-2,-41
6,76,99,-6737,1615,-4868
53,75,-125,8818,3258,-10837
33,0,108,6558,-3549,-10999
42,-13,-109,1234,19502,-976
79,-93,-17,-7482,9573,9641
53,15,-60,2772,-19196,11628
45,94,109,-10323,-5870,-13826
-36,124,-82,-5845,-766,-4189
-64,-64,-42,-6299,21241,-1274
-39,-104,38,3641,8172,3030
105,-39,-102,-5355,8052,7186
-15,0,106,-6453,1500,14366
52,-8,-42,-4143,-6292,-230
76,-100,-120,-3390,-5335,1919
23,84,77,-2447,-4368,-10486
3,-99,-109,-3186,313,-9934
-26,-98,-96,6429,-6396,-5019
112,78,-27,-6258,-2022,-8439
-25,-18,-4,-6742,2331,-2053
-38,112,-101,1461,-5958,-2876
22,32,-48,-2145,-2605,1091
25,103,107,-352,-1982,-1505
-5,102,24,-1988,-437,1521
117,115,77,1218,-3457,1918
22,-11,-97,684,-1104,4124
-117,-58,127,-1242,1015,5512
-75,-70,-116,646,-2975,6431
-113,63,17,250,103,4101
-20,121,101,-972,-1561,4423
-64,-125,36,2036,-4805,2580
69,-23,-10,-2507,-4717,3254
-18,82,-118,2399,-110,1600
-18,-40,-77,3124,1752,-3063
57,-53,112,3342,-3967,2259
23,51,-1,-29,1364,-1156
-9,-63,34,314,479,-304
6,-97,77,1208,-945,-64
22,-64,102,607,-379,120
61,-46,-125,844,-716,189
71,-43,93,309,298,-8
36,10,115,4187,-1469,-9081
-121,-64,68,4072,10652,-7415
63,-11,-8,10637,3292,-12917
37,-29,-50,-4895,18208,3523
38,112,124,-15221,7689,12571
69,88,48,13062,28948,4668
-25,-65,87,-15454,1312,-3427
-120,-4,46,-1570,-5024,-7214
-109,-97,-44,-1092,8933,-7842
-73,-46,-76,8703,5331,-1104
42,-73,-42,-7108,13166,5141
13,85,-19,-7410,1360,9415
-112,-52,-12,3806,-10546,13959
-94,-79,96,3304,-2044,247
81,76,20,-6827,-1461,-4377
-119,42,114,-6268,-7848,-9097
-109,6,-20,-1178,-2052,-10090
-126,104,13,-1199,-7637,-8869
19,-111,-93,-3988,-2890,-6287
56,-124,77,349,1893,-3034
94,-111,122,-1858,-5270,-1329
60,71,-99,-4253,-1971,263
-20,-120,109,-290,-1963,1596
-80,96,-69,-587,-3011,1349
-41,28,73,2509,-2505,5409
50,7,66,1789,-802,7074
27,25,-73,2680,-1297,8147
16,13,44,2515,-2339,7615
-110,100,54,658,-1859,5794
18,106,-70,-264,-1644,4068
-119,64,39,-6485,-2147,351
-120,-102,-101,9906,1161,-1303
10,15,97,-1966,1243,-2467
57,-50,-37,-485,48,297
49,-27,35,463,456,-330
67,3,52,-313,325,-349
123,8,109,-768,1246,-27
-127,-3,-48,558,-447,-156
122,9,86,473,-623,41
-105,0,103,96,423,-2
-27,-109,45,423,766,-5990
104,-57,-52,341,2221,-6723
4,47,82,-11,3013,-5113
0,123,-46,495,2497,-3419
-81,11,-14,-1334,3430,-2407
28,-4,-110,-1318,2947,-790
10,10,32,-1835,3044,855
-39,-49,-118,-2504,1748,2675
110,-10,58,-1560,1920,4279
-84,38,33,-2925,1300,5613
35,-102,-23,1194,-1401,7780
-101,-70,33,843,1613,6440
70,41,-92,5758,-630,4893
-82,-116,-117,-3451,-4121,2221
54,72,25,-2441,-5410,431
-102,78,-59,424,-6780,-2028
-57,38,-37,-3335,-5934,-3730
-24,-14,118,-1152,-5554,-4428
-90,120,-63,-2273,-4179,-5215
-78,110,22,-2989,-3700,-5036
-86,-71,72,-2144,-1470,-4508
-57,127,-56,-369,-528,-2226
-100,22,-75,193,-388,889
48,-88,60,-1428,-983,2524
-110,48,-7,-1111,488,3733
1,18,-111,-2847,1154,5579
-18,107,42,926,-566,6447
-114,-85,12,-579,660,5003
-36,-25,-36,642,-1207,4959
-45,-50,97,-456,227,4000
-91,79,-111,-241,-357,4347
127,-62,-126,632,493,3472
100,-26,-106,-1018,-1148,3778
96,-10,-57,-272,-652,2818
-25,9,-107,1569,-713,1446
-110,-11,-100,1303,-596,-544
90,107,-99,994,19,-1073
26,-7,-121,807,-11,-1051
-11,-82,126,1036,-810,-794
80,-120,-65,343,-79,-247
83,105,-56,-818,1625,-5805
64,-21,-1,-1017,2250,-5369
-30,0,-52,-806,3889,-3882
-3,124,35,-279,2313,-1975
-31,114,-66,-948,2819,82
123,-33,3,-13,2157,1958
-109,74,-35,-1770,1570,3459
-21,84,-74,-1682,202,4577
-58,-57,127,-392,-1649,6954
8,-66,-62,-1734,-2225,6885
116,35,105,-3995,-2207,4420
-128,-28,100,-1517,-3549,1245
-113,82,-17,-399,-3394,-1176
-46,59,-88,-2795,-3297,-4020
-9,12,-108,-2992,-1128,-6942
27,-107,-46,-1200,805,-7319
29,-85,-95,303,2300,-5939
113,115,40,-478,3151,-4175
3,82,-80,-951,3260,-3319
67,-2,43,-901,3703,-974
-15,9,-110,-79,3376,1012
-1,15,27,339,2697,2747
106,40,73,-1435,3214,3929
-12,-107,97,-702,2584,6297
23,-88,91,-792,3127,8524
-61,126,21,-598,3249,7293
-61,-63,83,-456,922,6181
-79,45,122,-2227,824,1328
46,-74,110,-4765,-5134,658
-68,-58,-6,-3297,-5576,-3958
-37,67,-21,-2585,-7995,-4496
19,69,71,-3152,-6169,-5911
116,-23,-104,-2932,-5680,-6906
-5,103,-48,-3283,-2787,-6637
-66,-26,103,-2422,-2246,-5669
51,72,-105,-1002,-328,-2827
113,-67,42,922,360,-152
26,-117,-37,-551,-282,1601
64,26,-115,-1393,329,2965
113,-35,36,-2560,434,4589
-27,-49,2,-573,-1383,7437
26,-58,-107,-2445,117,4641
-124,42,71,-170,-1878,5059
-122,-4,-57,218,-805,4072
97,-79,4,-581,-530,3945
109,-124,-7,-100,136,3063
74,45,-88,582,-69,2863
-7,33,-106,470,-787,2251
-34,26,-93,414,-98,997
-99,-28,123,1124,-349,-221
-113,-94,-126,980,-128,-616
110,58,121,550,81,-1022
80,-32,110,798,-57,-656
91,-60,123,477,-106,-347
-124,-81,119,419,103,-484
-126,-95,108,204,-3,-531
-121,-101,97,-86,37,-328
-115,-78,86,-142,-47,-119
-107,-50,77,-152,-70,-92
-106,-21,72,-226,-128,39
-98,2,75,-230,-147,23
-94,28,84,-232,-98,-19
-89,32,83,1,-88,-98
-87,23,81,132,-114,-82
-88,31,79,-52,-74,-172
-89,20,78,67,-35,-162
-82,11,76,100,-6,-87
-74,16,66,169,-52,-112
-72,16,65,63,-28,-84
-75,14,60,127,-64,-43
-65,21,60,93,-40,-49
-62,18,58,138,-94,-9
-62,28,60,94,-93,-58
-65,22,62,83,-114,3
-56,28,67,108,-69,-49
-61,24,68,108,-91,-25
-57,26,71,91,-39,-12
-53,27,64,131,-52,-1
-45,37,62,28,-50,-41
-50,33,61,127,-60,-24
-87,-13,-10,1864,-2436,-5108
36,102,-61,-1361,435,-10324
-110,43,32,-1188,958,-7912
-37,-11,110,-3383,3099,-5320
74,-102,45,-1578,4102,-2583
-124,87,-30,1030,3162,-249
-124,-65,27,-1864,4241,2854
-44,-119,-27,-2341,109,7314
32,-35,-125,-4608,-2156,8743
88,22,67,1304,-6015,9902
13,-83,-12,-3676,-3765,2740
-26,87,100,182,-7238,-2564
-110,57,99,-464,-3809,-7282
106,-28,15,-914,-135,-9346
-47,-108,-30,473,2002,-6833
-29,-119,-62,-293,4938,-4821
-79,19,7,1343,3344,-1554
-124,-94,79,-1023,4620,1968
-2,99,120,-2432,5261,5152
16,-26,89,-3142,5448,7318
-98,-37,80,-308,6020,8977
-111,-97,-77,-5314,1354,5454
-98,92,118,1784,-3543,1602
101,118,-32,-5841,-7992,-975
69,104,33,-4372,-9196,-6041
111,-3,8,-3054,-7363,-6402
-42,-103,63,-3458,-3155,-7672
31,32,53,-2315,-4283,-6769
-58,35,-107,-3402,-343,-5988
77,122,105,2740,-701,-1724
69,-20,-116,431,811,1984
-5,74,-25,-1038,252,5457
74,-90,89,-2041,2176,6587
-53,102,-26,-466,-752,9503
-36,-33,-36,-2563,1503,4817
59,-36,-2,-1284,-1688,5283
105,21,-39,-290,-486,3369
-91,86,-48,293,719,1967
11,102,113,300,254,2185
-36,-1,114,-662,-546,1934
50,22,123,4133,-2139,-1564
23,46,-36,-2883,127,-5049
61,-127,-123,-121,818,-6766
-111,-87,-120,-1434,4599,-6085
43,66,16,-1061,4403,-3455
1,37,-113,-674,4846,-1543
96,61,11,-605,3267,788
-121,-51,110,-452,1990,3053
34,87,83,-1873,1186,5921
-48,-76,-123,-2080,-1043,7238
22,113,24,-1577,-3841,8037
52,98,64,-3310,-4182,3410
-119,57,-34,-79,-7297,-1317
51,27,-39,1518,-4287,-5276
54,-42,86,-2563,-1980,-8882
-29,-19,-10,118,2375,-7980
-19,-63,-53,-524,4228,-4630
-115,-7,-92,-132,5694,-944
-3,-18,-90,194,5236,4232
66,52,-70,-3847,4152,7414
-82,-127,115,2560,2222,10553
23,-9,-49,-3659,8787,6982
65,87,15,191,-1840,3047
-52,-86,-66,-2284,-7361,-1316
39,119,14,-1816,-11864,-3344
88,-26,47,-4007,-11221,-4732
-21,71,63,-4442,-7551,-6508
-56,100,-23,-1645,-5618,-5878
-47,22,-52,-4245,-3327,-5034
33,95,-6,-1993,-1857,-2250
82,-18,67,1668,384,1832
-117,52,-88,146,1528,2708
-79,-109,24,-1528,2227,4012
-91,-121,-112,-3140,2948,6457
-74,-83,-51,4038,925,6377
66,107,108,-2534,3035,5761
-32,85,77,951,1549,5550
23,-60,-123,474,2024,5580
-37,-79,24,-761,1836,5463
39,-115,43,-731,3113,5373
-94,33,25,-1031,-1018,5513
96,-26,14,2562,-3038,585
-100,-84,107,1927,-2288,-1392
105,-116,-16,1281,1129,-1953
80,-9,111,1910,848,-1668
114,-85,118,709,-1149,-1500
-76,-39,-44,-2099,-1353,-2060
-34,-68,-39,-2511,-261,-2937
70,61,-59,-1353,431,-2654
54,20,-84,206,-115,-2206
-50,1,-112,1135,-726,-1956
124,21,84,1774,-1443,-1006
-107,37,125,-101,-356,583
-86,-99,-127,-1858,89,739
-86,-86,91,-1641,-167,903
-76,-58,112,-1073,-803,912
-55,-18,126,71,-616,927
-67,26,79,889,-1195,53
-67,50,61,501,-644,520
-71,80,92,-1041,-191,770
-109,-127,57,-1403,-483,811
-125,-76,62,-619,-263,95
-92,-104,53,255,427,-791
-84,100,-20,1094,-368,-1547
-91,21,-1,752,-181,-1184
-112,-31,-13,955,-273,-916
126,-63,-14,556,-180,-366
-121,-15,11,-575,50,91
-105,13,-3,-668,-54,135
-98,34,14,-615,-70,538
-84,63,29,-203,53,316
-77,79,26,91,-170,-67
-74,100,40,171,-109,-406
-105,59,1,232,-466,36
-104,62,5,-234,-254,159
-88,100,15,-602,-67,291
-76,121,21,-170,722,-125
-87,98,-11,776,515,-23
-62,-124,18,-928,-13,-157
-60,104,-9,-573,-1055,305
-16,-113,-92,-690,2794,-4405
-20,117,-95,-908,3667,-3729
119,106,51,-359,3934,-1596
-7,-78,-58,405,3520,538
-43,-116,-46,-280,2974,3247
62,-60,25,-667,1668,5036
127,-81,112,-765,-1341,7230
-94,99,95,-8,-3343,8630
-109,-41,37,-2158,-4330,6145
-106,-128,110,-1892,-6134,821
13,17,-108,-2380,-2574,-5575
64,-19,110,-2534,-1555,-8924
-55,-34,-33,-1093,2532,-8656
-54,50,-84,-381,3675,-5488
-95,83,-72,-502,4338,-2854
-38,115,-66,2339,3694,983
-89,76,68,-1319,5451,3542
-22,-99,-125,-3428,4648,5636
-114,59,-122,1238,2290,9410
77,89,-20,4838,3322,8545
116,106,80,-4727,3447,4392
125,12,94,723,-2777,1291
-24,-105,-53,-3673,-6746,-917
65,-82,114,-3380,-9599,-2001
-106,-114,0,-5840,-7172,-4491
-31,-16,-88,-2979,-6332,-5806
-80,-56,36,-4007,-5173,-5402
105,-123,-118,-4299,-3144,-5555
60,-24,28,-3024,-714,-4054
2,112,-72,1416,50,-645
67,-2,101,1054,875,1820
22,-67,-19,-679,654,4135
-28,65,-117,-1,2017,6170
48,-6,-44,1159,1678,7728
41,116,2,-691,1836,4911
-22,40,37,-1034,-16,5049
-76,123,14,385,-380,4090
-107,-94,127,1102,1591,3852
-100,57,10,1896,1386,3806
-53,-85,23,60,1384,3514
-65,66,88,-3059,663,-5952
-94,101,89,-2625,-223,-3519
12,93,-46,-3233,-746,-2142
-80,69,59,-4695,1136,736
25,116,-33,-2514,5425,702
-48,48,105,4056,6663,1705
108,-53,65,7616,5637,2359
-88,-77,41,6885,5748,1761
2,-115,95,2489,8126,2471
27,-106,49,75,7996,4133
22,-42,-84,-1030,9451,7397
-45,5,-72,-7041,3743,4979
107,-88,-110,-2204,-186,1592
-17,-40,-31,-2808,-6846,2203
57,54,-48,-3490,-8639,-1291
-113,-102,127,-1462,-9871,671
27,23,-42,-6869,-7960,-3170
-13,122,117,-5825,-5684,-6160
22,8,15,-1945,-5091,-6142
72,-25,0,-928,-2698,-3062
-75,14,-71,-545,-1061,-2327
-103,5,112,-49,-156,-163
82,66,41,-16,78,1484
17,-108,-40,170,-163,3743
-66,-33,-51,233,1835,5943
22,18,102,187,1541,7638
-74,2,28,-200,2228,5526
-114,22,-20,-1313,336,5337
-17,-53,73,-1815,707,5059
-68,37,108,-862,1289,4168
-95,73,72,853,1945,4064
3,-44,37,2667,361,4817
-5,98,79,1628,-443,4684
43,112,105,-579,-1103,1783
-104,59,-98,-718,-864,-786
88,-116,-62,406,-229,-1310
43,-6,-78,1748,-87,-1243
76,-35,-90,1376,-43,-1167
94,-40,-94,33,-399,-1440
-123,-60,-78,-1272,-423,-1696
-9,-66,98,-4859,-1015,-4690
-92,-49,-96,-3602,5967,-4869
56,-54,56,1187,4957,-1464
-65,64,-32,-1110,5490,-517
-32,26,38,2224,6290,1634
-126,75,54,5516,4627,2145
-11,-2,-67,352,3252,4615
49,-49,63,691,3985,5600
62,63,-94,1009,5284,7736
123,-79,36,4791,4196,8987
-96,75,30,-1737,5835,6775
-125,-87,-51,-10304,2333,791
112,-19,50,-4564,-6269,1525
-22,73,-35,-3037,-4944,-5067
16,-51,116,-80,-9594,-5115
117,68,38,-4169,-9886,-5927
18,-84,-46,-1648,-4905,-6546
-26,-106,-103,-2142,-4462,-6362
78,81,-78,-3034,-2909,-5323
-113,-77,80,-1753,-212,-3262
32,110,-5,626,-858,-319
78,23,-74,633,-412,1224
-11,-86,126,-980,-210,2267
-33,-62,55,-391,-241,4214
76,-79,27,-113,-732,7233
97,111,79,1128,580,4378
98,-101,2,111,-37,5538
82,-41,76,-1463,-157,4559
-117,111,116,-444,554,4590
109,75,77,236,809,2797
60,-91,62,283,812,3214
81,-120,81,-414,508,3512
106,-8,110,-1616,171,2700
43,40,81,-79,-472,1926
-71,20,117,1526,-696,378
-112,-30,111,1564,-283,-1267
117,-107,-122,187,19,-940
100,114,-123,-435,119,-1286
-98,54,-123,351,352,-1755
-32,-30,125,1141,437,-1788
-82,-90,-38,-1576,1527,-4369
-90,42,-39,-2311,2353,-4466
-5,34,-68,-595,2624,-3611
11,-114,47,-1340,3277,-2491
-17,87,8,-1130,4303,-463
-18,-91,-98,1007,5016,1978
-25,52,-57,2116,4537,3252
62,-96,28,-538,4543,5510
-118,109,81,-114,2801,6669
55,-18,41,2919,1520,9866
100,-36,-118,4559,1895,8061
113,123,19,-5258,2615,4082
-87,0,-90,372,-5924,2940
14,-81,38,-3321,-6344,-3283
-67,107,101,-2430,-11447,-4329
-44,26,26,-4340,-10017,-6472
60,-13,27,-3300,-5839,-7633
124,-109,98,-1013,-4795,-3922
70,-4,37,-2649,-2714,-1587
-56,34,36,-2989,-1185,557
44,92,-32,545,529,3312
4,57,100,-1130,178,5630
-36,36,-14,706,1028,7428
10,5,90,3303,-1274,9764
-104,-118,6,-2874,1796,6131
57,-34,-74,-2185,-378,3919
-55,-84,64,-876,-889,1356
102,73,118,2284,-694,830
-13,-82,0,553,526,203
-102,53,-30,-1009,1446,-209
56,23,105,1660,2069,-524
-117,-68,-83,2248,-416,103
5,66,-4,-1444,303,-508
20,-3,-7,-1034,111,-750
-50,-63,-12,130,-891,-487
-23,31,93,-1255,-260,-650
-21,14,-117,-733,-248,-630
-60,-21,-115,726,-560,-451
-85,14,-113,16,-154,-292
-69,-7,123,452,258,-103
-95,50,1,-1166,2359,-5608
50,-98,-102,-766,3037,-5711
124,83,63,-2939,3787,-5305
-59,59,99,-3343,2865,-2960
-39,-67,102,-2397,1959,-1260
-36,-76,-75,-786,2225,1610
-43,-79,-68,358,2711,4367
45,75,115,117,1745,5768
69,-50,98,910,2106,7438
36,63,59,2078,2588,8851
-76,108,-16,733,1933,8785
-30,42,-41,-4705,2830,7261
124,-31,-9,-6065,-273,3064
81,123,76,-1774,-5862,-776
-67,-76,-81,-3168,-4369,-5017
-11,-65,35,-2009,-6423,-7060
-113,-54,-98,209,-6402,-8689
41,-1,-25,-725,-6682,-9371
110,50,-55,-3843,-4976,-8129
-66,6,-122,-2284,-3441,-5076
7,64,100,-1776,-2246,-3381
32,22,-79,-427,-804,-823
111,-69,-51,1604,-84,943
-20,119,-94,584,197,2780
33,-6,-113,-532,501,4267
-37,119,105,-766,1199,6261
-11,-74,-3,1542,-541,6808
-92,-75,-57,-964,1312,6145
57,-17,66,928,-2087,5402
14,113,104,312,255,4450
-67,-118,120,674,-41,4842
17,12,-123,301,345,6155
-45,-27,-36,-2037,258,6069
78,-8,-72,-1966,-857,3180
3,46,-10,-104,-1043,466
-117,87,12,1938,711,-1893
36,-53,-85,1816,797,-1063
-2,-85,117,1051,356,-937
69,111,-118,1772,492,-1428
-49,-2,-80,1671,138,-1630
-79,26,119,-1720,3112,-4267
-78,-119,-62,-1113,1834,-3103
56,26,3,-3467,2778,-2630
-75,-72,117,-700,2773,-154
0,-50,-115,-948,3567,1316
73,-65,-68,-258,3342,2942
-71,50,-71,895,3456,4624
-12,67,92,1266,2620,5678
101,24,6,3279,3961,6425
-42,-82,18,-981,3563,5616
-123,-65,91,-793,90,5464
-107,-25,-4,-1042,-583,5532
50,85,65,-1899,-1299,3965
-89,97,-43,731,-5162,792
-89,-119,-80,-765,-7842,-1238
-68,121,-128,-1303,-10345,-2141
17,89,-16,-3691,-8428,-4199
34,-34,64,-2069,-5825,-4905
48,101,-32,-686,-4849,-3567
56,55,32,-710,-2963,-1848
123,-57,43,988,-1266,-912
92,81,30,-1269,-952,123
35,-45,18,-1608,100,1033
18,81,-86,-74,1058,1294
72,-8,-6,-202,1236,1318
73,-8,-126,-180,1514,1537
101,103,-110,-291,2174,2390
60,42,87,-753,2426,4026
-83,-105,-40,1025,2321,5680
102,28,-89,-1956,2602,5867
31,-76,106,182,2034,6191
66,99,15,318,1423,6520
76,-53,28,1063,1707,2925
110,83,108,-439,1459,2891
-87,-56,124,242,-41,1609
-117,-76,-64,461,535,462
38,77,-78,1482,94,-134
-10,34,-101,2000,-173,-454
-1,-19,-109,1694,-274,-529
48,-24,-80,513,395,-931
55,-37,126,1464,4101,-4087
90,121,118,1314,4109,-4757
-69,20,-58,216,4726,-4482
45,80,53,-1014,3502,-3416
87,79,86,-947,2392,-1490
23,26,-75,-1182,3127,752
-24,-21,-10,1377,1969,3315
-69,88,114,384,2299,4863
113,115,85,-562,2632,6019
-118,-86,20,37,2208,8729
81,-2,-115,2007,2064,9876
84,-119,-112,-8429,3001,4941
44,-91,-53,1221,-6531,-988
-44,-119,-54,-3647,-5901,-3363
69,-38,-93,-2568,-9671,-6093
-111,109,78,-4372,-7863,-6931
24,38,-94,-719,-3913,-7211
-35,57,16,-202,-3823,-6632
-11,-63,19,-2766,-3717,-6765
111,-122,23,-908,-1803,-4285
-104,80,65,-308,-440,-1766
80,19,16,1138,-581,396
-52,22,-36,-423,-213,2026
-6,-75,-79,-1567,-12,3498
64,9,-126,-1758,202,4352
42,-31,124,-2243,-1022,7015
109,7,-79,1869,-1612,6762
-4,-84,-40,-1189,1128,4760
46,-94,83,1401,-722,5270
80,-118,122,484,28,5355
7,-73,-102,-631,-464,3991
-55,87,-85,-371,775,3180
98,-34,-96,366,-58,3245
50,-33,-83,1206,-163,2899
-33,-7,-78,1234,-316,1388
-127,-20,-109,1216,-342,-204
98,-97,-103,992,-288,-509
105,83,-97,717,6,-957
117,32,-109,609,-148,-1320
-117,-4,-86,261,-283,-1575
-103,-119,-119,-171,4631,-2608
38,87,-128,2795,7571,-2621
-74,-109,113,1484,3021,-3484
-91,124,89,1367,2788,-3274
-53,-30,111,-466,2316,-1273
-114,-5,62,-1232,3256,869
8,74,-75,-418,1326,2033
108,127,-112,98,-19,4898
19,-33,112,2885,-201,7039
-45,-48,83,917,989,9054
35,33,108,-3952,-734,6141
79,-37,113,-6122,-4231,-1673
-58,-49,122,-2904,-10563,-5836
90,-95,-57,-611,-1187,-8670
-37,-101,126,-460,-88,-8406
18,89,8,-2992,3793,-7036
117,86,-50,-907,5086,-2807
47,113,-76,-63,4024,1457
15,87,-23,-2338,5177,5364
10,-32,52,-691,5191,9037
-49,-96,24,-1127,5115,9786
82,-125,102,-5658,1224,4364
-72,-25,28,-7496,-4534,153
-1,-61,83,-739,-9896,-3428
29,-5,-57,-680,-8920,-5207
91,15,-43,-3614,-8308,-6781
-24,125,69,-4848,-5413,-7318
-90,-59,117,-4010,-3744,-7003
24,-46,-37,-116,-2027,-4236
-23,-42,85,2224,32,836
-60,-61,3,-888,2003,2110
82,-27,-36,-2233,1609,5492
-123,61,42,-1096,3188,8780
0,-94,88,-426,1538,9313
-64,-119,12,-4507,3409,5510
-107,75,-86,-4019,-2656,6516
54,-43,42,-2415,-1028,3919
-61,-97,125,-829,-1295,3622
26,116,71,1418,-1556,2650
87,-103,-38,2471,-1154,681
-127,86,120,590,1983,-4766
88,-88,97,-651,2931,-5005
-37,34,-31,-666,3463,-3885
-41,42,-71,-864,6175,-1672
-29,48,119,1979,4841,725
-92,-122,26,2552,4453,3767
14,113,49,-649,3893,4952
-16,24,87,151,3900,7118
-2,110,52,2395,2680,9295
-6,13,40,-3038,4078,6991
-61,-11,15,-13909,2626,534
-20,-27,-69,-1139,-7087,-647
2,90,114,-1680,-4918,-5882
88,67,-52,-734,-7969,-6261
109,96,100,-4730,-7685,-8420
-32,113,-73,-1565,-2961,-7822
16,-29,64,-1115,-2117,-6349
-87,110,-47,-1292,-1851,-4808
-73,49,-118,-1124,-1035,-3087
-27,36,-102,-524,-546,-1795
-14,39,-83,140,-43,135
-72,-121,-111,148,-176,1561
-68,-49,114,-36,-235,3029
4,81,69,-25,-101,5376
-57,25,38,546,-121,6375
127,-64,6,-399,713,4896
118,-45,-24,705,-768,5090
117,-46,94,-27,25,3719
69,83,86,1096,188,3401
43,41,99,361,534,3023
8,-77,98,436,1069,2864
18,-61,100,-544,1103,2605
3,-77,120,-1663,461,2212
11,-47,-77,-2168,-313,1914
-38,-28,-80,-272,-507,670
-82,-44,-76,1128,-231,-426
-84,-87,-86,1071,498,-1014
-77,111,-128,920,527,-1677
-73,25,102,616,362,-1645
-68,-29,99,442,223,-1586
32,124,-95,1576,3432,-3568
-77,2,108,1714,3385,-3958
92,-96,106,-28,3597,-3716
-59,-34,5,-382,5012,-2897
9,73,-128,-818,3885,-505
-79,86,59,-935,3996,1134
-73,76,108,3442,3712,3832
88,38,47,3605,4492,5987
-52,13,44,3291,3703,6610
-51,-21,94,3559,4505,8167
-3,40,-27,-5565,5388,6509
-50,-17,86,-18085,1233,-4117
-27,109,89,-1356,-10933,-1646
103,-102,101,-3670,-4114,-8820
101,-102,-4,3133,-10087,-6880
-120,-110,-1,-5424,-5316,-8269
22,78,99,-407,-3262,-8822
-72,97,40,-1522,-1511,-6485
-93,15,116,-932,-1787,-3989
-104,111,-121,-1223,-1520,-2474
-45,58,-52,-359,442,-1265
-93,42,120,867,-282,506
-95,-94,127,-559,-388,2312
-2,-20,91,-845,9,3717
120,17,32,102,-127,5875
-119,-11,-4,699,-770,7894
-87,27,71,-771,1098,5417
57,-16,-51,1526,-286,4953
-14,-56,-18,-621,-395,5183
-103,113,49,-1215,-671,4948
-83,-62,-3,-3441,-1211,4046
-29,-31,-119,-3312,-601,2984
110,-37,74,-400,123,620
-34,32,-57,4446,270,-1319
-81,-107,-116,4158,395,-1107
121,73,93,1904,711,-1041
113,10,81,481,557,-555
81,-47,58,1094,-88,-116
-126,-57,88,949,36,-177
-81,-64,111,364,-89,-275
9,21,87,5157,-4787,-819
60,-21,-82,-60,456,-7459
-111,-113,-102,-3152,5799,-10835
-45,101,100,-3343,5789,-4168
-14,50,83,846,4513,2242
-13,114,34,-2127,3193,3732
-42,-65,-91,-629,-547,8255
66,95,108,-4581,-5504,10485
120,-106,-58,-853,-8290,7264
76,66,-76,-297,-7936,-3939
-17,-116,102,-3627,-2956,-11020
80,22,-19,-1594,4114,-11464
76,15,-109,-24,6512,-6594
91,-49,106,1837,6070,-1800
40,109,-84,-1594,4203,6312
84,-34,22,-6786,4672,10596
-76,102,-84,609,245,12213
-51,-102,41,-133,1340,6740
20,46,-18,-6564,-5604,-324
-21,-20,-78,209,-8503,-6040
67,122,-62,-374,-6211,-8579
-54,68,91,-4840,-7414,-10494
-25,-126,83,-2882,-4649,-8118
-49,-84,-44,-3494,-1051,-4656
-105,20,31,451,-1756,-1894
-17,115,-124,1700,1725,1197
89,-106,-93,-570,1026,3187
-51,-95,28,-855,1110,4981
120,-110,-63,-532,178,7340
-36,77,-101,132,1212,6789
-74,55,-117,-727,-170,4996
59,52,15,84,-170,4679
2,-121,30,2054,-870,4694
-57,-113,-119,-846,1879,3546
-124,35,20,1300,296,2919
69,-10,64,1130,126,2470
63,-20,103,-227,1808,1562
-30,-73,30,1111,78,1224
-79,-73,70,1444,-61,-236
-70,101,-97,1245,-255,-1043
-43,113,53,-2563,1470,-6206
125,-109,91,-1868,4990,-8914
-97,92,-2,-2285,5516,-8211
-43,-125,-35,-1576,5305,-3762
-119,-31,5,-1122,4016,-1701
-48,-1,43,-497,4019,-199
-41,9,-119,345,2762,2847
8,-40,-92,-2126,1399,5917
105,-115,-47,-515,310,8611
-56,-62,28,-955,2041,10863
-24,-78,-94,4684,2575,11781
-112,-81,-23,-8143,2064,5495
77,-74,-24,-5359,-4213,867
16,19,-50,-4426,-5352,-5298
25,-15,-50,-56,-6753,-8256
71,29,-55,-1317,-6609,-9081
-83,-39,-92,-4282,-7005,-9732
9,36,58,-5541,-3662,-8773
-10,-87,113,-1485,-1218,-5145
65,74,29,1190,-1305,-862
89,-95,-92,1004,788,1440
-31,-47,78,-1031,1062,3705
-79,102,-45,-12,1969,5299
-105,-101,99,-1568,1565,7522
-99,-36,41,577,1045,7575
-26,31,-39,-1539,1465,5909
16,-101,-84,1,-882,4705
-122,-96,47,-651,-9,4056
31,10,93,-400,-988,4797
87,0,-40,-18,211,4171
14,19,-126,1079,-57,3566
120,47,79,2053,-1091,2446
-43,87,-128,1310,-807,-471
-99,-45,-109,395,-222,-1284
115,56,-123,780,-247,-1397
-114,6,-104,636,-240,-1654
-81,-50,-86,495,-217,-1988
-42,-125,-66,172,19,-2125
-8,65,-74,277,27,-1965
-29,5,-94,379,-38,-1273
18,-12,1,-3104,657,-4749
-111,-62,-127,-2613,1632,-6977
-91,-125,-65,-2674,2239,-7404
52,1,9,-3768,2689,-5592
-40,-34,117,-4411,2570,-3057
107,-89,-56,-4165,4470,-683
-89,-78,10,2530,3570,2502
2,52,25,1062,4156,4733
-121,-29,108,-1682,1459,6979
88,47,106,-478,-748,9548
21,-108,-76,-1566,-1374,9486
67,14,63,-869,-1194,8421
41,28,-50,-9761,-4153,1659
55,-120,-114,-4376,-5306,-2230
-47,-77,61,-2309,-3168,-6701
-12,39,-2,-2877,-1517,-9397
85,-44,-34,-2350,2147,-9992
-27,-65,-111,-961,4064,-7347
-82,-20,-39,-1221,4995,-3870
-45,-49,83,-137,3710,-1325
0,-22,121,-185,3859,3663
29,55,-82,-2796,4911,4362
-52,-4,28,-3053,2929,6712
80,-58,27,-989,2141,8591
-84,51,-61,2553,1939,9616
65,-122,121,-3527,2974,7374
15,-29,-12,-5817,808,847
4,-7,41,-4939,-6342,-1881
32,-27,-47,-2770,-5675,-7648
16,82,72,327,-8176,-7865
111,9,39,-2740,-5108,-8148
-50,-67,-75,-2742,-5267,-6801
13,-7,102,-4540,-3592,-5542
-89,119,-100,-1851,-696,-4165
120,49,-94,592,-1065,-2145
47,-64,-11,-172,-135,-583
14,21,-23,-440,174,651
-49,67,-67,287,265,2977
-4,-54,-91,138,857,5099
-47,63,-101,360,1218,6188
-59,46,85,-181,2565,5378
-88,-4,-28,324,1344,5327
-68,-100,25,1179,1309,5140
-76,-45,64,951,1534,3521
96,9,40,518,1368,3529
65,-73,54,-592,715,2821
68,-100,113,-1697,296,2647
40,-97,-123,-573,206,1542
-70,84,70,2115,-1084,899
-96,89,-128,879,-655,533
109,86,-80,-681,-306,263
86,47,-82,-356,-324,-124
101,-3,-78,337,-442,-168
74,-19,-77,425,-1066,-509
87,-102,-59,969,-288,-60
46,87,115,1900,-190,60
106,82,115,850,-378,-206
112,12,97,420,-361,-151
96,-14,96,130,-281,91
69,-38,60,482,-151,409
75,57,44,-241,-431,292
93,44,71,943,-519,527
90,-122,110,-6,-32,641
90,-66,94,-1030,144,200
65,-108,68,-423,12,42
38,106,56,409,-205,283
43,-102,61,-50,78,398
48,-35,33,-42,-107,-125
55,-59,32,363,-64,-112
75,-73,18,335,-40,-159
91,-80,18,127,10,-219
79,-90,8,33,-172,-442
84,124,35,53,-39,-248
87,-122,29,98,26,-214
97,-101,15,11,-48,-128
95,-63,17,-368,73,-145
95,-44,10,-274,84,-111
121,-23,7,-163,207,-160
121,-20,-14,79,40,-316
120,-17,-13,-39,71,-338
-72,-94,120,-1921,908,-7419
-47,-66,-72,-1792,1841,-7449
122,-80,-89,-3049,4141,-5983
91,29,-116,-1354,4420,-2636
-65,-29,20,1982,4527,344
19,-7,-33,-818,4882,3645
-59,106,31,-4033,15,7797
-83,69,-98,-4524,-3723,10494
14,-117,66,1438,-3637,11883
-25,38,-72,-10122,-3753,1407
110,35,-20,-2574,-7168,-4767
-22,16,-49,-1515,-1663,-7393
46,-98,-66,540,754,-10015
-103,63,-100,-531,1818,-9678
16,51,122,-4899,5686,-6586
-15,9,-24,2086,5623,-1393
-128,80,-41,-2790,7166,4564
96,42,-81,-5666,1809,9030
-21,118,-65,-3214,-262,11600
-109,-97,-53,5696,-2009,11477
88,-111,-76,-11653,-3653,-226
108,41,0,3204,-10656,-5901
62,-54,-110,-153,-8736,-9094
120,107,2,-4848,-9378,-12167
8,35,-116,-2994,-2770,-9556
8,30,-83,-533,-28,-4071
-117,-41,-116,-80,-1079,-960
32,-73,98,841,1574,-36
-29,63,101,-310,168,2578
31,14,54,-1291,202,4860
-51,68,26,-2217,243,6366
50,68,50,49,-1057,8162
-22,7,100,-1058,429,5934
122,-58,38,1605,-1143,5300
62,-96,-105,2,530,4641
5,-53,109,1387,987,4163
-47,-46,39,269,247,2811
86,95,50,309,93,2163
-31,-34,58,648,-72,1683
-66,-66,64,1160,-239,1225
-98,118,-118,-583,3009,-6410
7,39,72,-474,4606,-4881
-23,87,27,-519,6213,-2369
51,124,-37,1825,5109,677
24,88,91,-897,1301,6746
-77,-4,124,-2445,-5103,8854
-103,-11,-9,762,-6633,4956
-105,-49,67,-3199,-5053,-3173
-119,-124,47,-369,-1479,-9573
-8,51,-52,-385,6276,-9213
-2,-93,-103,667,4962,-4984
48,-123,6,683,5481,245
11,120,20,-5471,4597,8323
67,56,-11,-3402,1019,11268
-60,-44,69,604,614,10749
-128,-123,76,-2237,-1669,1985
7,-38,15,-3767,-9771,-4307
56,-92,98,2266,-9243,-8773
-97,82,98,-7062,-8147,-11765
-78,-1,75,-3189,-3352,-10182
-17,-69,-94,788,-52,-6367
-2,-31,-124,-565,607,-1229
29,-73,-92,-576,-739,1540
-73,86,61,-524,-401,4455
-61,56,80,-1308,179,6720
-57,13,39,-985,352,8205
-64,-28,63,-694,-467,6723
-84,32,85,-1543,-889,5512
26,-17,-112,1461,-829,5374
-26,-79,-75,-77,-346,5277
-3,-16,-108,1753,912,5346
-66,11,26,3240,-65,4489
-65,-85,2,1748,-207,2295
-7,-118,14,682,-184,-346
-119,-36,45,1315,-319,-519
77,51,77,1263,-223,-718
91,-42,82,1755,-369,-603
109,-92,112,1134,-594,-926
-107,123,-96,-15,-472,-1045
-93,100,-95,-669,-533,-1220
103,9,97,-1354,3029,-3761
112,99,106,300,1903,-5808
59,58,29,-2054,2772,-6479
11,-4,50,-1495,3504,-4167
-122,-44,48,-2215,4248,-2179
58,118,71,-2175,4850,-557
91,102,-44,-1774,3687,1375
80,-34,33,2379,2576,3644
83,-22,-87,2456,989,5138
-70,-54,97,280,4233,6140
-56,-73,17,-103,3833,8713
51,-35,-64,1242,3711,8979
-99,85,63,-1148,3644,5906
-61,7,26,-4096,-1001,1681
105,38,-74,-6737,-6668,-1260
-1,26,88,-6255,-7500,-3840
43,-43,-37,-8045,-6637,-7488
-108,-36,82,-113,-4306,-7452
-38,69,64,-2888,-3118,-7053
-21,97,-73,-2498,-1047,-6354
15,84,120,-1365,-1692,-5112
-124,52,-66,-841,-573,-3453
-103,-51,-29,178,114,-1207
-26,19,-104,-466,-1080,755
-25,-72,-117,-1253,198,2397
-3,-68,94,10,-35,4054
-103,64,44,215,104,6410
2,-100,58,-763,488,7384
-63,-104,50,237,77,5603
-68,-91,83,1982,-522,4191
80,8,120,-801,399,5033
22,-122,98,1287,-751,4281
-31,-58,91,1013,113,4343
-113,-96,111,1314,-406,4153
52,-22,125,1424,53,2773
-29,52,124,1245,-57,869
-108,23,123,1310,-36,218
42,-10,-127,722,-546,-756
56,-68,-90,53,-10,-1513
116,58,-83,11,28,-1978
92,63,-111,428,2912,-5110
106,80,103,1017,3171,-5653
-50,75,32,-393,3254,-5793
-12,80,-121,-1448,5758,-5600
-124,39,-92,-1051,2922,-2821
53,27,-68,-1459,2614,-353
-102,20,111,-398,3371,2154
10,-110,8,-3051,1993,5186
1,-50,7,-2374,404,6194
55,-49,14,-2130,-1144,7826
127,-73,4,-147,-2863,10202
47,-33,17,-5349,-1504,6433
-2,-98,23,-4557,-3403,-1868
-81,85,60,1714,-6457,-4768
68,-5,109,-37,-4917,-8337
94,-102,-94,1425,-5920,-8963
-58,6,51,507,-4508,-9636
-22,94,48,-676,-3745,-9230
12,7,-60,-1869,-2930,-7735
73,-51,-52,-1627,-410,-5712
25,-22,64,2126,344,-1573
-58,-95,-72,475,556,2092
111,125,101,-1992,-539,4525
70,48,-82,-1966,-97,7224
-38,-28,1,-2477,174,9444
34,3,74,-2267,394,7260
56,-44,-72,-2267,-1741,7091
-50,-77,-54,-29,-2152,5977
9,107,104,-3667,-170,6094
-10,103,100,-2455,-1067,5751
-123,-88,38,1951,-2001,5926
-95,-19,-15,3115,-2006,2990
48,-37,88,3684,-2269,445
-86,-38,-124,115,-241,-138
58,-127,93,520,-645,-921
87,-1,-102,1002,-475,-1535
-65,-128,-48,1617,-281,-2782
-97,113,-56,3078,-907,-2851
116,-12,9,921,-980,-2106
-128,-13,27,-907,-572,-1852
84,116,-104,63,1730,-6555
23,-3,-125,557,4506,-6792
-6,19,100,655,4984,-5234
-30,-27,94,-242,4786,-2700
-93,-14,-116,118,3584,443
59,-107,86,-418,2448,5444
-43,122,46,-3531,-298,7374
-83,39,-119,-2984,-7034,9190
64,-3,-97,-1365,-5448,3150
76,43,21,-3905,-5537,-5477
39,-63,0,-1058,-313,-9249
123,-116,-59,663,2176,-8802
-1,107,-110,-1214,3742,-6393
-62,-128,109,284,3867,-3244
46,-64,33,-2683,5066,1508
7,-88,49,-3531,4668,5704
-128,-76,44,-3821,2688,6843
20,-65,92,-2334,-416,10908
-63,-98,115,202,1972,10229
102,51,-115,-5689,109,7537
85,50,124,-1721,-5389,-4026
27,19,-122,-3417,-6756,-6996
17,75,116,-2418,-6803,-8925
70,24,-4,-4302,-4099,-9508
-77,12,85,-3067,-2563,-9925
34,-82,40,-3311,-798,-7918
-39,-18,0,-2519,-55,-5832
-25,-103,-10,-756,679,-2844
88,84,-35,1773,485,336
-29,94,-64,158,-390,2630
79,-94,9,-935,115,4173
-82,10,21,-983,-26,6186
-17,90,51,-1289,-645,7641
35,-118,58,-399,-350,8240
-72,105,106,-462,-1608,4802
-70,-23,-78,-521,-1789,5599
-47,-51,-69,1136,-1907,6169
123,-124,-89,1694,-971,6520
69,51,-123,756,-52,5537
-53,-43,113,687,-681,1070
87,-53,-53,425,1753,-7103
-73,105,106,716,2635,-8602
-122,-96,42,-1227,3804,-6676
-30,-114,-56,-3517,4386,-5011
62,-58,63,-1551,4302,-1696
9,-98,107,960,2380,1359
40,77,-56,-3505,1138,5067
-1,-8,-46,-4049,153,6240
60,66,115,-3075,-1873,8770
-1,-18,78,-1395,-3917,10566
-51,-54,109,-8507,-2803,2545
100,34,-114,-2233,-8331,-7343
43,-97,-2,467,-3447,-9887
73,15,-40,-3460,1675,-11042
-8,-93,-108,-466,3482,-7117
-16,-14,118,-818,5903,-4024
-89,118,115,781,4254,92
19,1,-32,-2666,4798,4307
-37,20,-96,-7222,7015,3988
-102,95,27,-5185,567,7485
-103,52,-77,-2224,661,10326
114,87,86,-7414,-2637,9276
57,88,12,-6025,1171,94
81,99,-56,-265,-9396,-5380
34,44,-27,-2595,-8169,-9460
8,-29,-40,-1066,-9071,-10527
-125,96,18,-4233,-4195,-12282
12,98,-15,-1753,-2278,-9358
-38,-96,-13,-1006,1565,-6348
22,-47,53,1753,1463,-3243
89,69,114,377,932,1338
-115,-3,-10,-2361,-583,3910
-9,2,-5,-2683,-1145,6386
99,-128,98,-1840,-900,9207
6,103,45,-2113,-1472,9528
-27,29,90,-1782,414,7322
-117,-35,-22,-551,-2018,6743
68,50,53,-2402,-1185,6198
-55,-20,58,-1481,-1809,5426
-47,-6,90,-238,-1883,4038
-71,86,76,-813,1446,-5671
124,91,112,526,1932,-6001
-116,107,115,247,1828,-6216
67,64,80,-1414,3403,-4740
122,-86,25,-786,3709,-3582
-80,125,-2,-2120,2703,-625
-32,-81,46,-3374,3616,952
-4,-15,-100,-1063,2058,4798
-105,3,60,228,1323,6349
-59,-4,49,2659,2805,7659
-89,-3,43,-2465,6165,7801
80,-88,-73,2914,812,6754
-100,-81,32,-5254,1608,5590
-57,-83,59,-6414,-437,34
-23,-126,-9,-3464,-7267,-3269
32,-112,-68,-4148,-8318,-6164
24,-88,16,-5168,-6322,-7600
102,-102,-64,-722,-3435,-8178
-70,-107,127,580,-2946,-7538
16,75,15,-871,-3369,-7512
-76,33,22,-1812,-2169,-6423
121,5,21,-185,51,-3304
105,-35,-80,1170,-905,-691
-65,-65,-57,-1360,-844,142
-115,87,-51,-2086,-273,1898
-110,-38,-66,-268,-887,3232
-2,-40,-49,-1503,-509,4669
113,-80,-69,-884,147,4592
-33,117,87,12,-578,5064
7,-47,-97,-233,-235,4354
12,-112,-75,1377,-155,4009
117,115,36,2278,2260,2689
-39,78,-56,3173,2515,4520
38,-27,82,3788,2788,5071
81,98,69,1061,2714,4328
-55,-29,79,-1289,906,2524
94,-107,97,-1341,539,2526
-21,117,116,-618,159,2841
-50,-104,107,-260,621,3243
-87,-49,82,243,321,1745
62,-53,-5,1027,-1831,-4305
-50,-105,-53,-4447,2926,-3547
-91,49,-22,-3692,3300,-3251
-105,-51,-4,-2165,3485,-2319
22,47,118,-2215,3405,-707
-33,-48,53,-1164,2713,1133
1,120,-67,765,2311,2456
97,90,120,-390,2719,3592
-99,-10,118,-899,2678,5485
76,-121,109,1097,1845,6216
125,-96,-100,2798,1897,7983
69,59,119,797,4110,7723
-72,69,41,-5529,-43,5206
-47,-88,122,-3702,-4822,773
-31,108,79,-2611,-7055,-1951
60,70,-1,-2830,-7847,-4115
-102,119,91,-3457,-7759,-6384
10,28,-6,-371,-5945,-7070
7,90,-54,-3706,-6122,-7653
70,-15,74,-3292,-4610,-6720
42,-128,-50,-1686,-1363,-4075
38,60,-48,-366,-844,-1995
-93,3,-47,921,82,442
127,-35,-44,-932,69,2326
-31,-103,-31,-1303,661,3938
99,-7,-98,-678,1036,5983
48,30,64,-510,463,7229
-124,-1,15,1041,896,6901
120,108,-47,740,393,6833
124,2,-69,186,-1928,5592
24,-29,-117,-2506,-770,4852
-57,61,-30,-1518,915,3891
56,108,-79,533,1051,2946
55,74,127,2478,-145,2787
37,-126,-128,2591,-896,2825
-47,-37,103,2327,-1335,1087
-101,-26,-81,776,-428,59
82,-79,-59,-264,51,-614
50,120,-80,93,-127,-1036
104,97,-53,-511,267,-1755
46,-19,25,1662,-3597,-2202
50,-119,-80,439,-451,-517
65,-5,-11,-132,-1737,-4539
119,34,19,-2188,1616,-5956
-78,47,-11,-2581,3805,-7139
-49,-77,-108,-2855,4742,-5426
100,29,-90,-2349,4153,-3623
93,-93,8,-1872,3781,-1629
-127,-17,-100,-111,2688,1023
-83,61,61,-524,2751,2907
83,-75,57,417,1550,5522
96,45,19,-1299,1911,7247
98,79,-69,-1786,907,9181
-45,-66,-61,-3613,-1872,7826
1,115,-113,-1873,-4661,7198
-6,21,103,-2867,-3286,2710
81,24,58,-1002,-3754,-1236
-47,0,-114,-3330,-5477,-6546
21,-48,-60,-6183,-4468,-9400
108,91,43,-3790,-1877,-10306
14,14,-53,-42,118,-8980
-18,-2,-43,-1903,-282,-8187
-102,108,-75,-894,-285,-6064
-22,-44,-38,-1122,-8,-4320
-26,65,60,-105,343,-2220
-109,118,76,944,247,219
89,-25,53,-491,-167,2212
-118,30,52,-283,-541,4466
107,-85,2,312,-1118,6503
-92,-96,7,862,-1243,7157
-125,20,113,1210,781,6096
-35,-37,92,-1047,-1388,4125
-14,91,-82,931,-1184,5926
-62,65,-24,-878,-601,5494
69,14,-97,282,-1091,7143
-14,-70,-91,1577,-1506,9013
42,125,47,865,919,6610
-108,-18,47,-31,556,2088
113,-106,84,3194,-2665,-3657
68,42,-67,2381,-1819,-3525
-44,-68,-44,1766,-5681,72
78,-78,51,412,-216,-652
22,-12,78,1269,-806,-1443
56,33,-38,580,396,-2499
-59,-40,-78,405,642,-4112
32,-49,-86,296,2443,-5744
-98,-28,110,-150,3838,-6798
-4,86,79,-365,4738,-5583
-38,99,56,-764,3668,-3259
49,-126,-45,-2319,3599,-1890
107,87,-119,-965,3182,1485
26,48,-39,-363,1839,4142
-21,-70,118,-2419,1986,6116
-50,73,-9,-1665,-726,8719
-77,16,118,1532,-2253,10930
60,83,-12,567,-1557,7680
-7,35,82,-4912,-4323,985
80,-57,-70,45,-5624,-3240
73,-95,84,-2666,-5944,-6808
119,114,-86,-987,-4967,-8111
-27,86,112,-1264,-4640,-8675
-9,25,-69,-3067,-4078,-8785
8,6,78,-2135,-2340,-7132
74,-67,-5,-584,-763,-5031
31,-105,44,-245,206,-2430
-54,64,-58,-18,-152,1310
24,121,-114,-185,-358,4898
117,10,-113,-1251,383,7050
-19,124,109,-1801,370,8344
104,-88,33,632,-488,7998
108,111,-55,436,-326,7213
-64,-101,-61,-38,-901,5653
36,-39,0,-881,-1021,6233
-75,-96,-39,-1432,-1592,5935
-111,38,43,1995,577,2985
-27,-124,-85,4209,-952,2612
-11,-63,-41,2506,137,294
-98,57,-82,2510,547,-627
86,-87,98,2175,115,-967
82,40,108,1287,-202,-1339
-78,71,7,-1005,1690,-6266
-6,-106,-111,-3052,3410,-7941
88,17,102,-679,4543,-6333
-57,-34,101,-1798,4919,-4497
-13,47,-88,86,3713,-2156
124,27,37,-3818,3493,-811
35,45,83,927,2512,2558
103,34,-79,-1710,1322,5812
-91,-59,-11,-1695,91,8148
111,12,21,-832,-1094,10547
121,0,31,-2806,1171,11040
-25,-31,90,-83,1387,7248
84,-70,33,-6649,-4465,672
69,-28,93,-3670,-7395,-6154
48,-52,-43,-1638,-6160,-8395
-118,106,-120,-679,-6363,-10847
19,-50,114,-964,-3730,-11241
3,-21,96,-2675,-1081,-8549
-69,83,74,-161,-306,-5686
82,84,-32,-277,526,-2756
-118,-73,37,340,250,2010
63,-47,-19,-2490,-1207,5675
99,0,37,-1471,-1337,7033
108,81,118,-2297,-2582,9023
-82,125,23,-1162,-1370,6567
48,91,-71,-664,-2705,6819
90,40,-53,-413,-1839,7039
71,94,-69,670,-1891,8237
73,28,-38,537,-1292,7597
-3,-22,-80,1309,-1552,2930
-68,-128,-64,2714,-2402,-1349
110,37,-78,3399,-13,-586
34,6,84,2275,423,-494
37,-27,2,1219,-275,-636
-94,-73,74,268,-1181,-2043
35,105,-57,-784,-718,-3700
-73,-90,43,-1318,149,-4573
-65,4,-1,290,614,-4109
63,-72,-75,1104,-185,-2941
-14,-4,-98,415,-226,-2174
-127,-76,-16,-3150,2631,-2266
-11,-30,118,-650,3494,-5917
86,-34,-105,3821,891,-4294
28,6,101,1206,2126,-4795
-88,5,29,-1943,3112,-5898
12,-98,-62,-4064,4133,-4047
-48,-30,105,-4255,3141,-1923
-11,36,-38,-1602,2899,1540
-44,82,11,2170,1327,4601
-62,76,-100,-599,1897,5957
77,32,116,-631,619,8008
-25,-82,83,917,76,9431
59,-43,-122,3474,790,10542
-79,42,-124,-3678,82,7424
-43,-26,98,-4314,-2039,892
-80,-71,108,-4744,-5858,-1066
-9,-3,88,-5074,-5041,-5641
19,-101,50,-4207,-3395,-8065
90,126,37,-93,-2340,-9242
2,-101,-77,-1715,-2216,-9972
-19,-66,104,-4732,-2399,-9276
2,82,-94,-3903,585,-7533
99,-106,43,1594,1163,-3546
68,-20,-62,-177,154,-717
-105,-28,-119,-604,-501,1072
-100,120,-91,-637,-1077,2980
-24,-22,-79,-1056,-1260,4837
-103,30,-124,1302,-2302,7407
-77,119,-15,2606,-4170,8857
4,13,94,-1304,-1735,3613
81,115,-72,620,-2719,4697
-98,-102,-84,1764,-167,3850
-79,-91,57,3068,3303,4164
-57,8,-118,3644,205,7646
107,-111,-108,1579,1361,6496
3,112,-88,-2151,1114,3586
49,-108,84,-1193,-777,34
-70,17,118,511,-367,-697
118,121,112,2213,95,-646
105,94,53,1762,-56,-841
39,12,86,-1353,838,-5412
120,-99,-64,-1938,2017,-7525
3,-44,113,-1503,3348,-7279
-45,53,-89,-1479,3089,-5648
32,-109,48,-1902,2685,-3026
-23,-74,-112,-2863,2921,-1719
-116,67,-103,-278,1869,858
45,44,123,-557,2088,3816
89,40,21,-1195,2857,5348
52,-23,-37,234,1665,7617
-21,120,-73,1366,1645,9171
5,46,-109,4847,564,10276
121,-49,-39,-3838,3623,7679
123,107,53,-1431,-4860,2735
-95,-70,-69,-7145,-7616,-907
-59,96,-18,-6413,-7171,-3851
-5,120,29,-4030,-4731,-6026
85,-6,-85,-2406,-3670,-6992
-55,55,64,-4785,-4687,-7791
-64,-5,99,-4114,-2363,-6332
-118,31,0,-1612,-1327,-3935
114,113,100,-1949,98,-1596
-37,-62,86,-1590,772,-461
-112,-90,19,-2425,1256,967
118,-65,-7,-590,374,2524
59,-46,-69,325,-678,5240
-69,-71,-20,1036,-2672,9303
27,-31,-40,1155,-583,5908
49,-126,1,639,311,4809
-60,2,85,630,1384,3868
-114,-119,59,24,1982,4419
-102,63,-56,373,1432,3570
87,42,-106,905,-63,2851
30,-4,-84,193,725,1539
-77,67,112,1139,-160,890
-86,-26,125,1603,-38,1497
104,-13,-116,1094,-325,1296
-128,-11,-83,802,294,771
-120,-46,-95,911,-263,572
99,-27,-64,263,-566,70
1,-40,-118,79,2405,-7428
52,48,71,-667,3281,-7047
-67,-72,102,-1812,3691,-5433
99,-85,-97,-2055,2790,-3384
-88,113,-30,-2567,2988,-775
-38,-24,108,-601,2040,1398
-18,38,28,-2171,1424,3657
24,-6,36,-2133,885,6234
-58,-73,4,-1156,289,9116
-80,-9,-25,-930,241,10325
-52,19,-109,1873,-1132,9633
68,-61,-97,-4245,-1550,4502
-46,-58,21,-3519,-5720,-939
-40,-32,-43,-2601,-7053,-5436
19,-96,14,-2433,-6217,-8380
122,39,1,-786,-4644,-8936
46,-121,-33,-2568,-4465,-9356
13,121,39,-2100,-3131,-7627
-21,3,-36,-1529,-1777,-5416
-75,-51,95,79,-264,-2159
43,-112,44,-296,90,1024
-85,54,-25,-972,443,3075
-31,18,113,-58,182,5413
-66,112,35,-1175,378,7132
-120,-26,-22,1277,-405,7207
36,14,-108,-165,70,6018
120,-29,-42,-131,-726,4529
-70,-48,119,1239,-417,4312
-109,-92,-91,398,-88,3624
78,41,-117,1005,-151,3632
20,-43,-106,1120,-402,3413
27,-88,121,1903,358,2890
3,-72,89,2059,339,2680
-93,78,99,-540,1447,1696
53,84,88,83,-777,-498
97,-56,-90,95,141,-1274
-116,84,-127,1173,-21,-2340
-74,-28,-126,868,-151,-2596
-43,-86,-103,-36,-167,-2569
-38,111,-105,-207,-285,-2505
87,114,-100,-4235,3381,680
-3,54,103,-1205,-827,804
-118,-59,100,3098,-3393,-196
-51,-94,106,-1035,-270,-8150
-24,-4,123,-316,2847,-10291
36,-71,-8,-2366,5901,-7521
30,-17,21,-1397,5502,-3389
-7,70,14,986,4314,321
111,-122,-45,-870,3483,2857
127,-112,-8,-3195,1501,6602
-35,53,92,-1943,-1825,8166
-126,-4,28,-2373,-4385,10828
-93,-40,89,-2018,-3656,6934
76,-65,-85,-5596,-5606,-4222
65,-67,-84,-84,-3848,-6969
78,89,-15,-1426,-1007,-10257
-76,80,-89,-1365,1802,-9283
-52,107,115,-2365,4913,-6586
81,-43,108,53,4888,-2553
-70,-43,8,-410,4235,1629
-110,-20,-22,-1771,3692,5689
-53,116,-7,-4092,3856,6596
82,-10,69,-3596,2791,9440
13,-58,-81,2600,2637,10741
-83,-61,-72,-7214,2883,5984
-15,-18,42,-2712,-3042,1323
46,-56,-99,-3276,-7127,-3875
34,-69,14,-3990,-8173,-9357
78,-24,-16,-2548,-7347,-9304
-74,-116,125,-3450,-5072,-11156
-57,-30,-69,-3229,-1893,-9812
-53,-82,125,-1258,-1297,-6713
-4,59,-95,-1150,116,-4319
65,22,100,390,732,-584
80,-17,25,-195,-389,2638
60,44,51,-1100,-565,5222
57,-35,119,-1700,413,7624
10,7,-84,271,-1497,9042
100,-94,18,826,1727,7121
-63,84,122,-1541,640,6123
73,124,-14,-394,734,-7253
-81,69,78,-971,2323,-8391
18,-102,-54,-2169,3038,-7610
-35,3,-116,-4758,5192,-5239
119,9,90,-2576,5412,-1702
-4,108,97,55,3699,1823
-71,77,-3,-2807,3262,3898
-78,-26,-36,-4027,945,5243
-60,103,-22,-1949,-801,7252
-11,101,-23,-1672,-1534,8617
89,1,-94,-1474,-2924,8746
112,78,-30,-6466,-5229,3079
62,79,-27,578,-4168,-3102
-62,12,-29,-300,-5284,-5334
90,-16,-44,-3665,-6936,-9594
109,-85,71,-1377,-1355,-9992
-20,57,59,-1233,-1545,-9316
-33,-120,-2,-2514,-465,-8296
123,-125,-96,-1462,-25,-6519
106,-113,-52,-1090,-522,-3215
-126,-11,-27,-171,179,-350
74,50,-32,-1145,-1016,2480
104,39,106,-780,-884,4715
114,10,-99,-683,-247,6931
-43,98,107,30,100,7502
-50,27,-87,899,-1657,8152
-50,120,74,-2017,-1677,4613
-109,58,-59,-284,-3540,5376
-123,-119,-17,-1442,-1144,3426
-25,-21,0,-729,-832,3474
96,-40,-36,-1121,-463,2021
-61,-113,-96,-343,-256,906
127,27,102,1262,1,535
121,-60,-19,1916,453,79
107,113,127,2124,435,-182
78,18,36,1739,-1,-535
89,-24,47,462,-81,-753
-123,-46,77,-851,-94,-673
-63,-59,111,-802,95,-905
-104,-99,107,-33,-264,-540
-33,-52,-104,1602,1410,-4594
55,-101,118,1700,1601,-6147
102,16,122,117,3678,-7240
15,64,72,-935,3636,-5489
-103,-99,37,-1124,3007,-2702
-79,17,-82,-738,2856,56
104,-38,75,-1080,2870,2464
61,-111,-115,-2464,1315,5551
-24,48,99,-1296,67,8341
-37,51,-35,-1158,-929,10771
-68,16,-120,980,-3795,9067
62,5,50,-7126,-1782,2053
106,6,118,1115,-6482,-2324
56,-39,119,-4866,-5692,-7917
102,-74,64,-1207,-3768,-9643
-33,26,11,-844,-2391,-10310
-44,115,-44,-2159,-1643,-9103
-56,127,31,-1346,-989,-6551
123,71,13,-883,-354,-4385
86,-103,-90,128,945,-2097
-112,-17,68,1598,-41,747
66,-11,45,-937,-1046,3336
-103,95,59,130,-883,5236
-117,98,104,-37,-1797,6452
92,42,-90,486,1957,6750
-77,122,70,390,289,5487
-98,48,59,971,926,4685
80,14,81,-1450,427,4572
70,-61,-39,401,-682,3120
67,-42,-42,766,948,3488
49,-86,99,2243,409,2587
5,87,69,2023,367,2889
-39,119,90,651,113,2450
-67,-81,124,-605,93,1273
-115,-100,113,278,-282,429
102,109,-104,926,-329,-293
96,67,-93,550,-325,-858
82,27,-90,-129,-314,-1087
82,-16,-83,-615,-163,-994
108,-29,-98,-595,-73,-1188
44,121,74,-2032,1388,-4902
19,-9,-108,-87,2863,-6468
109,-89,112,-1594,4789,-7574
7,-79,-56,-1352,5470,-5410
69,-94,-107,-492,5447,-3343
13,107,111,2028,4436,133
110,-47,-93,4142,2329,2045
84,113,-90,-2231,3061,3333
-93,45,-47,-6001,3618,5386
-30,126,113,-2045,-945,9218
-42,45,-126,-586,-646,11620
-60,-54,-45,-7725,-1954,6265
54,93,-126,-4230,-5538,-2843
42,18,-88,-3408,-5793,-7666
78,19,7,-5397,-2401,-12047
-17,90,-76,-2586,3771,-10648
-19,23,114,-205,4195,-6319
-107,-2,71,-102,3383,-3647
71,55,18,-3276,2707,-1376
15,-45,42,-2787,2803,2038
-8,1,116,-2253,2177,4514
-28,-18,-121,-2415,2218,7465
-57,45,-128,-1150,2084,10630
40,-38,-13,1386,2914,11767
-94,-35,-71,-4816,989,9673
78,-29,81,-4946,2873,-1578
126,116,-123,851,-10570,-615
43,-95,-41,-6218,-5145,-6546
54,-52,-3,-3256,-8356,-7182
-121,5,-72,-6662,-3186,-9536
-41,-40,-18,-1518,323,-8223
-113,122,97,243,-1710,-6775
35,-49,105,-1951,-639,-5460
0,100,108,-1200,518,-4377
106,-89,55,684,-81,-1373
28,25,57,-537,-117,183
-82,-99,5,-1129,-939,1791
-58,-81,-39,127,-1835,4046
61,88,-39,191,-2553,6476
77,21,-61,751,-2576,6285
-69,-13,8,2378,-235,4528
-69,-26,-28,3680,1020,2762
-85,85,-104,2990,1825,1370
46,-73,-33,1845,293,773
-30,121,34,30,742,-24
-108,-98,1,1351,352,223
-27,85,28,1281,503,352
71,36,64,1652,170,74
95,-31,-114,1390,-585,180
-37,-16,23,-354,-955,81
5,52,113,-1045,-112,-1345
-55,-109,20,-53,889,-606
-106,55,-102,-221,243,-134
-72,82,-78,-1953,169,-51
-51,35,-112,-2152,755,541
-91,26,97,-901,-52,1349
-85,50,107,25,-197,1933
-48,119,120,286,-157,2260
-22,-87,123,249,33,2240
-22,-48,114,315,-293,2025
-35,20,-117,119,-258,1564
-66,56,-109,134,-160,908
-99,74,-115,358,7,292
-109,56,125,487,61,-191
-114,31,93,403,-147,-407
-94,17,90,-83,-78,-733
-88,4,95,-209,-177,-1062
-60,-16,-126,-329,-74,-1397
-40,-41,-125,-238,16,-1645
-29,-70,122,-193,-19,-1770
-20,-106,118,-216,192,-1621
-49,-117,79,-191,54,-1245
-85,-106,45,-613,-119,-741
-117,-68,35,-1161,-119,34
-103,-21,40,-1012,-138,440
-77,31,52,-387,-73,563
-40,38,32,114,-272,637
-10,76,40,-160,-207,515
0,89,47,-4,-305,304
-10,87,58,120,-383,151
-113,-112,58,3183,-3035,-2353
52,-82,-56,716,-1045,4767
28,-41,-20,-1079,-3183,3978
7,19,-30,-4749,-1562,-2549
-24,47,-102,997,512,-7449
-29,-58,-111,-803,2985,-9234
1,18,119,19,5326,-8559
16,95,-115,-217,5125,-4818
8,3,88,1721,3014,-1715
25,54,-64,-2070,4538,795
51,-92,11,-3434,1336,4392
55,-24,87,-2120,-1396,7651
123,-46,-52,-3465,-1694,9476
7,-31,-79,2615,-4925,10792
-57,110,28,-8578,-3575,3588
109,-99,103,-3720,-5573,-4248
33,-31,32,-5266,-1669,-8165
61,76,-85,1140,1645,-8469
-111,0,-100,1255,2226,-9158
-66,-80,37,-4392,4666,-7000
-58,96,30,-1401,4161,-3640
97,-92,-76,-1485,3449,-1591
-5,-51,8,-2034,2716,1059
-119,-54,94,-2772,1905,4523
94,119,-113,-3803,2087,6711
-59,-83,-91,-3819,506,9335
4,91,101,-48,-166,10830
22,-17,124,-706,-1093,8029
103,17,48,-4475,443,6101
-63,14,6,-1211,-3439,-517
37,13,73,-5250,-5547,-4727
-6,84,102,-3280,-4842,-7267
44,-12,-20,-827,-3043,-8600
-112,-99,102,-721,-3581,-8979
18,45,-86,-1486,-2984,-9016
19,-92,-37,-1352,-1943,-7659
-23,-30,117,-619,-1751,-5114
43,-119,-89,-2276,-240,-2528
111,-14,-100,-120,386,-93
25,-110,85,-185,-247,2104
-100,-32,-21,-1290,-1830,8689
64,46,-26,-424,-577,5506
-115,-54,-65,-615,-1682,4788
-2,-86,-7,202,-1475,5036
-11,-107,67,158,-1462,5038
-77,116,32,991,769,3494
125,-19,-96,2015,723,3292
103,-58,110,1567,-103,3579
66,88,-112,-531,-105,2095
-8,-116,-124,-841,238,-114
-101,17,110,1179,-184,-1211
-106,-123,120,1377,16,-1503
-78,71,116,787,57,-1837
-67,1,-125,28,-189,-1809
-63,0,-103,-522,-46,-2280
-37,-81,-82,-152,105,-2420
-42,118,-83,372,53,-2031
-69,82,-96,716,-60,-1398
-113,88,-116,443,-185,-712
-125,114,-123,-207,-61,-181
111,-118,109,-364,-141,481
120,-98,93,-8,-218,1087
-101,-71,103,168,-342,1547
-42,-7,113,-34,-113,1683
-37,43,115,-526,-175,1419
-39,82,117,-573,-108,1112
-30,101,123,-198,-140,773
-26,105,120,257,-237,437
-40,-128,127,134,-159,-44
-59,108,-124,312,9,-475
-66,68,123,750,140,-701
-47,15,94,899,82,-821
-39,-11,78,716,3,-852
-48,-30,78,395,-110,-787
-60,-56,88,230,-106,-555
-61,-65,90,206,-110,-348
-70,-64,91,-15,-124,-2
-68,-45,95,-100,-65,232
-59,-29,95,12,-88,344
-46,-3,98,-86,-47,409
125,-39,46,4221,1312,-2082
53,7,91,-1102,779,-5217
22,-47,105,-379,-1008,-6569
-104,62,-70,-149,-103,-7507
-36,112,-125,-1511,3666,-6467
49,103,-107,-1747,3094,-4461
-25,114,65,-2281,4398,-2093
43,-18,-124,-1316,3314,-62
2,63,-14,-702,2452,2756
40,-58,-127,-3551,207,5272
-113,-117,18,-3925,-1111,7817
-36,106,-7,-2470,-7056,11934
-78,45,104,-2275,-4262,4221
37,-55,12,-2886,-7584,-3611
28,-121,-24,1132,-3758,-8961
82,4,19,-1019,-2066,-11439
-27,-109,-49,-1973,2175,-9887
-8,47,-113,-2635,5319,-6219
-91,95,-22,-1435,4227,-1675
-29,111,28,-821,2471,5893
99,-80,-22,-4305,4222,7347
120,33,-34,-8903,3561,12360
-7,-5,-50,2503,2886,9962
-60,-20,-48,-1442,-533,4782
23,-114,51,-826,-9988,-2462
89,106,-96,-3269,-10521,-7158
-61,114,-89,-3201,-9372,-10045
4,65,-86,-4497,-5771,-10477
-31,-108,73,-6043,3418,-9155
102,9,58,4030,274,-4411
29,100,-88,546,1062,-354
-5,35,-2,-1583,-248,2864
-124,-78,-90,-1040,-1147,5795
-109,-4,-123,-1260,-1649,8676
127,-30,-64,-325,-2107,10492
40,-37,-111,-4011,-2287,6778
59,-2,-93,-2199,-3346,6332
96,-46,-10,-1050,-594,5142
21,83,-100,1026,-845,3925
-123,30,-14,2459,-745,3703
-105,119,59,-3962,-1734,-2663
-8,0,67,-852,-249,-4351
124,-14,-40,583,1569,-6120
-96,20,118,104,2821,-7175
101,-70,109,-305,4349,-6995
-61,113,9,-1290,4740,-4721
-31,31,96,-1220,3990,-2737
6,82,-16,-1405,3775,606
-35,-122,97,-2688,2771,3849
74,107,-80,-6990,1565,5338
66,-59,-111,-5504,-2960,9306
53,-120,-105,1973,-4805,12839
98,-98,-2,-7946,-2602,5229
29,126,0,-1433,-8244,-1909
31,77,-126,1862,-4669,-8435
99,-74,-8,-866,-6869,-12643
-38,27,83,-2073,-4497,-12010
-44,-109,109,-2075,-211,-10144
11,-120,80,835,52,-6076
-124,107,-52,-1835,1021,760
91,-73,16,-1562,470,2021
101,-6,-107,-2005,-1092,5901
-112,-15,-53,-1793,-1444,8290
50,-121,64,971,-2695,9459
122,107,8,-3008,-1254,7151
-88,122,59,-18,-1635,5683
-63,-31,78,-332,-363,7005
-122,10,85,-1303,-263,7440
-86,-3,-61,1156,-2819,4802
118,19,-92,2527,-3115,-1004
7,40,-20,1406,84,-1209
-122,-51,-93,506,1050,-120
30,-83,56,1051,-491,-640
106,90,109,1323,-386,-1340
-77,-25,-107,706,160,-2017
-47,-122,-118,1108,-58,-2142
-38,54,-117,814,-288,-2317
-64,38,-116,-112,-325,-1462
-83,43,122,-257,-321,-1000
-66,119,119,-815,426,-929
-122,23,44,-1956,2009,-6462
78,-103,-104,-723,3596,-7005
100,97,93,-1084,5403,-5369
107,-33,-73,-1454,4413,-2195
54,1,-84,-1672,4492,57
-2,-91,-62,-467,3436,3046
-76,-77,-7,-691,1123,7847
-80,-115,-123,-6544,955,7963
-30,5,-111,-3059,-3222,10859
123,121,-126,-1219,-1369,8680
122,82,68,-4289,-3488,511
86,79,-122,-202,-5352,-5406
74,12,-57,-992,-7184,-8814
84,-69,-45,-190,-6198,-9549
-75,-120,88,-1994,-3172,-10148
37,-13,26,-1230,-1009,-8457
-23,85,90,-1184,-19,-7232
49,-77,-86,-550,-212,-6088
-68,-19,-73,1284,931,-4067
-128,38,67,2591,355,-1686
112,119,-17,-958,-899,192
70,-86,2,-2091,-1535,3265
97,29,19,-954,-2178,6031
-34,96,66,-925,-3933,8512
111,-35,110,-713,-2556,6917
-62,-2,-5,-180,-635,6006
109,87,-120,-401,-2930,6137
-63,23,-52,217,-1292,6455
-66,-128,-44,2696,-206,7925
93,-39,-111,3972,396,8815
-36,-106,29,1431,-1651,5409
-72,-51,73,-332,-2872,-1021
-69,-115,-21,-2259,388,-1238
48,-22,-98,1267,-229,353
25,0,119,2504,-579,-158
-106,54,-126,331,9,-1972
-38,-61,-96,-129,-171,-3093
56,-6,-28,241,-123,-3610
84,-109,0,516,191,-3648
45,72,-31,636,44,-3174
-66,103,102,-1384,-515,-6127
78,-115,127,-670,1426,-8643
-44,82,32,-1130,2661,-8144
-102,81,115,-2680,4379,-4871
44,-80,10,-1228,4648,-2332
-124,34,-127,-81,4239,1147
-42,-60,-95,-1995,3968,6015
96,42,100,-3024,598,9092
-21,-104,88,-4435,-1617,10922
109,-34,-74,5407,-1133,11578
124,77,30,-8761,-2114,1678
39,112,-36,-3516,-7983,-6372
68,35,117,442,-5600,-9634
111,-80,-53,786,-6183,-10747
-27,120,25,-2307,-4824,-11538
-29,-64,-59,-4186,-1959,-10339
9,-114,77,-2626,-1065,-7237
-47,-9,27,1296,-201,401
99,96,-5,-1304,-214,4029
-74,-77,-43,-1586,-958,6135
-24,-75,-60,274,-911,8109
-18,-112,-89,1006,-3290,10845
10,-51,-54,-2623,-525,6600
31,71,-35,1032,-3250,6326
-67,107,-123,29,-657,5290
38,-89,4,1251,535,4474
92,92,126,1971,-1087,4300
-61,-50,-104,307,202,2519
43,-57,-114,85,-203,502
-50,101,115,1059,-41,-428
-63,-33,88,1494,451,-911
-48,-80,60,1291,145,-1524
-41,83,72,1234,-405,-2237
14,-19,-117,681,-209,-2857
-3,13,-72,840,-192,-2372
-42,-35,-74,770,-46,-1240
-60,47,-84,-12,-515,-1200
-62,99,-82,-943,-1,-1228
-91,92,-122,-636,3,-401
-77,-89,119,-604,97,88
-35,7,-77,-3062,2842,-4869
-55,28,-45,-326,-1780,-4217
-120,-65,-104,-2108,3055,-5783
106,-84,104,83,4764,-4519
-44,117,85,406,4163,-2602
122,-113,108,-1273,2762,-1754
62,-86,28,-2778,3845,208
-80,-42,13,861,2115,2972
-2,22,-82,252,2071,4318
-1,83,86,-762,2276,5680
-33,93,45,-1828,1662,6612
118,-95,-43,-289,-80,8141
31,61,-54,-615,-586,9476
-93,-70,59,-3201,-149,6605
-6,43,-7,-6500,-3972,-1734
-27,11,113,-4347,-5696,-5984
-1,27,4,-1643,-4070,-8565
105,111,108,-577,-3970,-8763
-57,48,-98,-1666,-3651,-9392
-76,-73,-74,-3060,-931,-9079
-33,-10,-40,-1054,156,-7246
112,-4,-89,196,-239,-5328
62,71,103,1070,391,-2757
76,-3,39,2107,-408,-635
-68,10,94,-1258,-131,2148
30,-92,95,-1164,-900,5099
9,-10,110,-1537,-644,6417
3,108,-103,-1414,-1560,6933
7,69,-23,-1254,-1081,6380
-52,79,121,1380,-1885,6088
78,127,-50,1124,-690,4023
-56,-124,-43,767,-464,5202
-63,56,41,-1024,727,4384
-56,127,-53,1134,873,3283
-69,-95,-95,643,104,3313
69,-46,101,1546,-1163,1528
-3,-67,-112,1118,-844,370
-82,-120,-114,919,-271,138
103,108,126,526,-110,-160
97,90,113,539,-204,-552
-88,24,-80,-2753,3749,-4005
-121,46,-33,-2211,-1260,-1845
-29,39,18,-1258,-1767,-680
61,22,21,-674,-2265,-997
-90,-52,-55,1403,1848,-3339
-27,97,-121,520,2904,-4874
15,-42,113,432,4778,-5095
-63,-96,113,-156,5385,-4513
-25,102,31,-1446,4044,-2842
-86,37,-66,-2220,3154,-140
2,39,-104,-1074,2137,2222
54,-49,22,-2545,1305,4043
-89,-80,-21,-2134,-68,5436
61,18,-52,-3459,-1371,6304
-59,-17,60,-1746,-3225,7879
11,-109,12,-1694,-2960,6525
67,40,-80,1583,-2895,3912
-51,26,60,-1534,-3723,1151
-14,16,-94,145,-3858,-2226
-84,-14,9,-300,-4168,-4993
117,-57,-20,803,-4751,-6316
-105,52,-20,296,-4409,-7985
-29,114,6,1508,-2853,-7726
-35,-28,104,1793,-3052,-7080
99,-127,-26,372,-2218,-6355
-73,-118,86,715,-2376,-5249
-69,-69,51,526,-1673,-3974
-78,74,56,-874,-1029,-2737
-30,-40,28,-724,-535,-1295
71,-1,-65,-1144,-317,520
24,63,-113,-1042,-1289,2202
31,-29,115,-1790,-1038,3641
85,68,111,-768,-1458,4741
0,41,-42,603,-89,5868
-100,-104,16,133,471,5784
-97,-18,-49,39,-204,6041
51,106,-34,-1996,-807,4643
36,-119,-57,412,-1830,5282
82,-50,17,26,-580,3471
-9,105,-53,-250,200,1444
-78,101,127,-2879,-956,3568
18,90,114,-1144,-75,3429
-42,83,-2,2910,-893,2910
-34,52,-60,2624,234,710
122,-88,112,3060,-588,-1043
49,25,125,1460,-124,-341
34,17,-122,151,-185,-418
40,-35,-109,160,-266,138
60,0,-83,-222,-320,-341
82,-32,-62,-168,-343,-441
83,-99,-55,289,-88,-112
106,-61,-68,-55,-95,-400
119,-73,-87,-42,24,-200
109,-67,-123,118,-88,-280
113,-58,120,-14,-46,65
121,-27,113,-202,-44,-28
-122,-33,105,256,-197,-126
-118,-6,97,227,-269,-30
-115,4,110,-61,91,-97
-111,-21,115,246,-107,-99
-101,-32,111,460,-3,160
-114,-22,99,295,-257,-82
-116,-30,108,163,-49,178
-104,-9,109,-33,-144,-188
-107,-19,111,57,-41,-10
-101,-28,112,191,-137,-130
-99,-16,109,158,-18,11
-98,-15,110,98,33,-133
-97,-33,92,322,-178,-46
-92,-16,88,368,-384,-381
-92,-30,82,627,-561,-352
-104,-10,66,366,-579,-291
-124,-16,58,-524,-871,200
-73,52,108,-1207,-232,-698
-44,34,42,188,325,-410
-89,-4,-5,680,166,-107
-70,50,52,-280,339,93
-73,17,41,373,100,267
-73,22,55,472,66,196
-70,20,72,354,20,160
-126,-51,-84,-7905,-424,-2933
83,40,9,-2584,-307,-3148
36,-65,-4,-310,2621,-4293
109,-8,-102,-214,3533,-5291
115,-111,127,1071,4680,-4445
47,-119,-38,1103,4202,-3960
118,-47,54,777,3474,-2882
101,9,-27,405,2748,-1457
116,-11,-89,-845,2843,217
-30,-52,37,1331,1065,1902
51,105,126,-1352,2480,3524
47,-101,-106,-1796,2591,4524
82,124,-82,-1976,2361,6629
-112,-107,-85,-1795,1250,7612
16,-114,95,-1958,696,8913
-50,23,-101,-3606,1387,9151
87,-122,1,-4812,-1440,2335
-64,48,19,1121,-4781,-1808
-38,0,-50,-2116,-6116,-6019
-1,-122,-43,-1523,-7752,-7806
69,-103,108,-1254,-4614,-7712
-51,81,-19,671,-4455,-6960
40,74,-62,-2417,-5207,-7736
-7,-65,-16,-2341,-2993,-6962
-14,122,-59,-651,-2468,-4867
-14,28,45,217,-747,-2529
95,65,45,442,-431,-743
49,-66,19,-473,-678,1460
68,59,-11,238,-334,2891
36,107,-75,492,-754,4563
-122,-106,-19,-1052,2009,4292
-93,-15,22,906,905,5383
-23,-90,47,-510,1354,4629
-63,64,43,1361,507,4882
88,77,-97,34,1706,5322
55,62,-96,356,1396,3946
126,39,114,2267,808,4488
67,22,-117,1152,922,3261
68,13,-127,517,937,2303
-34,117,-122,829,273,2063
0,-88,-41,1372,2067,-7522
14,81,18,916,16,-7642
-35,-53,13,-516,1899,-7563
69,93,-1,-1715,2428,-6468
-73,-109,-117,-2040,2337,-4795
46,-25,81,-2543,3178,-3139
77,-44,-75,-1072,1496,-1577
-99,75,122,-2006,1722,546
69,74,-125,-2714,1199,2498
-106,-19,-63,-3040,1195,4524
93,50,-14,-2382,709,5935
-74,80,81,-1311,604,7871
54,-118,125,-2256,2036,7903
-76,82,-110,-248,769,8766
-55,96,37,-5683,-922,3267
-93,-4,77,-3308,-6492,-1640
-18,-8,33,3821,-4438,-4530
-86,121,108,3758,-5363,-4705
-119,77,54,818,-8177,-5832
-7,57,68,2839,-4613,-4877
-88,55,10,1545,-5625,-4701
-20,-2,-7,-730,-5972,-7636
24,-45,78,200,-2996,-7279
-79,46,-40,1513,-1768,-5055
1,28,91,1334,173,-2237
65,18,-34,532,-789,-376
-104,-116,116,-1586,-1525,1823
-93,-21,66,-1683,-898,3706
-81,-106,15,-1949,-941,5407
14,103,90,-2408,-767,6165
63,46,102,-270,453,6150
91,-85,16,-285,737,6672
98,-111,20,-415,1041,5088
15,40,-41,512,753,5947
43,126,-110,-584,514,4148
-42,29,-120,-439,-361,3119
-70,-66,-87,-1039,-293,2743
-78,69,-108,-27,-608,2174
-127,-4,-99,34,-874,1936
121,-69,-50,-156,-495,1557
-58,92,-86,-1737,3873,-3220
52,-12,-83,-410,1616,-1746
-94,-97,71,-648,-2674,-1336
81,-110,-104,538,1353,-6252
115,78,113,382,2224,-7040
94,-44,103,-459,3937,-6578
11,46,99,-2201,3854,-4352
-68,-38,111,-2864,3349,-2782
-47,47,6,-2569,3031,-254
5,3,-98,-2247,1456,1874
-23,-8,-93,-1919,-194,4073
56,119,-67,-2965,-2166,5352
111,20,-8,-3511,-3116,8299
15,-42,-47,-68,-4684,8956
-71,29,-114,3785,-5843,8679
-116,16,81,-2422,-3082,5638
35,-74,102,-4224,-3342,-2078
-15,111,84,1716,-5889,-7402
-10,9,-115,-2447,-4430,-8642
70,-92,10,-1034,-3357,-9143
-60,79,85,-212,-2867,-9686
-56,87,24,-1288,-2790,-9271
28,30,71,-1709,-1698,-7579
49,30,-115,-890,-706,-5175
70,3,15,-93,133,-2876
81,109,-72,-87,265,64
125,-92,56,-1086,-506,2920
-59,-93,24,-782,-1307,5531
-68,-14,84,-1741,-1381,7242
-98,127,-95,111,-2289,7755
126,-36,5,-1247,-1403,7394
-18,0,-63,140,-1837,5981
74,-83,-19,159,-1941,4388
-23,-10,-30,-178,-2042,5021
-57,24,51,-314,-2087,3767
82,-123,88,860,-1272,2324
23,54,56,2332,-664,2121
-53,28,36,3232,-287,953
122,-18,-23,2113,168,123
68,-108,-67,1485,265,-364
6,-56,-109,-12321,6994,-2111
-86,19,29,3607,-2793,1401
57,-35,-112,-815,849,-307
65,-90,2,-272,381,227
74,-85,12,-200,745,126
114,-3,72,-85,2031,-685
115,-108,-109,-783,-1481,-681
