AccX,AccY,AccZ,GyroX,GyroY,GyroZ
-45,109,-108,-6083,-210,-1785
96,-98,-29,949,1945,691
12,-121,52,3807,1904,851
-17,-108,-30,-3090,-694,-1659
24,-89,86,-353,-352,-971
11,-93,-115,-173,-80,-755
-41,-67,-108,-823,-370,-1073
-70,-50,-101,-995,-673,-1369
-68,-28,-111,-1108,-882,-985
-53,0,-88,-1199,-1121,-625
-81,47,-83,-1554,-850,-661
-110,81,-116,-540,-754,-394
-125,-117,-67,-1425,-1184,-549
80,-56,-68,-910,-575,-355
116,-27,-60,-1949,286,-1201
114,38,-71,-430,-83,-921
59,71,-37,-1983,-447,-1656
37,22,-100,-1135,-80,-1662
54,-19,-84,-1477,42,-1525
82,-39,-87,-1938,195,-1475
104,-54,-108,-958,458,-1028
124,-83,-101,-1205,405,-799
-46,-64,-108,293,-278,327
-112,-109,-110,851,-1319,451
-120,126,-66,74,-1923,755
107,127,-65,436,-1823,1077
75,119,-96,1237,-979,828
-115,-107,-49,1072,-1049,875
64,-119,-16,335,-1490,318
10,69,-44,188,-858,-48
5,41,-69,420,-416,142
-11,42,-65,499,-583,54
7,50,-30,-154,-693,-293
37,44,-14,-683,-269,-492
35,28,-52,-781,573,-714
107,55,-27,-655,854,-289
-78,124,-67,-315,1307,85
79,-81,-83,-293,650,-271
116,41,-19,-2698,430,-1055
-14,-102,-26,-2333,926,-1180
37,15,-37,-3262,1564,-2264
-21,-112,-118,-2609,1698,-1742
-121,122,86,-1182,1383,-1633
85,-124,79,-2097,1319,-1906
79,-82,67,-2611,1342,-1745
120,-64,49,-1625,1695,-1220
-103,-39,55,-877,1683,-1187
-77,-23,103,-1952,951,-1370
-92,-75,73,-688,153,-386
55,93,52,1543,-798,664
11,73,-97,75,-1991,1030
-86,54,-109,-773,-2201,121
38,103,-76,119,-2111,226
122,-86,-6,233,-2406,917
-20,88,-34,1472,-2007,721
-82,28,-63,2236,-1068,1303
35,24,-24,1266,-1366,1189
-13,25,33,-1584,-2147,359
28,55,26,-666,-1580,761
83,-100,119,-1628,-1222,452
-77,26,-126,-3648,64,-378
-96,33,10,-2814,1848,-1179
-54,54,-51,-818,2777,-1158
-54,120,-56,-3610,2119,-2062
-97,-112,-46,-5849,1158,-1272
-79,-81,-84,-3444,-292,-1932
-121,57,-93,-3561,1339,-3487
13,-106,119,1599,2556,-2059
127,52,-55,287,281,-2655
112,12,-28,-1101,-456,-2586
112,-49,33,-496,-1451,-2298
-42,-37,-68,-1075,-2542,-1821
50,-71,-22,-2650,-1257,-2084
60,-30,113,1204,1045,-714
77,-113,85,2949,843,-94
75,-60,116,-171,526,-1125
-71,1,97,-1825,342,72
105,-60,-40,1111,1105,902
43,-70,-95,1694,1010,927
17,15,-54,1218,-60,1376
-96,98,126,-1869,4141,-2093
3,-112,124,-541,2970,-1468
127,-32,-86,-2121,1614,-2032
55,66,-97,-2542,1356,-1963
-75,50,-126,-1847,800,-1903
83,39,114,-2725,926,-2593
4,14,92,-2787,1423,-2608
4,-3,68,-2000,1812,-2208
-24,-68,26,-1272,1258,-1834
-69,-81,-2,229,162,-26
-82,-88,74,28,-1314,25
-81,-98,-116,781,-2353,370
-59,123,-42,319,-3250,928
88,62,-79,2934,-2895,1414
85,57,-41,1880,-2336,677
-67,-87,89,-789,-2295,446
109,117,58,229,-1713,337
68,36,15,1391,-147,207
-6,26,-11,1715,75,304
-104,0,6,-875,-875,-536
-68,-37,-32,-151,-982,180
4,-7,19,-603,-427,608
66,53,-22,-169,645,699
32,109,-81,417,863,297
74,117,-49,413,103,-168
61,-83,72,-1466,-772,-282
107,27,10,-6152,1893,-2113
-57,16,-126,2,4024,-694
39,-92,91,1588,3279,-1357
-25,-98,-78,-1170,1397,-1891
-4,-94,-112,-3593,1086,-2118
29,-126,66,-1397,1330,-984
11,93,77,-595,937,-139
-20,81,69,66,582,342
-31,80,76,-209,-265,586
-25,78,66,892,-1574,1244
92,-105,127,127,-2932,1873
93,-66,-126,2581,-3228,2918
40,-127,-57,754,-2553,877
104,-93,-100,2036,-654,1367
-106,-94,79,-3222,2068,-2853
106,104,-42,138,2249,-2011
-52,25,-2,220,484,-2148
-56,79,48,-2676,-766,-2038
-42,116,5,-2765,-887,-1266
-33,-117,4,-2255,-945,-733
-40,-116,-16,285,-377,299
-49,-106,19,1590,-632,712
-36,1,-31,749,-1771,727
16,68,28,-1318,-1009,-560
-113,2,5,426,-584,-779
15,104,-20,-2254,-821,-2217
91,-121,-82,-2141,-35,-1113
97,119,78,17,1214,-185
10,120,45,2636,996,-34
-15,-65,-111,-784,-659,-1060
-10,-46,-98,-1690,-1413,-1472
35,-108,99,-537,-452,-1302
10,-127,-125,757,-448,-827
-10,-124,-57,-610,-593,-1086
16,111,-78,552,145,-231
-2,103,-75,275,456,-436
79,122,122,1640,761,416
-16,-37,-42,833,-594,255
4,-61,-35,-3139,-758,-1575
45,-80,127,-1101,-288,-690
4,101,121,-1963,116,-1468
22,93,103,-1364,-263,-616
58,74,106,-1167,-302,-23
78,74,63,994,291,1074
64,118,98,437,68,878
48,-44,-74,-1905,-1124,-18
115,-77,-86,-266,-1114,454
122,96,-32,1106,-666,1093
-60,117,96,553,-475,1485
76,121,34,-130,440,652
20,50,-52,87,510,-88
-80,94,2,-544,97,454
-81,30,-66,767,1145,1367
-104,-20,-94,728,1073,1183
-81,99,-119,-4730,-692,-3104
-31,24,-11,-2647,-286,-3712
-48,6,1,-910,202,-3308
-117,-123,87,-2698,200,-3792
-109,33,61,-1817,994,-2606
112,-62,69,-1591,916,-1492
65,-79,95,-1593,432,-695
60,-99,106,-1682,291,-328
121,-113,90,-1026,256,279
111,-105,60,3126,193,788
118,-58,-115,1253,-642,1201
111,-54,-110,465,-1189,1293
76,-119,65,1447,-688,1517
-122,-84,111,771,-1013,1310
-69,-74,122,984,-1111,1548
-110,122,93,1347,-687,2197
-53,-20,-128,-9622,-8047,3812
-86,19,-53,14050,3836,-4308
126,23,-32,6787,1320,4395
-21,-22,-54,-7353,-3758,-1115
45,85,-103,1362,-407,388
84,4,8,-906,479,-472
111,25,-81,-598,1148,-858
-86,30,-110,-341,1240,-584
-106,50,-122,-1765,706,-931
-36,109,98,-2846,736,-1411
19,-28,79,-3249,232,-1278
-33,-21,51,-2536,163,-1619
-40,-22,43,-1883,772,-1460
-57,-25,62,-1399,1104,-1105
-83,-33,78,-1460,737,-890
-83,-52,68,-1272,617,-774
-107,-71,78,-364,-98,-118
-111,-61,102,-759,-886,-201
-85,-56,-127,-31,-1233,173
-44,-72,-75,-461,-1186,536
5,-74,-108,1745,-442,1466
-110,-91,-85,616,-33,1396
125,121,8,-813,-1441,-173
-71,127,-29,567,-899,593
-122,-85,-79,2500,-2248,2300
46,-101,-44,2504,-1775,1161
-99,-54,40,735,-1358,1057
75,-102,-41,1813,-1008,1093
-18,79,-44,2569,-1155,1008
-34,66,24,576,-980,408
-44,12,-7,1229,-745,221
-54,-23,13,1556,-890,135
-34,-41,26,166,-339,-397
22,-27,30,-746,-25,-331
55,-23,38,-967,434,-616
-16,-17,-42,545,2090,-126
-59,47,38,-953,1271,-377
-12,54,-36,-3134,2383,-1677
-15,-122,124,-1816,3509,-1050
-31,-111,-117,-1597,2650,-928
-96,123,121,-1437,1940,-934
121,93,97,-1815,1557,-478
82,81,72,-1469,950,96
59,83,47,-656,546,572
38,74,59,-188,-213,916
52,88,78,-107,-1040,1155
102,95,95,683,-1681,1522
117,36,-97,990,-2470,1788
-3,88,-60,488,-2644,2367
-60,120,-90,2636,-2387,2766
99,60,-57,920,-1195,797
-114,50,-120,1579,59,1377
-70,-119,65,3853,-9,1138
-118,49,-77,2744,-768,1275
107,-35,-13,721,-857,1303
83,-61,-19,1726,-456,1624
43,-28,51,1206,-817,1003
31,-31,81,23,-606,145
103,-16,42,-156,263,-96
107,27,52,-932,318,-652
-46,76,-6,-1094,802,-942
0,-72,37,-1299,378,-729
18,-41,-81,-3164,2095,-2482
-26,44,-115,-3114,2409,-2454
49,35,-74,-4176,2742,-1352
73,-74,76,-2734,3848,-887
18,-96,72,-398,3136,-1017
-15,-95,-119,-1788,1839,-1881
-22,-72,81,-2014,1477,-1483
-59,-117,47,-1659,1290,-785
-105,98,21,-507,999,-152
119,66,44,155,226,239
-127,67,70,130,-820,663
118,51,97,729,-1637,683
-92,56,-79,-495,-2610,775
-21,97,117,1826,-2217,1980
107,35,118,2076,-2047,1207
-23,68,-72,2564,-1324,1763
71,10,-45,954,-1485,1053
-56,115,-124,2895,-741,903
-108,61,-51,2134,-764,1386
85,35,-20,647,-842,875
75,27,-19,1007,-519,831
52,42,15,862,-443,321
110,62,65,-935,-129,-560
-88,85,-7,-1246,1047,-832
-14,89,-123,-595,2012,-1097
54,-72,-29,679,489,9
20,-51,-16,-3625,1083,-2064
67,34,126,-1488,2945,-1419
75,41,-97,-785,2674,-1603
44,-1,-102,-640,2619,-1753
46,-9,-88,-1839,2168,-1208
-8,-44,120,-966,1632,-167
-85,-91,111,-184,1054,357
-99,-97,-115,-884,275,823
-42,-48,-114,-552,-740,1618
-31,-36,-114,577,-1483,2128
37,-11,-96,439,-1986,2546
111,69,-87,1356,-2298,3331
-112,-50,-109,1266,-1971,2034
49,11,-127,1747,-228,2335
122,-57,118,2649,-309,1801
-29,48,-103,2664,-762,1240
101,37,57,-2733,3057,-2955
8,16,-36,-2380,3917,-1917
-38,-88,85,1427,3909,639
10,-41,10,1293,1726,284
12,-18,69,-5128,-416,-1212
40,23,62,-851,31,1139
-30,1,46,129,-49,1774
-66,56,69,245,-868,2085
-56,88,99,161,-1908,2137
-39,120,-128,415,-2582,2362
28,-109,-111,1174,-2297,2706
-38,-96,-75,2676,-2015,3126
108,10,11,3420,-1994,1310
-23,19,-114,-292,-1142,-59
-91,-110,-30,1735,1000,497
124,92,-57,3695,2112,1156
32,101,7,2965,1208,914
-29,90,-122,605,-794,473
-1,77,-88,232,-1338,35
41,2,-87,160,-977,-677
124,-19,-93,922,119,-589
-36,22,-59,-82,859,-407
13,64,103,-459,1333,-435
6,-126,127,1415,148,776
116,125,-105,-2441,481,-1517
-37,-77,-3,-2318,3219,-1398
90,-19,-45,-609,3136,-10
-81,-73,-64,1060,2371,-428
-76,-91,15,-1962,1182,-1185
-32,-103,-87,-1730,1199,189
-40,-99,90,-781,1136,1304
-86,-74,70,-394,869,1527
-113,-39,71,163,-26,1913
-112,8,117,-332,-1419,2101
-110,30,124,456,-2096,2434
-65,61,-100,678,-2009,2564
100,55,-72,2665,-1554,3191
115,-24,-42,2213,-821,1728
-77,-1,31,1032,-314,1264
90,-30,-16,1350,-268,1460
106,-104,64,3390,-1468,2472
-125,63,112,1885,-1445,739
30,125,-72,1,-1237,646
-9,106,-71,684,-1638,1108
-78,25,-110,2669,-556,1322
116,19,-16,1463,-18,1224
65,10,-32,906,-152,664
41,-6,-12,564,-580,553
27,0,26,-266,-749,155
103,30,40,-934,-297,-137
-111,60,-27,-650,962,-286
21,-121,-78,-196,1403,-265
-128,-94,-33,-581,173,-294
104,-84,126,-3362,1198,-2179
-52,90,99,-2470,1495,-1105
119,66,65,-435,1248,-1175
95,6,97,235,1463,-1811
-104,21,-45,-3226,1042,-2377
-52,33,60,-2585,2022,-992
125,-23,-22,425,1719,254
45,-20,7,926,338,836
77,32,57,-289,-1174,1058
87,34,81,-272,-2003,1085
6,59,100,967,-2094,2381
-127,27,105,2985,-2028,2968
-41,-87,-108,2210,-1431,1115
56,-47,-1,-775,-1131,767
22,-80,-117,418,-92,958
-87,96,102,3026,62,1221
105,111,-36,-220,-822,399
111,101,-60,-475,-766,63
110,76,-91,212,-353,-176
127,99,-54,-868,-300,-686
-57,119,-69,-630,-55,-521
-40,-119,-106,-820,434,-829
52,-55,-117,-54,176,-258
-118,-29,-44,-1476,-968,-535
-49,22,110,-3866,910,-1948
-104,122,102,-1091,1389,-402
70,118,125,-1348,1019,-1036
32,-19,127,-2910,2683,-1856
-15,89,99,-2474,2650,-1015
-70,121,65,-799,1685,-992
-100,123,90,-1649,1209,-1614
-100,-126,65,-1734,1282,-1431
-110,116,57,-998,1107,-1004
-118,107,76,-682,730,-583
-107,85,85,-95,386,-61
-79,69,103,515,-153,745
-118,24,122,737,-846,804
-28,32,-113,1016,-1377,1797
64,-49,-125,2304,-2038,2278
15,-118,-83,1111,-1900,1097
-89,-44,-38,-423,-590,1514
-114,-68,89,1225,681,2004
45,-101,77,3553,518,2372
-65,-102,-50,429,-1051,1473
-99,-121,-34,-1330,-1716,741
-92,88,-96,1350,-753,1165
-120,97,-4,1329,-569,867
-127,-107,88,-1610,-408,-322
-45,-110,-61,-2137,1703,-1502
-81,31,-97,70,2033,-168
29,75,-43,-2393,407,-2032
-122,-111,119,-2907,746,-2835
103,-66,115,-3602,-95,-2639
83,-40,46,-1959,833,-2310
94,-12,110,-2555,949,-2225
94,20,100,-1924,1189,-1868
51,2,96,-465,1209,-1239
-8,-30,123,-523,503,-1209
-45,-50,-111,-753,-309,-1089
-66,-78,-92,-204,-1197,-701
-30,-105,-17,-99,-2167,-426
-72,106,-1,1137,-2295,506
45,-21,-40,1905,-1268,160
-81,86,25,-980,-318,127
-74,-95,30,-1446,-754,218
90,82,-68,1709,-427,137
-101,-27,79,1341,-1021,494
11,2,-71,-5097,209,-3415
40,84,-98,1244,1543,-389
41,34,-104,-1242,710,-503
115,49,107,-590,78,214
-78,56,-117,-2002,-736,406
0,-126,122,-2766,-1260,984
117,96,16,2528,-941,1240
-73,77,101,479,-1119,507
-17,-119,-108,333,-2218,1180
-98,70,-128,908,-2375,1265
-125,35,122,1576,-1887,1848
127,74,-54,2130,-1952,2189
83,112,74,1657,-2689,1748
8,60,-123,-309,-2022,-2
39,-27,59,-63,1051,-1044
-118,18,22,-1387,2245,-1009
-128,43,-72,-1891,2032,-1374
-36,90,76,-379,1796,-738
-52,-88,-100,-1234,-406,-694
-88,-43,-115,-2640,-581,-1756
-39,-11,117,-2936,-44,-1919
-69,-14,85,-1952,635,-1718
-82,-12,85,-1600,844,-1731
-89,-12,103,-1576,751,-1555
-92,-39,72,-806,1031,-1022
116,-87,65,376,550,-544
70,-120,-115,-741,-579,-512
109,-105,-91,-1347,-929,-102
-98,-98,-101,212,-789,437
-115,-128,-34,407,-1120,372
-8,-92,-48,721,-527,1235
73,94,-83,1719,-625,969
71,76,-69,394,-413,183
-93,117,-31,-1105,-756,230
-120,74,127,1410,-410,840
75,43,-78,598,-808,636
87,54,-60,-268,-836,612
89,55,-71,403,-936,591
57,41,-18,197,-944,450
72,45,-10,-978,-378,-17
-101,81,46,-5076,-890,-1108
-106,68,87,591,964,1016
60,65,47,3926,478,1698
2,108,-25,-1583,-1849,3
60,-128,-75,-1300,-1680,102
63,80,-100,214,-801,252
112,64,-52,626,-64,209
127,82,-32,606,408,476
49,81,-68,-559,484,-51
86,-112,-115,-1320,297,-203
109,-52,-127,-1560,-262,-683
117,-14,-103,-1927,-570,-1386
119,24,-53,-3099,-866,-1701
-125,-17,-126,-621,906,-1170
-127,-64,100,650,1803,-944
-86,-16,96,-847,1436,-1295
-101,-37,35,-474,745,-843
101,-63,22,-565,-291,-625
72,-49,55,-1931,-1004,-878
87,-41,44,-1690,-941,-1021
90,-66,35,1058,-870,-731
57,-72,125,966,-1674,74
109,-84,-24,-733,-2153,289
77,101,-120,2509,-617,2077
-68,75,-57,2692,-1108,1011
-3,-96,105,-3112,-2148,-870
81,-125,-28,-2779,0,-956
22,72,109,1832,1360,460
-30,104,-76,-1055,73,-440
-9,-125,-113,-927,-352,-166
22,116,112,75,202,26
41,113,-120,221,30,-51
87,-123,-60,-561,-303,-103
81,96,-70,-61,-166,-1559
47,87,-104,589,263,-479
-57,-107,-29,-492,-36,618
83,-115,-27,-1185,56,216
-85,-100,-117,-1151,1909,-107
62,-82,102,90,2745,-84
-24,102,46,1159,2744,-732
64,-14,-99,2231,-2112,4038
-79,73,-70,837,-2484,1077
7,63,-17,89,-1833,329
12,36,-62,-775,-633,680
-33,-73,76,4461,959,1977
99,-69,1,2282,-69,1182
40,-105,67,-492,-1372,214
46,92,28,-402,-1682,375
94,49,3,431,-587,928
29,-85,13,634,127,1070
32,2,45,-2528,154,-1139
-117,67,-115,-1346,1463,-1248
98,-58,-97,-1907,1292,-1239
-87,-41,24,-1026,952,-1955
-28,-36,-30,-1907,1285,-3381
-98,65,32,-1510,326,-2628
-108,87,100,-1778,-307,-2131
-121,92,100,-2767,472,-2326
-84,85,42,-1126,1470,-1496
-127,52,29,401,1472,-1029
51,1,59,-189,810,-1116
48,-37,75,-140,18,-476
90,-34,99,-396,-529,846
65,-28,104,697,-542,1599
-82,28,-64,645,-605,2136
-102,73,-72,2074,59,3123
72,30,-54,954,530,1560
-116,59,-29,-560,807,1105
117,-54,92,600,2052,1377
100,-91,55,1657,2285,1662
68,126,123,1162,1373,1512
36,97,-102,426,507,1609
-17,72,-59,1702,80,1792
-77,34,50,432,261,573
-84,16,45,1674,391,774
-91,42,-58,1814,-291,657
-80,-37,-49,-1681,-336,-787
-12,-33,49,910,645,968
-33,117,-42,-2297,-739,78
20,-125,77,-1790,539,-1335
-109,40,-63,-3449,1952,-1979
110,30,96,-65,2393,-1604
-50,-70,119,686,1340,-2373
-80,-47,-55,-2361,161,-2623
-71,-28,109,-2908,803,-1805
-96,-52,50,-1285,1225,-1276
-103,-64,55,-898,1064,-539
-84,-23,40,-57,420,595
-102,-1,56,751,-982,1146
-99,-2,-125,-192,-2566,1367
-59,21,68,1300,-2349,2624
71,9,87,1802,-2649,1667
-65,52,-67,804,-2153,1236
54,10,-104,1313,-1476,1066
-49,-95,102,2687,-818,619
113,110,-89,2239,-1177,1054
3,97,-8,-413,-2567,304
-24,52,-7,238,-2371,205
-16,20,48,1454,-1321,378
19,65,124,-138,-181,-171
126,-82,117,-2655,1170,-873
-43,-101,121,643,3324,-1059
5,-95,-60,710,2407,-1423
-19,100,62,-4362,1171,-1865
106,-110,-116,-2971,2053,-1714
38,82,82,-858,2691,-1680
-21,82,124,-2289,2053,-2028
-8,106,94,-2698,1897,-1057
-36,103,74,-1607,1728,-214
-67,83,58,-1176,1634,169
-102,83,50,-282,496,734
-126,55,40,407,-752,1209
122,29,27,1232,-2047,2051
-27,99,107,1283,-3536,3116
-61,114,126,2257,-3708,3204
119,110,-110,854,-2146,1322
76,-79,52,6065,-487,3302
104,50,-66,5193,-1400,2689
100,-56,-106,483,-2829,1828
-55,50,87,-1190,-3209,306
-72,-19,-107,1358,-2443,4202
-119,9,-25,1133,-2514,4008
-79,-64,118,962,-1895,4052
-19,-127,62,2793,-673,2043
75,48,120,3978,-190,1837
-117,29,-44,889,-263,908
85,-24,-90,-806,-387,80
97,-49,103,160,-87,29
-110,-49,111,-371,64,-650
-40,-36,103,-1219,203,-1204
106,23,64,-1662,362,-1577
-91,-18,-25,-491,904,-1848
-33,-25,-43,-487,1082,-1557
17,85,6,-2273,162,-1810
-104,-55,-101,-3172,513,-2394
-38,8,-124,-1375,388,-1490
117,-42,98,-358,767,-1663
34,-95,118,-812,955,-1937
28,-79,-128,-2151,863,-2094
88,-64,97,-1786,980,-1547
113,-62,82,-1175,790,-558
99,-74,52,-369,306,102
44,-86,53,846,-889,1003
70,-82,126,-282,-1539,1243
-84,20,91,-98,-941,1833
96,41,39,1638,-950,1508
-57,79,121,1051,-1250,1481
-93,47,82,2135,-906,1952
28,-61,48,3341,-915,2009
-51,-128,-121,2548,-1534,2205
-120,87,-65,1158,-1780,2117
85,72,-18,1986,-1770,2176
65,67,53,2313,-1224,1744
61,93,-127,1606,-624,1316
-43,91,-125,294,24,250
-42,57,43,1137,1001,-438
-12,55,100,-292,695,-1069
-50,94,95,-1834,1552,-2179
-82,-127,24,-1678,2671,-2661
11,-114,-5,-1476,2446,-2705
3,-94,-87,-2895,1898,-2584
-38,-85,82,-1697,1550,-1610
-57,-54,71,-1917,1416,-1139
-58,-16,66,-1377,1341,-715
-51,-15,61,-1427,1116,-508
-52,-19,25,-187,474,184
-119,-43,44,1071,-1073,840
-95,-32,118,-430,-2189,893
-84,-14,94,869,-2142,1610
-93,-16,100,745,-1675,1139
4,35,120,2137,-1399,2163
85,0,-125,1676,-1811,1503
-58,-96,-128,2091,-1966,1202
110,118,-88,976,-2118,927
47,82,-58,969,-2184,661
18,53,28,1352,-2025,713
20,46,81,61,-1204,166
84,79,97,512,253,152
-123,-122,50,-714,1976,-1050
-20,111,-50,707,2983,-1341
49,-94,-48,-1079,2767,-2027
69,7,-102,-2073,2834,-2165
58,14,125,-1008,1673,-1742
-2,-10,-124,-2003,1003,-2004
-3,-28,111,-1935,1288,-1132
-18,-40,95,-1469,1827,-455
4,-85,92,-813,2187,125
21,-74,93,-170,1797,995
38,-34,-125,-734,375,1600
11,-36,96,227,-208,2295
-43,-91,95,760,-913,2666
19,-55,-111,-48,-1830,3162
36,-40,108,571,-2135,3114
89,-2,-96,2224,-2480,3520
29,27,-23,1389,-2212,3326
20,-52,-34,3074,-1594,1975
87,83,61,2302,-1859,1183
15,-60,83,378,-1050,287
5,-59,61,817,-498,836
-38,-73,81,1059,-696,668
-65,39,87,-2204,2515,-2848
-7,-126,34,-2631,3107,-1856
-49,-125,-64,-885,2606,-963
70,93,-66,-1082,1687,-958
-31,84,113,-2167,1699,-697
-30,105,66,-1921,1474,-224
-27,126,47,-1403,964,315
-6,-88,35,-1412,53,742
22,-47,42,898,-1165,2016
-32,-63,78,624,-1925,1928
-7,-30,117,734,-2457,1955
28,8,-125,225,-2374,2007
-60,-59,87,2171,-1669,1440
-125,-67,-70,2407,-335,2555
-23,-103,-77,2797,-379,2495
45,40,-51,3261,-919,2738
-55,6,20,1991,-1024,2641
82,-34,28,2020,-1050,2473
-29,-44,55,390,-1232,1938
-19,-73,21,2428,-942,2241
-23,-4,126,1096,-942,1709
-91,32,-67,1988,-1695,947
105,-6,27,3409,-1577,657
46,-66,-76,-151,-1645,-306
117,98,51,-999,910,-1836
-48,-92,-47,-2513,1959,-2798
-12,-29,-125,-4545,2204,-3861
27,-33,-119,122,3992,-1934
-57,-50,-88,2141,3373,-1301
-128,15,100,-806,1754,-2453
-36,73,25,-2905,2060,-2751
0,16,-103,-627,2434,-1499
-37,6,-107,-1419,1503,-1212
-49,59,121,-1038,26,-170
-94,80,73,-819,-612,264
-110,87,27,1057,-1057,921
-69,119,71,632,-1834,1107
-19,-123,89,698,-1806,1173
-104,-65,116,838,-833,1823
-127,-49,105,2525,-336,2812
3,-108,-126,3510,-657,3060
63,57,16,3165,-1548,3210
-93,17,67,299,-1327,2497
102,-22,-44,1645,82,2839
-11,16,-9,2234,370,2920
-70,21,15,1716,826,2317
25,77,27,1749,1166,2145
-28,102,21,2120,748,1454
-123,62,58,1771,-387,816
-6,40,-84,-958,-1857,-920
-76,48,-119,-2105,-591,-2884
-41,-124,127,-3501,962,-4133
10,-94,-11,-3979,2314,-4779
-31,99,-120,1406,1709,-2998
97,82,-36,-1697,247,-3183
-5,-120,-117,-1501,432,-2921
26,-120,122,-3265,562,-2651
46,-69,25,-1530,789,-1407
85,-3,66,-1936,-169,-1117
-110,34,63,-736,-835,71
120,12,37,373,-1179,827
66,5,65,242,-2125,1032
66,18,39,467,-1951,1253
93,56,22,728,-1320,1330
-88,-113,52,-91,-1461,1478
-113,-88,20,1391,-1548,2062
-118,123,21,4321,-676,2125
-36,-23,-108,4112,-1102,1590
114,79,-77,1873,-982,1135
38,44,-128,1648,-413,1889
-41,20,-125,1936,-760,1685
-54,58,-35,1989,-1147,1592
50,118,69,1166,-455,1388
-8,-105,11,2219,583,97
-79,50,92,1902,-228,-1101
-45,-47,113,-31,241,-1945
99,-93,109,-936,992,-2823
100,11,-109,-3442,1530,-3192
-101,95,23,-2497,2868,-2158
-60,95,-6,-1255,3036,-1446
54,40,-72,2929,-1468,3628
16,22,20,3497,-1042,4106
-77,30,77,3596,-62,4219
56,93,-121,2718,595,3808
-94,111,116,2731,245,3123
51,122,-81,1590,-646,2282
30,-119,-25,-815,-1687,939
-46,121,-91,2537,-1148,1128
58,68,36,2479,-633,-1285
-33,60,106,-3331,3,-4082
-7,54,-30,-2547,1154,-4240
-127,71,-117,-3232,1680,-4641
2,101,-111,-1161,999,-3524
82,87,91,-2694,1912,-3048
-31,49,-95,-1296,2559,-2313
-60,122,-102,-3438,1173,-2263
-38,-109,77,-2820,576,-1201
-89,-74,15,-122,454,-44
-115,-82,87,-1078,-466,-200
115,-99,44,-70,-583,179
-115,-81,65,127,-1270,643
-116,-107,-14,891,-1314,1002
126,-37,4,3532,-1812,2113
119,-34,122,-391,-1687,837
-74,14,27,3119,-467,2036
113,-18,89,2973,-974,1789
-10,-98,-127,3569,-1145,1941
-124,91,-35,2037,-1657,1426
78,30,-2,1564,-1540,1209
57,-28,34,2276,-872,1507
4,-30,76,3224,-252,1687
-30,-6,-69,1572,-450,1090
15,37,-48,349,256,364
-4,-6,118,2050,1242,-67
-62,-6,-78,82,858,-904
111,-20,120,-1807,1399,-2028
41,29,81,-1705,1558,-1948
-113,71,26,-2447,1542,-2100
-73,113,-97,-1985,1601,-1528
-119,115,114,-1675,1496,-1554
53,75,77,-2683,2406,-2403
91,-104,-14,-1548,3300,-1782
99,-69,-40,-1744,1992,-1941
70,-35,-78,-2811,1070,-1675
5,-38,86,-2303,1380,-1167
-29,-24,68,-2254,1929,-917
-56,13,87,-1695,1293,-384
-76,1,70,-648,854,-105
-103,-31,86,-470,-37,142
-128,-45,99,-621,-979,434
-109,-50,103,298,-1573,958
-76,-44,-111,177,-2016,1394
-110,-36,111,1900,-1586,1793
-83,-9,-108,420,-1115,840
-70,0,92,1553,-938,1275
116,-45,71,2660,-1208,1704
13,-118,75,2642,-1097,1533
-61,78,119,2440,-1437,1436
-108,52,-30,1607,-2439,1101
127,-1,44,1280,-2361,890
125,-69,42,1807,-792,672
-111,-38,80,2551,368,1003
57,4,-94,777,-161,224
58,-16,95,-101,552,-722
82,-38,29,403,1265,-816
-123,-9,-7,-564,1768,-1627
92,57,-59,-1390,2108,-2098
-42,127,-126,-1521,1821,-1848
-44,-122,66,-251,1112,-1730
-112,120,84,-889,316,-1617
127,-123,-90,-2321,-309,-2036
-70,-122,-98,-2547,238,-1607
18,118,120,-1525,1622,-525
-5,123,116,-1065,1768,344
-47,-87,95,-1186,903,799
-116,-63,86,-585,-708,1350
-56,-23,97,-815,-1290,1929
19,36,67,20,-1061,2699
-102,42,0,2007,-774,2640
-122,20,65,1166,-1017,951
90,80,46,4621,1218,2209
-107,4,-119,5321,380,2099
66,-13,65,688,-1510,1123
6,-95,72,-35,-2894,523
42,96,95,1143,-2295,477
73,51,-127,2911,-866,638
-93,121,78,3081,32,874
52,113,119,-460,584,-875
81,71,-49,234,1623,-545
47,-117,-33,-1427,643,-607
-96,-118,61,-818,2628,-1709
-57,-38,70,-2568,3199,-2431
-89,55,23,-1313,2812,-1129
63,-7,-56,-951,2429,-1083
0,-33,-104,-305,2185,-680
-75,-16,-92,-1619,1332,-816
-58,-21,110,-1359,1332,-393
-57,-31,54,-837,1280,25
-31,-16,29,766,523,1099
-71,-4,67,477,-895,1628
-82,5,89,424,-1788,1823
1,82,90,659,-2368,2574
-64,104,105,1998,-2511,2786
-70,105,-71,1781,-2309,1998
111,107,37,2402,-1989,1906
-46,11,62,2225,-1325,1121
100,-83,93,2816,-377,1336
31,-84,127,1561,-197,1206
-33,-68,-91,1221,-734,1024
-74,-81,-58,498,-645,290
-53,-104,-76,583,148,-233
6,-106,-78,75,797,-723
125,-123,95,-767,1638,-1246
-20,-94,-36,-137,2076,-759
-43,-69,-24,-624,541,-922
41,-67,117,-27,1785,-1390
96,-30,-39,-813,682,-1474
-124,42,-37,-2078,352,-1061
75,14,106,-303,812,-1067
57,43,-127,-1127,516,-1220
99,63,88,-3703,5919,-7195
70,22,61,-3825,-11072,15237
-22,103,-96,11013,7128,1185
18,-25,103,2048,434,3033
21,104,44,-5999,-1387,-731
122,-121,8,5457,770,3727
7,-61,33,1372,-128,1385
-1,-81,25,1267,35,1135
21,125,33,351,-14,630
5,88,-3,1394,378,814
16,94,42,1093,365,831
3,97,57,599,305,419
-9,83,45,932,401,423
-11,84,80,137,242,158
31,60,59,717,708,264
55,72,90,644,1239,548
50,120,105,72,1458,115
63,-128,58,327,1528,-97
50,126,46,879,924,87
15,-106,-123,-939,-432,-600
57,-89,47,-1657,-626,-681
90,-102,-16,-1047,-465,-303
113,-78,-78,-143,-80,325
56,-87,-86,-2,-29,342
51,-87,-99,264,117,464
97,-77,-75,471,-72,884
71,-94,-61,344,-140,1102
75,-76,-63,771,132,1560
65,-79,-31,782,321,1647
11,-89,-29,795,688,1730
-54,-97,-30,517,440,1366
-70,-94,-25,13,215,1175
-49,-75,-47,154,260,1079
-24,-51,-36,873,-75,966
-112,-96,-3,518,-544,161
-101,98,34,-630,-975,-36
-58,96,-32,489,-183,605
-74,102,-23,1100,362,441
-115,88,24,615,185,114
-74,69,-12,-422,504,-71
-1,-37,-22,-3385,2458,-1645
-92,60,-82,-2650,3546,-347
-122,11,91,-1665,2368,-1957
91,56,106,-1077,908,-1388
124,71,105,-3721,883,-2299
-73,78,-23,-1885,1762,-1131
-113,88,-17,-589,1444,-776
104,88,-19,-509,948,-963
65,18,-27,936,296,-648
-3,-62,97,671,-1997,-583
-5,-70,-49,-952,-4347,-672
86,-4,-83,-1586,-3693,-103
44,-33,121,2179,-1699,1277
98,-65,-113,1101,-906,149
-97,-12,-75,108,-805,-198
-93,-33,-66,666,-1301,513
84,-78,-97,1045,-818,346
31,-103,-74,715,-988,406
20,-79,-6,272,-1892,481
13,-61,67,-612,-1993,233
0,-30,68,-2362,-812,-525
13,-4,-30,-1904,751,-547
65,64,-84,-1752,1223,-529
-113,-93,-112,-1910,1574,-67
-77,-18,74,-1432,1727,-237
-123,24,94,678,-26,-538
58,52,-58,-3662,-1589,-2364
105,78,94,-2825,-120,-2546
-116,93,116,-1340,1,-2090
3,40,-76,-2015,-804,-2523
-20,-17,-64,-1707,-180,-1580
-25,-15,-66,-1806,402,-1160
-46,-62,-82,-671,749,-927
-58,-67,-87,-951,704,-823
-12,-55,-67,-1348,207,-736
58,-42,-89,-490,66,-138
80,-69,-102,925,-111,92
105,-87,-51,1144,-799,645
-43,78,-69,911,-1035,312
-11,57,-82,207,-509,148
119,95,69,-4516,-322,-2670
41,76,-52,-1531,1170,-1979
40,27,-25,-643,407,-1827
-35,-37,-27,-2263,86,-2558
-47,108,-87,-2163,395,-2035
-27,-5,98,-1094,848,-824
-31,-4,85,-327,580,303
-66,24,104,-494,-380,636
-41,82,103,-597,-955,890
31,-117,110,902,-1148,1651
59,-89,-88,852,-1693,1500
-112,-12,-41,1532,-1910,2031
-78,114,-50,1960,-1806,870
31,120,26,348,-1091,626
101,-103,6,-753,-170,591
20,55,-120,3609,704,1323
-24,51,-68,943,508,626
-62,-15,114,1252,345,548
-48,-24,-124,460,-323,145
-18,-27,-96,-105,-832,-172
78,-20,-56,-489,-663,-397
-125,-1,-52,-501,-262,-421
123,-37,-91,38,456,-264
94,-83,98,1341,816,353
32,-57,-69,-639,-130,-119
-118,6,-62,-2037,190,-393
54,109,-85,-735,1044,32
43,121,-83,-1041,1287,-754
72,-103,-85,-1779,1247,-837
-34,85,95,-1227,938,-863
-77,43,68,-1269,821,-655
-72,68,62,-2046,421,-213
-38,121,54,-1554,-8,174
8,-77,84,-1200,-436,328
108,-53,106,-17,-458,921
124,-99,88,1411,-254,1432
52,107,81,1590,-750,1172
-45,-18,93,1393,-1199,570
120,42,-71,-795,-1263,328
95,-6,-119,829,-1190,699
-83,51,-106,-5644,-1988,-1072
93,82,-34,-3086,344,-1409
-50,23,-86,2096,369,-1168
-109,110,28,-3208,-1984,-2869
123,-110,19,-3601,-2649,-3072
124,112,101,-3014,-2587,-2638
-115,99,16,-4312,-2794,-2235
-71,118,-88,-4890,-2667,-1352
16,67,27,-6044,-1280,-535
-113,67,9,-3833,1469,1304
-16,-24,-37,-5450,1225,-1335
-55,11,20,-3430,2336,-1552
76,119,-127,162,2144,-124
-52,18,-101,-4249,116,-1779
15,-71,-27,71,1642,-641
-1,-120,26,-689,1278,-1312
50,83,-22,-340,1237,-1562
104,-2,-58,31,612,-2121
-75,121,-69,576,-451,-2013
112,77,-20,1197,-1177,-271
54,58,53,1519,-1791,-113
53,108,126,306,-1256,-146
-108,-63,63,729,294,535
113,10,77,2310,-36,1290
-30,-3,105,2360,-670,774
72,-27,-110,1619,-1106,456
44,-58,-88,625,-1159,133
74,-57,-107,868,-638,296
83,-31,-71,1605,-992,611
95,21,19,1084,-1201,647
-92,74,46,-263,-404,589
103,85,-74,1130,973,477
98,96,-88,900,919,-55
102,87,-93,161,899,-705
39,-107,123,-1907,2024,-1115
118,-109,-25,-299,2351,-1028
103,125,-1,-1455,534,-1281
82,-115,-36,-2693,59,-1225
74,109,119,-2291,884,-981
105,97,-13,-1059,1890,-615
-86,115,-82,-3718,-1566,-1864
2,-107,78,-1884,-274,-743
80,-28,-78,-1908,-428,-776
52,31,-57,-904,-29,-964
21,72,18,-2862,-396,-1727
47,91,-24,-2381,352,-1672
86,78,-40,-804,950,-1468
49,69,15,-1079,225,-1518
96,106,55,-2152,23,-1339
64,54,-1,-350,314,-804
-76,-40,-29,93,360,-1186
-121,-84,0,-1820,-392,-1486
-68,-74,-32,-1367,-458,-809
-83,-122,-61,-318,-196,-567
-92,110,-58,-171,-341,-255
-94,125,-42,-377,-912,-157
-70,123,-19,-34,-1214,-151
58,-91,34,-59,-1062,495
-59,121,-16,857,-1010,80
-16,-104,39,-294,-1375,-151
48,114,46,-563,-1410,-403
122,98,83,563,-960,528
46,50,48,1101,-244,644
-111,-12,35,543,-425,403
-101,34,68,-1160,-561,122
-53,40,22,-456,-261,237
-48,74,29,-152,-435,327
-41,63,9,-469,137,113
-19,49,-39,-421,408,-101
-10,62,-116,348,394,167
-22,62,-108,-266,-211,-356
60,123,-90,-454,-487,-272
68,-114,-81,-689,-338,-696
-103,-61,-108,-1072,354,-274
-91,26,-100,-1705,-108,-465
19,-116,7,1231,327,-403
23,-123,110,-1901,-794,-566
52,-101,50,268,-151,268
23,-86,114,-122,-282,-141
19,-79,-122,135,-408,99
-83,-19,-42,-5129,-2223,285
-31,105,-45,-3605,-796,1085
-51,115,-82,-430,1056,836
-82,106,-122,2808,2400,39
-110,-108,-74,-424,1718,-558
-117,-65,-43,-4729,562,-1240
-55,-83,84,-2640,884,-681
-72,-128,64,421,1263,-358
106,114,80,253,904,-762
68,105,74,-274,234,-945
-116,-105,118,-1103,-1141,-658
85,-80,-82,-1507,-2353,-687
-46,127,33,-1745,-2987,-1373
126,-103,-105,-3341,-943,-1773
-13,-123,-117,-3444,2009,-2257
-63,30,35,-101,3479,-2742
39,-55,-11,2364,1873,-2777
-44,-110,56,-1536,-192,-2932
-118,27,-20,-1989,-842,-1416
73,-52,-81,-213,-875,-130
23,-56,-71,689,-1088,508
6,20,5,-141,-1860,952
124,117,47,-492,-2255,1369
105,30,112,1555,-2621,2760
94,-74,28,1,-3622,2583
35,-89,77,-2607,-2780,1173
77,73,44,-369,-190,993
71,56,7,465,1568,512
42,-119,-39,-954,1788,380
43,-51,-117,-2503,1462,162
30,-66,91,-1820,1068,210
29,-86,60,-899,1157,-69
62,-88,35,-811,1716,-307
72,-74,-26,-959,2347,-853
104,-70,-107,552,2420,-1070
-35,118,124,3154,94,-1351
76,42,-7,561,-3089,-2886
-87,21,118,-5238,-2758,-4172
-98,-79,14,-2967,1505,-2087
121,21,3,-427,1847,-2457
18,-2,125,-4059,2637,-655
70,17,29,-3230,2879,-1054
99,-48,-112,2021,3733,-920
77,-99,67,2405,3536,-1833
117,-124,56,487,2802,-1943
118,62,45,-821,1424,-1583
79,1,4,-787,-74,-586
68,22,44,-418,-938,281
84,-22,35,630,-677,1039
-58,37,106,1493,-958,2577
95,86,-48,2482,-2217,3245
-67,-47,-63,19,-1552,1029
107,21,95,-484,972,1199
1,-127,-98,-836,-33,1761
-120,94,10,4232,23,2876
-37,-29,14,4046,-168,479
17,-67,-109,1165,-1024,492
88,-52,-56,-1066,-1309,1488
30,-91,-90,431,-1354,802
6,87,-109,3148,-559,315
64,112,83,198,-552,-673
-35,-31,86,-2328,-56,-270
-110,-57,46,-1289,-575,-88
-42,43,-128,14,1732,-1343
29,-95,115,-2570,3964,-2505
74,64,67,-2460,4283,-1052
-9,17,-51,2658,3330,-260
-83,-60,46,1722,2107,-1451
-92,-74,86,-273,1477,-1529
-81,-83,61,-1446,667,-942
-71,-110,18,-632,19,160
-36,123,-10,669,-244,1541
-28,127,42,1227,-1075,2939
-57,116,47,1307,-1124,3308
18,-108,85,1525,-1530,3758
-40,-66,-35,1499,-2656,3981
95,125,-59,2193,-1315,3233
0,124,-116,3084,1304,2468
-106,97,-107,4129,1960,1610
19,22,-74,4032,1569,1108
123,-92,79,-1273,-7287,391
102,-53,12,626,-2658,611
-11,-15,-62,1731,3485,-134
-103,118,120,-1107,5785,-1878
10,-61,-29,-1986,4680,-490
96,-67,35,150,2261,108
61,118,-15,259,1323,-1147
-115,-123,-25,-444,1479,-923
-34,-84,-75,-1104,1397,-405
-12,-90,106,-215,1253,-239
-16,-96,76,1605,1169,65
-53,126,-106,1737,486,-309
-46,88,-45,1404,-300,-229
-7,53,30,764,-1233,329
73,55,75,-60,-1823,1504
-37,-95,79,-62,-2029,2662
111,-15,-85,2758,-3448,3408
-117,32,-19,3560,-2898,2064
-87,124,-27,-165,962,289
83,-10,-112,-2864,2906,-54
-126,53,-119,1565,3126,1336
105,-89,-126,6437,1078,616
79,-103,-117,3286,-604,-480
-58,-92,-21,-2258,-976,-770
34,99,-123,-1048,-609,128
27,-21,109,1670,-610,7
71,10,-33,2264,-620,50
104,75,-108,-2721,-1413,-300
3,-102,-67,-2591,327,894
24,50,-123,-1512,-374,1717
-61,16,111,-853,-949,829
-80,48,-93,-2040,2350,-850
-2,-45,116,-5483,3973,-1289
98,114,-52,-2428,3483,367
17,14,123,3277,2906,-303
1,-69,-76,3543,2366,-1765
36,-111,-2,2295,1361,-1880
72,111,86,12,-368,-1942
60,85,-114,-216,-2446,-1211
41,83,-38,-3369,-3907,-668
-121,0,-75,7571,-594,4763
58,-19,-79,717,-1762,2027
-114,-85,49,-2476,-731,632
-34,30,-67,-2182,-1012,546
98,-95,-4,4266,752,543
-34,57,91,2272,-175,-388
19,33,-87,386,-723,-40
77,11,-64,237,-1094,612
121,-80,-31,2095,-293,760
-112,111,5,4466,1129,950
-123,-79,-68,-494,396,61
-66,-32,99,-1406,277,676
56,96,26,-1098,-42,1083
85,100,123,-233,-1054,1226
-32,57,-5,-1478,2755,-839
96,-63,-65,-3311,4294,-1214
-45,2,86,-729,3412,-1764
-63,-52,6,4063,2946,-1192
-87,-91,-115,1322,1303,-2760
-90,-90,71,1706,918,-2036
-103,-123,127,537,-364,-1732
117,82,-116,347,-1676,-1208
103,51,-98,-1348,-2958,-997
-79,21,113,-4,-2641,1313
69,109,98,-586,-2374,2452
-63,10,99,487,-6912,3264
77,80,37,-239,-5433,1548
-101,-117,58,3531,3268,297
-73,28,-104,-371,6455,-3461
51,84,-66,13288,5814,6009
-19,84,-13,3417,2123,1017
53,-102,10,-3865,-101,-313
113,6,-86,472,-1778,2358
-4,-124,-89,-6774,-5215,315
-45,-40,114,-2846,-6239,-1403
-78,121,0,6204,62,-1022
81,19,-12,-1741,303,529
9,-40,-102,-3593,483,966
-41,115,-27,-2054,-211,-826
-8,76,76,-1488,2210,-1024
-15,-19,39,-3689,2933,-789
125,-68,42,-4080,771,422
88,-66,-38,33,1203,1278
93,-103,-72,1279,3142,263
57,99,-114,2582,4185,-700
81,59,-34,2241,2847,-1239
114,29,67,241,684,-1492
-126,34,77,-1928,-1282,-1278
-109,0,23,-76,-1858,-604
-107,-35,86,-441,-3137,519
-114,81,95,3551,-4628,1983
-44,41,-19,-1235,-3376,-77
-121,18,-80,-2202,53,1342
-14,90,-103,-1810,-411,772
63,32,50,1924,-563,212
-19,24,116,806,-1538,-332
23,87,-60,-1884,-2140,65
11,106,-37,-2168,-2163,106
-3,15,-71,232,-667,42
48,16,-68,1122,1096,-328
113,115,-15,-1756,1042,-707
13,3,-53,-2401,539,-465
-104,-23,-95,382,-840,61
-16,-91,-113,-2575,-209,-855
-98,56,79,-5285,1642,-959
-66,-100,97,-3986,759,32
-94,98,91,-135,1204,552
-85,58,73,1593,2807,147
-114,65,33,1086,2852,-456
-68,27,-23,1162,2581,-789
-32,-20,-22,1021,1297,-645
-36,-53,19,603,-805,-323
-26,-94,-127,-397,-3033,-186
66,-64,-87,-1781,-3564,486
-56,78,-96,2031,-3691,1691
107,-86,-35,3297,-2610,1050
-103,6,27,-861,67,331
119,97,-67,-1828,1306,1237
68,-108,120,-489,399,1292
33,-116,97,1880,-760,1035
-79,-85,-32,-4269,1706,-1942
-90,100,-112,-2880,3062,177
56,39,93,864,2632,-486
-93,120,59,3398,1835,-1830
90,65,91,2030,-762,-2150
28,17,-118,-3489,-820,-1709
-69,-20,71,-3553,-767,-1431
-54,-22,-109,-3856,-920,-1556
34,-34,-107,-772,-155,-583
-46,-99,-47,1534,713,146
-99,-24,-94,2843,417,1605
-42,-18,3,1457,-2114,1062
-102,-78,2,1436,-2499,1089
-121,-32,-27,2800,-673,1374
-10,36,70,-14,-880,-502
-88,62,100,-1833,-859,-1212
-43,-4,-37,-2300,579,-1528
-36,-94,-27,-2384,-484,81
-118,12,-117,-5220,-1768,-688
-64,115,92,-3402,989,-2020
114,115,-53,1208,2148,-1702
-37,-100,-102,1948,685,-2022
-74,77,122,85,24,-1243
-89,36,84,-933,447,-546
6,124,-114,-3752,676,-1700
-76,-74,35,-3539,3736,-1257
74,17,-65,5940,4026,4018
-47,19,27,12460,648,6274
32,104,-50,-8346,-808,-1810
-2,-2,29,6491,433,4819
12,50,-69,604,1085,1141
38,70,-99,-340,201,-1195
-116,-58,-125,-2154,-2846,-2828
50,33,-60,4161,1123,1483
-2,12,23,3317,970,812
-45,-46,64,2826,876,556
-53,-81,121,1508,91,392
9,-108,125,1509,67,274
116,-71,-48,2163,-423,864
27,-83,-3,1138,-507,323
58,52,126,-6745,-3865,-2968
18,79,-108,-5236,-1748,-1714
113,-58,-109,2617,3013,470
-78,-25,-68,7936,1807,2078
3,-15,-45,-5724,-1197,-1165
110,-37,-75,1264,666,1768
37,14,-123,2579,1089,2448
-52,110,-95,2337,135,2381
-15,122,-72,754,124,2053
94,-95,96,1781,907,2510
123,-87,38,2996,1229,2384
122,-126,28,3064,858,1809
-10,79,51,2246,857,1502
-25,15,84,1583,305,1815
-9,-58,2,2205,1146,2066
-40,4,56,3099,277,3105
50,-1,-116,676,-1058,1866
31,-77,76,2401,-40,1584
47,-121,-119,3251,552,1115
12,90,-41,3068,55,635
-3,29,56,2246,-762,502
28,-28,-85,279,-1454,124
106,-50,-97,37,-1143,301
-110,-93,120,929,-164,458
-111,125,-113,1666,403,100
-66,-112,-103,1269,640,204
-38,-1,-106,1866,-516,-144
73,-83,-38,-731,-322,-1265
47,-37,75,455,2298,-63
-89,-13,-29,1110,2562,-362
51,13,50,1142,551,-406
80,36,50,75,376,-344
47,-52,-54,1149,788,-459
-33,25,72,-1629,489,-987
-128,-13,32,-1661,1044,1083
-115,96,-124,180,1995,2469
94,18,24,5506,3313,2503
95,106,40,5561,691,129
-80,97,80,-2458,-57,257
20,46,-3,-1607,3067,1958
-121,64,43,4656,3370,4394
104,48,100,8358,763,5278
-22,102,-7,-3589,-2031,1228
91,18,-82,3144,269,2203
76,-4,-20,2470,1732,918
70,99,-14,590,1582,1157
106,67,-84,692,554,1426
-45,-94,-36,2022,-496,2689
88,-17,42,648,-1684,2279
-41,-104,-13,1018,-1120,802
-25,-113,22,1106,-1099,831
0,-66,-91,-587,-1981,639
78,-101,-119,-1110,-1362,509
-125,113,89,-357,-73,419
43,65,-6,2164,688,62
-109,93,104,436,-1445,-768
-32,85,-121,-3922,-1393,-1367
-60,65,1,-4722,-215,-8
-22,85,94,-2535,1254,893
-22,-96,-19,-360,2284,662
-35,34,1,-50,1642,-228
-17,57,-24,-1640,997,-1166
21,56,-85,-3167,713,-1461
19,49,52,-2997,-38,-1296
-5,53,40,-2461,-607,-816
-47,79,69,-2503,-1208,-484
13,-85,45,-2816,87,58
-16,-46,76,-2676,865,-1215
38,-84,18,1013,1935,-1930
113,126,108,1060,1268,-3501
-72,-121,-15,-2024,-944,-4634
14,40,-25,-1994,-623,-4446
-48,118,-110,697,243,-3315
66,30,-88,1049,15,-2331
-98,-15,-64,-591,-366,-2150
110,9,119,52,-148,-1171
57,85,116,-539,567,-897
69,16,-109,983,-230,-691
102,69,-58,-38,472,-1173
-40,11,20,20,-558,-371
-54,94,-82,5952,1552,6425
119,58,76,-805,-810,1379
-60,-99,-72,-773,58,853
-89,-115,-31,2468,1766,2398
17,71,-94,1343,1290,1191
-64,-21,-109,-201,835,46
121,103,-101,1785,719,825
59,-102,-70,-5075,478,-2827
-43,-90,73,-1030,3101,-683
-120,100,109,2763,4093,932
76,-109,51,8858,2259,1565
33,-38,-9,-5027,-633,-3642
-86,-35,81,-2070,-102,-1225
12,-124,-45,3640,3676,3328
17,-44,-14,4357,4796,7148
-83,-114,50,-8645,388,1617
-72,29,55,3976,1814,3640
73,-116,-62,-1817,2844,2581
-32,62,90,-2151,1624,1954
-31,-123,-43,859,1626,1792
9,119,11,189,2154,1453
63,-77,23,659,1420,3041
26,-76,68,-900,367,2865
-1,96,57,2219,809,1477
-5,-93,99,-197,-994,822
-4,-62,-87,-404,-861,519
-37,35,37,1652,-621,1417
-110,62,109,-360,-878,932
-34,110,96,-901,-496,1201
91,-103,-120,-1061,797,1176
62,43,24,2358,1679,2973
-69,114,4,1052,326,1478
-14,29,-55,2452,645,1643
-24,-77,-72,1532,325,1111
-118,-53,-27,-80,-325,850
64,-73,-74,230,-114,-297
72,-105,-93,-563,-668,-1198
51,-4,75,-2054,-100,-905
-125,-102,-5,-4898,-1784,-891
-62,-100,72,864,1368,-706
-23,12,123,-3131,-3216,-3541
30,-64,28,-688,-2008,-3192
2,-93,92,-1435,-2406,-3840
45,-102,66,-1463,-2094,-3160
40,-118,121,-2203,-2205,-2998
50,80,89,-1544,-1028,-1831
-7,65,95,-100,-1259,-538
-72,68,-53,-1182,-1636,-165
-68,63,-93,1345,-812,1113
104,92,-12,1592,-1274,932
54,-88,-105,-785,-2190,1096
7,-90,-71,-1565,-1769,104
40,115,-109,-587,-667,189
43,91,122,316,-285,178
35,88,85,333,-37,210
47,122,74,-504,-117,145
85,114,-1,-417,-14,133
117,94,-18,-384,26,117
-119,58,-69,-104,229,305
-80,69,-67,-661,-481,31
-25,52,-63,-313,-698,325
-31,37,-37,-136,-605,175
40,36,-30,76,-249,58
66,34,25,81,-1199,425
-42,38,83,-177,-2108,367
83,22,-91,-959,-1700,-197
106,48,-117,-1088,-508,293
95,102,101,-718,-309,263
9,-126,13,249,-7,-175
-57,-117,26,-1080,-875,-1320
-91,36,-68,-4206,-2128,-1125
69,-59,-83,-4968,487,79
94,59,-75,-1137,4681,-550
-36,-29,35,3098,4152,-1606
112,94,42,2628,1603,-1847
103,14,0,906,1325,-1051
71,-80,0,-1616,299,-1414
-71,-95,-33,-1144,841,-583
101,-9,-126,-692,1856,566
119,88,64,2247,-963,2451
44,107,42,-2304,-4629,2082
90,41,-45,2547,-4756,2467
20,-29,-60,3422,-2646,2249
40,69,-126,1142,-2635,1123
-72,88,-18,-428,-3640,456
-42,-95,35,-3785,-2002,307
-22,26,-112,-4758,1966,836
54,-123,-80,-3692,2901,1404
-71,67,109,983,8574,854
70,-26,46,10851,11069,-964
-76,119,11,11250,1319,-2255
35,-77,53,-8677,-4648,-4505
-122,6,10,-7634,-2650,-3253
-105,-20,-118,-4406,-563,-740
62,-74,111,-1322,2400,1760
59,-65,-49,7223,302,6175
-117,-69,121,3162,-5492,4266
-16,61,-22,-2960,-5173,760
-23,-13,-29,2636,-682,2708
-91,18,108,2545,-562,2341
13,40,-36,2542,-1949,1524
-12,19,3,2535,-2389,1132
32,34,-64,332,-3860,481
-49,89,-3,-1451,-2368,663
31,-36,-52,-1206,291,-669
47,113,-46,-954,4463,-2598
-86,102,-45,-4604,4873,-1494
-32,-107,-127,-2096,3407,-526
-46,52,-16,2062,4612,-1968
33,70,89,-284,3981,-2469
44,19,65,-219,2354,-1822
15,-40,38,-476,1282,-853
-3,-62,20,-224,547,472
18,-82,26,996,-146,1599
58,-98,31,4021,83,3700
-62,-64,43,6225,776,3981
-62,-108,95,894,1698,2382
26,-39,13,-1890,1112,1684
-116,3,90,2413,2639,758
-44,-35,123,3030,790,803
52,25,60,-995,-2079,-4206
52,-102,40,2103,-998,-3796
69,60,-106,-1257,-1067,-2416
8,124,-37,-1420,-956,-1354
-30,40,116,-796,-952,289
-68,92,103,-989,-412,2036
-34,-56,-105,-500,625,3794
-36,-72,-33,345,1928,4420
-21,-33,34,500,734,2599
54,-56,66,1532,319,990
91,34,-15,1368,4,425
-4,-105,-68,-780,-203,-386
-22,46,101,-1131,580,-1084
34,25,-42,-507,929,-2196
-124,-73,-122,-361,445,-3318
-101,98,19,-1522,-2725,-2471
62,38,-99,-1525,-1456,-4359
98,59,76,3903,1046,-3044
76,91,-122,2197,-1120,-1740
21,-24,-116,-1826,-2939,-790
26,102,-15,-2046,-2504,1539
45,-48,-14,665,-1039,3342
84,103,-95,47,-194,2986
37,67,-116,3029,122,3576
-122,105,106,-1110,-908,1696
-83,-70,-8,2959,-378,528
-42,-10,-84,395,-229,425
-92,-42,75,-1148,827,-307
-91,-54,-39,-1333,822,-1454
30,51,73,-1653,752,-2650
-90,-75,-95,-2813,-1474,-1832
106,-112,-104,-3955,-1119,-3887
-61,-5,-106,3338,1672,-2656
50,-27,-51,2004,58,-3156
28,95,117,494,-1362,-1592
35,-49,35,-2245,-1104,-1212
65,-63,-11,-879,-246,328
95,-125,39,1866,-361,2968
123,103,-85,2725,-65,5157
1,-121,31,-157,-3418,3597
-57,64,-88,-3871,2991,-3176
2,-119,20,186,3696,-1191
57,-27,97,3534,2933,154
38,-93,-1,699,1241,-985
-41,-79,23,-2230,1063,-622
119,126,-123,-1378,1830,1263
-36,127,84,-629,2004,3348
-67,-79,-1,2187,1978,5793
-7,-121,-121,2004,843,6170
8,-97,-28,2523,-1315,6560
83,33,-5,4214,-3110,7619
80,10,18,-493,-1064,2517
-126,-26,87,1232,1412,1521
58,-28,-127,2405,264,3494
61,-43,-114,2468,151,2474
-1,-125,98,2492,663,593
44,97,126,1995,298,919
11,47,-91,2114,-310,912
7,10,-24,1443,-1039,-381
89,-13,63,1198,-2006,-671
-33,-36,-59,-1150,-2898,-1086
-104,-48,124,-479,-908,292
41,107,8,714,1160,-152
-83,84,-35,2279,1289,-1303
-44,-113,25,437,67,-700
-3,-90,-37,-1156,87,-237
-24,110,63,-794,-82,-317
13,98,6,739,916,420
7,48,11,-1611,-2266,296
-16,10,-125,4197,-1736,3200
-73,-117,-113,-5298,-2418,-500
24,-87,-88,784,-268,1262
31,-118,-7,194,1729,-215
47,-27,-14,2350,2861,9
89,-45,41,779,1612,953
87,107,90,2797,1040,2227
-72,-73,-52,1890,-1215,76
-24,75,94,-3878,-1237,-1587
60,-91,99,-3232,3110,-494
123,-8,-72,-2601,3251,-1214
93,-12,61,3275,3506,-737
63,-11,-42,1489,2643,-2058
-123,16,32,-1817,1467,-2192
-96,-34,-90,-551,509,-1313
92,-94,-115,1451,516,-666
9,-46,-21,1987,-312,-336
-19,85,85,-692,-1467,-1213
69,97,-114,-1797,-882,-1361
-92,46,123,-446,-528,-1448
126,-1,72,-791,-587,-3307
-34,-17,-11,-658,-532,-2492
-57,-40,-52,-1173,-630,-2937
-46,-117,101,-7,-130,-2241
-97,116,110,-597,-524,-1971
-118,93,84,-170,-456,-1663
110,47,-128,-285,-648,-1002
48,-12,-93,-22,-841,-549
13,-72,-11,-612,-1142,-322
38,-120,59,-455,-368,794
111,-117,35,1658,361,2046
-28,37,125,1491,176,2401
-39,111,108,-603,-65,1521
-48,25,22,-1186,-1159,1216
-51,-43,-104,975,-1023,2013
-88,-89,-112,769,-941,2125
-122,-76,-126,787,-1131,2147
-100,-65,-119,416,-790,1853
-92,-40,-117,1271,-492,2086
91,-49,-103,1520,-545,1404
36,-96,-60,1231,-540,870
27,-125,-41,795,-630,693
5,97,-51,1709,-535,698
-32,115,45,1189,-1052,454
56,-29,121,-808,-1221,48
25,45,-40,-2357,-1454,-1193
-33,-8,45,-802,2315,-1978
124,-36,-29,-553,3371,-2492
127,-52,86,1468,2912,-2080
-124,-53,-62,-922,825,-2621
118,-57,-116,-1883,209,-2071
-14,-10,-98,1995,-2133,5838
19,22,10,-843,-2774,3673
59,-26,-89,868,-2203,2186
41,-9,-31,1580,-1782,2794
120,-95,-108,4114,234,1919
-10,66,-68,3826,982,181
-27,50,88,2441,296,506
-56,21,-47,911,52,39
-36,-21,-42,1095,692,29
-102,30,39,-440,-653,-721
-38,111,46,-2760,-1432,-1335
-34,-9,-41,-3598,-1973,-959
53,13,27,-2766,184,-1019
-97,51,-117,-2288,3542,-1890
-124,-97,110,-1720,2810,-2066
-108,-87,95,-1578,2584,-2454
-55,-118,55,-876,2672,-2409
38,119,83,-1048,2413,-1672
-4,67,47,-36,2046,-1290
-4,7,67,814,1108,-792
-35,-64,93,631,-569,71
2,-121,70,1092,-1678,1665
61,-96,94,1767,-3062,3930
-18,-16,16,952,-5810,4474
-18,86,100,59,-6003,3201
92,-40,-57,-452,-2099,740
10,104,-26,5966,2067,1861
-120,-66,53,8099,1952,2988
13,-13,54,3779,-342,2989
113,-34,-20,-2258,-2765,1466
80,125,-113,-938,-3185,588
-120,34,13,-170,-2838,-597
40,48,-58,214,1182,-1345
-46,86,-107,-1039,3276,-1873
-108,61,51,-2200,2570,-2593
72,-104,-86,-3227,2864,-2811
10,34,-110,-4155,2263,-2253
58,49,-28,-1001,3217,-1980
56,13,1,368,3586,-2346
48,4,77,134,2696,-2217
53,-14,91,2814,-3392,5255
-48,52,74,244,-5445,4215
20,64,-75,1129,-1968,3221
78,-15,71,3904,548,3266
74,-35,6,7884,2031,3141
-20,-6,0,3404,364,1928
-59,-24,70,-986,-611,1020
78,71,34,24,-2460,399
102,10,125,1906,-3109,585
-106,51,61,-1624,-3269,-344
81,90,-46,-1215,191,-949
-118,39,-97,-1824,2256,-2177
-34,96,39,-3718,2896,-2819
-52,38,117,-4172,2935,-2379
-37,1,35,-2091,2670,-2848
18,-43,-20,1543,3289,-2908
74,-5,112,-1149,2406,-3096
89,28,110,-1608,1599,-2261
18,-110,-26,-1177,1926,-1727
22,72,-96,3191,2006,660
-17,83,43,1620,208,1492
59,-81,-100,-994,-1666,2862
-91,-53,-116,-1127,-4251,3751
43,-88,105,-426,-5075,2584
25,100,-87,1022,-3309,3336
73,56,-114,2025,-1034,2345
-114,-78,43,5696,529,957
30,-94,26,3756,-848,1277
-64,-116,69,-514,-1127,1135
-66,109,42,-619,-1554,80
71,59,-92,477,-1759,184
-85,37,31,426,2847,-359
-3,0,82,1063,6428,-2760
-118,-81,-58,6788,7195,-1974
106,-20,-99,5119,2279,-2051
10,-26,99,-7231,920,-3881
-13,33,-54,-3424,362,738
1,-74,-59,-3136,-1875,976
-25,25,-25,1555,740,898
-65,-101,22,3826,1353,1575
-104,-50,-128,4510,145,4582
59,96,78,-3,-883,4567
-45,-88,14,1311,-1283,4562
-107,6,120,3400,-1630,4678
45,-41,125,4462,-124,2431
121,-78,-38,4529,621,-646
-79,47,-25,1335,709,-1147
54,58,46,-2746,1875,-993
12,-77,-41,-5458,53,-1355
21,69,-87,-1169,1560,-2352
15,54,-18,6180,1487,165
-105,87,-15,81,87,-1822
122,-18,-125,-1788,-715,-1929
-108,106,-19,-576,-930,-1058
-91,91,-37,-341,-823,-521
-16,-88,5,721,-253,587
-37,42,125,-810,-905,437
-88,6,-7,1419,-139,432
70,-32,64,748,-1423,115
47,13,111,-1841,-1936,30
63,44,-22,-2282,-2017,-282
87,114,-36,-1844,-2301,196
91,-61,-30,-2007,-2021,170
72,-37,-57,-2126,-1253,134
73,-69,119,-541,-130,625
48,-68,68,957,635,806
53,-19,107,164,102,677
76,35,126,-1020,-370,542
122,84,127,-1501,-484,266
-124,73,103,-789,256,-56
115,31,52,474,1222,-552
-103,5,61,298,1585,-1140
-60,-10,58,111,1366,-1610
4,120,8,201,1438,-1851
31,11,-24,2919,185,-67
-68,46,-75,-1448,-2828,-241
-106,109,-101,-2269,-2972,-142
-93,-124,-121,-1868,-2331,263
-76,-86,-71,-930,-1478,1109
-123,-38,-64,-545,-434,1031
18,117,-82,-3032,2813,-2356
112,69,105,-2124,4502,-3498
-85,2,41,2075,4745,-3462
-112,-39,-103,4,2035,-4065
121,114,63,-374,1466,-2875
46,-24,-7,342,870,-1374
22,-95,-23,1056,518,546
21,-93,9,-211,244,2455
-71,14,14,-1128,138,4233
126,-4,85,3606,-1893,7630
-58,88,26,27,-3155,2969
-105,-35,-53,-510,-673,2347
-107,-36,-103,1656,216,3423
-51,55,22,6914,1355,2728
-44,-97,-93,5411,181,600
-56,52,23,1609,-610,223
-48,12,28,266,-397,987
126,-40,100,-1008,-1124,1370
34,-19,-48,-3331,-2624,-1391
25,-127,40,-582,1002,-2065
-107,-46,-94,1501,4183,-2186
85,-82,-116,1839,3309,-2475
108,-49,-7,-518,955,-2019
-85,-25,-83,-1768,174,-1008
-88,-63,76,-792,102,-280
12,-34,54,754,41,1419
-28,51,-80,783,-1053,2291
-5,-108,-25,1056,164,2754
-29,85,98,2504,729,2
59,84,23,3626,-1204,37
51,77,-115,16098,3390,94
30,-8,29,-5606,-4579,-1586
-57,-50,-4,-4671,395,-1123
68,114,37,-5319,1420,-449
-52,-78,-80,-1502,1860,1269
49,23,117,6246,2247,5336
-28,92,75,2834,2506,4971
85,84,76,5876,1553,5798
-20,-101,-15,1678,-3077,4068
126,35,-107,-1417,-1682,4253
-50,0,120,-1671,-1601,4923
41,4,39,3285,-699,5676
127,29,70,8563,-440,479
103,-18,-67,6211,-1654,-1767
-32,0,-39,-3448,-2357,-1183
55,-7,-3,-1603,395,-199
25,82,-67,3169,1154,-1164
-92,-54,30,4151,1609,-395
-59,-18,12,-1512,-566,486
-99,42,114,-1759,-1448,-947
25,123,103,3425,1314,-625
69,-86,38,-804,581,-1816
-23,-63,-60,-1115,645,-1357
38,-85,118,2827,1725,1052
-102,-77,-53,2631,181,703
-63,75,38,-678,563,-9
115,-118,-53,-310,1472,164
-5,116,111,2324,1523,461
-94,81,-67,1883,471,-763
27,103,46,-2745,93,-2146
-50,78,-123,-2113,1412,-1657
-58,21,69,428,946,-961
118,-17,-16,-3003,-618,-1391
-14,-65,-87,1490,-702,2922
-46,-14,-4,-308,968,45
19,-121,-94,350,1548,704
-45,27,32,3611,1751,1759
67,-28,-124,5599,1369,1805
-9,23,54,4022,915,646
-66,-112,21,-1936,-885,-611
-14,119,-114,-2306,-894,-914
-9,-106,44,-1719,-426,-145
-8,51,58,-4177,-1384,-479
121,75,-98,-2476,-431,-451
109,31,109,-1907,-287,-875
25,-69,16,409,528,-1017
-43,126,53,343,-36,-1433
-17,-109,106,-1288,-927,-936
40,-112,85,-1347,-691,122
-30,-31,62,-2367,159,938
-4,59,0,-7029,-247,-1307
83,93,29,-15971,-6514,-4572
-25,56,-88,19529,8016,3645
26,-124,88,23952,-1746,6133
-2,121,123,31313,-5214,-11505
-76,-49,0,17773,4459,6034
65,78,18,15211,584,4343
-87,-44,-111,-14948,-4096,-5842
52,-43,-26,5252,-197,1855
-8,115,-11,-636,-2151,-4
-29,-40,10,-1155,-2032,-22
-40,-95,50,-1523,-1938,-97
-10,122,-22,-351,-476,568
0,123,-27,-629,-327,417
50,-109,-76,-19,88,748
85,-70,112,791,434,1124
124,-35,-102,268,-515,1340
99,-24,-71,-470,-1044,1239
-108,-43,-102,-16,161,558
79,119,104,2022,1014,-250
32,56,87,1589,1105,-1015
-52,65,91,-153,914,-848
34,19,7,-609,-3817,654
-49,-13,51,-3935,-3983,-578
94,-41,-111,377,301,300
80,5,-90,-1208,2531,-863
47,69,-113,-1128,1660,-625
-9,127,-112,347,-452,264
-7,-89,-100,-271,-1314,-164
-121,-27,-52,-744,-1004,47
72,17,71,-1974,-1872,-248
-74,20,-28,-2026,837,-525
3,39,-20,-2312,2041,-720
-10,58,-108,639,2887,-620
-16,86,-64,-929,2987,-1819
38,87,-98,-726,3180,-1470
42,1,118,-1161,2343,-1564
51,-21,50,-736,2057,-861
-78,-66,62,-2956,2070,-471
52,35,-1,5735,1351,2103
108,-2,-104,4566,-921,2943
-69,17,89,-1607,-2348,1353
-37,124,-32,853,-302,1384
109,-117,117,84,491,744
63,56,-1,326,861,655
54,-40,-96,526,1313,35
80,-48,-125,369,1186,-848
79,83,-3,1757,-2721,-1019
29,18,-127,-7189,-2352,-4967
101,12,5,479,961,-2619
-60,0,-112,1060,1866,-2100
68,-29,62,1618,280,-1229
33,-104,109,-1677,-1166,-612
38,-117,0,-1183,68,1510
101,-97,-18,57,1038,3134
28,-60,100,-680,-221,7261
-121,125,109,1838,-2668,5940
95,-68,15,1596,-2777,-269
-86,119,-116,-835,-2392,123
98,-116,10,2012,-133,2581
-102,113,122,1100,360,1035
107,69,22,1464,1190,864
100,-72,42,-377,505,35
56,-55,-21,-3996,-1918,-1315
-52,-101,-37,-607,619,-1462
121,-11,-11,1709,4572,-1533
-34,-76,-85,1282,2752,-2090
-73,-120,-100,1346,1050,-1647
-20,86,-103,-1081,608,-986
24,69,105,-734,722,689
26,78,92,-738,756,2071
-2,115,43,-199,727,2900
1,-34,111,1038,-651,4454
-82,-56,-86,657,-1740,3757
-113,-126,103,3015,-1115,2883
11,127,33,3895,-3469,2389
-97,-5,-83,245,-4258,575
43,-53,1,1578,-766,2183
-69,-50,10,2536,1314,2551
48,-10,-25,4274,1623,1971
-110,24,-115,5431,36,1633
92,-15,65,1183,-984,-332
-76,-122,72,294,-276,-1269
57,1,5,1527,1864,-836
-28,26,69,1561,1507,-933
-70,38,76,-703,1369,-1299
90,-59,-4,-1537,1188,-224
90,40,25,-2342,369,-935
-52,28,-42,1427,1340,-287
123,-53,-63,816,1720,-1419
65,38,45,1465,1518,-1173
58,92,64,-904,21,-535
-124,-61,-8,-1857,-865,354
-37,-61,-85,1631,757,389
20,10,32,1363,706,535
58,34,86,332,516,532
48,-53,66,1485,173,1024
10,-49,-102,721,215,1368
-81,-37,-16,1555,838,579
31,52,53,-644,833,696
-96,-40,29,-677,1052,1429
-88,104,-80,2205,1931,354
-29,116,-43,-123,345,-1289
-5,3,58,-270,980,-2087
76,-31,11,627,1138,-2604
-40,-104,74,-1213,481,-4234
74,33,-82,3098,1025,-3483
25,-96,66,-1934,-3042,-5083
51,-2,61,825,-1322,-3500
-23,-50,46,2393,845,-2314
118,-18,-24,792,-1903,-1483
123,107,127,-526,-2587,-290
-117,74,-9,490,-996,2369
65,13,-92,-1121,-876,2486
96,29,-45,2312,1279,2721
-32,29,31,-2094,1011,2523
93,-46,25,1823,765,1455
-89,0,-37,2606,633,338
58,90,-109,-175,280,419
-32,-1,60,-577,581,-531
-90,-105,73,3291,-1868,5216
-3,18,17,-369,-2250,2683
95,-46,116,2602,-436,2162
108,109,-128,967,403,68
36,-128,115,-2332,-772,-175
33,112,27,-3202,-1482,-801
-96,108,-37,-3064,-1155,-1571
-71,-56,13,-3879,-517,-988
75,103,-98,-2955,1213,212
70,-124,37,1788,1903,-146
8,47,103,523,608,-795
-63,-73,-22,1821,1347,-60
51,97,22,64,-71,-1101
23,40,17,-97,-858,-1059
45,9,39,-383,-1327,-282
87,62,96,-80,-792,229
98,90,-41,-1065,-527,-618
84,97,-7,293,-906,187
-43,49,2,593,-1387,-230
-37,71,81,-2067,-1490,-734
9,123,59,-2129,-494,-614
35,108,-11,145,954,-252
9,-95,-38,622,1176,-463
-58,-2,-16,-838,602,-1549
-62,18,-39,-965,695,-2352
-66,33,-71,110,665,-2127
-99,103,-35,-641,208,-2547
-83,81,-44,308,592,-2474
-66,67,-44,27,861,-2840
-35,22,-53,722,1046,-2931
-32,34,-1,-783,394,-2791
42,-112,-36,876,338,-2276
84,42,-25,157,83,-862
121,-34,-68,-219,-46,136
-73,-91,113,1168,912,2022
124,-8,-59,144,-36,1732
-108,-74,69,-641,298,2094
42,66,-80,-49,-11,1560
-65,0,-108,875,1041,984
49,91,116,-821,463,32
-75,76,-98,2720,2252,3441
-86,-94,-106,-2881,7,1006
101,-19,-48,1784,463,251
67,-36,114,-256,1164,272
21,124,24,-1779,1218,-404
17,-8,-110,-540,1057,-1513
85,-120,126,-1772,864,-2776
87,-82,-29,1140,776,-2731
5,82,105,-5243,-2693,-2240
77,-90,-126,4708,759,-3229
-58,46,-69,3624,-450,-1737
-18,15,92,-316,-1356,-624
-27,-128,-22,-581,-749,315
16,109,-124,1143,-192,2102
-62,59,55,-1717,-388,2024
10,56,8,1984,1432,4324
48,-85,96,-2268,398,1759
25,-123,112,-53,-531,1898
-18,102,-32,1577,1263,1641
-128,-79,96,-452,1528,1403
68,-119,1,-898,1637,822
79,72,-58,446,2069,-80
47,84,-9,376,1216,-1785
64,-95,-28,1956,228,-1956
117,56,26,-3702,-1740,-2235
-40,-81,-26,1626,-3,-2213
47,39,-97,2466,-270,-1187
37,-37,-106,-1874,-1024,-613
76,91,-23,-1422,493,653
9,122,-86,-4249,758,454
-53,-71,-52,-1428,877,1935
-8,-98,-70,-541,2747,4394
18,47,21,-2062,1035,3028
-81,-124,18,-643,-267,1335
8,-9,-39,-1780,1270,1703
29,-108,85,-1146,1706,2126
-33,87,54,-2587,386,1836
29,-90,-62,-261,546,3080
-26,2,122,1600,759,2978
-115,3,71,494,-996,2276
4,-69,58,-2778,1523,2736
72,-31,-35,-2020,952,4673
-87,71,104,409,683,4647
28,-57,64,4014,-430,3876
-53,9,-87,1634,-3452,3434
-1,17,-89,2247,-1788,3666
-83,-118,26,3095,1354,3803
-4,-112,-96,1615,-191,4400
73,79,-35,213,-1955,2848
-108,64,96,-2734,-4989,1310
96,58,103,-3944,-6355,-517
-5,-122,49,2784,-2431,550
-93,-9,49,-2328,1465,-778
-106,88,-66,-3731,2688,-983
86,-12,-100,-3664,3887,-2273
98,-108,62,-3661,4424,-1546
-22,25,83,-3219,2845,-855
58,-43,49,-311,-3349,-970
-114,14,43,1014,-3565,1572
75,-38,84,2750,-5161,3535
-7,-115,90,2903,-4245,2802
-122,-17,-126,703,-1910,2304
23,-78,23,-371,-2712,3687
62,-28,-4,4335,-2657,4410
-5,88,-26,4618,-1592,1195
-107,75,-98,489,-2533,-767
-54,-70,66,288,-373,475
-92,85,110,171,334,-315
-31,-108,-109,-296,107,41
-94,116,-69,-4192,95,293
66,56,-106,-4835,457,494
125,-122,81,-3355,4066,-1769
-47,56,2,-5440,6923,-2122
110,28,21,-1959,5226,287
-9,-120,97,2169,2729,-1197
31,93,71,3315,3356,-2510
-6,52,80,186,3232,-3323
-22,22,76,-1166,2352,-3183
-97,-44,62,229,337,-2873
50,-73,-113,-42,-2192,-2888
-22,61,86,9225,-578,5654
41,-28,-26,5704,-3181,7989
118,51,-93,-9496,-6380,130
-119,-51,-118,-106,-3689,2275
14,97,-68,6029,-1814,4965
-65,103,-101,6804,-1080,2552
2,100,84,4253,-3250,1488
-125,-53,-31,-4241,-3365,89
-104,-10,114,-266,-737,426
-43,-3,-97,1483,908,57
9,12,-45,-2292,768,-480
-120,56,123,-3716,1350,-1728
-48,-103,-77,-4035,3294,-2131
-84,-48,9,916,-406,1633
-72,33,-4,1397,-561,2241
-56,119,-27,1712,-529,2355
-49,-49,-46,2455,-751,2319
-69,9,65,804,-2550,1633
120,15,-65,-1332,-4037,606
-126,120,-70,-288,-2578,243
-71,53,-85,2411,310,828
-91,122,-28,-1152,765,-346
-87,-87,-52,-2373,644,93
-69,-100,-120,-1560,386,175
-21,-76,113,-1773,822,163
35,22,81,-2504,1278,-21
79,97,18,-3239,1933,-413
-112,-76,-43,-1805,2287,-11
-101,124,8,-1617,-126,-1556
107,18,5,-2710,963,-1164
-94,-102,68,-5484,1085,-1911
-53,5,-35,-2099,3609,-2960
-18,-104,-91,1937,4592,-3168
-38,70,-128,2437,3419,-3605
-54,-8,110,1156,1690,-3895
116,116,-107,429,-785,-4055
102,-32,-87,7694,1922,2317
-86,63,-64,3131,1152,3645
43,-51,47,-450,-1028,5899
-90,121,116,-4222,-3925,4282
117,12,-29,573,-2712,3981
-4,3,50,3173,-873,4582
-4,-128,-22,4663,-21,1357
124,-28,101,4673,-29,-43
-81,-70,-87,3030,-1328,1533
-122,-96,94,517,-3496,2161
56,54,-38,-2001,-4920,680
-43,-13,-23,2072,-2961,964
57,8,-98,-341,-897,-87
-113,-116,-128,-3127,1927,-1001
34,70,-70,-4216,3241,-762
65,0,-22,-1871,-1891,-1873
94,-43,-37,-5942,-2850,-550
-73,-51,-72,5474,-1097,4249
-64,-44,18,6997,-1078,6664
-10,116,-32,3179,-2161,6160
-12,83,109,-2097,-3169,6598
16,82,-2,1108,-2787,8485
-45,-1,4,-5650,5451,-5890
107,5,9,2370,4554,-1728
19,-68,29,747,4239,-2436
-64,-104,65,-414,2825,-2710
-93,-126,96,-1411,1022,-3159
-80,98,53,-980,648,-2577
80,-18,35,-310,-760,-1306
64,-117,-25,1243,-1902,1808
95,-108,-63,3308,-2555,4965
-19,30,-108,3649,-4572,5681
10,49,69,-1467,-4764,2927
-37,-18,-38,-578,-2941,3075
-5,96,2,4480,-2740,4896
115,-1,36,7053,-1885,3289
109,-29,-42,1166,-2979,-578
-90,-50,110,-3604,-1361,-2518
-28,59,-27,4847,1225,1875
116,104,-62,786,-218,39
-18,53,-23,-1857,-516,641
103,9,6,-5196,-1064,-671
85,0,-9,-2549,1932,-2009
-85,-44,95,-3597,5202,-2733
-42,-22,62,-5239,4557,-1566
-6,119,88,-3387,1749,-376
-78,9,-6,1165,2615,-588
-56,-32,10,1601,3647,-1130
-80,-60,-7,947,3993,-1581
-97,-88,37,-90,2606,-2224
-116,115,22,570,1088,-2113
60,64,101,-344,-1645,-1744
53,-18,85,-786,-3274,-1234
89,-95,-14,1287,-3376,1752
3,115,73,3152,-4022,4124
66,-73,-128,2003,-3205,2654
-24,-101,34,897,-3645,3460
-88,9,57,1415,-3171,3844
113,-104,-26,4533,-1342,2620
-102,-124,66,3204,-1647,318
122,75,-86,-2354,-1743,-756
-82,-65,29,1383,355,368
-91,115,69,1940,852,-544
9,-36,-122,-343,1111,-1070
-34,94,90,-4109,1322,-2044
41,87,-16,-1361,1209,-1336
127,-63,-109,-2664,1781,-2530
-116,-119,54,-5411,3498,-2069
9,115,88,-4805,1607,-592
-70,124,55,-1131,1528,-235
-110,-6,-27,2142,4118,-1543
113,-53,-34,2017,4414,-2605
105,-114,34,1789,2730,-2816
83,92,-111,-472,-427,-2551
58,74,-102,-1971,-1933,-1769
72,-98,-6,31,-1440,44
-59,121,-118,4710,-213,3646
-22,75,5,7713,-1314,7423
-47,117,-110,1721,-3525,5386
-34,94,73,-7772,-3270,-382
13,102,-102,-441,1594,5910
116,-38,115,4363,-2838,4699
107,-52,-73,2109,-3040,-689
-113,48,80,-244,-4025,-529
66,-47,65,-1139,5031,-2441
-113,-67,-63,-9634,3678,-3535
-15,78,-72,-1502,3684,52
51,113,-19,3519,3356,-1347
-37,92,72,1401,2406,-2228
-77,80,-121,-1557,1248,-2560
-83,75,77,-1826,702,-1579
-112,14,35,-828,318,-587
109,-76,-6,1313,-404,1062
-55,-91,-5,1375,-1365,3187
-97,63,48,2532,-3027,6099
70,120,99,1918,-7155,6429
78,116,-119,-719,-6200,3856
12,16,-104,608,-686,4093
-86,104,61,7943,3015,1456
68,-56,9,8330,3283,-172
12,-32,-9,5362,1811,2702
-113,113,67,-2817,-19,1718
5,44,-36,-1236,-2593,1548
-68,72,77,447,-5199,1370
46,69,79,-2784,-6507,765
45,49,104,-5160,-2672,-3316
-6,116,113,123,5314,-2447
35,-95,45,-6239,6451,-3507
109,-33,-70,-9098,3478,-2249
-10,-14,-33,-480,3395,-1659
-7,118,33,2788,4503,-2836
3,-99,-100,-911,3976,-2898
-94,-114,-92,-2250,2775,-2496
73,88,-111,-2488,1721,-2191
26,33,48,-560,1938,-912
-64,-60,73,603,528,37
-24,-120,38,915,-836,2321
46,-54,28,3322,-2423,6525
-104,-73,-26,-231,-4852,5568
16,-75,92,742,-3709,4220
87,-41,-86,1316,-2927,5421
-52,-14,88,6130,-2338,8339
-24,121,123,9863,-1903,3049
47,-66,33,-1546,-2364,-4278
-92,117,38,-3052,-2576,-3594
81,74,-28,-1170,2382,-3999
17,95,-128,-6124,5944,-5095
112,101,-120,-2267,8655,-1323
12,-76,52,11847,2525,3129
-7,80,42,-1490,-287,-1874
-120,-124,68,-3166,-248,-1580
-119,84,-98,-2891,-106,518
-76,-112,-127,-743,-484,1925
-75,-108,94,68,385,2546
-102,-59,52,3068,1486,4165
61,1,-45,1243,384,3801
-106,-47,-18,1768,304,5799
-84,23,63,1620,-728,5531
-76,-98,15,4615,-1068,3039
-31,-71,-109,1207,-4768,370
46,97,108,-5964,-4240,-2971
43,41,24,2918,976,596
-33,13,76,4778,3912,385
117,-87,105,5397,3291,433
77,70,94,2088,207,1075
45,-9,110,-846,-1535,-95
91,-117,37,276,-1175,-306
-88,72,53,913,-477,-56
-68,93,31,1018,836,-241
-84,118,42,309,650,-599
-95,121,27,-403,-170,-555
-42,105,-45,-604,165,-443
-4,-127,-104,-754,337,-372
-11,-90,108,-741,-156,-143
17,-47,89,-1343,-418,-50
67,7,43,-1413,-186,216
51,46,-40,-688,371,411
34,64,-82,137,835,285
-59,62,-65,40,195,-46
-72,68,-103,-781,536,-593
16,65,98,-210,868,-460
35,46,58,931,762,-327
-9,7,109,1527,-290,-366
-6,-10,-62,819,-1350,-342
-21,60,-82,-6011,1842,-478
100,21,18,-3891,2064,802
57,-33,-48,1680,3261,813
63,-109,-63,3478,4326,-660
95,104,-41,2482,4249,-1691
-122,59,31,1002,2581,-1871
-114,10,127,-988,163,-1955
-112,-15,110,-1171,-1397,-952
124,-56,92,-1640,-2073,-404
-15,-111,-1,720,-1065,1450
65,-89,35,4694,-1718,4539
88,-128,-48,2792,-3284,3775
73,-102,-57,102,-1901,2271
-43,34,-86,-697,-643,2640
64,59,117,3574,-606,3725
-79,-88,-68,3225,-1349,520
-64,-120,56,-581,-2043,-652
2,77,-47,513,-291,882
-58,47,-13,411,107,112
-86,56,8,1577,-235,-389
-41,62,96,-851,-491,-1105
-104,112,55,-3137,227,-1573
74,-45,-40,-3250,923,-1414
80,45,-87,-1462,568,-876
-94,7,111,-2652,1114,-2187
-128,127,65,-4639,2774,-2397
115,53,75,-4926,2926,-1675
-113,70,-27,-8,3819,-83
-17,-56,-20,3381,3630,-711
-90,-108,51,1512,2677,-1744
119,104,-117,-672,499,-2227
83,80,119,-2355,-405,-1853
-20,-43,13,12,-1101,-642
-28,121,-35,1141,-880,1056
39,126,-94,2956,-648,3258
16,-95,-61,1582,-4005,5600
-103,5,-33,-995,-9416,4653
-9,55,5,-917,-6253,152
-61,83,43,5719,2565,2091
-60,100,-54,2560,3531,-788
83,-86,47,6396,3334,172
26,39,-42,2152,1267,187
17,-13,-47,189,240,1227
-64,-75,-40,-483,-1260,1090
-58,-44,-41,1190,-1902,1460
6,85,84,-1541,-2180,468
77,-47,74,-3104,-1499,-844
14,-33,0,-2003,818,-1834
-6,-104,-47,-1651,1641,-2149
1,-50,95,-3530,2833,-2190
-86,86,-16,-3097,3554,-2172
-64,95,-24,-381,2432,-1450
-56,-128,89,1289,357,-448
108,114,94,-1842,265,-1318
117,111,18,-1267,1292,-1179
-128,105,-22,-500,1693,-1137
112,39,-5,1208,1101,-719
66,-22,1,2007,73,248
29,-110,58,451,-1403,1254
58,121,88,629,-3186,2554
-77,-82,-103,871,-4154,3404
73,122,26,2575,-4312,4468
-5,-114,-84,754,-4861,3239
-82,72,-105,-2575,-3114,377
3,-101,112,1440,4281,-1096
91,-66,103,292,4733,-1453
46,-14,93,3949,2062,686
-28,-53,-2,-2117,-1733,-1112
62,-6,-80,-3297,-1660,-939
-86,23,64,-2336,-763,-597
-78,11,90,-2647,484,-1353
-80,55,41,-1213,833,-991
118,95,72,-2124,133,-1169
102,-117,67,-3328,1244,-1371
-69,-46,107,-2536,1672,-1229
-60,82,-51,-1165,-488,-677
-90,-99,-17,-2196,-291,-1424
-105,-51,28,-2592,-640,-1633
-103,-23,9,-2147,71,-1601
73,-74,-76,-1040,1062,-1759
-86,-14,16,-3260,2414,-3121
92,-45,-109,-5425,2377,-4055
-102,68,19,-168,4596,-4444
-1,-107,62,475,2883,-4511
73,80,103,-800,3215,-4662
0,-73,16,210,1607,-2380
-111,98,84,-968,-880,-1830
76,99,123,-1514,-1266,-1285
99,63,-116,-61,-829,58
72,78,-14,142,-1150,421
111,-117,24,1608,-926,2259
-98,20,93,1247,-601,2493
-60,7,-30,2117,-402,2968
-109,25,-43,418,-2039,2954
-21,109,-34,82,-3077,3048
87,83,-81,1131,-2428,2965
-121,124,-94,2922,-1487,3077
122,110,-103,3611,-1554,2745
-80,-61,65,2728,-2874,3903
42,12,28,-2365,-4260,2354
-106,-122,127,1073,-2055,867
-85,-27,-107,3624,425,-594
-68,43,-81,1458,1477,-397
-18,-96,-79,-2710,1332,-166
37,42,108,-4359,-231,32
122,-62,-16,-2684,134,-1565
12,-89,-85,-3854,2508,-2394
112,-83,-77,-6113,2973,-1478
-110,-15,-125,-3221,3197,-861
-109,116,42,1932,4829,-1729
120,7,-6,3706,4807,-2910
81,-61,21,2443,3013,-3224
32,126,-117,-938,144,-3588
-17,95,101,-2156,-1243,-3055
-38,1,63,-976,-1348,-2520
-74,90,-11,2796,-634,-144
-75,-65,-11,4705,-245,2162
-37,76,115,5023,-567,4554
118,-61,37,81,-1172,4222
-112,1,-64,-4576,-1490,2694
70,-69,68,4429,-499,3149
-60,-98,2,1447,-2351,949
-86,-110,62,-2542,-2807,-80
-102,-31,-56,1404,-1173,355
-88,107,8,3206,79,-158
-17,-71,59,1540,972,-108
-94,-120,95,-3592,939,-862
101,-114,30,-1517,-349,-949
-72,-54,-114,-1642,648,-2864
-72,59,-125,-5182,2263,-2769
-92,16,105,-5983,1821,-1597
-90,50,39,-2573,1693,-886
-125,-47,-22,2238,3362,-448
57,-111,-36,2360,3882,-1309
38,89,44,1335,2569,-2033
51,61,89,-1183,756,-2028
37,19,54,-1322,-274,-1103
-3,-55,-8,-29,-1118,433
22,-97,-21,1414,-1392,2099
-111,-36,-5,1766,-1803,3434
-95,104,-78,2949,-4547,4822
-12,43,67,-439,-6081,3041
96,-103,-42,-262,-2555,2533
-5,-16,-22,1167,29,1944
-20,-12,82,5439,1784,-1141
-51,107,59,5860,1780,-716
2,95,-25,2382,1116,1319
-57,69,37,-1943,-530,729
-34,27,-69,797,-424,1344
-9,-33,12,1306,147,1179
37,-35,56,-338,795,-848
-12,41,69,-1586,787,-789
-33,69,25,-300,-1,-774
99,-8,-81,-626,1468,-2690
71,93,101,-1788,2795,-3450
61,29,99,-1243,2000,-1585
-28,-13,85,277,996,-1416
-77,-55,30,873,1794,-1943
-110,-84,121,-634,956,-2550
-73,-71,115,-1110,348,-1629
79,-44,16,2511,-2034,-4129
-73,39,87,3711,-2342,-5608
-114,-121,89,3408,-1595,-4987
82,56,52,1653,-1876,-2425
-71,38,53,1562,-1055,-451
64,14,25,3273,124,-70
-71,-77,97,2579,1515,925
-4,75,-102,1407,4462,3211
52,-67,103,-1567,4768,5853
86,-14,-62,-8446,1355,5713
-125,11,74,-9496,691,2382
-1,97,-2,-36,735,2018
18,72,40,4270,-967,817
-43,-125,-36,3599,-2114,-465
-50,83,19,1261,-1545,225
-99,94,61,-372,-38,271
-108,110,32,-1088,1091,-896
8,31,-2,-539,1498,-2110
18,-112,33,130,697,-3340
78,-66,-3,1534,-1398,-4051
24,4,70,823,-979,-5996
-52,38,1,-3580,3619,-6182
93,-7,67,511,67,-6519
-88,58,12,4870,-3515,-4790
116,-27,-38,4382,-4692,-3101
-109,-17,51,2606,-4561,-1010
35,-5,1,-686,-2564,973
-10,-13,20,-259,-157,2411
67,-10,20,921,2922,3178
-101,-30,-83,1461,7033,3457
-51,19,73,2096,9863,4700
102,50,-32,-2612,7991,8659
100,27,-25,-3924,-829,9164
109,-56,98,-1118,-2784,4139
45,117,-46,1118,-2497,-1111
-23,-50,4,3505,-3050,-2231
18,44,-121,3782,-1808,355
-42,-102,-106,1670,578,928
-90,34,-113,-2759,813,39
-49,22,93,-4301,-120,-1427
108,-36,70,1579,2661,4049
-107,-47,72,1020,3389,4882
-55,91,-33,624,1036,4228
-115,-33,-78,129,-2028,2003
-9,-25,13,-115,-3855,-224
18,127,105,1245,-3286,-1465
-38,-14,-30,2515,-2602,-1512
-61,-76,46,2947,-1678,-610
-92,-65,127,1908,-1121,324
-110,-33,-89,986,-824,574
-109,-11,-66,229,-874,262
-113,-40,-60,818,-711,3
-102,-74,-62,1827,-500,-195
-104,-66,-58,1987,-583,-89
-96,-50,-28,1525,-605,-21
-87,-49,-3,1162,-411,178
-72,-58,-3,1414,-230,124
123,-15,-6,1030,-486,253
65,24,-2,626,-558,283
-96,28,47,-269,213,282
-69,34,12,-975,694,121
82,34,-85,-167,116,-371
60,-26,-100,1032,-864,-981
-100,-39,-27,-12,155,-1175
-94,-128,-49,-32,61,-151
121,-107,-74,462,-722,1179
121,3,-40,-77,-915,986
-117,82,-6,-1050,-288,431
-95,86,-32,-1210,665,64
-88,49,-103,-438,677,-143
-68,28,103,58,337,-434
82,9,97,11,528,-889
-106,78,39,-215,-864,-1072
105,120,84,-585,-1320,-1526
127,-23,-115,-91,692,-2932
-52,91,83,680,451,-3709
-122,12,63,942,-1186,-2452
102,44,109,927,-1342,-1093
67,81,-127,798,-539,-663
51,95,-110,370,302,250
33,-74,-51,938,2563,3828
54,113,-126,-1821,3310,3036
-99,-114,-40,-419,1065,1723
-12,12,-64,-243,-740,613
38,43,-64,65,-1198,-404
-116,-28,7,-511,-259,-1206
8,77,14,-712,-258,-1586
-32,49,-8,-956,-711,-1325
-10,62,-16,-1508,-589,-1675
50,20,-31,-1659,-92,-2646
105,-97,-70,-794,246,-2490
74,127,-101,355,-200,-1191
17,-116,-124,1174,-562,-543
23,-104,-99,1391,-475,32
31,-100,-82,1008,-306,433
30,-62,-46,-216,-529,938
76,-1,24,-2373,-94,1524
96,-16,-8,-1697,693,1610
-74,-52,-63,57,1313,2398
50,-128,123,-240,416,3013
-51,-17,68,184,-108,1718
89,-41,125,99,340,-50
73,-68,86,192,496,-505
-6,-76,52,479,-836,-1105
-14,112,93,1378,-1307,-1449
57,75,-95,499,-237,-1723
88,52,-109,-981,450,-1337
67,65,99,-1908,384,-549
70,119,63,-2582,211,69
118,-89,58,-2358,640,42
-84,-29,25,-1920,822,-231
-74,-12,-8,-1216,609,-787
15,-40,-10,-1194,505,-681
-81,84,-30,-2314,-23,-250
-84,118,-29,-1866,687,-935
-32,109,-35,-1621,1180,-985
-19,-106,-65,-1764,999,-843
-40,-76,-77,-1416,514,-985
9,-89,-40,-1190,20,-957
4,-55,-10,-1620,-182,-279
-76,106,-55,2206,-1633,-3985
75,-36,31,1767,-2030,-4997
-32,94,126,230,-1909,-4915
-98,41,89,-67,-1031,-4038
-41,-6,-17,1641,-602,-2867
119,11,-39,2762,-350,-1089
104,23,0,2487,366,-4
-100,55,37,2027,1595,938
-54,26,68,1650,2345,1600
25,-26,111,1641,3105,2353
-2,-101,-78,1486,4470,3378
17,-9,-115,-371,4630,4228
-82,-43,-15,-1823,1402,3082
-5,-65,-43,57,-2089,580
9,-99,78,479,-2491,862
104,-5,-57,282,-67,2748
-68,-80,84,565,942,2112
24,20,4,137,-1268,-408
40,-98,89,705,-3745,-2042
-110,49,12,990,-4171,-1551
-11,-2,-64,1608,-2118,-1238
-24,27,-21,857,281,-1066
-52,-8,-105,-158,1623,-583
-86,-39,36,-378,1063,-113
-77,-75,-44,-121,289,-120
63,-100,-10,-802,7,113
114,50,-87,-1841,-246,153
59,76,98,-1468,-54,-1294
6,-57,117,-1332,1027,-1977
32,95,28,-274,930,-1383
-62,106,-55,577,-276,-457
-29,-125,-20,619,-770,-261
30,-110,33,58,-606,-171
7,-98,43,-82,-568,-54
-12,-93,44,-33,-409,59
12,-99,59,-121,-241,414
8,-77,58,-251,46,810
37,-64,42,201,268,863
99,-112,35,1636,132,406
36,-128,17,2275,-839,619
-86,109,105,2423,-1900,-4324
63,96,-61,3247,-5174,-6532
77,-38,90,657,-4299,-4428
72,73,-104,-1541,-2704,-1855
87,25,-96,-1315,-1366,-284
-31,5,-103,-43,37,1461
47,28,-90,373,1470,3226
-14,24,-122,660,3050,4534
62,-57,108,279,6028,6853
-69,126,-13,-4942,5591,8935
59,28,-3,-3726,1103,6139
-29,126,-80,-410,764,1256
-110,-112,104,3880,-3893,-3609
-20,88,-48,5611,-6781,-1884
-41,-106,-121,2268,-1185,1556
125,37,-93,-1736,3736,103
-37,82,6,-5488,3999,-853
-1,39,97,-3025,1370,-1333
31,14,-78,-378,-448,-2276
73,47,-9,-460,-756,-2833
-78,-12,28,-248,52,-3784
-18,-46,75,-1673,-10,-2841
-59,72,-48,-1175,-281,-1623
82,56,0,-225,-355,-2884
-15,-121,61,-1396,-92,-3485
35,58,-52,1747,-1196,-4036
23,-45,-30,1745,-2968,-2371
14,-91,33,879,-3160,-339
-56,-83,106,421,-1926,1401
-37,-45,-82,195,409,2518
-43,-59,-111,990,3325,3515
53,-48,78,335,4932,4255
-48,-49,63,-641,4806,4912
-20,-29,84,-468,2682,5016
-9,87,-57,1396,-1045,3128
-115,-97,-60,1376,-2608,962
85,102,44,158,647,-146
29,47,7,-42,894,-1755
-103,-76,12,-531,-1290,-1813
110,115,25,592,-1755,-1021
114,52,32,-4265,2496,-512
-81,19,107,-3296,3344,-1184
-55,-75,-112,-1527,3402,-1487
103,-105,122,209,1820,-1278
12,-95,89,969,113,-879
-21,-32,61,599,-1036,-370
-22,13,61,-406,-1053,-1104
-68,9,84,-1086,-826,-1673
-105,-37,113,-1772,-431,-1486
-109,-61,125,-1700,-676,-1104
119,-60,123,-930,-1566,-1076
-100,14,-63,-1299,-2294,-2105
-103,14,23,-1904,-2568,-2659
39,-109,117,-1240,-2570,-2960
-48,49,-58,-748,-2287,-1898
104,-6,-14,117,-1512,-305
37,72,40,-217,-1006,1068
69,123,55,-599,664,1470
110,106,3,-287,2318,2181
-31,73,77,510,3252,3134
-69,83,-31,690,3325,4236
21,-111,-97,-208,2644,5351
-106,-64,-120,-439,1333,4933
-100,-19,87,-139,158,3142
94,6,66,-292,-653,1631
48,13,44,-195,-825,577
4,41,36,-104,-1321,-977
13,-116,-53,942,-1572,-1801
-89,104,-17,-46,599,-3580
80,-20,-18,-502,1952,-5158
53,109,-13,-1049,245,-6104
84,-78,-24,913,-3978,-5686
55,100,116,-747,-3510,-4832
-99,-38,-90,-739,-1897,-3041
58,-98,87,905,-1176,-1525
-125,-50,53,1108,-1499,-898
73,-15,-128,-151,-1273,314
95,5,-82,-1024,-225,1945
-91,32,-68,-663,972,3315
103,-39,-120,1554,4274,5368
-52,-109,-5,729,4406,7359
-80,19,-76,1160,2944,6012
100,33,3,-1129,1580,3400
-113,-1,-64,21,-3227,-1191
-75,-8,51,1356,-4027,-2103
-32,-118,100,2339,-1188,240
-90,-81,75,1445,1544,975
-80,30,33,-2468,1950,741
-7,91,9,-4139,1446,335
79,75,44,-2890,1161,-1005
-88,7,86,-769,755,-2770
-89,48,38,507,-489,-3708
-14,-38,65,319,-70,-5016
-49,-90,-78,-3773,2710,-5291
66,72,57,-2734,925,-2744
22,89,29,138,-1912,-1094
-92,113,68,2819,-2459,-995
-119,-124,108,2256,-2282,-1387
121,93,-73,756,-1270,-706
82,6,-80,717,292,149
119,-18,-112,268,1009,1687
-1,-14,97,100,1629,3412
-12,0,105,190,1999,5040
68,15,117,620,1810,5425
-41,-94,-5,659,786,4283
90,-9,-39,-197,-1169,2080
-32,-26,14,-406,-2255,-1140
90,-90,30,646,-2120,-1169
44,80,87,1442,-1101,-281
86,73,90,985,715,189
99,101,52,-579,879,-20
116,-123,33,-1815,246,-269
-94,-123,57,-1546,323,-831
-122,43,87,-299,1440,-2040
64,79,40,-316,586,-2431
-115,104,-25,1125,-763,-3595
-58,-43,95,561,-179,-4485
98,-88,-121,-1036,-132,-3727
-14,-46,95,-1111,-1235,-4376
-52,101,26,1816,-1717,-4979
-95,0,25,2994,-2997,-3304
2,-38,126,2550,-2756,134
0,-24,-34,1658,-591,1846
119,25,30,90,2622,3456
88,23,-47,-565,4671,5154
-57,-22,112,328,5791,5817
120,100,110,975,6352,6793
21,58,83,-1162,2042,6871
-27,-3,109,-1430,-1762,3416
49,-53,-35,-152,-5357,-2657
-76,-30,77,1633,-2610,-2294
16,110,-120,2396,31,-30
-15,-54,99,529,1013,-399
1,-46,69,-1479,124,-1095
58,-45,85,-2803,-996,-1292
70,-34,125,-2061,-1076,-2058
100,-116,-114,101,-184,-2449
-98,78,123,597,534,-1710
89,36,-126,-438,601,-976
92,-38,20,-1417,-800,-783
-102,-98,23,-279,-823,-2266
99,120,-125,-1770,-346,-1999
-34,-127,54,-697,-810,-2336
92,110,47,411,-1681,-2190
47,66,103,882,-1389,-1382
4,48,122,1005,-461,-450
-64,56,121,734,290,528
-48,25,99,1092,1177,2007
81,4,85,1293,1967,3170
-7,-20,73,1664,2712,3683
-104,108,93,2302,4039,4117
-82,-75,71,846,2514,4531
76,-80,103,1573,-1153,3635
-11,-115,55,1016,-5279,1506
-127,-124,-15,-140,-2557,-934
-49,118,29,-304,319,-1526
-71,67,-25,-271,1758,198
-61,94,122,-294,1565,320
-39,-92,56,-976,-153,-592
-28,-77,82,-1021,-1935,-1491
-75,21,13,2913,2443,2096
10,5,50,2651,2829,2962
20,12,54,2915,2697,3182
-30,46,42,3512,1834,2794
90,126,82,3368,-642,1968
-57,-27,-78,1888,-2323,1431
-126,64,30,605,-1633,1130
-82,55,107,192,-293,493
118,26,68,1111,195,613
10,56,34,1969,-719,1567
53,-123,81,2104,-1152,2381
-77,37,-80,1018,-571,2319
-48,119,-64,315,-487,2201
-48,-57,-72,521,-957,1369
-78,-1,-51,1096,-1865,721
-8,60,7,888,-1536,8
-86,-95,6,16,-684,-922
41,-86,-41,-1156,-360,-2180
-77,-32,-66,-1643,1291,-3699
102,54,64,-673,1397,-4215
-8,-86,25,596,-1832,-2451
-107,-24,69,870,-2428,-1508
-76,16,-105,190,-1866,-1511
-64,-30,-76,312,-886,-1249
-106,-28,-95,-244,-556,-835
114,-29,-99,-985,-749,-36
-86,-69,-75,-1274,-272,852
-93,-87,-92,-784,177,1622
-88,-83,127,615,937,2581
-9,9,118,915,1708,3403
16,-70,65,-289,1973,3878
7,-107,-45,-1177,1668,3087
-36,-70,-122,-486,588,1430
95,-47,86,19,-647,420
16,-49,109,230,-1020,-102
86,-91,-118,107,187,-638
106,-121,103,-553,958,-688
74,110,12,-1200,596,-895
96,77,2,-1297,92,-906
-72,23,2,-745,260,-1339
18,100,114,2100,2976,4049
25,-104,82,741,3167,5487
15,-97,52,-1702,1335,4941
-114,-30,15,-419,327,1446
30,-87,-7,1114,-851,288
121,91,7,1748,-2011,130
-105,89,65,701,-672,10
-65,95,89,-936,1187,-716
-53,75,18,-1698,1264,-1003
-49,49,-33,-965,368,-1377
59,0,-28,21,253,-2329
-37,-85,-3,453,-360,-2498
-52,-33,-51,772,-3181,-2017
120,-63,55,179,-2458,-3506
-52,-126,98,-1061,-1588,-3981
36,61,42,-1553,-2621,-3675
99,70,68,-2146,-3785,-2521
-79,66,108,-1587,-2989,-1201
-11,93,-88,-564,-1452,589
-34,-95,-70,-209,220,1876
70,-8,-81,-677,1627,2624
8,-12,123,-800,2716,3780
-78,-41,-108,-1181,2953,5604
6,76,45,-4553,1617,7066
-103,23,-124,2024,2012,4849
-25,98,102,-2982,2821,3346
92,-84,14,-457,-1219,-3796
99,-62,91,1432,-803,-2268
111,-32,66,392,1109,567
-127,50,25,-1397,1249,-1061
93,46,0,-1513,622,-2489
-114,-36,22,-818,593,-2478
-94,-23,39,-1427,651,-2606
114,34,47,-2698,486,-2769
78,43,78,-2960,803,-2581
68,28,113,-2023,1424,-2645
34,-67,92,78,1586,-2577
-109,-59,20,698,310,-1537
30,-2,-8,-1271,-1706,96
80,23,56,-1934,-957,1020
-83,-124,-4,375,3299,3600
117,-27,-86,-759,2413,3681
-82,-48,119,636,1385,2791
-122,8,42,1019,280,2239
-81,121,-96,978,-543,963
75,51,-37,-376,220,-319
65,-3,-63,-591,656,-696
-125,-4,104,65,-1229,-950
117,6,-101,-38,-1950,-1231
-46,-38,-27,-693,-621,-2122
-84,-76,-18,-1716,-252,-2163
84,-81,-4,-2126,-589,-2263
-115,45,73,-1012,-402,-2238
77,6,62,-212,-471,-2241
23,125,46,1074,-1047,-1862
95,-127,23,1112,-1591,-514
-63,-101,25,957,-2197,388
105,-99,-97,12,-753,860
-82,79,-128,1278,1132,605
-115,-78,8,-70,1908,2112
-19,-4,-62,-905,1327,3041
-94,6,-85,-256,978,2894
14,58,-123,119,740,2763
65,73,105,486,1060,2398
-97,58,27,922,1528,1487
-79,49,-27,679,1113,1070
26,109,-68,47,-970,-118
106,-106,-86,526,-2624,-2441
13,17,32,-185,-961,-3385
-98,93,62,-1202,990,-3367
28,105,-1,-1928,-409,-3130
119,127,4,-1961,-1741,-3089
122,84,87,-1529,-1166,-2704
62,63,118,-1180,-417,-1924
-27,59,107,-373,-121,-1075
-38,37,92,570,-483,-573
-117,81,97,340,-853,240
-104,86,-106,-103,-1097,919
-22,31,-57,639,106,1737
54,74,-91,695,1520,2986
39,-68,105,-2686,1928,-5109
4,-107,14,-3109,871,-4349
-20,-78,-44,-514,-1663,-2765
80,-69,10,1468,-2030,-1636
32,-49,49,1938,-1853,-1082
-19,-41,76,1220,-1084,-978
-43,-59,115,-460,-257,-707
-31,-88,-113,-1448,270,661
-29,-102,104,-330,915,2655
-112,114,71,1736,1918,3495
-119,96,53,1690,2615,4574
105,-83,43,314,2229,5794
51,1,15,-413,668,4180
48,81,-58,38,-929,1448
109,55,-20,540,-2356,386
-85,-35,43,1574,-1258,837
115,0,70,1112,-116,695
56,27,42,51,-28,103
63,22,45,-860,75,188
-78,15,38,-1247,641,-703
109,-22,52,-848,143,-2281
95,59,10,299,-2676,-4024
74,-52,-91,521,-2061,-6136
36,-48,58,-554,336,-6889
-26,12,-28,-503,-486,-5917
69,99,123,112,-2487,-3147
62,-100,96,1501,-2416,-1273
115,-41,-123,2057,-1810,-636
110,-21,-38,1153,44,402
-80,-47,-32,1627,2480,1989
73,124,-125,3511,3814,3223
69,69,-108,3391,4293,3808
8,-93,-86,5383,5875,4696
-56,61,-88,2254,5089,2810
-83,99,-33,7,811,3464
-93,-78,-118,-1844,-2429,1547
-52,-22,-3,883,-2443,-1946
-26,88,74,3803,-1281,-1840
-88,99,-84,3458,32,-86
123,-104,-71,2296,-796,1018
-91,-114,-16,1712,-1562,-4398
4,-4,77,2251,-3826,-3977
-121,-50,-30,1539,-4012,-2836
-61,-43,89,739,-2630,-2267
80,-23,87,-226,-1750,-1463
-24,-52,82,-331,-1502,-399
5,-78,127,-247,195,1316
53,-38,95,632,2385,1586
88,-51,27,1055,2986,1853
127,-57,-57,1629,3451,3155
41,108,90,1181,2877,3969
106,22,20,73,2248,3158
-45,92,-106,499,616,1997
63,-90,-112,475,-1583,1519
62,-39,-41,845,-1474,1480
125,17,-13,675,75,779
-107,44,-72,-86,1366,-220
-126,2,99,-919,823,-482
92,-19,68,-977,-499,-830
-94,-57,119,-1140,-197,-1952
22,115,122,-1635,474,-2881
112,59,27,-1339,-627,-3564
16,63,76,-324,-1402,-4295
-123,-90,-104,-365,-1928,-2925
12,-88,-97,-298,-2268,-1602
-89,-27,-95,-216,-2372,-2017
-70,-45,-41,-804,-1893,-2058
-96,-127,-43,-646,-1044,-1149
78,127,-62,-481,-944,136
72,-76,-16,-769,-541,1500
-125,-46,-10,345,1162,1828
23,-89,-36,1809,2874,2581
-31,30,-124,690,4283,4442
-26,17,6,-1165,3372,4507
-48,-101,-74,-824,1913,2566
59,-123,71,1391,244,1056
-7,111,91,1544,-779,657
-10,-128,127,604,-90,389
6,-128,-123,-231,403,6
44,-121,117,-918,640,-670
107,-12,0,-2181,-2006,-3491
25,90,75,-854,-1488,-3783
-110,-58,-100,-71,-2278,-3111
58,2,121,30,-3176,-1878
-62,68,-80,-1015,-3216,-1586
-65,45,7,-1690,-1838,-1428
116,-14,-15,-638,-587,-723
15,-17,-48,100,-457,720
-12,81,-27,-47,-86,1833
104,98,3,592,1372,2216
64,50,-26,1631,2998,2684
-74,-34,4,-1828,3588,4612
87,-65,-114,-155,2301,4397
55,107,-42,4092,1766,2209
2,-52,-55,301,-569,109
-75,68,47,-1099,-561,-542
78,6,43,-11,119,670
85,11,10,1355,414,839
104,32,-27,1269,-146,-288
84,21,-7,-251,-844,-741
100,-33,34,-593,-612,-634
-59,-87,60,-260,137,-722
0,-72,35,-816,-475,-1328
-19,27,-35,-950,-1571,-1688
-80,-40,40,-1356,-390,-2285
97,125,50,-2170,-261,-2979
-57,-93,-13,-2625,-1511,-2426
38,-38,-10,-2295,-2093,-1830
0,-15,58,-1964,-2057,-1318
-66,-40,113,-615,-1340,-734
80,-47,107,1115,-146,395
-107,0,-109,-284,226,1340
68,1,-82,-306,1585,2138
115,-118,-108,1606,3018,3343
-89,80,115,-1040,2200,5073
-112,120,102,-2253,1509,3792
-17,-61,107,-2575,2930,1514
-50,-50,48,-1590,1780,-483
63,26,22,525,488,-2026
104,8,36,-473,1111,-1027
-111,103,115,-3499,797,-2774
-119,-113,-72,-3876,1875,-2624
-59,93,-5,-2598,2937,-2531
-124,54,-56,-804,3065,-2494
-68,32,64,1233,1717,-2859
-9,118,48,-613,-1742,-2342
19,95,-119,-1938,-1407,-1013
18,50,-97,-1609,-845,-896
-23,70,-25,-2778,-2021,-341
38,76,108,-3340,-3026,115
-92,117,74,-3734,-2930,-1135
-96,-88,-54,-4855,-1761,-1886
-51,8,36,-4736,192,-2899
-82,15,16,-2358,-395,-3530
-13,-117,7,-379,-2288,-3121
-55,124,-109,-96,-3441,-1192
-22,-114,-68,526,-1253,-838
119,-44,-59,-283,-27,-366
47,-63,-97,-194,771,188
-9,-94,101,964,1310,1417
47,-49,-3,2390,2030,2713
-10,28,-104,3533,3277,3422
-17,-97,-3,2910,4609,4476
-92,75,8,1676,3778,4733
109,-115,-92,934,1098,2946
-1,-51,-92,-386,-1115,1458
-119,8,-59,-1147,-1260,963
-62,45,-116,260,-1211,108
126,-36,-49,71,471,-602
-93,-47,-94,-1413,1202,-1512
53,-19,-121,-2952,-226,-2197
74,-58,-42,-3209,-686,-3565
-124,28,31,-1684,-64,-4390
126,59,77,-449,-537,-4620
-33,-34,66,832,-1751,-3397
118,-88,90,1531,-2141,-1997
76,127,-95,1958,-1752,-782
-24,-102,-113,2481,-920,183
-21,-12,-23,438,-371,1422
12,43,-28,-719,1163,2750
44,64,-7,3193,2027,2742
-67,104,-109,2599,2514,1743
123,-29,81,-894,2038,1620
-4,74,-6,-2920,795,674
43,54,62,-2920,-861,-67
18,-21,-110,-512,-1761,-204
-14,-37,-63,1287,-1560,203
21,-60,-73,2311,-105,395
108,-48,-94,498,836,980
-27,-28,-117,-746,1176,1394
112,-2,2,1091,-560,98
-76,60,-71,1368,-1704,-3147
-85,67,72,-39,-692,-5668
78,95,125,-1167,459,-4133
-119,110,42,-1846,-1014,-1664
-102,-77,11,-1027,-3205,-1414
-60,-77,125,-742,-2279,-1667
-105,-120,-61,214,-957,-969
103,-114,-76,834,227,-398
111,-100,-76,215,250,320
126,-121,-77,436,619,1462
-73,-93,-66,362,951,2467
-75,58,-91,2400,2486,2527
-29,111,79,1923,2637,3174
-9,-45,23,705,1632,3060
51,-47,53,30,721,1918
0,-36,55,-192,91,1655
70,117,37,-1199,49,1698
79,99,12,124,231,539
-97,39,22,908,364,-125
108,79,17,-438,362,-21
113,105,-8,-1158,541,66
43,36,-1,-413,515,-786
-44,-41,21,315,-328,-2151
1,21,-25,-39,-2405,-3603
-22,-44,22,-554,-1936,-5759
-49,27,126,-1080,-1274,-4994
-56,-65,-126,-1217,-1558,-3042
-83,-26,44,455,-2754,-2551
-32,3,63,971,-3819,-2083
78,83,110,2309,4667,2667
-50,-38,27,3564,5804,3174
-95,-80,47,1681,5060,5096
-73,-88,-5,-1892,2182,5675
-84,61,-42,-2228,-1338,3468
103,-78,-2,-2591,-3155,-601
48,118,32,-465,-1763,-1533
17,-5,59,2339,76,-718
109,-20,38,2237,1152,-1651
121,-30,25,662,606,-2611
-108,-84,31,-695,-398,-1442
27,-75,96,-1101,-751,-1552
112,-33,-103,-1125,-897,-1756
101,11,53,603,-1811,-2956
6,-80,118,-476,-1056,-2920
-100,94,-95,-2590,-903,-1782
-12,-99,74,-2635,-995,-1379
123,-63,35,-1918,-906,-1046
16,-32,23,-915,-894,-1129
10,-58,54,96,-395,-835
-5,-74,62,474,168,-4
-7,-81,42,718,581,1208
84,-105,35,1157,806,1988
-55,101,23,1902,1362,2357
-15,-36,47,2604,2098,2994
-93,66,32,742,1344,4193
-73,-61,-14,274,-560,3564
-11,-102,82,276,-1162,1312
-9,105,124,888,-251,520
35,-122,85,1361,-212,1499
17,-113,94,1628,-1017,849
-11,-95,-116,820,-291,618
-59,-48,125,-362,-134,591
-58,-38,92,-457,-576,-450
-118,-110,-93,-501,-556,-2084
73,69,13,-1180,-428,-2615
-103,58,-104,521,-1332,-3868
66,-74,-17,959,-1669,-4984
99,89,7,924,-1183,-4180
-59,62,-35,970,-1409,-2646
-23,-31,49,3310,2851,2899
-114,-74,86,3864,3676,3998
-18,-27,-118,2793,3737,4324
-4,-94,80,1382,1910,3132
-1,7,56,279,-944,1441
-70,3,111,320,-1820,851
103,37,-63,541,-2291,1213
121,62,5,1267,-1809,1261
-92,103,60,1801,-266,684
100,-86,52,714,-533,675
43,-72,60,869,-1198,969
87,-11,126,795,-1016,1234
109,60,-109,32,-463,451
111,71,-100,-409,-323,-9
102,48,-115,157,-417,-310
-116,30,-127,338,-204,-1354
-72,-48,88,-425,337,-1749
109,-82,4,-1037,199,-2160
98,104,-45,-1274,-326,-2510
-24,-49,-49,-1035,-850,-2428
1,-120,-47,-246,-1184,-1970
-6,99,-37,472,-1077,-1369
-31,126,-32,207,-925,-1133
-26,110,-25,-17,-663,-745
-42,88,-30,-142,-380,223
-76,-127,-32,-782,-133,1257
-75,-78,-37,-945,353,1670
-30,-72,-78,25,1158,1846
-10,-60,126,1230,1319,1964
31,-11,93,950,1442,1825
48,54,58,-121,1069,1524
-39,105,20,-682,117,1415
48,-52,-23,-552,-599,1336
53,-71,33,311,-1322,405
-127,107,117,734,-876,381
-103,-70,-112,-500,711,918
41,9,57,-1264,303,185
9,-52,15,32,-284,-593
98,-123,44,492,147,-580
-122,-95,25,-765,707,-185
-31,-49,75,1951,2742,3929
-61,84,19,740,1726,5367
112,-63,21,-349,-63,4746
87,-9,40,-260,-493,1742
-88,-19,18,797,-1542,105
42,-62,78,1287,-1818,681
49,-41,114,1129,-130,1102
81,11,116,-309,1065,289
112,53,68,-2346,1236,-569
-119,51,36,-2418,1083,-893
-29,67,14,-2071,1862,-1798
-83,31,-10,-1978,3259,-3343
1,-1,-64,-1259,2707,-4264
-35,-87,-101,1412,432,-5371
116,23,11,2592,-2229,-4817
-78,47,40,1538,-3332,-2346
-65,116,15,802,-2993,-1957
90,-128,56,-291,-2476,-2585
18,54,95,-689,-1244,-2376
-91,13,60,-224,-533,-651
93,50,61,-673,-519,1734
-93,120,115,-1141,-543,3426
29,-112,-107,95,360,4029
123,98,-75,1878,2798,4306
-3,-13,101,267,4122,5347
-109,-108,100,-1518,3000,4868
-38,-60,77,-700,1733,3266
-79,19,-22,174,-500,1138
-34,12,10,-393,-1713,-633
16,-84,44,158,5,-732
54,-104,47,-298,1284,-1124
78,125,-19,-817,1207,-2293
83,88,-41,-740,412,-2565
93,52,-42,-478,-450,-2749
127,27,-24,-429,-662,-2903
-72,0,16,-1178,-804,-2594
64,50,22,-1658,-1132,-2148
-26,56,0,-576,-667,-2513
-9,14,24,-746,-556,-2566
75,53,4,-1601,-813,-1351
-50,-28,-97,3684,1203,3259
60,-57,58,3654,1922,3283
28,-28,2,2304,1808,2922
-92,-70,-43,1182,345,1700
-107,-123,-19,372,-921,502
-94,89,-39,242,-1127,-155
-118,-83,-116,-6,-2534,-1247
-93,-116,-7,-1375,-3108,-2857
-98,-24,110,-1633,-708,-3982
-52,-54,-122,-2686,740,-2830
-46,38,11,-2240,-1220,-2630
119,75,61,-1549,-2414,-3366
97,12,-127,-693,-2123,-3181
-16,-45,-82,-130,-1303,-1577
-117,-58,-91,520,-610,-255
-105,-69,-92,1165,447,1160
-35,-76,108,1936,1297,1999
-115,-124,84,1941,2101,3030
-43,-6,43,276,1585,4374
3,-21,65,650,-76,2799
65,-28,117,3484,-234,1484
48,73,74,3190,2335,3380
-69,-20,7,38,1552,2388
-89,40,-19,-1819,996,756
-91,-37,-36,-482,-242,202
-118,-53,-9,471,-882,841
-105,58,14,-406,-233,524
3,86,25,-1880,809,-797
48,108,-40,-2157,970,-2239
-63,115,-76,-1018,-987,-4306
-125,-42,10,332,-696,-5735
-71,44,-107,-1778,638,-6465
29,67,63,-2406,-2,-3792
-78,-90,-37,-1014,-1907,-1938
65,-64,-2,562,-2033,-2050
18,-67,49,604,-1305,-1570
-40,-68,70,205,-170,-601
-88,-82,25,418,87,-48
-66,-113,32,300,-154,1000
22,127,89,7,69,2568
81,-84,83,487,2481,5631
49,-70,41,1776,1457,5443
-60,-81,72,1369,1318,3558
-47,-30,-12,1452,250,2286
-89,40,36,600,-332,1753
-121,8,60,285,-494,996
-116,-23,50,187,-646,721
-114,-38,44,824,-264,1012
91,12,40,417,-811,492
6,-39,-123,-517,140,-1425
-30,-6,79,-1042,556,-2008
87,-23,0,-82,-1658,-4082
113,71,-96,-237,-2367,-5985
-112,-34,76,-2351,-1586,-5310
57,-11,-23,-2415,-437,-4775
103,-1,-111,-1146,-608,-4013
-77,35,104,-143,-891,-2858
33,36,98,1030,-658,-1181
-16,53,91,1336,-205,216
-54,55,72,1659,359,1148
17,27,80,1462,905,2183
-80,-57,114,1630,1708,3147
-32,65,-86,2073,3283,4738
123,-29,-93,-563,3039,7503
71,125,-88,-1732,897,6200
-49,-86,76,337,593,1739
-39,-86,3,1927,-803,419
62,-95,30,2011,-1908,1291
-17,-86,119,1779,-1679,1721
-29,-38,-101,635,-846,1177
-79,13,-116,-137,-130,708
-58,29,126,-901,-242,-214
64,18,-69,-2314,-740,-1593
69,-65,-112,-696,-833,-4069
95,-5,-9,-94,-1101,-6300
-44,-114,54,-924,-1320,-5874
-88,36,4,307,-1600,-5153
42,20,10,923,-1956,-3420
120,42,9,1676,-1425,-1181
43,74,14,2360,-162,-178
61,15,21,2257,3361,4124
127,46,-2,2889,1940,2884
-89,125,19,2385,1853,1782
20,-52,-34,1734,2103,2057
31,29,-73,830,-1151,1467
-50,32,78,81,-1594,1577
-109,45,117,305,-1085,1397
-102,45,-104,1049,-156,993
-101,59,-105,1502,-338,712
68,-112,-85,512,-1302,1188
80,-20,13,-382,-1390,1342
-124,-5,41,132,-559,94
-119,0,44,256,252,-609
-89,-12,-11,-448,599,-1298
-52,-112,-83,266,326,-1543
-64,113,123,-42,-194,-1879
-34,46,98,-848,-672,-2796
89,-80,125,-1197,-478,-2974
-128,63,117,-667,-587,-2229
-4,58,59,34,-878,-1026
-54,100,66,284,-765,-385
-15,112,104,-118,-406,116
34,102,117,-331,445,959
-3,-122,68,-260,497,1308
-24,-64,40,-660,186,1602
54,-61,73,-682,671,2049
69,-54,7,824,743,1808
57,-16,-25,1090,575,1561
4,23,-45,1013,316,1767
-50,92,-77,658,57,1319
114,-79,-69,-341,-615,1278
-55,-91,-2,-170,-694,599
3,-95,56,-149,-855,-246
90,-39,50,-472,-1287,-436
82,-49,91,-585,-299,-673
-36,-117,71,-561,1497,-1136
5,-126,-27,-1473,1306,-1216
-21,120,-113,-1336,18,-889
2,-110,-93,-1065,191,-1084
-50,92,-101,-756,1629,-1642
-73,-78,-79,-2918,933,-3332
8,-13,-23,-1746,684,-2414
89,72,-32,2860,-1616,-1987
101,70,42,2429,-1648,-1765
124,-125,11,726,-1369,-977
7,-66,12,-1131,-1049,-659
0,-78,31,-1764,-414,-374
-6,-109,15,-621,194,466
39,-111,20,31,518,1783
-77,-111,46,127,984,2778
63,-123,39,425,1342,3331
-42,-98,56,-315,930,4000
115,20,29,-995,-17,3719
12,77,1,-264,-868,1713
-50,51,29,648,-1700,-235
-113,-12,51,1610,-1288,-442
88,-56,80,1550,-414,97
120,-21,100,-217,651,696
-80,39,90,-1524,921,148
-56,45,60,-848,297,-719
-74,48,50,82,183,-1802
-4,-9,22,30,697,-2663
100,-110,-10,178,935,-3238
101,81,-34,53,-558,-3109
122,54,3,-661,-2643,-1845
-80,-90,-18,-795,-2847,-1365
-45,-119,31,-532,-1720,-2485
-2,88,105,-1715,-141,-1702
51,-84,9,-2056,-120,-146
-127,11,-35,-1413,-1213,49
-71,15,54,-1328,-889,931
-58,33,65,-423,642,1639
58,16,37,354,1629,2306
14,25,49,-268,2440,3474
14,14,38,155,2462,3917
-74,11,48,611,1494,3536
74,15,49,263,-609,2259
-103,-9,31,-2114,-1127,1052
-41,116,32,-202,-316,-173
82,38,42,734,332,-391
-44,-122,0,1749,3008,-4233
26,26,-22,2150,1259,-4649
-72,46,-19,611,-1368,-2559
118,79,-3,-476,-2485,-1502
-27,77,120,-1908,-1948,-1641
-37,-46,70,-2350,-680,-2059
-24,91,67,188,328,-3193
79,80,46,-380,-250,-1891
-86,115,-4,-80,-1294,122
127,118,-3,689,-1426,519
-117,112,53,370,-1031,1306
-24,101,97,-261,155,2879
-56,108,-120,-407,940,4348
-95,106,120,434,2041,4302
-106,33,69,1883,2697,3585
37,-39,8,1683,1290,3104
60,-64,-79,-478,-1565,3126
-52,-39,-36,-227,-2596,868
-110,109,73,213,-66,-764
62,84,39,33,705,-1003
-51,-105,0,-2019,284,-1312
16,-110,6,-2484,757,-1872
94,102,4,-1629,831,-2393
122,-117,13,-1959,763,-2958
-117,-94,24,-2636,1055,-3132
126,-79,35,-2684,1137,-2740
110,-61,59,-2341,1190,-1864
73,-1,78,-2007,1297,-1490
90,26,89,-1518,2044,-1932
104,2,59,-1022,2528,-2079
-86,-1,-46,744,763,-1565
56,25,-31,145,-2046,-56
-95,63,70,-2015,-1401,1396
-36,116,115,-2713,-132,1186
-37,-10,-96,-4520,242,433
52,109,49,-7889,123,217
93,13,-86,-5481,-57,-263
42,-82,83,-1803,30,-1038
-19,-22,82,-421,754,-2783
-23,-63,52,-248,1228,-3906
-49,-67,29,2343,1550,3773
-48,-42,-45,3019,414,4376
-20,-93,-98,617,-496,2610
-26,-98,-30,-1191,-157,900
-12,64,12,-153,87,-424
-103,11,-1,1431,-1082,-518
103,27,48,869,-906,-479
110,59,54,-571,512,-1157
-100,22,11,-1041,385,-1427
-61,26,1,-1438,-284,-1183
-44,73,39,-1232,-754,-1813
48,67,70,-1277,224,-2568
-35,-55,66,-1256,486,-3217
9,-40,0,-1164,-548,-3028
20,-108,10,89,-652,-3089
10,95,39,449,-862,-2245
75,-108,-2,424,-1383,-1526
-8,-105,11,22,-1454,-960
3,123,85,-981,-781,483
-15,-121,77,-535,615,2447
19,-43,26,179,1242,3371
-125,-50,-1,1443,990,3591
109,-94,35,1289,1939,3351
82,-108,21,797,3135,3188
-26,91,-101,2974,680,2772
-55,-107,-117,2668,-2036,847
-82,80,10,1526,-2818,73
-65,25,112,1000,-1029,-89
126,14,127,244,1268,-88
78,73,69,-1664,1336,686
72,-126,16,-2321,494,902
96,-41,5,-2369,-181,683
127,-8,17,-1631,-623,-433
-94,-9,45,-513,-481,-2001
54,-75,92,-42,310,-3320
124,103,83,9,-400,-3924
113,95,99,-931,-1593,-3998
7,94,120,-1494,-2064,-3646
121,61,119,-279,-1846,-2442
-38,48,-115,1011,-853,-942
-72,-56,58,2705,2277,3277
-126,-107,8,4571,771,2856
78,-52,124,2119,-549,3558
-2,33,-36,509,33,2947
-121,78,-58,635,279,1318
-3,25,-105,2484,-45,108
-38,11,-88,2661,-309,158
-33,32,-55,1269,-19,-76
21,42,-34,-1092,424,-923
101,-38,-74,-1465,346,-1655
-4,-53,114,-1425,-1371,-1206
-24,-49,-102,-815,-2588,-314
99,-20,-11,-961,-1470,-670
-71,0,-9,-1560,236,-1527
126,-18,-113,-801,-923,-1583
97,-24,-108,865,-2835,-1400
109,-16,-28,1283,-2751,-1061
107,51,60,-606,-919,-937
78,10,21,-926,234,-723
44,-63,-68,-219,511,-460
58,-79,-74,64,267,29
101,-99,-39,281,297,1080
-123,-52,5,342,664,2053
11,95,-31,-411,723,1995
80,99,-33,103,1728,973
1,21,-82,-141,2435,1174
-67,87,100,-913,1171,1704
-105,-70,83,-1398,826,1108
-107,-24,62,-1126,941,312
-118,-24,21,-168,793,-581
-62,-35,11,-354,331,-1453
-37,-39,26,-1397,125,-1770
-39,-38,32,-1813,109,-1507
15,-5,26,-2089,842,-1427
43,29,-16,-2144,683,-1933
17,72,-42,-2060,120,-2256
49,42,-30,-1251,243,-2375
81,12,-28,-609,176,-2125
66,4,-22,-499,-706,-1526
-69,94,4,-1876,-1634,-580
-4,-42,0,6750,-1994,582
-120,107,31,5822,5086,2053
34,71,24,2645,11001,248
93,-68,99,-236,8232,991
40,78,118,-2846,1139,1422
-118,89,-70,-1740,-2674,991
-70,70,12,-671,-2361,1578
101,102,7,1068,-560,1232
16,-98,22,804,699,882
26,-25,0,-1313,1737,741
56,40,-38,-3012,1142,419
79,99,-72,-2873,326,-1240
-96,67,-49,-1250,551,-3472
79,3,-17,-684,1606,-4906
3,-63,21,-892,811,-5587
47,17,-12,-1127,-2263,-4750
81,12,89,-928,-3656,-4628
-105,126,-19,149,-2939,-5670
-85,66,-16,695,-1690,-5252
92,52,-32,-10,-2595,-2832
13,38,-54,1296,-2811,-871
-43,90,32,902,-2271,282
-95,-127,-125,73,-487,1298
-71,123,104,933,1858,3036
87,-114,21,1970,4190,4357
118,80,44,2985,7340,4991
81,100,67,566,6939,7186
-25,-10,-87,-613,4444,6581
15,-28,-16,1386,2467,4001
36,-59,-15,1907,-5011,-64
-88,54,-46,-485,-3853,-405
-123,36,24,-1609,947,-652
-32,12,-18,-1637,2553,-1353
44,2,120,-1709,860,-2497
88,32,126,-2148,-961,-2614
115,75,-88,-2103,-1895,-3472
-61,59,19,-2334,-1076,-4872
0,64,85,-3774,1315,-5626
-123,-75,25,-2148,525,-3777
-104,-49,12,236,-994,-1517
-15,-81,-11,3081,497,3648
47,8,16,1345,1063,2751
101,-5,35,-404,2036,2162
59,18,-23,-1466,1863,1773
-26,66,-59,-1399,-124,1644
-65,78,-19,-376,-1668,1083
-33,39,23,944,-1682,366
39,34,65,768,-437,-358
51,-74,-2,-1063,-585,-1935
34,123,-16,-662,-486,-3759
108,111,68,206,458,-4885
-25,60,103,-1626,651,-3815
116,-115,29,-2774,-75,-3123
-56,-65,-37,-1837,-1003,-3147
-88,-74,7,-855,-501,-2388
-113,-96,21,129,105,-1037
58,-62,-26,1124,283,-304
33,-65,-55,1365,-416,-84
52,-77,-15,258,-830,868
67,-60,59,-652,-559,1880
-98,-101,85,140,612,2496
85,81,77,1323,2016,3356
118,-103,-12,1098,1705,4395
105,-44,-7,374,-16,3937
-84,-50,39,89,-474,2757
-66,26,-5,487,-1311,1026
73,26,31,548,-1899,125
38,-41,71,1521,-903,-422
41,-95,79,1851,-193,-657
38,-125,86,929,-357,-402
25,-121,115,-724,-353,217
69,-105,126,-1225,339,188
-109,-89,84,-1404,988,-344
-20,-85,49,-1902,960,-1036
-85,1,5,-2477,502,-1731
-77,11,-38,-1500,824,-3306
-93,-81,26,-2191,1862,-4167
-23,-105,13,-2169,1731,-3131
-22,-19,-85,-758,-643,-1689
-112,46,-52,88,-1257,-1580
-89,125,17,4881,916,2999
-36,-84,106,2120,1789,4529
101,99,100,-486,1782,4812
34,-115,54,-582,930,2075
-76,111,11,689,-234,10
24,73,12,1435,-897,356
11,78,57,979,-977,1146
-15,-86,-128,-740,-897,1362
-37,-38,-127,-1403,-751,758
-43,6,-115,-1758,-815,-35
42,-49,-92,-485,-721,-1599
-122,116,-58,741,-1180,-2819
45,106,-60,563,-1475,-3842
-43,16,2,-1013,-336,-4769
111,-116,-8,-1623,599,-4325
-115,58,-85,-979,279,-2335
14,101,109,1045,-825,-1334
-120,-83,90,1916,-1811,-2085
95,123,-86,2253,-2237,-2489
75,51,-2,2398,-993,-619
38,38,48,2475,1154,1231
122,24,63,2748,3162,1990
67,-94,61,4217,4975,2235
95,60,88,4885,6514,3267
-5,-39,39,3443,5190,4373
107,-24,9,-178,510,4051
118,-86,84,-2580,-3015,1936
-119,77,-119,-751,-3168,-982
-104,10,-38,1234,-1331,-1753
94,-51,-4,2612,85,-1003
61,-24,-9,2086,-109,312
66,5,-7,1708,-764,1409
93,101,57,1075,-2069,1905
-120,-84,-81,-69,-2702,1814
-65,-45,44,-666,-1717,1843
-16,-41,69,-212,-123,2156
-2,18,21,968,-113,2244
-49,-73,-7,441,-1089,1286
18,53,70,-1422,-45,-966
81,-39,-19,145,1724,-2244
-14,29,-51,722,2487,-4167
-6,-67,-104,-26,470,-2726
-74,-97,112,549,-1397,-1868
-78,-104,-81,1438,-2531,-1867
-39,-100,14,1410,-2698,-1945
-15,-101,95,829,-2132,-1609
-42,-97,-112,26,-1379,-821
-70,-119,-116,73,-884,64
-40,-119,-84,11,-339,1011
15,121,-68,263,593,1612
-95,40,-58,1315,2101,2308
-61,-5,59,795,2370,4046
-87,-109,-6,515,1674,3909
116,-19,8,-1422,2817,2652
15,48,69,-1483,2017,1678
62,-107,-3,-1216,-475,1098
30,-94,62,-357,-1639,236
73,-121,123,409,-930,-262
104,-120,-119,284,572,-498
126,-109,80,-899,1218,-1076
-128,86,-2,-841,867,-1754
-64,-27,-42,-502,447,-2079
37,-88,-51,-669,783,-2394
34,-46,-101,-2299,583,-2741
120,-31,-104,-4278,1912,-4892
32,122,27,1194,619,-3663
-96,120,61,2736,-1716,-2581
0,-76,97,2650,-3300,-1534
-126,1,-24,693,-3613,-844
-82,16,94,-1886,-1488,-88
-103,-21,64,-1260,870,347
-126,-22,-28,-391,1741,1248
-11,-11,-80,-252,1864,2060
50,-4,110,477,1222,2481
91,-12,118,1341,1022,3127
-93,-88,-105,2472,2535,4148
-100,18,56,2193,2533,4660
32,-49,66,-800,-73,4258
98,-64,105,-2481,-1629,2328
-10,-51,108,-890,-1678,729
-75,-97,-1,-3065,-1725,-3775
76,44,56,-1219,-769,-4636
-114,-119,94,1241,-963,-4247
-36,-99,70,1203,-1856,-2621
9,66,64,-922,-1842,-1696
-29,-7,63,-2048,-3094,-4494
38,119,-116,-565,-1759,-2432
-98,59,-112,117,-84,1066
77,127,101,692,-385,1960
-57,111,-108,385,983,3615
100,-87,-87,-509,1394,3512
72,-50,-67,-251,2132,2075
88,35,79,988,2339,-45
114,-54,29,1357,2281,3715
-100,58,-4,1878,1369,3884
-117,54,-46,2443,1414,3567
-11,-112,-16,-280,769,3075
66,-83,14,-2227,1470,2038
103,86,69,-3976,2402,-182
-85,111,-54,-141,1297,-244
-109,-30,-46,4135,-1221,-983
112,77,-22,2968,-2714,-2318
21,16,119,-841,-2539,-3591
54,-128,-18,-2403,-1957,-4529
36,-52,-75,-2138,-1614,-3818
93,-17,107,-1990,-1649,-2740
-51,57,54,-2519,-1195,-1651
107,117,20,-2143,-765,-921
53,126,-9,-663,-640,-285
-3,-36,-43,-634,-416,449
-89,62,-84,-1047,-1130,1029
-4,59,6,-2719,-1214,755
33,117,75,-2888,-714,619
98,73,-111,-1253,449,942
118,59,-123,-804,599,1039
121,43,111,-636,354,548
104,-32,86,-1,266,819
82,-103,31,1577,92,1154
123,67,-18,2508,-154,1379
127,103,5,579,-19,1124
-95,-86,29,341,-4604,-3109
-54,19,-87,-865,-5544,-1767
-117,-51,78,-1499,-4314,-284
-8,2,-86,-1602,-2505,16
112,-6,-11,-467,-267,-913
120,127,-25,1952,1492,-1029
66,-17,-40,2816,3224,777
-52,-17,26,38,3278,3973
40,34,24,-622,2099,2148
38,-63,-93,-2998,3722,2032
-124,113,105,-5357,4664,4671
38,-36,-22,-2348,3038,4054
-89,-40,-58,2187,436,615
119,-86,-88,3480,-491,-1312
109,63,-79,2917,-1307,-1811
-119,31,-35,378,-130,-1351
-53,27,-16,-2415,1263,-1684
-70,-81,-53,-5909,737,-1819
-13,20,-41,-6186,670,-2469
91,117,122,-5540,2087,-3761
-71,-11,-69,-1520,4097,-4052
75,-35,-69,21,3511,-4287
32,-55,108,2067,44,-3287
-95,-47,94,1716,-1860,-915
104,33,94,489,-1289,445
29,63,59,-195,-641,-689
1,69,69,-1747,20,-886
16,56,82,-3167,580,-213
46,68,99,-3585,59,547
96,-89,-57,-4462,-402,992
-65,-39,61,-4991,-414,1039
33,-87,-73,-3178,-1229,624
31,59,83,-2294,-1418,-1185
116,121,-93,-2945,-435,-2959
60,22,-21,-4257,-1267,-5116
100,-57,32,-3199,-1512,-6273
-57,125,80,-859,-3119,-4581
-105,102,-120,278,-3391,-1364
59,-20,-79,235,-1804,145
9,44,-67,176,-142,368
-119,93,-70,1619,3895,3275
22,108,13,2043,5000,4980
65,-96,-35,1473,4921,8255
20,-54,78,-462,1898,7550
64,-76,-116,-1135,794,3337
-57,-68,-64,-1466,-827,-1253
105,-95,-49,1678,-1975,-3647
25,-112,-90,1964,-435,-1674
-102,-67,108,454,-660,-60
94,-11,105,-1328,-1755,-355
-72,-30,-56,-2248,-718,-1277
-8,-70,-5,-2551,516,-2242
20,-122,2,-2288,1070,-3499
31,12,17,-1258,251,-4318
-41,-117,77,-519,-1426,-4176
-17,-3,-106,438,-1910,-3964
83,47,-104,-377,-2661,-2133
-18,97,-62,-858,-1968,-1217
41,-12,-37,595,-53,-2131
-19,-120,-95,1335,886,-1106
-121,-63,83,648,613,1410
-71,-12,42,378,579,2193
81,0,13,695,1236,2814
-9,3,-41,1342,2126,4011
-11,53,-87,901,2481,4956
73,78,-104,1012,1788,5747
105,-68,112,148,1658,3567
-24,-47,29,398,74,2549
11,31,-13,214,-1563,2183
59,96,-77,1275,-1862,452
-107,29,1,493,-488,-1252
14,-67,31,-973,1638,-1834
-115,0,-49,-2583,520,-1923
73,23,-23,-2374,-1374,-2948
-27,-95,79,-852,-83,-4215
68,55,120,-958,1198,-4596
22,-37,67,-648,963,-3595
-49,-64,39,55,-651,-1979
127,-45,81,716,-2238,-1359
66,-47,-112,1133,-2183,-1568
16,-50,29,-1556,1632,-4420
-14,-95,-15,-1506,-256,-4279
30,12,21,974,-955,-2836
4,8,59,1502,-627,-989
-106,104,39,1104,-310,-530
112,114,20,829,-593,-1494
93,69,30,408,-775,-1409
-126,-25,65,927,-1160,-762
66,-30,-121,89,-1554,1143
-98,-121,-81,-1172,-929,2998
52,68,-67,693,875,2105
-22,-27,-82,2424,2586,1941
65,-57,70,3035,2651,3836
74,102,72,604,1661,4829
80,-71,94,-1166,1308,3280
19,-43,42,-1020,1021,1642
-97,-40,-11,462,-125,1127
40,-29,1,1425,-1412,1047
77,-26,55,1288,-741,929
-22,-19,85,-151,1082,36
58,-89,-24,-2967,548,-1207
2,115,-59,-1932,-992,-4522
53,-112,52,-155,-344,-6363
-43,-121,-55,199,-174,-6541
-30,87,-38,-11,-1465,-5660
30,118,-56,-86,-2309,-4642
45,-98,-96,313,-2380,-3700
78,-99,-111,1101,-2216,-2518
111,-99,-96,2159,-1363,-708
91,-101,-50,2645,244,799
-86,127,-7,3026,2440,1630
-71,22,-10,3537,5586,2543
68,-86,-16,2828,8379,3913
3,110,-18,2631,7530,6596
-11,-96,-14,-1620,3084,5853
-42,-53,73,-3205,-195,3002
36,-18,3,-45,-4004,-1789
-43,-5,-81,2912,-3699,-2374
-66,-95,59,4772,-1315,-1061
93,-25,91,3692,117,-168
-124,11,-35,-4993,1646,2745
77,70,85,-3766,-154,1307
-80,-20,100,162,-973,-1170
30,-117,97,3435,1211,-4283
-14,-67,19,3315,3357,-6346
116,-4,-60,695,2985,-4922
3,76,33,2159,-888,-1692
28,-86,-85,2794,-4724,-1490
-82,-29,101,2102,-4931,-4222
-26,-80,4,358,-2472,-4008
101,117,-3,-1067,-538,-1760
-32,54,-72,44,172,161
-113,77,-93,950,480,1632
-38,103,-60,481,1333,2990
-97,53,-33,57,2999,4523
-52,105,-114,-795,5032,6230
-32,-87,-91,-2012,2769,6405
-29,-92,-4,-1061,288,3104
-108,-102,-9,1165,-1661,-877
77,52,51,2478,-3203,-2223
55,14,-34,1176,-2801,96
48,71,35,376,-708,1595
72,-88,22,-446,1297,970
76,-80,-80,-1048,1778,192
95,-94,92,-1430,1256,201
-123,-114,27,-956,410,-680
121,99,11,2,-114,-2144
4,-13,28,-96,736,-2755
8,-51,-18,-1502,603,-3264
22,-54,-18,-4679,2026,-5580
59,-53,103,-2209,2900,-4704
114,65,-12,1439,-1431,-1768
-96,5,54,1254,-3033,-662
-119,48,-91,796,-2560,-581
-33,34,-4,-494,-236,-919
-39,-4,-45,-270,1453,-541
-75,-62,87,985,875,152
-16,-55,-119,-15,-454,1358
50,-25,-56,-553,-360,2776
85,12,-32,-359,275,3502
-46,99,11,-1609,1135,4701
-66,120,-40,-3162,735,5523
-26,-87,-80,-870,93,3387
-107,-23,-119,1193,-757,700
32,34,-93,741,-753,-828
79,56,-38,-550,1303,-1560
-72,-26,-115,-993,3299,-1205
-63,-46,11,-1247,2633,-1281
-62,-83,-67,-687,1145,-1863
-11,127,-38,-464,124,-2317
-103,21,-6,366,341,-3118
114,1,28,-447,-667,-3175
75,-50,3,906,-567,-4117
-124,63,40,1208,-892,-3728
-69,113,-3,410,-1711,-2514
60,-93,5,-572,-2291,-2059
37,-117,53,-736,-1413,-1868
-70,112,54,-859,-1165,-1109
58,-91,81,-1723,-1177,915
85,-11,-93,-2679,-428,1957
-81,27,-58,-2141,320,2818
85,-38,-101,1138,1502,3279
106,-85,114,1920,1851,4269
126,33,-121,-431,1199,5973
-43,-106,29,17,-35,4792
-128,-83,16,331,-1250,2359
89,-101,86,155,-1347,1242
-27,-96,69,707,-678,687
-123,-97,40,1005,-86,208
-104,-116,22,566,426,-483
-83,-125,14,-644,523,-953
-109,116,-6,-1135,-87,-1296
-68,84,21,-747,-109,-1665
14,45,38,-559,433,-2417
-94,-33,42,-630,1136,-3294
-127,-6,13,-1565,598,-2893
58,-22,-56,-295,-163,-3558
-124,-72,13,-599,-869,-3886
57,-74,31,-919,-1284,-2663
82,-27,10,-520,-1608,-1467
-13,55,-82,-198,1809,4995
2,-18,89,-852,-320,4786
116,72,60,44,-1133,2518
-118,69,71,280,-478,-21
17,-21,33,1470,-294,-2378
5,99,35,1392,102,-2322
32,116,34,-716,994,-1637
78,109,-15,-1715,1253,-2389
95,103,-25,-1901,420,-2608
86,117,-15,-1718,-242,-2486
88,-115,17,-1744,-289,-2618
50,-84,29,-2045,-168,-2635
-26,-53,42,-2336,-198,-2324
-75,-50,49,-2117,-129,-1678
-81,-49,71,-1972,-47,-856
-91,33,104,-2548,-97,-245
-128,89,115,-2299,-122,-648
52,98,124,-1526,-339,-878
31,55,-109,-763,-540,346
104,-112,-93,-2010,199,1465
-89,51,-58,-4034,300,1111
-23,83,26,-4714,564,324
-20,53,116,-3296,623,-593
-45,42,-80,-2665,515,-1287
-81,22,-38,-2964,535,-1717
105,-45,5,-2402,40,-2003
31,-83,36,-1587,-708,-1571
-31,-118,84,-553,-1082,-1061
-58,-85,101,-467,-649,-930
-83,-69,118,-881,-494,-1086
-7,45,-109,-56,275,-1296
96,20,98,874,-465,-750
61,-81,61,2847,-1278,-136
-12,12,114,790,8,2052
28,119,68,-656,1716,3057
74,-99,-57,-32,1617,2406
-8,120,-103,277,1896,2546
-81,-109,81,-185,1634,3673
-80,-27,42,-534,385,3498
-54,-11,44,-335,-383,2592
-30,27,13,381,1318,-5890
-81,97,2,554,-112,-5744
68,23,6,163,-1003,-4539
-126,10,-17,-656,-773,-2865
-56,32,-65,-507,-500,-2055
1,19,-115,526,-1128,-1802
127,-7,-80,665,-1645,-1099
117,-63,-25,672,-1151,-72
111,-96,2,746,69,1900
-61,-45,-18,241,1231,3992
-80,12,-42,-565,2161,5404
28,-114,13,-3131,3169,7376
104,116,99,-5901,2426,6720
-23,46,-54,446,442,4218
-11,24,63,4318,-4031,2313
-39,-23,-20,4970,-5968,1042
-41,48,21,2022,-4259,1286
74,54,118,414,-909,546
125,-15,124,-259,3130,-795
-34,-20,10,-2384,3558,-1012
-90,22,-50,-3092,664,-1907
99,-85,-45,165,-1350,-2958
-30,97,31,546,-342,-2933
80,106,80,-1763,324,-3082
69,-120,77,-3614,260,-3629
63,97,94,-3000,162,-3703
-6,31,-124,-1291,-13,-3270
-128,15,-125,281,-460,-2276
75,3,126,750,-506,-1608
-49,69,108,-450,-764,-948
-88,65,108,-532,-381,-743
-86,28,106,-523,-19,-18
105,56,87,-726,-269,1280
110,109,89,-99,3,2249
-25,98,90,476,728,2446
-20,53,77,257,1594,3535
-118,127,70,-1344,1428,4769
-52,-57,48,-1206,564,3445
-54,93,25,1034,-1563,1728
80,64,30,2467,-2602,2780
116,51,-91,-851,3038,4198
-56,-40,82,-2966,2079,5195
50,7,17,-282,-497,4226
109,-21,43,1777,-323,2309
73,-21,3,2422,-60,1788
-37,22,-24,1344,-240,1352
72,84,-43,164,-207,253
36,66,-41,-344,-249,-1005
-115,-34,12,-534,191,-1487
-15,-74,18,-1153,662,-1551
-14,-40,-15,-1528,-213,-1194
-32,29,20,-1676,-1221,-1855
-4,34,80,-765,-920,-2897
64,-69,107,739,323,-3962
80,108,84,792,118,-3702
87,2,78,1198,-948,-3554
-57,-14,90,1035,-1864,-1641
-33,96,108,-69,-2027,-395
0,62,-76,-339,-710,20
-118,6,-72,196,1799,822
104,-63,80,1801,1351,1214
94,-36,68,1292,502,2486
-42,-41,-117,329,921,3103
-99,-29,-81,-577,2450,3529
-83,86,-126,-2376,2279,4599
-87,-47,111,-3072,960,4886
-66,-45,96,-66,150,4420
-124,-41,43,3042,-691,3598
56,79,-25,2687,-1153,1939
66,90,39,-1694,-224,-458
-35,105,-24,-354,-1920,-5884
-16,-53,103,1955,-697,-7077
-119,47,-71,11,302,-5338
69,-116,-1,73,-2382,-7533
-97,-97,31,-1700,-4528,-7578
-90,-27,21,-2315,-2142,-7824
65,-11,7,-1049,-2610,-5226
15,-48,48,-503,-2043,-3176
4,12,63,-889,-1455,-1511
-125,92,90,-1085,-557,13
-2,75,87,2351,852,3860
29,48,48,2108,2571,4070
-118,-47,45,-348,2163,3119
105,121,87,1348,2866,6244
-105,-125,-118,2138,3144,6172
-29,-117,-94,2237,2825,8206
89,-11,-125,3358,2306,7946
-124,28,-6,5489,-320,3611
81,69,95,2324,-2064,1704
-52,29,-13,111,-701,457
-70,-23,-48,-134,1315,254
-85,-13,81,-681,1830,49
21,-34,22,-930,771,-956
0,-7,0,-810,-1853,-2323
4,-37,-114,-1231,-6017,-4495
-122,-100,-113,-4001,-4221,-5371
95,-2,-22,-5672,-80,-6480
4,91,44,-2909,-1290,-6124
57,87,16,-925,-2214,-4496
-52,118,-36,1472,-1733,-3309
28,-116,-44,1883,-1079,-1921
27,-124,2,1197,-100,-357
-43,120,-30,1624,1270,1171
4,106,-33,1746,2124,2381
125,56,-14,1838,3021,3559
-95,-9,14,2187,4936,5075
32,-65,31,3433,6486,7096
-58,49,9,2919,4992,6738
111,-67,-37,2106,779,3917
-23,49,34,521,-3501,1199
-28,-81,61,-105,-2576,233
-49,114,88,1506,458,-862
81,51,0,2951,897,-759
-18,63,-45,2290,-418,439
10,90,7,1522,-1653,1767
67,-77,-119,1298,-2110,1429
83,23,13,-90,-1810,1096
100,46,62,-498,-1003,422
121,52,103,-1456,-843,266
100,9,-106,-806,-964,330
-105,121,-59,-2165,2495,2977
-27,-90,89,-2492,2143,3168
-5,-105,37,-919,703,3182
-96,0,20,-175,-835,2867
-38,64,108,-822,-1283,2166
-104,-51,-82,-1417,-1190,1351
-91,6,-103,1077,-1047,-719
112,-82,-5,1066,1724,-1518
-90,-89,-120,-156,2618,-2460
-112,16,-17,1783,128,-3456
-51,-109,31,2597,-1691,-3959
-121,-9,-118,1478,-1834,-4094
-82,-104,-75,411,-1902,-3766
56,94,-90,469,-2247,-2826
-93,113,-93,20,-2056,-1610
69,-85,-75,-1106,-2202,-774
37,-36,-18,-2460,-1357,339
8,113,-38,539,-291,1458
41,-5,-19,4308,1046,3693
9,-1,-25,2629,4740,5159
-41,59,-99,-324,5593,3538
43,32,115,-2390,3375,2818
78,-86,3,-2793,501,4088
-44,-14,-8,-233,-1591,3672
-93,32,38,1331,-2219,2170
97,104,86,1571,-1109,546
76,121,105,358,507,-946
96,106,92,-953,979,-1920
-107,48,59,-1228,1023,-2710
-97,-14,96,-1327,1577,-4483
-109,-50,49,-1225,-317,-5348
68,76,89,-379,571,-6425
4,32,-115,-1452,678,-5444
-24,-2,35,907,-1889,-3433
14,83,31,1225,-1773,-2457
101,82,23,1172,-1340,-1720
31,54,28,789,-734,-690
-58,74,32,-189,-345,714
-43,-124,72,-1334,339,1989
59,-34,-117,-2650,882,2968
-92,-100,109,-1378,-2151,-3874
114,109,-103,-162,-2584,-4250
54,-5,-8,-180,-1552,-3452
-86,-78,4,28,-1328,-3058
-18,100,-6,300,-1623,-1756
-87,78,35,51,-1158,865
-88,113,55,625,630,2244
-17,-92,-13,1443,1361,3033
127,60,-68,735,1687,4195
68,-81,-101,1360,3163,4601
-1,-43,-123,643,4455,5926
-3,73,-25,570,2167,5315
-125,-32,123,-377,-259,3405
71,-61,-55,-1008,280,2007
29,53,-73,810,-7,181
-77,5,-96,2056,-955,-26
-84,-10,-86,1333,-576,-682
-33,-47,-86,-640,34,-2023
16,-93,-83,-1926,-187,-2728
-62,-73,-73,-1572,-1517,-3665
98,-1,27,649,-1566,-4269
0,123,103,1157,-1222,-4219
-109,79,-114,-313,-2622,-3596
-102,-109,-123,-1790,-3547,-3096
-68,93,-82,-1933,-2738,-2591
55,25,-73,-633,-1394,-935
-3,35,-50,117,215,529
7,94,-96,424,1758,1804
120,116,111,140,2370,2918
120,113,64,163,3152,4161
-80,93,65,133,3858,5188
-109,-30,92,-1935,3183,5844
50,-106,23,-2044,650,4265
99,-86,6,-425,-1961,1326
-71,124,35,1258,-3131,-166
117,101,74,1798,-1878,259
100,106,109,952,424,660
119,125,56,-213,1767,182
-127,104,-5,-625,784,-292
98,96,-26,-437,-653,-988
122,-19,43,3292,-3377,-3766
95,-32,-8,1983,-779,-1686
-100,-4,34,-1136,-1304,-1953
-120,-29,-27,-106,-1761,-1648
95,-43,-32,-119,-1436,-509
18,46,-103,-676,-1094,-1203
16,51,98,296,695,-252
39,84,5,205,323,688
34,102,0,885,592,645
56,74,5,1714,1202,1257
73,-8,42,2060,1547,1001
80,-41,89,876,1524,714
-114,-83,114,1693,1360,913
110,61,-82,1744,1945,1937
-16,106,94,2792,1043,2783
-7,-38,102,2884,-1689,2493
43,16,18,1265,-2199,1556
5,61,103,178,-1218,138
-32,-16,-86,-44,-1542,-535
-45,14,-37,3132,-2892,-375
-58,24,65,4293,-1166,1003
-28,93,123,938,3567,1220
-80,75,-95,-379,2930,-393
-12,-103,77,821,-504,317
101,61,122,763,-1863,3006
98,-21,65,-1982,362,2153
6,61,-61,-1848,1787,-2696
103,61,127,3062,-3277,-4644
53,-40,-95,5716,-2839,-1746
-118,51,28,1103,1232,2611
43,-51,11,-1469,232,2196
11,26,-85,-498,171,1958
87,90,89,1629,1983,2090
-4,39,-56,10,2670,1637
-50,-41,-102,-632,782,1060
-109,-90,-75,430,-1988,-128
127,-115,29,254,-2642,-2124
-88,-33,-52,-999,-2301,-2564
-5,-8,-43,-2849,-463,-3591
100,85,-118,-1400,675,-6421
-86,-101,-68,1817,-1051,-5737
-122,92,107,2594,-2051,-6112
72,-89,44,472,-369,-5485
-59,-34,33,-3110,-1005,-6412
126,-104,-63,-885,-3101,-6373
-52,89,-58,536,-2757,-4838
-126,39,-99,2736,-3047,-2019
-46,92,-60,2873,-2246,-774
-89,-100,61,820,-765,744
-45,-90,99,-948,1733,2688
31,112,24,-214,3667,4393
-115,115,-35,-1269,5211,7067
120,-39,-18,-3956,5784,9177
64,-104,-55,-4491,3287,7642
-78,12,-86,-4515,-412,4719
74,22,90,3099,-6831,-5097
-99,59,54,7217,-6208,-4159
-75,24,24,5767,-1601,2011
-31,7,3,2321,4223,1650
21,104,-98,-3797,4496,1397
59,-70,-34,-4898,2870,661
107,-101,-79,-14,1347,-4438
-81,-54,-51,3041,-1830,-7648
40,-45,-75,186,-1122,-5897
118,-4,-65,-5197,688,-4116
103,-79,-54,-5141,960,-3446
-46,-5,58,480,-1533,-4583
-114,-89,-77,2563,-2320,-3786
66,-87,-8,859,-1208,-2678
79,-104,-36,402,-1988,-2448
-51,118,12,-439,-3081,-1348
-110,113,82,-1224,-2572,-112
99,-104,-69,-2431,-1849,1590
127,-76,-6,-2124,33,3106
-5,-96,-41,1263,1670,5314
-67,-127,-43,-695,1017,4994
69,48,95,-4324,2176,4089
-50,-123,-85,807,2611,3866
-4,30,-24,5445,-1244,4296
116,-128,-23,3596,-2790,3988
-98,-12,10,-3312,3096,1899
30,117,-120,-5342,5174,2187
85,20,-38,3461,-225,-3742
-81,118,66,2545,-1380,-3613
13,79,65,-777,564,-4195
122,-19,19,-1701,1729,-5972
116,95,36,-2481,809,-6358
26,84,29,-1373,-616,-4989
-95,-83,-43,204,-1522,-3345
-21,-12,-23,-103,-2196,-2277
-65,52,30,-1775,-759,-2006
-111,41,-4,-1481,748,-1281
34,26,-101,-54,-914,-352
6,88,-55,-1276,-2434,590
67,-97,52,-4179,-2527,1264
118,-27,-78,-5092,-2848,1418
-38,93,94,-6153,-2585,643
6,63,23,-8224,-992,-512
-3,7,90,-4948,561,-3638
109,-51,98,-439,-1876,-3587
23,90,-47,944,-3780,-2113
52,102,30,704,-2733,-1058
-80,-20,81,-1741,-1781,-5
79,-65,105,-1127,-924,-891
99,71,125,1148,390,-792
65,-2,57,3296,1270,-94
55,-118,-65,2306,2531,1441
-106,-38,81,891,3910,2268
40,-48,-86,1242,3927,2691
-3,-60,4,1916,3278,3218
63,-4,-108,2475,1971,3420
86,84,-118,-251,1155,2224
111,55,-77,-483,674,1968
106,0,107,1205,926,2060
114,36,22,1574,1253,1410
52,88,-54,386,755,501
-37,107,-99,-959,-266,-674
-87,119,-81,-1833,-887,-1164
13,67,-2,-2215,-564,-2127
79,55,13,-3206,-650,-3640
112,35,76,-4026,-1049,-4108
72,81,-64,-4648,-591,-5037
-110,-86,84,-4147,2213,-6159
-16,-34,36,-1805,1400,-3578
16,0,-11,-1142,371,-2378
124,-94,-26,-4374,1163,-1165
90,-107,-69,-4962,1705,-307
-48,1,100,-42,22,-278
-39,-49,-126,2016,-1416,2134
23,-72,-23,-1888,-2075,3416
-73,-42,-109,-1770,-1392,2979
-66,-33,113,3580,-1342,3712
-72,44,-47,4427,-1817,4960
82,-96,-97,-598,-3441,3692
-55,115,14,-1126,-4141,1581
-13,12,85,714,-1167,1028
-121,53,10,1285,-281,389
31,62,-61,876,-790,511
77,70,-61,-143,-642,1046
-121,89,-53,-823,-283,946
-88,105,-43,-1002,-432,591
-49,102,-33,-264,-53,-467
-123,-90,-49,-318,802,-2899
13,-47,-40,1234,2229,-6015
49,98,-31,3071,3010,-7525
-60,37,-6,2835,1468,-7026
-68,96,-74,2073,-1065,-3919
-97,-61,109,1944,-2581,-1905
-40,-22,98,2767,-2545,-1139
-102,23,-77,1499,-1198,-866
-82,11,8,-2,484,-16
-70,-44,-14,152,2131,1687
-28,-96,-67,1468,2669,3120
-37,74,-103,2456,3088,5354
40,16,-42,2803,3179,7640
2,111,82,2545,5184,7577
48,93,0,2630,2773,4200
-41,52,109,1192,-2888,1689
-123,-118,-97,827,-6814,196
13,86,84,1556,-3474,210
89,-37,-7,-10261,4250,1098
-120,-127,-2,6395,-2404,-4619
-10,-72,-104,-643,-1625,262
27,2,-67,-1894,871,-569
-33,-83,126,-454,1874,-835
-68,97,95,1108,944,-215
124,111,35,1722,-336,240
-106,124,36,1780,-938,917
-5,-69,74,803,-29,1531
96,-55,85,798,1472,529
-74,-89,-114,5201,1219,594
-80,30,39,4699,-735,2408
114,-89,45,2713,-1581,2551
-87,-68,121,1180,-311,1199
121,-80,123,704,550,1042
123,-111,103,838,19,1636
-81,-68,-121,70,-700,1930
-66,21,-54,-1308,-860,1484
-63,93,83,-1984,-772,927
-92,118,118,-335,-389,688
123,-80,74,173,13,-436
23,-32,50,1291,904,-2471
54,-71,46,584,876,-1350
-49,-38,-71,346,1180,-2855
-118,71,-74,-248,466,-4066
112,-25,-86,-615,-827,-3517
69,-77,-21,-177,347,-3453
49,-83,38,24,535,-2618
8,-37,30,-11,601,-2297
-114,-12,-28,1357,-67,-1485
78,108,-31,1093,-19,-1427
100,127,-26,1155,827,-944
103,85,-46,1443,1512,242
-59,97,-24,286,1889,-209
-82,-46,-66,1745,2680,1811
118,-36,-87,-922,2455,1224
-91,10,-58,-2110,1645,253
-107,-21,-47,-2746,1221,-891
127,-63,-23,-2637,-145,145
-116,-35,49,-2247,-796,-94
-119,-66,90,-4885,-648,2115
-96,-3,61,-4635,2925,-768
54,-50,-53,5018,2436,-960
-5,70,80,3265,1645,-3043
-20,-38,-13,1412,-498,-2907
69,-3,-61,1147,-168,-2367
-1,-127,-124,-2663,1335,-2214
-77,115,-31,-1855,1452,-3308
-62,93,-20,-891,-604,-2290
123,-84,81,-748,-1097,-1011
122,15,-87,-1172,-684,-424
87,82,-53,-1062,822,-1192
-86,56,-53,-376,697,-2022
-108,-3,4,-453,-779,-1795
30,-46,36,-400,-1294,-2398
-54,-115,109,-804,-1100,-2244
112,103,-39,-1113,-466,-1349
22,-28,-21,-51,1308,87
29,-1,-61,-1497,1593,-33
6,-40,83,536,508,-480
39,79,55,210,630,-875
62,88,25,-410,980,638
41,33,-37,-2104,823,2752
107,-50,67,2850,-2352,80
-45,-13,24,-1996,2751,-1968
39,-68,-79,-736,1452,-1853
99,60,119,376,-418,-1052
43,28,103,-703,-400,-488
65,58,-92,-1708,8,185
107,99,-84,-1439,-275,-435
50,-8,-14,53,-966,-215
102,-11,-113,-1580,2963,156
69,14,98,-2626,7183,-15
-99,60,69,1148,1383,537
-77,94,-32,579,-4766,732
66,-97,-77,649,756,-1715
-54,-125,89,-3681,5007,-1313
-33,-77,-2,1693,-1060,-164
-45,-51,-20,-1516,628,-657
42,64,-117,-114,-95,-496
-5,-84,102,2846,2746,-4657
-40,-34,-101,4404,1732,-3119
-94,-15,111,2619,-468,-2534
-95,-37,-92,928,-885,-2189
-6,-60,-115,871,-544,-2285
-114,-70,-78,47,-939,-1563
107,-39,7,-1539,-699,8
113,8,28,-1968,310,959
-103,47,27,-786,971,1751
-5,100,21,-256,1310,2070
-103,-91,49,-1013,1109,2412
-96,102,51,748,1740,1983
94,-112,-60,1858,-77,2100
-65,91,6,1,-3164,1483
-32,95,95,-7,-1660,52
-62,25,73,1976,584,-885
122,-49,-35,2922,820,-795
88,-53,-106,2061,-299,-143
68,-23,-100,540,-890,249
54,4,-16,-529,-734,-42
72,-28,61,-467,-511,-74
85,-38,85,23,-14,46
74,1,86,-140,221,-386
68,-15,68,256,333,-814
124,-101,23,988,606,-869
124,-52,-3,-176,543,-379
-79,-41,-1,-443,820,-1125
-100,-100,-49,998,554,-1285
108,-113,-63,1260,74,-2175
91,49,-71,1595,42,-1931
69,21,-72,839,202,-1405
20,22,-89,232,352,-1094
-35,-15,-113,632,123,-499
-51,6,-106,502,-187,245
-33,33,-78,136,28,796
37,80,-45,-334,548,1380
104,122,-27,-599,677,1635
-82,-96,-19,-297,750,1774
-10,-35,-26,-17,488,1493
46,-44,-21,804,233,822
-103,11,92,1523,2859,-2750
-117,-41,-13,1295,3106,-2705
55,-110,-112,1407,1263,-2883
19,64,-86,1741,-282,-3937
-45,-65,-68,2039,-167,-4318
94,-118,-84,1214,-142,-3479
-42,125,-77,-278,-40,-1729
-111,-112,-104,-209,252,-250
115,-54,-122,-295,364,184
112,22,-84,-1352,-21,1144
-41,-18,7,-1185,-227,2467
-55,36,102,-401,900,4403
49,-33,20,-359,1198,4113
-111,34,23,-1229,-227,2541
101,75,-42,-152,3797,-2355
75,97,-65,282,5319,-3104
31,-56,54,-129,3956,-2951
90,117,93,1245,320,-2490
-12,17,-49,-1274,371,-755
0,64,-109,-2033,2224,-2306
-99,18,-87,-764,1013,-2968
-123,89,-31,1557,-166,-2719
101,66,42,948,-1002,-2858
6,12,64,935,-905,-2649
120,-29,59,569,-617,-2111
55,-15,83,-1095,-164,-1173
81,107,117,-989,122,842
-41,77,-121,-2526,-640,443
21,-88,-32,-1585,2399,-20
18,-86,-117,-1910,4869,-963
14,27,-45,-1602,5775,-1843
-26,-50,28,-1608,4043,-2331
-16,90,-3,-344,1936,-2001
60,-109,11,679,355,-1925
7,104,0,1372,819,-3330
-113,-20,-20,1505,32,-2621
57,-104,56,-37,-396,291
84,5,88,-1517,25,449
-109,23,-115,-1037,-33,491
-35,97,-75,-1879,535,959
-31,-125,56,1395,2575,-3324
38,57,-67,-9525,4659,-4196
119,-40,60,-1984,1999,-6
-2,-109,-31,8783,-166,-1296
-72,105,122,5918,-2196,-4274
-29,-70,-33,3553,-2594,-1033
-33,-64,31,1768,-37,12
-31,-109,52,667,1815,-333
-23,-73,27,229,2209,1179
0,24,-50,925,1870,1427
-2,-27,24,-691,1647,1401
-52,-71,-46,11641,-5247,-1937
24,-86,67,1789,-2507,1446
53,25,27,-5791,3023,-2518
-94,91,102,-4068,3718,-1337
-1,84,12,-2133,1780,987
19,-87,35,444,-683,2043
40,-65,80,-1900,598,1160
-38,-36,68,-5609,2630,-2726
-54,89,-84,-1445,1600,-2754
23,63,-72,3835,-650,-2711
29,-74,-81,3715,-1923,-2448
78,-50,-84,1545,-1683,-918
-98,-2,-60,-795,-1017,-917
-9,88,-29,-2746,-544,-670
-24,70,-1,-2725,147,-684
-8,39,86,-1570,1065,308
111,-13,-81,480,2072,2560
-56,-56,0,-317,4220,1870
-14,12,56,3854,-661,3109
121,-51,-32,476,-1527,2005
-47,34,-91,-2735,356,-332
16,-66,-101,-997,-87,160
-47,-53,-118,-219,142,1157
-18,41,-110,-1207,40,352
-75,54,16,-1137,732,-530
-118,-128,28,915,2491,-830
24,51,-45,769,2707,-2623
18,-113,-103,990,-505,-4863
-31,-29,-82,1090,-2237,-3791
-76,62,-111,-456,4470,2777
5,25,100,-1965,2409,2728
11,127,27,1480,-2647,2998
-86,-46,82,-182,-1494,3774
-88,107,35,-901,-110,3383
38,64,27,-2447,429,1075
-117,102,72,-1646,479,-48
-86,20,84,755,445,-60
9,32,99,76,709,-1185
5,54,-93,353,1743,-2168
53,102,62,3071,2268,-2394
68,114,-110,3724,-263,-3063
-103,88,-80,1972,-2119,-4186
74,-34,-45,1555,-1962,-3265
-34,-66,8,158,-621,-2064
-90,-96,22,-407,-18,-1098
105,-102,21,-149,289,-179
77,-59,4,497,480,892
83,14,-12,632,804,1326
7,-60,5,2018,1526,2291
-72,-69,-83,3109,2264,3320
9,-60,69,3758,2401,3830
-122,-80,7,821,-129,4243
79,31,32,265,-2753,-126
-109,-128,108,1423,-2484,-2803
109,89,-91,1193,-354,-654
-5,-102,-101,236,542,1015
-41,-3,-78,-1350,1017,-219
19,-104,-43,-613,853,-698
83,8,-18,1638,94,-25
80,58,-23,2473,-670,-141
55,-109,-19,2901,-1026,-458
60,-100,12,2349,-369,-1277
-113,109,28,761,992,-1062
-79,91,12,-277,1444,-1480
116,81,-42,-438,731,-1281
32,90,-56,-518,-171,-892
20,-106,-49,-803,461,-1031
-5,-122,-107,-69,490,-1064
46,-56,-109,-1526,73,-1240
-42,105,-95,-4877,2916,-1139
73,38,-125,-4154,2915,-2347
97,-30,-102,-2286,2017,-2137
-112,104,70,-942,2294,-3746
7,-106,118,-3134,1099,-3713
15,71,111,-1288,1313,-4033
5,-18,92,185,96,-4047
44,103,-80,70,-2054,-2268
-62,-107,-50,86,-282,-1257
-1,-51,-65,-1154,1458,-1359
-32,-88,-86,-1755,951,-863
-48,119,-87,-860,372,-826
-103,-99,-63,-853,31,-648
118,-90,-80,-670,39,-400
118,-51,-42,-968,35,-253
-67,-33,3,-1069,473,-198
-57,-94,31,-593,389,-323
-32,-92,8,-803,629,24
-126,-87,-30,94,597,-173
-105,-53,-36,-497,411,168
-82,-6,-57,-705,557,6
-12,2,1,-727,647,-360
-37,-53,-12,630,379,-607
-92,-47,-82,576,345,-431
-105,-32,-102,402,-91,-94
-7,31,-83,15,449,-336
14,13,-80,-390,547,-689
-85,-63,-114,661,-136,-403
91,-21,88,65,-205,-126
-101,-10,105,-289,466,-43
-126,56,108,-1633,1519,-599
49,-41,79,-391,873,-1533
-67,57,40,1313,-361,-894
-128,80,92,879,-1139,320
68,125,90,1350,-389,475
75,118,119,968,365,936
8,74,45,1269,1681,2592
-8,-92,-20,111,2384,2572
46,121,-38,1180,-115,2560
-39,1,-36,281,-1401,2245
-82,88,20,-4041,3162,-806
18,90,-49,-2234,1270,-1362
12,93,8,77,-318,-373
62,-100,47,810,-39,169
29,93,-3,-297,351,477
21,90,-17,-406,594,-250
95,23,13,-137,386,234
-85,33,30,-175,698,16
-106,38,20,29,425,-451
-110,16,31,16,27,-496
115,60,64,-770,-16,-547
111,61,101,-1127,610,-841
97,33,-128,-1247,1019,-911
80,-7,126,-623,1008,-983
65,-43,93,-111,779,-828
83,-20,91,-958,714,-769
78,-10,107,-1773,1095,-959
27,-36,122,-1403,1243,-1021
-23,-34,126,-1039,820,-822
-52,-36,126,-344,419,-569
-18,-56,127,226,420,-366
8,-33,121,-565,238,308
63,21,-92,-1579,518,336
99,34,-30,-1681,594,119
115,27,-2,-1250,1040,-142
91,35,-15,-791,984,-228
60,50,-34,-400,679,-420
38,58,-53,-157,725,-532
46,74,-77,-411,1047,-740
42,68,-113,-336,1077,-1063
50,3,122,124,670,-1234
43,-33,111,745,512,-1469
55,-59,94,753,744,-1630
82,80,65,1162,696,-1307
99,32,23,1628,569,-156
54,92,-41,1313,169,305
-17,-77,-72,742,-198,402
-35,-87,-60,1112,-249,633
-48,-51,-63,1176,-100,902
-44,13,-69,864,159,611
100,-78,-104,-4144,738,-2196
-76,90,72,-2548,831,-1336
2,123,28,-1210,-4,-1250
13,-122,32,-889,79,-1047
31,-114,12,24,272,-434
-16,-118,15,175,214,559
-117,-82,51,1018,767,1738
16,-17,10,1468,1384,1542
-27,-47,-79,2480,651,1664
66,-12,119,2931,-118,1912
-41,99,109,1410,-4,186
83,-29,81,1803,225,123
45,-41,6,2224,518,1198
-19,76,6,-87,1611,448
20,-28,114,2083,-543,-1856
72,-30,51,1964,-3207,-1204
-126,80,80,-3487,1653,-3141
-77,94,125,-1478,1093,-3194
-84,39,-44,-1239,-1854,-3084
95,26,44,-2437,-575,-3050
3,-128,63,-153,-112,-1877
36,-65,45,-1435,442,1159
-71,29,113,638,1482,2293
34,98,-44,3547,983,1839
38,121,-43,2310,455,3667
-45,-83,-50,1007,2040,3156
-120,-108,-117,2111,990,3748
49,-118,49,3260,268,2472
-98,121,-48,3632,-19,1296
-24,95,-72,2866,-330,304
54,-11,-64,2660,482,119
76,-47,-63,-1761,684,-1367
22,76,102,-619,-1249,-3311
-22,40,71,-501,-2001,10
100,-99,-71,-3292,-1197,-2766
-2,4,105,-54,17,-1275
56,67,49,-313,-1076,-937
52,107,87,-406,-755,-973
26,-112,-76,-1338,1573,-704
-101,113,-85,-1530,1750,-640
107,-24,-43,-2984,2916,-1764
111,81,-78,-1224,1654,-1795
-34,53,-67,823,-90,-938
79,-70,-39,360,-694,-1115
19,-23,-40,-936,-255,-1171
-74,58,-23,-2934,278,-1891
121,37,-3,-3415,732,-2256
96,-52,18,-2443,385,-1946
-56,14,86,-3198,1013,-2554
35,-69,-97,-2210,-177,-2662
121,58,41,-1718,-790,-1640
-54,61,93,-2904,33,-899
121,125,25,-3811,-22,-1526
