AccX,AccY,AccZ,GyroX,GyroY,GyroZ
-70,37,106,819,4444,-5263
52,35,-101,905,5709,-5902
46,-92,-35,-534,5225,-4542
-76,-31,-67,-6605,6895,-3956
-118,-58,-70,949,2439,669
52,-73,68,-1860,2832,2936
65,-88,-100,-3843,-2374,1758
98,-29,-103,-3223,-2907,1175
113,119,-50,1066,-4966,560
122,98,10,2493,-2580,-1794
92,-117,-13,2351,2623,-5840
-83,-126,38,2050,5040,-4258
96,-10,118,225,6537,-1252
62,-107,-60,1651,2199,2677
-22,-114,-73,-11761,9321,1343
-122,-13,55,-1704,-7081,1547
16,85,-115,-3869,-7022,1709
54,92,-19,-3573,-9456,709
41,-127,-109,3232,-12188,365
-37,34,59,-899,-2062,8710
-25,-1,-110,1881,-741,4240
-127,90,-117,75,-208,-2274
-53,49,55,-812,3069,-113
-100,-6,-65,150,-1848,604
23,102,-42,-231,-452,358
57,7,-103,-166,828,-894
93,-9,-120,49,272,-417
88,-42,-116,141,-394,-244
72,-67,-115,333,-276,256
92,-10,-94,152,21,-175
92,-40,-107,83,16,84
100,-24,-120,27,55,-137
111,-25,126,-27,78,-25
116,0,-124,-76,33,-103
127,-11,124,239,-127,1
-126,4,-118,3,43,-164
-127,-16,-123,180,23,-48
-118,-16,-122,-15,107,-76
-108,-17,121,70,28,-43
-104,-26,117,59,-76,43
79,37,40,3380,7308,-7958
-23,-33,-111,-595,5091,-9161
46,34,-111,1414,1985,-6832
116,-58,104,-2361,6184,-4392
15,-64,96,-1443,3392,-683
36,4,99,-47,1028,2511
78,78,124,-1870,1808,277
85,-13,-99,-2677,-980,19
-97,-13,3,-2442,-3258,-51
-70,84,1,849,-7231,325
-110,-1,-3,2764,-2755,102
-126,-62,3,2199,1750,-3927
-94,-18,12,963,4027,-4312
-50,-91,70,1186,4853,833
-25,-27,-61,-429,5588,2613
-119,120,11,-1080,-1167,2450
-110,121,125,-4196,-2912,753
37,-124,26,-2767,-5525,1255
-117,87,55,-1594,-7906,1540
69,-8,2,1296,-8117,1741
72,-99,56,292,-5856,2114
35,127,59,-914,-2509,2990
3,-92,82,63,-2100,1549
-90,85,92,37,-494,1199
121,-13,-35,-822,-1051,-600
-52,54,105,334,-65,344
-64,26,18,1118,-1719,1534
-19,106,-19,-699,-39,-356
-8,8,-36,-121,899,-29
36,3,-91,270,219,-168
33,-12,-114,131,-60,-178
48,0,-100,27,378,-364
60,19,-91,201,-161,155
58,-7,-109,351,-361,-27
59,19,-89,140,105,-10
82,-4,-93,239,159,44
87,-4,-105,70,12,-68
96,-6,-108,17,182,-102
111,-33,-125,131,53,29
113,-10,126,46,-61,-63
-25,-78,-119,2314,4649,-6033
65,94,-104,1440,3271,-6754
81,19,-35,583,5355,-6421
-34,-88,115,-8475,14600,-4111
-95,-64,-115,1937,-1096,350
-6,-80,40,-2233,-465,1540
19,-38,-115,-3586,-1617,2056
-22,-87,-98,-3712,-2057,-334
41,-44,-44,-362,-3067,-17
-61,93,62,3125,-4325,-534
96,124,41,2101,2762,-3029
-64,10,31,2407,1918,-3372
-48,-124,52,435,3503,-3516
126,-122,39,640,5124,932
-50,-46,-11,77,2015,2630
39,4,88,-2996,223,2467
-22,-64,99,-2349,-1768,2447
-121,-66,-101,-1875,-2158,895
-70,44,74,1483,-2346,1122
-8,-3,-83,-320,-1989,1705
77,89,49,-932,-6935,3776
107,91,-18,-802,-7542,5695
112,81,30,-1880,-7066,5751
85,54,-103,-2742,-2342,4169
-122,-40,-98,-4187,948,706
32,35,-78,581,-5301,2283
-45,57,48,193,1932,-1891
-87,83,110,3013,1222,814
-60,-92,-44,-406,301,-209
15,23,119,523,697,-613
43,-43,87,298,607,-227
27,-68,84,174,-100,-100
36,-54,127,-35,-214,133
58,-16,-103,-155,-150,-258
56,-36,-111,172,-14,30
46,-4,-107,-274,71,-242
63,-36,-128,217,-62,144
77,0,-127,-85,65,-146
77,-9,108,34,-69,7
87,-6,116,-129,47,11
44,20,-17,4168,6959,-6863
-97,-43,-125,-210,5135,-8188
-99,-86,-99,3094,2796,-7799
-110,-16,-8,-4536,5679,-4959
-22,-121,-43,-1251,6076,-2359
77,17,-121,-1576,1913,1878
-53,-119,39,-4192,777,1521
59,57,4,-5641,-3988,444
3,-22,88,278,-4644,442
-70,-122,19,2829,-4829,-3402
-53,-77,-90,3861,-209,-2433
47,45,-88,2770,4557,-3190
-101,4,-15,-414,4950,-2682
10,-33,20,-446,3917,835
57,-10,113,-1077,2814,1508
-110,-45,-44,-3471,871,3329
49,-38,119,-5226,-2317,1873
21,6,3,-4436,-4916,2424
-70,-41,-41,-4210,-5763,1359
-11,13,-58,-1531,-6028,-3361
-79,10,21,3535,-12203,-353
-26,86,54,931,-5141,4297
19,-42,123,4819,-5254,5726
7,-76,-67,-4191,-4140,1037
77,48,-63,8711,-3939,3835
-4,30,-97,-765,2452,-1233
-86,78,47,-2613,97,-327
-56,-99,-95,1381,-403,195
-60,22,76,315,-500,-333
-50,2,-105,8,439,-154
-46,-34,-103,-127,537,-259
-30,-35,92,-83,-172,117
-31,-14,69,273,208,-71
-19,3,48,17,56,-164
-18,-40,52,389,-13,114
-6,6,59,-81,2,-22
-7,-16,68,354,55,-59
7,0,62,50,154,-78
18,-14,36,268,55,-135
19,-12,29,-111,6,-11
-3,-51,8,948,11457,-8665
44,-102,96,-382,4995,-8958
-113,53,75,2202,5631,-6920
-127,-84,-34,-580,7114,-8245
122,-92,-47,-2683,1728,620
26,-38,-53,-3359,2622,1317
-111,21,118,-4594,2705,1477
27,126,120,-5197,-5783,2510
-95,17,82,-710,-7141,-1632
52,-42,127,2897,-6755,-1484
-39,68,-105,4311,-727,-2513
-21,69,117,3441,3522,-4203
108,-66,-71,1821,5633,-3867
-48,-15,54,203,5148,-1608
100,8,32,-477,3293,2257
-6,-51,-47,-3283,1406,2444
22,37,42,-5537,-2413,2271
-89,-67,28,-4741,-5325,2187
94,107,-29,-1798,-5286,149
67,104,117,3197,-5304,500
19,-90,30,3143,-4423,-5541
-91,-115,66,3046,-413,-1699
-38,-123,61,3094,-3264,4503
46,-50,-20,-4208,-2987,4433
-73,79,-101,-3370,-5554,7807
105,100,15,-1785,-2012,7273
106,57,48,-1257,-3671,4038
23,-109,57,1071,-291,-3027
62,96,-73,4763,888,-294
5,-112,-79,1390,-1266,1242
-46,-96,-2,-2178,-426,-1635
25,-68,-62,790,941,-171
3,-110,-125,971,482,-194
6,-74,119,29,157,-587
56,-108,87,323,729,-320
61,-117,47,183,209,61
68,-94,50,109,-61,52
81,-65,58,-57,-90,103
74,-31,68,14,-195,56
72,-34,91,249,-32,23
-46,-107,127,2885,5665,-1785
-78,-100,24,1401,6037,-5493
-127,100,-124,1096,5582,-8829
-76,-64,-76,3696,3448,-5357
33,96,-17,574,3928,-8278
-120,97,32,-1725,5385,-4030
-39,-19,-81,-1601,3561,-450
88,-97,-27,-1500,638,3452
-49,-67,48,-3615,-496,3159
99,-79,-65,-5516,-5991,1650
117,107,103,-1289,-4281,-776
61,98,24,3527,-4187,-4061
112,93,-118,3125,2141,-2702
84,-27,-77,2422,3662,-3057
-99,-83,-11,950,4825,-1002
-75,-19,29,203,4480,1803
45,9,-60,-3098,2539,2157
69,-44,-18,-4324,-1854,1697
-96,-81,-122,-4056,-4016,2282
-39,-66,81,-3012,-4442,-927
43,63,-68,2706,-4385,136
13,-58,-96,3588,-637,-3133
60,-93,-97,4541,895,-5110
-122,-118,-48,4197,2981,-1918
21,-103,-35,1889,4467,771
116,111,-89,96,1917,2631
-84,49,56,-5559,31,2763
61,97,-3,-6242,-7233,3676
-54,48,41,-2551,-6471,6687
-125,-110,101,-1234,-5587,4994
53,-5,27,-2369,-4666,4111
24,65,124,-833,-1809,3107
-8,93,111,-1286,-1908,159
95,-122,38,737,-1922,-404
-1,-28,2,871,287,20
-47,-114,-112,1005,283,121
-47,101,71,608,463,309
13,40,-90,1152,-64,190
17,3,107,62,405,-330
55,-53,21,-652,636,-466
-100,29,127,2433,4760,-3258
-23,79,66,1538,11810,-9776
5,-28,101,968,2484,-8768
-115,48,3,2675,2701,-7428
73,94,-43,-3189,7386,-5079
44,77,-35,-1238,3150,2805
-85,54,98,-2668,1402,1963
123,-60,-82,-7109,-5151,1014
-105,-7,34,-732,-5079,1583
7,-63,1,1734,-5823,-2442
-127,-14,-105,5118,323,-3503
30,-58,-111,1922,4828,-5543
-127,76,-32,-761,8128,-1874
62,42,4,1070,3456,3707
-42,-81,-1,-3440,1190,3717
114,105,116,-4787,-5109,3179
-24,-61,-60,-6492,-5263,640
2,93,26,-1730,-3244,1422
-112,114,-80,1974,-11537,3589
126,118,107,-915,-6981,2936
-86,-117,-10,2506,-5308,3984
-106,75,-45,704,-5071,5690
-38,-44,-25,-1481,2257,1353
-115,28,67,-303,-6522,-317
66,-21,-50,5452,1154,-908
50,-84,65,-4059,2151,16
-30,42,-90,-1165,1230,-775
-52,-113,88,2907,-439,-660
-38,-88,48,13,-65,-761
-16,-77,-99,-1422,-43,-96
-5,13,94,-145,208,-13
-16,-7,44,954,712,-318
47,-45,25,696,746,-324
53,-65,50,128,205,354
58,24,98,-1239,-53,-423
35,0,31,540,-18,-120
60,-38,17,731,486,-45
65,-82,-17,-96,-533,262
84,12,21,-1063,78,182
52,23,0,38,-228,11
37,19,94,3156,14657,-11310
21,-120,-38,7406,-2780,-12174
34,115,-9,-2199,9640,-8005
94,-115,89,-2791,2091,1691
32,37,72,-2375,2820,-663
-28,68,82,-4366,-3530,1563
-79,-111,-37,-437,-4993,950
123,11,69,-761,-5847,-2481
-67,22,-75,2879,-1144,-1242
-3,-48,-88,1348,3667,-3235
89,-48,-66,1844,3037,-4049
-4,-117,9,652,5977,-249
-35,-20,127,-23,1718,1631
90,-5,-18,-1079,-2552,5486
43,-110,-126,-1612,-2291,2808
-44,99,113,-4828,-926,1224
42,-14,93,-4016,383,3172
-101,-111,72,-3696,-8177,4607
92,60,91,-962,-2765,1834
-54,-19,81,-3669,-5882,3849
56,70,51,-3051,-231,905
95,108,69,368,-3365,1571
81,84,70,802,-1871,533
-7,23,53,-13,-109,-691
-108,-104,-75,-1486,-252,-1027
2,30,94,342,-12,-214
58,-12,-46,297,97,-261
101,-70,-83,175,-114,-14
90,-34,-120,91,-343,146
67,-18,-106,-152,-428,67
117,8,-110,-85,-476,-78
-99,25,-72,-564,-155,-436
80,19,-91,-53,-305,209
101,29,-81,732,-145,366
-91,32,-85,379,426,-55
-108,26,-108,51,123,-76
-121,-14,-128,595,798,-227
123,-28,111,544,274,-70
-49,-90,93,682,397,252
13,-67,86,144,-565,88
-84,127,-127,2785,8478,-6749
-26,15,-92,3756,2676,-10163
-107,76,-23,-1221,8312,-6232
-35,123,-88,-2230,5932,-653
114,82,22,-1923,466,1591
-49,92,52,-4627,-2445,488
56,21,-88,-3513,-3800,1248
-122,25,-122,-1191,-3417,-2169
-16,-4,127,5623,-7583,-624
-36,-55,-91,4195,-971,-1965
23,-55,-127,877,5196,-3055
-122,35,-53,1753,4458,-4083
123,-25,59,-1863,9156,-654
117,126,47,-73,1839,3925
25,11,27,-3906,-1134,3831
84,-120,91,-4300,-4523,1654
46,-67,42,-2780,-2462,1484
-60,124,-31,2703,-7021,3215
-122,-61,69,-1509,-4350,2841
124,124,67,-2068,-6784,2552
-107,124,17,842,-5033,3200
-76,-99,85,-3100,-952,2143
-5,23,7,1321,-3613,1771
40,-24,-75,259,-1434,961
-44,-37,113,2695,-3178,431
-86,109,43,-116,-155,23
127,1,-25,596,1058,-410
120,-1,83,820,233,504
68,91,86,-1786,229,-262
-123,66,39,523,-86,27
-89,-26,24,969,1166,-41
-2,-19,6,538,1488,331
103,-73,-18,593,151,-241
-24,-125,2,926,-646,218
8,-31,77,-1753,-1052,-183
-58,-71,-121,-1307,111,-363
65,-120,100,783,1204,153
104,-29,61,180,1424,95
123,-35,106,770,2287,-554
-100,-43,115,1429,2422,-829
40,45,113,2384,4366,-6734
-57,116,112,-809,2875,-10960
125,-114,-125,1049,2231,-7935
-85,35,-19,-9426,16131,-18124
-77,74,-72,1872,515,4337
8,-11,-122,-5127,3699,2263
2,-103,-80,-4343,-2804,1171
77,-28,80,-1883,-3960,253
18,-113,38,1861,-6349,1685
10,-50,-93,5012,-3855,-1582
59,109,-87,1242,2502,-5582
116,40,-44,122,5432,-2764
1,-70,29,1525,4624,2509
103,30,-67,-3395,1554,3214
-32,-36,-125,-1628,-1028,1926
-35,36,116,-2090,-864,956
-112,68,-12,-73,-3491,-766
-118,-111,14,2826,-2458,-2740
-116,-86,-109,3615,566,-2906
-88,90,28,4244,-1969,799
-20,-39,-115,787,-518,2974
32,-7,-115,-211,629,3645
29,-70,34,-2289,-1492,3320
46,-2,-28,-2869,-4450,2701
-61,74,-114,-2440,-3428,4998
71,44,-77,-1923,-5408,5342
62,86,37,-890,-3913,3271
92,-111,102,-1088,-1409,1770
-30,113,-76,-301,-609,763
109,-121,-67,-515,-1751,909
76,29,-94,242,130,-36
4,20,122,192,-27,-290
0,-104,57,619,477,-558
-13,-4,-7,1336,738,-71
-14,-10,-69,298,232,272
23,-39,93,487,270,-87
61,-54,35,801,309,-225
63,-60,60,480,-35,-48
65,-55,102,-295,-30,149
70,-19,122,-401,-119,280
-97,55,51,1524,7373,-7741
79,80,116,-3333,8751,-10200
-47,-81,-80,4280,1091,-5135
52,-102,-4,-3289,8533,-5763
49,-112,-64,-1766,4091,221
-8,-103,-58,-1632,-1305,4498
24,72,-20,-5440,-2178,1027
-62,-11,-1,-117,-4669,772
91,-41,32,1347,-4992,-1709
-124,28,-82,3292,-3692,-2928
1,15,-51,3174,3058,-2133
-115,-41,-16,1252,5612,-2166
-37,46,70,-196,5498,242
27,32,91,139,2366,2125
106,122,-113,-3983,633,3435
-89,-20,95,-4253,-2401,2966
-110,-94,66,-5279,-5207,2987
113,-86,119,-3204,-8251,4650
-67,50,-73,2224,-9779,5488
-35,-115,42,3,-4585,1709
-61,64,96,-4498,-590,120
-8,52,105,-2539,-313,302
-28,23,87,424,-3745,-93
103,24,100,-3157,-2950,-581
-108,62,39,-554,-419,-78
-49,94,-33,1516,1373,635
7,-81,126,-1632,475,-367
32,46,36,96,294,40
34,63,62,498,130,126
33,60,85,129,-183,-13
27,76,122,-12,-613,453
56,37,-128,13,55,-198
54,63,-112,-287,-29,-130
47,33,-115,152,252,-149
59,12,114,-174,206,-148
78,-4,76,315,52,8
88,14,49,-16,-233,225
89,40,96,228,-99,180
93,86,-118,281,636,-226
123,86,-90,-1,1290,-417
42,-123,118,3776,15347,-6456
96,124,-87,1607,2514,-3460
-117,-52,27,3276,2873,-7562
42,-10,127,-2113,7514,-5945
-38,-14,-42,-1224,2411,1354
-47,30,-14,-2853,4682,862
105,57,23,-3536,-3039,2165
104,117,-61,-4061,-4217,393
-47,106,24,-2737,-2054,-2745
84,52,13,4751,-9400,-2538
-40,108,-59,4245,779,-1652
77,8,-57,2088,4695,-3161
-77,-21,21,-556,5816,-2078
-54,104,56,701,4644,1636
7,58,-68,-1633,2286,2214
8,-21,-8,-3578,-1512,2803
-6,18,-30,-4288,-2994,1856
-87,-41,-75,-3063,-2706,-422
105,16,-62,399,-5214,-1116
74,125,-80,2533,-2896,-312
0,-113,-116,2639,540,-3490
42,-84,-103,4882,798,-4170
-116,52,-48,1667,4974,-1702
1,22,-24,1443,3564,1133
-119,111,1,-1959,2291,1951
44,88,90,-2562,878,1862
-34,104,125,-4907,-3641,2805
-3,73,113,-6518,-9592,4055
86,127,-77,-1113,-8877,7591
43,-43,107,-1444,-9328,6134
-120,97,-96,-2312,760,928
93,-102,-93,173,-1668,-1958
93,-101,-78,-413,-2300,2469
46,-76,-75,285,-1041,394
48,88,-23,-436,1557,-1305
-19,-69,-19,63,578,-291
-52,-90,-31,-284,-340,-166
0,-48,70,-270,308,-18
-21,-28,122,-483,-174,143
-1,-26,-107,108,70,189
100,36,101,2721,11092,-3602
92,-1,98,2306,6085,-9063
-1,-111,120,2069,3288,-6794
-66,-11,-103,-310,8252,-8141
-29,94,23,-4104,9874,-3901
-75,36,-41,-1466,1681,3960
77,-32,104,-3290,-1062,4575
-31,116,-103,-2605,-5630,1771
73,-103,-60,-1020,-3588,-1566
101,-12,-124,1718,-5650,-1287
-46,-118,-35,2470,-3427,-1251
-47,-62,118,2805,1016,-2083
18,-119,118,1942,2938,-4017
-88,100,-66,-98,5544,-3020
76,-48,8,-568,4790,118
0,28,111,-1996,3115,3752
-68,-22,123,-3859,-761,3655
87,-46,87,-3419,-390,272
-62,31,21,-1297,-4399,771
-20,-32,-16,787,-5737,-888
71,-39,52,4143,-5598,-1545
-32,84,-123,2472,-1413,-5004
-31,-75,118,3537,2806,-4887
125,-122,-81,122,6072,-1271
93,-106,1,-2619,5949,-577
103,-113,21,908,-773,4241
87,-43,67,0,-328,4060
102,34,-26,-3998,-1060,2990
71,38,34,-3739,-2255,4476
-90,-117,-58,-1241,-4032,6381
-73,-76,7,-2437,-3589,7978
-89,-63,37,-5072,-3259,3974
-103,117,74,-4616,-5511,3016
108,42,108,716,-1147,1979
-64,-38,47,150,12,-410
-19,-54,-79,-1341,1284,-502
-23,-91,-110,-1900,1912,-564
-48,70,92,821,-61,-485
20,-101,-60,1699,228,-259
17,-110,-93,-548,599,-396
113,-17,120,-713,7446,-4691
-66,119,50,4448,9346,-8315
65,127,116,3784,1300,-12185
-39,109,-44,1459,5163,-8084
31,-105,50,-2905,6325,-5790
-56,-94,-60,-1311,4453,1982
0,-67,49,-6344,2676,396
124,76,77,-3932,-12139,4535
-71,-34,-14,1552,-7692,3458
-86,-68,-48,-826,-1899,-758
-81,-71,119,3823,-518,-7197
-30,125,-125,4682,3429,-5115
-22,56,-43,-2791,8895,-4044
17,32,-69,2123,3170,4627
27,-110,-1,-4172,26,4255
-58,-85,-116,-6031,-4553,2352
13,33,-57,-2854,-3022,39
-36,28,24,1930,-6708,2385
102,34,13,961,-1687,-1369
10,-128,64,4867,-3574,-3486
-64,2,-115,3341,903,-8005
-81,101,-69,1769,4627,-5531
5,37,15,-2443,7418,-1172
93,-44,-5,1671,595,4153
89,78,51,-6101,955,3502
-108,-58,69,-7329,-5099,4112
-77,-117,34,-5346,-7823,6372
-5,105,83,-2996,-8872,4118
23,-35,3,-1830,-6702,5187
-18,43,-91,-3460,-757,1878
-66,-53,-77,721,-2088,-203
-85,68,-101,1085,-1308,1
-22,-60,-42,757,156,-534
-62,104,98,1319,-539,649
13,103,-21,540,93,-321
5,-3,-112,967,352,-569
14,-99,56,1062,246,-260
43,-112,22,147,378,-233
20,-103,33,153,-223,-67
45,-81,70,154,51,58
-25,96,1,3088,5841,-4698
119,-24,113,2573,1834,-10656
89,-98,108,-727,4665,-11237
-88,108,-81,-2897,10378,-5581
-108,-29,3,-1280,5817,1731
-19,2,114,-4229,-2149,3268
-113,-87,9,-4047,-6060,2884
-79,103,65,-3539,-1691,-72
28,-114,-113,6094,-8463,-486
59,-104,121,-1923,2799,-7425
-14,69,-111,2888,2885,-3879
101,96,-57,1289,5621,-1648
-59,-97,3,81,4799,1747
-128,12,70,-2962,560,3645
104,-9,-20,-4959,-1444,1623
106,-83,17,-2941,-1486,1259
-107,113,-39,1706,-6395,1276
111,68,-104,2665,-2698,-2770
-12,-37,-92,3414,621,-5456
85,106,-75,3363,3190,-5425
-31,-105,-8,1079,5050,-1812
-17,56,-33,-322,3545,1604
-60,49,84,-2819,2385,2585
-30,-100,-42,-5350,-5706,5391
81,-99,100,-5080,-8265,5858
15,-27,11,-2552,-7381,6667
-119,-78,-88,4633,-7170,6955
-43,125,-128,-5681,1401,1926
88,75,61,-1373,-2327,2433
96,110,-18,1183,-2798,2094
105,32,-62,1068,-1352,956
45,42,-107,2070,-1887,1009
27,-5,64,2308,-374,41
-4,-93,10,863,733,-1348
81,45,-76,-99,327,-925
21,-74,83,-743,121,-964
29,86,31,580,42,-462
70,75,8,159,187,-331
64,92,-4,-58,-426,205
58,-81,44,-38,-641,-122
76,-33,-12,2896,6353,-7902
-117,34,-57,-1366,2699,-6607
12,104,-51,-913,2860,-7666
62,-101,-103,1490,4847,-9690
102,-65,-64,-4439,9713,-6770
-84,-64,-71,341,2734,1929
104,53,-111,-2123,-384,2057
8,-53,-87,-5000,-6291,4116
-83,-111,-16,-1554,-6460,4532
116,-40,-125,-2136,-3205,-5117
-108,29,-123,3405,14,-4017
-59,7,109,1834,3578,-5481
122,3,-98,1171,6636,-4055
-111,70,-42,1767,3976,1993
61,-95,68,-3054,3009,3125
-63,100,-99,-3852,-1242,3404
98,72,7,-3093,-2844,3022
38,-60,-99,-2203,-4238,-741
-57,77,64,3307,-3752,-1410
19,-61,-67,3221,-36,-5081
95,-96,-76,3219,2851,-3556
25,-46,-9,2454,3755,-1887
113,26,109,103,3940,670
-127,-3,-106,-536,1828,1732
-94,-48,78,-4922,-1995,3794
-47,118,-112,-5697,-5432,4780
-59,-114,-47,-1259,-7010,8153
-62,5,-8,1204,-3081,4027
-6,110,53,-3696,-700,2155
-7,63,29,-1979,-2048,2889
-43,-13,45,-713,-2143,3361
-62,48,-4,-555,-1743,2666
-81,79,-124,-744,-378,490
75,-43,27,900,-479,-80
43,105,-49,419,126,236
4,53,-112,803,-621,706
22,66,-113,855,-308,373
16,0,97,722,-313,-198
66,-98,82,475,-201,45
-57,-84,66,-233,-64,96
-93,6,-87,-265,4760,-5426
9,57,-100,2075,5238,-7978
49,20,81,1174,4099,-8415
1,83,20,-1588,5454,-7300
-100,-104,59,-1930,1536,-6437
8,-97,-2,78,9825,-6298
-29,122,119,-3166,842,5790
-85,-1,65,-5772,-5681,4449
68,-8,80,-2746,-2823,2070
-21,-59,-18,15,-4309,4821
-3,-109,-41,4119,-7749,-4906
74,-89,120,2085,3193,-6040
70,-83,-105,664,5739,-4290
-58,-3,-6,493,6402,-1568
-60,-13,72,-699,1196,3621
97,-68,100,-5561,-1248,2607
13,-58,-78,952,-6705,6205
79,-118,56,-2744,-3453,-70
-95,27,-126,2446,-1779,-1390
-109,-92,-74,3166,-2617,-2991
15,103,-110,4060,1557,-6300
127,-126,-56,1946,4617,-5341
39,-46,-66,1097,3668,907
-108,6,-89,-2461,1090,3272
109,59,-91,-5479,-2706,5082
1,-20,71,-5571,-7735,7250
41,-102,110,-2892,-7834,6213
24,-46,-50,4137,-10191,6956
-91,96,-127,-3746,501,4819
-60,27,3,246,-3751,2412
47,-20,-27,659,-2179,354
125,56,-105,1848,1117,885
33,-79,6,4066,-1847,864
62,9,-67,-739,384,-174
-26,111,63,139,-565,-787
-99,-53,-20,1131,-2,-1382
-49,115,-47,658,-321,-1438
8,74,24,-247,-510,14
-72,122,20,-228,-398,-24
-73,-127,13,599,-996,224
-60,-42,-112,-2271,4343,-4854
-50,-117,42,2359,11121,-12728
127,-80,54,-2120,2134,-8303
46,88,-51,1922,4280,-7206
-120,121,-68,-3101,7363,-6855
72,-53,52,-1780,1675,867
-107,-110,-98,-4153,2896,1825
-16,-2,88,-2987,-4746,3987
-25,64,102,-2579,-3685,2648
67,-47,49,-911,-4898,-1254
22,5,-108,4542,-4505,-2447
-106,103,96,1828,2256,-6144
10,-52,115,1832,5492,-4112
-45,1,-31,404,6215,-1047
-59,108,67,-1261,2774,2488
18,78,-32,-3751,-156,3220
-56,-35,43,-3680,-2223,2776
-82,115,108,-1679,-4951,335
24,62,93,3321,-3444,-1222
-71,-78,-63,3463,-1175,-6133
109,37,-51,2164,3823,-4933
-77,-111,-35,2326,3934,791
63,114,-87,-437,1757,2087
-103,51,-110,-1935,774,2757
47,-111,-84,-3088,-1969,3937
117,-76,-118,-4010,-4148,5026
23,-114,81,583,-6986,5516
-44,-118,37,-1661,-2018,4420
12,28,83,-450,-350,4450
-73,123,60,-1760,-1338,3447
-86,-36,95,-1809,-2329,4045
125,84,-95,-1357,-2869,3705
-8,89,122,-181,-1795,1325
-105,43,85,1113,-1193,527
51,-99,34,1057,-48,9
6,104,-3,272,-509,274
12,48,-61,572,-30,-392
-10,-45,106,981,178,-659
79,103,45,1217,169,-501
74,118,88,-583,-163,-26
-27,-40,-102,3226,7103,-7917
8,-88,118,3103,5744,-9933
-44,85,125,1797,1901,-11716
16,46,-76,-3407,6972,-10052
110,61,-126,426,3194,2085
6,-36,99,-4564,645,1317
-32,-127,59,-3385,-5473,5796
37,-55,6,-3104,-951,489
59,-89,29,3924,-8228,-1904
30,-103,-99,2967,2458,-4726
39,50,-99,1318,5943,-5758
-115,69,-57,1042,4387,-862
-34,-71,-28,-1053,1616,1813
-102,-104,-64,-3000,1895,2199
-103,83,2,-4341,-4161,4330
-2,120,-64,-2412,-1292,1777
-9,89,-112,-797,-2112,-1575
-107,58,14,2812,-4386,-356
7,-77,110,3348,958,-5780
103,11,-56,2169,4166,-3986
-70,-62,-54,1994,2684,589
-63,-19,57,-768,-645,2881
22,88,-53,-2768,-1326,2819
88,-74,-27,-3472,-4594,3921
94,-46,55,-4148,-5613,5227
-86,41,125,1874,-7150,7590
90,75,-119,1514,-3557,4427
123,-93,73,-3957,-481,3617
92,4,-77,-212,-2706,4145
16,-76,36,-77,-3342,3125
20,54,109,-1254,-1450,874
112,52,-43,2015,417,-524
63,-33,88,1585,1581,-962
14,60,-100,741,563,-654
18,11,76,576,-94,-590
30,-93,43,1351,9,-108
42,-115,26,232,53,-400
54,-115,57,-249,-177,91
21,-92,-120,-482,14,-69
26,-77,-63,-495,675,266
-122,-123,-16,2800,8451,-10894
125,-58,121,1678,2806,-9331
6,126,125,1073,4101,-11049
125,55,-60,-1313,7223,-5984
-79,122,79,-1797,4967,1254
-128,33,100,-8062,3480,126
124,-100,30,487,-11653,4249
80,73,-109,-5002,1630,-1451
74,92,9,3108,-3766,1517
33,-123,-25,3861,-568,-5581
106,113,-27,2755,4521,-3020
-73,27,20,1095,4414,165
82,35,38,-2914,2267,2076
-71,78,-50,-3360,-3929,3923
-27,-24,80,-3836,-938,748
-69,42,-83,-122,-6950,2547
-79,54,-9,925,-3305,-17
-81,-85,127,4719,799,-7119
93,78,-58,2598,6185,-5082
4,-42,-74,213,4677,1667
-35,56,-2,-1604,1006,1538
-68,-11,-72,-6442,-1051,2438
-56,47,-50,-2616,-4911,3431
-104,88,93,-8464,-2723,1909
-29,37,-54,-2765,-4452,4352
116,56,-121,848,-7343,4533
72,119,93,186,-6172,3301
-100,52,106,-3740,-2390,2650
-84,0,-104,678,-2667,3187
-32,80,13,1825,-1523,1585
-122,67,-120,2152,-1916,1532
99,-19,39,-67,-283,191
59,-46,-14,-378,-347,-314
36,-108,-70,595,-45,1
64,47,-127,467,-674,-226
-92,11,115,271,-108,-579
64,-47,11,574,-278,-832
-58,-40,89,-299,-363,-80
53,-9,66,-187,952,-859
70,-52,7,407,-158,-580
-124,-127,115,2334,12419,-9645
-125,-19,62,1078,4306,-9129
53,116,40,2814,2104,-10511
8,-12,-77,-2357,6944,-6847
40,-8,-11,-2330,5282,-2238
100,-50,-82,-3582,2764,4374
91,-38,-25,-5784,-5907,4830
124,66,-48,-3729,-3939,3145
89,-36,-12,523,-5276,-1683
122,-3,68,4289,-2260,-6058
-120,19,77,2025,6647,-6692
81,123,-97,492,6598,-2391
-60,5,-102,89,3142,2247
103,-47,41,-4337,-265,3310
-6,77,-95,-4148,-3397,4413
-60,31,-104,170,-4009,-86
-116,62,103,3822,-3924,-2850
79,-76,-125,3834,-827,-6257
51,119,-97,680,6822,-6048
-65,14,31,1455,3884,152
24,47,-75,-873,-852,2357
10,-108,35,-3408,803,3218
-99,7,-38,-3269,-2804,4272
-16,-114,-36,-5542,-3351,3845
61,-40,-63,-610,-7778,6087
-42,-5,62,-680,-1485,4307
36,-92,29,-4521,-3326,2111
-119,84,74,-1011,-3459,3185
-123,-72,104,1044,-3821,4843
26,-109,63,933,-4758,4030
27,-50,18,-1710,483,7
94,31,55,272,946,-245
63,-74,-93,560,-985,698
-21,-76,-121,135,-263,-596
20,17,95,1096,-33,-766
24,-69,65,138,-354,-306
10,-71,66,196,100,-399
17,-87,64,326,-119,-256
30,-59,61,-163,-135,-254
27,-43,44,18,-427,-179
-76,-24,-111,5174,9468,-9340
100,-42,-127,-5591,6055,-8898
10,-45,-10,2011,4254,-8575
101,-56,-125,973,6342,-7969
-92,-90,-44,-3740,5399,-3162
124,-120,18,-791,3445,803
-83,-56,-14,-5409,-52,5703
-12,58,-74,-6338,-4822,2595
56,2,105,-165,-4908,858
119,-47,-126,3967,-8564,-3791
-44,-112,78,4255,3145,-7080
-41,-67,110,1909,6626,-6596
-72,-47,-11,-214,5878,404
124,-110,82,-1223,3273,2571
72,-32,-104,-3328,-2996,3856
-6,10,-10,-5952,-2119,5137
39,60,48,-1738,-5821,1084
-71,-97,-5,3442,-3131,-3545
-97,-60,125,4143,-420,-5358
25,-88,-118,2208,5445,-5731
-61,95,-81,2253,4514,-40
67,-16,-104,-839,2869,892
10,12,-11,-70,-2143,3842
68,36,97,-5308,-2697,3816
-34,31,47,-5718,-6385,5561
-47,31,55,-652,-7890,7362
-31,53,92,781,-5365,7671
-37,-57,99,-415,-3792,7584
-111,81,8,-6020,-197,2508
-20,-1,-5,2011,-2541,55
-13,68,57,4661,-3594,1686
76,-89,-87,-796,580,-990
64,-45,36,197,1251,-1278
-23,-38,52,-129,587,-1070
-16,61,-24,409,209,-459
-33,96,-13,-680,-46,-53
-18,119,12,338,-347,357
4,-52,56,164,-252,121
36,7,66,-436,151,-70
40,0,36,48,12,60
-105,88,106,90,4800,-5356
25,-87,93,217,6445,-4436
72,-105,-115,1016,6613,-1243
-82,82,-110,4416,5963,930
-97,-18,59,2671,-1797,3823
117,-58,31,-3716,-2947,2235
-26,-52,9,-3401,-3463,-6483
19,16,41,-2399,751,-6598
-98,59,106,733,6388,3837
14,110,80,3535,2430,1937
94,69,91,-6443,3584,4143
110,62,-77,1728,-9680,2867
33,-122,92,-1111,-2460,-3777
-84,-28,58,-2886,2549,-5601
-125,-98,-55,7333,546,-2049
-92,113,-95,1262,4045,1227
-15,-61,-101,-64,880,2967
83,-82,43,261,-1366,2529
-116,-23,89,-1250,-2630,3391
-76,-57,-85,-2442,-2085,2749
-89,-74,-99,198,-3157,3359
54,-36,51,-497,-3315,3589
33,-39,118,-182,-2594,3567
62,-14,-118,1105,-1708,3183
-65,27,-5,601,-980,3036
111,53,-47,-155,-205,1968
25,15,117,853,65,844
109,127,-28,1876,-553,75
84,33,-53,822,571,-215
34,-76,-126,9,172,-28
57,-111,123,0,-33,139
83,-121,103,-614,327,-270
74,108,83,151,233,-22
98,106,90,369,228,-3
99,121,88,-177,49,-28
103,-123,90,-352,169,-28
111,117,103,252,-52,195
115,-111,95,-39,85,132
118,-93,88,-266,-56,53
-127,-88,93,-180,241,-44
-95,115,75,-5748,3627,-5633
-64,87,-98,2740,4265,-8779
-29,-32,52,-1734,9996,-7119
-59,-10,8,2224,7276,-1750
-72,36,45,2621,1346,2853
67,47,33,1934,-5961,2570
60,-55,23,-3695,-4281,1660
-20,-70,-107,-3808,-1089,-6387
-14,-125,-9,-2730,785,-4955
10,3,43,9752,-2679,4161
-70,-128,-10,-1301,6879,2665
37,27,34,1434,-2863,4512
17,48,-89,1594,-9225,3590
-41,52,81,-3178,-948,-3737
-65,49,24,-116,147,-4790
-79,-19,-99,-3203,14075,-2342
-102,14,-127,3723,-777,1177
-122,-122,-26,-2288,3252,1674
21,42,44,402,-1853,2294
-36,26,-77,-963,-1415,2008
45,-19,30,-3322,506,1795
107,85,-10,-2367,-403,1291
89,112,61,357,-2790,2162
68,90,105,-246,-1932,1715
19,57,-29,-1903,-1045,1894
38,41,-81,256,-1767,1587
-76,28,4,-907,-1741,1440
-74,-55,-78,-322,-1105,1507
-116,-6,-72,-1164,-1293,1110
87,-114,-50,-12,-644,1257
123,80,114,819,-83,1289
118,-121,24,46,-663,615
78,67,30,50,-184,667
108,66,2,330,-9,163
91,51,-22,-55,-48,34
102,-20,-34,526,105,256
116,-3,-55,272,334,-137
119,-28,-83,-271,78,-121
-112,-49,-75,-2,188,-41
-119,-46,-84,136,110,-147
-2,45,84,-503,7166,-3540
-76,26,-86,3224,6552,-822
-68,-7,18,2756,4809,1387
96,54,-88,842,-375,2571
61,-53,63,-946,-4519,3626
-8,-2,-8,-3594,-1955,-3618
92,-42,71,-1987,4244,-2626
4,-106,2,4875,-3715,-3020
57,-115,-35,913,4778,642
-32,97,13,2097,2699,2173
-92,-41,115,-302,-1383,3111
82,36,-61,-167,-5586,3944
-54,-12,110,-2482,-2687,-2430
74,-126,-35,-1717,465,-3745
124,55,-30,4033,861,-3449
-124,-57,-54,1519,6237,-218
-31,104,-116,3517,2455,1647
120,5,126,-1051,213,2085
3,105,67,21,-1421,2198
97,71,38,-1763,-2528,1730
47,-94,26,-3259,-1277,1732
12,11,-30,-1046,-1171,2730
84,45,62,1513,-3130,3725
116,-89,107,163,-960,3172
111,124,-88,16,-2002,3399
114,-100,-104,-365,-282,3055
-5,-104,92,-516,-1427,2958
-15,89,90,608,415,2492
-82,107,11,-394,-12,1951
119,62,-22,411,-183,1564
60,108,3,647,-282,562
47,88,-8,306,-109,-290
39,-24,-47,130,242,-724
34,-83,-78,167,215,-680
57,113,-110,350,284,-563
88,63,124,384,328,-628
91,44,111,145,299,-501
100,17,108,-87,130,-80
102,44,110,-51,-27,17
100,85,126,-181,-108,191
-43,-33,83,-200,4053,-6561
-31,54,68,-87,3216,-7028
34,9,63,489,5075,-5063
119,56,78,1109,6308,-3512
23,121,-89,2350,3442,-183
84,50,84,-533,613,3221
-42,-104,-24,-848,-4277,4063
-80,-114,-22,-3354,-4541,870
-122,49,-103,-895,-2287,-4944
73,-86,-69,-4925,6858,-5155
19,-16,-91,5265,4213,96
12,-17,112,2151,1929,3323
-23,-28,-104,-246,-2248,4412
86,2,70,-2986,-4810,2329
-125,-52,-21,-1839,-2002,-4697
-103,-98,-17,1265,5494,-4576
118,20,-17,8878,-2069,-2019
-89,63,55,-1420,4790,741
75,-5,-71,-1157,96,1870
115,-93,-80,-259,-2191,2494
-90,68,-97,-359,-2569,3178
84,28,97,-3407,-2447,4020
-48,82,-107,-313,-841,3619
6,34,82,366,-2157,3932
-29,103,-95,-224,-660,3676
-100,57,77,-832,-866,2852
95,-77,91,1426,-229,3128
-9,-74,-10,-923,-696,2416
-51,-12,55,-2038,-520,1485
-116,104,50,2254,-152,835
-116,105,-18,994,174,-460
37,39,-87,-599,318,-908
19,-113,-118,-325,149,-310
45,-95,125,693,220,180
96,-79,96,-15,495,-185
-128,-110,64,215,68,-537
-125,-128,87,-307,44,-612
114,55,102,-3,205,-512
123,73,102,79,316,147
113,81,91,71,-22,187
-54,-41,2,-3184,3093,-5112
51,71,90,2056,1891,-5614
-81,50,58,-2329,6628,-5848
95,32,100,762,5594,-2528
118,-98,-24,1251,6993,-1236
-78,115,-15,4636,1448,1926
-71,-107,40,-883,1786,3022
66,-102,-114,-2958,-4219,4308
-67,26,104,-2515,-2975,-587
-109,34,-50,-1901,-1351,-4963
-61,-14,-60,901,64,-4844
-52,-113,-92,2561,5723,-2409
88,-125,-106,3049,3331,3192
78,34,-127,-1329,2493,4827
-77,-78,96,-2233,-6054,4518
116,44,80,-6719,-4580,-2863
66,1,118,-375,-1598,-5147
50,-61,-17,962,6147,2856
-51,-30,-88,3089,4581,-1519
30,4,-88,3270,2703,242
81,80,74,-874,-2095,1606
74,-126,43,-337,-967,2691
-11,-47,85,-2879,-1400,2982
101,85,31,-828,-2911,3359
-16,-52,28,105,-1466,3557
-45,69,-29,-269,-1793,3330
-113,19,39,143,-1596,3113
-118,46,5,-169,-1744,2727
0,-11,-108,-166,-1259,2514
21,124,48,1287,146,2103
97,-110,-13,-420,-1309,1834
-106,99,59,-425,209,1762
118,113,16,853,-62,1081
75,111,-45,863,109,-102
46,46,-75,-625,203,-670
47,-96,-111,16,15,-331
60,-123,119,319,223,-397
78,105,103,-23,547,-407
77,71,65,158,195,-168
87,72,70,100,192,-85
-16,11,106,461,4224,-5432
31,-125,66,-2604,3030,-6916
100,51,86,609,7649,-5299
-7,-70,100,1254,5221,-2135
125,-49,23,2955,5061,378
-77,84,-17,399,-995,4805
23,-45,-53,-1727,-4119,4934
-16,-83,51,-3802,-5812,1107
64,88,-20,-1125,-1686,-5475
13,1,-75,-4417,7758,-5227
8,71,-72,5132,1849,-824
101,-106,-13,3883,4196,4901
75,-1,-41,254,-1069,5302
65,48,16,-879,-12930,3772
56,21,-74,-2952,40,-6931
60,-71,-20,4363,2932,-5696
49,60,-36,6542,-692,2198
-9,52,-98,-393,2905,2481
-52,-93,124,-3189,2098,2767
48,-128,105,-988,-3929,3845
19,54,36,-504,-764,2810
-15,-42,-81,-2264,-1094,3451
43,32,23,-1301,-1708,3088
5,7,92,2356,-2760,2037
-67,32,29,-1042,-1243,3632
67,3,-40,-100,-807,2837
-11,-24,-125,741,579,1972
-72,-54,-43,680,-515,1415
108,-77,-40,270,-214,181
78,46,-65,618,418,-358
60,-17,-106,229,79,-517
50,-111,-125,198,2,-388
80,102,114,94,221,-535
90,67,103,-187,256,-100
89,63,88,-328,52,-183
96,73,94,54,-27,100
102,100,106,175,319,39
-128,-123,102,171,35,226
118,-84,91,-551,114,-49
-126,-102,105,106,231,106
91,-64,87,-2449,3778,-3779
-20,-104,-32,1534,1012,-2953
-35,-63,72,-2307,2645,-8145
-36,-65,79,-2124,4363,-7245
66,79,122,-181,7097,-3672
-27,-74,7,1239,4074,-8
-22,-80,6,1955,3299,3535
-128,-96,122,284,-696,5143
-56,59,81,-3191,-8353,4592
-121,-115,-21,-5579,-3580,-5000
-34,-57,126,1431,-277,-1485
-118,-26,-104,714,3702,-5398
-125,-71,-90,3881,4335,261
-97,-64,-89,1992,2865,4824
-49,70,41,479,-3373,4204
-103,21,127,-7015,-7417,-563
81,33,55,217,-602,-5090
79,-21,49,2443,3811,-1147
46,-35,-18,10566,-5958,498
12,-29,62,-1894,6544,1446
-23,-30,-14,29,-2301,3058
125,-31,-38,-1216,-1999,2923
-118,-4,-41,-693,-874,2589
8,-92,-115,-1266,-840,2822
30,-21,-28,-941,-2388,3127
-8,11,109,245,-1789,3023
-54,-63,45,1950,-1503,2660
53,-90,75,342,-1358,2405
35,101,43,-55,-150,2637
-70,100,23,-1065,-325,2188
-100,102,26,-690,-291,1631
96,92,-1,594,-162,1225
89,-126,-35,-582,393,284
27,37,-75,1226,-480,-134
51,-13,-56,1348,259,-495
65,-90,-109,50,453,-1021
79,67,-119,230,201,-677
84,20,-124,38,96,-461
99,2,121,-214,426,-199
98,-3,100,245,-68,228
35,-23,19,-3968,4895,-6442
13,49,45,677,964,-5962
-67,-43,76,-1762,6347,-5599
-11,-110,104,-588,3453,-2656
86,71,55,-1086,5753,-1766
116,-10,-64,1036,4923,3219
96,-90,-111,3155,-1274,5036
57,120,-31,-1170,-5615,3928
18,100,93,-2162,-4178,-449
43,-25,-122,817,-1803,-3562
118,-43,18,-1107,1978,-5424
-88,-118,-98,1072,9639,-241
98,-66,101,2483,766,2778
-33,-14,-128,-5460,1365,2298
61,-52,76,437,-8661,3935
-63,66,39,-3630,-456,-1951
36,38,32,271,-2282,-5049
-73,49,-79,5365,2254,-1668
-22,-118,-68,-278,5439,193
64,88,-114,573,988,1961
-90,108,-7,-888,252,1806
-90,-57,51,1119,-2657,1962
8,6,28,-1748,-1730,-324
-90,41,94,-3929,-448,2685
-48,-48,127,-468,-3797,3774
-111,-24,22,2927,-3877,1870
-100,-82,-118,-36,-2279,3859
-79,-37,104,-398,-407,2943
-126,-53,27,99,-2229,3162
32,-54,36,349,-669,1952
-62,113,72,1344,-301,2159
-83,50,-11,1657,190,2006
83,72,-71,-65,-404,1716
50,72,-47,595,-732,1089
57,111,-23,107,176,6
19,-2,-68,1116,116,-476
20,-64,-87,297,418,-699
24,-108,120,-878,496,-825
65,100,95,-333,460,-433
80,61,71,396,183,-596
81,110,83,-1505,2503,-6881
78,-118,91,1552,4972,-3262
59,126,108,-657,4527,-1892
-72,-11,87,1500,4437,1922
-5,41,13,-311,2008,3239
-113,34,11,-3811,-3002,4204
50,-120,-25,-1538,-4483,1844
-30,-29,37,754,-1851,-3683
-95,-95,-8,-377,290,-3936
5,103,-93,-58,3042,-4715
14,-71,-57,1699,6353,-375
-119,-68,-52,1248,1296,2556
-85,-39,-125,-2722,2290,3943
-73,-37,-85,-4,-7612,4032
-51,45,118,-3829,-3481,-4801
-69,-70,-89,-1930,-1405,-2579
-30,95,-45,6567,-1788,-1958
81,-51,-41,791,7780,-555
88,56,-102,2096,2199,638
7,-18,0,-1944,-410,-1141
-107,-103,71,-1774,-439,2051
60,9,61,-2178,-1767,2100
48,-78,0,-540,-1895,2839
63,-31,-92,497,-2945,3090
99,-57,37,653,-2617,3410
99,-34,122,348,-1984,3175
84,29,-92,-724,-933,3626
23,-22,126,526,-2056,3286
20,20,-122,-262,25,2216
-109,118,94,1178,-566,2366
-120,37,2,594,194,2265
102,57,-45,-757,-332,1709
65,42,-46,-490,-196,1428
70,90,-69,-387,135,682
51,51,-95,396,-43,-309
31,13,-94,515,193,-601
45,-56,-114,35,459,-825
57,-94,113,11,231,-861
98,89,112,249,244,-906
96,33,102,379,427,-610
-125,-25,81,-1287,5166,-4658
-38,19,96,76,5849,-2798
28,-5,93,4096,3209,676
-16,31,86,1608,833,1696
-45,-76,-38,-1668,1870,3433
-80,-21,32,-3227,-3619,5043
-9,-125,-79,-4365,-3737,-1634
28,-45,68,-2336,-1283,-6021
-58,107,-74,4813,-2263,-4981
-16,121,-109,1956,5630,-2261
126,7,116,1271,2833,2218
14,13,-6,-1084,66,2465
-118,122,-57,-2316,-4185,3049
-89,-43,-61,-2537,-3512,694
-3,38,15,-2089,-633,-4848
95,71,-79,2756,1381,-3276
-97,42,-122,3937,2640,-997
-34,-28,-70,267,4293,-584
106,-72,-120,-159,2199,-325
113,-39,-57,-2496,-922,-208
-114,64,-69,-6204,-1641,828
65,-24,116,-932,-249,1120
17,115,93,1045,-3490,2991
32,89,-64,4955,-5473,3731
-48,86,47,-1697,-1015,3409
87,48,-46,869,-2029,3507
60,88,-122,-131,-1788,3167
74,18,43,1460,-498,2693
-44,-32,79,-149,-864,2385
-56,-118,23,-1238,235,2213
-126,-7,3,521,-1241,2900
-84,-123,50,-477,-695,2352
110,-51,36,422,-804,1031
56,-24,51,883,-40,-633
16,84,-10,492,511,-1186
-9,-84,-56,911,177,-702
27,116,-99,-329,834,-338
53,77,106,405,387,-109
87,108,80,9,380,-345
80,43,66,87,114,-147
70,-35,60,-1018,5206,-4845
57,43,94,1442,7003,-3447
81,-89,-128,1928,7179,-2861
18,35,-51,2335,4553,2393
-86,-113,-94,-1356,890,3293
94,-98,77,-3407,-2428,4153
-43,-57,-68,-4077,-4917,-938
-26,0,-52,-490,-1652,-4941
37,-29,-30,1290,-2618,-3811
-48,-64,-112,2269,4192,-5480
125,101,-77,2243,3276,-948
48,71,-77,1574,4258,2345
-27,12,41,-275,1324,4874
-68,123,-32,-4203,-3829,3925
-12,-9,-74,-5785,-6719,-779
66,19,44,806,-2280,-4508
-99,113,-73,-937,6587,-3208
122,82,-77,4078,2710,-427
-44,46,-47,2572,2947,-56
77,-43,-82,1205,486,1952
-69,117,94,1156,-3823,721
67,-55,-109,-1132,476,1147
46,66,-43,-1340,-2582,2693
16,78,79,755,-2122,3523
19,56,105,1623,-3187,3441
92,-16,-19,-1038,-1570,3482
-128,-48,25,-121,-252,3262
122,-22,59,-523,-526,3344
70,-109,42,1493,-118,3110
71,59,0,1687,509,3116
0,82,-98,52,287,2755
-63,95,-92,547,-424,1987
124,105,-76,514,343,817
68,55,-108,1200,-86,103
32,-22,-89,1430,-276,-350
25,-103,-58,309,432,-586
6,102,-67,-355,465,-215
20,50,-83,568,149,-207
66,70,-78,-141,283,-425
65,58,-73,-256,171,-367
-31,106,88,-1407,5261,-6209
41,65,78,-1144,8244,-4911
38,-88,46,-3503,8309,-4116
-118,-99,56,-1842,-5929,5923
-33,-78,-77,-788,2004,3738
126,-57,85,-2159,-2184,3511
94,66,-58,2000,-4990,583
-11,7,-72,512,-3192,-4306
-85,126,-62,-827,1851,-6080
-115,-113,-101,3749,3870,-2738
-58,19,-41,3952,3315,1356
93,-40,-21,-849,759,4506
-75,2,116,-2646,-6406,4682
113,-93,68,-4902,-2087,-2813
14,104,-47,-2534,918,-8183
-22,-113,-90,3020,5632,-1832
98,68,-60,5112,3265,2859
85,16,-81,1161,3133,1621
-81,65,-96,-815,-728,1785
112,-9,-109,-1243,-2586,2357
112,-105,-76,-931,-2776,3088
101,-55,-19,-1595,-2632,2205
118,-116,-85,-762,-1809,3066
-97,-65,36,-26,-2593,3455
-45,-35,49,974,-2758,3552
-118,-14,109,-144,-949,3156
84,-66,-126,997,-334,3280
67,23,85,1051,-101,2478
-27,-35,8,2453,-323,1574
119,-32,-37,649,105,144
30,37,-77,651,-18,24
46,-48,-82,1043,233,-31
41,-112,-93,586,602,35
32,101,-121,455,305,-278
20,90,-102,-47,519,-197
49,50,-119,534,254,-24
64,76,-119,-186,243,-59
67,76,-112,209,40,-123
83,77,-86,140,366,-181
79,72,-102,-129,121,-41
116,119,73,-6503,6959,-4599
-27,-107,14,196,-1464,-2993
2,-53,88,-3725,3382,-5822
107,-22,87,1120,3185,-5325
-33,-51,90,-1640,6886,-6341
-5,24,-89,-704,8255,-1225
81,-54,119,544,3268,418
-111,-11,62,2130,2282,3848
-38,78,-49,217,-355,4632
-45,83,-22,-2041,-2767,4424
-10,125,-110,-2756,-5554,588
73,-8,22,-2582,180,-3558
-84,-56,-31,1477,-598,-5678
-51,30,-69,3278,6298,-3633
-7,50,-119,2593,102,3378
-32,-16,66,-4524,5253,4082
-88,76,-104,-2239,-7794,4609
-42,17,18,-757,-1418,-879
46,-48,-116,-980,-1385,-5154
-97,20,-57,420,4754,-5455
24,8,-80,4871,3522,181
115,3,-90,-144,4188,740
111,-43,37,1344,-575,1430
48,-28,-106,104,-681,1687
-42,-40,31,886,-2127,2563
-4,102,-59,-716,-454,3045
14,-95,113,-1222,-404,3471
-100,71,-37,-1122,-1390,3261
-31,-102,-30,-118,-1303,3386
-41,-65,40,-695,-703,3384
-114,37,33,-670,-1298,2950
83,-43,4,375,-290,2380
-3,-83,2,-203,-1158,2021
-73,82,9,1304,-764,1913
-95,33,-43,1245,8,1899
84,54,-57,-559,500,1546
63,57,-39,-724,228,799
44,41,-72,111,-28,536
28,-33,-71,813,-93,236
35,-35,-98,647,331,-341
13,112,-79,-5480,2150,-2966
-54,-128,-49,-1833,372,-4521
40,107,89,-271,2677,-6164
-112,114,7,-1627,3573,-7159
-78,-109,-73,-1672,4575,-5554
62,65,31,-2105,4846,-2197
52,61,-38,3434,5504,1497
90,106,-27,4833,3049,3671
-21,31,-121,-349,-3457,3465
68,-41,44,-4357,-6220,1853
-101,-85,-103,-972,-2062,-4630
-125,0,-53,-3832,4768,-4748
-100,25,-109,2640,3195,-1384
124,4,-103,1648,3708,1322
72,57,-94,327,610,4710
-60,125,17,-648,-2439,5521
-50,-10,40,-3221,-10632,3607
27,6,-96,-2093,-296,-7623
-7,-11,-79,-1231,1821,-5648
-125,-93,-121,4260,3084,-1980
-47,-78,-125,1934,2494,2240
63,89,-27,282,2184,1177
28,-112,-55,933,-558,2563
90,76,9,-105,-1290,1481
-110,23,124,-739,-772,2212
-20,97,45,-476,-932,2719
95,-115,120,1091,-1686,2819
51,-77,-62,9,-1308,3045
118,-81,-27,-950,6,2571
104,-118,-91,850,-1152,3163
41,-71,-9,-629,-1158,2774
52,108,-26,597,-171,2334
-45,63,-41,-543,-116,2137
-84,36,-42,-166,-397,1994
-115,26,-37,963,49,1797
99,69,-61,618,-39,692
105,92,-57,301,496,70
43,22,-102,1167,61,-428
39,-49,-93,933,-191,-392
62,-80,-93,-219,289,-812
-73,29,33,-2753,2910,-4365
109,-112,-16,-215,363,-5591
109,27,85,-2746,3871,-6361
25,34,-32,-1002,5731,-5660
-2,111,54,372,4830,-2833
90,64,-89,2011,5296,-1312
54,82,-61,-274,1863,3636
-87,-115,10,-189,1072,4001
22,-108,27,-1311,-9050,3865
-111,81,103,-4283,-1494,-4386
-100,51,20,37,155,-3257
-2,-43,-117,2129,4108,-4650
-53,-96,-96,1666,5978,-508
-49,-62,84,2504,328,5279
-104,95,13,-2041,1559,3672
114,-43,65,-3703,-9258,3140
47,42,26,-5959,-2405,-2799
89,87,2,-4576,3289,-5302
-43,102,120,6246,1121,-2252
44,-85,100,1354,4010,-1238
64,42,11,-878,6497,1988
-72,-118,-32,2857,-3022,1760
105,96,88,1131,-4645,1478
-54,-87,-109,-1852,1767,1004
-105,85,-106,-1757,834,1834
-90,40,-38,4992,-4654,3165
29,-126,-23,-2135,1302,2889
34,69,-68,-768,299,3003
124,-109,-23,1224,-1438,3109
127,-58,-71,-154,-248,2710
32,121,-89,2,-411,2639
33,-87,-28,-116,-1073,2316
-46,125,-13,-115,312,1545
-69,36,-69,1526,-169,1498
99,28,-68,-629,-400,1378
99,-3,-46,-352,700,991
49,18,-58,671,-521,630
63,17,-48,541,-132,83
58,-37,-60,328,-121,-405
41,-117,-72,-512,171,-556
-74,-28,82,-1406,3485,-5870
111,-38,64,-209,4104,-5657
-107,29,77,212,5397,-4774
-28,92,32,1913,5582,-1216
-76,-120,35,1140,4992,1554
74,-3,-82,-193,-616,4026
94,-54,99,-2251,-2038,3126
-45,55,48,-4556,-3873,41
75,63,-107,-348,-4102,-2623
89,-13,-52,-905,-1633,-4709
-11,123,116,2728,5909,-3175
75,-79,-99,1360,8474,1286
94,-31,-4,1034,850,2927
62,109,59,-3834,508,4113
-49,7,2,-2653,-9195,2441
126,42,-112,-3319,-453,-5174
33,62,9,-1503,1626,-4191
-81,-78,122,4534,3137,-1865
-120,-103,-111,1247,7962,1276
-86,53,-27,1697,1201,962
-35,-125,56,-1088,-890,1831
88,-44,3,-2836,508,892
-48,-113,30,-804,-1687,1841
-33,-32,-65,9,-1460,2646
-31,-113,-48,1065,-2188,2996
61,10,16,-945,-1427,3032
31,-29,4,-5,-670,2511
62,-68,41,87,-1754,2549
54,-111,31,1066,-445,2392
-21,113,-15,373,-913,2396
-43,79,12,-376,-455,2063
-95,73,38,171,-375,2002
-115,67,-4,395,-298,1710
90,72,-25,-247,-478,904
55,38,-10,447,-113,509
38,-1,-33,700,64,81
16,-24,-64,39,-119,-206
39,-61,-76,-376,293,-393
56,-116,-121,40,301,-701
77,99,-122,148,457,-645
37,90,54,-1478,5500,-5568
-94,7,60,734,5709,-4488
105,-90,0,3319,8132,-276
-90,-41,-61,2493,-1463,7437
-95,-3,122,-255,-4609,3373
42,62,73,-7424,-3699,2442
53,-24,-57,-1804,-2061,-3421
-87,-41,18,-2379,3080,-5437
122,55,103,5875,5148,-3971
7,105,-77,3588,4057,3256
-94,-15,55,-5742,2648,6247
62,108,90,502,-11755,3683
30,-16,6,-4784,3388,-5073
-126,-46,-63,1679,-1537,-4386
-126,51,-96,-430,15571,739
-75,-124,112,8985,-6753,-41
65,-35,47,-3789,3042,3037
-111,-64,-41,-4999,476,1847
81,-7,62,-597,-1228,2302
78,50,78,1318,-4417,3509
-50,31,-94,-1262,-882,2637
-28,-10,-30,-935,-1055,2853
-95,-25,-58,609,-1582,2673
99,-81,79,-896,-709,2645
73,-122,32,1668,-238,2169
2,111,63,74,-605,2557
-17,110,7,1075,-445,1858
-104,95,-22,424,-121,967
115,20,-33,344,159,757
62,7,-54,301,-45,398
49,-38,-74,441,160,-89
71,-78,-74,231,466,-367
78,-128,-100,300,610,-422
-126,100,-100,321,900,-852
116,41,-128,182,753,-572
114,29,111,101,-80,36
-119,53,119,-401,258,-116
-105,60,116,-24,-57,88
-111,83,114,-206,143,24
-118,119,124,-329,-11,76
-91,-11,23,-2796,3162,-5449
-83,85,79,362,3666,-6331
86,11,93,-776,7695,-4139
99,62,-112,812,6698,-3414
63,-50,-24,1153,7210,-721
-91,-84,8,3598,6271,1049
-47,-77,-38,-484,1462,4094
19,-125,5,-3900,-5724,5159
-44,100,127,-3078,-4141,-3669
-83,57,46,765,-2736,-5393
31,-87,13,1512,2243,-3601
117,67,5,3731,4978,987
121,24,-109,28,2767,3890
-50,124,-57,-2438,-1535,5773
-63,-61,127,-4853,-4957,203
65,117,88,1144,-1520,-3627
-34,-60,-31,1349,1969,-5643
112,122,-42,2316,2811,-1305
-80,44,-66,1656,1658,1654
73,-105,54,-1678,2455,940
-63,-39,51,-292,76,2243
110,-58,9,-401,-2029,1600
-26,59,-25,-1790,-4422,2363
66,81,86,-606,-3050,2795
100,-12,33,-1972,-866,2375
65,-2,49,-797,-2070,2166
61,47,94,-1680,-2322,2957
99,-14,-106,1020,-1967,2916
90,18,96,-120,-1598,2417
-16,-23,106,2,-1633,2433
-61,-64,55,474,-1166,1706
90,-73,-119,174,-822,1949
73,-105,44,941,-242,1362
79,-57,42,-439,15,603
33,121,-3,310,26,-1
36,74,-59,828,-53,-447
67,47,-66,-419,474,-964
91,-108,-122,276,923,-887
79,87,103,491,563,-293
64,70,74,325,446,-111
-52,-27,83,-2086,5078,-6326
-50,-100,53,-765,3195,-5209
22,102,60,-1708,6862,-4351
-4,34,-9,-2090,4620,-3525
68,35,-65,202,5981,-1731
74,51,105,833,4425,2934
-9,53,81,2113,-1310,4960
5,-45,-61,-3889,-2286,3720
-84,-101,-16,-4479,-5386,-121
111,70,4,483,476,-5478
41,-114,-57,110,1241,-4979
-104,-61,-62,3171,4269,-2650
30,99,-56,2163,4185,1582
-47,83,-110,-646,937,3336
27,125,-89,-2373,-1371,3868
115,-17,-105,-2974,-8596,3225
-83,-57,-124,-2910,1724,-5543
72,-85,-45,2332,-1085,-4158
71,36,-114,3315,3658,-2192
-11,-38,-64,1785,5204,2284
-17,3,-16,512,-526,2166
67,-65,-117,-888,285,1023
32,-7,-87,-537,-527,414
36,-112,108,-1443,-2063,1170
8,-43,-41,-848,-1073,993
16,122,-31,1277,-2956,2164
40,-88,-2,691,-2270,2635
1,-118,110,804,-2243,3363
64,-66,42,188,-1495,3363
64,-53,106,1079,-1908,3330
35,-70,92,161,-321,3084
-38,-105,106,-51,-1326,2924
-41,-119,-109,577,-144,2356
-123,-66,78,-266,-228,1401
59,-125,59,-160,-466,705
30,59,29,425,-288,14
14,24,6,-280,66,-663
3,-76,-39,-359,485,-483
1,124,-96,-270,431,-223
42,118,125,-545,550,-185
12,111,51,-3084,5186,-4508
-68,-12,67,973,6304,-4337
-9,75,96,1474,5965,-2287
-71,62,-70,3664,5107,-580
-106,-30,27,3783,1979,5009
99,-79,42,-1536,-1335,3043
-36,127,100,-2844,-2741,4153
113,45,-66,-1974,-3616,-890
-49,-115,-2,-1634,-1752,-4151
73,-99,-42,1592,-234,-4061
-2,58,-72,1579,4490,-3369
-100,38,-92,2254,2567,2308
21,-47,-12,-298,42,3934
2,56,99,-3370,-4083,3497
46,110,26,-3012,-2882,-774
-93,-25,-81,-652,-1556,-3354
115,40,-60,2741,-409,-3795
-104,102,-101,3071,3094,-388
-78,40,-112,172,3088,184
6,85,-105,-328,1042,1523
98,-8,72,1035,-1609,1887
58,-91,33,-1226,-867,1506
-123,-117,121,-302,-2165,2860
83,112,83,-1445,-1600,2846
-121,-104,7,-970,-1683,3411
-109,-50,55,91,-1201,2544
119,-124,-55,631,-240,3198
123,-126,0,1631,-550,3230
62,-38,-26,-1223,-1315,2810
-30,94,67,-1092,-153,2172
-86,82,64,71,-556,2135
-93,-128,63,269,122,1445
111,-92,18,264,-39,387
64,87,-9,173,114,-226
44,-47,-44,769,176,-312
56,-97,-75,570,344,-449
80,76,-116,318,505,-468
101,72,123,-433,238,-425
92,62,111,-461,141,-158
90,65,109,-217,124,75
-36,-61,56,-591,3027,-6512
116,35,70,-1923,5079,-6177
-8,115,55,-631,3505,-5044
-2,-120,96,-2322,3133,-3678
-62,82,-108,-1565,3848,-1307
-40,-27,124,1661,5994,1111
-54,14,23,1879,1674,3802
-67,119,45,-519,543,4108
111,125,-63,-3829,-5070,2022
-74,21,-50,-994,-2885,-826
-123,24,76,1606,-4767,-6379
50,42,-103,831,2684,-4354
116,-10,-67,2675,4398,294
-18,29,-54,1931,3527,3971
36,-20,32,-1390,-60,2445
-119,62,28,-2818,-4982,4225
10,-5,15,-2264,-4138,-526
2,8,-109,-1294,-2239,-4988
24,-19,-119,1756,3429,-2962
-75,-88,-99,3968,4655,442
-106,-72,-97,3224,2414,1328
-103,-46,-117,923,1467,2540
-75,71,-105,-2600,-3315,-1657
-52,-87,-89,-2526,189,1119
-89,103,-120,91,-953,2644
-38,66,100,525,-3741,3118
43,41,-94,-994,-1607,2900
-112,-123,-7,-778,-2510,3528
115,-99,-24,712,-1401,3162
97,-110,-1,154,2,3110
36,52,-18,829,-1013,3743
34,0,-9,1848,89,3758
127,-55,-34,134,-337,3031
-42,-4,4,-353,-385,1407
109,-31,-2,-31,-97,-312
-1,38,-30,1616,-676,-543
4,-43,-36,674,420,-758
11,-126,-96,68,488,-630
23,64,-127,468,196,-419
36,43,120,149,118,-505
-88,-58,93,-3976,3850,-3907
102,116,-118,161,1596,-6163
42,-101,-27,-981,299,-8049
15,-43,126,-7532,3960,-12637
108,57,-17,-388,2316,-10296
73,-126,-113,-485,7268,-3594
9,0,124,-3729,7611,5365
-108,55,-51,-5819,1530,9240
-30,79,-91,-4353,-2860,2187
94,-113,122,8398,-14783,-2084
42,-41,11,5341,-6506,-1745
1,91,-101,-5592,2632,-9573
-22,38,67,-700,9755,-2225
-111,35,-123,-1931,5111,3142
101,97,42,-1676,7024,2969
13,-51,-58,-5820,1922,4912
-38,-71,-14,-4421,-1299,7405
-12,121,-31,-4784,-3683,8320
125,9,-127,-2974,-5073,7988
-106,108,-49,1146,-2186,5491
-107,118,89,-6847,-544,4876
116,-8,27,-5846,-4349,4874
76,-68,-72,9870,-3391,1312
91,-91,47,-7954,7000,-7967
-46,-50,1,1649,862,-2825
-57,125,-4,-855,-552,153
-74,-91,-18,146,-1099,1505
-51,26,29,-1307,292,339
75,-92,-121,-4260,1047,-503
-95,-49,-35,-3756,1524,134
108,-71,-29,-1730,799,-492
115,-128,-93,-451,1125,-783
69,-107,119,1025,-286,-467
77,-88,112,651,-328,-144
114,-64,120,-579,-86,473
-125,-56,-121,-519,-44,371
-123,-66,-111,99,-308,133
-123,-88,-60,1058,-649,31
-104,-84,-97,230,303,-217
-116,-115,99,98,0,14
-8,104,91,5860,-758,-4402
-34,28,-81,-2882,2621,-9117
44,-68,58,-4338,1071,-11503
-110,103,-90,-2997,1447,-12322
-74,61,17,269,4765,-3530
78,-11,-49,-1021,5423,2053
-91,-29,-85,-6248,7208,5485
13,13,-48,856,-3324,2868
53,-3,-56,-3993,-2845,-2682
19,-75,14,8363,-14250,651
-16,-49,-72,-1597,-5065,-5055
117,98,92,-4267,8381,-9049
48,15,-101,-991,5203,2876
-8,116,-26,2155,5818,2779
49,-69,63,-5666,6622,-600
-15,-114,-115,-2690,2103,3903
-114,-87,65,-3282,-2825,4753
-3,40,21,-5105,-2134,4968
97,-118,44,-3484,-6193,5957
-30,28,-2,-1069,-3058,5031
94,127,32,-3214,-3193,4737
-90,-43,65,-2087,-2941,4378
-45,-16,-19,692,-5934,6766
-51,-39,-75,-159,-4716,3544
93,34,72,-11545,7171,-3150
82,-128,-108,133,1807,-1704
-122,-98,75,2954,-710,-1499
-49,-19,80,-548,253,-129
11,63,97,-1592,996,297
-2,66,87,-1281,1232,286
35,73,35,-498,560,363
70,-123,86,-792,-345,26
89,-108,111,-1416,-761,-290
88,-34,-37,-3399,-464,-859
74,-121,54,-1354,416,393
60,111,83,805,1019,-262
104,-104,113,1011,488,240
107,-98,109,1128,-839,-3
120,-106,102,172,-112,40
117,-117,90,-239,115,-99
-5,-26,-24,-1952,4100,-8745
-54,-93,9,-4326,2044,-11619
-79,47,-74,-174,151,-10100
77,-27,-45,-1408,6543,-2834
-79,-23,53,-738,4013,3297
119,-68,1,-5018,5744,5107
54,127,-25,-4832,-3198,3887
-7,-60,76,-667,-4255,-3257
-102,16,35,14352,-13080,-1663
-1,106,-85,-8514,2170,-7628
46,-68,-121,-4315,8217,-6971
107,-10,-4,-1668,5978,4602
-128,117,-100,-347,4566,4929
-127,52,-18,-6617,8581,-792
-23,-104,48,-2705,2914,990
18,-82,0,-5400,-6738,1235
-117,89,49,-6190,-6095,5990
-108,-13,25,4035,-13195,4483
-106,-83,29,-9824,3301,2774
100,95,38,3514,-8879,6254
-107,39,-96,-3876,648,5671
-105,64,20,-5148,-11684,3467
22,-9,8,9177,1543,-1011
16,-82,-86,-1965,4328,-3079
-47,-9,18,-1684,1252,-2057
-9,-68,87,-1753,1597,-64
-75,-96,20,2591,-1667,649
-63,6,49,-78,-223,439
16,44,97,-1644,73,607
62,65,63,-1957,-518,101
-20,122,-79,-1929,-2590,92
21,-2,-107,2116,1786,-362
39,45,27,1922,47,550
98,-121,99,-2394,907,148
92,112,69,-2351,1200,-666
125,40,-12,-1088,1856,-409
52,99,-17,-811,-695,-472
37,-77,119,-3172,-720,-805
71,-85,-116,2928,-890,1455
-93,-80,20,-812,844,-205
123,84,3,3163,3160,-4058
-11,63,-12,5876,-613,-4956
-115,-47,7,362,4731,-6645
74,-105,54,295,4503,-5889
4,109,-122,-5448,5636,-7125
-116,-83,-70,6421,-6148,-7408
47,-93,-64,-1646,-2245,-7102
61,-42,-44,-5803,11824,-720
-4,88,-122,-2793,3010,6572
123,91,-128,-2882,-4063,4069
-25,4,-34,-6859,-2493,-2219
-125,103,103,10891,-14776,721
30,-112,-84,2286,-5132,-3204
122,-51,111,-6067,7560,-12145
-121,-86,-58,-874,7969,1298
-108,102,81,-1947,5207,6075
-30,-44,-112,-3098,2656,2191
25,-92,-51,-6236,2738,1295
46,15,81,-5246,-2058,3071
83,44,99,-3126,-7343,6299
126,-100,21,-3176,-8148,8156
-47,-49,4,-1379,-3885,7843
-15,-2,-16,3692,-4454,8504
38,92,-123,-1238,-2235,5755
-91,-119,122,-8414,-3851,4591
120,-48,-118,-6115,15327,-8179
-13,71,-66,5921,-4291,-373
-17,-114,55,-6128,2788,-698
-108,-69,-3,-1833,3,-56
-27,11,97,-1805,188,-27
-37,80,-62,-2173,294,-257
-28,84,-54,-620,172,-364
-35,93,-43,-813,818,-510
-13,44,-100,1028,29,295
24,102,124,366,-258,181
60,-105,114,-1009,350,100
43,-120,108,-105,-220,-134
47,122,-121,-59,-95,-100
56,-115,-108,-389,134,-6
80,111,-122,94,178,-115
-41,-124,82,4633,-1153,-5254
78,-124,-94,-958,597,-7991
-46,104,-95,-3536,2345,-9732
60,40,-27,-8416,1661,-11108
10,-87,-109,5256,-2731,-7161
-61,121,-36,492,-3666,-2540
-56,-107,8,-7706,10255,3765
-35,-16,-46,-3579,1092,7727
7,28,36,-883,-5373,-942
-26,-114,123,-1955,-5956,53
97,58,-88,13382,-19710,-1697
21,-61,40,-12865,10584,-11837
-117,-107,-113,-5446,8367,-4881
-32,105,59,-2309,5966,12353
-112,-72,-63,6267,-274,-874
79,-48,50,-12578,9342,4081
5,-72,42,-911,-3843,5374
-54,43,-115,-4444,-5094,2473
104,-87,25,-5343,-3924,4777
107,31,-70,1662,-12535,5723
-59,-66,83,-4216,-258,3156
117,-108,1,-294,-6368,6779
88,31,8,5487,-5989,7484
77,-74,82,4574,-8387,6105
22,-51,91,-7664,12179,-843
117,33,-75,5968,-5518,-5965
-98,-20,-49,1352,1677,-3237
75,96,-117,-1087,-206,344
89,-89,123,-812,-861,1319
-84,-39,98,-895,1046,1061
-22,62,88,-1232,-529,607
5,-106,-99,-3115,-292,980
95,-86,-125,-712,1053,-649
43,78,-64,-120,1192,-851
51,64,99,310,1002,-790
24,29,51,1320,-352,-465
-2,45,48,120,-119,-90
13,54,95,-344,-639,549
61,75,-102,-27,-602,850
89,99,-107,-111,122,213
41,87,22,-635,5228,-4606
-112,70,-30,-4070,3923,-6304
-32,79,54,-8243,-1149,-10050
-98,-55,-87,3026,2399,-9554
-115,-47,-9,-1928,4783,-10998
-111,-97,85,-3034,11336,-1220
51,44,73,-5150,3634,7262
98,-125,-70,-4357,-3297,4647
37,71,-66,-583,-2519,-3337
59,32,-127,17260,-13271,-3210
-71,48,-126,-12913,6323,-10001
-70,106,-128,50,7212,-2049
106,111,-66,-2782,5624,3309
-22,59,-4,91,2658,2959
-78,-58,-100,-7071,4786,2214
-32,54,-63,-4896,-2385,5050
-65,-113,-48,-4620,-3705,1313
68,-50,23,-1491,-8274,6382
117,86,90,981,-6966,3754
30,107,92,-6164,444,3120
119,73,22,-2086,-6515,5171
-89,-84,-107,-1029,-8119,4547
121,98,86,3208,-13119,7601
-56,94,-125,17633,-910,78
120,6,-107,-8477,5658,-7422
-89,81,-84,-1554,4930,-3422
-55,-114,-96,-587,3557,-1110
-71,-21,59,3339,-5544,2004
-59,4,-118,-1926,2194,433
-28,53,67,-2038,1302,59
-9,-107,-122,-2896,-1284,-371
59,-97,-10,-4047,243,198
63,61,92,544,1055,-332
54,109,-84,418,1426,-316
34,92,107,1728,-425,58
36,111,98,684,-567,55
77,106,103,-293,109,352
93,121,104,-587,219,87
104,100,90,-95,47,-49
97,87,91,89,-498,-107
52,-17,9,2863,6329,-5901
100,89,56,6088,431,-4255
5,-14,88,836,1531,-8111
90,124,-53,-2377,4604,-7400
117,46,72,-2229,2184,-6657
-70,117,81,-840,-5429,-7800
16,17,70,6313,-4117,-6017
120,-109,120,-4675,5499,-5669
127,-5,3,-6274,5355,5939
35,-99,96,1600,3999,7782
-50,-55,-47,-6061,2004,1532
31,-79,-59,-4377,19,-1116
-58,80,29,2623,-7605,-269
-116,-8,123,8622,-16169,-1376
-112,-128,48,-7398,4542,-8270
7,15,62,532,4502,-7926
-8,77,-128,-6625,6330,-1173
34,55,44,2906,3526,7938
83,85,71,-2904,6130,-2431
97,-3,36,-7194,5842,3492
102,-121,-43,-2762,-4069,2531
-105,53,-2,-4917,-2552,932
67,13,-36,-1959,-9083,6118
-107,105,23,1258,-5316,4367
39,69,-127,-5985,-2045,4722
-103,108,-9,1780,-5902,3804
-70,106,65,-4442,-5059,10228
-103,-2,-107,-3149,-4820,8780
70,54,-90,7190,-5827,2146
-69,-73,6,-14409,11001,-9496
-77,-38,-89,4245,389,-4646
-94,47,93,2431,886,461
93,-59,110,1117,-1977,1345
99,8,-103,-755,-607,765
-53,25,-123,-1749,1219,796
18,-124,-121,-2635,426,347
8,-79,-107,-3642,367,-568
11,-98,-56,-2708,271,-791
-3,69,52,163,752,-116
3,88,-11,190,1094,-181
95,77,-109,3098,2832,-5625
-54,90,-74,1396,3422,-5602
33,63,68,-7435,6517,-7280
19,32,-1,-936,1522,-6916
57,49,-88,3510,-3117,-9338
37,-35,-128,-1948,4195,-8653
-31,24,-91,-6192,10321,-1174
53,-1,-102,-6138,4025,10744
52,59,-70,186,-3929,1811
44,111,-123,-12926,4535,-1638
-119,118,-32,10924,-14091,758
-35,-7,-54,2225,-4574,-4279
52,107,100,-2889,-775,-8659
-41,115,79,-63,4869,-5695
-54,-46,-105,-4761,8561,1551
-56,-22,52,-1482,6027,6166
-87,18,28,-4178,3060,3544
-13,106,-53,-7050,1301,2299
-120,124,85,-4061,-6003,1851
-48,113,116,-1200,-7937,5422
-61,78,-40,1119,-8767,4424
102,-22,67,-3696,-1942,2099
98,-72,66,2182,-4764,4380
-15,48,-2,2111,-2520,11013
52,7,14,-4752,-5161,8794
-44,58,-72,9376,-687,2629
-25,39,32,-2743,1848,-8938
-33,11,123,-292,2416,-4954
-69,-37,77,1449,1086,184
119,118,70,1344,-1495,1270
99,-99,106,346,-998,1094
-36,-47,-93,-327,-183,1435
9,38,-99,-1612,703,525
15,77,104,-2818,1300,-475
-23,16,122,-774,-888,-568
-19,35,-17,-740,-533,-278
28,43,2,-440,974,175
26,43,126,691,308,8
44,63,103,176,282,-315
56,55,80,-282,300,-201
-46,44,115,2076,2221,-7457
44,-77,30,-801,2425,-8280
107,-12,-93,-3023,5652,-8487
-103,8,86,-5939,4150,-6887
-71,27,-110,3201,-2220,-7523
82,-3,73,5446,-6003,-5789
75,99,-93,-4730,10303,-1955
7,108,-1,-5757,5857,4774
54,25,44,-5961,679,7564
-4,-10,54,-783,-3807,-590
-80,88,-43,-6329,-1420,307
-38,-59,-8,5563,-8544,-1601
-3,-25,-110,9676,-13102,-813
-101,-104,95,-7501,3084,-9627
-13,-55,55,-5228,7481,-7173
73,-19,-83,-2331,5868,2714
17,57,-83,-6234,4190,6527
99,25,-117,-1237,4791,2164
-39,94,-125,-8538,935,4411
-99,12,82,-3737,349,1652
-46,16,109,-3309,-5173,2518
-123,-120,-95,-1598,-8320,2898
-78,-103,-112,-510,-4849,5236
51,-20,58,-339,-7691,6021
87,-20,85,-7317,-4166,6128
92,126,78,-2643,-3982,3072
11,-67,-7,3266,-18526,10132
6,77,-82,9747,-453,-1072
-93,1,-24,-3680,5620,-8107
-100,67,45,581,5141,-4000
-87,125,18,841,-793,2696
61,0,65,2508,-3772,2375
-107,47,-104,-364,6,1055
13,-96,-67,-2916,483,663
33,-55,2,-1020,-1809,728
49,-33,-95,-2377,2863,-1230
-7,93,-77,-202,993,-1474
12,91,-114,-169,936,-849
-1,69,119,431,75,-212
-11,89,112,-43,-84,80
65,63,33,2682,1980,-7774
-60,-27,16,-1111,4378,-8063
22,-26,-119,-1110,5489,-6248
-121,106,-64,-4344,7603,-2661
-84,-4,0,-3164,3287,-2126
26,30,-63,5981,-4661,-7811
-112,100,-31,1955,1302,-4859
-11,64,54,-9060,10893,1180
20,33,61,-3460,1753,7565
-92,43,-34,1458,-1938,4898
98,4,-38,-6516,-709,-562
103,-86,-44,2280,-9849,-2499
-43,-34,-16,14859,-16510,-1591
122,120,63,-6659,4367,-8998
87,-99,72,-4304,9062,-6801
30,86,-70,-5582,7133,2172
51,89,-37,670,3995,2111
-67,12,-104,-5650,5248,5609
95,18,-36,-2887,-199,1822
31,-104,117,-4519,-2215,337
117,-92,1,-2219,-6784,4091
78,8,-28,8864,-8923,2592
82,10,-73,-5176,1702,3050
92,13,104,-2834,-5985,3311
-67,63,50,8,426,2847
-72,-9,27,-1563,-4560,8127
5,-113,48,-190,-10343,12826
-27,-24,105,5852,-8402,10007
43,115,-4,-1481,-648,-697
-24,108,-128,-3012,5593,-6547
-20,-55,79,1889,3595,-4884
-99,62,-45,2703,-1236,-242
81,8,24,-3796,-403,674
100,-1,-16,-2609,1014,354
-59,51,-19,-1185,869,71
-46,74,-72,-712,1334,-487
-40,58,-118,757,291,-712
-37,43,-128,931,-525,-261
-22,59,-119,89,-141,-191
-6,59,-117,-429,274,-257
-11,-5,-120,5868,210,-4572
10,-112,-111,682,1326,-5821
-63,-7,-5,-345,2025,-6348
-28,-10,48,-1461,2225,-6927
75,-65,28,-189,2892,-5647
2,115,-88,10422,-6707,-7010
-26,-57,-93,-8944,7862,-7158
-97,-29,13,-5061,6146,3900
62,-51,-56,-1745,1501,5503
55,-120,79,-2102,-4790,1219
119,-53,8,496,-4352,-2294
-64,70,100,10097,-14609,2045
79,50,79,-3158,253,-4998
44,-100,91,-3905,4293,-8046
34,27,-120,-1056,7653,-2009
7,-86,-13,-3758,6613,3726
-74,118,44,-3505,3807,4117
37,17,-43,-6725,6398,2403
-52,-66,-39,-2774,-1478,1367
-51,-24,-50,657,-5211,563
-94,25,-121,-5508,-2410,1648
69,14,50,427,-8134,1109
50,-5,-98,-1856,-5853,4730
-74,25,53,-1361,-2676,5241
-11,-15,21,-138,-1861,7292
127,36,-104,1506,-5477,7497
-110,-82,70,1812,-6695,6273
-57,-108,20,-3555,7357,-2520
116,-109,-25,2833,-1425,-4500
-110,88,75,1911,-963,-1585
-123,-101,-4,-1892,864,-253
115,-74,-111,-1406,1017,-1
-109,-43,102,-1018,798,429
-25,25,105,-1267,555,760
-1,62,124,-778,-155,646
27,79,-120,-404,-51,175
22,78,-124,143,-18,-391
25,44,127,432,88,-264
17,31,115,418,-151,42
27,35,103,125,-87,152
-96,55,111,5013,-158,-6380
52,58,26,846,466,-6933
125,-21,-42,-725,3505,-7415
43,23,-94,-5429,5932,-6317
-105,62,-83,-336,871,-3241
64,-27,24,6706,-8080,-4155
61,-59,29,-4592,-493,-6856
-21,-52,-121,-2119,9309,-2923
-122,23,-80,-3233,4263,5082
106,-13,-24,-1815,2769,5024
-127,83,-55,-4563,-2926,1365
-2,14,55,3895,-7526,-650
-80,-58,20,6122,-11505,-2984
55,-126,-126,-3503,-1283,-8119
37,-109,81,364,4747,-5408
84,-54,123,-3820,6896,-660
25,22,24,-930,5243,5087
112,-35,-52,-4096,5493,2343
31,46,-95,-1398,937,-193
61,18,-4,-6088,-947,1082
35,95,35,-398,-8383,4860
-103,-73,-9,-750,-6403,3810
-50,-7,42,-3184,-6214,724
29,105,-44,-8214,-3357,7488
-45,83,69,3036,-6819,6901
-125,-28,-16,7623,-5821,7759
12,-14,-107,-1989,-20,4190
34,8,-69,-3851,-1446,1558
24,-117,-2,4673,1141,-5305
-90,-43,-93,1377,-105,-2644
108,77,67,1081,670,359
-115,-62,-105,386,-341,243
-93,-42,127,-936,478,433
-58,21,-98,-1368,-213,628
-11,47,-68,-935,333,28
-22,27,-99,-163,519,-689
-15,0,127,-386,589,-496
-14,-12,90,-320,220,-215
-3,-2,99,-371,38,-68
20,7,110,-234,83,-9
95,58,-117,3783,2380,-6142
-113,83,125,2909,-76,-6368
113,-127,-65,-1197,3587,-7984
-75,-23,-41,-546,707,-6913
-38,-48,77,-1520,1623,-6545
-44,-26,118,4806,-3379,-5308
16,-20,-54,5940,-9176,-7008
90,-85,-85,-5524,8236,-3314
94,67,-128,-2653,5979,4624
20,-37,-112,-7376,8323,3325
64,-11,80,-4166,-4752,572
-37,31,127,1064,-9395,-288
-9,110,78,8985,-9548,2196
-57,-58,-71,-1499,-2544,-6460
-118,-73,61,-2269,3605,-8765
-56,-109,63,-2724,8367,-1545
37,-96,-47,-2924,5923,5022
-44,-79,10,-70,5160,3034
-12,78,-106,-3133,2169,-709
91,57,-74,-6330,1563,2072
20,-16,-42,-1627,-2528,1639
44,-88,-76,-1767,-7309,2242
-51,-22,-88,484,-5014,1372
108,16,-100,-3294,-2497,5166
64,49,43,1348,-4415,4483
-92,-126,-24,-4081,-994,6631
-66,2,-110,964,-6584,5973
39,124,4,143,-1474,6519
-65,56,-80,-3132,-2782,5048
50,-92,6,2466,1459,-699
55,102,-95,1566,304,-4930
-70,-114,38,747,504,-3233
-25,-117,-113,-948,553,169
-99,-65,113,-804,-530,193
-77,4,118,-1960,991,83
-24,34,120,-1297,436,469
19,75,-128,-1290,556,321
56,116,121,-1117,327,54
55,117,-120,-514,-240,-128
51,-125,-76,-398,-300,-175
56,-110,-14,2591,3694,-7464
27,5,-86,5237,-1387,-7428
-45,-28,-97,794,-1045,-8723
-38,-69,-104,-1835,4157,-7877
75,-121,67,-6891,9851,-6216
49,70,-12,-742,-884,1436
-30,18,61,7979,-9963,-1554
117,92,55,-2609,-3192,-3585
2,-77,123,-3518,8014,-5014
-15,83,-86,-2859,6568,3014
50,5,85,-1351,2975,4457
44,-105,-73,-7104,10,663
-88,120,0,217,-8722,991
-7,-96,-10,10219,-13282,1089
-114,93,111,-1311,-915,-6932
-64,52,-121,-312,2394,-5760
-109,-29,105,-975,3003,-5847
-87,103,-94,-3100,8437,-2481
-88,-63,60,-3921,4808,4126
112,97,-5,-2593,2504,4914
-32,-24,-46,-5615,2283,134
-78,-3,87,-1478,-2589,-1866
-62,-25,-12,1895,-10455,-351
-108,48,99,2281,-11808,4143
14,34,-114,-4232,3101,9352
9,112,73,-487,-4003,12415
73,-112,45,-5410,-6061,11803
33,13,102,-778,-7422,5175
101,79,-28,4693,-7329,7239
-98,-18,-61,-4105,5187,-9286
-69,-110,32,2907,1452,-6008
120,-60,-81,1481,-1575,1642
52,-75,-61,-1501,-45,359
-94,-31,-83,-1475,1216,-55
-53,41,-89,-1561,324,48
-26,91,-80,-1354,307,150
-29,86,-97,-558,269,-329
1,76,-105,-372,545,-317
31,91,-121,-1043,603,-285
31,100,-123,-868,594,-406
-78,97,14,4899,135,-5759
-3,-12,-39,-646,-1288,-6741
46,100,-97,-852,2661,-8707
-54,72,60,-1548,2468,-7533
-91,32,-87,-4221,379,-4837
-5,-125,44,-3738,5387,-5210
-24,50,-20,2027,-993,-3394
-57,-41,-18,8176,-13527,-5787
93,81,-68,-8614,11122,487
127,97,60,-1590,3289,4511
-100,73,-86,-1887,-189,4187
26,-125,109,-4800,-2730,1529
75,-128,-88,2232,-5762,166
-51,-127,-124,10847,-14130,-238
-55,30,111,-5724,-2002,-6189
15,-42,50,-1816,4238,-5577
-45,91,64,-3064,2539,-3347
48,-18,-93,-6400,7006,2595
44,-82,5,1294,3830,3608
-51,61,-121,-4564,4435,2303
91,-109,-40,-332,1617,2773
-113,119,82,-2908,-2452,4007
72,114,84,-1901,-4772,3595
-75,-12,-82,1801,-8190,1745
-111,49,11,-5647,-2623,-378
71,-102,-122,2198,-873,6928
-124,42,-4,-1336,-2181,9582
76,92,-61,-4627,-2383,5101
104,75,-127,-5613,-5874,7036
66,34,-68,1745,-8792,7229
-41,26,71,1101,-4466,3783
61,-113,45,-1541,4265,-8073
-12,-111,-116,2959,1202,-5501
10,-12,-7,1337,179,-762
46,-42,-68,-126,-1049,-520
72,-73,-89,-1051,150,54
127,-45,-107,-698,521,858
-49,25,-97,-1949,1042,904
15,91,-124,-2214,727,973
77,-84,-107,-2345,608,348
-8,-85,-79,5773,100,-6992
32,-44,106,1795,2290,-7525
26,-101,99,290,2159,-7129
-93,-35,-70,645,1861,-6870
74,36,62,-1435,2087,-5592
-25,-125,56,-5414,5191,-3686
105,43,-61,1685,-1414,-5190
41,-89,-64,8824,-14674,-5271
115,95,46,-8811,10659,-2236
117,-45,91,-3706,4005,6132
-106,-119,-66,-4330,1380,3580
-120,-100,-6,-3678,-6377,1717
20,-81,45,5812,-6018,-3531
-60,-78,-4,9981,-15244,-5691
-85,-117,111,-11900,7837,-12486
44,-106,-103,961,5915,3295
-116,-3,11,-5904,6008,8321
2,-53,-128,4198,2131,8145
-65,-108,111,-4826,7367,-1003
118,91,-77,-3107,3238,-2195
62,-81,125,-2598,-5261,1307
-17,-25,52,-283,-7536,2312
-125,51,73,378,-8040,5014
-106,-14,-59,-3536,-3907,6810
85,-120,-81,-3411,-6622,5865
-119,95,102,-2320,-2105,6680
127,-12,94,6095,-8007,8322
127,-104,93,2941,-412,8887
-1,108,46,-9775,5935,-7036
-41,117,-23,13,3814,-5188
-63,69,-121,2187,96,-2322
127,-64,-108,1118,-992,-16
-96,-25,-98,-446,441,988
-67,0,108,827,-232,1157
-25,115,-104,-1949,219,-41
11,76,-108,-1276,-223,443
6,92,-74,-213,-702,242
15,94,-64,201,229,-129
30,79,-83,640,127,-6
25,100,-127,-36,407,-161
-24,22,104,4201,-252,-6497
112,-79,55,-1468,866,-7616
44,-84,101,320,1943,-8582
-33,106,26,-2487,1675,-8832
-74,-78,65,-106,1512,-5644
116,-106,49,-1153,3979,-6358
-71,-101,-103,3278,-1886,-3238
-67,-87,-44,-8624,5996,9080
-7,25,98,312,-848,4845
-98,31,-112,-4938,3338,328
50,-62,116,2020,-9006,-590
-95,-95,106,13973,-20582,-3604
21,60,-95,-16877,9137,-12659
-23,82,120,4040,6887,1930
-62,-105,-38,-3851,6649,5242
103,-111,-29,-6042,7256,6981
-2,43,-116,-371,-876,1125
42,-10,13,-2225,-4722,-2370
-34,122,17,8467,-13187,950
-30,-53,81,-3756,-2155,-1504
-9,-15,-47,-978,5720,-7266
-110,2,-46,-1970,6459,-694
-62,-103,-12,-2127,3053,2251
-90,-112,51,-1642,1733,3308
-48,-110,-5,-192,-697,3666
102,85,-99,-1633,-1424,3342
-5,-103,-24,-6690,-1347,6446
122,24,94,-4938,-5831,6935
-93,105,126,-3762,-7805,8567
-100,68,-73,-1070,-3258,6289
-62,-26,2,-280,-5300,2990
-44,-43,54,13179,7711,-1362
-18,92,96,-5975,2164,-4983
-112,-120,-4,-1203,1764,-2356
126,-122,-98,-1757,-1176,-563
91,-123,81,1940,-1491,829
-113,-20,-128,-2325,1886,663
-27,65,115,-2613,492,686
6,123,-97,-2032,-1209,722
20,-116,-19,-1108,-790,395
-110,23,-68,-1436,-2142,-10175
118,-121,-111,154,2369,-11989
-52,-13,-103,-5230,5852,-9533
57,68,88,-3102,9717,2292
-91,-121,-62,-2614,4774,4809
81,-36,-115,-635,-278,4893
-124,123,-58,3459,-10616,-4026
88,28,76,3158,-6335,4303
1,27,-22,295,-2768,-1179
77,-49,-113,-5186,2224,-9913
99,-44,69,-1266,4948,-3967
31,-71,-99,-5146,6653,4253
-98,106,1,1178,4033,3106
111,-112,11,-5038,6045,-409
-88,54,-80,-10581,4934,3798
120,124,86,2360,-6443,-1929
-87,30,-82,2412,-8573,-711
125,54,-25,9222,-16886,-366
-32,-108,60,-6870,8941,4918
-11,56,121,3183,-2739,8033
107,119,7,-3284,-729,9377
118,-89,-97,-2309,-2212,7077
21,-87,69,1364,-2384,5255
125,-33,127,-4724,-1148,6687
51,-1,28,729,-6801,2187
88,47,-5,2640,-121,-2932
-67,94,68,6218,-2140,-3390
-114,23,52,-2260,1153,-2254
-93,126,-121,-1121,1591,10
-92,-39,103,361,-434,556
-36,32,125,-1547,1029,113
13,52,-124,-1066,170,69
36,84,-100,-1108,142,-367
48,62,-75,-1015,665,-663
47,43,-76,-882,910,-464
48,44,-91,-984,655,-199
73,33,-119,-6,-6,25
86,60,-124,280,-452,51
71,116,-101,-126,-334,-102
74,123,-95,-577,332,-495
12,120,60,-928,4790,-7324
-81,-114,-106,-1490,3527,-6680
14,88,-22,2607,-770,-9326
-59,-123,-126,9196,-7107,-10642
-44,-26,-40,-10242,11848,-5356
-35,90,76,-297,4587,5299
72,17,-38,-3192,1492,5342
69,50,23,-6748,-1186,2143
32,101,95,9437,-13032,-2345
-73,-54,68,-2701,-2549,527
-106,-124,-88,922,-2995,-5984
10,-101,83,-1354,3091,-7063
89,45,-119,-2544,8146,-1597
-72,27,16,-2375,7700,3093
93,-92,0,-4218,5039,522
-35,-23,-69,-9158,-2449,5392
-120,107,-29,4756,-5735,-830
7,-122,90,-1806,-4412,2616
41,9,-26,219,-9259,2795
31,98,30,-6986,1710,5135
49,-11,123,-1883,-1559,5615
-17,-24,31,-1955,-4496,6016
-107,-118,104,-1384,-4719,4333
1,18,-48,-4722,-3487,7075
37,-52,126,486,-5712,4097
99,121,102,-156,-1181,239
-24,28,36,5908,-1586,-3434
39,89,-37,-601,1769,-3018
-70,112,-113,567,1482,-133
125,-50,63,-922,-277,236
-83,-40,99,-408,-196,370
-21,36,-82,-814,67,-229
14,9,-61,-944,765,-169
6,-5,-115,-550,565,-85
-11,-9,93,175,-9,-156
1,-6,93,309,-155,-44
27,15,109,-222,216,-98
43,7,106,-179,54,-14
49,8,109,28,-41,-69
56,-3,113,128,-37,39
82,63,-75,570,6596,-7927
-39,-121,-71,1264,3821,-7599
-77,92,-100,-4417,3900,-8261
-84,-66,105,12672,-2382,-6050
13,93,83,-8003,-1993,-7490
93,-102,-83,-2237,10445,-1944
123,19,21,-444,3592,7600
57,91,111,-1669,5988,3212
-62,91,22,-11786,2585,336
-124,37,-19,4026,-12401,1378
51,117,-58,10078,-12748,-787
30,65,-36,-9077,-2159,-9586
123,-78,76,-523,6725,-7220
-73,86,115,-2163,4845,-1501
-57,-107,2,-1632,6713,2365
49,-36,-99,-3396,4863,-591
-55,104,2,-4572,935,1535
29,-61,46,-8230,-1443,7159
75,80,69,-2831,-5886,2976
43,87,-36,-1907,-6100,4220
-85,-91,-5,1131,-10507,-1387
-113,-87,0,-7787,-841,2076
37,98,66,5160,-4675,4406
-111,27,62,-501,-3500,12453
-122,57,104,-1664,-7383,12232
-13,94,36,154,-5484,4109
24,97,12,1280,1709,-6510
-39,-78,-76,-1989,4423,-7256
124,-13,65,1661,4476,-860
-69,-18,-106,-3130,1383,1821
-80,64,43,1942,-3597,2426
-3,110,-111,-723,-979,1066
57,-82,-68,-2571,719,-136
85,-105,-96,-1834,1369,-978
58,109,-106,-1201,1345,-1310
40,65,-56,-1343,1201,-761
35,5,-84,-422,647,198
50,70,93,904,-696,181
81,105,109,940,-734,-1
94,95,-125,556,-295,40
20,115,25,614,3691,-4498
-70,26,10,392,4496,-5719
-63,103,-79,46,3506,-5409
24,-113,17,246,4615,-4433
99,83,-30,-1,5464,-2875
-107,72,14,-453,3939,574
123,107,39,-1254,1284,1023
-26,82,-19,-2081,-363,1976
72,68,22,-1585,-1387,2331
31,-102,30,-1439,-2413,2055
62,105,58,-31,-3608,1439
-62,28,-7,1493,-3409,-1487
119,-69,-34,2009,-1085,-3740
-88,100,-50,2418,1546,-3371
54,20,-48,1886,2363,-2030
-24,-126,-73,231,2901,-362
-59,64,-95,-592,2193,1413
-48,57,124,-2043,898,3020
127,-123,100,-2092,-277,3136
49,-94,-113,-1668,-1958,3146
14,11,41,-1899,-6275,-146
40,-9,22,89,-5724,836
-108,65,-70,-1543,-8673,3080
-115,-1,29,-1976,-3896,4032
-109,94,31,-99,-6660,5752
-24,-65,-84,-503,-1494,4099
22,-2,115,251,-2341,4345
-42,99,14,1333,-1774,2562
12,-61,-33,3650,-1411,-369
-78,-64,-109,-637,850,-1045
53,-33,31,451,595,-447
41,-66,-12,1580,-211,76
101,-37,-25,789,77,-303
-125,-93,-45,985,317,-929
120,69,-65,1160,114,-1169
88,-13,-75,764,-13,-1011
85,-23,-65,375,-176,-323
78,-2,-63,186,-266,-126
116,46,-41,-254,-115,-20
111,63,-49,-121,-275,82
85,70,85,-1941,3224,-5649
-68,-34,121,686,2629,-5173
27,-17,77,-384,5981,-5400
-5,25,-55,-860,3594,-5729
-17,73,74,-83,4342,-3660
-51,-75,125,-572,3934,-2098
-102,2,57,-578,2968,83
-50,-96,-62,313,1621,1668
-59,80,52,-1673,502,1595
0,40,-26,-2165,-1756,2102
71,82,-31,-756,-2891,1613
-65,52,101,244,-3554,366
-117,-91,84,1744,-3146,-2100
5,11,120,1306,-1091,-3456
-73,-71,-82,1857,1294,-2675
33,-17,-88,2406,2920,-602
-4,2,86,502,2584,-243
-34,21,65,-694,1961,888
105,-121,103,-1669,998,1811
1,-119,-7,-1945,-138,2371
17,71,-64,-1842,-2147,2413
-40,13,-43,-1225,-3815,1072
109,-113,-95,1189,-2764,201
100,62,-112,1278,-3681,-757
17,83,80,1747,-3182,-2210
-12,64,-33,2215,-1604,-780
-84,67,-32,1607,-1869,-147
5,-71,100,-273,-1371,1482
37,110,-104,146,-1777,2394
-13,-89,51,-1170,-3130,3549
84,46,110,-577,-3561,5833
0,-3,-109,339,-3225,4516
21,-12,26,1863,-476,2896
41,48,16,1276,-518,2788
25,43,-4,803,-8,1969
-26,46,-8,203,58,1502
-78,16,-25,12,19,1142
-125,-4,-31,-319,181,704
108,-53,-26,-331,-225,225
101,-94,-41,160,-381,365
117,-20,-116,1626,2940,-5190
-83,-97,49,2008,3401,-5702
11,52,5,-200,2599,-5725
-16,94,-2,251,1806,-5042
68,6,74,-1169,2987,-4254
103,-50,101,-1137,2922,-1614
27,4,-36,104,1978,999
94,-78,11,-1868,835,1680
-67,113,-73,-2053,-588,2642
34,30,71,-1729,-2074,2681
94,-55,-124,-413,-3004,1305
-28,-68,95,932,-2855,-440
-1,-96,-2,809,-1721,-3424
7,-71,-73,759,-480,-3816
26,101,-82,2448,2567,-877
-45,-27,98,-16,2583,150
-38,-47,-1,-846,1743,1433
-53,-26,28,-1767,810,2033
0,-50,-13,-2059,-685,1814
58,108,-51,-947,-1866,2532
-107,-19,-76,-1008,-3568,1543
98,52,-127,369,-3032,-95
19,-127,-80,1832,-2643,-2140
-40,-121,-42,1801,-224,-3404
-103,-126,-105,2077,1524,-2802
37,-101,-80,2518,2071,-551
-37,77,-64,1913,994,285
109,-92,-51,-789,677,1238
-83,9,33,-1161,-920,2657
18,-66,-113,-158,-2033,4149
78,-14,121,542,-3113,3593
-124,-40,114,-1067,-3110,5246
-113,-39,0,-343,-4125,5097
80,-122,-34,-1663,-1662,4525
-13,-84,36,1244,-1586,4546
11,106,-94,122,-862,3942
2,116,-84,-2335,-444,3674
-27,118,-93,-2758,-954,1238
-95,31,-95,754,-784,-385
108,-6,118,1918,56,-1410
3,-39,61,1141,2945,-3091
-38,-114,-61,207,1343,-2054
-15,18,-9,-47,1411,-3660
-51,10,17,-623,2848,-3826
85,-90,-78,326,2171,-4533
-58,93,-97,-531,3086,-4584
125,125,31,439,3174,-4437
-40,-55,66,341,3257,-2947
88,53,-10,112,3067,-1169
9,-53,44,368,1855,580
81,-100,-14,-899,1504,317
31,-43,-117,-1049,-249,1232
94,65,92,-1121,-1839,2188
17,53,-106,-1444,-2994,1522
-10,-29,5,164,-2330,473
82,-86,-47,1432,-1126,-2132
2,-87,43,1361,210,-3293
45,39,-67,1743,1474,-2172
119,-50,107,1226,2166,-661
-32,8,-128,129,1927,403
-61,78,-61,-1404,1285,871
108,-39,-119,-1868,704,1535
-79,-21,15,-2010,-896,2221
-94,97,-21,-1679,-2035,1670
51,-92,96,272,-2189,995
-82,55,87,686,-2237,-275
-114,-67,-67,1359,-2613,-939
-68,-41,18,1723,-1445,-1139
51,-66,92,1510,-109,-3205
-72,55,112,1052,547,-3446
63,-10,-118,-304,1634,-2260
10,80,-15,-959,521,-1081
45,8,10,-446,1106,1893
-85,-56,-26,-593,948,2688
83,-79,109,-1835,475,2721
-86,37,-11,-2436,-1692,2813
-73,-85,-73,-2760,-3715,1224
70,94,102,-1650,-3303,1392
-9,-8,-71,-44,-3536,1680
-31,-17,-27,-298,-3305,2090
-108,-61,-12,260,-3901,3345
-80,-44,-50,-736,-5210,4306
-28,-36,-19,-1079,-5463,3883
3,-30,62,-359,-4056,2644
11,-54,75,789,-484,1918
11,-112,-115,2357,911,570
-3,-121,75,2618,-149,1827
-125,-53,-7,3723,-1702,759
84,-10,55,1247,-906,-260
99,-51,81,-718,630,-666
40,102,8,-229,140,-195
52,94,-1,327,-387,130
98,-101,1,-373,78,-281
126,-97,-8,-567,187,-700
-120,121,-28,229,0,-1048
124,100,-51,305,-124,-1669
-121,66,-50,134,-137,-1721
-127,34,-42,-159,-389,-1110
94,30,-47,-228,-742,-930
64,41,-36,-526,-690,-452
49,62,-21,-678,-452,82
70,96,-4,-627,-270,410
83,-117,2,-401,-335,509
99,-96,1,-106,-234,584
112,-69,0,26,-244,574
123,-44,-10,318,-197,501
-122,-37,-20,473,31,269
-108,-43,-43,279,-27,367
118,-12,-66,-39,-145,362
-127,-9,-65,175,-2,126
-83,-38,-74,458,-174,111
-75,-28,-78,229,-318,-43
-104,-26,-62,57,-285,-282
-113,-53,-46,153,-245,-286
-117,-69,-46,281,-306,-214
-127,-67,-47,61,-291,-247
124,-68,-45,-109,-230,-186
124,-79,-43,-65,-236,-13
122,-66,-48,-166,-206,140
-125,-53,-43,-236,-160,232
-91,105,0,-927,2496,-5211
55,94,122,776,3112,-4640
-52,-107,83,-486,3828,-4906
53,42,40,-67,3670,-4702
-80,21,2,-221,3786,-3759
-39,68,-24,-442,4076,-1747
18,-100,53,-61,1935,-4
98,86,65,-1258,1789,450
43,-121,-108,-2124,-92,1595
-79,-128,91,-1363,-1716,2055
113,-110,-85,-866,-3054,1818
80,-19,-37,475,-2539,386
-44,-44,1,1486,-1493,-2429
126,-22,-38,1473,11,-3302
34,-47,-12,1160,2854,-2512
2,-33,59,1137,2674,76
-91,115,-33,-435,1269,1812
-121,-54,-8,-2146,-277,1831
-125,-13,-57,-1936,-1329,1512
48,-106,-8,-776,-2189,1835
84,-40,114,1075,-2293,60
-77,123,42,219,-1571,-2843
38,-15,80,662,-445,-4068
11,-76,-27,1566,1601,-1774
90,37,10,2134,1441,633
92,34,-9,972,1366,1433
-50,126,71,1102,-179,1900
42,18,-53,-381,-2265,2201
48,-13,87,712,-3450,2353
-115,6,87,794,-3095,3675
-87,-8,110,3323,-3132,2882
-71,-31,-72,306,-1652,4195
-109,-119,-19,-1003,-2454,5310
76,0,84,-1094,-3297,4693
80,5,-1,-724,-1753,2507
85,71,16,1506,1456,1041
-60,-28,-72,4163,-477,2903
-122,26,65,2553,-320,2543
86,68,68,-777,-707,2155
67,36,30,-1836,-581,1400
39,4,123,-246,3029,-3978
93,-92,18,417,3663,-4412
-16,98,-65,-809,3969,-5020
-8,-43,124,-1437,3508,-4118
-63,123,-94,-1596,4168,-3737
62,-96,-108,-923,4520,-2273
71,-126,-34,209,4335,-296
18,-125,121,-1044,1440,1424
-96,-10,114,-1791,384,2450
71,82,-123,-1684,-728,1992
-32,-54,-119,-1455,-3337,1399
19,-30,-88,1369,-3253,-701
26,-37,20,1290,-315,-3569
6,42,-4,1233,1175,-4241
73,-19,4,1530,3239,-2015
-117,-81,3,386,3285,-55
101,66,-47,-853,1834,1468
-83,99,21,-2039,-219,2797
55,-2,86,-2505,-807,1467
-18,102,15,-1740,-2676,2055
-19,-80,127,688,-3139,1430
3,-96,51,1772,-2852,-1349
101,-98,68,1952,-381,-3321
-11,-92,-95,2862,71,-1974
10,21,-4,2583,1902,-1099
-109,-21,0,1508,1951,137
83,43,76,203,1328,210
6,-125,-65,-306,775,843
97,-20,43,-916,-1070,1472
-28,49,-29,-1621,-2439,3944
69,-101,92,-1789,-4633,4533
95,-30,-110,-1943,-4606,5695
-13,-119,39,-1505,-5047,4504
106,-82,-57,-493,-3371,3696
98,-91,104,-1365,-2887,5154
-51,-59,110,-371,-1645,3975
-127,-114,68,876,-1940,3435
0,-100,-39,1846,-1350,1702
-124,-126,-96,2432,-1073,-317
89,32,-117,2002,92,-1033
-96,-110,94,439,2842,-5485
-70,44,64,692,2251,-5432
122,-29,96,-726,4537,-6018
24,-58,117,631,3547,-4354
22,-58,-64,513,3818,-2631
-96,34,-83,618,3559,-1088
59,-31,125,-316,1746,-232
120,-22,-2,-1064,1100,916
85,60,-86,-1429,-314,1156
-93,32,-57,-1147,-995,1248
-87,22,-59,-728,-2624,1594
55,-42,68,-487,-2370,-829
92,32,-77,1222,-1887,-1632
-105,82,-111,1441,-62,-2337
117,-89,-51,2021,1782,-1329
89,-97,103,1074,2472,-779
66,8,-54,-350,1169,408
25,93,0,-1451,482,1383
111,82,-40,-1905,-335,1308
93,-119,-30,-1503,-1486,1620
29,-99,16,-1180,-2168,836
76,-86,-114,30,-2527,-825
82,-30,22,1210,-1022,-2024
19,-65,-126,2042,-88,-2018
67,-59,-99,2252,1092,-1666
111,81,-2,1802,1501,115
-21,-66,50,1410,713,1408
11,48,107,1221,75,1443
104,-20,-17,-431,-869,1489
-108,60,-120,-312,-2430,2469
-90,-121,83,-652,-3120,3413
-118,93,105,1491,-3488,4394
97,-9,-9,1362,-3338,4263
-2,-101,-49,-2697,-1428,2537
-57,-78,-93,1214,-1518,3541
121,-112,-78,582,-1745,3570
-107,15,-120,-154,-702,3510
-80,-61,81,247,-220,3101
-7,-10,101,-971,284,2308
-28,57,89,-452,-307,981
111,-64,-59,-185,3325,-4843
-85,22,72,321,2761,-4308
64,-11,-45,391,5428,-5847
-8,-128,56,491,4585,-4091
-1,-3,-4,-640,3975,-3047
47,121,-70,-468,2931,475
97,-115,50,895,1299,1351
-86,116,109,-1933,336,1076
-30,-4,98,-1477,-1221,1192
-12,56,107,-431,-2731,910
-62,72,-75,96,-2501,-544
21,-72,11,1004,-1439,-2431
39,-5,-27,1624,358,-3443
-93,75,-56,2420,2345,-749
74,-13,74,1292,2532,477
117,-85,98,-701,1606,1234
123,119,14,-1617,458,2139
20,-104,-7,-1871,-448,1790
73,113,3,-2148,-1301,2614
-86,-122,-4,-383,-3015,3033
-28,-123,11,305,-3636,-1209
112,62,68,863,-1261,-4057
-128,53,-87,2171,-930,-3879
106,46,-75,2497,1981,-1885
-87,76,17,1591,1779,-218
124,21,-64,329,1105,334
-8,94,43,257,-682,1033
69,-50,-27,-1113,-1165,1012
-110,-47,95,-1199,-2091,2687
-42,-48,92,1140,-2711,2375
64,-60,123,-766,-1943,4953
-96,-73,-14,-437,-4091,5721
-28,18,120,2526,-2333,4645
116,99,-52,-836,-809,3340
54,-115,-105,1308,-839,3123
-17,77,123,1569,519,2165
-97,39,82,-366,-385,1175
85,-15,88,-1120,-749,1187
-126,-81,114,-557,477,743
-118,119,44,517,60,821
-72,77,112,-496,3139,-5267
41,-66,114,-1515,3993,-5695
44,67,9,-1602,3355,-5325
-62,-68,-37,-507,4615,-3285
-38,109,94,1199,3546,-947
-110,-32,-91,-1048,3772,23
77,12,38,-1718,-1045,2921
15,115,-101,-1007,-1149,2100
-74,77,-83,-1535,-2348,496
124,51,55,1945,-3257,100
-18,-17,-42,852,42,-2703
-16,80,-75,116,776,-5537
-96,-84,-64,1294,3902,-1131
31,46,104,780,2360,1417
61,21,-95,-1389,998,2071
-44,-95,-120,-1724,-700,1656
-85,-77,-127,-1543,-1936,1469
23,13,-2,-835,-2679,157
-84,121,-107,1205,-4117,-123
21,49,-4,1031,-176,-2227
-17,-36,-61,2565,962,-2678
116,25,-64,1426,2365,-2686
-19,-9,32,1501,2792,-245
78,-30,69,989,2161,1151
13,92,-48,890,1757,1821
120,12,41,193,277,1877
-55,71,-6,-711,-910,2808
-27,120,-65,-528,-3194,3717
-47,-102,-65,-1535,-3992,4313
-60,-71,-63,-638,-4251,5401
102,-100,97,-985,-3378,4087
40,-88,22,-513,-2467,4936
57,113,19,1465,-1393,4304
95,50,-44,2141,184,3800
113,81,-116,740,989,3322
-30,119,78,-1191,35,2014
112,71,84,-1481,-864,751
102,41,122,-1380,-242,-310
102,-67,106,40,380,-467
88,-94,52,526,74,-462
-32,-72,21,1094,2788,-4172
68,-9,-89,880,2950,-5945
-13,-121,-113,-485,4614,-6122
-55,-56,-38,170,3384,-4911
92,93,105,-449,2539,-4171
-38,118,-84,-19,3060,-1786
52,115,-106,381,1726,513
99,-73,-72,-608,1621,1296
108,32,37,-1597,21,1412
-35,29,59,-2422,-1897,2255
13,-106,99,-1552,-4233,1494
-67,78,52,868,-2903,-478
-55,-14,25,1469,-604,-2345
-35,34,-31,1613,1784,-3042
50,-123,-35,2035,2320,-1082
2,49,-89,303,2491,51
-73,49,-72,-795,1862,875
-106,-67,10,-1900,454,1303
-94,76,56,-2368,-248,1662
-121,-36,72,-1924,-2030,3572
-62,40,-44,-1250,-2575,900
0,113,70,168,-2365,-1089
-69,77,-41,1715,-1693,-3235
127,28,-121,1487,-18,-4265
93,-7,-20,1986,1762,-2446
-98,-40,-28,3332,1475,591
85,74,14,1527,1278,349
7,-108,-121,1163,391,983
52,-16,77,-970,-170,1611
110,25,-41,-876,-1969,2465
127,44,93,-1085,-3982,4094
-29,-98,-128,2471,-3741,4821
97,-66,-29,-1122,-2316,4923
-102,106,-8,-1872,-4555,4707
-72,-28,-86,-724,-2216,4035
60,15,24,-236,-1066,3755
71,-90,-31,1791,-1093,2913
-17,-78,-98,1353,-20,1247
108,103,114,-564,-285,1011
105,66,101,-1400,170,737
50,-79,-72,1297,3555,-6137
-64,77,55,-159,3453,-6074
-27,78,-87,1607,3524,-5667
86,4,27,-618,3322,-5794
-96,-73,24,659,3753,-2095
123,-121,112,-643,1986,22
-78,71,62,-1371,933,940
-6,51,-68,-2129,-315,1272
-41,108,-11,-2182,-2542,2576
-49,-113,-124,-1065,-3002,1326
-49,89,107,2119,-2815,-1149
-63,-70,-115,1700,-503,-3461
-115,-86,-64,2622,1395,-2918
37,91,-38,1572,3078,-988
-33,111,-20,323,2416,706
68,115,-60,-959,1570,1171
-38,70,21,-2475,329,1390
50,-42,-79,-2220,-929,1964
15,102,-8,-1354,-3354,1973
118,103,40,242,-3566,-214
65,-104,11,1585,-1563,-3231
14,99,76,1618,-564,-4430
87,0,-40,2466,1383,-3090
0,64,64,1427,2414,-626
83,69,82,697,1591,461
-62,-89,-72,-97,1003,1586
74,-36,36,332,-131,2047
119,-63,-79,823,-1518,3773
17,-3,52,305,-2308,4717
-56,104,33,-607,-3824,4998
-91,-73,127,-1297,-4318,5618
113,-54,103,-2686,-2325,3737
67,123,-80,-1,-2363,4710
66,124,-64,1386,-1011,4146
37,-110,-113,1267,-1028,3569
16,103,74,-211,470,2583
9,-24,58,-4970,1076,1849
-108,71,98,-2871,-324,866
78,122,-107,3144,-739,464
109,-80,79,2649,130,-347
-86,-35,-34,-1862,3850,-5220
-38,-16,95,728,3683,-5075
-58,-9,-102,-1618,4781,-4335
95,42,-124,-377,4071,-3351
-59,-43,-81,-631,2873,-2348
47,69,-109,-856,3236,-1119
-54,-72,-3,-112,1918,922
16,42,-104,-687,724,1563
78,-79,88,-1051,-606,2098
-110,-26,70,-925,-2049,2109
42,-119,-64,500,-3679,1082
51,-70,-64,1703,-2168,-1278
73,-9,-103,1156,-321,-2209
32,-37,-98,1963,-660,-2932
-42,20,-74,907,2935,-2863
37,61,33,575,2566,-608
-105,-29,-125,-1260,1455,793
28,-112,43,-1378,349,2211
-110,-81,-25,-1857,-342,1938
-84,6,105,-1531,-2263,2134
-25,103,-94,449,-3531,705
-84,92,30,1476,-3039,-1167
114,-49,-122,481,-334,-3045
75,69,-68,1050,-291,-3154
23,54,-111,959,2197,-2426
24,29,-102,1628,1495,139
-125,-106,-50,-266,1815,490
-49,-39,65,1067,211,1788
2,42,-86,1418,-1468,2708
16,107,103,-154,-1954,2537
28,-52,83,-930,-2519,2864
70,-11,-88,-377,-3061,3612
60,59,-6,-114,-3493,3408
15,40,81,1395,-2656,3647
-5,37,89,1446,-2510,3868
-6,101,-107,245,-2545,3982
-7,64,102,307,-1901,2996
-63,-14,-112,516,-1940,2583
-97,-101,-120,1110,-303,1782
72,31,30,3404,60,1842
-93,22,81,1551,3852,-4806
-6,2,71,766,3766,-4823
50,-109,64,753,4350,-4622
-48,35,74,759,3929,-3860
23,-68,33,71,4057,-3248
19,-101,117,-237,3238,-962
-26,121,31,-65,1644,816
110,-42,-53,-752,649,1784
-12,-33,-107,-1644,-759,1719
48,-3,109,-1650,-3351,2313
84,94,-101,749,-3726,-15
-67,30,-34,1307,-2445,-2644
-127,95,-48,1160,0,-4111
95,31,-52,2433,2428,-1934
56,-36,-51,1917,2953,-881
58,99,-68,-360,3031,-811
18,-25,23,-940,1167,1048
-115,-72,-62,-1719,-33,1956
-34,17,-60,-2326,-937,1636
123,-5,-32,-1428,-2907,1794
-54,52,-122,235,-3119,1452
28,-71,51,798,-2598,-1803
110,-43,-13,758,-1875,-3881
39,-53,-53,2222,547,-2753
33,-11,-78,3026,1396,-1532
-36,-91,-36,2404,2293,-438
117,-41,-3,1881,1301,-430
-33,21,-88,918,1028,2
15,-4,73,1041,475,957
82,-81,-106,2024,-836,2936
90,0,77,-781,-1784,3075
7,53,103,-2373,-4498,4715
51,11,-78,-1108,-3797,6017
101,94,-118,488,-2427,5269
102,-17,-54,-370,-1506,5689
29,68,-15,144,-1039,2869
3,-113,-35,946,453,3155
2,40,-99,508,147,3838
21,29,124,-352,119,3774
-54,84,74,-536,-810,2312
58,31,-22,705,3611,-4605
24,-40,-89,152,4793,-5386
-126,-41,107,-126,5538,-4879
-87,-51,-46,-244,4162,-3413
-43,-111,-36,-710,3380,-2383
-49,-113,-61,629,2891,499
40,-69,73,783,1196,2349
-76,104,10,-1116,970,1635
-5,33,-79,-1952,-475,1667
-14,28,105,-2171,-3587,1959
41,-59,-127,120,-4391,165
14,36,78,1844,-2218,-2576
-10,-122,-68,562,-1129,-5551
-22,-80,-91,1451,2877,-3587
-112,-78,-46,2443,3157,-51
70,75,19,-540,3238,-317
37,-123,-28,-481,2396,1412
-44,-3,121,-370,1373,2542
40,-50,-31,-1901,425,2050
-74,-122,54,-2301,-1620,2782
125,67,43,-771,-4403,1378
-6,-61,15,1831,-2903,-2627
-114,-27,-58,315,-1314,-4256
26,-101,-108,1787,-486,-3002
-93,-88,95,1420,1752,102
-24,45,-77,2132,810,1026
-70,125,-65,1325,1499,1997
22,-33,75,483,114,2470
65,44,-36,167,-1054,3423
36,58,93,803,-2869,3582
61,-86,118,-1166,-2074,4292
30,48,-65,-1567,-2880,3153
-50,-116,34,-2097,-2924,3264
-44,84,-78,-362,-2250,2934
-61,50,-49,358,-1610,3025
-96,-12,-89,502,-1448,3336
-62,-39,75,732,-670,2941
-54,-70,48,934,-543,2151
-61,-82,88,-286,226,2187
-92,-85,82,-801,504,1910
62,73,-127,-373,3894,-5275
68,-77,-61,852,4809,-5284
-100,-94,-33,-892,4464,-5055
65,20,-112,-1406,4538,-4233
73,62,-56,-568,4528,-2319
30,-24,-97,756,3422,1060
109,112,-37,-71,2340,2019
-43,112,83,-1665,526,1625
33,-127,113,-1930,-838,1132
0,115,-31,-1083,-3900,2507
-64,-12,-87,776,-2814,-1232
102,19,-41,1659,-1416,-3250
-33,4,-39,2421,1674,-3809
95,-124,-39,2164,2868,-1954
-47,81,69,1075,2776,-371
-96,12,-50,-698,1785,432
49,111,42,-1422,542,1812
-52,100,-30,-1724,-673,2099
-53,120,-83,-2383,-2564,2121
83,-44,77,-1510,-3067,251
64,-86,119,1249,-2766,17
107,-16,17,933,-2136,-2713
56,-62,-66,1731,290,-2432
32,-43,-76,2744,1218,-1328
-117,-31,33,2131,1932,-353
48,93,50,1622,1472,314
-76,-77,-51,288,1035,864
16,-33,75,147,-295,1351
65,18,-78,-1050,-1177,2322
65,33,127,-842,-3233,3289
82,85,-54,-1001,-3133,4082
-72,-58,-11,130,-3054,4617
-98,39,11,559,-3257,4381
-116,117,124,-1144,-2115,3979
53,66,-88,-83,-2546,3846
62,-27,-2,865,-718,4166
66,-44,-92,1019,-372,3774
87,-1,-105,-10,205,3361
25,101,-111,-697,-424,1907
-91,91,-85,240,-560,-260
-57,63,-118,1538,2615,-4108
62,124,109,1191,2904,-4380
-115,-45,82,1475,3678,-4999
36,-106,36,485,3850,-4801
-93,61,-6,-228,3941,-3693
-108,103,-123,762,2990,-884
21,62,-40,305,3779,101
-1,-80,68,-1030,231,1892
-121,-70,104,-1861,-886,1435
-63,-100,-80,-1280,-1973,1921
52,95,-125,-379,-3297,1245
-124,81,-90,1165,-2574,-1264
-80,81,116,584,-896,-2556
44,-45,-56,1698,692,-3274
-113,-42,-67,2032,3265,-1897
-64,-128,44,868,2392,-656
-113,42,-38,-853,2118,267
12,113,37,-1099,609,1538
-110,48,-61,-1938,-720,2274
-91,-29,-64,-1960,-2027,2729
90,68,6,-766,-4294,1618
-53,115,-86,147,-2897,212
3,-102,-26,1549,-2991,-3266
0,53,-127,1576,272,-3361
-59,56,-92,2586,669,-2814
-12,2,120,2406,1791,-1467
12,69,-75,1430,1921,-237
97,64,-5,204,1683,605
-50,116,-114,252,1011,1717
53,-58,56,504,398,2068
-105,-30,1,-300,-61,2737
-47,86,-78,-1969,-1902,3783
-60,-35,-37,-2200,-3740,3820
-16,36,65,-1476,-2663,3388
-118,52,-125,-1415,-3075,4328
64,65,-62,-1793,-3426,3886
77,-5,2,-1905,-2495,4574
122,-97,16,-474,-1966,4508
-81,-88,-19,1509,-1171,3855
91,36,-90,1342,-2102,2610
14,55,13,228,3410,-4802
95,31,43,-784,4034,-5037
-2,123,17,-368,3451,-4024
106,-19,59,-392,4148,-3191
103,17,63,296,3148,-1013
97,-119,40,480,3717,1205
-58,-19,-119,1,2050,1554
-52,-104,17,-2530,54,1046
-87,66,39,-1920,-2371,2502
96,-28,-31,394,-3949,1267
-4,-105,5,1098,-2540,-668
-45,-73,43,659,-1792,-3878
-123,-9,-66,1329,528,-4026
94,-75,-47,1317,3191,-2455
-91,71,43,1269,2735,334
-101,115,-45,-1040,2403,703
33,-85,38,-1755,588,1529
-84,54,24,-2470,-324,1770
-78,62,-47,-2717,-1707,2564
18,-114,-93,-780,-4705,2805
-128,115,97,1816,-3764,-581
12,123,57,974,-1543,-3600
-105,-7,-69,885,156,-4429
-107,38,-76,2801,1536,-1962
-39,-73,3,1892,1439,-906
62,-66,108,745,1618,-273
-76,-53,-55,172,1798,757
-29,-17,123,-349,874,1057
99,99,105,-2694,1833,1338
-86,67,30,-1271,-538,3211
-83,-47,-38,-1689,-3468,3564
-107,-17,-22,-2376,-4859,3633
126,-123,-47,-2126,-3941,3204
60,-54,57,-1271,-4697,4015
-11,-122,-115,-709,-2578,3209
-91,44,73,-611,-4081,3886
32,18,35,-827,-1812,3451
12,-74,-31,2163,-1624,3350
-3,30,-97,1379,-602,1921
-83,66,-122,-195,-505,138
-1,21,-36,782,2813,-3418
89,1,-50,451,2760,-3644
90,-40,92,754,3269,-3791
48,-81,-101,746,3357,-3396
-19,97,51,317,2595,-2616
-99,91,17,-1014,2409,-2716
106,-68,32,-414,3556,-1758
44,48,-98,520,2543,-42
30,29,-72,-390,1408,1169
51,-64,-101,-1470,-275,1155
91,16,-73,-1042,-1081,2017
1,4,58,-1294,-2593,1240
-72,-40,-15,26,-2138,1008
66,-89,-104,1116,-1804,-584
90,-97,15,782,-1135,-2297
-10,-70,-77,1567,74,-2697
63,-29,-31,1929,2481,-1667
-115,-114,64,1313,2255,-774
-29,78,34,-784,1750,-22
-51,-90,87,-1448,776,944
123,77,26,-1392,145,1878
-104,35,-38,-1643,-1095,1498
99,-2,16,-1223,-2181,1048
-75,-66,81,-238,-3372,1348
-80,66,-99,1076,-2212,-1584
-14,-103,-45,2045,-94,-1949
-41,6,-39,2606,1067,-1872
-124,-61,106,2245,1656,-757
-7,18,-106,818,1973,69
-111,-80,-56,727,1042,1298
104,34,19,85,-458,2181
-69,-37,-62,-2094,-2420,2381
14,0,84,-1375,-3434,3076
20,-104,100,-1725,-5519,3430
23,-19,-8,-792,-4475,3953
-79,-89,-38,-1488,-5757,5023
-38,-113,105,-661,-3004,3488
-113,52,19,1310,-2260,4155
107,-20,-21,2761,-975,3087
53,62,-97,841,-1034,2250
106,-49,-71,1538,1527,-4589
-20,-81,-104,13,1723,-4916
-17,109,-90,668,2172,-5142
-66,48,-96,-129,2767,-4668
88,-43,-77,-644,3102,-3902
-16,72,-87,-791,4018,-2818
0,41,-32,355,2633,347
-34,104,112,-1393,779,1121
54,46,-117,-1778,81,1668
-64,110,90,-974,-1708,2722
52,121,-34,-373,-3958,645
57,-19,39,2023,-1464,-1012
91,-99,-89,1349,-454,-3948
101,-73,-63,1037,1846,-3841
111,-28,-33,1323,2988,-1716
41,47,-36,140,3622,-224
-1,-56,66,-1169,1938,851
17,83,78,-1761,-819,3076
31,-23,103,-2450,-1837,2485
111,-48,-35,-559,-4158,1652
-112,12,-21,33,-3675,122
-14,-115,3,-24,-1437,-2985
-20,-17,-35,789,-517,-3750
63,-85,-68,2965,2282,-677
-60,-102,49,2834,1978,123
114,47,12,1145,1988,291
23,97,97,165,734,1094
91,-87,16,-541,-165,1515
-88,101,94,-1585,-1085,3066
-88,-31,98,-2104,-4065,4368
73,27,77,-1482,-3423,4875
8,-55,-64,-1269,-2808,3640
111,-59,-32,-274,-3296,3341
78,86,48,-340,-1881,3681
49,100,69,-312,-2375,3541
55,51,84,352,-19,2289
-67,8,-53,376,-548,2256
-38,8,-105,345,470,1373
-3,98,-67,74,3145,-923
-59,32,67,-22,441,799
-119,-92,-99,2048,2670,-4317
103,-20,-120,2773,2962,-6019
-93,-63,54,745,1143,-4443
38,-5,-35,-384,1189,-4269
37,-47,68,279,1905,-3727
29,-110,126,134,2658,-4348
-82,-49,100,454,2349,-3681
66,-123,-31,-146,3070,20
54,126,-45,-488,2195,428
-64,67,40,-2261,681,673
-62,-61,7,-2295,-862,1201
-90,71,24,-509,-3291,2969
-28,-81,107,1504,-3772,1681
60,-48,69,888,-1187,-748
96,118,-20,1516,-1492,-3439
118,-123,-92,1478,376,-3018
-90,-35,-107,1347,1559,-1892
-26,-76,-7,773,2004,-767
-79,24,-35,-973,1912,281
59,93,41,-1773,853,1618
-53,59,-125,-2432,-215,2538
-37,78,76,-2760,-2552,2312
40,-83,-16,-602,-3756,1891
37,110,-18,1009,-3369,-773
-118,101,-4,743,-1667,-2648
-112,-88,-98,1759,-59,-2764
-16,78,50,1545,-292,-2938
121,77,10,1233,1431,-1967
-90,103,9,1923,906,-395
13,-37,101,363,1556,-226
43,-82,-84,901,539,1471
21,-24,62,-143,-881,2923
-11,31,25,-580,-3190,4085
43,110,67,-94,-3647,5896
96,81,-60,-258,-3286,4226
55,-80,115,-427,-3304,4986
26,4,-42,-1860,-2212,3259
-8,61,-60,-471,-812,2964
-34,-81,-118,1073,-760,3382
32,-29,93,-140,-171,3503
-34,91,-21,1506,1897,-3636
124,21,-43,232,2861,-4736
-21,120,-13,995,2615,-4127
-17,95,39,1275,3251,-4116
108,48,11,1396,2948,-4160
47,91,-1,-1011,2654,-3777
26,-46,-63,-990,3417,-2387
103,-15,21,379,2582,11
78,5,-108,996,1427,169
65,97,94,-1592,289,760
13,-111,-16,-1543,-1701,2646
-8,-3,86,-389,-3524,1591
96,37,53,-671,-2062,-26
-83,58,16,1573,-815,-1117
75,-72,40,520,-324,-2940
81,-83,-66,1376,1882,-2200
-102,90,-64,1867,2665,-964
8,44,120,338,2072,-60
-110,1,76,-1322,703,1278
46,-42,1,-1984,388,2056
-116,20,4,-1565,-642,2590
115,-23,-30,-1290,-1693,1620
-49,40,93,-790,-2659,1088
12,-41,70,628,-2314,-1533
-39,-89,19,1065,-1274,-2530
-40,36,-69,1651,695,-3591
-109,37,110,2371,1706,-1103
-76,22,92,1657,1177,97
72,92,-25,221,1225,992
-21,-83,83,-261,456,1525
91,-29,-95,-31,-1687,2373
-16,-4,77,-1221,-2669,3356
43,57,2,-911,-3822,3573
19,-77,113,-1137,-4676,4735
-36,24,69,527,-4727,4541
-107,44,-54,-2480,-2927,3967
-114,108,-30,-9,-892,3975
-124,26,34,432,-1497,4122
86,83,-28,-94,-915,3811
9,66,-106,758,-1204,1856
59,-113,21,980,2638,-4144
-124,86,45,2,3187,-3984
67,-31,52,-69,3320,-3281
-4,106,-13,-168,3616,-2513
-111,-20,93,10,2981,-621
47,-11,-33,-511,1738,416
50,50,-96,-1244,510,1343
121,-73,-106,-1350,-576,2112
105,-121,117,-916,-2321,2190
-9,-8,50,72,-2486,1916
-97,-56,-76,707,-2122,34
-68,27,-126,375,-2138,-1856
-115,101,125,815,-631,-2996
-12,-83,-78,1366,1624,-3031
62,57,-104,961,2808,-1435
-118,60,-98,1176,2395,10
47,51,98,-918,1630,1213
124,-118,-39,-1294,-76,2397
-40,53,-79,-1244,-1412,3146
-4,-98,-62,-1258,-3400,3129
24,-8,-55,-1354,-3763,3647
-44,112,29,-694,-5315,3955
-103,-81,-82,-975,-3902,2931
118,-70,116,-1446,-2458,2825
2,8,26,340,-3436,3451
22,-24,14,391,-2644,3685
15,-49,-79,962,-1024,2712
-10,-2,-124,235,-45,1630
-59,20,88,222,-527,665
-105,1,78,409,-123,-55
-120,-8,34,-320,552,-670
110,-38,-23,-702,389,-642
100,-113,-16,976,96,-383
102,-107,-51,1212,-11,-623
-112,-105,-70,296,107,-927
-94,124,-81,54,53,-1077
-99,80,-72,199,-115,-1075
-108,62,-66,159,-106,-983
-127,49,-54,-137,-275,-579
-123,36,-29,-929,-174,391
126,-72,-93,1581,1318,-4386
-36,-8,-20,1208,2284,-4595
-6,-105,-8,1332,2769,-5523
-89,113,-12,747,2711,-4940
13,18,-45,635,3394,-4390
103,-70,77,498,3583,-2672
-40,122,-76,827,2696,-646
-113,116,38,-1158,3835,1725
28,23,15,-188,-139,2595
64,30,-57,-2304,-1155,1682
115,-65,101,-1789,-2661,2440
54,-124,69,-748,-3110,1199
14,123,88,-334,-1819,-646
91,-80,40,534,-869,-1672
39,71,88,1029,-207,-2799
73,31,107,439,1272,-3649
6,124,56,790,1923,-2181
-5,-118,98,1067,1963,-337
90,-91,108,-544,1868,726
-50,-38,11,-596,1106,1710
41,63,-76,-938,-16,2474
125,-110,-98,-1480,-1109,2875
-39,90,113,-2387,-2360,1662
11,98,-58,-2292,-3042,-1379
-110,-9,121,-1086,-4401,-1354
0,4,41,37,-4548,281
-48,-71,127,-366,-4324,2198
-68,-91,-115,147,-4656,2585
12,-94,78,317,-3490,3386
25,121,2,1922,-3550,3764
-125,-79,-64,1887,-1989,3509
73,43,113,828,-740,1879
9,67,107,174,-839,1346
-43,78,104,21,-569,723
-111,81,90,163,-380,427
-121,100,63,481,52,-95
-127,81,15,591,336,-950
-104,38,-10,392,448,-1480
-48,-67,-40,624,601,-1923
-36,117,-62,999,354,-2057
95,38,125,2304,3680,-4267
40,-64,-117,1181,4122,-4532
51,44,-105,2100,3901,-4168
20,-26,-117,1183,4614,-4095
-94,-118,40,730,4583,-3069
33,19,-105,935,3875,-1775
-109,-76,-42,187,2572,-80
125,-22,43,-351,1652,202
82,39,30,-1620,-521,1364
-108,-72,66,-1870,-1938,2519
93,22,-78,-1830,-4436,2228
19,83,7,-470,-2766,896
43,84,25,782,-2540,-1691
-86,-60,126,787,-691,-2894
-97,-86,104,1563,1136,-2829
12,69,124,1146,2223,-3142
76,47,50,915,2801,-1864
89,123,74,440,2541,-132
-9,118,-103,180,2379,1717
-123,-46,44,180,1229,2611
-14,69,-63,-836,239,2173
92,-52,27,-1531,-1693,2765
-40,-126,52,-2992,-4815,1062
117,36,21,-183,-5936,1590
71,47,-87,-1596,-6075,3153
27,7,15,-2450,-6209,3686
89,88,97,1134,-5553,3910
-4,16,93,2509,-3986,5644
-39,-65,12,1616,515,5029
-74,-39,81,849,-1023,2434
-36,-96,117,784,-2129,-301
-88,19,-102,598,273,-502
102,0,49,99,1315,9
46,14,-28,-238,340,50
87,12,-48,-18,53,-6
-117,12,-46,327,367,-882
-82,-65,-58,691,58,-1323
-101,-100,-73,626,-30,-1778
-112,89,-53,581,-203,-1663
-118,46,-37,207,-136,-1413
123,14,-69,1371,3424,-4851
14,-98,88,603,3633,-5882
103,-28,65,351,4098,-5394
8,35,11,-179,3570,-4850
113,-93,-34,-502,3918,-3732
-47,20,-79,257,3615,-1687
41,-86,-12,-180,2103,594
109,-11,-100,-729,1266,1496
75,-99,82,-2322,-1062,1719
81,-26,-115,-2356,-2050,2100
62,-70,25,-1839,-4131,2120
4,72,-88,-148,-2364,1043
96,35,7,1298,-2271,-866
-22,70,-128,845,-899,-3416
-116,104,-121,1311,663,-3291
-75,-9,-122,1450,2223,-2647
-19,110,27,1156,2568,-689
56,108,51,111,2352,342
-107,-85,-108,-708,1567,1110
33,47,37,-1320,670,1754
61,122,-23,-1806,-273,2102
87,-26,-41,-2212,-1676,2521
58,-52,71,-2181,-2866,1636
34,-126,-3,-538,-2743,1220
-83,80,104,499,-3050,-530
21,70,-29,500,-2799,-2491
-37,51,103,1552,-1172,-2092
9,78,97,2320,585,-2290
66,-70,104,2524,1200,-2040
125,-60,-47,2860,2218,-1365
127,93,-18,1642,1676,-91
-52,49,63,206,1004,677
19,36,-92,-1188,-433,2640
100,84,95,-1436,-1859,3693
-43,24,27,-2423,-4010,4423
-76,-62,-59,-3262,-5344,3982
-33,-18,-58,-1794,-3888,3954
-54,6,71,598,-2769,3902
-85,68,62,-1140,-2370,3772
-120,18,-25,-588,-2291,3088
19,-3,89,658,2713,-3665
98,-63,96,1019,2648,-4305
17,79,94,882,4098,-4309
-8,9,61,1061,4189,-4808
-71,-95,28,105,4633,-3798
-50,-79,-119,254,4581,-2226
0,93,-39,179,2797,174
0,-106,114,-144,1156,1522
21,-42,60,-2547,-523,830
52,48,-56,-2100,-1603,1617
71,-91,41,-1185,-2469,2116
25,-103,-16,-349,-2595,1378
-30,80,-128,715,-2705,134
-101,41,111,435,-1274,-3016
17,57,114,1294,20,-3676
-62,-105,104,2111,1867,-2990
-39,102,102,2192,2713,-1459
15,23,109,514,2370,-34
-120,61,-102,-749,2068,624
16,-112,-43,-895,461,2457
100,39,-47,-1847,-478,2417
-78,116,-31,-1895,-1477,3761
-33,-103,54,-2292,-3556,3129
-3,77,87,-482,-2482,1614
19,-88,-54,498,-3224,-2361
-53,-13,44,4,-2036,-5352
63,28,85,1837,-1240,-4393
-104,-9,83,1822,2918,-3164
44,-76,-22,3746,1656,-703
-125,-17,42,1524,2067,469
33,33,66,374,2201,1353
97,67,-61,162,160,2510
-66,117,91,-635,-1040,3874
3,-63,25,-1090,-3066,5406
3,-56,-123,-2908,-3825,5333
35,80,-114,-569,-2554,3892
-64,78,3,13,-1529,4001
123,7,-60,-99,-1429,3859
95,-37,-91,-437,-737,3704
83,-39,119,50,-1045,3284
20,-60,-108,-2187,71,-5027
-109,73,89,-704,1456,-5560
-57,82,-71,-307,2566,-5346
-120,-36,-83,-1353,3176,-5151
-27,5,-83,-1973,3513,-3807
123,-105,94,-655,3587,-1796
5,-123,-48,-542,2417,-108
13,18,57,-1229,1072,1069
40,-41,20,-2006,-852,2261
92,-69,14,-1448,-2299,2539
-14,61,-34,-457,-3151,1201
100,11,26,1121,-1539,-319
-122,-55,78,1214,-1245,-2805
-82,52,-118,1117,663,-3976
-43,-25,-125,1443,1792,-2540
-19,108,-118,665,2983,-1212
124,-34,42,98,2859,1019
110,-123,108,-1085,912,2253
-80,112,76,-1963,-225,2015
-120,16,120,-1948,-1019,2373
14,56,-112,-1381,-3660,2045
-6,70,121,732,-3157,483
2,-30,112,1130,-2787,-1783
-61,-66,97,1523,147,-1669
-120,-97,64,2315,-575,-1738
18,-50,38,654,1647,-1641
36,-74,-99,1554,1591,-212
-108,-2,-103,849,1135,1045
0,49,24,-700,498,2321
-124,106,-34,273,230,3382
5,36,-97,-1736,-1315,3585
-51,-32,-59,-1976,-2901,4297
-39,113,37,-1811,-2670,3654
-93,119,94,-40,-3100,3989
52,101,104,-1263,-2160,3326
-11,-1,-99,-42,-2068,3274
42,-49,-16,1759,-33,2734
23,0,-97,336,-98,2808
-50,46,-127,-966,-481,2408
-97,51,-118,-1457,-633,1204
94,-95,43,795,2553,-5239
-35,68,-32,-263,2841,-5669
-53,99,-37,195,2965,-5308
-127,-30,-54,-870,4020,-4145
-56,42,118,-896,3560,-2690
52,-29,28,-627,3015,-912
-18,-19,-91,-297,1740,1151
-26,-113,67,-1867,165,1256
-19,-6,60,-2075,-1687,2255
71,-47,-83,-1759,-3220,1754
-11,116,-50,-847,-3830,2062
-26,-118,16,917,-1498,-845
73,-27,113,322,-562,-2907
-38,-10,101,1167,463,-2842
-20,-45,97,1173,1426,-3261
74,95,97,1254,2837,-2748
30,101,-105,1326,2177,-640
96,84,-89,128,2172,651
-70,-88,12,-209,966,1772
1,49,-34,-1256,435,1795
19,-78,-38,-1742,-874,2688
38,112,-2,-2091,-2145,2398
-56,-51,-39,-736,-3358,2036
-124,-47,105,-1202,-3024,-1049
34,-91,84,39,-1435,-3351
39,-68,-118,1848,1343,-2758
12,114,73,2699,740,-2790
4,18,-127,2207,2293,-125
49,23,-33,1768,1675,1044
-45,99,89,1323,1650,1514
33,-77,-73,624,-425,2323
109,-31,123,-509,-1600,2841
112,18,95,-1672,-3545,3739
-75,94,-98,-2032,-4647,5500
-14,-26,-1,-129,-3882,3958
-59,60,-69,-892,-3504,4187
-102,35,-25,-705,-2697,3434
-123,-97,32,1334,-1464,3840
-109,-99,-111,2027,-241,3301
58,25,124,-61,-1180,2474
14,124,25,728,2250,-4707
-36,-25,-32,186,2956,-5031
-97,46,8,234,2972,-4530
24,-100,-77,-119,3057,-3415
-96,105,-116,-553,3154,-2427
49,33,51,-423,2790,-932
-45,41,-109,7,1689,1120
2,-35,-102,-1533,839,791
11,-36,121,-1685,-550,1624
-27,39,-109,-1722,-2734,2672
-93,11,-126,-1179,-4581,2319
58,-63,-49,1126,-515,53
-76,66,-54,1933,-965,-3539
12,-22,17,310,-193,-4046
26,96,125,637,1503,-3139
7,37,23,2079,1712,-1412
93,-91,84,2991,2014,-679
92,26,-29,-471,1541,-710
-114,-90,63,-921,1235,1257
-68,-6,12,-1313,821,2815
-18,-70,-9,-2819,14,2841
12,47,-35,-2360,-2091,2571
21,105,47,-1317,-3704,3044
45,-42,-91,-738,-3292,1153
39,68,-10,1006,-2041,880
-13,59,86,1426,-3767,2835
29,53,44,283,-4857,3424
42,-102,-98,-1658,-2023,2934
39,-55,-8,-1515,-2213,3024
45,-34,-16,-624,-2059,2929
16,-66,-20,384,-723,2396
-7,119,86,2634,242,2148
-9,-69,75,1580,229,1949
-45,-3,42,-106,-643,1424
-90,2,66,-423,-855,696
-107,-21,52,474,-372,147
-120,-31,12,483,179,-400
-121,-55,-17,210,191,-518
-85,-54,-22,-429,1084,-553
-80,-99,-16,288,956,-1347
-24,5,120,1082,2305,-3793
-117,127,62,1171,2745,-4985
16,-43,4,324,3579,-5733
8,-22,-4,-188,3516,-4677
109,-125,6,-79,3683,-3886
-95,31,-114,-645,3566,-2671
41,-56,119,-137,3069,190
32,-78,-26,-180,1519,1248
101,122,-122,-2073,251,1313
-108,-54,-74,-2014,-952,1826
-96,86,-58,-1391,-2393,2859
95,-29,-110,-952,-3597,2534
40,17,103,475,-2721,36
84,-93,52,2435,-2115,-2202
3,0,-105,634,-717,-4751
23,-96,125,1360,2156,-3844
7,80,-127,1389,2680,-1918
71,-127,-87,-1228,2429,-463
-36,117,-39,-1040,2142,1252
120,-11,-26,-820,954,1588
119,87,-38,-2065,46,2388
-103,-41,-27,-1533,-1392,3135
65,-122,88,-2276,-2845,2386
44,79,-50,-289,-2761,116
107,-13,-119,144,-3715,-2315
110,-8,127,863,-284,-3330
-62,40,-115,3311,-1341,-3004
74,-86,97,1325,1643,-2289
15,-118,-44,2090,1583,-1355
94,36,-25,1223,2286,703
-65,67,74,716,1242,1690
78,-94,-65,-234,-68,2900
-112,-90,-81,-730,-1577,4066
-50,-33,-112,-1656,-3384,5041
10,-101,-11,-1767,-3516,5427
82,40,-120,-1350,-1899,4110
-70,-82,-70,-2089,-3341,4121
-105,-121,31,-2391,-1980,2964
54,3,43,355,-1933,3029
36,-8,-58,1230,-1537,2761
32,-90,100,1160,1549,-5194
2,23,105,294,1622,-6459
-1,106,-46,405,2644,-6439
-110,-95,-58,-157,2772,-4671
-16,92,-45,-758,2846,-3543
-113,4,-49,-531,3326,-2462
17,46,4,302,2985,-123
-30,124,-125,-896,1179,1730
17,-89,-116,-2393,-305,2149
103,19,-91,-1547,-1326,2962
108,-77,-69,-1013,-1852,2571
11,-17,43,-397,-2915,2813
45,-86,-99,512,-1287,-340
63,-15,22,1317,-2867,-924
30,-61,99,1288,-1141,-3581
50,123,-126,872,382,-3965
56,-103,124,908,1619,-3177
-112,-62,36,999,2451,-1519
-40,-127,31,288,2268,-538
32,-116,-125,149,2251,806
58,-80,11,-93,1095,1942
-98,-16,-38,-1226,410,3395
8,1,-101,-1344,-890,4820
82,126,98,-3026,-3738,5791
70,-55,-91,-2295,-5380,5124
66,36,119,-3067,-4512,4446
0,24,-118,-2413,-4480,6555
118,-35,125,-70,-1381,4628
12,104,-11,1162,-530,2671
57,-57,-83,413,-1377,640
-83,114,-83,526,-399,-740
-123,-19,103,1378,627,-979
117,-69,34,1005,540,-1012
-115,-105,-33,-37,641,-1246
-108,105,-65,-143,332,-1273
-111,51,-76,276,-11,-1253
-114,28,-72,413,-90,-1164
-127,13,-61,313,-229,-884
112,3,-61,93,-322,-519
102,16,-45,-278,-325,-209
96,-40,22,-2695,6222,3127
13,111,-116,863,7985,2530
111,-114,123,1001,3607,-3276
-2,61,-80,-3740,4606,-6364
109,-76,46,-4249,3490,-2872
-38,5,-23,-25161,-17827,-4324
113,23,13,6392,-363,-5295
107,114,-116,23039,26752,21178
-79,-79,-9,-13047,-12857,-8840
-68,96,-49,2720,2453,-4264
85,-5,12,-7283,1879,-3734
-23,-66,-112,-23254,-23411,-7336
85,24,96,22752,2456,2351
-28,-12,98,12813,7493,5155
-7,49,-97,296,-6988,-5944
-15,-64,-9,4024,-5572,-3331
36,103,-27,8667,-12787,-1021
88,-45,-97,-3365,-5575,-3157
-78,22,-11,-1933,-1078,-1192
-67,-4,-54,4658,3734,5766
-94,-75,-49,1482,-1165,2069
9,-56,-75,-1495,-4287,-2579
-91,-30,-64,2469,1262,-1032
-11,-78,-24,863,2329,37
9,-60,-5,-2261,1790,-118
60,-45,-108,-4235,-99,-780
51,0,7,-563,-851,92
-15,-4,-11,2818,229,524
15,-45,-88,-705,-758,-433
47,-17,123,-667,81,155
31,0,115,-583,-60,175
13,6,104,-503,-235,-152
20,14,107,-845,-408,-258
39,23,93,-780,-420,-132
40,32,66,-178,13,57
32,24,104,-607,-394,-313
65,31,72,-14,84,43
60,26,100,-449,-223,-137
67,32,75,-141,-53,39
63,33,89,-210,-127,-81
64,-75,-93,602,10225,4929
59,55,-75,-3823,3314,-5750
35,-113,-51,-2502,6449,-1707
-31,127,72,-6661,4692,-2567
-23,-23,48,-12762,-738,-1464
-15,-97,86,-22551,-21115,-1622
27,-18,-110,-23830,1924,6436
-119,40,-127,15194,3690,-822
49,79,79,-2275,-1257,-7179
47,92,-1,-4496,3263,714
94,-96,-77,-20152,-12396,-2708
-56,87,126,-2521,8464,-1697
-59,77,126,19264,17762,-3250
-106,94,5,-12308,-8116,328
6,-52,-23,-3214,-4902,4954
-3,54,-13,-2512,-7505,1534
-73,108,58,3148,-2412,-4801
30,-42,-56,6245,-7576,-8419
17,-99,-88,7400,-3036,-4860
59,84,-43,8865,-2127,3282
-62,127,111,-2999,-4164,-2024
49,125,-52,-95,1300,-924
11,19,-99,7163,5279,8756
-124,41,58,842,-133,2570
58,-31,-87,-5167,-3470,-5005
53,83,51,637,2868,-2038
-27,93,-16,-3140,717,-626
-93,-65,-106,-6262,-3422,-1001
82,16,-117,-196,-975,202
65,-38,-64,2566,992,848
38,-33,119,18,-5,-244
80,-51,-108,-1208,-755,-400
98,-37,60,-151,141,151
85,-30,78,-334,-177,-108
89,-31,80,-644,-391,-236
103,-11,49,-220,-19,-9
101,-5,55,-88,-10,8
106,-7,58,52,57,56
103,-18,78,-67,-16,-25
110,-14,83,-193,-56,-20
85,-26,61,-1490,3718,5756
118,-62,35,-1974,6673,2950
121,101,-18,-572,9181,2245
-108,-2,77,381,6952,-668
-3,-44,-78,-2742,4233,-3844
120,-87,12,-5209,2773,-3093
21,9,-20,-9455,-2893,-2139
-65,96,94,-12758,-12932,-1092
-96,114,-85,2693,-4275,-3535
-20,-110,-95,19148,7854,12016
125,64,24,288,-2003,-6715
-120,-64,-67,11504,7544,3478
-24,-111,-63,-4273,-2573,-4688
-39,95,-58,-2711,3433,-4735
-126,43,-50,-6989,445,-1822
-56,-28,-62,-22884,-18505,-7586
30,79,-17,15679,-1414,-5111
72,66,17,15390,8555,16747
-82,22,3,13540,9809,-493
-35,-86,-80,-2665,-10138,-14491
-26,-76,105,3025,1365,-3641
101,28,86,1633,-2587,-3490
83,-57,-9,212,-6331,-241
80,-24,-4,6727,-9093,-950
-53,-96,97,11148,-3418,3218
-64,6,-1,4592,-2457,4415
-51,24,-31,654,-1431,-930
5,51,15,3177,3711,744
-86,-50,-69,-957,205,-262
-76,-104,40,-1735,699,-558
33,103,122,-644,2061,-787
84,89,102,87,1914,-523
90,83,-104,-865,-28,-461
87,100,-106,-1601,-1902,-599
110,-127,89,-277,-1069,-135
108,-122,105,212,-181,9
93,-95,-106,-640,-95,-143
94,-78,107,-575,88,-13
93,-63,70,-150,226,48
92,-61,79,30,35,13
-85,-93,35,-1411,3663,2829
40,-117,120,-3761,5804,186
107,98,117,-5520,3811,-4941
0,-98,-61,-1746,5688,-3191
70,66,73,-5108,5153,-3914
-75,-118,-60,-8750,-841,-1469
-4,33,65,-16855,-10199,-2822
-27,-65,87,-4963,-2928,-2727
-51,15,13,20647,2326,13670
-107,34,-2,-3562,-5313,-6909
-65,-11,-50,6035,2981,-1894
27,59,-121,20795,16101,11735
-72,126,-78,-2795,-3658,-8360
-29,-23,-83,-3776,3246,-3936
120,99,-50,-8433,-1423,-2473
60,-68,123,-17012,-16145,-6550
-111,115,28,11544,-1686,-983
-56,-122,-3,14118,5382,14253
-126,112,-24,2017,1354,-3840
-11,41,125,7783,1775,-1641
-92,-31,68,2584,1039,-2821
37,-51,73,-665,2066,-4982
-43,101,-43,-2382,-2620,-4301
-68,72,-5,-3819,-7374,-6397
-3,116,-80,2650,-1324,-3025
99,11,-10,12262,-4666,2531
108,101,-5,7710,-4546,2884
61,41,6,4337,-4764,844
84,51,-65,2813,-2233,-1391
-107,-77,47,4715,3190,1912
43,-49,58,4162,4019,3609
-109,83,-26,1624,206,2471
43,125,-58,-2249,-1702,-1667
-1,67,-81,-1412,1326,-2108
114,114,-125,-467,1588,86
70,119,-99,-1466,-133,209
30,-120,109,-1206,-507,-490
43,-121,92,-741,-573,-814
80,-108,121,-1076,-656,-1149
113,-85,114,-1282,-377,-690
-64,45,22,-5735,2330,-1820
65,-57,63,-2043,5980,-725
107,-108,-118,444,9825,-1059
21,-69,4,-2267,5807,-5254
-11,88,-91,-4189,5783,-4988
17,-3,66,-15415,-3450,-3348
-71,22,22,-26343,-26374,-3033
-115,112,67,-23778,-2077,-3092
-93,-53,-106,5189,9688,21162
-12,70,55,11735,-10080,-4823
-54,-53,-60,-780,4359,-4379
-36,107,-61,-2954,3054,-6244
31,-120,8,-7448,1424,-2733
5,8,-4,-25400,-20969,-9032
50,16,53,20989,-871,-14
-58,-96,26,15261,6455,13980
111,51,87,4923,-2531,-5560
77,-103,14,1141,-2963,-4836
70,27,-103,2314,-1968,882
-32,66,24,1768,-7308,-2171
19,49,-102,-1533,-11915,-2225
-110,53,-114,4294,-6290,-2598
36,-127,-66,8619,3251,6425
75,110,17,2412,1067,2483
102,93,4,3077,-1518,-464
51,9,-72,2369,-868,-492
107,-122,-91,-1663,645,-2283
61,124,-77,-1738,3659,52
78,-98,-116,-1011,2822,453
91,-107,-122,-1252,1010,-562
83,-120,125,-1732,-493,-1695
-122,-66,83,-1495,-763,-1103
121,-36,84,-2874,-1879,-1423
-127,5,-27,-169,-274,137
95,-11,23,377,-334,47
81,-5,79,829,-545,112
86,-15,125,674,-579,210
75,-9,-119,450,-163,312
62,-11,-97,-516,-87,-66
64,-2,-120,-949,-85,-309
97,-62,56,-2616,7052,418
112,-10,112,-1017,8485,-1871
48,123,-39,-2817,7477,-5078
76,15,122,-3134,4753,-6729
-74,-15,-67,-12915,-3068,-2684
-21,0,90,-25656,-24322,-2261
-39,72,-29,-22055,-7066,2664
-111,-84,-9,4226,21911,10230
-70,13,-85,-5255,-10870,-7014
-82,81,-34,3943,5160,-3456
115,49,3,-7389,2575,-1942
65,-44,-92,-18891,-11871,-4001
96,-37,-29,-6641,-1726,-7683
20,-36,49,23444,10400,15379
6,43,24,402,-7793,-13443
-124,-45,59,4132,-2334,-3897
1,72,-87,12609,-1831,1500
-109,-27,45,2453,-7772,2523
40,37,-9,-5257,-6549,-3416
-92,62,-43,2850,-1972,-570
6,-35,117,6134,4293,5498
79,-109,-46,2165,-349,3188
-111,30,-69,238,-2049,1151
94,-82,60,-1058,-1325,-1662
-38,-96,-53,-1164,967,-1493
51,-75,-102,-1012,1395,-222
39,-82,-127,-1168,845,-389
53,-79,126,-1384,45,-1062
115,-67,102,-2184,-426,-805
-120,-27,48,-2755,-1270,-757
109,0,-2,-1055,-907,-279
100,20,-14,949,337,425
64,16,104,11,-316,-19
65,19,104,52,-313,83
75,9,116,-39,-98,15
86,1,120,-267,66,-25
88,1,113,-543,-222,-62
85,13,91,-405,-234,-75
90,31,78,-184,-52,-33
89,31,86,-330,-136,-117
-1,-61,-106,-3489,2634,2466
96,58,-95,-3058,11295,6056
-8,-78,-28,1405,10519,-606
92,-74,-126,-4086,6224,-5078
6,91,70,-4258,3481,-4482
-99,-90,-44,-13288,-4336,-3109
-35,126,-124,-23211,-14405,-5934
80,-99,93,-28053,980,-88
29,-73,-98,6040,5765,22090
-83,-36,16,11077,1334,-1940
11,-107,-33,-3478,-365,-5472
-57,32,-32,-2679,3741,-3668
-24,11,-35,-12406,-1866,-2973
-116,114,-92,-30067,-13656,-10728
53,-52,-35,-28046,2105,6541
108,53,93,15418,6450,1511
-81,-90,124,-8982,-9173,-8736
-58,-8,94,14563,2182,2273
37,-32,-99,206,-7506,-1219
-6,-65,17,-6971,-5858,1887
-113,-65,-91,-1501,-8670,-886
74,-19,61,8197,-3739,1368
-106,28,26,4125,-486,2422
94,18,53,3358,992,1476
41,-62,-104,3045,-225,2145
82,61,-69,-72,-1165,-66
-118,-99,67,-2495,-840,-2093
40,-94,127,-143,2358,139
38,-117,108,18,2746,-39
104,-116,103,-443,2067,-202
85,-77,-28,-2716,-1452,35
31,-69,-69,-6432,-4098,-2821
-106,60,84,1815,1208,804
-113,-21,12,1037,559,391
96,-50,-110,-1259,-1172,-869
-117,-14,24,1062,592,619
98,-18,104,210,84,101
83,0,119,-114,-258,53
95,4,102,-187,-79,64
101,1,98,-111,-34,-63
75,-15,26,-1902,7854,5460
112,-17,120,-10823,4578,-4364
-12,-32,-30,7419,10172,2061
-52,60,-120,-4994,5597,-6768
11,105,5,-704,5358,-4644
-93,-71,-44,-10680,-3648,-3824
108,-2,5,-25122,-21698,-7008
-96,-1,-114,-26921,2257,1760
8,-76,-26,1555,14980,22778
15,115,85,19024,-3327,-2621
-51,-100,-90,-856,1459,-6482
6,69,-45,-7019,4760,-2642
43,-78,-12,-21596,-12147,-3755
-59,94,-93,-14571,1988,-10664
27,84,-50,22852,5358,8701
-21,-3,-26,-5970,-7102,-9876
61,-79,98,10041,-149,-420
0,-112,9,12067,1824,1640
-70,-49,51,5127,-4166,4633
-80,13,49,-11525,-11072,-5598
38,-53,-116,-1085,-4200,-3376
50,-16,8,10576,4273,6020
101,-42,-38,4190,201,3748
115,-25,-34,-39,-1902,-1225
-91,-78,58,467,509,-1129
56,126,-1,-2261,1178,-1307
120,-79,121,-913,2275,394
84,-100,122,-617,1103,-38
63,-97,-85,-1880,-1483,-882
94,-52,97,-1741,-1463,-300
95,-19,57,-1662,-789,-450
104,0,19,-160,474,51
89,-1,79,-221,122,-181
88,6,113,-712,-504,-387
97,-3,85,-429,-248,-185
102,-4,79,-23,89,-78
109,6,93,-36,161,38
115,15,112,-266,-79,-60
115,5,118,-256,-436,-181
121,5,105,183,-17,209
0,10,83,1097,10223,2666
52,-126,-82,-11281,3837,-8374
-21,50,65,-751,8130,-2282
54,120,23,-5857,4698,-3271
25,77,-47,-12743,-7994,-4814
-100,78,-57,-23326,-8671,-6589
111,105,94,23875,-3654,-544
35,-33,-58,16312,-98,12064
-90,101,-10,180,6592,-1251
-28,-50,7,17394,9223,2729
-23,-122,-14,-7277,-3719,-6562
-66,6,-46,-2576,3555,-1745
-51,11,-113,-11269,-2124,-2222
-80,-95,88,-30570,-15223,-6279
94,44,106,-22646,-2769,3449
-124,-98,-89,15765,13977,7515
-18,-77,-30,-12472,-8076,-9204
-33,8,-124,-2388,2530,-2438
-33,126,8,-4873,2743,-2743
107,-30,110,-11697,-5206,-3996
92,-24,-15,-3587,-1639,-3449
-40,-49,-80,8525,3484,4025
25,-9,-47,3496,3,-1803
97,-16,21,571,-1614,-951
-15,-80,70,5159,869,-1575
44,10,117,7831,-201,2419
-16,77,22,3313,-4113,793
-105,116,2,1303,-5934,319
-25,-99,-53,4633,-5100,1822
-30,-71,56,-508,-4699,-756
26,-30,-58,-1230,-3042,-1287
42,6,29,837,277,373
12,-73,35,258,526,-144
14,-63,29,-103,-436,-551
12,-65,24,-720,17,-209
43,-102,-44,-2357,193,-337
34,-68,123,-782,257,206
25,-39,96,-235,258,382
36,-33,122,-338,-135,86
62,-30,115,325,-79,279
27,-87,85,2389,5743,3191
-39,-12,117,4744,8414,452
-14,-48,-35,-8183,5088,-6432
104,44,109,-1642,4025,-5757
-42,105,-71,-6396,1332,-6296
-100,0,-81,-16502,-4615,-3006
-12,-106,-84,-30114,-4678,-8120
124,122,54,-26829,-1975,9636
-110,-39,44,6692,8738,116
-128,12,45,-8207,-5401,-5348
-74,-47,-87,-1316,3168,-2701
-22,-80,13,-6061,4689,-444
110,-81,66,-27226,-21077,-6574
67,-101,72,18697,-688,-3434
-114,-107,86,14695,12365,15657
112,19,48,8193,-8742,-6785
46,67,72,928,3119,192
-33,-37,89,-4523,3328,-1177
1,95,-77,-8212,-3009,-959
33,-36,99,-4225,-8347,-632
51,103,87,8004,-4915,-6423
-85,10,-102,10127,-6348,-1226
40,122,115,6049,-2146,5724
91,-112,90,67,-4359,-138
118,38,-7,-417,-3789,152
-122,5,88,2030,-652,930
100,-21,38,4092,1667,1499
-19,-59,51,3734,2516,1333
-86,-99,-109,-747,941,-706
24,112,40,-5063,-485,-1960
97,-76,102,-3652,-418,-830
90,-54,23,-1057,17,-124
76,-88,73,-920,-483,-1078
116,-62,46,-143,158,-582
116,-79,77,-349,-107,-433
113,-67,110,-1008,-819,-454
126,-59,53,319,-81,404
112,-53,80,430,48,403
98,-38,97,664,59,500
92,-38,123,181,-118,201
-18,-121,71,-8636,3768,-4444
-67,85,-75,-3884,8489,1673
-1,122,-25,1272,8713,-2260
67,64,-111,-6385,5890,-3598
-121,30,122,-10066,3,-1186
118,2,15,-15850,-11014,189
-71,88,76,-2410,-6994,-2477
-20,-92,-5,20798,3569,11476
-77,-93,-94,2954,1651,-12326
-122,76,46,8135,-1812,-2445
-121,-45,-66,-4439,3444,-4621
-39,36,6,-7255,4328,-1222
-39,-128,30,-31093,-24339,-6242
-8,-109,50,-27806,-2821,-1373
-59,-16,110,3848,21953,12647
22,38,115,1116,-9937,-9758
47,-128,-5,3,-1009,1007
-18,50,104,-1302,-2180,-2878
-24,-67,36,3135,-2204,-2628
-86,-24,101,5650,-2912,2991
62,-39,102,4063,-4722,-836
84,-102,-75,2299,-2932,3170
-14,-120,-56,638,-4446,-1416
120,100,80,2830,-1264,1488
59,16,103,561,-1229,-400
75,31,6,1050,210,497
-35,14,12,1247,685,1441
-72,-42,31,-2717,-705,-416
-39,-70,-108,-1550,-144,-939
50,-78,103,-909,197,-460
54,-56,89,430,690,197
43,-71,-106,-1371,-351,-328
38,-13,-123,-2332,-1006,-458
18,5,120,-2643,-1689,-801
29,38,69,-1348,-763,-453
30,55,84,-771,-156,-60
11,48,113,-1131,-688,-458
33,56,101,-723,-468,-264
53,55,101,-251,-75,50
40,48,124,-373,-235,-4
49,-83,16,863,5770,4144
86,-117,-112,-8560,3935,-2485
-85,35,-54,908,7962,1820
-66,45,-4,-3906,5980,-3430
83,96,-67,-3012,7086,-2345
-121,31,38,-9467,32,-4313
-18,-4,122,-19345,-12081,-4244
121,-22,-69,5357,-6332,-2978
-89,-105,88,22035,15807,20646
17,109,-75,-2080,-7894,-16155
112,104,-82,17319,2627,4206
104,127,-122,-7948,2281,-6260
-86,26,-24,-5818,5409,-1309
-69,-10,41,-21547,-15744,-4877
91,76,-5,1180,-3360,-4420
70,-27,93,20848,6271,21737
83,-109,-97,1977,-4080,-12540
35,-115,-127,6015,1178,-5583
19,-6,4,5653,-1638,-4001
17,-66,-116,-76,-4638,-952
122,29,-44,-2107,-4619,-1658
-5,111,-56,4106,-4223,520
86,-83,90,5810,-4272,5090
-81,117,-24,311,-4943,2574
88,-123,69,2513,-2281,-627
108,-105,25,5924,1228,1579
-3,94,4,406,-1400,660
-124,-11,114,-2939,-505,-827
-75,-65,-83,-2577,1781,-1479
53,-120,56,358,2467,-848
99,-120,-116,1503,1362,363
70,103,43,-3884,-3135,-1110
76,-52,76,-2044,-1223,-81
73,-12,6,319,691,571
55,-19,99,-268,-126,-346
75,-18,103,-161,-367,-156
71,-40,112,-521,-492,-140
73,-34,95,-46,-193,26
61,-27,112,-373,-331,-72
56,-1,99,-508,-217,-145
117,48,-1,-3882,2535,1126
-105,-25,21,-760,5628,1384
106,9,-109,3495,8718,1225
51,-117,-51,-8656,2132,-9282
22,122,-123,-10768,-712,-6426
-4,62,125,-12878,-4866,51
-54,59,-34,-18593,-13833,-1433
57,65,2,-32740,-1862,4867
-4,84,-55,7834,9850,16505
-51,-84,-13,-4857,-7085,-10709
-123,20,116,6479,383,-2764
-88,-102,-98,-7727,5284,-3189
37,33,17,-6726,1918,-28
97,29,-4,-30902,-15986,-8758
29,81,0,-24752,155,8693
45,-88,-20,8839,6836,6715
-48,85,12,-5161,-8275,-11301
-22,48,-42,2553,814,-6179
-56,105,-81,6604,-2079,-3814
4,-116,105,2523,-4713,3033
64,10,-107,983,-3900,1047
-1,80,26,6546,-2560,4163
-81,81,-8,971,-4280,2508
-107,106,-50,1014,-4563,172
-85,65,24,3480,-326,820
57,69,54,4759,1988,2434
-117,-62,-70,-493,-28,-460
-55,120,10,-1980,770,-1513
73,121,-118,-977,1978,-372
90,119,108,-179,1281,-75
53,90,-88,-1098,-787,-1097
87,109,-127,-1276,-1048,-1220
-126,104,-122,-2340,-1188,-1068
-100,-104,51,-1654,-796,-350
-122,-79,17,145,16,314
105,-61,47,471,126,305
83,-37,107,-187,-300,-19
81,-33,104,-322,-310,-154
89,-34,109,-549,-203,-203
107,-32,100,-679,-212,-203
46,-108,-2,-3048,9776,5281
-62,117,118,4093,11634,3187
-77,-94,105,-5971,2981,-8044
-107,88,-16,1162,5866,-3184
-83,-1,56,-736,4760,-4215
-79,-84,-22,-5872,955,-5000
66,-62,-58,-13171,-7085,-1789
33,120,-107,-24870,-13587,-11198
57,89,-102,-28731,3474,244
-114,88,78,9023,9283,20121
87,73,45,2169,-8228,-5923
-78,-75,-121,1289,1841,-3622
-58,106,-99,-5503,4291,-4032
44,-5,-78,-7421,2211,-1015
-27,65,-39,-28227,-18154,-6964
-69,76,39,28246,-4154,-5980
-12,-22,105,15608,11564,25122
112,-87,15,-11884,-6780,-15680
-7,33,-57,-1056,-3459,-11085
24,-38,82,7377,-1800,316
42,43,-53,8239,-6661,4124
-35,-75,-8,4811,-4193,-202
-74,-63,74,1152,-2115,3906
28,-39,46,-1612,-5711,-1394
61,34,71,3861,-2769,-270
119,64,42,5684,1166,2478
-63,47,-60,1790,936,1327
79,-95,117,-3003,566,-1803
0,-116,-94,-927,2351,-815
62,-121,-127,225,1542,152
28,108,-81,-109,-236,-564
58,115,-109,-435,202,-926
110,117,-113,-1072,60,-642
127,-116,91,-951,322,-309
121,-103,75,-959,-120,-289
120,-104,47,-279,-266,-85
113,-87,58,418,-351,283
107,-74,106,93,-629,202
101,-59,-127,-283,-577,158
95,-36,120,-591,-389,94
-68,125,114,-6787,985,-2591
-34,68,-102,-5999,7637,-597
67,-120,-29,-3676,5206,-1883
27,-114,89,-8805,-182,-3892
-89,119,99,-13985,-6389,-1025
82,40,56,-16647,-12449,-3370
-84,-107,-10,32696,-1989,6293
-33,0,-2,7625,13087,19178
-74,65,2,-7357,-7301,-12927
-48,62,-110,18274,-328,439
-29,106,80,-12417,5583,-5249
28,112,-3,-4875,2295,-585
111,-59,-91,-30246,-18219,-7074
-10,113,-67,-27405,-3659,-507
-115,33,-20,5968,6761,22822
110,-63,35,2537,-2246,-10483
-41,-85,-43,7908,2420,-3467
-25,-20,82,4027,-2992,-3643
-55,6,-65,2870,-3873,-2044
-70,25,108,-3540,-3830,253
-72,39,-88,1271,-6483,1082
-39,-5,-75,9171,-4191,4959
-22,93,-36,224,-6085,2112
74,-64,111,1778,-3573,249
-114,-95,78,10549,1582,7408
-42,125,98,-369,-1581,932
-50,46,-22,-8621,-2783,-8206
-98,1,61,-2256,3444,-909
-120,-44,35,2926,2923,3184
-18,120,-46,-908,159,101
17,-97,99,236,899,-862
56,-112,-98,-676,-292,-1565
105,-62,-29,-3910,-1914,-2724
-93,5,108,-5207,-1836,-1935
-90,43,-88,-158,-173,449
105,2,8,1363,137,577
71,25,105,958,-148,387
58,21,-99,378,-164,348
56,23,-86,-374,-154,36
69,23,-107,-430,153,-122
-49,-98,8,-4788,2146,946
5,-110,-48,-7918,6450,580
126,27,35,1064,9345,2954
-114,76,127,-7804,3773,-3487
-50,68,48,-8782,-272,-1478
16,-84,-73,-18795,-17025,-4129
-10,-35,-65,6229,-4790,-6140
91,14,25,25615,16275,23993
118,18,-7,3156,-2756,-6342
119,-109,35,11880,324,-1728
-52,-1,-58,-4211,2473,-4141
105,25,12,-5041,4217,-1369
-108,-45,-37,-17472,-11874,-4943
-101,-83,-16,-12041,-3753,-5147
44,125,2,26447,4487,13637
71,-31,-28,6434,2434,-3598
72,111,-14,-1768,-5043,-6368
-17,43,65,5932,531,-4418
-87,-102,-18,-2003,-2276,-2580
-72,-48,-26,-110,-4078,-3520
-73,-94,8,4267,-4423,-1381
-37,-56,-34,8080,-5179,2222
3,92,94,5630,-2196,4824
-113,49,-72,2144,-2617,1065
-78,-50,52,6213,1359,4035
-1,-127,6,3382,-608,2924
30,-62,-41,-2815,-2046,-1832
-87,-122,19,-2485,274,-2424
102,123,-54,-2942,463,-664
94,-102,46,275,1963,792
44,-104,-108,-1102,361,-292
32,-81,-108,-1810,-831,-970
85,-51,84,-1273,-509,-740
104,-35,88,-1042,-257,-497
92,-30,103,-1192,-498,-707
91,-17,82,-524,-170,-456
105,-18,85,-354,-150,-365
110,-23,74,372,-2,-22
98,-24,118,75,-272,-64
92,-12,-105,-773,-701,-193
-68,98,111,-8209,5238,-5497
-97,-21,-7,-4218,5999,-3269
43,-123,-111,-8856,3458,-4249
-71,23,113,-13674,-3087,-2390
-33,-79,-79,-19275,-17176,-14
-91,21,-73,26096,-2269,176
6,84,-3,8495,7433,21900
11,81,-69,2636,-3781,-12262
125,114,3,397,-2869,-1595
-73,-71,-59,-2824,3860,-6160
22,11,24,-6429,2575,-1446
31,76,2,-22287,-14370,-4388
30,14,-23,4049,-4620,-7411
-61,-46,124,22869,9172,20077
66,-94,47,14302,2494,-6111
126,62,-58,-6012,-4957,-11609
71,74,-38,8009,839,1215
65,-113,-38,-3676,-2592,-1338
69,-25,118,1119,-5775,-687
89,-45,36,6746,-5534,2625
87,-115,-69,5089,-8642,1463
-122,-74,-54,3549,-3227,2248
51,61,26,66,-2365,-527
43,18,94,1780,-349,296
19,-16,25,3496,1846,1628
-71,-102,29,1592,1711,-408
3,123,-31,962,2485,-519
65,87,-14,-961,1019,-704
82,102,-33,-2295,-553,-748
81,120,-116,-3185,-1963,-1181
93,-102,56,-1837,-921,-945
125,-72,17,491,535,264
100,-88,-127,-836,-449,-367
111,-59,74,129,32,94
101,-62,108,-285,-373,-45
103,-40,106,27,-101,86
104,-34,-118,-564,-353,-125
95,-22,109,-544,-66,-131
96,-16,88,-521,-75,-243
99,-24,83,-149,-196,-241
12,16,80,-2785,4277,-219
-64,-10,109,-3539,6047,-3655
23,112,-91,-4494,5555,-4456
-17,-17,38,-5694,3245,-4193
-15,-6,-74,-16075,-4118,-3142
1,81,-81,-23653,-12573,-2436
74,-24,-54,-31202,1632,17152
55,52,-118,-186,1976,-2784
-125,118,-58,8122,1668,-2542
-24,-69,-38,-4151,501,-3589
-85,1,10,-4287,5585,-2832
1,75,-77,-12196,-4809,-3121
-72,29,-33,-27661,-9735,-9838
17,-6,15,32203,2907,10432
71,-85,53,9052,2524,2647
-117,-118,16,430,-3091,-7150
17,106,122,5475,-1076,-6664
66,24,-39,3422,-3511,-1515
82,-3,25,-573,-3457,-2290
103,-95,115,3794,-2682,1005
81,-89,-64,2534,-3569,3553
-5,-1,-109,2133,-3746,2939
32,39,-63,508,-3895,1168
20,40,124,-131,-4454,-1316
95,66,13,2581,-1420,65
57,104,-25,5235,1267,2628
-119,-52,-50,-1656,-1332,-937
-53,-79,28,-2271,-54,-1525
47,-65,116,274,2265,317
37,-86,-102,51,1468,-32
37,-83,-72,-1496,-144,-663
73,-61,103,-894,102,-290
87,-56,68,-292,268,-172
76,-53,102,-659,-322,-438
101,-34,81,-189,-120,-147
97,-35,100,-393,-422,-293
102,-28,93,-44,-322,-102
102,-24,118,-421,-465,-133
95,-16,111,-318,-350,-12
94,-6,108,-270,-228,-58
79,14,0,2556,4998,2534
-11,-5,4,2133,12605,5404
102,117,-107,-6555,521,-7136
47,-40,-87,1357,4954,-4484
-44,-4,-17,-10440,1459,-7563
38,-75,64,-14187,-3346,-2492
-13,-9,71,-23324,-15228,-3841
14,60,-10,-31816,-2728,4686
18,-39,-88,5589,5886,22538
-31,-73,-125,4624,-7005,-16148
50,1,-102,28974,9235,7935
-110,-38,-54,-10215,62,-8947
36,-125,-30,-4303,3578,-3758
-5,57,54,-13765,-5551,-979
126,94,-87,-25825,-8284,-8769
96,25,81,-27709,-3012,8777
34,21,76,1752,11156,4551
22,-44,123,-288,-7034,-7893
11,83,-65,3176,-1388,-5182
64,-105,-39,2380,-7663,-553
-62,-35,86,898,-4684,-327
-15,8,-108,4894,-6414,1521
-35,-108,84,5257,-4563,3287
-80,65,-96,520,-4324,333
-57,90,109,1682,-2957,593
42,-75,83,4951,875,3933
51,-48,-21,-1340,-1154,-1668
-117,109,6,-608,2066,-2496
73,124,-63,-60,2849,-503
85,-122,-46,-1596,927,-189
71,-104,-119,-1235,615,-526
89,-109,103,-1512,-21,-1367
125,-81,99,-1565,-350,-1015
85,-7,-82,-4185,-1941,-1436
53,53,66,-4104,-2711,-2215
85,69,-21,1167,525,282
48,10,-108,-765,-1049,-810
