AccX,AccY,AccZ,GyroX,GyroY,GyroZ
83,78,68,-103,3384,-9118
48,-33,-28,-1789,4270,-6731
82,109,-119,-2418,6688,-6525
-124,21,-73,-1254,3853,-6875
95,96,19,-2465,-1036,-1957
28,21,-18,-3221,-3,1117
-13,77,70,-2558,-10906,4881
-81,37,-50,3028,-1651,1248
-92,-108,-52,2616,5664,-8958
99,42,126,-2554,9172,-6568
-97,24,45,6131,-7769,4713
-81,93,42,9180,-8038,5612
-122,75,-74,2886,-5304,10593
-82,-101,-121,150,-1856,4676
38,1,32,-517,-3427,4546
115,-101,81,1330,592,1211
82,106,-57,2381,-1115,1498
10,70,-122,2567,-1341,-663
-16,89,118,658,203,515
16,-54,109,227,21,469
29,-99,113,184,177,-273
34,-96,87,-292,94,-379
35,81,91,208,72,-216
37,86,72,-150,29,-211
44,71,68,223,17,-116
57,96,63,-103,-34,-81
63,100,53,11,123,-63
68,97,51,144,-146,48
75,-124,46,-154,125,-25
87,121,39,234,-125,77
85,-102,37,-234,4,-68
94,-114,49,180,-75,76
99,-87,44,-127,-13,-141
110,-107,51,182,-3,30
108,-93,33,-151,10,-116
113,-102,32,161,-114,-5
124,-90,24,-117,123,-99
122,-96,25,136,-204,-18
-125,-83,25,-124,120,-101
-124,-88,22,86,-173,-15
-70,0,53,-6658,9791,-8209
-31,-50,0,-1997,6925,-5631
72,81,-36,1284,7888,-9356
123,-60,17,-2763,-46,-2438
-78,-56,-31,-5187,-6213,7988
-122,70,-63,8081,-13840,8901
-90,122,-63,-5237,17159,-13529
-45,-94,-12,3123,1856,-1904
-118,-20,-118,667,-2338,671
69,118,83,6185,-5535,4814
-54,-1,106,2693,-5662,10942
118,39,-80,2964,-2282,7050
-56,-66,-91,-2406,310,1954
-18,22,19,2166,-877,2534
49,97,121,2615,-2493,4531
121,-13,18,2568,-454,4349
-94,70,-96,-54,1051,2016
118,116,120,-1867,-170,-627
75,-102,-115,191,-14,-916
43,90,-111,1354,-531,-99
49,103,-99,561,-38,-478
83,78,-107,-236,311,-261
74,72,-128,132,-268,-82
91,76,-118,149,164,-78
91,93,118,170,-136,-62
103,109,120,-173,109,20
112,124,110,-102,32,5
126,-114,104,-62,0,-80
120,-126,104,198,-61,56
-126,-99,103,-50,43,-34
-118,-103,102,-11,-58,33
-114,-87,103,-128,51,-92
-112,-98,103,93,-63,23
-106,-89,93,-69,33,-78
-105,-86,96,-40,-24,-20
-100,-90,82,76,-20,-20
-93,-81,84,-93,10,-42
-92,-86,79,-2,-79,3
-87,-78,84,-31,25,-2
-84,-67,83,-24,-91,14
85,-16,60,-893,5606,-10861
104,-99,18,-3509,5620,-7423
-102,76,104,374,2725,-7485
57,-69,82,-1524,10887,-6798
97,127,-124,-1688,-15523,9176
55,-3,-1,1903,-6561,7999
-67,60,-38,-3596,11630,-14734
-83,-81,-113,2507,2189,-3376
-78,-17,-89,2485,-4223,2250
51,-15,21,6248,-7225,9261
82,81,74,9282,-6915,11099
-47,-73,-79,2211,-1445,5311
-42,-55,13,-665,4197,1960
60,83,30,-2424,-413,4705
98,59,-123,328,-934,5192
-72,-70,77,-539,1051,838
-84,-69,44,-653,414,-2368
29,20,-127,2301,-793,-1522
52,8,-72,1559,-588,956
59,123,-105,-1008,307,-564
119,119,-108,-1294,488,-686
101,59,-121,619,-402,-44
101,86,-125,547,51,-30
119,123,-128,-47,11,-101
127,-124,111,-320,251,-69
-117,-110,104,83,-78,6
-107,-92,98,-37,94,-106
-109,-93,98,109,-125,-65
-108,-84,98,-104,29,-119
-93,-89,104,58,-36,-38
-102,-92,95,113,-70,-25
-86,-80,106,-129,-12,21
-88,-76,101,-33,-19,19
-78,-62,105,22,-17,-44
-76,-65,100,6,-5,-9
-79,-60,98,3,33,-46
-76,-63,90,-37,-103,-13
-80,-65,90,-208,47,-5
-72,-59,83,88,-165,164
-62,-50,77,-180,21,75
5,-100,-86,-1053,6005,-12328
-72,75,-121,-4458,5103,-8754
53,-49,59,-3294,5014,-7970
4,79,-4,-4510,4994,-5749
41,35,76,2077,-10005,5011
-128,-90,-18,-1707,-10971,1957
-73,100,123,2293,3864,-750
-112,-24,-122,-81,4722,-7641
50,-87,-88,3165,2313,-1913
14,-64,25,2381,-3460,2638
-50,-61,-66,3993,-3625,4621
-75,122,-62,1396,-5935,8979
-83,-115,-75,5776,-6125,5482
118,-111,23,-4192,2986,4611
-125,32,5,3255,-2883,4217
29,52,20,2529,-1232,4779
39,-23,77,932,206,5162
16,10,-36,-2072,621,2275
-44,78,96,-1595,-292,-2643
-21,35,-120,3978,-349,-1946
-58,-77,-79,3542,-1438,719
0,-117,-66,-1206,333,-235
64,97,-126,-2256,1135,-409
55,68,104,-145,-298,-134
46,113,-128,582,-438,-52
48,92,124,194,314,-68
71,-123,118,-48,-222,32
76,-121,106,-365,340,-39
87,-112,94,366,-204,4
85,-108,90,-90,178,-52
111,-125,76,257,-30,-67
106,-124,83,-100,-217,285
107,-55,92,-540,284,-43
113,-69,84,211,-121,28
127,-57,84,-54,64,-142
-118,-77,76,275,-36,-222
-121,-100,75,144,-116,-64
-118,-95,81,-164,65,79
-113,-83,71,-24,-11,9
-108,-74,78,-32,-28,61
126,-35,-98,-1541,2956,-13333
-12,-17,-8,-5016,9655,-8441
72,78,62,-3301,2896,-9102
-66,-2,39,-1137,5352,-5888
-86,-15,1,-9957,-3568,4337
42,40,-107,3031,-9778,3262
-2,-3,-111,350,10010,-5760
91,-84,101,-1424,5611,-4867
-66,-125,42,2199,429,432
34,38,30,3052,-4618,3803
-16,107,29,5488,-8962,6708
49,-81,-6,3247,-7744,10191
-49,-6,-28,3614,-4481,7662
-53,-66,77,30,2893,2938
-24,102,-61,4526,-2891,8037
-40,-81,-32,-1175,-285,1032
4,-94,-46,-1905,-193,-4600
-97,26,-51,-432,5151,-335
7,115,18,8597,-5954,946
22,113,-78,-1593,319,-968
92,84,106,-2034,2819,-958
70,54,96,588,-242,-495
59,60,120,1277,-1361,-2
60,56,116,-450,475,-247
77,83,107,-575,235,-107
84,123,99,-252,-267,-90
91,-128,95,-523,350,-299
102,-110,91,-121,-320,-125
117,-82,96,-572,277,-270
112,-90,91,-27,-45,-132
122,-89,86,-46,-56,8
-124,-70,78,-430,187,-147
123,-79,69,-27,-125,24
-118,-58,73,-143,149,-5
-105,-51,65,-13,-119,68
-109,-34,70,-102,91,-90
-105,-28,75,37,-70,-34
-85,-32,74,-20,105,-77
-76,-59,69,395,-125,-73
-104,-48,75,-11,-109,13
-123,-28,102,-623,2416,-10992
-40,67,42,-590,1585,-9193
-56,75,-84,-6632,5914,-7416
75,64,-75,-217,1062,-3968
-84,-84,-4,-4476,-2367,732
82,50,-33,-1688,-10117,1025
22,-57,82,7631,1516,942
-36,106,99,177,4667,-7610
26,98,36,-651,4559,-1712
-67,-94,-72,3327,-3845,3027
93,-47,75,3154,-5472,5206
28,-16,113,4782,-6450,9689
-127,76,-125,6218,-5266,8192
-22,-113,-75,-6901,8028,2848
41,33,90,5612,-3673,6910
112,-39,104,3762,-2701,6352
-68,27,44,-231,1210,1890
-2,78,-46,-4393,1487,-1848
-35,34,122,343,1264,-3188
-22,-39,-117,7174,-4310,1690
-16,-42,-66,-1197,-296,-436
93,100,123,-2603,2659,-883
73,49,98,624,-278,-66
58,92,-128,1018,-928,-113
57,99,115,-377,413,-331
84,94,102,-250,186,-243
85,-122,110,-16,-451,48
93,-117,116,-553,427,-61
95,-101,101,124,-225,-55
107,-98,107,2,69,4
111,-87,90,-52,23,-74
126,-86,80,178,-150,87
-120,-72,82,-253,122,-38
122,-79,76,139,-208,63
-125,-61,85,54,58,-4
-106,-60,75,-43,-89,-104
-108,-61,77,59,-158,-108
-122,-75,80,163,41,-69
-102,-61,66,26,-86,-49
-94,-51,56,84,-2,-93
32,-99,90,-5316,2656,-9514
63,8,-37,-7196,7300,-8069
-128,-112,-14,-5580,5044,-7563
0,-114,-105,-4381,-1493,-3546
-108,104,49,223,710,-1092
70,-114,58,-708,-6122,1825
-5,49,-109,822,-6080,3717
-34,43,-44,8330,6801,-5693
121,116,119,-2439,6349,-3798
8,-95,54,31,-601,1516
44,126,122,3392,-2578,3465
-111,21,116,4194,-6868,7562
-32,95,1,2204,-3318,8497
-123,-89,114,3165,-3367,6161
116,7,17,1690,-2201,3857
11,-18,83,776,-1809,6119
-76,-119,124,432,-2284,5331
76,-11,-15,-1278,180,-454
24,-45,-88,-50,1328,-3471
-22,20,-62,4025,502,-1321
-61,100,-98,2101,-944,702
-13,-38,-107,-963,192,-334
99,-60,126,-1352,975,-830
99,-103,124,482,-337,-667
75,-128,-104,710,-250,-745
83,100,-109,489,79,-682
86,96,-110,67,-160,-441
64,70,-121,108,51,-127
76,106,-115,-171,-123,278
114,-106,-111,-417,155,252
113,-63,-126,343,-329,215
105,-43,-121,73,-52,92
113,-31,-127,-227,133,83
120,-41,109,-285,-48,215
-127,-21,116,-477,73,130
-116,-17,114,-412,59,81
-115,-35,105,45,-92,126
-114,-26,105,-197,-186,-40
107,-107,101,350,-86,197
81,-91,-65,-2074,-144,1268
30,-50,33,5888,-1681,-7008
4,26,11,-5368,5558,-8097
85,-116,110,-2650,4389,-7604
109,48,-101,-3551,4275,-5848
-58,-47,-123,641,-6294,-4449
-32,70,91,-5342,-1934,2551
107,-14,-121,493,-7838,1749
-85,120,84,7690,425,-1104
-48,-83,-34,-3691,6029,-7246
46,-37,40,-1304,3658,-298
-36,-41,79,5873,-6964,4868
-54,75,-106,4693,-5083,9185
-97,-112,75,6868,-2596,7885
-106,83,18,-3187,1943,4731
-11,8,-101,1966,-474,3183
-62,98,-76,542,-2337,5851
-43,57,118,2113,615,4713
110,-127,100,-1874,39,442
-47,-6,-108,-247,12,-4363
-45,-104,-15,3770,-912,1325
-18,124,-57,657,-939,-18
21,119,-113,-2134,1191,-523
58,89,121,-400,272,-285
36,73,118,1198,-1175,-307
51,71,-121,-193,150,-244
42,98,110,-456,79,-326
44,108,99,-237,-410,-140
49,116,97,-300,95,-277
63,111,82,400,-396,-42
64,126,82,-225,-191,65
75,-109,79,-276,77,5
82,-118,64,118,-63,241
87,-65,56,-451,35,2
101,-70,49,173,1,-5
114,-98,44,286,-137,-20
109,-80,57,-377,16,67
90,-58,65,-446,50,105
119,-52,60,155,35,-51
123,-63,54,318,-109,-60
-128,-78,50,63,84,-45
-61,77,-83,-2595,516,-7922
-89,-57,83,-4274,9296,-12427
-121,-2,35,-2873,5605,-7944
50,108,82,-3962,11009,-5059
-35,-74,-15,369,-791,-3175
10,39,-43,-4216,-3100,3286
-37,112,-37,-2081,-13064,4412
83,-102,77,7016,3714,-3700
117,-11,100,-1172,6895,-5005
54,53,89,4835,-389,-410
114,36,-109,1276,-2061,2413
111,72,-72,3288,-4964,5447
16,-79,-12,3379,-6585,10730
-115,-1,1,5949,-5705,8060
14,26,-83,-1340,3282,4215
-63,114,-34,-942,1633,3478
-69,-4,92,2455,-3414,5734
23,-30,-126,-1068,-38,2793
-66,-111,124,-1656,703,-1401
69,80,120,94,279,-3332
93,-116,-77,1341,-377,-780
-19,113,121,315,-660,52
56,-54,112,-1212,489,-356
113,-47,99,-780,382,-633
106,-126,81,598,-244,-306
95,-91,96,195,-336,-479
110,-60,100,-589,194,-857
66,82,93,617,-506,-84
82,-107,112,-25,-89,276
100,-58,107,-572,198,197
120,-20,99,-522,-78,151
-120,17,96,-574,152,-29
-117,55,87,-591,-11,-222
-126,42,90,-227,32,-216
113,5,96,526,-237,254
127,16,95,204,10,357
-95,44,93,-247,32,131
-92,39,87,-335,-32,-131
-93,14,102,229,-78,21
-95,5,93,170,81,-54
-39,118,5,-2097,260,-7656
8,85,-83,-4654,8655,-12420
4,-50,-86,-3305,10528,-6320
2,-69,56,-308,-318,-4572
34,119,-53,369,-5158,-2069
-2,-36,-42,-6195,2767,227
-37,20,97,-925,-12894,4121
-44,45,-65,1827,4210,2488
100,14,102,3107,3943,-7406
64,-27,-87,2819,2125,-2542
-9,74,-97,-1286,-799,1556
-51,51,56,1845,-728,3323
45,-91,113,797,-7029,6629
102,-26,-101,6095,-7570,8148
84,-84,68,3549,1410,5759
102,74,115,4999,-565,5215
2,-2,-43,2734,-115,5165
-109,108,-90,-1389,670,4594
88,99,55,-3029,457,1009
12,-20,27,-1984,66,-4100
45,64,-103,2784,-331,-3004
-78,-61,-49,1191,-1410,673
-47,60,-100,-200,160,516
39,111,89,-1194,910,-163
52,112,80,-509,-431,-353
35,100,102,-125,287,-541
25,74,88,738,-423,-99
37,115,105,-166,-72,-86
65,-125,108,-328,243,116
61,-114,99,-231,-101,-55
71,-98,99,-188,72,-76
73,-109,98,183,-37,25
82,-80,80,-150,-42,-25
95,-80,74,-16,118,101
101,-65,53,13,4,59
112,-62,56,-85,120,46
116,-59,46,-13,-87,-125
119,-63,48,26,-213,-184
122,-53,47,65,-131,-195
-127,-58,57,9,27,-99
71,13,-44,-3920,6700,-12278
-41,3,-107,-5202,8900,-8255
91,-128,124,-2142,4170,-6168
84,83,-103,-2831,5872,-5116
-8,26,64,-1800,-10053,6153
-96,-70,-90,-537,-1451,1922
69,37,31,4354,-73,-4140
-2,-59,125,-2286,7248,-6350
-33,34,10,835,1292,-789
-36,19,93,6611,-7893,6402
-31,56,-48,-294,-6366,11096
51,-115,82,2307,-2266,5788
15,8,123,233,4290,3028
41,16,37,2738,-4177,5815
-29,-84,74,3969,-2941,5620
85,-48,45,756,-526,1496
-15,120,-71,-3036,1176,368
106,-11,115,-1137,656,-855
16,119,-88,1489,-900,-226
31,-107,-74,745,-369,132
50,-88,-123,-998,609,-406
80,-89,123,-267,202,-580
84,116,112,722,-131,-304
88,123,104,159,-21,-446
95,112,103,49,75,-392
100,100,90,46,-40,-228
104,104,90,17,-77,-98
107,114,94,-75,-57,87
114,-119,94,-137,-46,147
-121,-88,96,-297,54,64
-126,-84,88,-160,-69,115
-124,-71,100,-102,-64,231
-116,-57,101,-223,99,232
-103,-31,97,-210,7,105
-99,-36,96,35,84,64
-101,-39,89,89,-24,45
-91,-32,81,-15,136,-101
-84,-45,72,70,-50,-90
-84,-50,72,-24,90,-141
-78,-60,67,170,-136,-88
-46,111,64,1487,1852,-6808
44,-108,61,-1568,3864,-11130
24,-38,-94,-2077,5668,-8191
62,-62,119,-3395,5107,-7975
-96,7,-117,3694,-8709,-2240
-63,106,-46,-11186,-935,3296
81,-55,-82,-3489,1642,2406
104,-50,-86,9789,-3125,-1354
-75,-35,14,-7725,9897,-8509
-99,88,-5,3124,724,-2625
31,16,-84,2359,-3561,4304
82,72,44,5301,-5368,5420
-93,0,-89,3015,-3795,9358
73,52,73,4022,-3724,6501
75,-28,-103,-2247,1526,2880
-12,0,-29,3340,-1860,4597
111,-37,-41,488,-1899,5957
-101,89,-116,-1704,1202,3280
-26,42,-105,-1536,-1188,-1021
114,12,-57,791,969,-1366
11,28,-122,3009,-450,674
40,-51,127,491,-646,15
98,-99,-95,0,496,-684
70,79,-94,713,-810,-78
55,83,-88,775,-451,-118
57,93,-78,-239,143,-309
82,86,-101,40,5,-253
66,78,-118,40,-249,-51
100,117,-108,-138,118,-108
106,117,-121,-79,100,-111
107,118,124,154,-165,-4
114,-123,124,-6,-89,42
121,-110,117,-187,17,35
-128,-97,115,-131,-112,98
-123,-87,117,-187,0,41
-122,-73,116,-205,-1,-14
-113,-70,111,-191,24,-15
-105,-62,108,-125,-173,59
-105,-51,101,-142,-57,-55
-106,-72,80,85,-342,50
-71,-24,47,3062,2589,-6529
21,80,8,-2036,1885,-6691
11,15,-61,-5209,6290,-8140
77,9,107,-1256,1654,-8507
51,118,-40,-4085,5219,-6262
-15,87,-29,-3281,-1049,-989
114,-65,-87,-3137,-2284,754
-126,51,105,727,-7757,4193
126,-61,-91,6686,7451,-6277
-101,104,113,-2765,7405,-4261
-3,-33,73,3295,-3904,2780
36,20,109,2512,-3131,5002
-8,-76,9,3440,-7186,10193
29,-101,-57,668,-519,6703
47,59,-109,-519,-319,4103
55,-80,10,-420,-2190,5188
-79,-36,40,-435,-3008,6241
36,102,-10,-1869,1404,3043
-103,-59,-112,984,195,-3886
-21,24,-72,4028,-1086,-1017
-50,15,-121,1584,-1516,1671
53,50,-102,-1846,967,-558
111,-95,123,-137,697,-240
58,86,120,1414,-1196,6
76,71,-104,1155,-240,86
36,66,-105,702,-256,145
38,70,-90,451,-130,265
77,78,-110,425,161,80
83,76,124,432,-137,183
81,91,114,691,-241,225
79,118,123,-79,173,53
86,-121,-125,-249,69,33
83,-117,124,115,72,13
101,-109,122,320,-58,-27
106,-112,116,57,-238,-86
113,-109,109,19,-10,-178
118,-119,95,38,-312,-204
124,-111,89,84,-424,-144
117,-102,92,-206,-164,-124
-128,-98,69,-171,-392,-333
120,95,-7,-2684,9290,-14962
-106,-76,-38,-2171,2858,-5923
15,113,-41,-1967,4251,-5448
126,66,126,-3968,7624,-6016
-68,-73,-70,-2732,-2101,-501
108,-122,-72,-1219,-2503,-516
84,20,105,3470,-14251,7161
-40,88,-128,7957,12169,-7528
110,76,-126,-6642,6236,-1840
-40,-30,-20,5427,-4862,2937
-35,-99,-9,-1019,-4129,3361
-91,81,21,6,-7744,7373
52,46,118,-7,-2769,3745
78,4,50,812,-268,3006
-40,-13,-33,1019,-2978,3289
-90,-45,-102,1019,-7080,5355
-45,-49,-113,-737,-1442,6041
99,-29,-117,-2610,1978,-1123
98,-96,91,2615,3588,-3756
-116,-124,38,4371,-3319,650
-83,-56,-121,-1944,-929,726
117,41,-37,-1149,2175,-1047
107,-89,-110,1912,-292,-590
87,-32,-107,1283,-620,-168
79,-39,-117,166,345,-423
97,-62,-103,-362,3,-144
113,-54,-122,101,-213,-147
108,-34,-117,-107,-23,-413
124,-59,116,2555,-1025,-1115
101,-54,-103,-895,461,-163
114,-77,126,-86,139,-293
120,-81,-122,-104,-105,100
-121,-52,-125,-25,-69,92
-122,-36,-126,152,19,21
-116,-45,126,359,-167,188
-107,-40,117,96,-166,248
-113,-33,114,48,-513,431
-117,-31,109,365,-642,514
-99,-20,116,-265,-131,276
-104,-21,89,-388,72,252
74,87,-126,4468,2657,-4253
-15,102,49,-1291,1974,-7593
-69,-120,19,-959,2032,-6988
27,-87,65,-2089,6048,-9072
12,-18,9,-2654,6009,-5790
25,67,103,-2969,-2455,-1606
-49,121,-109,-4155,-2978,2996
104,80,94,-1309,-3135,1827
-100,-78,28,217,-2246,-635
82,-54,53,3562,4732,-4297
-39,-51,47,663,704,-502
-101,109,13,1784,-6131,3070
-16,1,120,1394,-4667,4391
-77,-26,29,1995,-6243,6069
33,21,67,1289,-1771,5247
-42,-63,32,1040,-192,3220
116,81,44,1705,-2319,4469
95,-48,-77,116,-3056,5038
-4,38,-13,-3220,245,2066
-79,99,87,-930,1519,-3178
17,44,-9,4553,584,-687
-46,60,-114,1780,-770,411
59,2,-85,-1690,482,-538
118,-87,-98,-74,656,-536
95,-122,-112,1269,-708,-53
101,-98,-89,191,340,-448
103,104,-103,569,-28,-212
106,104,-92,205,-130,-198
101,99,-98,48,-79,-137
111,116,-79,-6,-250,95
114,-117,-80,-198,89,162
112,-87,-78,-164,-209,285
-127,-57,-72,-367,152,121
-112,-68,-79,238,-178,261
-107,-39,-79,-124,21,55
-105,-36,-86,-120,39,-8
-101,-48,-95,280,-95,-18
-100,-59,-92,60,-9,12
-90,-44,-97,-49,-19,-149
-88,-73,-100,236,-60,-97
-52,-71,94,599,3822,-11686
124,-73,106,-2110,1955,-8412
98,124,16,-2850,3992,-10269
-122,-8,-57,133,7592,-7572
-71,-94,70,-1149,-14037,3171
115,61,-118,-5846,-4041,5529
114,112,-30,915,-6907,3804
-2,89,1,9042,5230,-7873
-111,67,-127,-2470,5735,-2383
-9,-81,61,-92,209,233
6,53,-30,3414,-4367,4076
-57,-91,63,-159,-5730,7351
87,56,-51,3478,-3957,6832
-87,-122,-29,-674,-2869,5761
-49,29,-46,2276,3259,2967
73,-128,87,1726,-3328,6136
-90,-125,-111,-782,343,3991
53,107,-48,-2124,-188,-2305
81,-120,-97,3009,-1015,-1412
-67,-35,-90,3321,-1718,688
-19,123,-95,1524,-2067,-25
46,95,-69,-2275,1832,-918
53,27,127,-311,325,-235
29,73,-111,1016,-1153,-77
40,89,-92,-17,404,-439
55,58,-124,198,123,62
65,104,-123,32,-236,-12
80,105,126,-123,387,-1
95,-122,109,143,-237,-82
98,119,109,-124,202,-17
97,-113,106,6,-98,-87
106,127,105,18,81,88
118,-105,99,-145,-4,18
124,-95,95,-249,74,-72
-126,-87,94,-111,-20,-93
-122,-91,94,-41,40,-49
-122,-75,90,52,-76,-70
-112,-91,88,42,27,-93
-102,-94,86,149,-128,-4
-108,-87,83,-255,4,18
-24,-37,22,-1339,-951,-9420
-58,41,-97,-6308,7192,-9917
-24,18,119,-2137,170,-9181
-118,52,109,-2957,7791,-9787
34,-52,25,-2344,-1514,-4415
-72,-100,32,-2924,-2046,5713
-110,6,-4,-5341,-9724,1188
-114,107,-61,-558,1039,4275
60,94,47,9490,3922,-7562
117,-98,22,-1489,3195,-1345
3,89,93,1481,-3242,2727
74,-49,-26,2232,-2871,3896
89,64,120,985,-6785,8226
-77,-4,-57,1108,-2401,7072
91,-88,28,384,-2562,3486
-128,-79,96,1774,194,2699
-41,-94,21,1122,-6150,5076
32,81,88,-2142,1219,4321
-33,-15,15,-3502,2194,-61
61,-61,-108,1272,1572,-5238
127,79,-110,8173,-1704,-931
-31,0,-36,1350,-174,-148
11,-125,127,-967,538,216
108,-78,120,-1990,925,-686
-118,-116,-124,-396,-273,-482
104,116,-108,845,-525,-459
90,91,-108,735,-338,-70
86,-115,-100,-563,81,-79
99,-111,-112,-592,41,173
-125,-48,-116,-449,-29,53
-117,-21,-124,-491,69,-184
-114,-15,-122,-131,-37,-164
-122,-23,124,93,-50,-84
-122,-19,125,31,-81,49
-117,-10,127,-213,70,70
-101,-6,127,-15,-76,78
-89,-2,-121,6,34,-62
-87,-14,-128,85,-12,-78
-85,-11,125,-20,93,-186
-84,-32,120,73,-11,-22
116,-15,-50,6307,-2302,-12296
-37,127,109,-9464,10721,-8142
-18,9,58,-2693,415,-7793
100,-43,79,1749,9527,-7479
-6,47,-78,-6476,-536,-1054
-57,-46,114,-5722,-2458,2314
-88,-57,-26,-316,-3033,7552
-96,62,-6,578,6593,-8983
93,25,65,-1833,9129,-3833
-12,-43,-62,2017,-2468,2019
-81,83,116,1934,-1810,2592
56,10,61,-879,-5399,5827
-65,-7,123,2181,-2424,3388
17,56,51,-2528,-2355,4133
115,117,-41,554,-3666,4564
77,-107,-73,2222,-4162,5977
59,-33,103,4969,-3599,8606
60,45,81,-2679,2415,5146
-121,-86,125,-2028,-1025,-5514
20,9,-78,4468,421,-5078
-60,102,-41,4788,-2299,2431
-108,106,-91,324,-1986,264
19,-125,-117,-3786,2430,-467
79,41,69,-3119,2211,-978
55,19,117,2294,-1561,69
21,41,-110,1530,-1771,-282
35,59,-115,-1639,1126,-86
48,78,117,-560,87,58
68,122,111,312,-238,205
83,-121,92,-300,477,2
97,-107,75,211,-126,-143
98,-118,73,66,87,-146
92,-116,70,93,-230,-20
114,-92,77,-371,299,-137
110,-106,70,142,-62,-111
123,-109,73,136,-24,-130
122,-117,76,-5,-58,4
124,-96,83,-163,58,22
-125,-82,79,-140,1,70
-116,-63,77,-125,102,39
-45,-83,116,3989,399,-7464
57,-70,61,-1885,7970,-10848
-78,113,-54,-7825,7118,-7925
-22,68,-41,988,2288,-6117
-27,-122,-103,-3056,4135,-5524
-30,-128,80,-180,-8616,3965
37,55,-67,-4316,-6006,3561
-93,92,-62,-1870,-1332,3394
-70,-20,84,11952,7735,-6539
-104,-82,57,-3264,4685,-2375
124,58,86,1314,-4848,3802
-120,-116,-10,72,29,4507
68,47,29,-1554,-6860,8914
44,3,-56,2788,-8180,5939
49,37,20,-328,1329,3491
-120,78,1,2422,-155,3461
93,47,8,3674,-5012,6685
-62,89,-27,-2799,614,4651
-128,-126,80,-3988,655,-4167
60,44,-99,3949,2607,-5195
21,61,71,7978,-3532,1639
-90,90,-72,753,-1973,1506
48,-17,-115,-4331,2336,-658
97,107,76,-3550,3179,-843
81,64,97,2356,-1294,268
65,88,125,2081,-1144,-472
73,36,115,-74,600,48
95,119,106,-994,301,21
91,-128,92,-254,-114,-42
117,126,93,65,222,12
111,127,87,342,-422,95
117,-99,101,-308,196,70
113,-109,102,-34,-11,155
125,-97,96,-86,60,129
-113,-88,78,-56,173,66
-115,-104,66,535,-253,91
-110,-100,74,373,-138,58
-115,-99,76,-390,73,55
-115,-105,76,-211,63,-7
-116,-109,69,134,-87,114
-110,65,111,-135,1956,-9579
-12,-42,-28,-6470,9496,-9816
-16,49,17,-671,4641,-6889
-60,-49,-30,-884,4421,-6814
99,-61,-70,1277,-753,-3052
-18,-103,34,-7854,-5216,2705
12,-86,53,591,-1857,1324
-2,-102,30,4699,4782,-4920
40,-61,2,1829,3883,-5212
-5,-112,96,35,211,1001
-110,-40,82,3071,-4482,3584
-46,-47,-34,1134,-5120,6771
89,15,111,1608,-6935,8658
-80,-48,-9,1427,-901,5162
14,59,57,615,708,5932
11,-71,-51,2098,-3835,10315
7,46,23,-4596,-2473,4234
-52,111,98,-74,-250,-7306
-108,43,-44,7278,2996,-4347
-7,42,122,5814,-2205,3343
-55,-86,116,610,-2843,3132
76,29,79,-5493,2668,-1038
119,-105,64,-4271,4414,-1793
102,52,121,4807,-2870,270
36,39,-94,3267,-2645,-64
55,67,-80,-1836,1403,-415
95,83,-126,-1796,1346,-401
101,76,-124,478,-460,62
113,-117,-112,44,-225,84
-123,-49,-120,-1193,808,-303
123,-45,100,154,227,-412
-115,-90,100,1254,-180,-485
-98,106,96,1038,-110,-402
-100,107,99,249,-254,-260
-108,110,104,-472,168,-231
-108,96,107,146,-193,200
-90,-111,112,-186,-52,115
-97,-88,105,-185,19,112
-94,-74,115,-30,-165,259
-67,-63,116,-277,125,255
-46,104,-50,2567,8156,-4313
33,-12,-124,117,-4371,-4671
110,20,-68,-1212,-2169,-5539
124,-53,-101,-3247,-751,-6921
-124,-17,-49,-1956,2222,-3085
-98,0,-53,-768,763,1285
17,86,101,275,-733,3530
-120,-22,70,1962,1018,4179
62,28,-106,-680,-761,-747
-53,59,-71,-2394,123,-3592
-111,-33,-72,-293,-511,-1050
104,64,92,1337,-340,114
62,-16,12,-315,1405,-1132
-122,96,35,921,-2076,1028
120,-75,86,945,-2345,2256
12,26,125,493,-646,1814
15,-50,104,1371,-583,3431
57,1,-28,-1359,-1476,3309
-11,71,1,-1329,698,2584
84,38,16,922,-2088,3219
23,-3,35,163,-63,2048
-22,-98,20,-228,-845,2165
-46,34,-12,885,-140,2193
-45,41,-64,296,-405,2057
-72,21,-80,1055,-894,1459
-90,-126,-91,-577,148,-583
108,-28,-122,602,-45,-800
78,123,-115,817,-169,-264
85,106,116,901,-349,-279
107,123,-128,-479,135,-409
94,78,100,261,-16,-348
119,94,111,-159,32,-44
121,106,89,-130,-140,-157
-121,117,104,-186,139,-22
-128,-115,85,47,-146,162
-114,-75,96,-137,47,-31
-115,-86,85,139,-45,-4
-108,-74,90,-103,44,21
-106,-74,81,16,-111,29
-97,-71,82,49,31,-56
39,7,74,6759,-9,-3438
3,-12,7,-1010,-2313,-5929
-38,-47,4,-1748,671,-7098
-57,8,-97,-1946,2299,-6144
87,90,116,-1264,730,-3822
124,83,-125,-925,2029,-783
-92,110,40,-417,298,1582
-31,100,106,-2202,887,3149
29,122,53,1619,-251,4586
60,95,23,691,-417,-3518
-90,-27,101,331,1611,-3655
-126,96,34,2006,-2134,-758
62,55,-103,1089,-2598,372
-93,-8,-65,-1417,-1448,-402
-68,72,123,1127,-1721,1706
22,-103,83,3469,-1535,2848
-34,-65,-58,-2541,2224,2777
113,95,85,2596,-1300,4203
11,85,-47,-2179,165,3938
88,13,5,1187,-858,3306
104,11,42,-99,-1026,3561
86,-100,1,594,-233,2226
-3,39,-28,650,-740,2716
-60,78,-28,163,-471,1858
-104,-110,-52,-751,-81,168
77,15,-94,668,-560,-406
54,-106,-72,726,-266,-496
73,-113,-96,-54,231,-669
87,114,118,-346,123,-561
89,118,101,-328,-178,-450
89,114,112,-409,141,-513
126,105,109,197,91,-75
120,-128,88,58,-137,-120
117,-122,92,-156,-115,-73
126,-116,82,-150,87,-44
-125,-110,89,91,-121,269
-110,-49,74,-280,4,-53
-117,-69,90,245,-115,16
-108,-54,92,9,81,60
-95,-23,78,-425,62,-204
-105,82,120,4698,-4360,-2703
-17,21,-19,-1416,1369,-5471
59,53,45,-4660,1327,-6554
-102,-61,8,-2921,2427,-6833
-7,-56,-64,-1222,2013,-2808
43,-74,46,-115,2533,1159
37,-22,-2,3137,-5408,6457
-112,-80,23,-2427,5667,-311
-115,122,-31,-1919,-95,-5106
60,21,102,43,-1128,-1257
52,118,80,1923,562,-276
-119,-93,21,-348,-2693,1648
-85,-25,54,2022,-288,491
-53,-19,-61,1182,-1217,2291
-9,-93,-80,2207,140,2805
-113,-38,104,1153,106,3630
-95,-8,-102,575,-713,2913
59,82,-33,-2098,565,2519
2,-68,-44,681,-1290,2558
38,-103,36,-992,430,2026
-5,-26,-50,985,-370,2427
22,-26,-31,-132,-599,2231
4,2,-28,-271,-202,1710
-70,69,-47,-497,-545,598
127,33,-113,148,-370,-639
103,-96,-91,823,-363,-666
112,-60,-71,-1714,570,-1063
96,94,102,631,-90,118
122,-92,125,-62,26,-295
-123,-101,107,-338,-89,-246
-112,-111,112,43,48,-202
-112,-115,99,113,-18,33
-108,-99,89,18,-7,-102
-103,-99,94,48,-54,64
-103,-86,88,199,-37,15
-92,-71,89,-39,-39,114
-90,-65,87,99,-115,89
-88,-62,90,108,13,17
-86,-51,90,-156,-102,4
-86,-63,86,45,-27,-7
84,-61,-26,-3260,1227,-7395
-16,-10,51,-2054,905,-5718
-47,-44,-109,-1265,945,-1969
-110,-84,103,-868,995,1514
121,29,-33,-1247,-561,7030
-53,98,-18,1614,-2036,3904
107,3,-44,-375,1722,-6833
21,91,79,171,-2246,-1306
98,-111,-91,819,1803,-1438
-15,91,8,-337,-1328,703
-54,-68,25,1891,-875,411
7,-40,-21,-315,-1518,2417
-36,31,-17,1270,-645,1316
49,-25,-38,773,-1163,2514
67,-117,-46,3414,-484,3734
-72,34,6,-1307,1804,2396
-39,-112,-104,-247,-606,3506
17,-1,-5,-667,-1101,2687
17,127,9,59,-598,2495
-18,58,-4,-17,-361,1935
-43,-47,-35,444,-778,2247
-69,-38,-57,205,-600,2255
-107,-18,-51,160,-701,1365
114,-7,-89,202,-143,-414
47,-98,-98,311,-193,-835
52,86,-76,523,-84,-148
54,-113,-116,70,-104,-343
69,-122,-115,-152,-69,-370
90,-116,114,-175,66,-621
106,117,98,-158,-87,-561
117,122,98,-498,101,-574
111,83,94,220,-97,-299
113,92,91,125,37,-77
116,111,80,26,21,49
126,-125,68,26,-48,85
-121,-115,75,57,-91,184
-119,-92,69,28,-8,131
-119,-84,80,53,-64,281
-110,-60,73,6,-81,129
-100,-57,84,0,55,27
-114,6,74,-2457,1857,-5691
51,62,-27,-2336,1394,-2517
-124,-97,-9,-2614,1193,-796
-93,-110,-117,-792,1135,7235
-33,42,47,1605,-316,3432
-5,-25,-77,-716,190,-4694
82,-51,19,965,-153,-3057
-68,-118,6,190,-1245,-905
32,79,70,868,621,-993
97,95,46,131,-1714,1412
-9,108,52,2367,218,1211
-50,26,-117,804,-1122,1630
69,-83,-86,1851,-1119,2813
89,124,99,3824,-899,4118
-85,-120,-45,-1884,403,2355
-57,-8,-89,-488,580,2398
-71,-105,-82,698,-1034,2749
-13,-89,-29,-1449,30,2001
-49,51,-31,-412,-141,2054
-46,-21,-77,-152,-482,2025
-39,-47,-54,-79,-535,2116
-64,-15,-79,-497,-545,1688
-101,0,-100,-215,-388,883
105,-22,-97,-428,-422,-73
80,-39,-112,-9,-89,-240
82,-50,-114,160,-49,-506
84,-95,126,95,-96,-481
91,-93,108,-144,32,-567
103,-125,98,146,124,-481
108,113,78,340,-36,-354
117,115,73,100,47,-197
119,118,68,-12,-2,-109
124,118,66,142,-99,40
-126,-117,62,-99,18,80
-120,-95,65,-30,-33,147
-121,-84,71,65,-73,206
-108,-59,69,-35,8,97
-105,-58,67,-9,-7,39
-103,-53,63,-40,-45,11
-104,-66,61,140,-38,-8
-25,-27,-64,5995,2011,-4134
-61,-66,75,1445,-4636,-2342
5,97,44,-5010,1998,-7786
12,-63,-58,-3090,3363,-6858
-89,-57,94,-1728,1451,-3441
-42,120,-92,-922,2185,480
-80,0,0,-906,2060,4554
37,-81,-47,-1093,3112,4839
-7,-53,54,1253,-1713,-4497
108,-46,50,-3,-1028,-3090
117,88,1,250,-520,-300
-46,105,-117,1353,-1055,46
-69,-1,119,-596,393,917
-58,-40,-50,1573,-652,443
13,18,-21,714,672,708
-55,-19,102,1030,-1236,1921
102,36,-71,-16,-719,2589
93,52,-87,1799,-632,2262
-79,58,10,-1791,198,1889
-119,107,-17,1248,-555,3139
-28,11,-7,-690,-473,1804
-39,-104,22,-494,-458,1810
-75,68,19,143,-414,1859
-62,-23,-19,324,17,2100
-47,-34,-45,88,-776,2040
-58,-9,-21,-231,27,1645
-100,-69,-76,689,-652,1544
115,-33,-77,-573,-779,1019
103,6,-90,-1458,94,-56
94,-7,122,-223,-984,-1118
87,-92,-82,-73,194,-723
69,-119,124,441,56,-293
99,-107,115,-118,147,-314
118,-119,85,259,64,-285
110,-124,82,170,-48,-350
117,110,89,118,130,8
126,-113,69,-81,-28,-1
126,-125,74,0,-132,209
-120,-80,71,-75,32,129
-117,-82,81,72,-61,225
122,-92,58,3997,-5467,-2761
-114,-13,-89,-2965,3563,-7197
-99,-14,-105,-1793,-546,-7081
71,38,-43,-2912,2133,-4995
-1,-76,32,-2188,1516,-2413
-44,36,-73,132,2005,1508
11,78,3,-1640,-246,7404
2,100,86,106,809,-472
46,64,105,-341,-2006,-4422
80,68,57,997,-616,-1198
83,78,-118,899,-549,-488
-53,7,71,611,-872,-1541
60,-44,19,-220,242,-111
-79,-65,8,679,611,-270
-86,-78,-60,783,-298,468
-86,-37,79,589,-1156,1970
29,-77,-115,1702,-1100,2535
86,-33,76,907,-1000,3357
-104,70,-50,-402,-54,2350
-66,-106,-63,802,-142,3287
-16,-32,-68,66,-421,2520
-11,-57,18,-451,-353,2124
-52,-124,26,93,-505,2015
-24,63,0,-134,2,1393
-69,-1,-59,421,-258,1191
-109,11,-28,-250,-383,801
120,-83,-53,159,170,1308
104,-128,-98,803,-262,1749
109,-112,-106,301,-238,1612
-119,-77,-112,-71,-101,794
109,-12,-121,-1052,-51,-350
69,-113,125,191,-186,-639
91,115,-118,641,-54,-475
101,103,117,173,-73,-573
103,72,98,-275,-85,-597
108,75,92,-229,-83,-320
103,52,86,69,-32,-51
114,88,83,-128,59,20
125,109,76,-97,-177,149
-126,-122,82,-62,2,99
-87,81,117,4886,-5408,-287
-46,-16,-42,-2092,2688,-5602
21,37,98,3013,-748,-3566
80,-10,-19,-4271,-1230,-5580
44,-5,-3,-3403,427,-6836
47,54,81,-3642,1823,-3934
-125,-66,20,-608,2706,2135
-21,31,1,2690,-2778,5342
77,-34,54,-274,1204,4100
55,22,-113,1024,-1426,-4657
-28,8,97,-731,-1454,-2271
-120,1,115,305,-732,-652
47,-75,73,336,-316,-227
-40,-26,4,851,283,164
-34,-45,-19,893,665,360
-54,-59,-62,-178,1051,849
-14,-108,76,1978,-1182,2139
99,-50,116,-19,95,2083
127,9,55,879,-345,2415
-62,31,-86,-1600,-583,2914
-30,-8,-26,433,102,1515
-8,-1,-58,574,-808,1980
-56,-52,-5,-157,193,403
-81,102,7,-1017,694,380
-96,-5,-70,376,-441,1535
-66,24,-23,-607,-154,1372
-58,-30,-41,-432,-67,973
-53,-95,-58,201,-278,1562
-54,-64,-65,-502,-79,1464
-69,-108,-79,-635,-482,1510
-92,-61,-86,-1401,-80,1236
-82,-14,-116,-345,-329,697
-96,23,119,623,-236,-716
-107,-83,-120,674,5,-535
-124,-113,107,397,-146,-113
-125,-92,105,-25,-298,-191
-107,-91,115,35,-77,-331
-110,-121,112,182,-155,-56
-111,-92,98,-53,-54,-268
-103,-122,107,59,-62,-62
18,-101,84,-3068,3775,3962
40,76,104,4639,-5385,3693
50,41,62,-1730,-4497,-4555
-102,123,117,-1667,2535,-483
18,71,-10,3097,-2856,-25
10,-20,-26,-921,1253,-28
-125,89,-71,2288,-1470,664
0,-79,-123,-807,-518,967
118,-31,-69,-721,1992,306
-5,18,68,-564,-2466,2187
-68,110,-16,-1876,66,362
-57,-65,-21,2652,-382,2867
-61,-19,-54,-411,165,1891
-69,-65,-69,-192,477,2291
14,-29,-29,-130,-294,2162
-11,-126,-24,244,-641,2046
-22,75,-18,-520,-176,1469
-32,-35,-54,532,-324,1714
-41,-94,-89,970,-356,1739
-42,-111,-41,-588,-218,1946
-87,-76,-84,-242,-17,1286
-101,-63,-94,233,-93,869
-80,-17,-119,30,170,80
-104,-40,101,508,-389,-962
-113,107,-109,675,-172,-604
-126,85,124,464,-235,-847
-104,68,-111,-22,-19,-661
-114,26,-123,181,-126,-194
-112,55,115,13,-119,-268
-105,64,-128,-284,-19,-31
-102,77,111,11,-80,252
-90,-126,102,-347,-7,193
-89,-111,99,31,-22,74
-83,-84,99,-128,69,151
-82,-76,81,5,-126,2
-77,-86,87,49,12,-47
-77,-89,81,40,16,-37
-71,-90,76,27,-8,-51
-68,-88,78,70,-68,-71
-67,-91,82,28,-53,-26
-15,-118,-107,-1519,2422,6315
-17,107,-68,-865,1527,-1536
-121,78,-117,-413,-1513,-4432
88,2,-53,253,-1321,46
-18,-23,6,1083,-1960,721
-6,27,-113,-794,-244,-495
-124,-111,-57,1105,289,56
-17,-75,105,-213,-771,156
17,-54,-74,-359,376,1083
8,-25,95,1936,-1082,1911
122,19,-58,828,391,2114
-90,32,107,651,74,1826
-99,22,-85,-1125,284,2236
-67,-32,-103,-466,-51,1608
-49,-101,-49,-666,115,1913
-4,-109,-76,-473,-402,1582
-48,35,-61,336,-479,1923
-28,0,-48,-348,-345,1844
-37,-18,-67,447,-133,1666
-52,-51,-84,-91,19,1092
-95,-99,-104,-17,-290,1360
-76,-46,-126,-1349,206,529
108,-107,-116,-606,-334,1035
-112,-84,-88,244,-339,1249
-107,62,108,-165,123,-688
-108,-53,-126,789,165,-1233
-116,103,120,588,278,-468
-110,106,81,227,-128,-239
-97,127,94,-167,-20,-524
-101,76,100,131,23,-137
-90,90,84,317,-2,-19
-93,122,88,-300,-144,75
-86,-95,93,-149,-27,-49
-79,-98,108,224,-54,179
-77,-75,97,-99,-13,-3
-81,-75,103,-156,39,126
-68,-54,93,120,64,-65
-58,-52,88,44,46,-214
-59,-71,91,22,79,-130
-67,-75,81,359,14,-137
-100,56,70,-3375,-567,-6556
-61,-59,10,-1449,1056,-3921
67,84,120,-1974,1082,-263
5,-4,82,1001,-1058,7543
-112,-24,84,-666,1885,2251
-35,-93,-69,2074,-4714,-3429
-20,-66,3,-1141,-1080,-1160
112,3,122,462,-951,-885
110,124,7,534,-934,380
10,-81,7,753,-544,-335
-50,-88,3,545,491,474
-82,-11,-90,1307,-1209,881
12,-7,-50,-252,1069,1378
-6,-57,97,2434,-532,2120
90,-31,115,902,298,2170
-111,4,119,-1204,460,1599
-121,-84,-106,-298,364,2125
-86,-64,-62,-1248,160,2211
-49,-124,-95,1301,-797,2510
-14,-60,-38,-845,190,1272
-49,74,-47,-267,-90,1592
-67,13,-66,117,134,1228
-57,-46,-80,421,-291,1662
-80,-49,-86,-387,-117,1446
-78,-103,-84,-1,-250,1406
-87,-102,-93,203,-178,1399
-107,-107,-106,384,-344,1066
118,-105,-101,-202,-210,601
122,-112,-128,-241,-637,416
118,-68,-127,-217,-73,-393
105,-116,127,386,-98,-514
107,-128,110,171,-124,-544
112,110,105,27,-68,-606
113,84,100,119,70,-476
121,65,90,201,-47,-203
122,84,88,-58,4,-97
-122,88,82,-55,-10,46
-123,102,76,140,23,97
-108,126,75,55,53,121
-107,-104,62,33,-60,37
-11,44,10,4056,-4068,-1931
-43,-112,-104,-1018,198,-4850
123,-42,-64,2092,-1725,-4133
115,120,107,-1689,-2193,-5659
79,95,-97,-4104,963,-4852
48,21,40,-344,3249,366
-69,-4,115,3196,-3135,5585
-81,-103,-44,-2061,5719,-35
15,97,-43,-1810,-726,-4511
87,114,-73,-563,-327,-497
-29,-9,65,355,-896,251
-119,-70,-81,37,-447,-298
104,-25,-17,909,426,-647
-21,-17,-56,-476,-47,729
53,31,-55,638,-28,1323
55,36,-102,809,77,1402
-125,-28,-95,594,451,1819
84,41,83,-1034,-57,2047
-13,23,-93,-1011,-555,2310
-34,-98,-98,1840,-51,2213
-16,-3,-89,-763,-534,2040
-69,-98,-50,-836,-610,2087
-36,-109,-33,271,-626,1661
-38,73,17,11,-74,1106
-71,0,-40,-177,206,1113
-75,-74,-82,536,-368,1485
-69,-84,-61,554,106,1395
-72,-79,-106,444,-207,1320
-95,-111,-120,602,-438,1122
-114,-95,-106,-308,122,549
124,119,124,0,-136,529
120,113,-123,-375,-91,625
-126,-111,121,-409,123,350
115,-109,82,-34,-185,-234
-127,124,89,183,-134,-698
127,93,84,491,-400,-416
122,101,89,183,-310,-509
-126,84,109,-262,136,-205
-128,74,77,25,-143,-148
-117,100,87,-212,-41,-118
-111,31,-54,3761,-4846,-2132
16,-118,16,-2417,462,-5651
-9,114,102,-2024,-814,-5709
31,-127,-14,-2046,-1276,-6750
-5,109,-116,-3976,3319,-4556
-97,105,19,2890,-76,3292
3,15,67,-934,2085,4763
-103,-109,48,525,-2868,-1778
112,-15,48,-2636,450,-3130
-102,-7,10,187,-1864,701
70,-86,58,501,-703,-184
123,-12,-44,-749,679,184
26,-15,-77,114,159,441
-68,15,-96,-582,498,326
12,-20,-110,447,202,1631
34,19,68,1394,-460,2045
-109,26,-109,980,-285,1921
-55,41,121,-96,688,1892
-110,-50,58,1133,-1086,2349
-5,16,-52,-1517,910,1487
-41,-59,-98,222,-60,1448
-54,113,-84,760,-254,1305
-50,88,-97,-362,-358,1290
-70,42,-61,-602,-19,1043
-66,1,-76,-357,166,780
-84,-101,-100,1200,-432,1721
-76,-69,-52,-44,-200,1222
-76,-88,-92,-455,187,1037
-87,116,-108,328,-231,1174
-86,120,-112,174,-152,971
-109,97,123,298,-320,958
-113,119,-102,-394,111,795
-118,-92,115,-270,-130,215
-118,-93,109,83,-126,-293
-126,-121,103,141,-94,-423
121,99,85,397,-242,-675
-118,68,111,-34,185,10
123,97,78,-60,-33,-254
-114,86,87,156,12,-57
-102,95,77,119,76,-240
-93,109,-88,6464,4348,-4537
24,16,-75,224,-6182,-3571
-35,-58,54,-1125,-574,-4798
-66,-78,-125,-3183,624,-7208
21,-53,9,-1923,-1444,-4929
6,-123,-6,-2537,4051,-1987
125,35,92,-98,-288,6243
89,29,77,-2535,6271,934
-98,-32,43,-467,-3778,-4570
-106,-13,-79,-414,15,-709
81,73,63,1335,-1509,-226
-32,123,7,71,-179,-996
75,-75,-18,1647,-197,355
-29,-45,-77,495,-178,308
-78,-65,-128,209,-675,1269
-67,-80,83,465,-266,548
12,-120,60,1210,-194,2407
65,-48,98,1197,201,2326
-57,94,-91,-917,981,2634
-79,-9,106,1434,282,2179
-50,30,-113,-1227,293,1532
-57,127,-109,275,179,1923
-44,113,-99,-209,-348,1454
-51,26,-50,-273,0,1545
-54,-38,-86,608,-59,1470
-41,-96,-75,124,-150,1843
-31,-107,-87,-330,85,1816
-72,-92,-121,-594,-312,1587
-106,-104,-101,-166,-93,1397
-120,-84,-92,-362,-131,741
-107,-52,-123,-221,-306,68
109,-105,-123,590,-179,-433
107,-127,-120,412,82,-445
119,-120,91,-143,-45,-551
125,123,55,-367,-153,-764
-127,93,82,101,118,-397
-125,60,73,334,82,-257
-115,86,61,-102,-34,-61
-109,99,66,-276,-87,30
-105,114,66,-15,2,64
-67,68,-97,3485,-4371,-2466
114,67,-118,-1912,1423,-6861
-121,-39,-117,-1756,-540,-6938
-100,-30,-53,-3129,2035,-5807
-118,-77,-50,-1574,3005,307
67,-96,125,3829,-4042,7580
60,13,44,-2698,5302,-1167
47,99,39,-3797,2611,-3795
-13,-29,-29,1398,-2706,108
51,90,17,1413,-1267,-388
15,107,126,-1046,97,-1421
96,-51,-43,779,52,-185
-20,-35,-99,290,-1060,458
-73,15,-79,85,-165,992
-80,15,95,792,-1203,1615
68,-41,109,2643,-544,1706
89,36,112,-80,796,2216
-88,-10,126,-79,1170,1688
-46,-102,99,705,-580,2624
-7,-11,-110,-1038,-64,2074
-8,-106,-80,-387,-34,1610
0,-128,-77,-41,-145,1627
-27,15,-87,384,-270,1596
-62,1,-84,-344,176,1319
-68,-83,-113,424,-515,1765
-44,-90,-103,371,25,1661
-50,-83,-103,53,-214,1366
-96,-77,-97,14,-268,1181
-120,-52,-105,-402,-271,550
123,-64,-124,-12,35,-220
115,-126,-127,406,-64,-300
113,106,123,227,198,-319
122,84,107,265,14,-204
-117,98,86,23,37,-153
-119,67,87,91,-20,-94
-116,85,76,-163,22,-139
-114,86,73,38,-28,-52
-105,95,73,1,-10,-13
-104,106,69,31,-138,25
-99,121,82,-149,51,2
79,122,-91,-1662,-1261,-7201
47,70,-70,-2427,227,-4598
3,-89,105,-485,3724,475
101,-17,-65,5045,-2192,5070
-16,-41,16,-959,2843,2340
39,-41,-66,474,-5703,-4313
-64,-43,84,-1067,683,-1140
71,-31,52,538,-1075,32
-92,-85,106,-849,-736,-294
-123,-60,-35,714,121,-318
-39,-128,-124,1258,-1923,1027
-41,-41,-78,-447,160,1330
32,-84,-117,965,-146,2312
68,-51,-103,1882,265,2750
-9,45,-128,-1381,1233,1797
-23,-77,67,802,-557,2547
-1,-1,-60,-1130,183,2220
23,-82,-72,460,388,1837
1,-107,-128,48,-243,1525
-36,115,-56,-1449,78,1275
-57,-7,-93,303,182,1202
-61,-67,-114,714,-451,1425
-64,-62,-79,-113,11,1157
-77,108,-101,715,-255,1245
-97,115,-113,576,-369,977
-99,-119,-92,-409,67,745
-125,125,-122,103,-252,614
-119,-99,-121,-40,-93,166
-119,-93,-124,-12,18,-335
121,119,113,202,-137,-407
122,88,113,96,-14,-401
-123,59,100,265,-25,-367
-108,66,95,52,-29,-45
-114,83,81,-36,-19,-194
-114,58,92,275,-25,32
-106,73,89,118,-36,187
-97,121,79,-251,84,-27
-98,108,81,179,-108,93
-89,-119,68,-50,-29,-32
-94,-126,84,-1,64,81
-116,80,42,-2623,-1168,-6637
-31,-25,106,-3333,2158,-5685
65,-75,24,-1022,528,-904
-29,54,-52,496,4083,5256
-18,109,-70,-3857,3459,2022
-28,-29,-22,-119,-385,-1221
79,-85,-104,-651,-778,-1935
114,1,16,301,-2042,-724
-89,-126,-57,-295,-469,-337
90,-69,-65,289,-947,-35
-13,-72,-92,-19,-603,179
15,11,-95,85,359,534
-68,17,127,407,-381,1098
79,-18,117,736,158,1746
71,6,101,-78,139,1271
-103,-13,61,288,100,2372
-46,-11,103,-717,-203,2432
-61,24,-106,-871,-230,2184
13,-84,-69,871,369,1752
-20,-115,-118,-36,-298,1734
-4,97,-100,-658,165,791
-24,33,-82,-1555,223,850
-60,-44,-21,407,-459,1944
-41,-72,-81,1048,-130,2051
-40,-57,109,796,-550,1745
-63,-46,-124,168,-778,1247
-88,-14,-118,-580,102,-95
-104,-19,112,-277,-222,-485
-123,-104,108,447,-137,-318
-107,-80,77,-453,-106,-846
-126,-112,99,-538,102,-630
126,100,87,378,-160,-143
-112,-127,88,95,-9,-312
-97,-116,84,6,211,-246
-94,-125,71,189,-169,-68
-97,-126,74,68,-16,50
-98,-108,71,-98,28,92
-93,-100,69,37,9,224
-81,-82,63,-44,97,148
-70,-74,55,86,-15,144
82,8,-30,-2350,10290,-1316
-75,-24,-6,-3090,-2609,-2214
-58,-95,-9,-524,93,-926
-102,67,-12,1082,-2302,598
-25,-111,-90,-290,318,153
110,-118,-70,227,-449,740
53,-124,-70,963,-604,792
120,-39,-101,-173,1105,35
110,-107,70,865,-390,1697
-106,-81,-128,-511,699,1627
-52,-109,82,1063,841,2217
2,23,61,-883,347,2317
-12,-119,-120,211,-737,2131
0,-59,-92,-1205,156,1775
10,98,-43,-129,-299,1702
-24,44,-75,-62,532,1179
-35,-73,-79,391,-491,1819
-23,-80,-45,138,41,1691
-16,-125,-79,322,64,1582
-60,-109,-97,-440,-217,1295
-78,-83,-106,-743,-174,754
-106,-107,-120,31,-29,353
-121,-104,-128,282,-264,32
-119,-107,124,98,-76,-258
-122,-125,115,37,-90,-445
-127,97,111,342,-46,-409
-116,79,96,348,4,-407
-102,80,89,145,-97,-328
-106,67,81,105,-100,-368
-103,69,90,-121,1,-181
-100,72,78,-73,-86,-51
-96,93,75,10,-51,-66
-87,103,80,-18,19,58
-87,126,61,-36,-64,-20
-86,127,75,-70,-15,222
-86,-109,62,82,35,94
-75,-100,61,78,2,82
-73,-100,56,148,-58,40
-73,-96,56,57,2,-23
-68,-96,53,75,-11,-58
114,113,23,7778,-1902,-2427
23,-59,84,-2529,-1689,-3988
-45,52,-106,4123,-2167,-3187
76,71,-104,-2471,-1753,-6858
-12,12,-28,-3781,-89,-8447
-109,-31,95,-2491,1881,-4293
11,86,65,3621,1632,3624
83,-33,108,-1049,-391,1640
-60,56,40,2052,-4902,-1252
-82,107,52,-890,671,-726
-17,25,41,1821,-1702,323
92,-99,1,173,1709,377
-119,-40,35,466,-1155,-275
85,-39,122,-1006,-466,817
-32,-106,78,937,-207,-124
44,-120,-110,367,-513,2452
100,-17,81,1818,-303,2216
-41,63,100,-1104,410,1945
-17,43,96,-708,756,1888
33,-64,116,1493,-527,2787
38,-91,119,118,-192,2356
40,-84,100,-118,-644,2188
-10,109,-23,-322,-158,1697
-58,-27,-66,1004,211,2198
-29,-66,-85,991,-390,2259
-13,-12,-56,-21,106,1913
-51,10,-101,-38,-64,939
-110,7,117,-157,-348,-377
-128,-84,125,225,4,-648
107,101,106,409,-194,-524
116,109,102,-338,-56,-591
123,78,93,-190,23,-536
-123,68,76,-74,-136,-472
-114,75,81,-187,24,-340
-114,61,73,195,-136,-172
-117,91,71,-297,-48,-90
-111,99,67,-170,-8,-14
-105,107,69,180,-53,124
-95,-121,61,-103,33,132
-102,-108,55,-76,-80,227
-14,-46,107,4263,2187,-4039
-23,-117,-21,1675,-3551,-4041
59,-18,-37,-2574,-1936,-4911
-86,-36,97,-2774,-2991,-6761
-5,46,-12,-5127,4431,-5543
92,-7,-64,4785,186,5365
-75,5,43,1449,-257,3126
23,-111,62,-5398,5098,-1415
17,-8,-37,-1828,-416,-2991
58,-116,83,-1027,-1238,-256
57,-70,-10,1299,-2016,113
114,92,-9,-1603,1102,-600
-113,8,-98,-188,-932,-772
108,-39,-78,-606,104,13
-125,-19,110,1424,-727,789
-55,-118,125,1338,-1085,3405
27,-28,93,666,411,2852
-84,9,22,1210,349,2431
-6,24,91,-1138,-301,2775
30,42,-115,-563,963,1750
61,-54,-121,1249,-1055,3180
10,-102,-88,-17,-55,2135
-24,60,-82,-104,75,2094
-27,-44,-109,1001,-189,2325
-38,-10,-110,549,-317,1937
-63,17,127,150,-289,924
-120,13,110,-135,58,-585
114,-100,115,837,-271,-284
107,121,106,366,37,-343
104,117,92,-222,-239,-401
116,91,101,21,-103,-297
121,70,90,269,-41,-259
-128,82,77,-65,-48,-289
-128,80,74,-257,-55,-227
-126,79,70,92,-5,-92
-123,94,69,-183,9,137
-118,126,55,-128,-13,45
-110,125,63,155,-2,87
-101,-115,52,62,54,55
-103,-114,46,20,-92,64
-23,27,4,7459,-6824,233
-124,-43,-106,15093,1849,-8550
-47,-20,64,-5530,5134,-11250
-48,-118,45,6293,-3958,-9958
-121,33,9,3699,-7800,-9502
22,-123,51,-9942,71,-8337
108,118,100,-24411,795,-4777
35,47,89,-9922,11777,-1577
102,34,125,-22941,16660,4998
-32,86,-90,30131,-1859,3123
-77,-126,112,-26754,31429,-13965
-44,7,-70,-31222,-16100,-4342
33,-105,93,-6596,-8596,19790
-86,-72,88,-27019,9482,-28995
96,65,121,-30105,15460,-9951
102,73,-14,-4463,30773,-5624
-59,41,96,10012,9655,20143
88,124,77,-17200,-28228,15904
106,-76,116,-16401,5503,9473
52,35,-112,13602,-24241,11960
69,-72,-107,-4806,-11725,10893
94,-56,21,20496,-13953,10739
41,-20,-43,778,-4981,6759
-37,-62,-76,5745,-1135,-256
-72,55,-12,11182,-612,-503
12,35,37,-1004,2166,3022
53,29,65,3109,1973,2983
-122,-20,-74,6170,169,1970
-113,-22,-115,2958,-2824,-81
-117,-14,-95,2901,-946,22
-118,-44,-102,4153,-2078,1007
-100,-37,-112,1705,-559,-823
108,-86,107,4983,-3473,542
122,-39,-96,-2764,-389,1192
-127,-37,-78,4803,330,411
-98,-58,114,1936,-1257,1087
-106,-40,116,2009,-2016,-276
-119,-80,100,3490,-716,1399
-110,-64,102,1535,-2585,97
118,-98,91,4217,-437,885
-80,-34,-19,-3668,3563,-10015
19,0,25,3446,1839,-1727
-53,109,-1,20998,-4791,2197
79,13,104,8520,24475,-8360
-59,123,35,-17763,12251,-3541
63,98,16,2336,16869,-14428
-114,118,-74,-21602,6546,-24863
-100,-83,-28,237,13642,-12877
102,39,45,-11867,14055,-9830
-7,56,101,25124,20589,17170
46,88,-24,-12515,-25771,-3748
-91,-100,9,-32370,27197,21599
-16,6,-28,8630,-4502,-27594
-93,30,-80,11208,-13924,-27413
108,110,99,-15552,6981,-15128
0,125,-32,-30109,-16222,-17131
-68,84,-92,2958,9617,-6791
-99,-35,-72,-8157,14253,-2038
-12,-115,15,9178,12690,3886
-80,-87,113,18010,-3962,8095
-31,9,-25,6159,-5234,17618
28,127,-9,22728,-11787,20886
77,7,-9,-2610,-17922,11986
49,118,32,4160,-14752,4875
-90,114,-71,2641,5277,3109
101,-8,110,6971,-12652,6114
74,-65,89,-487,7522,2586
-19,42,12,-2698,-921,2099
-4,3,-63,7533,-1641,-181
-2,-28,-58,2813,-3475,1565
-25,-55,-47,6957,542,-673
-10,92,-38,5737,-2465,1047
-30,111,9,1113,-1756,452
-18,108,-2,5963,-874,380
-50,75,9,129,-4019,806
-61,118,-7,838,-149,317
-52,121,2,3316,-1022,1258
-47,103,-12,3895,-1948,2010
-54,-124,-13,846,-881,1841
-62,-113,-33,3371,-1775,1440
-121,82,-90,-29057,3240,-14421
-123,-82,-40,10713,19546,-10708
5,-58,79,-14553,14420,-22921
117,6,92,-17326,8902,-22993
97,1,-99,-5885,11467,-23103
16,66,-24,-22835,15070,-8359
6,-94,-59,29365,22310,-8265
-7,-34,28,-9109,26473,-5139
110,-114,76,-31992,31419,-32524
-18,28,120,-31814,-646,5303
114,4,-77,32533,13342,-3768
-88,-65,69,-18222,12909,-13021
-79,116,-85,-30109,9717,-7864
91,-110,45,27690,-1823,-10100
20,-98,15,-2775,30220,2288
-124,9,85,28161,-6902,6390
-21,15,-66,22745,6694,17038
-28,-68,-3,4790,2708,3484
99,57,31,22808,-9336,18038
30,102,21,4078,-5121,24634
75,-27,64,8906,-25683,21726
32,-84,-8,-10278,-13470,22729
5,-68,-54,-4064,-6259,5404
-26,-125,-116,7804,-7472,4058
6,-94,118,-5386,-2169,848
-9,50,55,11849,1049,-2583
50,-94,32,-2199,-2299,308
30,-71,3,4258,989,-1489
39,62,-59,4178,-2358,2796
37,80,-57,3829,-166,1149
62,75,-49,2824,-3012,2296
25,44,-65,6244,-2874,1966
13,49,-50,1647,-2571,-87
-37,0,-71,4395,-2697,1757
-53,85,-34,-1487,-2738,1904
-58,106,-28,4119,-1114,671
-23,87,-19,3700,-706,617
-18,54,-44,3663,-778,897
-8,31,-41,3094,-750,398
-12,18,-65,2335,-2463,1793
-91,-127,44,9761,1281,-6945
-52,-70,-105,4533,4760,-12331
32,0,-79,1290,3308,2203
-87,91,11,-1629,9847,-9200
69,95,-119,-2018,21283,-21876
60,85,-118,-11427,25254,-24873
-61,-17,-89,539,15635,-22840
80,-116,74,-20315,16741,-3469
103,56,31,30597,-11057,13596
9,17,-53,-31127,-14367,-3774
116,72,4,-30107,20272,-3866
-52,40,59,23301,-21237,-17841
13,48,-122,19822,-20914,-1640
-123,-15,-116,-19917,-4702,-14123
7,-19,101,-30566,-7345,-23889
50,-107,126,-7350,7451,-5203
82,-115,-118,4508,2871,-10657
60,5,74,-23843,-9324,8501
-54,-4,30,3473,-9120,2703
-102,-7,9,19708,-17352,6482
-123,-68,28,11743,-4882,32664
-16,62,-91,-1782,-15120,19365
-101,113,-65,10562,-11188,24433
-46,104,-69,5358,-5837,12368
-10,-93,47,-3866,-11145,2797
26,101,121,11027,3027,-654
109,77,34,258,4311,-627
-79,-82,8,7606,621,-434
-49,125,13,4429,769,1907
-41,92,-75,4315,661,318
-18,81,-91,3067,678,1398
-21,113,-124,1196,-2692,1295
-24,120,-101,3326,-1150,1173
-21,-109,-107,2390,-1249,1194
-36,-123,-123,3388,-760,1585
-28,-94,103,2447,-1260,2042
-28,-81,106,3432,-762,1035
-30,-103,87,4823,-2264,1535
-27,-61,119,104,-2207,990
-24,-60,122,5592,-1467,12
-71,-2,73,3155,3793,-6260
71,23,-104,10338,6806,-7994
50,-22,98,13719,7145,-20129
-68,22,-123,7551,1908,-27271
28,59,33,-24352,-32698,29060
82,11,-42,27001,-29926,-26403
113,28,-119,-13530,-4416,-5989
-90,-67,51,-27346,-3907,6710
4,3,43,32667,31035,15932
-107,-34,-52,-21923,25879,13759
-126,-107,-24,32701,2398,20336
116,91,88,-2412,-13519,1319
12,-104,-61,-28417,-7492,-27322
-109,-110,-43,-30107,6947,-6279
-16,118,62,2361,-21249,1169
68,4,-85,-23644,-8819,-6905
14,-26,-87,-31354,-12156,-1807
13,-43,73,26782,-2439,5555
2,-95,3,17336,-11797,10489
0,52,55,13927,15772,11536
14,83,-60,5564,4894,27107
-110,22,33,9199,-16320,21926
-56,11,121,19962,-17470,25054
-111,-127,10,7675,-7608,16278
-77,-15,-49,-11840,8595,4650
-61,91,-38,5613,-12817,7893
108,-47,41,4172,-3778,-978
-75,-80,60,-1010,13,-1449
-50,-10,-8,6211,-6647,-1228
5,-6,46,658,-25,-2673
-25,-124,-13,2352,-384,532
-29,-104,-51,162,-161,930
-56,111,123,5884,1329,-493
-81,122,80,3607,-1075,536
-67,123,68,-476,-2106,-454
-62,72,68,4741,-1682,158
-70,81,84,1217,-2604,1139
-63,94,96,-286,-2354,1198
-62,74,78,3784,-2042,675
-67,65,74,3566,-2226,641
-73,1,-5,386,-2436,-8253
120,-63,101,8847,1283,-8098
76,127,24,11943,1383,-19648
61,21,-126,1067,27309,-22891
-40,-100,-53,29256,14759,-21345
127,54,37,11378,-31197,-16575
-125,-109,118,32090,10902,-17277
-70,27,-22,-13208,-9195,959
10,-18,46,-26275,-32474,22357
90,84,-104,-27705,-26029,26341
-19,78,-82,-32090,12501,20908
101,-95,-22,-28270,-1372,-810
-77,65,24,-23444,16411,32278
-78,-97,-84,7191,-27264,-6977
5,-40,-79,-31942,-8322,3874
30,-57,-110,1679,-28221,-14296
19,-94,-109,13789,7544,-5573
108,-120,-45,-29965,-14557,12159
-101,-17,111,-5445,2039,2414
19,93,-99,9639,-14418,17514
-33,108,-59,14745,-21790,-32527
-65,0,-12,886,-21803,31923
17,64,95,14973,-22112,19914
111,23,33,-9205,-5871,8151
-49,-6,-59,844,-7222,1080
-118,86,123,2603,-2075,-316
108,5,68,1598,1732,-1925
77,94,72,3062,1644,595
28,91,18,9299,1755,-2526
-19,101,-87,2539,1097,-505
-49,74,-127,2186,-2194,-992
-69,36,109,3569,-515,626
-81,51,106,3798,-2230,998
-81,81,104,1822,-1142,1123
-83,90,96,3871,-989,-393
-102,66,57,2829,-1610,57
-102,61,61,1895,-1740,682
-97,57,54,3824,-1773,460
-98,71,49,1339,-2190,216
-98,40,54,3388,-1405,366
-43,12,80,8674,5993,-6133
-21,-8,125,6963,-629,-9829
126,16,37,9022,11046,-19603
-42,-55,-50,3293,955,-21003
-92,79,54,15246,-25617,28020
-71,-92,-12,-24814,-32239,-32141
-77,-45,-65,-29645,31424,-8037
-24,14,112,-27337,-7219,-2846
126,85,-73,-19383,11538,-17657
-113,-58,-78,31219,31424,-31314
50,-112,103,-25115,-13095,16110
-99,-92,-17,26126,14257,24007
-6,65,-82,-32055,-1308,-27762
124,125,-48,-24955,-12246,-17271
-9,-124,-122,19145,-18384,-24323
75,48,-30,18012,-3463,-4348
75,-92,-71,8324,-3406,644
52,51,38,13010,-6392,7455
21,120,33,16975,-11420,4008
16,-112,30,6428,-10067,16819
-13,4,-21,1290,-12558,21235
17,3,-12,-1826,-11397,19448
-18,89,42,11023,-22371,23516
35,-117,16,12169,-636,13374
-52,27,118,-1402,4290,6847
62,92,109,18351,-12745,2534
82,11,48,-4442,11756,-4014
78,-103,-44,-21790,-8952,7962
-21,-68,120,14628,-6060,1908
-20,-62,-110,2990,-1181,-1975
-35,123,59,-1433,1236,821
-26,85,-69,7934,942,3256
-31,102,-75,4245,-1675,432
-46,80,-85,2817,-1571,631
-32,90,-69,783,-1335,1653
-44,96,-88,6057,-2146,1380
-50,113,-69,2038,-1347,704
-37,119,-69,1664,-1341,1832
-40,-115,-79,2971,-1561,489
-30,-118,-94,2936,-701,912
-77,65,113,10116,-143,-7834
-58,75,-13,5977,5831,-14858
45,-100,73,3626,-6309,-23936
42,109,-90,-9503,-10361,-27585
-120,-83,3,-23633,-3120,-21063
103,74,59,-12226,-9936,-10108
-69,-33,-110,27356,-24199,-60
-126,-27,124,-6938,29457,15029
14,-91,17,27716,-7548,3945
-20,89,77,-9307,19510,30398
-74,67,-65,-31280,3699,-29081
58,-25,-12,-13520,-1153,-5434
-100,-59,-94,-25344,-7076,-26402
-58,113,-102,-30291,-257,-8831
14,55,-2,-11340,11064,-10318
34,3,-105,-324,16818,-3202
-76,112,6,-31995,4668,7369
54,-126,40,14874,9489,6768
68,4,-103,11941,-22261,13975
125,-93,7,11757,-3426,18770
60,56,115,19849,-16203,22336
-39,87,-111,10342,-10669,15797
109,80,-97,8852,-14706,7449
-53,-91,-64,-7130,5960,-1448
43,46,-114,7739,-3445,-1977
61,89,54,7189,-2187,6892
-73,-7,6,922,1916,1086
-8,4,-16,2650,946,1951
19,-29,-57,3484,-3974,1373
6,2,-40,775,-131,-367
1,-6,-43,1765,-2704,783
-21,13,-33,1403,-2196,-85
-40,-25,-64,4260,-624,534
-21,-21,-72,2182,-916,-253
-31,-16,-89,4424,-473,-1609
-33,-76,-99,3621,-4338,1378
-51,-35,-46,1210,-1741,-944
-62,-113,-49,6101,-41,723
-53,120,-68,2332,-4039,1849
-78,-107,-49,2002,-1248,-470
45,41,34,-768,-4861,-15182
-61,-54,-117,6958,-4699,-21608
-73,-36,102,22285,-5492,-11950
-56,114,112,-6649,-29955,-25342
-63,24,-78,30339,12686,-15546
-21,-88,-30,-4283,5385,-19375
-72,125,27,-23691,9747,-15209
-56,25,96,-27925,28908,-15743
-112,38,71,-32624,30489,18452
10,-22,108,-30101,29590,11078
123,71,127,-30101,31420,31862
-100,-119,-47,-5328,-5384,-1695
55,-126,5,-27437,30441,31224
-37,82,39,-30101,11464,-718
-59,-55,3,22502,-9,-3136
-79,-128,7,10832,-14144,498
-12,86,51,25595,1636,71
-99,-36,113,4539,-4385,-389
8,-2,61,16741,-17428,4912
-117,44,-26,5441,2835,20004
77,35,-89,7987,4983,21255
-128,102,-90,4198,-11026,25665
17,22,-21,13863,-10218,20503
59,-102,121,14447,-10004,16501
-79,127,2,5597,-6316,7381
-6,-33,-47,6247,8049,-3255
-67,-77,76,-718,1035,-3212
-33,-50,97,5845,-4280,60
42,-31,-99,-2746,793,-1077
52,102,78,2479,159,-843
45,97,74,1088,-482,1466
32,74,62,2324,-899,1464
10,74,57,4948,540,679
-37,106,46,2159,-3043,2439
-24,100,49,3105,-1638,591
-29,101,67,4369,-2817,2097
-17,120,73,1914,-1565,1086
-20,98,62,2144,-3137,2382
0,107,73,1821,-2545,1158
-3,127,70,13931,-3251,1830
-33,93,-107,9381,-3964,-10207
30,-9,-116,13736,-1301,-16034
36,9,48,11848,8243,-30648
82,100,-126,-7057,-18051,-19326
12,70,20,22252,11110,-23491
-52,-55,44,-14017,8033,-12496
57,46,-92,-17705,2286,-6602
-120,30,-76,29804,-14973,17613
-127,88,34,-30221,-11064,1244
15,-10,94,-29823,19498,16707
10,127,90,-24772,-25034,26951
71,39,-84,23874,21934,9902
35,71,-43,-21189,-886,-28381
-18,31,81,-28354,133,30109
106,34,6,8340,-23455,-2545
44,-32,99,-9945,-7046,-9341
-82,73,-69,24120,-8820,2023
118,82,22,29045,3294,-486
4,-13,-87,11332,-3592,4347
-95,-41,87,16052,-6346,16207
-59,76,-84,5256,-1801,20416
-40,119,-43,16588,-14843,19597
86,-41,-22,9689,1218,18635
-31,70,-38,13533,769,20436
42,56,1,-468,-6755,12261
-25,-84,-1,-450,-4362,-1169
-65,-121,43,-1954,-4562,-1278
-27,62,104,-2249,124,-614
39,62,113,1741,119,-1653
25,-6,49,4241,1455,-983
8,-2,20,116,-933,1577
6,25,61,1833,-74,251
-5,8,47,4665,-7,1033
16,17,36,2346,-1552,1286
14,9,27,2902,-369,279
8,3,24,4666,-1366,36
-6,-14,-17,3197,-1262,1179
7,0,-11,1543,-1251,641
4,-17,-20,4621,-725,432
0,-16,-63,1124,-1441,839
13,-67,-109,6583,-2088,1456
8,-80,104,-432,-1983,832
2,-54,-118,2787,-1171,121
-6,-98,101,3291,-548,1138
6,-91,101,1963,-774,634
11,-101,88,3061,-910,873
17,-110,76,3575,-552,620
4,88,30,3301,-2312,2381
23,103,46,556,-1227,1476
37,124,60,4434,-1768,1114
33,110,36,675,-2190,1145
25,125,63,3589,-1049,67
10,83,31,4972,-1585,605
-12,33,-12,-6,-1653,1389
8,100,29,932,-667,-74
4,80,17,3860,-2131,989
5,87,14,2011,-948,243
-4,72,9,3924,-1510,597
-16,33,-15,3900,-1668,1437
-23,6,-39,1730,-1521,1379
-14,20,-21,1099,-1732,1387
-8,50,-12,2752,-1832,1289
-12,47,-8,3508,-1083,388
-27,20,-26,3391,-1388,651
-30,-2,-35,3903,-558,223
-40,-54,-63,3356,-2249,1890
-34,-33,-55,1181,-910,383
-24,-9,-43,2726,-1570,580
-32,-21,-48,3315,-1253,-45
-45,-38,-57,1704,-1631,826
-55,-38,-62,3480,-1120,213
-68,-60,-76,2290,-1701,605
-73,-47,-71,1460,-1548,822
-66,-50,-66,3387,-1554,1078
-75,-45,-70,1809,-2025,588
-95,-35,-76,3277,-2096,-304
-110,-28,-64,3028,-1253,-1322
-95,34,-36,-465,3580,-891
-64,106,1,-1356,2646,-381
90,-34,70,19797,3313,-9652
100,111,-68,21382,5786,-24969
59,-50,-48,-12900,21057,-24687
-27,29,71,21583,-26245,-26029
32,74,5,971,4634,-28754
94,-68,47,-28740,-17566,-21338
-23,-93,-105,-28886,-15000,-13835
26,-96,89,-31526,27837,7387
2,109,-124,-30200,32651,16211
-96,77,83,-30105,30191,32181
-70,46,3,-24349,-2954,14607
-114,-2,56,-21102,23609,-29209
20,-63,-111,-30105,9649,537
46,-40,19,29296,2977,-1736
10,-69,-57,-29728,-6598,-608
-39,-28,-12,4620,-5925,-3263
57,86,-6,7375,5844,-1653
24,59,-86,11282,-25478,6050
45,109,13,19952,-7258,21368
119,-70,-62,10603,-1569,19536
-128,-15,118,-7404,-9559,24897
49,75,1,11604,-14258,22901
-109,-63,-56,5094,-12595,20764
5,30,55,2485,-6099,16258
58,-9,-127,3517,1961,4098
-92,68,76,1702,-3713,248
-63,82,9,6378,-2316,-2428
2,80,47,-7890,-3508,457
11,63,-70,5146,-804,203
26,56,-60,3299,-1076,518
25,64,-102,2090,-1818,1642
15,73,-106,4918,-904,773
11,51,-103,3081,-2013,697
15,77,-89,523,-2983,1024
20,90,-75,3438,-798,-849
45,51,-74,4095,-966,110
42,26,-99,2079,-1778,-198
57,37,-116,1792,-1631,-503
67,21,-119,2945,-770,1276
55,42,124,3223,-2846,528
48,67,125,1219,-1293,-103
-4,-4,-20,4608,1544,-7320
-125,112,104,2271,4671,-12387
-96,103,-47,19701,5287,-13706
100,-87,-62,-10132,27191,-18753
47,-9,82,21414,-28261,-25343
-4,48,96,-2826,5026,-12834
-32,-111,-39,-16409,557,-5714
-97,92,-88,28692,25580,-8271
18,47,121,-30395,-9957,4705
125,-76,-105,-30108,25799,8452
13,-29,38,-30108,-5808,5699
-17,29,114,-20044,29191,7710
-81,49,122,-22541,28795,578
28,121,-121,-30108,-12795,3508
8,-71,28,-7621,21258,-14073
30,-47,90,-5621,18097,5778
8,89,-92,31781,-9883,4653
-102,-16,98,26458,-7440,11492
1,85,-32,117,2047,3824
-27,49,121,8770,-15029,19863
63,-84,-35,22411,-10588,28153
103,71,3,10421,-19362,18915
13,118,-91,9559,-6207,16212
-31,-64,-33,5924,-7523,10477
-77,-57,-2,-3696,4230,383
-11,72,101,4204,1709,-2834
52,39,54,1480,-748,-1537
109,-6,-67,-2998,599,-340
115,-26,-111,632,2170,68
104,-27,95,1831,-1086,394
93,-52,86,3203,779,1055
80,-41,107,133,19,1399
56,-69,80,3416,807,792
47,-61,82,-977,-1440,2158
30,-65,22,190,-1886,1776
2,-85,-5,3806,-1332,1600
-17,-65,-17,-1131,-3419,1747
-41,-65,-89,3861,-216,959
-42,-68,-57,2501,-2287,1660
-58,-59,-75,2365,-1324,627
83,119,3,3955,689,-14355
120,-63,-82,10502,-1378,-18232
-50,50,7,23636,22220,-18001
12,-23,-47,24963,-10229,-7506
-18,86,80,-989,1168,-28367
-119,-127,76,-9573,18957,-22745
-114,29,24,-30658,-16182,-9685
118,74,76,-32183,-15472,866
-9,-69,10,-30531,32545,10685
-87,-120,0,-30108,-25656,25460
-87,-11,17,-32008,21603,-24881
101,95,41,-22549,29445,30897
-17,-83,36,-28776,-12927,30556
-123,74,67,23755,-29116,-14273
-127,-93,54,24280,13878,8644
-53,68,-16,19993,-16186,-8088
-110,-7,72,17036,-4174,2955
118,78,51,-6015,-1486,10015
60,75,-1,5427,-14400,16093
57,38,-32,7787,-7429,21613
31,-53,55,-1321,-5289,22470
101,-40,111,7591,-12921,28763
44,-48,-108,1923,-11467,26757
95,126,-47,1318,-9259,22667
-11,66,-93,1347,-2735,11105
-77,-96,126,3300,-8306,375
-73,41,24,3685,-3097,-724
8,11,1,-2630,-1985,-3497
-32,-44,-45,8687,-751,-2562
-67,-85,38,4090,-3082,200
-72,-57,47,-77,-884,-981
-114,-74,21,4800,-436,1034
-103,-59,1,4014,-1373,1124
-123,-55,-21,2966,-174,758
-125,-81,-29,4879,-268,1377
-106,-81,-66,1094,-361,738
-116,-85,-71,3612,-2218,711
-106,-74,-69,1143,-1083,-36
-110,-67,-58,3033,-923,183
-123,-87,-94,4664,-672,878
-104,-44,29,6240,-2328,-7336
13,-56,74,8601,-4746,-12305
-10,-31,-110,12594,3784,-25160
-21,-94,107,-2238,16516,-18570
39,-42,107,3244,24403,-18055
-36,84,22,-20974,28023,-26787
76,28,-11,-9544,-4645,-13310
45,-94,4,-21202,3153,-1891
98,36,37,-29658,29621,-5999
-121,91,119,-32323,-12418,14462
-58,-95,-42,-30107,27970,12218
-31,-106,86,-16026,9769,15835
-121,-106,-120,-12839,21711,-11441
-98,-82,122,-26505,5203,-6086
82,-51,-41,29737,-6960,-5016
94,-92,-15,-31775,-7621,-7899
-63,10,-79,17353,13099,-547
117,-68,48,5304,4886,2026
-123,87,-51,11127,-3246,9502
-76,-51,-55,3694,3547,9777
-78,69,-29,19386,-2963,19142
69,127,-116,7698,2566,23272
-113,67,55,9381,-2543,22167
-61,-70,113,20924,-16192,24788
41,125,77,-8172,-2695,13612
94,-112,18,-5568,-10725,10652
-18,-74,-93,10747,-1021,-486
34,-115,-115,-5690,377,-3704
68,86,43,6597,-4278,2091
-103,-92,82,-736,-1196,748
-100,70,41,4236,-970,62
-113,88,24,3775,-1375,3264
-123,-89,23,914,-1199,948
125,-113,-9,5550,-51,1261
115,-73,-49,2967,-2824,2889
-118,-25,-20,-872,-597,526
118,-75,-70,6863,-1368,893
125,-44,-80,1248,-1989,1789
-118,-20,-65,1826,126,-1292
115,-102,-116,6002,-1381,1365
-78,93,-47,10892,382,-5503
-79,-124,45,-2743,-1528,-15987
60,59,38,-519,848,-24040
49,17,12,-12934,18042,32314
-14,-90,-5,-14550,25222,31741
121,-10,65,26663,-28845,-9252
31,113,-54,-23354,5985,-8549
-34,-104,-57,-32362,-7387,3769
75,103,51,-30110,14396,-2375
93,19,69,-30110,31407,5861
-57,66,96,23313,-14449,-26662
125,-39,110,-15150,-7922,-25054
24,63,-3,-30110,18151,-11157
68,-121,21,-30110,29983,-7824
56,37,25,30249,511,1005
-116,25,-105,518,4665,-3758
-94,125,77,-19525,-1818,6817
61,94,-112,-1141,-642,856
-125,-4,-85,-11054,3188,7448
0,-114,-69,23833,-13453,-27922
-91,-93,-46,32670,-28878,-28896
82,-101,127,3637,1640,24455
93,-128,-36,5148,-12035,9356
-86,-13,-106,5257,-1060,1451
-21,-112,17,6600,11034,-3015
22,22,2,-6558,-1951,887
127,-98,127,2963,-1393,-471
-76,119,-110,6297,1,1302
-96,-121,90,1097,-4612,1756
-103,-85,-112,2316,-1781,539
-122,-106,-125,4200,-1914,1799
-122,-72,-110,3268,-1060,1044
-125,-88,111,5696,-330,1206
122,-86,97,4169,-2860,1826
120,-47,-109,2012,-3701,1220
124,-49,-89,4658,-2030,448
127,-47,-73,2721,-2596,1187
125,-39,-85,-339,-3069,1034
-115,-41,-86,1323,-302,327
-117,-67,-116,4716,-2789,1834
-38,-75,-97,-192,-5425,-5187
-128,98,110,8220,-2882,-13344
-4,27,-60,-4051,2025,-24811
38,-36,-59,-12345,7297,27292
58,-57,-78,-4148,2375,-32140
121,56,-110,-11402,-5556,-17470
-84,127,-4,-20443,-19698,-4874
-4,-69,-108,-9913,8956,4394
49,-55,119,26473,-6084,183
-102,-87,94,-30110,21010,11571
-122,-30,-67,-11498,-25847,-22428
39,47,-35,-3547,-4122,-6490
-81,72,75,-30110,8973,-17223
-98,-61,33,-30110,-9870,-7792
-51,-103,65,29233,22507,-10885
22,103,83,26255,-12310,1397
-109,110,56,21714,-9336,9368
-50,125,-60,-1590,-9879,8174
-38,90,99,11146,-13751,20109
-104,-83,-87,-248,-4242,26573
-79,30,88,9246,-21526,26816
25,59,-2,1560,14239,20370
-63,-95,-110,-5596,-11732,16318
43,6,-71,15357,-10138,2614
47,-4,126,-6685,1069,-2771
72,113,26,1485,-3151,-1202
-125,-29,23,4355,-2381,1327
-78,-4,6,831,-1066,-2285
-31,-92,-37,5034,-2094,1963
-59,-109,-65,6759,-3963,134
-39,-59,22,-3459,-1593,1544
-57,-65,-2,8089,-157,-472
-56,117,-41,3538,221,1161
-39,-83,-55,-1780,-1909,346
-27,-91,-80,5532,844,351
-8,-105,-103,3094,-2354,1637
-20,-83,-113,3314,-147,-73
2,-103,119,1459,-1338,814
18,-76,104,1750,-1138,-140
26,-81,98,1902,-2468,547
114,76,-85,11321,-4330,-17528
96,-121,-76,16172,20175,-25128
31,64,94,-11850,23784,-28508
53,-29,46,22081,-28427,-25526
-127,121,112,2265,-1980,-22118
46,32,46,-18255,-8267,-7898
-87,125,-95,27873,-6088,14292
6,16,14,-22633,-31460,11601
93,109,54,-14542,-27478,27430
115,64,-69,-23416,10726,12502
61,-70,-75,-17148,21785,-29283
115,112,89,-24926,7094,-19112
-25,-25,69,-30113,-21098,-659
76,75,56,1697,-13379,1667
-122,28,83,-5790,5178,-2919
73,25,12,25088,-14531,17414
106,-17,72,8061,-17554,10484
-60,-15,-124,1939,1457,28329
2,77,89,6471,-30238,23842
-7,-104,50,18944,-4153,20442
83,110,-8,445,-7001,13484
81,19,-71,4856,-12528,4131
-113,-99,121,5194,3837,-1218
-60,71,17,-1750,-229,869
-53,-34,42,9249,1620,-2676
-47,-9,102,1700,1108,297
-54,-33,56,3133,20,-128
-70,-41,13,3054,-206,879
-82,-36,17,5111,-1624,340
-93,5,25,4130,-942,-70
-109,-14,10,3948,-2191,865
-104,9,22,3150,-2952,3
-94,8,43,1991,-402,49
-114,-9,17,3624,-2356,1479
-104,19,31,1371,466,-737
123,-22,-6,5209,-1825,1350
-127,17,7,869,-1004,242
117,-22,-26,3905,-1960,933
127,-1,-3,1851,-1225,572
119,-15,-16,3372,-2086,1214
27,68,-120,10585,66,-9887
81,120,-35,13312,-1715,-13296
-45,76,-35,10208,-10203,25732
-11,-16,-94,20676,-14792,32468
-62,-65,-124,7912,-12818,-32140
-91,-19,55,-23086,28243,-8321
-100,124,-78,-27447,-20394,4777
-78,15,-37,32620,-12504,6960
-48,124,92,-28357,20301,26878
-17,127,1,-6816,31194,24428
-26,107,3,12173,-21735,15644
4,33,-53,32762,22631,21723
61,-63,-114,-23885,-14068,-12920
18,-70,44,-3097,-32259,-22302
26,65,50,1796,-7765,-126
-103,102,-26,12350,-12282,-583
-128,28,-11,19590,-5993,10555
95,-87,109,13441,-8792,5801
-42,73,1,-739,-7531,22065
-101,-39,51,23219,-11314,31838
65,20,11,-28946,-18164,24038
28,-79,-70,-1242,-4041,26680
-93,-62,75,-19070,4448,135
-45,-69,73,-4101,264,-600
-40,108,11,18344,-4612,3240
56,-72,98,-6562,6845,-4011
-118,-15,45,4032,-141,-802
-75,100,55,4374,342,2961
-61,-84,75,-1108,-1952,815
-91,-65,37,5194,-3511,888
-124,-80,44,819,-1939,145
117,-27,38,1578,-1655,880
108,-60,31,3140,-303,1676
114,-53,29,2008,-281,828
115,-69,21,3092,-296,1147
122,-42,22,1967,-1159,436
112,-50,10,2030,-1647,403
100,-23,0,-1535,-1435,465
96,39,-3,-1922,-2595,1560
58,35,-20,4379,-2662,1181
-16,-97,-9,-179,-2770,-9825
58,-13,73,7646,-13216,-13281
-53,-36,74,26205,1024,-18495
-14,-35,13,-359,17972,-29876
-47,-38,-42,-11747,-29710,30539
-88,5,-120,23256,-32229,-18354
-86,-98,89,-17124,22805,-2002
-18,-108,102,32765,-15530,16745
-51,-11,-121,-22747,21885,13223
-97,92,37,-32754,-32052,16891
-32,-127,-125,-30113,29969,-7815
71,-85,-107,-27798,-22921,1212
17,-74,-94,-28849,-29374,-20226
-41,5,-38,-27151,-6938,-7735
-10,-11,-72,-30113,-12777,-9052
122,-27,12,-7264,2858,-5576
118,-39,-31,7049,12999,-5934
-62,53,0,9469,-434,6877
-84,-87,70,6982,-7089,10808
60,24,126,-2403,3929,10756
-122,-72,13,17252,-5259,19467
58,79,-102,14160,-8859,17662
50,85,71,8155,-6719,20593
-71,-41,29,12242,-14139,11810
85,94,42,-1382,-5640,7623
-69,-99,-70,2838,-2325,6738
7,42,-126,7060,-2017,5419
89,-8,67,-638,3840,-1297
-119,-88,20,1405,-2950,3631
-98,-40,41,588,67,2708
-52,-40,16,3931,250,796
-30,-49,2,786,-1003,2445
-31,-57,-19,5265,-907,700
-14,-70,-19,569,-1059,860
-13,-19,-2,2690,320,177
-1,-77,-5,3909,-1354,1564
1,-94,-7,2016,-887,-133
11,-106,-6,4729,-173,757
2,109,-30,540,-3123,3574
-12,-125,-34,4051,-1297,917
82,-112,60,6031,611,-9574
97,-118,101,11643,2264,-13991
-95,91,11,25725,-1852,-22833
66,96,-16,2727,20445,-31726
-12,122,-44,16069,-25130,-23186
-110,-67,-55,-5732,5808,-21658
-108,-34,-79,-21768,1354,-8905
-51,28,-33,-26452,-12970,4390
-100,14,-113,-20013,-16870,1805
-103,41,-120,-26812,-29798,10069
42,-30,86,-30680,-30851,-7584
-99,-77,108,-5101,27713,27970
-32,11,-14,-5905,25453,-14141
-98,57,-125,-30113,322,-9905
117,102,-79,-30113,-21872,-3424
51,-76,30,32542,28741,-12733
-30,-81,42,2099,8727,4629
-99,-73,58,16053,-7445,6450
97,51,85,4538,-2774,4970
-128,98,52,16616,-652,17866
-63,82,-70,16065,-20514,21692
101,48,-27,7016,-7520,27324
-52,-36,-122,22649,-14238,19532
108,-50,16,-6909,-8961,17776
2,20,-41,9011,-7120,13328
61,58,-117,-8398,-2312,4955
-123,-17,50,10644,851,2031
-30,-20,-12,-6788,-1693,1993
29,-41,-64,8338,1945,-3396
28,16,104,7946,-1976,2677
29,105,97,-3337,-325,-1307
47,74,63,4297,-1009,964
29,47,55,5841,-2275,178
19,15,48,66,-1222,1057
52,97,84,1905,-414,-666
60,21,53,5621,509,338
78,17,18,-337,-1890,993
89,63,21,2184,495,-660
117,13,-8,5296,-1843,553
114,20,-2,407,-1340,-12
5,56,4,-1289,3943,-1828
90,-38,14,-1927,2785,-2232
-96,-15,27,-4953,1966,-3253
124,114,-71,-4367,4158,-3568
67,-80,-92,-5055,3133,-2794
-59,77,73,-2755,2277,-2054
44,31,-115,-2456,1676,-1468
-29,118,61,-1103,906,-670
52,44,98,10,-326,-285
86,-109,29,887,-1849,1138
-121,44,-44,2433,-2366,1925
109,6,94,5495,-950,2647
-4,-63,79,807,3452,-2156
-30,-79,77,-3830,3497,-4801
-128,-118,-33,378,428,-291
11,-54,90,2261,-1266,-383
101,-102,-117,-3905,-2471,-191
-36,-76,-102,9023,-3387,4588
8,-101,-72,13398,-1660,11082
122,18,29,-2978,-4779,2507
-118,32,-23,-320,-8117,3098
-7,120,39,775,-1045,-1163
115,-39,-85,1722,-937,1319
59,-21,112,170,-1003,857
-60,-10,57,2638,82,1704
96,-59,69,-2061,707,-1132
117,47,96,-1237,1478,-823
-114,54,54,293,1070,-170
-81,58,81,-424,121,-99
-98,115,110,-875,-150,-718
-34,88,61,29,491,-128
-63,97,95,-908,-254,-302
-58,104,45,128,78,57
-63,-126,79,-449,-68,-87
-65,-106,70,-307,-265,61
-59,-78,91,-180,-232,60
-69,-75,94,-171,-64,9
-73,-81,85,-132,-88,33
-76,-80,86,-213,-138,37
-65,-78,85,-26,-49,120
93,-63,8,-3414,2121,-2487
14,-105,-92,-2100,2958,-1654
-105,-35,-14,-5750,3128,-2279
126,-40,-40,-3775,3742,-2356
50,-79,118,-4289,3395,-2680
-108,65,38,-4761,1733,-2686
50,77,98,-1522,580,-431
124,18,-95,-348,-255,569
-17,98,69,-1357,-766,483
-35,-119,-41,-376,-1154,555
126,-6,27,1239,-2067,2115
-4,-80,-65,5786,1182,3557
73,-86,124,-2850,2156,-3782
91,-15,92,-321,2202,-2650
-7,-75,-33,240,681,-835
65,72,2,2959,226,50
-12,-78,1,148,-1093,679
-11,-62,0,3949,-1290,2997
42,64,28,3510,-2167,3825
127,-126,85,2845,-2105,4531
-96,-56,58,2550,-2195,4316
-10,63,-117,62,-2354,2522
84,84,-122,1398,58,2649
59,124,-49,-1437,-3409,1707
-74,20,11,-144,-2425,1491
1,84,21,1499,-2977,2400
-75,-83,-127,1021,-2292,2183
-116,-72,67,2594,505,775
73,-12,98,-997,823,-893
82,-87,-28,-3858,451,-2313
-81,83,49,-2511,883,-1384
-66,68,-33,965,335,705
-60,82,70,555,268,433
-58,-121,83,694,786,117
-109,-106,-121,-872,-20,-1095
-28,-111,111,-763,282,-880
-18,119,75,-607,202,-458
-63,125,53,-141,-265,-85
-56,-104,84,-175,-390,-119
-59,-96,104,-401,-502,-126
106,-107,-85,-3561,3055,-1842
24,-128,115,-1856,3619,-1073
-125,-1,15,-5598,1816,-2005
-84,-19,-72,-5720,5017,-1812
123,-128,27,-4847,4985,-1952
-112,49,14,-7470,1339,-3017
87,88,-71,754,-58,879
-99,101,27,2489,-277,1236
65,31,-94,-1578,-2911,-38
-105,-102,-33,2941,-3524,2486
-62,-95,39,4698,-813,4331
-40,-15,31,2403,666,-349
55,37,89,-2650,4847,-3970
-32,-64,-69,-1470,2049,-2046
120,-97,80,2255,799,226
-78,90,71,1083,-963,-217
2,13,8,1581,-308,1601
-33,-23,-103,2089,-1475,1833
84,-49,125,3837,-1669,4249
25,-31,93,1395,-2896,3941
17,101,63,706,-2177,3250
77,39,-92,865,-2182,2535
-51,-27,122,2063,-2242,3425
87,14,-29,1575,-1921,1459
65,34,-61,3751,-3518,4654
101,-46,-103,2372,-2416,4804
-43,21,-51,-689,-481,-739
-17,107,70,-1809,1306,-2089
110,13,-84,-3491,1411,-2152
99,-13,45,1933,745,-38
54,6,-88,1714,-160,276
-123,80,11,-2490,-475,-1262
-49,52,102,-180,921,-647
-23,19,101,8,827,-839
-5,47,112,-765,151,-623
15,68,78,-452,196,-420
-6,78,57,-57,239,-349
-38,98,76,-492,-421,-293
-46,118,59,237,-369,94
-57,126,107,129,-408,310
105,-22,-41,-5640,1271,-3115
34,24,-81,-1590,2901,-1374
117,-2,46,-108,631,-1265
-50,-127,-45,-5309,2190,-3086
-94,81,-43,-4722,2841,-2528
93,14,-92,-7369,4106,-2231
73,82,69,-5083,4594,-1466
-105,37,105,-6475,2047,-1744
38,-88,40,-4093,403,-857
93,-96,5,1814,-1248,641
46,-97,11,830,-2888,40
72,-34,-18,1989,-3092,1034
71,69,22,4464,-489,3240
-126,38,1,7943,1418,2453
-21,111,19,-2206,3930,-3324
124,-48,107,-936,1984,-1600
-101,38,-104,504,248,-1370
-59,-127,-52,612,-759,-856
-58,-16,-116,3182,-1977,1451
-51,-97,124,4038,-2222,2220
50,56,-42,3500,-2426,3527
6,100,-84,1178,-3230,3073
69,114,56,1745,-1014,2963
78,120,29,1648,-1744,2496
117,-48,-71,-150,-2587,1920
-44,-115,87,1037,-1081,1635
-52,123,50,1093,-1635,1792
-43,-105,91,384,-2377,1485
-47,-113,58,1949,-592,1573
-96,125,83,1283,590,210
-128,119,2,-473,1637,-863
-103,81,-44,-2773,838,-1533
-73,66,39,-382,939,-377
-72,48,53,911,397,408
-63,60,123,-66,-53,-39
-18,68,127,527,356,86
-7,88,-101,-189,230,-182
-4,90,-112,-622,20,-282
-9,78,95,13,-31,-44
-17,78,103,235,-170,161
32,-44,76,-6154,3864,-5453
-81,-95,-32,-4261,1474,-2854
-20,-26,-124,-6166,4024,-3293
72,20,-28,-13400,3950,-4811
-90,-59,117,-4979,-2592,-1426
50,-116,-51,5769,51,4047
-50,-7,-3,1955,-3948,2426
-109,79,42,4979,-1641,4494
64,-123,96,-3962,3344,-1585
-46,76,13,-2233,1530,-3419
-75,37,60,80,1377,-1223
119,-108,-7,-183,785,-493
7,35,90,1015,-140,567
-88,7,-28,-556,-761,80
-13,11,114,3421,-1160,1754
-28,80,8,2185,-1761,1933
80,-123,-68,4024,-1642,3058
-116,95,86,4008,-1906,3398
89,-8,17,1809,-1547,3607
-114,21,0,2246,-2481,4441
21,44,-28,-204,-5243,1856
53,-96,84,24,-2154,1953
-18,-124,9,1265,-3319,3379
45,3,-42,2601,-602,2240
-2,-89,-70,-1176,600,-1923
-121,22,-40,-2597,2114,-2008
-96,8,79,-625,1237,-377
-119,10,16,2472,811,943
125,52,-71,-2533,-968,-684
-65,84,73,513,-33,-19
-42,60,-117,24,165,13
-49,86,-125,-452,291,-460
-33,69,86,10,109,-76
-63,75,98,-781,-371,-246
-52,94,71,80,-244,180
-53,125,113,-461,-411,66
-67,-105,114,-266,-207,-111
-63,-116,105,-107,36,-15
-65,-123,99,-240,7,-44
-47,-112,83,-3,-21,202
-21,-115,-100,-3935,1215,-2543
-52,-119,98,-1472,2035,-1477
110,-48,-41,-3330,1682,-2423
42,124,60,-6321,1717,-3381
-122,127,64,-3016,4855,-2269
-10,20,29,-4877,2139,-2369
85,-113,22,-2864,-110,-1064
94,-119,29,1304,435,295
93,-106,48,-2029,-1328,-387
14,98,25,344,-1654,859
-74,-97,97,609,-1892,1305
-58,24,-94,3570,-755,2803
-80,-87,78,880,920,1668
59,11,31,862,4933,-1186
38,-3,103,-880,1663,-1897
-84,58,-62,-540,-77,-1592
-10,98,-46,2171,-323,-286
-55,75,-59,1897,-1815,551
-65,-3,-122,2207,-1346,1240
30,-29,112,4472,-2634,3097
78,66,-62,3254,-3382,3418
62,42,82,1934,-3069,2883
66,-90,-80,-1048,-2361,2717
105,31,-33,4305,-1197,3111
-117,-80,-122,220,-1788,1889
-13,100,-48,1690,-1477,1955
91,-26,111,3905,-2156,3803
-53,3,90,-1157,-1531,947
69,127,37,474,2468,-1640
-127,-45,-82,-1676,1898,-1460
126,-46,38,-718,33,70
-123,11,65,2653,371,1448
-109,29,-44,-693,171,-327
-67,64,-77,41,227,-291
-38,-11,-115,-92,701,-478
-12,-49,81,396,658,293
-65,11,121,-1008,-692,-95
-48,44,117,-501,-472,-25
-53,74,123,-679,-323,-125
-57,65,94,-71,-93,118
-90,48,-119,-4136,3299,-1759
-115,10,-11,-2809,3853,-1239
-15,-92,-22,480,2491,-1478
73,-29,-84,-5634,2072,-3175
73,8,104,-4854,4759,-2696
-6,-23,-98,-5784,2101,-3416
123,125,13,-5962,765,-3286
-7,-82,-46,-1525,-1038,-1579
55,67,-23,52,-292,-453
94,-23,-80,-156,-694,158
-9,-18,-27,1105,-1017,1203
-65,56,-17,968,-2218,818
-108,-88,-40,7634,-2491,4039
58,-43,-56,217,1543,1224
-98,11,33,-1844,1424,-2366
-111,58,-87,-1759,2126,-1852
-81,6,93,370,2415,-53
111,-28,-12,-590,709,-117
-7,44,86,1772,913,966
-95,105,84,-342,-214,384
-32,47,-85,2941,-307,1486
-33,61,-88,1861,-1294,1395
-119,-110,29,5564,-1552,3945
-53,-54,119,3382,-2576,4829
100,75,125,727,-2447,4683
0,-119,-105,2004,-3151,3723
-107,-90,-41,913,-3298,1604
84,74,79,2089,-592,1380
-37,-50,85,2393,-2252,2269
-7,-93,34,-771,-3634,2626
-63,-54,-57,803,-942,1873
28,-88,124,106,1388,-731
79,1,-69,-132,2181,-980
-118,-25,126,-1061,746,-531
-122,-20,100,-905,-495,-119
-81,1,83,927,18,117
-86,4,-114,-203,-223,-131
-92,10,-125,-450,-429,-178
-94,32,-123,-432,-493,-359
-84,34,126,-800,-502,-342
99,-9,-26,-5012,1399,-3117
64,-93,-117,-3464,2219,-2318
21,101,-107,-4484,2917,-2139
-94,49,118,-4796,1941,-2165
124,-11,61,-4654,2018,-1793
86,-112,-7,-4191,1084,-1138
67,86,-56,603,-2500,-230
10,-121,106,-1446,-1680,634
-86,54,-38,2161,-1357,1904
-110,-90,-78,1286,-2380,1792
-128,36,77,4032,-1681,3504
76,106,91,5961,2736,1040
79,8,76,-6863,2682,-5837
82,58,-102,-334,2707,-597
99,120,101,841,4,-1136
-54,22,-17,1613,-679,-284
-22,-33,-23,1993,-356,1269
-74,25,117,1848,-1148,1686
50,-91,34,5741,-2271,4199
76,0,-20,2229,-1492,4170
-8,82,48,1883,-1915,4024
-32,-2,53,1081,-2383,3844
-75,-12,27,2967,-2861,3172
-70,-120,52,-3725,-3237,752
-98,35,-23,998,-924,1504
-50,-5,67,1094,-1745,1283
1,103,40,1995,-1675,2092
-36,-108,-104,639,-1679,1578
-77,-96,109,461,-79,589
66,73,-14,-3,845,-907
112,-8,-96,-755,577,-640
-121,-8,98,324,442,224
-126,-30,98,-232,124,-37
-122,11,110,-202,-170,35
-101,18,112,-191,-194,-22
-88,33,116,-271,-143,66
-89,38,102,51,-168,125
-94,51,126,-406,-179,-148
-80,53,108,-146,-79,128
-86,65,105,-200,1,-58
-2,-37,-114,1071,5124,-1358
86,-3,58,-4365,1858,-3559
-23,44,53,-3287,2723,-2759
105,23,56,-6052,2219,-3137
30,123,98,-2300,2156,-2207
-47,40,79,-8587,2753,-2976
-109,51,-97,-5675,2045,-2187
58,-36,-120,-50,840,303
36,109,-22,473,-140,306
-113,66,-23,-1233,-953,543
125,18,105,677,-2357,1311
28,-93,22,3678,-2875,3057
101,-55,-74,1367,-17,2964
-103,-118,-38,2083,1412,-941
-54,-61,-22,-3201,1505,-3199
-72,106,50,520,2074,-707
-79,-13,-43,492,70,-467
-39,62,96,1778,-266,539
-103,84,85,533,-374,874
108,56,-14,2550,-1022,1146
-98,-46,17,2448,-638,2171
-69,-49,-13,1831,-1024,2421
48,127,-85,2212,-2385,3082
93,118,-12,388,-1566,3694
64,78,3,787,-2310,3759
-23,-83,79,750,-3501,1540
-120,97,22,187,-2474,904
2,55,82,2753,-2741,1590
103,99,-91,3626,-2159,3085
-10,-49,51,-1317,-971,1572
61,-87,118,-1422,447,-830
77,84,-52,838,1106,-562
100,-3,-65,-1104,132,-828
118,-16,89,737,257,325
108,16,-105,-338,-198,-117
-98,58,-104,-251,-102,-157
-77,44,-127,-200,78,-186
-58,39,120,-252,66,-55
-57,52,94,-108,137,-49
-60,73,98,-478,-91,-112
-13,-44,-100,-3036,2137,-2145
-55,-24,-80,-3258,2009,-1910
-108,51,22,-4598,3061,-2730
-124,121,26,-9371,5793,-2708
110,-120,69,-3024,3823,-1150
125,-127,47,-6988,1090,-3259
52,-63,-14,-1452,71,-981
73,-120,-22,-305,427,-446
-109,52,-90,-556,-1068,-64
79,13,-28,1687,-2133,426
70,103,-92,2610,-3229,1259
120,82,-22,3628,-1983,3712
2,-127,17,2330,1905,435
9,75,37,-3552,389,-3182
-104,-39,97,1387,3218,34
-14,-11,73,612,1027,-350
93,-74,6,-420,958,-95
-52,101,55,1313,200,575
-97,-126,29,627,-909,85
-71,39,-67,2093,-524,947
-25,-72,-87,2284,-1418,1712
44,-62,116,3272,-1732,2807
53,-107,4,1751,-2469,3126
68,26,44,1093,-1610,3007
51,48,14,1304,-2893,2565
68,72,82,718,-2243,1647
112,124,-119,2166,-2487,1900
-62,57,97,1872,-1930,1752
15,66,-128,1933,-1991,2592
-38,-120,-68,428,-1443,1780
123,-90,124,1056,-106,762
71,67,31,153,380,-567
109,-22,-59,-1029,-106,-492
104,-15,123,259,23,-34
127,-17,-109,285,-131,102
125,15,-91,-626,-269,-357
-97,10,-125,-46,171,-22
-87,7,117,-320,183,-186
-84,30,116,-152,98,-13
-68,27,94,-30,168,8
120,-85,-40,-2461,2683,-2873
25,-72,29,-1474,2872,-2320
-97,55,69,-3735,3515,-3533
-113,-22,78,-6475,2719,-3818
-61,11,34,-2780,3739,-3015
47,23,30,-6934,2466,-3586
115,-35,117,-3697,852,-2169
49,-122,84,-52,-439,-496
109,50,-22,-178,-1109,285
68,51,-33,-222,-2145,909
64,-93,106,897,-3890,2157
77,127,-39,4157,-2437,3587
-56,-56,31,4262,2618,2044
39,-53,34,-2879,1725,-4067
-38,-82,-20,-3075,2760,-1857
9,-5,110,3051,1432,-82
55,74,127,252,-217,220
-72,88,-46,1613,-964,761
-105,68,-82,1220,-1152,1166
-36,35,85,3440,-1503,2609
-32,-20,-34,2543,-2541,3083
88,6,7,2812,-931,4183
29,44,100,1320,-1645,3704
33,71,47,1067,-1229,3081
-6,-90,-112,-31,-3400,1898
67,-32,-7,-1025,-1991,417
-34,-46,-52,3349,325,2158
-13,26,-25,3998,-701,4165
-64,-64,-28,-2699,-2499,1543
-105,-33,55,776,-757,860
60,-128,68,566,273,-1282
-118,28,3,-873,1295,-1481
-63,-71,-103,-1591,1024,-1054
-93,-43,38,2107,364,939
-120,16,-40,-1481,-857,-453
-69,39,-102,-971,-409,-350
-41,46,122,253,94,231
-68,73,-114,-412,-48,-243
-48,68,119,-217,-24,41
-68,84,108,-255,-140,-123
-120,56,-78,4156,3701,-2304
-45,-118,117,-4191,4827,-7892
-102,120,-25,-1532,2133,-4183
86,114,-16,-4924,1862,-4799
-89,60,-82,-7971,4393,-6212
59,112,22,-5130,1315,-3259
-126,120,96,-769,-18,-1062
-49,-121,84,-727,-1653,685
57,-16,-72,-2437,-4447,10
-7,70,72,4204,-2658,3280
-7,55,36,11148,635,2934
-92,-3,-2,-3515,4376,-3397
33,-81,-110,-1021,2813,-3342
-20,46,-96,-919,425,-417
-118,-103,116,103,-322,309
32,-36,43,5330,-577,2445
-13,30,0,-1107,-2750,241
21,-90,83,4381,-1552,4300
75,82,-91,4081,-3863,5051
-24,101,43,-652,-3723,2359
99,-78,-62,2731,-1636,3630
34,107,-2,1354,-2628,2336
62,-80,35,-5765,-4857,-129
96,58,-113,1982,-109,-279
-54,-31,-120,12661,1729,7085
122,-117,-85,-6545,-1425,-73
61,-102,-37,-5100,-627,-3613
-7,9,-41,6038,3440,2009
-102,-39,-87,-951,551,-520
-100,32,92,-894,-775,145
-89,47,100,-129,-511,183
-92,80,-115,-322,-228,-43
-69,60,112,184,301,134
-86,77,127,-433,-6,-199
-57,74,95,40,124,122
-55,86,96,-149,20,-45
-53,84,100,-380,-173,-4
-53,98,97,-116,-60,21
-42,109,100,-178,-69,123
-47,120,102,-127,-27,20
-111,-10,62,-3366,1149,-2928
-66,5,118,3135,4244,-2282
4,25,100,-6817,2881,-5003
-51,-47,-104,-4562,2108,-3319
-38,25,115,-8858,3211,-2982
84,-86,-64,-9320,3739,-3682
41,43,16,-465,-340,-1348
-16,-20,91,-378,699,339
17,-103,22,-1152,-3740,-534
119,97,122,9497,-2962,4696
-20,-13,-62,-4233,3291,295
-33,48,-93,-2155,4411,-3690
111,109,-16,-550,1959,-945
-47,-124,-46,3808,-1451,-652
98,-19,-5,619,-1074,524
31,-5,-49,2557,-1444,1669
-122,-25,37,3354,-2034,2142
59,10,40,3491,-639,3646
30,-60,83,456,-2143,2895
29,-122,25,1831,-1579,2446
39,120,66,772,-1870,2464
118,95,-12,2771,-826,2762
102,-8,-64,-161,-2586,1225
-72,-94,25,478,-1818,1273
60,112,-32,2735,-1890,2352
26,-47,-119,1086,-1412,1678
-40,-45,114,307,888,239
-92,29,-79,1116,956,-287
-100,-2,-48,-1323,-309,-641
-42,-27,97,983,386,342
-68,6,-83,-1123,-271,-500
-31,1,84,625,98,532
-66,37,-122,-472,-220,-44
-57,64,127,-705,-158,-164
-37,57,68,386,229,242
-59,74,109,-915,-315,-204
-37,75,51,263,-119,335
-52,93,93,-440,-345,-35
-45,102,86,-339,-278,-12
-52,110,80,-90,-94,-56
60,-115,107,-5272,2323,-4446
-85,99,58,-5493,2180,-3482
27,65,-72,-5098,890,-3140
-79,-55,64,-3229,2153,-2831
76,-61,6,-7332,910,-3086
25,-51,-74,-2610,1049,-792
-62,75,-14,-1364,615,243
30,77,58,-438,-1149,995
-6,94,-101,487,-2471,1115
-47,23,-29,2521,-3988,1035
-79,21,-28,3299,-1983,1737
57,-70,-110,-988,4441,-764
75,54,69,-1325,3391,-2224
48,-117,17,181,1306,-650
31,-112,63,970,-250,-42
-111,64,-23,942,-393,504
90,113,-41,1341,-1494,917
124,64,-81,3675,-1783,1414
-14,-36,-60,3805,-1286,2381
35,40,-56,2322,-2095,2865
70,-3,-50,1849,-1519,3014
120,55,-53,1468,-2994,2670
-84,33,127,1954,-2360,2732
52,127,-56,2300,-3011,2515
85,51,117,4811,-3068,4641
-88,-65,-87,741,-2041,2868
53,-2,-119,1855,1787,-992
44,111,96,-476,1884,-2148
-117,-20,-88,-646,1234,-1610
-104,-103,62,1267,419,308
124,-73,-66,-1305,-696,-260
-73,-21,-116,-168,-20,-9
-29,-2,-93,-91,143,-5
-38,24,-98,-313,336,-310
-36,40,-126,-292,407,-415
-32,48,101,-544,148,-470
-25,34,77,-100,-43,77
-35,43,83,-210,-213,196
-22,97,127,-357,-377,159
-31,77,114,-12,14,165
0,52,2,-3722,1844,-3142
-116,-34,8,-6541,1307,-2796
-127,64,71,-5136,4575,-2393
-65,111,-77,-2420,3125,-1968
47,-113,-54,-5706,1107,-3150
-7,-84,-92,-464,1509,-880
-76,50,-21,-941,48,-390
30,71,113,-500,-149,372
-113,13,51,-747,-2257,183
-126,-126,47,2084,-3345,1995
-63,-65,-38,5801,-1252,5014
-76,75,82,-502,3198,-1787
-59,62,93,-2746,2591,-3351
28,94,108,-227,852,-934
48,83,117,2513,935,-442
-35,127,11,58,495,312
-72,-48,-55,-1627,-204,45
-23,48,23,2778,113,1638
-16,50,-127,2523,-2435,3601
24,98,-21,2361,-2502,3506
65,76,-59,4926,-1731,4313
32,41,38,211,-1531,3712
66,94,-20,108,-2812,3738
37,-24,11,2560,-3328,2731
105,40,23,-5092,-1704,-2171
-73,-33,-67,7201,-21,4420
-47,-102,39,10306,-154,8026
-90,67,38,-12587,-5228,-3650
64,-84,-121,4050,559,-515
-109,46,73,-379,1763,-1188
-113,-9,-94,-3980,211,-1412
-97,63,-53,3423,862,1492
-115,46,-66,-2124,-1016,-591
-69,121,76,-170,-235,-168
-68,96,110,-853,-347,-333
-46,102,61,-74,178,77
-71,-126,86,-520,-152,-120
-62,-127,60,224,196,184
-94,-94,110,-659,-249,-233
-79,-99,79,169,121,59
-7,116,114,-4058,2234,-956
-82,118,-124,-4919,2148,-928
121,27,82,-4979,2091,-640
43,-103,104,-3026,554,45
28,110,4,-1671,591,-87
-119,86,50,-1342,538,615
-38,77,74,-500,-1658,699
-41,-86,-128,1461,-1946,1970
-54,89,-80,3219,-1263,2890
-119,-72,-127,3248,706,1287
-24,-120,-37,3244,16,-783
105,106,4,-2068,2804,-1960
-35,-7,108,-123,979,-1261
116,-109,2,-9,761,-591
-41,124,114,287,-365,-299
-13,120,59,576,-264,155
-41,100,-37,1451,-412,383
21,38,-78,2746,-1159,1907
80,-54,-83,3357,-798,3263
108,65,-92,3245,-1029,4148
100,57,25,2336,-2210,4178
106,83,23,1678,-1758,3442
36,91,83,1046,-2481,2328
106,83,25,2,-2277,1163
3,-2,-65,336,-1996,822
-115,-90,70,3254,-3405,3770
112,-85,2,1822,-1850,2549
-82,-6,-84,2685,1801,834
-2,57,108,-1749,2008,-2874
-95,-7,-83,-1068,1822,-1152
111,-43,110,-478,-49,-409
-114,-49,93,796,4,592
-83,20,-63,-1157,-12,-232
-29,43,-124,553,627,-71
-31,32,-87,-123,329,-442
-22,36,-100,-586,135,-658
8,15,116,-121,259,-312
-8,20,117,-297,-86,-70
-11,27,100,-303,-293,256
-33,69,113,-322,-515,211
-15,66,0,-5393,1384,-2651
-6,52,0,-5025,2765,-2519
-20,-26,-62,-3422,3078,-2203
-104,-105,-63,-4575,2764,-2118
68,-43,91,-4594,1454,-1738
-5,-61,-7,-1286,-641,-724
74,-99,-16,1235,-1812,564
-30,-107,-45,-565,-1764,569
-115,116,116,-543,-2155,49
-18,-125,-79,3555,-2175,1279
89,12,124,936,-339,1964
85,37,89,4887,3775,1069
-67,43,87,-4851,3221,-3516
77,95,105,440,1806,-750
28,-126,-106,304,-318,-923
-84,24,11,1702,-193,-124
-96,91,22,131,-435,466
-83,71,116,2614,-269,1251
-50,-9,-88,3368,-738,1097
64,81,-120,4912,477,3907
-11,59,-74,2925,-1976,3356
77,30,-10,1918,-1368,3366
77,28,-115,2067,-1066,4023
20,-72,-34,-4,1437,2688
-71,-54,-27,915,-699,1490
-9,110,-121,-1465,-2998,541
114,42,79,-975,-2935,899
-21,7,-18,2244,-1593,3415
-18,-114,67,1434,-1022,3605
-96,-35,30,646,226,1519
89,-90,-40,1541,777,-317
90,54,-35,-722,-218,-1325
-94,-15,-84,-1801,-586,-1187
-53,-9,120,1163,183,121
-76,-30,-68,-1294,-28,-837
-57,4,97,171,-169,138
-62,45,-112,-681,-572,21
-79,70,-126,-324,-198,107
-99,83,116,-4,-62,73
-98,90,124,-202,-232,-63
-72,86,104,-2175,2762,-3300
-91,-56,39,179,3582,-2049
-56,40,95,-2858,944,-3003
74,-84,-108,-4476,1565,-2105
-33,-45,38,-6790,3249,-2104
54,-110,57,-4483,956,-1989
-40,-55,74,-3576,2174,-2606
-1,52,-24,-1041,1741,-609
38,-11,35,-1043,-1267,-544
-66,-32,16,-395,-2412,583
42,14,-54,3047,-3568,2973
-80,-7,-89,4356,1779,3183
-115,-111,74,-3420,-460,-4757
126,28,7,-1905,2209,-1563
29,54,-49,231,1145,-1203
-114,26,8,-2360,1274,-697
13,109,-108,1281,922,225
-66,-34,-122,-2621,102,-527
-70,85,-102,2238,-267,604
12,39,-127,1281,-411,1729
52,27,73,2964,-928,3206
125,20,116,2967,-2018,4245
-78,69,-38,1925,-2200,4479
92,-125,-58,2100,-3012,3636
51,122,42,1794,-2855,2421
58,66,82,2213,-2178,1805
-88,28,91,-2683,588,222
-74,98,-13,812,-2043,1618
-110,109,-46,462,-3982,2254
16,-97,-105,3454,-1432,4100
106,-94,126,-441,-557,-280
77,70,15,-1938,-971,-1248
113,-30,-121,-1862,-430,-892
-114,23,84,1267,350,643
112,49,-69,-1370,-355,-590
-98,85,106,-175,98,-159
-96,86,121,-751,159,-580
-54,75,69,49,328,33
-75,95,91,-594,16,-246
-44,112,77,-122,228,-18
57,-20,126,-3790,1827,-1488
11,-87,93,-4652,1837,-1561
-21,-125,106,-5033,1823,-1371
-57,23,118,-4885,2699,-897
112,-90,-121,-3649,1428,-558
71,-125,-80,-839,-190,-186
96,99,28,-1476,-68,115
-17,-84,33,313,-381,1137
101,2,54,-190,-1662,1108
113,48,69,1241,-3701,727
-87,-118,-18,6557,-1402,5134
72,-92,95,-846,956,-758
105,19,37,-3017,1016,-2453
113,39,-99,244,2918,-1338
117,2,123,1029,1979,-834
-122,-68,68,-1907,210,-714
55,51,118,1594,285,289
-38,92,-103,-568,-744,195
-64,41,17,696,-316,766
-32,35,-41,1685,-488,1437
-25,41,-53,1603,-851,1848
24,-38,-100,2432,-1362,2466
99,-4,123,2184,-1693,2993
86,44,-34,1668,-2367,2118
127,-47,19,1877,-1726,2451
66,16,-82,-214,-2332,1744
79,74,-113,3081,-2755,2374
97,-111,-88,333,-1654,322
-2,2,-15,2742,-1324,1646
2,75,-85,1728,-3242,2147
24,101,-26,1155,-1280,2143
-104,125,113,557,1131,82
77,12,7,156,735,-608
-121,-64,-51,-2427,-125,-955
-93,-34,105,153,-104,87
-104,-1,-97,-182,-121,62
-98,19,-109,-592,-105,-112
-79,37,-126,-131,76,-10
-76,61,-123,-503,46,-197
-65,63,118,-535,94,-260
88,94,-22,-3340,1152,-2752
-36,79,-30,-3520,1536,-2261
59,80,-22,-4808,760,-2275
27,94,-3,-5361,2058,-2286
-37,-47,-28,-4322,2148,-2024
90,-51,-19,-5639,1407,-2012
66,105,-96,-4364,1803,-1405
7,113,60,-4936,1196,-1645
-31,77,-4,-669,-897,-34
88,-10,-12,3352,-1145,1471
79,-11,-92,-159,-965,1024
78,-95,-31,5113,-4184,3740
110,-115,75,10122,-430,7267
117,57,-42,473,2299,687
-69,-46,-49,-3543,-1218,-4002
-72,-17,-2,-3904,3738,-3214
57,9,-44,4050,1694,-644
16,9,103,-3614,-353,-1774
-8,46,115,1995,628,91
-104,99,39,33,353,-206
-73,44,-74,837,218,287
-61,72,-79,493,-1131,1406
35,47,116,2014,-1135,2512
71,74,58,3951,-2138,3976
48,66,4,2806,-3226,3618
89,-8,19,2958,-2223,3696
29,77,-88,-906,-2449,1980
-96,115,20,2305,-1598,2965
-64,97,7,682,-3110,1851
72,-12,73,3642,-3650,3970
8,54,-97,954,-3456,2487
59,-67,-4,1314,1580,-1244
82,-2,67,-161,3610,-1980
114,-20,-42,-5197,-66,-1570
-108,-30,-40,1220,-123,467
-119,51,100,3898,502,1752
-97,9,36,-3822,-447,-1637
-25,83,80,924,939,310
-50,39,123,-587,-15,-139
-56,71,121,-1038,-138,-461
113,97,-91,-5671,1210,-2733
107,20,70,-4973,903,-2199
72,62,58,-7437,1534,-2036
-31,99,61,-2885,3006,-476
-1,-89,-121,-10723,-770,-2836
-16,-19,55,-4128,-468,-1268
82,94,91,4614,1969,2404
107,12,54,221,-827,620
67,-6,105,707,-1966,1162
-70,-120,-119,8542,-3245,4141
69,82,-74,2600,-1674,4056
-94,-71,9,4678,4836,964
-74,-13,40,-6682,-1454,-5580
94,-5,-30,-880,4160,-1552
-44,45,36,860,679,-1699
30,24,-26,-1132,703,-37
0,-24,-10,2668,820,1181
-117,106,42,-1084,-1097,411
-2,17,108,2905,-460,1604
-2,29,-68,2058,-1119,2497
63,6,-82,2930,-598,3599
89,50,-48,2408,-1675,4190
108,41,-55,1954,-1374,3605
124,9,20,484,-1280,3634
-116,-29,-30,1836,-2135,3651
23,105,-117,-594,-2734,1949
2,118,66,3289,855,2762
-103,-31,59,3335,-2423,4764
53,-5,126,2715,-2481,6296
-85,-1,-109,-3705,-1890,1613
-113,-99,67,4311,2052,-2736
80,9,-60,-2119,1884,-3135
27,27,94,-3113,1621,-1235
-128,-120,-18,3931,-470,2338
93,-95,32,-1103,-1588,-266
-65,-31,-39,-2336,-778,-730
-77,-40,-121,445,190,235
-80,-7,-90,-67,216,-52
-86,10,-103,-791,-205,-448
-92,0,111,-342,-295,76
-16,3,-29,-4217,1467,-3374
-36,-66,-93,-3104,2373,-2992
-103,127,-121,-3611,2419,-2518
35,47,80,-4708,1402,-2351
-5,-64,22,-1449,648,-877
-9,-125,12,-1611,931,-728
-19,15,10,183,-1015,80
91,68,60,-975,-1222,574
-78,104,-121,-19,-1811,997
53,-126,-30,183,-3166,1546
85,30,-80,2888,-4299,2887
95,32,8,4794,3723,3892
97,-58,-67,-3044,-87,-5090
40,-119,44,-4361,3033,-3368
-63,9,-68,3991,3490,-506
11,-45,-18,-1894,-155,-1697
27,-2,51,1523,1388,274
-88,19,-77,2081,694,1084
-123,81,-78,-311,-340,993
-119,-30,-87,962,-1276,1534
-29,43,-95,-1650,-1481,3243
18,-13,108,629,-3741,3897
-98,-19,38,3173,-3751,5169
94,33,-45,3234,-3869,3695
103,19,70,1855,-1319,2996
15,-58,-6,-610,-3473,2245
-52,40,-38,3496,-797,2660
65,126,-112,1401,-3450,3215
28,3,24,463,-3772,2376
-97,-27,-53,4748,-452,2334
-47,-96,39,-2791,671,-1920
75,-9,-38,-420,1926,-726
64,-87,-100,-1134,-279,-346
56,-9,-116,1418,-518,703
86,-27,10,-1681,-281,-728
-107,-13,-127,602,845,340
111,20,-87,-782,-25,-279
-117,28,-128,-654,26,-148
-88,30,104,-436,228,-225
-84,32,84,245,-49,303
-31,27,48,-3280,1573,-2844
-111,-107,-78,-3025,1680,-2680
56,-38,-107,-4534,1332,-3011
-17,5,-110,-4718,1164,-3078
-71,-47,-123,-4460,2285,-2675
-115,83,117,-4934,1791,-2734
60,-88,56,-6018,531,-2730
-9,56,-48,-179,-957,-3
73,1,-8,1713,-748,1349
-71,-3,-36,304,-2179,1748
-8,-71,72,3733,-2814,3071
119,-118,10,2259,-1732,2999
45,33,-1,8514,1753,4586
18,51,-26,-5013,-38,-3962
14,-15,22,-1953,1792,-2283
-107,35,-114,269,1593,-1009
-54,12,29,-739,1145,-1372
109,-110,-63,-365,786,156
11,109,-4,1002,720,608
-43,-87,-53,-1534,-451,350
-26,-93,93,1011,-1590,2018
-12,41,20,4369,-3129,2731
52,5,127,3265,-3351,3539
103,-35,-41,4258,-2516,4352
57,9,-97,520,-2587,3547
77,29,98,954,-1059,3168
61,-63,-81,1266,-2355,2399
-106,72,35,-705,-1755,436
118,36,-68,5339,-1732,3590
20,68,107,3454,-2244,5046
35,4,59,-5112,-1536,-1775
83,83,-29,2445,2669,-1285
-89,-109,-66,-437,2234,-540
118,-79,121,-793,-174,117
117,-32,93,2304,27,823
-128,-10,27,-2054,-822,-838
-68,-40,-127,174,344,34
-80,-34,-112,13,198,152
-85,24,-111,-578,39,-334
-42,18,119,-129,167,27
8,92,-50,-3640,822,-3349
-96,87,-104,-3663,1577,-3696
45,118,-104,-5411,2050,-4011
13,113,99,-5760,2580,-3489
-41,-31,-16,-5397,3560,-3112
67,63,-84,-2649,1510,-2028
-30,-88,-34,-3983,441,-1497
-4,44,-69,-281,262,354
61,99,116,-649,-1605,258
-7,111,-9,904,-2117,1061
9,27,-23,1625,-3529,2073
-35,111,123,3287,-1700,3689
-23,-56,23,1999,1684,1019
-103,27,9,-2499,-159,-3086
-41,14,-94,-270,2116,-1334
-39,29,81,187,1673,-1519
63,-59,-35,-450,725,-751
-13,-120,43,2678,-672,-383
-80,-50,-98,-1633,-703,-866
-98,8,-102,2767,-629,674
-94,4,-124,1894,-902,1398
-43,-42,54,3510,-1237,2550
10,-2,67,3836,-1476,2857
10,-34,61,1100,-2315,3134
100,-15,-49,2979,-786,3576
8,-86,66,-668,-2179,1620
-80,84,-56,3574,-1556,3480
-64,-105,71,334,-2714,2082
-103,-53,108,2395,-3111,3641
56,81,-26,2565,-1518,3210
-51,25,-8,367,61,-1329
33,43,90,-1387,1274,-1838
-128,-81,-113,-1847,91,-756
-128,-87,47,1275,-719,1204
120,-11,-67,-207,20,326
123,70,-71,-685,-2,-211
-105,42,-106,-331,587,-188
-89,35,83,-70,650,-49
-94,59,63,-628,-86,-52
-91,83,48,-94,-14,-3
46,-65,-96,-3045,1649,-2816
-51,125,72,-2242,1983,-1727
87,106,53,-3545,1419,-2019
27,-67,102,-5090,2280,-1474
-13,-34,100,-5726,2336,-1382
-55,-71,38,-3904,2886,-833
103,117,75,-5184,1992,-1262
102,124,-95,-1294,2106,-43
47,75,100,-861,610,208
96,23,100,83,-40,729
-42,34,-57,1927,-868,1687
83,123,66,1332,-1908,1564
-54,-87,-86,1068,-2939,1344
126,-70,-35,1847,-2018,2597
-32,-26,-31,849,-978,869
8,-106,9,-891,786,-1216
-125,118,-62,210,2289,-1277
34,-5,-1,219,3196,-1285
48,116,-90,-34,1342,-1263
-37,34,-5,-48,1049,-1018
44,-104,47,1308,-279,-535
-127,55,-110,1249,-890,224
38,-48,-13,1702,-1547,826
77,62,-30,5812,1659,5229
11,77,-74,3,-5809,4057
71,24,9,1239,-4515,3712
62,82,112,3590,-3647,3207
18,67,124,1580,-3218,2101
118,106,-34,1181,-686,1231
-93,99,47,1750,-189,1597
22,90,-10,2371,-1041,3127
57,-114,-42,1741,-3729,3415
37,14,61,1238,-526,2996
94,-88,123,4686,3228,1374
-47,83,-101,1945,2168,-1073
-126,-87,66,-5409,858,-2929
-83,100,-6,-90,-142,387
-119,-90,48,3085,-104,1417
-113,-23,45,-2249,-563,-1043
-51,-18,126,541,518,-13
-88,4,65,-4525,2488,-3733
89,9,-26,-3601,2336,-3447
43,90,-14,-4621,2552,-3244
37,-44,124,-3352,4281,-2399
-124,-67,90,-3817,1123,-1993
46,52,-33,-7006,1599,-2943
-32,-69,123,875,-52,200
19,108,-71,-143,-830,50
-73,101,90,2318,-1259,1318
68,-78,69,-51,-2484,1333
77,-25,-94,2147,-2963,2246
-15,113,14,3460,-1283,3472
109,59,37,-2118,35,-1531
108,-37,-17,-431,1993,-1237
-3,48,-107,-200,2326,-1425
-73,-15,47,426,950,-373
59,-43,-20,-60,382,-487
-21,122,105,202,76,-2
-33,98,41,137,-476,1109
-31,76,-112,604,-855,1844
-45,52,-58,1729,-2330,2479
20,85,-46,2897,-3546,3637
80,75,60,4743,-4095,4533
25,-128,-127,836,-3281,2542
-12,-117,-8,788,-2666,2090
70,109,-86,1360,-1600,1726
-75,13,118,852,-2416,1955
77,69,110,3757,-2144,3809
-27,2,66,991,-1140,2270
45,-66,-56,-702,329,-794
71,38,12,-1002,1391,-1216
109,-29,109,-155,1224,-599
105,-16,58,1425,370,632
94,35,-90,-1132,-701,-362
-108,60,-122,-121,-304,-276
-81,50,-98,-108,49,-403
-75,40,-109,-61,256,-378
-63,24,-128,-289,129,-355
-40,14,120,-291,-76,41
-41,46,105,14,-118,140
59,-70,-98,3164,-2533,3375
-101,-66,88,3711,-3029,4448
-56,10,77,1440,-2366,3919
-118,-86,36,1651,-4984,3938
-87,89,-38,3483,-684,2609
-21,-98,119,-218,-961,1825
43,-69,-95,802,-4507,2474
20,28,45,4423,-2509,3372
30,-14,-125,1181,1312,-1006
32,-121,-1,-1992,2789,-2191
-42,-42,-89,-4782,2392,-2651
-79,7,-40,-1362,-146,-626
-114,33,-26,1486,-647,878
-87,47,-108,-3527,-1849,-1210
-43,88,43,1288,121,675
-28,87,-122,-263,808,-168
-43,-127,101,-1429,47,-430
-61,104,14,79,-451,60
-76,105,48,396,-934,390
-125,-113,-82,-2128,-1532,-264
-91,-120,91,84,-466,434
-91,-103,-121,-89,-201,123
-89,-89,-125,-250,-138,64
-111,-90,123,-696,-456,-220
-103,-99,103,130,-82,121
-78,-95,119,-269,353,163
-64,-82,91,-64,294,174
-28,-55,88,-376,165,154
-51,-55,61,-205,-57,-43
-35,-76,60,-105,-65,144
-23,-63,75,-38,-8,164
-15,-54,69,-46,-44,203
-40,-48,71,56,-260,169
-38,-61,78,345,-95,290
-16,-91,70,924,238,649
52,106,-22,4487,1556,2390
-11,117,-123,2220,765,1254
-28,105,-70,-1640,-490,-716
31,76,81,-272,-267,45
31,64,87,142,41,55
62,-85,-126,-3143,565,-3409
116,-76,-120,-252,1601,-2031
20,-71,-34,807,80,-1301
-98,-31,46,-4383,147,-3172
-121,-67,-12,-1687,645,-1944
91,118,112,-4633,813,-2302
-106,-63,-107,-4592,2610,-2016
-126,4,-62,-3566,3052,-1669
-41,-112,81,-6239,1335,-1701
121,-48,27,-2307,750,-35
32,109,41,-2285,722,-169
28,99,90,-620,558,573
55,117,-49,32,-317,704
112,122,29,33,-1039,969
-37,-87,-67,-89,-763,570
-127,4,-123,-1655,-1705,1042
68,-90,-12,3034,-2301,2681
-113,88,62,4289,-145,3067
105,-31,-46,-88,-581,-333
-116,-51,121,-860,1378,-1803
14,-19,106,1135,2046,-1888
70,35,120,-471,2084,-1514
-119,-33,25,802,364,-371
34,-45,-84,-1381,88,-12
55,94,20,1351,-922,734
-12,2,-76,956,-1573,1396
-20,8,77,3058,-1852,2148
12,-18,63,4017,-2532,2312
50,12,-120,4498,-3004,3838
18,25,93,1994,-3448,3078
99,32,108,1184,-1342,3072
88,46,-5,448,-1667,2539
-49,67,-7,-1846,-4225,1131
-48,-3,97,3589,-4889,3873
-54,-65,-112,6654,-1007,5542
-107,39,108,-1399,1517,-2661
-11,26,-2,1582,4203,-2107
-116,-110,-88,-2999,1833,-1483
103,-23,47,-1613,-1483,97
110,29,33,2915,-699,1129
34,-4,-59,-3825,1439,-2397
42,-36,-57,-3510,2464,-1976
-43,115,-49,-2674,1784,-1756
-82,86,113,-4132,1652,-1114
-71,-2,82,-2496,2279,-175
-122,0,96,-3233,1406,-487
-114,-121,-61,-3244,727,-504
-114,108,-127,-1377,-1247,228
-1,101,110,-177,-2354,9
-1,76,-22,1043,-5008,389
-33,-29,-31,9335,82,7217
-92,-70,5,-1649,1088,-1024
-31,95,124,-3103,-753,-2689
-43,-128,-25,957,1127,-935
-19,-67,57,802,1336,-382
-122,17,34,-793,421,-1138
105,-27,-66,1190,550,-298
40,-71,-56,153,-248,-200
-67,-118,-121,-77,-605,-424
-40,-20,67,2193,-537,869
-89,22,41,1005,-994,831
-4,-77,-67,2666,-1170,2065
4,-13,-110,1063,-1428,1924
-31,41,-48,2212,-3722,2251
53,-35,8,1907,-1365,2345
37,50,-126,117,-1946,1451
91,33,92,1363,-2088,2246
-90,72,13,1516,-1853,1953
-55,114,101,-281,-2894,1140
7,-82,24,2278,-2224,2135
-21,-80,-80,2466,-1513,1966
125,-103,113,1446,1281,161
88,21,12,-1122,1427,-1321
126,-21,-88,-2430,-12,-1075
-112,-25,62,120,-637,122
-104,0,-121,130,-320,271
-112,48,-88,-12,-143,-4
-84,42,-98,137,356,-19
-87,65,-98,-646,-11,-188
-79,74,100,253,159,31
-128,38,77,-2977,2725,-1656
-10,91,-60,-9243,436,-3128
122,-51,-123,-1231,5664,-209
98,-66,-92,-5601,3020,-1763
-29,-48,6,-4783,2153,-1321
107,109,-61,-359,1021,492
2,60,34,-1455,-1040,-180
114,26,115,616,-503,794
-38,67,10,-184,-1103,946
-64,114,119,-453,-2429,963
76,101,114,1057,-3176,1180
-22,9,-99,4483,-1205,4122
-17,18,-58,1531,1471,1029
65,0,-101,-1683,461,-2158
-72,-56,73,-649,164,-1433
0,-40,-121,395,1916,-897
80,-68,94,-928,316,-948
-19,61,15,1142,242,-387
93,89,-111,-646,887,-195
107,-127,-45,33,791,-125
108,-54,-97,-917,-133,-431
112,-124,24,-33,396,81
62,51,-45,1055,-9,1179
2,-25,-102,1993,-723,1827
-5,-96,-90,2514,-2570,3144
44,-110,-32,2781,-2307,3007
-8,3,102,597,-2695,1976
13,1,72,2220,-2362,1872
73,-18,95,1820,-1249,1821
102,60,-57,145,-1667,1590
-88,12,44,1519,557,1609
-74,18,13,3332,1672,2405
52,113,-34,1266,-1185,1844
81,107,-60,-1845,-1595,477
-86,26,12,1108,-1054,1671
-81,25,48,1072,-1235,1951
-114,50,32,831,-827,1188
125,39,32,500,-90,183
125,26,25,-38,272,-446
-119,-9,-7,-204,176,-453
31,-24,-68,-4552,-1128,-1352
-8,0,90,-758,-536,-492
61,3,38,370,2314,156
27,57,-44,-317,2359,-1594
67,-101,15,-780,1903,-2162
13,39,80,-3882,2004,-2952
-32,-96,26,-807,2680,-2159
-112,23,-110,-3976,2938,-3016
127,-90,78,-2758,3844,-2773
15,-22,45,-3885,2514,-2607
-110,26,-30,-4589,2084,-2665
75,116,79,-3284,1590,-1840
43,-62,0,-1285,289,-589
115,116,38,-252,-480,598
-33,-67,-89,678,-1841,954
-114,3,57,834,-3033,584
109,-33,-107,1782,-2569,1279
-64,19,79,1089,-89,2495
-51,35,-106,2326,2183,485
86,-12,13,-2374,1080,-2635
50,118,-99,212,1983,-701
-128,77,54,-1176,181,-870
36,104,84,1290,-621,561
-75,-71,-6,337,-1146,894
-109,87,95,2527,-1998,1522
-52,14,24,3939,-2785,2808
-50,-39,-46,3221,-3363,3076
-50,89,120,1440,-2696,2640
42,-16,93,3263,-1483,3224
27,52,105,-4,-1199,2204
-72,-57,-128,2850,-793,3129
-109,64,-8,2650,-2940,4754
79,-83,-91,3905,-887,6849
-38,113,54,4396,-1811,1251
-113,106,91,130,-312,-2755
90,-52,-29,-2506,1687,-1045
83,54,-71,809,1135,-153
31,-85,3,1852,27,1047
23,13,121,-3963,-653,-1322
-127,43,-125,68,626,-385
-118,63,1,-4191,1288,-4237
107,69,-68,-1846,1794,-3765
65,-91,-13,-3471,2059,-4203
53,-115,-106,-3274,2580,-3972
-16,20,46,-1607,2068,-2989
-103,-74,70,-2412,1405,-2779
93,45,14,-2512,1020,-1692
69,-36,-87,-789,198,-968
27,-95,-26,-1174,-1361,-669
111,-101,41,-1216,-1891,-140
-11,-90,-108,-233,-2681,475
-25,-94,55,-109,-3645,1268
-86,56,-117,3960,-2158,3860
-6,-111,4,-490,2072,650
-58,72,-113,-853,1221,-2204
-68,99,110,-916,2135,-2371
24,-15,-2,1073,1801,-419
32,-55,-92,-1008,-329,-765
2,54,20,2339,412,674
-93,103,55,-13,-937,803
-64,82,-28,803,-874,1474
-35,92,-79,2040,-961,2302
-57,60,-65,1696,-2115,2454
24,30,-105,2223,-1312,3280
-4,81,32,1553,-2968,3410
37,76,8,2035,-889,3208
-7,-93,70,-40,-2195,2511
82,67,-46,1169,-2068,2438
25,30,-61,1400,-3108,3038
-56,-30,105,7238,-2510,6774
20,-16,-56,-1068,-1657,3963
102,-16,123,727,649,-3095
30,88,82,1283,1961,-1787
71,7,30,-2158,867,-1565
48,-46,-98,177,90,-453
89,-36,-75,-284,215,-394
-94,49,-60,-852,229,-664
-64,66,-84,-535,236,-885
-29,71,-104,-752,431,-881
-27,81,-125,-787,324,-907
-49,-105,-44,-3295,1397,-2771
-86,103,-37,-888,2545,-1878
104,-80,67,-3874,2642,-3093
54,-65,2,-3457,2507,-3034
36,-74,-74,-3902,3707,-2720
-80,65,114,-1052,3178,-1683
10,-30,-92,-1566,1461,-2005
-34,-110,-114,-2478,1274,-1608
-50,115,68,-2562,982,-1471
-25,39,4,-1260,-767,-472
124,107,-24,1991,-2268,849
20,-71,-85,1361,-4186,-89
30,-113,-25,4622,-5179,2092
-8,-12,36,8617,1782,7175
-99,-123,-72,-2,1701,-3866
-109,-71,-17,-6580,2536,-4632
107,-74,86,1107,2070,-1112
93,109,-94,-364,310,-1064
-87,-38,32,360,-738,-17
-47,37,53,-487,-385,1055
-47,88,-62,1157,-257,1530
-49,-112,105,362,-1731,1518
33,-125,86,1713,-1919,2639
48,80,105,2535,-2409,3495
81,43,-92,2823,-2450,4463
71,-5,68,881,-1419,4158
20,-119,-84,1377,-2837,4368
6,-40,-77,582,-871,2626
16,-115,121,1324,-2350,2204
-103,-9,78,2302,-1585,2858
-44,32,-105,1801,-1807,3879
-96,-55,-35,-141,-1463,2700
-29,-31,-125,941,-864,93
-6,112,89,-842,938,-1577
-122,-101,-87,119,1111,-622
-127,-70,107,1961,373,1021
67,-26,-8,-1047,-959,-470
115,-28,-54,-386,-355,-205
-112,-56,-73,219,24,111
-108,-22,-48,-485,-6,-215
-125,15,-109,-5029,-1542,-3206
35,-110,29,-1613,-1449,-1879
-31,-33,81,-6810,-1138,-1833
-98,64,-42,-6131,-2685,-684
-116,66,118,-7801,-2225,1038
-69,59,-119,-802,262,1276
-76,-20,-9,-2938,-1318,-1412
20,65,105,6965,-5997,1846
-33,-104,107,893,1264,-1252
-51,-116,-101,-598,6791,-2139
6,33,-7,-627,1727,-1180
-80,-92,118,3136,140,-1093
17,-84,-61,3128,-153,-564
-32,99,-97,2580,151,837
-28,84,-48,2768,395,2709
-72,7,50,2113,-2397,2905
-69,97,-63,4847,-1778,4527
-110,127,-53,1904,-2611,3567
-24,1,103,595,-2930,3202
-44,9,-84,853,-1616,2398
-122,35,-25,72,-2768,2506
106,-10,112,-1247,-2724,1768
-45,45,3,-4591,-5016,707
-72,-50,71,-497,-3187,390
-21,68,82,436,1175,-573
22,104,-14,1202,3662,-607
4,-50,15,-764,1461,-675
26,-56,-63,-1661,598,-1094
106,-93,92,-879,848,-1039
-102,-91,69,-870,1203,-990
-80,-75,41,-668,1113,-942
-84,-79,17,-269,835,-940
-84,-84,27,-212,258,-723
-81,-79,44,-455,-337,-509
-78,-74,50,-274,-777,-158
-82,-71,55,-98,-801,151
-101,-56,74,34,-1115,296
-116,-32,122,-233,-1285,413
-125,-5,-117,-143,-734,290
117,6,-94,-466,-431,-46
72,116,-66,-6072,-722,-2507
64,96,-92,-6477,164,-1951
44,-46,-105,-3509,3817,-759
49,-55,-6,-6452,854,447
-121,-6,-123,-6528,-2612,1623
-48,23,40,2805,-1702,797
-81,112,-113,-4388,-3660,-3582
66,45,33,13162,-5794,3534
-70,-92,108,-10795,3266,-4827
-88,-123,-115,1813,10521,241
-128,-104,-57,143,1326,-1112
-95,105,-108,9476,-5102,1484
-100,52,-31,1681,-3490,-2421
-76,40,-86,6768,13,1021
-71,77,42,1072,-373,1847
32,-95,-49,1269,-3365,2469
-124,-34,8,3136,-1626,2172
-125,-119,-24,-143,-1279,716
4,41,-54,752,-2369,1855
31,-71,-37,-878,-1982,1850
-15,-73,-20,-1288,-1452,1203
-75,-104,-15,1026,-448,1048
47,-42,45,1507,-1554,994
27,-47,109,-3153,-2257,-735
65,-123,-87,-1103,-28,-700
37,84,115,1313,456,-883
55,110,-111,1094,457,-441
62,-74,-78,1,65,180
56,-54,-89,-2300,-308,-535
79,-68,92,-823,-1,-543
108,-75,83,-502,382,-541
110,-54,71,-725,413,-651
-128,-33,69,-993,63,-678
-110,-29,61,-390,-130,-386
-112,-30,60,-267,121,-246
-116,-12,60,-582,77,-319
-112,7,41,-483,-169,-260
-119,24,50,-521,-583,-190
-126,21,65,-426,-727,-272
-104,-7,78,78,-255,-29
-66,57,-108,-5124,-690,-2217
99,-64,96,-10353,-125,-1761
-30,-2,31,-1933,2435,741
74,-125,87,-10522,-3113,1230
-44,-36,-76,-72,-899,2408
108,92,-124,-13980,2666,-8716
-46,-9,104,31360,-8032,8499
78,-106,16,-23160,1298,-7989
89,-4,-12,2828,11573,2178
-70,-110,4,5366,-2199,741
-110,3,90,1929,-1865,-3325
86,3,1,584,-2691,-1054
27,-25,53,4768,-451,1025
77,-73,-65,4768,-3845,829
-72,85,-74,1606,-2228,873
-91,-51,10,2352,-2316,77
-15,-34,23,5157,-1200,1335
-95,-79,9,-1,-2587,760
-16,-103,102,756,-1979,1334
-22,111,79,463,-1284,1232
-100,-74,7,1958,-899,680
84,-98,64,-251,-979,-481
68,-120,-10,-421,-182,-491
72,103,-84,-356,696,-297
61,105,-91,-291,316,-455
88,108,-128,2,332,-242
96,-114,-104,-863,-73,-476
111,-84,125,-1563,-303,-603
122,-79,95,-1710,-236,-703
127,-62,57,-1201,39,-585
-115,-30,45,-944,50,-482
-120,-8,58,-767,-347,-301
109,-4,57,-627,-350,-322
121,5,55,-632,-52,-233
-124,30,54,-480,-217,-97
117,48,60,-303,-461,-154
119,50,85,-410,-385,-175
-128,50,90,-419,-134,-183
-123,46,81,-110,98,-165
-112,33,77,301,286,-132
90,26,-111,-5500,3972,1980
127,-48,-71,-10382,-1090,1983
-119,93,-104,1225,709,2004
38,53,-33,-8586,-7430,-5114
96,-103,-113,16397,-4083,1382
14,-52,-55,-2122,7366,-3258
-106,62,45,-17811,12987,-2660
-70,-64,-65,16555,-47,5959
30,103,-48,3854,-5140,-2297
-38,119,116,7367,-3697,-147
-27,-70,56,3814,-3897,1398
73,63,63,1376,-4315,820
-28,41,16,4881,-2318,1507
110,110,-3,929,-1873,807
110,44,32,3757,-3466,2674
18,-125,-2,-986,70,684
-105,-113,49,2977,1,1606
-12,1,-56,-3508,-2718,-672
80,-83,-6,-2566,-954,-449
120,67,81,150,1808,-236
88,-124,75,2883,1848,385
86,-103,-93,-417,442,-530
107,-105,-127,-757,49,-938
-73,-115,84,-239,365,-724
-45,-107,93,-372,455,-683
-38,-100,84,-326,359,-732
-36,-116,74,-360,284,-789
-21,-119,57,-234,276,-517
-24,-120,61,-138,-173,-193
-60,-107,78,-195,-913,132
-64,-90,103,-629,-1263,304
-68,-56,118,-696,-1277,557
-106,-9,122,-774,-945,432
127,11,102,-639,-229,81
-111,30,83,-228,308,-187
-90,41,62,70,463,-399
-78,13,67,204,264,-380
-87,-15,63,277,162,-152
-86,-34,57,162,264,-37
-68,-18,59,143,54,-4
17,-41,-37,-8209,-2461,-1156
54,-107,-10,-10172,-2745,201
94,23,-18,-12656,-3211,787
57,111,-2,-20494,-11755,30768
119,18,45,-24653,24928,-26953
37,87,-85,30188,-1177,-22067
22,-49,-64,-32097,2908,14155
89,22,-34,-680,-208,-3678
115,-58,-80,5672,-3212,1010
19,84,-117,-803,-822,-841
-107,-100,96,-252,-307,-394
72,2,-82,2791,-610,329
1,-33,-16,-3625,-3454,-2203
-84,-52,-6,3046,-985,846
-44,-118,94,2658,-194,1577
-117,70,85,1338,-101,1375
-125,58,123,1142,-1338,885
123,60,-86,-2650,-1212,-1191
-110,-17,-15,163,-720,399
104,-50,-25,633,-758,-111
103,-19,-52,1148,-380,48
121,-4,12,-1188,-515,-85
109,-9,-74,99,-203,-206
114,-35,-56,229,-551,-322
114,-44,-78,283,-666,-466
127,-53,-90,-58,-378,-155
-123,-46,-109,-401,-102,-112
-124,-35,-116,-243,-169,-78
-123,-23,-115,-336,-202,-101
-112,-10,-116,-299,-191,-97
-108,-10,124,-102,92,-4
-109,0,126,-86,119,-8
-104,16,125,-276,23,24
-83,26,116,-308,127,101
-78,29,97,129,244,22
-53,11,107,407,329,106
-47,-26,-118,409,183,34
-55,-70,-103,297,25,73
-71,-96,-86,-826,-180,-296
-36,-90,-123,-157,-50,-117
-7,28,-112,-2845,-4813,280
57,-63,-82,-12765,-10956,-1882
7,53,-117,-8970,155,-6502
-99,-27,110,-12346,-18239,25244
106,110,-111,18821,31759,-16589
-54,51,-32,29316,-3217,-12195
112,-49,35,25588,11937,6552
-86,103,-5,12861,-1060,-2443
-125,64,2,-4170,-5926,-4732
39,-99,-27,11473,847,4745
70,-103,118,-526,-1734,-459
103,-94,-24,1378,66,1083
-6,-9,46,150,-2186,-219
113,-116,10,2609,71,492
114,-18,-45,65,-2096,1660
106,-109,77,-2905,-2061,-1553
-25,-12,-21,5425,528,2864
-123,-6,-6,-374,-1443,350
-124,24,-113,-2920,-932,-614
-116,0,-39,226,-646,187
109,-8,-4,-438,-236,-718
-124,-14,-26,-192,28,-519
-123,-14,-37,-479,-462,-156
125,-5,-85,120,-317,-187
113,-11,-85,181,-482,-641
125,16,-79,371,-684,-385
-126,15,-62,-566,-900,-552
-103,17,-108,-381,-56,-165
-100,4,124,319,547,171
-95,-7,-113,190,336,-12
-81,-20,-119,471,260,92
-92,-64,-82,-130,-285,-242
-57,-92,-103,-265,61,120
-55,-82,-105,-458,625,38
-88,-99,-76,165,-352,86
-64,-89,-81,-167,-391,-21
-67,-92,-94,487,-489,285
-125,-86,-88,371,-791,60
112,-93,-81,553,-915,-262
123,-76,-81,612,-769,41
-33,82,-4,-4296,-398,-4343
4,-7,-122,-6812,-1035,-4044
-64,109,49,-6850,-234,-1388
110,-68,-50,-5186,-1570,-460
-48,-117,46,-3962,-3995,472
116,50,44,-16,-2667,975
-14,-45,117,-3753,-1196,368
109,-69,-115,-7286,-1987,-3735
41,32,115,10440,-1666,3153
-84,-68,-41,3446,-994,-1587
89,-119,-9,-10639,6150,-4651
-84,-23,49,-1806,5022,2652
44,66,88,983,-357,-2125
70,-22,69,11234,350,-370
54,-66,-4,7776,-2368,965
114,58,8,-2047,-3062,-2644
-5,-81,-47,7451,-1810,2543
-23,94,28,1769,-1733,-218
-46,113,45,1183,-2489,828
-66,119,-52,-149,-2418,-786
-61,-37,19,6264,1648,2123
64,12,-51,10270,4329,6170
105,55,9,-2682,-1540,-1919
-80,-32,-99,-9338,-4085,-4246
20,24,87,-9419,-4621,-3806
90,26,-113,-792,-311,-1474
-106,-68,-88,7344,2994,3082
42,-98,-76,1773,831,277
10,-8,69,-2857,-2066,-1034
44,27,-51,-3374,-2128,-1506
88,35,-127,-2009,-1064,-1173
115,28,97,-41,484,-199
65,28,-90,-1179,-19,-624
48,56,-115,-997,-13,-333
52,96,-108,-1651,-475,-282
57,-128,121,-933,-325,78
50,-102,124,-584,-169,90
31,-77,-115,-602,-179,-117
23,-71,-103,-886,-364,-365
35,-67,-116,-774,-159,-361
-7,-65,84,-4602,2774,346
29,-44,-92,-9618,827,1824
-47,46,-93,-2628,-2637,1631
87,-88,-59,-1797,-4484,-28
4,100,99,-8,-3377,790
64,-48,33,-4742,-5003,-6134
-20,-32,33,13677,380,2639
25,-28,-13,1710,2426,-1613
104,-24,-71,-15342,4318,-1303
-57,-32,-98,8540,2616,3339
20,69,14,-1436,4071,-4109
18,106,-56,2350,1114,-1912
-6,114,67,5450,2700,-6594
-84,8,123,8716,-8616,6428
-87,102,49,-114,-2814,-6609
7,-106,-86,4363,297,4214
15,122,27,-5549,-4972,-5483
-96,39,-89,7067,-97,2673
-103,-1,65,-426,-1920,-1967
-72,-75,-50,1024,3666,-1185
-119,-109,17,14883,3443,6147
14,71,-11,-4294,-663,-750
10,-113,-65,-9662,-3741,-1606
30,-127,-21,-9178,-3372,-2310
112,90,49,2581,1277,551
-108,-10,-116,8466,3682,3381
71,-95,-73,971,815,-93
113,-52,-69,8,-114,451
104,-65,-83,-1344,-1490,-524
119,-78,104,200,-1171,-509
-121,-98,-117,-47,-1011,-602
-119,-100,-110,-198,-644,-443
-123,-94,-113,-45,-561,-415
-126,-83,-74,-241,-933,-487
114,-92,-65,-509,-894,-449
113,-77,-78,-1100,-371,-405
-120,-35,114,-1010,149,-32
-119,7,122,-655,-78,-28
123,45,-101,-1009,-757,-99
79,62,-100,-1686,-831,-299
33,72,79,-1455,4425,1302
118,81,-26,-8773,5495,843
-67,-44,-128,-5032,281,1705
-121,-2,37,1203,-4432,1470
-90,-27,31,-793,-2138,1418
-59,115,123,-3282,-3410,-2440
-126,86,8,-9686,-5897,-9661
-22,-41,39,20717,424,7032
-73,-94,-22,-17394,3948,-6415
-2,-97,69,-13791,4955,516
66,-86,-105,9734,2105,1948
-85,105,-108,11645,1050,650
97,-74,-80,-7409,2485,-3297
-114,-120,-126,7600,1118,-1620
87,-5,124,4748,-3503,-249
-117,-40,103,348,-9067,402
31,-98,19,-592,-2998,-6941
37,10,74,3558,-3296,-67
113,90,123,-1794,-4041,-1582
112,82,-19,-1765,-941,-1777
-117,124,124,2075,1112,-271
-121,82,-81,4265,604,626
-88,88,95,6421,259,2291
-29,-77,-100,-4581,390,-3264
-74,-74,22,-2163,3018,-614
-87,-92,-36,2930,3060,1162
106,86,-109,704,-6,154
109,109,-87,-761,-1783,23
-122,-100,-115,-707,-1569,520
126,-27,-109,-635,-1109,517
97,-29,-110,-375,-303,-124
113,-49,127,-190,616,-323
-79,-42,107,-451,1182,31
-72,-34,65,-150,1190,176
-74,-34,37,780,1054,294
-111,-66,86,533,-7,-157
-118,-75,-127,-405,-866,-667
-48,-79,-110,-1016,-950,-376
6,-98,-96,-1076,-101,155
-41,-71,115,-282,-260,-161
109,63,73,-6754,1110,-1838
-111,-57,49,585,4149,-280
8,10,22,-6983,3980,-652
111,-109,95,-6204,3362,819
-100,49,127,-2906,-2525,1639
-85,57,52,-1223,-2833,1284
87,-113,66,-1190,-2689,1636
-49,-114,102,-3589,-4336,-2557
-31,87,28,274,-3647,-3774
89,-87,55,16312,342,7200
20,-20,55,-13671,6763,-6809
-110,-98,34,-3586,3429,2453
-122,9,-86,4307,2741,1220
98,15,49,-1963,2042,-1956
23,92,-30,-500,5517,-5805
-86,119,75,18055,-8389,6642
54,-38,42,326,-6212,-4014
-84,13,48,-817,-2446,-850
2,85,-29,1828,-2619,-516
35,7,-36,4164,292,422
-89,73,70,-182,-2349,-871
-67,-81,-70,-1647,-3492,-2782
110,-55,69,8503,-524,3120
77,127,-1,-2361,832,-1901
-117,-127,-54,-1901,2202,-644
-111,112,-29,1932,2875,805
100,91,63,3042,1501,1134
90,79,-68,189,-478,11
-126,-113,-67,-428,-1005,117
-109,-93,-66,-1160,-1393,-170
-119,-88,-102,-352,-905,-307
-111,-117,-128,360,42,-336
-73,-110,-121,504,562,-12
-83,-81,-86,134,-173,-94
78,-101,-47,-888,-1318,-1171
123,-116,-84,-1304,-908,-1039
-32,-122,-76,-2568,-710,-196
-84,-103,83,-2452,-1122,-392
-121,-55,-34,1424,623,73
-112,-11,86,1487,547,609
108,-30,0,-2076,4571,1737
-51,-83,-83,-7210,2013,318
116,86,-76,-5851,5661,2162
-72,-52,38,-8953,455,2810
-120,-113,26,-264,-2680,3909
13,-84,-91,2448,-2805,-1230
-22,-57,-54,-3229,-4132,-6013
67,22,-86,2030,-4295,-4011
-114,-35,21,23854,3446,14936
14,-71,2,-26374,5479,-13292
-116,22,-2,-663,4143,6044
98,117,106,9045,3122,4801
-74,126,91,-2251,-1425,-3806
8,68,46,-1108,7482,-8722
91,-123,94,28997,-11634,13242
-40,103,52,-14492,-11013,-15432
-103,89,-63,16124,3660,2914
0,-33,-124,-4200,-2944,-1984
-125,63,48,-1157,-5954,-1639
-22,-13,-89,3098,1475,-2073
-44,-123,-121,14450,2386,9480
82,39,-27,-9787,-2768,-5688
-88,-54,28,-4707,3947,-1581
-25,22,110,4423,4534,3514
64,22,-128,-320,-103,-601
104,87,38,1645,-223,547
122,99,-120,530,-860,647
-128,-85,-61,-1392,-1712,-42
116,-61,-93,-643,-1291,-272
116,-72,-108,-528,-531,-793
-119,-109,-127,-444,201,-754
-102,-103,125,-725,145,-638
-95,-93,110,-845,-10,-373
-84,-67,78,-226,118,-62
-70,-41,87,-191,296,18
-78,-22,86,-144,477,-97
-63,-18,78,-190,476,-177
-46,-12,82,-245,111,-218
-33,-20,84,-171,-165,-131
-26,-29,79,54,-60,84
-43,20,-15,-11573,768,-2208
98,-128,51,3286,10807,4759
-71,-121,-69,-2928,5145,-1919
-48,120,66,-16954,1095,1183
2,-86,-68,5322,-4753,7245
76,75,-110,-2670,-3182,275
-102,-80,-119,-3978,-2122,-635
124,104,75,-6340,-3397,-9420
-5,-24,-122,31027,-5,10939
113,58,73,-32062,3418,-11764
60,-106,109,-8860,7269,4321
-56,75,6,19014,1300,5221
-125,19,-52,-2726,-3612,-4945
43,-81,64,8098,1419,-324
-92,-103,112,4315,-2956,1976
-61,76,108,-1400,-8621,447
-108,-29,75,1562,-3456,-6951
47,22,-75,7551,3945,3493
-41,73,-58,-66,15,1040
65,-100,-11,3190,-1727,1118
72,-101,-48,-4151,-1491,-1365
-54,-119,56,-2813,1741,-2055
-26,-90,-50,3794,3577,768
-82,65,125,1959,1154,-291
-82,84,-38,-140,-725,0
-107,119,-53,-1630,-2118,11
-126,-97,-124,-891,-1767,22
116,-59,-95,-956,-1643,-373
-125,-24,-89,-1049,-859,-474
-110,-18,-112,-1178,106,-475
-78,-7,98,-519,970,-203
-74,14,111,-960,698,-324
-54,40,87,-715,696,-182
-46,53,76,-771,498,-139
-57,53,57,-343,470,-241
-64,52,75,-763,-78,-410
-58,62,66,-731,-441,-254
-58,68,58,-477,-507,-32
-63,88,70,-262,-671,91
-79,97,95,-163,-893,-9
95,17,44,-6121,724,-773
-112,14,-13,-2005,7191,2563
99,-115,1,-11096,3210,1681
52,-71,-22,4378,-5177,3512
11,-126,-44,-1451,-3266,1679
-45,113,87,-3736,1116,1195
14,93,127,-8554,-1597,-3703
8,86,29,11227,-3874,1072
-78,-89,-37,10280,-2178,3098
10,-41,-101,-11041,7258,-6302
125,-83,-3,707,5959,4634
-112,-31,76,5303,-3024,-1585
121,48,-123,692,-3462,-3102
22,-81,-32,8428,2199,-941
80,122,8,-2280,-3568,-1376
35,88,8,-3055,-6662,-8042
-116,-31,-7,9473,-3380,1832
101,-103,-56,-6517,-3127,-3772
-5,-36,32,1063,-607,-212
-60,-113,2,2461,-198,-336
65,-110,-118,5919,1885,1577
103,111,80,4114,1373,1084
7,-92,-126,-6346,-133,-3905
-68,15,35,-2543,2131,-593
-82,-26,10,-704,1283,-365
-124,-91,53,805,-488,-52
-98,-45,59,1300,-115,1299
-112,-9,123,-561,-281,1055
-117,57,93,199,51,1120
-112,62,104,558,448,336
126,24,121,480,449,-655
-115,-61,106,31,315,-1142
-65,-83,88,-20,465,-624
35,-107,-29,-2989,-1141,796
39,111,93,-1483,478,518
27,106,46,3449,1210,1153
-5,51,-41,2919,810,787
-81,85,59,482,-581,-289
-90,124,11,-379,-955,-582
109,-40,-42,-1506,-3010,-663
-124,97,-20,-1771,3081,-2514
7,121,-7,-2986,926,-3075
-120,-19,68,-5652,-1528,-3366
10,-9,15,-9118,-5671,-5776
57,79,-77,-15914,-8836,-7444
-104,-64,-13,-25094,-5577,-13561
1,119,-65,6330,8960,5045
-86,26,-90,12748,2790,7282
-108,-91,82,-11329,-680,-7371
37,-1,-40,5696,1560,4266
107,-66,-79,2591,382,342
-89,84,81,-847,724,-2312
119,33,-128,6379,3755,2794
7,44,-85,821,2670,-829
-5,40,-16,3707,2441,38
1,107,-22,9088,158,1597
-93,-32,-123,3290,-3298,-729
-25,27,59,3988,-1406,-403
-62,105,79,5223,-447,-1160
-16,94,125,2928,-158,-314
-93,-18,-18,2414,-1372,-289
120,-113,-61,-1156,-1937,-226
82,92,105,-617,-1480,-224
112,14,42,-743,-778,-115
-111,26,-40,1048,1552,1119
109,64,-43,235,2127,1033
106,-123,-113,251,2639,1192
-114,-71,-123,605,2789,1564
127,-75,-92,-467,1727,699
-103,-84,122,-243,1417,81
-61,-91,121,-735,905,-521
-21,-83,83,-444,618,-427
-12,-86,87,-474,-70,-731
18,-62,104,-4,-713,-653
-84,-111,-90,-670,-2362,-1759
-33,-79,-102,-1939,-2002,-1903
113,-75,-105,-1667,-112,478
19,-80,-92,-2563,-106,122
-29,-69,50,-66,532,-115
9,-72,94,2280,911,504
101,-104,90,-4179,-1276,-1803
-89,3,-32,-5020,-5062,-1057
40,52,118,-5978,-7755,-784
-73,-118,15,-2904,-3804,2095
86,-48,77,-4695,-1031,-1642
-108,-122,51,-6431,-4108,-15717
16,-24,-120,-28286,13138,24037
-116,26,105,31804,84,-18988
113,-8,57,5671,4328,9086
-76,-56,42,16554,7798,6116
-19,-84,-10,-7679,-349,-5771
20,72,65,1522,4207,383
24,31,-50,4511,4849,2397
-58,-97,115,4089,2877,2992
-1,-81,-11,1116,1120,-907
29,99,-65,-2518,-1062,-1188
-76,-64,-32,-1521,1332,27
94,-56,-69,616,-16,112
-14,-58,-120,-1223,-35,-68
3,-33,90,490,137,1265
-15,-89,-122,-417,-744,851
-54,-89,117,744,-949,1634
-53,-120,93,-78,-1930,1302
-30,81,10,27,-3193,740
-9,-81,67,541,-3373,1455
-55,-118,34,382,-5111,847
-11,-31,-95,-1779,-3064,-1123
-50,31,-21,3124,-4054,2348
27,-79,69,-264,-1736,-348
48,-90,-89,1584,-2202,2348
22,-117,-56,518,-2502,1120
38,-51,-79,377,-1421,872
-68,-36,-35,-906,-3505,-495
-83,-37,115,-1553,-2465,-1713
126,67,82,598,3488,1007
-1,-122,39,1108,1341,589
-68,-119,-81,1365,105,-463
-41,-106,-13,-796,-1148,-485
-27,-77,-4,-1342,-1434,-498
-39,-32,35,-1606,-2108,-1182
-36,17,72,-2972,-2411,-1956
42,33,0,-2775,-1074,-1558
-112,17,-101,475,1770,342
122,27,-128,1476,2383,658
94,18,-126,602,1607,224
114,7,124,-26,649,198
-124,-5,90,254,200,270
-97,-37,64,887,24,612
-121,-48,86,845,-590,701
-125,-53,101,1059,-805,786
-117,-57,-83,1431,-1047,1123
108,-46,-23,678,-1081,1078
69,-33,-10,387,-1011,684
27,-33,-4,-89,-1066,309
35,-30,-18,-170,-791,63
47,-16,-1,-285,-842,39
29,-27,-15,-252,-433,-13
40,-32,-31,32,96,32
56,-27,-50,-124,614,-69
92,-17,-83,-530,1023,-287
-120,-3,-111,-503,1157,-334
-86,6,-126,-441,863,-511
-57,9,117,-515,683,-534
-44,10,114,-718,438,-544
-18,23,107,-858,282,-375
26,61,79,-632,286,-89
-18,59,64,590,60,91
-99,15,74,1174,-654,-596
-65,-35,-41,-826,-1246,-1399
0,3,-66,-1305,-558,-738
66,-27,-74,-1615,567,615
29,-99,-17,-3304,67,-1294
83,-85,70,3803,1894,1631
-1,-111,-22,2720,1330,1030
-105,9,37,1296,1345,542
-122,83,123,-938,646,-413
-28,26,29,681,2535,170
-46,-21,92,867,2512,-105
-54,-14,87,1149,2309,-96
-39,-72,101,-258,834,-518
28,-33,-119,2135,4102,857
0,-36,-128,88,-730,-193
85,-27,-12,-2291,-831,-1581
16,27,-120,915,482,998
-46,78,3,-664,-289,406
-102,20,-89,72,26,-152
-110,-53,-121,130,-275,-612
-39,-89,119,-284,-543,-145
76,-16,-121,57,-701,1153
15,80,-7,-401,-2276,1085
-17,-40,-97,2269,2456,629
121,-86,71,1353,613,254
120,-75,28,-1188,-896,-683
-39,5,-54,-2180,-1836,-266
-15,62,-95,-1007,-1360,455
-99,51,-117,-633,-1107,-262
116,-33,112,-62,-316,-836
-90,-47,101,391,544,-141
-56,-13,-111,-674,27,69
-60,29,-107,-213,-502,-54
-102,6,-105,-339,-101,-385
-53,6,-82,-1410,450,-411
-25,23,-107,-1300,528,-312
-38,35,95,859,376,207
-30,16,-92,-149,683,124
-18,3,-65,-233,923,278
-1,-18,117,1350,1461,789
35,-70,-106,2602,1417,1236
4,-66,10,2175,912,1139
-17,-45,102,1186,818,539
-33,-31,126,916,426,732
-72,-51,108,-158,-257,-38
-55,-86,61,-229,-228,-183
-27,-94,45,-809,-794,-275
-16,-72,-3,-1007,-875,-328
-8,-55,-26,-1003,-845,-398
-10,-31,-62,-1099,-966,-514
-10,-22,-102,-614,-669,-284
-16,-7,-105,-534,-593,-177
-43,0,-117,-423,-607,-112
93,-105,-114,2122,5524,-635
-92,-65,95,1206,4375,-2980
-9,94,46,-1435,1161,-4183
48,15,-44,-3356,1612,-5049
20,-95,-54,-4326,827,-1654
-128,34,20,-5973,-7899,-2682
-122,-65,-103,-1614,-13625,-1532
-12,-36,-1,-10895,-7454,-1750
2,71,88,-1598,1786,2893
51,83,84,-21684,-5093,-23596
77,-84,-127,-27245,14497,26538
99,115,43,-25756,8774,-14029
-100,5,-31,9340,6628,8001
76,33,-18,16365,-1925,-2528
19,89,117,-2967,3055,-3401
-101,27,111,3196,1628,825
4,126,30,3243,6557,4184
-66,-53,124,-8640,-4522,-2930
2,-68,-35,-1048,1235,1197
-41,-10,17,2189,-1838,1008
126,-8,-33,995,-1852,1664
56,-20,92,-1974,-3271,1122
116,-123,-113,2087,-2457,1550
-118,70,-100,2857,-1704,4642
-92,-8,-121,-2095,-3812,-909
-55,99,5,4673,-2963,3045
-41,-78,-65,1084,-1489,704
123,-3,81,-3495,-5384,-1392
125,-53,85,598,-1515,-337
91,-76,-37,-630,-2084,171
85,-37,-110,190,-568,383
0,-53,81,83,-856,-171
-44,-73,103,-1039,-1970,-1177
-20,-78,8,-473,-1851,-683
-7,-55,-53,-361,-1155,-569
4,-16,-17,-1723,-985,-999
53,4,-66,-1802,-69,-541
68,13,87,324,1227,363
41,0,105,808,969,115
50,0,-120,434,107,69
-37,-88,-2,2529,4594,-1163
67,41,76,-154,3667,-2822
86,2,45,-1774,3268,-3726
-53,66,44,-226,3154,-1875
-52,1,-118,-4338,1677,-3201
-74,-116,-70,-1023,9,-1071
-84,-11,54,-6199,-4453,-2443
-18,-55,92,4842,-6270,1402
96,-83,-117,-8143,-10194,-566
63,75,69,-5663,-4247,1013
16,101,19,-3047,-1624,342
110,32,126,-12832,-4623,-13309
-115,35,45,20486,1895,4359
28,81,-28,3258,13501,-1673
-121,-98,5,-20641,4449,-4585
-47,-111,-79,-27819,14025,20015
-23,-116,67,-23549,520,-13760
-72,42,-92,12890,2200,5675
32,13,-11,-3635,3099,2326
-46,-22,-112,-1975,-4895,-1309
80,-108,49,-1082,-512,1492
87,-65,92,428,368,-40
35,-49,86,2211,2531,2181
-93,91,-38,-3606,-1881,-1284
-118,47,-110,-1731,-1842,1068
112,-123,46,4563,-2468,3041
-118,116,-41,1763,-4155,1881
-127,-66,60,2327,-3090,2889
-32,-76,-128,-1147,-5766,842
31,-52,123,3863,-1415,3314
119,-23,113,-5081,-5945,-2732
86,42,108,5757,-2486,4368
-74,35,107,-5985,-4569,-2599
43,11,6,-238,-1931,-54
7,-90,73,-817,-3283,-929
29,-88,69,-399,-1677,-473
23,-106,39,-715,162,-303
-11,-92,-53,292,1390,31
-27,-85,-65,-176,884,-369
-9,-88,-109,17,651,-437
50,-45,61,1656,6070,-1995
-40,-24,-47,4938,9249,-1575
77,67,84,-4129,2589,-7728
-112,79,3,-2895,2994,-5137
52,-50,71,-2302,3621,-1640
5,51,18,-3013,1293,-1875
3,126,89,-3992,-838,-2606
85,-104,68,-464,-1803,1551
-67,6,47,-7391,-8855,-1669
106,-128,-125,-4012,-6375,-531
100,39,-86,-2863,-4551,1006
-101,43,123,-3091,-1275,677
-6,55,59,-6224,-4641,-5510
121,-39,-8,6034,-594,-2881
-60,31,-111,8574,17296,7427
49,-13,-57,3140,3993,-3950
119,-80,-40,1344,5954,-2317
-61,33,-32,1847,646,13
-60,-118,-107,1369,4699,3347
-28,32,-114,-2680,-2442,512
33,21,54,-2418,-2756,-348
101,42,-36,-481,-3237,98
-93,-82,79,3874,-5394,2309
101,122,-85,-846,-5116,703
109,-68,-55,3015,-5119,2189
6,-92,21,-3118,-5121,-2179
75,94,-6,5740,-5622,21
-69,99,-80,-4087,193,-2918
-16,-49,30,9419,-761,4828
-5,79,48,-6080,-4272,-3697
-49,15,-51,5781,1117,3698
-8,-79,45,-4209,-2219,-1905
3,-49,-111,1379,951,-448
1,-75,-17,-1038,203,-1140
18,-45,-77,-787,145,-708
43,-56,-84,-795,-180,-273
34,-65,96,602,858,207
49,-57,-123,114,629,-140
89,-22,-106,-146,148,46
88,-40,121,199,218,-55
-51,11,60,-3419,3449,-1125
38,-123,-46,-4113,4688,-327
100,35,-99,-6465,5728,392
-91,-51,-103,-5374,838,1831
52,-76,66,-4263,-6237,-687
-32,-43,-48,77,-2463,1299
26,-43,-49,-7638,229,-2121
-55,-4,13,-2384,-2703,-6088
17,45,59,27885,-173,9936
-11,-48,-79,-22520,3010,-11203
87,-121,105,-3534,11698,8792
-74,-35,76,13570,418,2739
21,-42,-34,-5860,-6980,-3724
-26,-120,-90,6041,5204,604
116,43,62,5264,3947,1370
