AccX,AccY,AccZ,GyroX,GyroY,GyroZ
-44,-5,104,-3212,4345,-6003
57,-30,-98,-1589,3743,-7469
-5,-6,127,-534,2466,-9315
-22,-54,-93,1458,2202,-7838
8,-69,109,1952,1928,-4313
-52,-34,53,6227,3497,2514
-95,-27,-18,-6447,-7616,9677
-75,-69,78,-610,2949,5541
46,52,-118,-2199,-534,5396
-4,50,-80,1383,-702,170
64,-24,-123,3828,-6042,4706
82,24,-56,-496,-5389,9084
-46,81,46,507,-2921,4816
-113,59,107,520,-1784,2584
-39,-18,-117,-2447,-1910,1392
108,39,48,1000,1364,-242
10,5,-40,6754,3146,2101
-112,-63,-122,-385,-1019,423
-11,19,-77,-741,-1024,-263
62,-44,-106,-667,278,-689
84,-119,104,206,-165,-61
93,117,108,796,-235,309
83,-64,-92,-439,197,-380
104,-90,-99,-108,85,-210
108,-106,-114,279,152,-138
119,-98,-126,182,201,-61
120,-88,123,-38,62,-138
-127,-79,126,-441,471,-254
-126,-80,-126,150,-122,30
-117,-61,-120,-95,132,-167
-111,-61,-120,7,-7,-52
-107,-47,-121,-37,130,-204
-105,-55,-125,-44,474,-182
-77,-85,105,240,38,53
-80,-39,116,-621,-58,-108
-99,-30,-122,56,76,-45
-91,-38,-124,213,49,38
-82,-17,-114,-117,112,-217
-74,-42,125,-9,191,-174
-69,-42,120,-60,181,-39
-89,-95,-24,208,1561,-8600
-124,19,18,-1835,1201,-8113
-123,126,-113,-10,2052,-8066
-114,71,-78,246,-218,-6951
-80,48,56,2780,-1202,-5054
86,73,-110,3669,-4308,713
60,-96,-124,-1807,5157,6444
120,54,-99,-4164,229,7869
-51,-50,-51,-967,1204,5570
6,-45,-66,84,-1246,6858
-34,118,59,2504,-490,5500
-48,-120,73,-669,-1933,2958
31,-29,-110,-3604,-4471,2534
108,5,-59,-894,-6771,4858
-12,-74,113,2591,-3734,5390
102,-73,-70,2455,1002,3971
-24,64,0,-1656,220,1400
86,37,-98,4144,1091,-33
-19,-84,35,2420,21,335
12,96,-11,-499,272,-946
27,30,-24,555,-1364,-41
-13,118,104,-615,361,-262
52,-126,113,113,315,-32
77,-121,115,553,-310,-241
65,125,126,-504,557,-158
64,-117,121,-4,-209,-137
106,-110,-120,-613,779,-217
120,-99,-124,-888,992,-215
126,-59,-111,564,-959,244
111,-73,114,-334,714,-103
117,-77,91,-170,742,-162
-109,-82,84,1194,-875,445
-105,-72,103,-455,792,-300
118,-58,-33,0,355,92
108,-30,-77,-246,-141,-270
-103,-56,-112,24,80,-324
-82,-91,81,282,7,145
-85,-48,104,184,-5,-29
-89,-45,-118,65,301,-76
-90,-56,-98,-95,195,-144
94,111,-121,7768,-1129,-4549
-87,-3,114,2173,-2332,-4740
12,23,127,-530,-808,-591
65,-8,94,-3574,4957,-4283
109,38,-87,4132,-2150,-8287
62,17,-105,-5368,-2136,-11720
-101,-104,4,-3636,-3490,-10241
-74,-106,-31,-1918,-4090,-6282
89,16,110,3589,-2222,-1453
-109,-100,-59,399,3046,7485
43,90,-3,-2812,4576,9266
-3,60,28,-191,3094,6343
104,6,-112,-1625,-4792,6044
100,123,54,-3283,-6534,2713
122,4,59,498,-5560,5033
-128,123,-41,2072,-5058,6546
9,-78,78,2627,-609,3871
57,82,102,-4024,1589,1563
-47,-6,124,-1882,-2212,-192
34,61,113,6589,3882,1325
-41,-115,94,1647,-639,10
14,-12,-13,-436,-1108,204
61,-71,-123,705,-672,593
97,-64,127,-184,667,-524
72,125,74,445,-278,-13
86,126,104,359,-160,67
71,-92,-114,-245,-189,168
79,-70,-65,293,368,-271
77,-95,-102,-230,30,-270
117,-96,-121,-839,485,-373
-91,-116,-109,-202,888,-135
95,-81,104,366,-217,117
124,-73,85,15,385,-100
-67,-42,97,-177,-147,-100
-106,-54,78,197,-211,-62
-122,-56,90,92,-193,27
-82,-37,109,-104,-239,-274
-82,-81,124,61,-199,7
-102,-78,-117,361,159,-22
-113,-77,127,373,-99,61
57,-57,-106,5567,-3660,-4978
100,99,118,269,3744,-1420
54,-73,-33,-572,1348,-3265
15,-16,-81,-68,-1488,-9918
43,20,110,-4308,-1278,-13041
-23,110,75,-2762,-1479,-10530
-50,103,-78,-138,-684,-5734
-101,-105,-83,4336,-89,-3762
82,98,116,-3057,-1532,7268
-112,47,26,-5330,853,8937
-37,-30,-40,4368,2503,6992
101,123,-104,-266,-4560,2795
-19,-22,-114,-1485,-5033,3393
-18,-13,99,293,-5986,6805
32,-49,96,1466,-2593,6951
-59,45,33,902,-3206,4718
47,86,-67,-3275,-490,597
49,28,-36,4505,-1001,-955
66,102,-9,5544,1919,53
-47,-83,21,-892,526,-963
8,-41,-110,78,-1120,323
42,-55,116,-416,785,-642
61,107,68,1040,191,-128
55,-116,91,-153,-60,28
88,-112,89,-121,102,-181
87,-128,84,299,-141,-57
87,-98,95,-229,8,-38
93,-78,94,-408,51,-147
92,-80,91,-96,-12,-94
94,-88,96,-195,395,-187
112,-57,98,78,-84,-22
123,-69,88,208,95,-85
127,-61,84,5,122,-109
127,-71,71,105,43,-69
125,-62,72,80,22,-132
-117,-73,77,86,31,60
-114,-35,75,-115,78,-240
-110,-84,76,301,-6,184
-113,-37,69,-69,-67,-128
-99,-60,66,-97,324,17
123,-19,-106,6386,525,-6559
34,-46,10,2355,-5594,-6429
5,25,-105,-5621,1276,-4614
98,-49,-109,-2508,3810,1211
-84,-55,-120,602,1949,-6766
92,-74,-99,-2720,1030,-10848
-96,-1,95,-2138,-2063,-9020
-48,114,109,-432,-1704,-6622
-72,90,52,1450,-634,-4061
103,81,-22,3676,91,2694
-22,-92,89,-3236,-3,7227
-11,-113,77,-1660,745,6609
-7,27,97,4493,2757,6991
55,100,-65,-2901,816,2311
13,-10,9,2829,-1653,3710
-105,107,-52,-951,-2861,5364
-17,12,19,-3532,-5783,6761
92,-114,69,29,-3671,5589
-17,48,58,-973,-235,1748
2,-51,-33,-713,-1904,875
-124,-2,-23,-931,123,500
19,126,82,2399,-325,785
3,99,30,2994,193,680
-11,84,-36,1883,-603,438
17,40,-51,-337,305,289
29,-7,-92,-42,137,345
46,-20,122,473,160,-251
74,-97,125,793,334,-128
66,-126,74,957,244,-408
69,100,84,344,282,-114
79,101,85,-373,110,-116
98,-117,104,-456,84,-49
98,-128,91,-32,4,33
106,-77,109,20,143,-157
102,-97,105,283,-69,58
111,-88,94,-49,-45,-26
122,-86,95,84,-40,-39
124,-91,85,46,-97,-111
-104,-50,76,-111,82,-262
-27,41,26,823,349,-1351
-7,123,16,3713,67,-7031
-111,-55,-33,-421,700,-11035
41,-56,112,304,2556,-10575
54,-98,-66,-4861,-1343,-11332
-114,119,74,-239,-218,-7986
-56,-99,15,6255,-1619,-1680
111,84,-3,-1071,-4067,6592
-62,-95,-105,-6258,1372,6633
-96,-96,26,4764,3630,5233
9,88,47,-1976,-916,4048
-118,-104,-84,2656,-875,2690
-30,-44,104,-1453,-763,5248
21,-48,-73,169,-4574,5259
-73,-45,124,519,-4527,6492
60,41,62,-4311,-969,4090
27,38,21,-1256,-3094,4444
41,-9,-29,-1482,-864,417
115,11,-73,49,694,-525
50,110,51,2679,-628,215
-10,94,23,2297,504,-234
-30,-44,-48,1880,42,-38
23,-41,-111,-188,-139,138
64,-66,112,-187,325,-206
62,123,78,736,165,72
53,115,67,558,69,308
72,-67,84,-335,253,-154
98,-61,92,-306,156,-305
111,-79,102,-118,376,-141
84,-61,99,195,-343,-152
90,-95,107,132,358,-185
110,-107,90,422,63,-33
119,-96,92,72,212,-131
122,-92,86,60,-8,-48
-124,-67,92,-161,41,-86
127,-88,82,77,-204,70
-118,-52,98,-278,102,-139
-117,-67,93,21,116,-56
-113,-52,87,-7,66,-122
-102,-58,79,6,123,-95
-84,-80,46,191,40,-53
81,-117,2,-8694,-3261,6290
-54,0,-123,6340,8546,-4130
101,-69,118,13648,-2524,-10868
10,59,38,-6141,-1122,-8233
-32,-87,-74,-2265,1052,-10055
73,24,-83,-1086,-554,-8916
72,23,-109,-1695,-19,-7839
-51,64,-116,-460,-1258,-5108
61,-87,50,1035,-1414,-2158
108,-104,94,2769,297,1911
-52,-44,113,-5596,1715,6015
-90,51,4,547,1149,7137
-114,33,62,-1288,763,6169
-101,-122,-98,-1386,-2749,1578
45,99,50,3904,-2739,4970
75,82,12,-3746,-4253,6932
55,16,-26,-1224,-3932,7755
76,16,51,-834,-4749,9334
97,-11,-41,-4688,-828,-3560
-63,-26,21,5842,191,240
27,47,117,5168,-2194,2088
49,-67,-76,-1366,385,-1756
76,-47,-44,189,2155,-1163
14,86,44,2114,-895,200
45,105,106,526,561,-633
65,60,72,497,213,-145
61,109,76,127,-14,-369
74,114,104,-144,266,-289
84,119,86,26,-23,-116
90,-108,102,-244,22,-168
95,-125,100,139,64,-11
105,-84,117,-201,43,-121
108,-88,110,-385,327,-156
114,-70,111,-275,217,-138
125,-66,106,19,128,-72
-120,-61,96,225,23,-40
-119,-67,92,86,85,-46
-112,-53,94,-64,107,-110
-105,-61,83,175,-46,-69
-102,-65,83,67,44,-73
1,-96,-67,4512,4553,-5020
113,-69,-57,1080,860,-9879
-10,83,-89,680,2524,-12391
35,-10,-10,-1266,-172,-11623
-39,-53,-23,-3607,165,-10114
-15,-128,-35,2031,-1077,-4820
30,-85,-37,5017,-77,-1168
-38,-82,83,-4380,-383,9604
5,101,-36,-3039,-513,7332
40,-64,33,-1852,2503,3580
-111,-10,-44,2703,626,1882
109,-115,-81,-266,-4681,5034
48,-121,-31,-2620,-6242,7526
-105,-15,-97,3192,-4451,7620
-126,-44,-17,1737,-1424,6949
45,52,49,-5928,-669,1495
-126,21,-119,-2071,-1492,-2122
82,28,-122,5056,-1046,165
32,77,47,3089,1796,-692
19,28,-38,-38,582,239
35,120,-104,-1357,-216,-544
74,-19,-98,-207,547,-412
61,-125,98,1752,141,-30
86,-106,80,1240,39,30
100,-112,76,54,461,-367
111,-101,61,-606,122,-381
116,-119,69,-422,58,48
116,-58,56,-285,-74,-453
103,-94,78,-197,75,25
120,-67,91,-193,254,72
-120,-27,95,-450,171,-110
-115,-36,97,-156,141,-38
-102,-21,102,10,220,-60
-99,-20,91,138,-125,-88
-103,-23,90,20,108,-225
-102,-38,91,18,84,-92
-97,-35,82,114,43,-73
-95,-54,70,197,41,50
-85,-32,70,-108,79,-35
-90,-35,67,29,-154,41
106,-72,39,-1843,-670,-10452
41,108,12,-2994,-1681,-12758
-67,-104,-97,-4992,-188,-10487
-76,117,66,2277,740,-5513
119,-125,112,5987,-3951,2335
93,-110,-68,-6973,2621,10917
6,119,-83,3311,5271,5401
-37,-2,-6,-5932,-61,3458
50,80,-126,4516,-1805,1867
-106,-95,-90,-13,-3774,6109
93,-112,57,-314,-4642,6768
11,-51,-12,1758,-3618,8472
2,105,12,-2007,488,4351
-53,-35,-72,-4513,-2253,1030
-125,-125,-67,-36,-1907,-1389
77,69,-69,3686,434,-213
45,15,-52,2970,820,-504
17,59,-84,485,-82,30
4,-73,-85,1574,-633,917
43,2,-91,-202,582,-168
73,-52,-125,129,135,-153
71,-95,115,384,174,-479
63,-124,98,429,196,-162
95,-94,88,-160,145,-319
113,-87,88,-580,168,-241
112,-48,78,-535,326,-596
-118,-46,75,-687,462,-563
-97,-46,70,-589,449,-562
-111,-48,57,-267,197,-285
-107,-64,67,-11,119,-25
-101,-24,80,-350,-48,-53
-88,-26,85,-357,73,-78
-63,-33,90,-350,63,-12
-75,-13,96,-366,-62,47
-124,-14,94,-268,34,218
-119,27,103,-531,226,35
-98,19,89,-167,135,57
-96,18,48,372,-59,-74
-86,27,61,47,-115,97
-62,80,67,118,-269,-160
-107,-75,-96,-937,-182,-9687
99,-36,73,-4432,1019,-11805
27,99,68,-4645,-854,-11039
11,-76,119,-885,468,-6708
-21,-125,-17,3478,-1336,-3739
-79,-61,-66,1676,285,8964
-90,-43,29,-6181,578,8202
-22,25,12,1991,2400,7812
70,-81,12,-2296,-2421,-739
-8,27,27,859,-5411,2788
43,85,48,215,-6520,7835
64,-124,67,2571,-5008,6578
-59,-55,14,-1512,1915,5626
-36,98,58,-6241,-2310,2252
-107,-27,60,4408,-2394,-1064
74,118,-89,5482,1162,-211
4,86,-69,2141,595,-635
69,44,-99,-1542,705,-456
105,-38,121,-577,375,-716
80,-106,76,1205,192,-650
75,112,88,1015,277,-586
114,127,101,-101,187,-474
109,-100,103,-629,116,-466
90,-97,93,-81,116,-641
112,-95,97,8,-50,-101
124,-99,88,59,-41,-82
-121,-103,74,-111,64,-3
-95,-66,73,-308,-206,-420
-111,-73,89,-285,-38,-177
100,-70,89,244,-112,1
-111,-52,119,353,290,73
-96,-56,83,32,28,102
-111,-11,70,-402,209,-24
-78,-31,53,-3,129,175
-63,18,71,-344,-14,-155
-85,-9,84,82,-102,-26
-83,-13,102,192,141,-84
-73,-24,96,265,112,-120
-68,-33,90,158,106,-103
-60,-28,89,-246,331,-195
93,-31,-86,8338,-2878,-575
3,-73,-75,5377,982,1581
15,-34,-48,-3676,5139,-694
-64,66,73,1419,-937,-6580
-66,-88,-126,-5656,1216,-13590
-105,103,64,-2581,982,-13523
19,-63,119,-4205,-128,-11975
104,-87,-126,5012,-330,-5051
69,-18,-116,5075,1338,2612
-13,9,44,-9227,861,14438
-15,8,117,2241,-1147,4064
53,73,-99,-4498,-6493,-627
-63,-68,-95,3950,-5944,4643
100,98,-75,1411,-7022,7032
-118,-46,-8,455,-4809,6755
124,-15,57,204,489,4830
107,10,5,-3160,-2024,1895
-91,-16,50,-2090,-562,-1720
87,38,-116,4825,339,-255
29,73,-52,3505,-661,-314
13,54,-58,1811,2708,-1409
73,-52,-86,-46,873,124
83,-92,43,1442,-752,195
117,-70,99,-218,594,-493
113,-91,63,-78,131,-387
48,111,56,639,-1049,330
83,-40,111,-1156,758,-183
112,-53,79,-355,90,-281
-122,-58,90,2,4,-154
102,-24,105,-423,85,-403
105,4,119,-495,354,-653
-98,-11,113,241,278,-410
-66,-14,113,65,327,-635
-108,-21,113,-162,82,-234
-104,-37,100,346,247,-7
-98,-27,71,73,73,-120
-89,-8,88,-402,220,-135
-84,-20,73,258,154,-159
-85,-26,66,-20,43,14
-66,1,78,-325,-17,2
-38,-73,-105,6559,-1813,-4500
86,-49,-108,7167,-1195,-4569
51,47,65,-4785,1921,-4786
127,-51,34,-3176,-1163,-8124
75,-109,-54,-8041,-1809,-13704
22,-16,59,-7303,-105,-12477
-113,104,62,-233,1233,-9158
-120,108,-32,9805,-5145,2251
19,-125,40,-7637,3329,12500
62,117,-80,407,2467,9116
3,-41,-51,-2111,-578,1479
63,-78,106,311,-4264,1870
-104,34,58,641,-4219,7954
30,-91,27,2569,-7711,7390
-64,-112,32,-1050,2026,6688
-110,-43,38,-3855,-3399,2941
31,-20,72,-182,-1619,-2096
61,61,50,6804,3995,-494
-4,67,-48,1835,-2588,175
50,59,-38,-2659,854,-678
118,-4,36,-980,1467,-972
-106,126,7,2136,-476,12
126,-76,70,385,-69,-726
95,-100,65,-32,-490,-719
89,-112,99,7,-337,-333
95,-56,90,-604,440,-325
98,-41,89,-150,388,-517
119,-90,70,600,312,-163
-113,-93,69,200,101,-37
-91,-57,74,-200,62,-27
-106,1,83,-691,522,-159
-103,-13,79,174,33,-177
-102,-23,68,335,122,-30
-102,-4,68,-146,131,89
-83,23,59,-290,35,-253
-63,9,71,51,62,-210
-76,2,76,48,-262,-151
-60,13,103,-359,-68,-135
-67,14,103,-110,-107,-316
-86,-31,87,178,54,85
46,62,-13,-3681,-189,-7648
99,-32,6,-4694,428,-11204
-30,-22,-104,-2658,-471,-10676
-78,-125,78,-2527,-485,-7364
-91,-121,-70,5108,-4045,-1446
21,80,-99,-788,-1527,4829
94,-42,65,-2286,2112,8257
99,7,-70,4243,4515,4314
-47,-5,-82,-2535,3545,211
-110,-40,67,2204,-1545,4737
42,54,-111,-4843,-6401,5500
39,-88,76,-1136,-6506,8272
-77,65,95,83,-3842,7390
-76,96,101,-2565,1241,2991
24,-97,-119,-2597,-2252,-1347
114,105,110,1569,392,-1371
122,27,9,3233,1775,-1225
53,32,-85,1321,-496,584
-7,-7,-82,959,-141,487
49,25,-44,-167,-76,120
48,-107,120,782,-288,-3
87,-41,-100,373,571,-264
120,16,127,-256,482,-1477
-107,-79,80,-210,565,-1217
-116,-120,56,568,467,-774
-46,-123,101,8,537,-153
-25,-28,96,-632,676,-678
-84,-44,56,847,264,-1036
-87,-99,52,766,531,-804
-126,74,35,768,-396,570
-90,-54,56,-1284,-81,747
-47,-11,58,-1387,-260,500
-37,39,91,-1309,-935,350
-67,87,-122,-1198,-966,-68
-92,33,-103,30,-153,45
-106,24,-117,895,283,79
-82,31,120,269,19,115
-66,12,112,98,232,-37
-67,-6,90,294,166,34
-77,-36,62,680,85,59
-48,62,95,2359,4136,-4240
56,-85,85,3984,3391,-6631
28,-25,31,-5022,3543,-12341
87,118,36,-3743,2195,-12818
37,79,7,-746,-233,-9708
-59,115,47,1248,-456,-6861
-48,114,-16,6757,4615,-375
-119,66,2,-7065,-1640,12937
28,66,89,-730,2263,6260
-50,85,-112,-2440,2399,1600
-26,-72,1,1310,-3219,3315
-58,40,-27,-1844,-5498,5758
-113,88,47,-2823,-7268,7667
-20,14,122,2156,-2395,6663
-26,38,117,-2194,-1179,2063
-126,-62,77,45,-2763,-1820
-109,19,37,3370,1165,1888
62,-88,72,2994,-179,915
20,-78,18,680,216,-632
32,40,-68,-8,-49,-382
56,-102,113,605,387,-128
80,104,83,1545,-1,409
96,-98,96,505,-47,-6
97,-94,106,-574,390,-469
101,-122,105,19,-119,-15
104,-118,96,376,76,-165
102,-103,100,53,107,-278
116,-84,109,-756,365,-326
-121,-83,95,-145,285,-341
-98,-97,95,342,200,3
-106,-46,87,-220,159,-324
-120,-65,87,-340,103,-79
-76,-26,100,-161,276,-55
-83,-28,82,610,56,-124
-70,-63,84,537,-36,-60
-108,-63,85,-209,-99,65
-105,-15,104,-119,221,-197
-70,-53,99,411,22,59
-59,-37,102,230,58,-189
-68,-77,96,142,-48,-34
106,-41,29,8586,-4554,-1347
-51,-12,46,6643,-3369,-72
-33,-41,-71,823,4748,-974
-78,-15,35,-1317,-678,-5094
7,52,99,-6996,-1608,-11059
85,-51,108,-1788,-1017,-12103
81,116,-34,-6831,840,-11942
12,66,27,-1335,-363,-8895
-92,-95,0,3829,-2113,-4241
-50,-65,30,12744,-8897,9228
79,-72,-125,-12034,4582,10211
-100,63,-119,6373,1301,3813
14,45,-58,-674,233,-364
-111,-54,117,-1030,-4221,4347
-33,108,-35,-2694,-9376,8092
-117,50,-118,-316,-5991,6397
-126,-80,34,3217,-3010,7091
6,-111,13,-5023,-2397,45
-60,-23,-53,578,-580,-2548
-4,77,32,5855,1477,-271
54,-123,-89,738,1147,-763
59,39,-126,-1507,1114,-420
63,-57,108,590,-1349,74
61,-30,42,-838,769,-818
61,109,-12,2215,-408,-161
49,-45,94,-66,-131,-526
66,-78,41,95,-266,-123
89,-52,62,-521,883,-171
101,-11,56,-175,279,-405
-122,-5,68,-91,670,-397
127,9,37,-206,566,-748
-108,20,61,-828,829,-680
-90,20,59,-647,471,-800
-98,-26,41,190,444,-49
-82,45,70,-215,402,-401
-78,59,86,-596,244,-442
-85,25,83,-15,-179,-12
-72,25,85,470,-10,142
-76,29,87,131,-98,81
-86,33,73,115,-230,70
49,109,-46,6717,-1337,-2088
112,56,111,-2315,-40,-4754
-84,-85,121,-11628,51,-9135
79,-93,-2,-5590,288,-11136
-32,44,4,-4994,790,-11183
-27,74,-118,-733,33,-6686
-37,-15,-94,5007,-2684,-114
-12,113,56,-2286,1314,11057
-100,57,51,-4388,2215,8528
87,14,90,-2953,3918,131
22,-69,63,597,-2394,3706
96,-114,-13,-50,-5746,5189
-83,-30,115,-3247,-7148,6605
14,12,-13,-1807,-4575,6330
-10,-95,93,794,-427,4004
86,2,68,-1462,-3106,-1825
-124,-84,-52,2957,505,-1466
13,-2,-19,2724,1594,-35
34,54,-115,899,599,-258
63,-56,-127,1120,-1356,390
66,-92,106,971,-917,-56
57,-95,72,189,6,-197
55,123,79,41,249,-284
60,115,68,313,76,6
81,-113,67,-144,388,-145
103,-87,63,-135,388,-217
116,-85,56,-35,472,-275
110,-74,45,-335,716,-135
-124,-31,47,-27,282,-512
-114,-59,51,-116,359,-234
-97,-49,50,22,177,-232
-93,-58,50,71,-57,-249
-100,-77,54,208,-46,-18
-85,-37,69,-277,-14,-246
-89,-62,59,134,-251,-218
-96,-66,76,10,54,-117
-103,-52,64,-42,69,-38
-87,-43,63,-18,167,-101
-82,-63,64,53,66,150
-73,-24,54,-22,18,-40
86,76,-56,-5839,-1173,-10477
-1,113,30,-3328,580,-11697
18,126,-115,-3560,434,-11748
-15,14,-31,-406,-63,-7744
-54,89,41,7788,-2623,670
-25,86,-12,-6267,-588,11887
5,-76,79,-2247,1155,9459
-19,127,2,1851,88,1351
-97,93,58,-2663,-3401,1044
-88,-77,78,6161,-4279,6558
-70,-22,-43,-6532,-6748,8988
87,99,-121,547,-2586,5665
48,-118,-115,1031,-412,4453
-117,28,68,-2728,-3648,-873
-102,-44,-122,1533,-1,-1448
13,-73,-88,3719,1064,114
40,-127,98,588,365,-533
36,-10,99,627,212,-108
41,-82,87,1342,-566,-118
13,121,65,2279,-1791,-190
58,115,26,165,247,-240
44,99,30,84,117,34
16,-125,25,189,60,-161
27,102,9,597,514,-63
50,89,1,551,217,184
82,101,15,122,413,185
98,94,21,108,693,263
102,111,25,317,775,365
108,84,39,1010,156,315
-117,-100,53,229,-10,405
96,113,40,663,-129,80
120,-118,49,9,307,-212
109,66,40,769,-35,-81
106,92,64,507,-184,-97
-112,92,86,-116,275,-283
-105,89,59,-99,377,-469
125,66,50,24,106,-50
-93,-84,26,-804,252,-596
-126,56,4,640,-417,-75
-110,122,20,-176,-175,334
-121,-87,-104,3916,-2668,-4399
123,-1,-122,3093,-2644,-3359
43,-123,65,4043,67,1274
-92,8,19,3635,6474,-2461
117,81,49,-4228,-7189,-6723
28,-115,118,-6028,-3247,-12469
-32,-33,109,-4018,-2688,-11109
-76,96,-28,-4433,-660,-9733
-63,-9,38,1253,-2051,-6189
-125,67,-94,3530,-731,2211
72,53,57,-1122,571,6362
6,-31,-100,-7237,204,9917
105,-95,-111,2398,626,4956
115,127,-49,581,-3031,1714
-10,125,40,734,-4910,7333
-4,-85,123,460,-4299,5526
92,-38,-87,1675,-1053,6216
-42,76,93,-2250,1059,4738
17,28,56,-4191,-2824,2272
-90,-52,109,1975,-984,-1801
86,60,-5,3859,1055,70
40,-126,64,1315,-183,-272
75,21,100,-369,343,-274
75,-52,59,-5,226,-73
61,-53,44,310,-269,-147
70,-81,45,676,411,-170
85,-90,39,546,50,-201
75,-89,34,-75,47,5
79,-74,32,-204,108,-38
100,-77,35,83,269,-6
104,-54,37,-64,175,-112
112,-52,48,-125,367,-24
122,-23,39,-61,138,-118
-117,-25,47,220,103,-197
-126,-47,33,21,70,-164
-115,-46,35,-35,82,-192
-112,-61,35,32,106,-119
-116,-66,34,8,42,-57
-104,-54,33,45,112,-56
-100,-50,33,103,9,5
20,-62,60,9087,-3824,-1448
115,-68,5,5292,-1246,-6866
9,-28,98,-9842,-2217,-12078
49,77,-59,-5479,-1373,-12609
3,-60,98,-3636,1120,-10549
111,83,100,2145,-1601,-7348
85,49,127,9381,-5227,5381
110,-82,-48,-13080,2503,9374
-95,-114,-56,4136,-364,7754
81,52,-39,901,932,5134
93,-39,22,-2123,2739,1061
40,40,97,-3601,-10452,7271
46,-44,-74,-7664,-6679,5479
80,-45,-67,2184,-1554,4757
-45,-31,-127,813,-4215,1676
22,-72,2,1311,91,-2527
-106,-28,49,4011,996,63
50,20,102,2437,-1827,665
105,76,-16,-344,851,-300
93,-17,99,356,202,-625
48,105,19,1434,-242,-112
69,98,11,1334,56,-114
82,107,0,1139,-940,-213
83,82,-21,-170,485,-22
79,100,-13,21,148,-146
102,109,4,-97,428,13
110,122,7,-133,255,-50
120,116,30,-232,600,130
-115,-76,46,-575,878,-303
-117,-92,58,-227,368,74
-98,-66,39,48,-94,-151
-93,-54,37,120,150,-182
-106,-65,24,395,-9,-269
-56,-59,45,-73,327,-287
-61,-82,28,230,-167,-264
-92,-68,52,-111,-141,-326
-91,-83,57,-164,88,-138
-79,-35,52,-405,253,-379
-76,-59,50,91,150,-144
-53,-46,35,90,103,-182
93,-20,33,-1606,-2937,-6830
126,-101,-101,-2254,-3436,-6759
124,-72,81,-2466,-5669,-5461
-114,-113,61,-1209,-664,-2611
102,19,48,1680,-1366,1711
89,14,91,-524,8692,4786
-81,-109,-87,-1155,1956,3126
4,24,-45,217,634,1913
-73,-86,94,-751,575,1982
-94,125,92,916,-828,3172
118,105,-16,1388,-989,3341
-88,97,101,-163,-410,3905
69,-70,83,340,76,4137
-17,83,-124,1476,-1034,3664
-64,-13,13,802,-165,3707
-68,-56,-26,1205,695,3136
81,-101,-92,846,-347,2829
-3,-116,-66,168,-32,1705
-94,87,-74,790,-167,941
82,10,-80,1493,-402,118
54,-48,-58,467,24,-497
49,124,-72,239,161,-529
45,13,-84,467,-88,-335
69,12,-85,268,176,-337
74,-12,-110,124,185,-339
84,-23,-116,211,36,-87
81,-4,-125,-258,120,-174
90,29,-126,-334,107,160
109,56,-125,-10,296,88
114,78,106,-8,193,-107
111,81,108,-105,145,31
120,86,102,85,195,-73
-124,90,91,121,170,-91
-118,90,87,97,170,-78
-120,90,87,304,126,-99
-113,94,76,11,123,-44
-108,105,83,-66,54,32
-110,124,88,-37,91,-96
-103,-124,92,129,101,4
-92,-95,88,-115,151,-94
37,-21,92,2410,1387,-7999
56,3,-68,-42,-3432,-7812
-81,-58,17,-135,-6806,-6478
93,112,-126,-5777,-9343,-4251
-2,41,11,-6239,9111,-377
-24,9,-82,2478,-2790,3004
-98,-128,79,-97,8391,4187
-88,99,-113,2106,1192,3616
87,-15,-127,2099,1375,1586
63,45,-66,-792,531,749
-118,-103,-27,2184,1172,2513
107,-48,68,6,619,4459
-64,-97,-108,346,-991,2658
-82,119,-40,-896,401,4870
92,-90,15,2435,605,3281
-97,-125,18,275,1098,4291
-69,95,-117,1640,1116,3313
110,-11,-64,1795,72,3672
28,-31,109,-1639,628,1208
81,125,85,-1022,304,-164
57,20,-92,1020,-304,-514
4,-99,-77,1373,-712,-617
21,90,-40,107,79,-729
41,27,-51,72,26,-761
44,-19,-68,-100,40,-575
54,-46,-82,284,-32,-65
50,-27,-96,-31,118,19
54,15,-116,-15,-66,-99
81,41,-103,-181,461,220
81,74,124,-42,163,-33
96,110,117,-138,116,84
101,126,109,-278,139,-62
107,-104,85,-258,41,-437
123,101,127,135,148,-186
102,85,100,373,115,-162
117,111,109,-244,127,-83
-128,103,93,419,334,88
-96,-7,38,-674,-401,229
-102,-28,20,-3713,194,-2125
76,-125,16,-341,508,-2939
88,47,111,4651,2987,-5789
-32,-120,20,286,-8676,-9955
-47,-94,88,-5715,-3507,-10037
-90,-55,71,-5097,-5236,-5247
-87,-73,-98,-2882,-276,-4733
-32,-89,-106,710,-3129,-1367
-3,100,-115,851,388,5074
23,-94,63,872,5781,5921
-63,-34,-85,996,1007,2789
9,-22,87,749,2581,-1033
13,112,-1,312,862,2233
-49,114,31,-1232,2023,4811
34,-6,-17,1396,175,3715
8,32,86,75,1938,4108
88,86,38,1160,197,4088
-75,-83,27,838,-397,4143
-106,-78,-81,-821,-153,3645
126,85,-73,1422,475,3255
53,95,-77,460,-173,2928
-10,93,-55,359,256,1872
-96,-4,-42,1081,-181,1881
63,14,-44,-158,218,1202
50,29,-63,177,-99,83
38,-26,-55,919,-174,-347
19,-118,-36,551,-20,-515
7,87,-46,204,-109,-578
12,22,-61,-161,-7,-524
24,-3,-70,-78,-86,-314
28,-18,-93,-81,-270,-94
41,3,-94,-56,130,-79
32,6,-110,244,417,-152
62,55,121,113,232,244
68,99,98,-459,128,-179
79,95,110,325,3,0
86,112,116,-44,343,-237
89,115,110,150,-180,2
86,126,108,-695,345,-296
104,108,120,-97,-6,38
102,-94,-128,210,451,-246
-123,16,116,-140,57,-321
-75,86,-112,-361,-3552,-7824
-63,-71,-36,629,-8706,-7917
-94,54,73,-4696,-5817,-4926
-98,69,-47,-5958,4275,-1008
-47,-24,15,4017,-205,4107
-105,63,81,-2231,9209,4495
42,-8,-113,2349,-2931,1385
86,-47,-7,1547,2353,496
84,9,-27,493,3700,3982
76,-100,-43,463,1847,4524
-20,45,74,2024,-258,3570
-23,94,-79,-1006,2151,3780
102,122,47,-97,498,3901
94,-117,42,1865,-289,3763
79,-55,-112,-378,296,3759
46,86,-74,1807,649,2464
-56,93,-107,-283,225,2503
-69,14,-86,577,99,1994
101,23,-20,323,36,1949
86,-15,-55,599,195,1639
54,73,-90,-6,-277,437
34,24,-90,-102,-616,-946
38,-111,-40,413,-278,-732
-18,73,-49,215,-154,-682
-6,44,-45,-51,-227,-467
24,15,-42,35,473,-259
33,7,-89,292,69,-263
36,16,-97,-135,231,-90
39,36,-128,-107,231,-82
61,75,114,-25,75,100
71,88,112,-139,297,16
73,103,109,208,-34,-51
80,111,115,-128,177,-26
76,117,108,51,0,43
102,-124,98,-138,196,-201
92,-127,96,161,-112,13
93,-72,106,-510,172,-170
46,117,-80,-458,-748,270
-38,74,-78,-836,228,-2754
-77,119,60,1513,2399,-5930
-29,117,-51,2669,-5386,-7723
-61,60,-119,-2306,-5382,-7144
-99,-27,91,-5862,-4368,-5894
-120,94,-101,-4110,-3630,-6029
-8,-106,36,-958,-4477,-5614
99,115,95,-2226,255,-835
-102,92,-77,884,-2644,1944
34,-126,106,241,5654,5005
-89,116,53,271,6491,3772
4,85,-87,1437,-1076,1712
88,-60,-6,438,550,525
-108,9,-108,-2042,3445,1910
-87,-95,122,481,1297,3536
-118,-51,44,2626,-814,4922
-120,-6,58,-560,1037,2712
74,21,21,143,1428,3778
22,47,87,109,-417,3919
101,57,-124,1089,1057,4004
-117,75,111,835,277,4297
104,-86,-123,-384,-339,3300
33,-48,-43,-656,246,2257
-86,-122,-77,1806,-411,1521
93,110,-74,733,-269,792
-18,37,-72,-64,-114,-73
1,-34,-31,257,-66,-62
-3,-95,-57,217,105,-431
-8,71,-53,522,-273,-508
-6,44,-52,406,136,-470
7,13,-76,112,124,-287
13,-3,-90,245,72,-92
30,19,-101,347,27,54
49,57,-114,-129,357,104
40,59,122,6,-85,-108
60,86,-127,-15,168,-14
57,83,-125,-34,157,52
59,96,117,100,68,-22
77,119,121,-161,265,-56
78,120,104,99,39,-97
83,-118,103,-43,136,-111
105,-106,90,-116,120,-252
7,-78,-21,-3790,2114,-4426
73,-5,30,3503,537,-6085
-112,43,58,4106,-2899,-8424
-92,-52,-103,-2498,-7334,-10633
-85,-53,34,-3280,-8106,-9696
72,60,-4,-3249,-4066,-4851
120,-82,20,-2600,788,-2604
39,121,-123,341,4777,7423
-4,-103,47,527,2597,5469
101,120,-47,482,3087,1178
-62,72,-33,-23,1565,2084
36,-119,69,509,844,5091
-101,-49,-41,130,1330,3615
-70,44,60,582,-371,4067
31,-36,39,-239,889,3166
85,-62,15,214,-144,3876
40,-48,27,1000,-612,2950
66,-128,123,1027,142,3542
21,-109,121,893,-576,2592
-30,87,-62,166,856,2109
-127,5,-19,351,-90,2390
-100,63,-3,375,268,1671
123,17,-100,-1346,236,323
23,-11,-77,2517,-887,-861
-5,-120,-36,-235,-54,-525
-21,77,-80,-511,190,-620
11,35,-63,203,202,35
25,29,-112,203,363,-531
49,48,-110,270,2,-110
46,29,126,235,91,19
47,69,-126,117,106,-202
72,68,114,-203,311,132
57,76,109,-133,-45,36
81,-128,112,-61,247,-129
84,107,115,-73,185,108
86,-117,93,-93,59,-57
107,-85,95,-275,91,-142
109,-97,69,290,-85,-368
91,-101,103,46,-57,-304
114,-120,114,137,375,34
-111,-48,-43,2933,-4354,-8062
-53,49,79,-5369,-5526,-8792
-124,-89,-87,-4295,-9011,-7819
-4,19,51,-3202,-4165,-4800
80,-45,24,-2921,3213,-5751
-117,-55,-41,1857,-924,5753
-123,108,91,-570,5682,4101
122,54,-34,1217,4362,3007
60,-30,68,236,2507,1874
-46,27,109,1328,907,2685
-115,-41,96,1570,1280,1825
-128,-92,-91,331,-433,3291
-87,-69,64,-132,1197,3451
123,10,48,1616,252,3610
26,86,104,616,1493,3443
15,-8,23,952,662,3547
91,95,-16,-701,411,3345
38,58,65,-1052,575,3305
-4,89,112,944,-397,2947
-43,-118,-42,569,608,1827
122,65,-121,822,-139,1235
68,80,-95,-160,-449,419
14,19,-56,64,-242,-607
2,-70,-22,547,-187,-278
-14,126,-36,61,112,-545
9,99,-54,-394,227,-352
19,31,-86,458,282,-311
22,32,-116,368,-64,-234
36,36,127,-279,531,-246
39,18,101,331,-19,-61
55,53,89,114,84,106
73,95,98,-240,249,64
59,91,97,62,-55,93
74,122,105,-76,75,-44
80,122,113,-90,144,84
79,-106,92,-213,142,-166
100,-128,96,167,-30,-87
100,-115,101,96,245,60
94,-101,85,-209,181,-81
120,-35,64,295,124,635
81,14,-87,4391,1437,-7301
61,-77,-21,2518,-4801,-9202
-44,-58,-47,-3879,-3788,-8117
-37,-20,-76,-2619,-4721,-6805
-2,114,-66,-769,-6066,-5443
-85,-111,-98,-2604,-3095,-2929
-118,-65,-64,5219,-4744,1165
79,41,-100,1373,3825,5341
-32,-43,64,-177,8038,3943
-127,-109,96,757,3113,1299
-69,-39,63,1575,305,2690
-49,-37,71,1123,-773,1943
-54,106,-71,-1227,3272,3101
53,-103,35,-231,761,3926
-22,96,-28,1040,296,3771
24,-121,-26,1021,-127,3547
76,126,121,340,1201,3265
47,57,18,1672,158,3300
81,79,115,80,696,2972
-12,61,119,578,584,2194
-68,35,-110,-38,258,1960
-117,31,-90,-247,58,1873
91,0,-60,638,-114,1401
38,3,-62,664,12,981
55,76,-67,-70,37,-22
41,-27,-92,778,-287,-651
19,-111,-47,871,-362,-722
13,86,-33,-324,139,-632
23,15,-71,-174,9,-705
35,-18,-82,62,-40,-401
39,-25,-96,-123,258,-9
39,7,-120,-51,128,-107
57,43,117,-84,38,100
62,70,-127,-43,144,153
75,117,111,104,206,-30
84,-121,104,-310,95,13
83,124,104,94,44,52
92,-109,108,94,184,-175
98,-114,102,-104,68,-68
107,-112,94,-13,189,-71
39,-2,-4,1643,-2109,-8806
2,25,-27,-2045,-5859,-9900
-59,0,-40,-2344,-9115,-9419
117,3,-113,-2483,-4863,-4320
-105,76,93,-6103,4928,-3204
63,-17,-73,2081,-2708,3275
-28,-60,101,563,5852,5729
-38,36,86,2043,1567,3651
-23,-124,87,1482,964,405
17,14,91,-247,2187,1060
-48,88,105,-470,2527,3898
36,41,-72,2199,-33,3944
-21,-12,-71,113,479,4275
30,-122,-37,-27,595,3174
103,106,34,534,357,3828
96,102,57,1069,145,3281
61,104,53,247,130,3245
51,44,115,1255,-172,3082
-10,84,-122,-489,70,2403
-61,50,-99,-539,80,1874
121,22,-79,1206,-263,1814
52,37,-63,457,-350,1092
37,55,-10,-727,338,612
45,73,-77,-336,273,-570
13,-47,-83,1066,-538,-716
8,-127,-52,947,187,-1293
-2,11,-71,739,48,-895
10,-37,-77,396,-27,23
26,-29,-102,-53,185,-101
42,14,-111,-326,443,-103
38,7,121,-46,83,172
65,104,111,-202,380,-79
60,88,104,24,120,84
69,105,100,-115,94,-1
77,117,104,-30,93,-80
78,113,101,136,112,-85
85,112,99,58,174,-19
95,127,96,59,105,-120
106,124,92,-75,125,-45
102,-115,77,-17,90,-151
46,-66,-61,-6281,1704,-2044
9,40,111,-179,2931,-3720
95,-81,85,6806,4404,-4516
-37,27,35,1852,-704,-7744
47,46,40,-5227,-300,-10590
-81,92,20,2542,-5067,-10631
91,-49,-7,-2138,-1220,-8325
-82,39,-115,928,-2275,-1910
-115,72,-110,2235,-2314,2666
40,-121,79,-71,4655,7994
-83,119,-70,-1610,5369,2178
-57,122,-107,1577,-763,2596
55,-92,16,949,1215,615
-80,-45,-110,5101,1146,4500
46,-29,-31,914,248,3731
51,-124,84,236,2486,3160
-79,4,84,-845,1569,4396
85,-115,-12,-545,778,3038
93,113,95,708,264,3329
62,44,-117,358,786,3362
26,56,85,954,-647,3168
-10,64,-43,411,443,2323
-76,-47,-107,1126,170,2234
125,-18,-94,356,-71,1929
58,-49,-76,222,-226,1624
39,-33,-20,232,-231,1840
25,73,-36,-927,275,244
16,66,-76,362,-685,-490
-31,-23,-42,639,-1450,-1106
-8,-114,19,79,504,-781
-15,61,-87,28,410,-977
-12,-11,-118,335,-42,-678
-9,-18,-121,75,47,-689
2,-41,-128,-148,177,-256
1,-39,118,-125,152,106
3,25,105,-195,64,97
36,92,115,-346,254,51
36,104,95,-106,115,163
54,-115,101,-176,97,64
61,-88,93,-182,284,-49
9,-95,-21,-3910,3614,-4188
100,15,-68,3335,-2395,-7855
-84,56,-3,-615,-6036,-9032
-82,-83,9,-5870,-2609,-8305
-93,-119,-16,-4811,-4468,-7371
19,43,-116,-1984,-3414,-6078
-7,45,-37,-804,-3813,-4927
-110,-36,123,2733,-1323,-17
94,-42,-82,1319,323,3818
-102,-114,56,2929,5952,6870
104,85,-63,-794,1442,2106
15,71,22,865,66,501
29,-123,-37,-1053,1495,716
42,-18,-90,-677,1318,1970
-89,-83,-77,3407,-1466,3704
-25,43,-35,22,1840,3171
73,86,-123,276,567,2533
-80,88,124,460,864,3337
-92,45,93,1438,639,2975
-35,89,106,96,885,3140
-40,37,59,1614,-176,3361
-28,81,-93,61,922,2990
-66,33,110,575,100,2570
-70,-23,-74,474,479,2632
-127,-67,-107,758,249,2356
112,-24,-76,441,-242,2085
75,5,-55,57,123,1311
28,-2,-41,911,-157,692
6,-6,-44,220,73,-58
-9,-42,-55,-105,-134,-507
-22,102,-37,-3,-86,-713
-32,57,-55,132,-133,-613
-17,12,-63,19,255,-453
-15,-14,-89,284,-47,-300
-4,-14,-103,153,18,-32
2,14,-108,-294,267,-83
14,25,-121,177,-14,149
26,79,120,-458,331,-1
37,99,113,-54,147,22
51,113,101,86,33,-10
-44,-91,-77,2238,494,-7890
-34,-32,92,1732,-3012,-8840
-22,84,-47,-5936,-7078,-11807
-88,30,88,-2836,-7508,-4704
-85,87,-69,-5762,3333,-4256
-70,-3,-114,11070,-10483,3721
118,-67,126,-4255,10556,4284
-104,84,-14,1115,759,2833
-26,-18,39,1050,349,1235
-11,-128,114,-393,2122,541
-109,-95,-7,743,1402,2759
-28,116,105,954,1312,2964
97,-8,44,272,854,3613
-63,63,12,321,502,3089
4,92,45,842,478,3392
27,21,103,809,630,3365
1,-12,40,-561,417,3985
62,59,109,538,291,3683
85,94,-85,202,101,3569
3,108,-89,-286,287,2712
-26,112,-30,159,166,2290
-128,88,-86,918,-302,1556
47,94,-65,727,-425,634
14,49,-37,288,6,-125
-28,-49,-44,788,-458,-293
-15,-105,-14,560,-239,-414
-2,122,-31,-419,353,-967
-10,23,-61,244,-157,-534
3,1,-68,106,117,-410
10,-6,-82,146,97,-190
21,14,-90,-101,200,-63
25,38,-101,129,63,-75
46,69,-124,-126,353,-37
47,62,121,129,206,86
59,90,102,-68,145,4
64,102,102,-41,49,-1
72,117,105,-97,142,50
79,-123,108,-17,111,37
87,-87,107,-252,58,-78
100,-86,109,196,101,-201
-57,-119,57,1063,-2352,-6726
122,-115,76,-2641,-3561,-6302
126,59,54,-2467,-2290,-8092
111,-9,100,-3543,-4823,-7107
69,4,102,-2113,-3841,-7369
-126,-8,-14,-4533,-435,-4438
-55,63,-90,4569,-5681,2909
-26,26,-127,-287,4716,3413
-99,-127,28,-1029,2795,3971
32,65,-56,2963,-302,2219
65,-57,-62,-426,1383,-148
90,102,-5,598,1931,1502
118,25,-10,2773,822,3105
-30,-98,-76,-610,1957,3095
-83,-35,16,763,670,2853
-76,-36,87,555,984,3924
0,33,-4,748,84,2963
73,21,57,0,1007,3919
62,49,74,974,647,3389
49,64,101,993,-10,3171
65,57,-126,400,988,3225
-12,107,-85,409,-2,2191
-94,86,-76,118,344,1726
107,70,-79,355,-143,1363
39,47,-78,734,-301,740
14,12,-53,206,-239,-74
-22,-65,-36,470,-415,-315
-17,-120,-20,-3,-1,-466
-22,78,-37,208,-158,-674
-6,38,-44,-9,1,-530
-4,10,-56,109,220,-402
3,-13,-83,279,-64,-172
13,17,-95,-42,175,-118
26,31,-96,-318,351,170
33,54,121,376,84,19
56,105,125,-277,241,74
58,107,113,-153,120,93
60,119,116,3,142,19
73,-101,89,-202,95,-254
101,-60,97,-275,224,-516
-26,-21,57,4063,935,-7530
-10,-19,38,155,-3634,-7969
-16,-50,-7,-2994,-3717,-8753
25,69,80,-1931,-9018,-3276
39,81,73,-2908,-3773,-5034
95,79,23,-3479,905,-1145
-51,-63,-97,3323,344,2911
-56,71,79,2919,3982,4489
-47,15,-25,1186,4201,2422
-4,-11,118,989,2253,626
-82,27,-34,943,-716,1870
-58,12,-8,115,1502,2073
-34,-68,-76,552,1738,3320
48,-70,-70,1611,1445,3086
-37,13,73,523,824,3537
-29,-36,103,-256,1181,3563
81,33,19,1170,-130,3405
63,56,109,-240,921,4054
13,28,102,1620,234,3006
1,86,-116,410,-206,2817
-46,64,-71,-600,547,1772
125,7,-52,-64,217,1646
77,-39,-54,706,153,1439
35,-49,-55,877,-234,1014
12,-35,-38,-80,-30,727
19,-10,-61,-589,21,-331
-3,-88,-58,356,-233,-628
-29,74,-34,591,-187,-306
-15,74,-49,-54,233,-439
-11,25,-71,45,172,-391
8,16,-97,65,146,-191
14,4,-100,132,180,-71
21,28,-125,-25,-35,-34
36,54,-122,-60,269,118
44,69,-126,-83,230,87
48,93,111,103,-32,-16
62,117,120,-266,231,0
61,105,110,183,-17,-4
85,-91,94,-475,253,-207
91,-46,78,-746,256,-890
-51,-81,-95,-1336,-2377,-7685
104,-5,86,-405,-1935,-8171
-109,-10,-106,-764,-9740,-8502
-47,-106,-102,3067,-6810,-1882
119,106,-12,-317,-1147,-1243
-1,-48,-69,2767,1322,5392
108,-27,97,1301,8283,4299
41,-106,-51,-950,2684,1341
111,-63,-49,1815,-1238,748
98,-81,28,-750,3847,2010
-84,-71,-70,-892,3014,2251
-87,-115,46,2583,790,4426
125,-28,9,69,762,3065
23,11,-66,-424,1887,3233
46,49,85,455,1079,3701
45,64,72,1104,40,3172
60,36,83,-25,1552,3048
27,18,115,411,155,3276
-47,83,-86,-59,-236,2692
-71,99,-69,-274,629,1673
103,84,-88,545,-181,1058
48,50,-78,988,-372,281
21,-25,-54,743,-197,-264
-12,-88,-47,299,-344,-584
1,77,-26,101,-27,-496
-1,48,-37,-85,140,-576
10,13,-69,-16,-147,-303
29,6,-63,-52,204,-199
20,10,-85,36,50,-136
33,32,-102,-114,118,-66
51,59,-103,-186,399,-44
55,73,112,113,-77,76
73,121,126,-363,248,-78
75,118,112,116,-48,-74
75,106,123,75,202,-58
86,116,117,-52,135,-77
95,114,107,-168,61,-52
79,116,114,121,70,18
103,-58,125,-853,439,32
-103,119,58,-1319,494,-550
107,91,-94,1152,-777,-8192
-84,65,113,-2604,-4005,-8653
-122,-121,90,-1454,-3842,-10483
69,-54,-77,-673,-6918,-5798
-34,-88,31,-3084,4784,-3023
24,-68,-85,-793,900,7505
-108,-113,67,1739,4964,6218
40,50,96,228,2919,1964
27,19,-86,1577,-72,3642
-112,-89,-81,770,1418,1839
61,-91,32,-5,1494,3422
72,-54,-111,1172,-217,4025
-9,-123,-19,94,1342,2846
-56,118,-37,-643,853,2904
23,27,-43,2906,-6,4076
33,-112,74,306,517,3198
-36,100,64,-170,918,2476
-14,11,-105,511,-44,2680
-51,54,-48,-517,518,2378
-125,28,-76,688,1,1677
120,-97,-65,-1123,17,776
76,81,-93,553,-223,-175
18,-21,-67,1146,-269,-706
3,-113,-63,533,202,-592
5,84,-94,-1,-119,-333
24,51,-88,-150,448,-710
28,12,-122,283,-63,-160
39,19,-120,-312,310,-155
42,25,119,157,32,-8
60,75,112,42,183,-41
62,74,116,-93,97,184
80,112,102,-188,161,-58
76,119,110,149,-30,-4
88,126,118,45,222,20
100,-113,109,-13,278,-314
100,-119,96,-178,-1,103
112,-105,101,-153,170,21
117,-93,90,128,57,-163
119,-84,85,-189,161,-208
127,-87,87,-74,74,-177
-119,-65,89,1277,-615,-8997
-74,66,58,-2474,-2535,-8548
-118,29,-62,-3003,-3731,-9978
39,-65,103,-2424,-5448,-6540
-72,20,91,-2925,-17,-6042
-71,63,-125,2152,-3520,1743
-95,-113,-94,2172,3732,7859
-103,3,-52,-78,4723,3684
104,-96,-40,2189,808,1952
39,29,-73,1112,743,2411
45,14,-38,3484,1263,3127
45,-24,11,644,1375,3832
-14,-25,-78,110,888,2267
-102,-34,13,363,792,3542
-86,62,11,965,480,3296
-31,59,37,263,1341,3250
6,50,32,1128,47,3142
-2,92,57,36,856,2682
-30,18,-115,494,522,2640
-77,67,-123,135,389,2151
-118,19,-73,627,-31,1620
102,7,-76,476,471,1355
75,45,-123,-198,196,474
39,1,-114,476,-431,-288
13,-106,-69,980,-296,-353
-14,80,-44,317,21,-421
-9,57,-57,-427,110,-428
7,15,-79,-265,137,-232
8,-8,-89,254,201,-47
25,34,-112,-97,115,-66
26,59,95,-807,-285,31
52,89,-123,-104,615,-221
57,102,101,244,207,-41
64,-122,88,-529,-90,26
70,-125,104,-57,114,-101
71,123,110,113,119,-103
82,-117,81,-289,32,-151
93,-98,84,-186,156,-241
111,-49,70,-158,183,-221
-93,74,20,-221,196,-1126
124,-68,119,2647,-4840,-10467
-64,93,-14,-3614,-2195,-7784
113,66,98,-3286,-2232,-5777
8,-5,13,-2571,-4511,-5690
6,-21,-41,-2476,-4871,-7264
64,113,-63,-59,-3362,-92
-110,32,-88,4320,-2052,3411
-87,-52,99,1333,6675,6794
-39,21,119,165,4618,2748
67,-54,91,1772,977,1244
-42,62,-72,1297,1290,2555
-7,-43,105,948,2204,2923
-110,-44,7,531,912,3514
-110,-14,-28,1118,965,3482
-10,-111,28,-304,972,3302
-41,37,0,528,697,3358
27,-126,40,431,586,2745
9,68,63,719,531,3146
-41,110,121,736,261,2206
-71,-19,117,622,803,2351
120,-8,121,-181,-98,2471
-107,69,-69,-271,263,1728
109,119,-99,1102,-189,608
50,61,-79,597,-196,-366
-3,-95,-39,607,-319,-489
-25,95,-20,249,-180,-272
-1,77,-23,-314,316,-275
10,28,-78,139,-29,-333
22,27,-82,-39,193,-245
32,21,-108,-2,74,-59
27,37,-115,-282,205,-4
45,61,-127,161,77,-9
59,97,117,-278,128,-80
56,78,120,6,53,141
65,110,119,-69,148,-74
76,119,108,-167,-2,-14
78,122,117,-79,189,-37
83,125,107,-4,132,-38
100,-108,100,-215,151,-40
109,-118,106,382,-45,-210
114,-75,15,4688,-456,-7095
-1,97,-119,600,-4438,-7003
-128,-124,74,-2057,-4016,-7024
109,-8,-34,-6134,-2294,-8098
72,62,93,-3117,-7384,-5933
-38,119,45,-883,-3972,-3461
17,-36,72,454,113,-1697
56,-28,-111,1472,6017,6327
-3,-48,-6,265,4185,3510
14,105,-109,739,-172,2682
109,116,106,-288,1340,1352
9,-19,31,-49,1629,1354
-70,110,-12,2823,277,3859
60,-118,-40,-278,615,2748
82,37,25,717,608,2687
-86,87,102,589,575,3177
-51,100,98,928,716,3390
-37,84,12,205,1111,2896
16,23,7,889,143,3021
-5,62,109,485,532,2655
-41,-23,119,1099,416,2498
-61,27,-103,-664,540,2345
-107,-9,-73,787,209,1855
118,60,-85,643,32,740
78,58,-79,27,197,-57
32,-53,-75,427,-500,-428
6,105,-52,805,-198,-432
17,81,-51,-41,82,-593
29,50,-88,-1363,481,-852
33,-24,-115,394,-249,-133
43,6,-91,241,70,39
47,46,-114,-252,2,-177
59,50,-106,-94,222,80
62,78,-128,-23,66,-18
82,103,127,-238,218,36
79,104,122,167,86,9
89,121,118,-76,182,-35
98,119,112,99,100,-1
104,123,105,-75,236,-36
111,-116,93,-257,129,-133
1,-2,-22,-525,1978,-8234
-28,-3,24,-876,-1410,-8364
-68,-2,-45,-652,-2377,-9389
75,39,-128,-1892,-7921,-5028
-47,-87,-8,-5048,9015,-4856
-15,-99,106,2983,-5374,2515
-5,-103,106,1406,3566,5582
26,83,-21,3865,2204,4166
-43,-13,-91,-1421,6091,1139
-110,-59,93,874,2098,158
98,-91,-92,504,2265,4129
9,-3,7,400,943,3367
59,20,-28,215,240,4911
21,82,75,-366,298,3232
56,33,47,935,548,4195
98,116,62,467,561,3397
25,97,18,17,-88,3150
25,-118,-84,-390,542,2552
-18,-42,-116,1957,287,2822
-87,41,-116,86,6,2102
109,14,96,1804,-1587,2057
49,62,-74,2218,-1604,709
12,96,-39,-1449,1072,-743
-25,-81,-85,-214,-142,-356
-30,125,-19,-224,-249,-452
-26,74,-55,-413,557,-812
-19,-8,-80,541,-77,-612
-4,-16,-88,416,142,-380
-5,-38,-74,489,-56,-144
0,-1,-83,-377,521,-3
18,21,124,-160,-68,-130
45,77,114,-467,297,79
32,77,106,-24,252,171
42,111,83,172,-39,-163
55,115,92,-184,188,-8
56,106,79,41,171,-221
64,-119,74,665,-180,-109
84,-79,90,-471,172,-553
75,111,77,-62,-107,-274
85,103,106,-38,144,-163
-91,-124,-105,-2668,-2474,-6485
-34,25,-47,-4487,-2864,-6540
59,-123,-77,-4980,-5446,-6195
56,-29,112,-5616,-6160,-5645
2,-111,-113,-2189,3966,-4662
-16,-66,10,3772,-3708,1422
-19,64,119,774,6549,6052
-9,68,-120,1944,2110,4292
109,-63,-17,2155,-125,1456
-12,-108,124,-791,2488,721
100,108,26,2918,114,2973
-8,98,33,-304,955,2546
76,-66,48,1158,1243,2953
-122,74,-15,1200,520,2959
-51,38,-25,1916,592,3495
-54,-71,34,-1287,52,2675
-51,76,79,1077,417,3069
-17,61,-101,1674,-2,3099
-53,29,82,1410,569,2675
-83,-5,-122,431,406,2252
122,-78,-98,422,967,1956
118,-35,-111,13,335,2105
83,107,-96,-734,358,298
53,33,117,1188,-226,-588
-2,-102,-85,1569,-1048,-242
-2,110,-31,-65,323,-431
2,44,-73,-595,173,-562
-5,-10,-98,333,-175,-420
5,-34,-82,487,35,-114
13,-16,-94,-92,106,-236
16,13,-105,-419,161,-95
29,40,125,-37,140,-53
50,52,126,-54,137,94
51,94,102,-190,190,-89
62,98,111,61,-80,44
66,106,99,-232,199,-185
68,103,91,70,-43,-131
79,95,78,-19,-32,-101
79,115,84,-73,17,-45
87,-93,76,-228,-80,-68
-94,-30,39,-1361,-4560,-8761
-88,-69,4,-2982,-4841,-7917
67,-51,95,-3095,-8069,-8634
-63,58,44,-4107,2010,-422
-30,76,65,901,-1347,2784
-97,96,113,2659,5830,3380
-43,-34,55,3458,4524,5642
34,7,4,1519,1798,2415
-68,-59,102,1059,308,917
-88,24,82,-288,2887,1530
-92,-89,59,-1924,1734,2631
71,-75,-5,2803,-610,3912
-113,33,65,-10,899,3297
-23,15,10,452,1050,3777
18,53,26,913,21,3961
40,70,63,-61,580,3522
36,80,100,-333,461,3673
7,80,-88,557,46,3485
-9,-96,-84,818,462,2136
-104,-99,121,12,383,1046
55,76,117,-4,-280,727
-1,50,-114,71,-634,-12
2,-10,-63,90,-262,-363
-34,-107,-47,557,-262,-835
-28,85,-46,530,-1,-729
-12,42,-59,-163,522,-604
-6,11,-110,199,327,-495
24,10,-118,232,433,-284
27,11,108,345,141,-186
41,39,113,-50,142,86
40,59,116,-107,96,65
59,78,125,168,119,92
60,101,116,-283,234,166
67,-125,98,83,-4,6
88,-110,117,-258,367,106
80,-110,81,303,-9,-102
101,-79,83,-284,55,-287
106,-72,72,-194,-7,-313
121,-43,69,-528,182,-601
102,-104,89,177,-118,-210
10,65,-4,3841,-157,-9871
118,-24,102,-203,-4588,-6598
47,-1,-107,-3883,-3167,-6436
102,-87,-122,-5589,-3887,-6921
35,111,-30,-634,-7068,-7830
-118,-109,38,-5457,3679,12
0,101,-90,1947,43,1286
93,-55,83,1611,5126,6775
88,60,-62,752,4200,3904
-35,-96,-68,1378,1456,2028
68,-93,95,-396,2004,2494
12,-52,-77,844,344,2983
-108,94,-53,-969,1074,3471
-114,23,-39,1214,70,3032
9,115,48,761,471,3796
-8,74,-28,2030,-170,3189
17,-100,68,-974,483,3282
-29,53,69,1471,395,2738
-40,37,123,577,29,2818
-40,46,-97,-728,864,2655
-78,63,-99,692,-243,2023
-127,-96,-95,-280,184,595
59,95,-99,815,-312,-163
1,-66,-64,1033,-312,-305
2,-117,-64,587,64,-399
7,96,-70,-62,241,-455
9,14,-96,453,-55,-342
18,14,-96,239,40,-207
24,3,-101,-66,298,-229
34,9,-118,120,227,30
38,38,121,-88,117,20
55,56,122,-193,133,138
59,69,111,250,98,12
69,102,104,-261,190,-82
70,84,107,-15,-22,80
81,100,114,169,197,-26
79,111,98,-97,-16,-127
89,98,108,-96,168,29
96,122,98,-102,167,3
101,-121,87,-48,40,-133
10,127,99,3381,-457,-10269
-122,58,-45,-2157,-8336,-7971
-115,-29,-127,-3856,-1658,-7857
91,72,-101,-5821,-5225,-6530
-34,53,106,-1919,-6015,-5109
126,4,23,-4395,8591,-5085
-99,-70,-53,3598,-3253,4810
-80,-22,-121,646,7997,4753
-31,45,-7,-303,3380,2259
75,40,-95,3013,-155,2622
27,81,61,-830,2127,855
-56,-66,-41,66,1194,3255
1,23,11,892,410,2984
119,112,39,-189,732,2713
-72,26,21,1790,897,3759
-38,122,-11,-278,145,3099
-17,94,-4,-239,830,2703
33,29,38,316,-163,3547
1,27,54,331,-358,3439
13,55,-103,316,156,2798
-3,116,-96,-348,77,2319
-73,-77,-60,-107,-352,1108
90,98,-57,1367,-394,199
33,28,-61,1143,-241,-365
19,-78,-67,475,87,-406
7,90,-80,874,-173,-319
12,81,-79,-223,140,-678
27,7,-107,97,146,-458
30,-8,-104,331,44,-124
34,9,-125,107,186,-139
48,32,116,-228,10,13
55,51,114,-75,213,95
71,86,108,-14,270,-26
72,98,102,-235,-16,51
77,113,108,98,68,-60
87,102,108,207,134,-71
95,113,97,-176,150,-1
99,120,92,-20,94,-99
105,110,97,16,167,5
106,-127,84,-75,48,-66
-44,75,46,593,-6826,-9177
105,9,123,-6597,-2274,-8070
64,73,-35,-2765,-6007,-8699
70,13,-120,-1247,-5277,-1729
28,-37,-52,-3536,516,-3918
-91,-62,-49,2220,5359,9220
43,-32,-10,-109,5049,2755
66,53,15,810,-643,3743
10,74,-76,72,3473,-1306
48,97,-120,1423,1103,2982
-57,58,-13,1823,1343,4228
-46,94,-128,-410,308,3757
-35,33,-37,304,1149,4160
79,-121,-41,-304,121,3679
107,120,-67,1188,-95,3939
90,-67,53,278,-18,2928
21,104,36,1374,-78,2654
-28,41,-127,1239,-78,2667
-35,55,120,-463,1228,2254
-59,-41,78,-807,-788,1518
95,-27,103,866,-743,-1381
16,-108,-40,1309,-93,-608
-11,-123,-61,24,29,-358
13,68,-106,-307,284,-585
30,46,-106,118,7,-417
29,0,-116,174,353,-438
35,9,119,-99,95,-216
43,14,118,-211,223,75
50,40,101,109,140,7
70,77,92,10,86,189
78,124,74,-371,182,-15
81,114,85,116,8,82
81,109,94,85,193,58
94,-123,90,-291,193,44
101,-117,76,-2,28,-92
105,-116,90,20,154,-92
107,-121,73,-63,90,-86
120,-97,62,-158,119,-169
124,-118,66,36,100,-22
-128,-92,51,28,-38,-248
-17,65,-92,5796,-1384,-8635
46,59,-97,-1234,-5915,-6603
-92,90,-38,-4751,-2589,-8645
-98,31,-70,-4714,-3866,-7138
70,-44,-2,-1763,-8225,-7935
114,4,-43,1065,-2256,-2540
-5,25,118,2386,-3274,1416
-14,25,-93,-778,7147,5610
28,95,-28,1141,4638,4208
-4,-115,-59,2612,-225,1655
71,-25,111,1018,-322,570
-8,-55,-25,-955,4484,1660
-51,16,81,2637,20,2875
64,29,36,876,1201,2715
58,34,6,-188,1468,2465
78,46,31,-91,474,2900
-102,-15,40,1959,1293,3935
-37,90,-19,1928,142,3525
-87,54,11,397,994,2869
-80,-87,69,-85,1276,3382
-49,-93,116,649,867,3490
68,-60,-119,13,1569,3621
46,-35,72,-462,78,1820
106,-2,42,-281,-257,-1243
-15,123,-67,2223,-616,-48
-15,-86,-78,1010,-190,-149
-13,125,-111,-186,131,-811
1,31,-83,64,-611,-568
0,19,-76,-407,95,-490
2,17,-88,-129,-203,-589
4,14,-100,-249,9,-507
27,20,-100,-247,193,-66
33,74,118,-331,43,-560
41,49,127,-121,47,-92
50,106,105,-354,231,-238
66,118,79,-340,73,-183
66,-122,63,-220,267,-240
78,124,65,-12,-67,-59
88,-96,48,-465,41,-189
88,-79,55,-407,-8,-217
126,17,-110,2067,-1017,-7736
72,28,25,-1932,-1433,-5548
-102,-66,-93,-9725,499,-4285
91,-10,58,-40,-5012,-8704
3,-75,57,1727,-654,-8275
25,85,7,-164,-2772,-4846
21,71,127,-4154,5101,3932
104,25,62,-3796,3434,7117
-21,-93,-19,1023,1706,8151
33,11,74,-1355,1398,1849
31,-71,5,1719,4185,1098
92,-94,10,4438,-1503,5099
107,23,-25,-472,1863,6950
-102,-77,-38,-525,1643,8479
100,52,60,-6514,4392,9900
65,10,-120,1737,-6144,5268
-14,16,83,-8611,-457,6852
93,74,64,1702,-2796,3378
47,-42,120,-2878,1902,-8481
102,42,-48,-657,3117,-4438
63,17,1,898,-679,715
-16,-56,91,-851,-1092,502
-38,-72,39,-319,859,83
73,-1,-101,-60,-942,404
117,18,-46,407,-689,499
-126,42,-28,-259,857,-51
91,8,115,360,-142,-344
98,-16,101,-512,716,-438
111,-33,92,-189,29,284
110,10,84,-333,-36,98
127,10,106,-320,-60,-165
-118,-6,-118,-245,-79,75
-122,8,-106,-75,1,67
-107,-3,-120,371,91,-27
-113,-6,106,239,57,-16
-121,-1,93,-224,-81,18
-103,-12,100,-46,-67,84
-90,-2,102,-209,-20,22
-87,4,106,-275,-21,-44
-89,0,117,-242,-14,-60
-124,-56,-62,4942,-1057,-4419
-35,101,-48,64,156,-7033
-18,-25,-83,2026,-2133,-6397
-105,-117,84,-9164,461,-10636
-98,-28,-118,1286,-5795,-10743
-82,-84,58,-1130,-4137,-9158
84,119,-14,-2335,1465,-5385
-50,-46,86,-1489,2504,8825
-92,-35,78,-5835,2358,10656
108,7,26,4811,-3614,7057
94,-11,115,-535,6233,-3195
110,-110,-67,9286,-2449,2562
12,126,-75,1274,834,4611
65,127,91,-543,2654,6829
31,59,116,-2850,1512,9103
-50,48,-125,-7428,-2075,9878
23,-25,-23,-8370,-3105,6435
96,-117,-34,16710,-11667,265
-115,0,90,-3135,8143,-6756
66,73,-20,-1766,3570,-1790
2,7,-40,-763,2312,-515
-70,-75,103,2723,-4998,-136
-15,104,90,-1211,1941,322
71,-75,91,-1218,785,1214
61,15,-112,-310,-2287,1331
-111,91,-29,440,421,196
-125,48,-61,49,364,-814
93,-18,69,-1353,773,-691
93,-25,85,-1139,505,-347
92,-35,75,-245,17,101
101,0,95,-398,-226,208
123,29,122,-363,-144,255
-117,38,-125,-264,-34,114
-108,46,-128,-290,111,-63
-105,32,118,-86,146,-105
-105,28,107,-194,144,-26
-103,35,96,-349,124,7
-93,40,90,-391,100,-29
-86,43,96,-399,47,-40
-83,41,104,-292,1,-25
-36,57,117,5088,-559,-6028
102,23,71,1745,-1104,-6793
118,121,26,-4417,-236,-9404
27,-8,65,-6845,-2716,-14256
-64,80,28,380,-4748,-8597
88,6,-37,3479,-1995,-3460
33,-50,116,1940,-700,2085
98,-41,75,-8669,7289,8581
-85,69,-118,3231,1754,13312
-66,-68,6,4565,-122,-3006
-93,-25,-72,-3661,8581,-351
102,102,-78,2968,-1094,3095
-70,63,50,-612,540,4848
40,-103,122,-3817,1133,6339
-17,-124,100,-4581,348,7743
-107,-104,-115,-4292,-3883,8305
29,47,-72,-3422,-3632,4621
123,-57,114,4034,-5680,1455
8,14,14,-592,8259,-2353
79,42,46,-1529,-767,-3204
61,67,-13,-3432,2996,-500
60,-45,118,-1190,-583,-1359
43,-121,90,-14,86,-597
56,127,61,-275,1233,317
73,-24,100,169,-1007,518
94,-12,125,-706,-289,301
-118,10,-117,-1109,372,213
-117,27,-107,-838,-195,71
-120,32,-115,-639,78,18
-126,30,-98,235,-517,70
-120,30,-105,160,28,151
-110,47,-121,-94,64,23
-103,45,119,-213,157,-46
-97,29,104,-183,170,-110
-93,19,104,-140,29,-10
-87,18,102,-261,33,-79
-83,13,99,-412,-8,7
-80,33,-123,-570,-28,234
-66,46,-119,-168,232,58
-69,41,124,195,96,-99
-89,-126,-43,-9882,-3418,-6338
-100,109,-123,1137,-7247,-9447
-11,-122,-93,-1078,1523,-4719
6,-45,-123,3499,-3105,-1284
-12,61,75,-4849,4463,8184
-19,71,78,3098,3797,8092
104,-34,46,2239,3466,2520
-20,-81,-87,1917,6073,-1534
72,-112,31,3480,-2682,2803
117,10,-58,-3884,4899,3434
120,125,-111,-1697,-213,6489
-89,-76,-60,-5089,1582,7966
48,100,88,1838,-2627,5690
-39,-53,-37,-8920,468,6006
-114,23,-10,-390,-4161,3509
102,24,3,7646,-6350,3378
68,30,-26,-5172,6584,-6143
-63,-51,8,1131,-1464,738
-81,106,105,-1087,1106,-1102
-48,101,110,-129,-1112,-183
-38,91,86,-1473,1090,140
1,-79,99,-749,-133,-38
70,-50,-76,839,-146,171
73,-52,122,1003,-49,165
61,-41,86,-123,99,-23
47,-70,65,-759,276,-241
56,-92,67,-142,-93,85
78,-60,99,-180,108,49
95,-45,92,-135,-83,137
94,-26,73,-408,6,-74
96,-22,69,-863,-148,31
97,-22,64,-814,-49,-88
106,-13,62,-530,151,83
98,-9,53,-316,-119,-7
113,0,52,-187,43,89
120,7,47,-57,-73,34
-122,20,45,-358,54,-57
126,8,39,-183,8,-12
123,8,53,-31,-27,-13
-117,16,32,-101,-65,-2
16,124,1,-2231,-2160,-7078
-89,-23,65,-6150,-4977,-9424
125,116,-127,-36,-8089,-11534
89,-126,24,-6600,5440,-6272
-27,-15,-50,10638,-2147,487
111,-14,63,-5926,408,3370
5,35,99,-5647,6526,8255
54,-94,72,4121,1136,10370
-9,109,86,3177,3623,-3093
-38,-96,-102,-552,3168,2279
-42,-106,-114,219,46,5274
-2,62,123,-2104,784,5657
83,87,-105,-6964,-61,6979
40,-126,63,-4939,-1512,9820
-109,-47,-126,-3768,-2593,6768
-77,-109,43,-2534,-5355,940
-51,64,61,6443,4837,-1858
-79,-58,40,-5665,2302,-4528
-19,120,56,-2555,3291,-1216
89,-103,37,1787,-1085,-607
24,-123,62,1407,-1183,-314
23,-99,51,-1361,1360,311
71,-25,89,-1042,-334,700
86,-21,98,-635,-847,954
98,47,-125,-913,-842,814
-117,68,-40,2745,-1053,111
-117,48,-55,340,944,-437
108,-3,40,-821,543,-398
112,0,52,-1131,415,-182
121,-19,44,-269,-102,311
-126,14,71,-138,-281,151
-108,37,104,-284,-180,93
-107,38,123,-266,-28,11
-104,31,-125,32,116,-57
-93,18,98,-120,243,-25
-88,22,82,-304,157,34
-92,27,72,-311,62,-32
-80,30,85,-350,112,-21
-79,31,85,-200,46,9
-61,28,92,-157,82,-5
-56,107,-118,2644,-1856,-7196
30,91,-89,-4552,-1269,-9488
47,-80,63,-7408,-5424,-11002
-3,-22,-60,1229,-5044,-8290
94,-107,-73,-1219,-1929,-6312
15,-115,-79,1746,5179,814
50,114,63,-2246,3742,10568
-106,-95,-93,239,3469,9373
14,63,112,1215,1799,1322
-127,-57,23,-1462,3768,-3118
101,4,-35,3844,-364,3128
117,38,97,775,569,5869
-105,-3,-73,-1453,1095,6552
-111,26,-38,-5077,1031,9159
-79,29,120,-856,-3211,8391
87,-38,-92,-4704,1144,5190
26,34,88,-2853,462,1855
-10,-60,-92,-2393,-4902,1525
24,-60,47,11699,-6653,-891
-110,-41,-78,-5035,3757,-4590
27,3,-61,-655,1460,-716
14,-124,114,-337,-642,-312
22,-108,79,-602,-6,214
67,-58,58,-1077,993,252
82,38,118,-1898,-582,-167
102,29,-97,-1529,-408,101
116,31,-40,24,317,-238
118,22,-86,182,494,-133
123,21,108,467,119,12
-128,27,99,9,106,-27
-112,24,89,-273,331,-73
-106,26,85,-227,-41,12
-105,28,90,-276,-21,-29
-97,34,108,-290,-66,-16
-95,40,120,-457,3,-41
-89,45,-120,-372,-21,24
-82,44,-115,-172,107,-5
-75,44,-121,-43,73,54
-64,44,115,-98,152,-29
-61,39,103,-31,12,10
15,56,7,-4478,-1318,-7078
-101,-124,-17,-4387,-4412,-8627
-109,121,-59,-325,-3060,-9185
-40,-92,55,1241,-7291,-5914
65,-123,-108,2698,394,-470
-74,-77,77,-5208,6976,5171
-30,56,107,-1029,3670,9617
67,19,-8,3444,4831,7331
-20,97,-30,4145,1407,-390
-45,89,-40,-2896,964,1071
52,-48,47,-3229,1515,3271
82,-85,104,-1621,-1017,5242
9,-57,115,-2568,-3099,6740
-2,68,101,-4341,-2576,6010
-84,109,-83,-4482,-2317,6841
-95,-99,-87,503,-2454,3513
45,-75,34,-2632,-424,1649
125,-35,106,15604,-3502,399
-75,-109,-105,-3774,2072,-3320
14,68,-10,-204,694,-1418
20,-67,-75,-3437,1615,-1501
49,94,58,-144,671,735
55,-107,22,184,809,1095
105,-12,66,-1117,-257,794
-102,31,91,-1758,-66,555
-75,57,108,-1168,-180,63
-88,73,120,-1120,-74,-576
118,85,-66,-1640,-412,-1003
127,-66,82,1790,228,523
113,46,-30,311,-3,180
-93,39,86,509,-45,307
-83,57,112,-200,182,-183
-80,35,94,-771,484,-100
-89,23,76,-145,-232,55
-87,28,95,-83,-200,-12
-75,49,-128,-690,-33,-117
-77,45,-112,-772,87,-81
-79,34,-97,-100,-227,74
-74,33,-92,303,43,155
-60,41,-113,325,35,122
-66,105,-23,4283,1655,-5001
110,-66,75,6299,-233,-7231
75,74,-98,-1399,-1919,-8262
86,-26,46,-8614,-3429,-9222
-75,92,29,1250,-8354,-7280
14,-17,47,454,-4327,-6973
51,-44,-114,1531,2066,-2023
-6,30,84,-3018,3201,3813
19,-97,104,-4741,6511,9619
-89,-83,-110,2946,4024,8418
76,52,-12,2415,770,-2525
57,-60,-47,-864,2853,799
-43,-76,-9,2118,-1771,5245
-3,-97,-99,-795,-275,7005
49,57,-84,-150,118,8443
8,74,27,-4185,3614,10093
-52,44,-39,-1637,-1332,7353
67,43,-34,-6386,-1212,4456
-96,68,62,19938,-15083,5505
99,95,-52,-8372,10607,-8824
42,-23,54,-4065,3346,-1346
44,-95,55,-1775,171,-1571
43,63,30,2607,-2254,1108
21,103,70,1970,237,1033
64,-59,117,21,-288,247
-119,-61,-118,-1904,176,99
-93,-52,104,-2422,664,-15
84,-9,-127,-2183,-797,-637
-4,-62,-11,454,-2598,340
76,-12,-26,1958,1789,9
88,-59,114,1580,47,490
-117,35,109,-2873,1258,-224
-80,10,64,-2703,1582,16
-95,2,40,-634,333,74
-117,3,70,654,-731,123
-101,25,95,407,-606,124
-84,49,125,-519,-133,-66
-81,54,-120,-1238,118,-204
-86,54,-102,-1185,95,-222
-93,46,-74,-401,-75,12
71,12,16,978,1887,-7252
14,-71,24,2462,-1670,-8125
114,86,10,-1069,259,-9136
-95,71,-20,-3628,-7138,-5379
70,-6,-44,-4697,-4833,-6999
-125,7,-78,1314,-4532,-8069
91,-84,-86,1050,3227,-1137
25,-18,72,1880,1269,2579
87,-13,66,-5444,5493,6380
-41,54,51,1536,2986,7953
59,30,24,1072,3098,-3116
-112,-100,-101,990,4744,1546
-102,24,-31,1896,-611,2842
-84,7,-113,-2755,2660,4416
-10,122,-70,-2626,306,7392
-48,88,-69,-3445,888,9386
-113,-29,-97,-4309,-2136,10047
65,118,66,-4636,-1110,5336
-30,-123,-81,-2746,-2407,3587
113,8,-31,8687,-8209,6771
-66,-39,98,-6584,3281,-6008
117,72,27,-6921,5634,-5321
-88,92,-65,-2199,5580,-2669
64,77,3,4748,-3715,1877
-11,-84,18,3357,-1828,1016
43,0,83,185,-529,113
96,2,-118,-1428,-5,-323
109,0,112,-2668,899,-626
101,34,-94,-3180,24,-983
73,-22,-50,-681,-1192,31
55,-17,-3,815,-11,378
93,28,-82,1180,668,365
-127,49,96,384,479,213
-113,67,88,-1142,482,-73
-103,54,74,-911,268,233
-102,63,86,-256,-152,112
-91,77,96,-487,-2,-22
-89,87,121,-624,-228,-143
-86,98,-89,-1116,-129,-122
-91,75,-54,-146,114,157
99,-22,6,4493,-215,-7466
-24,-74,33,-1132,-2186,-10539
48,27,-28,-5456,-7647,-10511
119,70,48,-4361,-2596,-7639
-18,-98,-8,854,474,-6469
-30,25,-75,-3394,2587,599
70,19,124,-4696,5308,9423
80,-54,66,3747,3602,10638
66,-74,111,4051,-1245,-1886
126,-102,126,-3748,6031,1662
-91,28,-91,1517,-1326,4466
28,7,-65,-1066,-1151,7051
86,-75,-95,-300,-1293,8939
73,86,-118,-1317,725,10167
-120,87,55,-4662,86,6703
18,-29,-43,-8555,-947,4278
50,18,32,29464,-14497,4480
1,-46,-18,-9279,4566,-8544
99,-25,114,-5444,4652,20
0,14,-103,-2201,3167,554
-68,51,-50,7807,-5956,-455
-50,60,-127,-2101,2284,285
64,-112,124,-2679,1005,139
71,-65,-102,-2293,-909,244
79,-46,-91,-800,248,6
96,-22,18,-295,742,-535
79,-85,-117,805,48,-125
108,-60,108,154,-2,86
113,-42,101,-295,275,-151
107,-52,84,-414,311,-174
124,-61,84,-155,-137,148
-128,-42,89,-185,-205,199
-94,-12,98,-176,-393,302
-115,14,110,-317,-443,-213
-114,7,-107,-871,316,-324
-111,-23,-111,-214,209,123
-108,-21,116,114,226,146
-91,-5,90,64,-57,117
-78,-1,84,-111,-81,43
-79,6,88,-316,10,-43
57,-89,74,1546,-447,-8199
-2,-61,100,-192,-1685,-7515
-77,48,126,-6489,131,-6826
-70,109,-3,-2765,-6986,-7808
92,-85,-73,122,-2519,-5906
-109,-64,-98,3042,-2853,-3543
115,-127,-127,-2101,1105,-267
-35,61,59,-4080,6796,6680
6,40,51,2921,4288,9371
-90,63,51,3468,3836,-717
-83,68,-20,518,2739,2622
30,-128,0,-163,225,3054
-85,6,-5,-3926,1467,3256
-5,66,-46,-5772,159,6287
-121,87,-100,-3531,-1935,10354
-101,20,-88,-781,-3109,10603
3,-72,125,1347,-810,4162
59,-105,-71,392,-429,3787
-21,-33,40,-3130,598,376
21,-46,-17,2894,-1610,-2778
18,-98,-86,-805,2111,-1443
-60,-84,-106,-595,-106,-1595
65,116,70,-2390,1475,-95
58,-77,82,-870,330,-328
80,-42,99,-1581,870,-499
93,-27,96,-1484,571,-338
89,-19,117,-685,400,-589
106,-29,-127,545,-290,-421
-116,4,-101,-349,-158,-205
-119,9,-106,-899,371,-136
-125,10,-114,-85,-111,189
-108,21,-114,92,-68,199
-95,32,-119,154,-148,195
-90,47,-126,-86,27,127
-86,44,127,-39,1,-20
-81,30,115,-6,27,-46
-83,32,122,-409,-26,-19
-80,31,-126,-304,13,19
-69,34,-114,-210,6,-20
-65,34,-115,-106,28,-59
32,74,29,6350,-1329,-3899
39,-110,107,724,259,-6520
-32,-25,126,31,-297,-7652
-12,3,72,-2764,-2211,-8032
90,102,-66,-6043,-7958,-9839
-110,-90,36,-2727,-6924,-9701
63,126,120,-44,-207,-7437
-17,93,-82,1652,2836,1674
-52,-37,68,-5433,5651,6358
-126,-8,-33,1721,4389,10224
-57,125,99,3134,1595,3258
-14,-68,-111,-880,3098,-1075
124,108,-20,194,-1556,4580
-48,-19,96,31,47,6395
-39,-106,-83,-4100,1044,7788
106,103,-128,-1849,-790,7906
14,-50,-63,-1724,-1863,6943
-117,35,-73,-4681,2349,4918
60,-62,-126,-3714,-374,2532
61,-35,-13,966,-5059,653
-95,88,-1,11604,-5685,-636
-118,32,31,-8177,4905,-3858
43,63,-26,-538,2123,-1138
38,67,38,1938,-1110,629
7,-93,92,-961,-228,62
57,-72,88,-981,589,95
80,-46,-116,-642,-177,-30
107,-9,-104,-1441,641,-338
107,-30,-121,-693,319,-386
101,-58,125,147,-13,-37
93,-31,96,399,-530,75
115,-23,101,301,-203,154
126,-11,98,118,-281,109
-125,-2,97,45,-302,133
-106,19,-125,-438,268,-200
123,5,-120,-528,-204,-181
-122,-50,122,1066,-172,234
-83,-20,92,-24,715,23
-84,-7,66,-1388,665,-322
-96,-42,47,-190,-363,16
-128,79,24,5319,-2386,-8803
63,-82,-121,460,-2491,-9485
95,42,-37,393,-3468,-9013
-32,65,40,-2590,-8436,-8279
15,102,-77,-731,-2681,-5721
9,-90,-128,6547,-1242,-698
77,48,111,-7045,1826,219
-60,121,54,-1664,4680,7360
86,-87,-101,2045,5065,9482
21,65,59,1814,4966,3721
12,89,-101,77,651,476
70,65,64,-2061,569,3492
-6,-123,-118,-2784,1534,4330
-12,50,-118,-5253,-1340,7115
5,42,111,-3102,-3023,7421
81,-51,-94,-2370,-2815,6119
-49,-70,-54,-76,34,2439
-91,-4,-28,-2968,-117,1206
6,80,-96,2473,-4763,2145
77,69,-99,-511,3530,-2595
103,52,32,-714,66,-2144
27,75,-17,-1515,1712,-421
22,-90,53,-900,412,-838
51,-93,64,-354,-159,-157
87,-18,122,-1585,-82,208
93,0,-106,-572,-730,355
96,5,-91,435,-428,443
111,31,-77,682,63,5
123,16,125,201,187,47
122,20,88,-606,239,-30
-125,14,81,-511,96,-14
-124,5,84,14,-157,84
-120,23,101,-407,-18,-38
-111,18,108,-300,5,21
-109,21,114,-211,24,-14
-100,19,112,-163,57,17
-96,19,103,-155,62,22
-91,18,91,-73,-11,27
-86,18,90,-131,-22,45
-83,27,94,-205,-14,14
-59,113,-123,3175,-1534,-6145
-124,-42,66,-2522,-897,-10540
73,-50,32,-5367,-9344,-11396
-79,117,-120,-4306,-3870,-9159
22,-73,-48,6537,-5373,-4824
-79,-112,-119,-2281,5923,4652
-7,3,66,-5619,4199,9375
109,-51,96,4254,2487,8703
-29,-20,95,4199,4621,-1193
-51,-69,-35,3479,-1091,2528
105,77,65,-1322,-9,4302
91,-5,-112,-3113,1227,5525
-37,103,121,-2739,-167,8273
97,-59,122,-2905,-1854,6920
-83,-26,83,-2578,-509,5332
23,-112,-105,-994,760,4020
-53,-127,-106,-1193,-724,2263
31,-92,-123,-762,-4075,1343
120,-62,-35,14551,-5724,1059
-110,74,-124,-7288,3768,-4646
64,19,-40,-2005,2329,-1109
61,112,52,587,191,62
40,-109,53,976,-885,-99
69,-88,94,-228,-307,444
99,-29,-98,-1071,-473,87
104,-22,-92,-1173,87,-13
117,-25,-105,-586,332,-100
113,-22,-109,-197,77,36
117,-20,126,334,24,57
126,-11,116,-29,62,16
-114,-5,107,-360,79,37
-113,-6,104,-248,59,-7
-110,-5,104,-161,-48,24
-104,2,110,-176,-16,-17
-90,-8,110,-94,-45,0
-86,8,126,-358,-47,94
-92,16,125,-143,130,-133
-87,-7,115,149,-17,-20
-76,0,113,-304,86,81
-72,4,105,-150,89,11
-21,78,-11,-6096,287,-8287
30,-11,-40,957,-15210,-7058
-91,-126,59,-5303,-348,-7635
40,94,-89,8674,3106,5907
-126,-99,103,-7183,2265,830
98,-125,62,-2560,4640,6367
25,37,-6,3802,5444,5394
-103,117,-55,2616,3261,-736
29,-123,-31,-38,5,1695
-65,-8,55,-604,2030,3848
-82,-43,-63,-1790,1322,6331
54,-6,-69,-3900,732,8206
-128,115,103,-2596,-2105,9930
8,-65,-42,-3477,-992,7378
-93,-96,94,-4567,2121,1921
124,-93,-104,-2791,-1791,-36
-88,3,72,8995,-2611,-988
102,-13,52,-1821,1206,-2900
-11,23,-21,385,476,-503
27,126,-115,361,288,-434
3,100,117,860,-276,-263
45,121,108,-1063,1045,155
78,-104,110,-1256,252,277
91,-90,97,-723,156,372
113,-67,103,-466,-103,285
-124,-47,117,-462,-79,220
-127,15,93,-2032,-425,-383
94,-11,127,-790,-941,-89
109,-23,3,2221,-425,324
123,20,-50,391,644,15
127,-17,83,3,151,18
-111,-37,84,-279,363,-273
-108,-47,81,-400,219,-39
-106,-47,84,-232,-5,10
-113,-41,88,63,-161,57
-100,-34,98,-57,-62,70
-93,-26,102,-243,-138,98
-85,-17,112,-414,-49,110
-75,-6,-128,-312,25,38
-80,-9,123,0,73,-3
117,69,105,2207,4575,-7193
80,-17,94,7522,-3899,-7488
85,-84,-36,-5259,-4577,-9493
8,83,68,-7450,-4715,-10630
109,-62,51,-3692,-1786,-10471
109,-46,102,2911,-3565,-6623
99,-9,127,2125,1658,-721
-15,74,78,-6376,3016,7489
-71,107,85,3079,3375,10823
21,95,2,5998,4375,3890
17,108,89,2233,4596,-533
-80,-126,-18,377,932,3419
-89,-62,-102,-2294,1316,4265
113,-3,-78,-5270,388,6483
124,-69,-108,-4863,394,8739
8,21,69,-407,-4262,10357
10,-29,118,-7262,1287,4371
85,75,-115,-4458,4,-172
-3,-106,37,28150,-14051,4121
30,-13,32,-10444,7039,-5213
10,66,102,-1297,2552,-1926
60,-102,96,929,-1239,-974
45,99,70,1407,-989,275
29,-115,61,-86,910,599
66,-26,104,-1426,-12,269
119,-15,120,-1615,25,560
-112,14,112,-1681,179,453
120,26,126,-532,-1296,393
100,30,-93,805,-1091,-168
-125,42,8,515,1160,-315
108,-14,97,623,-34,34
-128,12,88,-570,370,-37
-115,8,83,-832,350,-8
-106,1,75,-339,212,109
-102,13,77,-65,-204,106
-96,26,96,-210,-131,-92
-86,22,118,-399,12,2
-83,27,127,-379,77,-22
-82,22,123,-131,61,-30
-78,18,116,-36,37,51
72,-8,119,1098,2458,-8754
52,107,-36,1844,-74,-11469
-11,103,-84,-1690,-5161,-9761
-35,-80,-72,-2519,-9285,-5367
-37,-120,-36,-2796,3530,-8722
-59,-94,-82,1642,1533,752
113,99,75,-1510,-1873,2490
-67,27,69,-6268,5213,5934
124,-82,74,4120,947,11195
20,-18,-103,6127,4750,-636
-51,92,-87,-1908,3418,2018
79,10,31,1368,1980,4162
87,-32,-36,-1897,2441,5935
-44,-30,-119,-7102,2121,9672
31,104,80,-6665,-4203,12846
9,5,-23,1514,-7665,6472
-115,0,-58,-4134,1712,-2900
-90,38,77,-9369,14348,-1720
91,78,-107,10793,-9574,-276
-116,107,46,251,1197,-3191
55,112,-58,-846,1758,-1748
58,14,-128,611,247,1098
22,109,61,-1414,1040,1189
56,-52,64,-3088,844,817
-125,-14,85,-1322,-630,1077
-105,10,100,-601,-522,1116
124,73,127,-152,-674,-39
113,33,-49,1459,8,-856
110,-26,-92,512,126,-259
93,-45,82,263,-173,-173
122,-30,96,-558,287,-14
-123,-15,90,-986,379,-148
-124,-27,75,-484,137,-163
-114,-18,98,-408,-29,-62
-109,-5,100,-346,69,-79
-108,-8,98,-267,-19,45
-97,1,105,-159,-69,100
-87,11,103,88,-20,9
-82,12,98,-72,-57,0
-79,14,98,-140,49,-117
-122,-13,118,2212,2413,-6068
114,61,-64,7897,-2290,-7430
-128,111,15,-923,-4976,-12803
-70,-115,26,-12383,-18675,1514
-77,57,83,-8418,213,-7007
30,103,35,4308,-1096,-5585
76,80,-107,-3650,2679,-1904
51,-22,67,-3503,5098,5333
68,38,-76,-694,4168,10958
-34,-6,-69,3681,2533,944
32,27,74,-932,2154,-421
100,-86,-21,1247,-435,4092
120,21,-116,-1312,1122,5714
-30,12,-50,-2320,216,7582
-112,93,-61,-3308,22,8651
14,117,7,-3111,-3825,8761
-62,91,-120,-478,-977,1732
14,-20,108,-2387,1136,4695
-114,-33,37,-6917,-1753,565
-126,59,67,24848,-11649,3529
127,79,-100,-7867,6836,-5109
38,0,109,2115,404,324
40,-79,106,-1587,-94,-356
44,115,73,-381,-426,191
55,-94,81,-723,231,471
48,-32,-107,-759,-1268,382
100,-30,-47,908,-312,361
112,-14,-61,453,600,-141
104,-35,91,-794,495,-375
101,-66,65,-642,188,-258
95,-85,74,221,-308,210
109,-40,105,-217,-238,223
124,-16,120,-434,-21,102
-124,-20,120,-246,135,-62
-124,-25,112,-147,68,-38
-113,-25,103,-258,152,-9
-113,-21,89,-270,94,-33
-102,-24,82,-156,20,-24
-99,-20,84,-266,-26,-48
-100,-24,96,-98,-81,47
113,7,-90,3733,3090,-5449
-42,-85,-47,7053,-4795,-8440
115,-43,32,-7546,-550,-10621
2,108,-90,-4848,-5107,-10382
97,-68,-55,682,-2311,-8543
43,-106,122,17455,-11178,2054
45,-112,33,-13602,5445,-6521
-112,12,55,10548,1066,6093
123,52,55,-9741,3125,-1707
22,31,82,1221,4156,9187
-35,-71,60,2604,8000,5846
-52,53,106,1357,5807,7109
13,14,106,344,2833,2189
-76,24,73,-4022,283,3228
54,87,30,-8336,2271,4510
-64,14,-2,-2792,-3357,6550
64,93,-63,-5877,-1222,5025
-107,126,43,-1318,-472,2005
98,-65,52,-4120,-1518,4
89,-22,116,11313,-6157,5889
77,94,53,-6657,5417,-5571
117,127,84,-3338,2271,-444
73,-114,-55,-1685,2782,-749
36,-81,-15,1855,-1645,-65
15,126,25,1873,-1842,19
55,-32,122,-2019,266,-66
94,33,-25,-1923,182,-162
89,-50,-3,988,174,152
51,-84,-128,2043,-811,942
-88,-56,66,1887,307,416
-116,1,44,-1069,1359,-1045
-104,-67,56,-2252,348,-1218
120,-93,61,-352,-1031,85
97,-53,110,-498,-468,81
108,-12,-117,-535,-124,349
-114,-6,125,78,-108,498
-87,19,111,314,173,87
-96,13,90,149,-207,25
-98,4,82,-336,57,-84
-94,-1,85,-389,128,-7
-17,39,-100,-2997,-968,-6648
9,44,76,-2730,-10730,-6719
10,-68,-45,-3357,-6574,-10499
46,-120,-31,1257,7852,768
5,52,87,2588,1932,4279
99,-87,59,-6955,5399,5932
-43,62,49,2812,3500,6817
2,-95,46,1717,4061,-2180
-5,126,69,1093,832,2432
98,16,-4,879,-427,3535
99,91,-99,-4083,1986,4059
23,-74,-94,-3225,1262,5993
54,111,-93,-4566,-1345,9578
58,-82,-56,-2982,-4936,10798
37,-93,119,-3038,-946,4736
-125,-105,-83,-161,-2713,-148
5,-102,-80,8448,39,-853
28,-125,112,-2370,457,-4738
34,37,-56,-2177,2733,-1896
68,58,54,99,-457,-553
-17,64,60,1014,-1761,88
10,119,-128,-1178,199,403
61,-39,-34,-1179,-871,1373
124,13,53,1435,657,86
-93,3,-73,-268,986,-124
101,-46,38,-1509,821,-643
67,-92,29,-140,-406,-59
93,-65,114,-239,-691,684
-115,-3,-93,-88,-100,543
-98,42,-94,-354,633,-289
-104,8,82,-1069,451,-448
-110,-11,88,-785,118,-266
-99,4,110,-715,183,-154
-88,11,115,-531,235,-176
-84,11,120,-311,1,-41
-87,10,118,182,-244,146
-70,26,125,203,-153,145
-60,43,120,-96,-13,45
-64,42,117,-166,1,-92
-63,20,111,-7,3,-139
109,-50,55,-2041,1296,-4246
-71,-56,25,-2708,1260,-4768
-94,-68,35,-1832,1279,-5203
36,-69,34,-1680,491,-5146
-61,-74,46,-1686,457,-5185
59,98,76,-929,39,-4650
-34,102,-124,-1506,-130,-4925
88,-96,-119,647,-645,-4443
101,119,33,1088,-1451,-3459
-19,-100,74,819,-817,-1459
82,72,56,1975,-41,1841
-48,116,-15,-1635,2575,4112
-88,103,-35,-231,1707,5263
10,54,0,1812,1174,6115
-10,126,-109,1408,595,6383
119,126,-72,658,-747,6326
-111,-128,127,9,-1956,2494
-37,94,-64,115,-3520,4256
-56,-30,-56,3095,-5228,6838
-78,-29,-120,448,-843,6215
-45,116,-69,-40,-1110,5805
64,5,-112,-1808,-137,2846
74,43,-95,-1148,-2016,814
-109,-125,-47,2478,-2110,-596
96,17,-82,2806,289,-1172
69,-9,67,856,1043,-1141
33,-71,-7,-466,115,-678
39,119,0,20,2,-792
52,71,-6,5,239,-647
86,39,-26,662,195,-712
92,25,-39,572,-97,-792
82,3,-36,268,-82,-707
65,-16,-40,106,-117,-570
62,-21,-37,0,-113,-209
53,-16,-41,213,-241,56
59,9,-40,-65,-150,371
78,53,-45,-42,-215,477
92,87,-37,-65,-196,541
97,116,-40,-3,-233,487
105,-113,-39,104,-248,434
-84,45,-10,-1297,2812,-5256
-32,22,-53,-1407,2298,-6069
-57,25,-113,-2740,2209,-6100
43,5,101,-2076,1431,-4617
-79,22,48,-1612,888,-4475
71,30,-11,-810,325,-4357
22,-44,68,571,-342,-4591
-128,-54,-94,1387,-803,-4292
-97,46,-46,1418,-569,-3132
-22,-96,-40,2621,236,-514
-86,88,56,-871,2843,3017
122,-104,-57,-1943,1164,6102
-55,-92,4,683,567,6660
89,-105,43,1766,355,6719
-52,22,-63,-206,-1675,6089
-3,-19,-29,205,-3454,5582
-103,100,-32,3519,-4361,6016
87,35,33,-1892,-2325,4803
91,-99,-122,129,-2226,5656
-101,32,-28,-103,-2050,5302
91,-53,-25,-794,-1117,3789
30,-53,-85,1826,-1805,242
-87,81,-83,3554,-1819,-501
110,76,-124,1776,227,-217
17,63,49,-223,438,-250
22,11,36,-366,-26,-660
75,-77,49,276,309,-1202
83,77,20,1218,220,-1568
74,21,-6,721,281,-1568
50,-34,-23,477,-176,-766
64,-8,-24,-11,-88,-838
69,-34,-25,122,-77,-588
50,-42,-38,46,-184,-264
49,-34,-32,72,-166,122
49,8,-44,-112,-253,222
68,17,-38,-197,-251,466
73,56,-36,-474,-275,711
78,120,-31,-364,-336,658
82,-104,-24,-258,-270,600
101,-67,-24,-283,-260,351
71,-61,-81,-1923,1506,-4723
-79,-69,126,-2481,2317,-5612
105,112,110,-1460,1130,-5008
-1,-82,59,-2090,1070,-4832
-105,-73,49,-1432,300,-5036
57,120,85,-173,168,-4768
-91,33,-121,-183,-439,-4447
91,-123,-34,300,-320,-4187
-121,65,-116,1067,-460,-3254
-40,16,35,1542,320,-881
73,65,94,747,774,2548
-10,13,-59,-2641,603,5329
17,-83,72,-201,-343,5737
113,87,-26,862,-480,6668
-125,-78,-92,1722,-1281,6998
-18,54,67,440,-879,4722
-59,-84,-92,2219,-3275,5853
34,62,-106,-2045,-4811,4518
8,-69,31,1128,-3480,4650
13,119,-72,636,-1145,2982
-107,-124,-59,-45,-1209,2940
-4,115,-75,1343,-1991,1691
-105,67,-42,2116,-1144,150
117,51,-69,1213,297,-168
89,17,108,108,1050,-730
64,-78,0,274,662,-692
59,-108,-31,470,82,-658
49,-127,-46,536,-69,-541
50,114,-55,406,-129,-509
59,98,-37,468,-273,-463
85,68,-16,803,-271,-548
90,49,6,907,-302,-631
89,24,3,911,-325,-652
83,16,10,77,-160,-622
72,8,1,-363,-152,-432
59,-7,-2,-278,-116,-57
55,-4,-14,194,-79,386
66,33,-25,-14,-100,553
83,63,-31,-172,-150,966
95,113,-31,-295,26,1013
121,-28,15,108,2248,-4689
-67,-24,-100,-1367,1900,-5142
-40,-72,56,-1672,1665,-5348
93,-72,-14,-2065,873,-5348
1,-63,6,-1717,773,-5475
53,116,68,-1364,-6,-4421
-23,53,-111,-3,141,-4651
44,12,-28,1669,-169,-4257
100,-28,-95,937,137,-2944
-119,94,51,2877,410,359
115,-43,-10,-1741,1520,3916
56,3,53,-1586,-576,6231
-35,-30,8,1009,35,5847
-7,45,-36,2299,145,6636
91,66,90,1075,-905,6548
18,-7,-6,-10,-2272,3230
-22,-26,33,685,-3925,3892
68,75,1,996,-4019,5527
-46,106,-90,724,-1270,5534
119,-123,-29,1655,-779,6548
-97,30,-108,-2014,-849,5500
125,53,-106,-3945,-344,-777
100,-98,-49,5613,-2271,-1596
53,-2,123,4091,-494,-279
52,56,83,379,665,-1587
70,124,6,-654,922,-1202
29,51,-17,572,-338,-610
56,38,-8,702,-149,-657
75,48,-8,-19,-1,-878
73,-9,-25,331,-192,-736
66,-13,-21,-119,-201,-737
56,-26,-19,-161,-104,-333
56,-24,-31,67,-119,-131
71,-4,-45,164,-128,44
83,41,-58,-78,-234,89
74,44,-56,17,-333,258
68,58,-43,28,-377,515
78,69,-17,567,-373,845
78,70,-14,1476,-342,1014
86,-123,-28,792,-387,929
-88,-34,-37,-1242,2658,-4785
-36,43,-108,-3769,2686,-5658
-76,-45,-126,-1816,2319,-5111
102,41,-99,-1345,1871,-5397
46,66,-100,-1100,1515,-5588
-83,-23,-90,-464,834,-5291
76,31,-91,379,1081,-5277
124,-75,-60,1357,560,-4044
-102,-79,48,1904,945,-2059
-21,104,77,2406,130,3254
127,-32,-123,-3517,-757,7930
49,9,-3,3472,-506,8043
-35,-81,6,3510,1314,6996
71,108,-63,-3352,-2510,5392
-4,-128,-26,1635,-4114,2941
56,108,114,1914,-3390,5812
-52,47,69,1873,-2904,7028
101,-37,-48,-4,-1655,7616
59,112,0,-1265,-1978,4997
-92,-64,-14,-452,-1575,-1060
-99,111,7,3957,-2134,-887
53,69,-84,2061,494,-748
38,47,86,-77,1063,-958
39,-40,1,-473,571,-927
41,-108,-14,37,-115,-485
64,-105,0,709,143,-822
108,108,-21,1010,175,-1148
104,64,-37,1075,-224,-1290
92,21,-30,884,-247,-1223
73,-4,-30,148,-305,-913
48,-18,-24,-178,-425,-418
34,-16,-27,-168,-426,0
37,18,-24,-618,-442,332
47,47,-27,-544,-389,480
48,85,-35,-411,-544,659
59,120,-35,-491,-464,799
65,-96,-37,-588,-488,773
88,-63,-18,-548,-264,840
101,-36,-22,-469,-224,790
-122,-4,-13,-255,-75,686
-107,115,46,-1730,802,-4981
-20,107,71,-2154,2319,-5718
126,83,91,-976,1117,-5550
-12,127,-123,-1965,1095,-5129
-125,-64,-108,-1290,92,-5061
3,83,-46,625,-249,-4384
114,-3,-31,1153,-1347,-3973
82,35,-81,-853,-1068,-3932
25,29,58,1024,511,-2878
-127,66,89,1382,395,-2263
-110,-84,120,2326,1073,572
-54,82,105,1637,2521,3162
-12,-107,108,-3328,1958,5012
-35,-44,-99,751,-51,7130
-19,52,90,3480,-1483,8137
-51,113,-122,-440,342,3875
81,40,-6,3514,-1671,5705
28,51,121,-86,-1602,6400
-83,48,-112,-5875,65,6468
86,-119,48,-745,-2442,5006
20,-118,-117,3939,-4141,-1838
-13,79,-44,4390,-1743,265
-18,-111,-63,320,1502,1465
111,100,36,592,-78,2203
83,-126,34,1871,-1289,2421
-108,86,96,-85,-18,678
103,-20,67,1252,-93,-771
55,91,60,2827,-624,-895
76,50,73,1567,48,-1074
80,13,55,321,164,-672
61,-21,47,253,-352,-690
53,-35,42,756,-557,-694
76,-39,55,349,130,-593
72,-55,35,-166,118,-363
42,-74,8,-198,-198,90
36,-49,-1,-194,-243,364
57,-26,-14,-144,-204,432
60,-12,-39,733,-1503,-976
112,-14,8,2003,-980,-491
-121,79,62,-236,84,813
-120,123,-58,-1110,2245,-5548
110,-122,-94,-1329,943,-5892
38,-120,-68,-2185,1010,-5637
119,-9,117,-426,553,-4055
-42,80,57,-300,-905,-3484
8,88,-29,-967,-800,-4739
-23,-98,55,256,-328,-4978
72,-86,101,-248,-607,-4626
-118,-114,-20,1081,247,-3505
-40,14,8,2662,630,-572
-100,49,41,-1937,1742,3475
81,83,91,-1280,211,6788
-100,-119,-7,867,523,6743
23,69,115,1322,-126,6901
73,-4,-5,-325,-774,6885
75,9,-23,-239,-4491,5845
-8,127,-99,-340,-4435,5351
-66,-30,-86,-767,-2432,5776
127,-76,29,4,-1843,3847
-55,94,79,-2226,-1323,2076
-46,-83,48,1069,-2008,383
-71,49,-15,2556,-443,-321
-115,39,-104,1347,184,-471
43,-100,44,2759,-352,327
25,-52,8,1911,-197,243
46,-55,9,906,-173,73
77,100,10,2614,-61,-31
101,-126,-7,1377,-331,-447
-127,124,22,-560,-77,-1113
117,49,25,-369,-69,-1143
108,-13,24,357,44,-1096
95,-27,9,680,-128,-904
107,-31,2,253,3,-662
95,-35,-17,-84,-180,-217
78,-26,-9,-144,-240,185
89,1,-12,-23,-48,459
107,14,-18,46,-269,791
118,54,-9,-105,-154,948
122,93,-26,119,-227,924
-120,116,-16,-17,-214,987
86,-114,-92,591,2344,-6826
127,-1,1,-2465,-188,-6272
28,-105,88,-2376,380,-5317
-74,112,95,-1393,-134,-4364
-76,32,81,-1647,-778,-4990
-83,19,-62,-860,-541,-5333
51,86,-46,-571,-534,-5287
97,-83,23,634,-160,-4849
-80,29,-83,1637,106,-2689
-8,-42,41,2883,653,1259
22,-55,101,-2516,1700,4911
-15,18,-116,-447,1438,6446
40,-77,-23,2638,1738,7120
-61,-120,64,126,940,6032
-126,113,-7,480,-1537,4641
-1,38,46,1838,-2558,6559
31,-125,-31,696,-1435,5397
51,15,70,-24,-661,5983
92,-100,124,-846,46,4333
-25,125,50,-826,-148,3007
-26,-47,102,-2221,-2273,1760
-64,-123,-70,-737,-1778,1385
-115,114,-49,1344,-601,759
101,120,-103,2339,-185,-857
126,41,107,1617,534,-1936
-118,112,42,1316,804,-2148
111,22,-12,954,464,-1694
84,-10,-32,185,98,-949
71,-16,-52,-63,-237,-557
87,-1,-42,-149,-248,-464
86,-13,-29,51,-216,-111
81,0,-32,129,-336,95
94,33,-24,-352,-255,205
110,65,-16,-458,-284,330
106,83,-8,-176,-315,445
108,107,-8,190,-278,509
112,-122,-8,27,-273,486
120,-115,-5,154,-172,522
-126,-94,-14,209,-199,395
-117,-86,-19,209,-147,242
100,110,-54,-882,1602,-5071
98,80,-119,-1597,957,-5662
28,104,-123,-3016,989,-4859
-100,77,113,-1409,644,-4681
-9,-101,126,-1471,-152,-3720
46,-111,-44,-1815,186,-4793
24,27,38,493,318,-5322
68,-37,-1,-451,145,-4348
-64,-112,53,580,173,-3278
-2,-52,-52,2292,497,-1137
-123,55,-44,875,650,2411
-3,-126,-71,-2465,-116,5793
52,115,56,883,-19,6515
-57,107,-76,2366,52,7107
-36,126,-119,863,-765,6203
-7,-16,82,116,-1792,4364
-47,19,63,1253,-3967,3280
118,-62,20,-335,-2486,4268
117,-46,-47,366,-1788,4127
-56,-19,-43,710,-860,4333
-93,103,-82,291,-1059,3278
10,-119,103,815,-1178,1340
-99,54,115,1520,-833,333
127,-42,94,2104,-440,532
102,-46,43,1269,-94,330
86,-31,21,77,35,-161
94,-75,5,-14,75,-385
98,-110,12,-115,-105,-607
96,126,26,65,121,-900
99,39,5,892,62,-950
91,15,-15,888,-186,-927
93,-17,-13,491,-182,-704
96,-32,-10,-116,-188,-358
101,-29,-7,-195,-236,-87
104,-4,-8,-69,-150,66
105,26,-21,-35,-208,261
107,60,-26,-100,-232,364
113,92,-22,-47,-238,503
118,122,-19,-139,-262,555
-104,-115,-14,-28,-184,466
98,-121,-77,-1497,1354,-4202
-114,117,86,-870,959,-4720
-83,-55,92,-1495,617,-6163
74,-78,107,-2499,259,-5732
43,-79,109,-2192,418,-6070
112,-3,-87,-162,217,-4785
-57,17,-61,2016,1071,-3624
-82,107,4,1878,601,-3481
-31,-96,-113,1158,693,-1131
16,14,35,873,-497,1626
101,-29,64,-2341,1088,3365
75,60,95,-431,114,4958
-66,-68,-44,1533,-598,7165
119,-59,-26,4104,-444,6292
-49,104,-53,-2377,1264,1780
50,-65,59,-624,-2844,3156
-14,66,-83,0,-2225,4279
41,-116,40,-3426,-1995,4742
-65,-83,110,-3734,-1658,5220
33,-62,126,-537,-2785,4623
12,122,-106,1737,-2875,2394
124,-106,104,3113,-2089,141
-84,111,18,2833,-1262,410
100,44,80,2518,-1331,689
96,-21,-52,1970,-643,-322
-122,-103,-9,189,470,-548
102,98,-121,277,449,-872
93,65,46,589,298,-1211
115,36,-32,349,401,-1474
-128,-6,-67,348,171,-1029
96,-11,-90,280,-430,-312
45,-12,-19,751,-979,49
67,-85,-25,2974,-97,669
65,-6,-49,1355,-760,776
-126,82,6,-1996,-337,678
-101,119,20,-2722,9,225
121,72,4,-134,-237,17
112,54,3,1508,-361,-282
127,84,-5,588,-136,-335
126,93,-21,-635,9,-279
103,20,0,-1787,2054,-5323
4,105,-33,-4042,3317,-7155
25,106,-85,-2047,1928,-6451
15,-17,-24,-188,1555,-4996
-99,-8,-125,-669,920,-5142
59,-83,79,-528,351,-5067
-93,96,97,1189,-20,-4622
-27,45,-53,1331,-846,-3394
37,95,-4,854,1695,-306
-81,61,-60,973,441,4054
36,-40,-85,-3321,5,5812
-80,105,21,1845,199,6664
21,90,-70,2427,309,7739
38,-125,90,-1727,-307,4604
63,-61,-38,824,-4117,3503
-47,-107,-125,1664,-3237,5771
18,-38,-102,880,-1824,5544
118,-119,-64,615,-1697,5463
24,-101,-35,-405,-1003,2643
33,1,-94,2390,-1326,1930
-87,-46,123,3022,-1338,819
67,-66,102,1599,-691,-369
58,22,-111,802,296,-1121
112,-105,127,124,777,-1286
94,37,56,44,70,-1010
92,21,36,94,-62,-850
101,13,5,-159,-28,-758
104,-7,-30,-113,25,-498
102,-8,-42,-28,-117,-261
98,0,-57,-45,-306,-16
96,14,-41,-110,-338,234
98,34,-39,-170,-393,387
102,64,-18,-325,-432,612
106,81,-15,-119,-456,729
113,112,4,-28,-430,760
121,-120,5,-8,-391,625
-120,-104,10,-34,-217,441
-116,-90,4,31,-162,237
-118,-90,-5,192,-67,62
-119,-96,-23,283,-60,-29
107,60,-55,-747,1287,-5122
-39,-41,-92,-1443,1771,-6070
-73,112,16,-1842,560,-5848
-112,87,-28,-3189,143,-4793
-25,-112,0,-3220,380,-4647
73,-109,81,-3863,1052,-4938
121,64,-124,-381,738,-5885
-35,-102,-95,-256,704,-5320
30,83,-75,342,-148,-3715
114,50,102,715,651,-1441
112,30,23,2568,-12,2888
14,64,51,-3354,1342,5567
7,46,58,1071,205,6623
-70,107,96,3189,321,6530
-118,-51,-43,1300,-578,4835
67,-120,112,870,-2711,4541
116,-31,63,-1272,-3730,4640
115,123,64,-10,-3786,5695
87,91,-49,914,-1882,6641
75,-9,0,1060,-1823,6497
-68,-87,-67,267,-1954,3484
36,-91,-60,746,-1988,-1276
60,-22,-78,4344,-1355,-397
83,39,111,2146,663,-199
81,6,20,670,236,-473
90,-70,11,-4,-346,-784
80,102,33,662,-93,-1195
44,19,20,1125,-114,-955
46,-6,10,333,-93,-596
73,-6,-1,-281,-6,-297
66,11,-12,-568,-392,-255
76,37,20,-893,-24,-53
78,58,11,-283,94,-211
87,23,-30,1026,-210,-131
82,36,-31,459,-340,6
77,66,-21,-310,-94,224
96,79,-30,-51,-196,133
102,95,-24,440,-366,147
109,127,-10,121,-189,75
98,124,-8,152,-116,154
76,-117,-60,262,2224,-5100
-126,121,-100,-2149,2576,-5046
100,-102,-116,-1912,1819,-5357
-2,-98,-103,-1396,1583,-4705
-97,7,-117,-1700,1315,-4682
-13,-57,-109,-2075,966,-5784
117,-84,-109,195,462,-5685
-95,82,-114,777,228,-5221
-53,-49,61,532,171,-3687
25,71,-61,3129,2057,-810
-96,53,7,8,904,3922
104,8,-50,-3929,653,6657
-97,125,-15,2299,310,6749
52,107,87,3091,297,6883
-12,-94,66,-656,-291,5910
108,105,-25,1481,-2611,4142
-78,-117,100,530,-3304,5918
-55,24,39,-1546,-2603,5222
63,-19,-96,499,-2030,5033
108,-11,-120,2610,-484,4072
-127,109,30,2218,-927,2178
-62,-20,95,2439,-1440,339
-86,-26,-96,858,-152,1899
75,41,82,-889,611,876
67,-57,22,1389,-313,595
73,-34,3,1290,-52,-130
70,-53,-15,579,-101,-731
73,-126,-18,732,-281,-982
106,74,0,300,-294,-1175
99,53,7,-113,-373,-1333
100,1,21,47,-328,-1407
90,-31,31,146,-449,-1191
71,-50,31,59,-439,-800
68,-44,22,-132,-315,-525
103,-54,18,-397,-330,-21
77,44,16,-1174,-262,-62
41,36,-1,43,76,-286
126,-21,-19,1275,-169,425
115,1,-49,3098,-314,-369
98,27,-11,5225,450,-1686
127,56,-113,-1199,2975,-3567
50,-45,-108,1096,4331,-4993
-115,87,57,-2948,4044,-5714
-96,66,-127,-2579,1749,-5374
-89,68,-52,-6172,1935,-6431
-86,84,69,-1929,1041,-6305
-84,-88,-24,-1311,1398,-6328
-54,18,65,-28,1025,-5291
91,-96,-51,1734,813,-3436
64,38,-33,1594,1368,269
4,-122,-60,-1284,560,6186
-6,-112,107,-1071,358,6924
124,-40,104,3733,438,7223
124,-60,83,2925,-115,7687
100,-86,-15,1536,-2941,7145
110,4,-57,-316,-3464,3923
45,-127,22,-333,-3685,3982
-26,-74,-88,285,-3362,4776
43,53,-13,-782,-2587,4884
73,-110,17,777,-1262,3957
47,43,16,1080,-1870,831
-83,-106,-8,2758,-741,-818
100,27,-79,2880,63,-624
59,28,87,-287,1093,-897
56,-20,28,-1985,1085,-585
28,112,-15,34,133,-178
33,87,-4,849,-149,297
80,-113,3,665,360,-142
84,104,-49,1154,175,-449
78,84,-52,710,535,-882
96,53,-47,968,808,-890
111,16,-59,902,-109,-540
92,23,-54,149,-287,-128
90,43,-24,-141,-490,491
123,86,0,90,-348,371
-126,122,1,217,-346,231
110,-123,8,-50,-396,152
101,-127,9,120,-56,149
122,-83,-7,-663,34,-44
-122,-112,-12,83,-250,126
-27,76,-105,-2380,2149,-3765
108,107,49,-339,1764,-4898
-52,67,-48,-2443,2671,-5401
-85,-93,76,-979,1930,-5000
-116,44,38,-96,1432,-4533
-74,-50,2,-316,583,-7303
55,91,81,-2184,-530,-6355
-128,64,-36,437,-783,-5482
-117,75,-63,1598,-1489,-4173
82,-115,121,1443,179,-1145
114,48,-123,98,811,3297
-4,-52,18,-340,1834,4359
-33,-107,66,613,1133,5277
-4,-24,-108,3088,619,6041
107,77,81,-1993,385,3456
-67,-125,74,-1515,-530,1435
115,-37,79,2891,-2393,5224
34,-43,-118,2700,-2786,7609
-52,2,21,-1736,-2226,6737
65,-85,74,578,-1948,5471
119,48,-112,-847,-874,5042
-85,-46,-37,-4722,-1004,2442
-33,-59,7,1239,-1121,-496
118,-21,-59,4732,-174,-621
122,27,41,2676,271,-1455
80,-18,5,100,-61,-1070
67,-128,-5,182,-39,-1464
107,12,-18,479,350,-1641
111,-39,-36,507,337,-899
68,-46,-18,683,-662,95
69,-11,14,567,10,322
87,-3,-19,759,59,210
62,27,-44,-319,-427,379
69,61,-20,-938,58,378
79,36,-46,73,-41,442
114,13,-54,837,-321,984
121,74,-52,339,-336,1177
-126,-114,-28,969,-1081,1741
-105,-34,12,893,-404,222
-112,-41,-1,190,309,-817
-128,-48,62,-1784,2246,-3941
75,-31,10,-6658,3503,-6658
-122,-61,-37,-3053,1931,-5933
104,-27,123,-1251,2736,-7006
92,-106,83,-291,2637,-6418
-108,-75,22,-293,1595,-5332
-61,-125,39,2102,-66,-5144
18,87,86,483,340,-2705
-4,36,-30,1371,1782,2083
65,-11,-97,-374,272,5970
36,75,6,3,-145,7255
-54,-70,-27,4413,710,7946
38,55,42,2253,-780,8187
-80,-67,-21,-4960,-4999,3916
14,70,102,-216,-4348,2310
6,-85,-79,788,-3723,4675
120,-45,-78,2625,-1491,3534
-41,21,108,2281,-1657,3780
-86,78,64,2203,-1134,2509
-20,-123,44,1567,-1235,1690
-127,79,91,923,-712,-289
76,-88,77,2091,-246,-249
54,-87,35,1259,10,-42
-10,-54,-4,-179,-94,402
-6,-22,3,-1104,142,300
32,-23,7,-567,452,-189
106,-94,-20,1191,283,-772
-104,123,-36,1380,-44,-1049
67,104,-43,979,-584,-1722
98,21,4,594,-191,-1671
106,-19,24,-182,96,-1240
63,-73,-21,423,-76,-669
50,-54,-24,315,-218,-364
69,-44,-34,-150,41,82
62,-42,-56,78,-198,572
67,-12,-59,96,-200,877
82,32,-62,-68,-203,1232
95,70,-60,-146,-260,1401
118,107,-49,15,-210,1383
-114,-101,-47,238,-219,1188
-86,-97,-28,-1491,1818,-5159
127,-82,-95,-1951,1335,-5167
117,57,49,-2746,770,-5490
-127,104,-66,-2155,-100,-5827
-93,-64,23,-751,-817,-4832
-93,100,-16,-40,-566,-4375
63,114,124,839,-282,-4924
-87,-8,9,657,-454,-3498
82,-43,82,2298,1193,-1020
-46,48,-39,551,1959,2813
22,-29,69,-3570,-545,6506
99,121,-6,1592,18,6951
-16,72,7,2597,468,6746
-64,64,81,3230,-1767,7979
-91,-32,-7,540,-2160,8175
-111,-53,107,-639,-1136,8339
-32,-16,126,-2925,-3530,6154
47,17,-22,-3640,357,-2705
-77,-122,21,7307,-4807,2132
105,5,0,3090,829,1862
-115,45,41,1404,-482,1551
63,10,69,1051,-806,1143
93,76,66,-958,575,230
67,-32,13,454,-495,-440
37,-69,42,1114,-368,-480
60,-97,37,985,38,-1500
80,64,16,1310,-482,-1419
114,-3,37,1054,-166,-1659
99,-45,39,485,-106,-1675
94,-98,38,326,-8,-1327
82,-126,19,102,-45,-855
58,119,4,208,-150,-345
42,99,-13,670,-404,545
64,-90,-11,16,-133,1056
82,-37,-18,-198,-79,1126
91,11,-27,-211,-142,1143
98,32,-33,104,-200,1003
91,41,-46,772,-807,833
110,90,-8,424,-245,829
106,119,-20,-71,79,401
11,122,-56,-1223,1493,-4758
103,-75,79,-1492,1457,-4908
-10,120,37,-1819,868,-5350
53,-82,-18,-3324,1626,-6266
-45,125,-126,-2939,874,-6287
123,-81,117,-3226,308,-6420
-45,39,-30,-2081,394,-5565
-24,90,106,652,472,-5247
43,68,-86,2256,-195,-4286
98,-1,-43,591,368,-1535
-72,48,66,2833,504,1658
-23,-27,33,-2312,1688,4501
-64,-31,47,200,-328,6740
31,-77,-117,3080,440,6625
-30,-65,40,1491,-2230,7067
47,-54,115,-3058,-2468,2268
-114,-121,5,945,-5280,4008
-10,75,63,957,-4297,5368
-45,77,-61,1234,-2714,5708
61,-87,14,1877,-1113,6107
119,127,-48,-1354,-2389,3942
9,-66,-17,-849,-1375,-2007
60,113,-41,5824,-1063,-887
96,-3,106,2990,1122,-76
59,-12,6,1076,404,-349
30,-89,-13,656,-598,36
57,-98,25,125,12,-344
43,112,-2,577,76,-400
40,96,-20,607,-255,-487
43,89,-8,235,-223,-502
42,56,-5,237,-164,-371
40,45,-14,315,-263,-181
40,56,-14,148,-310,-94
43,58,-11,125,-279,-155
61,42,-6,149,-290,-14
61,57,-6,-84,-195,57
56,49,-17,112,-249,275
70,75,-14,32,-214,439
72,102,-23,24,-154,388
75,119,-35,-128,-207,378
3,-85,127,-2234,2767,-5010
21,-95,42,-2232,2281,-5173
-54,-34,-24,-2375,1845,-5380
93,-20,-35,-1908,1276,-6000
-93,-97,35,-1183,213,-5438
-32,-27,-90,-738,339,-5564
76,-39,-13,1102,522,-4882
-66,-10,126,836,261,-3684
-8,-110,3,2149,1188,-846
-85,79,-35,1817,1231,2765
95,-40,114,-3052,782,5829
101,80,-56,1455,-546,7553
-38,-45,58,3905,822,7550
83,-24,30,2060,-1760,6575
-115,42,-95,-1173,-3980,4004
-109,95,106,-1190,-4404,3406
65,-91,73,192,-3909,4923
-71,-89,-68,1389,-1698,4293
-20,68,36,-290,-1797,4458
-67,-69,80,-1246,-1629,2746
68,-39,84,101,-932,763
-120,-115,-25,1960,657,-892
83,31,98,3171,803,-1502
90,-87,-17,3390,566,-1132
47,121,-81,2105,-163,-477
34,122,-66,259,-452,-242
35,89,-32,-229,-241,-92
51,86,-17,-93,-263,-117
79,76,-8,229,-354,-254
84,68,0,365,-411,-365
82,58,3,218,-329,-368
72,42,-4,162,-297,-244
66,41,-13,102,-267,-78
60,44,-22,92,-291,130
65,51,-20,213,-232,283
80,67,-24,134,-211,391
94,87,-31,133,-197,420
98,96,-37,275,-159,388
96,109,-43,269,-215,348
99,108,-45,477,-153,343
-10,-98,-79,-1029,2910,-3103
104,-34,-63,-563,2599,-3718
-11,-35,92,-1026,3003,-5878
-94,103,-48,-3645,1370,-6078
76,15,35,-2121,1571,-5873
-65,21,83,-2182,1277,-5989
46,-52,77,-860,1597,-6099
-111,63,-126,-305,840,-5447
-66,-22,-95,1806,-21,-4593
-104,119,121,267,-1258,-2242
-80,110,72,2760,120,1080
-88,-111,58,-907,1351,5538
10,21,82,-429,922,6739
64,-51,126,2763,426,6964
-110,-47,99,1852,-992,7116
9,56,98,-12,-3566,4342
73,62,9,166,-3277,4239
-45,-95,-72,996,-3157,4609
25,121,42,619,-2783,5631
-94,-33,-47,-125,-2481,5731
120,-39,-30,-401,-821,3422
107,11,-48,738,-2110,432
-86,-118,-38,2760,-1760,-237
65,61,-80,2886,-106,-564
73,21,94,1243,864,-977
77,-70,4,64,569,-1001
78,-104,-22,-473,180,-990
80,113,-30,-192,86,-1071
83,70,-40,305,82,-1096
83,45,-51,531,-78,-1002
89,20,-42,387,-254,-792
94,-15,-34,921,-223,-388
77,-14,-42,948,-399,-259
75,4,-15,102,-377,-94
77,0,9,-41,-178,44
57,-5,-8,447,7,212
81,-21,-37,622,-362,589
88,4,-19,-82,-301,1116
84,83,-15,-453,-66,1290
104,121,-15,-156,-55,1164
-121,83,7,-2445,2527,-4060
85,-113,-127,-5058,3777,-4073
-74,-6,21,-1452,5173,-3964
0,125,60,-697,2800,-5074
112,-101,-12,-1491,1920,-5295
-109,15,8,-208,891,-4975
-31,-123,-72,-68,364,-5002
-121,-90,45,446,841,-5145
5,50,-26,59,1556,-4050
45,-70,-52,3564,1140,-946
-90,-80,72,6,807,2529
79,-108,-61,-1803,-330,5664
80,-123,-100,677,-1347,6625
113,126,69,280,-316,6469
90,-43,78,-1718,-3260,6528
-103,-50,118,-1398,-5225,1578
40,-44,-3,4109,-5080,2365
-128,-59,-117,-1015,-4904,2606
120,-127,-66,1884,-4812,4355
60,116,49,3849,-3432,5902
89,-84,-41,2106,-1483,3209
75,-5,-54,1415,-3443,672
-111,120,55,1732,-1864,-161
78,45,5,2257,683,-185
17,-34,78,2670,698,-461
14,-32,17,1450,21,-656
59,-57,9,-157,286,-1201
80,94,-18,-273,196,-1335
58,22,-22,830,-194,-1077
51,0,-16,753,-367,-852
49,5,-3,50,-269,-593
45,-8,0,99,-286,-460
50,-10,1,-48,-336,-288
53,-3,1,-296,-318,-164
50,4,10,-395,-256,38
47,11,4,-34,-197,330
39,41,-9,227,-294,510
51,65,-13,157,-165,654
69,92,-36,246,-149,623
93,105,-31,70,-268,752
61,69,-56,-1971,1898,-4640
-127,-45,-39,-5075,1263,-4995
-41,11,-102,-2859,2158,-5952
-12,44,-88,-3015,2337,-6427
-119,42,-72,-1635,853,-6627
-38,96,17,-157,265,-6051
-114,-94,-83,1499,-473,-5074
-34,83,-103,760,306,-2315
-31,62,-17,3597,536,759
-101,-96,-50,-2526,446,5301
-54,-29,56,320,-714,7195
-127,-29,-101,3233,588,7828
25,91,59,189,-1627,5724
83,6,81,-621,-3592,3732
-50,-29,31,2320,-5163,5290
34,-38,102,-344,-2333,5630
-103,16,-82,265,-3046,5823
123,-50,-52,689,-1309,3346
95,-11,-76,1818,-2323,296
-98,34,-81,3527,-1462,-690
-106,-6,113,1852,877,-347
75,-47,10,843,431,-17
-10,-77,-42,272,-754,949
30,-26,4,227,-135,537
72,-9,0,440,6,-76
93,-53,-11,1175,-257,-800
110,-94,0,1071,-143,-1321
-117,38,-5,1509,-162,-1732
93,9,5,572,-538,-1431
88,10,15,-777,-59,-1191
88,-37,-19,-608,-27,-919
77,-37,-31,-240,-182,-641
84,-20,-51,-350,-113,-391
76,-22,-62,-252,-248,58
70,-4,-66,-106,-297,469
74,41,-63,-116,-354,801
98,51,-39,128,-267,1116
-124,81,-47,568,-362,1284
121,122,-43,124,-552,1444
112,-52,-8,-669,-161,1305
-102,-19,-36,-994,2948,-3627
-91,-4,-116,-1209,2865,-4651
32,-85,66,-2708,3234,-6613
126,51,-19,-1816,734,-5102
58,120,15,-2144,858,-5593
-53,-27,103,-433,497,-5823
1,-112,-51,891,512,-5038
38,87,64,1225,-41,-3698
26,-91,34,2117,589,-1082
-128,114,-84,1262,746,3235
-1,98,112,-3253,253,5351
71,116,-16,1345,-902,6312
-75,66,-119,3238,-400,7171
-71,-97,32,576,-1499,3923
-25,99,12,1797,-2976,4225
104,-6,62,673,-3842,4515
122,-47,-19,26,-3585,5351
-19,-6,102,64,-3169,5216
99,-5,98,2830,-2482,4392
22,-30,-123,961,-1910,2509
11,-18,-124,735,-668,71
-123,63,-119,1669,-627,-572
61,1,-119,792,79,-449
-11,-70,55,359,-71,-14
-4,-30,27,-672,209,-78
34,-27,12,-712,401,-186
43,-96,-1,1282,-238,-209
67,120,6,2059,-320,-1269
97,106,-2,76,132,-1216
85,27,-19,-210,204,-1188
67,-15,-33,-72,-46,-641
48,-1,-43,-123,91,-537
42,9,-49,-65,3,-260
61,15,-58,7,126,31
69,21,-80,183,-399,249
77,59,-85,-318,-534,252
69,95,-60,-888,-406,941
64,84,-51,406,-633,1106
91,-115,-17,603,-600,1246
98,-106,-19,1718,-649,968
36,-127,109,-2439,2533,-3114
-94,-121,98,-2871,3317,-3671
43,-15,-106,-2106,4416,-4072
92,20,-53,-1425,3115,-5301
-37,-54,-65,-664,1888,-4648
13,-60,-3,-1538,926,-4392
-53,-9,34,-1601,1324,-5027
-125,-43,89,-1990,1054,-4754
-4,-47,-83,107,1120,-5395
28,90,2,2057,-225,-3834
-61,-93,33,1520,-321,-1037
32,-114,-4,1901,699,3348
-9,-87,-53,-3354,1370,5610
93,-82,-28,1718,-376,6368
-37,57,-127,4060,-561,7121
-50,-101,-74,-2205,753,2791
-14,-115,102,3737,-2985,2045
26,112,-12,710,-4304,5317
71,53,-44,426,-4093,6318
48,72,101,2103,-3771,6856
68,30,6,742,-1,5128
118,-100,96,812,-177,3637
26,20,-123,939,-3104,888
89,87,-75,2799,-1932,-1608
91,-42,-107,2571,1117,-1100
42,-109,14,1042,1335,-1128
45,107,-33,-267,153,-800
58,75,-34,-673,-302,-789
62,36,-11,-201,6,-809
57,8,-24,498,-79,-641
53,3,-33,433,-497,-537
63,9,5,63,-285,-509
75,-7,9,59,-200,-380
67,-18,3,212,-294,-144
61,-3,5,-18,-278,-45
65,5,0,-63,-68,138
62,12,-20,96,-182,342
72,32,-28,88,-142,475
84,55,-44,151,-181,596
91,78,-47,51,-261,634
-116,-79,117,-3120,4422,-3710
-50,103,-1,-668,3364,-3722
-74,78,-82,278,2551,-3864
-99,-4,-125,-2531,2380,-4470
-91,28,115,-1840,2411,-4783
38,-49,114,-434,1844,-4945
-77,-77,95,-727,1661,-4282
-3,75,76,1511,-613,-4515
45,-112,-49,2590,-1848,-5892
125,75,-71,762,-282,-4036
-101,-48,-19,1064,-332,-331
-90,71,-27,-524,3063,1179
7,12,-108,-1256,1544,3768
-47,-114,12,-177,-193,6159
3,-45,-63,1691,142,6847
-95,102,0,2065,849,7578
42,-104,125,-2004,-1926,4475
119,-86,-10,-521,-7063,5361
95,33,-13,252,-4587,4985
-78,-1,-116,1328,-1169,5520
-1,-14,122,560,-1253,5106
47,-107,102,851,-3139,2980
74,113,-93,2208,-2391,721
-28,114,-90,1246,-159,378
92,-128,118,185,-76,377
28,56,100,1557,-777,180
100,77,82,798,628,-1139
117,-28,9,368,500,-1953
105,94,-1,1292,-77,-2255
100,-13,9,1587,-246,-2077
79,-104,22,1363,-357,-1522
67,-96,19,254,-186,-891
80,-62,10,-887,-112,-835
95,-71,-9,-840,-53,-577
87,-63,-16,-302,-81,-217
76,-47,-41,201,-192,101
81,-27,-49,162,-44,236
74,16,-32,155,-61,540
83,45,-42,94,-257,1074
100,83,-40,-67,-395,1167
122,-36,-23,1185,2821,-4110
15,10,-33,-66,3331,-5135
88,-88,21,-1645,1744,-5956
-60,13,-39,-2271,2162,-7893
86,-16,88,-2012,-112,-6502
123,-42,-42,-1855,-476,-6431
-27,-9,99,195,310,-5829
-126,59,-18,2510,-589,-5094
10,110,-18,778,299,-3356
19,-56,124,4186,1322,578
75,-114,100,-3237,2657,5104
-55,-62,62,-1410,-127,7099
98,-89,-94,1969,1130,7173
-107,-84,-28,898,120,7679
-63,12,-31,-950,-3251,5052
94,-77,74,1478,-2755,5508
76,-45,-54,638,-2188,6153
33,42,50,1588,-2268,5044
41,-98,-122,66,-287,3964
-79,90,-91,-2176,-568,1932
-47,2,-43,-116,-1309,179
-125,65,-24,2308,-671,157
90,87,-115,696,545,-339
92,-3,53,746,297,-671
106,-79,3,888,137,-1041
93,95,-19,533,35,-1168
62,5,-34,960,-13,-689
42,-27,-43,1253,-193,-216
66,-24,-49,1236,-186,-322
95,-40,-32,768,-389,-183
97,-69,-25,720,-354,191
80,-23,-10,-538,-643,619
75,21,27,-956,-279,984
98,48,19,-49,-142,1206
109,80,6,797,-253,1107
95,-117,-56,730,59,472
-123,115,-64,-143,-108,466
-111,122,-80,-343,-279,433
117,-125,-61,177,-411,112
105,-127,-45,380,-269,-136
-98,-66,-51,961,3092,-3858
-108,127,-49,-712,790,-4556
0,-26,7,-3862,1348,-5211
-116,-37,-4,-2061,1948,-6470
97,-72,-18,-2215,1001,-6859
-104,40,-7,-1164,939,-6677
40,-73,52,1479,365,-4754
61,-19,-52,1201,396,-2612
-122,98,-31,2521,1472,-1577
-69,26,-85,1032,-277,5127
-32,-61,-105,-4146,1012,5816
-56,78,-73,3006,-992,7216
-54,24,-58,7545,-1857,7052
63,70,-68,-3991,1162,700
-27,-63,-66,447,-5137,4116
-5,93,-50,1286,-3038,5326
-122,64,92,1361,-1399,4685
-7,81,-76,-977,302,3035
111,-37,86,1494,-1020,1641
-107,19,127,1240,-1625,1729
-116,-33,-118,373,229,1868
109,-87,41,903,-329,1983
-126,-38,25,527,-453,1395
-128,6,20,-226,-56,392
118,-27,-5,-316,115,-264
99,-75,-22,242,-186,-436
90,-98,-26,659,47,-1089
102,-125,-38,546,24,-1216
120,119,-39,-317,-252,-691
116,-125,-10,-791,-267,-847
-112,94,17,-233,174,-912
-83,17,0,1321,373,-894
125,-45,-50,2565,-111,-891
91,-64,-64,2087,-211,-558
43,-81,-68,529,-434,186
4,-32,-52,-1220,-317,1256
54,-4,-54,-1057,-45,1778
-89,53,-60,-713,-265,2270
-33,-119,-68,-1036,-719,1856
-79,-7,-34,-1476,-710,1095
42,-85,89,-844,1653,-5218
74,-88,31,-1123,1403,-6156
-55,120,-61,-1440,975,-6530
77,-118,114,-1303,-948,-5892
0,-103,-33,-1156,-1265,-6269
15,79,-56,-191,-1443,-5581
73,9,-87,-17,-598,-3980
55,91,68,2710,530,-1310
-124,6,120,1376,1394,3341
79,-77,-1,-3781,1675,5928
80,92,23,572,61,7479
56,-55,70,4184,1209,7173
101,-3,115,4123,480,7946
-29,-83,79,-4109,-2118,6574
-25,126,-23,666,-5050,5191
-64,-5,48,-1660,-1982,4927
1,127,91,-1335,-1922,2523
-58,61,-34,-567,-2449,2448
112,53,-19,2311,-1582,2612
9,-53,-75,1475,-624,845
-121,-118,-121,2110,-1106,-343
77,83,-114,2908,27,-1434
56,37,63,1712,402,-1054
56,-72,5,890,153,-1116
90,111,0,-219,454,-1014
78,46,-42,-121,6,-1270
102,-3,-47,-197,-9,-989
114,-15,-43,-50,-101,-1046
120,-33,-46,172,-157,-754
121,-45,-38,321,-104,-614
107,-61,-48,546,-334,-330
92,-57,-38,255,-290,49
77,-49,-40,60,-336,436
70,-29,-35,-133,-307,807
84,14,-29,-315,-265,1156
103,40,-23,-86,-215,1422
123,74,-28,233,-257,1514
-112,-121,-34,263,-229,1217
-112,-99,-36,258,-242,806
-124,-75,-40,227,-96,326
4,-27,15,-1505,3247,-2342
89,54,95,486,2585,-3657
-98,-60,-10,-179,2414,-3899
41,-51,114,-1685,3036,-5175
0,-47,36,-2051,1815,-5314
-82,-44,6,-998,1294,-5921
-25,-67,46,-1578,422,-5296
-106,-90,99,-940,290,-5538
-37,-100,-54,520,269,-5729
34,91,25,1269,338,-4339
110,-126,-57,320,251,-2645
114,12,-2,3953,683,1454
-18,60,13,-3550,1932,4801
-97,39,51,-1188,-698,6937
72,-79,-98,3292,112,7559
-51,-47,25,3824,788,6447
-9,-126,-91,-729,-1220,3122
-70,-119,-85,1180,-3827,4540
-76,-36,-100,-696,-2530,6466
-114,-50,14,1129,-2668,7480
-123,-44,98,376,-1264,5993
-109,30,24,-1188,-1921,2251
112,-98,-96,-230,-2879,847
-58,64,45,844,-1287,1042
107,-116,-15,50,416,627
10,-109,-103,827,-146,512
41,-81,101,588,564,-666
99,102,66,659,838,-1326
127,-34,2,1522,558,-2022
-109,-108,-14,1381,395,-2391
-79,80,-26,550,411,-2475
-65,1,-52,-185,235,-2393
-73,-41,-58,-325,-81,-2009
-94,-64,-42,-143,-66,-1642
113,-79,-56,306,17,-1260
81,-64,-49,-128,-285,-843
-104,122,-49,500,142,287
79,-65,-93,322,-612,1124
-3,21,-113,106,-755,1095
57,47,-73,-332,-392,1471
120,-122,76,-1306,2475,-4426
73,44,-53,-2335,-129,-4883
-31,77,-77,-4566,1140,-5708
-102,99,56,-2887,737,-7250
-29,88,-102,-1911,-1197,-6703
-35,-54,54,-1931,-369,-6946
14,-50,-101,-159,-567,-5504
81,-27,43,-42,273,-4597
55,46,-45,3130,1376,-1425
-88,17,-11,-209,537,4068
58,-51,-73,-3691,510,6197
102,61,17,1527,489,7088
-55,-101,-119,4288,843,7189
-122,74,-73,2071,775,7095
13,-107,-89,-1135,-1897,4546
31,-104,-20,-319,-3698,4788
-1,-1,-31,309,-2810,6471
-88,74,62,2104,-1399,6062
-17,107,84,99,-275,5619
23,90,101,-3093,-836,3117
45,-35,-91,747,-2620,44
-93,49,-50,4070,-1557,161
108,-113,114,1670,679,-612
59,88,44,185,646,-1288
54,-60,-10,156,215,-1407
70,-125,-11,459,-2,-1527
75,77,-12,600,24,-1475
88,35,-16,298,-28,-1404
96,13,-12,63,-38,-1316
122,-40,-4,284,16,-1089
112,-57,-19,531,-55,-819
102,-60,-31,280,-219,-563
78,-51,-31,-54,-205,-109
54,-47,-41,121,-272,276
45,-16,-40,299,-386,874
58,24,-42,737,-510,1167
82,79,-33,172,-193,1070
110,122,-42,-555,18,981
114,-121,-42,-612,-147,897
126,-94,-31,-462,-30,640
-115,-76,-12,1375,2310,-3770
-4,65,97,193,2189,-4906
-10,23,61,-667,1496,-5058
1,82,21,-1476,1360,-5542
-67,86,-14,-588,638,-6269
6,57,6,-1212,-710,-5531
115,41,88,-1419,-1080,-5792
-100,49,-2,595,-564,-4914
-60,51,125,1636,-675,-3837
-55,-75,-97,558,503,-821
69,38,-81,1483,1375,3231
49,-29,-26,-3689,1948,5212
36,95,26,386,-453,7045
-102,-70,-59,2251,234,6941
-61,116,-22,3005,58,8399
-99,-99,-52,-2459,-1968,4578
-111,-63,-5,279,-5005,4295
-7,-53,-43,-1610,-2410,3280
-66,97,40,611,-2451,4219
-3,-88,-97,820,-1572,4147
10,31,-110,242,-1187,4171
-106,-55,-75,-501,-2486,2527
-21,37,36,-470,-1934,153
111,118,2,2673,-278,-1268
97,12,-107,3145,1119,-1786
115,-79,0,1474,1295,-2218
101,122,-53,-437,253,-1652
74,22,-62,-99,-502,-1150
98,7,-35,386,83,-1040
99,11,-45,29,-52,-938
106,-18,-56,200,-278,-787
98,-18,-35,167,-259,-677
85,-38,-42,272,-342,-321
76,-27,-36,-57,-380,65
70,-12,-34,-115,-317,415
73,26,-35,-102,-355,734
82,54,-34,43,-356,924
93,91,-33,-201,-311,1066
117,-118,-31,-207,-161,1010
-127,-102,-40,170,-251,716
113,-121,-19,1659,1731,-3966
18,115,-101,-930,2543,-4984
-118,104,72,-1775,1875,-5342
-39,-31,24,-1476,1524,-6928
-107,108,-24,-92,858,-7183
-65,28,-60,-843,-401,-7555
-101,2,16,867,-1392,-6739
83,5,76,-932,-1110,-4070
82,-73,25,1488,1050,-1389
102,105,91,2667,500,2880
64,-86,-3,-3164,2075,5148
73,68,2,1045,178,6875
-42,-79,94,3964,526,7937
85,-85,106,-133,-491,5548
-62,-124,-86,-2008,-3978,4901
76,-81,38,162,-5012,5508
42,-61,55,-538,-3005,4793
85,-110,125,-63,-1333,4900
-88,1,-41,-858,-1877,5070
28,-29,-41,-301,-2173,2420
27,-125,-54,3327,-3048,-378
-86,95,-50,2639,-1032,-448
96,76,-101,225,1385,-816
48,-8,40,-243,994,-724
25,-59,-26,-11,-65,-339
60,-53,-13,92,62,-598
87,-78,-18,456,218,-875
110,-124,-42,762,74,-1149
126,101,-51,605,37,-1436
-119,60,-54,290,-3,-1429
126,14,-56,161,-147,-1154
103,0,-62,203,-241,-812
80,1,-71,-96,-351,-426
71,10,-56,-194,-379,-7
77,21,-46,-33,-269,280
86,47,-48,44,-381,624
91,72,-42,-46,-370,810
103,110,-34,-141,-304,958
115,-123,-29,-59,-303,1033
-123,-90,-29,51,-164,878
-35,-41,24,617,5345,1691
-2,-4,21,593,6791,914
76,82,-83,-2995,3619,-4393
35,68,-10,2316,4704,-6333
17,24,12,2818,2243,-10060
74,-99,-15,-2133,374,-12561
75,13,49,-15733,-2646,-13997
-67,-108,20,-9116,-141,-11282
-39,-117,-41,11566,2024,6700
26,49,-124,22061,3203,13879
-24,125,-121,-29887,-9249,8995
69,34,-3,-22276,3509,-12259
-69,-107,-128,7997,3491,-617
87,53,-9,-1790,-599,-1169
-22,-3,-36,-5221,-2900,1349
31,70,44,-1697,-3433,3166
-70,125,99,5593,-2495,6899
100,-56,-121,3774,-4790,5875
66,-36,-49,-3850,-6944,970
-101,96,68,1072,-5333,587
-43,-27,31,3036,-1656,-253
18,96,11,1248,30,-1767
117,-121,-49,1546,1145,384
102,-68,-34,4070,975,2703
-49,71,77,1633,-1121,699
-85,-29,17,1170,-462,-393
-28,-91,-9,-476,711,-721
33,-110,-88,-374,1677,-175
101,-96,123,-1029,1620,-100
120,-86,73,-361,1310,373
116,-89,49,269,1095,436
102,-93,111,-931,-414,-332
-128,-74,66,-550,-472,-227
-111,-78,65,-261,-380,-114
-108,-72,73,-45,-54,71
-120,-59,92,-489,-260,-28
-124,-53,79,-374,-296,-60
-122,-51,74,-195,-232,-52
-118,-45,87,-418,-238,-74
-117,-37,83,-394,-201,-81
3,-85,52,1796,5461,2528
84,121,34,-356,6498,-203
-63,72,-91,-1624,4759,-3191
-128,-68,-94,3175,5654,-4960
-94,50,51,-212,944,-11738
-55,4,-96,-4481,-528,-12400
3,12,-71,-12103,-917,-11979
38,114,59,-20504,-3609,-14376
-48,-75,-121,27799,4223,13146
-29,97,-119,24477,10639,22691
-124,90,46,-27425,-4898,-11493
-90,-64,-36,3605,3392,-5395
126,-90,14,4619,1653,-4368
-92,81,90,-10051,-3607,-4171
31,-118,-6,-9047,-4909,-2216
-66,-29,85,12799,-1136,11264
-115,72,-125,5939,-4340,4414
-96,64,3,711,-6266,3607
-87,37,-127,-191,-7743,-1293
39,56,27,6877,-2879,1203
87,-9,-103,2779,-2033,221
119,107,92,555,-343,-1055
-99,-96,33,2563,952,1671
61,71,22,3427,947,1375
-87,-6,22,2853,1099,527
-55,-114,22,-614,1535,-1116
60,108,-93,-728,2226,-359
-125,112,-110,-1067,1098,130
106,102,-116,-1521,-637,-218
111,107,65,-353,-229,-38
-124,125,76,264,4,-118
-122,-105,105,-183,-43,-186
-113,-100,114,-839,-122,-293
-98,-97,77,-736,15,-159
-98,-95,57,-403,-82,18
-101,-87,57,-141,-89,144
-108,-69,77,-463,-154,51
-101,-56,72,-373,-199,14
-104,-53,71,-289,-167,-130
-94,-49,75,-339,-161,-148
22,-49,32,-2064,7235,-563
7,-64,-51,-2508,3270,-5445
-90,67,-43,4587,5028,-6006
-15,27,62,-1124,1633,-10033
-2,-76,-87,-402,1553,-9183
-22,36,50,-7772,-2327,-11581
21,101,80,-20280,-5741,-14501
-84,-43,-110,24548,2719,-2082
47,0,-51,24600,8863,22056
-38,-96,65,-5467,-7749,-12346
77,-14,-81,-7691,2151,-7569
-111,116,-80,5830,2441,-1777
112,-95,11,-2830,-373,-410
18,30,125,-3104,-3054,3606
59,-32,103,90,-3879,4257
-80,29,-13,5799,-3678,6100
-30,-57,-128,2482,-3798,4376
-51,104,-64,654,-5736,2650
-26,20,74,2643,-2240,1067
33,-41,-98,1877,-2140,-219
103,112,84,2336,-1867,1022
68,104,62,1450,-989,1463
40,41,43,-2,-1191,154
39,15,-34,1305,-153,589
1,-61,-75,2153,1612,572
32,-110,-53,125,2047,-264
40,-82,25,-3309,-448,-1014
98,-82,102,-4041,-1125,-1150
97,-41,-19,657,331,321
101,-69,50,394,-113,-30
115,-41,101,363,250,225
107,-42,-127,-1030,-175,-377
127,-36,42,587,628,248
121,-51,97,-271,-171,-145
122,-45,86,-279,-236,-18
-125,-38,86,-299,-176,9
-123,-29,87,-189,-85,-8
-125,-15,93,-491,-154,-138
-124,-19,89,-724,-259,-282
-111,-16,60,-292,1,-98
-27,-30,93,-3687,6486,-4684
59,63,-58,-4548,5966,-9704
-2,-58,72,-7742,1531,-11256
-31,-6,94,-15728,-784,-11680
-69,-94,9,-8322,-2794,-9876
121,97,116,19730,166,7306
104,48,-49,22550,10959,24214
-125,47,-16,-32018,-4374,-14486
118,46,76,-2833,1003,-9190
-52,-128,-42,10234,2982,4741
37,37,-53,-2000,-2692,1263
88,36,-20,-1909,-5500,1774
126,-10,-90,6076,-2379,6588
119,76,116,6314,1308,7074
17,75,89,-2043,-5477,3370
-70,64,-59,2031,-6649,672
100,16,76,3523,-392,1284
-38,67,121,1804,1974,299
-120,-6,-26,3485,-312,5148
-53,15,52,-3774,-3337,72
-26,-19,-35,-777,-2022,-450
68,-18,-125,2400,1528,1516
41,-108,-50,-1057,594,-857
115,-92,116,-1029,610,-1058
-86,-94,101,-292,216,-371
-68,-103,93,-126,298,-274
-66,-105,112,-495,-50,-260
-70,-86,111,-962,-646,-169
-74,-76,76,-571,-453,-1
-81,-59,72,151,-102,384
-96,-47,114,-475,-491,132
-106,-33,108,-420,-481,53
-104,-26,103,-248,-282,2
-102,-27,119,-370,-249,-113
-102,-21,119,-471,-126,-112
-96,-19,99,-297,81,-83
-100,-18,104,-402,-26,-148
-96,-8,102,-521,-55,-197
-84,0,92,-451,-73,-203
-86,-4,91,-343,5,-222
73,85,-97,-1914,2316,-3790
73,81,-25,496,3945,-3399
-116,-26,28,1196,3472,-8030
-123,-79,81,-11714,-2153,-14464
58,75,-126,-17916,-891,-14728
-48,88,-34,-3194,-2459,-9701
-49,-31,-27,15187,-3123,6931
23,-81,31,22613,9670,23644
34,-45,-7,30843,-2009,-13720
-110,-27,48,-492,2199,-6478
51,-64,-23,8553,2731,1568
64,-92,-89,-3725,-2487,321
-76,106,96,-1430,-3955,3742
97,-78,-115,6974,-2798,7141
-56,74,-114,6279,-2890,6791
-46,26,-19,-3091,-5599,1918
21,74,121,-380,-3968,1328
112,34,24,5182,717,2158
96,-70,-45,1527,-2035,1367
55,37,-112,-988,-2912,-299
-114,-31,-93,1719,93,465
-125,22,-83,5028,1692,3065
-7,-27,91,-409,-91,-122
20,-82,-42,-2478,-198,-1561
116,-88,89,-566,753,-320
-125,-115,77,-545,535,-323
-115,-115,69,-59,143,-52
-117,-111,91,-265,-182,-46
-107,-92,93,-301,-119,74
-110,-77,103,-559,-219,-150
-104,-71,92,-466,-80,-332
-88,-71,88,-461,13,-278
-82,-70,80,-439,-103,-160
-88,-65,77,-488,-201,-112
-80,-44,66,-314,-61,6
-90,-36,77,-387,-235,-39
-92,-27,76,-462,-164,-93
-86,-20,67,-330,-136,-40
-91,-17,67,-228,-128,-102
-94,-20,82,-395,-249,-117
14,-64,-9,-4537,1936,-2436
7,118,118,-1280,4374,-1912
-17,-17,-35,804,6216,-2724
62,25,-54,-2734,3129,-9203
64,-86,-126,-3077,1848,-14342
-87,81,46,-22387,-6123,-17560
-13,-69,75,-19487,-1334,-14983
19,59,71,26723,1541,12717
-34,75,-111,14902,4500,7103
67,48,113,22642,-8475,-4051
-32,127,109,-25076,2118,-13456
-126,-16,-5,10674,2907,4699
41,-101,117,2567,608,4406
126,-18,4,-3505,-4648,-212
0,46,-82,4050,-2036,6264
-49,36,113,4482,-1592,6411
-81,-15,27,-3327,-4098,2224
-18,3,-98,1353,-2287,1029
103,-94,59,3659,102,1955
52,101,-99,957,-2216,1037
59,10,5,417,-1907,380
101,45,-85,553,-750,1264
97,19,-100,515,-378,613
101,0,-98,1357,-506,600
56,-50,-36,416,-580,124
44,-66,-56,-1767,-237,-955
112,-73,112,-1400,547,-472
124,-60,51,-415,705,-238
119,-70,65,460,459,-33
124,-67,108,-624,7,-315
-101,-43,85,-928,105,-250
-103,-35,53,-563,45,-168
-99,-36,52,-316,-89,-210
-101,-30,60,-342,-91,-101
-94,-16,68,-588,-184,-47
-102,-12,56,-453,-237,-130
-98,-4,48,-185,-215,32
-106,4,60,-243,-411,52
-117,13,71,-203,-432,-97
-119,4,96,-294,-271,-336
-36,24,-6,-2597,4605,-2679
-62,17,0,-126,5425,-2872
64,-85,-92,701,3974,-7105
-70,32,-61,-2118,1324,-11525
106,18,52,-6562,-820,-12767
119,89,-8,-20989,-2958,-15923
-93,-87,44,243,-2726,-7753
-112,63,68,22735,793,11720
-77,-123,84,25988,26798,-26870
-126,-80,-33,-28761,-17356,-26760
124,-67,12,-5143,3135,-2626
42,-84,-118,8972,2272,2687
-86,37,106,-1585,-1199,3129
53,-4,5,450,-3326,4565
-106,-21,40,11731,375,7757
-80,26,27,3911,-1143,7372
83,73,29,-8068,-6422,-442
-74,-50,26,1866,-5433,-224
116,-57,-49,6482,132,3354
110,-3,-124,-471,-1895,-40
110,57,-60,3242,370,1725
15,30,19,1811,260,1257
-51,-55,65,-3569,-1205,-1980
74,-51,117,-1637,690,-881
-123,-70,51,82,1784,-162
-115,-99,76,538,1290,-160
-104,-88,113,-321,224,-242
-97,-81,110,-1014,-391,-232
-85,-52,67,-719,-363,-61
-98,-50,65,-424,-418,-203
-87,-49,69,-146,-271,62
-98,-41,94,-426,-318,1
-113,-31,88,-351,-348,36
-116,-21,88,-452,-352,27
-116,-16,82,-295,-153,-6
-110,-5,82,-202,14,63
-114,-4,90,-338,-13,-135
-105,-7,80,-257,91,-160
-98,-13,82,-281,20,-117
-91,-11,84,-403,-37,-158
0,-59,-128,-154,5772,2228
-76,-14,101,-2720,4295,-3540
54,-89,-109,4032,6746,-2591
35,85,0,-3102,2025,-11076
61,124,30,-2792,3261,-10835
-34,-97,-21,-9220,-83,-13609
59,36,-1,-22090,-1978,-16129
118,49,126,4649,1218,-7464
-104,-82,-113,17142,56,9712
123,90,44,-31267,9916,30442
10,62,122,26983,-4970,-21460
-50,26,-55,4006,4929,-4675
-56,118,76,-5488,-753,-4553
-65,88,72,-5098,-5588,-2798
-10,-118,-91,17009,573,12951
-79,-15,95,9458,1711,9550
106,-26,81,-9537,-6326,556
-101,-70,91,2004,-5205,1493
58,121,44,10265,-514,5492
71,-40,61,535,-3921,1706
81,-79,-88,48,-3624,-218
-69,-46,64,3865,-484,2263
91,-88,44,3535,1198,1766
-32,81,83,2034,701,915
-51,-72,82,-1144,14,-722
71,-126,-94,-1145,681,-599
122,-107,97,370,1224,622
100,115,-123,30,312,120
108,116,-102,-848,-620,-552
-122,-124,125,-865,-447,-484
-110,-116,109,-999,-321,-499
-98,-104,77,-521,4,-230
-98,-96,73,-223,38,25
-111,-81,88,-612,-213,-120
-109,-56,75,-538,-218,-65
-111,-52,71,-432,-230,-140
-109,-46,74,-444,-196,-177
-104,-38,73,-391,-160,-110
-107,-39,72,-387,-137,-139
-103,-32,75,-392,-173,-109
39,125,48,906,7007,1878
-125,120,-89,3538,9278,-80
-36,-115,-92,-833,2240,-6535
53,84,-12,3379,530,-8846
83,-127,0,-3684,-2972,-14301
-35,13,96,-9132,-3320,-14275
82,-72,-60,-8228,3022,-8761
72,103,37,-12306,-2470,-6266
40,-100,-25,22139,566,7678
85,-76,39,25712,10797,21900
93,-72,93,-31394,-1432,-17270
-109,97,-89,3403,1054,-4393
-61,21,34,-3292,-690,-3015
-121,76,-62,-483,-3641,2516
-85,122,-56,1855,-3296,5082
-42,58,-74,6146,-401,8019
111,-123,-104,4204,-4305,5862
-103,39,-61,-2646,-8273,2100
-58,108,66,307,-7829,-1205
-45,106,77,4203,-1155,-135
-3,28,71,4185,518,544
-105,0,105,4475,74,1901
-48,-116,-91,1918,-971,982
-72,-106,38,-1749,6,-2356
47,-36,82,3613,2419,2025
-58,-53,-8,-146,605,106
-8,116,-120,-1309,1305,-1489
118,-111,17,1931,2336,698
101,93,124,-134,471,-400
-126,92,94,-193,278,-430
-114,108,-128,-1499,-896,-658
-113,-126,121,-2199,-1458,-928
-80,-85,22,-378,-230,256
-118,-84,48,-205,248,69
-123,-68,43,62,651,48
-121,-51,61,-178,332,-36
-122,-52,72,-675,-127,-344
-102,-48,42,-303,16,-162
-98,-40,60,-477,-214,-229
-97,-43,56,-357,-149,-200
65,-8,113,-3651,7454,-2920
-81,41,-118,878,6078,-4909
-37,-13,-51,-2733,3319,-9448
-48,55,-92,-10913,-182,-11989
103,66,85,-7694,2258,-8927
25,-89,70,-3733,521,-4001
100,8,-100,-603,-5011,-5240
34,-100,-91,18495,224,11526
-68,-35,-60,-22545,-10532,14056
-99,43,-93,-24869,1833,-21217
2,56,50,-1466,5097,-248
88,-84,39,3295,-2223,2169
-14,-72,-127,-3029,-4189,2059
114,-115,81,1735,-2068,5113
11,-84,-3,7027,-1990,6628
-51,-101,-98,4262,-4120,4719
-3,64,-15,-4180,-6893,1147
123,88,39,3217,-1723,1104
-58,-85,-83,4380,1759,4107
50,-74,61,-1314,-2931,-93
40,98,49,2810,-855,1797
10,15,62,1062,-730,586
34,-67,-43,-625,-292,-810
85,-45,111,1157,1523,71
121,-99,-120,693,962,35
121,-128,106,224,372,703
72,-116,-96,-615,-831,101
96,-80,-106,-1350,-769,-288
127,-60,100,-1192,-59,-590
-109,-72,74,-827,357,-706
-86,-65,61,-377,401,-261
-82,-56,63,-530,70,-127
-100,-48,72,-441,-281,-163
-94,-40,76,-504,-227,-56
-83,-25,75,-422,-81,-23
-91,-20,71,-198,-16,-8
-96,-15,84,-549,-146,-137
-89,-7,64,-307,-98,-37
-92,-3,63,-160,-189,-57
-103,-10,76,-211,-377,-150
-118,39,-68,5149,8092,431
-53,-86,-60,-4559,1758,-10248
30,63,-78,1547,2998,-11389
-5,-86,-80,-10827,-3430,-14468
-49,48,63,32331,-6355,-19890
-98,75,-63,31003,5862,9684
-5,34,-122,11855,-218,4721
-39,110,-25,-22760,15354,-29796
-24,16,95,-26136,-6641,-26682
71,86,-93,4721,5546,-1304
75,-48,-94,-2970,-730,-591
67,11,101,-6106,-5803,932
45,-86,2,9179,785,8086
42,-112,126,3786,-1856,5552
79,-84,-80,-7505,-3899,-860
-88,50,-96,1925,-2767,1661
-14,34,-48,8151,-951,5899
-54,-109,-76,-1957,-2540,1481
-20,26,94,1232,-1836,2132
95,110,78,82,1362,937
-91,-96,83,1940,1101,3584
60,114,-106,-240,-728,3146
-15,57,62,-412,-1920,1426
-4,1,-19,-20,-1945,481
63,-66,-81,-355,-902,-1357
115,-77,-124,-58,68,-992
-126,-101,118,343,176,-88
-128,-104,-99,-1088,-515,-229
-116,-65,104,-999,-15,-42
-111,-53,80,-565,140,-148
-104,-42,61,273,471,-8
-107,-46,111,-796,-294,-438
-92,-40,82,-521,-194,-209
-77,-53,63,-44,34,101
-79,-45,73,168,216,297
-92,-32,87,38,-35,195
-96,-25,111,-478,-360,-74
-86,-28,91,-229,-98,-31
-80,-28,93,-200,-24,-31
-84,-29,97,-320,-84,-62
-45,16,-31,1487,6412,-434
95,-109,-99,-1857,3815,-6465
40,69,-89,301,1846,-8325
-66,12,-119,-2403,1537,-10607
69,63,-32,-8595,-546,-11181
66,115,60,-16769,-2225,-13177
56,92,97,-6668,-2776,-10710
-120,26,117,23560,1861,12256
16,-24,-20,26836,14548,29908
-44,79,36,32255,-5570,-20778
31,-101,-110,13081,3924,-3524
88,84,-31,-4121,-1509,-3341
38,22,-16,-7613,-5193,-1644
109,-21,87,-2118,-5044,1638
102,51,52,9090,797,8434
-67,73,-103,3403,-2400,5065
-25,-11,-11,-4022,-5391,2051
13,-123,-83,3308,-2735,2707
59,-6,25,2390,-1645,2049
57,20,46,1773,-1837,2166
48,-105,2,-136,-1532,1191
52,69,102,1269,-1320,1880
32,12,8,2249,-1665,1962
33,-81,-57,2619,-1311,642
54,-79,-107,2762,1445,319
62,126,-35,319,1051,-702
127,104,-30,-1711,-171,-733
-109,114,-107,-1101,-262,-414
-106,121,121,-1109,-303,-503
-94,-114,98,-1362,-441,-357
-108,-89,67,-684,-134,-126
-107,-78,67,-408,-68,-93
-106,-62,79,-380,-74,-109
-109,-55,85,-646,-160,-212
-108,-49,70,-439,-138,-169
-100,-46,71,-419,-101,-92
-101,-33,75,-445,-226,-119
-99,-30,71,-193,-133,-71
-98,-34,91,-291,-127,-132
-95,-28,96,-411,-106,-99
-75,-60,-76,3179,7697,854
-56,-65,-87,1591,8667,-5642
119,4,-90,-2914,2396,-7295
121,11,-11,6311,1866,-8612
39,37,-23,-6623,-2450,-14021
-16,47,21,-10201,-642,-13523
-98,-11,121,-13142,750,-9065
14,111,-22,3832,-1688,-1769
40,45,65,18392,-606,8999
21,98,31,-32393,7905,32105
-112,-87,109,27481,-1899,-23456
-54,-122,23,16173,5932,347
96,116,-6,-1280,-1065,-4746
-85,44,-116,-9650,-3211,-1492
-98,96,52,-5370,-5159,1198
4,19,-28,8720,-171,8439
-110,-19,-7,5375,-1181,6275
-93,66,-47,-5646,-5752,723
-79,74,19,4516,-4122,3983
-20,15,117,5303,-3552,4960
-20,-13,53,-1343,-3324,1122
53,-69,111,1299,-1857,1491
49,-113,17,2607,-145,2010
94,81,45,-53,-1140,1673
47,92,12,1480,-1262,2065
-23,35,-12,745,-670,804
-44,-53,-56,-445,369,-1135
48,-70,-109,-152,1201,-462
83,-72,100,132,1382,91
79,-83,115,-358,446,-296
90,-86,105,-363,-175,-285
112,-83,107,-598,-261,-373
-128,-72,98,-692,-40,-450
-118,-70,92,-564,-42,-476
-106,-71,84,-407,8,-398
-100,-70,93,-693,-224,-328
-95,-55,81,-601,-304,-75
-112,-48,69,-200,-271,113
-114,-26,94,-623,-350,69
-122,-7,81,-464,-295,33
-28,-110,95,4285,6568,1750
46,60,120,3308,5817,-2466
45,11,-88,-3752,1344,-7867
59,-60,-63,1661,5246,-6167
-13,57,-43,-3412,908,-11095
95,101,14,-9523,514,-12437
-53,24,115,-12056,1387,-10431
-105,-38,7,-7618,-2397,-6820
8,-117,115,17859,-493,4151
-5,-72,19,21979,2479,13457
-91,15,9,-28571,-461,-6576
-125,-118,78,1671,3303,-8294
41,-56,2,6165,3103,356
-6,24,-7,116,-1261,2065
-112,49,-50,-4781,-4758,195
114,-21,14,1984,-2884,4616
113,71,93,8116,519,9477
109,60,-107,-1568,-3142,3587
-111,112,120,-2435,-5740,1654
25,17,-14,2875,-3203,2984
98,-64,111,1570,561,1838
94,67,57,-201,-949,-385
-89,-110,-30,2893,-588,2884
58,76,32,996,-1573,1400
15,44,-10,524,-1352,605
-39,-3,-8,-1475,-1151,-723
26,-65,-119,-2022,380,-1285
92,-70,55,507,1775,-175
108,-88,70,744,1486,-8
124,-91,94,211,707,23
-122,-87,103,-470,66,-42
-121,-70,94,-889,-304,-165
-107,-62,62,-832,-325,-306
-96,-62,50,-251,-94,-166
-93,-68,56,-90,-53,25
-106,-61,80,-328,-255,40
-107,-38,78,-564,-381,89
-117,-29,68,-454,-368,-26
-112,-22,63,-233,-119,-28
-113,-18,72,-317,-78,-97
-70,-23,108,4497,6839,635
23,-91,-124,-612,1301,-4843
-98,48,-97,-5877,-157,-8758
41,38,-121,-5776,2902,-10362
26,-40,-23,-10563,-111,-11919
-85,-61,24,-22723,497,-11457
2,-25,120,-2278,-1549,-6088
75,-70,127,17667,-262,7790
68,-96,124,18880,3982,8497
31,11,113,25196,-11778,2355
-70,4,-3,-17195,8215,-13763
-93,-65,-81,5602,3978,-1405
-3,-4,12,-747,-318,-946
-9,8,6,-5929,-2817,1213
10,-37,102,187,-3052,2288
30,20,80,5822,1708,6858
-19,81,117,324,-1299,4635
-27,50,116,-2830,-2948,2188
-9,-99,87,2601,-2585,4774
8,-52,-71,-48,-2514,1882
66,47,-72,1901,5,2652
74,-93,-85,-1557,-1952,2053
102,126,20,1379,-1161,3222
127,49,45,1294,-1670,2589
68,30,55,1424,-3071,2220
-6,-27,19,583,-2973,295
5,-105,-44,-1217,-936,-1972
94,-93,-125,-1137,1099,-873
-120,-79,66,196,1963,467
109,-96,98,-295,828,-278
-128,-103,78,181,479,-385
-92,-109,85,8,196,-294
-84,-99,103,-772,-189,-356
-80,-93,83,-845,-329,-359
-64,-81,60,-429,-265,-166
-75,-80,74,-395,-419,-108
-72,-71,69,-80,-37,139
-80,-55,99,-671,42,-37
-73,-38,81,-490,305,76
-80,-35,87,-507,81,-64
42,109,6,-3395,2070,-5440
-124,23,-19,418,3672,-7055
54,34,-112,-6759,468,-11984
-64,91,-61,-11219,720,-12190
-90,28,105,-14781,2244,-9764
-50,-95,-95,-2407,-792,-4666
-9,91,93,13498,-2645,6064
121,-37,-18,13344,-347,7656
2,-79,-89,-28082,6329,17518
18,-109,106,-20238,-296,-17329
-92,-41,7,11722,5954,-1057
83,35,-9,-9935,-3027,-6463
11,-27,-62,-10666,-4495,-2059
109,-63,-123,4894,-2185,5088
-74,-12,95,8153,1305,8358
-86,93,-87,-3167,-3221,2426
-40,31,28,-1418,-1848,2845
-63,20,23,2409,-1706,4280
-70,-16,-81,1092,-3425,3332
-47,-46,-88,1308,-3170,2140
9,-73,-89,709,-2204,2017
10,93,124,-426,-3255,1337
53,70,9,692,-1072,1168
58,5,-46,728,-959,652
117,-7,-92,2855,-207,1491
76,-3,9,1519,-478,1169
-15,-50,52,-2846,-1515,-1255
48,-54,-122,-1592,85,-808
89,-66,72,-175,1030,-281
103,-68,62,604,1235,179
93,-68,113,-284,209,-155
108,-60,105,-490,-145,-80
124,-56,84,-460,-74,-96
-122,-48,79,-275,52,-83
-122,-48,82,-229,-29,-138
-112,-45,89,-425,-170,-109
-115,-44,85,-372,-248,-47
-114,-34,90,-436,-257,-27
-113,-23,87,-358,-196,-32
-117,-21,87,-330,-87,-104
22,-99,109,-2414,1017,-5696
74,10,124,-5111,2780,-9983
-125,-104,-118,-7632,1237,-10981
-104,67,-71,-13631,-241,-10787
1,-81,32,-13034,410,-8389
38,3,30,8943,-531,-1704
49,-7,-112,11562,-4002,4805
55,-93,-127,-30859,11276,29913
-91,38,-6,27825,-4133,-25372
-7,-103,-43,20912,8905,4457
-39,-90,-8,-5656,-2322,-8244
12,-36,-67,-13585,-3856,-4769
109,7,-8,-4096,-3385,-449
12,-86,-83,12947,1912,9977
76,-114,37,4157,332,4136
125,89,-31,-8417,-3667,-1042
-18,45,-64,1292,-2099,3053
-14,-43,11,3911,-2062,5602
-34,-74,-66,-841,-4304,2306
-11,-62,73,2098,-3753,2078
30,-22,-55,2749,-884,1413
42,69,-94,-704,-2318,81
94,71,-1,3128,-64,2586
39,-2,71,-1281,-1289,271
46,40,-55,-259,-1141,410
13,22,-32,-687,-1510,-83
35,-40,-72,-1082,-568,-563
96,-52,97,583,1383,285
65,-49,-119,-507,464,-63
81,-50,113,-980,-59,-215
115,-47,67,24,181,113
-128,-54,77,397,266,116
-121,-63,92,302,255,2
-104,-62,111,-304,48,-12
-103,-61,93,-370,-6,14
-100,-57,70,-86,174,138
-98,-51,72,-76,83,105
-97,-45,79,-142,-129,95
-107,-44,84,-241,-297,3
-106,-31,95,-618,-396,-168
58,-37,31,-1960,4726,-324
-11,-20,-122,6003,6051,1126
32,-74,-108,2815,3786,-2069
39,-96,-68,-1793,2597,-6696
-119,-125,-42,-7350,-294,-11969
76,86,-30,-10567,573,-14088
-46,-15,-39,-17180,630,-12477
-2,-40,94,-7735,-1750,-8831
28,-71,98,21248,-134,13461
122,-127,-90,26695,6558,17401
75,-3,-46,-31524,-2165,-12504
57,18,-60,796,2784,-6969
31,-69,40,3094,1256,-130
-2,98,-102,-1134,-616,1755
5,-102,-46,-1002,-2387,2548
26,74,-75,3308,150,4902
-48,-10,42,3549,-311,5046
-94,-10,-88,-1710,-4076,2977
-92,-101,38,453,-2795,2125
5,112,26,1419,-4176,2360
45,111,-6,2106,-3329,2590
81,-122,68,122,-3701,1090
-111,109,-31,595,-1910,197
-77,126,-98,2547,322,1299
-97,90,-127,2717,1436,1754
78,24,-43,1114,557,1174
30,-31,-28,-1372,-531,-435
57,-70,-110,-1780,-381,-884
111,-106,46,-899,87,-417
114,-102,36,632,379,299
96,-109,93,20,-147,83
109,-83,102,-371,1,6
126,-75,82,-274,319,-184
-105,-79,77,-120,409,-412
-92,-78,97,-865,22,-574
-82,-78,81,-1303,-365,-522
-68,-71,26,-432,-118,-74
-75,-61,34,-124,-24,54
-87,-40,60,-397,-257,-22
-94,-24,47,-260,-268,-30
-94,-9,-105,4088,5748,-765
59,38,-123,-3150,3299,-5857
-80,-114,52,-4103,481,-9738
123,117,31,-1631,609,-10931
-19,79,-44,-11919,-2,-13259
80,-72,91,-16046,747,-9513
-92,-38,-91,11280,-1166,-609
-41,26,-94,14283,-1579,10802
68,121,-90,-26203,17297,30714
-10,41,25,-26220,-8769,-25428
110,-31,40,-2505,5020,-995
-40,-24,-59,8233,-1987,4313
-127,22,-38,-1879,-2619,2243
61,-47,-29,-3317,-4771,1652
70,-39,125,6422,-1672,7372
-2,116,-120,3698,-3333,6387
-43,33,-86,-3614,-5144,821
123,-83,-104,2898,-725,-302
59,-25,125,8804,2867,7617
-85,38,-6,-538,-955,3484
2,5,82,-4193,-4070,517
92,-121,-84,-522,-2809,-555
-38,-23,-66,-3796,-1829,-2720
114,18,62,-1733,1969,-580
109,3,0,1056,2833,789
56,-49,74,937,805,155
68,-38,119,800,-398,70
105,-39,-92,-1297,-648,-504
-109,-9,80,-654,393,-66
-111,-12,86,-929,164,-470
-98,-8,58,-521,126,-333
-88,-23,46,-250,-52,-98
-89,-16,56,-229,-213,112
-98,-9,50,218,-31,273
-103,3,80,-64,-86,183
-106,10,84,-312,-212,54
-104,12,81,-446,-215,-75
-102,6,63,-182,-24,-75
-95,4,72,-246,-48,-47
-96,0,74,-337,-117,-89
-114,-13,-48,6760,5125,1881
70,-97,-102,-6226,562,-6112
21,64,-97,-709,5093,-4737
-37,72,-26,1486,3058,-10530
-115,12,85,-11724,-922,-14862
-3,60,46,-19471,-243,-13645
121,81,-61,3612,-381,-7057
-34,-68,30,18192,-2208,9190
2,-53,-23,22262,6561,18664
118,19,2,27502,-2521,-19375
102,-85,-74,14518,8101,-1960
63,-10,-7,-1635,-312,-5451
127,-56,-5,-14333,-4998,-4034
-111,-120,117,-3513,-5516,-2369
-108,36,-72,19873,1330,14002
68,-73,-46,2435,697,6763
-85,-31,90,-9665,-6329,-1810
-5,-52,87,5269,-2310,4476
37,42,-51,4393,-1330,3817
-28,-55,55,-2132,-3843,-137
56,-107,63,2377,-2689,1529
114,37,52,1964,-1008,1328
115,37,41,119,-1935,1177
105,41,-46,1135,-1445,1304
60,32,-56,2740,72,1512
-13,-64,32,-529,-626,-866
78,-118,-93,-103,1053,-696
-126,-124,124,263,1640,180
121,-118,115,-89,1117,130
118,-114,109,-337,344,-143
-120,-104,109,-829,-159,-487
-96,-97,92,-785,-191,-547
-71,-91,72,-404,20,-330
-74,-93,82,-485,-78,-346
-70,-85,79,-540,-171,-245
-73,-77,77,-602,-422,-206
-69,-65,68,-212,-197,73
-81,-54,87,-432,-324,15
-90,-36,83,-404,-310,-13
-89,-32,80,-303,-170,-7
41,-57,-50,7138,5447,917
-32,-15,-91,-4806,3594,-8945
-47,35,-121,-2752,2660,-10872
-91,17,-125,-5073,525,-12545
23,-109,-18,-17457,-1263,-13985
0,56,98,-12865,-877,-10260
125,-70,115,16270,624,5990
-105,121,-13,21232,-1441,1854
37,79,-10,-30644,10815,31726
-101,95,55,-26057,-5949,-23585
5,50,120,15788,6035,-2369
78,33,72,-15246,-5441,-11470
-8,77,-25,-18294,-4798,-5675
-105,54,30,15436,-370,8400
67,-27,120,17469,4204,12749
45,52,39,-9728,-2279,319
60,82,118,-7513,-5748,-498
-104,10,-122,9613,-1334,6492
-81,-82,-53,2210,-3546,4608
-120,-86,-79,-3429,-6689,-577
24,-33,36,4222,-2448,1382
69,80,105,923,-2345,340
61,79,9,588,-601,214
81,33,-78,1420,1052,628
90,48,-106,2431,1726,1873
51,-1,-6,-98,-253,722
46,-24,-72,135,-9,383
34,-72,-70,-1463,-703,-762
83,-71,97,-684,129,-302
102,-69,80,-165,477,73
98,-58,91,-446,166,-116
102,-61,91,-250,-119,-211
124,-59,94,-277,-46,-125
122,-55,100,-608,-138,-195
127,-46,80,-471,-29,-168
