AccX,AccY,AccZ,GyroX,GyroY,GyroZ
127,-23,65,1341,-2582,-11839
-31,-111,-102,-253,-5139,-9774
56,-55,-59,-926,-2302,-6920
31,-62,-40,1420,-876,-2247
-9,35,-103,2157,77,4176
-57,-93,44,-4328,5478,8755
-77,56,4,-492,2955,8705
20,-40,-54,-5084,-1136,2783
-74,-116,-61,783,-2417,4969
-56,-88,48,-817,-1345,5258
24,-60,66,-3838,-1052,4483
-68,-77,-85,-1530,-661,3503
-109,-52,101,324,-935,-282
-60,-90,29,2306,-232,-1083
90,-76,-84,1519,83,679
-119,-12,-97,-927,789,-276
-102,-74,-112,-923,617,-612
-66,-99,105,715,-740,-45
-79,99,51,1671,-249,93
-104,77,69,1712,-786,184
-92,94,89,-532,403,-110
-77,125,69,-488,-31,241
-75,127,79,144,133,101
-81,-124,71,476,-34,101
-83,-115,84,82,91,52
-73,-121,85,204,44,104
-69,-99,90,-274,418,61
-66,-123,78,89,185,-149
-54,-95,80,30,123,-130
-49,-112,83,2,351,-114
-45,-91,92,-116,-13,-388
-46,-111,90,-5,-2,-154
-46,-100,90,11,20,-147
-39,-88,94,-104,50,-205
-45,-98,91,32,-79,-109
-43,-67,93,-83,4,-201
-41,-61,88,-11,-77,-196
-57,12,92,10,-289,-494
19,10,-67,742,-342,-980
-4,5,-52,1124,1392,-6774
127,106,81,382,-1773,-11222
12,62,85,2382,-4127,-10052
-48,-69,18,-188,-2908,-8326
-88,-125,69,-3892,-877,-6856
91,19,89,1072,-304,-1548
89,-6,-114,2443,1959,7562
77,4,-9,-6753,4813,9014
-44,10,93,3431,1762,10395
-81,68,-122,-10981,873,2287
-61,30,-119,37,-3603,5596
42,-85,117,3375,-5132,7850
-38,16,-13,-2854,1494,3493
57,66,-21,-364,-800,-2445
-87,77,-54,4451,215,-1409
65,-114,109,2000,376,835
98,1,123,-1208,-434,-227
-125,114,-122,-140,-55,-102
99,68,118,36,272,-301
122,107,101,-255,219,-148
126,109,92,-416,253,12
-98,-115,76,-555,523,-113
-116,-122,54,412,-511,15
-95,-108,67,-48,217,-41
-94,-88,68,-2,121,-133
-80,-86,77,-169,211,-111
-77,-90,71,-15,229,-89
-92,-99,66,299,-272,-77
-78,-90,70,-58,61,-106
-70,-81,70,-83,125,-129
-70,-75,69,117,179,-166
-71,-80,71,76,64,-119
-66,-56,75,-121,162,-239
-61,-71,79,-24,-19,-156
-66,-60,76,21,-55,-171
-61,-72,77,180,-60,-78
-59,-62,59,27,-47,-160
-53,-74,62,124,13,57
-57,-50,55,-110,26,-161
-46,-46,69,-355,428,-112
-50,-19,69,-142,-172,-274
-11,43,121,-1190,-1278,-9568
78,-48,-91,1909,-2849,-12318
-48,-54,115,-1323,-3383,-8306
60,32,85,2758,-1507,-4001
-56,-64,65,2902,-1087,1495
-71,46,-125,-3858,6166,10864
-83,-67,31,-6141,3851,9153
-80,120,-88,319,-3037,4882
83,39,-61,-3970,-2598,3446
82,3,-107,-575,-4978,5745
30,-40,73,238,-42,4104
30,82,42,-2064,417,3373
-109,-98,27,302,-1160,1179
-58,-23,-1,2662,-18,-541
103,-17,-97,3112,-557,695
74,-23,-78,1859,-1017,677
122,-84,111,950,-581,-265
107,-107,115,-241,-391,-304
114,94,87,-364,1478,-216
-122,49,47,934,252,-149
-103,67,89,-927,431,207
-124,123,68,-565,186,-152
-101,-128,89,-52,141,-35
-86,116,75,385,-21,-164
-94,-125,87,117,-13,-52
-88,123,85,101,-28,-64
-75,124,81,30,15,-74
-81,-128,87,-59,-92,-3
-88,-116,84,235,-197,-38
-79,-113,91,-60,56,25
-73,-102,83,-80,40,-23
-67,-85,73,54,27,-149
-70,-103,72,54,63,-10
-73,-97,69,-135,76,-19
-61,-98,65,-15,13,-55
-37,-61,63,-343,195,-442
115,71,83,7125,2223,-3211
30,102,15,5351,-2931,-3254
-42,109,-81,-6947,2031,941
-108,32,-105,6798,-3884,-3534
23,-112,38,1788,-6620,-13378
-101,-18,30,783,-5088,-11681
82,-23,45,-2484,-1532,-8473
98,14,-22,2592,-2279,-2467
-83,-108,-112,-1241,1553,1169
-54,-122,110,3665,-3044,2584
45,-36,-26,-2297,3412,3189
71,27,31,1065,1525,6003
47,115,-56,368,3300,7279
-30,47,119,-942,3587,7605
2,-82,-81,130,-3562,11540
-33,86,-99,-7103,3499,5180
-11,-41,-11,-2116,-1406,2196
-87,113,12,2678,862,-3290
123,57,-104,2811,131,1392
89,3,78,-1886,-775,1374
-119,29,122,-1881,-450,-508
-103,118,123,450,473,-87
124,69,92,1490,80,-53
123,-128,119,-114,-67,5
-107,107,113,-51,21,-110
-103,124,100,199,134,-44
-99,127,107,125,191,-110
-82,126,96,149,44,-194
-82,109,99,80,201,-56
-87,112,79,68,-2,-56
-80,122,89,-83,181,-72
-74,-127,81,61,50,-83
-64,-111,91,-127,130,-100
-67,-119,88,-19,-1,-7
-67,-89,91,-22,31,-169
-59,-96,99,-42,107,-30
-58,-83,89,32,-53,-150
-61,-91,96,-9,118,-82
-58,-93,94,-77,40,-26
-53,-85,91,-56,65,-32
-51,-83,87,-32,58,-57
-49,-87,83,-133,54,19
-50,-70,83,-119,0,-59
-44,-34,87,-318,36,-105
92,-54,116,4866,2900,-7908
-7,-36,53,-3405,-947,-13235
8,67,-50,4235,-5430,-12080
101,-42,36,-1897,-3036,-8652
-103,-29,32,654,-186,-4813
-102,41,57,1445,2038,1281
-93,-121,96,859,1059,9328
5,40,80,-4338,7255,8699
-71,2,29,-109,476,5837
60,11,-95,-4345,-1660,1744
58,57,118,-441,-2383,4020
17,62,-57,1055,-1737,4145
-64,92,49,-2292,1190,4395
40,-123,4,-2890,-703,4353
-80,67,36,-2872,-2296,1794
-48,83,90,-130,-381,-2044
127,-29,-22,3559,-177,476
99,-21,-75,2242,-329,465
-112,3,-79,-874,682,-583
-104,-67,111,-543,373,-535
-101,122,81,412,324,-314
-90,-126,83,289,348,-200
-77,-113,88,-61,212,-95
-80,-99,83,-40,-113,-149
-72,-102,102,19,31,-72
-81,-119,96,31,-23,110
-70,-46,107,-605,209,-310
-66,-115,107,111,154,193
-61,-58,106,-37,114,-181
-58,-63,116,241,-71,-143
-57,-80,99,823,-766,449
-80,-94,94,-241,379,-159
-57,-67,100,-382,141,-81
-57,-78,85,-134,216,-87
-61,-65,96,60,-60,-29
-50,-74,95,-46,101,18
-54,-63,91,-227,70,-90
-51,-77,87,177,13,-67
-45,-54,95,-49,32,-134
-44,-66,95,42,65,-48
-31,60,50,2437,4198,-4992
-127,-36,7,2699,-4883,-3738
125,-106,-128,-3832,2460,4222
20,43,-84,-2770,2465,-12036
-87,84,-93,-876,-3779,-13089
-62,-70,83,1654,-4794,-11089
76,-53,62,449,-175,-6349
-65,-122,111,1771,-1474,1565
5,118,24,-5762,4418,155
91,34,-7,5986,-5029,-1055
28,58,-115,50,452,4720
111,16,-78,-1118,4879,2449
48,81,-121,1367,2855,5681
-110,-8,-28,-544,4236,8199
-7,-53,69,1727,5953,12220
-92,-113,-42,-11871,5063,3386
-110,-4,39,2472,-3950,5169
-39,127,-114,-582,1953,1645
13,-88,-37,1257,24,69
34,-97,82,2179,-1590,239
116,-67,-95,-757,912,31
81,-62,-124,-1456,-88,88
103,-79,-100,-889,-11,-144
-116,-75,-88,-78,396,-275
115,-117,-96,647,-26,-135
-113,-102,-112,426,472,-506
-109,124,-121,318,195,-158
-102,115,118,420,147,-196
-97,92,107,43,352,-36
-89,125,98,-116,104,-141
-92,106,99,129,56,90
-80,-106,102,-84,-44,-13
-75,-103,120,-276,-140,88
-86,-69,-127,-230,-168,-136
-80,-62,-109,-283,84,-78
-87,-78,-119,115,-29,-35
-76,-72,-120,102,204,-62
-70,-80,120,68,113,-68
-58,-85,107,153,35,-28
-53,-60,105,-92,94,-201
-25,15,74,5687,3225,-6302
54,7,-70,-5038,-394,-15971
-16,-32,117,6507,-7969,-12749
98,-23,-75,-3913,-4067,-9792
-119,-38,-102,2513,-1683,-2459
112,-96,93,-1480,799,-178
34,-62,29,-2045,2037,2198
38,107,-9,4983,-8191,-1129
63,108,-96,-2451,3295,2383
24,-66,-86,964,3611,3210
35,-39,-3,2357,2617,8040
8,62,104,1033,2466,10899
112,-49,-27,6309,1643,11738
16,16,-43,-14470,3145,3371
-121,-36,62,-403,-7131,6617
-67,-101,64,-1217,1133,-4355
-122,-120,-36,3590,2243,-874
59,-19,-113,3604,-796,3037
58,40,34,-136,-400,-98
107,-39,44,-1399,1125,-968
-127,21,-127,-66,60,-157
-124,33,-121,708,230,129
-106,54,-111,323,153,-19
-93,81,116,79,55,-238
-95,55,-123,92,270,11
-79,98,-117,-95,531,-268
-76,90,-120,-5,32,-129
-77,95,-107,-192,193,-255
-69,96,-108,138,55,59
-71,115,-101,-106,84,-49
-71,-116,-105,-107,58,-262
-66,120,-97,-49,77,52
-74,-118,-117,85,-42,-90
-60,-108,-108,-264,207,-161
-57,-111,124,16,-90,-137
-49,-95,-112,-146,126,-91
-51,-81,-116,-102,-44,-104
-52,-86,-108,-15,21,-64
-52,-77,-114,29,16,-139
-48,-104,-120,-7,48,80
80,74,88,6257,3374,-4767
121,50,37,3223,-2208,-9296
-8,-33,-34,-1022,-4346,-14719
-86,-78,59,3386,-8400,-9856
76,84,79,2253,-977,-5365
-66,-106,-128,-1988,490,-932
-92,-55,1,-1782,2367,1367
67,105,-59,2300,-2412,-250
22,-9,-38,-3843,-3815,952
-23,40,-120,39,2992,255
69,-12,8,-749,2264,3783
-2,67,19,828,714,7124
29,-67,-40,646,1130,8696
125,80,105,3538,459,9647
6,90,17,-10155,5357,6255
-107,-122,82,-3160,738,4774
-45,-43,-17,-3931,16,1938
94,-51,23,219,-3140,-1918
68,111,-48,4198,-266,171
83,-90,-94,2183,1621,1082
75,15,-83,-134,-372,-128
99,-120,-67,-627,189,-592
102,98,-68,53,-138,54
111,114,-91,-165,454,201
-117,125,-104,258,185,-347
-96,108,-126,368,295,-245
-125,76,117,405,360,108
-100,123,122,-237,579,-227
-79,121,125,-185,-19,-219
-80,-121,-114,-238,88,-193
-88,-89,-104,-234,72,-264
-88,-103,-110,102,48,-37
-82,-82,-94,-203,57,-228
-84,-77,-98,-135,-161,-151
-72,-92,-88,-10,63,8
-78,-67,-106,-80,46,-152
-66,-80,-118,36,89,-80
-50,-74,-120,61,125,-50
-51,-69,127,97,-63,-55
-50,-70,-128,122,46,-55
55,-109,29,8719,3095,-10744
7,-70,-125,100,-6483,-17445
-87,7,-93,1462,-1736,-8575
67,60,-74,1656,-4280,-2122
-122,97,39,-1070,647,-1035
-98,-20,-29,-572,649,20
-74,-106,-125,1123,-1372,307
-41,-88,-113,-713,211,-1306
113,-28,-21,345,343,729
-29,96,123,-1014,856,140
-97,-99,-84,-81,979,1726
107,-124,-88,336,1753,3926
-33,91,-123,-1417,2825,5710
-43,54,57,-304,2182,7992
47,17,38,-373,2650,11733
8,-39,114,-6713,2814,4977
124,-107,-109,-3602,-3487,5929
-64,-103,-18,-1472,-2676,2556
23,5,-61,2404,-547,-4206
12,-73,-31,3879,1513,1043
74,-91,-87,23,1339,1106
47,-4,-105,-702,-263,-853
92,77,-96,44,-248,-453
66,16,-100,1195,-323,154
77,60,-96,408,53,-189
90,69,-96,-254,64,-261
99,64,-95,60,89,-199
99,105,-104,-44,114,-191
112,127,-96,-431,368,-393
-116,98,-110,222,121,-343
-118,91,-108,70,232,-63
-121,109,-121,-109,116,-286
-104,119,-124,-97,224,-53
-94,123,123,115,78,-3
-97,-107,122,-28,-85,-124
-92,-112,-122,1,66,62
-91,-96,-124,69,-115,-107
-82,-86,-119,45,48,-77
-84,-105,-122,130,-1,-21
-83,-84,125,-17,-62,-103
-96,31,95,3735,8039,-9552
88,6,95,5261,-4594,-15920
-64,-97,-31,1231,-5030,-11548
-122,127,91,1583,-4039,-6795
26,1,114,-170,-1029,-2614
38,-80,88,-220,-327,-129
52,86,-53,-2784,2137,1510
88,-73,68,4597,-4688,347
101,-47,63,-1863,1943,-817
124,119,34,1251,-494,45
-43,97,97,-574,587,-9
-13,80,83,188,34,656
67,77,-112,390,43,673
70,-122,6,-25,1688,2548
-42,-66,82,1669,1756,6208
94,115,116,-1504,3692,6889
29,116,-20,-1612,1937,9083
14,-10,45,-468,-585,7463
31,87,-75,-5562,1105,3296
122,-44,-26,-3056,-2732,4654
85,39,106,-1593,-3399,502
0,122,-21,2461,826,-2013
46,-27,-114,5654,2142,868
52,-26,118,-96,-1004,1086
-2,0,-82,-733,-909,-35
61,-100,-64,-617,753,-659
51,59,119,1403,-147,-447
57,46,-99,1382,-160,-347
79,43,-89,390,94,-236
67,39,-98,-277,204,-429
88,37,-123,-45,306,-222
95,51,-126,-156,232,-88
119,95,-126,-379,404,-228
121,104,121,-201,125,-122
-120,116,118,193,97,-39
-124,120,118,-66,-4,87
-114,-125,111,92,-94,-42
-119,123,99,342,-252,108
-118,-105,104,-146,4,-105
-117,-53,97,-424,-50,-341
-115,-10,34,1246,-1027,-8136
48,8,-11,-960,-475,-12251
-64,-13,-112,3204,-6004,-11622
-8,113,80,3527,-1721,-4029
-1,-86,27,-918,-1801,-822
-16,-43,-123,-946,1722,1537
-25,-63,115,-841,1722,338
110,-24,-51,3375,-3315,-360
-26,65,50,-1530,1089,-499
-2,-16,-96,-217,530,870
17,-99,-1,-314,1577,2865
-104,-44,-74,242,2587,5034
111,47,59,156,2519,6875
77,113,-9,1984,1670,9209
-120,-14,-67,-9206,5845,6108
58,-69,-73,527,-2178,3710
54,-97,27,-3251,-511,2727
-82,-73,39,-1912,-1428,2504
-63,111,-45,1195,-1152,1173
87,-40,-104,3662,60,185
91,-34,-88,816,1135,-229
63,-122,-111,109,-601,308
48,-116,-117,-249,-528,71
77,126,-88,-217,114,-374
71,67,-99,751,-102,-33
66,61,-99,656,-28,-120
75,53,-101,407,113,-135
90,56,-101,-172,153,-175
100,65,-125,-82,116,-28
109,94,123,-8,268,-175
118,79,105,200,74,-72
-127,115,106,-238,83,-152
-127,112,115,-223,144,-93
-119,-112,104,45,-42,-162
-115,124,118,55,142,-55
-114,126,100,239,-103,-126
-102,-121,114,-63,101,-62
-106,-127,100,0,-101,-77
-100,-112,106,-12,12,-109
-93,-70,97,-104,-28,-129
33,-43,87,3176,2162,-6269
45,10,-123,1110,-1115,-13164
61,-11,71,1469,-6483,-15375
-104,91,-119,2907,-1300,-4542
-38,26,15,-1552,-2078,-3259
99,-82,8,-1054,354,272
-7,112,-81,-2077,2234,1420
70,-95,79,2391,-1961,292
-97,-68,25,-391,86,-925
-67,-56,82,-199,900,-117
-15,45,-111,-810,579,446
112,124,-81,270,124,2073
53,-92,-85,238,1554,3676
-74,71,126,235,2589,5247
-116,68,71,2090,2228,7607
52,108,-63,-1050,7817,6262
-119,-31,41,-6439,2859,5261
11,120,114,-3008,-1967,4155
13,4,-107,-2531,734,4608
2,46,61,-926,-2567,3084
37,100,-19,688,-1255,-1549
67,56,-58,3841,1201,-1055
49,18,-76,784,714,1838
16,-47,-88,-512,-987,-36
66,-110,-62,-400,-62,-688
66,33,-81,396,333,-295
63,29,-97,674,136,-139
84,33,-93,601,8,-220
83,18,-97,319,35,-74
92,29,-106,-101,287,-138
98,53,-124,-136,49,-123
111,65,-120,-231,281,-28
126,94,126,-189,163,-83
-128,115,127,-92,77,-92
-123,119,-126,-72,61,-142
-117,126,-121,6,6,21
-118,-127,-122,105,19,-194
-108,105,-128,167,-18,42
-114,114,121,-45,-48,-30
-107,116,118,-190,1,69
48,-39,37,3523,776,-9562
43,-18,-93,360,-4073,-14478
-79,-123,-101,3671,-4342,-12988
-102,13,16,-1957,-1042,-8350
121,-95,-1,580,-1423,-2502
70,103,125,-151,-625,2762
111,20,-71,-3613,2119,1106
97,-24,-68,5491,-5329,-468
-62,-16,-75,-2815,4424,-329
-128,60,-29,929,821,1920
88,-38,-99,82,2641,4517
30,-3,13,1233,2036,6936
35,-41,-10,1337,3245,8855
-88,12,3,-5042,7768,6165
-120,8,86,-3584,300,4598
67,-76,-7,-2986,-1339,4199
69,45,65,-526,-619,4119
115,-12,54,-62,-1525,1957
-116,-17,-69,160,-313,-1125
54,-60,-102,2633,312,-693
45,-122,-111,468,477,890
35,-44,-128,-547,-78,-143
86,119,-104,677,-283,-251
69,80,-113,888,-324,-423
62,31,-107,725,-4,-206
80,35,-97,8,384,-360
87,35,-113,-318,414,-192
95,32,-124,112,132,-16
108,69,120,-153,227,51
122,103,113,-267,155,-188
-119,112,108,-137,146,-73
-118,-120,103,30,-9,-269
-113,124,108,4,52,-111
-108,-114,108,-166,113,-163
-108,119,104,67,-15,-72
-95,-114,106,55,68,5
-109,103,95,737,-250,123
-99,-108,115,-74,248,33
-108,-124,94,272,-181,73
-92,-106,107,-81,162,-125
-61,69,-128,1094,-3984,-13889
22,-98,-69,-561,-9327,-15370
-119,-16,-45,-550,-3176,-10764
-21,-87,-31,787,-2176,-3190
7,44,-29,-1960,72,798
-76,-28,-24,-1135,1111,1329
17,45,46,2710,-2929,254
-111,23,78,-5762,7328,-562
-123,12,117,1546,-837,996
-121,-51,-52,32,1717,2520
21,109,76,432,2023,4738
7,-127,-5,905,3249,6349
-93,-18,-14,1164,2742,7429
82,-77,-21,-518,1607,7107
98,-67,44,-5282,3437,5975
-19,82,29,-1290,-116,5662
105,-92,104,-2063,-926,4635
25,52,-54,-2109,-2813,-94
87,-89,-118,2420,-410,-1483
25,94,-128,3707,1273,399
33,-49,111,632,410,375
55,-54,-114,-257,-398,-463
71,74,-100,325,-310,-310
66,55,-121,449,349,-303
65,28,-128,644,-203,-252
82,38,127,-205,261,-182
87,60,116,-6,3,-96
100,65,106,147,142,-33
109,94,105,-183,91,-123
116,101,102,-117,104,-122
117,108,97,64,93,-115
125,112,101,-208,186,-13
-124,-126,82,194,-20,-313
-112,110,93,12,110,-46
-120,125,89,-95,-24,-75
-112,-111,94,-52,71,-120
-106,-124,91,26,38,-2
-103,-94,87,21,0,-124
-103,-105,88,-49,77,-43
-96,-88,78,14,-4,-152
82,5,-55,-447,377,-11593
-14,49,-77,1236,-2101,-14602
-16,-95,21,2779,-6418,-11200
-47,-117,76,121,-2817,-7442
87,50,-23,415,-2848,-1103
6,121,-104,-1175,1864,3234
-107,105,88,-3252,2809,319
71,-126,108,2335,-1875,482
-6,-5,10,3703,-2815,2528
28,-98,-78,-886,4471,3178
-101,78,48,-317,2613,5575
-27,-109,-47,1050,2101,9439
-72,-55,22,-3289,4658,6811
118,113,-23,1018,99,5627
10,49,-1,-5391,1160,6552
-29,73,122,-2543,-1432,4356
80,-111,-27,552,-2184,1372
117,-30,-86,1178,-313,-2052
31,74,-128,3040,295,212
42,-60,-124,421,238,116
61,-87,-119,19,-295,-182
65,64,-120,8,76,-541
85,71,-128,132,235,-320
81,64,123,258,55,-322
93,49,118,181,335,-124
102,61,115,153,202,51
109,88,110,-61,144,-66
122,102,103,46,16,-123
123,89,102,159,-73,40
124,113,105,4,15,-78
-124,115,102,-3,49,18
-121,119,101,62,-33,41
-109,-125,99,-2,35,72
-113,-120,98,15,72,31
-109,-104,93,-1,22,-172
-117,-119,84,21,114,-55
-87,-119,85,-30,11,-42
-92,-84,78,126,-175,-24
-104,-68,84,165,-186,-384
-118,48,104,-57,-998,-647
-11,-28,40,6736,-1681,-4568
-1,-89,-43,-1069,-4509,-8936
123,116,-12,-2075,-9306,-12481
-103,-98,-119,-3074,-6348,-8026
62,32,-59,1529,-3501,-4261
49,20,-17,-1594,468,-532
-1,18,-38,-166,2262,1818
-35,127,-61,-892,364,548
-16,57,-108,4098,-4073,2451
79,-68,-41,-926,6460,3882
26,16,54,1007,3939,5679
-83,38,-121,740,4839,9203
-9,12,84,308,4369,7473
47,-32,95,-8790,5400,9476
-100,11,78,-4550,808,4459
-46,-90,-25,-5671,-3427,997
7,-118,-37,3681,-3797,-1642
81,-42,70,4234,-462,-127
-37,60,-85,2891,425,1351
-7,29,-92,-1634,818,711
41,-60,-88,-815,-538,-803
66,117,-101,-636,126,-699
45,63,-84,8,183,-373
84,95,-101,176,453,-823
74,39,124,306,452,-296
81,69,98,-549,568,-502
-126,83,94,-615,395,-192
-109,104,83,-235,-31,-53
-114,112,97,252,24,12
-109,-121,120,28,-63,29
-118,-96,122,-170,56,-28
-121,-111,117,21,61,125
-110,-97,102,15,1,60
-99,-95,107,44,160,48
-98,-102,93,95,90,131
-83,-60,92,-65,153,-279
-84,-94,96,45,55,18
-87,-55,91,43,-69,-191
-85,-62,114,-66,5,-175
-88,-89,101,526,-56,-13
112,90,-110,3544,4486,-9388
56,34,-50,809,-4923,-18551
-40,0,-51,1003,-4879,-12803
-49,-111,-117,-1193,-3625,-6973
-75,-21,-24,10,-771,-2255
-7,-86,86,-1477,1124,620
76,-6,-84,-1896,1955,1496
96,7,1,4156,-3479,238
-126,35,75,-1643,1481,264
48,-109,-86,-582,1588,1703
28,5,-111,1847,635,4886
17,85,23,1329,1906,6666
-68,-42,3,1580,3603,7647
-116,-69,-125,2397,3134,8016
-7,2,-17,-6780,5127,7565
-90,78,40,-2806,-1368,1172
-7,85,18,-3586,-1509,3627
-93,-38,82,-121,-1641,2510
-103,-68,-54,2198,-573,255
60,-9,-102,2632,643,-825
68,-35,-102,203,945,-344
62,-97,120,0,-349,-316
78,96,-118,537,-456,-304
72,76,-119,633,-80,-216
92,57,-123,125,160,-352
93,71,-122,-116,231,-441
92,22,123,303,122,-87
106,63,121,-80,121,-132
125,93,120,-406,222,-154
126,109,101,-57,-35,-192
-127,119,106,-87,104,-92
-119,-126,99,-67,36,-115
-112,-111,99,-113,41,-79
-115,-112,95,-115,-14,-117
-107,-111,91,53,41,-41
-99,-98,96,-106,106,-57
-98,-94,85,114,-58,-160
-93,-95,98,-108,138,-21
-90,-90,85,-8,-36,-89
-90,-89,90,-49,58,-39
34,-97,80,1466,3523,-10651
77,-37,103,2914,-8541,-12596
19,-35,-15,-3344,-2945,-13846
120,-87,-108,1624,-4212,-7065
-7,-95,-92,-1120,-1005,-2859
-120,-89,33,-592,512,969
-89,67,-62,-1546,1129,1771
124,25,38,1818,-1073,943
99,-115,-37,-1321,4335,3247
27,68,-63,2050,1939,5204
104,40,-54,1848,4970,6535
7,5,-106,-412,3882,8327
55,-90,120,-3002,2798,9054
30,34,84,-8324,1188,4554
53,-119,-76,-543,-4286,4928
118,-58,-23,-4827,201,718
119,89,23,2028,-2620,-965
39,-89,-60,7045,-565,-32
93,-71,-99,2359,2375,-173
77,-105,118,-381,-122,79
97,126,-127,-1062,-68,100
113,104,114,-65,-253,-335
110,72,95,640,-51,51
119,109,94,120,-11,-83
117,86,97,-311,306,-170
-121,107,92,-205,305,-269
-116,99,105,94,50,44
-119,113,103,-52,-19,-135
-105,-116,113,-76,56,-147
-109,114,107,13,54,59
-99,-87,99,-209,-1,-230
-94,-110,97,47,122,-79
-92,-102,88,27,-36,-68
-87,-93,80,-5,-75,-125
-85,-101,85,-70,123,-15
-81,-82,85,-159,60,-123
-73,-87,87,35,95,-56
-75,-77,83,0,-23,-124
-75,-77,90,-57,158,-87
-68,-84,79,125,-24,-18
-86,53,38,2440,-2031,-14178
42,-112,99,-3502,-3523,-13402
-98,109,-40,1731,-1472,-10057
45,-57,-110,-210,-1457,-3362
37,87,74,-1679,-946,1637
-119,54,60,-2234,2053,2076
77,-15,0,2115,-2106,288
16,23,114,198,1251,1992
-79,5,-91,885,3117,3403
127,-27,25,1388,3195,4770
-1,-11,-38,961,3146,6925
33,-82,-44,-1471,4501,8706
-43,72,-114,-4221,2089,6025
-76,82,-128,-1728,-283,6733
-68,120,-53,-6628,-330,2065
11,-127,-99,-2121,-4265,1653
120,15,0,3931,-2448,-652
33,106,-79,4450,2424,-1377
107,-121,113,1338,2146,-93
91,-96,71,-1175,-1245,500
84,-74,97,-1001,-974,-506
118,101,108,260,211,-310
101,77,82,765,174,-350
110,84,107,46,-37,-413
119,70,112,-469,546,-273
-119,107,94,-313,421,-483
-118,81,96,48,167,-145
-115,113,93,48,88,0
-103,-128,96,-237,275,-28
-91,-98,78,-176,-36,-207
-94,-113,90,-207,72,69
-91,-79,81,-122,-10,-129
-85,-77,83,-24,-23,8
-94,-80,85,-57,-74,-64
-85,-69,87,-172,72,-64
-75,-71,82,1,104,-147
-80,-82,78,-38,-2,-45
-76,-77,77,-52,120,-14
-71,-64,72,-60,-1,-74
-68,-68,69,-73,5,17
-53,121,-90,3912,-2586,-13391
-32,79,-27,-2980,-5245,-17435
-58,-121,-34,-45,-4503,-9215
-22,85,-125,592,-2661,-3400
29,77,65,-2103,1621,277
86,-128,99,-1370,1312,2628
10,1,-23,2074,-1731,-338
113,-120,60,-4288,4586,-50
-83,-102,119,2030,-528,815
-42,-79,25,-796,2634,2886
-108,2,51,501,1713,5613
89,-117,23,105,2750,7185
83,-82,64,5742,218,8823
118,-20,84,-554,1731,8838
-19,24,-50,-11775,2500,1144
-112,58,66,-2129,-2740,4706
105,70,69,4069,-5428,5870
-52,2,85,950,-129,-2125
70,-44,-118,3144,2611,-2092
18,13,28,2786,161,1104
16,-20,125,-1585,-799,-100
84,-88,109,-979,578,-552
84,68,66,887,343,-170
76,80,97,915,-401,-316
87,74,105,-224,138,-410
92,67,94,-214,175,-380
101,20,101,511,44,92
107,78,88,95,-204,-131
101,70,84,-52,-72,-163
107,81,75,-165,59,-74
111,99,62,-81,91,-21
127,127,60,-192,146,-55
122,123,61,12,-36,121
-125,-105,52,11,59,-120
-120,-100,59,-39,223,-128
-115,-121,53,200,113,-114
-113,-117,51,54,68,2
-106,-108,54,11,81,-103
-107,-118,45,173,-11,-39
-100,-103,43,14,-8,28
69,101,32,-1878,-885,-13882
2,-64,76,1077,-8769,-16425
-107,39,19,-594,-3642,-10122
-49,-38,28,1557,-1677,-2610
-43,58,89,-2411,724,668
65,65,124,-1332,570,1891
70,-89,25,-54,891,103
33,-64,79,2425,-3288,63
55,7,-2,-1145,2980,897
-26,-39,-78,126,1797,3462
-110,59,43,463,2602,5271
101,105,10,488,3349,7914
54,108,-36,375,2781,7531
69,-22,-79,-2854,-1116,6551
75,43,-94,-7460,331,2786
-110,-109,21,-1735,-2217,4478
124,-56,-100,1921,-3762,4654
-44,-45,-4,952,-147,-1251
49,41,-63,3510,2310,-1285
33,126,80,3192,-1137,606
28,125,-104,317,-933,-122
71,83,-113,-351,218,-305
56,4,97,-88,574,-230
75,44,106,-258,548,-315
88,33,102,-79,495,-149
101,52,103,17,163,-86
106,76,106,-179,419,57
120,96,106,-184,475,122
127,91,111,-229,302,141
-126,101,99,-276,-78,-275
-121,106,97,-63,-41,-80
-124,106,89,354,-72,-206
-110,120,96,4,85,-51
-109,123,84,94,-130,-256
-104,118,95,-124,13,122
-109,-111,92,-230,-46,-179
-103,-103,90,16,63,5
-101,-108,88,135,-126,-27
-90,-92,76,54,-17,-129
-87,-89,77,-128,119,-168
-10,97,96,-31,1044,-12265
71,-76,-87,-26,-9651,-13833
-9,-47,70,-3379,-4038,-13176
-78,72,-96,4617,-3154,-5109
64,-70,15,-1500,-16,643
110,-98,60,-1253,1312,2295
-7,75,-5,1838,-1267,-597
121,0,0,-59,162,232
15,76,7,-1958,1472,2611
23,38,-41,306,1736,4500
72,11,34,975,3519,6460
15,55,101,3210,3255,9049
-98,-128,67,871,4224,9791
76,72,-32,-8310,329,4525
-65,-35,-93,-4057,-2383,3408
-99,-126,-56,-1096,-1857,5842
107,-70,46,1107,-2448,-1463
34,36,-65,3885,2795,-2203
87,-109,122,2049,875,514
33,-53,127,-437,-1417,-28
89,-86,-72,-726,521,-454
88,88,88,616,329,-167
92,102,78,148,113,-287
112,95,53,251,21,-38
-122,120,51,70,-136,31
112,-124,77,-207,-112,-45
90,-126,70,-124,-201,167
114,-87,98,-924,353,29
117,-116,47,-140,-16,79
-120,-107,49,98,211,111
-128,-50,71,-591,-106,-108
82,-94,60,415,182,-419
124,72,65,53,592,848
-120,124,23,-36,6,1059
-108,-31,63,-1120,16,322
-73,-42,52,165,-11,101
-52,-88,72,553,-6,78
-80,-102,88,-16,-75,229
-101,-115,76,223,-11,-13
-102,-122,78,-119,200,52
-91,-99,-96,3866,-4694,-3595
40,-126,-122,-547,-4389,-5344
-76,-65,25,-1158,-12340,-5744
-17,100,-104,-6425,-3527,-4321
95,-39,-62,-3886,108,-3609
60,70,120,1902,-6828,-879
-24,-29,-114,-144,-2997,472
-96,5,-102,-780,1788,-6
93,-1,-122,1428,1978,-86
-126,1,-22,606,2679,-89
-92,13,-12,-924,4621,1863
67,119,-66,-1066,3047,2661
-55,77,0,2792,2312,4025
114,102,-120,-1614,4808,3629
-29,-126,102,-710,2983,3960
-59,-79,77,-913,1975,4207
-121,7,-61,362,843,2820
125,-40,49,1370,417,3700
118,-105,67,1751,114,3562
-115,-73,113,-121,613,3111
28,-56,78,243,291,1899
-81,-30,111,574,-335,552
95,-104,-126,662,-171,-405
97,68,-107,1097,-301,-279
96,53,-94,182,-495,-462
68,-23,-72,-284,-157,-599
89,-38,-79,-32,-76,-274
98,-65,-98,121,-106,-286
102,-39,-123,-48,-191,-414
120,-53,-115,55,-32,-212
127,-11,113,68,-132,-254
123,-10,120,-125,-192,42
-117,40,121,-411,5,-170
-121,57,107,-221,-196,-119
-121,72,120,-396,155,114
-102,94,95,-170,-67,-199
-89,106,98,-306,36,-153
-93,85,92,170,-69,-162
-90,94,96,-67,28,-174
-89,88,84,28,46,-156
-25,92,-55,-1507,-5735,-6320
-44,91,1,-1384,-7812,-7011
-75,119,-54,-5439,-6421,-6034
-110,-45,-45,-2022,-1046,-3707
-88,-62,108,-2166,-1671,-1160
79,-122,79,-192,2270,1231
-49,3,-84,1265,3007,2691
-71,4,-54,257,4035,3736
88,-70,-82,-805,3288,3471
-40,121,-83,95,1761,5095
-9,56,77,-1352,2334,4686
117,-78,63,-162,1343,3609
90,-117,11,1179,687,3728
92,-86,62,1507,432,2888
119,-8,66,685,969,3213
72,-36,56,1747,26,2550
25,-79,85,710,131,2252
-39,-74,81,200,210,1314
-114,-57,-121,-197,63,406
104,109,92,1391,-845,440
93,104,-84,921,-865,-430
79,30,-74,-519,370,-505
74,-35,-89,357,-415,-213
88,-36,-86,-101,13,-313
80,-58,-116,430,-345,-196
92,-58,-84,308,-266,-27
98,-27,-97,-628,418,-124
106,0,-124,-288,-202,125
112,22,121,14,140,-190
118,21,104,326,-79,-65
-124,35,87,-228,-60,10
-124,46,84,-99,-178,-51
-116,59,96,-194,-110,-81
121,51,76,401,-581,24
-108,99,113,-341,326,-98
-112,93,67,-303,-39,-153
-102,97,77,-83,-151,45
-101,119,61,-365,23,10
-84,-31,44,-1129,-47,-290
-26,51,9,-862,341,88
-123,-1,115,-349,-5633,-7941
-34,-106,-65,-3035,-8387,-9796
-116,-86,-22,-6654,-4927,-7278
51,-79,-49,-7371,1314,-4470
-76,-60,5,935,-4392,-1525
-124,-8,-63,-344,1116,756
112,25,-17,1491,857,2336
-5,24,-121,707,4086,2425
9,-28,-20,441,4332,3490
122,-31,90,353,2596,4615
-97,91,-84,1651,1945,4185
98,35,-106,-535,2142,4629
62,14,118,957,1479,3441
-122,68,98,699,-66,3044
54,119,22,-139,1145,2684
20,19,-14,1273,110,2313
-29,-34,68,1070,139,1862
-75,-95,105,1513,1456,1480
-72,100,-104,228,995,1756
-103,-74,99,-873,66,1340
-127,-84,125,-1248,84,123
111,-127,-106,506,-600,-961
104,44,-104,528,-296,-429
95,16,-107,135,-67,-170
90,0,-126,166,-325,-497
109,-10,-111,-25,43,-227
113,-11,-120,-92,36,109
113,25,108,-241,-104,-106
-118,46,114,49,-38,60
-123,58,104,-102,-42,89
-113,87,98,-135,13,-37
-111,76,108,186,-89,52
-108,95,101,-242,44,-40
-102,92,100,-87,-61,31
-94,104,97,31,4,-36
-93,115,93,-159,-8,-27
-84,-126,88,-270,-8,-47
-88,-127,97,-280,-23,118
-59,-48,75,-1114,249,72
16,41,31,-2797,-533,369
104,-9,25,3429,-3087,-8360
32,78,-20,-2499,-6036,-7931
-72,-91,-53,-1967,-6482,-7744
7,127,-105,-178,-5467,-4194
-13,-19,-23,-366,-4258,-2172
-56,4,-100,-172,971,830
-45,85,-44,-775,3082,2059
-103,-97,116,-174,3951,1596
-127,-57,-96,2172,1996,3241
48,-25,-13,-3925,5202,2629
35,56,-71,2545,-359,3387
-61,1,-83,-1030,2932,3974
92,60,-63,-40,1155,2681
83,-7,-47,711,-13,3289
-7,-107,108,439,392,2482
-3,72,87,101,1027,2394
19,-26,115,528,544,2492
-12,-31,102,-175,448,2258
-29,-96,121,803,-99,2293
-47,-58,-119,263,280,1437
-87,-67,110,-79,16,918
-125,-74,-124,417,-247,112
110,-122,-116,545,-44,-106
109,101,-113,123,-168,-298
106,42,-117,-133,-121,-301
107,14,-112,264,-319,-241
113,24,-120,-251,24,-310
115,-20,-120,67,-109,-28
118,4,127,-116,-34,-8
-121,21,-126,-106,30,93
-117,59,112,-177,16,87
-108,82,109,-78,30,11
-108,84,106,75,-2,152
-101,108,98,-105,-28,-38
-98,110,92,-230,-6,-3
-85,-126,83,95,-146,-159
-91,110,103,61,-107,-358
-94,104,98,-279,153,-70
-89,118,86,-168,-174,59
-76,-114,87,-67,71,-80
-16,-54,36,-724,-2470,-8156
42,40,-75,1302,-4810,-8539
-12,-98,-82,-3499,-7541,-8909
-40,-55,-88,922,-3739,-4879
-43,-44,104,-3576,-1601,-2601
45,-53,3,350,134,1763
-58,-8,-107,-264,2746,1481
-97,-91,-112,-763,2589,2269
87,47,11,2303,1712,3734
74,-41,16,-2340,3515,2973
93,127,-89,453,1737,3232
35,63,-88,-558,1810,3100
-72,-70,93,-661,2333,2470
49,-51,-14,824,-448,3372
28,-116,110,-810,1444,2712
10,90,13,853,927,2382
43,52,-100,-57,82,2775
-14,-35,121,510,316,1877
-12,-93,-112,716,119,1904
-56,125,-115,232,397,1639
-68,57,-86,589,105,1711
-92,79,-84,-394,433,1178
-100,123,-89,-622,42,807
-121,-108,-113,471,-594,-300
124,94,-91,244,-200,-890
109,2,-81,515,-527,-169
103,4,-74,15,-77,-395
123,-10,-76,0,-223,-213
125,-10,-78,-279,16,-126
-125,-11,-90,168,-38,-141
-115,17,-96,-296,45,115
-115,31,-118,-155,-96,69
-100,74,-124,-179,43,60
-98,75,123,41,-54,54
-91,96,118,-150,32,-47
-87,93,116,-28,-24,-12
-89,108,115,-234,-31,-32
-83,125,116,-226,-39,-113
-75,-125,118,-74,11,-162
-71,-116,119,-134,-22,-171
83,57,88,-1424,-7717,-8265
-17,65,96,-5398,-3318,-10153
-21,125,-107,-2064,-273,-5972
36,-37,97,319,-5433,-4087
-44,-79,-61,-614,-1088,76
-4,20,-90,112,1800,1104
-42,-128,60,299,3167,2581
53,-67,81,-825,3516,1807
-49,16,-9,1174,1354,3330
46,-24,9,-3138,3584,2600
-45,-51,-59,443,596,3575
-72,-9,9,1039,711,3543
11,-39,47,141,2378,2478
21,109,38,702,612,2753
27,122,111,-738,816,2601
22,-114,125,-835,540,1662
-10,32,-103,134,63,2116
-21,-42,-100,572,295,1749
-33,-78,-100,-29,111,1583
-46,-114,-91,-73,336,1595
-61,71,-90,638,-284,1636
-80,86,-74,-119,132,1340
-124,67,-70,-25,-378,1333
-111,-128,-54,-1098,-250,425
-114,-41,-96,-710,-102,-269
-121,123,-105,543,-232,-523
126,94,-106,171,1,-367
123,66,120,377,-281,-388
-116,57,-127,-122,-209,-518
-121,18,-116,39,-19,-274
-120,11,-120,-50,-111,-12
-111,36,-120,-279,5,-43
-106,44,-122,51,-38,120
-93,81,122,-152,8,113
-91,121,116,-298,-20,51
-81,-124,109,24,13,47
-86,122,103,233,28,24
-79,-121,101,-190,-27,-16
-76,125,98,-165,-112,62
-72,-103,100,-205,45,-113
122,-65,-60,-697,363,-11427
103,-41,114,893,-6597,-10654
72,-48,122,-3204,-2954,-6765
-98,-122,110,-1221,-3556,-3323
-74,-112,88,2061,-3468,-755
45,-71,-126,2180,1014,920
92,109,111,-545,3564,1622
-38,-110,119,377,2531,1524
80,91,49,390,2343,2387
-96,113,-16,-688,2244,2703
42,-93,0,-650,2283,2822
97,64,13,983,1382,3572
-27,92,31,-2032,1729,1988
-15,106,61,382,1475,3719
-4,-95,114,823,-382,2343
31,98,-112,-626,1586,2486
19,-16,-121,243,836,2716
30,71,-81,-95,-221,1983
8,9,-68,-625,284,1680
-51,-74,-43,488,-17,1542
-58,-112,-36,289,218,1402
-90,115,-55,33,122,1123
-99,75,-52,76,64,1196
-120,59,-44,194,-9,1121
-125,68,-46,-331,-185,801
-122,-119,-57,-399,-111,163
-122,119,-73,167,-188,-547
118,41,-62,297,-172,-96
125,70,-78,8,-149,-405
-109,86,-91,-225,-214,-800
-110,38,-83,-362,160,-470
-115,-14,-90,167,-265,221
-94,64,-90,-636,-2,-224
-96,45,-91,-14,-58,-28
-98,66,-99,-108,23,185
-90,106,-107,-357,36,163
-79,125,-117,146,-16,38
-78,-117,-120,-238,47,123
-70,-110,-127,23,-10,25
-67,-97,-127,-101,-49,-119
-104,92,17,-356,-5467,-9513
32,85,62,-2932,-5327,-8988
22,85,-31,-2565,-3207,-7169
-69,69,16,-1618,-2379,-4171
127,-17,100,1188,-4045,-537
-22,84,26,-352,1479,828
45,57,72,-246,3128,1581
-70,108,-66,-1029,2978,1329
127,6,-28,1335,1779,2951
-30,-34,36,-2124,3586,2019
48,84,-47,-384,1956,2724
114,70,-50,84,1716,3711
-50,-29,22,-1584,2053,2195
-44,-96,5,-457,510,3284
13,-128,110,-159,897,2984
61,118,-90,934,-99,2416
18,84,-68,-1418,1344,2256
17,-12,-85,274,26,2020
-12,-52,-26,462,133,1961
-27,-85,-36,244,757,1660
-51,124,-45,527,-178,1516
-88,99,-50,-393,286,1458
-105,37,-57,395,-314,1771
-119,71,-59,-304,-393,1557
107,-101,-102,-523,-1247,202
109,-122,-58,114,-90,-458
89,38,-68,718,29,-392
83,23,-74,-22,-76,-106
107,41,-101,-106,-48,-279
116,-1,-113,112,-275,-375
108,-11,-110,-271,-40,-188
104,5,-109,-40,-162,156
125,33,-114,-141,-77,-174
-125,35,-110,3,-8,83
-126,51,-122,-45,9,86
-109,82,116,-166,13,-121
-104,80,123,-17,-64,190
-107,92,116,-50,-17,-14
-92,123,115,-233,-17,-5
-92,111,111,134,63,-157
98,26,5,654,-4118,-7043
88,11,-25,-4273,-5780,-8565
-26,19,-110,-2890,-6940,-7716
-127,-85,112,-4074,-780,-5212
-62,-20,10,627,-2833,-289
39,-97,-61,-491,2212,1401
51,21,-95,559,1790,2178
-101,27,-9,647,2668,2015
84,85,89,-205,3130,2480
-88,65,-18,58,1859,3055
52,126,-63,237,2146,3206
62,115,-1,-93,1629,3226
-23,-83,37,105,2095,3141
-21,57,73,1213,1301,3149
50,-77,106,-1242,990,2643
36,50,69,520,550,2608
-1,39,-81,-380,556,2331
-38,-28,123,266,387,1960
-62,-85,-63,-270,-52,2077
-69,111,-64,-373,761,1753
-77,86,-115,17,131,1785
-98,77,-80,396,-27,1857
-113,-127,-71,339,229,1738
117,-118,-108,878,-1046,767
98,-108,-97,947,-634,-472
84,60,-65,-385,293,-869
54,-25,-96,543,-552,-159
79,16,-78,-117,-66,-440
90,-36,-87,304,-299,-408
90,-35,-85,-208,-111,-251
92,-24,-96,-246,-67,-42
105,-24,-100,-54,71,68
121,23,-113,-117,63,60
114,23,125,-29,-106,124
126,73,-127,-455,-45,236
-121,83,120,32,-29,-19
-119,82,123,-110,77,139
-116,109,94,-113,-70,-74
-103,122,106,-237,74,-144
-106,109,89,-41,-103,-68
-59,11,116,-4675,-4850,-7593
34,-19,37,921,-2365,-8098
-33,93,32,971,-5672,-11242
22,120,9,-3516,-1929,-7151
-124,-103,-47,-994,-3146,-4006
-99,35,31,-124,-1634,-749
-60,84,-88,965,571,67
-19,85,-119,-693,1843,680
-102,10,-15,635,938,813
-29,79,-52,-116,2386,2072
99,-39,77,-1895,2242,2354
-35,32,-53,-238,1738,3007
63,89,21,540,2526,3384
93,84,-26,1617,876,2161
-16,81,29,-921,1995,3328
-38,36,25,-454,1684,2948
112,-92,34,-164,992,2035
22,23,87,431,747,2587
-28,16,-127,426,466,1477
-22,-65,-97,228,766,1535
-65,-117,-113,279,1053,1261
-77,55,-100,381,342,1748
-85,39,-88,556,508,1570
-87,22,-75,106,726,1451
-80,8,-74,-120,678,1793
-90,119,-125,-1437,291,781
-116,97,122,562,-496,-217
122,75,-81,339,-457,-439
100,13,-57,-68,-403,-461
107,-14,-49,82,-401,-311
116,-33,-50,98,-62,-183
118,-10,-86,-84,-133,-265
127,-6,-83,-171,-116,-38
-126,5,-91,-95,24,-68
-106,54,-107,-168,-44,-192
-104,51,-125,-165,-47,-117
-99,68,124,-22,16,-154
-93,86,123,-228,-94,-133
-92,113,111,-304,-81,-252
-76,-99,118,-476,13,-460
30,106,0,-3151,-4913,-7514
-109,-3,87,-4891,-4745,-6905
-23,-94,-122,-2342,-7195,-9255
-58,-96,123,-6074,-1132,-6545
-126,34,-122,-1500,-2514,-4370
85,111,-50,1304,-4508,-1355
-104,28,-113,-218,777,1618
-19,-49,-122,1234,1407,1059
-115,-32,57,775,2516,540
-22,-45,80,951,3580,1005
105,-105,86,-1876,3196,2770
-69,-12,-128,-73,1911,3187
11,64,14,289,2737,3619
72,114,-80,507,1620,3236
-66,95,-8,174,1991,4098
-75,61,45,1120,1592,2809
83,-100,31,592,947,3345
-24,42,75,-137,697,2836
-29,-89,-122,489,1167,2824
-26,55,-97,1941,-87,3284
-13,-101,-58,-42,669,2445
-70,83,-83,-52,923,2177
-117,106,-69,341,20,1803
79,-77,-89,-1510,528,1190
50,-77,116,173,-373,-1066
48,81,-87,1090,-828,-627
37,8,-50,455,-286,-650
41,-7,-57,16,-192,-475
67,2,-38,-658,452,-887
57,-118,-55,789,-106,-220
46,-40,-59,-567,-552,3
79,-7,-66,-689,-72,-110
91,4,-78,13,175,110
98,39,-109,79,77,143
110,85,127,-279,-49,-10
115,80,-122,82,-30,-12
123,96,-120,-272,132,33
126,97,123,98,-69,-71
-121,101,-120,324,72,-117
-116,-118,117,-404,-85,86
110,109,104,-1386,-3328,-9894
-20,-7,-57,-3803,-9380,-7922
-58,32,19,-7119,-1489,-6848
88,-124,-39,704,-3857,-5303
127,73,-110,876,-4624,-2589
-84,51,-65,-936,1494,-216
36,48,93,1269,-245,1853
-125,-78,26,900,2728,1075
-66,-115,-41,626,1951,2441
91,24,73,-995,1802,3325
-64,-1,64,-51,3308,3052
-2,-63,28,-223,1608,3087
93,64,-9,1298,1731,4149
-78,-27,47,-501,2906,2137
16,85,36,753,708,3715
0,125,122,154,1365,3506
-13,9,103,896,948,2509
27,-51,126,597,354,3311
-16,-67,-112,280,371,2650
-27,-117,-72,328,255,2507
-57,-108,-65,328,261,2067
-116,-72,-85,360,-305,1319
79,-75,-80,-277,-548,460
44,-104,-88,129,-417,-60
42,112,-49,-160,125,-189
25,12,-71,890,-507,-231
39,31,-35,76,-166,-204
40,-25,-45,-6,125,-187
41,-14,-66,-177,-122,-36
60,-9,-77,-84,-6,8
68,-1,-91,75,49,31
77,28,-108,-180,8,-2
84,26,-113,8,-50,150
92,67,-126,-47,-2,-49
98,67,-119,-27,-59,1
103,71,125,-118,2,-41
107,76,-123,-10,-76,6
115,100,123,-190,47,-119
-124,-118,119,-427,-9,-216
-117,-90,108,-370,-32,-371
-78,41,18,40,-6171,-8051
11,50,-119,-192,-6200,-10117
-42,-112,-100,-2646,-4744,-7228
-10,5,83,-2587,-3650,-4602
-27,60,-112,4,-688,-606
-88,2,-82,612,664,3318
16,-118,32,339,1428,2137
-101,46,75,2287,2253,2035
-110,73,-119,-433,3361,2362
-37,30,4,-508,2631,3960
22,-31,-76,-889,1385,2644
-96,121,-26,488,460,4465
78,-65,40,308,587,2939
45,-128,48,1853,1877,3345
0,55,43,2200,665,3225
10,12,124,1178,395,2567
-35,-66,117,-312,1335,2627
-47,-103,110,118,415,2295
-81,73,-92,1262,360,2511
-80,-49,-103,2441,376,2931
-73,16,-105,1934,286,2435
103,-96,-93,-1346,372,1248
30,-95,-117,-671,-550,-369
21,38,-49,959,-832,-233
6,29,-30,201,-31,-175
1,7,-69,-314,-21,-438
12,-29,-69,108,-513,-448
15,-71,-44,144,-239,-467
17,-60,-50,-353,11,-348
15,-80,-60,-167,-111,-80
41,-39,-79,-92,58,43
52,-16,-90,-226,35,99
60,14,-119,-182,36,-42
78,45,-123,-257,33,133
77,66,107,-178,75,-138
85,63,110,38,-118,-122
100,60,110,-83,93,-122
104,79,114,-340,-32,-13
-118,-60,66,-536,-18,-30
-42,13,10,-3442,-763,-1876
63,27,59,-3098,-3610,-6829
-87,11,-46,-3497,-8642,-8545
112,97,-122,-4698,172,-8420
-24,35,65,646,-3184,-6790
101,-58,-40,-857,-1508,-623
-115,-18,-74,-420,2796,1599
-56,58,92,2239,-106,2719
99,-82,57,670,4089,1201
115,-36,10,109,3808,3148
-52,-121,-8,-840,1731,3776
55,-117,13,504,2056,4173
56,-82,40,-266,2420,3523
-65,-73,3,-56,1693,3763
-28,91,23,393,1235,4170
48,95,58,1373,171,3348
93,11,77,1193,610,3635
29,15,79,263,350,2337
-19,-105,-125,570,404,2521
-97,94,-108,1342,-12,2651
-88,-103,-81,59,262,2058
120,41,-117,-1423,-160,783
55,-18,-103,302,-529,-788
37,96,-44,1361,-529,-385
11,39,-52,355,35,-414
16,-9,-71,611,-362,-11
37,-5,-45,-85,-202,-94
43,-11,-60,-56,-36,-121
47,-6,-58,94,-85,16
52,4,-84,-191,83,-43
64,18,-90,134,11,25
88,47,-112,-183,115,52
88,61,127,-13,27,-156
96,46,-116,-37,14,82
91,65,110,39,-1,-155
111,75,121,-248,7,-52
106,67,109,2,-101,51
115,93,116,-234,17,-137
123,99,109,-121,-131,-32
122,-77,64,-425,-166,-267
-62,55,93,-1990,-107,-2298
-47,65,-124,-1422,-5777,-5363
-40,17,-103,-6655,-7070,-7753
-104,-25,118,-4383,-4238,-7731
-102,41,119,-4468,63,-7031
47,-1,-3,2283,-5061,-1940
-125,8,-32,-1917,4186,1790
51,59,-51,375,593,2534
-11,78,-64,940,2307,1254
13,5,-49,410,2833,3178
85,117,35,-388,2604,2544
-31,-95,8,645,1413,3173
-54,125,13,554,2277,3327
123,-14,55,-1584,2802,2567
90,8,5,2648,984,3927
-29,-60,118,961,1088,2516
-72,42,51,640,1150,3090
-67,57,111,-829,963,2116
-68,-61,115,265,464,2646
-59,-115,-65,541,631,2338
-58,51,-105,1443,745,2296
-48,-128,-86,-1744,307,1918
-72,-64,-62,-2191,-149,1692
-123,-56,-65,244,-482,997
79,-82,-64,1791,-412,334
36,76,-63,1637,45,-96
29,60,-63,227,-53,151
47,48,-79,-202,-64,-49
62,16,-67,424,-136,-101
64,28,-73,-196,-4,-243
70,-19,-80,-12,46,-175
68,-2,-84,-78,-152,132
95,24,-87,-163,-18,-151
96,37,-95,-230,-12,-138
95,22,-88,178,9,-14
102,32,-100,-104,89,-53
110,48,-120,-178,-64,65
122,80,-117,-123,17,26
127,78,115,42,-81,-22
-121,98,123,-241,-32,-62
-123,90,-125,-11,-125,42
-10,16,48,-2691,-5612,-5962
41,-87,71,-2065,-6195,-7777
-63,21,26,-3183,-5278,-6921
-49,-117,-16,329,-6235,-6641
-70,-18,109,-1960,-2982,-1453
80,86,88,-1893,1267,2333
118,61,-49,1486,3296,1161
-23,127,73,-807,2771,3396
114,93,60,-224,5047,1970
-102,36,-88,872,871,3774
28,-102,-88,-227,2122,3330
45,52,-19,642,3472,3398
-82,-107,-92,1993,872,3094
-74,-6,65,840,1690,3759
-11,62,-8,-436,1830,2357
60,-53,27,11,1455,3225
16,-69,104,182,816,2754
8,121,105,1074,399,2954
-14,-73,-111,139,620,2213
-80,-126,-119,622,467,1797
124,-115,-89,746,30,1267
63,-67,-86,-181,-172,319
62,-116,-68,35,188,-383
51,39,-63,747,-333,-114
47,28,-54,-423,157,-277
49,-7,-74,81,-26,-124
65,-12,-87,265,-468,-332
72,1,-58,-172,-226,-301
69,-19,-54,-71,-73,-313
84,-30,-54,-267,-211,-69
73,-23,-54,-217,132,41
82,5,-81,126,-53,-20
114,36,-110,-192,133,47
116,46,-126,23,-124,55
122,54,-121,-211,98,101
115,79,-120,-151,-13,102
-126,90,115,49,41,-92
-123,89,110,-1,-7,-42
-116,75,111,-142,-184,76
-107,114,125,-382,54,-49
84,-12,-26,-1774,-4256,-7518
47,-104,-34,-2838,-6621,-8391
-114,7,-14,-5604,-6074,-9837
-107,93,70,-2785,-3007,-7991
69,-108,100,533,-6281,-2782
-90,-47,-69,-968,-1021,317
30,76,-17,827,1080,1616
109,-46,110,-40,3786,1253
-34,17,95,-36,4175,3727
15,101,25,4,2517,3278
27,-11,-54,1750,1592,4864
-27,-14,20,35,4260,3793
64,-25,-58,853,1624,3062
118,-70,-84,381,1606,4110
107,116,-31,1436,722,2981
89,126,8,39,704,2479
15,22,72,158,940,2048
-12,-107,127,1482,514,2059
-51,121,105,928,570,1886
-68,-99,112,-574,272,1336
-114,122,-85,-106,306,1153
-128,-112,-91,147,-256,751
111,-81,-93,-91,-130,202
105,110,-80,1008,-359,-20
96,55,-84,880,-484,-230
66,62,-78,-1036,-33,-511
97,14,-87,-100,-161,-232
106,-6,-69,-185,-192,-100
110,29,-77,-131,-158,-125
113,18,-84,-282,-160,-212
110,12,-97,21,-311,167
124,54,-95,-286,106,-231
-128,57,-119,-169,-106,78
-128,94,125,-284,-102,-21
-112,85,122,-1,-32,-107
-111,122,113,-365,14,19
-112,-124,100,-66,-148,-104
-99,-110,96,-227,8,-290
-95,117,105,59,-132,-118
-97,125,112,-35,23,-207
-55,-48,54,-287,-3047,-6933
45,92,-128,-2896,-5446,-8559
-67,71,39,-4303,-8495,-8479
-117,48,21,-3243,-6115,-7181
42,-49,24,4165,-10458,-3646
9,-26,-15,-4113,1244,1046
95,75,33,1150,1730,1798
-70,-43,-89,1426,3922,1811
76,-63,-95,732,4596,3241
-95,-42,-34,-832,2439,3403
-54,91,118,1748,1980,3962
114,-21,-91,-597,3880,4343
83,-59,-87,1256,1246,2863
33,-9,-33,290,1883,2795
-31,114,-30,445,2120,3096
46,100,68,490,434,2538
29,47,89,282,1048,2440
-1,-86,112,776,371,2427
-11,-57,-128,366,174,2111
-68,-74,-122,3,105,1641
-98,-62,-123,-951,-299,1074
115,-47,-103,-1948,13,380
100,121,-61,541,41,234
89,102,-87,1378,-473,367
96,-106,-83,-196,39,-204
87,81,-99,400,-187,-196
94,62,-99,29,13,-250
97,48,-108,225,-190,-222
109,45,-96,-29,-96,-28
114,69,-107,-271,-99,-271
117,51,-101,102,-153,-111
124,69,-107,-8,-12,-207
-126,65,-111,-40,-86,51
-121,88,-118,-164,-3,1
-114,105,-121,-74,-73,-49
-103,109,127,0,45,-31
-102,125,120,-169,-64,-55
-94,-124,116,-222,-23,-49
-91,-115,109,-4,-105,-131
-92,-108,113,-23,-144,-170
13,-61,-90,-1788,-3162,-7259
42,66,-36,-180,-8755,-9823
-83,85,12,-7121,-6589,-10264
-47,-88,87,-6313,3353,-6148
-93,63,6,3732,-7707,-1316
33,110,72,-1910,3288,1032
81,26,-76,1262,972,2417
-16,82,87,241,3357,2041
80,54,87,1062,2409,3215
106,-50,58,-795,2894,2983
-1,-105,-76,1012,2004,2911
41,-114,-40,355,1674,4258
98,-86,-40,151,2675,2743
10,-111,-76,550,1030,3868
-28,-66,8,330,1178,2816
37,-69,39,584,876,1272
-13,33,-115,-313,2031,1599
-34,-74,120,1077,554,2882
-24,-109,-95,553,97,2673
-25,-72,-78,-388,207,2412
-69,-82,-66,133,-190,1768
-122,-67,-68,77,-45,816
116,-36,-76,-19,371,-869
113,115,-82,66,191,-462
82,54,-79,341,-791,264
82,42,-44,-115,-387,-42
101,55,-37,-392,-36,-345
108,16,-54,313,-248,-198
115,30,-56,-59,6,-109
121,26,-78,21,-142,-49
-127,59,-86,-263,10,72
-118,63,-107,48,31,-110
-114,80,-110,-32,42,-9
-109,89,-115,-112,-99,-40
-105,108,-115,-199,15,-95
-98,116,-114,-24,34,-124
-90,-116,-128,-179,-106,-234
-85,-115,-121,-297,-9,-191
-86,107,-109,320,1,-86
-80,-117,-116,-177,-23,-261
-29,36,50,-637,-2960,-6623
0,-90,-96,-122,-993,-9165
82,-57,-1,-2083,-5320,-9224
13,-48,-117,-1656,-5858,-8329
69,48,5,-2915,-3921,-4589
88,108,8,-1066,-3162,-2580
23,37,34,986,-746,-730
115,101,-2,-508,1832,807
112,-47,-57,682,1130,2278
-34,4,5,189,2805,1835
85,13,121,571,1937,3169
-66,40,4,316,1468,3662
-14,63,54,1153,2721,3554
109,-103,-12,337,3000,3308
-46,-85,24,823,1758,3118
-33,97,-14,-157,1015,3340
4,60,34,-695,2071,3240
29,40,93,132,-96,3525
25,65,-127,-420,613,2603
-10,-80,-128,1052,165,2871
-24,-84,-95,949,56,2722
-62,-73,-124,580,118,2024
-111,-29,-102,-26,-126,1192
77,-69,-97,177,-269,375
37,85,-81,1161,-405,-251
17,55,-52,34,-31,-192
23,21,-77,265,-342,-280
39,24,-57,-359,-236,-404
64,-22,-68,91,-179,-440
49,-39,-67,19,-179,-209
52,-33,-76,-138,-86,-152
65,-15,-86,-298,7,52
76,7,-94,-78,-5,170
95,51,-116,211,122,-75
96,59,122,-95,6,-68
102,54,107,-47,-32,26
110,73,106,-19,-88,-109
118,73,114,-67,-64,-64
117,89,113,-307,-79,-38
125,96,122,-88,-5,-114
-102,-22,-35,-2824,2695,-10364
48,-78,-97,-2853,-4474,-9092
21,21,16,1573,-3726,-10729
-65,-66,60,-3832,-4661,-5428
-61,-67,-30,651,-3254,-4526
-103,106,-34,-1338,-292,2434
60,59,-104,658,2914,2210
-45,50,33,940,2262,1892
38,-63,119,1313,2225,3396
-100,50,45,111,2511,3684
17,-91,109,1801,822,3324
104,115,0,716,2152,4278
121,-103,-33,679,2498,3575
5,61,14,2412,-1997,2829
-102,121,104,-1269,2040,3168
-86,107,61,-277,1504,2030
-34,51,-93,408,971,2903
-81,26,117,949,-492,2016
-85,-61,-87,-158,1250,1761
-124,115,92,883,108,1762
110,69,124,406,470,1761
104,48,124,738,-92,1593
73,94,114,369,-753,1169
98,-60,-83,-911,350,465
59,114,110,1080,-150,-1045
50,31,-119,749,-182,-534
29,-27,-114,-21,-145,-457
55,-7,-105,-331,-326,-174
63,-22,-96,-133,-36,-201
72,-28,-104,-80,-81,-211
74,-9,-114,-119,-176,-77
81,-4,-105,-197,23,159
93,46,114,-171,-20,-110
102,49,119,20,-92,107
105,72,106,-172,108,14
118,105,86,-122,-89,-145
121,106,91,-231,-51,-148
-124,-124,96,-629,87,-338
-128,84,103,335,-36,-141
-114,-127,95,-199,-3,-267
99,-74,40,-1845,-2582,-6381
64,-121,-40,-2421,-1964,-10461
36,-51,14,-1126,-9428,-11914
-41,-13,120,-4452,-3950,-8042
96,26,-62,-3068,-698,-4044
48,-73,52,72,-661,915
-78,69,-112,-226,1481,1883
57,-3,51,1351,881,1935
-44,102,1,666,3137,1887
62,-125,120,-153,1947,3135
66,125,16,561,1357,2805
26,-57,-33,403,2146,3063
8,-53,13,573,1913,3031
106,-35,2,263,856,2329
-116,102,53,162,1530,3376
-88,-112,78,377,647,2162
-22,79,95,171,819,2979
-28,68,-124,252,713,1803
-33,-44,119,743,206,2038
-59,-108,-73,267,421,2186
-61,-94,-113,-1,182,1711
-83,83,-74,344,180,1750
-103,39,-74,1041,203,1827
-119,22,-92,633,196,1444
114,3,-67,428,-82,1585
114,61,-56,-558,121,1334
86,-102,-101,-545,-442,289
71,102,-86,420,-348,-437
57,22,-67,605,98,-550
54,-31,-79,287,-113,-348
66,-19,-88,-166,-142,-263
70,-42,-90,105,-138,-296
83,-18,-93,-178,45,-161
90,-19,-107,-97,-98,-72
99,5,-109,-193,-33,-82
107,28,-116,-137,-88,-125
109,19,-122,85,-61,-54
122,57,-128,-296,4,-117
119,51,122,-49,-160,19
127,56,119,-13,26,36
126,17,-110,2067,-1017,-7736
72,28,25,-1932,-1433,-5548
-102,-66,-93,-9725,499,-4285
91,-10,58,-40,-5012,-8704
3,-75,57,1727,-654,-8275
25,85,7,-164,-2772,-4846
21,71,127,-4154,5101,3932
104,25,62,-3796,3434,7117
-21,-93,-19,1023,1706,8151
33,11,74,-1355,1398,1849
31,-71,5,1719,4185,1098
92,-94,10,4438,-1503,5099
107,23,-25,-472,1863,6950
-102,-77,-38,-525,1643,8479
100,52,60,-6514,4392,9900
65,10,-120,1737,-6144,5268
-14,16,83,-8611,-457,6852
93,74,64,1702,-2796,3378
47,-42,120,-2878,1902,-8481
102,42,-48,-657,3117,-4438
63,17,1,898,-679,715
-16,-56,91,-851,-1092,502
-38,-72,39,-319,859,83
73,-1,-101,-60,-942,404
117,18,-46,407,-689,499
-126,42,-28,-259,857,-51
91,8,115,360,-142,-344
98,-16,101,-512,716,-438
111,-33,92,-189,29,284
110,10,84,-333,-36,98
127,10,106,-320,-60,-165
-118,-6,-118,-245,-79,75
-122,8,-106,-75,1,67
-107,-3,-120,371,91,-27
-113,-6,106,239,57,-16
-121,-1,93,-224,-81,18
-103,-12,100,-46,-67,84
-90,-2,102,-209,-20,22
-87,4,106,-275,-21,-44
-89,0,117,-242,-14,-60
-124,-56,-62,4942,-1057,-4419
-35,101,-48,64,156,-7033
-18,-25,-83,2026,-2133,-6397
-105,-117,84,-9164,461,-10636
-98,-28,-118,1286,-5795,-10743
-82,-84,58,-1130,-4137,-9158
84,119,-14,-2335,1465,-5385
-50,-46,86,-1489,2504,8825
-92,-35,78,-5835,2358,10656
108,7,26,4811,-3614,7057
94,-11,115,-535,6233,-3195
110,-110,-67,9286,-2449,2562
12,126,-75,1274,834,4611
65,127,91,-543,2654,6829
31,59,116,-2850,1512,9103
-50,48,-125,-7428,-2075,9878
23,-25,-23,-8370,-3105,6435
96,-117,-34,16710,-11667,265
-115,0,90,-3135,8143,-6756
66,73,-20,-1766,3570,-1790
2,7,-40,-763,2312,-515
-70,-75,103,2723,-4998,-136
-15,104,90,-1211,1941,322
71,-75,91,-1218,785,1214
61,15,-112,-310,-2287,1331
-111,91,-29,440,421,196
-125,48,-61,49,364,-814
93,-18,69,-1353,773,-691
93,-25,85,-1139,505,-347
92,-35,75,-245,17,101
101,0,95,-398,-226,208
123,29,122,-363,-144,255
-117,38,-125,-264,-34,114
-108,46,-128,-290,111,-63
-105,32,118,-86,146,-105
-105,28,107,-194,144,-26
-103,35,96,-349,124,7
-93,40,90,-391,100,-29
-86,43,96,-399,47,-40
-83,41,104,-292,1,-25
-36,57,117,5088,-559,-6028
102,23,71,1745,-1104,-6793
118,121,26,-4417,-236,-9404
27,-8,65,-6845,-2716,-14256
-64,80,28,380,-4748,-8597
88,6,-37,3479,-1995,-3460
33,-50,116,1940,-700,2085
98,-41,75,-8669,7289,8581
-85,69,-118,3231,1754,13312
-66,-68,6,4565,-122,-3006
-93,-25,-72,-3661,8581,-351
102,102,-78,2968,-1094,3095
-70,63,50,-612,540,4848
40,-103,122,-3817,1133,6339
-17,-124,100,-4581,348,7743
-107,-104,-115,-4292,-3883,8305
29,47,-72,-3422,-3632,4621
123,-57,114,4034,-5680,1455
8,14,14,-592,8259,-2353
79,42,46,-1529,-767,-3204
61,67,-13,-3432,2996,-500
60,-45,118,-1190,-583,-1359
43,-121,90,-14,86,-597
56,127,61,-275,1233,317
73,-24,100,169,-1007,518
94,-12,125,-706,-289,301
-118,10,-117,-1109,372,213
-117,27,-107,-838,-195,71
-120,32,-115,-639,78,18
-126,30,-98,235,-517,70
-120,30,-105,160,28,151
-110,47,-121,-94,64,23
-103,45,119,-213,157,-46
-97,29,104,-183,170,-110
-93,19,104,-140,29,-10
-87,18,102,-261,33,-79
-83,13,99,-412,-8,7
-80,33,-123,-570,-28,234
-66,46,-119,-168,232,58
-69,41,124,195,96,-99
-89,-126,-43,-9882,-3418,-6338
-100,109,-123,1137,-7247,-9447
-11,-122,-93,-1078,1523,-4719
6,-45,-123,3499,-3105,-1284
-12,61,75,-4849,4463,8184
-19,71,78,3098,3797,8092
104,-34,46,2239,3466,2520
-20,-81,-87,1917,6073,-1534
72,-112,31,3480,-2682,2803
117,10,-58,-3884,4899,3434
120,125,-111,-1697,-213,6489
-89,-76,-60,-5089,1582,7966
48,100,88,1838,-2627,5690
-39,-53,-37,-8920,468,6006
-114,23,-10,-390,-4161,3509
102,24,3,7646,-6350,3378
68,30,-26,-5172,6584,-6143
-63,-51,8,1131,-1464,738
-81,106,105,-1087,1106,-1102
-48,101,110,-129,-1112,-183
-38,91,86,-1473,1090,140
1,-79,99,-749,-133,-38
70,-50,-76,839,-146,171
73,-52,122,1003,-49,165
61,-41,86,-123,99,-23
47,-70,65,-759,276,-241
56,-92,67,-142,-93,85
78,-60,99,-180,108,49
95,-45,92,-135,-83,137
94,-26,73,-408,6,-74
96,-22,69,-863,-148,31
97,-22,64,-814,-49,-88
106,-13,62,-530,151,83
98,-9,53,-316,-119,-7
113,0,52,-187,43,89
120,7,47,-57,-73,34
-122,20,45,-358,54,-57
126,8,39,-183,8,-12
123,8,53,-31,-27,-13
-117,16,32,-101,-65,-2
16,124,1,-2231,-2160,-7078
-89,-23,65,-6150,-4977,-9424
125,116,-127,-36,-8089,-11534
89,-126,24,-6600,5440,-6272
-27,-15,-50,10638,-2147,487
111,-14,63,-5926,408,3370
5,35,99,-5647,6526,8255
54,-94,72,4121,1136,10370
-9,109,86,3177,3623,-3093
-38,-96,-102,-552,3168,2279
-42,-106,-114,219,46,5274
-2,62,123,-2104,784,5657
83,87,-105,-6964,-61,6979
40,-126,63,-4939,-1512,9820
-109,-47,-126,-3768,-2593,6768
-77,-109,43,-2534,-5355,940
-51,64,61,6443,4837,-1858
-79,-58,40,-5665,2302,-4528
-19,120,56,-2555,3291,-1216
89,-103,37,1787,-1085,-607
24,-123,62,1407,-1183,-314
23,-99,51,-1361,1360,311
71,-25,89,-1042,-334,700
86,-21,98,-635,-847,954
98,47,-125,-913,-842,814
-117,68,-40,2745,-1053,111
-117,48,-55,340,944,-437
108,-3,40,-821,543,-398
112,0,52,-1131,415,-182
121,-19,44,-269,-102,311
-126,14,71,-138,-281,151
-108,37,104,-284,-180,93
-107,38,123,-266,-28,11
-104,31,-125,32,116,-57
-93,18,98,-120,243,-25
-88,22,82,-304,157,34
-92,27,72,-311,62,-32
-80,30,85,-350,112,-21
-79,31,85,-200,46,9
-61,28,92,-157,82,-5
-56,107,-118,2644,-1856,-7196
30,91,-89,-4552,-1269,-9488
47,-80,63,-7408,-5424,-11002
-3,-22,-60,1229,-5044,-8290
94,-107,-73,-1219,-1929,-6312
15,-115,-79,1746,5179,814
50,114,63,-2246,3742,10568
-106,-95,-93,239,3469,9373
14,63,112,1215,1799,1322
-127,-57,23,-1462,3768,-3118
101,4,-35,3844,-364,3128
117,38,97,775,569,5869
-105,-3,-73,-1453,1095,6552
-111,26,-38,-5077,1031,9159
-79,29,120,-856,-3211,8391
87,-38,-92,-4704,1144,5190
26,34,88,-2853,462,1855
-10,-60,-92,-2393,-4902,1525
24,-60,47,11699,-6653,-891
-110,-41,-78,-5035,3757,-4590
27,3,-61,-655,1460,-716
14,-124,114,-337,-642,-312
22,-108,79,-602,-6,214
67,-58,58,-1077,993,252
82,38,118,-1898,-582,-167
102,29,-97,-1529,-408,101
116,31,-40,24,317,-238
118,22,-86,182,494,-133
123,21,108,467,119,12
-128,27,99,9,106,-27
-112,24,89,-273,331,-73
-106,26,85,-227,-41,12
-105,28,90,-276,-21,-29
-97,34,108,-290,-66,-16
-95,40,120,-457,3,-41
-89,45,-120,-372,-21,24
-82,44,-115,-172,107,-5
-75,44,-121,-43,73,54
-64,44,115,-98,152,-29
-61,39,103,-31,12,10
15,56,7,-4478,-1318,-7078
-101,-124,-17,-4387,-4412,-8627
-109,121,-59,-325,-3060,-9185
-40,-92,55,1241,-7291,-5914
65,-123,-108,2698,394,-470
-74,-77,77,-5208,6976,5171
-30,56,107,-1029,3670,9617
67,19,-8,3444,4831,7331
-20,97,-30,4145,1407,-390
-45,89,-40,-2896,964,1071
52,-48,47,-3229,1515,3271
82,-85,104,-1621,-1017,5242
9,-57,115,-2568,-3099,6740
-2,68,101,-4341,-2576,6010
-84,109,-83,-4482,-2317,6841
-95,-99,-87,503,-2454,3513
45,-75,34,-2632,-424,1649
125,-35,106,15604,-3502,399
-75,-109,-105,-3774,2072,-3320
14,68,-10,-204,694,-1418
20,-67,-75,-3437,1615,-1501
49,94,58,-144,671,735
55,-107,22,184,809,1095
105,-12,66,-1117,-257,794
-102,31,91,-1758,-66,555
-75,57,108,-1168,-180,63
-88,73,120,-1120,-74,-576
118,85,-66,-1640,-412,-1003
127,-66,82,1790,228,523
113,46,-30,311,-3,180
-93,39,86,509,-45,307
-83,57,112,-200,182,-183
-80,35,94,-771,484,-100
-89,23,76,-145,-232,55
-87,28,95,-83,-200,-12
-75,49,-128,-690,-33,-117
-77,45,-112,-772,87,-81
-79,34,-97,-100,-227,74
-74,33,-92,303,43,155
-60,41,-113,325,35,122
-66,105,-23,4283,1655,-5001
110,-66,75,6299,-233,-7231
75,74,-98,-1399,-1919,-8262
86,-26,46,-8614,-3429,-9222
-75,92,29,1250,-8354,-7280
14,-17,47,454,-4327,-6973
51,-44,-114,1531,2066,-2023
-6,30,84,-3018,3201,3813
19,-97,104,-4741,6511,9619
-89,-83,-110,2946,4024,8418
76,52,-12,2415,770,-2525
57,-60,-47,-864,2853,799
-43,-76,-9,2118,-1771,5245
-3,-97,-99,-795,-275,7005
49,57,-84,-150,118,8443
8,74,27,-4185,3614,10093
-52,44,-39,-1637,-1332,7353
67,43,-34,-6386,-1212,4456
-96,68,62,19938,-15083,5505
99,95,-52,-8372,10607,-8824
42,-23,54,-4065,3346,-1346
44,-95,55,-1775,171,-1571
43,63,30,2607,-2254,1108
21,103,70,1970,237,1033
64,-59,117,21,-288,247
-119,-61,-118,-1904,176,99
-93,-52,104,-2422,664,-15
84,-9,-127,-2183,-797,-637
-4,-62,-11,454,-2598,340
76,-12,-26,1958,1789,9
88,-59,114,1580,47,490
-117,35,109,-2873,1258,-224
-80,10,64,-2703,1582,16
-95,2,40,-634,333,74
-117,3,70,654,-731,123
-101,25,95,407,-606,124
-84,49,125,-519,-133,-66
-81,54,-120,-1238,118,-204
-86,54,-102,-1185,95,-222
-93,46,-74,-401,-75,12
71,12,16,978,1887,-7252
14,-71,24,2462,-1670,-8125
114,86,10,-1069,259,-9136
-95,71,-20,-3628,-7138,-5379
70,-6,-44,-4697,-4833,-6999
-125,7,-78,1314,-4532,-8069
91,-84,-86,1050,3227,-1137
25,-18,72,1880,1269,2579
87,-13,66,-5444,5493,6380
-41,54,51,1536,2986,7953
59,30,24,1072,3098,-3116
-112,-100,-101,990,4744,1546
-102,24,-31,1896,-611,2842
-84,7,-113,-2755,2660,4416
-10,122,-70,-2626,306,7392
-48,88,-69,-3445,888,9386
-113,-29,-97,-4309,-2136,10047
65,118,66,-4636,-1110,5336
-30,-123,-81,-2746,-2407,3587
113,8,-31,8687,-8209,6771
-66,-39,98,-6584,3281,-6008
117,72,27,-6921,5634,-5321
-88,92,-65,-2199,5580,-2669
64,77,3,4748,-3715,1877
-11,-84,18,3357,-1828,1016
43,0,83,185,-529,113
96,2,-118,-1428,-5,-323
109,0,112,-2668,899,-626
101,34,-94,-3180,24,-983
73,-22,-50,-681,-1192,31
55,-17,-3,815,-11,378
93,28,-82,1180,668,365
-127,49,96,384,479,213
-113,67,88,-1142,482,-73
-103,54,74,-911,268,233
-102,63,86,-256,-152,112
-91,77,96,-487,-2,-22
-89,87,121,-624,-228,-143
-86,98,-89,-1116,-129,-122
-91,75,-54,-146,114,157
99,-22,6,4493,-215,-7466
-24,-74,33,-1132,-2186,-10539
48,27,-28,-5456,-7647,-10511
119,70,48,-4361,-2596,-7639
-18,-98,-8,854,474,-6469
-30,25,-75,-3394,2587,599
70,19,124,-4696,5308,9423
80,-54,66,3747,3602,10638
66,-74,111,4051,-1245,-1886
126,-102,126,-3748,6031,1662
-91,28,-91,1517,-1326,4466
28,7,-65,-1066,-1151,7051
86,-75,-95,-300,-1293,8939
73,86,-118,-1317,725,10167
-120,87,55,-4662,86,6703
18,-29,-43,-8555,-947,4278
50,18,32,29464,-14497,4480
1,-46,-18,-9279,4566,-8544
99,-25,114,-5444,4652,20
0,14,-103,-2201,3167,554
-68,51,-50,7807,-5956,-455
-50,60,-127,-2101,2284,285
64,-112,124,-2679,1005,139
71,-65,-102,-2293,-909,244
79,-46,-91,-800,248,6
96,-22,18,-295,742,-535
79,-85,-117,805,48,-125
108,-60,108,154,-2,86
113,-42,101,-295,275,-151
107,-52,84,-414,311,-174
124,-61,84,-155,-137,148
-128,-42,89,-185,-205,199
-94,-12,98,-176,-393,302
-115,14,110,-317,-443,-213
-114,7,-107,-871,316,-324
-111,-23,-111,-214,209,123
-108,-21,116,114,226,146
-91,-5,90,64,-57,117
-78,-1,84,-111,-81,43
-79,6,88,-316,10,-43
57,-89,74,1546,-447,-8199
-2,-61,100,-192,-1685,-7515
-77,48,126,-6489,131,-6826
-70,109,-3,-2765,-6986,-7808
92,-85,-73,122,-2519,-5906
-109,-64,-98,3042,-2853,-3543
115,-127,-127,-2101,1105,-267
-35,61,59,-4080,6796,6680
6,40,51,2921,4288,9371
-90,63,51,3468,3836,-717
-83,68,-20,518,2739,2622
30,-128,0,-163,225,3054
-85,6,-5,-3926,1467,3256
-5,66,-46,-5772,159,6287
-121,87,-100,-3531,-1935,10354
-101,20,-88,-781,-3109,10603
3,-72,125,1347,-810,4162
59,-105,-71,392,-429,3787
-21,-33,40,-3130,598,376
21,-46,-17,2894,-1610,-2778
18,-98,-86,-805,2111,-1443
-60,-84,-106,-595,-106,-1595
65,116,70,-2390,1475,-95
58,-77,82,-870,330,-328
80,-42,99,-1581,870,-499
93,-27,96,-1484,571,-338
89,-19,117,-685,400,-589
106,-29,-127,545,-290,-421
-116,4,-101,-349,-158,-205
-119,9,-106,-899,371,-136
-125,10,-114,-85,-111,189
-108,21,-114,92,-68,199
-95,32,-119,154,-148,195
-90,47,-126,-86,27,127
-86,44,127,-39,1,-20
-81,30,115,-6,27,-46
-83,32,122,-409,-26,-19
-80,31,-126,-304,13,19
-69,34,-114,-210,6,-20
-65,34,-115,-106,28,-59
32,74,29,6350,-1329,-3899
39,-110,107,724,259,-6520
-32,-25,126,31,-297,-7652
-12,3,72,-2764,-2211,-8032
90,102,-66,-6043,-7958,-9839
-110,-90,36,-2727,-6924,-9701
63,126,120,-44,-207,-7437
-17,93,-82,1652,2836,1674
-52,-37,68,-5433,5651,6358
-126,-8,-33,1721,4389,10224
-57,125,99,3134,1595,3258
-14,-68,-111,-880,3098,-1075
124,108,-20,194,-1556,4580
-48,-19,96,31,47,6395
-39,-106,-83,-4100,1044,7788
106,103,-128,-1849,-790,7906
14,-50,-63,-1724,-1863,6943
-117,35,-73,-4681,2349,4918
60,-62,-126,-3714,-374,2532
61,-35,-13,966,-5059,653
-95,88,-1,11604,-5685,-636
-118,32,31,-8177,4905,-3858
43,63,-26,-538,2123,-1138
38,67,38,1938,-1110,629
7,-93,92,-961,-228,62
57,-72,88,-981,589,95
80,-46,-116,-642,-177,-30
107,-9,-104,-1441,641,-338
107,-30,-121,-693,319,-386
101,-58,125,147,-13,-37
93,-31,96,399,-530,75
115,-23,101,301,-203,154
126,-11,98,118,-281,109
-125,-2,97,45,-302,133
-106,19,-125,-438,268,-200
123,5,-120,-528,-204,-181
-122,-50,122,1066,-172,234
-83,-20,92,-24,715,23
-84,-7,66,-1388,665,-322
-96,-42,47,-190,-363,16
-128,79,24,5319,-2386,-8803
63,-82,-121,460,-2491,-9485
95,42,-37,393,-3468,-9013
-32,65,40,-2590,-8436,-8279
15,102,-77,-731,-2681,-5721
9,-90,-128,6547,-1242,-698
77,48,111,-7045,1826,219
-60,121,54,-1664,4680,7360
86,-87,-101,2045,5065,9482
21,65,59,1814,4966,3721
12,89,-101,77,651,476
70,65,64,-2061,569,3492
-6,-123,-118,-2784,1534,4330
-12,50,-118,-5253,-1340,7115
5,42,111,-3102,-3023,7421
81,-51,-94,-2370,-2815,6119
-49,-70,-54,-76,34,2439
-91,-4,-28,-2968,-117,1206
6,80,-96,2473,-4763,2145
77,69,-99,-511,3530,-2595
103,52,32,-714,66,-2144
27,75,-17,-1515,1712,-421
22,-90,53,-900,412,-838
51,-93,64,-354,-159,-157
87,-18,122,-1585,-82,208
93,0,-106,-572,-730,355
96,5,-91,435,-428,443
111,31,-77,682,63,5
123,16,125,201,187,47
122,20,88,-606,239,-30
-125,14,81,-511,96,-14
-124,5,84,14,-157,84
-120,23,101,-407,-18,-38
-111,18,108,-300,5,21
-109,21,114,-211,24,-14
-100,19,112,-163,57,17
-96,19,103,-155,62,22
-91,18,91,-73,-11,27
-86,18,90,-131,-22,45
-83,27,94,-205,-14,14
-59,113,-123,3175,-1534,-6145
-124,-42,66,-2522,-897,-10540
73,-50,32,-5367,-9344,-11396
-79,117,-120,-4306,-3870,-9159
22,-73,-48,6537,-5373,-4824
-79,-112,-119,-2281,5923,4652
-7,3,66,-5619,4199,9375
109,-51,96,4254,2487,8703
-29,-20,95,4199,4621,-1193
-51,-69,-35,3479,-1091,2528
105,77,65,-1322,-9,4302
91,-5,-112,-3113,1227,5525
-37,103,121,-2739,-167,8273
97,-59,122,-2905,-1854,6920
-83,-26,83,-2578,-509,5332
23,-112,-105,-994,760,4020
-53,-127,-106,-1193,-724,2263
31,-92,-123,-762,-4075,1343
120,-62,-35,14551,-5724,1059
-110,74,-124,-7288,3768,-4646
64,19,-40,-2005,2329,-1109
61,112,52,587,191,62
40,-109,53,976,-885,-99
69,-88,94,-228,-307,444
99,-29,-98,-1071,-473,87
104,-22,-92,-1173,87,-13
117,-25,-105,-586,332,-100
113,-22,-109,-197,77,36
117,-20,126,334,24,57
126,-11,116,-29,62,16
-114,-5,107,-360,79,37
-113,-6,104,-248,59,-7
-110,-5,104,-161,-48,24
-104,2,110,-176,-16,-17
-90,-8,110,-94,-45,0
-86,8,126,-358,-47,94
-92,16,125,-143,130,-133
-87,-7,115,149,-17,-20
-76,0,113,-304,86,81
-72,4,105,-150,89,11
-21,78,-11,-6096,287,-8287
30,-11,-40,957,-15210,-7058
-91,-126,59,-5303,-348,-7635
40,94,-89,8674,3106,5907
-126,-99,103,-7183,2265,830
98,-125,62,-2560,4640,6367
25,37,-6,3802,5444,5394
-103,117,-55,2616,3261,-736
29,-123,-31,-38,5,1695
-65,-8,55,-604,2030,3848
-82,-43,-63,-1790,1322,6331
54,-6,-69,-3900,732,8206
-128,115,103,-2596,-2105,9930
8,-65,-42,-3477,-992,7378
-93,-96,94,-4567,2121,1921
124,-93,-104,-2791,-1791,-36
-88,3,72,8995,-2611,-988
102,-13,52,-1821,1206,-2900
-11,23,-21,385,476,-503
27,126,-115,361,288,-434
3,100,117,860,-276,-263
45,121,108,-1063,1045,155
78,-104,110,-1256,252,277
91,-90,97,-723,156,372
113,-67,103,-466,-103,285
-124,-47,117,-462,-79,220
-127,15,93,-2032,-425,-383
94,-11,127,-790,-941,-89
109,-23,3,2221,-425,324
123,20,-50,391,644,15
127,-17,83,3,151,18
-111,-37,84,-279,363,-273
-108,-47,81,-400,219,-39
-106,-47,84,-232,-5,10
-113,-41,88,63,-161,57
-100,-34,98,-57,-62,70
-93,-26,102,-243,-138,98
-85,-17,112,-414,-49,110
-75,-6,-128,-312,25,38
-80,-9,123,0,73,-3
117,69,105,2207,4575,-7193
80,-17,94,7522,-3899,-7488
85,-84,-36,-5259,-4577,-9493
8,83,68,-7450,-4715,-10630
109,-62,51,-3692,-1786,-10471
109,-46,102,2911,-3565,-6623
99,-9,127,2125,1658,-721
-15,74,78,-6376,3016,7489
-71,107,85,3079,3375,10823
21,95,2,5998,4375,3890
17,108,89,2233,4596,-533
-80,-126,-18,377,932,3419
-89,-62,-102,-2294,1316,4265
113,-3,-78,-5270,388,6483
124,-69,-108,-4863,394,8739
8,21,69,-407,-4262,10357
10,-29,118,-7262,1287,4371
85,75,-115,-4458,4,-172
-3,-106,37,28150,-14051,4121
30,-13,32,-10444,7039,-5213
10,66,102,-1297,2552,-1926
60,-102,96,929,-1239,-974
45,99,70,1407,-989,275
29,-115,61,-86,910,599
66,-26,104,-1426,-12,269
119,-15,120,-1615,25,560
-112,14,112,-1681,179,453
120,26,126,-532,-1296,393
100,30,-93,805,-1091,-168
-125,42,8,515,1160,-315
108,-14,97,623,-34,34
-128,12,88,-570,370,-37
-115,8,83,-832,350,-8
-106,1,75,-339,212,109
-102,13,77,-65,-204,106
-96,26,96,-210,-131,-92
-86,22,118,-399,12,2
-83,27,127,-379,77,-22
-82,22,123,-131,61,-30
-78,18,116,-36,37,51
72,-8,119,1098,2458,-8754
52,107,-36,1844,-74,-11469
-11,103,-84,-1690,-5161,-9761
-35,-80,-72,-2519,-9285,-5367
-37,-120,-36,-2796,3530,-8722
-59,-94,-82,1642,1533,752
113,99,75,-1510,-1873,2490
-67,27,69,-6268,5213,5934
124,-82,74,4120,947,11195
20,-18,-103,6127,4750,-636
-51,92,-87,-1908,3418,2018
79,10,31,1368,1980,4162
87,-32,-36,-1897,2441,5935
-44,-30,-119,-7102,2121,9672
31,104,80,-6665,-4203,12846
9,5,-23,1514,-7665,6472
-115,0,-58,-4134,1712,-2900
-90,38,77,-9369,14348,-1720
91,78,-107,10793,-9574,-276
-116,107,46,251,1197,-3191
55,112,-58,-846,1758,-1748
58,14,-128,611,247,1098
22,109,61,-1414,1040,1189
56,-52,64,-3088,844,817
-125,-14,85,-1322,-630,1077
-105,10,100,-601,-522,1116
124,73,127,-152,-674,-39
113,33,-49,1459,8,-856
110,-26,-92,512,126,-259
93,-45,82,263,-173,-173
122,-30,96,-558,287,-14
-123,-15,90,-986,379,-148
-124,-27,75,-484,137,-163
-114,-18,98,-408,-29,-62
-109,-5,100,-346,69,-79
-108,-8,98,-267,-19,45
-97,1,105,-159,-69,100
-87,11,103,88,-20,9
-82,12,98,-72,-57,0
-79,14,98,-140,49,-117
-122,-13,118,2212,2413,-6068
114,61,-64,7897,-2290,-7430
-128,111,15,-923,-4976,-12803
-70,-115,26,-12383,-18675,1514
-77,57,83,-8418,213,-7007
30,103,35,4308,-1096,-5585
76,80,-107,-3650,2679,-1904
51,-22,67,-3503,5098,5333
68,38,-76,-694,4168,10958
-34,-6,-69,3681,2533,944
32,27,74,-932,2154,-421
100,-86,-21,1247,-435,4092
120,21,-116,-1312,1122,5714
-30,12,-50,-2320,216,7582
-112,93,-61,-3308,22,8651
14,117,7,-3111,-3825,8761
-62,91,-120,-478,-977,1732
14,-20,108,-2387,1136,4695
-114,-33,37,-6917,-1753,565
-126,59,67,24848,-11649,3529
127,79,-100,-7867,6836,-5109
38,0,109,2115,404,324
40,-79,106,-1587,-94,-356
44,115,73,-381,-426,191
55,-94,81,-723,231,471
48,-32,-107,-759,-1268,382
100,-30,-47,908,-312,361
112,-14,-61,453,600,-141
104,-35,91,-794,495,-375
101,-66,65,-642,188,-258
95,-85,74,221,-308,210
109,-40,105,-217,-238,223
124,-16,120,-434,-21,102
-124,-20,120,-246,135,-62
-124,-25,112,-147,68,-38
-113,-25,103,-258,152,-9
-113,-21,89,-270,94,-33
-102,-24,82,-156,20,-24
-99,-20,84,-266,-26,-48
-100,-24,96,-98,-81,47
113,7,-90,3733,3090,-5449
-42,-85,-47,7053,-4795,-8440
115,-43,32,-7546,-550,-10621
2,108,-90,-4848,-5107,-10382
97,-68,-55,682,-2311,-8543
43,-106,122,17455,-11178,2054
45,-112,33,-13602,5445,-6521
-112,12,55,10548,1066,6093
123,52,55,-9741,3125,-1707
22,31,82,1221,4156,9187
-35,-71,60,2604,8000,5846
-52,53,106,1357,5807,7109
13,14,106,344,2833,2189
-76,24,73,-4022,283,3228
54,87,30,-8336,2271,4510
-64,14,-2,-2792,-3357,6550
64,93,-63,-5877,-1222,5025
-107,126,43,-1318,-472,2005
98,-65,52,-4120,-1518,4
89,-22,116,11313,-6157,5889
77,94,53,-6657,5417,-5571
117,127,84,-3338,2271,-444
73,-114,-55,-1685,2782,-749
36,-81,-15,1855,-1645,-65
15,126,25,1873,-1842,19
55,-32,122,-2019,266,-66
94,33,-25,-1923,182,-162
89,-50,-3,988,174,152
51,-84,-128,2043,-811,942
-88,-56,66,1887,307,416
-116,1,44,-1069,1359,-1045
-104,-67,56,-2252,348,-1218
120,-93,61,-352,-1031,85
97,-53,110,-498,-468,81
108,-12,-117,-535,-124,349
-114,-6,125,78,-108,498
-87,19,111,314,173,87
-96,13,90,149,-207,25
-98,4,82,-336,57,-84
-94,-1,85,-389,128,-7
-17,39,-100,-2997,-968,-6648
9,44,76,-2730,-10730,-6719
10,-68,-45,-3357,-6574,-10499
46,-120,-31,1257,7852,768
5,52,87,2588,1932,4279
99,-87,59,-6955,5399,5932
-43,62,49,2812,3500,6817
2,-95,46,1717,4061,-2180
-5,126,69,1093,832,2432
98,16,-4,879,-427,3535
99,91,-99,-4083,1986,4059
23,-74,-94,-3225,1262,5993
54,111,-93,-4566,-1345,9578
58,-82,-56,-2982,-4936,10798
37,-93,119,-3038,-946,4736
-125,-105,-83,-161,-2713,-148
5,-102,-80,8448,39,-853
28,-125,112,-2370,457,-4738
34,37,-56,-2177,2733,-1896
68,58,54,99,-457,-553
-17,64,60,1014,-1761,88
10,119,-128,-1178,199,403
61,-39,-34,-1179,-871,1373
124,13,53,1435,657,86
-93,3,-73,-268,986,-124
101,-46,38,-1509,821,-643
67,-92,29,-140,-406,-59
93,-65,114,-239,-691,684
-115,-3,-93,-88,-100,543
-98,42,-94,-354,633,-289
-104,8,82,-1069,451,-448
-110,-11,88,-785,118,-266
-99,4,110,-715,183,-154
-88,11,115,-531,235,-176
-84,11,120,-311,1,-41
-87,10,118,182,-244,146
-70,26,125,203,-153,145
-60,43,120,-96,-13,45
-64,42,117,-166,1,-92
-63,20,111,-7,3,-139
104,-10,109,-1193,-936,-5428
54,40,54,-1971,-986,-7892
-5,2,94,-963,-1535,-7655
-94,-97,34,-1437,-1678,-7458
-62,49,-19,828,-2666,-6566
75,61,124,609,-1670,-4994
-77,-15,-7,1991,-2270,-2761
-12,-111,110,-1337,900,710
-38,103,-77,24,28,2273
88,-99,10,-227,740,-33
127,63,-43,836,-440,-548
93,-107,-61,-76,1419,1047
110,-65,-51,2312,2566,3699
16,83,14,-690,3435,5604
119,-96,127,-2314,1906,8293
-95,27,-1,4586,-1425,11049
-27,-29,111,-4747,3329,6741
-103,92,-110,471,-1298,8594
-79,-15,-100,-2376,317,5981
-42,-56,-36,150,-1094,-2632
57,-23,66,4194,-2003,-1310
-7,-59,73,1683,-452,-772
10,37,33,261,335,532
71,96,-17,296,-403,225
87,96,2,224,-568,-547
65,38,30,-95,-82,-843
47,-39,10,476,-95,-222
65,-15,-15,361,-156,-145
82,4,-21,31,-87,-113
82,3,-37,200,-127,-72
84,19,-46,11,-194,143
84,40,-49,47,-234,186
93,78,-48,-295,-271,280
103,98,-41,-218,-345,199
102,98,-35,224,-229,151
105,118,-35,179,-230,49
101,111,-36,199,-275,89
105,114,-35,203,-173,50
115,117,-44,136,-222,27
121,109,-43,178,-193,28
44,16,-51,-1880,-1472,-5252
-74,91,-65,-2215,-2107,-6880
55,-22,18,-1626,-2116,-6357
45,125,-111,-373,-1457,-5331
-97,62,7,-224,-1310,-4220
-33,53,113,2171,-808,-2389
78,99,-101,551,-482,279
10,31,-106,-1289,233,1332
30,53,116,-514,914,2593
-62,27,69,327,1998,4003
32,100,-67,910,1161,5602
-26,104,82,963,1258,5958
102,16,-6,2274,150,6121
80,-53,117,-1426,51,5405
-127,43,-114,-66,-599,5185
38,-97,-5,979,343,5129
-126,-14,-115,1711,183,4739
-122,-97,51,2100,-3128,2707
-65,-70,0,-9,-998,-326
107,41,14,-589,644,-390
-1,-61,-39,-37,-231,-88
9,-67,17,472,-34,-79
51,-121,15,1255,-502,410
56,-106,-11,1475,-248,-1030
70,80,14,813,-239,-1314
69,10,25,277,64,-1248
53,-30,8,-417,234,-679
73,22,-7,-1501,501,-987
80,-43,-72,-629,-526,474
71,26,-38,309,-167,135
82,59,-56,-268,-124,94
94,79,-70,-815,28,209
98,110,-75,-868,-170,276
105,122,-64,-665,-5,292
108,-103,-60,30,-231,347
-126,-63,-24,65,523,-171
-106,-54,-12,275,528,-398
-116,-54,-42,-82,-293,80
-119,-57,-14,-312,-398,390
-123,-69,-7,330,-876,674
-71,-69,77,-1218,-1173,-5191
80,85,70,-835,-1759,-5116
-25,2,108,-499,-1305,-4729
95,126,102,668,-1850,-4566
-36,107,115,3334,-2474,-3828
-71,123,123,-858,-1813,-2189
-86,-5,28,304,184,-541
107,-17,-115,-799,-28,280
-3,-5,42,-192,246,920
54,61,117,857,722,2156
-36,-42,118,1377,1991,3454
-97,28,-61,1015,2581,5267
7,-57,79,1810,2510,5759
121,-46,9,-217,1932,5974
-101,-17,-20,696,327,5551
-48,52,-59,-2280,1065,5801
104,-71,27,-1393,89,5990
-74,-3,-38,1557,-377,4624
59,31,-43,2958,-2228,680
-87,-89,90,1641,-429,-1331
50,-71,29,565,385,-709
-16,40,-49,1060,-564,60
21,103,-19,-478,-94,370
58,112,-26,-16,-348,-277
71,69,-7,480,-529,-721
60,19,18,329,-504,-742
37,-35,30,212,-356,-429
47,-13,30,-284,-173,-301
54,-29,13,-55,-212,-113
67,-1,11,-273,-81,-56
78,22,-8,-125,-70,-187
74,5,-28,316,-156,-120
62,-10,-41,217,-191,233
70,40,-56,-156,-166,401
78,53,-56,76,-252,468
88,67,-55,334,-314,546
93,96,-50,-28,-266,549
88,97,-50,198,-319,553
100,126,-42,-10,-207,513
110,-112,-46,5,-249,332
98,-23,28,-798,-1704,-6166
28,-115,39,-2128,-1580,-6528
-111,-84,64,-934,-2248,-6715
-38,-55,-93,570,-2593,-5174
89,62,46,1065,-2001,-4115
-94,72,-60,1153,-1120,-1592
95,0,-75,-771,284,-8
-33,92,67,-2175,78,335
-61,64,120,-297,-518,765
103,-128,-48,1000,847,1761
-33,-17,91,2007,1712,3594
116,43,-30,-756,2796,5078
-36,57,-7,210,887,7426
-119,119,-19,108,-395,7796
93,18,-91,-1347,-1303,7601
93,-29,27,1081,-1889,4008
97,-104,-79,-1173,-832,5049
-72,-78,99,1256,-1326,3675
-4,-66,71,2994,-1572,779
-109,45,54,3321,-747,-580
52,-18,25,519,151,172
-12,-34,-24,-167,-454,203
17,-72,16,0,-238,93
60,-74,16,160,-111,-243
78,-95,2,450,-274,-755
90,94,13,342,-125,-1046
54,24,3,347,-307,-894
49,2,15,-38,-157,-629
51,-17,9,-129,-99,-324
51,-8,-6,79,-134,-76
69,36,-25,-128,-89,32
83,52,-40,68,-168,74
83,74,-48,1,-235,145
77,98,-50,-17,-249,266
76,105,-47,111,-292,346
86,127,-39,58,-279,428
94,-116,-39,91,-307,388
103,-101,-39,23,-282,279
109,-93,-32,24,-239,133
107,-92,-31,93,-199,27
102,109,106,-218,-1782,-5403
-128,33,-62,-3992,-2765,-7128
-45,81,51,-528,-1785,-5772
17,-7,-98,880,-1757,-4931
-83,110,-15,1141,-1556,-3878
-35,73,124,975,-1153,-1030
108,28,-100,-639,470,673
-2,75,46,-597,-293,748
-73,-8,8,341,-74,662
-6,-34,62,103,-77,511
-96,40,-114,-32,808,1246
0,41,105,1803,1319,2905
-115,-35,81,777,2640,4849
-110,-37,-123,1720,2905,6562
1,7,54,-41,1938,7126
123,-88,80,-25,1134,8456
-40,-16,-6,-1914,796,6310
-115,102,45,-1402,913,7944
64,-112,-84,2075,-2542,4757
88,-14,84,127,-1839,-1810
43,-55,124,2896,-592,-1179
13,-123,65,2137,-275,-758
25,82,8,518,-259,-526
7,77,6,-1100,-574,-33
44,99,35,-1221,-321,-619
71,49,56,-714,-390,-1128
37,-48,62,-151,-402,-803
35,-24,49,-814,-199,-457
73,37,13,-904,-46,-752
94,42,-10,-501,-33,-962
87,5,-37,26,-194,-670
29,-49,-58,283,-371,36
37,8,-59,-595,-80,681
99,85,-73,-617,-233,596
109,94,-69,297,-532,290
96,94,-53,286,-578,324
74,103,-37,-93,-411,438
59,105,-43,68,-401,605
78,-112,-36,-60,-423,600
111,-87,-20,-181,-229,510
-124,-122,25,-1532,-1516,-4006
102,31,-8,-500,-2465,-3656
81,81,41,-1677,-2652,-3803
116,-67,43,-2676,-2316,-4661
118,110,52,-730,-3328,-5504
11,35,-10,-477,-2992,-5912
115,55,-113,973,-2706,-3288
-69,-32,68,-446,-640,-653
-6,-62,9,-581,1353,1010
-72,49,64,-451,669,746
115,-47,-30,964,34,457
7,59,92,855,155,548
-80,29,-45,1233,1845,1851
49,68,-112,2134,3400,4375
-51,111,33,2539,4042,6195
-12,23,82,3558,3918,6885
-72,21,123,-457,2686,5628
108,-89,41,-4314,1922,4618
61,-9,115,-3578,177,4822
-46,89,-67,-1475,-879,3773
-20,87,-5,3117,-1893,978
-73,6,70,3902,-635,46
110,-23,46,2155,268,161
-3,-38,-58,439,-49,594
-30,1,-28,-400,-261,65
14,-37,-6,-246,157,-756
97,87,-20,493,-524,-852
94,70,36,-56,-761,-869
12,42,75,80,-198,-1036
38,25,39,80,53,-768
78,26,-2,106,-184,-851
109,47,38,-825,-359,-1079
-105,40,123,-1646,220,-1009
-111,-70,71,521,799,-873
98,-109,-22,1933,196,-287
66,-54,-92,1373,-52,729
67,26,-107,40,-11,1165
82,50,-116,-271,-247,1287
-91,48,-82,-1,-403,1613
-65,69,-53,734,-529,1376
-119,115,83,-2699,-1463,-5703
-6,75,49,-2195,-2337,-7496
-128,7,-92,-1880,-2566,-6989
-88,3,-126,-892,-2350,-6526
17,-7,60,-405,-2037,-5498
26,-118,-56,498,-1801,-2472
-125,-45,9,-792,-687,389
-56,90,-50,-1366,511,1401
121,34,112,429,-689,812
-64,31,-80,1620,-118,606
114,66,-53,1829,783,1590
-68,80,105,3376,1677,3591
44,68,9,3021,2691,5411
-4,94,35,5296,3053,6996
-32,74,-47,1977,4447,7397
-86,62,-50,-4037,2895,6233
91,-90,84,-1660,513,6489
90,13,2,-1389,-2924,6533
90,8,-74,-2234,-1806,696
-27,30,-15,3107,-874,-1399
51,-17,-116,5101,-711,-534
6,91,31,1336,336,-139
-40,119,-56,-2015,462,86
37,91,-47,-2241,447,-335
117,53,-21,-1076,408,-1175
-78,-60,-13,924,18,-2102
-91,97,-7,2023,-512,-2549
-125,51,34,1140,-635,-2582
114,-41,72,93,-66,-2167
61,-80,53,-485,-87,-1365
-5,-97,31,-543,-51,-499
-17,-90,12,-154,-16,342
-14,-68,1,130,-51,1074
27,-17,-24,563,13,1855
81,20,-49,735,-121,2233
-101,88,-53,967,-149,2428
-97,-111,-57,1243,-339,2088
-97,-43,-47,533,3,1559
-78,-23,-53,18,28,1074
-107,-44,-54,584,-378,791
-98,62,-95,-1563,-514,-5371
-119,99,41,-3696,481,-8077
18,45,1,1577,-1402,-7019
-37,-25,-28,1350,-1453,-4962
29,79,42,1230,-664,-3223
-125,21,109,568,-734,301
-82,-1,-91,-310,1636,1573
81,80,-88,102,502,1607
83,83,-68,-1215,-984,19
89,-55,-100,1108,281,-231
-90,-111,-55,1041,817,1812
68,-40,-118,-32,2602,4226
-23,-83,-62,1387,2423,6266
-24,-108,29,3285,1848,8212
-52,-76,9,2739,2418,8613
80,-40,78,-1488,1546,6523
-63,-37,-88,-728,-172,7305
-112,57,52,-4619,-1434,4123
5,-58,63,-421,-1730,-575
66,92,-122,4470,-1846,-544
40,-111,117,3067,-421,391
-2,-17,76,-175,223,689
-17,13,32,-1589,-251,295
44,0,68,-1184,24,-806
79,-95,68,-90,64,-1685
83,106,47,117,-29,-2099
-80,21,41,-312,171,-2046
107,20,23,-790,300,-1558
94,-16,-46,826,650,-1916
-59,-126,-92,1091,28,-1214
-95,-63,-90,-301,-604,-340
102,17,-71,-1016,-98,-602
94,-20,-82,-297,-109,-363
83,-64,-98,955,-623,358
3,4,-86,655,-1040,1004
-13,90,-33,-156,-1091,1918
-127,-52,10,-325,-130,1512
-20,4,-28,-374,-351,600
-108,2,-15,-400,-675,28
108,-34,31,-623,22,-129
40,-118,118,-2998,-2942,-5177
-45,-21,12,-1530,-2687,-6435
115,117,107,-675,-2271,-6382
-84,-54,100,2530,-4107,-5224
11,-13,23,409,-2588,-4392
6,-99,108,71,-2218,-1545
101,10,4,-499,-25,357
-36,13,-8,-144,1011,1116
-84,-27,91,-976,699,826
-48,-7,50,467,43,279
70,80,-100,197,730,554
-10,10,-77,17,2357,2108
49,-90,66,162,2794,4446
4,88,-92,2132,2514,7274
12,-78,-120,4436,4182,7087
124,28,-10,4271,5586,6560
26,-40,-61,-4836,3569,5604
120,-119,50,-1898,-1266,5089
65,-127,49,-3729,-936,3823
0,-8,126,-1798,-690,553
83,50,-115,3393,-1374,-762
22,-52,111,3877,-447,-1043
83,-91,80,1362,368,-1299
79,66,31,420,61,-1107
83,-32,2,510,-419,-676
42,9,7,-286,-342,-781
28,-6,-5,-1103,-480,-550
47,1,7,-1656,-739,-179
102,39,24,-1330,128,-346
103,8,-9,613,153,-957
95,-33,-26,1183,-263,-893
65,-29,-30,234,-531,-379
42,-13,-10,-511,-304,75
31,-14,-27,-200,-362,627
53,23,-29,-209,-689,1004
97,65,-13,-23,-220,900
-123,90,-14,171,-123,868
121,-124,-10,175,-225,837
106,-75,-11,-57,-92,562
100,-78,-27,141,-58,375
85,-50,-1,-2115,1294,-4346
115,36,-85,-956,505,-5241
48,-74,106,126,-470,-5348
-49,-39,86,-882,-2270,-6171
-84,99,104,-830,-1804,-6193
-26,73,126,827,-3199,-5245
-128,118,40,388,-1880,-4187
57,103,-105,-72,263,-1098
73,93,60,-1116,126,1443
-90,-116,47,-1015,890,1030
111,-101,46,537,-801,96
11,32,103,354,227,-226
90,30,105,762,198,813
-34,21,115,1440,1313,2657
10,-69,35,2326,1893,4268
-67,48,-85,1718,2863,5634
98,-25,78,2270,2720,5625
-110,51,84,-1467,1599,5979
-36,-62,-126,268,259,3077
72,-2,-6,-3612,1169,3733
63,-10,-30,-1031,-548,4876
-8,25,62,1142,-858,5037
-62,30,60,2167,-852,2509
-46,115,30,2589,-1418,-139
100,-50,93,1019,-944,-744
101,78,92,-293,35,188
-65,71,2,-96,-502,958
-21,-89,30,-520,-384,684
78,-51,37,-754,-50,-231
94,-97,22,93,-271,-1471
120,82,38,259,-130,-1752
-120,-3,24,278,-62,-1952
125,-64,4,473,-111,-1686
105,-112,-18,345,-130,-1169
91,-104,-26,-6,-140,-647
88,-98,-39,-40,-93,-266
94,-88,-54,43,-231,231
93,-50,-46,-176,-266,528
95,-19,-32,-59,-111,630
89,-18,-51,506,-313,948
84,28,119,-3631,-293,-4468
-53,-38,-116,-2586,-64,-5277
-35,-93,-101,-729,-170,-5865
-56,-79,-26,-222,-566,-6402
104,-88,-29,583,-1049,-5841
32,114,-44,1955,-1207,-5225
-44,32,-5,1831,-1022,-3846
38,-11,38,2038,-1228,-1065
-82,-31,96,-372,-584,247
-4,-61,-121,-484,-28,842
-63,114,-118,-250,333,671
-47,115,99,803,-13,796
-89,-25,-98,562,936,1395
54,-49,-127,1338,1912,3323
-83,-95,73,477,2868,4907
104,119,-107,2147,3164,7151
52,100,28,2087,2567,7681
-115,26,-61,-796,301,6660
-13,-101,32,168,-194,6030
-101,69,-26,-4510,1378,4751
-38,122,-70,-3929,-1433,1976
-105,58,114,2295,-914,-357
58,-66,88,5144,-398,-797
12,-29,28,3020,108,-849
19,-88,6,730,-107,-257
-5,93,6,504,-331,74
17,109,37,247,-251,-256
52,93,50,-39,241,-291
61,50,43,-66,20,-718
68,19,26,285,27,-843
76,-16,28,30,-160,-848
72,-37,12,122,-32,-611
61,-39,-4,-62,-264,-376
60,-42,1,1,-166,-115
63,-30,-9,-114,-163,86
59,-16,-23,-312,-211,372
55,11,-29,-252,-197,691
63,37,-39,-90,-257,942
86,83,-39,-37,-306,1053
117,107,-32,203,-232,942
38,-68,-24,-1805,1462,-5562
81,37,66,322,-839,-5498
-25,54,101,-1314,-1592,-5604
-90,-45,108,-2044,-1604,-5933
65,-20,-107,-195,-1375,-5525
-120,42,-40,1396,-1597,-4660
122,-103,-12,849,-864,-3507
7,-64,23,741,-882,-1613
-124,21,48,-287,-29,224
10,-14,6,-145,-456,696
-71,-15,59,-423,-165,365
-25,-8,105,342,-221,317
64,3,-113,57,87,215
-126,-125,119,368,445,645
-31,-41,104,445,957,1612
75,-1,69,544,1712,3444
-85,-87,-13,873,2009,5713
83,-40,119,1505,1608,6949
44,126,82,807,1548,6790
10,-78,-122,-1167,596,6847
-39,18,-67,514,-524,6023
-26,123,75,-2266,-21,4832
-14,-30,49,-2180,-694,3227
-113,-115,100,1876,-2029,-547
108,-62,-109,3378,-622,-870
-10,-120,72,1359,-273,-233
-58,-117,48,-67,-257,262
-32,-109,59,-291,-218,82
43,-112,76,-210,-81,-511
75,118,84,295,39,-1238
102,12,71,877,-5,-1627
107,-34,54,501,79,-1533
82,-89,21,181,-1,-1146
67,-99,8,-157,4,-580
53,-100,-18,-85,-79,-136
44,-74,-51,-166,-274,344
54,-32,-55,-487,-398,663
66,8,-42,-556,-487,963
73,39,-4,-193,-481,1111
97,34,23,1141,-152,1169
-103,35,-125,-4974,760,-3802
-17,-85,46,-1080,-930,-4994
-86,-98,100,-994,-911,-6372
-5,36,55,-1401,-1343,-7073
-88,43,116,-3660,-168,-6613
-22,35,79,832,-761,-6460
4,29,-119,2060,-1117,-5232
47,75,-24,1278,-2045,-2775
-55,74,-109,57,-345,-118
10,41,-85,116,204,1198
-78,-113,93,-853,127,886
114,-69,18,807,110,491
5,44,66,-157,-478,-98
-111,63,124,1082,-65,355
3,87,-99,1628,804,1554
125,-72,-83,1297,2539,3086
-49,-116,91,187,4049,5077
42,-110,-50,110,3311,8255
-125,5,86,371,1135,9796
21,-6,-36,-5216,2624,5647
-60,26,-12,-1535,-547,6846
-75,85,-112,1420,-2346,7132
-107,124,-76,-1199,-1631,1453
-113,-59,111,1944,-2141,-1908
59,-66,-108,3372,-1342,-393
36,-45,-125,1637,544,-158
-15,-85,16,687,178,-309
0,-128,2,915,-631,-298
71,96,50,918,-448,-981
73,58,82,295,-544,-1333
79,3,107,71,-299,-1393
59,-60,100,115,-206,-1243
41,-95,80,305,-189,-764
28,-90,56,59,-89,-289
41,-90,28,143,-8,204
48,-62,-2,-47,-259,509
52,-12,-8,-183,-189,647
68,10,-1,-322,-159,823
105,26,-8,249,-140,911
107,59,-20,343,-376,828
-89,-125,39,-710,-668,-5940
69,-90,-6,-83,-2388,-6325
-123,-16,-32,-1184,-3598,-5328
72,97,-44,769,-5816,-5492
63,61,-89,-1262,-2269,-4105
121,54,-23,855,-1586,-2189
-59,51,87,-238,-561,-6
-35,72,15,-489,1201,1292
15,118,30,148,-694,1129
120,52,42,-98,616,-48
-31,88,114,479,-500,415
109,-123,-18,350,1267,1389
-66,-81,-94,617,2448,3224
55,-101,45,870,3249,5439
-83,120,89,3622,2191,6573
112,37,4,34,3815,7939
79,10,-43,-3518,77,6162
97,-61,71,760,-2924,6392
79,66,-107,-4571,-55,3994
-114,70,45,-530,-1229,1100
121,31,107,4726,-2019,-837
81,29,103,2904,-497,-291
1,60,61,-107,69,149
-33,37,34,-745,18,308
21,26,46,487,19,-503
85,-29,36,1492,-119,-1422
-91,-127,56,1269,151,-2151
-91,26,29,1152,244,-2580
120,-77,0,265,-122,-2057
86,-98,8,-334,167,-1325
66,126,-15,-9,144,-687
47,114,-51,323,-177,261
40,-70,-43,309,-238,915
71,-9,-50,930,-323,1151
90,16,-58,1063,-244,1233
115,55,-59,-40,-133,1376
122,103,-48,-1095,-122,1443
-125,-120,-21,-1264,-127,1275
-122,-110,-15,133,-107,838
-123,123,-50,1533,-487,413
-70,84,92,-2151,-288,-5188
-46,100,73,-168,-1242,-5377
-3,29,58,-944,-1606,-5839
-43,64,76,-1225,-1725,-5438
39,54,110,206,-2112,-4848
61,-21,24,323,-1468,-3763
-64,90,75,728,-951,-1676
49,120,104,794,-328,147
-62,-59,97,-404,38,1160
-109,-106,54,-97,-391,947
-52,-10,72,-346,402,728
30,85,78,932,-332,878
120,113,-122,1643,439,2207
-43,42,120,1045,1653,3431
37,83,-27,1012,2392,4749
-107,-7,-126,780,1498,6345
84,56,-112,-2023,941,5021
114,122,-71,-530,-303,4915
-42,-46,20,-429,-32,5620
-75,-65,11,623,-1483,6772
-4,-80,-34,1647,-1794,4743
-125,-86,4,1987,-1262,665
28,107,44,484,890,1538
71,-22,-95,-122,-306,611
87,-122,-49,1864,-974,-1186
126,-36,-12,2880,-906,-1982
91,81,35,1958,-1104,-2265
93,22,86,260,-492,-1921
63,-54,98,-436,-588,-1250
56,-60,121,-782,-263,-1101
83,-96,103,-292,40,-878
81,-116,40,311,-71,-490
84,-96,12,334,-153,-149
86,-78,-8,254,-104,109
94,-71,-21,348,-161,469
75,-45,-37,444,-171,533
47,-43,-68,625,-358,857
69,-24,-45,-71,-443,1516
104,12,-19,-67,-214,1803
-122,82,-20,96,-461,1740
-59,77,75,-2105,-501,-4575
24,57,46,-918,-1230,-5929
-73,-108,51,-934,-1941,-5881
120,20,46,-1282,-2139,-6246
-50,12,-61,738,-1632,-4941
50,49,80,1343,-2062,-2585
-62,18,5,383,-369,-440
45,60,-56,-540,1282,921
-87,100,25,-526,152,1139
-1,125,37,144,342,1164
-73,-123,-126,865,1314,2298
32,-36,72,1621,2369,3931
-111,34,-72,1483,2340,5673
-31,6,112,1419,1663,6434
-102,48,91,89,2293,5614
-50,-95,86,-550,750,5044
123,91,118,-760,80,3897
22,61,-92,1580,-843,4109
-122,-93,39,-405,-305,4231
-101,42,14,-693,-314,2680
-69,85,-13,1323,-1850,465
102,-9,40,2149,-1076,-507
70,-79,92,1466,168,-797
3,77,4,1696,-154,-213
-29,118,14,424,-436,254
15,-112,31,-184,21,-394
67,79,24,136,-104,-806
110,32,33,267,-350,-816
89,21,45,133,-399,-1052
75,26,56,-589,-233,-1361
87,-20,43,-884,83,-1345
69,-62,1,-306,45,-891
59,-71,-35,116,18,-408
89,-70,-75,208,-137,233
56,3,-83,-352,-485,422
68,9,-51,12,-316,499
-124,-14,-24,501,-220,1002
119,20,-45,780,-441,1253
96,99,-47,16,-488,1180
112,-115,-15,-906,-207,1039
56,-73,126,-2942,-829,-5830
-31,6,103,-2598,-2000,-6242
38,86,-84,-1292,-2204,-6919
11,91,-66,-71,-5142,-5133
-124,-34,123,-1328,-5081,-4842
-40,-37,-4,-1670,-3385,-3840
31,-6,-55,107,-2614,-2491
119,-6,-39,-432,-879,-140
1,-35,-86,-485,1273,773
-115,-26,-53,626,180,616
83,-21,-113,360,708,185
-108,-55,105,293,-528,-50
13,-127,-72,148,-246,52
66,45,-32,254,518,215
-110,-54,-44,313,979,367
26,15,-16,-203,2289,729
97,90,-82,901,4278,3058
-16,26,69,1222,5595,5393
-67,104,35,4227,3444,7832
94,-68,75,-3388,4208,9946
-114,53,39,-3936,-670,7417
118,-28,87,-2254,55,6313
-81,-92,29,-918,-802,3533
-67,76,-115,2982,-2174,-2374
43,-63,123,5833,-1156,-1316
17,7,86,2051,297,-665
-13,-81,16,21,248,-657
-21,103,17,314,-657,-335
13,90,63,300,-370,-651
26,56,74,154,-384,-811
13,26,86,238,-520,-791
7,6,105,146,-324,-728
13,-26,100,142,-57,-446
15,-25,64,177,-59,-317
19,-21,35,-25,-66,-192
21,-25,23,6,-27,62
18,-32,0,421,-50,345
17,-5,-25,365,-309,683
36,22,0,357,-179,917
57,19,-7,1178,-211,1075
-96,114,32,75,-1412,-5717
-41,57,-6,-675,-1640,-6143
-59,66,-69,-1044,-3029,-6189
-123,-103,-115,546,-3591,-5145
85,-127,-69,327,-1792,-3626
76,-82,100,222,-642,-905
71,101,18,-113,571,805
114,-62,90,-473,-173,1029
-35,-83,106,129,486,1264
-90,79,-90,1132,1232,2171
51,81,-100,-495,2337,3642
84,-30,25,-3819,3109,5400
-114,58,60,-1183,999,6923
86,82,-97,-212,313,4340
-106,31,-113,935,-230,6333
100,-101,-17,77,-783,3924
89,116,60,666,-1020,4656
60,46,65,1974,-519,3872
28,-25,0,2593,-704,4271
-17,86,14,1466,-1123,2450
-99,-112,29,952,-701,498
88,34,54,1171,-510,-557
13,-112,53,1321,-590,-655
0,97,63,936,-365,-599
-4,63,76,593,-393,-565
23,18,82,541,-292,-631
39,17,93,-86,-190,-633
77,5,98,-330,206,-726
108,-42,50,564,230,-764
111,-73,-10,975,-121,-742
82,-76,-2,365,-298,-543
61,-79,10,-174,-49,-106
39,-88,-20,121,-182,451
54,-51,-24,-65,-251,702
83,-2,-18,-406,-303,922
96,30,-4,-201,-217,856
95,55,-9,399,-303,586
86,75,-10,424,-250,342
93,69,-18,129,-220,329
109,52,-31,138,-300,502
35,77,-34,-1180,-2297,-5798
104,13,19,-1631,-1438,-6896
50,74,24,-1033,-2465,-7004
-125,-53,126,657,-2492,-5428
-53,83,45,2351,-2874,-3763
27,95,28,442,-1085,-289
58,122,41,-1221,413,1222
-116,-97,32,456,-206,473
-114,-13,59,195,-197,279
16,3,-113,244,178,845
-112,-3,-87,619,1019,2788
-14,-84,113,261,1296,4776
3,1,-26,1748,3337,5078
-123,121,-5,3180,2881,6451
-16,-76,-37,-1783,1303,5149
-109,-87,124,-2301,529,5189
104,-18,-57,1123,-684,5175
-46,30,-24,1229,-501,4925
-20,-104,7,-92,-261,2648
56,-63,29,-1287,-904,1367
58,-110,60,1562,-684,-627
80,-27,60,2664,-105,-1248
20,125,25,1657,-277,-733
-11,83,11,460,-94,-460
21,47,-2,551,-127,-432
51,10,-3,666,-406,-272
72,11,26,884,-218,-562
87,-44,20,1242,-446,-506
110,-71,31,302,-428,-78
40,-32,12,-481,-525,197
-3,17,-10,-339,-408,314
46,40,-14,-237,-385,357
107,85,3,-782,-146,321
119,76,-8,-85,-15,22
98,49,-39,683,-368,-119
71,56,-30,268,-195,-125
62,30,-39,512,-128,3
52,13,-41,498,-177,350
66,33,-33,274,35,657
71,46,-60,584,-125,735
-124,37,-125,-789,-1907,-5987
-3,-8,-121,-149,-2328,-5273
-45,-48,113,-3799,-2393,-5153
44,-40,-72,-1419,-2728,-5897
111,80,3,1024,-2410,-5475
51,-44,-47,735,-1596,-2060
62,-24,46,-442,34,381
-83,-21,-113,-2509,1014,1284
-106,-61,-36,453,81,505
-2,-70,59,905,53,674
-107,28,111,482,762,1089
12,35,120,970,1793,2807
-91,-90,32,1005,2886,4829
46,-116,-100,1979,2796,7414
27,-98,111,-1426,2576,7645
87,-31,22,-537,-553,8922
-14,-80,-47,-2487,-170,6619
-107,-6,4,-2793,-1522,5552
-105,23,89,-780,-2083,789
-65,116,-108,4722,-823,-1452
32,-35,57,3728,-501,-714
45,-43,24,948,-48,-663
13,75,-9,887,-559,-379
25,37,29,1449,-528,-434
43,39,48,547,-416,-497
60,9,64,-309,-336,-485
52,-6,62,-447,-270,-466
56,-28,50,-291,23,-341
51,-27,10,-4,-92,-173
71,-19,-11,249,-39,-188
84,-10,-35,146,-122,-193
95,-16,-42,-52,-186,-10
88,-4,-44,-142,-216,130
76,2,-25,213,-144,186
83,1,-39,462,-206,399
61,37,-38,293,-200,442
86,39,-39,226,-108,637
116,46,-46,234,-267,807
90,110,-47,-30,-317,466
93,-124,-28,-521,-157,327
-48,3,-95,-1017,-2268,-6906
123,-51,-3,-1903,-2652,-7041
-121,-122,114,206,-2742,-5802
-118,-112,4,2078,-2741,-4028
-103,37,-92,1213,-2070,-1064
96,5,-13,-1105,396,220
-25,-35,116,-231,150,612
-127,-56,23,327,-120,370
-101,-68,36,467,-522,454
51,122,109,213,215,322
125,125,-100,1507,774,1537
20,-69,-94,1789,2506,3239
-91,31,66,-88,3892,4622
49,103,-101,161,2835,6171
-7,16,93,-2597,3153,6499
-26,79,50,-1036,1350,5006
-113,-119,120,1679,-1542,5673
-46,-117,16,-934,-291,5180
76,-105,64,-2178,-228,5448
15,-70,69,-1532,-1401,2804
-8,-66,71,2578,-1925,-920
124,24,111,3171,-702,-1352
27,-91,66,1225,71,-968
-49,118,13,246,-238,-167
-37,92,18,390,-172,112
45,116,27,350,-43,-210
90,104,16,721,-262,-834
-128,63,30,322,-550,-1540
-115,15,67,-427,-212,-1823
122,-64,54,-453,90,-1636
85,-111,7,290,-220,-945
70,-100,-7,183,-129,-413
54,-85,-39,130,-136,189
62,-70,-64,286,-340,707
75,-30,-59,-66,-465,1040
101,25,-45,-390,-367,1265
99,62,-43,-127,-434,1217
121,104,-36,94,-357,1069
119,124,-43,280,-449,895
115,-113,-33,416,-371,717
80,74,94,-2103,-320,-5385
-34,-31,63,-246,-974,-6005
-120,1,-4,-1541,-1971,-6280
111,-49,-25,-1714,-1814,-7353
55,112,89,881,-3520,-6069
-80,-97,-14,-448,-2019,-3800
3,-58,110,790,-1394,-1114
-105,-30,-58,-521,673,810
-22,22,90,42,247,1065
92,7,23,216,-214,412
-118,-35,19,1777,-154,27
30,-65,-106,294,461,30
-112,-85,-123,1243,889,901
8,27,122,948,1603,2278
-103,6,114,-591,3363,4193
-39,2,-89,-218,3406,5935
-100,28,-38,331,691,7286
-122,70,45,-7211,-533,5299
67,85,12,-1153,-2200,2641
-104,18,116,3650,-2626,4693
-41,8,-102,1834,218,3294
42,-54,-24,3189,-549,2857
110,-21,-38,3227,-1057,1855
118,-40,65,582,-273,94
-107,101,79,-98,323,329
73,14,0,915,-312,961
34,91,6,910,-445,988
28,-93,16,408,-207,279
35,110,9,1207,-443,-221
23,95,29,746,-560,-488
35,70,48,-200,-134,-206
52,106,45,-1050,-2,-433
126,-109,40,-2387,602,-1192
-105,79,-4,-1728,754,-1254
-106,1,6,539,630,-1912
-121,-43,-27,273,57,-1051
70,-83,-38,719,-689,92
74,-27,-8,152,-475,774
109,15,-12,692,-711,990
123,16,10,1777,-713,1031
108,-125,-125,-2644,826,-4042
-35,104,72,-869,1050,-5357
-67,48,68,-2168,-1222,-4053
-70,-128,-24,-1644,-451,-5215
101,13,-34,373,-1850,-5553
15,-83,-40,-73,-1529,-5450
-57,-65,-19,567,-282,-5653
126,-122,-38,1081,-912,-3796
14,-124,-17,837,-1040,-2027
72,-114,120,-864,-304,701
-3,51,66,-360,-237,746
-44,-53,85,459,87,410
-42,-100,43,933,-176,579
92,-1,82,307,134,1588
-81,6,28,1889,325,3280
61,-6,-7,1292,1402,4867
-96,-17,-112,-43,1338,5408
47,-71,98,-2953,191,6675
-10,-25,-98,-5743,811,3510
-88,-127,-46,1249,-5249,4833
-43,21,-84,2490,-1272,2433
-9,-17,-112,2045,73,2025
-14,25,-34,5115,-444,3120
79,97,-75,4696,-352,3458
55,-26,-33,1786,-565,2569
114,66,0,-311,-680,-248
60,-100,30,527,-391,-571
47,20,48,1225,-249,-107
34,32,45,1384,-469,69
45,53,67,960,-88,-329
45,8,35,1055,-167,-547
42,-25,42,788,-610,-614
61,-50,57,745,-283,-459
69,-62,67,379,-87,-276
72,-62,78,-179,150,-13
73,-79,52,427,472,-40
69,125,-7,1393,-118,97
23,-91,0,464,-754,537
36,-38,20,-788,-263,729
49,-11,21,-815,-860,1458
95,87,48,-1369,-1241,-5951
-13,-116,-34,1196,-2815,-5087
85,-44,41,953,-3816,-5272
-69,84,29,47,-2698,-4107
58,89,-90,821,-1961,-2136
-61,112,25,-287,-404,-261
-12,127,-65,-23,130,888
-69,-120,106,272,-275,751
-33,-94,112,1577,300,577
111,34,-62,282,1347,1016
-42,-36,84,2761,1472,2393
117,53,-91,-1488,4553,4101
-62,110,-115,1672,2724,5815
16,-71,71,1743,1837,8749
126,-43,5,-869,2957,6552
62,-113,-34,-1628,-444,7137
38,-90,-44,-1007,-1874,5193
58,99,123,-1164,-915,2437
-105,-8,85,2159,-1801,-115
91,86,-121,2342,-446,-855
25,-14,79,1236,-72,-691
-29,-103,23,554,-167,-337
-10,-113,20,260,-234,-450
59,113,26,202,-150,-795
83,88,35,20,-278,-1267
109,35,40,-275,4,-1515
110,-14,16,-425,45,-1467
100,-59,5,-222,-3,-1105
72,-96,-25,458,-140,-623
62,-87,-25,371,-170,-143
68,-68,-45,240,-188,322
78,-44,-55,21,-373,697
79,-12,-39,-55,-325,938
85,12,-33,259,-274,1190
109,33,-31,564,-215,1402
117,64,-35,903,-188,1295
119,94,-45,1077,-244,1136
121,106,-46,934,-255,951
107,125,-44,663,-271,740
93,-116,-38,329,-274,437
-109,-76,81,-1109,-1463,-4463
112,120,26,-2154,-799,-5766
22,-92,-70,-253,-2594,-5271
-28,-9,105,-1009,-1825,-6043
-116,-92,-109,1395,-2409,-5939
4,39,-8,1252,-2163,-4504
87,-75,123,318,-2475,-1389
-48,72,-54,-1463,318,720
-118,6,48,-954,831,1227
-99,-25,61,471,-214,173
-18,-38,100,786,-156,217
-118,40,-74,-90,643,796
21,49,-63,464,1896,2416
-112,-97,124,737,3258,4002
71,43,-113,2177,3480,5393
-40,100,64,1789,2059,9409
100,-76,98,-4508,2991,7487
-3,-94,-5,-7094,-1498,6799
-108,-35,-76,1823,-3951,6843
-108,118,-7,69,-1238,1412
-64,120,-83,2316,-1184,-2150
41,-22,-95,3497,-1007,-882
-7,-102,120,2038,-371,-692
27,121,-117,336,47,-114
48,32,58,1642,282,-33
57,11,53,1830,-330,-476
72,16,66,804,126,-884
57,-58,39,433,-86,-886
55,-123,45,964,-27,-363
61,-127,41,747,-3,14
72,-107,17,306,-1,332
62,-95,1,174,-274,578
82,-82,5,101,-104,938
85,-37,2,-269,-271,1148
77,11,1,-39,-268,929
64,54,15,-180,-276,597
80,62,36,-209,-79,574
90,80,44,-119,-34,397
83,85,12,303,170,23
80,81,-7,67,-58,-20
-87,33,-69,-1630,-899,-6042
-16,-40,-90,2264,-2012,-6531
123,125,99,-838,-2109,-7193
-34,58,-106,-2199,-3107,-6827
49,17,104,-166,-3561,-4765
45,89,-104,1737,-2445,-699
-72,94,84,-653,780,819
-30,-65,46,585,-71,1249
120,0,7,-895,-131,742
-100,-25,64,220,178,151
57,49,-68,-58,483,699
-71,77,-52,-565,1906,2269
75,-96,88,-972,2748,4820
-48,-60,-20,-1182,2482,6808
-121,-60,67,2685,27,9989
-52,23,116,-1490,229,8297
113,6,94,-1169,-1638,5406
50,22,-50,244,-1473,5459
47,-42,50,-431,-571,2556
52,124,-7,3215,-2264,1366
-50,110,66,2983,-1130,543
120,82,44,2604,-742,420
17,116,38,1720,-871,-579
50,-4,89,632,266,-1922
100,66,65,1038,46,-2394
50,82,102,1585,-607,-1504
52,67,125,708,-216,-99
95,-101,112,-368,17,-243
105,-122,81,248,169,94
53,-123,45,1384,-120,203
46,-114,45,1694,-106,376
80,-83,44,789,49,511
125,-54,31,1136,-315,197
102,-98,82,2722,-544,370
31,-8,103,933,124,78
57,-41,38,-51,360,581
71,-34,1,-365,-176,473
79,-48,9,30,-401,619
70,11,35,-99,-510,312
102,-12,59,139,-304,170
66,119,-75,-3214,246,-6160
-98,120,-84,-1727,273,-6766
90,-54,-121,782,-832,-7229
-6,-32,-124,2638,-1613,-6706
59,-95,-99,981,-4446,-5151
-59,-18,93,813,-3056,-3724
-52,-27,-90,142,-145,71
47,-81,45,-1106,919,1474
-55,-102,75,-559,-122,572
119,-82,113,1494,-781,84
-39,105,-25,139,37,423
41,-21,-45,275,-35,1340
-75,-3,-40,721,902,2565
45,-89,-89,1053,2725,3697
-61,-60,90,-2049,4574,5510
119,88,124,-4780,3092,7949
60,-34,-97,-432,-1811,9986
83,-99,58,-4604,-3442,5089
107,-102,-25,4184,-4183,5255
62,-42,93,2881,-1021,4035
-12,-58,-116,2137,-1284,3
92,123,-127,2699,-519,-135
1,-6,37,2192,-44,-10
7,-24,-4,959,-355,6
-6,-36,24,199,-443,-117
36,-83,70,538,-153,-596
55,121,66,1013,-469,-1056
83,68,98,618,-253,-1282
87,26,88,224,-85,-1400
73,-41,62,486,-188,-1180
46,-90,42,461,-344,-555
39,-59,47,-303,-206,-41
60,-45,37,-303,-133,107
74,-42,9,80,-317,303
68,-19,12,-184,-393,707
56,29,4,-267,-223,1034
60,62,-12,-107,-588,1252
104,116,2,-166,-98,1279
126,-87,-24,-19,-251,887
-123,-65,-21,77,-306,466
-97,-4,-60,-392,-308,-6429
59,-97,-85,-2374,1060,-7553
59,58,76,1242,381,-5329
59,-115,-110,14,-80,-5895
45,-69,-98,1657,-611,-3054
-123,-39,14,408,-689,51
44,-39,91,-451,339,1508
-81,-35,3,426,-505,1210
-56,-113,39,-110,5,129
3,-103,81,288,-329,624
-113,-21,-124,252,724,1708
-48,99,88,376,1163,3067
-122,-94,-30,-1473,2006,4468
111,-23,-86,-919,-804,5921
32,60,-84,487,-1131,6622
-90,104,-83,928,-29,6677
83,-62,-104,844,-160,5590
30,-86,61,-843,-491,6832
99,-60,-60,-2401,-3293,5241
-81,57,-26,-2343,-2312,-902
118,28,-21,2822,416,-2238
53,96,80,5193,908,-1627
58,-122,-20,2936,265,-1211
77,104,-47,18,-112,-355
70,56,-41,-288,-390,-338
74,45,17,-517,-99,-231
77,29,16,-51,-155,-527
85,-18,23,695,-510,-447
92,-28,44,491,-489,-51
97,-8,50,-19,-207,130
97,-14,28,279,-191,405
113,-9,8,643,-156,600
127,10,-5,507,-196,735
88,45,-35,551,-157,742
71,53,-58,475,-498,709
111,77,-21,-337,-309,742
-108,118,1,-664,-154,491
-126,106,-13,391,-78,80
-105,75,-37,1025,-177,-75
-98,74,-47,332,-342,-91
-77,70,-58,-2275,-2551,-7362
-2,-107,-63,-2083,-2382,-7300
54,10,-99,-2621,-2411,-8233
65,116,3,502,-3750,-6684
42,86,-13,770,-2687,-4144
-11,-59,-105,565,-2251,-1350
-116,61,-9,-14,-399,517
12,56,-46,-18,416,1197
-115,63,61,-938,401,216
90,-49,84,858,-1008,161
-16,-60,-17,-380,375,-100
12,75,-97,774,278,261
68,64,111,111,545,618
-74,-104,110,359,725,1419
33,-75,-116,1503,1499,3100
-127,-91,85,590,2605,4887
-32,-87,-87,824,2149,6365
47,-122,-70,-320,2466,5999
100,87,52,1643,1219,6469
-97,-125,-108,-543,678,5844
-110,-19,-26,100,302,6886
118,21,45,-1651,-956,6048
-71,-101,58,-1918,-1499,-568
31,-41,-100,6468,-1435,-2163
-51,120,123,4845,-1269,-482
-21,-49,-111,135,321,-910
24,39,97,-268,155,-858
29,-68,62,748,-370,-616
24,-73,78,366,-468,-330
8,-48,88,-594,-334,12
-13,-39,83,-647,-204,275
2,-8,75,-416,-184,400
27,18,71,-186,35,420
53,47,27,202,-101,150
65,50,14,273,-213,-129
28,42,-2,377,-776,-906
17,7,-11,829,-1614,-558
41,52,50,-278,-219,189
13,57,10,110,-352,157
45,97,18,-132,-151,-2
11,63,40,452,-1434,-5822
-36,-61,17,-779,-2014,-5656
-71,108,55,-2293,-1412,-6594
56,54,-87,773,-2000,-5599
114,-34,28,2942,-1357,-2630
-95,-37,-103,980,-1412,-23
82,79,-16,-1681,1397,990
-44,-114,-2,-764,345,791
96,3,-49,259,-924,674
6,-21,112,204,-263,42
-112,-5,-41,1340,874,779
21,7,-104,1408,1448,2308
109,-93,-112,1852,3017,3851
56,-101,110,917,4697,5291
37,-27,91,2347,3888,7995
-82,-25,1,-694,2921,6976
83,127,67,-1509,1041,5157
12,-72,-117,33,-1198,4416
42,3,37,-2477,729,4007
118,-110,3,-2796,83,2359
-106,88,-25,2073,-2095,897
107,61,94,2640,-807,-320
22,-8,63,1159,-211,-641
-19,-64,26,-10,-309,-648
-3,-114,46,-103,-249,-793
39,83,44,27,-93,-1022
66,74,47,-474,-123,-1482
93,18,38,-457,5,-1771
114,-100,14,251,-110,-1369
86,-107,-3,286,-249,-938
62,-104,-11,73,-135,-442
58,-97,-30,75,-176,124
47,-75,-53,249,-247,448
36,-43,-76,260,-410,938
47,-9,-64,-3,-469,1281
74,21,-49,553,-420,1407
100,92,-45,1005,-699,1143
100,-92,0,-31,-170,699
63,-98,-13,-124,-419,536
63,-97,12,-227,-209,401
-100,7,90,-105,-1547,-6422
94,-92,68,-1899,-1407,-6720
-82,-122,62,963,-2021,-6162
-41,46,-99,1473,-2063,-4661
18,67,38,1014,-1487,-2039
-116,99,116,-175,-631,-200
-11,-9,-121,-657,-407,869
-42,-69,110,789,307,274
-84,3,64,195,4,280
55,123,69,191,286,470
-65,123,119,759,1252,1876
56,-20,113,458,2408,3599
-14,-75,-54,553,2730,5479
-38,117,-66,-499,3036,6263
-34,-30,-115,-165,2498,6928
-89,-70,-128,-603,714,6227
96,-70,-98,-567,-1061,5671
94,84,53,-1094,-1091,5769
21,21,109,441,-1027,2816
-78,41,37,2203,-926,-183
67,70,53,1783,-793,-1086
38,-106,79,572,-255,-968
-39,-84,44,1254,-469,98
10,-16,54,753,-245,284
54,6,41,465,-383,-174
76,-3,57,-144,22,-374
60,-65,60,-12,-99,-393
55,-57,32,-167,-307,-457
84,-15,18,-329,-195,-454
86,-10,4,2,-273,-690
86,-40,-3,459,-228,-415
63,-63,1,660,-311,-175
59,-40,12,241,-65,180
69,-28,-4,121,-170,360
85,-1,-2,-116,-63,523
89,9,-13,135,13,497
96,24,-25,165,-223,765
92,52,-32,-27,-323,390
98,56,-34,-173,-317,471
94,44,-49,152,-599,469
-93,74,-94,-3937,-251,-5375
0,-1,-34,-999,-1210,-6784
-81,68,-125,-220,-1645,-7306
-23,124,-90,716,-2073,-6903
-21,57,-3,1424,-2389,-5475
80,71,-111,1953,-2073,-3670
-55,-10,41,672,-1383,-739
79,-55,92,-1255,94,620
-12,-92,-41,-964,437,1002
-107,82,89,-384,100,746
-63,-101,77,279,43,475
59,36,-111,983,565,723
-27,29,-77,2662,885,2082
39,15,-50,-31,3066,3248
-121,115,109,-927,3763,3913
-17,41,-4,861,2872,6445
94,12,-65,-673,2285,6527
14,-111,59,-79,1566,7378
9,35,-127,-640,1095,5715
29,-8,-64,-1146,-842,6224
127,-80,59,-4077,-1829,2149
-29,67,89,1192,-1478,-895
27,-24,-90,4630,-822,-1555
28,-124,-111,3001,-230,-1041
-6,61,89,1717,92,-439
-40,22,30,541,-284,56
6,59,37,-684,-120,148
55,61,37,-744,-54,-136
53,27,31,292,-301,-503
57,-1,37,664,-212,-549
47,-10,23,277,-241,-494
36,-22,11,-69,-200,-250
28,-26,-4,-218,-262,31
35,-9,-3,-250,-191,356
44,7,-7,47,-206,485
60,44,-12,22,-207,493
64,63,-15,-49,-339,367
68,77,-9,-25,-270,318
68,81,-8,297,-327,247
94,73,-13,585,-204,284
-28,46,-29,435,324,-7786
78,70,-3,-1012,-3989,-8138
9,123,94,-2276,-3219,-7386
52,-80,-66,-743,-1985,-7128
-95,-26,-21,3214,-1752,-3963
-56,-31,63,2140,-2679,-942
67,-77,33,-929,-481,380
-23,111,-53,-104,26,1374
-70,-90,-105,-209,455,505
-80,-39,63,729,-250,290
31,113,-117,416,480,305
-121,119,-67,1324,1082,1347
-26,-65,-93,1724,2123,3195
73,35,112,242,3431,3964
-42,31,-31,391,3215,5447
95,103,-91,46,2712,7761
-60,123,-111,-1142,2278,5948
-43,-79,-114,-4766,318,7622
79,34,-127,-104,-543,3888
98,-88,16,579,-3216,5283
-72,112,-99,-851,-1339,876
-76,-39,110,1850,-460,-1537
14,-66,93,3525,-807,-1111
22,-91,92,1783,47,-967
-6,97,24,369,-12,-710
9,53,21,366,-327,-472
36,53,35,177,-188,-754
59,23,47,-85,-140,-930
63,-21,39,296,-95,-901
43,-56,8,487,-221,-725
30,-55,7,49,-295,-317
57,-63,22,-79,-37,112
85,-59,-4,427,-48,509
77,-28,-26,320,-303,681
36,58,-23,-736,-390,618
50,69,13,-964,24,820
84,55,-9,461,145,974
105,86,-55,1439,-369,861
116,-120,-40,778,-201,251
106,121,-41,403,-253,-25
-111,-36,-103,3598,747,-3786
-109,1,5,-275,-219,-2602
-61,-107,58,-2090,-2731,-3605
-111,-119,29,-1147,-4509,-4807
-112,73,-124,-2175,-4321,-5521
119,-56,-24,-1388,-4185,-5677
-66,27,-73,1547,-5818,-5436
13,-11,-29,1919,-4460,-3914
31,70,-55,-442,-850,-1582
-125,112,95,392,-540,236
-50,-88,-20,-898,420,1081
90,73,109,136,527,692
-46,-45,36,-163,881,136
25,-108,86,152,761,140
44,-81,107,294,567,217
87,-105,47,-516,638,173
-59,67,89,-834,1156,60
65,14,-65,268,1719,1878
-104,-69,-34,-262,3560,4042
34,126,-128,353,4384,6244
-39,97,-35,2987,3618,6952
-48,-20,99,87,4020,7079
-105,78,-90,-750,2770,5689
-87,17,60,2368,-426,5022
65,77,-101,-3963,301,1844
-102,-128,-95,-1258,-1487,1058
36,11,106,260,-618,594
106,-5,27,-2284,1416,-841
-116,-125,54,-7,-234,-258
-10,125,98,1068,-119,-1164
98,114,63,-31,134,-943
-82,71,79,-445,-141,-1706
-74,4,82,-257,-30,-1906
-99,-53,68,43,215,-2113
123,116,25,587,107,-1919
101,85,17,276,-55,-662
76,92,3,263,153,8
51,99,-28,667,164,732
76,110,-51,862,-104,1697
60,-53,-55,895,-392,1949
-107,96,-71,-208,-2763,-5209
-83,-21,-56,-832,-3476,-6092
73,65,-31,-1672,-3732,-6037
-1,-70,81,-2714,-2797,-6423
116,50,-60,855,-1994,-5389
-85,64,108,1572,-1793,-2926
-18,79,-27,299,-574,-426
-117,63,-77,-907,150,783
-22,-108,87,-898,200,502
-81,-89,56,627,-243,574
-1,-42,107,-166,56,265
-68,-15,-79,452,663,1108
61,35,-93,1472,1652,2506
-87,-36,116,692,2755,4178
97,22,0,-1102,3331,6041
-86,-85,-54,-2613,2094,8295
80,-21,91,1734,685,8818
-107,-81,-115,-412,683,7960
-14,-102,-86,176,-449,3940
55,-5,18,-2628,-1947,3145
30,-16,94,-554,-2233,644
100,50,-125,2833,-1080,-675
15,-106,-107,3496,-237,-846
18,118,-119,1726,311,-495
-18,80,80,508,2,-260
16,51,79,55,-161,-254
61,31,98,5,-86,-510
54,14,81,200,15,-946
70,-44,62,612,-33,-1112
55,-79,48,482,-143,-864
31,-99,31,135,-129,-251
34,-86,16,-141,-157,226
40,-57,0,-245,-249,420
66,-25,3,-284,-276,616
73,-4,1,-50,-253,679
79,17,1,73,-298,754
85,56,0,99,-300,705
76,77,-1,188,-322,558
77,100,0,78,-283,378
79,102,-1,100,-246,232
86,-126,-117,-1264,130,-5848
103,-61,104,365,-1090,-6212
-111,-46,80,-3275,-608,-6708
87,20,26,-590,-921,-7290
-103,-101,127,3111,-2774,-5423
27,86,33,1472,-2196,-2599
-93,110,-106,-149,-934,-462
51,-111,121,-852,323,573
-51,99,47,-287,-575,608
-101,-41,86,516,-536,421
-30,49,-81,2,68,-202
16,-87,-107,310,-3,65
66,111,92,496,92,387
86,101,77,215,223,694
-57,-44,111,601,691,1443
91,-27,118,1453,1942,3472
-40,31,71,80,2880,4331
79,-13,-41,707,2657,5668
-17,8,-123,-1416,1383,7504
23,-128,111,-3015,-464,6403
72,-1,8,-415,-2500,5341
-24,-21,90,-1440,-1430,4260
110,23,-67,2642,-2460,3272
-3,-96,-73,2230,-472,978
93,111,-125,1499,-551,-221
26,-99,-125,1567,-269,-519
0,88,106,1124,-54,-427
-22,52,76,575,-93,-327
1,30,62,151,-19,-213
36,21,52,118,15,-424
58,-3,41,164,-222,-688
59,-23,45,142,-199,-755
56,-44,38,32,-182,-696
43,-69,22,-37,-243,-396
33,-67,14,-169,-244,-23
33,-49,11,-382,-227,315
48,-14,11,-318,-166,525
57,0,0,198,-208,694
69,44,-9,86,-216,769
70,73,-16,-40,-219,712
10,123,22,2415,-2604,-7477
46,109,19,-2478,-4215,-6541
-51,-108,-100,-1466,-2737,-5777
-46,96,34,2197,-2048,-3688
-61,118,-92,1407,-1140,-748
-115,81,-109,-478,154,238
22,77,1,-27,332,477
-44,-22,-32,-91,-264,249
-42,-21,21,95,-597,203
55,-10,105,-6,76,-96
118,106,108,80,71,497
7,-62,108,63,1027,1635
95,-28,77,490,1749,3472
-27,-72,43,418,3124,5832
-117,22,-47,-389,2823,6769
70,-102,-123,-956,846,7933
109,-5,-49,-2906,291,5848
34,104,9,616,-1986,5044
-1,-84,114,78,-298,2728
114,-33,98,1414,-828,687
-111,78,117,1953,-484,-708
70,-117,106,1974,-287,-606
20,-4,92,1813,-330,-377
25,-27,90,1178,-105,3
59,-46,96,254,-25,300
94,-53,91,311,144,239
89,-99,56,1152,-154,256
43,-79,51,443,-344,473
31,-41,48,-422,-165,560
39,-44,22,-319,-302,881
52,-6,27,-329,-310,1022
64,47,32,-699,-130,1054
86,88,42,-770,-59,762
98,73,25,510,46,-363
123,39,26,966,198,-650
-124,21,21,468,-279,-432
64,10,2,508,-513,-542
40,0,16,-60,-333,-731
100,9,36,-726,610,-1218
-114,28,30,-778,486,-471
-101,25,103,23,-2218,-5751
-123,-83,67,-1608,-2561,-6010
105,69,68,-1411,-2882,-7307
119,-34,-50,2078,-3485,-5866
-105,18,108,2041,-2252,-2087
31,-99,-40,-941,-108,-533
117,93,89,-91,541,345
1,80,33,-645,-42,929
-35,-50,10,189,52,589
-13,59,12,-56,-296,-45
58,-10,55,272,-169,-183
87,-87,94,253,-97,127
116,-116,98,158,222,339
-84,92,84,404,320,781
93,-73,-121,765,1127,1652
-52,-26,-104,565,2635,3413
44,-112,81,-392,3640,5641
-76,113,-46,140,2141,8411
-68,-126,-36,-1227,1921,7300
-20,124,-83,-1524,468,7047
-113,124,47,-2198,-1388,5377
126,-103,-49,-875,-1124,3436
91,28,-64,127,-599,317
45,74,-116,2883,-1046,-1106
43,-111,-112,2780,-317,-1107
16,47,103,1104,-37,-781
-52,-101,56,745,-257,546
-1,-4,61,2,-54,433
53,36,49,-363,-241,-62
48,-7,78,-83,-469,-555
34,-78,85,566,-340,-302
23,-82,86,15,-207,140
41,-34,65,-468,-65,34
49,-35,53,-25,-119,52
49,-46,41,778,-182,235
48,-28,39,1178,-311,291
55,-8,33,860,-121,314
63,20,32,110,-28,256
69,14,21,273,1,216
72,24,5,102,-4,151
26,59,92,-4491,691,-5584
-19,-102,83,-888,-1132,-6120
-39,40,-24,1017,-916,-5901
105,-70,3,471,-1365,-5856
-60,70,-1,1483,-1059,-4877
23,55,53,1098,-1012,-2094
71,-93,107,-2041,642,265
-43,92,32,557,273,1002
-32,-94,37,-876,586,984
10,-116,-7,1107,-210,1008
-55,-38,73,926,1067,1713
45,-63,44,1228,2092,3519
-81,110,-12,879,3402,5640
121,-111,-113,-341,3176,7962
-69,38,75,864,575,8840
-96,-6,-9,-3691,1692,6777
75,72,91,-2714,-1147,5839
91,62,43,-2927,-346,3615
-125,-3,-125,2451,-645,-1473
39,59,84,5054,-2570,-2139
98,-53,119,1890,302,-1642
89,11,13,272,752,-1236
5,-84,-58,1087,-708,-69
34,-42,-11,596,-497,179
90,15,25,-315,-282,-126
94,-8,24,-173,-366,-249
90,-24,38,40,-406,-181
79,-34,34,287,-229,44
67,-25,23,156,-240,306
76,2,2,-37,-269,540
88,25,-1,-10,-160,642
106,53,-14,77,-101,642
117,67,-28,284,-102,526
125,79,-40,392,-154,381
123,88,-50,349,-227,202
115,86,-49,196,-290,113
107,79,-48,215,-287,89
109,82,-40,85,-281,67
112,82,-35,127,-292,12
116,83,-28,171,-259,-58
-125,104,84,800,-2103,-4517
119,-12,-12,5202,-5266,-3612
-77,104,78,811,-4362,-4504
48,-119,-22,-2369,-2941,-3994
-60,-37,74,-486,-1845,-3112
29,-98,-20,-8,-1073,-988
96,55,32,-787,738,609
-19,-19,79,553,151,1056
-36,-93,-15,-113,785,861
87,39,6,824,-478,1479
-63,-113,-113,492,733,2843
17,-17,97,2345,1347,4029
-30,-28,71,1916,4033,5428
-100,12,-81,2377,5726,4849
-125,-68,5,-1447,3387,6085
22,-47,-62,-2109,553,5725
-81,-22,17,4568,-1182,2928
-121,-98,-24,-1887,685,1960
-34,48,-61,-2598,258,1058
86,126,-30,-1486,-500,1713
71,100,35,950,-1001,1623
103,-105,82,1738,-287,912
85,-86,69,1077,-237,-174
46,125,63,642,-524,-687
47,66,91,-83,-291,-849
77,24,87,-211,149,-929
90,-20,67,231,6,-936
95,-51,35,569,26,-961
89,-61,17,365,50,-773
85,-77,-5,186,11,-400
99,-83,-18,165,-41,6
96,-59,-36,-19,-172,233
84,-28,-48,-127,-308,380
116,-11,-23,-447,-215,676
101,13,-33,88,-265,710
116,28,-29,432,-329,851
124,65,-24,149,-292,795
117,85,-23,318,-353,634
124,93,-20,300,-232,449
117,96,-29,295,-330,346
-66,88,17,-2492,-1643,-4790
17,50,114,-2237,-858,-6245
-16,24,-102,-557,-973,-6741
68,22,-77,576,-1430,-6282
-110,3,-41,2012,-1441,-4743
-45,-121,72,867,-2480,-2643
98,-79,107,775,-1549,-194
-27,-76,-47,-1144,184,437
-51,-2,-100,219,-26,632
-39,-58,103,217,-58,307
-1,-92,92,321,100,355
-104,-70,-88,621,719,921
-4,-51,-76,2160,1621,2497
-112,-108,-92,1384,3663,4010
-98,24,28,-2982,6361,6022
2,-2,-59,-1459,1362,9036
-24,66,49,-2518,-1353,7334
35,-84,-96,-484,-2427,5771
0,34,109,-737,-2596,4885
116,105,-26,105,-2324,3934
49,-42,125,2822,-2080,878
115,-66,127,3039,-1216,-1135
17,-41,102,2716,216,-1510
-8,109,48,1865,122,-842
-50,56,21,727,-103,-159
-31,77,15,-231,-199,-4
28,104,37,-846,496,-186
77,64,39,-894,638,-799
66,-4,20,203,-229,-1253
43,-36,29,539,-495,-983
25,-37,34,219,-166,-809
29,-50,25,-152,-101,-482
34,-62,2,-113,-174,5
44,-40,2,-72,-199,259
51,-19,2,77,-113,396
70,-4,-7,249,-169,678
58,25,-22,346,-195,672
62,50,-20,172,-237,776
75,68,-14,208,-160,806
78,77,-15,584,-194,773
60,-60,90,-311,-1711,-5503
-89,-122,124,-770,-1613,-6258
-79,71,-92,-1772,-1565,-7421
-15,14,-85,211,-2616,-7004
-29,-117,19,2499,-3235,-5795
53,-19,-104,2507,-2688,-1931
-60,70,16,20,-868,8
91,60,-77,-584,1321,1162
-85,-90,22,-1132,-123,436
126,-69,15,898,-729,592
3,-15,-119,-96,-159,-119
101,103,-106,396,162,317
-62,-93,-84,731,877,1215
1,123,-119,-428,2146,2120
88,-25,73,-3419,3223,2977
70,54,-115,-257,621,4757
-92,40,-38,-1270,94,6461
-81,114,-20,82,-915,6199
-10,38,43,21,-1366,5186
-80,-115,108,1066,-2088,4652
65,-30,-125,965,-347,3477
42,98,102,1249,-163,4242
59,-61,52,1397,-558,3216
5,48,65,816,-902,1201
-95,-44,84,1414,-688,-316
-36,110,80,1295,-426,137
-52,-120,93,-563,-3,823
25,119,61,637,180,68
5,15,16,2447,-335,-212
7,63,68,230,-70,-541
-34,-83,74,2418,-63,-248
14,-102,52,2451,117,-358
33,-45,39,-119,-26,-416
56,-103,30,-42,-170,-127
59,-91,49,182,-106,-69
27,-66,28,587,-134,-125
41,-40,31,184,-339,94
64,20,51,-419,-268,52
42,41,53,-164,-286,-279
30,-4,60,386,-424,-100
-75,-88,-5,-991,2269,-5502
4,121,65,1431,1950,-7994
-25,-25,-117,2043,1198,-9917
-36,-32,111,411,1193,-10605
-104,100,85,-2088,1273,-9027
122,66,68,443,1037,-4001
-127,106,-68,1349,-587,1278
29,-99,94,1573,-1640,4294
-23,-89,-24,1120,-2504,4556
3,101,-67,928,-630,5731
106,-13,-14,2077,-1713,6493
-108,-3,8,-1997,-1720,2558
107,-13,-28,-1636,-1510,3420
94,-39,-33,1771,-1908,2572
-93,47,14,907,-622,3045
-59,63,117,-575,-2335,2358
-8,-15,42,1311,-967,1908
103,108,-7,535,-434,1582
52,-125,-52,2751,-537,2670
3,3,-30,1489,-872,715
41,-47,-87,1865,923,657
55,-94,-14,-831,197,-636
112,-108,-86,-1427,134,-424
-125,-106,100,-620,3,-170
120,-88,125,-1527,-647,-691
-121,-71,85,-1556,-584,-789
-86,-66,36,-479,53,-286
-81,-59,45,262,442,196
-106,-52,88,-435,-50,-182
-112,-38,90,-645,-305,-365
-95,-37,74,-342,-228,-248
-109,-26,100,-944,-477,-477
-98,-16,62,-393,-38,-264
-105,-15,83,-614,-254,-255
-105,-7,76,-400,-89,-161
-99,0,77,-328,-16,-54
-106,3,85,-436,-143,-169
-93,10,82,-296,-8,-50
-96,12,85,-468,-23,-154
-96,15,75,-375,-72,-195
-36,-97,35,455,5533,1162
-53,-66,-9,-4428,4248,-2390
-73,33,99,1701,3694,-2582
85,-46,24,3197,2334,-6790
-19,-37,-80,5608,1715,-8586
124,-56,-9,2978,182,-10566
-36,109,-117,239,86,-8694
-114,13,17,-2293,-287,-6799
112,-102,96,2965,-1585,2904
91,-102,26,2124,-3603,4311
-35,84,-85,716,-3958,5802
-114,86,-15,3355,358,10286
34,58,112,1383,-3790,2701
-3,109,100,-2505,-1601,1503
-81,-124,82,1549,-906,5668
125,-127,-66,-2147,-717,3076
-24,-30,66,-2575,-2364,1194
46,41,-65,2162,-1279,3279
32,-121,-48,944,-2281,837
127,83,-120,2687,-623,857
-122,69,-58,2565,84,1659
70,14,27,-165,-912,375
27,-2,-56,-602,-65,-78
58,-59,-70,-1893,-481,-1248
-114,-75,63,362,714,-195
-109,-64,106,66,629,91
-127,-50,-127,-1156,40,-462
-110,-39,78,-1107,-45,-767
-73,-44,52,-741,107,-563
-69,-31,51,140,170,-20
-87,-36,88,-590,-262,-308
-86,-27,85,-609,-339,-272
-82,-22,72,-35,-40,48
-94,-23,114,-653,-409,-195
-89,5,96,-486,-123,11
-106,11,97,-647,-201,-272
-90,13,77,-285,34,-128
-94,6,88,-441,-89,-232
-85,14,83,-327,-47,-64
-90,18,93,-482,-133,-196
-76,-117,17,2308,5605,943
-28,33,-63,-45,2038,-7774
10,58,-58,4924,501,-12318
-101,-73,-97,-360,-280,-12170
81,81,-93,-3538,449,-10602
-46,-111,90,-2650,808,-4882
62,101,-7,1909,-1976,2855
126,35,-103,5209,-3580,5062
62,58,-122,1991,-1387,7792
-121,106,67,1461,716,7901
105,4,-126,-3671,-4589,810
97,124,17,1520,-1376,3161
96,59,-114,-1283,-2086,3330
-118,31,-119,-2144,-1973,1372
-5,-32,-47,2086,-1061,2778
38,-19,-6,1425,-1935,2879
47,-105,-55,115,-1593,807
108,-106,-104,1482,-665,980
-109,115,-109,2535,-121,1682
77,49,-28,440,-771,424
41,10,-37,-670,-693,-234
49,-25,-90,-1200,-265,-764
93,-36,105,-588,344,-452
116,-37,75,504,892,54
110,-39,121,-546,406,-501
-127,-46,91,-729,232,-642
-101,-46,80,-675,47,-436
-94,-30,88,-1082,-341,-434
-94,-11,75,-1161,-403,-404
-94,-6,50,-603,-163,-253
-91,1,53,-20,103,12
-100,4,79,-343,-125,-84
-99,10,76,-260,-158,-35
-105,14,78,-176,-77,-4
-107,19,91,-520,-246,-122
-105,28,79,-422,-198,-103
-107,23,80,-294,-113,-209
-96,22,95,-548,-100,-246
-92,23,88,-542,-112,-208
-93,22,80,-539,-170,-217
-72,7,105,-3268,2222,-1990
-47,-3,37,-289,5188,-965
-76,-114,-75,2160,2722,-7099
57,39,86,4783,2925,-12106
-54,21,-116,-3591,-925,-14418
-116,92,90,-5034,1099,-10896
126,-17,-45,-1667,352,-4044
-83,-125,-26,8369,-849,6074
2,108,-121,4687,-3595,6064
-28,114,10,-2057,-309,8651
-74,106,15,1560,564,8367
31,124,42,391,-1101,3946
-116,111,60,-2154,-1369,3997
-127,-86,-82,-4160,-6040,1953
-44,-80,-11,606,-5034,-195
-33,-123,-41,8321,-167,5253
62,32,-127,370,115,2080
-17,123,38,-4765,-1402,-1589
87,102,47,422,-326,-236
113,47,105,3922,-545,1486
57,-1,-2,623,-1442,287
9,-17,-22,-1311,-522,-721
61,-38,-99,-1360,665,-869
119,-46,88,-278,1378,-391
-117,-52,81,62,1383,-351
-101,-44,91,-435,778,-466
-92,-44,89,-810,148,-463
-82,-25,72,-943,-265,-384
-71,-19,51,-570,-103,-225
-70,-10,56,-377,-97,-175
-80,-6,68,-398,-248,-174
-76,-5,69,-257,-231,-8
-85,-1,81,-445,-373,-34
-93,8,77,-213,-315,41
-100,11,91,-419,-342,-47
-94,17,91,-451,-262,-47
-103,17,83,-258,-106,-77
-98,21,87,-354,-32,-100
-99,22,89,-486,-168,-185
-96,24,79,-385,-108,-179
-111,-2,67,1539,4515,1765
127,41,109,-4802,3545,-3992
122,-81,-33,2138,6447,-3703
-17,10,99,8836,3260,-7212
84,-28,-19,-4859,-2394,-15797
90,-94,25,-1945,2020,-10049
-46,-33,-66,-3016,1491,-6865
-84,-62,-116,-2416,-327,-70
-10,47,32,3696,-1904,3970
-15,0,-109,4044,-1188,6542
16,36,104,2514,-1382,7941
-60,12,104,2427,-15,5357
-21,31,111,-3726,-3566,1116
109,114,3,1387,-474,4772
71,-61,-103,-5010,-4214,1675
-87,86,15,857,-2503,3529
-19,-28,81,-987,-1327,2001
58,-15,32,566,-926,2324
113,-85,75,422,-463,1942
108,67,43,-676,-1536,703
119,73,-40,1860,-685,1407
110,5,20,420,-1000,548
79,24,19,-500,-689,1
66,-10,-21,-925,-641,-637
109,-37,-107,577,248,-257
-122,-45,-96,839,790,-175
-97,-55,-70,-104,626,-453
-87,-52,-104,-507,218,-619
-87,-53,-120,-988,-452,-905
-71,-48,108,-788,-340,-589
-57,-33,92,-122,65,80
-71,-23,121,-537,-248,-80
-75,-12,111,-215,-185,-42
-79,-16,124,-312,-239,-107
-77,-9,125,-358,-209,8
-85,-3,127,-453,-272,-24
-83,7,122,-454,22,12
-88,13,-119,-611,-128,-102
-88,16,123,-215,-158,-124
-87,12,126,-188,-86,-161
-90,-12,33,443,3133,-6165
-8,51,93,871,2612,-11075
60,-18,107,-3600,4026,-13072
28,74,28,-6508,2026,-11109
97,117,-87,-10140,254,-7332
96,101,-97,2994,-416,2275
-87,97,116,6141,-3034,3221
-22,-44,123,6954,-1370,8926
-13,-22,-95,6583,438,13269
-99,84,5,-1685,674,3264
4,-101,-96,-8244,-6117,85
111,-88,33,2624,-3200,5463
-89,-18,-55,-2292,-5841,2487
75,32,99,-163,-4586,2097
-112,39,23,2385,-1139,1868
-106,18,-6,3871,-135,1701
95,-119,121,1789,-1876,607
65,87,92,-288,-710,1240
-10,-10,-115,1400,1409,758
-17,-37,-102,1937,1434,-111
46,-90,-9,-493,-80,-1139
-117,-103,-94,-301,733,-609
-107,-102,-120,-364,784,-303
127,-86,-74,-2026,-554,-1411
-80,-57,109,-2053,-402,-1368
-68,-48,76,-739,-3,-544
-95,-38,123,-1670,-878,-996
-86,-4,60,-247,-354,-240
-102,8,66,838,361,124
115,6,-112,-615,-681,-652
-128,22,114,-456,-512,-455
-120,24,116,-577,-277,-293
-120,24,100,-243,78,-40
-118,28,99,-246,149,-1
-121,31,95,-97,95,-76
-120,29,101,-249,-61,-170
-110,22,108,-485,-193,-191
-103,27,94,-266,-59,24
-113,29,103,-351,-195,-131
-109,33,108,-379,-205,-149
-88,92,113,-2896,4231,-2775
-92,-96,111,4832,5983,-3308
4,-11,-29,3203,1244,-12117
105,-87,-113,1146,478,-12908
105,9,-14,-2816,772,-10514
87,-80,92,-5358,1207,-7449
34,-4,8,4102,1450,5345
62,118,-78,11664,1958,11981
-128,89,33,-2085,2045,6916
61,-59,-22,-16839,-9614,-29
-105,-19,93,5527,-3386,4999
-53,50,12,2542,-465,6033
-96,-4,9,-6523,-5163,876
-98,48,-5,-124,-2012,2779
20,-2,71,6770,1504,9311
-112,56,2,-2116,-1540,2518
-103,-62,86,-2118,-3951,76
-118,-67,-73,5461,996,3924
-27,-13,71,-277,-958,-869
35,-49,-68,340,-610,-1780
123,-44,-97,591,221,-804
-126,-72,-67,-1681,-371,-1260
-98,-52,101,-1516,9,-837
-93,-52,77,-878,48,-886
-78,-57,66,273,210,-622
-69,-79,111,25,-2,-651
-67,-66,123,-473,-265,-542
-70,-49,-121,-1327,-709,-665
-64,-34,89,-1018,-525,-269
-67,-29,62,43,97,243
-80,-12,98,-389,-178,164
-95,12,103,-512,-318,149
-104,18,95,-518,-386,12
-109,17,93,-394,-356,-58
-101,24,98,-262,-90,-19
-108,25,105,-386,-128,-176
-105,22,102,-389,-101,-249
-94,20,105,-381,-49,-196
-92,22,103,-464,-15,-229
-91,23,96,-434,-53,-242
32,50,46,-988,6556,-3678
-75,93,-110,6289,4831,-11434
-40,-83,-83,1839,1532,-13540
-4,-111,-118,-6117,-479,-12600
108,-5,-9,-6915,1544,-7425
69,-44,78,315,-566,2823
1,-103,7,6019,-2194,7072
-40,52,-52,3727,-1920,9229
-95,86,-76,2700,-1474,9203
-44,-28,66,-6136,-3115,2474
79,-39,127,-2867,-4153,2965
-33,-83,115,2242,401,5450
-114,61,48,-4676,-3169,515
29,84,91,786,-27,2120
-1,-20,-36,-2262,-2057,112
70,-81,36,-147,-1616,701
127,-102,12,2782,76,2568
83,78,99,249,-1697,1113
92,46,34,1159,-1294,1235
45,12,64,432,-2336,323
46,2,-32,438,-2099,-428
70,-16,-80,288,-292,-1119
112,-12,-97,-363,893,-705
-118,-26,-103,-1825,297,-817
-118,-11,98,-988,136,-700
-97,-5,62,428,597,-180
-91,-24,-122,-749,-137,-484
-86,-8,105,-506,-103,-233
-88,-7,112,-626,-300,-310
-84,1,112,-462,-233,-141
-89,10,116,-534,-197,-97
-95,15,117,-518,-323,-50
-101,26,118,-365,-327,17
-110,30,124,-338,-360,-6
-109,33,-121,-516,-248,-55
-106,41,-125,-328,-100,-7
-110,43,-121,-429,-77,-171
-105,40,-127,-360,7,-146
-96,42,127,-440,42,-136
-97,43,125,-433,-57,-207
126,-116,-47,-494,3293,-4494
-47,37,67,4687,1499,-10557
-42,-62,-63,-474,21,-13879
35,37,-115,-3613,420,-11885
-118,-98,67,-17457,-2184,-12085
69,52,71,5318,278,1992
-37,-122,77,9361,-293,11252
-106,79,12,2901,-3647,5863
-57,-114,-85,2318,-2782,8459
-69,71,-20,5771,-449,6981
45,74,40,-7008,-2713,-493
-97,-105,84,876,-2274,4688
49,38,83,942,-42,4995
116,10,22,-1131,-798,3083
-116,60,-54,1309,976,4318
102,-105,59,-624,-1272,1207
100,59,22,-1250,-1936,-680
-107,24,-36,915,-764,357
107,-21,18,-227,-1051,-153
90,10,-68,1355,434,313
64,-41,10,-1516,-1323,-1252
98,-15,-112,36,-568,-810
115,-30,-113,-369,-629,-944
110,-29,-116,-957,-684,-1097
-114,-6,126,-1283,-353,-880
-98,-2,112,-1201,-283,-615
-128,-8,105,-805,-334,-339
-123,16,103,-726,-111,-100
127,39,104,-603,20,-226
-128,51,102,-415,-66,-225
118,44,115,-627,-306,-360
-123,48,108,-568,-218,-96
-126,57,101,-408,-200,41
-128,63,98,-356,-262,34
117,60,93,-13,-211,30
123,54,115,-299,-180,-145
-107,58,115,-202,-3,-39
-116,53,120,-307,-92,-233
-117,43,122,-477,-132,-305
-103,46,114,-486,30,-145
55,-122,95,1559,3694,-2415
-108,-50,122,-2386,2399,-6236
23,44,60,4696,1513,-7585
-61,-100,69,2066,-480,-11425
57,1,-99,-2936,-780,-12457
91,90,-67,-8829,-553,-11703
49,-102,1,-5732,-317,-3958
113,68,14,10790,735,9361
78,-81,98,3042,-3237,5582
0,-123,98,3870,499,11104
14,74,55,6527,1574,5969
92,86,-52,-8358,-3202,-129
-31,-67,-17,-811,-2221,4456
50,29,-119,-2515,-1449,3145
-40,51,85,-757,-1242,3524
23,32,61,804,649,3546
-31,47,-126,-1532,-1178,1728
2,96,37,130,-1134,239
92,100,13,1889,343,1741
72,2,115,-1715,-1284,-172
121,21,-20,697,-514,724
112,-15,-6,711,-582,236
102,-22,22,-923,-1059,-833
-121,-11,-40,-672,-560,-494
-102,-4,-57,-818,-285,-372
-105,-3,-69,-565,-155,-218
-100,0,-71,-258,60,-15
-101,1,-60,-489,-85,-189
-94,6,-66,-406,-17,-101
-94,5,-67,-545,-39,-211
-83,11,-74,-414,11,-120
-87,15,-65,-493,-163,-110
-88,22,-67,-456,-177,-167
-92,25,-65,-487,-203,-227
-89,30,-60,-548,-190,-231
-86,32,-56,-558,-157,-185
-90,28,-61,-224,-11,-87
-90,32,-44,-573,-163,-144
-88,38,-60,-307,-73,-113
-88,39,-50,-516,-98,-160
63,-127,-62,1625,3376,-3345
45,51,118,1501,1895,-10888
-72,-60,-110,2310,1826,-12304
78,-97,117,-5682,187,-12464
125,54,-38,-9399,-63,-10200
83,-52,-9,-4770,-2184,-4830
70,111,-123,10252,-622,8564
-13,-89,120,6142,-4884,5394
100,-115,-70,11257,1923,17699
123,-59,43,5590,2041,6717
41,-97,-57,-16614,-7486,-4318
-75,-128,48,7594,-397,8394
-50,113,-58,1819,1150,4814
-31,20,-55,-6128,-4211,-338
38,105,-53,3997,674,3385
31,-82,57,762,-323,1289
-3,88,54,-460,-1040,-556
88,16,-50,752,194,462
114,-22,-74,1706,711,1321
106,-47,6,-39,71,419
124,-49,-35,-105,96,11
-126,-67,-43,-334,-172,-451
-90,-74,-57,-642,-74,-509
-80,-74,-78,-555,-9,-439
-64,-72,-82,-591,24,-344
-64,-64,-89,-395,-81,-119
-69,-51,-72,-685,-207,-202
-75,-36,-83,-497,-214,-180
-71,-27,-84,-544,-163,-204
-69,-17,-92,-425,-88,-114
-76,-11,-93,-453,-175,-160
-77,-1,-94,-524,-169,-205
-73,8,-94,-580,-201,-226
-87,17,-97,-533,-288,-296
-101,22,-79,-887,-500,-626
-78,17,-81,-556,-162,-306
-76,14,-79,-253,-1,-71
-92,22,-64,-469,-110,-149
-91,31,-65,-491,-125,-156
-86,40,-76,-513,-58,-194
-35,-65,-78,-4408,2321,-4538
18,-3,41,7425,3294,-5634
99,-41,-103,2742,-906,-12141
-2,-87,-116,1576,2117,-11064
-113,104,85,-3784,-857,-10132
86,102,125,-6415,256,-7101
-78,5,-36,949,-1441,187
39,-56,112,5461,-918,6660
-23,-78,74,2720,-3163,6333
22,97,12,4997,-1628,10803
123,35,-62,6947,2805,9728
-83,31,-4,-15984,-5513,-4310
64,74,-33,5620,-1516,6541
-95,7,80,1781,1366,3643
-60,-3,-118,-5212,-3192,272
5,11,-85,2381,33,2345
42,-110,17,-140,-881,987
70,110,-15,148,-1088,678
92,69,-27,87,-1090,570
92,52,-58,442,-1033,414
62,38,-76,544,-1025,102
79,20,-60,-270,-172,-164
113,0,-82,-270,523,162
104,-14,-110,144,553,129
107,-18,-88,-465,5,-272
-121,-16,-112,-553,5,-228
-115,-17,-118,-718,-50,-368
-107,-13,120,-209,109,-182
-87,-9,-114,-429,185,-183
-84,-14,-127,-284,179,-200
-76,-14,-120,-416,91,-172
-72,-9,-116,-495,-56,-160
-73,-6,-123,-436,-74,-159
-73,0,-121,-448,-138,-125
-73,10,-116,-562,-208,-131
-72,14,-119,-431,-171,-74
-77,18,-121,-318,-94,-84
-78,25,-107,-590,-225,-180
-77,27,-119,-400,-117,-76
-85,31,-118,-429,-161,-179
-90,65,-102,-246,2620,-4629
38,72,104,4136,1926,-12070
-14,-66,119,-1430,1099,-13802
24,120,104,-7352,52,-12033
14,-81,126,-13737,-1877,-12874
-83,-98,-83,4415,119,1639
27,-9,36,8308,-925,6861
122,93,82,4003,-3253,5032
-19,-60,51,6872,1420,12367
26,63,-38,13183,2197,10772
-52,22,66,-15841,-5657,-3461
76,76,63,-331,-4695,2840
-51,-109,77,7545,2752,7118
-75,1,-18,-5725,-2535,-104
-63,80,10,330,-643,2037
0,101,-29,379,-658,950
62,87,-38,1263,-680,1117
87,58,-21,789,-389,939
90,32,-55,760,591,586
83,18,-23,-1003,-22,-306
100,-3,-102,-633,-480,-722
-128,-12,114,1258,292,67
125,-40,-73,-820,-311,-626
-107,-14,-125,-862,114,-212
-107,-16,-107,-1460,108,-377
-100,1,-119,-1058,15,-403
-94,1,-122,-117,82,-146
-87,2,-89,-557,100,-192
