AccX,AccY,AccZ,GyroX,GyroY,GyroZ
-58,70,-85,9808,4649,-5030
31,-95,7,2001,3504,-10748
-62,25,101,875,2323,-7651
106,-93,-67,-529,2919,-5741
-32,-74,-70,718,-910,443
-68,14,-124,-1134,-5164,10280
60,-2,-106,-5056,-4245,10945
47,-103,-34,1507,-5783,375
-23,-56,-59,7621,2255,-11003
-89,-20,61,-1101,6099,-5792
-64,-43,113,7993,-2720,9990
55,94,114,-10153,360,9041
-70,34,-104,-10,5991,-11148
-93,28,59,4616,671,-9193
-39,71,29,447,-5063,-13123
76,82,-68,-6192,10317,-7245
-54,-80,49,7249,-2831,2226
-57,-124,75,-1710,-2310,16055
-70,-13,-15,-4005,6663,1593
86,125,114,-5306,-3758,-7110
20,4,-55,802,-265,-3796
-10,62,-21,1374,-968,1397
69,-68,-95,1631,-1291,4086
30,-17,-71,2048,-2386,8905
-65,113,-78,-1426,-134,8780
60,-18,-44,994,1416,5026
11,-98,34,-4680,1339,5675
51,88,-34,-1233,1093,518
21,117,54,-1386,-1574,4166
-106,-58,-7,-1421,-1100,2901
59,34,-70,-1757,-860,524
-30,-85,-113,-77,1273,-2123
111,124,48,1891,109,-1049
105,-49,90,52,-612,392
-124,-63,75,325,-165,16
-100,-74,81,426,-52,-106
-99,-44,93,-295,-111,-266
-111,-75,95,-119,-6,-224
-102,-39,87,-138,116,-62
-89,-25,77,-11,66,-56
45,-93,-10,3873,3913,-3491
-20,-73,-92,9376,3632,-3196
127,70,112,1055,2146,-7122
-98,127,105,1243,663,-7346
114,-82,-88,-508,1889,-7356
72,-8,-28,-719,3444,-3586
124,-71,17,2501,-2399,7013
-55,16,61,-4955,-6569,11675
-56,108,-103,7986,-2585,7839
-108,-62,47,4129,1763,-12578
114,118,46,-1483,1142,-10115
-30,-65,4,3232,-2161,2257
-68,-57,115,-8166,-5722,13220
87,-99,41,3689,-2142,6808
-106,-21,72,1311,1433,-11681
-104,-52,42,7105,-3636,-12425
-43,6,96,-98,-1499,-12128
-93,98,-70,-1107,4751,-6006
10,32,87,2294,-2861,-155
39,86,65,574,-380,10493
127,79,50,-3896,3713,5736
54,126,40,-2331,-697,2411
-108,36,-119,-737,-401,-5018
126,-112,-128,2546,-1689,-2650
1,87,108,-989,-578,-1255
28,-8,105,1213,-511,1582
-2,25,80,1523,849,3626
-94,-120,9,152,-291,4807
11,-49,0,2183,1421,4903
-83,74,51,518,2554,5505
-70,115,76,413,-787,4026
108,38,76,-3383,3149,2838
66,-126,54,1374,-2214,4216
-82,14,125,-2792,581,2312
-103,11,88,-989,-824,2940
-10,93,-104,-2630,382,2105
-34,-98,119,-2767,478,1829
-91,-46,-122,-1710,100,60
98,67,86,130,344,-1156
74,-39,96,1945,-837,-231
-82,-73,29,7636,3330,-6586
-12,121,78,3457,-292,-7678
79,12,-52,-508,943,-8990
94,104,-82,709,-20,-6828
71,62,0,-2425,1258,-5767
-80,-98,47,-1054,2920,537
-84,-52,-68,-1822,-4314,12343
33,30,96,-4439,-2371,10734
34,-17,91,7262,3686,2580
22,102,-12,3525,-3470,-10760
-110,94,-31,-2076,3634,-8972
-127,19,80,2610,2901,3307
-99,-79,52,-8851,-5058,11823
-48,-46,-103,9534,907,5234
4,-95,-40,4921,-2954,-13424
22,-68,-107,829,-2473,-13271
-62,8,62,641,-2938,-10598
-7,93,100,-430,10428,-2519
-91,84,71,1440,-5384,7097
83,-59,119,-2639,-756,9607
118,-90,122,-729,5028,5088
19,-59,-77,-4482,-1147,-6264
103,58,92,2495,-1607,-4072
-63,-21,-104,261,188,-1281
102,-49,35,-521,-658,1243
-53,71,-34,2230,-83,4858
59,-16,-76,-116,-266,6223
-37,-40,1,847,506,6292
116,31,49,-392,1509,6371
86,-124,93,-1984,2046,3650
123,115,89,-2279,801,3057
21,59,-70,-3393,-578,4271
-50,-110,123,193,-1543,1411
12,40,-19,-647,-631,2655
-2,-86,-75,-1980,297,1802
-91,-89,-122,-1355,44,-448
117,-6,115,-444,758,-1402
79,-90,86,639,-59,-126
63,-80,57,258,178,496
-105,22,78,-312,222,119
104,65,86,4955,2305,-3809
-20,7,-26,4924,1357,-6293
17,-29,-47,1673,-301,-6364
-45,-74,-94,1757,1304,-7111
-49,22,5,1100,353,-6623
-80,41,85,-1916,1469,-5592
-55,-71,-45,317,453,-702
-101,13,-65,-1675,216,4560
-38,43,-103,-3883,-3627,13972
-101,101,-27,6732,1684,8300
59,-59,-79,-3599,6346,-9530
43,-46,-36,2307,-5378,-8229
-60,107,-119,-305,9217,-1243
85,-103,106,-6576,-3969,13127
-85,111,-14,1370,-1698,7103
-2,-63,-10,890,639,-10188
16,-54,96,6822,-4799,-11990
39,-42,-101,897,-889,-10960
52,-69,61,-1617,300,-6834
-125,48,112,4816,-831,1211
15,49,-105,-2265,-2333,11144
31,114,12,-2694,5083,5377
-6,-36,-5,-1494,-4079,-72
-42,-18,-117,1786,545,-6317
-101,45,108,1678,-1381,-534
-87,80,50,-694,-641,-1325
14,93,54,-37,-178,2192
-22,-82,27,412,110,1547
16,-100,-37,959,-172,4315
-98,23,54,41,1313,4638
127,64,28,1476,109,4438
-14,-16,96,-998,1280,3809
83,-42,0,-438,183,3995
20,-23,53,-2324,87,3205
-107,31,65,-1780,-869,1582
-106,95,120,-1595,560,2060
-80,85,96,-1108,-407,1835
-110,-31,89,-739,-9,1800
-119,-31,116,-1068,-394,1902
-79,30,119,-1433,-87,1460
3,-126,58,4412,1611,-6968
-99,82,-60,1112,-527,-8722
76,-56,24,704,-34,-8108
-82,40,-120,-670,409,-8264
-50,80,98,-2507,2051,-3174
-25,36,-29,-10,-1123,5952
102,-12,-87,-1608,-2977,12021
26,70,3,2800,1230,9548
104,37,-81,-3899,308,-8207
-70,-5,51,5852,-2671,-8548
29,-29,69,-3307,5225,-6974
-59,37,59,5354,-8532,14006
19,116,-84,-8472,-718,7520
-53,-16,-128,10492,-1042,4042
-94,16,-99,4267,-2039,-9867
86,124,-108,122,-3814,-12643
-126,80,-16,1110,-365,-10384
20,19,53,2840,-721,-4013
88,50,71,292,586,4450
109,-128,11,-1763,-2534,10343
15,28,96,-2558,3105,4703
-16,-54,61,-5425,3267,-4069
41,43,-124,4155,-1608,-4388
-104,103,89,75,-302,1532
-58,106,114,1026,-409,4444
-41,86,-111,412,-1344,7251
-9,-126,91,-512,1011,5261
107,-4,54,539,1563,4891
-37,35,-126,-663,3235,4368
48,59,59,1369,1780,2007
-4,-67,9,-901,2506,3159
73,-98,48,-544,368,504
-41,-42,91,-312,-391,1169
-84,43,-55,-1937,53,-444
-102,124,-75,948,-59,432
117,110,-110,1738,-266,1049
-128,-105,112,1399,16,1287
113,93,107,479,-373,101
-110,-109,-77,-1368,698,-423
-65,39,63,-369,100,-114
99,109,2,6912,3060,-4129
-35,-120,-114,7539,2694,-7309
30,112,10,4044,-1080,-8230
-27,55,100,-1181,215,-10215
22,-118,101,-1618,1788,-7998
-79,-58,-114,1950,454,3824
52,21,27,-5924,-2368,11678
22,88,-50,-171,-793,9700
42,-83,74,9989,-4044,4426
-52,-24,61,-2752,-471,-11167
-93,127,21,-1669,1694,-7672
48,17,-11,-472,6796,2167
10,124,106,-3446,-4145,10030
80,-55,66,8511,2179,2423
79,69,72,3665,-4533,-11476
-116,-81,40,450,-5448,-12049
69,47,13,-978,813,-9501
-33,13,100,5012,-140,-75
80,64,81,-2354,-1,8006
11,-99,1,-2788,3100,4898
-119,32,16,-2657,-4374,2522
-37,92,35,1217,2245,-7075
-77,98,-6,921,-2431,-1927
73,3,40,1236,-567,1204
-107,21,-18,-322,626,3644
12,124,99,-622,771,5115
-79,105,95,3494,3129,5181
-86,84,-99,-1420,2350,5431
108,-55,-37,-1898,53,3976
-63,-39,80,-3544,-87,5668
25,2,29,-1404,1994,5863
-74,-110,119,-1089,1036,2580
70,68,-102,-1480,-133,4181
31,0,-63,-2389,850,944
-46,-100,83,-798,-551,-1038
50,-119,-110,36,223,-753
83,-88,-124,-563,310,-340
115,-62,103,-604,173,-269
-122,-90,83,310,-160,-73
-123,-68,71,143,56,-256
102,34,-23,4203,1582,-4538
-37,-74,-85,6329,2072,-7718
-104,82,20,5647,-2179,-8002
3,-60,-96,-1374,475,-9542
12,-7,-33,1942,-1378,-7034
-8,-46,-93,140,-1571,-3152
-8,21,109,-2031,1480,-262
-90,-17,-89,-1303,226,11251
-45,15,-49,-5553,-1238,13734
83,-61,82,9024,-4122,9277
-55,27,6,34,-168,-11613
-68,100,-121,-1458,1440,-8856
-115,97,98,-1554,8508,-2142
14,-39,-86,-1171,-5771,10333
2,120,80,-1128,-366,6177
59,47,57,-683,2228,-8583
-47,-12,-119,8485,-4461,-10481
116,-110,-93,-454,-2183,-12663
96,79,-81,-2004,5014,-7631
57,62,116,5071,-2587,1506
68,85,71,-431,-3910,9650
-119,103,-6,-5711,3934,4782
78,-76,11,-3529,683,5729
-78,-47,42,5515,-2009,-9049
-124,-59,-97,-669,-2078,-4304
-114,19,101,-398,62,415
-66,-73,-128,1635,-277,5875
84,112,-128,2243,-462,8572
-116,79,-122,-896,1988,11353
-83,-79,-74,-2238,2932,5185
82,-38,77,-1337,-728,3997
-69,26,-53,-3430,1007,2028
92,116,18,-1516,-1556,4162
-63,-111,40,-775,127,3093
62,47,4,-1535,1370,-1306
-49,82,-125,1192,-75,-2384
82,-126,99,1012,-763,-208
98,-89,92,-495,-414,-150
-121,-120,67,-434,304,25
-95,-43,90,-544,38,-136
-47,103,-50,8273,2692,-3095
-27,-39,-109,2900,201,-10814
0,97,88,-1375,-1069,-10341
-7,73,-39,-1377,1586,-8578
52,113,6,-3072,5709,-5958
-56,-12,-68,3749,-4832,7909
111,-24,75,-4738,-4108,11981
-53,-106,24,4282,1610,9412
-109,68,1,931,-1259,-7144
-10,-59,-23,2340,-3741,-10683
67,-68,6,-2144,2057,-7668
-24,22,58,1869,3531,8168
-103,-60,73,-9907,-2515,12037
86,102,33,6957,587,7534
-57,-128,48,-176,472,-9988
-123,-79,-124,6015,-4057,-10987
27,-110,-71,-741,42,-12207
102,107,74,-836,-51,-9625
-11,30,-119,4821,-2517,-600
47,65,-82,-1736,1670,6458
57,-49,54,-3037,284,8343
-13,-12,74,2853,639,5517
108,54,60,-2714,-701,-6785
71,97,-114,1166,-1070,-4824
-80,46,-29,-813,393,-1745
-66,70,-37,902,-874,1989
-4,-58,-39,755,-255,4103
-55,108,-70,-2015,309,5796
-113,61,-28,2267,-493,7791
-107,-82,53,507,1674,5910
42,16,53,-576,280,5326
-64,126,-125,-3988,1546,2527
-102,-76,90,-1029,-309,4918
-6,-65,-92,-1647,358,3428
-122,106,-36,-4766,3682,2087
-100,2,-41,-1959,-1043,2193
-77,-113,-91,1323,-1357,-252
-117,53,-35,1727,-220,-2166
109,-122,-86,837,684,-931
81,-99,126,-547,-158,429
-109,-67,110,8211,854,-3196
-17,-45,-57,1493,2040,-11607
16,90,-82,1181,-2734,-9789
3,104,102,-344,2730,-8298
9,-18,-26,1072,2660,-5727
15,-85,-46,379,250,2615
62,-1,119,-4234,-3221,11662
22,-59,39,-3707,133,10325
-32,5,103,-1693,2680,-360
-97,111,38,7441,-3487,-6403
63,113,32,50,429,-9724
44,71,92,-247,2284,-3811
81,71,9,-280,706,8292
105,52,33,-5610,-4164,10295
-75,53,-49,8183,-411,-1745
1,52,-38,7954,-5214,-12702
-68,69,-102,-2106,-4525,-11749
-125,25,-70,-1822,41,-8499
101,104,99,2430,452,-2574
-46,26,-67,51,-965,1243
89,114,-62,-399,-2502,5802
-47,-49,-53,-2082,1986,3769
92,70,-9,2125,1274,6292
-118,84,126,-6852,-944,-2588
-107,70,-75,4904,-1962,-5782
-96,-97,-66,1150,-1826,-3493
-40,-37,-103,-1925,1759,-71
9,-31,30,1924,204,3264
-125,95,10,3955,1840,6847
-94,116,-126,-1781,2086,7474
-127,65,70,997,2096,5376
-117,-35,-43,-2682,1128,5121
101,113,84,-1526,777,2470
-86,58,48,-842,141,4319
9,74,110,-1603,754,2572
110,74,-119,-1482,312,2494
56,-113,-101,-1658,-728,1065
-89,-97,-122,-1160,-360,-621
91,-10,-100,883,-441,-592
60,101,-97,1323,53,438
-78,6,-78,9356,5872,-11026
-39,101,45,3417,-841,-9451
-50,69,10,2024,-2760,-7856
-16,-32,28,-1586,1094,-8308
37,22,-83,-694,958,-2641
-14,90,-127,280,-827,7717
69,-33,31,-5038,-1704,11028
94,-45,104,-1184,-156,8916
-25,-85,-5,-229,-5390,1660
-61,-3,-62,4893,-660,-8424
114,26,-8,-884,537,-9154
31,105,-12,-3317,8216,-1538
90,-29,27,-174,711,6260
-119,-120,-107,-3671,-4254,9005
73,-111,-61,5423,-1827,-1287
-120,-119,13,7144,-6060,-9288
63,-111,64,-78,-528,-10250
98,-55,57,3950,-6443,-6532
36,-5,-92,-577,1354,-2682
23,2,50,-1450,-624,1046
48,-68,-84,-1171,-1719,6923
119,14,64,-2707,2667,4484
0,8,-10,-2223,1677,5630
87,-30,-123,3345,-1872,-5529
32,-54,36,-316,882,-2913
-96,45,79,1364,-330,-1483
-123,-16,38,355,-612,540
-10,-50,-64,2374,931,5913
-20,-82,-18,-1762,371,7157
-2,-24,54,1195,-1758,9108
21,-56,-99,-4339,3670,5478
-15,-10,-56,-792,-488,3431
-50,-4,-28,-362,2080,3668
-49,-69,-114,1241,184,3158
13,55,95,188,-385,738
-98,-3,100,-628,-441,-1471
100,125,104,1024,-412,-726
62,56,114,714,120,723
79,-58,80,-269,128,41
115,-43,51,-455,-102,-295
-34,-47,44,5935,35,-4902
13,70,-19,245,-3242,-9982
-38,71,-120,1177,-5548,-10485
-124,-3,49,-691,-265,-9242
108,-125,6,-2796,2987,-4117
124,-11,-78,1361,-3361,7945
-126,51,-44,-4011,502,11781
30,-43,-43,3130,528,12157
21,66,-57,-8382,1606,-2228
-64,-18,-44,4103,-3682,-9159
-73,78,-39,-3557,3008,-7215
108,-32,-95,984,3865,970
-46,-51,-107,-3143,-5032,10102
121,105,6,5330,859,6391
42,126,114,-6527,4632,-8661
-108,-17,-18,5725,-4796,-10215
-13,17,88,-221,-321,-10578
37,-105,-24,-4623,3773,-9188
116,3,38,5480,-2523,-959
-118,-65,-69,-2224,1223,4308
-20,-82,-40,-82,-1499,7194
105,115,-46,-2149,1027,4284
62,-72,-100,-886,7,2831
-114,-85,-40,-758,2251,-3497
-89,127,83,3286,-3227,-3916
38,-53,-114,-1480,887,-1688
83,105,-34,1202,1155,1903
101,92,-104,481,718,5921
43,-71,-27,-1346,221,8942
53,88,-93,-1034,936,7502
-69,-10,-100,-257,2247,3338
-72,-95,85,1669,4035,3806
80,-93,54,3666,2317,1645
-34,-34,42,4571,-304,2992
-44,-109,-10,2159,-1286,-548
-95,61,45,-2659,755,-1282
-88,-36,-32,-2040,-234,-431
-94,7,-28,-1215,82,-969
-86,25,-79,-11,-342,500
123,97,-85,-197,-194,-186
-23,97,113,2731,-2078,-5724
-75,3,87,317,-3776,-7624
88,-8,89,-2313,-415,-6272
-12,-122,-81,260,1353,740
87,-16,89,-2743,-3558,12683
89,122,27,-2661,1737,8546
-36,-54,-60,-2137,328,-378
7,10,-63,3884,-2437,-9451
-94,-53,8,-1250,1240,-5398
103,-58,-24,307,4062,4405
-99,-10,-78,-8762,-219,9912
-117,0,39,5120,-2273,-234
87,40,0,2945,-759,-8730
-48,-65,54,40,-1410,-11525
-41,-48,-45,880,-1855,-9415
-20,3,-71,1395,331,-4526
-42,-98,60,-143,162,1551
103,-89,-99,-646,-1648,5518
-51,-65,7,-2349,927,4000
12,-39,-22,2816,-1232,6842
100,-21,91,-1255,766,-5997
-35,121,88,1119,-2828,-5038
-99,80,-104,-1464,999,-501
90,52,16,457,-242,2860
-88,83,-57,3505,851,7003
-80,-102,64,-1657,1081,9153
43,-124,-81,1089,2002,6931
3,-8,57,-3565,2785,5330
17,-19,46,-2192,37,3318
123,-67,-112,-1862,-321,3123
-52,63,-25,-1102,169,2937
-103,-113,-55,-728,655,1569
-38,-51,-112,-373,-149,-607
-120,-17,115,1480,-607,-1078
67,104,123,145,-1069,99
89,-102,-126,-663,-169,-42
111,122,108,-372,12,596
107,105,64,157,-193,-247
-118,-128,62,-198,-125,-102
101,-126,81,-555,16,70
72,116,-23,4779,1891,-4486
-49,-43,120,5000,3617,-10887
29,115,53,6999,-568,-6632
-71,95,-82,-325,-1779,-8813
-11,-72,-91,1208,-1835,-7915
42,118,-75,-4129,3642,-6813
49,21,-86,3228,-4808,8846
66,-52,-83,-3390,-4020,13496
-100,31,53,2750,989,10775
81,4,-75,-8225,5743,-6171
-30,37,-28,5388,-6192,-8793
-69,-120,14,-1388,3456,-6782
-22,-66,-93,2206,1895,3608
52,21,39,-7534,-619,10427
13,40,2,4476,1982,3749
-11,-111,-69,4239,-4835,-11057
94,-65,-126,1785,-5538,-11314
-79,-104,-80,529,407,-9692
81,16,45,-158,2704,-5447
12,-43,-49,918,-802,4378
114,-30,19,755,-2391,8154
-104,2,28,-5361,5077,2947
39,-20,102,529,-2787,4019
-95,-109,23,3169,-355,-7416
52,-62,-108,-59,-4238,-6165
-106,107,-110,-2205,116,-1026
-85,100,3,1656,1884,4459
-53,53,-19,1847,768,8147
123,38,-35,-2680,2351,9513
-48,8,-38,2974,2969,7749
56,-68,26,-6533,3016,3354
85,5,-108,1832,-1367,4157
-4,57,-91,-1185,1106,2363
77,13,-75,-1543,-88,3698
-124,90,-88,-1569,342,2537
1,-39,123,-1713,213,616
-68,80,120,-190,-304,-2329
95,3,105,3281,-438,-2184
99,34,-123,183,549,27
84,84,99,-772,59,428
-48,-85,-68,4804,2784,-3854
3,38,75,789,-52,-13187
-51,-13,-63,2175,-2100,-8478
-80,51,89,1819,1643,-9124
127,78,85,-631,-502,-6666
14,-92,-30,-2966,2379,-2167
121,38,13,1315,-2357,5946
34,7,115,-4993,-2553,11545
-62,57,44,11422,-2943,5525
-2,-90,-97,-1766,-1608,-10127
76,111,-90,-2375,4193,-10053
120,-113,-59,-383,5329,389
13,-105,-41,-1531,-3732,11022
45,-53,-73,-2824,-2965,9974
-52,97,21,4637,5932,-110
72,125,-41,4520,-5400,-9056
-127,-32,127,-2402,-621,-11790
103,-22,21,2516,-1558,-7966
45,111,124,1994,-754,-932
22,54,-76,-1200,-936,4250
-128,47,-117,541,-2163,7731
59,-46,44,-667,2395,6375
-47,-96,17,-6930,-1396,-3433
56,-41,-79,5396,-2040,-5751
-87,-16,110,-709,-690,-3748
-6,95,-127,-1244,1463,1045
86,-106,-79,2997,786,4706
-105,101,-44,354,409,9021
-81,40,-72,-120,435,10061
-96,-115,-49,-1075,3550,5259
20,98,23,-2604,2331,4270
-121,10,88,-1802,-1974,3461
27,85,96,-1548,892,1570
-94,22,-69,-1129,-50,2394
45,88,104,69,-635,1167
-50,-83,-126,-1253,94,-521
117,-108,82,1506,762,-1448
-48,55,60,1598,197,98
69,-108,121,-953,-1346,138
34,-56,125,-1949,-180,-336
-23,-26,115,4333,3251,-9875
-116,-46,-121,5352,-2856,-8569
11,49,115,-1673,1734,-8715
19,72,47,-939,1799,-8439
18,37,-26,1887,-1580,2941
-92,20,-96,-2367,-3736,12834
125,-120,42,-894,392,7584
-70,-42,-73,-3353,3048,-2954
12,106,92,2685,-374,-10302
-38,-20,-5,-1451,2643,-6655
-81,29,98,1015,257,4241
106,-4,-22,-6228,-4234,11256
-2,-6,44,7516,145,4521
8,31,0,1147,-2711,-10421
22,-24,-117,2487,-1482,-11897
-124,-5,100,-683,1698,-10031
-125,-26,-49,-1092,-594,-6268
108,126,37,3988,-2242,3029
-61,-62,-15,-1024,-1751,5704
75,-110,-24,-3256,1682,4443
-18,-26,-45,-916,-461,2185
94,-7,88,3041,-1228,-5955
102,75,-74,-197,-1761,-5005
-102,58,23,282,943,842
0,-74,-50,976,1,3831
-74,23,4,845,1112,7987
125,-27,-14,196,1038,8872
115,120,-56,-1239,2007,6897
-15,-4,121,-2884,1196,4570
-28,-116,-118,-724,1554,1854
-22,6,98,-482,-831,3539
6,-74,-125,-1024,202,1146
-58,-22,99,-330,304,1150
-47,-70,108,-287,-43,1387
-50,-1,115,-449,-30,946
-77,5,-127,-735,-14,-220
-123,-106,117,18,-141,-151
125,-107,-121,-908,407,-114
-114,-89,124,-784,209,-200
-115,-116,118,68,-147,216
27,-74,-60,8434,2122,-4983
-45,100,-28,2546,406,-9655
22,70,108,864,-4712,-9030
2,-88,-61,-3838,-2531,-8855
-37,40,41,-4487,272,-7319
-15,81,-90,4164,-164,1006
-47,-39,-49,-2894,-659,10593
-38,41,-84,-1764,46,9817
107,92,73,8570,740,6955
74,119,-46,-4895,384,-7622
-49,-31,7,-1956,1038,-8127
-108,85,123,4103,2022,-2510
51,84,-83,-2855,231,8726
28,34,104,3633,-738,5755
-37,65,-117,-3258,2915,-6959
-6,15,-44,3776,-5879,-10415
61,-5,51,-823,-3068,-8436
43,39,-123,-3076,2826,-4268
-12,42,53,1750,-2944,-705
25,-68,96,1769,-3015,6048
77,-23,-1,-6311,3297,3254
101,-110,19,8540,-1413,6851
6,39,106,-4829,130,-4833
-37,-35,-119,1397,-497,-5690
47,108,-100,-514,-845,-2707
-125,69,79,1560,474,1480
125,60,27,2149,504,3276
61,-26,99,1206,744,7404
83,-50,-102,1057,2264,8223
63,-116,-115,-333,2784,5977
67,-51,-49,-1854,2229,5932
79,-35,95,-278,581,1883
-1,10,-126,-3021,1293,3017
117,127,-86,-712,2067,64
101,-24,-75,1323,127,2688
-61,-41,-77,615,-1439,2464
-111,-112,-123,-2228,-215,-424
-127,-32,112,-1887,-239,-783
95,75,82,-493,10,49
105,-101,107,-620,574,222
-16,-27,-62,7648,1777,-7752
1,-111,-55,1335,-239,-8847
108,-120,100,590,-1138,-10237
107,12,121,-1261,1152,-9462
-96,109,35,-2327,1561,-5790
-96,79,-125,2276,-1816,3531
-70,82,-39,-2212,-1420,10681
33,41,-10,-3571,1694,9262
-19,51,72,11799,-7242,3891
92,39,-32,-614,533,-8056
-7,-27,-23,-1434,1075,-9421
65,72,-107,1998,1569,-3973
17,-100,85,-2009,-418,7881
86,73,-48,-3451,-3998,9428
-4,-48,-51,7958,599,3833
86,110,97,-911,-1731,-7996
-79,-31,118,3562,-2026,-9387
0,68,30,-530,-1297,-8520
57,-86,-31,-1478,-162,-7105
-60,-49,-73,300,-731,-1429
66,-113,-88,-690,-2292,3131
-86,-125,-122,-2169,-155,5132
-1,44,-25,-1379,306,5433
-89,-104,-64,-1066,512,1358
4,20,9,3770,-1283,-7610
24,17,51,192,-1516,-4381
-14,41,120,1385,-761,717
46,116,31,3051,1368,3068
104,36,52,998,1085,7815
27,62,-124,947,1648,8597
73,82,106,390,2568,7903
22,108,-105,-6369,2028,3452
-101,-58,22,746,-2304,5379
13,55,-101,-1663,1032,1049
32,-22,-98,-778,346,2986
60,-14,-112,147,-31,2291
20,120,-113,-810,-889,1284
-62,-91,-112,-920,-247,-685
-115,-33,125,668,86,-1577
91,95,120,1274,-68,-188
-8,-113,-118,4944,3161,-5961
-13,58,-6,9482,-1220,-8308
94,17,-12,-1339,-2485,-11060
68,18,-20,-976,-1533,-9813
-34,112,50,-1837,1656,-7904
-27,-51,116,3033,-2658,5430
20,-43,76,-3416,282,12365
-34,-7,-57,-5060,4908,9862
-1,-84,66,3390,-8544,-1862
-104,36,-61,3053,-1346,-9715
127,-94,7,-2815,4823,-6616
75,-41,5,3301,-2036,2245
-26,-21,-122,-7566,2702,9094
-117,5,56,5960,-1251,5819
58,-127,7,-2862,1108,-8850
43,17,-97,5415,-3403,-9493
23,91,-45,-492,-2389,-10625
5,-13,-17,-2504,-371,-6187
-27,-7,23,3120,792,771
7,124,-127,-1632,712,8125
-2,-41,-9,-4425,2219,4407
-105,59,-10,-1838,-1376,4323
77,5,-66,4098,-1865,-7166
-99,-123,-110,1380,-2450,-5276
100,11,-102,-1581,1303,-1358
-82,-124,42,1405,624,2632
-118,15,-56,3068,52,7976
-97,1,-119,129,1463,10645
0,-12,22,-216,2712,9166
28,21,100,-5106,2507,4018
-103,19,-7,-1580,-153,3872
34,80,95,-1185,535,2091
126,20,-77,495,-555,2631
-112,19,-40,-456,-477,1991
10,-101,-93,-1471,223,547
-75,69,115,220,708,-1041
33,-72,64,2745,-537,-266
107,123,105,-1361,366,526
123,-115,54,-510,-44,-502
-97,-122,56,96,332,-436
-116,112,120,3284,3788,-4819
-126,42,-103,2978,3033,-9659
74,-33,-74,2631,873,-7811
-113,96,61,2494,2707,-9484
-120,51,-46,2400,-168,-8579
34,-63,-87,-559,3216,-2960
10,72,-66,-853,-2394,8277
-25,41,-34,-6062,-3706,11505
126,117,32,2357,-1678,10493
14,77,-57,-6526,5510,-3026
123,-19,117,3854,-3281,-9188
-68,54,-10,55,956,-7997
-4,-66,53,235,-317,1146
-20,38,120,-4356,-5060,9881
-58,-29,-13,-784,-1356,7139
1,82,106,-1315,6362,-4860
-69,49,-51,6241,-2088,-8552
83,-37,-101,2150,-4983,-12830
-30,-124,-47,-1479,1473,-10298
53,-25,102,3589,-896,-3842
100,66,-91,-1835,678,3772
-28,-75,25,544,597,7959
-60,-56,44,-1660,546,6402
8,-48,-122,-6127,-1294,1639
109,-81,-86,5135,-2021,-6519
93,-82,23,-1318,22,-7175
76,-16,-42,-1047,520,-2557
13,-73,72,1336,1251,1849
-101,-54,90,2343,-1837,7916
36,-65,-74,-2033,4383,11052
-120,14,-125,-2673,2712,7633
-105,-87,-36,-2066,-4226,6889
109,52,-113,-4658,-159,4280
86,-53,-77,-3593,1591,-1223
46,-19,16,2184,-466,4403
-91,20,-7,3034,540,1931
59,-2,-29,-517,885,908
-121,-103,120,-40,-454,-1189
55,55,-122,261,-494,-532
98,-102,104,-1062,-90,-167
-10,51,75,8890,2942,-8235
-119,113,101,3721,505,-8719
-15,-5,126,-1500,-1511,-9792
-20,27,-78,-464,-1347,-7153
88,92,127,-1739,3959,-1881
104,-19,52,896,-2215,9306
106,84,67,-5632,1271,9871
-65,-58,25,4659,-153,11259
70,-38,-95,-10050,4301,-5615
-128,-56,-111,4647,-4061,-7458
75,11,35,-1280,2012,-6070
-116,0,51,1477,3362,1791
32,-119,12,-4789,-3546,9863
-103,-128,-111,5445,7919,2485
-106,42,127,-1771,-3703,-8811
44,-43,-106,7985,-6089,-8530
-73,76,72,772,-5445,-10870
-75,-85,-105,-2515,-174,-10067
-38,27,-19,4135,2454,-469
61,123,-81,-2242,99,8468
64,13,-59,-1465,-229,7336
109,31,-103,-806,588,5472
-66,14,59,2875,-2824,-8204
49,-78,-23,-1166,-683,-4540
-41,-104,34,369,-2159,1147
10,56,-79,2274,-34,10596
-75,36,62,-762,3950,11535
116,34,-23,-1519,5779,8705
-124,3,-99,-3715,-410,3594
123,-23,-56,-785,-1499,4456
-103,-11,-48,-6842,-2437,7521
-98,52,-128,-1704,1251,583
31,3,99,-116,58,-383
115,14,106,1205,43,-1166
91,-103,117,954,-175,82
95,-76,89,63,-114,196
-122,-51,76,-125,82,-437
-111,-88,73,-21,213,-88
-104,-88,41,358,170,-110
-106,-78,45,-177,140,-80
-36,61,-65,5791,2694,-5009
-61,-10,33,3425,-2485,-9517
-41,125,-95,954,-3184,-11960
-57,84,-8,1690,-1875,-9658
-125,-21,36,-4722,1746,-8157
-62,-18,-13,1368,107,3050
-3,34,61,-2960,-3215,12174
-10,-56,-64,-3615,-1953,10131
84,18,99,4182,-200,3514
-53,-128,53,4502,-2042,-6176
93,-56,124,-341,181,-10577
-109,29,-33,-1297,2445,-7714
19,-118,-67,4955,-2882,3766
-17,-3,-54,-8070,-3617,13638
25,102,29,-3463,3810,8719
-12,111,-126,-993,-532,-606
82,-104,-7,7361,-1041,-8219
19,-108,-69,-394,-2329,-10528
52,-33,-29,1330,-1705,-8493
-3,-85,-21,48,-1518,-10389
49,109,60,2041,47,-1212
127,21,112,-1640,-232,4297
30,-46,125,-3835,1304,7419
-6,122,-56,-2311,1925,3441
-24,15,7,-3531,-1064,3695
-66,-84,119,7366,-818,-7252
86,-71,101,1869,-1864,-4039
-112,-108,-28,-719,174,40
-128,-54,124,-38,716,2355
82,90,92,3588,1463,6443
-71,-58,-16,-2084,3509,7968
-57,114,6,1563,3460,4820
105,56,126,-4137,1445,4002
-56,47,-57,-136,-1539,508
75,69,-10,-2501,445,2726
-72,-97,48,-331,-943,1082
-110,0,63,-239,46,1989
-106,-45,93,-843,-715,2510
-80,20,87,-1331,-41,2395
-81,92,63,-2003,-129,1584
8,24,-58,7737,3150,-6867
10,-106,-60,4489,-2216,-9601
59,71,-9,-934,-1033,-11142
118,-33,9,-693,-936,-9361
66,108,-16,-2110,2920,-6256
-14,-42,-71,4215,-2744,9738
81,73,50,-8800,654,12497
42,66,66,8912,-1555,12199
116,-105,-126,-6935,618,-10089
69,-29,1,-2085,-309,-8691
7,-87,-27,4498,6624,-3752
121,64,-17,-1067,-2934,11423
-32,124,-32,-7977,1276,9778
-49,-107,42,115,3605,-4747
-109,-10,-35,7862,-3365,-7926
-4,-119,120,496,-1668,-10795
39,21,-34,2050,-7589,-8526
53,71,40,-432,747,-6099
-43,-49,-3,1042,-1068,246
5,56,60,-1284,1084,6180
83,-52,37,-1424,834,7581
109,-23,-8,2962,2457,7553
-59,14,-39,-2889,-2266,-7574
-33,87,29,2499,-2704,-4026
-84,15,87,-896,-122,1103
-50,-41,91,2760,-355,6371
81,-111,-107,-690,1686,8736
38,-91,-32,2074,4224,3352
20,-15,71,-2915,2243,3794
-17,-25,-32,-550,1544,8213
65,41,32,-5091,2269,4996
101,60,-70,-194,-372,2238
23,-75,95,-1740,-641,-2532
35,-14,-90,11,-1,1480
65,-60,94,520,-725,702
-88,-39,116,-266,-16,-289
-121,-116,78,266,25,-262
123,97,52,-5,255,-156
-108,109,65,-469,582,58
-111,-109,72,-410,0,-124
72,9,-47,-339,-3208,-7372
29,107,-78,-1594,2977,-3712
56,-115,-28,-2619,763,4792
-70,41,54,7919,-12958,-828
-36,21,-120,-4505,7028,-4877
94,-128,-107,-541,-2672,-1330
108,90,-112,-1378,27,-6110
-20,47,99,-3735,-482,-7579
-112,31,92,-2906,719,-6607
-43,77,13,236,289,-3658
-68,-113,44,1952,-883,-754
105,108,72,1651,2262,3018
-46,-47,86,-197,-763,7087
2,-44,94,-3792,873,6419
18,6,0,-2839,1861,-2881
39,78,119,1508,-399,-3706
-109,28,-48,1736,-3539,730
111,-81,5,-391,-1738,868
53,-114,-49,-444,-1340,2019
33,-39,-123,-1077,850,2571
-96,-96,54,-283,747,4705
92,49,4,32,-1371,3878
-110,78,39,381,-180,4626
40,90,-80,-242,128,3666
15,102,-86,2084,-1500,4670
-112,-39,59,-3165,-435,2917
41,76,83,-717,-1478,2271
-53,50,103,2858,-824,2960
-84,101,52,1346,247,2242
-99,71,-31,1720,380,1350
97,41,-108,871,259,73
58,-66,121,288,-496,-683
56,72,-100,210,-189,-484
55,55,-117,-654,97,-382
48,9,124,348,-389,9
76,34,-104,27,81,-229
86,35,123,123,-96,-137
91,42,124,-245,-152,-7
91,47,120,-146,-27,-131
96,60,120,-199,-22,62
20,-22,-126,5089,-5433,-5574
-21,118,96,3046,-5086,-11052
9,-11,-48,-5953,617,-9303
58,81,-111,2854,-1879,-2028
-86,-119,58,-1830,-2727,9317
-35,121,120,10373,-14294,-249
-15,-77,-118,-21743,-29856,-829
86,21,65,7874,-16876,4108
46,118,-38,-2055,1698,-870
127,-27,-76,-4777,4806,-8076
-86,11,109,-3439,-1458,-5879
-88,-42,62,-1037,719,-5491
47,50,15,-722,-1457,-1925
57,-80,85,254,1508,134
119,-11,-124,1934,1406,4514
68,-101,52,-52,-677,5243
103,34,49,-3251,2777,228
-103,121,-51,730,478,-1435
24,107,92,2681,-3346,180
-11,-75,-83,146,2570,149
103,34,23,578,-1936,1671
-63,26,25,1121,1897,931
-13,67,91,559,618,2480
-1,-102,110,995,712,1761
96,15,74,1154,1710,2222
121,5,84,-271,1809,2413
-81,-18,67,-944,2112,2862
27,-7,0,359,894,2412
79,13,28,-1600,977,2769
6,-22,126,-1210,1015,2539
4,-36,119,1588,386,3105
-8,42,-91,2017,-366,2363
8,78,-80,752,699,1363
-87,-26,-71,942,128,525
123,63,3,1129,84,680
61,35,17,-166,254,564
62,44,20,-795,646,505
67,46,-4,-1891,843,389
96,42,-56,-672,605,-142
105,-4,-78,431,112,466
-20,74,-47,1820,-2399,-7021
94,-124,-21,2217,-3378,-7284
-36,59,110,-2553,-2517,-8455
-127,30,-4,-1203,210,-4223
14,70,-40,750,-2886,5612
40,26,106,3246,-5854,661
-22,78,58,-848,1293,-3202
78,-97,-5,4008,-4139,1614
99,7,-32,-600,1279,-3096
-112,16,-114,-1441,1185,-7612
125,27,-77,-4534,-1233,-6443
-123,114,117,-680,1538,-5444
27,-62,10,1849,-3032,-1200
35,-104,-118,460,946,920
44,120,69,-496,1239,3563
-109,-102,62,-368,-820,7416
58,33,-46,-6198,6514,2139
2,-37,-78,1285,-1861,-3619
18,30,95,1232,-3058,-12
-40,-88,-38,171,708,-607
73,-3,9,470,-2474,1589
36,-51,35,-480,865,613
46,16,-15,-2337,975,2216
82,38,-118,-73,28,3061
118,-119,121,-1249,1598,3619
-56,-68,-14,908,-545,4201
-24,60,-116,-667,472,3805
76,-27,108,432,-241,3442
29,-40,-95,1261,-518,4086
27,-20,-5,-1442,313,2731
6,35,-79,971,-181,2699
-23,12,-6,202,-258,2914
-62,-106,-35,1243,-48,2642
-79,17,-31,-59,-65,1721
118,-18,-53,473,170,834
34,-88,-33,1012,-653,186
27,114,-35,729,6,-111
30,79,-42,268,-58,-294
22,30,-61,181,-117,-229
39,-17,-59,-362,229,-412
75,-103,-58,1445,-6960,-7790
-113,114,-109,-3585,-3948,-7743
116,121,-13,-2955,674,-6488
30,106,-117,-3418,746,-165
83,-25,100,2772,-2361,5686
98,-59,-126,590,-1988,-3886
88,60,54,4264,-1230,897
91,-119,12,354,-4047,3175
-8,72,-104,-249,421,-4504
3,-96,32,-259,-4142,-6608
-121,-35,6,-4691,1708,-7656
33,-83,84,158,-327,-6559
89,42,-123,1743,-3771,-303
77,50,-90,224,1663,3042
-48,120,-103,-2768,685,7674
-81,123,10,-223,-2977,7121
-85,46,72,1645,-687,-6216
-64,-18,96,-793,-815,-1260
57,60,48,2383,304,543
-45,4,41,905,-1908,919
-41,98,32,966,-1351,414
-57,66,49,-56,571,1498
-34,78,-93,241,411,2317
-24,92,114,-1385,1334,2798
-111,-47,20,-1282,149,2990
118,-56,39,-427,365,3953
-5,-17,80,-119,0,3268
36,80,49,1968,-363,3810
20,-41,-41,-631,306,3160
32,104,-107,727,396,2504
59,25,-56,-229,-37,3225
-18,-7,7,434,-210,2794
-16,-32,-39,619,177,2348
126,-37,-53,857,-624,1536
73,-9,-36,-301,-37,500
51,-86,-70,192,-172,-141
27,120,-70,174,-399,-295
37,89,-75,-573,-158,-688
43,12,-70,-310,-265,-606
30,-28,-89,16,-103,-353
-79,-22,-105,104,-4334,-7198
74,74,-38,-226,-817,-6434
100,-66,87,-932,448,-4334
-42,55,-87,125,-1558,4712
-39,-57,117,2710,-2212,4537
-118,64,-76,-1119,1514,-4486
99,28,-26,-621,3725,-749
-78,-56,47,3086,-5562,5706
-43,44,30,693,508,-2374
-126,-90,-110,-3725,5623,-5781
82,-103,-35,-1698,-1159,-4951
4,-14,3,-1103,-2604,-7747
-8,-77,102,-1753,-2687,-6872
-116,31,34,2,-848,-2418
74,45,-17,-296,-953,1144
-105,83,113,983,1690,5324
68,-81,-67,-686,-2494,6740
-63,-15,-88,-6845,7023,-596
93,95,67,1854,310,-4281
10,46,94,1350,-3671,487
-59,-106,127,1708,-2068,56
98,23,107,-56,-1,-100
95,-71,82,-1565,1992,1446
75,4,-121,684,-1519,2858
-98,36,-83,-1580,1226,2940
-109,108,66,-1066,1336,3407
-28,-17,34,-225,-682,4074
-32,-40,72,-486,579,3845
-118,-117,96,596,138,4136
77,-106,-100,1179,-171,3938
60,-97,-64,-1520,-455,3711
98,-11,6,1197,-423,3974
69,73,73,105,-145,3349
12,37,1,665,410,2720
-113,111,-59,1036,-716,1338
21,26,-74,671,-709,44
-10,-77,-51,-27,-193,-580
-25,119,-49,-499,-213,-391
-29,57,-62,158,-66,-551
4,32,-71,111,-59,-769
-127,-3,-91,2283,-1131,-6767
-37,-64,-22,-2314,-1490,-6424
-80,-50,90,-1264,87,-5499
-121,17,-26,-15,53,-3345
-84,-91,-116,1800,-4967,6979
56,57,-64,3273,-3841,3365
-83,-36,-118,-2831,5485,-6071
9,29,-30,4117,-2973,580
0,119,49,406,126,5684
5,15,46,896,1606,-2558
31,122,-51,-3854,6613,-6736
-66,-72,73,-2819,-1551,-6069
-8,-32,2,-1992,-617,-7271
124,65,-41,-1085,-2163,-6282
84,-95,-29,1338,-2586,-2845
91,-74,-39,312,-345,505
125,-127,-110,849,137,5538
17,-62,27,-1727,1378,9132
40,-59,3,-7678,3709,2954
85,-29,-14,3836,-4438,-3490
68,120,-74,1034,-1395,-732
-78,-2,35,255,2197,-34
-103,62,16,2396,-2742,149
-50,114,22,-561,185,-11
-113,-33,-42,-646,661,1432
-105,21,112,-111,-476,1889
41,49,-111,-1703,1130,2683
10,-128,57,-950,-61,3471
-119,-108,-126,-663,439,3644
1,-44,111,-170,-155,3496
23,-61,-94,967,-608,4177
81,-90,21,59,-644,3546
55,-68,0,-64,318,3312
-17,-48,0,859,-1114,3194
-52,109,75,1229,-60,2138
123,6,46,-334,692,1432
99,118,5,1522,439,1369
93,-55,14,764,-170,1132
94,-73,5,562,-125,301
50,-122,-4,286,-116,-373
-56,117,71,2937,-2266,-7718
-75,124,-25,1256,-4616,-6267
34,14,50,-2697,-1641,-3513
96,45,-83,-2170,888,1784
-9,115,-72,2722,-947,5374
53,-35,56,-2087,649,-3800
118,-61,-104,-1629,5482,-3207
-1,73,100,6152,-4313,6294
37,-31,-37,2666,-10940,772
56,127,74,-3382,4273,-7152
54,-96,56,-4040,-3929,-4732
93,88,-43,-2116,-630,-6067
-45,74,-95,-1673,-2600,-5083
83,38,126,1459,-2081,-1144
83,-54,-94,494,1185,2932
-98,-107,121,1297,1272,6479
123,-59,46,-4677,-1016,8477
-6,-82,-20,-2255,4826,-1854
104,68,119,2544,-2476,-4027
72,-100,-76,1506,-1203,571
-42,-67,84,1732,-1101,-513
108,-38,96,815,275,874
-81,-73,5,-509,793,1842
-71,-38,-127,-126,-605,2783
47,106,100,-1623,862,2449
-64,88,26,315,-40,4093
113,-65,23,753,185,2893
-3,-86,122,-1803,783,4088
-17,94,111,1456,1045,3269
31,-83,57,913,-815,3556
18,106,-64,307,-336,2621
-47,91,21,-1670,1081,2524
-52,123,-73,1051,511,2486
-75,-88,-52,1436,-449,2804
-93,-45,-8,-90,309,2078
100,16,-40,-522,16,992
55,-16,-52,747,-430,-78
19,121,-58,734,-241,-666
20,49,-71,73,-243,-794
29,3,-89,-714,52,-773
-69,89,13,2400,-5953,-5244
114,-10,48,-2218,-1252,-6903
-120,-111,100,-903,203,-6082
37,108,92,-1353,-56,-1379
54,-78,-69,1648,-2602,6902
64,-103,119,4988,-3482,2003
-16,96,22,-3824,8693,-4961
-100,-104,-85,828,39,4146
82,127,-92,1751,-3542,-1149
-75,-63,-75,-2457,614,-7170
-48,72,-34,-32,-4008,-5378
123,56,-92,-2663,-953,-6259
-55,30,-25,1413,-2047,-4663
76,-125,-27,2021,-2812,-1854
96,-92,64,17,922,1374
-53,97,85,251,1271,6455
12,-66,73,-534,-3387,9001
-29,11,-17,-4089,2994,-316
77,-53,6,810,2311,-4197
-67,-21,-119,714,-2417,1447
-84,-64,-117,1265,107,716
-45,107,21,-854,-814,470
-21,15,-53,-382,241,1836
-62,97,-93,-1624,-883,2594
10,97,-122,-194,573,2570
-70,126,94,225,685,3889
-89,-57,38,627,-937,3792
53,33,-109,-879,1001,3976
70,99,92,3092,-296,3730
99,-16,-104,-64,-333,3716
3,-105,-73,-1005,389,3027
4,26,-4,608,34,3251
-27,6,53,514,-412,2806
-60,91,-15,-511,230,2168
79,46,-48,745,-526,966
33,-8,-43,506,-290,-268
6,-68,-73,-448,-86,-741
-3,59,-75,-289,-264,-623
10,21,-77,220,-20,-572
41,10,-103,-416,14,-613
-85,-116,-6,2805,-2731,-5571
86,99,-35,350,-2917,-7101
-46,30,-15,-1730,-1112,-4125
-94,81,-90,-4237,2909,2872
-124,-105,-105,263,-2472,7167
71,-33,-8,2086,2,-2583
-120,103,123,3445,1276,-1733
37,-100,24,1417,-1045,5647
-55,-62,53,531,-523,-1790
5,-98,-69,-2617,1076,-6965
77,-6,60,-1546,-5186,-5438
-79,72,-23,-2693,-265,-6813
-45,-16,112,729,-2030,-5134
99,-18,-21,2448,-4121,408
-61,-68,-93,1350,531,3265
-91,66,116,570,1728,7028
10,53,3,-2467,-56,5854
-16,-74,127,178,1017,-1849
-97,-98,74,-992,-4,-3280
11,42,-53,130,-1065,274
-33,-84,107,326,437,-244
-106,57,-22,-917,-2040,764
-59,-74,-24,-1509,1347,1817
-25,7,-105,-447,-432,2871
52,81,57,212,-335,3065
100,-111,63,88,930,3614
5,20,60,-300,259,3998
59,-58,15,1827,-458,3846
120,21,-75,748,-282,3816
52,-49,42,-1035,913,3213
42,57,-78,2140,-30,3185
-56,-127,-36,-793,-718,2667
-106,-5,35,-663,108,2374
125,-63,27,1507,-154,2149
108,26,-9,-452,-165,1137
66,-4,-52,-465,220,245
24,-80,-75,474,-187,-530
33,113,-91,-296,398,-783
32,10,-123,398,-394,-558
49,8,-108,79,-171,-449
115,-5,-35,3484,-944,-6167
-85,-34,-21,1965,-5086,-7131
91,3,-16,-4190,-1842,-6607
114,-46,-94,-1766,1802,3182
-39,-17,115,2864,-2119,5691
63,127,-34,2602,-3065,-3429
69,92,52,-5038,11505,-1597
21,125,101,4172,-5217,5349
42,44,-72,780,1433,-110
60,72,-68,-903,1173,-5571
-16,68,-98,-1428,-3677,-5892
108,60,71,-4475,-518,-7973
98,76,-117,-2053,-681,-6893
20,78,127,834,-2487,-5098
68,48,18,2647,-2707,-737
67,-107,-45,1269,-503,1863
-55,-71,62,-805,1963,5186
122,121,-98,1238,-1365,7275
39,-124,69,-9921,5009,5025
-59,-52,-87,4317,-1919,-4083
75,-7,-45,2029,-2786,46
-51,11,-97,1535,322,186
-1,35,-31,111,-811,-29
19,18,-43,-1238,-208,1514
-75,0,-73,-2342,436,1460
-83,40,-88,-1063,433,2874
123,104,104,-585,393,3388
-114,-78,66,827,-402,3795
-27,-97,-80,27,352,3990
64,-70,83,838,-533,3975
71,-45,-102,962,-65,3764
101,125,-59,91,140,3596
18,93,-94,885,-6,2632
-13,-21,-18,296,-215,2832
-59,-80,-10,838,107,2985
-106,-11,9,916,-201,1993
81,65,-49,219,-126,660
17,-20,-68,268,-458,-615
6,109,-40,560,-394,-475
-26,33,-50,50,-392,-640
36,-69,-67,5234,-452,-7463
-105,45,47,1581,-5509,-7052
-20,112,89,1,-3263,-6946
37,34,-28,-2260,-4134,-6024
54,83,-97,-1857,1799,-3317
90,102,-122,-2202,522,5359
32,-13,108,4369,-3921,3431
-68,39,11,-4181,5367,-4549
96,37,54,-3975,8406,483
106,0,33,6016,-6807,6276
-128,-17,-11,2002,1749,436
-91,127,-73,-537,3082,-5233
62,99,107,-3037,-2621,-6563
-35,61,-61,-3324,205,-8191
29,-86,-84,-534,-3085,-7962
48,-114,-42,997,-4138,-3765
34,-99,110,3061,-2617,-935
58,122,13,12,1085,3694
112,-37,35,273,1507,6460
56,-87,38,1832,-24,8443
77,-14,113,-10114,8520,2497
35,127,-48,4620,-4894,-3877
114,-81,9,4774,-1958,-771
-6,70,-27,914,549,-71
10,-79,-39,657,-2034,1792
-60,-57,-27,-5142,386,1779
-80,-61,113,-4084,-34,2880
-6,-63,125,1636,-1032,4034
-36,-36,115,1017,-356,4514
51,4,60,681,1159,4234
-112,37,48,1005,-315,4184
-124,-75,-115,1472,137,4002
104,22,-72,194,429,3358
23,98,-83,312,40,3190
-42,-32,-69,2241,-86,3368
-64,-17,-8,1672,133,3022
-115,91,-36,417,248,1529
31,123,-102,890,-975,-658
-10,-64,-25,513,-382,-1166
-27,64,9,92,-48,-708
-77,44,-22,2455,-1299,-8002
61,41,112,3597,-8368,-7653
-128,83,26,-4041,-2652,-6149
-117,25,38,-2855,1664,-1163
15,99,-87,-455,-1853,6267
117,122,58,103,-2890,-702
17,-108,83,436,2185,-2930
-16,-52,52,2045,-417,4825
69,91,123,3429,-587,2866
59,76,-32,2154,-1232,-4223
-11,-107,-60,-1191,802,-4613
11,78,-42,-1348,27,-6020
-95,-21,37,-1776,-650,-5565
7,-24,-116,-1303,-1004,-5134
-126,-126,-71,1239,-1932,-3267
117,57,-29,1629,-2783,-741
91,50,37,2214,304,1403
108,8,-116,-129,-704,6887
39,92,88,2010,500,7853
-48,-95,-29,-9204,5042,2966
-37,-122,1,5148,-2588,-3248
69,-74,-77,663,-3389,415
-32,16,-36,-636,1245,250
-18,46,14,934,-1516,66
30,96,7,-1551,-245,476
-67,40,-50,-2521,-100,1192
-74,73,-105,689,-1663,1908
-19,90,-105,-884,-201,2151
-39,-83,-107,48,153,3283
105,-85,-76,1604,845,3069
-37,126,99,240,897,3666
-24,123,104,934,186,4048
72,92,92,959,735,3357
23,71,-95,-577,248,4153
14,30,-25,799,-396,3584
40,-25,62,589,333,3321
-7,-43,-56,1152,294,3088
-120,-80,-55,-701,-824,1003
24,66,-66,82,-562,-1063
-9,69,19,911,-97,-574
37,126,-43,5139,-5103,-5721
-113,29,81,-1416,2456,-6949
-52,36,-121,-192,-5794,-5700
-31,39,116,-3485,-1277,-5982
-20,23,87,-1057,-315,-3532
21,46,-48,-2579,819,3866
24,83,-29,2819,-575,5767
-98,-42,-6,713,1728,-4696
80,-34,78,1599,1259,869
34,-128,127,4466,-3402,3254
15,95,-101,1298,-609,-3591
-127,49,-105,-997,2407,-3960
100,111,25,-1307,1359,-4754
-41,-31,89,-908,186,-6232
123,-54,15,-1463,-1513,-5657
-79,58,-92,238,-1270,-5457
-102,72,-93,2178,-4197,-2960
88,-25,84,2159,-2473,-910
79,-53,-90,718,756,3933
-56,125,-55,3978,-159,9251
100,49,113,-4990,-25,8224
52,107,-45,1913,2090,-4093
-92,38,-116,-2100,2082,-2334
-83,21,-44,1804,-2846,282
11,34,41,-244,-168,150
-2,-14,-24,1611,-2132,724
-35,-84,-36,-1379,175,2011
-55,31,-91,-1870,-514,2301
-15,74,-86,-944,843,3384
76,89,74,2262,39,4359
43,74,104,-167,367,4265
-1,-9,69,115,493,4161
85,-5,-73,1806,-270,4017
25,127,-74,1947,597,3771
-7,56,-13,444,57,3715
52,28,-4,-984,530,3500
29,2,-23,131,313,2946
-109,-35,-64,-258,-1032,715
35,115,-94,421,-473,-1035
-6,106,-36,1135,-599,-704
122,-82,-73,2246,-2815,-5087
-55,115,-62,1517,-2077,-5796
-93,-65,39,-472,-2399,-5948
86,-27,51,-1564,299,-4915
123,-18,-113,-1675,1245,1592
98,-119,-37,161,-307,5419
-73,-22,-69,1350,-2087,-2803
98,108,30,-1267,5155,-2451
92,-84,89,3223,-4297,5222
-41,-126,0,-2227,2925,-1296
4,-64,54,-1803,4038,-5800
-116,-29,100,-194,-2239,-5206
90,-85,40,-4295,35,-6544
41,27,-19,657,-2744,-5847
114,90,38,1017,-4512,-3274
18,-99,-55,419,-1496,-940
73,-100,37,1783,32,3219
36,90,106,821,-632,7080
103,31,16,-2270,-367,6642
-54,72,-95,-5969,6445,537
84,-85,34,8696,-2551,-3151
28,81,61,2765,-2287,-629
12,3,97,-115,1738,890
-81,-68,-52,-2184,-2058,1211
-105,86,-66,-996,-525,2607
-38,-59,-86,-1299,-98,2898
63,56,121,-1060,913,4407
-47,-127,97,1611,787,4069
-102,-44,22,388,343,4416
107,6,-56,4506,129,5094
-11,-75,77,1919,-307,4247
51,-111,86,148,775,3212
50,94,-127,-1111,1897,3167
-70,-128,7,216,69,2055
98,33,23,803,-269,1823
40,-19,-29,294,-222,1227
-7,-37,-45,168,162,-622
-6,87,-40,595,228,-727
-28,-13,-64,936,-337,-331
-30,-37,-52,549,-462,-239
-24,24,-16,3830,-5466,-5922
13,39,126,-3107,391,-7186
23,98,-105,-624,-1665,-4670
28,-29,13,-2078,1526,1896
-27,-36,20,915,-475,5556
17,-52,78,124,1633,-1876
-73,50,-65,2896,53,-3151
77,-82,117,1834,-1426,4902
66,107,8,1411,948,-1021
-100,-104,-62,-7,2711,-3471
11,93,-13,555,-817,-2978
-38,-27,-105,-436,642,-4839
-59,-86,20,739,-1851,-6753
-118,109,82,-713,-4024,-6108
-33,1,26,1507,-3139,-3596
99,-36,-9,2985,-3565,-1846
48,71,100,2234,635,1433
54,0,-20,601,2235,4784
-15,62,-61,3498,-111,9244
3,84,4,-14110,6155,6275
126,57,-25,8326,-4811,-5265
54,39,33,1763,-1938,-1002
-40,87,-3,3,728,-373
-65,-4,27,-197,-1822,1003
-73,-38,-28,1163,-2393,1381
-59,51,42,-1758,1671,862
-82,9,-104,-274,-308,2253
18,71,-112,-777,938,3519
90,112,78,862,360,3893
-55,-72,-117,272,1461,3203
16,-84,-8,89,-157,4301
7,-119,100,2097,509,3802
-10,102,-91,1504,756,2900
-10,84,-97,1255,607,3157
-20,-40,-45,1311,1018,2812
-62,-64,-98,772,874,1828
105,102,-52,906,309,1671
94,93,-29,763,410,1343
64,-128,-27,-89,160,849
18,92,-25,173,-242,127
-90,-13,-66,-1052,3750,-5883
27,-28,-85,-856,2576,-2953
101,92,76,-263,1739,7687
-6,114,-101,782,-2001,2310
-109,10,-6,2030,1979,-4935
-84,-112,69,2256,-2995,-3787
3,7,9,-204,-1708,-6159
98,-32,-105,-98,-3174,-5995
85,21,25,612,-3004,-5381
103,97,29,1999,-3755,-2927
77,110,54,1700,-2788,-518
47,-28,10,617,-181,1367
11,-62,118,-554,2490,5682
-68,45,-70,1268,-1451,7731
21,-6,-44,-9890,5428,2881
39,-8,-38,3455,-393,-3290
26,61,-86,1924,-1318,-116
-62,-71,93,-1902,1472,958
-58,-59,-40,524,-2037,1771
-34,-1,-9,-1596,114,1758
13,-9,-30,-2056,612,3134
19,56,-54,-500,-863,4431
8,-99,-96,1172,88,4766
-83,23,-113,853,572,3813
-116,-95,98,1000,815,3760
-113,102,85,1483,-554,4313
118,46,-117,1063,287,3775
24,57,-86,1340,-112,3624
19,63,-56,2023,-277,3046
-49,-85,-79,1097,-281,1118
62,32,-55,1177,-159,-87
30,70,0,1745,-364,-90
-19,-10,48,121,-402,-287
-27,-48,69,-231,38,-41
-23,-72,43,415,-131,112
5,-23,-3,36,77,-194
0,-45,-1,153,-153,-211
-1,-63,10,94,11,-141
8,-65,-19,-52,117,-173
0,-62,-50,39,41,-15
-55,-32,32,1134,-4222,-6629
-44,48,-95,-4076,-2019,-6337
124,-32,107,593,-1014,-3066
41,19,118,-1673,-342,4739
-127,-16,-88,319,1303,5474
96,-23,-74,1242,1153,-5376
101,4,-117,3148,940,362
21,86,-80,-1597,253,5703
0,22,-20,955,279,-1217
97,113,104,-645,2651,-3448
76,74,40,642,618,-4649
-118,96,-86,261,-2322,-6926
-106,-80,34,-3301,-2360,-6797
-5,-8,-47,-4466,1275,-6324
-123,-4,-101,3448,-4970,-3823
8,13,-57,2924,-4879,-1588
-16,-54,72,235,1609,478
-65,-64,-32,2887,-234,5634
-15,97,-4,1608,23,7359
-110,9,-3,-8670,2744,5003
-123,28,19,2822,2494,-3313
-43,-104,65,3643,-3361,-1773
-52,108,87,2141,-1963,415
-109,-71,-8,-4517,1048,871
-121,-25,-91,533,-2251,2235
-87,6,-28,-1634,1330,2672
4,-102,116,104,255,3331
81,4,54,123,43,3630
-60,-25,55,850,563,3107
-100,-27,27,554,-242,3842
-35,-36,-128,-93,257,3622
-4,123,-108,1025,397,3063
-25,-86,-87,-746,497,2955
-36,12,-100,170,-84,3131
-44,75,-35,111,-594,2502
-71,57,45,75,323,1858
97,-14,-51,732,470,1242
52,0,-63,555,-559,773
40,-33,-52,207,-54,37
19,-114,-93,180,-111,-419
1,-43,-17,2046,-1032,-7054
-117,6,15,-253,193,-6682
-29,104,-1,-1341,335,-2004
95,-118,22,-1142,-2926,8436
117,55,-115,1072,-5107,526
-58,-120,117,-352,13430,-5093
-15,96,-112,4841,-6384,6634
100,113,-62,680,-2536,-300
52,-95,-23,-2508,4851,-3856
-27,41,38,722,2667,-2467
-107,73,-41,3918,-87,-3457
-55,-59,-98,1214,-2193,-5670
-126,-53,-77,-3810,-354,-6030
106,89,25,-1617,468,-5628
-67,-92,-48,4623,-6519,-3591
120,-70,-26,3180,-5124,-1904
55,17,-79,359,160,806
46,56,81,1954,628,3824
-21,-29,-73,590,2230,8158
125,-29,5,-4191,1318,6144
101,81,-31,3215,-5348,-4576
15,-99,-127,-1780,2037,-406
-52,43,100,1261,-403,317
80,87,4,-617,1240,-40
14,24,-27,332,-1194,826
-3,-48,-54,-1139,207,2082
-18,53,-105,-2132,367,2853
102,53,118,-1951,569,3732
-76,-61,36,1123,-1381,4428
6,28,-115,-92,-169,4533
5,10,-43,-636,-858,3995
-116,-40,-37,520,1599,2885
112,89,79,2688,-749,4315
36,-92,-108,249,-1592,2859
-75,68,18,-1485,533,2196
-94,-70,-17,2172,37,2565
-127,35,-33,1542,-385,1735
74,85,-53,-306,-53,143
25,-44,-50,554,-469,-714
15,105,-28,369,-312,-928
-82,-20,46,3630,-1612,-6247
25,-110,-31,3238,-3837,-4918
65,-92,89,-3953,-1097,-4055
13,94,61,2,982,4084
127,-56,113,-436,99,7659
-102,-128,-81,-1352,-832,-1336
-10,-84,-34,-410,490,-6921
-25,15,-20,-1425,1799,1637
101,40,41,3817,-1884,5314
-95,-92,12,-402,2741,-372
22,-43,40,-63,4122,-5440
78,-88,39,377,-275,-4583
-108,-25,61,-937,444,-6234
-5,112,11,-1513,-1308,-5591
-34,-14,-53,1160,-3271,-4234
-104,110,7,1345,-4066,-2111
119,124,-109,2751,-2776,-162
-31,-83,62,273,-1581,2692
-77,71,-98,176,389,7219
110,-95,50,-2750,-1446,7436
-89,67,-81,-6863,6080,-531
82,-59,33,6248,-4119,-4254
58,-51,-51,2937,-1958,1005
55,17,124,-130,-448,-96
-90,31,-11,435,-3247,-235
-57,-22,62,-1079,866,194
110,-5,15,51,-949,1763
62,-17,17,1469,-245,2487
-16,-120,-15,-2275,2797,3078
120,61,17,2258,-525,4747
-22,56,45,-1176,594,4000
19,-124,40,-1006,934,3693
63,107,56,1750,-995,4293
67,-68,-37,378,-351,4034
47,93,-44,590,250,2779
-48,10,-39,712,265,2501
-51,-96,24,1462,252,2891
-57,0,-4,558,32,2805
109,59,-50,-33,-254,1675
15,43,-37,461,-552,-258
104,-49,104,-666,-2859,-9383
75,-19,62,2270,261,-6502
-113,51,-23,2948,-3202,-7178
58,56,43,-2164,-1112,-5142
107,-58,-31,-3003,3304,-691
-58,-80,-102,-1026,-1429,7618
29,-79,64,3642,-4607,1701
-36,110,44,-2492,6483,-5168
73,-27,84,-1213,2971,701
120,38,-7,2587,-3174,3780
-118,11,52,380,2998,-1456
34,114,98,900,3746,-3361
81,102,118,1975,712,-4018
62,-24,-93,579,-1111,-5148
42,13,63,-2606,-630,-4980
7,-8,-60,496,-2098,-5083
-31,-72,102,1781,-5618,-3129
-113,0,-59,3200,-3398,-1598
104,-119,-101,1054,-2416,1833
-50,-21,-36,-473,871,4293
-64,-128,-53,1420,1322,6728
103,32,-2,-5853,2584,4455
83,82,-60,5145,-3315,-3672
-127,-31,88,166,-2096,-1718
23,0,-56,-92,1200,-282
-51,-26,27,544,-2068,610
-74,30,8,-154,-935,1288
-101,-18,10,-3584,864,1311
-73,54,-64,230,-1111,2516
-42,101,-72,-1684,688,2697
-126,-39,94,142,-461,3729
-106,-21,87,535,-361,3316
-44,-18,115,711,625,3546
-26,-68,111,988,-184,3046
-32,97,111,1456,185,3427
-14,106,-70,822,155,3523
-39,126,-33,418,55,2477
-68,-11,-16,420,450,2186
-114,-121,-29,1284,352,2386
-106,-120,0,881,210,2415
38,126,-60,1039,-2894,-7880
99,-43,83,2199,-1203,-6900
-64,-52,-42,831,-4250,-6423
-48,-38,-102,-2065,-1796,-5198
73,-46,108,-1038,-369,-2388
-77,-102,47,-1221,-460,5583
62,-61,-87,2224,-2104,5883
68,100,4,1422,-431,-4696
-113,41,69,1338,2009,-2281
-98,14,53,3103,-3210,4880
48,33,78,-2146,3513,-303
-60,-103,0,-604,4783,-4432
43,-114,38,-907,454,-4211
82,0,-122,785,194,-6040
72,50,-12,-1821,-2132,-6255
67,-83,-102,-772,-1210,-5018
-86,-5,-57,2228,-3612,-3339
90,-88,-5,3025,-4655,-522
69,-93,7,92,584,1957
-99,-73,-92,1192,235,5189
-12,53,13,4296,-2240,6814
45,-56,118,-9950,7280,1623
87,101,53,3846,-3027,-4131
70,69,-77,1196,-1427,-360
-40,33,-97,-1817,657,-123
-109,77,42,573,-1391,-212
101,-29,61,887,364,1237
112,14,18,-257,-694,2001
-126,84,-92,-429,-63,1712
-40,-101,115,-2301,1348,2591
20,-100,86,823,-528,3475
88,-59,112,670,616,3059
-75,-57,94,-895,894,3589
-79,114,-125,1262,-8,3428
-19,-72,-88,-84,-36,3779
-36,126,-27,-295,515,3051
-42,91,-26,38,-453,3237
-67,17,55,-73,246,2881
-44,-59,-34,588,-112,2854
-70,-31,-10,825,-559,2955
-93,60,-89,-1047,5082,-5373
90,-106,-76,1550,-988,-3288
14,5,-36,858,1026,4336
108,-38,-107,3563,-2345,1295
36,33,75,-182,4679,-3901
36,-31,74,2027,-1390,-5563
-30,-30,7,-761,-1901,-7774
38,78,-55,-102,-1879,-6842
-12,55,-16,1067,-4910,-4590
55,3,124,1955,-2816,-1394
109,119,107,1069,54,2077
-49,49,-123,1632,1328,4315
-57,-17,-59,-511,1888,5465
36,-61,-122,-1573,2322,6252
-123,53,-86,-9216,4247,2151
32,-60,-29,4113,-4281,-2904
-112,-6,103,620,-1484,-1049
52,61,106,185,1272,-789
-9,-46,-21,2236,-2181,1089
-78,-45,-54,23,-513,1269
-31,-85,-41,-1346,1421,2588
14,-121,107,-1010,1203,4536
-75,27,49,491,1522,5210
-88,-57,33,-938,1927,5094
-75,93,14,1861,1177,4729
28,-114,-110,776,1145,4793
-44,-26,-117,2523,1431,4369
-57,-82,-106,2070,910,4356
-116,-105,-39,1121,1012,4330
12,63,-36,823,-51,2712
69,-23,-88,22,-604,-498
-63,-97,35,783,-692,-1230
-62,48,94,546,16,-651
-93,-16,29,207,-194,-394
-51,-13,48,-243,-344,-409
-35,-51,55,-237,-46,-716
-26,-102,44,186,-324,-271
-29,-100,50,-287,-149,-351
-33,-95,41,-372,23,33
-29,-70,11,-192,-195,228
99,112,-93,3266,-1728,-5111
20,30,77,2829,-5435,-12704
-96,-116,-39,1024,-2292,-13448
92,-76,18,3429,724,-5541
70,104,-104,-295,2390,10989
-11,121,123,-10257,5441,10584
-121,0,-87,2429,1223,2383
-91,92,-77,-2597,-6898,-14204
-90,-88,-55,4247,-979,-9247
-94,-44,-106,-2167,3285,10081
40,-3,24,-3992,1813,11024
67,114,46,-1794,-223,-8460
97,115,11,1897,-5549,-15762
65,25,-79,-2843,-2703,-13181
94,4,-110,432,905,-7802
-21,98,-20,723,2135,908
-58,-89,86,-2958,819,8805
51,68,125,-46,-6852,15153
-56,100,43,314,5001,2708
67,86,3,-4744,4646,1773
106,-25,-2,335,-2377,-392
-78,-33,-16,1293,-5949,3349
-69,-126,-13,-39,-1055,5605
70,23,21,2223,2851,11071
-119,-67,-14,2427,4927,7718
87,-44,96,-2419,-1405,5395
-48,75,34,555,-6274,3379
-65,55,-46,-1017,7398,-4130
-44,26,17,-2166,-296,149
30,33,-102,-1660,72,-1605
41,72,65,-1388,-1487,-2481
-111,47,-55,-3195,1798,-308
-103,67,118,-1107,902,648
-107,-89,107,-1050,450,-162
-98,-75,109,-775,361,-640
-85,-98,-125,-83,-69,-362
-72,-91,-116,-402,278,-246
-100,-94,110,11,221,-165
-107,-106,95,163,-24,-154
-83,-109,109,-318,-69,29
-22,-18,-40,10725,-2888,-9290
-55,-111,35,-5298,1447,-13572
61,90,120,1022,-1314,-13456
-110,-37,-101,13319,-3899,-7959
114,115,-57,-4920,7826,15734
73,69,-121,-9820,11085,10400
40,31,26,455,-5793,-14689
9,-7,112,-6962,10617,-7427
-103,117,-35,17428,-10665,-3589
-1,-47,-13,-9648,12799,10990
-18,6,-48,-8433,1256,12652
17,-90,-93,5150,-4301,-7446
115,-45,-31,1327,-3410,-13285
-75,1,16,-5420,723,-10112
113,113,-121,-2455,2372,-11650
-21,-15,70,4756,-1485,-2847
112,52,-124,-2234,1857,3122
-86,-122,-86,3373,2002,12125
10,23,79,-4855,2676,12515
106,-76,15,-5165,4347,5386
-33,55,15,-8303,3771,2716
-33,64,-51,5770,-3158,-877
44,-31,-9,1896,-4751,193
86,-128,-90,69,-2467,5343
81,80,-121,-1801,-34,7764
64,-115,-69,906,-869,7471
83,-54,-114,1359,-1580,3677
-65,-14,-61,956,3193,1066
-90,-97,95,-763,-2891,605
-84,68,-19,2189,-9467,-1343
-39,85,-27,-1004,5956,-1632
-40,56,-31,2674,34,-439
45,-118,-119,-374,752,-1224
83,44,49,672,1064,671
82,-112,35,-1617,995,94
92,-88,29,-2044,341,71
-128,-92,36,-777,-22,349
-95,-29,71,-1074,139,274
-97,12,70,-1324,27,74
-108,24,65,-889,-155,-145
105,-54,69,8332,-2459,-5895
-7,-89,29,-1614,1933,-12651
-66,-83,-89,-4335,2498,-11786
-20,72,76,10583,-3744,-11755
51,75,-35,-3665,2700,17675
-73,55,-15,-7294,8818,9734
-67,-89,87,11518,-12401,-10628
100,-6,-13,-6639,9063,-12612
96,-4,68,7268,-7765,3606
49,-128,-59,-4982,8609,10209
-109,113,-37,-2487,3539,12782
89,98,5,8380,-5187,-7732
47,-44,-40,-3693,-2232,-11887
59,-13,111,-3742,-1717,-10874
90,47,28,-1995,-288,-9915
67,-7,109,5729,-2570,-4273
-124,78,80,-773,525,6767
-50,-86,-70,2626,3902,11474
121,111,55,-4330,1469,9236
83,-14,-50,-12774,6894,3973
69,-19,57,-2490,1872,-2743
-111,-102,111,8011,-6800,-376
-52,-65,-23,271,-4972,4087
-116,-122,-45,242,-2295,7980
67,69,-124,1461,457,9468
-124,80,75,-553,2383,8746
-87,96,-45,5183,-6044,3656
-98,76,-115,-8780,-1363,-511
55,122,66,9789,-102,-1924
76,-68,-121,-4632,370,-3527
30,53,19,-3511,3249,-1377
41,90,45,1092,-715,-552
45,-121,77,-462,-186,-678
85,-119,34,-1600,1599,-406
96,-60,48,-862,-425,-356
117,-18,80,-1879,-15,-530
-114,27,79,-2426,836,-839
-115,30,87,-1720,334,-834
-128,49,99,-1700,533,-537
-122,62,117,-913,249,-218
-117,124,-69,5043,-818,-5497
-12,101,70,2486,1404,-8762
-26,66,65,2562,493,-11029
-78,-25,37,-3375,-6742,-8926
-106,39,-128,7262,-1056,-776
27,-57,-66,-4270,2539,9751
56,-70,32,-3269,3920,10846
-79,-17,-120,1425,14,-6637
-115,-107,57,-6388,2120,-9734
-127,-29,-118,3278,-5684,765
82,-117,-99,-557,5427,4645
-41,-76,-127,-5931,9185,10130
51,-95,-65,6283,-2356,-2196
28,-23,-110,-1859,-5898,-7561
118,-54,-35,205,-6666,-12071
-67,23,43,-4962,-3181,-10274
89,32,101,1761,-573,-6496
-27,84,107,388,-832,-607
-54,116,-5,-247,1520,3161
-6,24,-108,1837,1673,11724
-119,-120,71,4155,1921,9079
20,75,-52,-17356,11360,676
-97,101,-42,6901,-8355,-4515
27,-84,-108,-1559,-5247,1780
-62,-46,-49,-374,-4169,3322
11,37,-48,-4320,4159,5391
-76,-78,117,2868,-1082,8367
-22,20,3,-243,6180,5983
-98,34,-30,-138,-4442,6302
-112,117,9,120,264,3843
73,-88,-19,1605,-6491,936
108,-43,49,8386,1538,-2091
-68,83,-117,-3754,1280,-1853
-33,-37,-66,-2384,2014,-294
-6,81,69,-829,275,-1435
24,38,85,242,-481,-1174
52,15,74,-1075,1099,-187
84,94,85,-1121,-92,-247
85,-116,99,-1147,-469,-464
89,-74,-118,-2737,369,-1083
-60,-80,-81,-1168,4800,-12503
-20,-29,-24,13,6000,-11825
39,-60,24,2186,3498,-11333
63,-109,63,-9917,3887,7473
-30,-110,38,-1002,-4367,17514
27,-99,50,3749,8349,-2245
-39,-9,-27,-1247,-6901,-11703
-85,-24,-124,13376,-12753,-6945
-6,-56,24,-2216,11320,17658
-17,37,76,-9365,7316,5850
121,18,0,20131,-21671,-7269
-74,94,-55,-12244,-4647,-16659
3,-108,-95,-1189,-12083,-7956
98,-66,-51,-12517,22702,-4180
13,-115,-62,3414,-8574,6451
21,52,-71,1087,9292,11819
-108,-44,-4,2637,-806,11637
-119,94,-120,-14815,15150,3735
108,-61,94,1455,-1466,-8527
25,123,-73,-389,-4683,-2790
-63,-94,-52,3530,-7683,7260
117,47,18,-3563,2462,13408
-36,50,-104,-4821,5155,9077
-124,62,89,2889,-7167,4644
-117,123,-57,4688,-5320,1146
-113,-2,52,7776,1735,-2458
94,46,-27,-4443,1537,-2810
-14,35,-74,-108,207,-212
26,121,67,-1954,1908,-611
78,-103,72,-847,92,-157
105,-122,53,-128,481,98
125,-24,81,-1401,203,-738
-121,2,120,-3097,501,-1276
-112,-21,119,-2252,682,-696
127,-11,-127,-623,55,-130
-126,8,123,-45,163,199
-107,39,113,544,-336,357
-96,50,98,571,-190,206
-89,46,90,533,-260,29
-91,38,92,102,-262,6
-112,7,69,1573,2751,-9103
72,73,49,4727,-1009,-12727
-99,-80,-23,3054,-56,-11933
42,78,-19,10568,592,-8656
104,-9,-14,-12523,5222,15187
-55,-56,-74,-6954,780,12087
-108,-49,55,6738,-9412,-7590
84,32,3,-2651,7885,-9018
73,-12,-113,7969,-11281,-5269
-63,116,10,5169,936,9475
-95,-5,40,-11191,11884,6610
11,-91,124,1563,-2470,-9563
-49,46,52,-784,-6143,-12003
-89,-57,-97,1399,-4108,-10748
-116,124,99,-5002,4493,-9008
50,34,-124,4896,182,1349
-75,116,-40,-829,-306,5074
-54,23,12,4817,1495,18166
-70,-9,-91,-7325,15693,21
5,76,-38,-6416,4131,6508
-1,45,84,6744,-14548,-1835
10,123,-96,-8851,4174,6257
-15,-22,-92,-5216,-2284,2779
-23,124,46,666,-916,6524
87,55,25,1099,-1102,6507
-24,-6,52,4819,-3479,2767
-18,-61,-108,-4321,2397,4246
123,-53,86,-5814,-4184,-1016
-85,-7,46,1813,4677,-2691
49,-108,-63,3155,-60,119
-21,116,-68,-952,1917,-984
68,96,54,-317,-611,-320
94,64,48,25,621,400
122,-123,24,-908,807,192
125,-69,36,-1795,-390,138
-99,-32,62,-2249,6,11
-78,30,89,-2245,99,-300
-112,59,97,-2087,144,-869
124,54,-97,-777,-768,-489
127,12,5,903,865,71
-59,51,-72,4803,-924,-6577
100,15,-75,1975,1824,-10718
-2,68,-76,1112,1575,-12102
11,71,-49,-688,18,-11220
-24,105,80,3047,-1319,3435
117,126,-73,-10186,1638,16708
8,-1,104,5883,-864,13254
87,-70,-73,-1692,-3920,-11606
-96,-69,-62,-1758,1077,-10278
-18,-5,107,3255,-10197,-7452
13,64,-106,6074,5698,7200
16,-38,91,-10625,13749,11525
14,50,-125,5997,-7760,4745
113,-49,-29,-2763,-287,-11153
-103,-55,76,-1208,-9102,-14536
87,-11,68,-7985,-2638,-11036
-125,-110,6,6811,-1754,-7592
-102,-47,4,1845,-1781,2815
-24,41,118,2446,3265,10373
-24,-56,-30,7102,6446,10764
13,-48,-82,-16256,8925,6343
114,77,35,-6482,6257,4213
-122,-20,-88,-1174,76,-4849
18,102,-29,6842,-7626,1785
-93,-110,67,-2873,-1987,4688
-108,-97,125,469,174,6256
112,100,-56,3845,-1592,7687
-61,119,-109,-381,35,5586
41,82,21,652,-202,1593
79,66,32,-2369,-2466,1207
-30,114,2,7752,87,-1578
96,57,44,2103,1014,-1652
-21,72,46,-2765,1682,-906
14,17,-11,-3796,2521,-722
45,19,4,-579,19,-392
13,59,29,-33,-730,-142
57,115,85,-895,-251,15
71,-102,97,-951,-564,194
93,-51,111,-2086,295,-226
86,-15,101,-1870,-157,-364
-54,-123,45,4142,-2375,-10538
13,-47,36,45,-2356,-11458
-60,127,86,1462,-2560,-12014
-2,-117,-109,8368,-1541,-5013
86,-104,-82,-7753,6830,15185
-89,16,102,-8169,5183,11534
34,106,-17,13765,-4099,17573
-94,-60,-100,-14036,4313,-12095
-51,-22,-78,-2008,-5531,-11308
37,-3,-99,-622,1245,-9808
114,-60,-86,7220,-2307,3563
51,-55,-110,-4621,10575,10525
15,115,-61,-4836,4067,12020
-97,7,54,21392,-13840,12663
79,39,-105,-8585,-4130,-7350
-127,124,55,-3717,-2287,-14757
-63,103,65,-2628,-8411,-13683
-2,-23,-87,-3525,1633,-10983
2,10,-98,2099,-3017,-8884
83,60,-36,-332,-59,3171
-41,83,-112,1608,1031,12222
-7,9,-96,3226,-3018,12134
61,-7,56,-14022,14432,5336
-120,61,42,-217,8896,-163
-114,102,28,2931,-3170,-5063
-117,89,10,-2187,-9711,4157
-78,41,-3,486,-7109,4590
38,27,-18,1325,3577,4894
-2,-69,-89,2974,296,9216
-106,-75,19,-231,6621,6913
8,49,-6,-5028,-3963,3620
92,64,71,-2343,-5883,1648
78,47,-62,8992,668,-2597
66,-118,-84,-4203,1309,-5007
72,2,15,-3103,4164,-1532
15,-29,-30,3276,-1129,643
-30,64,63,2237,-1707,-27
0,88,61,-1233,873,-175
76,-113,73,-2691,820,-146
90,-81,67,-2356,-82,-201
-22,-80,-8,4524,-2936,-6698
34,-101,-103,-922,4085,-9646
-4,-30,21,-1656,2506,-13462
103,117,-52,1445,-2646,-11616
125,61,96,9672,-7886,11934
102,-119,94,-11505,11760,10922
12,-83,-13,11496,-3712,14993
-24,-21,123,-2920,-8578,-16220
71,112,46,-3464,6233,-11592
-123,-113,14,1664,118,948
20,-24,-117,-366,4882,11655
124,30,-33,-4968,1856,12806
-128,-121,93,9905,-244,-7447
10,124,-68,-6734,835,-13607
-54,-45,4,-476,-12190,-10546
-118,-117,-64,455,1119,-10039
-95,-98,35,1897,-2218,-1753
45,-1,101,-3237,-357,6924
-51,16,-66,11831,-518,8987
124,-91,123,1839,6269,5651
109,-61,-47,-10337,8472,5895
123,96,-90,1676,39,-2228
-47,-9,-41,-497,-1520,-691
54,54,-66,-452,-1701,4561
117,114,-104,413,-3145,4121
0,52,-93,-1485,1466,4792
57,-124,-103,-1899,-994,5974
-16,-96,-24,-1859,2327,3398
44,21,-81,2169,-1296,3192
28,-26,101,976,-250,2873
34,-43,38,254,-1298,1409
-76,-63,96,-1551,-1443,237
2,-2,-75,2772,1246,-1563
85,3,4,2151,-931,-813
22,96,51,-939,536,-949
34,86,85,-1063,521,-1120
63,58,82,-1010,842,-874
90,85,59,-1599,854,-183
94,-120,52,-1414,274,-182
100,-86,72,-635,-282,-61
-11,87,102,4401,780,-8490
-4,-99,-68,3721,-545,-11659
-62,108,111,-2978,2482,-12195
98,-42,-41,3176,73,-11808
-16,98,-75,920,-1352,14983
3,118,-61,-10846,6246,15375
-83,12,3,2127,3349,1424
-7,112,-53,2805,-2562,-14457
-128,88,-49,3751,-6342,-9531
-24,106,-25,8902,-1865,8298
-47,-47,119,-3784,12818,6337
47,2,-96,4215,-6599,14002
-81,-51,-27,-6195,-4228,-12427
-107,-92,-13,2303,-5919,-12841
-25,110,51,-7735,-326,-11821
-101,-16,63,6831,-1242,-9316
-28,-20,42,-3889,76,-3418
116,49,-61,669,-1387,2125
31,38,37,7233,1387,10492
-31,78,-123,6899,3985,11257
98,-7,57,-9737,12971,503
-14,117,115,2321,935,2519
37,-48,-20,3938,-10128,709
92,36,68,-8790,4723,937
39,82,-70,-560,-2052,3687
75,-31,66,-1192,2780,5833
-67,127,82,-3746,1983,4009
41,68,-124,237,-1618,4947
27,-6,118,2851,63,4718
116,64,31,-40,-1333,3136
-26,-28,-10,-2959,150,1657
9,77,53,6689,-10004,2054
5,19,-110,-1910,9880,-2252
92,103,126,421,-941,80
-21,107,0,-2163,1224,-1543
27,59,47,574,-851,-1076
47,31,75,744,64,-465
18,61,57,-396,327,-285
53,103,82,-1473,-289,230
86,-72,98,-2588,208,335
-24,-29,-6,4818,-151,-6185
34,2,-19,277,2724,-12895
-17,79,-41,92,-1436,-14858
-113,-22,66,3739,825,-4799
-95,-102,-87,-5988,5270,15687
-125,-12,102,-1669,-5391,17157
116,-52,68,5716,-6530,-15836
-43,88,48,-4423,1809,-14061
-98,83,21,1618,1492,-3128
56,-21,-86,-7490,6752,16183
60,-113,94,3627,-7450,10941
90,-60,32,2546,-231,-11355
63,-23,-96,-788,-6885,-11995
29,95,68,-4230,-5317,-10124
102,-43,98,1081,3000,-8566
101,9,-31,4574,-4860,572
19,-9,42,4205,693,6205
-22,-2,-6,6385,6824,9655
-53,73,77,-3424,10896,3761
-104,-42,18,-13737,3774,2978
74,-7,57,4966,-5345,-734
-6,33,-59,842,-1233,3056
-27,66,-1,-2453,-5792,4025
84,2,-46,-5090,3857,4683
-41,-55,-42,-1386,-703,6525
31,66,-81,3488,-2236,6372
1,-30,-88,-1543,1356,3406
-128,-94,79,-1764,-608,1635
92,-67,-72,500,-3207,1568
72,-126,-119,14436,-4850,-389
-79,39,-89,-1820,1811,-1553
18,102,40,-1542,-107,34
6,108,11,-1433,1864,-764
9,70,-25,365,477,-983
85,74,23,-585,114,-420
97,108,57,-583,-454,-345
106,-111,92,-1304,-177,-577
113,-92,99,-1434,-107,-652
90,-25,-114,-2900,324,-1061
105,-58,-121,-1196,84,-93
90,109,35,3387,-102,-7295
33,119,-76,974,-4733,-12823
-29,77,8,1146,-2187,-11200
-69,120,-128,2540,2768,-7669
36,49,-78,-408,5254,12217
-55,-22,-79,-11681,11502,12205
36,-53,122,10249,695,536
-115,-95,42,-6565,-3608,-9802
17,82,-95,3725,-2940,-10549
52,-79,-98,4427,-4376,-32
-12,89,-95,91,5746,10932
-123,2,-127,-4510,3445,12540
-10,-9,113,4500,-3613,-8961
76,113,-114,-6809,-1858,-9717
-125,-63,-3,106,-8933,-12737
-8,20,55,-4726,5153,-11041
-113,10,-59,3916,-3918,-5640
-75,121,-120,-1311,-337,3428
66,70,75,2729,3977,11171
-110,-4,12,1435,634,14970
4,125,85,-10300,9743,2649
-108,10,-26,-8833,11930,-2478
-105,-83,-94,7921,-12418,1502
106,61,-30,-3381,691,3214
33,-36,-49,-1609,-572,2377
-26,86,76,-104,-1946,4936
64,101,9,-1399,83,4385
13,85,-91,472,-1367,4446
107,68,-123,-657,1128,3651
-41,-16,89,-1373,-714,3135
-123,23,79,-3884,-1302,2080
-125,37,-35,13783,-6546,1991
1,34,78,-1951,3116,-4047
-1,127,-100,-1357,41,-1415
84,-107,52,-3689,2287,-1737
65,70,-3,862,-455,9
55,111,13,528,74,128
64,-77,48,-120,-349,71
92,-69,77,-450,-469,64
125,-37,103,-1539,35,-277
5,21,-60,12569,-5072,-6427
-66,78,90,-2455,-2969,-9766
-6,44,34,-4850,-8213,-10556
12,-56,-74,-4004,-827,-9916
2,33,116,10275,-6479,4803
100,-81,-92,-5103,10917,7479
-114,-96,-1,-6098,9339,12609
-118,-53,55,6994,-10878,-10289
78,-29,35,-4979,1821,-8742
-63,0,98,517,-5417,-9058
-18,-36,-32,9733,-957,3568
-76,24,123,-7778,7612,14460
-110,-2,49,-1546,-175,9935
47,-112,-90,692,-3779,-11055
78,-76,78,-3091,-5030,-10929
68,75,-4,-4652,958,-10299
-125,-69,-29,794,-369,-10303
39,41,-73,-764,66,-5874
53,-15,49,8905,-4519,2440
-86,-41,106,448,9729,11197
65,-45,-98,1718,2021,10026
125,-33,25,-7785,8403,4842
15,41,-3,-7793,3245,-454
24,-113,-60,5651,-6357,-1009
71,86,58,684,-3373,4111
-51,-33,83,-2935,-1856,6078
35,66,126,-468,1344,6004
122,-99,-28,708,497,6132
-64,-50,83,1726,-2988,6257
-10,118,96,-4423,399,2391
75,57,-24,11719,-7594,2922
113,-57,111,-1242,3766,-4987
-77,89,-116,1057,-821,91
-54,112,32,-2999,2257,-1392
-10,92,28,-679,268,-751
24,54,9,-21,623,205
37,-124,32,195,-570,455
38,-58,69,-1469,-638,-30
70,11,-114,-3239,-133,-309
118,77,-14,173,-697,-530
-54,21,-101,452,-2134,-10708
-44,-103,-66,-2498,-511,-13757
-116,-41,105,1178,-4486,-12249
44,78,45,3359,2413,-6218
-31,-18,122,-4576,6467,14367
-74,-30,67,-8030,3416,13747
-25,-16,111,9544,-13117,-5036
-74,-121,34,-2263,-2203,-9838
45,-68,-47,-2999,8879,-8116
55,75,74,12620,-8604,1052
-81,-58,-97,-7022,8651,14125
-123,80,-40,-3795,318,12762
-110,68,-40,-2718,-4474,-3924
-31,1,120,998,-2403,-10476
-66,-72,96,-6512,-1790,-10918
-73,18,61,-5299,5209,-13204
-54,99,74,2952,-3484,-10995
-108,48,117,-1819,1083,314
-10,-95,117,2664,-1189,5055
-56,-82,-38,345,4834,12521
-15,-114,-65,3436,1840,13335
-4,-121,-61,-7114,6801,3738
63,91,100,-1290,2262,-3018
-14,-7,-30,-347,-3031,-119
12,-9,-12,-473,-3250,2008
-7,-93,31,-1330,1351,3445
-88,-76,-84,-3340,-357,5713
-120,-12,-62,426,-1323,5052
-74,3,-121,610,-88,4921
-124,-15,82,1595,-904,4736
-75,-20,72,-375,60,3834
-102,58,56,-3120,-2057,1948
-92,-14,50,17976,-8053,3953
-112,-103,-6,-8442,3477,-5587
16,92,7,-2368,2266,-546
-16,53,36,-505,1710,-691
-19,116,93,1422,-1466,-793
4,98,86,-566,961,-700
69,-125,97,-986,723,-918
54,110,103,-242,-453,-1019
120,-1,123,4180,-4484,-7074
32,-46,80,-4930,-336,-7743
-114,-65,-98,-1458,-5768,-9416
13,-117,32,-3193,-2184,-11708
-47,32,24,9943,-6978,4016
65,126,-92,-8598,12349,12229
24,-103,49,11715,-16575,10188
104,105,119,-4789,1686,-13096
107,82,-109,1433,-436,-9335
3,39,34,8166,-4102,5192
75,25,-9,-9098,6029,11206
-40,66,115,4816,-7556,4950
16,-101,-80,3845,-2564,-9813
94,-80,-32,-7190,-1329,-12190
-12,-28,-70,-4595,-3956,-11794
-75,105,35,7105,-6500,-6299
59,-36,43,-6905,3098,-1335
92,121,20,4339,-264,2752
19,0,90,747,6630,9435
-88,50,-20,1172,120,14551
-43,60,6,-2200,501,3006
31,40,-9,-10686,8919,1395
70,127,78,2474,-1599,-55
-9,-113,-115,2204,-4055,3481
105,49,-98,-660,-499,3159
-28,31,77,-1175,-184,3611
-2,127,-106,-3074,1356,2936
8,-110,44,4403,-2146,5018
-102,-107,47,1246,551,2548
109,15,26,523,-1760,3148
-71,-48,31,-1044,-677,1756
-13,20,-25,9506,-6612,-2540
-52,112,8,-2641,5812,-682
26,107,18,-2125,1176,930
48,-122,41,-1411,456,-855
113,-93,53,-1568,1701,-856
73,-120,22,-924,819,-1199
77,113,33,383,-240,-773
94,106,86,782,-849,-227
107,-114,103,-6,-51,-36
-54,69,-67,4941,724,-4500
91,10,-93,4583,-2193,-8329
54,102,-98,-7582,1377,-11084
-85,73,52,4962,-4692,-11649
60,94,36,3224,-1693,1846
41,10,-95,-10550,6831,11708
-41,-19,-84,-4611,-1133,11863
-117,96,-109,6401,-1532,2887
57,-110,44,4208,-5500,-10040
67,74,115,-991,10,-9849
-105,-35,37,-3105,1445,-6244
91,18,-64,1332,2251,12094
-22,74,68,-8914,4227,11735
19,49,-11,5823,-7941,4693
25,13,-27,978,-456,-9369
-3,-76,108,121,-2503,-11447
-24,-93,-66,-4328,-5677,-12500
101,-67,61,2057,-626,-13759
102,95,67,-2250,-1574,-5232
-36,34,-52,4294,-3108,5518
14,95,70,478,6486,7310
20,74,-22,3669,153,13696
-84,112,49,-3178,10615,4809
118,17,-17,-10189,3292,1516
-90,34,-42,10564,-6336,1034
122,-106,-2,-1439,-2998,5390
-30,-26,16,-1506,1370,2623
6,-15,-7,-3343,4854,4106
-83,-102,126,1002,2481,5031
-28,-86,71,1780,977,5879
43,-86,-127,-3235,-391,5331
86,-92,-21,-4049,-4224,2808
8,10,38,11946,387,-3380
56,-102,-100,-5903,1888,-4736
112,92,-81,-5752,6109,-1633
35,42,24,-143,982,-666
20,55,-36,5033,-2765,205
21,54,30,1386,84,31
73,109,92,-36,-88,225
77,-126,85,-1884,466,34
-123,-83,-18,185,1077,-10031
-64,-43,-122,2196,1276,-12131
-87,-115,62,1760,6630,-11327
111,97,116,9419,-8884,-1193
15,-97,-63,-7532,6233,12850
-2,23,-57,-6626,4464,12497
-120,-53,-49,-941,-969,-4726
-1,50,-54,2095,2880,-12972
45,64,67,265,1461,-6787
-97,-48,57,4815,-1746,8368
50,91,46,-7567,5844,11572
-114,-62,-125,6343,-9121,5608
81,-111,59,-2889,870,-11596
-18,-53,49,-6198,-1086,-13868
-18,57,-81,-595,-4242,-11330
48,-76,-107,-1676,75,-6635
-65,-14,-36,793,1647,-1346
-29,-23,-51,4539,-4552,4918
-72,87,56,985,7271,10496
94,-55,13,-2494,5310,11926
-30,-70,-119,-4980,3908,6396
65,50,110,-4718,1213,-4067
-67,73,67,3155,-4404,-1163
71,-107,81,2811,-5348,2660
46,-65,56,324,-2032,4044
116,-70,-56,-3562,4237,5183
8,7,-29,1342,223,6096
-53,16,-123,-2317,3,5330
-71,118,69,-1798,-3205,4662
111,-23,46,7710,-8468,4016
62,101,-43,-2946,5415,-6568
83,-23,99,-3344,1991,-1724
61,13,-101,-3828,5048,184
17,-61,-20,2902,-3449,246
28,-110,30,760,359,-888
66,119,31,-212,1161,-556
101,-104,70,477,-1301,-156
114,-99,105,-1440,242,-521
103,-82,90,-1144,110,-575
90,-77,84,-731,-258,-395
-67,-58,-19,-1815,1793,-9311
-61,-125,-39,3019,-5184,-11986
-79,103,52,-3704,2305,-9225
-66,-40,-42,7466,2478,-4341
-28,0,-56,-8417,4018,15372
42,-66,114,-5695,-941,12821
-68,-79,-125,8198,-5080,-8978
28,124,-76,-6447,4182,-10043
-24,82,-89,10607,-6074,-3228
-44,96,-105,-6402,4489,8698
31,-51,60,-1032,3270,11739
-25,89,-43,4106,-5233,-3153
9,75,43,-395,-6271,-9888
93,-42,15,-4929,-479,-11910
-95,-37,39,-6441,382,-12156
103,-82,88,5036,-4418,-5481
73,-12,-109,-923,1128,-1363
-85,-31,99,5719,-1517,6466
63,109,78,2084,5719,10921
40,-13,-59,-1170,7321,10188
-27,34,-110,-13932,9143,7134
-112,-16,-73,5267,-3304,-8075
82,14,-52,7599,-11329,-1038
24,-26,-63,-4585,-472,2630
-37,15,-84,-1402,751,1926
64,-123,-121,2167,-2531,4983
107,12,-60,102,667,5128
-83,83,105,80,1391,4015
2,-3,94,613,-707,3331
-104,38,57,1965,-422,2885
-20,-46,54,1494,-1720,2241
92,-86,-90,138,-3803,2023
31,-16,-96,3860,2646,-3102
99,-88,79,-1929,1208,-21
0,83,44,-2112,926,-348
6,99,88,-2150,1046,-1278
39,60,68,-855,801,-658
75,70,78,-530,610,-197
46,100,68,525,-426,-67
58,107,81,396,-224,-115
-127,-102,-17,4567,-4152,-12122
35,-93,-86,-464,-442,-11791
-44,117,120,1264,-1806,-2625
-3,-88,-107,-526,4721,9070
-12,-88,-106,-8093,9137,10683
107,-97,107,6415,1518,6057
-112,49,-44,-3745,-8897,-12418
-46,89,14,2363,-940,-6559
36,53,109,6470,-3474,-134
-72,-119,-75,-6918,8148,12293
126,-39,50,983,-3059,12683
123,-76,57,1122,-4131,-9837
104,-62,-31,-1852,-2540,-12973
106,-43,42,-3203,-5633,-12247
-84,78,14,-2317,4475,-11110
125,-44,-29,2697,-1693,-4618
109,-41,101,-3744,702,3647
1,74,105,8879,277,11656
10,-11,35,5137,2133,9835
91,-61,13,-9994,12996,9390
-120,41,-125,-7609,2556,2730
10,38,25,1359,-1204,-6013
13,66,63,1873,-7394,-1643
-65,121,27,1601,-3638,4401
-19,-83,-42,536,-510,4451
-48,88,-68,-1767,1486,4075
-31,-21,65,2961,-1767,5080
-72,-14,-109,-2491,822,3637
2,61,46,-131,-723,2933
-89,-125,64,5176,-7277,1305
13,-108,-13,1055,4629,-4134
84,-112,35,-140,285,-195
-15,90,47,-3406,1814,59
49,-120,37,-2264,1389,-504
61,111,6,-230,903,-345
89,-117,2,-303,567,-374
91,-102,30,39,-865,-372
104,-106,76,109,-613,-247
127,-57,110,-1131,-350,-487
113,25,-94,-4032,662,-1290
86,-24,-62,3280,-757,-7002
-54,99,34,2407,-963,-10068
-70,101,88,-2197,-1530,-11366
-117,113,-83,-2471,-1034,-9722
109,109,-97,16054,-13291,10748
-35,60,96,-16682,22543,9149
122,-61,-72,7081,-13109,18451
23,-9,13,-4035,2655,-12971
-25,-59,110,-2396,-1162,-9643
-23,-119,116,-1160,970,-9072
7,5,-102,9024,-3800,5236
54,67,61,-7672,9743,12315
63,-46,-74,-870,-3723,16488
79,-67,102,17167,-4092,-7255
-108,17,113,-11040,-1271,-10724
68,99,68,-160,-7354,-11648
91,47,-18,-2817,-433,-12842
-69,-54,-90,1115,-4119,-10324
-99,-1,-116,-2216,3231,-2912
8,33,-10,3765,-2137,8547
34,22,-118,9010,1807,12691
54,-72,-97,-4259,11152,9259
4,111,90,-12665,3304,-4220
29,-46,25,2204,-4097,-5707
4,25,66,-4874,-3416,3045
29,126,-54,6277,-9114,3569
-71,-90,14,-3621,-3305,7800
-71,-78,93,2760,-2752,7932
52,75,-10,254,1443,4863
-45,26,-108,1688,-2370,4330
-121,-30,-77,772,-1862,3646
-92,102,-77,-1612,-3825,1910
87,-80,-92,16524,-6604,1165
-63,5,77,-8595,4481,-6160
57,6,-42,-2523,4015,-537
-96,66,19,742,-1301,-530
-64,-94,-114,-937,-2172,-1021
26,-111,114,-3614,2568,-571
47,-22,99,-3738,1662,-926
82,-48,86,-1214,440,-220
-37,-127,118,8422,-1394,255
-67,-39,-21,5576,-3437,1377
-46,-16,30,-1740,248,-93
111,30,98,-6615,1913,-311
85,3,106,-4961,1438,-671
-59,87,-72,-6974,1540,-2183
-29,97,80,-8850,3079,-3081
105,14,-82,-3820,486,-1920
67,-12,-113,2901,321,1769
-26,-95,-31,73,243,-95
-7,-93,-5,408,201,144
50,-88,53,-509,1261,-410
52,38,42,-218,-121,970
-80,26,75,-768,-1086,1174
53,-128,82,802,-1235,1284
-36,120,-113,551,-1874,1550
-41,120,61,140,-849,533
-43,-57,94,-1131,-466,28
-87,49,103,-338,-451,778
70,77,39,26,-841,1621
77,24,17,-1496,-217,1723
-57,-116,66,-1535,57,1878
88,49,-124,-2043,-323,1892
-108,-13,126,-860,53,1591
-98,94,72,460,-477,2511
108,87,26,-602,-907,2499
91,109,48,-1302,-443,2280
105,84,83,-866,117,1647
-120,38,67,832,74,75
-61,-8,55,486,-92,420
111,42,22,-250,84,-492
-54,-73,-25,417,-519,72
-60,-12,18,-697,-428,37
-18,-38,67,-89,-129,326
71,-55,34,717,-195,356
119,-20,8,85,-294,413
66,-16,3,-235,-295,142
-13,-21,17,-576,-208,365
-15,3,45,-827,368,650
37,8,74,-816,766,790
-15,80,56,3313,1619,-3056
23,93,-127,7921,-988,-7001
-30,94,5,-1314,-297,-10044
-53,21,99,-1595,1084,-8956
-28,-40,-92,-685,-295,-5307
-93,79,108,404,-484,547
-110,-11,-112,37,-2467,5798
-55,109,40,-1515,-1390,8382
41,-49,-28,3459,1262,9132
14,-2,41,-5869,3385,2111
6,13,38,5406,-2299,-8422
-69,-17,-97,-2167,2345,-6046
19,31,-69,3278,-811,1591
-27,-93,46,-2544,-824,9387
-16,-61,-71,-1025,133,8246
37,54,-31,-7513,4700,-4910
116,42,39,-2689,1028,-10492
-18,-127,-63,-2162,-834,-10676
-9,100,-85,-4905,825,-3913
-46,-110,-90,-1823,-2865,-1321
-16,-119,-115,-2218,-4365,3089
-86,117,20,-948,81,2754
-128,120,-27,1246,5974,-5782
117,-109,79,822,-6,795
115,-93,-17,2491,-3586,3455
-52,-110,27,2479,-4265,8782
-63,44,75,3319,-2928,10273
77,-5,-52,-1337,2176,6098
-20,-48,106,-1023,-608,4429
-87,-21,-90,1022,-1689,6150
4,-32,-110,26,-1198,6129
-117,22,99,-2477,385,551
86,67,75,588,813,-4097
76,0,29,990,1375,-2658
-86,-85,14,1239,-789,-873
-106,-93,45,304,-143,457
11,-41,27,-101,411,-465
50,-88,-12,324,-89,-345
2,-52,15,-1152,-160,-144
-8,-21,13,-1434,-30,290
-52,-11,-95,4607,-1357,-1982
127,102,-7,1202,1454,-9309
121,-102,22,390,-1165,-9016
-36,63,9,-1426,933,-9295
67,-101,-47,-1465,1864,-6065
111,67,-125,886,-52,-1353
-127,-68,10,3353,-2896,6902
116,-57,-111,-149,505,9593
98,-64,-86,2882,1589,6452
-64,99,-41,-4682,259,-7873
127,93,-105,-463,1436,-6595
-110,52,-42,2870,-133,74
-58,-109,-43,-3137,321,6673
40,-54,-82,-3367,-435,10548
-128,25,-72,2334,-253,7849
-41,-80,-127,-5363,2616,-4700
95,-69,-83,-3468,679,-11253
53,118,-23,-1560,86,-11835
48,-84,-85,-5939,2377,-4646
71,-107,-81,795,-2108,-2516
-89,10,31,-1326,-3039,3063
-104,-31,63,-1627,-3168,4262
-52,-39,30,-2790,-1060,2729
-85,125,-36,3167,5231,-5706
34,32,75,2229,-2852,-2077
50,-64,124,254,-1544,3016
19,-111,96,2102,-3106,7546
-88,96,-112,2869,-2574,9757
107,-103,126,-215,1528,6798
83,40,97,-672,-2119,4323
80,54,-113,-55,1481,2362
120,-46,-70,-1008,-2012,4613
-90,-24,-117,3,-298,2226
-87,23,83,-267,51,-436
91,-125,55,182,760,-1870
-13,-16,26,-340,135,-1058
-57,-41,24,-636,-274,317
-13,7,36,-253,-49,143
33,58,33,-732,110,-205
29,32,26,-231,-61,-83
104,107,-31,9055,-485,-5781
-89,-89,70,-18,149,-9983
-14,70,-23,-1787,263,-8367
120,52,-16,-2307,-228,-6210
0,8,-111,248,-406,-3249
-95,-55,-26,1534,-858,2613
-18,90,-96,-1067,-97,7280
88,18,13,-123,-38,9040
-26,-86,114,5534,1239,6026
10,-27,-4,-839,-1595,-6528
61,83,-81,-1504,-1646,-9311
-70,-77,-13,-3075,-247,-6358
64,120,107,4210,-624,3969
79,1,77,-4157,-1124,10787
18,30,97,645,-351,10468
94,-122,44,-4772,3442,-609
-65,91,-64,-767,-4551,-6502
108,-57,69,-2983,1820,-12156
-109,-69,104,-2400,-829,-8045
55,-79,114,-2635,-731,-2937
-119,-51,-21,-2398,-2231,1953
-12,-41,93,-3507,-3789,4487
-5,-37,61,2184,-1723,4137
32,46,-43,-2783,2116,-3978
39,5,-25,3293,322,-3918
-93,-65,-100,796,-178,-1811
-41,75,22,-39,177,2753
-94,-50,-80,2778,-2060,6647
33,-121,-90,3439,-577,9060
-113,48,-6,-1597,1728,7786
-120,111,-11,3642,-282,3936
-79,-99,-7,-3088,662,4111
-60,-32,-17,427,-990,3954
104,119,91,-1504,-841,4990
121,20,85,-1118,91,2233
80,49,-6,1411,-114,-2449
19,89,7,1020,62,-2605
14,127,-49,602,-139,-1676
-84,-107,-37,-955,-733,-351
-93,-38,-18,-1740,-100,-151
-81,110,-90,5508,263,-5740
39,-19,-85,-2107,227,-9665
119,18,117,-1859,1350,-8722
62,-63,-21,-1762,1674,-7965
-77,-121,0,-158,1024,-5283
115,0,82,953,-1223,2053
35,115,-63,-1246,-3584,8820
-100,-17,-99,1440,-2099,9977
20,-47,47,10290,-227,8400
63,122,-94,-6464,2932,-4946
-64,-123,72,283,-979,-8827
-22,-16,21,-2399,671,-7544
18,-63,-111,-180,1686,-483
-82,-11,-113,589,-1863,6246
105,116,-78,-5229,-720,10024
-103,25,115,-4541,-1737,8113
8,-84,-33,-4223,-1719,2349
-118,105,84,6353,240,-6325
18,-109,-126,-3093,4545,-8347
-42,-83,79,-3189,1451,-9152
-101,43,-117,908,2064,-7076
-96,63,-18,-1826,-229,-2885
22,-83,74,-1434,-4455,1647
126,-46,-17,-2070,-4571,3678
1,123,-123,-650,-334,3585
92,120,-38,1011,-350,1094
-15,8,42,1836,2896,-5135
86,-38,-68,1721,759,-1558
38,-82,104,1314,-2307,1764
-97,-32,-37,-919,-2218,5397
-79,-110,82,1954,-1645,6916
-110,-27,-107,922,-830,9004
-32,107,106,416,237,5724
48,-59,91,-2241,-1119,4411
106,-45,21,3390,-1548,3666
-31,124,62,1281,77,3745
-97,54,40,1289,-52,2886
93,80,62,-69,331,1298
-17,35,27,305,-141,-982
-61,-67,70,-159,-34,-867
78,11,-50,854,1707,-5368
50,-38,10,8619,149,-7887
-113,-32,-89,-935,-662,-8749
3,103,-44,-3192,-731,-7849
117,-65,119,-2417,-694,-6136
58,-65,-69,-1439,211,-443
-44,-56,15,1043,-2410,5327
39,-46,20,-752,-713,8602
-67,-61,-22,2026,-273,9390
-70,-42,107,93,2930,3072
-53,-51,-35,178,-5979,-7716
-89,64,-6,-3515,2055,-9006
-76,-97,-84,62,-196,-4287
-122,-110,-95,1190,34,2959
106,50,-67,-3577,-1081,9313
-94,97,-43,-2259,-1034,10641
122,10,-17,3965,-7096,10762
95,-45,0,-8912,5019,-1818
114,-19,5,5580,-5049,-8166
-38,90,10,-3235,4082,-9851
-64,-78,-88,-7129,4926,-9609
-128,-7,72,-646,1160,-5551
80,-94,-108,-1045,-2212,-1227
17,122,64,-3391,-3149,3140
105,56,0,-1747,-1606,2370
-26,-35,85,931,-2899,3789
-122,87,-110,802,1189,-3521
93,53,26,4771,-142,-2663
100,66,-63,4272,-1461,1821
105,-91,-68,2234,-402,4823
102,-113,0,88,1421,7553
-102,97,63,2918,-262,7121
4,59,55,-1221,605,4075
44,32,-27,-3508,421,3477
-91,-21,60,-166,140,1249
1,-87,48,1774,1402,1044
-27,38,-82,3440,980,967
11,-87,-79,2476,1009,1784
96,-92,-50,296,506,2370
79,-58,-37,-908,-152,2215
-103,-109,-72,2707,1932,-4804
-65,101,37,6939,-836,-7762
1,107,52,2913,-1560,-6495
58,122,65,-3200,-300,-9175
-51,-38,47,-2710,-770,-5974
-113,-5,81,19,-356,-2621
45,32,-26,-1226,-717,3574
-70,56,-11,-711,-1345,8438
83,-97,3,-563,555,9903
-109,-96,120,2093,1904,4229
-73,76,-125,-133,-3891,-6792
-72,-95,50,-2714,2462,-8953
-103,-123,42,1798,256,-4165
-42,-82,-42,615,337,2632
62,49,-75,-3297,-1255,7975
13,10,35,-3849,-958,9388
-65,-26,122,1785,-832,7922
-33,-87,104,-3050,3072,-3742
-52,-98,117,-2033,-380,-7235
-115,104,-126,-2339,3286,-9443
-18,-120,67,-3538,3225,-7806
105,3,9,-755,-1632,-4271
11,-38,125,-3102,-1931,-515
45,2,54,-3725,-4925,3367
9,44,70,-939,-2614,2418
-113,58,117,-830,-2926,2740
115,72,27,2882,5423,-5061
-67,109,74,573,912,-3448
-86,51,-16,1858,1615,-1330
-11,14,0,1775,-935,1395
117,11,-46,484,-1381,4813
-106,4,63,1992,-918,7279
-102,30,76,2356,-1262,7466
18,97,103,8246,3914,2699
-25,-20,-41,-3156,5131,2512
116,47,115,-567,-545,3292
-29,94,6,-1240,-955,3746
76,77,60,-950,-1050,2627
67,31,96,-2862,-104,1751
44,-65,70,-1912,-497,2630
-114,126,121,5407,-1159,-5426
-58,-109,-41,-3222,255,-9774
-68,11,-55,-1444,1567,-9798
-106,-94,-15,-68,-490,-6835
-18,-42,74,-1023,-706,-3421
121,-33,69,1112,-1726,3634
-26,37,61,-887,-2236,8818
82,43,-124,1242,-482,9522
-87,-43,-68,5588,-416,5664
-77,-107,-89,1133,-1063,-5969
38,100,-64,-1830,-2755,-9279
-12,-12,-22,-3462,-35,-7010
-98,-92,-24,2059,-70,-164
-31,-31,-13,-1071,211,6776
-31,65,-56,-3246,-187,10765
-66,-54,55,-300,-1936,10302
-62,-102,-27,-4035,734,410
-13,-45,-9,84,-320,-9155
-5,-67,63,-609,1289,-9439
-49,100,26,-5188,4272,-8447
33,5,-79,241,-1007,-3248
38,-87,-4,-1833,-2373,576
52,83,17,-3506,-2410,2143
120,59,-80,-1303,-1195,1889
78,-111,13,76,-1296,594
-16,-33,108,2497,2534,-4204
-128,-55,-23,579,1668,-1646
-63,-69,49,658,-2105,1918
56,0,-106,-103,-2178,5556
109,-50,-71,2014,-4137,8145
77,-42,-55,-1023,-3087,9343
-30,0,45,1520,-1148,4307
74,38,-22,-3160,-381,4568
121,-54,0,4513,-2088,3450
-112,17,25,2071,-1256,4951
-53,55,-86,-2440,-341,3569
59,125,-40,-119,449,-2078
4,16,75,2003,690,-3273
-24,99,-7,2208,992,-2126
-114,-121,-33,477,-736,-538
-34,-94,-16,5822,-1140,-5622
-126,-50,-37,-1594,1138,-10426
52,-78,-26,-2476,1516,-9605
44,86,-96,156,1716,-6791
-116,66,-125,1446,218,-2378
106,-67,62,4408,-3928,6594
55,17,95,1800,-225,9264
-98,10,112,1056,3016,9495
-102,68,24,-3776,4166,377
92,-121,98,1866,-4682,-7372
88,27,-52,-1356,194,-8917
-50,-39,-91,-1645,-1381,-5540
53,-46,70,2420,499,2382
108,-81,-67,-1830,-193,11476
-40,119,96,-4153,930,11090
36,33,75,-4625,6994,3966
-55,-51,14,3027,-6789,-4921
-120,126,7,-4443,5729,-8143
30,71,22,-1549,-1003,-9005
117,-74,20,-4987,1387,-4887
-39,-7,-93,-1447,-612,-2337
74,-85,-55,-3216,-2583,1746
-98,104,78,-1306,-2926,2541
-69,-19,51,-762,-3712,3768
-92,75,-40,2328,5173,-5539
-41,116,-41,2515,1056,-3757
75,-20,32,2652,-1170,352
-123,-122,4,-320,202,1373
-3,-97,-10,3367,-1534,4857
109,-42,101,1475,1101,8245
53,10,17,834,1347,5881
26,-82,-89,-396,611,5438
89,112,-30,-1910,289,3477
29,-92,-48,-1725,-631,2966
34,46,-10,2104,-1565,4437
86,-114,-95,-788,-310,5253
-109,-39,42,-1850,1616,990
13,-116,-107,2476,-1642,-2252
47,-17,29,1181,-69,-2144
-59,108,-22,-421,-482,-744
78,-14,32,4132,-1828,-8531
97,-83,-73,-2883,1366,-9943
-13,-109,95,-2220,1476,-8948
64,44,-113,554,1390,-7855
78,-125,-56,1280,531,-3021
119,22,96,683,-1138,3239
-117,57,-9,-902,-2743,9490
10,35,-5,-90,-502,10454
-55,-93,20,2038,1167,7772
-64,75,68,-2042,2608,-4844
16,-112,28,1527,-214,-8456
126,8,-14,-1006,641,-7759
-108,-125,-62,753,181,-2606
-47,-115,-92,-631,962,6201
-22,-75,-1,-3899,-1656,9997
63,56,-25,-2132,1509,9192
108,36,116,-11286,4720,5720
-67,-57,-63,8531,-4470,-4163
21,108,-17,-5639,2350,-9601
112,-28,15,835,-499,-8277
76,53,-14,-1500,2740,-8885
-95,87,13,-1111,-1930,-2872
77,26,21,-2658,-3017,-111
-86,119,-94,-5648,-3189,3522
-94,-39,22,-1138,-3510,2579
16,-10,10,-1904,-2363,1702
124,-51,-59,3758,6000,-5933
109,126,-106,691,1370,-2510
-12,-38,-6,2965,-628,411
114,-66,16,319,-632,3176
-110,82,94,998,-3604,7689
-116,-24,76,785,-2791,10186
112,7,-124,4770,-3912,7892
54,49,-123,-6855,3274,2022
-47,82,6,1785,465,1003
109,-4,95,1952,-1620,3070
39,-6,107,450,345,3425
-20,5,74,-1308,1331,3528
21,107,102,-2078,-458,1422
-105,-90,-7,272,-1051,-1463
69,-116,-43,3988,943,-5236
-55,-27,-96,-2788,541,-9788
-119,-107,-124,-2783,1624,-10201
-12,-83,-21,-1101,2680,-8075
-61,-29,107,651,1130,-4460
-42,-68,-74,678,-1258,962
-122,77,-16,563,-2177,7234
11,-69,21,153,-2204,10448
65,-22,-54,6189,-1578,10004
39,-44,7,-6516,1275,-1096
-92,-53,104,2871,-1943,-7791
-25,44,-79,-3475,3212,-9374
6,-120,76,246,-40,-6115
111,49,-62,2499,843,1998
16,-24,-64,-1190,-655,8012
-20,-118,-25,-3135,-299,10914
19,-115,60,2042,-71,9224
45,60,-50,-10711,3592,1031
-109,-36,-20,11132,-3940,-3016
-30,31,40,-5913,3711,-8073
79,76,119,-2555,52,-9856
-36,-11,74,-988,1152,-4900
20,-11,-30,-2102,-439,-2048
-111,79,-88,-3140,-2601,1202
66,-126,114,-4310,-2235,3868
76,73,-27,1533,-3366,3525
8,113,-89,1391,3797,-3201
-79,-43,-79,3220,2816,-4635
-83,-58,38,2070,-1301,-143
97,-37,-103,708,-1529,1599
10,-84,104,-342,-317,5459
1,-87,-64,-113,-2479,9101
1,66,-116,-222,-2343,7859
95,41,-21,-163,1037,4329
-88,-113,-111,-68,-680,3303
76,-54,90,-1021,691,4242
100,58,14,446,219,3501
-91,126,37,1485,-1021,4673
52,50,-66,-1968,-12,3922
120,-38,76,-2036,-116,-481
-80,-16,-57,6970,-524,-3846
-117,44,-128,2026,-757,-8362
112,-76,94,-1853,979,-10075
100,-63,116,-579,43,-7658
-36,127,119,1123,-46,-3967
107,-18,93,-619,-1186,2585
-30,15,-32,-1400,-1110,8833
68,70,61,-996,-252,8806
-56,63,-44,8114,-1990,8888
-2,101,-4,-5659,3413,-4526
24,101,-24,894,-1260,-6437
119,-121,88,-1053,1078,-4966
-49,68,-103,-249,1469,-416
-120,-25,-46,-1290,9,5524
-64,46,69,-4594,-1648,9521
-53,-70,96,-3853,-1931,9167
-115,-7,85,-2571,1814,2567
-99,40,-18,5303,190,-6376
-25,-100,-14,-4269,1316,-8915
113,57,66,-1724,1089,-10656
32,-107,12,-1651,2513,-8927
108,99,83,-574,-92,-3247
-119,-28,54,-1519,-2833,846
-74,-64,-96,-3205,-4041,3247
13,42,-22,-1040,-1882,2150
-3,-32,-53,-401,-3779,4550
83,51,-107,669,3068,-3523
92,-32,37,2712,1492,-3829
59,15,-92,3403,651,-662
19,-10,97,-425,-561,1011
-105,-9,28,1087,-2255,6355
-55,109,-47,-772,-1643,8380
-128,84,-91,782,-1537,8228
-7,15,-30,-1838,566,4950
-103,9,-84,-405,-1092,3769
7,-82,-93,8129,-1353,3640
-97,115,17,2914,287,5881
-118,83,127,-2582,1635,3974
127,4,-35,-3999,1157,906
-67,80,3,-821,-837,-1388
5,117,-57,7597,-679,-6503
92,-26,-64,-955,-1176,-10249
-75,-41,-8,-2460,1016,-9603
53,89,37,-640,1355,-7282
113,-109,-66,1381,381,-520
-59,-65,4,-1123,-2172,7041
11,17,-71,-2823,-1066,9076
98,43,106,3919,-1300,11289
8,-42,50,-4953,3516,-1004
38,2,-21,3848,-3038,-6409
74,126,-7,-310,1394,-10298
-7,79,-69,-942,119,-5786
-128,26,-96,1429,-206,2098
-69,-11,-126,-2632,-1588,8214
109,-12,63,-5205,-1377,10265
-104,121,103,3376,-1183,7725
69,100,24,-6668,2377,-734
87,-53,62,3331,-2834,-4896
-68,118,41,-2756,1858,-6856
-49,-87,7,-3984,1082,-7817
51,119,-41,-1297,1069,-5562
10,30,-1,-2541,903,-3051
48,81,-95,-2830,-2226,700
63,69,-14,-1703,-1788,2062
-6,-97,-77,-270,-2573,3506
-82,-52,-82,679,-621,1397
64,-39,88,471,3480,-5187
-19,-93,104,1276,1335,-1300
47,47,109,1976,-1335,554
-13,60,113,-61,-829,3403
-46,5,72,262,-3559,6603
45,41,47,2078,-3051,7724
74,125,-79,1154,-947,6065
-98,-18,122,2722,138,2946
-39,90,-31,-1541,839,1921
63,63,2,-495,-468,3075
-69,-87,44,-216,-856,3971
11,112,87,-159,-247,4784
122,104,125,-2486,77,2962
108,-12,-40,123,246,-1372
-3,-33,108,5546,-1570,-6457
-47,-109,11,-2732,-1148,-9135
67,-21,67,-2790,637,-9835
-77,-58,-71,-383,1385,-7791
-29,-62,-116,2082,-1143,-1403
73,-74,84,448,-1607,4569
-14,-68,116,-1266,-494,7466
-63,21,-95,901,84,9426
83,59,124,4209,-107,7789
-5,-34,-17,-3014,190,-972
75,-118,-50,355,-1366,-6880
-31,52,13,-365,462,-7835
-60,24,-76,-2099,83,-7930
-59,-22,113,1866,1803,-349
8,-120,-92,-249,-1652,6743
51,-46,-75,-4326,-352,10030
39,-2,122,790,-1125,9623
127,-41,113,-7777,5497,1505
9,117,79,5151,-5214,-3111
-64,104,-119,-5717,3744,-7232
-26,80,-103,-2417,99,-8503
-92,-3,31,-3575,729,-6123
-90,108,71,-2229,-393,-3833
-99,-41,-52,-4200,-2698,-1160
-108,-103,10,-3167,-2899,921
64,77,75,-2364,142,1853
32,-113,8,176,-2214,2709
-126,-105,48,1441,469,490
62,-108,-117,5097,2091,-4579
48,-111,103,353,948,-2188
31,-2,-37,1153,-1250,963
34,97,-14,-508,-2242,3963
-8,-54,77,3050,-1051,4897
1,-16,-22,2138,-2178,7412
106,114,-111,1866,-164,6194
-70,-97,93,-2209,1029,3694
-55,-21,73,1843,-755,2889
32,32,59,243,367,2313
21,19,2,-51,33,3803
-93,-22,29,-780,-542,4159
69,26,-109,2925,-790,-7179
-125,-102,-81,-357,-1195,-8131
-97,11,-46,-1943,818,-9214
-20,57,9,-45,1117,-7363
-51,-26,-63,1334,484,-1918
77,-76,-39,-672,-2448,5458
-115,120,16,-2567,-1855,8641
18,-109,52,5376,-942,10554
-116,-87,46,-2999,4337,250
63,-4,-62,1615,-5448,-7512
79,-63,-15,-3252,3428,-9872
-47,-65,55,1145,-15,-4146
-56,80,54,1031,-79,4786
75,12,75,-1366,-581,9599
31,120,90,-2137,1840,10612
-70,37,-75,-4528,4240,2503
-3,-70,-104,-4051,598,-2145
-15,-25,-99,-5386,1723,-7607
33,76,-89,1402,4754,-8472
-79,43,-37,-2898,2013,-7055
-6,14,13,-1120,33,-2750
90,57,-3,-1574,-2636,-647
95,119,-103,-3402,-3385,2000
74,84,-120,-1464,-2061,1470
-102,-37,87,1540,-2064,2679
6,-58,-75,2512,4236,-4475
102,44,82,670,742,-1762
-35,-115,-126,1435,-995,340
-56,89,-29,1672,-1956,2521
-71,-51,6,2039,-2331,6190
-18,86,105,1162,-2870,7314
-36,-65,-3,597,-916,5445
73,79,110,1717,-1102,4506
-87,-16,120,-811,599,1687
-79,72,19,91,-951,3475
98,21,41,-996,-816,4361
26,99,62,-1277,-604,3434
-77,-13,64,-1196,-533,1511
56,-11,39,-873,262,-686
-41,-45,6,201,564,-695
95,-91,-96,4517,2810,-5160
-100,-12,52,5231,1785,-6629
-109,79,-118,-399,438,-8710
-54,-55,77,-1617,815,-8459
-20,63,-35,-60,110,-5454
-119,-126,74,-925,-344,-1677
78,108,-72,824,-1946,4703
28,-10,-26,-1418,-1862,8754
106,111,-125,2517,-1238,10504
-33,-95,123,897,4178,2036
-97,-11,-99,1922,-4231,-4280
-31,50,-26,-3673,2308,-9080
-97,118,17,-620,-640,-5605
-68,-11,48,398,790,-377
63,6,-126,-610,-2047,6256
117,65,-20,-2851,-853,9246
-33,83,-59,1777,-909,9487
-128,-76,-78,-9042,4916,1016
-40,89,-16,3306,-3387,-5403
-76,127,-61,-3663,2323,-6722
-94,16,55,-3679,-52,-6904
-28,104,7,-3608,-161,-3650
-90,-120,83,-3368,810,-3638
-40,19,68,-4307,-546,-1068
-22,100,98,-2060,-1808,984
77,114,18,-1084,-1946,2556
99,93,89,1684,349,979
-87,1,-22,3908,1362,-1872
-60,54,33,-142,2199,-3494
-25,70,19,2875,43,599
-15,17,-56,-344,-341,1159
-117,-10,90,3185,-3240,4687
78,-7,0,2609,-1063,6552
-13,82,64,4477,-2427,7433
19,-118,-68,-2001,2380,4678
27,-97,40,3489,-986,4149
118,-1,60,-273,1019,2049
-21,60,71,-1821,40,2915
63,-41,-113,-3194,103,3568
124,-4,108,-2546,-485,2947
-114,43,99,7650,359,-5437
107,-56,-43,-1752,900,-9622
64,3,-89,-2937,901,-10076
-26,-25,-37,-1511,1894,-8355
90,-78,36,-594,2164,-5303
37,-113,-12,2085,-579,1336
-17,107,-63,-1593,-5393,9687
-94,-19,100,606,-2438,8773
-60,-61,-92,5272,-2517,9994
111,-81,127,-4695,1915,-2697
-30,-1,4,3721,-1156,-4044
-73,-41,80,-498,2794,-6859
66,-57,-56,-991,424,-4351
-6,-120,-41,922,872,2140
89,63,122,-1825,-3257,7460
52,115,-73,-5398,-1897,8471
34,79,-128,596,-121,5146
116,-26,45,-4512,348,-2136
97,-60,-45,1572,-1038,-3207
18,47,-75,-1693,1372,-5725
-18,56,37,-4059,955,-6518
-65,-56,61,-2601,2015,-5053
-109,116,69,-1449,1857,-3575
23,-93,-24,-870,1212,-1987
-18,37,-20,-2002,-1373,1485
57,109,-34,-2398,-4327,2646
-67,-57,-35,1206,-1693,2596
-25,22,-117,1899,2255,-2025
-26,127,-88,1445,1717,-2808
15,84,116,1943,305,-355
-99,19,-126,1715,-2328,1704
39,-21,-88,-223,-2362,4683
14,-51,-128,2500,-1554,6247
21,-97,-92,4684,-2098,7600
-110,28,-53,-2226,3381,4494
-15,-46,13,1780,119,3755
73,13,53,-143,1264,2891
3,-61,-14,1394,104,3829
66,-76,57,-363,11,3871
110,-35,88,-772,-308,3509
76,-113,-16,4954,1005,-6097
-112,-121,30,4162,-2354,-6832
80,65,77,-1001,-1509,-7625
-87,-16,-58,-3048,-1076,-7555
-61,-50,-91,-904,-135,-4557
-112,3,70,1142,-945,1621
-17,6,93,-1323,-540,5563
-109,-66,-97,-1880,625,8275
18,87,-98,4175,-546,9557
62,123,15,-4193,1966,185
-125,-110,-122,3510,-3591,-6230
89,47,-63,-1602,258,-8328
-80,-75,-76,-2634,-434,-6039
-49,-111,-90,-1127,2558,-1529
-63,-80,-54,1243,-1989,6906
0,99,127,-4364,-165,9601
72,-70,-29,-2482,-751,10514
126,110,-80,-6771,4416,3012
70,-69,20,2174,-1432,-4189
-45,-108,-5,-1991,653,-6321
-42,96,64,-1761,570,-7060
13,74,30,-4721,1911,-7269
3,95,25,-1664,-279,-3649
-12,-103,120,-2917,-667,-1045
-30,52,109,-2250,-2433,1882
61,-100,3,-2374,-1814,1840
-17,31,4,-231,-2369,2796
-36,-44,-23,3202,3882,-3648
-19,105,-9,2212,1445,-3152
-99,-37,86,5029,-1012,171
-33,-84,-113,-635,-834,1253
-91,-78,-25,1513,-2452,5376
-104,-66,77,3141,-11,6426
-115,-118,79,955,1266,7033
20,115,23,-522,1364,4493
44,-61,-3,475,1293,4632
45,13,-40,-813,880,2874
-116,-33,-12,868,277,3992
33,121,116,913,-336,3856
53,-12,-115,-825,1057,2730
-94,73,26,3849,851,-5797
89,-86,120,4028,-857,-8612
125,-41,-29,-1684,-390,-9327
60,-18,88,1716,-1407,-8165
44,56,-101,-2231,1689,-5494
-91,127,77,1993,-2302,4994
34,101,49,-2288,-2849,9183
126,22,0,127,666,9699
68,23,-24,3138,3110,6627
-47,124,-17,-5025,-902,-3684
-80,-102,-103,1657,-1804,-5704
76,-117,116,-1155,908,-6602
123,-49,-47,-2042,1810,-4094
118,-79,16,1350,1750,2163
-6,-41,-119,-2878,-1549,6849
-45,-30,118,-5486,-1564,8735
18,74,-109,352,-5005,6846
68,96,85,-6413,913,-1210
-126,1,22,3123,-1334,-4679
94,-121,-29,-2329,2852,-7416
96,52,-48,-1621,979,-9386
-4,-77,69,491,-1283,-5635
-83,62,-115,-2547,-1503,-1261
73,-64,-58,-4717,-3165,2658
99,45,-107,-3094,-969,2076
-87,34,-16,1638,-2261,2058
-46,-57,121,1006,4600,-4164
-33,38,-56,900,566,-2228
95,-36,-35,1100,304,-238
-25,-110,70,958,-689,3150
-40,82,-35,1126,-2273,7088
121,-19,-81,3063,-3790,10088
-43,77,-103,506,-703,8479
56,-108,116,-1176,502,4417
71,-71,9,2093,212,2619
104,-89,-20,4687,-463,4329
4,-65,46,1270,474,5364
76,47,-59,-2865,313,1595
-113,-21,-46,-1714,-1334,-2124
-41,-37,63,456,873,-2713
-100,46,-112,4397,-276,-4768
68,-54,-40,-1887,2255,-9072
47,104,-66,-1232,1492,-7773
20,82,-22,-1763,1775,-5933
115,54,113,-12,1663,-1979
52,13,-114,1502,-1967,5403
-107,33,-38,-1989,-2945,9860
100,-68,-80,4471,-718,9880
20,2,107,-10296,4240,3271
59,87,-52,9495,-5655,-6052
-98,115,46,-4292,3299,-8415
85,-112,102,-1018,-837,-6393
-13,48,78,-678,1409,-1850
-61,51,107,192,62,2033
60,-80,-28,-2267,-1289,8312
-109,-65,-21,-3441,-1482,10028
116,105,105,1282,-368,6445
60,-53,-104,-1796,1371,-3235
8,-111,3,-1329,4,-5898
79,-107,33,-1835,2317,-6849
-66,86,-25,-5936,3525,-7302
41,-116,-114,-242,107,-4678
70,-59,-57,-2195,-908,-2574
73,-91,21,-2518,-3570,915
96,76,123,-1829,-3442,2603
-94,103,50,526,-1338,3214
-127,71,-38,3339,612,-202
97,26,8,2157,1934,-3519
-17,85,-31,2894,-692,-1022
-114,57,-17,1153,-913,1136
31,12,98,-1608,-469,2839
124,50,-49,991,-2750,6447
54,-102,38,8287,-3754,8021
-30,-2,-125,1379,3079,3887
-59,91,120,6575,-1811,5255
-126,-57,-33,2962,4364,505
-20,99,17,2715,1031,2396
126,73,62,-1211,1053,1986
-17,91,-96,-452,-248,430
-84,1,-2,820,-285,-76
100,95,-99,-5284,2654,813
105,115,29,-3506,561,830
124,-75,119,-2337,-545,964
-98,31,-82,-1960,-516,1258
-79,75,-25,-865,-753,650
-90,63,-17,221,-551,37
-115,20,-62,649,-290,-659
109,-42,-103,372,-402,-157
92,-20,127,-836,-331,-133
74,30,119,-1923,-76,-128
85,23,-122,-1442,177,-754
110,-1,-88,231,254,-603
49,97,12,3913,175,-3584
13,115,125,5262,531,-7038
18,11,-114,771,374,-8416
-23,54,119,423,-1101,-7638
127,56,76,-577,334,-6265
7,60,-89,611,239,-1519
103,-71,-69,779,-1052,3977
59,52,-8,-1960,-2958,8550
-125,42,39,131,165,9075
18,-39,85,-3575,3550,4347
68,58,80,4174,-2076,-3691
-24,114,107,1289,-888,-7542
93,5,-10,-1046,-1315,-8770
22,-19,42,-1833,1989,-3855
51,113,-15,1190,-1701,5671
5,-79,-75,-4560,-787,8758
-70,7,120,-3396,-280,9182
-37,13,-3,-391,3053,5462
106,-18,-7,92,-1571,-4369
-122,-74,-55,-1654,1,-6864
89,85,-93,-576,-915,-7217
-56,62,89,-3309,1955,-8271
32,-4,39,-869,857,-3905
-34,114,-41,-1805,-578,-1913
-9,-123,-61,-4005,-1804,821
-40,118,-85,-2332,-2897,2595
-75,-56,-31,-155,-2597,2380
-117,-61,-119,3072,3397,-3221
-83,23,-18,1272,-1438,5983
78,85,-45,1257,-4587,10969
27,-102,-1,-2674,1933,5461
-121,-33,2,1129,-562,4403
74,80,52,-97,-417,5418
-32,101,-24,880,-1767,5578
-89,-102,28,36,-976,5571
32,119,-25,939,718,1466
9,-17,-62,2106,-470,-1559
-41,-24,41,1005,102,-818
-115,-46,-8,179,173,-442
-106,-53,-34,-5,-434,-267
-38,-43,-57,-409,-672,-665
-13,-69,-46,-957,-1152,-452
-8,-45,-3,-1724,-656,-1078
-54,-69,-11,-1308,-647,-1123
-116,-107,-9,-785,-1371,-1130
78,111,-30,504,-1565,485
80,-82,-8,-649,-297,548
82,-15,-63,-1072,-201,416
100,-37,-91,-259,-442,705
113,-9,-105,-166,50,929
-124,11,-117,-170,-205,1284
-113,48,-117,-981,220,1538
-86,102,-125,-1374,-6,1713
-76,114,-128,-896,-201,1484
-60,-117,-104,-446,346,1038
-30,-103,-113,68,146,659
16,-88,-97,176,2939,844
96,-125,-37,-437,656,-1598
-25,127,-88,-770,-2316,-854
43,39,-82,1009,-2499,624
-84,-90,17,-1114,1255,-99
-14,125,-39,-931,135,-54
-22,98,-35,-124,-113,-133
-56,121,-30,-392,-104,-216
-64,-110,-20,-1130,211,-68
-54,-94,-6,-846,403,359
9,-56,-10,-1288,21,427
41,-14,19,-1164,507,221
-109,79,16,5652,554,-11428
-34,0,-56,-3375,-38,-10131
83,24,-17,-3082,2980,-8638
82,59,121,2842,639,-2792
-58,-123,110,-913,-4023,5763
48,-83,67,-2436,-2324,8810
45,35,117,4657,-1596,9882
56,20,-1,-4125,6872,-3443
27,-58,10,-207,-1098,-9121
101,-26,65,-1613,1680,-6333
-40,-83,-72,2851,552,2315
97,65,-44,-5036,-3549,11046
-97,-77,61,-2122,-3174,10384
-51,-103,-120,-4205,625,4422
-39,68,-89,2247,241,-6490
93,76,60,-4848,6031,-7655
71,-41,-23,-2087,3238,-8131
94,112,61,-5089,1357,-4131
123,-59,-59,-1411,-3843,497
-13,29,98,-1779,-1967,2509
63,-87,74,98,2151,-2280
86,77,83,2257,2391,-2302
77,62,-54,1542,-1290,-404
-23,49,59,723,-3066,3400
-66,27,-54,3255,-4076,5748
-33,64,-96,2297,-3580,8032
0,-27,102,-1146,529,4788
50,94,-91,857,-697,4424
36,65,104,1728,-945,3790
127,-33,-13,-2,-1766,5267
-38,119,-92,-1577,-2208,6305
2,57,62,-3060,-195,2236
103,88,93,1519,553,-3638
88,26,91,3026,165,-3042
43,-29,46,1209,-123,-1795
-81,-6,26,-915,-7,-534
-114,12,8,-1052,133,-456
-72,25,22,-946,24,-64
27,49,62,-890,214,287
-8,93,18,-227,-300,-134
-44,-58,-49,6065,-1946,-5858
-78,-16,44,-188,937,-11754
-76,83,28,-1390,-565,-10671
74,-84,55,-1569,2343,-7974
-35,-87,78,2460,-271,-1610
6,-94,80,1863,-5366,7547
-15,-104,10,-2571,1490,8897
47,32,11,8634,-1658,10107
-5,99,33,-9989,5627,-6155
70,-36,-89,591,-418,-8833
-65,46,-103,-1717,1126,-6919
-16,112,-4,4224,688,3213
-13,-6,-68,-4826,-864,10285
28,-14,40,-2539,306,9950
42,100,70,-5281,719,2381
-121,124,8,3738,-6590,-7578
-41,-50,35,-6619,3288,-9980
-100,-26,115,-5395,627,-6574
-58,54,24,-3800,-1595,-1936
-16,5,29,-3006,327,-140
20,2,-36,-1432,-3552,2031
53,-99,93,-2323,148,396
-56,-124,30,2925,3171,-3413
-20,-87,122,2944,-511,-1104
-105,81,-2,113,-1415,3107
-98,-48,95,3686,-4156,6081
-99,95,-27,2762,-4336,9098
111,-86,-64,349,713,6948
-51,30,-86,1165,-1853,6061
62,72,-89,-397,603,3041
47,-42,21,1514,-3183,5052
-36,-74,-21,-2973,-1324,3537
27,-51,-44,1078,562,-1131
9,50,81,305,348,-2510
42,98,41,-499,701,-1880
-108,-81,-39,351,-526,-246
-109,31,11,-1215,-286,501
-23,66,10,82,-123,-137
9,61,-10,225,-24,-291
-7,55,-17,-380,-183,43
13,-3,72,5389,1365,-4919
118,63,-90,-920,663,-9909
-126,22,-3,-761,1533,-9271
-64,-78,-20,-1840,2598,-6470
-77,-42,61,2916,506,1672
14,23,-48,-803,-1475,8750
66,-128,-50,192,-934,10370
55,110,-79,-5938,4281,-2052
29,4,12,217,-1275,-8136
26,41,-97,-1123,3025,-4221
-120,114,126,3720,-1036,6082
105,-21,45,-5009,-2037,9722
105,118,-94,-2839,-1903,2947
-14,-100,-107,-1692,-1470,-7849
109,15,-71,-5474,2886,-8824
79,-42,69,-4286,3877,-6678
-91,-84,102,-1005,-1429,-537
-110,43,-115,904,-4939,2383
-52,119,-11,-2990,4876,-2973
-24,60,-100,3118,326,281
-48,35,-116,1503,-1118,2105
27,-33,-90,-96,-4351,9078
59,-67,91,12,-5765,9326
-122,-75,106,-414,-1267,6452
-95,-54,-127,1303,-517,3927
-68,-65,-38,44,-933,1394
89,-27,-77,-2034,-1327,1690
-69,53,27,-2241,273,1936
-77,38,-26,-37,-36,170
-112,-35,-91,659,581,-1252
74,97,90,-159,334,-1081
-7,6,39,-246,-52,-173
-21,56,46,-586,-47,198
20,89,55,-427,-274,421
55,-91,86,-703,9,275
49,-68,92,-1137,149,395
52,-57,114,-1483,683,608
17,-80,97,-511,-347,-67
38,-54,-123,-699,-185,238
37,-55,-115,-347,-294,237
16,-55,-41,6491,2039,-3544
79,-95,-3,6620,602,-6587
-114,49,-68,-1919,3162,-8889
37,-89,-11,38,3388,-6558
-80,7,-35,4514,3938,-461
-77,-26,-119,-2250,-790,7291
97,15,28,-1382,-1150,9531
-74,-83,-18,-1317,1259,-1413
112,59,-121,-144,1638,-5944
-101,13,20,968,2811,2380
5,-115,23,-4833,-4629,9452
-51,-45,-4,-5897,894,-3176
-41,110,-2,-2713,-3180,-4546
27,10,-123,-1784,2895,-7448
56,82,-10,-2584,-545,-3961
-125,73,72,-2999,-112,-3107
112,-67,-64,-1757,-5609,1398
13,-18,67,1396,3236,-207
-112,-12,49,1736,2118,-504
-61,-70,-118,175,300,1296
-53,29,-104,613,-1215,3482
-65,-58,68,-617,-2857,5352
42,55,93,3445,-4024,6566
8,25,34,-1439,-914,4106
-94,58,98,-884,-2722,3492
-53,-43,-15,-232,-333,3137
61,-75,38,-47,-1120,3700
-99,66,122,669,30,3635
123,3,107,1318,-597,865
25,-74,-108,-1335,-189,-996
-20,72,82,-1653,241,-1420
-66,-8,18,-1257,-317,-661
-51,27,46,-1115,-360,-594
-9,65,73,-1308,-47,-506
3,108,105,-1189,463,-1177
44,122,-119,344,1687,-2659
9,86,80,496,366,-617
2,106,54,132,-129,-309
-20,103,34,-957,-598,596
-68,86,-4,-1203,-831,740
-122,45,-115,3080,669,-5941
-68,-47,4,45,1934,-7609
25,-113,-91,25,1379,-8173
-72,-74,-39,-1060,1966,-7812
125,-72,-18,448,1673,-3834
-71,82,95,577,-399,2279
-87,125,-112,-2574,-3232,9313
30,61,-45,-1694,-1086,8790
32,91,-52,3294,-1186,6257
49,56,-83,782,-2631,-5827
-53,-120,-117,-180,2730,-6998
78,-29,-99,-676,-430,-4213
-23,-74,-25,746,1811,1193
69,-1,-105,-2427,-1944,8134
-14,-58,-6,-4977,-1938,7729
-47,-10,-106,-3530,2987,2388
-116,-105,111,-243,-3573,-7785
109,-46,-112,-2878,3420,-8277
-56,-61,7,-442,951,-5948
78,88,2,-4657,838,-3587
-56,34,0,-3109,-1569,-353
-123,9,117,-2394,-3502,1816
91,-17,56,379,-674,673
-48,68,-65,3087,3259,-3838
77,14,-109,2807,-786,-111
-109,25,-28,671,-1484,2264
-23,-38,-80,929,-2887,6322
35,91,119,1154,-3120,8616
124,121,-83,535,-1019,7558
17,-21,-58,1859,-1562,3666
118,-122,6,-567,811,1499
-60,24,90,519,-139,2316
-72,-118,-20,-877,-1018,2991
-3,97,17,-1796,-1626,3130
123,-109,119,-1797,-324,1992
105,-104,81,106,343,-652
5,63,-8,1680,-711,-1469
-29,60,7,314,-79,-1624
-70,4,-5,-849,32,-1028
-98,-18,-2,-699,103,-445
-27,-55,-62,3310,3245,-5842
-32,-27,-14,9908,602,-4682
-100,-51,54,-3087,1107,-8794
31,79,118,-1721,406,-8900
-95,-72,-119,-502,1374,-5996
-48,-99,76,4890,1073,2144
-115,63,60,-1964,-539,6577
65,18,110,-790,817,7975
89,-100,-18,7087,1215,8694
-14,4,23,-8374,206,-1460
9,-110,20,5014,-3011,-5904
-87,85,24,-1901,-149,-6666
-32,-12,-82,-393,-14,-2582
-109,104,8,3387,-644,2075
68,-104,-40,-3924,1500,6515
56,32,33,-4084,182,7800
83,127,-31,-2359,-2434,3962
-99,127,-62,-1493,-2672,-6320
-57,-45,-28,-2691,3839,-7470
71,13,-102,118,-997,-6671
29,-26,-122,-3086,865,-6030
56,28,81,-2295,-489,-2502
18,25,-35,-3458,-2211,1529
-20,-20,55,1219,-3677,2320
-50,-100,-52,421,447,895
37,73,37,4009,1054,-3810
-22,97,2,1156,1462,-2649
56,-98,-117,944,-558,618
-102,-5,69,556,-391,5418
45,-14,-87,1241,-750,9438
22,103,88,-1794,-336,9046
-88,49,-109,24,739,4537
13,-80,45,-1704,-3057,3785
32,-31,77,2305,794,1318
-127,-99,52,-1010,-678,3623
-28,90,54,-2634,-156,4734
-81,-49,111,-4665,159,3974
9,8,99,-1569,1447,1206
-102,-79,24,3152,-530,-1901
74,66,28,2308,-635,-2598
4,57,-62,3141,2117,-4043
-78,-20,-21,3044,1606,-6904
-30,-126,123,1802,2492,-8113
60,-14,23,-320,1659,-8377
-115,-107,-123,686,1632,-6140
-99,52,106,1569,406,-1600
113,10,89,1317,-2124,6119
-53,48,116,-2907,-121,8299
-32,9,-34,5028,-1798,11186
114,-82,99,-6450,4122,-817
51,102,111,3814,-3653,-4929
47,53,86,-1877,1131,-5509
-19,-123,-28,125,439,-822
-111,-112,103,-1905,-75,5943
94,89,102,-6139,-2281,8252
-111,92,-2,-8625,-2500,1288
-52,-17,-123,-479,855,-5523
-54,54,93,-5657,4324,-5380
-97,102,111,-601,2085,-4988
71,-86,48,-2658,1629,-3764
106,-68,11,-2347,-250,-2244
6,-60,37,-2600,-254,-449
-76,-71,83,-3440,-2594,349
55,-82,-58,1272,-141,817
-41,19,13,4492,3310,-957
92,-62,-104,571,2502,-2042
61,79,108,1133,-142,1016
11,-125,-114,1197,-1461,2002
9,-2,88,533,-4490,6198
112,7,115,1909,-4131,7944
5,-1,72,-1275,-2366,5978
114,-109,101,592,-2006,4593
21,-58,4,2468,-1717,4936
-75,103,-102,-161,-2383,6074
-101,-99,5,2465,-1149,3056
123,23,-73,2295,47,529
64,-87,93,1086,-433,-784
79,58,119,-533,12,-783
91,-7,77,-875,-242,-1077
-120,6,104,-1213,44,-1867
38,12,112,7116,1298,-4113
64,-71,-34,-236,2124,-9694
-95,82,-24,326,998,-9209
110,107,5,-950,1722,-8334
-61,21,-27,296,800,-4995
104,-86,-48,952,-3118,3710
75,63,-1,-2596,330,8411
60,-100,82,1758,-788,9437
70,114,-99,3284,1569,6473
54,-57,40,-4074,5,-4851
54,121,39,-49,2684,-7322
121,-64,-80,-554,343,-5185
-24,-116,29,-1635,2499,-523
84,18,-3,-3040,-3294,6641
-98,117,74,-5498,-2531,7744
-50,-59,-82,-1142,-3431,5691
-5,124,122,-7698,3414,-2305
108,8,37,1774,-310,-4776
-106,-78,68,-2451,3521,-5796
90,-43,36,-2393,1406,-5513
-73,-18,109,-3766,29,-3234
30,123,-19,-407,1317,-2960
-57,18,30,-1102,149,739
100,127,-42,-4116,-3295,2117
85,24,30,51,-1791,1850
-106,-40,-18,1794,3679,-4161
115,-10,-112,1717,841,-3405
98,-13,106,1938,-839,235
-88,-20,-21,1961,-2436,2660
-99,-74,-42,1896,-3247,6080
109,-52,18,-366,-2085,7594
102,-25,118,-3697,-1892,3191
116,64,9,-4047,-4212,2907
99,-113,18,5354,-1341,2179
-41,-69,-56,3501,334,3379
52,-79,-100,6030,-729,5046
68,-38,-87,2851,323,5141
37,-106,-75,-246,-439,2364
54,63,105,-3549,-561,-1018
-27,89,121,-339,-183,-2203
83,64,-45,1390,2157,-5157
102,102,122,4524,733,-4256
-25,85,56,-1888,-68,-7345
-109,25,9,-1421,183,-6235
40,121,-108,532,-8,-2417
1,-54,-110,-355,-1629,4518
122,80,-37,-1997,-1424,7083
9,-53,-40,1218,-1064,9641
-13,23,-128,-945,1807,2439
103,-79,-19,1441,-2409,-5666
-123,38,-36,-1104,756,-6652
90,-120,-54,-523,68,-3662
-45,85,115,983,1402,1881
86,-64,-37,-2823,-1559,6988
-51,27,-3,-4972,-2020,9165
-16,-122,35,-6951,1346,932
-49,54,82,1636,157,-3464
-21,-69,30,-4369,5427,-5064
116,26,5,-2149,216,-5874
-69,103,41,-3144,757,-3721
101,71,52,-3026,-1038,-1929
45,-52,-12,-1024,-311,-2288
-83,28,-74,-3386,-182,151
-81,107,-97,-2279,-2665,2216
38,-13,-117,5006,1664,561
50,-34,122,1945,3321,-3601
-15,-111,-67,708,2180,-2993
21,-63,-11,1764,110,-609
-66,83,42,2415,-839,2146
-108,-35,37,3529,-845,4749
-14,27,32,1085,15,6522
64,91,-49,-956,826,4973
-124,-126,-20,-1187,303,4351
-99,122,0,-1382,-10,3643
-42,-105,-115,-1973,444,1974
-78,20,113,44,738,1399
94,-82,33,80,75,570
73,-85,-85,-230,-928,597
-109,-48,-24,-589,-294,-152
-64,-96,0,-32,113,-307
4,2,109,6988,1943,-4654
-116,-47,88,-373,98,-8443
0,87,-17,-861,-83,-6331
-17,70,85,376,603,-1978
62,12,-99,-796,-1415,6229
91,114,71,-3572,-892,8274
44,-128,15,41,1372,10343
-102,-16,-102,-9124,4343,1664
-116,-5,-9,5731,-1695,-2979
85,-54,62,-202,472,-5813
-109,62,-71,596,70,-4355
-100,16,102,-585,1448,-1485
-52,106,-13,126,-72,5947
54,-3,-94,-1194,-1542,8257
82,-13,-104,129,3938,-1935
-44,48,87,3337,-2551,-7734
-52,34,29,3205,-3916,-8677
-48,117,-59,1878,-2009,-7916
106,-55,-81,3036,-930,-4220
-37,105,91,3221,-1040,-901
-55,-74,87,772,472,2541
0,31,-60,1420,-2252,6902
52,31,101,-3544,1862,7057
68,74,18,-1269,-930,4919
84,-34,-36,-3701,-707,-2846
103,84,-84,1875,-880,-906
126,-8,-82,3,683,1527
-17,-46,27,849,528,4913
69,-89,-18,-3543,525,7131
95,49,-16,-1685,906,7671
11,37,-73,-3573,300,8249
-59,30,-70,-4457,1875,4160
-14,69,-40,-30,342,7587
-107,-126,105,-509,-550,6625
-107,112,96,4048,-1193,-1628
-110,-5,-124,-644,-1,-1135
-121,-122,102,-3018,769,-1336
-117,20,49,-2854,-58,-1074
-59,65,60,-2527,935,-1512
-39,-18,62,-1094,950,-1465
73,26,91,5773,225,-8231
-86,113,14,1210,2940,-9857
-6,-84,94,-1945,-1442,-8119
-20,-112,-41,-1907,2894,-8067
35,-122,-78,1327,1909,-2583
-73,-16,-32,-661,-3184,8550
-101,-26,68,-3158,-3858,10889
-33,67,-35,246,-426,6153
-91,118,106,-2706,1348,590
106,-21,59,5213,-366,-5680
105,-5,-16,-1755,2468,-7838
7,-84,-119,473,-820,-3364
76,-128,26,406,-370,6319
37,-13,-86,-5556,-3181,8711
47,-57,-42,-1534,-1262,8180
22,-57,32,-3474,1553,1974
-58,64,15,7961,500,-4013
-27,103,105,-2323,1950,-8333
-18,105,-64,2119,-1747,-9657
112,-67,-29,-873,-218,-10769
125,-35,-105,3108,1043,-7744
33,-22,4,1963,-245,1241
43,110,-76,715,-1774,4071
-54,-77,116,-782,-2686,6329
12,111,-115,-4390,1217,3607
67,57,68,-681,-1441,4974
85,-122,63,-1765,-126,-2145
-93,115,3,1331,-978,-3280
35,-63,-84,-166,250,-1348
45,-76,99,-676,953,1823
-78,73,-77,-1286,-749,4741
-87,-118,-30,-415,-219,7173
-87,-119,-19,-2441,-1140,8151
-80,110,72,-2747,-763,4260
123,-24,-36,-2547,-928,5315
94,8,49,-872,-2039,7891
2,-96,56,-662,-1474,8226
31,-38,-103,651,332,1121
-10,-38,95,2096,-959,-1567
-93,42,94,-34,-181,-967
111,-88,-54,6373,-253,-2660
-53,-120,7,7090,-1897,-7857
-120,55,45,-2970,-628,-9065
-62,125,-93,-1890,633,-8883
49,-125,-61,-1571,4148,-6660
118,48,-11,913,-2091,3551
14,15,8,-2918,-874,9093
-35,36,24,-1692,603,8689
-28,-97,25,-3778,726,7670
74,95,10,7326,522,1573
-22,80,124,978,-2253,-6818
80,1,-22,504,-2173,-9477
-4,-95,-99,-2942,1118,-5426
64,25,-68,3245,2407,2882
-113,27,91,-6578,-2188,10752
115,56,41,-5051,-1915,8254
21,-116,107,-734,3880,410
108,36,112,4180,-5727,-6891
21,-49,126,-2973,2612,-8188
-49,10,106,-1088,-49,-9259
120,69,51,-289,1768,-6734
64,-85,99,-701,-969,-1679
127,78,-5,-2401,-4035,3235
-24,11,81,-3021,-4839,4342
32,-127,-106,-375,-1238,3974
106,-25,-127,-2409,737,-2315
89,-13,53,3172,2739,-4461
72,-5,-89,357,1427,-611
-49,106,79,2007,-2417,1746
91,113,-88,-1913,-2185,5923
-101,113,70,716,-4089,8973
123,-66,-18,633,-3886,8104
-1,68,114,-2214,-213,4927
-15,47,11,359,-3606,5362
89,73,18,-2842,-1805,5549
117,-1,-101,-2177,81,4864
76,27,-123,4264,-509,-1597
-59,-106,93,3293,-843,-1922
-71,-19,72,908,795,-1429
-111,-48,3,-825,-88,92
21,69,-32,3509,2864,-4130
112,-22,36,8780,-4011,-6355
-99,59,72,-4390,2107,-9755
31,17,28,-1541,1665,-8749
127,87,48,967,853,-5338
-73,78,-33,-200,-969,2011
0,93,39,-1889,-2843,8781
-83,-32,-93,1608,-1018,9588
112,64,-75,4036,-72,6069
-37,44,41,-3691,1729,-6022
-67,127,61,452,1295,-6881
-56,91,125,-106,-146,-5352
-63,-43,13,-1024,3945,653
28,25,-12,-967,-3639,7853
107,61,97,-4777,-3327,10509
-9,127,2,1900,-2583,4342
-96,31,11,-7679,2973,-1796
113,-98,14,2671,-303,-4570
83,66,-45,-2218,3644,-6511
-89,70,-27,-969,34,-9232
100,-45,-117,-2027,1224,-5574
51,-15,95,-697,-135,-3462
76,35,116,-1954,-907,4
3,46,45,-2770,-2910,3197
-99,-78,-88,-1996,-2824,2089
-55,2,-30,2339,61,112
82,32,59,2347,824,-3572
6,-108,106,-11,-185,-2048
95,-51,-53,-203,-665,-430
-63,14,-113,1095,-1282,1949
53,-49,111,745,889,4164
-22,123,7,833,-636,5691
58,18,-80,2063,2677,3008
42,-97,-56,-361,1506,2681
112,78,80,-1234,-2,3371
-14,-20,-51,-646,912,1377
-29,13,-66,-315,104,1687
52,109,-38,-744,359,2219
-104,-3,-52,-277,-160,2741
-46,19,-82,-752,-562,3735
50,-71,-90,-3537,-703,3584
97,-54,112,-1565,-1456,3418
62,-21,33,1422,-1699,973
-44,26,30,1076,-1016,-1080
-112,-31,47,-849,-124,-1004
77,-56,22,-1891,-34,-634
75,-28,-16,-3098,-374,-96
117,58,59,-3642,80,-189
93,72,63,-1313,195,-214
78,100,37,-217,-143,-224
-103,-115,40,-1020,131,-246
-47,-110,-4,-885,413,-667
121,83,-47,82,-500,-991
86,55,-33,-496,-365,-441
97,97,-3,-1397,-694,125
-112,-118,23,-1020,-314,200
-103,-62,28,-741,-320,6
-124,-45,26,-634,-468,-45
106,-36,38,-596,-540,-26
91,-41,57,-480,-267,154
102,-54,49,-184,-149,373
-127,-47,32,-94,-36,576
-123,-29,19,-93,-43,631
-121,-11,20,-268,70,636
-93,-7,27,-309,262,682
-60,-16,19,13,302,703
-28,-18,-18,363,183,573
-7,-8,-40,171,97,331
-33,19,-37,-467,-209,34
70,-45,-74,453,917,-3418
21,-18,-102,7886,2152,-6355
103,34,-82,1074,-976,-8584
11,124,-75,-3527,1041,-8900
53,101,-125,-1306,789,-6864
22,-52,-62,882,-167,-2964
84,4,52,558,-1369,4218
39,-66,4,-1138,-1439,8435
-121,-30,6,4049,-192,8944
-11,109,38,-5435,4943,-493
9,-21,-6,3204,-4518,-6775
-96,72,-50,-3082,2805,-6900
-101,-57,73,1212,-96,-1532
45,-43,16,-1775,275,6123
120,8,48,-2605,-1703,9242
66,-72,55,-1059,-1053,9445
2,-22,-49,-8412,3562,2287
17,-113,-37,4951,-1786,-5761
64,95,-104,-2983,3977,-6688
-100,86,33,-61,563,-7444
-71,92,-83,-2316,2859,-7018
-32,-41,48,381,1039,-3434
63,53,-121,-1871,-1341,-1398
-53,78,78,-2747,-3023,1368
-91,91,-122,-3014,-3689,3159
-84,65,-125,1569,-2844,2626
-104,-90,-128,-2009,2483,-1328
-90,-107,84,3346,1503,-3657
26,3,-56,348,1103,-595
106,-89,14,1034,-188,2616
102,-54,-110,-544,-1303,4744
-107,-36,-75,-240,-3565,9062
11,-122,-72,164,-3616,6153
-21,-70,117,-1528,486,5639
37,-20,-12,240,-1243,4353
-32,-69,120,1233,-903,4802
-17,74,101,752,-217,5419
-84,-73,98,-398,-652,3113
37,-26,93,-264,-452,94
-87,110,119,52,-312,-1864
-80,-18,121,108,151,-1536
-74,-89,95,34,206,-1187
-31,-91,91,-75,65,-1127
-3,-86,93,-144,202,-1583
-30,-95,66,-360,209,-1832
-64,-113,52,-623,131,-1458
-87,-110,51,-860,86,-761
-87,-74,62,-843,296,-204
-94,-78,22,-95,222,336
-100,-40,-20,-406,-410,1008
-75,22,10,-1534,-288,1245
98,63,125,9212,-1167,-6585
-42,-25,-34,-883,142,-8968
-81,42,-102,-3399,-456,-12498
-108,-35,-66,-1567,2504,-9567
31,-29,-126,2576,-755,604
-114,8,-81,-3300,-2838,8800
30,41,107,370,-2332,10044
-2,-127,80,2826,-839,11427
-84,51,8,-6881,3721,2170
10,109,1,3897,-3440,-6546
105,-57,10,-3172,3835,-5600
11,-112,85,1175,-230,-2387
62,-82,-50,-1522,-584,5824
79,12,68,-4651,-3306,8618
64,21,1,1890,-1019,1611
-31,93,50,571,-737,-8007
-16,-94,27,-3860,3876,-8777
-52,109,70,-1082,605,-7246
78,-19,-63,-3933,2531,-3197
-93,112,-17,-3739,-2520,1543
-87,58,-80,-3309,-2924,3044
111,-115,85,-341,-3761,3663
-38,-2,17,-262,4482,-5543
86,-29,-34,3089,78,-3868
56,97,55,2190,-212,-39
-104,-49,-26,17,-2055,3343
-86,-58,22,1734,-3653,6593
1,41,6,558,-2496,8208
-88,-7,82,34,56,5740
-49,-115,126,1094,-633,4363
-70,96,-69,4760,-702,5424
36,-50,-26,1719,-802,7164
-103,96,75,-3239,457,4490
94,-28,48,-2789,-641,-2528
-26,14,115,2523,-269,-2924
-26,122,75,2346,645,-2135
-107,-68,29,-274,-478,-717
-54,-27,36,-1754,355,-746
1,-38,26,-1325,108,-832
34,-38,48,-584,201,-878
-42,-12,59,5369,2727,-6057
70,-27,51,3163,1413,-10232
109,-58,40,-3248,2039,-9611
-54,87,-96,-1812,2123,-7356
56,34,32,2619,1244,-1150
96,41,102,-2387,-2909,8705
76,-60,-94,-1431,-1179,9502
-80,-76,-12,7181,-2690,6190
-66,104,127,-2641,1099,-7812
-16,-42,-85,-478,1969,-7378
66,-56,-59,214,1013,-1087
5,9,31,-3605,-560,7751
18,-98,1,-3780,-1704,8337
-70,-128,126,-4428,666,446
4,102,36,1796,-1357,-6631
14,-70,-40,-1528,3812,-8067
-40,-74,-70,-544,1872,-6731
51,67,-92,-2664,389,-3261
24,12,74,-3618,-3778,1753
44,107,-91,-2244,-4605,1929
48,-34,62,-1829,3152,-1722
120,-17,82,3941,1691,-2532
-115,123,48,1998,-1159,1243
-91,-86,-117,1758,-2475,4336
67,-32,57,-1377,-4287,7212
39,44,-109,1236,-2271,7460
21,77,66,-2441,-519,4904
69,18,81,629,-1990,5788
62,-71,-101,1213,-2048,4430
-88,52,-53,-1327,-1897,4068
59,-72,34,-509,522,811
61,55,63,2552,-157,-1275
46,-95,9,1683,-434,-1705
33,31,-30,11,-472,-1551
-5,12,-30,-1250,-315,-1059
-50,8,-16,-1526,-452,-507
-33,59,31,-1552,-235,-1064
-10,52,45,-873,-94,-816
-22,52,44,-342,-248,-601
-37,68,47,-578,-118,-400
-12,-83,-45,-1132,1323,-5070
2,47,-40,308,154,-7087
33,26,-5,767,817,-2854
-3,-53,51,-230,1637,2381
-37,122,-78,-1717,-292,6463
25,-86,-63,2140,-2295,7809
109,104,25,-2224,3753,-5014
126,69,-18,223,154,-4555
91,-126,-99,1337,-961,2969
17,-104,-59,-5302,-814,4350
48,-82,56,-7666,2158,-2551
67,53,-30,-1407,406,-6401
33,-106,0,-2525,122,-5371
119,89,-68,-2935,-1483,-2764
-7,-51,34,-2187,-1326,-1206
96,-29,31,-961,-1172,-528
10,-4,-38,-2628,-2955,626
-115,-74,-22,1927,2257,-1135
88,-7,127,740,1513,-1080
-53,84,-41,615,782,-138
51,-11,-59,103,-2676,2493
64,-70,-4,559,-2862,4141
23,26,-72,-1043,-3591,5537
9,49,-25,-1692,-1698,4645
58,-44,-79,1062,-1998,3670
71,127,33,1717,-1305,3297
15,84,108,724,-2105,4585
-63,37,-85,-12,-1627,4717
53,-36,-34,-877,561,2495
-127,33,94,-89,179,-54
19,0,26,107,299,-1460
-28,120,-39,43,84,-2120
-37,49,-60,-280,-335,-1717
-53,40,-60,-1124,-407,-1201
39,96,15,-2556,-341,-1143
-24,-64,-57,-3177,1078,-1876
79,38,120,2023,641,-2291
-56,-52,27,2875,-296,-1395
62,-26,-22,-298,-391,396
11,25,-42,-2061,-26,1489
0,-59,123,5146,-512,-1635
89,-3,52,31,2530,-6785
-79,-95,45,-411,1595,-9177
1,79,-58,-1109,3174,-9001
119,-112,127,769,3026,-4309
96,-15,126,1333,-1442,4590
118,-99,-81,-3777,-1304,9199
39,73,-68,-33,-952,9502
0,57,-119,-2179,3443,3270
13,-50,-102,3542,-2867,-5158
-104,97,104,-2648,3417,-7752
57,0,-46,-286,131,-5007
18,-95,84,1498,2652,757
-36,101,7,-2561,-1596,7667
58,-76,41,-4376,-590,6982
60,-6,-118,-4914,1926,-695
107,116,55,938,-4906,-5086
-11,-67,-68,-1898,2388,-6720
108,-92,-128,-2339,955,-6281
-1,31,63,-2870,-865,-4708
3,-5,-109,-2532,-630,-2190
14,-74,34,-4063,-3615,231
35,-71,62,-3905,-2325,2692
98,-67,111,-67,-2214,1764
-28,58,-100,6549,4894,-5204
23,54,-6,293,1695,-2268
14,-128,-10,857,-1303,500
124,-19,7,2044,-2082,3658
31,-17,92,1835,-2118,6092
-51,8,-106,1491,-3378,7146
34,84,81,-3066,10,4739
64,-29,17,-1113,-1844,4462
-108,6,-69,1346,-2779,5460
74,67,-109,2020,-991,6633
-126,-100,-26,-1817,-697,4585
-48,-66,-113,-978,-133,915
31,-97,-121,91,-737,-42
-74,116,114,728,-152,-1011
-84,92,100,91,89,-1235
-19,6,77,94,415,-1498
54,-97,-23,1767,2667,-2959
-53,30,-27,8384,-3782,-6647
-23,90,-4,-3488,2277,-8777
-31,16,99,-1451,1847,-8191
-22,3,96,1089,1340,-4700
96,-37,80,761,291,3575
65,-62,87,-4027,-1810,8694
-18,63,-48,1294,-1437,9538
36,103,-74,-3965,3249,2989
-9,12,-124,6102,-2781,-5882
-32,62,-109,-2234,2445,-6744
-61,93,-15,1847,-352,-3763
-20,-80,-125,5639,197,2463
-48,-79,25,-2695,1291,5944
-21,-8,22,-5592,1159,8424
-18,-128,49,-253,-256,4790
-48,-28,81,-5327,1835,-4056
30,-96,61,-2449,-2857,-6088
83,-70,-34,-1946,-1691,-6167
-55,-124,1,-4404,112,-4844
61,25,80,-2957,-496,-3637
31,115,-18,-1364,-206,-2665
-60,-32,-102,-2388,-185,-32
-62,42,11,-2028,-3207,3348
-65,1,124,1432,-1895,1518
32,13,117,805,4809,-5107
69,77,112,461,2019,-2502
124,86,-8,2471,-919,952
-19,-78,79,-1082,-1333,4159
-106,-88,-50,602,-4385,8798
-1,125,-105,4455,63,6615
57,-21,-32,442,2857,2556
-51,-26,-34,-1434,424,1944
76,-75,9,-849,-724,1898
-30,-33,55,-1114,-1264,3064
-51,-124,88,-1068,-1176,4607
74,89,-78,-855,-435,5188
-58,-90,103,1744,120,3158
-113,-1,-48,3260,-1653,722
-11,96,86,-1122,-433,-591
9,-116,-96,3934,1175,-4584
-35,25,104,3170,1348,-5705
-103,-38,64,-3059,3888,-8133
84,34,-90,1069,1218,-7562
15,89,65,-2399,2043,-5372
85,0,-45,3820,718,-1038
-42,-93,-45,-1096,1095,3594
-65,47,-52,-1224,-1293,6538
-44,-38,-90,7512,-2596,9111
125,20,112,-12812,6871,-3971
61,29,126,3066,40,-6019
28,51,64,1610,548,-2815
-85,111,33,-1404,1501,531
-43,-106,101,-3510,-814,7131
-23,-116,63,-3317,-3103,9263
-48,92,-13,-3131,1280,3878
105,7,31,-3661,1391,-3874
-37,-111,11,-1492,354,-6134
81,118,82,-592,757,-6533
-25,-96,80,-3781,1315,-7450
12,111,111,-2950,-388,-3482
-128,36,-81,-3297,-1325,-1383
115,-100,118,-3478,-1484,996
94,115,76,-3491,-3195,2620
-121,17,95,1002,-2134,738
-50,-91,55,4899,4838,-4028
-44,124,-58,270,3437,-4318
64,-113,62,1137,384,-85
5,37,-53,1742,-1172,3576
-83,24,51,788,-3845,8489
116,103,-73,1293,-4818,10757
-127,3,-17,-4425,-5763,9925
-59,47,-38,-6294,-4786,6660
-126,16,-104,5527,-3114,-109
103,4,-92,7286,-3975,1223
124,47,-70,-310,3026,1360
116,-42,-8,136,-293,-34
101,80,64,71,-624,-801
126,58,75,-758,40,-875
117,-7,33,-475,-323,-1040
-21,-1,7,7812,-1095,-3601
-106,0,31,-2042,2960,-8710
64,74,-119,-161,1247,-9483
50,2,-7,-665,2642,-8581
41,-91,10,1406,723,-6113
56,-50,-5,3292,-1886,2191
37,36,-6,-3360,609,7586
-45,-1,-52,-651,659,7965
88,-19,9,3182,3022,4709
-97,-93,-18,-1316,-288,-6674
-111,59,-25,180,-9,-7436
59,60,41,-99,234,-3258
77,-17,-65,2512,320,3911
25,113,-22,-5717,-196,8210
102,-62,55,-1866,-2859,10541
-99,92,-17,-8214,7895,-2228
-89,13,0,3598,-4370,-4576
110,125,-62,-3311,876,-7389
-122,-123,-112,-1902,-299,-6708
-20,-82,-111,-1235,-285,-4195
-96,113,63,-1323,-762,-3069
-18,-68,-30,-3070,-2944,-149
-1,65,64,-2519,-4208,1931
-29,-93,32,-1389,-3402,2724
-54,97,-52,4256,6376,-4482
115,70,63,768,2689,-2952
-53,6,-125,1854,-146,304
-94,102,-5,-256,-642,1229
29,-38,-106,1517,-2389,3893
-15,-40,-2,1484,-3482,8445
-92,62,-11,-631,-1520,8123
95,-103,101,-2650,-600,4294
-39,-21,66,2232,-1010,3046
87,75,62,3302,-371,2841
108,-36,-42,1922,-1405,5193
95,-26,91,-1725,-808,5449
73,-16,-104,-5143,681,3391
-123,22,27,318,-55,-560
-43,-109,74,2555,-674,-2219
-18,23,37,529,-60,-2258
12,110,-70,3582,1575,-3700
-46,-113,83,938,828,-6045
-55,114,74,80,1460,-8610
12,-82,34,-1329,2534,-8546
13,-23,106,-232,2863,-6535
-70,50,-82,3435,1704,345
13,7,-17,409,-2984,8023
81,-56,-96,-2479,-1049,8512
29,49,54,5521,-803,9000
46,17,118,-6828,3705,-2650
-38,124,26,2310,-2101,-6948
103,-127,94,-295,783,-6071
-52,-30,-9,-86,2186,-2005
-16,-94,85,-2133,526,7049
-72,-107,-100,-6810,-1420,8012
6,82,87,-2712,297,2589
51,-99,17,-545,-4133,-7522
19,-15,-34,-3768,3256,-7052
-51,-16,-77,-974,-422,-4613
-3,-65,120,-3655,510,-3478
-33,11,-67,-1406,-1388,152
-90,-118,-52,-5180,-2108,332
48,13,-98,-3009,-2873,796
-61,77,59,3857,-1928,3574
-42,90,-121,2882,4785,-6112
-119,121,-105,-856,2769,-3199
118,-81,17,2693,-1428,624
-126,-96,-80,-1619,-2290,2438
-7,74,11,243,-3134,4426
7,99,85,699,-2544,6317
110,-41,122,-1167,-563,4014
84,32,-23,298,-2260,4071
-62,-50,-14,-1248,-1182,3587
16,-121,-18,-1044,-930,2752
59,-14,-88,1174,-1975,3058
65,48,73,3304,-2311,3529
-100,67,-107,-209,-955,3734
-90,-77,-95,-2777,999,2533
32,-118,26,-39,-772,760
-25,-112,87,962,-572,-1180
-128,-72,-22,4402,105,-3607
89,14,-12,1279,3290,-6558
29,-73,126,1230,1390,-9409
50,-116,23,-458,2635,-8759
31,43,43,-356,3865,-6806
36,76,93,1093,1249,-1407
45,60,-36,-918,-2180,6064
-53,-88,82,-3711,-1991,7867
-83,-29,78,5333,-3253,11329
-58,-87,-35,-7852,7020,-925
80,-24,58,5535,-3241,-6656
-116,62,-37,-1419,1832,-6391
51,-78,16,2263,869,-157
-19,2,25,-5021,2324,7083
24,101,-74,-6504,-2598,9606
54,2,-27,-7198,2505,483
-109,-122,67,1577,-5607,-5544
12,-37,41,-4392,3059,-5798
-48,32,88,-611,2285,-6849
33,61,-72,-1722,1425,-5457
44,95,-114,-863,-583,-2797
-110,-8,87,-3869,-1592,-53
2,95,51,-3765,-4019,1936
116,54,54,632,-2896,2460
-48,-83,-58,4301,5088,-4648
63,-9,-26,-1267,2761,-2919
-34,-59,-120,1903,213,-483
109,-29,-22,282,-1368,2036
116,-24,-69,-486,-2734,6105
-77,-120,32,744,-5489,7584
85,-126,18,-2258,-3090,5919
-38,10,4,-5917,-3290,2808
36,65,2,6031,-2410,2906
66,98,-112,924,-636,4266
67,103,96,3183,-1627,4576
-89,40,60,1371,-2393,4737
-98,38,-74,-1949,978,994
72,-10,75,-718,330,-1291
-37,12,101,854,-871,-1853
-58,30,113,-816,474,-1862
-27,52,53,3677,540,-3837
83,-22,-43,3011,2226,-6255
-37,-76,75,1884,793,-8592
36,-12,-11,-356,1303,-8919
-103,62,-9,-1,2913,-6969
-69,-29,-33,2542,689,301
-82,28,120,-1895,-1665,6523
-118,-76,-107,-2914,-1061,8214
-67,16,109,3631,-2149,9006
98,114,101,-4327,4473,-3817
-126,127,-39,174,-48,-7935
-89,55,70,-1074,493,-4921
-15,115,-113,1930,2163,1548
-82,16,-5,-3093,572,6419
-41,50,-77,-3501,-1467,10048
78,-98,-14,-5420,1081,2699
-101,-78,94,-702,-1053,-2542
-41,113,121,-2677,1004,-5138
-45,59,87,-635,531,-5168
98,-31,-18,-2765,1340,-5771
-94,31,-34,-1498,-1487,-2082
-109,-85,-109,-3271,148,-3341
33,-116,-45,-811,-278,-2428
-54,-76,24,-3217,-1552,1480
94,-123,111,-1749,-2894,2847
117,112,-6,196,704,-312
90,-54,-98,2484,2808,-2577
57,-97,0,876,374,-1100
-91,115,-127,439,-949,526
-20,115,100,-626,-2444,2504
67,-99,2,-57,-3369,4902
109,60,85,951,-1713,4851
-39,-79,70,-493,-2746,5419
-59,-19,40,-1685,-1505,5351
116,62,-60,562,-1395,2566
123,-27,106,1486,-1491,4471
111,-38,115,-172,-1222,6000
-79,57,124,842,-2668,4881
-51,-45,-125,1513,-1542,779
4,-77,-100,744,-375,-878
-101,40,31,2636,4179,-6427
-95,36,41,6527,-247,-6303
87,-62,-19,630,-1669,-7889
-82,41,-72,-1734,-759,-6666
83,28,-123,372,-1268,-2989
-37,-30,64,442,-229,4172
-26,-91,99,-2837,-1376,9699
31,25,115,1006,1051,9506
-15,-26,98,-2461,7284,-193
113,-21,22,2849,-7210,-5480
-117,-89,-73,-3058,4144,-5735
108,-113,127,861,-1055,-2207
117,101,51,-1496,1400,3318
-9,-126,36,-4516,-2753,8502
-115,12,81,-818,-2477,5668
73,86,-119,-4104,1022,-3604
-48,19,49,-54,-4167,-4450
-93,127,50,-2432,693,-5654
-124,-24,-85,-2255,-137,-6411
-64,30,-61,-2050,-91,-4961
11,-70,-49,-2057,24,-2793
-109,61,-24,-1283,-2919,2924
-122,99,8,-4152,-1418,1147
16,79,89,1060,-3578,2571
-56,62,119,52,4143,-4859
-112,117,-94,360,2001,-2749
-81,-83,123,1220,748,326
-92,-52,-89,-53,-1159,2444
116,-86,98,73,-2830,5662
-66,-6,13,1182,-4442,8474
-51,-114,-109,1805,-4489,8685
110,-85,-123,-2440,1373,2959
34,91,-108,3745,-1179,2190
73,76,1,-428,-431,2724
108,-36,11,-1513,-1109,3278
-51,90,55,117,-1457,2966
86,119,83,-219,-1176,1870
38,-36,60,-224,-617,331
-61,-9,-8,13,-487,-737
-123,-34,-42,-1016,-157,-1345
54,-29,37,6652,-119,-2789
56,76,117,10962,-5843,-7500
-107,-76,-63,-6054,-28,-9595
-105,-22,-33,-3268,-373,-8310
48,-117,-57,-1106,777,-4987
-40,-101,55,3256,133,1267
38,38,-2,-1556,-150,7131
33,118,-93,-1716,906,8617
110,12,102,4765,-2733,5067
54,63,1,-4623,695,-4915
-122,-60,36,1146,82,-5095
-15,33,-65,1814,0,-2470
81,61,-99,-3547,2596,-481
-26,61,1,-2364,-1506,6683
-92,121,-20,-1309,-2087,8211
-92,-50,88,-6204,3147,-2959
5,-23,117,-395,-952,-6270
-50,-83,18,-932,650,-5804
28,-2,2,-2945,605,-6085
113,24,108,-2825,-1926,-2117
56,-20,-119,-5261,-3783,3134
-128,-72,13,68,-2886,3180
-4,-73,-2,1302,1124,-2082
6,-35,-84,2733,573,-3284
25,92,-55,1636,-442,-858
14,8,79,-243,-1187,1621
4,-68,64,1066,-779,4758
-101,-32,39,3061,-1628,8239
84,121,-24,7546,292,6677
1,14,-43,7649,2667,2992
102,29,125,3467,4037,959
16,21,42,-2408,4115,1574
-20,-68,-59,-3594,2457,2290
-30,-60,-1,1396,1261,1801
30,-2,-85,2535,-1719,-273
19,-59,50,-387,-1849,-1177
84,-23,-107,-1733,-860,-580
-9,-24,104,-1060,-188,122
-26,9,24,-222,-232,-221
20,77,-31,-2177,-242,-470
102,-33,8,2467,-1890,-7807
62,119,69,-662,406,-9253
-11,-35,28,-2578,2013,-7315
-101,118,54,887,2619,-3213
-11,-28,-124,1506,-1906,5671
90,122,-33,-2927,-1289,8111
-80,107,32,2998,-1639,9338
-57,-108,-121,-5472,4105,-1557
-46,49,13,3488,-2340,-5603
-26,50,-89,-1358,1514,-3822
-2,61,68,511,88,403
49,-42,94,-4218,4,5928
