AccX,AccY,AccZ,GyroX,GyroY,GyroZ
-24,-37,-107,-6417,84,-4772
78,-61,117,809,1098,-7878
42,70,-1,2866,-1954,-10476
37,-26,81,5436,-4719,-10805
41,112,46,-45,-271,-3764
13,-57,-98,3918,3803,-3937
-32,58,-80,5311,7493,-4012
-110,14,-42,3304,7127,-498
-112,-25,65,-1151,9910,1615
86,76,-51,-4267,4068,-3601
-46,-20,93,-3251,-14471,-1200
78,-8,-58,-481,-7003,-595
-35,-94,-61,-3500,-1382,592
-16,23,-4,-5433,-1555,2343
26,-7,120,-9135,-1175,6205
-84,29,-8,-7934,-1824,6906
-125,96,75,-1292,-5775,5292
113,113,-96,-1659,-5550,4147
-14,42,5,3376,150,1529
-83,99,33,2878,3596,2897
-31,100,26,19,-5491,6841
68,120,-24,3628,-6371,-2467
-73,76,40,-801,4753,-4558
-85,76,-105,-1775,4196,-42
30,-92,47,1248,-2871,774
-67,-16,-64,-467,239,-293
-90,-70,-105,-53,711,-420
-106,124,106,483,329,-3
-50,-88,96,-171,518,-140
-50,-71,65,-412,207,-285
-61,-81,75,32,-11,-46
-51,-41,109,-186,87,-144
-49,-48,114,-84,159,-55
-49,-35,110,-14,-9,-151
-48,-40,123,-62,269,-207
-46,-38,110,0,89,-161
-43,-27,116,-131,98,-158
-43,-37,112,64,170,-134
-36,-16,115,-253,112,-215
-37,-37,108,104,136,-176
106,40,-121,3487,577,-6324
-65,34,-6,9587,-3278,-8169
-89,13,-61,7194,-12186,-8465
1,-44,-4,762,1168,-2456
40,66,23,4843,7710,-4528
-101,-79,116,3364,6936,-2784
-67,86,-41,296,6811,985
-58,-20,51,-3341,6990,-246
118,-103,114,-3676,-5107,-4178
-121,-108,-28,-1817,-10156,-3418
13,18,-71,-3314,-6989,-1244
-48,-107,-94,-8730,-3711,949
-26,106,-19,-6621,-919,4036
-113,37,19,-1709,499,6369
-124,49,18,1026,-588,7949
19,65,41,-3898,-3046,7590
115,-6,124,27,1061,2994
101,107,-96,3126,-1310,4603
-40,24,-108,-640,-3491,3198
-12,25,32,-1875,-1221,-1204
-125,-24,-51,598,1824,-1847
45,65,89,1352,-47,-113
50,106,-117,515,-1014,825
123,-123,-85,777,466,-219
-116,106,126,-550,618,-399
127,95,83,-198,193,-198
-109,106,63,135,392,-171
-94,106,47,372,210,-105
-93,-117,72,-39,13,-33
-88,111,73,212,106,42
-81,123,80,256,-45,-60
-88,119,91,112,98,-56
-97,109,85,248,58,24
-83,-94,85,-55,41,-98
-79,-113,80,102,183,-139
-66,-112,65,105,137,-131
-76,116,68,172,134,-59
-58,-97,91,-113,197,-192
-72,121,79,195,117,21
-59,-83,81,120,120,-202
-86,-80,77,2214,-615,-9124
79,-86,119,7382,-6576,-10920
-10,2,7,2338,231,-5907
52,13,71,4347,10579,-6018
-40,-62,46,6035,4271,-4204
91,-24,-39,-2049,9682,-271
-24,-124,33,-10856,7153,-2351
-96,9,-31,-6439,-11306,-5384
82,-16,-5,-6607,-3700,-4552
-59,79,-38,-9095,-4214,-927
-102,99,-40,-254,-2666,2226
-38,-69,18,3123,-3306,4731
59,11,80,840,-3699,7468
112,-25,46,-1660,-3540,5144
75,13,-46,-689,-337,5336
-78,7,-22,87,-191,3466
-89,104,14,-3020,-248,3147
86,21,-61,-69,-2925,-116
-110,-116,-122,1714,316,-2000
81,91,111,431,2715,-1339
42,-123,50,-984,-468,271
-115,-123,70,736,277,-309
-65,-114,90,72,458,-122
-109,76,40,743,-400,206
-88,-127,70,-65,446,-551
-93,109,73,-18,-102,118
-86,-94,101,-45,-59,-138
-78,-104,102,153,343,-297
-91,120,79,134,-40,-27
-79,-128,84,134,127,-214
-73,-107,91,-98,60,19
-65,-96,83,-105,246,-237
-56,-83,86,-609,628,-224
-54,-59,85,-171,201,-167
-51,-60,81,114,14,-152
-55,-63,88,64,5,-61
-49,-68,90,82,195,-168
-51,-73,98,9,127,-102
-54,-66,108,-75,191,-205
-27,-13,97,-815,454,-549
11,79,-60,1212,2620,-7233
92,83,124,9666,-5020,-11392
-23,57,-10,-1217,-2148,-8055
113,123,57,-365,3476,-3624
-112,-121,-14,6542,7506,-5832
60,79,-115,6961,5496,-5639
-48,123,-32,2352,7369,-3292
31,-108,-10,-1852,9323,-1762
29,20,55,-3397,-7719,-440
73,-125,47,-5564,-8937,-1121
53,31,29,-7521,-6492,-780
-31,29,-4,-5290,-2684,48
-7,14,-47,-6540,-785,2108
22,1,23,-2010,-2547,6190
-3,-70,-66,3740,-1233,6942
-96,66,47,219,-1328,7367
120,-95,71,-4825,-1931,4075
102,-109,-13,-860,1584,5113
35,29,-37,-3447,-207,3691
-49,99,18,-1608,-3543,3604
-12,17,-84,387,-2008,-945
18,85,-89,2526,2256,-1918
47,77,-119,675,831,220
19,93,-128,199,-1645,542
121,-99,-90,-506,846,-409
-126,-116,81,-585,674,-510
114,56,4,736,-45,170
-115,122,41,421,5,74
-110,-128,36,40,49,-122
-117,115,38,339,-14,2
-124,116,50,561,-267,117
-122,-113,92,562,-294,-279
-99,113,92,187,547,-178
-113,111,53,19,343,-202
-82,-126,62,-289,544,-263
-90,118,49,279,188,-92
-80,-105,67,45,18,-43
-70,-102,71,84,194,-164
-77,-123,55,360,50,-123
-75,-98,78,-168,-92,11
-21,-37,-122,-3874,3521,-4216
18,-83,59,-4248,1319,-4759
102,8,-62,6867,1580,-5860
100,110,-42,9844,-5854,-9742
-23,-83,-103,-55,-350,-5471
27,127,-108,3507,5285,-5454
-93,24,-116,6959,7637,-6007
52,80,-117,4799,8526,-3701
111,23,-76,-5426,14065,-1404
-7,51,-3,-4525,-4777,-2732
-81,37,39,-944,-6104,-3167
85,94,-112,-3022,-8812,-3400
-8,-105,0,-6348,-2113,-456
-109,-21,52,-5846,-1089,-403
-118,-79,79,-3752,-2577,1527
3,-59,-47,2049,-4474,6744
-3,124,65,2981,-3606,8393
-47,53,37,299,-94,4816
-113,-83,73,-807,584,3684
-64,36,4,1316,-815,4343
88,8,73,134,449,4219
-95,80,124,-991,-3060,1925
-74,-103,50,241,-2587,-397
-125,21,57,-2,2179,-2582
66,-38,110,861,2931,-1463
52,16,93,-16,-95,25
105,36,91,-134,-478,382
-94,83,103,222,321,-232
-110,29,83,707,474,90
-94,37,73,192,330,31
-101,83,74,-213,-289,56
-103,111,104,-258,44,-188
-76,127,123,-104,95,-61
-86,122,117,214,-128,-98
-94,-101,-128,-103,205,-381
-85,126,117,-480,656,-238
-78,-96,94,-494,391,-268
-52,-92,83,-373,242,-314
-50,-97,81,-311,193,-243
-60,-95,80,-36,-13,-141
-119,-50,-1,-6455,-1022,-2543
86,-25,-53,-3990,2564,-3058
73,-109,-52,3245,4172,-4630
58,11,-13,7669,2170,-8137
-21,-47,-61,8638,-3734,-9095
-40,112,-30,2720,1425,-5016
55,107,3,6034,5857,-7198
50,-97,-57,8835,7966,-5765
74,24,71,2094,12059,-2588
-15,61,27,-18247,7599,-2746
100,-50,87,1103,-12464,-1481
-16,-39,27,-4625,-6078,-3800
-21,-97,-69,-3595,-6572,12
72,-82,101,-8462,-1137,1565
53,-75,14,-5484,-822,2906
-28,-96,113,-1536,-7768,5097
-102,81,-43,3957,-5175,6030
72,-11,-47,358,1882,2087
-71,60,41,542,1289,3499
113,-80,-65,640,-1697,2920
-71,-123,-72,-1366,157,3653
-120,-12,-106,1169,-1153,2045
85,-99,36,-1835,-2667,1401
-70,59,-63,-490,475,-1055
96,-59,-94,-188,458,-495
118,-21,115,-934,1,-693
111,-98,97,-240,660,-295
-120,-104,63,-429,1071,-315
-118,-67,6,0,-121,-69
-114,-15,45,-403,-116,-141
-112,-10,42,18,-17,21
-81,2,50,570,282,-317
-93,-34,24,778,50,-7
-71,-20,47,26,383,-236
-69,-65,44,730,353,-175
-5,-35,42,100,939,-319
-44,-49,14,457,362,-308
-107,111,62,1545,-10,91
-95,-81,81,613,-22,444
-53,17,103,63,14,-175
114,-57,-106,5553,666,-11654
-119,-61,-92,3152,-3447,-8454
-102,68,-88,2743,-242,-4336
122,-95,-15,6350,12988,-8451
-97,57,26,9561,6209,-3619
-116,52,-94,-1792,9521,-1515
-110,22,-125,-8466,-6409,-3219
126,42,-6,-7555,-7542,-3547
69,103,29,-5835,-7073,-2518
-2,-113,112,-6998,-4544,-42
17,36,-109,-6724,-1300,1072
-42,94,1,588,-3484,2899
87,97,84,4685,-3117,6048
38,111,-33,-642,-180,5188
82,-128,69,-728,-853,5562
-1,-122,53,983,835,3777
66,-43,-126,77,4016,4239
-127,-96,-95,393,-1091,6590
26,-76,70,-960,-5483,2015
120,-84,66,-2524,-1849,-3317
-59,95,-70,-1782,4925,-2957
59,-75,44,1526,980,455
71,11,32,1260,-1948,752
-105,-108,120,-796,499,-394
-106,69,72,-176,504,-462
127,24,74,481,-397,262
-123,50,108,457,99,74
-116,105,124,151,40,-61
-118,112,117,-381,135,-450
-106,116,108,-684,344,-290
-74,-118,83,-673,529,-280
-79,-110,57,11,139,-208
-73,-94,65,-45,181,-185
-78,-101,70,-209,47,-261
-60,-83,66,-70,171,-124
-66,-97,100,108,97,-158
-67,-91,101,-39,22,-89
-64,-87,101,-96,264,-172
-46,-56,84,-181,129,-190
-55,-71,80,34,161,-170
-6,121,-28,6238,-945,-7469
38,49,-15,6775,-4436,-9544
75,95,19,2493,120,-4518
-128,-14,64,7074,9202,-7334
-77,-110,-79,6407,6780,-4131
-114,58,23,458,12217,-216
43,-64,79,-12098,-4294,-3240
84,112,-65,-2067,-9497,-5118
104,100,25,-1598,-6293,-2316
78,-65,-7,-3285,-4249,332
63,-39,59,-6361,-112,1760
-14,-63,-123,-2280,-3541,4443
106,-17,23,14,-3707,6768
-67,-46,38,1574,-2577,4580
101,-108,-117,-2528,1255,8549
-42,-56,77,-127,-332,3216
-61,-95,3,-6,-1776,3404
-47,-127,-77,193,613,1036
-62,94,22,2223,-1002,-254
-122,25,7,205,409,-1811
-107,-107,-88,-675,686,-801
104,58,57,145,-35,-148
115,77,67,573,-25,311
-83,86,80,444,316,189
-76,104,89,-5,-32,-83
-68,102,104,11,130,-59
-73,111,101,378,-33,-137
-78,109,104,269,163,-303
-78,103,101,191,16,-22
-78,97,87,224,114,-194
-61,122,100,-187,215,-54
-47,-106,91,-180,183,-313
-60,120,78,30,108,-180
-56,-102,86,-698,273,-52
-46,-80,84,-104,220,-210
-37,-69,94,-244,223,-261
-46,-80,96,44,72,-116
-39,-69,98,9,59,-165
-46,-68,97,-86,48,-156
-33,-55,102,-67,191,-271
-110,117,97,956,3305,-10895
49,-67,55,7923,-3685,-7597
-66,-91,-113,6754,-5103,-12681
-72,127,-64,3040,-4376,-2112
27,33,-53,6391,3639,-5665
-47,110,71,5790,9167,-5595
-28,34,87,4003,4923,-985
93,11,5,-17959,14970,-1448
-115,46,23,876,-9258,-3550
-99,-16,-7,387,-8865,-613
50,-36,106,-2142,-3752,-2590
111,108,43,-9016,-2038,-1315
43,-126,-109,-9075,-1237,-553
-126,117,12,-5990,-5752,2604
-91,38,-77,4284,-6101,4196
16,-8,-89,3605,-2303,6775
-81,-86,-128,447,287,5009
-87,-59,45,-3864,459,4753
-38,-65,35,2656,-21,4011
58,-43,105,-625,-3340,2782
-18,-79,40,1394,-3284,-14
-106,47,-4,1769,535,-1496
84,118,-113,2019,1454,-868
66,79,93,1441,188,-13
116,82,119,623,24,9
-107,37,102,511,450,-326
-106,15,94,249,400,-490
-94,19,100,130,-60,-277
-98,24,102,-186,110,-178
-106,34,89,21,-70,-132
-97,42,101,-69,204,23
-99,31,88,93,138,251
-83,98,87,-470,5,156
-77,78,84,-222,17,219
-70,113,94,-599,112,287
-91,-125,73,-133,38,-125
-88,126,83,-45,378,17
-72,-126,59,343,426,-179
-74,112,36,296,128,-135
-62,-122,54,-347,150,-120
103,-9,-114,-726,4334,-7055
-45,76,61,3941,-99,-7891
24,43,-24,338,-7004,-7966
-72,-12,110,2451,-1302,-5706
-28,-121,-80,6243,337,-5339
-99,-63,35,6718,8379,-6959
125,-59,83,7095,8369,-5184
-20,47,100,-4958,8327,363
8,60,39,-13653,3262,-3428
37,17,-30,1227,-10044,-3179
40,-95,-71,681,-9665,-2257
-93,-123,-66,-7075,-572,392
-52,-86,-128,-8038,-1443,-1548
-59,-73,103,-3254,-1894,1041
112,56,-15,1764,-4872,4141
113,-32,65,612,-2433,4422
81,33,42,-446,-658,3440
73,115,67,-800,-1563,4525
91,-29,-122,-640,-200,3119
126,77,-69,-2200,-1623,4797
32,67,-27,-689,-1143,518
-45,-17,97,1568,1180,-2430
-48,4,-28,565,2144,-1190
125,-45,98,-602,-352,275
113,-64,102,482,-1365,994
-57,-1,-95,367,16,265
-54,-9,-108,52,360,-316
-72,-70,109,547,137,-195
-70,-64,119,133,73,-19
-75,-51,110,-162,66,-34
-69,-64,106,248,85,-84
-64,-61,109,108,14,67
-64,-56,103,117,93,-156
-54,-67,100,102,190,-106
-47,-56,94,-38,84,-171
-43,-54,101,-237,49,23
-46,-46,105,-93,-30,-101
-44,-31,118,-234,79,-91
-34,-32,125,28,133,-284
-47,-63,113,82,132,-141
-75,61,5,4404,3206,-2968
25,-87,84,3166,3275,-10172
-71,-109,-8,5550,-7001,-7171
84,-35,38,-21,-551,-8317
-74,17,119,8958,-6825,208
126,-11,-60,6222,6165,-6092
-21,-49,11,9610,10468,-7441
-65,-71,-30,2563,8224,-1580
74,-65,-113,-18978,10892,-1171
-73,53,-26,953,-9318,-4467
-90,68,64,-2625,-7433,-1720
18,125,-113,-2951,-8344,-2373
98,-86,87,-7658,-2229,-687
9,119,76,-5917,-1745,-229
-62,-125,-63,-944,-1449,3688
10,5,-41,5278,-5182,6446
-41,-105,111,3293,1030,6593
31,48,31,-1336,860,4604
-127,-113,2,738,-528,4623
-45,57,53,-1583,178,2800
-35,-120,63,-1337,1770,2753
-18,-94,-14,-1268,280,-411
-89,23,-73,1855,-938,-1527
-89,-24,-61,-484,-356,-1343
71,45,88,295,-277,103
112,98,98,-37,854,427
-82,-124,63,850,226,241
-57,-84,89,168,-194,-303
-73,-128,94,122,53,-526
-88,88,87,72,131,-182
-91,103,75,-52,51,-197
-74,-125,83,-132,75,-289
-83,109,81,97,-74,31
-81,-121,86,-209,240,6
-71,-111,91,-197,263,66
-62,-101,76,-3,270,-10
-56,-99,74,-52,214,28
-44,-62,75,-292,102,-76
-47,-54,71,120,148,-382
-53,-77,78,174,136,-36
-4,-71,-107,10027,1088,-8499
-4,-86,-4,3092,-8759,-7887
69,4,-98,-2894,-1407,-8622
23,-42,-114,7518,-3660,-1318
2,-39,-5,5219,6764,-4845
-2,-110,-111,5045,9790,-3495
79,-87,103,2204,6785,780
-121,40,-32,-10511,7393,-2870
-24,53,-79,-2114,-11147,-3708
-62,93,67,-5397,-7445,-4087
62,17,-52,-6375,-4423,-1927
-54,-35,71,-6748,-1362,466
-32,-86,-109,-1029,-4169,2115
-47,114,5,3706,-4015,5890
5,-57,99,2577,-1943,7600
-98,-122,-125,307,1061,4312
-41,-76,6,-489,2300,2531
-124,44,46,-1334,415,3283
83,83,-24,-916,947,2491
100,42,-44,-1417,-885,1698
36,98,0,-2124,-1682,1066
-23,-108,-6,-1363,-78,-177
-86,9,-81,690,458,-598
126,-71,-120,878,246,-210
-116,-68,-128,665,-153,364
-91,-93,107,947,170,-38
-74,-84,97,26,400,-266
-76,-116,81,-176,192,-255
-79,-116,80,162,-100,-95
-73,-110,81,177,152,-203
-74,-79,87,-144,-61,-105
-68,-74,98,-37,25,-105
-59,-67,95,94,229,-247
-78,-89,82,161,-42,113
-59,-49,99,-182,120,-152
-48,-43,101,-374,313,-343
-50,-62,88,138,130,-325
-53,-70,88,-72,178,-91
-47,-57,79,-74,160,-246
-45,-59,81,-118,145,-63
-35,118,83,2496,3497,-6431
26,96,-48,3441,2050,-8478
-42,61,26,7397,-5106,-9590
-80,-11,77,1777,-841,-4109
-84,-63,11,7524,2103,-5647
73,-23,-23,5929,7509,-5863
-40,77,-103,3275,8617,-2179
-103,118,105,-3830,7642,1895
-6,8,99,-5841,-4180,-6427
45,69,22,-8042,-7685,-3389
-6,8,-17,-6421,-3788,-4990
-64,-44,50,-4911,-6830,-3033
9,-33,123,-3481,-1424,415
-117,61,44,1518,-3860,3563
18,115,-42,4307,-3023,5297
-93,89,-16,1546,-2426,6680
88,114,39,2553,456,4556
21,-24,-42,-589,3172,3473
-37,-118,-64,-604,-593,4645
-13,0,125,-2892,-1240,4114
-121,-53,81,-2108,-579,657
-64,104,13,1931,596,-1821
-78,117,-64,1688,2561,-2011
107,34,79,-60,291,951
91,-91,99,-907,-1922,875
-83,-47,124,33,349,-467
-84,120,103,789,709,-611
-115,82,74,316,98,24
-106,103,78,-31,149,-302
-49,-113,-123,-1784,1755,228
-60,-108,82,-374,841,-147
-46,85,101,1599,-457,-75
-17,88,-108,220,80,-245
-75,-126,-109,-1090,-359,-160
-46,-115,-105,-502,107,-186
-43,-80,-102,-472,814,-308
-47,-55,125,-631,224,-162
-52,-32,-122,-891,-141,-151
-40,-18,-108,-217,-86,-363
-28,-20,-92,-29,358,-131
112,-118,80,7352,4303,-9445
98,-37,68,2150,-2709,-5250
-67,127,120,6832,-7662,-9483
88,-66,-63,-615,-296,-6545
-118,115,-47,10177,-2695,-1127
83,52,-109,8087,10131,-7686
49,-90,-44,3173,10899,-2259
-106,15,-127,-12121,6270,-1559
57,-108,-73,-2175,-10808,-3361
-56,-113,112,-5309,-4137,-5372
-81,120,61,-4936,-5165,-3458
99,-124,111,-7393,-3135,-1706
78,127,90,-3485,-1209,609
120,-78,12,2513,-3450,4750
-119,111,2,2266,-2567,8488
-7,-88,127,-389,-2236,7231
53,-46,27,-560,2040,2037
-101,-29,-121,-3179,396,2921
-77,-47,-121,-542,-4290,-1793
112,-58,-10,-3801,-2749,5221
15,-18,101,1048,320,-1694
-110,9,-49,2239,2755,-2638
104,-112,84,87,506,-195
71,-59,87,-652,-1704,1054
-37,-37,-101,199,704,211
-77,-33,116,156,-24,-375
-99,-13,-123,-698,266,-326
-65,-97,77,1046,498,-159
-64,-87,80,-41,-232,-204
-112,-29,106,-642,-128,-84
-102,-70,102,1047,638,66
34,107,57,1526,635,-147
-78,-52,77,-971,-762,401
-113,-52,90,-528,-182,10
-60,-90,93,416,953,-325
31,-94,41,105,-54,-366
-85,12,124,-2004,-1068,229
-118,-69,-124,1264,-68,216
-50,71,46,3707,439,722
-48,-57,76,669,-897,199
122,62,125,3232,3070,-8770
-54,-53,25,7256,-3091,-7635
105,-49,93,3858,-5749,-9629
38,108,10,857,-2403,-5684
68,73,-73,7698,1821,-3274
-32,-52,60,7464,7151,-4954
-32,-121,40,3048,9130,-2102
-105,-31,93,-7656,11495,128
12,-128,-53,-3965,-5453,-6244
67,109,10,-6401,-6439,-4038
125,-107,36,-3916,-3440,-4744
8,95,-40,-4852,-5565,-1613
109,-116,79,-8001,-1625,-1073
37,-95,-54,-2126,-3872,1183
-18,58,100,4863,-7803,5718
124,33,1,-291,-3767,6220
-68,87,106,1924,959,2997
-78,60,20,2710,-1578,4724
63,58,32,-917,-377,5787
-94,-119,-109,-454,-4757,5363
45,-103,110,982,-1889,-2469
-28,-91,10,-1108,3906,-4229
91,-109,31,2773,1718,-1136
64,-81,81,-1320,-389,5866
82,-54,71,-323,24,-1184
-101,-95,59,-175,632,-411
-121,99,56,1117,-184,-90
-120,112,86,406,174,-76
-109,-123,75,-324,242,-184
-101,-90,77,-217,-88,-486
-81,-69,96,149,153,-707
-118,71,86,967,207,-209
-95,122,66,-177,503,117
-74,108,39,-63,57,62
-56,-77,78,-730,-263,-95
-93,-53,106,-463,59,23
-75,-52,105,247,319,-198
-58,-49,93,41,378,-219
-69,-97,49,782,319,-416
-55,-106,45,-166,349,-140
107,-56,-34,4291,2717,-4150
55,64,83,-1149,1518,-7778
103,-86,-3,4597,-5973,-9071
67,-81,56,4324,-6671,-8011
72,38,125,3217,-3574,-3532
43,-125,68,4807,-755,-4524
114,-61,-40,2928,9105,-6282
7,-31,41,4894,7926,-913
-107,124,-2,-6293,8309,-96
106,-100,56,-11352,1322,-6405
111,-7,-88,-1472,-7812,-3789
10,-55,-126,-765,-7020,-2952
-98,76,81,-4371,-4655,158
78,-83,92,-4319,-3348,1380
-57,-115,-73,-3027,-1540,1293
-40,10,31,1853,-2533,3491
-8,33,-123,4210,750,4153
1,-99,100,25,1478,4118
39,72,-11,-1161,2996,5204
-115,-25,39,-784,705,4562
-43,-6,43,950,686,1757
93,46,96,-2117,-602,220
-8,46,50,-876,-28,256
-44,-37,-23,-68,-230,743
-121,-58,-126,-791,-738,596
-115,120,114,-926,-559,680
-69,115,111,-424,-254,1110
-64,-81,93,129,-3,504
-80,-60,96,-111,80,-202
-86,-104,87,14,152,-258
-90,-128,86,296,-164,55
-92,-121,100,43,-14,-94
-73,-111,115,-96,116,-172
-88,117,112,-226,111,58
-110,-98,95,-216,294,-58
-78,-93,92,-1,419,-196
-65,-88,89,-111,21,-104
-60,-81,90,36,135,-196
-52,-88,90,40,289,-289
-56,-98,77,-66,118,3
93,99,41,4763,2978,-6674
-44,-31,16,4098,-2840,-5525
56,59,-123,3320,-3837,-8784
-122,-84,81,3294,-6406,-6481
-58,-4,6,6474,-7045,-869
3,113,-71,3881,7923,-7745
31,-20,-45,2908,7564,-4334
-92,-100,71,-3958,9130,533
-35,13,-115,-11293,1334,-3720
-108,60,100,-4445,-7854,-3911
-5,94,72,-4230,-4260,-2952
107,114,19,-5889,-3389,-1012
-58,110,19,-4225,-2502,1013
104,-54,5,1486,-4935,4283
35,-43,95,2535,-3303,4944
-84,57,18,1569,-1201,7292
40,21,54,-2525,-535,3610
98,-49,-100,-1915,-800,6384
-93,-15,26,-1024,-482,4246
-45,-9,-34,-1497,-2563,1178
-117,114,-73,1372,426,-3279
-114,62,-119,3232,3502,-2240
121,-87,41,-762,1005,-562
48,-117,54,526,-2364,1383
-109,-27,-111,-285,471,218
-90,-43,123,279,526,22
-73,-23,113,305,376,-753
-92,-114,108,454,729,-446
-91,-117,78,313,457,-111
-71,-127,77,447,73,184
-55,-85,77,135,165,-289
-51,-113,68,143,249,-258
-54,-113,58,-71,122,-114
-58,-106,59,-105,46,-4
-50,-87,66,-132,86,91
-40,-62,73,-135,135,-239
-44,-86,79,22,57,8
-52,-63,91,-138,1,-68
-48,-66,96,-2,108,-103
-52,-78,95,82,95,38
-93,111,103,9219,3772,-4606
-46,120,46,8490,733,-6841
33,-81,26,6490,-4340,-9153
-46,-47,-78,1518,-472,-5928
-6,51,43,8671,-3041,-190
-60,36,51,4865,4988,-3817
-10,40,102,5164,6061,-1051
-8,65,-106,-5621,10859,-252
121,55,-39,-2732,-10099,-6265
-28,-94,-34,-5693,-5315,-1777
-1,-65,-112,-7640,-2435,-3196
-71,103,-43,-8241,-2259,-2242
76,81,-47,-4911,-3393,1062
-57,59,-21,2367,-2645,3617
28,80,-117,2203,-5429,6213
-16,-34,23,-1541,-106,2846
-94,46,-71,-272,-1009,3261
-48,56,-24,-1545,-878,3267
103,-79,88,-227,-1226,2103
83,121,-113,-524,-1022,1660
64,-124,51,482,-109,849
-76,-70,4,-385,-652,-342
-94,-20,-85,5,326,-61
113,-42,111,-196,-383,303
-127,-47,-124,-102,-232,679
-87,-20,127,790,84,1
12,-63,105,957,850,-561
-72,-105,81,556,-320,-580
-122,-115,103,-177,244,-55
-60,123,101,516,238,-68
-54,125,82,230,72,-214
-67,-114,85,-625,318,-188
-53,-126,86,-477,58,373
-36,-70,92,-365,11,76
-57,-47,94,900,-1061,23
-87,-89,67,1739,-384,-621
-31,-17,109,-1361,1065,-166
-97,-82,55,-118,-217,65
-65,-30,98,-889,588,-135
-28,-19,92,-712,508,-461
-108,-9,-113,4740,7360,-9021
67,-33,82,12371,-6860,-4815
15,75,-42,3957,-5907,-10702
78,9,22,-446,195,-3858
25,-109,5,6870,-455,-3459
-74,20,-17,3668,9015,-3975
-124,-82,104,-877,10139,-174
97,32,45,-10737,1838,-1169
-18,123,43,-1375,-9761,-5211
-53,43,71,-4946,-5859,-4160
-98,46,-78,-9256,-2813,-1027
-118,50,32,-6166,-4084,841
-86,82,23,-161,-2109,2240
33,87,78,4040,-4341,4749
-85,127,39,-700,-2073,6970
6,23,61,906,-1069,4035
11,41,-97,-1850,233,3470
31,-103,84,-2743,-1158,509
-17,-48,-7,-851,-4604,4785
-13,7,113,-593,182,-1418
-79,79,10,1148,2621,-2547
96,-80,121,803,899,-799
56,-59,105,-638,-1049,1098
-123,-25,97,155,-26,430
-77,-15,54,531,631,-489
-67,-82,48,739,560,-282
-74,-96,37,344,339,-197
-72,-105,31,-2,58,-185
-76,-97,35,-182,-126,-147
-89,-91,56,-83,-220,133
-75,-79,62,555,-24,23
-67,-38,67,-243,22,-92
-60,-57,70,-192,15,-99
-77,-53,79,-92,-51,-25
-80,-39,88,-179,195,-195
-65,-65,74,266,216,-73
-59,-55,56,138,207,-59
-40,-27,42,-295,260,-271
-65,-59,51,-43,-143,-58
-57,-26,79,-183,157,-185
66,-8,34,7732,-1845,-7764
-17,-54,98,7091,-6775,-9837
-120,44,112,-2757,-2421,-5228
23,-79,-37,4904,477,-2881
-12,96,-71,5015,5357,-3992
33,107,-38,3963,7580,-2267
93,92,-59,-1066,12751,539
-44,-73,-116,-8220,-2076,-5120
119,1,-8,-3843,-8110,-4431
-122,69,-114,-5265,-5237,-4720
-103,115,-44,-6607,-3339,-2632
15,55,-96,-3768,-3700,474
-29,47,20,977,-3371,3558
107,62,-35,4903,-4089,6465
-91,-57,-75,3028,-105,7775
78,-84,45,-2188,767,4515
-123,-89,40,-1590,-907,3318
-18,22,-121,-1330,-808,3149
97,22,32,-1583,-252,2121
29,85,-17,-2075,-1002,1105
-37,112,-22,-1107,95,-206
-109,-88,-97,1209,1285,-655
110,-116,-106,1385,339,235
-114,-113,-95,937,1173,-97
-62,-111,-114,331,701,474
-64,-98,105,-6,-214,-56
-54,-90,-126,-720,-29,-309
-64,-121,105,-55,95,-200
-46,-107,105,-28,481,-215
-53,114,91,347,1,-57
-56,-109,119,-22,-108,94
-56,-105,-126,51,74,-132
-47,-84,-127,-19,149,-327
-52,-121,125,113,84,-65
-56,-107,113,176,44,-30
-41,-80,122,-147,107,-159
-47,-82,118,-226,-26,-88
-44,-56,126,-172,106,-209
-38,0,-126,-643,-83,-706
-93,-17,44,4661,7444,-10319
116,77,126,6549,-4244,-4905
92,-115,-26,5936,-5053,-8535
83,-126,48,5051,-7348,-6447
107,1,-15,4068,-2096,-1578
70,-53,125,4422,2878,-2767
-16,-9,-96,2691,10523,-6462
-79,-64,-39,-3931,8759,-921
-94,-100,78,-7042,-8795,-5580
-47,61,-14,-6489,-5088,-4367
62,-95,-103,-5947,-5374,-3211
-1,104,-30,-7875,-2965,-1308
87,30,-105,-151,-3442,2364
-48,27,-23,4038,-4204,4019
-3,109,-5,430,-2962,6909
-114,-96,-77,-1509,-1486,6193
-96,-123,-40,-1884,-316,4284
1,127,-14,-234,-2771,5781
51,-46,88,-4864,-998,2443
-60,-83,-23,699,-792,-2413
121,14,0,2167,2522,-806
74,-14,101,647,-40,-30
125,-66,107,232,-392,305
-97,-93,100,567,534,26
-118,-89,84,557,13,-607
-85,-96,101,-184,396,180
-90,-73,76,491,-70,14
-85,-73,89,274,136,-136
-85,-79,86,-17,227,42
-74,-64,87,-170,9,65
-70,-57,94,70,247,-127
-74,-54,92,142,30,-81
-66,-74,99,526,81,-34
-72,-80,95,-52,66,-65
-63,-60,108,-100,179,-171
-59,-60,107,-475,485,-229
-52,-45,92,-233,244,-180
-42,-34,93,214,327,-230
-41,-45,101,164,82,-89
-42,-36,98,-2,106,-180
-40,-47,100,29,128,-129
30,-10,67,8662,-3762,-4375
18,-27,117,3350,-9899,-3441
49,-59,-125,1740,-9214,-4321
100,85,113,1997,-7129,-2254
-34,58,112,-4212,1220,-1951
-82,1,-51,6173,3555,-1997
96,25,-97,4313,857,-3475
69,-28,96,2784,5571,-2483
-120,-95,8,-4945,-2228,2146
103,-31,46,-5033,-2647,1667
47,-96,-36,-4283,-576,942
-128,-118,-112,-4654,-730,951
-3,28,70,-6447,1272,1112
37,106,-74,-8692,3244,1242
-105,122,-112,-3072,105,3315
7,43,-120,-1075,-1107,3360
-23,88,-56,-26,-257,3794
-120,117,-25,3,-1362,4131
-13,-52,8,-866,-314,2580
-84,-104,-42,1797,-753,3137
-104,54,-93,1405,-964,3005
126,28,122,823,-142,2190
41,42,115,-475,-7,1359
-53,2,88,15,-487,-313
-57,-77,106,492,291,-492
-94,64,76,1268,-116,-320
-86,89,81,-117,-34,-354
-86,55,70,-247,120,-353
-74,17,76,163,-145,-95
-71,40,63,-191,176,-268
-63,35,63,-42,-170,95
-61,59,62,-251,16,-17
-54,90,64,-455,-89,104
-51,113,59,-149,-59,13
-50,-127,66,28,-65,-71
-46,-127,64,-227,109,-15
-40,-124,61,-107,-73,17
-14,-95,83,-625,414,313
56,13,120,-1315,666,-2256
-11,45,-17,4471,-2261,-7188
99,101,1,3830,-14797,-6955
-29,13,-37,-466,-8967,-4370
55,36,-112,-1543,1548,-2865
41,31,-29,6116,1742,-2816
-83,98,-118,707,4855,-3530
30,-90,8,1981,6893,-1258
-49,-87,-42,-3938,-5612,1301
48,25,-96,-5069,3454,1482
-89,66,56,-1537,-2807,720
45,109,100,-923,-1566,1508
-94,81,127,-5270,1655,339
-81,-119,-9,-7014,3408,470
119,-44,57,-4088,1751,562
112,104,-35,-2500,1211,2880
-67,116,88,-791,-473,3382
78,98,-105,-2130,767,3447
-121,-4,-5,-1782,-146,3288
-86,66,-43,-1337,-655,2334
120,-99,-36,-168,-1005,2399
89,53,-54,11,-945,2282
51,-35,-50,90,-481,2080
30,-111,-112,976,-723,1976
-1,-84,-111,1,-618,1397
-60,-84,-101,-977,10,467
-94,98,-115,466,-450,394
-96,-117,-119,275,-36,-364
-106,45,119,610,-36,-316
-104,49,117,-29,70,-66
-110,48,93,-204,30,-227
-98,21,93,200,82,-106
-83,52,77,-267,52,20
-82,63,65,-97,-103,-100
-72,58,78,105,11,-50
-71,81,67,-168,-42,-97
-64,99,78,-334,-60,-71
-50,123,79,-152,-24,-253
-26,-58,87,-826,-140,-485
17,23,104,-1120,40,-903
29,98,8,264,-307,-3880
106,-83,9,5001,1360,-5244
91,-77,-82,12985,-18898,-5140
40,24,-38,505,-12542,-1401
40,-25,15,-6052,3677,-2749
111,23,111,212,6049,-3582
-102,86,-1,8164,-930,-3144
91,69,-12,1177,634,-2232
-60,-31,-81,-4268,2337,1007
-85,126,122,-2680,-5691,1455
-90,65,-46,-8299,2885,-1166
35,42,-33,-8704,559,-816
110,-1,90,-9975,1118,-307
-107,29,91,-8884,1127,-510
41,-21,-91,-3562,-1504,297
69,-75,96,1228,-4139,2529
-84,31,-97,893,-2103,2441
-14,74,-76,305,-2645,3016
45,30,-75,373,-957,2784
88,32,-96,175,-2660,2851
73,-111,111,1195,-983,2300
41,62,9,1342,-1190,2117
-10,12,-48,907,-1051,1717
-56,-74,-30,892,-819,1786
-89,-46,-34,481,-726,1124
-122,-61,-61,-353,-55,111
111,-128,-90,13,-22,37
105,102,126,-171,283,-94
104,63,105,1010,-10,-82
123,49,111,618,255,-40
-124,56,77,-290,308,-270
-112,41,74,-209,24,-120
-106,51,74,-208,103,-101
-100,67,76,-229,-95,6
-98,99,75,-364,25,-195
-84,113,92,-439,-18,-73
-67,-100,97,-522,16,-311
0,59,-122,-1138,-36,-534
-53,120,44,-649,1270,-4053
-122,-105,-44,9070,-737,-4163
95,73,-22,10118,-9738,-6404
116,100,34,-648,-3927,-4619
-80,91,59,7248,476,-3255
77,-105,-62,2306,-1230,-77
72,124,-64,-10883,1606,2167
6,63,-82,-6648,-1754,-43
-33,14,-94,-4580,313,1115
33,-125,124,-5193,-792,194
89,81,-65,-6972,2010,954
41,-24,39,-7542,3290,848
56,-44,-91,-277,-2432,2649
-49,-27,22,-1126,-858,3149
5,45,-46,-1263,-430,2579
112,-10,111,-333,-2062,3356
110,-74,41,57,-254,2479
94,-119,-2,330,-1084,2325
73,-4,-28,919,-912,2254
39,-44,-77,782,-906,1988
-26,-92,-89,721,-341,1528
-37,114,-81,-284,-149,1400
-87,-62,-116,-1093,-344,493
-99,-46,-98,-317,-206,-238
-121,79,-121,971,240,-548
-122,63,111,449,-37,-406
-119,51,105,-153,168,-434
-99,15,83,2,9,-144
-94,26,73,108,13,-338
-78,44,76,-330,101,-128
-89,24,70,62,-128,204
-76,89,88,-100,35,-176
-73,80,82,-213,-105,232
-67,101,75,-107,-48,-5
-63,120,81,-237,35,-123
-63,112,71,-114,11,-16
-63,125,72,4,-111,-61
-35,-83,90,-506,-154,-69
-96,109,-43,-828,337,-2255
41,-101,-16,9255,-1679,-5240
77,27,79,11904,-13323,-4725
-65,-109,-32,6323,-14988,-2991
125,30,54,-6454,2420,-1837
10,-65,-81,3936,4028,-2635
121,63,83,-7808,2578,3097
-45,-88,-4,-7537,4097,165
-33,-11,115,-773,-3325,1751
87,-54,127,462,-4498,-159
39,-45,55,-7977,3735,645
80,26,-97,-7068,5696,-376
-4,29,16,-3961,196,2113
-100,-29,-71,-1106,-280,3008
-41,87,-95,574,-354,3485
-103,47,-12,-2010,-496,3952
118,-110,-19,1353,-852,2732
-27,55,7,-3003,-194,1721
79,-44,-70,991,-553,2168
50,-85,-30,1215,-597,2179
22,-128,-92,840,-61,1729
-13,87,-115,-325,-133,1556
-38,-115,-101,-1224,-230,1235
-87,-117,110,-26,-883,-58
-96,114,-113,549,-265,-586
-106,30,-123,575,366,-584
-113,-1,96,417,0,-410
-103,0,98,-260,233,-185
-96,-17,85,-204,-45,41
-82,31,74,-306,-97,-156
-76,34,88,-199,-34,27
-85,31,71,97,-76,-20
-68,75,78,-292,-87,-59
-63,79,73,-244,33,-102
-65,84,68,-57,-115,-58
17,22,91,-956,-80,-223
-111,23,-121,1324,-123,-4683
88,-24,-67,2851,309,-3518
110,99,-26,7436,-7384,-4280
13,-23,-27,5000,-6171,-3569
-128,-77,-11,7058,-10982,-122
73,-63,-68,-3747,242,-2291
102,-23,81,-246,2872,-2520
-63,-121,-1,5999,3788,-5385
3,96,-10,2868,-10964,118
94,-111,100,-8009,6156,2037
99,-70,36,-6464,2946,-1264
-93,-80,-79,-2385,-2076,1437
71,37,97,-4027,-1577,507
80,108,125,-6801,3497,972
106,-40,-51,-3019,960,35
-102,-65,-117,-2639,-954,2505
-100,-63,-101,-706,356,3016
28,-67,-46,-1745,933,2513
-123,-79,-110,-78,-731,3726
-105,-51,-48,-490,-1234,3201
123,120,-31,-423,-27,2221
116,27,-56,-405,-452,2124
60,-66,-108,1253,-536,1952
-5,111,-99,755,-407,1812
-35,70,-119,705,-52,1573
-50,96,-113,-346,-96,1305
-78,-105,126,58,-481,335
-105,115,-119,329,-3,-784
-109,1,-125,808,256,-575
-124,-37,106,512,-198,-369
-103,-25,107,-386,72,-299
-97,-56,101,-128,-2,-72
-93,-34,92,172,-42,-152
-77,-8,94,-227,-13,-69
-82,-15,80,-183,-17,38
-79,35,83,-193,-202,56
-72,56,82,-227,64,-16
-64,72,70,-249,19,-190
-51,93,65,-318,-112,-89
30,-1,72,-338,-64,-325
-58,-91,-114,6912,-5762,-5055
-17,28,43,4727,-1980,-3905
127,-37,28,6756,-8803,-4466
92,64,114,3374,-9758,-2012
63,-80,87,882,-2945,-1695
-41,0,32,-1651,3503,-1894
-37,96,104,8331,1060,-2269
-9,-31,43,-585,-2483,-25
50,-48,0,-6202,1350,1479
93,-27,-33,-5231,1514,-210
-4,-115,-48,-7500,4107,580
38,63,-86,-7431,3150,796
-114,93,36,-735,-1858,2414
-77,-49,122,2301,-1543,3064
69,57,12,-4593,1622,2294
69,-124,106,559,-193,3529
-107,-123,-61,1185,-1802,3655
-84,-95,-56,-1676,181,2568
120,-42,117,575,-233,2446
100,-81,-94,1237,-1442,2559
24,-86,-82,360,-110,1981
-24,-28,-113,-1095,-239,831
-80,-30,-119,-457,-457,97
-118,115,120,650,215,-711
-111,71,101,653,-59,-546
-118,47,85,197,259,-741
-92,-12,85,-174,246,-264
-101,-17,60,41,-206,-296
-71,30,71,-357,140,-250
-72,9,67,-82,228,-147
-73,52,45,-98,-249,-128
-64,67,55,-625,89,41
-62,76,43,-119,-92,-13
-51,119,57,-442,-103,-124
-38,-113,59,-529,85,-148
59,-103,118,-1132,-157,-1604
-24,-42,-11,4905,-1482,-4084
60,-103,46,6308,-6176,-2297
11,-65,-69,6060,-4945,-4319
-91,30,-38,6891,-8083,-1507
51,25,-64,5675,-9772,520
-38,121,122,-5794,-562,-988
70,31,79,-3856,4697,-3117
52,5,90,6842,568,-4198
75,-124,-38,2635,-4348,1057
101,-71,-45,-7676,2408,2320
125,19,125,-10642,4407,1342
112,60,127,-634,-2464,466
1,46,88,-990,-2462,422
-23,124,97,-4323,462,204
-22,30,-3,-7479,4176,475
90,-104,3,-5875,1987,996
77,-50,77,-2341,-211,2446
-2,13,-19,-832,-846,3551
28,-5,11,1254,120,2738
104,-19,2,506,-491,2987
-105,-79,-39,234,142,2923
62,76,-71,1115,-1039,2121
80,34,1,-1307,165,1848
11,78,117,1266,306,1947
10,72,-122,1139,-989,2141
7,42,-76,-246,176,1886
-13,99,-81,-1167,-164,1160
-65,-119,-82,-711,-616,431
-105,81,-90,258,49,-309
-122,4,-118,1081,-140,-281
-117,8,125,291,-7,-409
-115,-47,123,163,-98,5
-128,-13,119,-300,-151,-129
-97,-18,104,12,-21,-66
-93,-16,112,35,-14,70
-88,11,99,-51,-52,-77
-96,19,107,-292,-67,-9
-86,28,85,229,163,-180
-83,17,94,-304,-109,185
-81,57,84,-191,-58,113
-68,70,70,322,-53,-219
-78,13,71,1014,-338,204
-41,96,79,2551,-830,-137
60,7,4,6886,-3456,-2360
121,-72,-87,-471,-1533,-6200
-70,46,-107,5348,-10444,-3004
-44,-40,39,4283,-7225,-1390
-99,-115,-101,-5976,-1653,-2499
-58,-70,-47,1725,-2470,-448
24,121,119,3670,3889,-3603
39,-21,-98,958,994,-877
-6,-55,25,-5549,789,1915
-88,-74,49,-4914,2135,-91
-36,105,-86,-2858,-2588,482
-35,39,-19,-7647,3020,5
73,-111,-17,-5544,1286,1730
46,-87,81,-2942,520,2540
-83,-80,-57,271,-2018,3869
18,-38,0,1276,-1024,3460
-123,-62,38,-709,433,3069
-101,-97,-69,33,-564,2735
-124,13,-59,699,-771,2799
-122,12,-55,-304,-389,2366
48,104,-113,1030,-324,2212
7,106,-41,278,-516,2190
-57,-78,-115,-651,-288,1118
-77,-73,113,-300,-530,-56
-81,99,108,481,50,-803
108,-32,121,673,-27,-338
118,-1,114,-390,-74,-99
124,-18,98,-377,182,-89
-103,-12,92,-34,42,-3
-105,0,70,-50,-7,84
-113,45,65,-302,-66,-198
-93,2,66,88,108,120
-90,62,51,-319,1,-215
-84,53,61,-76,-46,-67
-80,59,53,-89,27,-56
-68,94,56,-106,-118,-209
-43,121,62,-335,87,-297
118,-73,96,-194,-291,-2127
-4,113,49,9799,663,-7282
108,-39,-43,10981,-14931,-2147
101,5,30,2397,-12103,-2226
-86,-110,-66,983,-3186,-2436
-60,10,95,-3899,497,-2320
-54,63,30,4404,301,-1002
-96,30,96,1786,1496,-3002
-112,-27,-101,1053,-4815,718
-98,-93,-79,-6618,2494,2419
64,114,114,-5358,2251,-247
73,18,15,-3330,-1502,1547
-29,-50,-43,-4749,-153,912
-16,-35,-68,-6649,3765,512
-24,97,34,10155,-4123,-6086
-121,-36,77,7265,-12903,-4242
13,30,97,197,-9217,-816
-27,102,4,-6247,4869,-2467
23,103,-45,6013,989,-2552
-122,-63,4,6171,2134,-3514
12,127,-31,-6397,68,521
52,-20,-23,-9660,3404,3003
-29,54,-100,166,-3419,-305
12,-94,104,-266,-4056,1816
60,-35,99,-1528,916,852
-82,-46,43,-6344,2882,-42
-27,103,-31,-2738,1928,185
-43,67,-19,-2080,372,1478
81,46,-3,-1655,1131,1756
0,-53,23,-2042,2608,3074
-6,-22,-111,-4098,1400,1872
125,-46,-103,-2770,-183,2875
-111,-89,67,-3591,-263,3652
-23,-47,118,21,-1444,1801
-108,46,58,168,-748,1731
52,-8,-9,-405,-471,1339
21,-97,-66,638,-964,1467
8,119,-76,526,-760,1557
-14,113,-67,-44,-279,1179
-22,-83,-77,-206,-578,450
-45,-77,-84,-48,-132,-540
-62,64,-104,758,519,-656
-88,41,115,333,-276,-203
-85,31,108,-250,-160,-220
-60,21,118,136,44,-51
-59,54,101,-359,-101,-45
-55,63,98,-283,-9,-88
-53,81,108,-60,-62,40
-44,107,97,-258,-101,-38
-41,121,99,-196,18,-210
-35,125,100,-14,-44,-72
6,-42,102,-456,-173,-272
-57,111,-67,-597,-166,-2973
-113,-41,61,574,6125,-6399
41,-28,71,16183,-11986,-1145
-101,-32,111,5219,-9318,-5427
77,-36,-11,-2874,-6448,-1019
86,97,111,-1780,4316,-1214
8,-85,6,4592,-111,-1813
-65,-98,-7,7342,-2137,-5130
-15,49,-20,-5399,2465,1727
123,-121,-99,-7723,5234,703
-48,28,51,186,-4704,282
-38,33,-87,-4801,-314,276
96,-70,-6,-3844,845,852
47,-22,-55,-4925,1482,-25
47,-2,-28,-1287,-1716,-508
56,-87,75,-4210,1482,1734
38,-99,-128,-2944,1584,2406
-49,-51,-124,-260,-1330,3230
18,-15,2,-893,449,3021
-112,6,-34,-1183,-645,2867
108,-91,30,15,-610,2734
113,85,-18,155,-346,2162
96,-43,-62,1032,-613,2490
57,-50,-71,172,-697,2112
5,93,-76,114,20,1824
7,72,-72,-533,-290,2014
-14,-120,-85,35,-519,1078
-73,-102,-73,139,-214,-99
-106,70,-98,716,246,-457
-120,-14,-120,593,48,-55
-117,11,115,50,-236,-103
-94,11,125,-92,190,-349
-96,-22,105,-128,-140,15
-99,11,103,-166,-115,-171
-86,21,114,-251,6,-80
-75,33,98,-8,-71,-104
-65,68,101,-423,24,-289
-66,66,98,-293,-168,-58
-43,-101,97,-331,-49,-598
26,-19,120,426,414,-1048
-26,62,-76,1058,-1452,-3528
-8,-45,-46,10003,-5746,-5184
111,63,-47,2797,-6707,-4454
32,12,-125,1219,-6309,-2465
50,78,-107,3049,-2984,-1886
-16,72,-94,-1109,1479,-2112
4,106,-39,5810,3212,-2320
64,-12,104,1760,-2773,-1330
-126,89,114,-8029,2414,2533
-101,-79,14,-4564,2550,-381
-50,-80,84,-2419,-1904,1194
102,21,-14,-936,-3208,225
33,106,-31,-2633,1824,434
-94,-59,43,-2896,1426,38
66,78,44,-4113,1894,337
-5,12,-79,-3238,1981,1552
121,-103,37,-3532,1286,2180
-48,-90,78,-1461,635,2556
-3,-125,-90,-1674,-85,3033
72,81,-72,-883,-247,2956
-90,120,25,-1100,-115,2743
-110,1,-26,306,-646,2433
-117,-30,-40,247,-776,2377
60,-95,-25,595,-324,1713
9,113,-64,352,-333,1498
-28,69,-85,365,-265,1549
-44,-118,-93,-558,-140,576
-76,124,-113,-144,-146,-139
-96,35,-124,736,-34,-397
-104,-10,120,283,-40,-187
-119,-26,121,101,-82,-42
-101,-27,114,49,-21,-73
-86,-15,105,-234,-181,23
-89,-9,114,-105,7,52
-81,29,102,-128,-86,-152
-80,24,105,-61,-6,-46
-74,34,91,-69,24,-65
-73,33,88,-64,-124,19
-67,54,82,-87,47,-22
-64,61,73,10,-115,-90
-38,110,75,-475,-35,-83
49,50,84,-997,123,-1312
-113,18,-125,6303,-2103,-3827
-75,-20,75,8750,-7899,-5184
-104,64,0,8659,-7329,-3008
-54,58,58,-1078,-6863,-1785
15,97,-100,-3604,2630,-402
81,-40,125,2781,2506,-2203
46,67,14,2619,1223,-2433
-54,-16,-57,-1284,1593,365
-123,-97,-24,-5849,-2414,2034
-66,-103,119,-4274,1917,-180
80,-79,-56,-1251,-1297,1478
65,123,35,-4340,275,1174
36,-87,-14,-6595,4463,1153
67,32,-38,-4798,2745,1430
-50,-104,59,-1382,-924,2880
55,-88,96,1732,-1171,3527
69,38,-49,-2648,1263,2513
-119,-46,-66,-1969,-141,3029
114,119,-79,816,-1141,2532
120,-9,-28,-370,-530,2393
96,-43,-85,-633,111,2043
67,58,-112,1115,-832,2369
30,-48,-95,-381,-833,1523
-34,-18,-103,-1232,-373,229
-100,115,-109,1093,-168,-616
-111,65,-114,825,-49,-436
-106,41,127,-103,251,-391
-99,9,106,-56,109,-293
-99,11,102,-35,215,-325
-63,-17,70,223,122,-203
-83,3,73,-120,-25,6
-73,29,69,-315,-28,120
-64,41,66,153,-1,11
-58,69,63,-255,-73,126
-59,91,72,-98,-58,-10
-52,87,69,-90,-21,-41
-50,104,59,85,-153,19
-53,91,66,865,-731,-107
-30,-96,97,-518,341,-623
35,-46,84,1323,254,-707
-74,-40,41,4155,-3802,-3598
-73,68,113,5623,632,-4472
-18,-96,-89,321,-6589,-3239
79,-41,46,7906,-11411,-252
-116,-17,28,-5202,-881,-2440
87,-5,-79,-422,1014,-1327
-76,117,-99,3766,5028,-3588
-23,6,-111,-2075,-8821,1840
117,-10,29,-6125,7089,334
-107,93,-57,2273,-4798,566
-29,-11,14,60,-6157,1896
55,-25,-23,-5817,3841,952
-8,108,-88,-6718,5403,-1007
-10,83,10,-4215,458,184
108,-122,48,-2663,457,1512
115,94,16,1856,-1012,1547
28,83,-45,-4491,1784,2617
33,-72,-80,-1247,205,2466
64,-71,-3,-1492,-618,2908
-113,119,4,-4,-270,2739
-88,10,-17,1104,-1172,3310
-104,32,-12,72,-617,2399
104,-118,-72,2570,-668,2879
47,85,-48,2789,-1053,2493
-40,-51,-84,-871,-136,435
-116,64,125,-652,470,-453
-114,-22,-113,681,-435,-124
-123,-35,-113,-101,-49,-151
-128,-40,-103,-407,-127,-77
-118,-46,-109,-375,110,-237
-112,-32,121,-22,-201,-196
-103,-41,124,-177,100,-93
-97,-15,96,-22,-31,-123
-110,-36,91,855,-672,179
-80,42,104,-1038,399,-261
-79,12,69,-19,56,-219
-69,53,81,136,-22,-448
-51,61,86,-276,615,-658
-69,15,78,52,-289,-215
-57,45,83,-675,140,44
-42,-14,82,-1231,4301,-7385
-28,-27,2,10598,-6654,-3469
-3,-111,47,5529,-7719,-3238
37,13,-93,2162,-5685,-1517
-87,87,89,2551,-1121,-1502
45,-15,-33,7210,2658,-1038
-59,-35,83,-4886,2493,-1316
-7,47,-88,-1746,-4234,-67
-27,-2,-68,-4522,-2014,2143
69,20,16,-3975,2333,-76
-37,-51,26,1085,-2802,1046
-41,-113,41,-2992,464,897
119,-82,104,-5898,3179,348
-11,35,119,-5430,2517,653
-92,-77,21,-3881,535,2032
-82,69,-122,-4034,1421,3405
-46,42,76,-1882,1854,2166
92,-8,-121,837,-2065,3562
99,30,-73,1311,-3247,2677
110,46,31,-3857,979,1191
48,76,-56,-1776,148,1629
14,31,-101,-235,-1543,1775
72,-55,-64,1038,-1048,1956
45,-65,-115,1453,-1298,1837
-5,-26,-85,162,-765,934
-32,-34,-87,-230,-394,403
-61,-39,-97,457,-73,-52
-86,-101,123,472,148,-606
-102,92,96,557,303,-499
-93,64,80,129,84,-89
-78,85,69,-259,103,71
-67,60,63,556,-49,-149
-50,96,64,-285,291,-209
-59,74,43,-97,-108,-52
-57,83,54,-183,12,-1
-52,115,59,-127,-179,83
-52,115,57,-108,-134,-43
-47,-121,66,-63,-61,-126
-37,-107,72,-197,-28,-105
-18,-64,80,383,281,-916
-119,-54,70,6775,-3567,-6361
-42,-114,-54,7123,-8097,-4945
-36,-41,-87,2904,-6027,-268
67,71,58,-1801,-1434,-1245
-108,73,-13,2359,3015,-1006
16,102,-39,2974,6313,-1833
20,-50,6,193,-5303,1474
-21,45,96,-5112,959,528
-62,-103,-93,-3517,821,-515
-78,-62,122,-1177,-1486,377
94,-32,41,-781,-1579,683
32,123,-45,-5314,2725,922
66,-3,124,-6272,3213,110
-116,74,-63,-2585,743,1971
109,-47,57,-481,-312,2172
6,36,69,-3483,-161,3451
19,54,-104,-2077,666,1909
44,-63,-27,-1166,-1263,2715
74,112,6,-367,-933,2651
92,54,9,989,-769,2417
99,-31,-43,737,-373,2476
84,-85,-61,501,-618,2222
22,-112,-87,133,-719,1800
-8,126,-82,-164,-317,1363
-64,-113,-115,-326,-220,642
-94,114,114,94,-218,193
-94,117,109,-353,-8,-145
-116,57,102,239,241,-399
-102,8,78,837,41,-387
-101,0,83,-33,192,-544
-88,-17,66,-312,29,-47
-88,-6,69,52,-217,-50
-76,27,75,-305,58,-69
-75,39,65,-122,-156,95
-76,56,69,-98,91,-30
-60,87,64,-249,-83,-48
-61,86,63,-161,-41,-68
-60,90,60,114,-34,-65
-45,-126,54,-258,28,-160
4,-110,50,847,194,-471
48,105,-19,3359,2354,-4905
-38,86,78,9295,-8604,-4109
8,3,-77,3201,-5768,-3720
38,-9,21,1603,-3907,-666
-111,117,62,158,-473,-1771
5,-71,41,5152,-976,-2443
-46,60,-61,2149,6088,-4547
68,-123,-11,-3450,-5842,3687
-105,59,4,-5120,4645,-285
-65,57,16,-2507,-2292,-157
-54,52,87,-3859,-1071,250
53,103,-33,-4038,66,178
108,-15,-51,-5505,3078,214
21,115,61,-3544,614,1224
124,-54,91,-1488,-20,2059
-88,-42,-7,-4123,736,3884
12,-38,-41,-317,229,2682
-49,-37,-29,-371,-39,3036
-93,-41,-15,-798,-757,2889
-103,96,-50,195,-627,2532
-121,43,-45,-9,-827,2184
78,-63,-68,713,-744,2011
36,98,-111,1294,-699,1943
-2,122,-92,-168,-863,1395
-35,-101,-79,-1025,-470,552
-87,110,-87,263,-139,-214
-110,76,-96,513,46,-320
-114,27,-127,312,-203,-118
-110,26,-127,-152,-10,-95
-102,20,112,150,70,-291
-84,-10,93,94,189,-374
-83,-13,81,-178,150,-152
-89,9,72,-250,-17,98
-73,37,62,-47,-2,-22
-63,67,64,-269,8,-3
-65,61,65,-207,-101,57
-67,73,66,17,-44,-82
-55,93,69,-221,9,-120
-60,79,66,-81,-122,98
-53,103,67,-248,-39,-107
86,123,-43,9601,-5984,-5071
-102,-63,115,6595,-12154,-4007
-95,-124,17,428,-4923,-1607
7,-65,-74,-3549,2195,-2639
58,21,32,6400,5652,-769
119,105,-98,-256,-2190,913
-65,41,70,-7208,2340,1320
78,65,-13,-7602,3188,19
47,75,41,2739,-6413,1005
100,11,41,-3022,823,-133
-26,26,-56,-6295,3482,667
14,-9,-79,-4061,244,23
53,110,1,-2555,646,1365
14,70,19,242,277,2498
-85,-30,39,-44,-39,3261
21,111,105,-2856,1230,1937
64,92,92,-238,52,3199
26,-118,-89,671,-888,3363
-121,-24,-61,966,67,3173
-3,-79,-113,490,117,3076
-70,-119,-110,-371,-537,2897
56,-26,-85,-1013,-458,1641
-28,-31,-119,-951,81,448
-84,-98,103,337,-101,-269
-108,73,97,1279,93,-483
-86,33,101,583,-3,-350
-111,26,97,-413,103,-269
-91,7,96,23,-119,-266
-69,-7,92,-123,90,-306
-71,-5,89,-199,-56,-163
-82,-2,83,-293,130,-195
-72,23,76,-212,-104,53
-61,46,65,-271,129,-67
-49,72,59,-59,-104,79
-58,77,55,-183,26,9
-48,100,59,-90,-84,-20
-50,102,57,-194,-72,-9
-43,104,59,-31,40,-97
-46,111,59,-105,-153,-56
-43,100,68,55,55,27
-110,72,-23,4118,-3487,-3439
-115,87,59,2634,-394,-5331
7,91,-56,4102,-5827,-5736
-85,-113,-109,4405,-7632,-3467
57,97,68,-1979,-815,-2590
-111,-3,-37,4008,-224,-1547
-35,-74,111,4997,2917,-1954
-106,-47,116,1565,3283,-2759
93,120,-14,-4137,-3075,1801
-27,-71,106,-5710,262,1531
-26,-61,-48,-2513,-1903,1325
4,36,-38,-4300,-970,480
121,-73,40,-6713,2301,375
-65,-1,-56,-5367,2673,1742
6,-68,41,-2412,-618,2754
43,126,119,-317,-827,3294
69,118,9,-3181,1114,3029
-44,81,3,1550,-1943,2929
-109,-104,24,648,-693,3137
-94,52,-45,-51,65,2761
-76,-65,-118,1625,-682,3070
-121,12,-87,-767,-1039,2354
3,80,-113,-1075,-1055,686
-51,-41,-128,690,90,-822
-84,73,108,1006,415,-686
-85,65,81,-86,116,-193
-88,55,76,-269,-152,-40
-63,52,73,-199,18,-247
-57,52,63,-56,-33,-236
-74,55,73,-378,11,-16
-63,66,58,3,54,-120
-44,65,58,-241,-9,9
-46,82,50,-274,-57,116
-52,110,61,-166,54,-9
-49,118,56,-229,8,147
-16,-106,44,-7,41,-186
-20,-94,69,-362,-118,-165
22,23,114,779,898,-1294
-90,-67,-69,6014,264,-4292
-77,-39,-5,8104,-3970,-3934
20,68,99,3560,-6854,-1959
43,118,-5,120,-1009,-1522
-49,117,-18,6519,835,-1345
-107,43,-2,3416,-1633,-4344
101,43,1,-11010,4176,5226
-98,-46,82,-7491,8072,629
-30,67,26,4783,-6171,187
84,-25,67,695,-3494,2916
-118,28,-11,-2436,88,-836
0,1,-116,-8173,4046,36
-18,-71,118,-5060,2570,1466
119,33,31,-2030,2569,1310
14,9,62,-3029,171,2546
1,5,-123,-2192,812,2145
89,-83,102,-39,163,2475
-116,-88,-43,-565,-1083,3394
-94,118,-14,44,-89,2324
-83,-57,-79,9,-304,3235
-93,-85,-37,88,-945,3213
-126,7,-45,-687,-410,1626
-5,17,-84,-216,-490,194
-50,-75,-72,738,-335,-467
-97,74,-97,971,-110,-372
-84,35,-90,332,-27,-121
-54,19,-128,-413,125,-269
-67,-7,118,-198,-42,-270
-54,-2,107,-489,114,-29
-52,15,83,175,-206,195
-50,56,94,-231,89,-37
-44,88,95,-450,-77,85
-47,65,75,491,-52,-136
-38,62,91,-238,9,118
-59,96,83,-527,-105,105
-44,127,79,134,7,-225
0,104,67,-78,15,-229
-32,-118,88,527,-252,-301
-42,-108,-126,150,460,-721
11,93,83,-17,218,-311
87,66,-113,-1757,-221,-637
-35,-111,2,4487,-3613,-4532
118,-10,12,8185,-4009,-3513
70,-64,-21,7832,-6163,-3266
127,37,117,7126,-7667,-875
-106,43,-101,262,-6138,645
120,-51,-5,-6173,310,-1992
27,81,-12,-855,4092,-2361
-95,110,-13,6839,36,-2782
2,82,39,-3503,-3207,1949
124,21,-67,-6958,5668,883
-74,-111,-57,-2260,-2135,188
-95,-63,53,-2036,-2556,989
87,8,-89,-3424,2116,1480
35,-64,-47,-3754,1332,373
97,81,30,-4502,1773,1357
95,25,-35,-2416,1689,2827
-37,-59,62,-1488,613,3552
48,12,119,-1988,308,2793
-122,-23,-73,-2371,475,2857
-70,0,-72,1352,-1177,3727
-5,-11,-43,1400,-837,3414
-61,-38,-58,22,-427,2822
98,64,-73,-1120,-844,1402
-52,-21,-95,473,-357,-34
-83,119,-107,1069,34,-210
-116,75,122,-14,235,-321
-96,27,103,376,94,-151
-78,12,101,-42,44,-328
-76,-9,101,-224,159,-164
-76,-24,99,301,-122,-107
-66,7,98,-512,208,-183
-62,18,78,-428,-120,-51
-64,4,91,36,194,65
-56,57,83,-329,-78,120
-47,85,66,-291,171,-148
-47,72,71,-92,30,46
-43,86,57,-203,-52,-9
-44,114,64,-325,2,-145
-29,124,65,-103,-166,-100
-23,-89,49,215,-535,-908
37,-4,120,235,-79,-940
117,42,78,5311,-1885,-3037
-56,48,-24,5427,-2166,-2761
117,1,-98,3171,-9400,-3304
107,94,-27,2379,-11132,-135
-92,76,34,-6066,2071,-2266
34,95,59,-138,2742,-3435
-125,-17,-42,9530,31,-2907
-32,-38,21,-1313,-2007,102
-104,-122,-38,-8463,3900,1639
100,127,48,-1670,-1841,-454
-46,-2,-36,-4530,-1394,672
-117,-91,104,-7938,2448,689
-32,62,-69,-9537,4224,207
-4,112,43,-2709,-1847,1810
26,72,100,1674,-3854,4455
13,63,112,-1505,-427,3793
116,41,-96,-365,-1011,4027
-4,-52,126,1600,-1389,3225
47,-39,-105,-684,147,2808
-32,117,-33,1036,-322,1782
75,64,-23,907,-1458,1153
-2,22,-30,-647,117,344
-50,-83,-86,938,-478,434
-55,-84,-118,-113,26,-180
-57,92,113,309,41,-198
-57,50,126,254,-310,41
-56,62,-118,-51,-264,38
-56,68,-113,362,79,-154
-59,57,117,-207,-80,18
-61,66,116,-409,-269,235
-44,105,-115,-383,-201,365
-81,-120,112,-83,26,-259
-47,100,88,-33,212,-131
-46,96,70,-205,-397,245
-67,-102,104,-265,-196,21
-51,-108,106,-70,140,-252
-54,-127,73,-92,-179,-112
-32,-104,92,-509,-21,-79
-47,-114,86,332,-153,-71
-48,-101,76,-113,94,-161
106,112,-118,8578,-3339,-2916
-118,-84,-37,7954,-4926,-6319
25,2,54,5751,-8087,-4676
-9,93,66,3464,-8081,-2207
62,-30,-119,-2009,258,-1882
91,-103,13,10434,3174,-1445
-104,-50,-15,-2278,-9100,1910
5,-111,90,-7093,4301,2230
26,-122,73,-2521,-816,459
51,111,-106,1670,-2172,1559
-48,-52,22,-2784,1849,1318
-12,91,-1,-5453,3515,577
-6,-70,-50,-4059,1537,1458
70,4,-65,-1813,1481,1607
-108,107,-47,-1781,1574,2113
70,-3,25,-3983,3165,2239
39,-34,-103,-1832,728,1921
75,12,116,-2049,250,2347
58,117,-60,-330,-732,2369
87,77,-20,-357,55,1842
85,-7,-100,-744,-142,2114
57,-81,-121,449,-942,1987
41,-80,-83,-605,-330,1673
15,-111,-112,-1050,-217,1297
-3,-72,122,-1148,-783,1063
-44,-47,-111,-441,-351,142
-69,-96,-128,1009,-31,-569
-63,115,108,806,194,-604
-68,92,88,197,75,-526
-65,61,76,-188,28,-396
-71,49,81,187,-66,-297
-73,37,75,32,75,31
-51,79,52,-352,-30,114
-40,92,58,-61,-166,111
-44,119,62,-155,82,-46
-45,122,54,-23,-146,39
-37,-119,57,-226,-14,74
-42,-111,65,-152,-124,84
-38,-107,63,-34,-7,-24
-32,-99,66,-98,-116,-30
19,59,-114,3224,-1680,-5565
127,82,1,8235,-1157,-5599
-53,49,101,8134,-7709,-4283
107,-126,48,2270,-5451,-3199
-89,87,-25,2257,-3770,-1528
12,48,105,4916,-2227,-870
-65,-93,-65,259,5608,-2907
-118,120,82,-2153,-5812,1876
-4,-59,-128,-5802,1862,1515
78,-41,-84,-2983,1931,-30
7,-1,88,89,-2407,1555
-15,-67,-39,-5152,2716,978
74,15,-123,-8049,6938,1098
95,92,-69,-3631,458,2158
-1,1,73,-1084,-121,3378
64,0,-74,-742,-155,2498
-119,86,-103,-1526,161,2622
-110,-22,-31,-718,-833,2437
91,115,-21,-713,-318,2178
103,36,-81,201,-527,2265
65,-42,-92,306,-824,2016
24,-86,-73,-890,-385,1621
10,-127,-52,13,-320,1652
-13,-57,-84,-44,-320,585
-42,-68,-91,325,-189,-319
-74,86,-120,479,364,-561
-74,64,106,492,10,-300
-69,35,109,97,158,-193
-62,34,79,-88,1,-257
-47,34,83,-117,-81,-111
-52,30,83,-20,-64,1
-50,63,96,-280,-89,22
-43,74,88,-168,-96,-31
-36,97,102,3,-16,-52
-38,100,88,-113,-82,-78
-38,105,98,-102,4,-38
-35,112,88,3,-69,-108
-28,121,88,-148,6,-93
-33,119,84,-43,5,-12
-29,117,82,-59,-7,37
104,-113,-69,7403,-1513,-3113
88,2,-62,7942,-9875,-4879
-19,-74,57,-71,-7707,-2245
7,123,57,-1199,1281,-2156
-43,28,-46,4473,683,-2292
93,-47,-56,3860,442,-2647
-5,-99,88,-9024,2650,2814
104,94,-79,-4442,4263,-999
-92,36,40,1152,-4796,634
-127,-108,108,-980,-3099,1487
-51,-109,-69,-3553,2189,683
-89,-108,-13,-4687,2131,62
-20,6,-12,-3328,905,901
-7,-44,-94,-723,1988,1916
-117,-50,84,-5851,3709,2224
-70,12,-37,-2003,1508,2619
59,-25,116,-595,379,2847
61,-68,-99,621,-477,2509
95,-107,-84,-1309,563,1737
76,-28,-109,-217,116,2231
81,-39,-104,-106,-769,2174
57,107,-90,149,-108,1785
54,96,-106,-24,-103,1881
11,51,-116,487,-471,1662
-11,119,-122,-437,-107,751
-45,115,126,-334,-30,165
-84,72,108,444,-189,-339
-93,41,111,458,-138,-215
-90,42,84,271,-193,-413
-56,32,111,-298,119,-453
-57,46,81,-718,138,-794
-51,-4,90,-172,-138,-465
-57,15,85,-120,38,-465
-50,18,85,-91,21,-336
-41,34,63,-83,63,-175
-44,36,56,-56,-5,38
-34,67,47,-45,-76,194
-32,93,48,-181,-120,210
-32,108,51,-83,-172,252
-32,122,53,163,-136,99
16,35,119,5096,-3604,-4692
-52,-98,124,-1755,-2806,-8665
-61,-74,73,3407,-10746,-10089
-43,-64,-49,64,-12458,-6146
-110,43,7,5039,-6777,-1865
71,-98,118,1294,5877,-3075
-115,71,126,3240,15236,-10785
70,41,-8,11294,4107,-3728
105,-66,-46,-3425,-3626,7292
-98,90,80,-7212,-3290,6022
-48,28,-64,-5292,-894,2696
-122,83,47,-4106,-5795,1354
-21,-101,-91,-4121,-3594,2349
-97,70,106,-576,-2136,5845
-64,-54,-54,-780,6686,6558
53,-60,94,2411,5943,5383
-124,118,51,1109,7008,4434
31,9,75,-1494,2875,5038
49,-28,6,-11270,3081,5039
-76,-98,-70,2176,-3694,2541
124,51,-18,9197,-8394,6731
2,-100,-14,-4750,1340,1110
-71,126,-41,-1098,3385,-5371
50,13,102,435,433,-4894
-128,-125,59,-245,1597,296
41,20,45,126,-690,1108
38,113,68,720,-685,862
116,-112,88,-262,600,314
-93,-57,93,-1478,189,-92
-87,-38,94,-2082,347,-778
-95,-31,-126,-2230,739,-1242
-84,-89,-79,-1275,1190,36
-123,-83,99,894,-98,292
-99,-28,60,1341,-680,159
-66,-7,95,190,-269,-4
-56,-14,97,-345,260,-61
-73,-20,78,-264,-11,14
-85,-17,80,-52,-276,100
-81,-9,100,125,-255,148
-66,-4,117,271,-136,199
65,-1,27,5384,-2054,-4945
93,85,84,1141,924,-8372
-95,93,28,4902,-8913,-7869
-18,4,-64,-1661,-11301,-4188
62,76,7,-3508,-12006,463
57,58,-21,604,-7991,1209
-71,36,-73,833,13661,-3242
-4,37,-87,9761,10955,-6227
-6,82,-37,10432,7316,-5987
-5,2,60,-789,-5347,-2461
24,-47,77,-4255,1025,3741
-8,-100,-105,-2973,-6026,4772
80,62,-99,-7697,-6031,2432
-119,37,-103,-9783,-450,3654
-86,71,13,-3704,-1597,2659
-125,32,-108,3125,1725,5170
124,84,42,4288,5389,3635
-64,94,6,1267,6772,3603
75,-52,116,-299,2182,6346
-22,8,42,-3211,628,4552
-53,22,108,-2992,1866,4541
105,-122,-48,1598,-4856,5414
25,-58,94,-2309,-2470,3754
46,-92,-47,597,3351,-3280
-126,-95,103,-2458,1995,-3880
42,92,37,1871,551,-922
-24,-66,-105,2701,-1803,-308
-21,-40,-85,1073,-176,763
14,43,-114,-1212,1032,645
56,90,-116,-1799,104,513
105,109,-126,-1274,-71,587
-118,-110,-48,474,292,-408
124,-101,-68,-632,243,-506
94,101,126,-60,-117,-151
86,98,124,575,-120,-51
100,112,111,292,143,77
120,-123,96,-530,175,172
-126,-97,93,-573,62,84
-114,-91,94,-120,91,-75
-122,-91,95,78,-140,-110
92,114,-112,317,2811,-7758
-111,-105,-97,6921,-7696,-7177
59,74,-100,407,-9895,-5398
-80,113,-71,-4974,-15291,1214
-42,-2,-69,-4955,-10697,2702
-113,-6,-112,2861,6022,-1645
82,-23,-125,6438,7530,-6815
28,108,-64,4547,9288,-8055
29,26,21,9269,7537,-8175
107,-65,22,3307,-16447,4534
39,82,124,-10442,1975,6986
-107,100,126,-12166,5081,1213
127,-66,-32,-5784,-452,-54
-3,-50,-107,-7389,4512,1604
121,54,5,-8335,5718,6127
-9,-57,44,4860,-3273,6300
18,-114,91,847,-589,5130
85,53,8,-1944,530,5461
51,-69,100,-4484,2285,5622
-74,-45,-127,2777,-3693,5360
-10,88,21,1513,-4907,5192
110,42,66,2947,765,-3366
-118,-69,33,-5221,6142,-4895
118,-48,-26,-3020,3186,-2058
59,-68,-52,-2354,-659,419
14,74,-40,1363,-994,595
86,-106,83,853,-682,341
-107,14,-26,-4299,1563,-762
-67,-33,121,-2799,1749,-148
-110,-83,-122,384,-356,-166
-114,-65,70,551,-235,-269
-103,-63,74,807,-323,95
-106,-26,90,419,-299,187
-89,-30,78,361,13,157
-80,-13,89,327,-410,92
-83,-12,103,-135,83,-65
-75,-12,112,-191,9,-48
-71,-14,112,-359,216,-102
-73,-15,113,-278,98,-84
-75,-23,102,56,105,-33
-48,27,-23,-689,-966,-10883
107,28,-7,5650,-8348,-8900
9,48,-31,1966,-10547,-5810
2,-30,34,4127,-6787,-899
123,78,-64,233,7467,-2967
114,68,58,4039,11292,-6648
54,-81,-125,15735,6060,-3336
-35,126,-76,5163,-20484,1429
-128,8,97,-8595,3176,9782
24,65,19,-12067,-2626,194
-5,2,-72,-4158,-3556,2380
106,55,-34,-5708,5095,3845
62,120,-89,-2814,1723,5370
-113,76,-78,615,6074,4375
26,-43,110,-454,2627,5857
-105,-49,-67,-4636,524,6536
17,-44,-100,1062,-1321,4414
57,-56,39,-45,-3198,3787
-49,-10,69,3150,-4958,3858
-127,-89,55,-2741,3320,-5392
-113,9,-18,-3928,3629,-3306
99,-88,-47,-128,1100,12
24,-1,36,2198,-2200,926
68,79,107,537,-127,453
-107,119,122,-756,544,287
-101,-92,106,-1272,192,-46
-104,-110,96,-724,323,-455
-115,119,108,374,-102,-390
-114,100,126,756,5,-60
-123,119,99,1029,-441,66
-116,-124,97,362,-17,157
-113,-112,107,365,-178,212
-115,-91,121,-65,-42,111
-97,-103,116,-162,108,69
-90,-113,101,0,91,55
-93,-111,89,83,-13,-7
-90,-111,94,-11,-48,19
-87,-102,101,-55,64,-6
-87,-102,93,-12,28,-21
-78,-107,83,96,-17,63
65,53,87,5406,-3647,-4559
26,-124,-21,6557,-8411,-5768
-14,18,53,2179,-10765,-4407
100,-69,69,-859,-12416,1389
54,36,94,-3435,-5808,1859
-118,87,5,440,9163,-775
-23,90,66,3026,10363,-4085
-18,122,91,7771,11216,-4510
60,-45,26,13388,759,-2848
-39,-20,26,-7790,-3900,1628
25,-33,-37,-6412,-2066,5897
-128,-85,-92,-11456,2404,689
109,23,99,-6881,-4865,2247
-66,-80,68,-2224,-1184,7018
64,62,117,-1081,6570,5216
7,-101,-70,724,8082,3107
-60,11,116,-671,3339,4997
-46,-76,-23,-5715,1988,5032
-17,-20,14,-702,-1878,4663
-21,-110,-52,2118,-6476,4193
-46,9,11,5455,-2506,-2513
-18,63,-34,-6060,4831,-4476
118,122,-120,-2577,2960,-1183
31,-70,38,1900,-1864,668
8,23,80,1130,-660,214
78,58,78,-92,1114,179
-120,98,105,-1003,-115,219
-94,119,122,-1017,-78,138
-69,-95,-47,-608,673,-426
-106,121,-116,247,-180,-107
-122,109,110,696,-332,119
-119,125,109,607,-134,141
-102,-114,104,-200,443,43
-90,-107,66,-490,322,143
-86,-102,63,-196,-180,87
-84,-91,80,39,-253,26
-84,-75,105,-178,-89,-69
-70,-75,126,-285,326,-75
-76,-79,109,104,-125,32
-71,-76,96,-79,43,-18
91,99,48,7406,-151,-3468
-40,-119,15,9849,-6090,-5641
4,119,-51,353,-7739,-3719
-37,11,-83,2234,-11099,-2648
108,-122,-61,-5139,-9683,1929
105,-4,-25,-2651,-11003,2544
-2,-2,73,4761,2791,1550
24,-38,-116,1213,12382,-5877
-101,43,-85,7830,8615,-6712
-75,58,-111,16622,788,-3614
8,61,-27,-10243,-6755,3314
-120,-88,121,-9038,10017,7048
15,40,75,-6712,-6934,3454
-6,26,17,-5824,-5904,3627
21,56,-47,-3868,3457,4967
-39,54,103,8107,2270,3852
-31,113,-8,1281,11622,676
84,-98,83,2692,8735,4325
12,-94,-6,-7449,5538,4857
-32,-123,57,-4303,1754,5136
124,77,80,1362,-10614,6718
6,-107,-122,17193,-3274,1723
-80,-55,-23,-14003,8294,-7956
46,-37,65,-419,2999,-2009
46,114,50,3262,-2508,-473
10,-70,-121,1190,-2175,215
43,-22,-104,-1421,1443,958
75,67,-106,-782,231,101
-128,89,-48,166,-233,145
-113,107,-60,-251,284,-69
-125,87,-109,222,-160,-142
120,73,120,-39,-34,9
110,84,109,157,0,66
117,96,103,84,1,56
-118,113,115,32,-38,18
-113,124,-128,-100,62,-68
-110,126,-126,-155,51,-51
-113,125,111,-111,-15,8
-104,-126,105,-49,3,2
-102,-119,92,-102,26,-19
10,0,-43,8481,-4506,-1524
56,17,11,6195,-3634,-6655
7,-38,77,877,-6503,-4285
41,55,123,-15,-9795,-2774
112,96,-17,-4358,-10393,1217
-59,51,60,-2002,-9230,1570
-40,-13,-88,2077,-4979,2871
39,84,-28,1804,10473,-4083
7,46,113,4523,9997,-5045
-31,92,117,11811,12393,-3978
-28,118,82,-4490,-12210,1179
-64,55,-34,-5077,974,6144
29,-126,119,-8876,-1282,1914
-123,18,74,-3777,-4462,883
-16,67,127,-4897,5068,5022
67,124,64,-2083,2954,5717
-46,52,-102,4831,4448,4738
-22,-53,-119,694,8093,6082
35,67,60,-6959,3588,5204
28,-6,90,-6915,896,3757
8,-82,-41,7459,-11625,3222
-71,93,79,10821,-6207,2539
20,-124,-91,-8917,9115,-5704
56,-85,125,-5092,4997,-2034
82,0,-19,-4327,663,-1155
29,2,-74,3805,-3032,548
66,112,123,128,-240,131
-111,-57,-62,-2930,1507,-213
-107,-71,105,-1477,630,9
-119,-107,125,461,-8,-116
-122,-105,-127,707,-371,-109
-119,-94,74,836,-338,214
-116,-59,98,426,-448,190
-100,-52,119,-187,-30,88
-85,-56,116,106,-128,164
-94,-42,106,-135,171,-153
-96,-61,93,-23,77,-142
-95,-62,94,-234,135,-129
-92,-63,93,-146,16,-21
-83,-56,99,-98,14,23
-30,-45,-106,5509,-4301,-6944
-99,119,-47,4889,-9708,-5910
34,-76,2,589,-12510,-2754
34,37,119,-1850,-9596,936
-121,-93,-27,2238,-1842,1539
85,-15,-110,-431,10718,-3074
-15,36,58,8043,8946,-4395
-97,32,6,11669,4447,-2937
-86,-28,-103,-3622,2025,-3231
-45,120,-95,-4318,-5709,6173
-86,78,99,-7187,-4181,5511
71,5,-34,-13574,105,2337
-73,-88,7,-8035,2641,4897
81,56,52,3398,31,8373
36,7,-13,-398,8226,4010
123,105,-98,1080,3841,5437
80,-75,-90,-4168,497,4620
26,-10,94,-740,-1871,5260
125,88,-18,-2092,-2582,2318
27,104,57,6163,-4231,383
-113,114,-107,-2369,3095,-3033
77,57,90,-2331,2863,-1493
65,0,66,-413,731,-784
58,-23,75,1580,-1242,618
-126,11,109,1327,127,452
107,74,108,1183,-444,-56
75,73,120,-388,-330,-499
96,50,-88,-745,-487,-71
-108,75,23,13,703,126
118,82,-88,392,-157,147
-124,93,-125,12,-103,41
-118,96,122,-177,191,-172
-122,82,108,51,162,-85
-122,81,99,73,-123,64
-109,103,100,8,-120,155
-109,-127,102,-112,-150,-69
-100,-112,-116,-425,339,-192
-100,125,-120,-171,4,68
-96,-128,110,153,-82,80
-88,-113,90,51,-34,57
20,-101,-125,6222,-4257,-4819
127,19,120,1740,-6223,-6911
-108,-12,92,5923,-15018,-6116
-75,8,-104,-2975,-9847,-921
27,-126,-37,-3865,-4736,203
-1,-26,-81,3842,752,-209
-5,-29,103,1397,12524,-4653
69,-96,2,7898,8770,-3938
-28,-74,92,8749,1212,-1700
-52,22,52,-6604,1971,3795
-98,114,87,-6511,-4795,5340
102,43,-18,-8544,3205,2305
116,68,100,-7548,-2711,1496
60,114,88,-7697,791,5153
19,-26,39,151,2942,6395
17,42,2,-729,3031,5737
-128,78,52,-2670,3709,4191
-8,53,-34,3300,-2512,5370
-80,-24,101,1974,-3436,4037
-43,-101,-105,9064,-5472,5102
-48,-77,-115,-5709,6024,-4940
83,8,-14,-3653,1075,-1969
51,-32,11,-2162,1090,-1469
37,-29,62,1119,-748,-149
42,-1,72,1387,-46,463
79,66,80,476,162,270
-127,99,106,-882,-183,250
-91,-118,119,-1345,241,9
-77,-110,-32,289,294,-406
114,94,-115,1044,-503,83
121,96,115,777,-320,314
126,118,113,180,-46,258
-105,-115,87,-738,694,161
-100,-109,61,-561,81,224
-101,-101,67,56,-301,70
-84,-81,124,137,86,-150
-79,-72,-119,-549,312,-109
-87,-80,101,-335,-172,2
-61,-43,121,-510,110,-130
-58,-28,94,-445,24,-209
24,24,-23,3091,-4861,-5921
41,-12,-103,3439,-6973,-7503
126,20,62,2019,-12329,-6223
20,122,38,-4461,-7986,-1521
78,-24,98,-1607,-11322,1389
18,44,27,-731,1895,1218
-97,-47,-65,2887,8340,-2050
-50,13,3,3319,11540,-6391
-9,44,25,8525,9360,-5249
120,122,-26,8185,-602,-3325
9,25,127,-8160,-6387,7380
43,119,-47,-9307,3538,2369
-119,-49,-125,-6367,-2509,238
38,69,-16,-6215,-3803,3815
1,37,14,-3111,-121,4804
-14,41,125,1921,1939,7590
-42,-84,-116,-1819,7155,4477
-28,74,-20,1680,1721,4209
32,-23,83,-2593,948,4115
-95,38,-90,7,-173,4752
66,69,5,3254,-3534,3116
-98,-21,-1,156,-3683,2263
66,-76,-68,-561,1587,-1466
127,-117,51,-1173,2125,-3170
52,-56,30,1507,495,-1507
25,-58,89,2201,-886,-241
9,4,-101,178,-346,599
49,38,123,-264,703,715
104,77,105,-433,380,797
-119,112,93,-1323,554,511
-117,-112,86,-932,-263,71
-128,-114,116,175,-548,-238
-109,-96,-25,63,648,-318
117,127,-110,321,-220,120
118,-121,113,404,-221,65
-117,-112,102,230,108,-90
-104,-113,89,-246,404,-175
-106,-121,73,-113,-65,-78
-109,-114,84,-170,-90,-97
-104,-103,99,-429,92,-29
-41,81,17,6526,102,-3995
-87,99,-37,8473,-4160,-5460
-42,17,24,2634,-6131,-5631
-49,119,-41,2416,-17385,-2530
70,8,-68,-3176,-9078,119
-34,102,66,-2765,-7220,2317
19,0,-91,2274,4991,-1982
-33,-70,108,-209,11660,-5477
118,126,-67,4571,9933,-4001
-46,0,-39,9383,5683,-3729
17,40,-77,4022,-13565,3733
-42,-11,23,-9498,-1859,7312
-85,-127,-114,-12785,685,3592
72,-11,104,-9564,1124,2605
-72,88,49,-1906,1204,7542
38,91,-47,1009,4526,4650
-53,17,-109,394,3198,5520
-41,34,83,-1869,286,6457
35,125,-25,1904,-1749,4267
-84,-16,68,1108,-3909,4204
-110,89,-14,1398,-1721,3504
7,-97,-121,-4334,6614,-6268
57,-114,-29,-247,-623,-465
17,-45,77,-1384,1831,-817
0,-29,90,1341,-801,189
26,-27,78,1241,-27,427
100,36,106,127,-3,741
120,85,-122,295,-902,534
-107,-121,-13,201,664,-433
124,85,-79,37,-263,-122
106,76,-128,-687,271,-156
107,71,111,-234,115,3
124,94,85,-91,96,126
-124,122,82,-324,-71,-174
-111,124,111,-340,129,-131
-111,120,122,-18,118,-122
-107,112,102,159,-56,43
-105,126,99,217,-116,49
-95,-116,99,202,-66,-10
-98,-119,89,148,-55,36
14,49,52,5468,-174,-5417
91,7,-37,502,-4097,-6960
-69,42,48,3327,-10872,-6963
14,-49,-59,-2899,-9796,-2837
81,-38,108,-2034,-8247,645
-79,-18,-105,3508,-1080,608
-69,-118,110,2522,15228,-6251
81,-117,5,8119,11269,-4789
96,-128,49,12051,-1669,-5931
38,30,31,-10279,-7773,5592
-42,-27,57,-7952,575,6425
60,-47,-93,-10719,-2552,252
-96,35,74,-2918,-1973,4903
-87,29,-59,-4063,6437,6343
-106,17,111,3510,392,6127
118,-111,-110,-322,4087,3911
27,-38,-15,8,-173,5830
-119,58,-9,-2869,-73,4522
44,-99,13,74,-5250,2971
-26,107,73,18966,-9332,1901
55,-90,-91,-10305,6895,-6357
46,86,84,-2851,3100,-630
64,-26,58,1727,-1066,67
25,9,17,3309,-2125,331
62,41,98,-584,1648,381
124,108,102,-1609,559,541
-116,-109,100,-1367,-636,532
-81,-86,-72,-124,923,-458
-85,-96,-78,234,-243,-389
-103,-126,123,-444,148,7
-112,-115,109,338,-245,85
-100,-94,98,-15,401,-44
-88,-89,73,-315,312,-48
-84,-87,63,-126,-197,3
-79,-77,81,-198,-27,-89
-73,-72,95,-332,-2,-74
-70,-70,107,-140,28,15
-70,-63,124,203,-15,68
-74,-56,110,310,-178,119
-66,-51,86,125,-38,50
58,-46,-61,6946,-2496,-4704
-126,-80,83,5334,-3796,-5220
112,113,-51,1553,-3571,-5056
79,-70,-13,2858,-10978,-3437
-33,8,-120,-1953,-12359,3024
-5,-44,51,-3144,-6720,1723
-30,127,-102,4899,4256,-974
-6,-33,115,1432,10074,-4984
-80,59,99,4970,11033,-5789
-77,119,52,10378,3320,-2112
-29,-122,-50,-2639,3506,773
-111,-106,-66,-8214,-9593,9506
-29,84,43,-10737,-252,3629
31,117,65,-9700,-627,254
112,-6,0,-293,-2756,6095
-81,-38,-68,-602,6825,3531
-55,-99,-121,1818,5356,3969
-90,37,119,387,1708,6215
43,-26,-70,-1999,1597,5218
-97,22,-35,810,412,5283
-15,-63,-9,-2115,-4655,4113
85,86,53,9557,-3053,2898
-5,-4,-92,-8524,6286,-7181
109,-115,-116,-2423,2326,-1063
79,-51,2,-116,1499,74
21,27,51,3742,-3008,1159
51,57,107,1683,-552,606
-115,107,108,-1375,1578,518
-75,-72,100,-2650,305,133
-91,-71,72,-2474,517,-341
-98,-74,89,-682,29,-763
-72,-74,-41,-1051,1074,-414
-117,-108,106,747,-251,157
-114,-83,80,1294,-775,296
-83,-52,107,635,-257,243
-71,-52,87,98,190,53
-75,-53,68,-22,-178,39
-80,-54,78,-73,-121,-94
-72,-52,119,10,170,-93
-74,-58,120,110,-85,37
-66,113,59,6854,-1853,-3702
95,118,-44,7542,-4103,-4883
57,113,-119,3235,-5397,-6414
-19,87,-87,2043,-9407,-3935
69,123,56,-2960,-10408,-1325
29,112,-100,-3536,-12946,3479
-2,-77,6,-771,-3691,2064
-87,39,108,2951,12208,-3704
-42,16,-44,5225,12509,-6622
62,-107,-26,10780,7688,-2402
-17,9,93,3435,1033,-5284
74,46,92,-10132,-10598,11657
11,-90,-41,-11463,1321,4528
92,22,114,-4700,-5219,641
-6,38,99,741,242,7585
30,-119,-74,3949,4919,4071
66,-104,58,1587,7932,3406
-126,54,-34,-3941,7301,5048
85,-101,-95,-4897,26,6618
100,-73,31,-7590,2366,2574
0,-23,124,5313,-9607,1656
-117,-45,50,14625,-7466,2110
55,-34,-40,-10947,6834,-5722
21,-115,94,-2730,3209,-424
47,-7,37,1664,-1161,13
8,34,71,2259,-1754,422
55,78,105,1,1071,458
98,127,89,-333,127,397
-122,-93,117,-1287,-127,-137
-94,-91,-91,-1315,1047,-480
-112,-113,-117,-277,-70,-278
121,126,102,323,-74,-72
124,-120,108,738,-348,113
-114,-99,98,337,21,146
-105,-90,77,-14,81,90
-100,-87,76,-50,-181,44
-99,-82,89,-17,-134,-4
-95,-70,121,-59,140,-80
-90,-79,119,144,-2,9
-87,-76,104,76,-103,44
63,-55,-85,5141,-2444,-5139
61,73,-88,-2044,-394,-7356
41,20,125,6207,-10651,-5895
111,64,87,-2553,-11711,-2878
-44,-82,44,-4042,-14392,1899
126,118,105,1311,-1431,1566
123,-91,106,3473,12799,-4627
-103,-43,91,4988,14215,-4686
-87,31,109,17259,5852,-1914
-69,-113,6,-10309,-1939,296
29,-80,91,-5711,-6012,5049
91,127,61,-6103,-7020,6075
16,-14,122,-11592,-1412,585
105,-23,-66,-4439,614,7768
72,-33,-92,4364,1956,5229
-21,4,-22,1201,6874,1507
74,5,-1,5300,634,5054
-33,40,-22,-3494,2671,6049
-96,-91,80,-3997,1804,4932
85,116,-58,-1774,-1601,4047
109,-47,24,7500,-5042,2720
-6,11,81,-4274,4455,-5655
-117,-6,20,-2566,2441,-991
52,-51,15,762,-151,-204
-13,9,119,2847,-1582,661
24,42,101,1256,535,481
90,75,104,133,611,664
-112,122,124,-1467,69,585
-111,-128,115,-1379,201,214
-116,124,-125,609,-62,-366
127,113,-83,495,14,-428
112,91,-115,165,-56,131
118,108,120,486,-251,74
-117,121,111,-1,118,-4
-107,-128,98,-317,123,-77
-112,120,90,-121,-84,-102
-109,123,112,-52,57,-44
-104,-127,117,75,-8,54
-100,-112,115,114,-126,107
-89,-98,116,65,-26,32
70,-78,34,4917,-3137,-3480
68,-26,62,6895,-5527,-5527
-59,80,-53,238,-8664,-5366
-51,46,54,-3001,-13144,-3371
73,-59,-128,-4884,-15472,2414
37,12,-45,7278,-3808,5252
-105,-40,-112,389,22605,-8385
104,36,85,16060,6092,-1286
57,-112,99,-1197,7421,-9619
83,106,-95,-5525,-11131,12414
-112,119,38,-10012,-1129,4841
-24,-82,93,-14207,65,-282
8,-106,-122,-6750,2816,5276
-20,-119,61,4722,-2867,8200
66,-57,-68,4353,3502,2746
51,-108,-37,1440,3007,4983
90,-3,93,-1554,1736,6455
54,-18,-88,-6553,4309,7193
-122,4,-71,-7741,6190,3158
-122,-27,-15,9623,-13599,1142
60,-78,113,11711,-9107,2222
-44,23,2,-11223,9227,-6340
101,8,-48,-4607,5027,-1858
102,92,-14,-4762,1782,-443
97,111,-74,3897,-3369,2139
106,-56,72,1518,-1676,668
-110,-5,111,-76,50,-386
-93,6,-113,-2423,973,-1472
-44,-27,-57,-4156,3252,-517
113,114,101,1108,-386,-105
-125,-79,34,1431,-1350,158
-106,-54,58,791,-604,216
-86,-17,113,448,-244,250
-81,-27,83,150,76,208
-85,-15,77,146,-276,24
-81,-18,93,19,-100,-82
-77,-13,119,-438,234,-152
-77,-22,118,-400,250,-89
-81,-33,89,-43,-2,-70
-74,-33,81,146,-18,-39
-76,104,113,5726,-1898,-10289
93,-40,-48,1748,-7350,-9506
-102,-39,-56,1826,-12605,-7761
103,-55,-29,1209,-18835,1165
109,53,27,-3336,15602,-361
33,16,-37,1448,17785,-5853
122,-83,-74,11157,7962,118
-105,126,117,8084,-844,-4334
-118,-121,88,-13083,-7626,9139
-73,-74,44,-11251,-313,4488
15,-22,85,-10282,-2224,489
-59,-62,-93,-68,-593,7102
-15,-12,-29,5871,-361,6567
47,40,50,8,7315,2746
-36,-66,83,-1705,3883,5834
30,-106,16,-3347,1271,5668
50,85,116,-428,-2429,4374
-32,15,-32,-600,-5787,4552
55,106,78,-1411,4082,-4397
-88,-6,-90,-2097,3231,-4179
-65,31,-108,-4961,3754,-1279
63,52,-52,3417,-1455,-418
45,61,4,4530,-2730,1212
74,125,80,1735,-115,727
-110,-99,102,-518,607,338
-80,-84,80,-2066,771,55
-88,-72,47,-2247,200,-506
-110,-51,97,-1366,-445,-879
-73,-32,11,-1590,1219,-360
-109,-48,-120,164,-117,370
-102,-36,82,1245,-740,350
-78,-1,95,683,-150,146
-63,-5,81,-159,589,-100
-67,-14,51,-250,61,-73
-78,-27,48,-75,-289,23
-69,-9,77,-233,-191,33
-64,8,92,-519,32,-70
-55,17,121,-312,193,-92
-50,13,-121,-117,114,-33
-60,2,97,253,-208,27
14,96,67,6586,-267,-3156
-10,41,-86,9742,-4958,-5167
-89,54,-121,1200,-5592,-4726
72,33,-58,527,-15620,-1301
91,-14,-30,-7139,-11636,2013
117,56,-23,-2902,-5430,2052
-24,76,-101,3383,7922,-1298
-54,-83,-37,2002,12942,-5961
11,69,103,4718,9744,-3510
8,-57,88,6362,6820,-1534
92,19,53,-4727,2265,1198
127,-6,1,-8349,-8946,7671
96,121,-46,-12491,-3109,4332
-117,121,-55,-11130,1822,3540
1,-33,23,-776,-222,7137
38,-86,-90,2550,1999,5288
-72,-85,-111,3547,-53,4582
-26,-88,-78,-4573,4293,5447
-6,126,107,1937,-3259,3416
77,43,33,-1013,-1519,1581
120,1,-68,916,-5057,463
72,-90,-29,1114,3257,-2591
-116,-77,66,-996,-547,-941
67,3,-7,-1822,2430,-330
48,58,3,1776,-917,-62
38,45,38,1957,-1468,843
88,113,103,-957,950,232
-79,-61,-68,-1450,830,-32
-91,-89,-106,-85,29,-188
-94,-93,120,-1067,609,-351
-113,127,79,-26,107,-138
-114,-124,78,256,-46,38
-111,-99,77,274,-232,118
-94,-86,84,345,-264,63
-78,-69,111,137,-12,-21
-71,-65,112,-196,137,-101
-88,-83,96,-76,37,-44
-85,-91,95,275,-118,75
-72,-74,83,132,-20,-4
-70,-72,85,94,-60,-65
-4,77,-93,5713,3502,-6750
64,-127,-65,3907,-4208,-7664
117,51,-62,5846,-11562,-7437
-6,-10,-24,2637,-12586,-5294
-25,-23,78,3023,-6844,1563
-44,-104,-98,-1882,11264,-2876
-81,-97,-83,4932,13029,-4519
46,-90,-6,10782,4164,-2838
-59,-108,105,-6961,193,170
-103,32,-123,1440,-7117,8943
100,-49,-5,-13378,-2465,4491
12,111,115,-9560,-5975,2461
-93,-106,-73,-2691,3363,6078
37,105,102,4226,648,5566
-81,69,-75,1791,4818,2736
-42,107,6,1927,2502,4181
123,-113,17,-1432,2772,5237
-32,-85,113,-289,784,4494
-109,-11,-46,1872,-5786,3966
59,40,62,6133,-1033,2914
15,120,1,-8011,6734,-6734
-90,-124,-106,-1376,1869,-504
23,-57,20,1479,79,-316
12,7,51,3346,-2273,772
44,10,92,1699,-208,905
-122,59,102,67,662,1095
-83,127,-128,-2070,71,637
-82,-96,-89,-471,248,-377
-73,-105,3,-83,13,-858
-117,92,-116,-933,319,-251
119,85,96,467,-415,38
-124,106,99,543,-101,121
-98,-123,92,-406,542,45
-85,-109,64,-445,-50,42
-81,-105,83,-166,-207,-47
-80,-86,113,-111,-62,-152
-81,-94,-127,84,219,-127
-84,-104,116,371,-190,151
-81,-82,100,283,-173,92
-65,-72,91,-121,105,-39
89,57,-64,3270,-1989,-5753
-66,29,15,2578,-7023,-6904
-111,106,-119,4835,-17064,-4314
86,-69,89,-4567,-8571,1418
111,2,3,5870,-1560,1834
-86,-119,-28,-5700,18324,-6039
-44,123,27,4755,10344,-4231
22,81,38,18801,1605,-3951
-42,121,-97,-7695,-10985,1609
-50,-74,-1,-7175,437,7390
41,-111,71,-10625,-1445,2959
-110,77,-124,-11216,-2729,2551
94,-73,-12,-460,-1999,7201
-85,-63,-62,4798,1937,5357
-121,-90,28,-803,7698,2109
-117,-47,-79,-923,5411,4657
-65,-31,1,3324,-1464,4755
-54,-3,-118,-994,-884,6617
7,-109,-46,-3062,-3437,4591
-51,-49,-38,18783,-8303,259
-2,-14,80,-8873,6852,-6400
82,-126,74,-3100,3639,-1314
90,32,43,-2804,-736,-661
54,1,-92,7338,-3834,1630
42,54,64,2338,-12,688
115,79,90,-317,1043,818
-88,121,88,-1312,-364,798
-97,-64,96,-3990,252,-360
-86,-71,-107,-793,-944,-533
-112,91,-58,1313,869,-171
127,-103,77,909,-295,348
-122,-92,71,891,-603,99
-90,-61,108,-329,387,-190
-76,-86,58,-890,1035,-113
-80,-80,25,-302,-281,-22
-90,-71,53,-79,-515,-124
-84,-40,108,-689,-144,-350
-68,-44,-101,-650,375,-129
-71,-54,-88,472,-38,193
-73,-49,101,587,-227,150
15,39,-124,5197,-75,-4414
92,115,-127,3517,-2394,-4947
69,-84,-66,196,730,-4876
-122,-33,-106,3576,-1839,-2176
58,41,80,2180,983,-1377
-56,-40,6,7691,1023,-1134
47,-85,-2,6351,1557,-1650
2,-91,-11,981,1734,-633
11,-38,23,-1712,2108,-491
-68,100,-91,-528,-341,-303
-97,63,-108,-1011,-1851,214
40,100,88,-6848,-2846,585
-60,56,18,-15875,-698,-815
72,52,-43,-9958,-1995,-658
109,-2,127,-8460,-4699,-472
-40,18,-23,-296,-5884,4475
-114,-108,99,1783,-8085,5729
-106,-51,115,-6007,-910,5598
27,43,-13,4093,-5096,3506
-95,44,47,3901,-1547,4840
126,38,49,-422,-1657,1362
-14,-117,43,749,-1816,-1696
-95,-112,1,1381,1999,-1303
35,72,88,-164,629,-13
35,52,101,366,-1381,657
99,31,-120,818,291,269
95,39,104,399,119,-241
83,-11,110,91,236,4
67,-2,93,-106,267,-114
78,8,103,-573,222,51
76,2,101,-345,-32,250
95,32,104,-195,-52,139
91,47,107,-549,101,36
67,34,100,-541,-220,270
73,53,122,-589,-132,272
79,64,-125,-483,-163,209
78,79,-125,-681,-163,177
58,88,-126,-998,-74,138
56,82,-111,-892,-173,248
82,89,-89,-631,-97,285
88,39,72,10406,-5486,-4149
84,-121,76,935,-1825,-5155
65,-84,-115,-359,-6893,-5932
73,0,46,-5109,-2953,-4581
-79,68,-87,880,-2366,-3777
5,120,-5,3485,-1835,-1450
127,-27,-31,3801,2355,-1564
-35,-54,-3,3903,4573,-1824
32,-109,-33,-697,3660,-21
0,-25,-89,-4664,933,-766
80,29,-104,-5912,-4397,235
37,-44,-60,-11949,-1080,-1464
48,-78,59,-7763,-3118,390
29,-70,47,-7072,-2128,2897
30,-26,-53,-2046,-4374,4103
81,52,105,-2829,-5704,6808
42,-108,-4,-1095,-1500,4260
-54,117,21,-3073,-3411,4175
124,48,-9,726,-4299,5226
-26,-53,-27,938,-2186,972
120,83,79,3133,-597,-3344
98,115,-13,-6,3505,-579
-69,-5,13,1266,-2069,995
60,66,101,649,-395,77
102,73,125,-825,1291,-599
11,-102,42,1011,-228,68
46,-14,63,-256,289,100
56,0,64,-122,120,50
55,-4,68,355,-29,69
52,9,69,-499,132,260
82,97,93,-1267,399,-154
70,42,87,-574,107,58
67,60,99,-462,-231,83
76,78,-116,-569,68,-43
60,84,-122,-711,54,-138
41,67,-119,-622,-6,84
52,93,-114,-621,-45,175
68,117,-108,-669,1,22
62,121,-104,-638,-73,71
51,116,-92,-220,-59,74
109,104,111,5632,-1359,-4328
-60,45,-15,4233,-1986,-3453
87,97,-53,3551,-5417,-5917
-18,-92,-20,1350,-2788,-3747
47,-13,-84,3381,-4333,-1714
-3,-44,-106,391,-1188,-1043
57,-2,38,3189,718,-646
-94,-33,42,3464,2867,-679
55,2,120,415,4166,-152
24,-23,71,-2840,3172,-336
120,106,28,-1695,-4041,-996
-35,126,-2,-7450,-3429,36
-18,91,118,-10617,-1961,-1208
-51,-97,60,-8759,-999,-1145
-16,-41,-64,-7076,-1079,1332
59,-21,108,-3020,-2669,3324
-9,-70,75,-2182,-4898,5642
-125,-30,-22,-1798,-4591,5665
70,-27,28,-447,-2291,4563
-84,-32,32,3153,165,3738
-35,67,5,638,-1757,6097
49,109,48,-3500,-3915,4188
64,-56,-102,-774,-1716,-3291
100,-30,56,4010,4459,-3702
-32,-111,15,-261,1334,1404
-47,91,80,-2036,-2617,1179
-117,83,-55,-241,-168,314
-109,51,-83,582,1274,-658
66,1,95,656,246,-525
71,-5,96,-258,384,-121
79,-13,79,-289,116,-33
79,14,92,-674,-30,-5
75,37,125,-937,-169,236
74,39,-114,-212,-133,101
60,38,-110,-259,-198,233
56,43,-109,-691,-260,478
67,74,-98,-537,-305,300
68,90,-82,-807,-150,317
57,96,-83,-498,-277,268
57,88,-75,-126,-305,398
-92,-56,12,2741,1466,-4321
-77,14,-67,4052,-1247,-3285
107,40,63,5755,-4225,-4885
-30,-80,-97,1729,-3883,-5139
105,-31,19,-1892,-1485,-4392
-87,68,-40,2450,-1705,-2183
-109,49,65,2238,-909,-444
-128,68,-92,2313,2129,-541
15,126,110,3862,2992,-399
126,77,66,1367,4093,-55
91,-43,-71,-1780,2702,303
-16,-18,-96,-679,-1695,-901
57,32,8,-7538,-4196,-955
88,60,-57,-7656,-2973,-1997
16,-123,9,-6472,-2720,-979
-27,19,-30,-6767,-676,309
-118,67,61,-4538,-2561,2077
-76,78,60,-2607,-3707,4269
-29,-96,126,864,-5054,5918
-63,-5,-23,-1816,-2446,5491
-63,-24,-14,-450,-1529,3821
-59,-46,-96,1520,-1293,3742
-88,54,17,1713,-366,4981
20,68,-39,-847,-2213,2762
-68,70,-61,440,-3067,-1728
-104,40,-4,1103,2979,-2538
42,-99,89,1086,2097,-367
-115,-72,8,-370,-1663,1913
39,9,93,-168,-770,887
120,16,-120,-238,472,-202
56,-45,104,-82,151,-350
27,-89,100,86,184,-128
38,-86,86,-32,192,-166
43,-98,80,-188,0,88
33,-67,88,-626,-130,315
30,-48,93,-572,-217,340
41,2,106,-699,-112,281
37,8,102,-634,-132,264
47,19,102,-645,-337,377
55,58,126,-902,-389,306
73,18,14,3957,-2149,-4799
-103,30,87,4039,-3516,-6258
-107,61,43,686,-2303,-4415
37,8,-127,3548,-2073,-1931
-2,116,60,3300,526,-833
23,-97,32,2673,3627,-535
-123,78,82,2740,3710,-262
-4,90,-62,874,3895,549
2,36,94,-1277,207,-831
76,-117,18,-2953,-4619,-449
-9,35,99,-7388,-3299,-1257
109,10,-90,-10181,-3412,-425
86,-12,58,-10866,-1186,-1435
104,36,124,-4837,-2688,1155
-69,22,33,-40,-3633,3635
-104,24,84,1490,-3792,5502
-27,-6,-61,-358,-3228,5477
-97,-19,-91,1045,-283,2807
55,20,-89,1353,-637,2303
-18,-9,-14,601,-2240,4373
125,-123,-41,1669,44,3732
52,-57,-10,2220,-1455,2053
-87,44,77,-1210,-945,-121
98,-110,87,-43,396,-851
19,22,11,936,293,-753
-22,37,-22,64,-302,-170
-2,76,-10,-1085,248,-121
32,88,-3,-1350,327,-544
50,88,7,-872,67,-719
71,75,40,-650,241,-864
27,60,30,-455,33,-813
1,64,49,-857,172,-516
18,23,21,59,436,-452
1,-11,-18,-34,-464,320
18,-107,37,-2167,-162,690
50,-114,58,-857,-200,391
17,-76,80,-223,-403,279
14,-63,82,75,98,-17
9,-92,50,106,-168,238
16,-90,56,-237,13,500
55,100,-81,2461,2703,-4213
14,110,-52,2669,-1882,-3586
22,87,-45,2634,-2452,-5497
28,92,-72,2425,-3618,-4142
125,23,-17,2829,-2474,-2862
111,54,80,4054,-871,-1675
119,-49,6,4817,1073,-1404
-24,59,54,3257,2496,-1200
84,-67,-58,5,4167,-514
112,119,90,-2308,2727,-994
-64,100,-51,-881,-2971,-55
51,106,103,-9992,-3094,-344
41,39,-4,-10097,-2832,-1686
-15,20,5,-8896,-1148,-1578
-10,-127,-99,-8236,-1064,496
117,94,-112,-4932,-2613,2088
-65,16,-84,-1038,-7200,5483
-27,-50,60,-1912,-7861,6436
-109,75,-21,-2153,-3490,4202
78,55,108,2937,-2228,4236
-13,-25,-80,1329,-1709,4431
-105,56,-3,368,-3023,-1572
-57,-7,77,492,1359,-1850
28,44,-94,836,1764,-458
2,-102,-110,-473,-1232,729
115,-88,-61,-1013,527,-289
-105,83,-83,-302,985,-924
121,43,-105,76,465,-285
113,63,123,-424,574,-519
104,91,-117,-1211,442,-82
109,86,-112,-587,306,-35
109,90,-120,125,267,-135
116,78,118,-111,155,-64
88,48,94,-212,-400,258
65,103,-122,-1077,-700,503
71,109,-92,-397,-467,594
98,-119,-83,-365,-201,397
89,-125,-97,-238,-499,390
75,-118,-86,-298,-475,408
83,-98,-76,-631,-28,236
-57,-126,37,2659,-1624,-2812
-72,-122,66,2522,-3820,-2894
-21,70,93,814,-4404,-5180
8,-57,-51,-921,-3271,-4521
-21,11,107,-1546,-2659,-3396
1,-83,-22,-1349,-1081,-2816
26,92,-98,-285,99,-1003
72,-8,-41,3315,811,-995
49,-109,8,5016,1559,-1005
-86,-104,-34,1990,4460,-1238
122,-14,29,513,2964,903
-104,-1,-14,-3590,-939,-450
75,-10,-9,-7976,-3964,-1197
-128,-56,77,-11224,-3193,-1625
-67,113,-18,-8343,-3064,-2178
-75,-102,-5,-6923,-2072,-1525
-38,125,28,-4564,-2909,453
61,-22,-83,1229,-4324,1950
44,-83,-46,2000,-4251,3190
-82,27,51,-1605,-4321,4600
-6,24,95,-434,-4151,4498
-126,32,84,1530,-1985,2369
-24,-23,107,975,-56,82
-46,63,76,735,-2035,2257
-100,21,-105,2212,-600,1363
104,-27,5,3354,-556,575
105,-72,15,1636,374,792
77,-86,13,79,15,962
54,-88,54,-503,-119,1161
14,-102,42,-525,-389,760
40,-89,63,-1127,-241,550
43,-116,54,-40,-649,357
37,-109,44,165,-371,-234
32,-103,18,-1045,227,-864
-7,-34,32,-123,55,-539
3,6,5,-863,612,-276
43,-40,-54,631,54,-350
10,8,-72,-463,136,-512
-53,32,-92,1762,-458,434
-20,-76,-38,-396,-728,442
112,61,17,1995,-1485,-5542
66,-118,79,1671,-1016,-4335
-122,120,-119,6471,-2822,-1027
-77,55,-113,4755,871,-1308
-22,113,7,5516,3888,-1295
-91,-17,-53,1193,3721,632
9,83,-56,-4169,2300,286
70,4,-35,-241,-1391,-1206
106,-1,-127,-5521,-3033,-1191
-1,110,-77,-10609,-3311,-1496
79,43,-38,-10962,-3394,-987
72,110,96,-9887,-1621,-187
121,-32,-89,-3865,-4277,1083
0,-123,70,1236,-5207,2868
103,-12,121,843,-6547,5523
-5,46,-3,-376,-2804,4008
85,98,-78,3583,-824,2107
-47,-40,98,4472,-3993,4120
111,-118,19,-2455,-2029,4547
100,87,-125,980,-1876,1113
-89,-21,-119,2910,-160,-1615
44,124,54,2084,890,-1404
-36,60,-16,600,-102,-509
-43,40,-30,-59,-86,275
-31,18,-42,155,-692,703
4,51,-28,-256,-448,-76
44,51,0,-1404,84,-477
6,15,14,-1565,304,-298
-14,20,25,-760,391,-453
-2,11,3,502,804,-403
50,51,-37,758,1391,-435
77,27,-96,687,-362,38
22,-123,-36,-2228,-559,-503
-13,123,6,-2043,-366,-208
-46,-128,88,-1242,-290,230
-4,-113,101,-456,186,307
44,-96,92,-195,199,309
48,-80,49,-145,-213,261
32,-52,63,-821,-166,43
37,-64,73,-796,159,139
-97,95,-83,1804,-1774,-5032
34,63,-24,1762,-1552,-5454
-54,-28,45,-32,-1516,-3871
44,2,81,4281,-1841,-2492
-21,86,6,3745,237,-2003
19,-88,77,3946,423,-854
68,-24,-2,1154,2867,-429
60,-124,59,-57,2541,-810
108,-125,-89,-3024,-1069,-619
8,-74,-93,-8935,-3772,-85
48,-95,115,-12409,-1377,431
41,-40,-19,-8809,-3154,-118
2,112,116,-8871,-716,1147
-75,-56,92,-3098,-2904,264
115,70,53,1851,-3936,2071
-48,-72,4,1917,-3052,2157
-109,62,113,-1105,-4214,4580
20,-81,-82,349,-2602,4061
-52,-66,-25,3811,-1059,4831
114,-80,125,3426,-1496,4704
-8,50,29,1012,-2985,3714
50,103,112,-1582,-1808,674
127,-70,-116,-649,230,-1397
37,95,64,760,-109,-1224
0,95,45,188,229,-724
84,55,47,-282,1233,-1247
105,-39,35,-43,654,-1091
41,0,43,-1178,259,-750
57,24,54,-1093,556,-946
76,-13,54,-171,645,-824
39,-11,12,277,275,-512
33,38,18,-840,39,94
40,78,43,-713,182,27
24,60,30,112,-26,196
32,86,46,-197,-373,557
-102,-116,-97,-444,530,668
35,-66,77,541,-337,355
-16,-33,105,-994,-627,177
48,-31,-123,-2214,601,350
58,-71,126,-968,-119,459
-92,-1,-116,3500,-1984,-3105
110,-38,9,2528,-4102,-4531
124,118,-120,1414,-3990,-5057
112,-77,101,-1439,-1929,-3917
-115,-66,-85,1242,-2383,-2933
74,32,-114,2605,-1005,-1244
57,-69,80,3755,963,-378
-21,-45,50,2121,4520,-1225
-11,101,118,-210,3563,-336
-36,9,-53,-3291,1077,-765
73,97,87,-1305,-3318,-203
-85,125,10,-7547,-3228,-688
-101,-72,-97,-9244,-2570,-1664
-122,89,100,-9276,-1864,-1178
-48,23,60,-6077,-3848,828
-20,28,76,-3321,-3735,2264
-79,6,-25,3419,-6019,4722
-68,-22,12,-73,-6085,6905
43,-29,-9,-321,-2444,4470
39,77,69,2723,1077,2706
125,-10,-65,2463,135,2970
-100,75,91,1855,-2433,2589
-93,-9,18,2821,-2285,-556
124,112,72,1695,819,-899
103,5,-19,262,1732,-414
43,-54,-73,622,-636,954
64,9,-15,-479,-306,1182
58,65,-8,-326,894,-414
94,16,40,482,434,-680
93,13,24,173,-3,-1011
100,-1,39,-305,-143,-861
74,5,48,-1019,-570,-537
66,17,58,-1362,-484,-553
64,14,64,-1002,224,-504
37,17,47,-207,144,-374
27,25,32,2,78,-183
40,31,24,-245,6,204
43,42,19,-523,-121,597
37,69,26,-796,-237,743
24,113,45,-1174,-264,821
-81,-7,42,1774,-872,-4422
18,29,-101,1408,-1444,-5660
-92,-90,96,886,-2061,-5012
0,92,-4,3579,-2046,-3137
35,47,-73,5679,-1894,-2544
-69,118,-12,3942,-349,-1659
119,23,57,231,2206,-392
-60,125,19,-1983,3112,337
-9,21,57,-2095,1620,-574
-88,126,-10,-213,-2072,146
-27,29,76,-2817,-2433,-165
94,-31,-87,-10269,-2192,-490
40,43,-103,-10653,-1747,-698
89,-108,-51,-8996,-719,537
-82,71,-112,-4757,-2574,2129
42,-23,89,1794,-6658,4909
-64,-54,-93,-2452,-5702,6301
-25,16,-76,-165,-2419,3185
-69,-31,4,1817,-2061,4647
4,102,126,-1576,-2749,4457
-34,-62,38,-390,-2677,1350
-18,59,9,2140,117,-2495
71,66,-82,2033,2240,-2003
26,69,59,-142,495,263
16,49,28,207,-998,823
122,93,55,-114,326,-202
90,58,51,-104,288,-296
76,9,55,-150,70,-99
65,22,44,-361,152,-152
52,48,49,-962,-107,122
62,52,58,-609,-11,197
82,83,64,-393,55,107
82,69,71,-207,-263,191
73,102,68,-671,-71,131
68,105,70,-667,-183,301
81,110,82,-472,-129,136
65,121,87,-655,-75,248
64,122,99,-772,-165,235
50,-128,99,-675,-78,317
56,-88,91,-1650,-251,539
18,-78,12,3881,-2904,253
90,0,-33,-1714,474,548
91,-61,-110,39,-911,639
79,-61,120,-726,-1272,604
56,-57,-128,-1177,-1329,882
61,-78,81,-126,-268,825
76,-64,92,-592,-291,545
68,-85,78,-464,-120,453
65,-97,82,-383,-167,253
75,-80,86,-370,269,53
78,-98,93,-240,424,-30
86,-67,116,-12,1406,-287
118,-116,125,-541,198,-134
65,-101,91,-390,-600,366
90,-70,-103,-946,351,73
68,-99,122,-435,-285,243
80,-60,-118,-874,22,169
74,-56,-94,-538,-135,89
94,-39,-56,1197,-735,289
16,62,31,2439,-1311,-2799
111,99,28,1815,-256,-5039
124,12,55,2912,-319,-6179
8,6,92,2773,-1954,-6275
-58,-58,94,580,-2747,-5054
85,-102,-103,1479,-2424,-2872
56,-32,-93,2391,-2114,-1124
80,99,-126,4670,2089,-1294
5,-16,-89,3786,3432,-51
127,80,-48,-1807,2605,717
-102,-5,67,-2940,2473,91
-91,-41,-48,-1393,-2855,40
75,20,90,-5000,-4302,-454
-79,-79,-32,-8573,-3338,96
-105,-21,35,-11457,-1032,767
-56,14,-23,-10484,-1239,1116
122,-99,-35,-5176,-2474,2385
16,126,40,6156,-7404,3966
124,-116,-26,920,-4000,5824
42,118,-90,-1645,-1315,3602
29,-112,113,3407,-1578,4443
5,74,-95,4027,512,4489
89,69,-91,2080,-2471,3160
-4,126,20,-1005,-2747,-636
111,-128,120,-286,361,-1751
18,-44,58,1566,-60,-200
-64,-7,-24,930,-1093,-8
13,53,10,-777,1129,-92
87,53,0,-1465,1676,-1162
92,-2,-10,-192,129,-1117
99,-23,5,609,-286,-1199
79,-3,1,17,-148,-1156
19,-2,-22,-622,-191,-1000
8,-8,-22,-348,244,-504
-29,9,-27,-723,-146,210
-25,30,-41,-976,-399,785
-11,69,-42,-1528,-80,1010
-22,117,-7,-2098,-836,939
3,107,48,-1308,-768,1440
51,-98,71,-986,-516,1255
89,-79,63,-800,-448,1185
106,-62,55,-491,118,618
103,-49,39,-603,-334,518
78,-10,63,-1446,-487,458
48,-75,31,-791,-236,422
46,-105,51,-474,-8,605
57,-95,75,-1675,-53,601
51,-114,53,-838,42,470
58,-110,77,-1456,-55,417
77,-123,79,-982,372,450
58,120,61,-495,-577,147
49,-121,67,-954,-171,222
52,-115,72,-262,-313,283
65,-86,92,-562,390,362
79,-73,116,-254,1977,291
104,-88,-62,-722,1840,-97
108,100,85,935,-2541,296
113,-76,-54,-564,360,162
87,-97,-97,-532,-10,160
93,-96,-92,-604,-396,298
92,-87,-91,-272,-151,42
26,13,-73,2504,-1035,-4986
22,-41,39,4757,-2440,-5336
69,76,108,-1010,-3295,-5858
61,-74,-74,-1783,-1375,-5298
47,-22,-109,2848,-1253,-2561
-51,-2,37,4028,-908,-1011
104,-54,2,4687,1623,-1617
-18,10,-91,3536,3344,-606
-93,-90,1,974,3885,-623
-68,45,-97,-2820,2609,-235
53,0,121,-1413,-3206,418
-66,-96,101,-6557,-3201,608
24,35,76,-9647,-3081,220
-106,-36,69,-10411,-2583,-161
-1,116,82,-9070,-1777,-58
-82,-77,-120,-5784,-2430,838
-21,6,97,-274,-3863,2186
-94,121,2,2426,-5462,4072
17,-66,-91,2056,-4943,5709
17,105,58,1183,-372,4101
-115,97,3,760,-1137,4209
-124,60,-104,6095,-2301,3521
108,-93,8,2801,-792,4445
116,-49,-25,-1885,-104,632
-120,-4,36,-409,375,-2700
51,-81,23,2594,489,-1560
-11,-82,-9,485,-352,302
14,-28,-4,-516,-300,153
54,-44,16,-886,204,46
33,-67,22,-377,-206,66
18,-47,26,-153,-173,87
29,-33,24,-258,-227,-53
24,-19,17,-572,-98,127
27,51,16,-1198,19,325
32,83,13,-853,-121,-2
36,97,25,-554,-87,-72
48,108,31,-564,-156,-242
32,93,43,-243,-128,-179
37,110,50,-449,-26,-239
49,-104,43,-553,72,-560
-77,40,5,1491,-352,-5596
0,45,-117,6537,-3737,-5918
85,103,-124,951,-4884,-6934
-82,-80,-74,-1045,-2449,-2967
94,-124,-113,8678,-5713,-2778
46,110,67,3009,4167,-2743
-14,-110,-104,595,2517,-508
-72,-54,-125,-2624,4849,-121
-1,52,74,-1529,-701,-1377
-20,-20,96,-3852,-2522,413
-118,79,102,-7215,-3049,-362
-74,-22,-113,-10797,-2337,-470
99,-28,36,-11949,-452,-879
-115,40,25,-8322,-2943,1632
-77,-65,124,-2361,-5913,3944
48,91,-65,-418,-10295,5663
-54,-71,-30,-2024,-1951,3446
-33,29,92,2231,-2056,4935
100,-101,-108,-242,-2344,6086
41,-107,-51,-1275,-5391,-363
33,-7,-2,2357,621,-3455
117,-4,-9,1178,4445,-1188
-60,94,126,-655,-2540,1598
85,-114,-55,103,-1632,1279
-97,-31,-22,-549,1336,-885
116,88,-70,326,992,-390
111,58,-126,638,389,-68
-90,75,108,215,344,-323
-110,78,109,-659,354,-474
86,86,-120,-1193,159,-239
87,85,-77,-948,-21,247
119,104,-50,-266,215,2
90,112,-80,-40,68,-4
83,121,-83,-446,70,-22
90,110,-71,-385,-13,278
89,115,-91,-3,-176,126
85,-121,-76,-905,-236,454
85,-99,-63,-451,-357,351
90,-90,-53,-453,-225,310
88,-84,-55,-603,-296,344
29,-6,61,1429,1951,-6328
39,-113,34,2083,261,-4533
30,-2,7,1082,122,-6004
14,-36,-126,1576,-1144,-6370
53,-25,106,2990,282,-3783
-16,-97,83,6050,-2045,-756
-98,-6,-39,4804,1270,-975
110,112,105,4532,2669,-1383
87,63,-117,547,2935,365
0,-59,74,-1901,4540,325
94,-78,-78,-3491,2384,-179
-109,-56,45,-2715,-4989,-1331
-4,-61,93,-10665,-2180,-3539
125,-6,-25,-6049,-4594,-2749
6,-86,-99,-9391,-2066,-1426
-20,28,98,-5267,-2076,208
-36,-5,-35,-2064,-3477,1954
88,-34,68,1562,-6917,5004
97,-94,38,-3023,-7508,5625
1,-69,-67,-1582,-1883,2566
53,122,46,1724,-3709,3100
-84,-62,98,-1056,-3500,4633
-75,44,58,3403,-2350,444
86,47,1,1861,-1106,-1884
44,-91,1,-1702,3230,-1103
107,9,110,-26,-1059,1176
-62,52,-83,1467,-1221,1152
62,-108,-116,170,1175,-358
29,25,69,158,499,-244
37,34,54,-325,294,-214
32,16,47,-53,207,-520
23,29,60,-322,363,-479
14,59,83,-818,-47,41
30,87,100,-692,102,-160
31,91,117,-619,76,-44
20,93,119,-484,4,63
20,86,119,-570,-5,237
21,94,120,-710,-172,344
38,124,-107,-934,-140,326
40,122,-98,-576,-102,264
23,7,-123,-181,3077,-4608
-83,100,-15,3301,-711,-4098
127,-51,10,3631,-323,-6178
-27,-17,-74,1326,-146,-5299
70,-20,72,2529,-765,-2903
-35,82,89,4369,-855,-1546
115,-35,-126,6336,1670,-988
-61,79,100,5508,3698,-1118
-121,65,97,2083,2969,313
87,-63,-52,-1415,4427,-231
-48,25,-62,-3004,-996,-620
20,-72,-62,-5536,-4933,-896
-53,86,-59,-12518,-918,-2374
-59,-115,18,-11846,-1572,-2256
113,-82,117,-8897,-1802,64
54,-121,69,-4184,-4368,2198
-39,-112,-10,-549,-6137,3658
63,-59,-31,-1886,-6021,5194
80,-104,25,-84,-2387,1987
-70,45,-125,4047,-3141,3214
120,-106,-14,2092,719,3607
-88,-72,-72,-3785,-2466,1007
123,5,123,-1620,-3508,49
55,-64,69,2997,905,-1268
11,58,-10,-192,589,-159
-49,53,-61,-815,-333,-213
-20,-17,-82,-77,256,-55
12,42,-123,-843,531,-5
11,26,82,-316,245,-53
18,35,84,-38,21,72
23,47,93,-318,-69,263
24,53,103,-299,-34,155
35,63,125,-371,-51,159
41,62,-123,8,-61,176
39,87,-109,-582,122,305
21,53,-114,-432,14,223
40,60,-116,-177,-48,-2
47,65,-114,-477,170,69
39,69,-126,-371,-56,14
30,65,-119,-444,-67,212
-60,3,84,3760,997,-3151
-58,5,49,1127,4126,-3331
115,37,13,6528,-5504,-6422
24,-122,19,-361,-107,-7535
-30,-27,-42,3311,-3713,-4767
122,-75,112,3691,-2247,-2072
-5,88,30,6433,-2347,-859
-31,-88,-11,3306,4036,-810
-43,78,90,1744,2964,-221
15,64,-31,-1134,6538,73
-31,-127,75,-5127,2719,-1174
-3,4,-11,-4068,-3699,-517
-70,-51,-127,-7698,-2597,-2170
34,-14,-27,-7106,-3006,-3680
6,-67,-107,-9896,-1864,-2723
83,83,100,-7158,-769,-253
-60,-85,18,-136,-4128,2770
32,22,119,666,-5577,4830
-14,-86,-111,-1113,-3937,5514
21,-48,-66,-975,-2315,4423
-64,-33,125,315,-2806,4823
-23,-69,-15,-1203,-1613,4480
-27,-108,-55,-1668,-2374,1298
-128,19,-104,1641,97,-2526
36,-18,48,2386,1922,-1689
-38,-2,-101,-239,298,467
-11,39,-126,-507,-1099,1176
73,83,-89,-515,134,-59
55,50,-87,-317,173,-150
26,-3,-109,241,-81,43
36,23,-113,-651,122,78
30,25,-110,-499,-183,46
29,22,-91,-543,-71,226
33,53,-93,-595,-57,63
30,49,-83,-534,-170,287
31,70,-80,-587,-141,154
28,78,-71,-749,-154,269
27,78,-66,-405,-126,263
33,99,-67,-566,-177,228
26,89,-66,-470,-128,281
-101,82,-81,1009,1379,-5054
-52,114,-105,1222,2541,-3927
-100,127,93,5689,-2993,-6715
-86,32,19,472,-896,-6689
45,-36,-37,1906,2447,-4869
-8,6,86,3249,514,-2045
-127,-55,112,3272,1733,485
51,100,97,6859,2530,235
-55,-128,101,4482,3307,-198
-125,-86,-9,-93,4574,92
85,-106,-99,-3747,1313,-603
-69,1,-51,-3923,-4897,-649
-103,-125,78,-11380,-2790,-901
-46,-50,57,-9369,-2172,-1834
-2,93,-100,-9657,-1042,-1180
-122,63,56,-6547,-1911,-229
32,-127,89,511,-4743,2453
-95,-85,-11,607,-7099,5623
102,30,-112,-2476,-4581,6889
-37,110,-12,-3630,-2000,3357
29,16,-34,6529,-2306,1624
-62,23,40,291,-1993,1892
-4,63,96,-2897,-278,1371
76,-121,10,1597,-855,-46
36,91,-96,2011,292,-625
12,51,89,1080,174,-419
18,12,88,684,384,-209
41,-16,119,327,688,-536
2,-58,123,335,-359,-201
19,-13,-108,-907,95,-312
5,-44,-114,-371,-116,-155
8,-16,-123,-673,57,-60
0,-5,121,-721,-180,221
25,44,-120,-766,8,88
23,43,-118,-349,-69,146
22,68,-125,-733,-245,176
19,56,-111,-707,-196,236
20,78,-113,-501,-286,250
16,76,-109,-269,-393,215
18,91,-110,-313,-277,322
4,42,119,4303,-1954,-4761
15,-10,-37,1314,-454,-6011
-120,67,73,3043,-6684,-6000
2,38,-15,-1714,-6495,-6175
-18,32,-34,-1912,-5332,-2518
76,-32,39,264,-2096,-1651
88,-61,-125,3260,948,-1720
10,-96,-96,3567,3336,-1789
121,38,-68,2559,5802,-2236
52,-16,-43,-1217,5358,-425
-106,-107,-31,-2528,-515,-751
-25,-117,105,-3645,-6155,1267
-83,13,48,-8570,-3667,708
-111,-106,9,-9916,-2043,1725
-70,-12,103,-10596,-1634,1371
82,-68,-105,-8866,-2845,2699
-123,-89,-83,146,-4626,3269
-69,-25,88,5520,-5912,5351
-51,37,11,-1675,-290,4987
-15,-69,58,2261,-1722,2726
-45,81,-97,7210,-2488,3834
-64,95,-81,3065,906,3658
-25,71,-88,-1729,-1105,585
77,-53,41,-80,-69,-1565
61,48,8,2004,1029,-1379
23,30,-40,1087,-34,-493
-35,28,-70,321,-565,-4
-27,17,-41,-243,-5,-47
38,68,-27,-1929,751,202
83,99,8,-3262,641,-149
75,96,12,-1515,-164,-436
8,94,85,-175,-618,-820
8,102,101,-178,-8,-1188
21,90,79,-432,224,-822
-6,102,38,-601,-33,-488
-52,-117,41,-1147,-202,-42
-34,-89,74,-1226,37,163
-26,-85,63,-586,-267,361
-34,-45,76,-895,-314,494
-20,-12,111,-1183,86,409
62,-22,-63,2956,-100,-4665
-91,106,90,-349,2161,-5607
87,-18,-118,3705,579,-5442
114,-62,114,3628,-1397,-5182
-111,101,91,274,773,-3917
13,3,53,4228,-590,-738
33,34,-98,3903,-5,1072
-83,-2,-77,1181,3922,263
21,19,64,3582,2686,1694
-74,80,105,556,2696,182
-64,-47,-35,-1581,-2337,-1498
55,24,104,-5392,-3551,-1090
101,96,-60,-9819,-3314,-1077
96,14,-63,-9027,-2392,-332
89,-92,1,-8295,-1356,115
-80,87,22,-3037,-3973,2387
3,-8,-36,1543,-6024,4338
60,-91,-126,-1118,-4011,4990
75,36,53,-2502,-1770,3235
122,-37,31,1565,-3498,3704
80,125,55,1715,-1742,3933
52,-26,-46,1930,-3035,3319
-7,-95,69,1175,-2022,-383
106,-57,-108,1382,1,-1946
59,48,-111,499,1370,-1120
-64,-60,26,1033,-1,-131
-57,-30,37,59,-298,590
22,40,29,-1012,527,-49
38,8,31,-1048,148,-214
39,-8,46,-812,274,-188
48,23,33,-618,282,-277
61,58,27,-768,204,-514
49,68,31,-512,25,-642
45,105,58,-1070,225,-739
13,74,64,-718,47,-279
0,87,74,-411,-219,49
10,102,84,-263,-206,257
19,-123,88,-673,-26,344
17,-117,86,-541,-286,488
31,-96,100,-626,-128,447
-4,60,107,4007,-477,-4913
73,50,-120,4406,-2918,-6867
87,-90,-96,-146,-2759,-4441
72,-45,72,2287,-1274,-2029
-77,-90,-18,3913,-544,287
108,-10,87,4533,2430,-530
100,-107,-75,2052,4810,-595
14,76,-52,138,3767,-54
-111,-36,119,-1860,1261,-1337
-63,62,32,-2686,-4833,-35
95,26,-119,-9162,-3188,-866
-121,51,15,-8252,-2826,-965
-80,54,35,-9140,-1639,-27
-3,8,34,-8442,-1878,490
-37,-100,59,-4192,-3491,1952
43,-7,-7,2508,-5968,3734
57,-93,39,1363,-4701,4642
42,78,-1,-1466,-2525,4015
-84,-99,-114,279,-1634,3380
-90,-14,-41,1518,-1105,2415
-51,-81,-49,589,-1860,3292
82,0,-124,816,-1287,1377
-79,-51,83,1569,-882,-401
111,116,90,615,388,-769
16,-10,16,480,-108,-29
-20,-18,-8,-621,-442,742
17,35,-10,-286,-294,620
58,66,-21,-888,-126,-160
49,26,-20,-639,-54,-64
11,-6,-22,-76,-140,-156
23,-20,-28,-259,-143,1
9,-15,-28,-265,-192,12
13,-1,-12,-555,152,58
0,-2,-15,-289,-189,87
15,20,-9,-77,44,-21
21,51,-22,-545,51,239
19,56,1,-416,341,436
43,49,22,72,351,234
63,69,22,247,678,-31
65,92,64,-502,67,-196
6,25,-1,4732,-1731,-2675
-108,-26,-83,-538,-50,-5563
65,-122,-120,4047,-2750,-6129
37,101,-109,713,-3198,-6514
23,-34,76,-1845,633,-4520
38,-95,5,2806,-1840,-1272
-8,60,-100,1766,77,-367
42,125,-112,6691,192,8
-49,-55,-40,3328,3985,-759
-112,55,-37,1123,3522,-36
-114,-97,57,-1572,178,-870
34,-59,-73,-2821,-4813,265
-104,47,85,-8135,-3143,487
-60,34,-52,-10737,-735,98
8,-13,4,-9793,-1353,630
-110,-14,66,-9350,-1777,2536
-69,33,106,-2617,-4469,3465
-102,32,-90,3668,-6941,5184
-109,0,80,729,-588,3920
-19,-120,63,1543,-117,4273
-57,27,45,-916,-2353,5451
-86,-72,75,-3656,-1732,3706
21,-70,53,-1536,-2730,-1144
-58,125,84,3026,1359,-1774
91,79,-84,2297,2410,-1968
4,122,45,-1348,-82,563
15,89,60,-179,-1401,946
116,121,113,112,467,-281
103,94,94,-335,436,-583
75,43,83,-156,-74,-254
56,51,90,-472,26,-129
50,75,91,-776,32,-91
61,87,93,-675,31,-23
62,114,92,-688,-21,57
60,-126,97,-641,-71,90
60,-116,96,-469,-139,89
56,-112,103,-632,-234,242
57,-92,116,-765,-92,135
55,-98,127,-650,-157,308
57,-90,-128,-571,-175,315
-87,-35,-25,2178,1159,-4794
-3,-20,104,2322,58,-5146
44,-60,-79,2157,221,-6600
8,105,-10,1346,-1125,-5945
37,-43,-4,2648,-1418,-3458
-101,122,58,5201,-2290,-163
-47,-59,-3,3464,869,1458
-96,-109,12,4818,2689,242
103,-122,96,2916,6755,-1085
-26,24,84,-180,5108,-647
46,107,-78,-716,-817,-531
-125,-81,-9,-3455,-4419,272
60,-23,15,-6098,-2439,117
-12,-102,25,-10412,-2451,-1440
109,-10,-94,-9960,-935,-1552
-85,85,121,-8264,-2169,-1051
-9,102,-52,-4610,-2968,1635
6,-96,-122,1188,-5290,3716
-8,-37,62,1048,-5821,6358
106,-5,-3,-325,-1354,4044
-83,79,-99,1865,-3088,4329
86,37,-38,3392,-1219,5046
-115,41,-53,4421,212,3641
-41,28,-72,835,-3720,1098
97,110,122,-540,-632,-1223
20,-52,115,-692,1982,-1310
-60,81,-12,1766,-94,-7
-67,-113,-27,729,-809,625
40,45,-2,-1862,111,-645
49,-48,7,-748,-66,-831
41,-101,43,499,-183,-900
-8,-62,53,-609,171,-1204
-56,-82,40,-1616,696,-742
-4,-70,14,-1646,369,183
44,-6,8,-1123,102,201
50,14,15,-365,-93,131
11,35,12,-280,-486,7
-10,44,35,-655,63,178
-4,59,31,-746,-235,477
13,84,56,-454,-183,496
66,-9,-53,1528,2954,-5588
110,-71,-108,2600,1938,-4807
-115,-68,-3,462,16,-3973
-59,-80,-111,5804,-2311,-3819
-122,-119,107,1828,-1343,-4840
64,-77,19,2705,-751,-3089
-48,80,2,5083,-2178,-104
29,57,-106,1960,646,698
-49,81,28,4772,2171,812
-126,7,49,785,2836,276
-124,-116,-39,1160,3464,-1245
43,-45,-66,-3201,15,-602
82,-114,31,-2562,-2494,-538
6,75,57,-6065,-4359,-635
45,-26,46,-10566,-2754,-2625
-17,-16,15,-8713,-551,-1515
65,-13,22,-7560,-1273,484
-6,-97,5,-1060,-4605,4290
102,7,-40,1933,-5267,6322
-2,18,-114,-2920,-2214,5144
-127,124,-50,-4386,34,2299
-79,-10,36,4281,-4301,4150
-74,120,53,-82,-1439,3689
-111,-16,81,-788,-2185,3759
109,27,6,-931,-1636,1800
-35,35,-11,-398,-173,-1265
107,61,-50,1593,1226,-1645
31,4,-128,151,765,-141
33,68,112,-825,-470,112
86,63,-125,-565,306,-321
77,28,107,-153,326,-386
62,32,95,-476,32,111
72,78,95,-859,79,14
84,79,105,-877,176,-58
78,70,118,-548,-46,77
69,64,126,-264,-177,235
79,111,-116,-645,36,-7
59,85,-116,-471,-189,283
65,114,-114,-581,-192,200
63,124,-105,-671,-166,294
-101,-89,11,2565,2530,-3830
16,14,108,2352,97,-4063
111,113,-71,4933,-2084,-5599
125,55,-53,3224,-2045,-5457
-52,23,-48,2643,-2992,-2606
14,-3,-28,6075,-4351,586
-31,1,-15,7632,-4229,737
-103,65,-65,3487,2991,-3002
-57,-57,114,1286,4276,-1704
-111,92,88,-1070,4445,-928
59,24,30,-5430,2204,-1091
-106,111,67,-6791,-4784,935
-72,-99,88,-7891,-2146,-1462
-6,97,41,-8626,-948,-1724
77,-112,-119,-9564,322,-293
-66,-120,29,-6601,-1491,2230
-46,-13,103,-157,-5551,5535
-5,1,-24,2957,-3570,5447
-94,96,-42,1728,812,3485
-94,117,-73,522,334,3041
-82,-101,78,-399,-1252,2195
-100,-117,-108,-1384,-450,3367
50,26,-115,-1358,-300,3550
-117,-7,120,919,-531,3237
5,-116,35,1577,-1528,560
-85,-101,109,-963,-90,-1386
120,58,-120,-1719,1659,-1358
37,-52,75,-1335,927,-386
-116,121,94,-3573,962,-699
-91,-114,-126,-3289,1000,-970
-122,-119,-37,-1799,627,-813
-120,-114,6,60,533,-1051
75,32,-38,2488,781,-902
57,9,-110,49,270,-102
21,110,-84,-2457,104,513
17,-103,-25,-1178,-608,862
68,-108,-4,263,-36,377
77,-56,-15,-416,-19,51
19,-127,-26,105,-370,209
52,-125,-23,-524,112,252
-30,88,-54,3548,2272,-3903
70,-108,41,4195,1736,-5022
97,46,4,1516,-868,-4003
-107,97,-108,4273,-1225,-4473
-21,-38,54,3990,-2490,-3629
-33,-15,29,4485,-2490,-1971
41,115,-99,2387,-3197,-520
-49,37,108,2303,-1362,964
-2,-18,12,4209,869,-387
68,-15,-33,2732,4921,-1688
-4,73,53,1141,3573,-381
-128,-88,85,-1734,2345,-940
121,-92,26,-556,-3271,653
-67,53,-38,-4156,-3665,294
-46,-23,-118,-9628,-2204,-6
76,82,-74,-11717,-1153,-255
-96,110,-18,-11859,-1407,12
3,30,100,-7032,-1858,1795
32,-120,-90,733,-3809,3960
-15,100,-127,4558,-1519,2666
51,-101,-105,-2971,4084,1758
100,24,-57,6458,-700,3420
-6,71,-69,-411,-23,2981
92,-112,-96,-3883,-3549,4618
42,102,-65,-2276,-3398,6275
18,-14,33,-432,-2090,4676
96,36,-101,1901,717,1954
-55,125,66,1580,-880,-724
38,43,121,350,-256,-2142
42,-77,114,473,1114,-1673
21,63,55,1381,172,-971
6,118,61,176,-820,-212
23,-41,121,-2114,-47,-515
4,-49,-121,-1737,285,-585
5,-100,115,277,351,-257
18,-78,84,503,46,4
15,-25,43,-159,33,72
28,-29,35,-560,-200,371
10,-2,55,-1104,-273,708
7,14,71,-704,-250,911
122,-125,-116,2323,-2102,-4981
56,-6,16,2539,-618,-6372
-10,-71,4,2306,-1214,-6463
101,-114,7,-19,-1082,-4182
118,-102,14,6411,-3766,-1957
-80,-81,-67,4889,1409,-1632
100,98,73,4780,3343,-1503
91,89,108,1220,4348,-782
32,64,5,-1125,3590,-661
94,-1,-114,-2058,-3783,-193
-108,25,4,-10397,-4022,1505
104,96,-36,-14685,-485,-675
126,93,121,-12499,-1548,-1691
7,-46,46,-10442,-976,-125
109,69,90,-234,-4011,1388
59,-25,-49,5897,-8014,5003
-94,52,-52,-613,-5130,7367
-61,98,-18,-1814,-3338,4357
123,89,15,6675,-2054,2730
73,118,110,3900,-415,4389
-39,-37,-118,-2388,-2283,1692
-126,-15,-65,697,-2930,-2165
49,-82,-25,1965,2443,-1568
-61,106,50,2376,688,-9
-35,-44,51,-81,-992,1132
52,19,87,-1401,-190,-115
28,-71,103,-89,85,-474
1,-113,97,187,170,-187
18,-82,76,-394,283,-160
21,-86,75,-225,49,-51
23,-79,74,-348,84,55
15,-39,79,-969,-137,276
17,4,99,-1041,-37,219
12,14,104,-407,-63,173
22,51,103,-941,-149,135
-7,93,105,-1208,-63,-35
78,83,-110,-1330,-194,120
35,114,-105,-810,-94,-70
1,120,-109,-550,347,-109
39,120,116,-686,90,123
-100,-123,22,2196,-33,-5538
25,83,89,3680,-1639,-5991
64,-114,38,1447,-1688,-5095
57,10,-117,4865,-3596,-1902
116,-100,-10,5686,-611,-2043
-117,42,-62,3725,4087,-1149
96,-32,-127,1271,4901,214
54,48,46,-770,3286,692
-40,3,-72,-742,-541,-1142
95,94,-94,-2997,-4842,480
-104,125,50,-11580,-1125,-345
4,-68,28,-11200,-1161,-1153
98,-68,-23,-11359,-2707,-770
13,58,79,-10957,-3027,541
-16,120,-98,74,-4773,423
-91,35,33,5894,-6606,1836
-72,112,123,371,-3787,5109
-49,-103,72,-734,-1690,4250
-4,-86,88,3831,-479,2736
95,-124,76,6582,-1654,3794
82,86,-45,3269,-1948,2996
104,81,69,-1421,-336,-861
-128,77,61,-188,861,-931
23,-6,20,970,-633,-121
-21,6,14,684,-759,178
11,43,37,-435,62,175
23,66,3,-754,41,-528
41,25,4,-404,-350,-784
58,21,17,-778,-223,-882
52,26,15,-1099,-112,-513
4,58,10,-1032,-137,-460
-18,88,10,-781,-143,-540
-9,82,15,-452,-1,-457
-9,77,-2,-352,-139,-305
-27,103,0,-808,-338,19
-40,-111,28,-1419,-112,135
-22,-106,46,-1169,24,246
-25,-98,59,-407,-53,346
-32,-97,37,206,-113,424
-4,-96,28,-185,-135,703
-37,-94,-55,2462,270,-4771
-26,-66,63,-1383,1746,-6403
21,-69,105,6129,-1195,-5993
-113,79,52,1984,-1520,-4741
-56,-119,103,6491,-2051,-381
78,-28,105,8436,-288,214
-41,20,98,1779,4663,-1649
-19,-11,62,1766,6667,-784
44,-65,82,953,-1517,2348
-54,-27,23,-9031,-1738,-2836
-101,23,5,-12072,-1057,-1789
-10,-46,-65,-10610,-2571,-1540
112,-117,98,-8563,-2991,163
47,57,27,-3589,-4008,2502
115,80,-28,1307,-3530,3387
118,44,-6,1141,-2760,4403
-70,-72,-87,230,-902,4215
58,-66,-35,3763,-933,4341
-59,32,-82,5215,-199,5781
-5,-68,-61,1400,-2706,6243
-15,41,59,-2354,-3143,2944
-118,22,87,-2568,117,-1545
56,0,72,997,1647,-804
-60,1,-32,1433,194,-568
-16,41,-31,-261,-116,-152
37,67,-19,-1130,317,-1174
45,-69,-25,445,-162,-1352
48,-76,15,-178,78,-1196
18,-84,9,-430,-124,-848
16,-42,15,-1068,-129,-704
17,-9,8,-960,-136,-619
-2,11,19,-610,-123,-391
-12,28,20,-463,-21,-135
-25,65,4,-562,-130,99
-18,85,16,-732,-38,354
-10,99,12,-478,-23,484
12,110,3,-292,-225,679
17,-124,8,-458,-126,673
8,-109,0,-503,-209,670
13,-99,9,-638,-190,657
-6,-102,-64,2597,493,-4457
-84,-50,26,3373,-1582,-5843
-43,2,65,4436,-5635,-4511
115,-64,95,-2576,-795,-4010
-31,-90,99,7838,-6173,81
-55,77,-113,3008,3285,-1468
-126,-88,-126,3391,4219,-1777
124,-56,4,1639,4634,-342
86,-22,38,-540,3381,-149
73,70,-6,-542,-5678,149
113,-14,-83,-10111,-2609,1034
-32,-21,-6,-12764,-1229,230
-10,82,-88,-10619,-2233,-236
-57,-38,-13,-9893,-1450,1479
-71,-69,101,-6055,-2519,2275
41,-44,-105,3852,-5357,2961
-57,83,-3,2127,-1696,3949
-80,-52,86,2680,-400,3368
71,-42,35,305,-2275,5041
-46,68,-85,487,-1965,4133
98,-71,-17,-617,-3033,4877
16,53,-88,-588,-651,2329
12,86,100,542,-623,-1367
-104,84,93,2318,362,-2098
93,37,59,318,508,-501
-32,10,-8,-715,-1211,780
89,113,61,-1367,100,-178
114,75,31,-267,471,-807
82,30,-14,-36,-349,-945
70,38,5,-656,56,-731
22,40,-2,-92,-191,-679
30,75,3,-362,-365,-693
15,88,-8,-231,-650,-834
2,86,9,-237,35,-34
-28,113,3,-725,6,319
-27,127,6,-748,-78,439
-8,-106,19,-630,-13,665
17,-103,11,-344,-50,734
51,-84,2,-369,-107,812
53,-66,6,-527,-157,587
98,-56,102,3279,-2343,-4992
50,-8,88,1872,-2694,-5749
0,7,42,1025,-4886,-7355
23,48,-107,-938,-2617,-4886
-63,38,100,7788,-5383,-943
-63,-88,-85,4629,1095,-515
-119,115,-79,6207,3624,-2547
33,-38,-63,823,4842,-889
69,-25,25,-6106,4455,-671
61,-90,122,-3032,-6756,352
121,-126,-64,-11805,-1815,273
-47,-35,-32,-12801,-1137,-1846
-11,-46,-11,-12700,-120,-1397
68,-44,69,-9854,-237,-396
-85,114,-55,-2067,-3725,992
-116,64,-15,2270,-8241,3854
-13,-44,-11,-3812,-3060,2781
74,-7,-10,2280,-2732,2662
91,-87,57,-310,-3613,3330
-79,-109,-69,-1661,-2783,1945
-41,-13,-71,-1739,-4308,2186
-64,25,-78,-27,-1543,677
-11,-21,-20,2491,393,-1643
81,113,74,264,1113,-524
27,43,15,188,-318,154
53,52,47,277,-238,598
97,122,36,-530,587,-204
89,49,7,15,402,359
104,99,-27,-247,29,333
117,93,-40,34,99,146
122,108,-54,-348,193,59
126,-96,-48,-1513,313,-179
-128,-52,-6,-2597,761,-674
83,96,-6,-572,-228,92
94,-111,30,-698,-458,294
105,-100,37,-447,-229,255
103,-99,21,-105,-361,175
88,-115,-6,-118,-555,289
72,-77,1,-839,-648,260
71,-89,19,-183,-914,-4
-82,-90,-107,-1185,5001,-3642
35,-106,113,468,3924,-3885
107,-85,-79,4379,3309,-4088
-107,23,114,6512,1641,-3659
-26,-7,-38,9776,-1738,-1457
-41,-39,-46,7957,-1707,-1053
61,-99,39,7324,-314,-1330
23,-122,79,4669,2609,-1240
-106,3,-60,2963,3517,-1415
32,-94,112,-5194,3925,-453
-112,110,-74,-365,-1112,-75
-68,37,87,-4813,-3073,533
-112,-58,-102,-10212,-2615,-356
-128,78,81,-12562,-881,-1563
-71,83,-69,-12538,643,-2508
-14,94,-48,-8905,-538,-1261
-37,-92,39,1585,-4845,2970
-37,-128,84,1561,-6643,5467
26,51,61,-2499,-4570,6535
-3,77,9,236,-2090,4240
102,-23,-45,812,-4148,4176
-7,-51,73,-1381,-1681,2247
20,-77,76,-528,-1417,980
78,98,-28,1747,-47,-1237
-34,-54,-98,122,966,-180
-57,-9,99,-956,-564,420
-32,-62,-115,489,-256,428
-11,-54,113,437,175,-85
4,-23,117,-480,269,228
31,-31,100,247,248,-221
39,-71,31,1616,-475,383
-33,-43,60,-1367,59,-80
-27,-46,33,-1008,-641,169
-5,-54,42,-709,-270,149
-11,-52,36,-416,-294,168
-23,-39,37,-387,-309,298
-23,-14,43,-744,-265,337
-28,-7,57,-439,-468,477
-14,11,70,-611,-136,415
-7,31,70,-388,-170,361
-4,-101,98,-1569,2819,-4434
-98,-95,-25,816,81,-4706
109,-65,51,4122,106,-4909
-79,33,49,3981,-1927,-4884
53,23,-8,4066,-1781,-2995
-118,-24,118,8806,-5361,-1340
69,-114,84,3882,-1088,-1461
-81,3,-50,2943,934,-2199
-115,49,78,3524,2201,-1877
70,-66,37,2259,4492,-2007
-9,-77,-19,-1008,5631,-1678
-101,88,-41,547,-629,-860
121,-70,74,-2087,-4661,1792
26,91,17,-7817,-4185,1645
91,-76,-35,-12696,-2237,679
-29,23,123,-14796,205,-930
-113,-94,-61,-12577,278,-867
-6,32,-111,-5491,-803,492
-72,-70,83,6760,-6696,3642
-66,-107,73,3890,-5771,5063
98,68,-49,-2294,-50,4550
73,52,86,1937,-2219,5263
-21,-125,-82,-75,-1919,4751
16,-89,-29,-1022,-1886,5208
65,-124,-8,-44,-1385,6146
-63,-125,-114,-921,-980,-1214
56,21,-54,2442,37,-2337
5,81,-89,2059,952,-1591
-97,19,122,142,75,1
-73,59,124,-628,98,372
-24,90,108,-716,41,-48
11,-113,127,-1604,401,-24
23,-92,100,-496,264,-88
32,-76,87,-249,248,-92
20,-73,76,-427,117,73
-5,-86,76,-292,-129,258
-2,-59,95,-1015,37,370
27,-49,95,-490,-32,319
37,-44,108,-235,-483,354
17,-23,105,-350,-68,224
-96,-23,-42,2652,-4172,-6181
-65,-61,116,-3707,230,-7263
-13,-101,83,1302,-2365,-6012
-127,-38,119,3065,-3562,-3727
96,10,-61,6985,-5425,-1341
-93,-113,26,2930,3207,-1644
-99,26,-47,6025,4877,-2426
58,84,41,3213,4049,-1640
98,63,9,-883,3729,89
79,53,-28,-4216,-255,219
31,-52,65,-3764,-5323,674
-69,-81,-73,-8972,-1457,353
101,-49,28,-10755,97,1122
-28,122,-48,-14509,1091,1124
-117,-90,-121,-9420,-1238,1695
119,-93,86,-113,-3083,2272
-21,-103,9,9695,-4175,2235
30,-58,-79,-300,-5335,7364
65,-9,61,-1358,27,5964
46,97,21,4293,-1582,5758
-58,-42,-35,-1365,-4235,2953
-18,104,-58,-70,-1622,-2522
-85,3,-110,3662,2364,-910
53,100,-50,182,1949,-138
-92,-83,-30,-2831,-1750,912
-72,-121,71,-696,-1339,1051
27,-88,124,47,456,-40
88,-104,92,590,714,-841
73,109,41,914,131,-1677
69,49,4,1006,389,-2242
76,-8,-4,275,239,-1707
43,18,14,-1186,-131,-771
19,40,23,-1105,-25,-635
-18,67,36,-695,193,-447
-39,69,9,-155,2,-223
-45,78,-5,-388,-136,122
-40,100,-3,-827,-105,577
-39,116,-3,-815,-292,946
-18,-121,23,-963,-438,1381
35,-103,91,-1176,-200,1834
56,-26,66,4309,1137,-3947
-123,49,-110,1664,721,-5756
121,105,35,3705,-1198,-6640
25,19,-10,2446,-388,-5508
-65,10,41,3215,-1387,-2942
103,-56,70,3480,-603,277
63,79,43,6937,-1872,1593
54,-61,48,4988,1233,680
-25,-92,30,3266,3578,-596
-18,-26,-57,1628,3720,-696
-85,-49,-40,-969,-900,-372
85,23,-19,-1281,-5006,1248
118,-94,72,-6001,-3378,1269
-78,-53,17,-11385,-853,705
-125,-51,-91,-12820,817,-595
48,79,-37,-9996,-32,-7
-2,115,-14,-6776,-2649,1379
80,-50,68,-631,-4589,4224
49,102,37,2885,-4917,5380
-94,20,65,4054,-1280,4794
-56,-6,-82,797,-959,6561
-5,-84,116,151,-1328,6960
90,-96,52,-934,-3995,3273
-7,67,-113,-1453,-2356,-1363
65,-45,-43,2084,679,-508
-11,-12,94,2108,1209,245
-34,58,-17,437,102,-56
29,69,-12,-861,14,-593
86,55,0,-1290,403,-1531
114,6,5,-860,192,-1879
107,-6,21,-371,124,-1960
108,-12,24,-361,217,-2022
69,-3,29,-632,-44,-1640
34,-2,34,-486,-27,-1216
-7,16,55,-457,28,-841
-46,21,40,-170,-59,-398
-77,28,35,-243,-205,85
-90,46,36,-574,-96,830
-72,74,39,-904,-155,1434
-22,84,48,-766,-111,1878
70,-98,-74,-5480,1607,-567
62,111,105,-8287,1130,-3583
-100,13,126,3623,-89,-1319
44,105,44,1651,3746,-4097
-103,-66,-93,1946,1327,-4053
81,23,-74,3035,296,-3084
17,77,-111,3731,-879,-3762
-59,81,92,2777,81,-3726
77,69,13,6961,-703,-2027
55,-100,-24,7172,1373,-2375
-13,28,-98,5862,1673,351
118,8,-85,4156,3282,308
112,44,-104,-890,4802,159
-15,-116,-34,-2061,4036,-1830
125,16,13,-44,-1341,487
-125,-101,24,-2945,-4143,473
-31,126,-115,-8723,-3288,-1127
-93,-67,-70,-14372,-2648,-2433
27,51,24,-11413,-2846,-3354
68,-97,-19,-9460,-846,-1713
-116,110,-5,40,-2985,1619
-73,87,-123,4510,-4586,3549
123,14,25,2749,-483,5486
-117,30,-79,1545,-565,5287
121,-26,55,-2105,-1372,5309
93,-4,93,931,-3713,4350
48,38,-47,-1237,-2812,4234
67,60,53,-114,-1649,4347
56,112,-79,1921,-270,2585
-74,-35,104,888,-350,-133
58,107,80,483,413,-1276
33,0,62,504,590,-1435
5,-50,25,423,105,-863
7,-3,19,-955,-98,-738
38,6,31,-1319,-112,-1051
48,-1,62,-863,-112,-1001
29,-6,65,-173,-137,-937
11,-3,66,-89,-85,-802
0,21,55,-465,-68,-568
-15,30,60,-618,-46,-340
110,45,-78,-367,2785,-3999
-7,24,-17,2166,1024,-4102
-67,92,-8,2156,519,-5768
54,57,30,2561,-452,-6126
-84,51,61,2891,-242,-4344
-76,-74,77,7834,-2409,-1866
-26,-114,88,6297,61,-430
-54,96,53,6921,2987,-1464
-17,-44,-62,5134,2299,-755
-113,35,92,-1696,4990,-705
-125,-62,-83,-2326,1207,-919
-10,-64,-45,-1250,-3712,1261
33,27,-69,-5714,-2644,417
24,-76,2,-10539,-1414,35
-35,46,34,-13969,-522,-1388
-73,-103,-82,-11183,-1220,-739
75,-63,71,-8308,-883,521
-46,8,-64,3369,-4747,2843
63,-36,-53,6623,-3169,4742
5,-128,64,2280,-423,6002
-123,-39,50,2269,-598,5700
-82,63,-30,-304,-525,5542
-122,-42,54,-2188,-1393,5550
126,-40,123,-1820,-1562,3348
-52,66,124,971,-995,-695
44,-86,96,3070,-708,157
13,-17,64,1062,48,502
-9,22,20,-974,506,-353
0,-27,3,-568,-99,-627
29,-38,26,-354,-48,-1127
64,-54,22,-231,26,-1521
78,-65,0,-478,-245,-1736
91,-57,7,-795,-231,-1756
50,-53,-22,-243,-482,-1775
37,-45,-11,-324,-71,-1260
9,-42,-1,-496,4,-826
-48,-17,0,-797,-98,-314
-60,3,10,-866,-108,19
-75,10,15,-561,-189,395
-58,28,21,-463,-160,997
-94,115,-68,5922,-2380,134
-83,59,-70,4423,-883,-343
-57,58,-32,597,894,-481
-26,51,-64,-4164,2600,28
34,-53,59,-8813,3407,325
54,89,-4,-8183,1546,-103
74,-124,-30,-3354,-724,798
65,86,-116,1166,-1589,1558
125,-114,122,2983,-848,1115
-124,-36,74,275,-349,562
109,-18,59,-1645,-5,169
79,-62,75,-1565,-123,48
89,-83,92,-794,-304,297
89,-11,92,-1422,-106,-219
77,14,97,-1834,94,-702
55,-21,109,-1075,67,-617
35,-42,109,-577,32,-624
42,-3,-115,-2727,858,-768
5,-28,-112,-2426,309,103
13,-20,-61,-1441,-321,330
62,48,0,-1878,-142,437
77,70,50,-1008,-176,244
59,51,47,-375,48,18
39,47,41,-921,-115,400
61,67,51,-1210,170,276
67,62,47,-659,98,92
78,108,73,-1616,-79,273
49,97,96,-1358,-601,407
50,73,-125,-1005,-519,633
64,69,119,-776,-150,527
95,55,94,-754,107,525
111,78,50,-777,-302,206
47,81,68,-1097,-420,77
106,76,-127,-1328,133,103
-115,83,-83,-321,-251,-343
-91,-30,15,519,650,-1777
-97,80,36,-577,1357,-2664
65,36,-12,-490,1417,-2251
75,126,5,2075,1140,-2685
18,56,-18,5512,-1311,-3821
6,46,23,2619,1786,-6187
-47,26,-106,6053,-1065,-3786
-50,-112,-94,8102,-3986,166
56,-77,-74,4506,7,-477
14,62,-114,3419,2630,-489
26,48,-71,1811,1341,97
-55,-58,46,-1356,-864,-728
-49,-47,-51,-3644,-4534,722
65,46,10,-11649,-614,951
64,-81,-82,-12387,615,1743
-53,-88,-14,-13646,1084,1835
-73,-79,16,-8843,-1742,2950
-91,-87,12,403,-7368,4532
-122,-37,34,-1382,-8795,5499
-123,44,64,-1955,-1178,3172
-106,-91,12,-473,-2367,3367
100,-78,124,-600,-2552,23
-24,-20,-4,1861,1159,-2418
-119,-81,88,-369,2860,-1119
16,-83,-39,-147,-1253,872
86,117,-49,1929,-1058,829
-87,-8,-49,-776,1014,-438
122,125,-91,-97,7,-68
122,115,-94,-262,99,4
122,-126,-102,-627,183,-38
108,120,-100,-477,-83,74
102,-122,-92,-422,-170,151
101,-109,-82,-524,-99,123
101,-99,-69,-612,-161,182
105,-99,-60,-481,-52,162
102,-88,-59,-575,-73,153
98,-104,-62,-282,-80,203
104,-83,-67,-533,-86,156
94,-99,-71,-272,-59,169
91,-91,-79,-560,-111,260
96,-86,-79,-334,-116,149
99,-77,-80,-544,-134,170
91,-84,-74,-523,-182,225
92,-78,-71,-446,-168,172
87,-80,-65,-546,-170,193
-73,99,95,5758,1372,-7367
-31,-98,-36,1970,4355,-4599
-103,-127,-78,5728,-6757,-4759
-35,-38,-117,3860,-4976,-5652
-38,5,-14,1122,-1365,-3222
21,97,3,5920,-3387,-1122
-61,-6,66,3571,1406,-1306
77,23,76,5136,3223,-2051
-20,-100,-61,1154,4475,-1037
110,60,87,-3800,2768,-1237
107,-58,127,-4244,-7405,983
-118,-42,-58,-15121,-1726,360
-117,-5,-18,-13692,310,-1359
31,19,94,-10535,-572,-938
-44,99,15,-5144,-2987,2602
1,-78,-124,1532,-6651,5587
75,110,-43,-772,-3680,6750
-27,34,36,907,-2173,2487
-58,-30,35,2785,-4136,3461
-107,-61,-122,-3324,-2027,3616
43,-83,-52,-2916,-3250,2906
55,-40,115,1131,-1839,-287
108,39,-14,3843,1092,-2575
33,-53,71,1100,1455,-920
3,122,62,-3198,-115,597
19,-19,107,815,-438,350
51,40,111,227,535,-157
43,-8,71,-88,147,41
68,-1,79,-164,243,0
73,0,50,-270,221,-219
65,18,57,-956,95,-68
48,27,79,-829,-65,169
63,42,100,-692,-116,79
65,58,126,-750,-51,71
32,51,-122,-315,38,-1
35,72,122,-814,100,88
36,73,117,-514,-80,164
52,89,-128,-337,-223,351
39,94,127,-207,-384,347
62,-122,-111,-809,-75,275
123,-23,111,1934,1916,-4590
-87,2,-92,4592,-1138,-4434
55,85,-115,1378,1569,-6371
63,-6,-112,6716,-3649,-5303
19,-15,-124,8032,-6244,-2915
-118,-96,-64,3514,-4159,-446
17,27,-15,3017,1726,-834
-115,-23,12,3955,3512,-1340
27,-66,2,561,4644,-454
-69,0,35,-2121,2819,-632
-54,73,0,-2918,-4945,259
-63,-89,-122,-12020,-1291,-683
40,3,73,-11602,-701,-1416
-96,14,-56,-11155,155,-885
2,112,-111,-8792,-651,165
-17,-108,-84,-1949,-3786,3751
-41,-91,98,2591,-5987,4936
-69,60,-67,-6191,-3361,5310
83,-112,-39,-237,-4346,3639
-52,-113,52,2807,-3622,2947
77,-106,-128,1312,-1295,3218
126,-2,-22,-58,-1764,1684
-46,13,-14,-111,-771,9
67,87,-99,1104,723,-886
-10,-1,41,41,-358,390
8,53,64,-1228,-40,504
43,18,57,458,-391,29
53,36,54,-70,-132,-331
34,0,63,-707,155,-242
17,-7,47,-933,234,-140
22,6,59,-1145,395,-40
29,26,60,-808,59,-55
25,42,76,-853,162,145
27,67,82,-1020,-7,149
33,75,94,-744,-181,255
45,103,115,-955,-54,255
46,115,-128,-755,-101,138
43,123,-116,-872,16,232
49,-119,-95,-810,227,146
38,-126,-95,-480,-299,273
-75,36,63,3242,-1870,-3768
45,74,-97,4318,-3114,-6450
-99,-69,-33,811,-3521,-6060
-113,54,-109,343,-2572,-3869
121,-4,47,6411,-5004,-1657
101,122,125,6071,-2063,-2121
99,86,13,4610,2308,-2187
-86,-93,49,3282,4756,-1720
118,-75,-94,-2932,4696,-1225
115,-109,63,-1353,-3277,568
-10,-119,-62,-9113,-2252,1171
87,65,74,-13233,-494,135
-84,-49,63,-13707,312,-740
32,97,46,-10850,-421,706
-94,26,-93,-5671,-2397,2617
47,53,71,3233,-6599,5107
-23,3,-103,-2101,-2861,5186
68,-32,118,511,-4370,4081
13,-16,27,975,-1329,2654
97,-92,109,588,-40,2734
-87,-105,68,-3240,-1656,1578
-44,0,48,616,-371,-1793
102,17,-25,2254,1297,-1539
27,44,-125,-98,124,577
0,19,120,206,-1686,1194
90,-118,-94,-1050,-155,319
76,96,-84,-480,-145,79
63,66,-85,-166,-68,150
66,84,-101,-312,73,-31
64,79,-117,-512,152,-44
56,79,121,-450,77,-28
55,88,120,-541,-60,67
61,99,-123,-453,77,5
58,85,127,-313,-100,173
55,107,-117,-1065,25,148
50,90,113,-174,-439,405
51,114,-126,-462,-215,228
51,101,122,-131,-37,286
53,103,126,-473,-362,307
57,122,-113,-788,-97,214
44,36,23,2114,1145,-3893
82,-76,88,1329,4143,-5872
87,-125,-42,5674,272,-4226
-64,93,-39,3755,-680,-6028
-6,-77,-23,5370,-2722,-4123
-8,-119,-3,5003,-3070,-1962
-111,-74,122,5252,-3231,13
16,-54,-64,1116,1297,464
-15,70,47,2377,4565,-451
-38,51,13,1394,4118,103
17,-99,52,-1157,2134,-806
76,-31,-62,-1189,-2113,441
51,69,-42,-6111,-4783,805
-109,104,-107,-14224,-525,-194
-62,-34,43,-11719,-1080,-327
76,-27,-117,-11505,-845,-31
-110,13,103,-4661,-2279,1264
-81,-20,34,5245,-6070,3070
-121,-119,62,1921,-4989,5495
-112,-92,49,-1721,-325,2555
63,-128,91,2393,-2662,2769
59,107,-59,1888,-2002,1589
-18,-69,112,1308,-646,1965
-9,119,122,256,-1301,3026
-23,120,38,597,-1061,2072
-93,123,78,935,-1217,563
93,65,105,985,-650,-71
44,50,109,-786,490,-256
-11,-9,41,-326,-329,-173
-17,-26,33,-386,182,-70
-24,-11,-5,-510,-226,-170
16,6,-2,-1114,171,-209
20,6,2,-645,459,-578
28,-12,-7,-118,175,-525
24,11,0,-540,226,-515
-20,-15,-5,-509,-388,159
-14,34,24,-929,-11,284
-8,44,30,-452,-376,567
22,95,53,-968,10,484
25,78,44,-218,-167,789
116,49,-60,884,-1286,-5386
70,103,-7,-1703,826,-7642
-111,79,15,2532,-2355,-8603
18,114,8,-64,-2382,-8361
-77,56,-50,-1364,-1878,-5175
83,99,82,5399,-2582,-1592
-63,18,-39,5851,415,-155
-17,-105,113,4941,3847,-1107
-55,31,123,4599,3685,-1202
-41,-126,19,4227,3390,-1002
104,12,64,-3428,4320,-963
14,-4,-70,-2692,-5712,1233
57,-114,-12,-9720,-3663,1167
-18,123,94,-12376,-2479,-1547
-44,58,56,-12225,-16,-295
4,104,-87,-8863,-2574,2255
4,35,45,-2730,-5282,5023
-39,-12,31,3845,-7885,6085
-90,28,118,1709,-1689,4652
-34,108,-110,494,1052,4201
121,-25,-126,2211,-2989,3310
21,89,75,2020,-2173,3812
-55,-84,121,-134,-1988,4522
-112,8,94,-3187,-2378,770
32,-12,-108,1611,-722,-3360
-32,-81,68,5889,1655,-2300
-47,-42,-54,-442,897,-215
-96,-52,-83,-2110,-1144,1356
-8,47,-19,-1770,-23,239
4,19,-16,-211,322,-434
-34,-36,-38,974,-342,-375
-33,-20,-39,221,-8,-411
-33,-36,-41,-439,16,92
-35,-31,-46,-544,-183,292
-30,0,-34,-553,-21,339
-11,34,-37,-651,57,271
23,88,-41,-965,9,100
8,110,-32,-689,-76,-173
-48,31,-15,506,-354,353
-20,107,-19,-586,95,293
11,64,5,375,1370,-5642
38,125,-47,-227,-1625,-6281
-4,-23,-99,3776,-2776,-7526
125,-13,-45,232,-1104,-5280
55,112,115,6010,-2487,-1596
79,-118,121,8283,-2155,1153
11,-104,-117,3238,680,-1263
106,-96,43,2287,66,-177
-123,-124,-126,1591,3546,-1155
113,88,4,55,4277,-694
80,57,122,-2054,3162,-1142
-86,90,-113,-3840,-4967,656
86,12,86,-13250,-752,-1951
-120,93,-49,-10246,-2129,-2792
-61,55,-123,-9461,-1343,-1231
-22,89,-105,-8243,-1929,1657
-101,99,-39,1272,-4698,3404
-98,65,-94,5653,-1766,4853
50,120,126,651,72,5120
13,117,-61,-1717,-1891,6311
72,-81,-99,172,-2877,5931
-65,60,-1,-1027,-2237,4686
74,-127,-40,-1138,-1132,2432
34,-103,-67,-110,-1237,-1205
-79,-91,-80,2312,403,-1969
98,38,65,2669,1108,-1511
48,76,9,307,123,80
48,118,0,-1130,-440,-117
88,73,17,-649,72,-723
79,28,14,-111,-132,-583
68,32,5,-88,-366,-462
36,31,20,-260,-461,-245
7,54,52,-1049,-278,410
22,110,66,-1347,-9,371
43,-96,73,-1318,55,229
45,-117,70,-359,-51,184
47,-102,59,-234,-160,278
56,-61,62,-852,16,268
55,-70,61,-583,-15,262
49,-58,55,-459,-87,285
22,-23,42,-7157,852,681
4,-88,-2,-4896,-1860,597
-72,113,-60,418,-325,-542
-47,66,105,4251,3640,-5614
69,110,55,3361,1086,-5779
-17,-50,37,515,691,-5982
87,-114,-124,-4825,2913,-5160
0,-96,125,2353,1006,-3433
29,-92,-63,8928,-1537,-642
96,-69,-64,8115,527,-2195
71,11,-66,4091,1260,-34
87,10,83,1139,3256,1551
21,53,-75,-715,3374,2430
50,36,-21,-6175,1269,-40
-89,-36,-51,-8453,-3083,-1135
101,69,68,-12325,-1146,-1893
-16,-82,52,-7802,-1270,-1440
71,-105,-112,-4618,-1049,-986
-88,-18,60,1881,-2243,-247
5,116,42,1100,-5538,2612
94,50,19,245,-208,1848
42,-82,-59,648,-323,4245
107,-14,8,1670,-1527,6741
100,95,-35,2467,-2975,8115
-59,-32,-7,2076,-3881,5347
9,-114,59,-275,-1677,1183
105,-47,125,15,-416,-889
13,25,31,1407,36,-1326
-6,60,37,8,-898,-675
-42,15,75,-234,-517,-256
-64,22,112,-1223,681,-216
-11,0,67,-1193,1029,-207
11,21,18,-1825,442,-530
23,-10,42,1033,-349,-438
48,57,76,-50,616,-638
16,57,10,-228,627,-457
28,61,-8,-480,445,-45
28,68,-27,-108,181,-246
16,67,-39,-57,-71,-25
6,84,-23,-483,-134,6
-108,-54,127,2440,-488,-4921
-126,-61,-8,-68,-243,-5566
-8,-70,0,4608,-2533,-7277
125,-118,-25,1974,-3461,-5607
-78,-19,98,5059,-3291,-2283
16,113,55,5531,-1783,-959
77,97,-24,5279,891,-1341
-37,-2,-79,3100,3657,-1779
49,-59,-86,69,4030,-272
-30,-20,99,-2103,1950,-934
-41,109,-52,-4464,-6748,2474
117,40,73,-12218,-1051,676
120,-111,-89,-14972,259,-1207
65,111,-49,-12646,-496,-909
-67,-43,61,-7143,-924,1916
95,98,122,5239,-5057,4735
-89,20,117,6577,-5538,8535
-124,85,60,-4766,2659,3353
58,114,56,3636,-608,3647
93,-13,-60,490,-1276,4320
124,-48,-9,-3502,-1197,4560
-96,72,24,-3328,-2242,4177
66,-58,-29,-1124,-1245,1030
-124,127,-87,1035,514,-1896
49,-65,120,2702,747,-1354
21,-14,68,-53,177,-229
24,-20,58,-1139,-732,422
62,-13,103,-858,-390,-58
50,16,-128,-839,12,-379
25,-3,117,-138,-37,-387
17,8,117,-616,190,-457
28,3,107,-833,195,-165
31,12,99,-671,93,-111
36,54,97,-848,133,-38
31,65,89,-541,-2,20
31,82,86,-401,-142,22
34,105,91,-603,-197,158
28,103,112,118,-463,279
13,59,106,1898,-851,329
13,122,103,-438,-289,97
-20,-108,-58,652,2015,-5175
-97,-52,83,1110,-1473,-6981
-111,-89,26,1302,-2715,-6467
23,87,56,585,-2445,-3063
-119,-18,81,6108,-3618,-1198
-81,-75,-42,5049,2955,-1395
-87,3,-96,6463,4305,-1063
-55,-69,118,2202,5070,88
-56,119,69,-4518,3121,336
82,-73,119,-1479,-6625,186
-76,-6,18,-6875,-4261,-397
-8,-86,-78,-10157,-1837,561
-107,119,-94,-15797,911,1615
62,-68,-42,-6443,-75,2341
-85,-40,-13,-2802,-2236,2378
-111,-32,-95,3561,-5744,5373
43,-58,-49,-524,-4924,7371
-111,109,-57,-1414,-522,3370
34,-119,15,4567,-1636,2340
-36,110,1,2080,-790,4465
-101,-55,-123,-2033,-1773,698
-105,-97,-62,1747,-2444,-1544
52,-81,-85,2931,869,-978
52,-3,71,-874,1294,278
31,14,25,-892,-603,760
82,34,77,-437,-83,-172
70,-5,73,223,446,-105
36,-50,25,432,-283,-192
63,-19,43,-646,36,-276
47,-71,41,38,-295,-232
28,-69,50,-308,-202,-12
14,-21,80,-1341,-117,42
55,58,93,-1190,371,24
41,65,76,-358,289,-389
13,79,62,-291,-670,501
24,119,66,-888,-62,166
33,63,58,-449,-532,655
55,-122,81,-1231,-571,767
64,-91,-124,-772,542,186
18,102,108,-67,-346,293
-69,48,-89,-5768,616,-2792
101,-109,-4,-1409,-68,-2574
-66,-96,-121,442,-490,-5455
-103,75,15,1598,532,-7012
52,39,7,54,-735,-6448
70,12,60,1148,535,-4855
108,-47,44,7919,-2412,-5759
18,87,-116,8835,-824,-4219
47,67,-38,5434,2928,-4202
-44,3,103,-889,6387,-1407
-86,99,-74,-3331,6521,-1207
-125,117,-30,1700,-4784,945
45,123,52,-5199,-5017,2849
-53,-41,18,-8813,-4553,2839
-57,24,-9,-13670,1995,2697
54,110,6,-14813,991,3113
-34,66,-128,-8458,-1025,4613
36,-77,93,-710,-4905,4172
10,100,-39,6390,-8182,3808
112,14,-78,-83,1524,6364
-49,-103,75,1572,1615,3983
-27,-29,87,7958,-1342,1685
96,121,120,-28,-915,5891
-36,-78,-96,-5842,-2589,2002
17,-68,-43,105,-2026,-2961
21,-70,-65,4503,565,-1600
72,-35,55,2141,2325,-1964
41,-70,2,-738,268,-146
-12,94,-20,-664,-1189,961
44,-12,39,-1619,127,-33
38,-36,37,-761,-2,-181
17,-33,51,-532,-506,239
24,11,77,-878,-146,254
32,43,90,-857,68,2
23,11,87,-73,-206,86
9,7,89,44,-212,236
15,35,97,-667,110,330
36,79,93,-1118,231,119
27,64,81,-574,108,182
7,61,66,-206,-35,338
111,60,-83,2098,-2300,-4856
-45,-29,-38,2460,-3673,-6418
-99,-92,-108,1199,-4339,-5686
88,-34,114,270,-3288,-3814
-54,-115,111,4289,-2329,-2043
-29,45,-103,6724,987,-1324
33,-104,-49,4305,5911,-1059
-75,-88,-36,3760,4358,-332
97,-16,90,-971,3764,-696
-103,-79,71,-1895,-1594,168
-18,-114,56,-4039,-4588,1483
-1,66,109,-10817,-281,218
-45,14,49,-12713,209,-173
-94,86,-85,-10804,-324,479
120,-95,-23,-7844,-907,2176
-107,100,-89,-2429,-2532,2930
97,117,34,3092,-3728,4109
-18,16,37,-43,-1943,4634
-28,58,74,198,-1418,2764
-100,15,39,2678,236,1294
-61,-100,56,1219,681,1854
-77,57,-122,-63,-1197,2316
-42,-47,106,722,-1062,2124
