AccX,AccY,AccZ,GyroX,GyroY,GyroZ
-69,-27,-114,-159,-2048,5995
-5,18,-64,1177,-3125,7974
-66,-86,-13,-491,-979,7050
-68,110,-52,-766,-3278,2660
38,41,16,460,628,-4878
22,99,58,-1909,2721,-5621
120,-107,-55,-617,1312,-4509
34,96,-91,1726,3747,-5212
112,-120,-121,-719,546,-3707
118,68,47,-2055,-1534,492
6,121,-86,-19584,2345,-4522
16,-32,24,-7945,-121,-575
66,70,43,10040,-1728,8669
-27,2,54,-1329,364,3379
102,-30,-30,-2017,126,5836
46,41,118,4250,-1238,8276
-100,-101,-127,-250,1958,3142
-108,-34,45,2393,-98,3128
-1,26,25,2432,131,462
68,103,46,-598,105,-942
80,-123,91,-667,-658,-1753
124,-69,-119,997,-673,-2081
-89,46,-98,2025,-240,-2072
-90,36,-58,1552,-260,-1579
-79,52,-12,387,-363,-620
-80,48,-2,-695,-474,-70
-69,96,-19,-2003,-324,313
-68,-123,-80,-2243,-38,408
-81,-107,105,-1341,70,555
-99,-69,90,-287,-142,836
-89,-21,73,-401,-71,687
-60,25,40,-872,115,511
-53,51,31,-1123,-120,440
-59,60,19,-831,-288,146
-87,74,11,-617,-257,-343
-94,49,12,-165,-82,-618
-102,19,11,247,-81,-491
-97,8,8,252,-130,-264
-80,21,9,-297,-144,-192
-66,18,6,-320,-171,-243
-69,17,13,-174,-283,-186
-72,35,21,-404,-197,-143
-69,52,21,-498,-63,-105
-62,55,16,-246,-58,47
-65,68,9,-150,-145,85
-63,79,7,-193,-65,45
-58,83,5,-148,-100,78
-56,89,4,-212,-110,49
-53,93,4,-190,-92,21
-49,96,5,-141,-124,-10
-109,-16,-67,2394,-1766,-4530
-77,83,28,5158,-4116,-3708
-1,-5,33,-524,-5253,-794
-95,-36,-118,779,-3107,-848
-40,-44,37,631,-2167,540
-67,-93,17,2002,-1764,883
43,22,-28,3111,1184,1943
3,-11,44,1461,-801,4668
-41,9,8,43,918,7142
-107,-57,114,-689,-1691,6521
95,-117,41,-2908,-2817,-68
115,-15,26,-1971,1387,-4672
-26,5,-16,246,3321,-6413
-31,117,-28,373,67,-6485
-39,-49,40,927,3461,-5430
-35,-10,82,-4528,-1085,2363
10,24,9,-7316,-1196,-483
-31,46,-54,-13099,905,-2593
-19,18,18,-4516,2337,2386
73,-24,-87,3592,-1112,5280
94,82,85,2036,231,5638
57,-44,63,-1837,-177,6642
57,-93,-17,732,-524,4884
-78,-102,-11,2904,228,3156
96,-62,103,3565,1276,406
81,-101,125,-298,74,-918
28,57,6,579,-288,302
80,-72,65,28,301,-27
98,-106,99,-175,-231,-9
96,120,115,-45,-348,-115
120,113,127,-386,-122,-217
114,122,-122,-116,-271,-212
112,-126,-106,-324,-249,-186
118,123,-125,-5,-161,-170
-124,-110,121,-77,-24,-244
-128,123,109,594,-282,-301
-111,-111,94,187,17,-37
-114,-92,65,-654,114,-324
-112,-123,54,279,-186,-57
-101,-87,33,-193,-67,-103
-106,-82,31,-237,-203,-10
-98,-69,25,-242,-231,8
-89,-40,15,-621,-175,-126
-102,-52,13,-226,-381,-39
-84,-39,3,-186,110,-118
-58,-43,-18,48,117,-163
-60,-61,-22,636,-7,-158
-67,-35,-17,83,7,-216
-66,-67,-14,635,45,-108
-86,-23,-12,-378,-177,6
44,-112,-26,-10939,1963,-1480
-45,85,-57,-5015,2309,1476
111,65,122,-5158,1628,4319
59,-8,75,-1815,176,6548
-22,127,-17,-1953,-1030,7735
91,-55,-108,1651,-363,3515
-64,25,38,3050,-352,2126
-8,-14,-87,2045,-833,-874
-113,-27,-92,-943,485,-1199
-43,-43,38,-610,-253,311
-79,45,-17,-181,194,-242
-76,51,-7,-306,-164,115
-72,49,-7,-141,-8,107
-64,61,-9,-56,-163,102
-52,83,-20,-339,-79,116
-52,88,-17,-245,-217,-100
-64,74,-12,145,-252,-22
-63,93,-14,-250,-248,-96
-61,88,-25,-180,-107,-100
-54,96,-25,-446,107,-7
-56,89,-22,-143,-132,-175
-54,88,-18,257,-368,-111
-58,85,-18,-129,-189,-45
-53,96,-22,-420,-86,-132
-53,84,-19,-34,-224,-45
-54,96,-21,-135,-188,-85
-50,99,-23,-245,-110,-79
-46,108,-28,-467,-79,-77
-44,121,-34,-589,-36,-82
-41,117,-30,-74,-214,59
-38,125,-36,49,-183,19
-42,-127,-37,-158,-104,-22
-37,-125,-46,-314,-72,0
-40,122,-48,80,-38,20
-24,-122,-53,-94,11,-70
-13,118,-60,181,3,-76
-17,106,-61,449,-162,-11
-25,90,-64,516,-67,-42
-26,100,-59,-152,14,-113
-14,54,-72,757,92,71
-17,66,-69,262,-131,26
-7,77,-53,-292,102,-55
-2,43,-32,464,170,-40
6,36,-12,606,216,-24
72,8,-8,374,322,68
-37,19,21,477,-440,246
-32,60,68,-529,-171,2
-1,38,90,-175,17,37
-8,24,88,492,-297,154
-47,49,99,207,-239,-40
-119,66,-77,2156,-3456,-2733
0,38,67,3185,-5422,-1953
-49,-18,39,581,-6685,-208
54,-64,32,-357,-5114,630
-109,-99,118,212,-2759,387
45,-82,91,19,-387,274
10,103,-27,944,-369,739
61,-33,112,2648,651,4406
-117,-127,70,-95,-138,5725
84,65,-105,1340,2554,5901
59,64,-96,2284,-516,4212
34,-97,45,-4548,-1511,-496
-10,18,-112,-3080,-1159,-3840
-57,-24,-98,-5454,1909,-5987
-111,85,-94,1198,2377,-6107
82,-58,-111,2540,1815,-6829
39,-61,48,-7360,1176,1556
-81,-86,31,-1014,966,1079
-12,-81,52,-9309,115,-917
-117,56,59,-6382,2229,1400
-29,43,-71,330,615,5620
21,-7,-60,475,1612,6204
38,-5,-30,-4365,-308,7247
-12,-99,-95,547,-632,4169
-128,7,63,2408,-1655,1664
92,-81,-24,1928,-1184,948
-108,77,0,492,-467,-9
56,-49,4,132,345,-675
75,50,2,564,763,-846
-90,49,1,-718,1179,-410
-113,10,19,-1410,101,-1091
113,-54,86,-240,-767,-538
-113,-51,72,-64,-65,-659
-99,-76,63,346,35,-730
-84,-53,61,4,-201,-434
-86,-51,53,-73,-316,-266
-87,-35,51,-114,-433,-130
-80,-4,38,-293,-150,41
-69,6,27,-559,2,65
-62,56,10,-1282,377,222
-70,63,8,-1030,200,10
-71,39,17,516,-213,110
-67,50,19,662,-374,102
-60,67,11,78,-383,-9
-54,72,4,-293,-51,-30
-62,54,7,-113,-149,-64
-62,49,11,65,-259,33
-63,58,9,-69,-272,-79
-64,42,15,304,-229,110
-57,63,9,-291,-50,-42
23,67,-59,2297,-3393,-2419
72,-59,34,167,-4437,-2583
-33,-24,-34,1079,-4869,-2038
16,-84,-115,515,-3847,-703
107,-123,-49,307,-2290,157
-1,113,-52,103,-1760,338
25,120,-124,2437,-1274,1678
-95,112,115,865,-471,4074
125,77,-115,-733,-116,5116
126,125,-58,2213,978,7474
70,-28,-112,-1894,-898,5602
-34,73,74,-1326,-1333,-1996
-30,80,9,-1613,224,-5588
-70,117,-64,76,1979,-5690
-38,7,-56,-948,340,-4313
1,25,-25,3297,1931,-5030
53,-55,102,-2515,-553,-767
116,-109,-97,-1506,-218,-1553
7,112,114,-9530,242,-1138
78,19,109,-6909,1401,1748
127,88,109,-2183,1247,4490
28,84,-114,-2651,1894,4456
30,44,78,-2386,1619,6209
-85,-15,3,-1753,-714,5834
-109,-65,110,-1404,-1825,3154
46,-92,36,-592,392,-50
21,-21,56,464,-137,464
-110,-128,63,344,-1010,302
123,51,13,430,-71,-4
-110,-49,-7,575,279,-252
-90,-90,-16,802,106,-550
-82,102,-25,1033,-234,-779
-79,43,-13,263,-603,-804
-77,11,-9,-152,-229,-689
-83,-31,-2,268,-80,-598
-61,-27,14,10,-137,-206
-59,15,15,-536,-179,170
-67,30,4,-387,-81,12
-72,44,6,-139,-73,150
-45,63,5,-262,38,233
-39,85,0,-247,-49,212
-48,104,-5,-145,-76,32
-43,103,-11,51,28,-170
-37,98,-1,275,-62,-151
-36,86,-3,391,-41,-232
-33,79,4,268,-5,-183
-38,80,8,43,-20,-98
-39,81,5,39,10,-152
-34,75,7,89,-52,-137
-18,71,11,38,-14,-158
12,57,34,-675,549,7656
-86,-114,93,933,1310,7476
69,1,-123,-2333,-3797,784
95,101,-114,-1547,-804,-5017
124,18,76,-1836,1610,-6791
57,-73,0,-422,525,-3528
-2,-42,72,2485,2949,-5104
77,111,57,-2818,-272,-2330
-112,-126,-50,-3817,-581,1026
-1,-67,-89,-8957,1946,-2224
61,-28,-73,-8386,1720,345
-61,-69,110,-1549,920,4464
-84,-98,-87,-944,409,6491
-19,108,3,-2811,-639,7434
20,18,-25,461,-1612,5568
-18,-64,125,2804,198,2426
-47,-110,84,2708,-3,1118
-117,51,-66,-3886,-1705,-993
66,-23,-35,-37,252,-89
14,88,-34,598,1751,-1657
79,100,-14,-408,1424,-1207
-115,75,14,157,199,278
-44,19,46,1154,-372,-41
-41,-21,47,1678,-363,-344
-75,-18,71,527,-538,-427
-95,-21,91,-115,-413,-473
-71,-52,69,594,169,-440
-49,-46,65,630,111,-74
-53,-35,61,143,-22,-202
-57,-44,66,177,-61,18
-61,-29,64,-271,-1,82
-59,-15,68,-386,-102,247
-50,-2,72,-365,-110,368
-54,15,63,-358,-110,192
-57,6,70,233,-285,93
-55,17,81,121,-268,14
-53,21,83,-96,-134,-80
-53,37,87,-560,-180,-25
-51,29,80,-344,-170,15
-51,28,78,-6,-136,22
-54,35,59,-124,-76,-105
-50,35,50,-347,-172,-14
-36,55,51,-787,-195,-1
-34,54,52,-355,-237,28
-35,53,67,103,-323,54
-34,73,66,-257,-183,-19
-43,74,59,-310,-216,20
-39,80,51,-352,-171,18
-32,86,40,-342,-126,-44
-41,78,29,-116,-275,95
-100,72,45,1548,1272,6405
109,71,-36,447,1143,7644
14,-37,52,-1956,-3042,2957
75,-89,40,-1826,-1700,-4259
-34,-99,19,-1705,1096,-5840
35,-8,-77,-1351,948,-4367
-1,-122,41,2956,2711,-6854
77,-22,-116,-924,384,-2088
46,-124,-110,-1310,-1971,3295
-37,-42,-2,-1517,-845,-378
25,43,-10,-3374,1462,-838
-19,114,-83,-7562,1891,-1408
121,56,-9,-6847,1441,3600
70,24,-119,70,1639,6634
48,90,-108,-2580,1180,6388
-13,101,-78,1703,799,5371
-75,13,-97,850,-23,2039
12,112,-103,-1445,573,374
98,-64,-47,2905,126,314
42,-77,-123,1821,169,-830
80,106,-40,-1314,-137,-844
111,-52,-12,-257,403,-642
118,-96,30,40,-190,-147
126,-115,26,919,-234,88
-127,-75,29,126,140,-73
127,-60,57,-158,-158,262
-108,-26,54,-597,-42,136
-106,-38,19,-363,196,-142
-120,-18,24,-371,-261,93
-96,-43,13,451,-94,112
-97,-28,9,208,-69,53
-83,-20,14,-119,-59,91
-89,-30,17,168,-187,65
-79,-17,26,-65,-65,50
-69,-22,27,1,52,54
-69,-11,27,-67,-26,43
-61,-15,16,-115,73,-73
-65,-16,19,-82,-77,-2
-81,-18,17,0,-139,-39
-82,-4,23,-276,-90,-93
-74,-36,24,323,-89,-95
-57,-23,26,-99,-123,-20
-63,-31,24,116,-224,-18
-60,-28,38,125,-97,-8
-57,-18,42,-97,-232,91
-60,-8,49,-37,-170,122
-57,9,54,-146,-165,76
-48,19,47,-210,-120,69
-42,24,47,-26,-156,-9
-40,18,42,41,-157,-48
-33,-63,-95,6110,-2644,-342
-72,-20,-121,2881,-6147,238
41,61,-1,-84,-4455,607
-50,-2,32,-707,-3882,754
-77,52,-87,-391,-3405,925
105,-99,63,-913,-2544,607
-40,-69,-74,-287,-1669,824
109,-26,-84,-377,-1169,706
11,-46,109,-433,-611,396
90,-32,118,184,-108,-279
98,-79,-15,81,889,2304
123,-86,-21,2413,1626,5111
-53,-15,50,1622,3503,4909
6,12,115,858,2862,3162
47,-49,-28,-1593,-996,191
3,85,92,-2443,-2348,-2955
-24,-9,31,-2825,-648,-5784
-62,-115,-51,173,-561,-4748
-53,-31,1,2080,163,-5454
-32,0,-14,-1157,-388,253
-60,-23,-86,-784,-960,1859
-75,24,-126,-1221,-765,550
16,56,83,-1074,406,-281
-89,13,91,-4804,1498,-2057
-5,30,40,-7498,1266,4
81,-16,29,-7237,3162,2034
105,97,-111,-4085,2698,3910
118,-80,-67,-1423,1606,6663
55,42,-92,-43,1750,4287
-101,-37,29,-524,-62,3114
124,31,-91,1671,871,2498
112,-30,-2,283,-784,-488
113,51,2,668,-421,-334
113,97,47,998,-686,-1027
93,57,60,412,-1086,-663
117,17,53,634,-373,-232
88,-26,77,417,-299,-579
92,-54,85,273,-357,-434
97,-46,96,-114,-187,-70
107,-41,91,-421,-156,-104
120,-47,72,-147,114,-118
115,-23,59,-461,131,-68
121,-15,42,-283,-25,145
-104,5,36,-139,33,326
-88,30,27,-231,-31,237
-89,39,19,-263,-150,107
-103,51,17,-633,-197,132
-105,66,16,-876,-285,141
-106,62,18,-371,-249,60
-106,82,20,-445,-228,-121
-12,6,79,2583,-3506,-1946
43,-102,-109,1514,-4041,-1508
1,-12,24,658,-4180,-1572
-103,-107,-123,749,-4236,-425
-67,108,73,-1105,-3875,-131
112,-52,87,1124,-617,742
103,88,85,1641,-475,552
-118,-47,49,3467,-759,4693
38,-92,100,1502,873,5690
2,85,-86,2592,3094,7032
109,69,-56,-394,270,4709
111,-53,-90,-3245,-3097,-1410
58,-2,-92,-1708,-704,-5654
68,-47,122,-1881,902,-6172
105,106,-7,-1056,-948,-4533
8,-32,9,1309,2730,-5705
-3,-77,88,-2022,-1770,-47
13,-9,-23,-2572,64,1104
-62,36,96,-7887,-841,-352
-100,52,-25,-10179,4582,-1127
-120,72,-60,-1008,1268,3076
38,80,66,-4496,235,4226
93,7,-125,-404,1677,4888
-116,-103,40,-274,-770,6580
-69,-81,-51,-2947,-371,4060
-97,106,-115,4520,-901,2038
88,70,-41,1587,880,-10
110,93,-13,-504,-910,-838
95,29,120,1132,-764,-140
110,-32,118,869,23,-305
-126,-58,99,-245,-193,-171
126,-75,98,-702,-498,-34
-112,-54,81,-1099,-20,-325
-122,-56,67,-985,-69,-415
-113,-43,58,-635,39,-186
-115,-41,51,144,-86,-33
-93,-26,47,168,-59,203
-77,5,29,-438,69,55
-78,4,24,-414,-113,109
-86,17,18,-365,-83,83
-57,33,18,-570,-14,23
-74,42,7,-402,-206,26
-71,49,5,-453,-122,-157
-83,57,-6,-536,-193,-229
-67,71,-4,-789,-306,-111
-66,67,6,-369,-167,-156
-76,91,15,-423,-395,-92
-74,59,26,941,-153,-114
-61,56,-9,713,-68,-99
-52,99,-22,-1000,-176,-144
68,113,-34,2409,-2437,-3731
-22,-112,17,2741,-4171,-4277
42,86,-77,4894,-4964,-2624
-83,-6,-126,1482,-5464,-1742
-88,44,-60,1018,-3397,178
-91,87,54,134,-997,594
82,28,-63,530,-320,633
-41,9,-12,2658,-629,2600
49,32,-56,2076,-473,5232
29,-97,-123,751,1662,6529
-8,25,-120,2843,767,6461
75,90,11,-2050,-1828,2259
121,79,-81,-2167,-671,-3448
18,-10,11,-2395,990,-5819
-100,-10,-78,-2330,961,-4853
75,-49,107,126,700,-6246
-102,19,-37,-1287,784,-3706
-114,-8,-96,-1118,-2332,1281
64,93,-48,-2248,-889,1257
-117,-37,63,-291,1181,311
32,73,18,-2714,1958,-805
-43,22,-27,-5286,2122,128
-126,-53,125,-5909,2827,3042
75,-92,-48,-2743,2946,5238
87,62,-15,-3793,451,7118
-80,107,-16,-792,-1108,6025
18,-121,-54,5509,46,2123
123,-101,3,-176,-231,-681
63,67,94,1151,-852,-1078
59,46,-124,1036,-166,-457
94,-73,118,-61,118,-304
118,82,-126,-67,-253,-105
-118,109,108,-512,-114,-20
122,66,108,380,-377,8
-119,99,99,-155,-112,121
127,-115,91,-968,-202,163
-128,-116,82,-296,-167,239
-109,-89,67,-225,-24,4
-103,-86,62,-133,-370,184
-97,-80,57,-164,-192,118
-111,-55,47,-590,-251,103
-109,-60,36,-301,-135,79
-100,-47,32,-312,-149,-38
-104,-51,20,-101,-177,-36
-113,-27,8,-845,-217,-101
-102,-28,6,-778,-98,-174
-96,-34,-2,-181,-138,-123
-97,-17,-2,-113,-231,-55
-91,-14,-7,44,-239,-138
-92,-15,-17,-48,-238,-179
-59,16,-27,853,1996,6328
35,-99,73,1609,617,6859
71,40,-63,-1618,-64,2879
6,-33,85,-2507,-3500,-2213
53,-73,-14,-2704,-199,-6476
66,-84,70,-563,769,-6145
-111,-86,-77,218,468,-5115
-104,-57,-5,-2254,1566,-2835
-73,-99,-65,-1903,-2390,1606
-33,-31,-57,-4997,-451,-742
-84,-21,-107,-10978,961,-1216
76,-10,87,-5419,3725,1269
-65,40,-26,-5265,326,3097
-78,70,-95,-1483,-188,4475
-103,-63,-16,-193,-863,5552
-27,-65,81,-1859,-2092,5293
17,-49,7,3866,-993,4779
-11,-39,112,-743,-678,1215
4,-31,75,4091,-532,116
99,-65,92,-351,-149,-565
67,-72,90,195,542,-687
110,5,77,120,-74,-300
-117,-79,83,257,-574,23
-109,-110,80,17,-309,207
-114,-97,72,-364,-49,-114
-97,-93,70,63,-10,-153
-88,-103,46,811,-197,307
-94,-69,50,581,-312,349
-87,-57,41,9,-183,306
-96,-38,29,-613,-145,516
-107,-41,16,-568,-358,330
-128,-56,31,-90,-402,-63
-104,-44,35,-190,-115,-106
-86,-56,28,-203,-246,-16
-96,-46,21,-357,-308,59
-98,-21,19,-723,-189,28
-112,-23,13,-478,-203,-30
-104,-12,1,-302,20,-143
-91,-14,-18,-74,-89,-93
-88,-9,-36,-29,-135,-57
-92,6,-34,-180,-302,-30
-90,12,-32,-195,-306,83
-85,25,-28,-222,-206,-31
-79,28,-30,-172,-158,-99
-76,27,-33,-166,-221,-72
-83,33,-32,-241,-297,-42
-80,43,-29,-373,-260,12
-81,50,-30,-280,-202,15
-84,59,-28,-199,-234,31
-73,62,-34,-149,-108,-55
125,-80,-80,1391,-3936,-2702
-34,-32,-124,1929,-5128,-2926
-15,-125,89,1748,-4613,-922
85,124,32,-794,-5914,557
-91,100,42,-884,-868,193
-1,-44,37,686,-616,383
-94,-41,96,2592,-390,2424
-55,115,13,817,-226,4547
59,-48,-58,1080,2489,6281
85,110,63,211,220,6027
98,50,-4,-1280,-1442,270
-24,62,-53,-2627,-1629,-4427
-81,-33,10,-2664,1071,-5954
106,-14,64,-1991,181,-4174
25,-114,-85,811,2654,-5323
61,113,-108,-7559,1136,-3430
-101,-128,14,-9041,1289,-833
58,36,107,-4938,-1458,302
104,-24,-62,-3529,74,3011
-23,97,-10,1213,797,4703
-36,-120,-67,-3083,-98,5133
12,-63,-20,251,-999,6539
102,-112,35,584,-1030,5735
71,-87,51,-1194,-1135,2803
-93,49,122,-22,-241,-487
-31,-34,92,3408,-119,486
95,22,18,1907,-368,-313
126,-86,-8,-1098,107,-731
-117,41,-4,-459,-541,-312
-124,-9,13,265,-890,-188
-116,-38,5,491,-511,-259
-114,-32,10,134,-79,-394
-103,-36,10,152,-100,11
-91,-25,1,68,-184,-71
-85,-36,-1,536,-106,112
-75,-10,3,-137,-125,218
-118,11,-7,-84,-108,172
-109,-16,-23,206,-198,-1
-78,-5,-13,-503,-181,291
-70,-4,-20,-269,-111,304
-78,25,-14,-414,-194,194
-100,32,-19,-348,-144,28
-76,61,-9,-816,-67,-48
-82,57,-26,-465,89,-231
-75,32,-41,119,-122,-212
-61,58,-37,-493,-243,-28
-47,65,-41,-462,-89,-185
-66,56,-38,142,-163,-312
-77,42,-47,303,-278,-274
-64,39,-41,-121,-231,-8
-88,-100,-5,1096,-4340,-2722
115,-22,-70,1586,-5372,-1690
-7,-71,92,-148,-4280,-1136
-96,67,106,25,-3370,-377
80,22,-111,117,-346,-267
66,71,79,2069,656,426
-89,73,-70,2294,1009,3574
-21,-11,111,782,39,4462
-26,-86,80,407,1378,7307
-100,115,-62,402,343,4842
-62,-84,87,-2103,-2779,346
-43,30,-118,-1977,-1103,-4375
-107,96,-112,-3071,1210,-6358
-71,-37,-81,-718,1245,-4014
8,32,-19,2155,4263,-8348
-17,-78,-72,-1710,-2339,203
-32,109,-77,-4536,-1381,-40
36,-80,102,-9646,-259,-2835
-42,-54,104,-9131,1179,315
-61,88,-106,241,-670,5232
65,23,24,-1232,-64,5242
53,99,-43,-4102,-67,5419
-111,-80,3,-90,-1127,5463
-83,-72,-109,750,-957,3479
16,-46,76,2291,-244,2249
105,-106,0,-65,-336,305
92,31,33,1782,-1119,293
115,-54,-14,536,219,-74
-126,96,-10,-650,453,-777
-104,7,34,312,-280,179
-110,-7,25,374,-560,-85
-93,8,33,-679,-211,-378
-75,-29,42,-450,-32,-137
-85,-30,41,144,-322,290
-95,13,36,-436,-137,319
-94,43,11,-620,84,-60
-79,9,-5,253,-14,-129
-69,21,-15,-111,-225,-101
-62,0,-26,-12,-259,-145
-57,-2,-12,-104,-355,103
-63,19,-9,-411,-301,321
-76,65,0,-700,-291,144
-57,58,-2,-166,-162,-64
-61,46,0,212,-313,0
-66,59,-7,-246,-197,63
-71,55,-15,-318,-168,-32
-71,45,-20,-59,-176,44
-58,51,-27,-125,-184,30
-59,54,-28,-168,-229,32
-66,60,-30,-183,-221,-28
-104,3,119,1607,-3802,-2781
-36,2,45,1811,-5533,-2140
127,-97,40,31,-4788,-733
-76,96,-15,429,-3373,-1066
-118,-126,-56,-837,-2937,173
91,30,-71,717,-826,413
-89,-12,124,2303,-271,521
-19,4,-125,1913,-870,4922
8,-69,-32,1086,2011,7239
-9,8,-126,-1170,2588,7769
-57,42,-92,1948,-1929,1414
29,-77,-23,-3726,-2289,-3390
-80,-53,-18,-1837,330,-6086
-39,-5,46,-2023,585,-5210
79,32,48,2516,1435,-4816
-54,-4,127,-121,2077,-3657
-40,114,-27,-2351,-2352,1997
-63,-87,-8,-3528,-153,-449
-124,21,-88,-11959,627,-1879
83,45,57,-7647,3126,1300
-127,-50,-68,-4155,-559,4779
-3,-118,-79,169,-263,6484
-4,6,24,-1317,-1623,6493
43,-70,-121,898,-365,4193
94,-100,113,2296,-1538,3227
118,14,33,1745,660,-222
-76,39,-61,875,290,-140
68,-19,-8,1244,-1078,-46
123,-117,8,102,-432,-265
-125,34,42,-109,-419,-394
-95,-31,49,98,-132,-479
-90,-56,55,446,-339,-369
-106,-86,59,464,-329,-9
-110,-28,65,-408,-190,206
-89,-19,55,-290,-38,90
-76,-9,53,-54,-79,106
-78,0,32,43,-191,88
-80,10,29,-235,-155,150
-79,22,21,-348,-177,158
-73,23,15,-193,-119,145
-68,35,5,-377,-160,94
-71,48,2,-353,-226,0
-65,30,-3,82,-166,-143
-74,38,0,-232,-246,-140
-69,2,-7,240,-141,-192
-73,-20,-5,80,-421,160
-86,52,17,-1195,-462,549
-87,87,13,-975,-86,-37
-56,31,-12,683,92,-406
-35,18,-9,470,-348,-90
-103,98,-23,1437,-4814,-1779
-30,-36,-113,496,-6137,-757
-121,-125,-122,-1197,-5793,-632
49,111,-78,-1254,-4034,-214
89,72,-9,-76,-443,-207
-42,4,-119,692,-124,800
93,26,124,2871,-100,2441
-39,69,-126,1656,-809,3823
-20,122,10,1033,2006,6744
22,-93,-108,1211,471,7874
-5,-16,-111,-1220,-1869,1449
-68,-64,73,-1400,-1111,-4578
-77,-53,93,-1885,982,-5159
4,32,53,-1350,468,-3685
-58,-69,63,-578,1312,-5210
119,87,-40,424,670,-4432
-64,31,-125,-2460,814,-728
84,35,74,-4576,-1253,785
-84,-63,44,-10239,-377,-2011
53,-103,120,-9346,2447,89
81,-36,109,-4064,342,2769
105,-5,6,3315,-1593,7038
87,-82,28,-3506,-464,5474
-120,51,-116,-1801,-1999,4928
8,24,77,3982,-152,4323
20,47,41,543,-675,775
67,46,17,2930,-1353,1148
98,-119,-6,422,-817,-474
47,-112,32,969,119,-203
-117,78,4,-670,1661,-122
-46,-12,34,-640,425,357
-66,7,48,-134,-888,741
-105,36,69,-501,-1015,-30
-116,-22,40,108,-209,-549
121,-56,44,667,-40,-318
115,-77,34,801,-248,28
-90,-20,30,-521,-229,76
-97,-33,25,-31,-280,-5
-96,-24,27,83,-405,51
-108,-6,14,-98,-353,-47
-109,0,7,-72,-348,6
-95,9,-3,-117,-248,-48
-96,20,-3,-109,-321,-53
-93,29,-1,-148,-267,-236
-84,7,-6,246,-222,-293
-81,-6,-6,226,-329,-166
-78,3,-3,-201,-246,33
-73,21,-3,-474,-175,71
-86,33,0,-359,-257,42
-97,50,3,-482,-199,126
3,-45,-11,-292,-6029,-2054
2,111,88,-208,-7458,-617
-90,-81,-95,-1872,-5032,560
29,58,115,538,-309,-741
86,-100,85,-1425,-367,330
108,1,-108,493,616,1212
97,-85,18,5045,2288,1427
61,-32,38,-1961,-1057,4584
45,-24,-125,2586,737,8328
-69,50,35,-505,-151,6652
42,-51,84,-912,-1614,1836
21,-18,-126,-2636,-1031,-3904
-88,-16,-119,-2253,90,-4887
-51,15,18,-1481,1459,-2999
-108,-83,-4,-846,555,-5713
41,78,103,924,1644,-5997
72,94,-88,-3232,-1785,-545
-116,-88,101,-5582,111,11
-45,43,7,-8724,-734,-47
-51,-54,-109,-9441,900,-345
62,-3,69,-5252,1261,2714
-17,-45,-68,3154,-1323,6991
-62,42,3,1324,-1322,8497
81,-81,89,-2715,-1032,5305
107,-2,68,2019,-340,3979
43,7,60,4945,-652,2662
3,-83,121,706,-269,-505
14,67,-27,-184,-1206,-548
71,-57,-18,-338,-272,-521
114,72,6,-2,28,-837
96,-21,8,260,-226,-511
86,-33,7,37,-502,-137
103,-15,11,-810,-436,-87
106,-37,29,-209,-279,-45
107,-19,24,105,57,92
94,-2,3,129,-29,26
109,31,-29,-84,-318,118
-125,28,-32,47,-258,26
-124,29,-47,-182,-72,30
-116,26,-60,-479,-108,66
-104,56,-49,-1040,-368,230
-114,73,-42,-637,-128,-151
-115,51,-40,229,-166,-356
-119,43,-38,196,-319,-210
-114,44,-46,-178,-273,-131
-102,46,-38,-254,-263,33
-89,40,-56,7,-141,36
-97,63,-49,-127,-393,-59
-106,51,-46,69,-184,-161
-110,46,-42,-8,-301,150
62,-90,95,335,-5025,-2936
-31,97,113,2269,-7709,-2324
-109,102,-69,-1127,-6900,-1423
9,109,54,1579,-5558,-44
94,-29,-37,53,-307,1067
107,86,116,1036,799,233
92,-28,-22,2834,-3696,4687
51,-121,47,1187,2044,4775
-28,122,49,619,1334,7774
-61,52,74,2250,401,3185
-13,-86,66,-4006,-1504,-2586
-100,-108,-71,-1025,620,-5882
-35,114,-32,-1632,1423,-5759
30,-12,-106,-1014,-450,-4428
32,-56,-58,-5118,811,-2053
14,84,-13,-3163,84,-472
-3,4,42,-7312,-287,-707
-36,-16,-50,-5790,652,1046
91,-12,-63,-1870,2276,3271
91,-64,56,-1088,831,5574
116,-66,32,-1426,-470,6841
43,112,126,-2702,-1327,5458
-114,-22,-125,1812,-1164,3419
81,85,81,2918,174,2191
-66,-55,-5,1041,-1038,-73
56,86,-20,1890,-163,-754
49,-112,-25,420,941,-903
93,0,-18,-469,5,-607
70,-75,-4,77,-1453,442
122,-72,-9,-16,-832,282
124,-112,-10,352,-242,-160
94,-104,20,446,-164,-278
120,-88,18,163,-47,-160
119,-89,34,711,-529,404
107,-67,11,456,-416,383
111,-32,0,-570,-208,205
112,-51,-32,-602,-93,251
110,-40,-37,-468,-105,76
99,-47,-50,-321,-277,192
119,-40,-55,-677,-74,134
124,-39,-77,-1096,-3,218
107,-23,-89,-981,-198,310
111,4,-84,-688,-64,79
104,-4,-89,-155,-153,-1
112,4,-98,-361,-107,-87
117,2,-99,-345,-228,47
-125,7,-101,-196,-143,157
121,27,-109,-277,-234,96
-120,46,-101,-378,-142,87
-124,57,-95,-323,-220,52
82,3,-79,4327,-836,-3501
-52,57,-22,3404,-5689,-3140
51,120,65,281,-5158,-2815
-77,121,85,1045,-5032,-2532
100,-122,56,-244,-4973,-219
-57,-88,21,-692,-240,76
79,-25,-84,1524,-738,-581
-109,113,67,1564,-2720,2740
60,4,49,194,-1984,4085
-32,88,-3,2527,960,6688
-93,90,33,-153,-400,6762
31,-75,-26,-2316,-3389,-165
12,-57,84,-1950,983,-4672
18,-25,-128,-462,3885,-6065
52,-101,0,68,938,-5507
122,92,-125,1602,2683,-5771
106,31,-36,-4937,-2349,868
7,-113,11,402,-515,1565
-76,-100,-96,-8181,-1271,-1328
-123,-32,-113,-11483,2489,-1265
-45,-85,69,-7262,891,3476
-73,14,-106,-1513,-1947,6434
-117,12,-75,-336,-3730,8798
-100,47,53,-2727,-3164,1976
63,-119,40,4115,613,937
27,26,-114,2159,1418,310
-66,54,-11,3514,967,-899
-117,-87,21,18,-513,1309
-100,52,-9,-1638,-1114,-12
-62,-11,-33,-1293,-741,154
-64,-42,1,1171,-652,976
-46,39,116,700,-251,564
-31,43,107,-313,133,313
-11,-34,-111,2385,-1027,441
-23,34,57,394,-393,25
-103,-29,17,-1089,-349,-86
-117,-86,27,205,-259,29
-80,-19,22,-62,-299,-215
-62,-1,31,-296,-28,-207
-52,-42,6,-528,-251,-83
-58,-35,-3,-494,-393,56
-60,-34,-22,-293,-388,53
-80,-1,-39,-397,-333,17
-69,-3,-63,-564,-76,73
-75,4,-71,-212,-290,126
-61,16,-70,33,-532,78
-71,10,-60,-174,-378,-4
-67,-5,-49,19,-131,39
-52,9,-56,-42,-121,126
-70,21,-64,-229,-300,169
-82,-15,28,1407,-4331,-2326
-12,-127,-17,691,-6197,-706
-120,69,-12,-2263,-5545,-440
62,-55,-54,417,-2114,-140
44,-3,10,443,-686,338
-106,-3,30,1345,-892,1419
98,-104,-29,2789,-1794,4138
-80,-89,3,645,917,4430
80,113,-27,2826,915,8037
86,27,-122,-332,-1148,2200
55,34,-48,-1817,-1427,-4005
127,-48,-16,-1423,1863,-6477
23,-107,-80,-1821,-1364,-2867
-101,16,-7,-178,1926,-5177
-84,-69,61,-4393,-1120,-607
16,-121,52,-1740,-587,655
121,39,-9,-5643,1821,-109
57,41,87,-10457,1023,933
-102,-101,104,-5998,3998,1962
98,57,-104,-1947,-1153,6258
-32,-63,-64,-2624,-1833,7612
66,-54,123,-2188,-3057,4949
-70,-32,-63,5605,-1773,1919
-99,-82,-111,451,-80,725
-105,4,-19,3426,-639,-514
51,-22,-13,776,-1188,-1639
91,53,-12,-2733,68,-837
70,-72,23,-2856,998,20
65,-116,-27,-1197,171,269
61,-108,-60,1449,-739,210
80,-64,-76,1730,-1025,272
118,5,-40,1025,-58,-160
102,15,-62,365,-269,188
108,-11,-71,500,-303,245
111,5,-60,-203,138,127
111,1,-47,-420,-48,117
125,-27,-26,-327,160,-143
93,-43,-26,25,-74,75
91,-52,-34,63,-328,90
121,-6,-27,-768,-154,-3
-107,-27,-59,-802,-218,127
-117,-24,-85,-875,22,53
123,-38,-75,-219,-286,147
127,-1,-58,-252,-140,16
-114,24,-67,-420,-106,25
-107,29,-79,-366,-26,15
-100,29,-82,-40,-119,105
-103,38,-69,-12,-96,-1
-99,28,-70,74,-126,55
-105,28,-81,312,-196,83
41,77,-104,1850,1132,5050
-55,79,0,2348,2519,4832
-126,105,19,-877,-1503,3179
-16,30,-74,-2355,-1702,-2812
-84,-13,-46,-2160,-806,-4810
104,-28,37,-2126,773,-5212
81,-101,96,2676,705,-5658
115,-104,-102,-3738,353,-1426
111,25,-70,-749,150,878
8,-114,-57,-2467,-1385,613
33,78,-61,-6032,698,-447
-88,94,66,-9002,2763,-708
-43,32,-95,-6386,1836,2381
122,97,-13,-5322,-383,5800
-118,-90,-50,-1960,-580,6913
29,62,-114,-1850,-3482,6216
80,117,-112,4361,-1644,2707
5,-2,82,1277,-147,864
-49,10,7,1677,-839,422
37,64,-3,706,-976,-360
67,-112,9,1125,-87,-1099
108,-12,-8,1317,236,-888
115,-59,38,-424,-644,-318
-94,122,61,-871,639,-61
-123,42,127,804,-313,-73
-110,95,24,1017,-883,433
-96,-83,22,44,-418,223
-117,-47,-10,-715,-43,94
115,-54,-50,-844,-534,-201
114,-60,-46,-403,-246,241
-128,-62,-21,-839,301,223
-108,-61,-22,-765,65,274
-119,-33,-43,-1010,-134,193
-123,-28,-47,-1046,-21,145
-115,-6,-73,-794,-114,204
-109,16,-81,-801,56,124
-118,11,-85,-273,-174,169
-104,26,-77,-106,-319,110
-75,32,-63,-281,-36,28
-97,27,-54,-42,-215,31
-96,60,-65,-244,-136,-79
-87,60,-81,-236,15,-65
-86,54,-92,-13,-82,16
-87,54,-72,-44,-164,88
-77,63,-53,-347,-111,47
-67,82,-62,-645,-137,42
-74,89,-75,-556,-291,69
-71,91,-84,-195,-72,42
-76,98,-91,86,-101,-4
-70,98,-78,149,-138,4
46,-52,-74,1734,-4533,-2124
-127,-56,-103,1350,-4827,-1631
79,-75,116,84,-4884,31
81,-93,72,-1549,-5362,-9
-124,10,-30,-430,-832,-228
112,-57,-70,1406,315,426
4,-81,21,2520,-478,3942
-60,-111,7,1280,134,5420
32,100,-96,1309,3752,7488
-47,106,103,2234,-1605,4923
93,-104,11,-3052,-1421,-632
34,46,94,-1880,-1490,-3547
-14,34,89,-2995,1790,-5911
105,34,77,-1103,229,-4444
-34,-108,-32,1631,3153,-6181
85,-84,5,-3573,-246,-1266
-117,25,-5,-1174,-190,733
-29,0,92,-9072,-1748,-529
64,-2,55,-13941,3207,-1224
88,-105,-66,-5675,1630,3019
-27,-24,0,-3579,-2823,4338
-11,0,0,3250,-3569,5979
-66,30,-23,-2030,-2044,4301
65,97,-42,679,-2877,4050
9,83,-84,5585,-1670,2872
-123,8,63,991,389,1004
-73,-25,-28,2871,-659,-350
67,-49,0,1770,-1119,-1026
95,65,27,-489,6,-956
105,-70,81,-245,778,274
92,94,97,79,-86,-55
113,-112,34,496,-702,248
-127,-91,15,136,-267,49
103,-93,3,59,-226,115
105,-89,-8,106,-263,327
116,-88,0,60,-173,343
115,-89,20,-534,17,336
111,-102,33,-543,-188,253
115,-70,-7,-411,-257,122
114,-39,-21,-663,-69,-42
105,-51,-32,-487,-177,-42
115,-34,-46,-837,-76,-56
-125,-48,-62,-976,97,-65
126,-56,-54,-581,-160,173
-123,-37,-52,-336,-218,174
-107,16,-72,-220,-227,166
-113,24,-78,-206,-117,85
-123,18,-67,-143,-100,110
-118,22,-52,-156,-184,149
-105,36,-56,-290,-100,89
-31,-12,-72,1397,-2698,-4290
58,-8,92,2288,-5105,-3691
-44,17,52,1886,-5887,-2232
-7,-73,0,554,-4630,-1532
124,78,37,630,-4054,-32
20,-47,89,740,-576,77
-124,49,2,2533,-673,2831
-47,-17,-24,1859,-359,5762
-101,78,68,2029,2118,6613
-34,-63,65,619,2547,8155
-53,11,-50,-543,-2412,1696
-7,-82,82,-1125,-831,-4945
69,-102,-54,-1970,771,-6631
-89,80,16,-2050,547,-4504
-46,-79,60,-1282,1677,-3515
-72,-96,-18,-1679,2579,-3173
-13,-63,-87,-4547,-3378,-1096
-68,-98,-103,-8916,1505,-2463
-90,-117,92,-7272,1371,-587
-122,110,-68,-4848,-1167,2806
34,-60,-2,-743,-850,5362
58,-108,45,-1775,-657,5595
91,-62,123,-2212,-2526,6091
8,42,-49,1529,-2603,5004
-56,85,72,3606,-1952,2690
-79,8,101,4603,-112,908
49,-112,-28,1341,-1007,135
-93,-39,99,104,-1652,-114
86,-60,-79,2433,-182,-491
112,-112,-106,809,276,-1040
104,90,-72,-340,-1083,-90
-116,-49,0,1105,-478,46
116,107,-76,-82,75,-342
-123,-100,-70,1062,-898,602
-117,55,-86,-628,-168,121
-125,11,-110,-530,158,-7
-81,119,-99,-278,-227,98
69,118,-113,2316,-2395,-3523
-49,-106,-17,1412,-4238,-4297
-57,0,-77,5582,-5354,-2433
-4,-47,-76,2642,-4821,-812
-79,-89,105,1522,-3989,760
-2,37,-63,-962,-1314,897
-127,-73,118,526,-692,320
-58,55,-34,77,-1172,1431
-44,-65,-25,2631,-1106,2545
58,-2,-5,614,335,5859
-121,-17,-56,1475,3056,7334
28,75,50,806,1743,4613
-90,49,-38,-2419,-2195,-2342
-92,85,45,-2931,-781,-6303
-4,119,-121,-629,124,-6026
26,113,95,-2694,-406,-6084
-27,-84,-74,-2414,6205,-3376
-6,-82,31,-1240,-2011,1967
-35,-78,21,-2934,-923,-757
43,-118,-24,-12755,-71,-1505
-22,-9,3,-9066,2764,886
10,-77,41,185,-395,5363
121,115,125,-480,-3168,7684
-124,126,-52,-4428,8,4667
-71,74,57,4595,-489,4518
1,-89,-49,1283,-2151,2860
-5,111,45,4459,-448,651
-17,123,11,-1455,-104,-114
79,56,-61,393,-1002,-16
-113,-91,-30,1730,-354,-130
-92,44,70,3230,-413,-73
-110,-31,65,-512,-217,-155
-127,-38,-54,-595,-417,55
119,-42,-72,-219,-214,-45
123,-51,-75,-23,-188,-113
-120,-67,-44,-41,-133,-131
-125,-61,-28,2,-286,13
-111,-40,-70,-216,-213,57
-113,-26,-69,-401,-130,33
-119,-27,-64,-297,-234,116
-113,-17,-84,-399,-106,10
-116,-27,-78,-157,-220,85
-113,-17,-75,-75,-212,70
-108,9,-93,-259,-105,-19
-112,-2,-83,-45,-293,66
-102,18,-87,-157,-186,40
-94,24,-97,-257,-92,36
-103,16,-86,-141,-173,76
-103,23,-97,-117,-183,43
-98,28,-93,-213,-142,42
-101,30,-88,-241,-221,13
-90,33,-100,-240,-185,43
-94,16,-102,73,-235,95
-87,33,-99,70,-225,113
-85,46,-109,60,-183,77
-76,45,-108,33,-126,114
-83,42,-103,-13,-127,96
-75,39,-100,-45,-136,113
-81,39,-100,-152,-98,119
-84,32,-100,-77,-150,192
26,125,11,2806,-2914,-2613
-97,-35,39,2931,-4539,-2648
-78,105,33,1398,-5996,-1949
5,125,-108,3260,3381,7457
127,99,-61,263,-712,4467
65,-19,54,-2553,-748,-376
-82,-112,121,-3110,-1233,-6031
36,-79,110,-2183,1239,-6262
-7,0,19,-3116,-1424,-3823
-52,24,124,2935,6121,-8010
-105,5,-109,-5752,-2947,2199
61,-27,10,-1114,438,777
-23,67,114,-9715,-519,-1888
-61,5,97,-4577,2564,1401
-73,28,-40,-3442,-365,5023
-79,4,-101,-3709,191,4347
-77,11,10,-4452,-832,5917
105,41,75,1656,-2337,5677
-41,20,53,2145,-2405,3568
89,4,-40,1412,-1405,2237
17,119,121,1375,-366,-276
115,68,-107,2485,-679,-227
-104,-9,-88,1287,-769,-183
103,104,-82,1094,-563,-5
75,35,-51,383,-489,-181
46,-112,71,2007,-563,-48
67,-46,18,-525,-246,61
75,-62,-74,-173,-344,-53
51,-106,-73,-215,-35,-8
57,-104,-59,148,-179,30
74,-81,-51,-191,-148,18
86,-79,-55,-137,-133,43
71,-88,-65,-61,-218,24
80,-64,-74,-165,-90,52
79,-58,-70,-116,-209,47
78,-59,-73,-154,-247,76
88,-66,-81,-158,-130,-14
88,-84,-93,190,-200,48
97,-68,-87,217,-198,81
101,-34,-82,37,-151,98
114,-23,-94,-117,-131,152
93,-40,-91,-108,-87,141
111,-44,-93,-179,-5,150
108,-40,-87,-194,-62,99
118,-37,-90,-72,-99,110
123,-10,-89,-271,-60,66
-125,-15,-92,-259,-44,55
-125,-13,-88,-183,-129,104
126,-2,-77,-301,-185,106
-121,25,-87,-471,-185,72
-111,22,-108,-566,-72,-33
-112,-6,-115,-164,-142,8
-112,-7,-105,50,-217,19
-98,0,19,1023,-4247,-3172
-106,67,-45,1407,-5198,-2360
42,-53,-76,219,-4190,-2327
-76,119,23,-9,-4812,143
6,-10,127,441,-2130,724
1,-18,57,2377,-757,1052
-16,-6,-20,3097,-2252,5192
-101,71,54,532,-592,6304
126,-50,83,2249,1784,7254
70,-96,116,-880,-1056,1441
124,-90,59,-3139,-406,-5394
61,-56,-105,-1680,2130,-6698
-75,-109,-38,-4017,-663,-5211
-92,66,83,248,6037,-5121
62,-64,74,-4868,-3117,169
121,116,104,-4394,-30,150
-30,79,44,-6560,1803,-364
23,73,22,-2527,838,3088
17,81,-92,-4085,1821,3530
41,-41,-124,-3171,662,6115
90,64,9,-1654,-1947,7509
-71,-66,91,357,-2479,5102
-16,-65,27,3262,-888,1771
-35,-105,-102,1221,-971,742
-107,67,-117,1917,-983,401
113,77,93,2612,-405,-185
72,-50,102,727,-950,-19
74,-13,-12,2552,-573,158
97,31,-18,-563,270,-126
66,-59,-72,180,-425,124
75,-33,-73,-835,-45,-75
71,-72,-83,-242,-246,139
82,-45,-92,-470,104,21
78,-96,-104,291,-302,108
93,-71,-85,176,-213,95
93,-50,-97,145,-197,80
96,-34,-105,-193,-49,104
106,-8,-104,-661,282,-42
110,-10,-117,-102,-80,55
118,-3,-105,-113,-122,1
122,0,-109,-85,-54,13
121,-19,-99,-46,-50,15
-122,-20,-100,-33,-44,52
-121,-11,-90,-170,-85,79
-113,0,-86,-403,-33,9
-110,-10,-105,29,-105,-11
-100,-16,-103,234,-101,21
-95,7,-84,229,-45,-40
-82,4,-91,247,-35,-1
-81,17,-68,102,-79,30
-128,-124,16,1005,-3547,-3517
-107,-86,-109,1015,-4539,-3261
21,12,66,645,-4877,-2622
34,-123,-24,319,-5146,-939
-118,23,2,-338,-4077,167
88,-13,-1,225,-52,815
-126,105,102,2085,-239,1848
99,-15,63,2753,-1743,4670
-79,1,34,2307,958,5828
-101,-24,-19,992,1133,8509
1,2,35,229,-2128,2545
-55,-14,55,-2995,-237,-3055
-78,48,68,-3145,669,-6203
47,-12,-124,-1200,2341,-6462
-21,109,-122,-3462,-778,-5041
-94,68,121,288,4728,-3503
59,30,-46,-8169,-578,-329
-113,-111,64,-2004,547,1501
-10,-29,-48,-1537,-632,2877
23,-12,-55,-2829,698,2019
-90,83,124,-2187,1467,3241
-102,3,90,-1846,1765,3908
86,-104,-124,213,520,3702
-125,-33,-122,-1022,38,2929
-112,-119,-57,231,140,2226
121,62,110,1607,-157,1769
47,68,-120,-854,-512,404
-55,-113,-78,485,-623,343
-44,56,-56,804,-110,471
-50,-3,-58,946,-47,228
-50,-53,-45,983,-333,293
-59,-97,-57,198,-184,65
-53,-119,-54,-203,320,-227
-49,116,-40,-310,-6,-147
-49,116,-27,-479,-577,235
-49,115,-28,-320,-361,146
-40,112,-34,-215,68,-35
-45,-126,-48,-558,-142,21
-45,-127,-49,-386,-147,-27
-39,-126,-51,-69,-206,29
-42,-119,-49,-197,-188,-97
-34,-115,-50,-258,-155,-21
-39,-119,-50,-179,-179,-46
-36,-107,-49,-389,-172,-83
-37,-98,-43,-464,-99,-127
-31,-119,-45,122,-161,-81
-33,-106,-51,-256,-162,-143
-38,-105,-49,-366,-173,-91
-43,-98,-41,-452,-194,-9
-27,-77,-37,-569,-26,79
40,-105,18,1170,-4940,-3026
-26,111,-96,2140,-9362,-1179
45,-107,64,-3692,-7174,556
26,-1,-63,1675,-958,-509
-65,-19,-82,-1626,699,387
-38,84,83,1569,-1362,1248
118,35,-92,1770,-926,1995
67,-61,-113,959,1269,4693
45,19,1,950,1864,6735
-8,29,-114,1701,1704,6372
38,-96,-81,-501,-2793,352
-124,24,-126,-3385,-1539,-3059
-95,90,19,-3623,46,-5812
-118,93,41,-1457,1135,-4839
-50,-91,-12,-184,981,-3710
-118,-10,-46,1520,3010,-5066
96,96,-11,-2431,-2031,2607
68,70,-35,-1328,-634,657
-55,-36,-93,-6774,948,-1739
-51,55,3,-3839,1119,565
127,-68,-15,-2913,1922,2729
-112,101,-66,-4243,1731,2822
51,-22,97,-4147,825,4125
84,115,-12,-3074,-572,3814
-49,34,-34,2215,-633,3711
-97,-62,45,-61,-624,2542
91,57,-62,1051,498,1572
-27,106,1,-251,-497,1253
-94,-54,34,2337,-992,360
-124,-117,64,1567,-406,-38
127,55,72,429,396,-24
-118,-26,87,756,38,221
-107,-20,-122,-54,-513,240
-127,-69,108,217,158,-208
-121,-91,97,586,242,-279
-78,-108,89,233,216,-296
-93,-114,75,7,-286,-46
-103,-108,83,-227,-514,238
-108,-91,92,-60,-328,226
-78,-100,65,388,267,107
-84,-53,72,-771,-231,70
-83,-59,58,-572,-201,-6
-82,-63,63,-294,-186,-115
-90,-58,62,-196,-293,106
-82,-37,56,-528,-165,60
-75,-30,39,-409,-134,67
-68,-28,23,-346,-138,53
-75,-10,9,-622,-283,17
-73,-12,-1,-477,-207,40
-74,8,-1,-703,-247,38
-33,-32,-60,1420,-3967,-2849
97,12,-91,1629,-6548,-2892
95,101,-87,476,-6128,-1629
41,36,-123,-1140,-4404,-1104
7,-38,-58,-229,-2086,-459
-111,-93,-123,169,-1071,404
-88,35,41,2847,-848,1567
117,11,14,3194,806,3055
19,-75,-14,-486,969,7425
-85,55,82,2563,3271,7751
14,-75,81,-169,-2136,3344
-66,-108,-34,-748,-1184,-2546
27,-89,91,-3862,-1262,-5299
-26,28,-15,-2032,574,-4792
43,117,116,-909,61,-4541
89,-85,7,2767,3620,-6137
-50,-58,122,-4705,-4534,1025
7,54,83,113,454,1620
76,-35,-42,-688,-1203,275
-125,-95,-76,-2852,649,403
-57,62,98,-4205,1911,-461
103,98,31,-6237,2318,434
-82,60,-65,-3630,1172,3180
68,73,-88,-7016,967,4178
-117,-4,-119,-5214,-274,5122
107,3,9,3017,-1423,5428
-89,-81,36,2950,-1624,4670
-32,42,54,1669,-2107,2951
-2,-124,-16,2050,1,-370
-102,87,7,-78,499,191
42,-112,90,1992,-657,-11
85,-4,84,2523,-125,-706
115,-45,99,453,158,-1320
126,119,119,344,-10,-879
101,73,-123,75,-474,-200
100,78,-124,-469,-321,-58
104,71,116,-206,-95,188
112,101,108,-478,-156,343
-128,121,88,-593,-114,372
-107,-98,80,-1042,-108,261
-104,-80,57,-860,-156,134
-116,-68,60,-335,-332,58
-120,-70,45,71,-124,-152
120,-71,41,111,-223,-116
-122,-51,33,-687,-54,-31
-113,-34,19,-771,25,-30
-98,-37,12,-172,-12,-91
-105,-42,-2,251,-109,-129
-107,-45,-8,176,-262,-11
-106,-23,-15,-512,-199,93
-62,84,5,1794,-2726,-3626
80,-88,-111,807,-4944,-3906
89,-4,4,482,-4652,-2878
-109,-71,-127,332,-4809,-2310
65,114,-46,-463,-3855,-1845
-60,73,-75,321,-1461,113
73,17,-120,654,-1595,323
-36,18,-1,4143,-827,1406
60,118,-106,3362,-675,4429
101,110,-93,1271,655,6958
91,63,53,979,1375,8015
78,-102,-116,1778,-435,2700
20,109,44,-1963,-2309,-931
47,-57,57,-3026,-38,-5485
-71,16,-110,-2559,1136,-5978
-36,-60,35,-3790,345,-5077
116,-35,81,1643,4284,-5529
123,-108,-20,-6996,-399,899
-90,-69,4,-360,-1268,503
-24,108,89,-3334,138,422
-58,83,-112,-3500,577,1065
127,-103,-20,-4249,3418,1739
102,-50,-58,-4335,1792,3452
13,2,-41,-4485,-946,6251
-28,31,-18,4,-1698,6149
39,-105,8,3877,-1751,4564
35,108,-2,663,-1208,1666
81,-75,-41,2170,-294,985
113,-125,-36,-96,-968,303
37,95,37,3779,-727,-512
82,68,15,1267,283,-1002
80,-121,75,648,-435,-745
84,102,123,788,-767,182
80,73,-115,506,37,-177
94,61,-96,182,76,-55
84,41,-105,409,-143,122
74,49,-111,183,-73,35
96,46,-117,41,63,197
113,44,126,218,-67,378
106,57,117,326,-70,236
99,83,103,-120,-110,29
86,84,106,-174,-403,18
95,74,119,220,-243,9
105,75,110,114,-137,30
116,78,98,-116,-127,84
108,73,86,-76,-284,79
113,81,83,-255,-266,147
114,106,77,-811,-112,90
112,105,69,-420,-112,136
114,-122,48,-710,-45,-44
52,49,-119,1512,-4695,-2493
-4,-99,-9,843,-9297,-1158
-44,13,-75,-1040,-7335,227
53,-4,71,-639,-5177,136
-45,93,-25,-722,2729,-593
-29,-51,108,-1447,-564,348
109,-37,-115,4076,68,556
-4,-26,81,587,-1215,4683
-118,-82,66,1444,-75,6845
109,-15,4,1075,2866,7238
20,66,-22,2486,-662,2963
9,69,-107,-3814,-2490,-2809
-68,104,116,-3293,-490,-6483
117,116,78,8,1677,-7119
-86,-8,-83,-1441,630,-5678
2,-103,-105,-556,3472,-2568
123,91,-118,-1870,-2783,1028
46,36,-98,-573,-608,1284
93,124,25,-3706,-96,412
73,33,-102,-4787,2632,-985
-75,118,14,-6142,1948,614
-66,-93,77,-5052,2031,2844
-7,-37,-95,-4264,-574,5476
-20,65,-11,-1508,-1169,5876
101,-98,19,3078,69,3917
-44,-110,17,-819,-845,2548
-66,94,-66,3480,-56,905
-71,86,-110,218,211,261
50,61,-30,622,-570,-117
127,-70,-27,1077,-242,491
107,-125,-26,52,-537,111
81,55,-12,-220,-629,-201
88,26,-7,-85,-316,-81
89,-6,0,409,-37,8
112,-18,8,483,-104,243
110,-1,-14,-109,-167,313
107,9,-21,-350,-218,44
111,-5,-29,-147,-181,-1
119,23,-31,-864,80,-129
121,10,-37,-253,-1,129
-124,1,-55,335,-97,266
-119,35,-67,-471,-231,147
-121,40,-63,-499,-275,80
126,36,-63,-262,-129,-57
125,45,-55,-216,-268,65
-115,42,-59,130,-266,-1
-104,43,-61,10,-362,-3
-103,60,-53,-412,-285,-68
-101,43,-49,-34,-246,-64
-115,47,-49,13,-280,73
56,-75,-64,539,-4554,-3245
12,-15,1,727,-6916,-3921
-56,47,-113,649,-6733,-2109
21,22,-47,-1341,-5320,-1489
50,-97,86,66,-632,-437
-97,-101,-17,-749,-285,-252
-22,-40,53,1184,199,1335
114,75,-47,1357,-480,3115
-32,-120,-125,2000,2376,6371
-9,-117,-11,-1946,473,11209
67,-31,-53,2564,-1061,1132
74,-61,-46,-1783,-2491,-964
-28,33,32,-3036,-464,-6263
-123,97,-51,-1188,1211,-6583
20,-122,116,-1178,-89,-5050
-56,-74,27,1307,2836,-4033
-66,127,-120,-3057,-2600,715
53,-65,109,-1313,743,861
-70,101,-11,-3609,-1056,154
-106,111,93,-6066,2867,-958
24,97,-67,-5407,2551,1537
-79,64,83,-4433,892,3808
86,15,126,-2449,-422,5459
-62,68,9,-2850,-1410,5072
79,45,-18,2272,-262,3598
-14,-78,32,2038,-433,2863
107,0,-103,2719,-91,2109
-79,-53,-88,-133,-625,494
-106,-32,-37,2157,-602,625
114,-99,-5,930,-507,108
-120,45,11,611,-91,-94
121,4,26,215,-122,-167
114,-32,45,133,-300,-92
120,-76,53,171,-168,-216
118,119,56,1382,-3,-195
126,116,51,790,-111,109
-118,-93,53,-998,27,25
-120,-115,29,-562,109,49
-121,-106,14,-116,-103,188
-115,-98,7,333,-283,194
-109,-81,12,37,-399,228
-95,-62,7,-607,-261,188
-106,-55,12,-561,-327,134
-109,-50,4,-378,-173,78
-120,-28,-2,-787,-287,85
-124,-25,-19,-659,-122,31
-121,-31,-30,-128,-132,12
-115,-19,-42,-274,-248,35
-105,-25,-54,-61,-323,-23
-103,-16,-44,-228,-336,54
6,-77,86,3881,-1629,-2518
-117,10,-27,2740,-7515,-1289
90,49,45,-558,-6126,-1498
-10,95,-78,-647,-5761,-1588
22,31,-99,-231,-4121,-768
-17,-35,70,311,-2951,404
21,-77,124,-151,-775,534
-114,-16,-44,1888,-173,1450
-64,-2,-116,2455,-1116,4661
67,-7,-120,1303,2366,5580
40,-82,69,22,471,8153
23,47,-57,1900,490,3529
-89,-38,56,-3736,-1156,-2710
-106,-20,70,-2365,36,-6144
0,123,-49,-1406,1539,-6213
36,-69,-43,-2286,-455,-4091
78,20,-100,-1593,2656,-3340
-55,28,-107,-7773,-2747,-2072
30,-111,49,-8185,3285,-1481
-4,84,-52,238,-1304,3422
56,107,-72,-2487,479,2262
-58,9,120,-3847,545,4391
46,106,86,-196,-76,6309
42,-8,-26,-1672,-407,6361
104,-3,6,1223,-2031,3872
-9,15,-53,-93,1485,1230
-21,31,7,2867,-827,1648
118,-79,-22,-1119,98,-602
85,-43,6,539,993,-112
104,77,24,865,249,-127
126,34,22,895,-226,-110
-96,12,28,601,-279,203
-111,-25,43,216,-436,-165
-103,-32,52,57,-147,35
-115,-52,44,135,-162,204
-116,-33,50,-107,-293,280
-101,-32,42,158,-47,219
-113,-23,32,-143,-101,165
-100,-7,29,-657,-292,156
-92,-20,27,-281,-202,95
-89,-16,20,-145,-60,-95
-119,1,18,-246,-499,-15
-107,9,15,-413,-254,153
-105,37,11,-813,-169,206
-108,34,-1,-296,-100,152
-88,34,-17,-39,32,-46
-83,39,-26,-51,-130,-28
-91,41,-25,-69,-336,26
-86,43,-22,-146,-235,-38
-75,49,-18,-241,-191,45
50,54,45,2136,-3933,-2028
105,127,-81,-560,-6539,-2102
-5,95,-40,32,-6583,-1965
109,82,10,-1075,-5983,-1082
-117,8,19,-967,-3466,-1
-59,-12,23,-714,-344,-1021
61,-97,-27,-379,-1397,284
119,-20,6,2002,-425,1969
74,45,-71,3003,-1078,3581
-103,-33,-113,2011,1644,4906
19,41,-47,-624,673,9842
-36,-81,108,3259,1136,2051
-18,-122,-67,-3477,-2642,-1470
26,-81,54,-3144,534,-6780
33,-90,-96,-897,457,-6146
30,107,15,-1774,-487,-4784
48,-64,-5,-2330,2336,-3149
37,-80,114,-2126,-1678,1108
-8,-66,124,-1998,-353,388
127,104,-84,-6143,-460,-102
22,-18,70,-2503,2507,1726
56,-60,-45,-5497,1858,2345
-11,-51,102,-6772,982,4089
126,-7,-46,-1135,-1699,6644
119,-121,-66,4769,409,5373
44,-34,15,-2940,-507,2169
112,-117,-50,2400,-125,2021
-30,-75,22,220,-491,1944
-68,29,-8,1226,423,632
-93,-55,19,1892,80,172
112,100,30,504,-633,-270
127,17,60,-165,-481,-347
123,-78,99,440,-241,-189
103,108,78,1180,-46,134
125,-61,81,-1065,-547,30
124,-92,64,-844,-386,-72
-128,-111,62,408,-70,-5
-121,-89,47,12,124,20
-121,-65,44,-402,39,74
-110,-78,33,1,57,1
-103,-61,32,-136,-192,96
-107,-46,31,-303,-281,253
-103,-38,30,-338,-103,203
-92,-26,23,-294,-116,251
-87,-13,11,-235,-149,188
-95,3,7,-430,-242,10
-99,4,9,-381,-236,-7
-96,4,1,-252,-247,-39
-89,6,-4,-174,-147,-128
-91,-19,-8,593,-406,-2
-114,-17,109,3068,-1860,-3324
113,38,36,1297,-6043,-3696
-63,41,29,1045,-7405,-2374
118,99,-13,-253,-5174,-2686
-92,34,8,-1487,-5688,-875
-4,-123,49,-385,143,384
-36,-112,-3,1762,2369,-1303
112,16,87,3812,-2520,6639
-24,-39,55,1728,-729,5835
103,115,56,1677,758,7549
-102,120,-38,1173,535,5802
76,-110,-108,-107,-1252,-913
-27,-2,14,-3290,-1218,-3630
-74,118,-52,-3344,1832,-6447
-122,25,-98,-685,-905,-5145
-16,-97,-89,350,1045,-4890
-117,71,90,-2502,-1329,-684
-49,-43,-91,-495,-786,1697
86,74,35,-2556,-935,356
-3,123,-42,-6311,1328,-1406
99,-60,54,-4072,3294,1279
-105,-30,8,-6130,1565,3971
97,28,18,-3567,2383,5537
58,2,-66,-6230,261,6283
-108,37,28,5554,-1953,3969
76,29,40,-1215,713,2684
74,-87,-20,-906,82,1090
126,55,95,2167,-1340,734
-95,15,39,514,94,560
-114,120,20,222,-90,-30
110,25,53,141,-745,52
123,-12,61,384,-363,-30
-115,-20,62,1,-215,-45
-122,-59,83,455,-336,208
-121,-46,75,-264,-108,17
-112,-44,35,-271,2,-62
-94,-57,0,-11,-62,-157
-111,-66,3,229,-383,125
-115,-47,6,-62,-288,193
-103,-41,17,224,-182,111
-92,-30,28,212,-235,132
-82,-23,31,-124,-147,88
-98,-30,29,-207,-171,73
-94,-30,8,-368,-100,100
-102,-23,-5,-276,-298,166
-96,-20,-3,-130,-158,138
-88,-5,3,-428,-155,76
-78,-12,2,-307,-73,91
-85,-14,-4,-318,-133,111
-85,-10,-5,-143,-201,147
-42,-92,15,3990,-2212,-2030
66,-36,58,3188,-4533,-2203
-115,84,-68,1898,-5000,-968
98,-108,104,998,-4860,-812
81,-100,123,-790,-4383,776
-22,-97,120,-282,-172,-127
-27,-35,57,-881,-1119,165
-78,-32,-108,-552,-1385,820
-74,57,48,1372,-1415,44
-60,34,-8,2209,-801,2205
-14,79,-75,2167,-1737,7383
60,-26,-66,685,1689,6603
43,109,-24,2950,-598,5904
88,-7,-65,-3543,-2091,589
-7,94,94,-2729,-721,-4493
74,-13,-116,-1963,2889,-6247
59,71,-66,-415,148,-5037
98,-127,11,1272,3139,-5355
101,-109,-119,-2313,-2426,623
14,-24,-43,-831,-745,1637
41,15,111,-1732,-361,-58
105,-68,95,-311,1628,-48
21,52,-60,-6757,4154,-710
-119,-25,-9,-6268,3640,1351
-104,-6,72,-6831,2832,4693
-14,-95,39,-2759,-94,6097
-88,106,-65,1507,-31,5119
61,-7,26,-1538,-442,1961
-123,22,5,2286,-633,1698
-55,-33,-15,954,-882,247
-97,-17,7,1162,0,-216
-87,-126,-2,764,65,-389
118,16,13,433,-592,-467
111,-60,34,-230,-323,-122
125,-74,20,-593,108,3
121,-110,1,68,-313,48
-113,-75,37,205,-575,437
-112,-62,25,-48,-209,59
-96,-50,42,142,-140,187
-112,-58,29,66,-241,204
-115,-46,22,-575,-9,258
-121,-34,5,-672,-133,298
-111,-11,-14,-583,-105,234
-108,13,-30,-835,-59,80
-108,19,-24,-352,-45,26
-109,18,-27,-159,-241,124
-96,34,-29,-585,-122,-59
-88,33,-32,-802,-31,-100
-89,35,-40,-600,-100,-138
-81,32,-42,113,-164,-31
-48,-49,-1,1270,-3820,-3117
45,22,-115,1188,-4885,-2870
-13,-107,42,960,-4807,-2079
-4,112,-26,-147,-5296,-740
-94,73,108,-875,-2052,640
49,45,37,-2,-454,-275
36,-56,-75,1319,-969,570
42,22,44,2463,-1047,2964
-70,-39,-75,2706,-1274,5696
-127,18,33,847,1830,7319
57,42,114,1578,-1324,7508
-20,-14,7,-1327,-2078,207
-71,104,82,-2217,-804,-5015
102,-39,82,-2430,1953,-5708
-34,-29,-12,-400,-58,-3457
-74,-111,-30,1,1939,-5652
-2,68,-78,-2998,-118,-1983
-108,-90,127,-887,-1875,1859
108,-74,-9,-757,-59,199
47,52,29,-1116,938,362
-58,47,-110,-3041,2910,-600
57,94,49,-5206,2184,694
-62,-17,115,-6303,2061,2646
42,84,99,-3196,1442,4808
11,-3,91,-2290,1488,4427
69,-64,-96,-455,376,4315
22,62,-27,36,-670,2891
-67,-35,-81,1441,-189,1595
0,-67,2,975,-1434,707
-77,20,4,1245,-411,30
-111,-81,9,758,-72,55
118,78,26,-183,-378,-380
-118,8,28,-30,-196,-423
-123,-30,35,15,-172,-229
-107,-40,35,-300,-332,-67
-91,-38,31,-460,-54,-308
-103,-47,24,-269,11,-339
-116,-62,44,83,-320,208
-91,-42,33,246,-284,528
-73,13,13,-517,-129,336
-74,35,-2,-1069,-40,78
-84,28,-4,-558,-177,54
-82,16,-15,52,-172,93
-93,37,-24,-331,-291,184
-83,57,-29,-729,-187,128
-82,69,-36,-542,-140,-59
-68,67,-34,-185,-159,-246
-64,63,-36,-132,-196,-140
-71,57,-32,-222,-273,-81
-89,66,-32,-300,-259,29
-52,10,-101,628,-4500,-2931
100,-124,-111,849,-6002,-2413
29,76,-77,-852,-5972,-720
-67,50,-77,-1622,-4781,-354
108,-20,34,138,-588,-9
-30,0,-94,-728,-765,670
45,109,-80,1433,-816,1476
-75,80,-80,1389,-1661,2244
-26,-113,-124,2476,1037,4397
-79,-76,-50,707,-308,10569
40,48,-20,1713,1805,4058
-75,-7,27,-574,-1700,4
-16,84,-47,-3150,-1167,-5167
-99,-73,49,-2540,449,-5447
64,-21,-124,-1502,-451,-3210
-74,-20,-34,2241,4370,-7583
44,90,86,-2975,-1604,416
90,-52,118,-1070,-310,1050
-95,92,94,264,211,479
24,73,-62,-1201,-497,779
-117,-114,-124,-3668,2119,-679
-17,28,73,-3313,1864,-130
-80,-122,-99,-6475,2948,1876
-35,-5,40,-5515,819,4566
51,99,-105,-3655,-551,4568
-84,33,0,-1250,-447,3838
-59,37,6,2863,370,2971
106,126,16,728,-595,2131
-46,-121,-81,3312,-298,1103
-97,97,-47,1137,-684,24
105,-70,-17,305,-243,28
115,65,21,-282,259,-88
-124,23,35,-290,114,-192
-101,-15,40,29,-79,-12
-107,-21,52,-177,-348,-11
-96,-31,48,-268,-128,-153
-112,-29,42,-409,-205,-94
-111,-26,22,-478,-238,-5
-110,-9,15,-627,-193,148
-100,16,7,-754,-102,135
-97,31,-11,-453,-12,42
-85,28,-18,-80,-93,49
-87,44,-26,-245,-180,-2
-84,46,-25,-236,-244,-13
-83,50,-18,-218,-201,9
-79,53,-13,-131,-180,47
-75,66,-14,-153,-156,9
-70,70,-15,-165,-156,-15
-68,71,-15,-117,-150,-48
-69,72,-16,-100,-174,-29
-97,72,-7,5148,-1555,1656
-70,83,120,6389,-926,695
2,21,-95,6032,-330,-1560
41,-84,-50,1909,-4460,-602
82,109,63,-662,-4370,-782
-105,-53,115,327,-4883,-534
-101,-25,97,-624,-4732,433
-76,44,85,-1088,-4229,1140
-28,58,87,-1658,-2114,598
-23,54,-118,-958,-1403,1027
-34,-54,-13,-772,50,-197
-1,-77,-75,836,-994,2046
-32,-125,-79,1559,-1597,4304
-1,-63,41,2746,460,5208
98,-15,-36,2328,2718,5335
-76,-23,55,1480,-1050,4334
78,-20,36,-4377,-1515,-1962
-49,-120,-21,-2791,52,-4826
85,-81,-118,-3937,1867,-4563
73,-52,119,-2387,-682,-3640
-15,-80,-58,3191,4736,-7359
-20,-80,-118,-2518,-2634,3191
-16,30,-49,-1650,333,793
75,42,24,165,-1837,485
-106,39,30,-361,1641,-1095
-47,17,-7,-3284,1308,9
70,-45,-44,-3688,2183,572
-89,-36,51,-6112,4051,930
71,-112,-107,-7024,2927,3306
-67,37,-121,-3125,526,5487
-32,71,42,-1120,-1527,4531
54,127,-39,1246,923,2308
78,103,51,3937,-1351,2222
-6,4,-42,2996,-7,1223
-111,17,-3,-756,-188,177
54,79,104,60,-882,89
84,32,122,218,-276,-392
94,-16,127,-149,-31,-702
88,-98,121,500,-32,-652
119,-123,115,700,89,-426
108,124,111,160,-50,-322
107,118,104,-317,-134,40
120,125,92,-576,-98,35
-123,-117,80,-603,-176,39
-114,-99,65,-405,-191,107
-115,-79,57,-523,-233,78
-117,-65,48,-429,-168,60
-109,-44,36,-377,-215,3
-109,-40,30,-187,-209,3
-104,-35,24,-77,-158,5
-26,-84,-71,4461,-1726,1884
60,37,-23,3935,-479,-68
-58,4,27,331,-5,-4435
58,110,-60,2918,-5346,-1451
-52,-17,-34,-105,-5436,-2365
-44,95,-22,77,-4530,-1335
6,16,-7,-430,-3765,-155
0,64,125,-867,-3513,423
-42,-125,-72,-1917,-1397,319
118,59,96,-266,-1025,147
-121,-71,-54,592,-1332,496
-56,-102,-119,2141,-1505,4636
-62,-22,-2,2023,-1342,5219
73,122,88,2240,1455,6025
-45,89,8,-478,-426,4675
-121,-7,34,333,-2390,-941
101,63,-7,-2065,117,-4234
5,-20,74,-3746,3560,-5653
-93,52,-83,-1571,-471,-3081
12,107,63,2179,4359,-7567
-75,104,-65,-674,-2264,-561
-86,117,18,-3133,-251,2510
-13,-66,1,-1161,-3298,512
20,123,43,-3757,2140,-479
-122,16,30,-4081,3300,-798
29,70,24,-2996,1338,1365
-118,-90,122,-4888,1824,2311
60,-128,46,-5186,712,3515
-100,-115,-57,-3963,-270,4455
19,-69,45,108,-1291,4494
70,-127,79,1215,-198,2673
-48,-40,103,-632,-1039,2172
32,-8,44,2288,-856,922
-49,-112,28,1293,-369,-101
-121,-41,15,947,-354,-402
-112,-128,22,225,-130,-96
-114,30,24,228,-345,64
-100,-7,40,959,29,0
-108,-22,72,493,-331,153
-91,-27,40,-128,-329,270
-84,-15,24,-444,-111,-153
-92,-37,6,-91,-65,-229
-92,-37,2,12,-328,27
-90,-17,4,-30,-208,190
-86,2,0,-253,-125,103
-76,3,0,-2,-223,69
-78,11,8,26,-266,110
-69,14,-2,-207,-177,-5
-81,3,4,-63,-302,140
-73,2,0,2,-171,32
-5,-4,99,1643,-815,6043
-4,-123,-125,1681,1280,7140
46,52,1,-1059,-897,5420
118,14,-26,-589,-2178,-2626
-118,44,45,-1940,331,-5433
-89,-71,11,-2787,2258,-5355
-108,-92,51,-778,-587,-2553
44,102,-55,2662,4255,-7231
25,20,25,-3631,-3165,1998
82,-74,39,-252,1212,709
-81,53,-106,-1441,-1739,1155
37,58,116,-1556,1427,-246
73,-112,45,-3652,1343,-386
-85,-117,-60,-3596,1296,1139
86,120,82,-6327,2326,1788
111,93,8,-2733,1645,3098
-20,-21,-113,-4753,21,3463
32,-25,-10,-1903,251,3391
-88,-86,-22,3274,-13,4070
-91,70,21,316,-1144,2571
91,-82,-50,1202,-497,981
-14,84,-22,1027,-669,677
-79,-73,-9,2065,-721,603
-97,-86,-7,471,-103,-102
-103,95,7,-209,-13,-428
-96,23,32,96,-149,-140
-96,-1,38,247,-340,-91
-96,-15,40,82,-382,-43
-98,-19,26,-236,-38,-55
-96,-24,29,-184,-22,-12
-92,-27,15,217,-135,142
-82,-6,5,-45,-198,135
-77,1,1,-264,-159,75
-73,9,3,-364,-185,85
-66,18,5,-261,-182,38
-63,16,3,-24,-162,51
-64,20,-3,-112,-215,44
-62,27,-9,-232,-252,99
-62,32,-9,-268,-235,77
-61,40,-8,-252,-217,77
-56,45,-10,-195,-249,84
-55,51,-12,-163,-223,65
-53,54,-12,-148,-236,76
-54,59,-15,-208,-247,112
-50,73,-15,-370,-252,134
-50,76,-14,-237,-255,109
-47,83,-12,-239,-209,65
-50,80,-15,-141,-235,72
-47,81,-18,-113,-183,84
-47,82,-23,-93,-200,78
46,54,20,2110,-3413,-2663
21,-83,105,1862,-4065,-2606
-44,63,-23,1585,-3492,-1751
52,-33,95,1242,-3035,-1076
127,-31,-68,-398,-2373,-64
42,-95,-79,-166,-964,54
-45,-114,-119,373,-1330,725
28,-6,70,1317,-857,730
-12,-7,59,3949,-471,1937
86,-5,111,-151,-545,4960
-83,62,61,2497,928,6731
-78,-9,-106,488,1148,6948
-24,74,80,290,-1628,725
-61,38,60,-2079,-1905,-2903
-102,68,71,-3720,700,-4767
-77,52,0,-1371,189,-3403
-55,55,-109,-621,542,-3776
-69,-44,19,1307,3015,-4929
-10,-34,-47,-2943,-2195,2295
0,38,43,-608,-1139,611
92,98,109,-2825,-166,-93
118,110,99,-2528,762,-138
-37,-30,0,-5900,1126,-308
97,-51,102,-5846,1891,677
92,-3,-100,-3859,696,3503
-61,-61,105,-2310,637,3481
109,99,-35,-1965,75,3872
-124,112,-10,204,-1324,4404
-16,-87,15,773,-162,3112
-78,-73,64,1303,-762,2432
91,-101,8,1482,-295,1468
-31,35,-23,2029,-473,790
-115,-76,-24,2212,-1002,244
104,30,27,1833,-868,-72
121,3,50,-159,-79,-315
115,-44,105,-645,-312,-203
-109,81,-33,1765,679,-312
120,-128,-92,8,-697,210
-90,-115,88,-495,-168,114
-103,-101,65,-927,-86,-116
-103,-118,46,-189,-234,94
-109,-93,44,-41,-357,113
-100,-82,49,-372,-135,-52
-98,-101,67,-291,-157,75
-92,-93,53,-275,-277,182
-92,-78,29,-296,-244,129
-92,-66,23,-234,-222,164
-94,-59,11,-92,-247,217
-91,-51,14,-207,-185,214
-90,-51,20,-199,-224,213
-25,-92,-26,1015,-55,7708
20,0,-14,3044,588,6197
79,-122,-49,64,-1404,963
73,-35,65,-938,-1473,-859
54,80,2,-4660,412,-4327
-10,-57,39,-1673,1650,-5564
89,15,-70,67,1594,-5851
43,-65,112,-1754,4216,-5045
118,117,57,-6777,-2303,417
-43,-114,62,-2791,1115,-573
82,12,-99,-6153,-40,-768
-66,51,99,-3251,1294,1155
-46,-96,-80,-1715,-94,2491
71,68,-79,-3817,344,2307
-59,111,-125,-2161,236,3673
0,41,68,-1403,-2088,4272
-61,-10,-1,2243,-467,3420
108,-92,60,475,-1501,3359
71,81,-22,931,-651,1621
-54,-1,37,1146,-1194,1556
-117,-110,59,3065,-1222,637
-125,-37,46,5335,-316,-336
-110,-85,-8,-906,718,-341
88,-20,52,-44,-428,220
106,-62,70,-77,-157,150
118,-78,18,148,-276,166
125,-60,24,-72,-200,197
123,-52,26,-130,-119,183
125,-18,25,-448,-182,175
125,-11,18,-740,-104,44
125,-18,15,-1019,-147,60
-116,-27,-4,-833,-211,83
-105,-5,-16,-736,-183,50
-97,-7,-16,-238,-206,43
-101,19,-12,164,-304,136
-105,39,-16,95,-184,-76
-105,39,-16,3,-283,9
-94,48,-21,-241,-177,-11
-83,51,-19,-414,-201,-18
-76,49,-21,-473,-136,-51
-78,52,-19,-411,-201,-35
-77,52,-25,-153,-215,-5
-72,60,-30,21,-230,34
-71,68,-36,51,-187,39
-68,72,-35,5,-218,128
-66,77,-33,32,-287,144
-66,79,-27,230,-361,148
-59,89,-26,-208,-199,81
-56,88,-21,-316,-186,66
-57,78,-26,-199,-222,110
-31,-127,93,3254,-2079,-2764
47,-48,71,5691,-2979,-2287
96,103,-120,2244,-3862,-2888
53,-42,112,1394,-5424,-150
-64,-95,-50,-56,-3851,307
-28,-76,64,-763,-3215,524
-29,-38,94,-1318,-839,358
-64,117,4,907,-175,320
93,-53,-99,3235,-1064,1419
20,-87,-81,1332,-1361,1190
-54,95,102,1849,1512,7427
-88,89,6,493,-51,6589
-53,96,-119,302,28,5080
57,79,-75,27,541,921
48,-33,29,-3609,-231,-6527
-53,-110,-61,-1673,633,-3673
58,34,105,-2611,-779,-2837
-55,-110,91,-669,1513,-6140
-39,-36,18,-2317,1969,-3656
-102,68,8,247,596,1185
106,40,-73,-4136,-1493,1769
-81,-119,-29,-193,-1357,133
-1,115,24,-2719,540,-690
69,-42,-16,-2986,904,-326
-37,86,-53,-6439,1341,856
-14,-47,99,-5046,2133,1120
-23,19,-27,-2475,-552,4648
-61,27,119,-2425,-2537,7433
-115,119,-120,650,-327,4901
-71,64,-16,1489,-1083,3926
-5,28,126,3042,-186,2278
67,-45,70,-259,-13,167
-62,-38,49,1169,-540,219
120,41,80,1590,-1032,-230
-102,-16,87,616,-703,-431
-114,-73,106,481,-358,-153
-115,-115,-111,242,-329,181
-127,94,118,285,-411,-18
127,-127,114,-827,-547,131
124,109,97,-490,-607,4
113,109,86,286,-454,-43
-117,-94,79,-493,-281,146
-113,-101,54,-41,-101,62
-112,-88,48,21,-345,192
-119,-75,29,-329,-317,224
-120,-60,22,-332,-244,114
-112,-63,13,-64,-156,31
-108,-55,6,-104,-230,114
-99,-50,0,-216,-305,130
-97,-43,3,-240,-326,144
-25,-92,-72,1767,-3100,-3427
31,41,56,1920,-4267,-2588
-40,-49,-24,-122,-4561,-1936
70,-70,123,-772,-3095,-875
61,-79,-39,143,-3289,223
-26,-22,-60,-377,-1405,-229
-112,-97,-81,651,-606,117
-125,117,0,4915,1453,140
-88,79,-127,-1427,-1848,2948
-95,-13,95,2909,-342,6837
119,-38,-28,1224,476,5786
-120,34,56,1170,-1025,3972
-12,-75,45,-1551,107,-577
-71,92,-79,-2437,-956,-3331
-27,41,9,-2839,1141,-4356
30,77,-41,-1842,498,-3843
-67,94,-81,-488,1147,-5051
-96,-19,83,-2083,3171,-3545
-34,12,-107,-5946,-3405,514
103,-79,105,1255,481,1210
-105,95,12,-4282,-589,-363
-9,40,-21,-3389,833,-146
119,78,-3,-3574,1150,1165
126,-6,-50,-2617,1084,2302
7,-95,-17,-4022,447,4176
-60,-76,-50,-2101,-173,5601
41,60,-45,-809,-1176,6059
117,60,-13,1364,-2532,4431
-13,-64,14,1276,-2402,2035
-112,-98,-6,2332,-20,1221
-34,14,26,3098,48,175
111,-89,64,2108,-330,302
80,91,89,1186,-525,-257
98,12,118,630,-390,-457
94,-95,-120,-114,-192,-633
84,102,125,-809,-15,-455
91,86,123,-962,-80,-87
122,64,100,-575,219,216
-126,81,87,337,-297,316
-119,104,73,357,-381,184
-102,-107,81,91,-139,-114
-106,-93,79,22,-141,-75
-126,-110,83,46,-123,78
127,-109,89,131,-153,198
-102,-84,74,-124,-99,174
-93,-87,76,-369,-58,117
-100,-102,80,-474,-166,259
-110,-99,72,-387,-252,235
-99,-67,57,-487,-251,259
-88,-46,46,-600,-163,294
-75,-32,-43,1248,-5021,-1947
-42,69,96,1425,-5637,-1391
85,-44,34,912,-5196,-962
-85,-69,-73,372,-4003,-381
51,-44,-83,-1130,-3575,398
-29,97,126,99,-266,-469
-29,-106,-6,2149,40,659
59,-54,118,1521,-932,3970
116,50,-89,494,-790,3410
-40,81,18,2438,142,5706
-33,-19,-71,-486,715,3792
49,62,64,444,-428,3545
57,-123,59,-2267,-784,-3008
85,-32,35,-1715,-343,-3076
26,-38,34,-2046,2052,-5957
-32,-9,44,-2299,-693,-1715
77,67,-27,1406,2616,-3728
-52,3,62,-4402,-805,-1990
37,-125,-74,1182,-1493,666
-118,110,15,-4514,-569,-438
28,-26,97,-1562,-404,590
-126,86,57,-1160,934,2320
-49,-52,-55,-3216,1988,1294
64,10,-93,-4302,2077,2295
-22,-46,22,-5442,2968,3523
-118,79,-126,-2487,-1,5060
25,-50,-80,849,-1594,4824
66,117,-18,331,-952,3535
-80,89,-73,2728,-468,1621
-33,64,6,-11,-735,335
-96,66,27,2320,-406,504
-106,-110,-1,1810,-71,26
120,98,20,-101,-520,-142
-115,-16,104,1009,376,107
91,-63,-120,-617,-538,-31
-124,-74,26,-222,-416,170
-100,-46,2,-574,-171,-78
-117,-67,2,-273,-123,-28
-126,-75,18,11,-283,116
-106,-80,18,329,-243,233
-80,-55,2,301,-246,272
-84,-38,13,21,-253,270
-106,-19,26,-377,-248,351
-102,2,5,-765,-114,237
-93,-1,-9,-827,-111,241
-85,4,-4,-657,-32,88
-72,0,-12,-325,-12,68
-96,-8,2,128,-265,76
-101,10,0,75,-431,24
-81,39,-25,-426,-227,32
62,4,-9,1316,464,6321
49,7,-109,-501,940,6069
21,-25,57,427,-2529,-578
-83,59,-27,-2259,67,-3475
100,122,108,-2991,1449,-5291
-69,-66,7,-1337,755,-2851
-32,109,99,580,1808,-4442
47,72,-83,-499,1108,-2640
-88,106,-73,-1612,-1851,1186
-128,71,58,245,-989,309
4,65,-112,-840,-577,189
45,86,-118,-1441,497,330
-84,119,61,-3772,1150,-254
-38,48,-34,-4141,286,-66
69,-33,91,-5203,1266,2638
18,-65,75,-3143,1733,3666
-32,82,49,-3532,1890,5469
94,46,-29,-3335,-241,5006
61,65,16,5807,-1506,5301
114,-7,64,-1090,-1881,675
-7,122,9,2170,256,521
-127,-54,-5,2930,944,741
88,-90,0,431,313,96
96,67,40,110,-380,562
124,-15,90,319,-739,524
-114,-57,93,301,-214,-141
-112,-81,99,20,-49,-277
-125,-101,108,-152,-238,9
119,-102,94,-129,-141,271
103,-97,82,-10,-53,387
99,-60,65,-350,-86,537
111,-45,52,-480,14,373
-114,-48,41,-248,-9,290
-111,-22,33,-328,-146,215
-109,-41,25,405,-51,-103
-105,-41,19,326,-355,-181
-90,-22,31,-628,-537,-281
-94,-46,35,-393,-457,-232
-88,-41,41,-343,-375,-138
-81,-20,34,-546,-233,-90
-88,-12,24,-390,-302,-122
-86,-12,19,-125,-218,-55
-74,-2,11,-114,-130,32
-73,2,0,-12,-135,137
-69,17,-2,-243,-218,224
-71,32,-2,-282,-185,292
-75,46,4,-255,-152,334
-66,55,3,-170,-53,341
-53,63,-5,19,-151,294
-57,77,-15,-267,-242,157
33,75,99,2053,502,5660
-55,-94,80,1964,-79,6324
-30,108,51,-282,-2637,3973
-28,-34,110,-2171,737,1147
75,-87,43,-2211,-288,-2661
3,87,0,-2915,3220,-4317
112,-66,-5,-2664,1614,-3341
70,62,17,621,3889,-5817
31,-117,33,-1678,-796,-4673
-107,-52,-1,-723,-2023,1662
57,9,-100,-2225,-509,577
-86,-33,66,-1873,-128,1361
33,-15,-115,-1991,1914,-212
-74,-45,22,-5403,2244,505
-89,-102,-88,-3798,1494,1821
20,98,-66,-3486,1560,3716
-31,-86,-86,-826,1756,4377
-80,-87,17,-216,-668,4416
-18,110,-6,78,269,2241
68,-102,77,-342,-292,1985
0,53,76,1298,-219,1403
-86,-7,-125,303,-827,102
-118,-117,-114,156,-878,156
124,22,108,672,-109,122
127,-35,87,154,228,-237
127,-87,97,429,-215,-150
-111,-123,101,800,-255,191
-114,-115,110,402,-257,294
-108,-114,118,185,-164,412
-106,-96,123,-181,-292,498
-90,-97,112,-216,-124,318
-96,-64,110,-709,-415,198
-104,-71,99,-516,-264,17
-115,-84,80,-65,-168,16
-121,-71,66,-270,-299,166
-102,-49,50,-738,-215,302
-102,-35,33,-681,-313,182
-99,-23,27,-439,-381,72
-93,-14,24,-442,-246,-29
-99,-10,16,-449,-276,-23
-93,-4,3,-406,-201,19
-95,8,-4,-499,-276,73
-89,27,-3,-682,-260,159
-100,48,-7,-517,-158,88
-104,59,-10,-415,-193,62
-97,74,-15,-429,-89,5
-79,67,-27,-26,-101,-71
-70,67,-37,-13,-206,-55
-62,71,-38,-181,-246,-31
-59,75,-27,-76,-278,-8
-88,-117,-122,1695,-255,6061
-108,12,-69,1796,826,6623
111,-63,100,76,-2161,2806
-122,-70,-115,-3785,-1263,-1672
-25,-49,42,-3671,2293,-4900
-24,-60,68,-2438,6142,-5086
124,119,43,3210,2625,-2469
-110,-123,-93,-2733,512,-5860
101,-37,50,2966,-2694,804
-63,93,45,-3559,-2155,1264
32,111,-2,254,-448,791
105,95,-39,-1468,1581,-928
7,56,78,-2368,1252,253
105,77,-44,-2425,1103,1248
80,-28,-72,-4199,1051,2056
99,62,126,-3565,1981,2797
3,105,118,-5019,2611,3986
69,71,-64,303,1108,4832
21,-114,-71,5002,-58,5882
74,-117,-83,-4680,-547,542
-29,9,40,916,-698,1661
-54,-106,-69,4703,383,2022
-61,94,-127,1004,724,173
-90,41,-102,-6,-261,-44
-101,-55,-91,440,-665,-203
-103,-104,-86,200,-472,-353
126,126,-99,344,-262,-265
124,99,-105,582,-242,-112
-119,103,-108,170,-301,191
-107,120,-106,-293,-431,405
-106,-117,-109,-418,-509,368
-115,-86,-117,-522,-484,288
-117,-64,-126,-846,-238,204
-120,-40,109,-973,-255,253
-113,-25,75,-638,-115,68
-110,-17,55,-410,-131,-70
-94,-16,34,-333,-127,-171
-84,-28,12,-63,-209,-236
-80,-33,11,-45,-350,-124
-76,-21,11,-323,-374,7
-74,2,16,-462,-378,89
-71,4,20,-137,-299,61
-65,21,28,-167,-277,108
-68,43,27,-374,-98,-12
-55,74,37,-742,7,-25
-42,56,20,102,219,-91
-37,61,26,451,-34,11
-65,54,15,538,-310,126
-81,81,22,-370,-388,210
-84,98,26,-769,-240,155
-31,-100,-39,2377,-2599,-3189
31,-21,-17,3008,-3458,-3445
23,-103,-128,1360,-4366,-2108
-49,-9,-12,2062,-4641,-1210
-33,-33,-97,460,-5063,-350
49,-46,-25,-49,-3246,1000
-88,100,-53,360,-281,-186
-24,-109,-81,2756,-581,697
-13,89,-61,2172,-1265,4238
-39,102,91,1357,1075,4059
-26,103,-25,2791,-433,8076
-46,-4,-45,-276,618,5602
64,74,34,529,-2317,-73
-61,82,-15,-2314,860,-4195
-119,-125,70,-2437,1470,-4277
80,-66,113,-2268,102,-3478
-12,-37,63,514,1922,-5336
-106,53,1,-2271,791,-3569
97,-56,70,-463,-849,739
120,36,-109,-1938,-1963,1252
94,-30,-86,-1113,514,192
127,-37,95,-4555,1147,-704
90,88,-117,-3997,2725,-816
82,-89,111,-3901,382,494
40,-37,-111,-5540,-637,2581
59,61,54,-30,1595,3966
-27,32,-35,-1050,950,5211
88,-55,-27,-473,455,4354
-67,-24,55,1681,-230,2988
-122,-75,58,1896,197,2437
66,-106,5,263,704,1621
-83,-14,59,601,-1063,289
116,103,92,716,-953,308
112,31,111,229,-275,485
-123,-9,114,-23,144,384
-117,-33,106,31,45,258
120,-55,108,141,-665,130
127,-27,114,-926,-612,-218
120,-54,98,-508,-158,-382
125,-98,73,464,136,-230
-115,-84,62,254,-27,39
-99,-59,52,-402,-229,292
-95,-27,51,-989,-425,311
-95,-17,44,-817,-224,143
-88,-18,38,-347,-150,97
-98,2,33,-256,-340,196
-98,17,24,-384,-204,146
-103,19,16,-175,-225,143
-96,37,16,-296,-265,162
-86,38,10,-122,-215,14
74,81,1,2450,-3765,-1960
-128,-92,74,2465,-4556,-2225
103,55,-33,973,-4589,-1779
-25,-91,120,1416,-4651,-856
-94,-68,101,-821,-2957,118
47,108,76,-437,-983,-260
6,-59,-20,1118,-991,526
58,70,-90,2960,-1016,3104
-116,-80,105,2963,355,4855
-28,-58,-19,1497,1342,5818
-45,84,9,1358,-497,7875
1,-17,7,262,-205,2056
8,-109,-13,-1863,-718,-1081
45,84,115,-2057,-119,-5643
100,73,127,-1457,-248,-3809
75,-43,-7,-2899,-791,-4235
-103,119,-29,474,1545,-4620
62,-19,92,-1651,-376,-7
54,-85,108,-183,-473,296
25,20,-93,-1506,-1254,1341
65,29,-113,24,869,-142
-94,-116,98,-1876,928,-562
-23,101,21,-3701,940,285
86,9,-109,-7535,1719,648
74,-39,101,-5023,1284,1879
-121,92,113,-1181,1001,4340
57,111,-88,-3008,1490,4555
62,-107,-35,-1419,-420,3729
-63,-58,35,2245,-846,3858
-118,23,119,793,-797,1828
23,81,56,2785,80,1066
-66,-4,60,1153,-151,410
111,103,71,421,-215,361
108,-31,117,671,-69,679
123,-44,127,378,-406,673
-106,-51,120,-280,-310,352
-120,-82,120,241,-413,208
121,-98,-120,475,-195,112
110,-83,116,-470,-208,108
118,-81,75,-760,-234,117
-127,-89,60,-443,-176,64
-117,-79,44,-496,-221,98
-114,-73,34,-336,-335,119
-117,-66,29,-274,-263,85
-119,-62,39,59,-388,161
-110,-35,33,-21,-265,115
-104,-24,20,-303,-233,91
-104,-24,14,-273,-226,91
-92,-22,9,-153,-218,102
-95,-18,6,-156,-249,142
-12,-32,16,3653,-1792,-2575
77,105,13,2881,-3694,-2971
-126,-113,96,1864,-4252,-2425
-121,55,-35,1267,-4021,-2160
-44,-55,-105,1447,-4508,-941
-16,-65,24,13,-3180,145
91,-123,52,-367,-1115,224
47,6,-21,1528,-942,582
89,86,-72,3701,-757,1035
22,125,-98,1957,582,3346
-58,81,123,1573,722,6449
-46,120,-98,1350,1091,6398
117,-75,112,49,-362,5487
29,72,-128,-2600,-46,1206
-75,-52,-63,-2441,-1947,-4082
-33,-31,-110,-1542,1122,-4446
13,-17,29,-363,745,-3462
73,37,71,-613,1074,-4824
-45,-35,-38,451,-182,-3703
23,24,-83,-1358,-2048,2401
-76,81,-76,-839,-1153,1334
23,57,-44,-787,-762,412
-73,122,122,-804,1113,-532
-67,70,120,-2250,163,-224
71,120,90,-5493,645,379
44,-66,-35,-6938,1642,1754
99,-46,-122,-5572,2146,2898
-62,35,-79,-3605,1771,5199
-46,118,5,-3095,-908,5552
116,14,122,1697,-1974,5458
-115,56,117,1991,-799,2115
65,33,103,1716,-796,1399
-79,-104,103,2315,-395,330
83,74,-9,8310,-381,519
100,-36,-73,-2792,503,-499
93,-93,-59,-286,-407,143
100,123,-86,-758,-390,363
115,84,-109,-337,-273,265
114,116,-112,-42,-349,235
-128,-124,114,131,-250,186
126,-115,109,-39,-63,81
119,-115,-125,-150,-125,172
-127,-88,111,-474,-170,142
-123,-101,119,-128,-239,166
-122,-97,83,47,-246,62
-110,-75,81,-208,-84,60
-116,-90,82,4,-287,225
-113,-72,85,-125,-250,147
-110,-59,70,-339,-259,148
-100,-63,60,-280,-241,169
-62,-111,17,2446,-3510,-2167
-2,-31,-105,1704,-4599,-1476
-18,-126,76,-21,-4500,-589
92,108,9,-1423,-4255,-445
-124,121,-128,-1854,-1961,-136
22,0,97,953,-403,91
42,-125,-25,1514,-35,85
-57,-38,127,3223,-774,4019
-109,32,70,2609,1051,4289
111,104,-66,2310,-582,5730
46,48,-34,-154,916,5539
103,1,-31,-2082,-1229,-426
-24,-87,-57,-675,-125,-3320
57,105,-65,-4022,1452,-4238
40,-74,-102,-685,-1812,-3375
126,-80,-77,81,3298,-8290
57,64,-91,-703,-1028,1373
-12,-15,-54,-964,731,1579
-73,76,-66,-363,-2383,1171
-36,125,-90,-185,787,-716
28,-119,-53,-4465,1069,-1295
-83,116,117,-6409,1143,84
23,85,-52,-7812,2972,332
41,-8,-122,-6811,1556,2885
-97,34,4,-1905,-832,4832
-5,-42,106,903,-1143,4997
83,-37,-119,-305,-1427,4981
15,-92,104,3783,-836,2630
105,19,44,-379,81,315
126,-115,119,5439,-2224,1256
-103,-34,117,521,-401,13
123,44,116,-1670,997,-826
70,49,-10,2118,-686,842
104,75,-41,-516,-193,230
-122,52,-108,-321,-257,294
-107,89,-125,-325,-136,203
116,82,111,-149,-177,230
103,107,121,74,-211,284
125,-127,126,-174,-46,13
110,117,109,-58,-148,108
114,126,112,-262,-122,126
-126,-120,94,-572,-78,98
-120,123,76,-351,-215,161
-117,-125,74,-403,-233,186
-108,-101,65,-527,-117,54
-99,-72,57,-542,-60,-63
-103,-79,48,-252,-204,95
-96,-67,27,-253,-162,135
-93,-65,34,-21,-215,125
-92,-65,37,359,-515,341
47,-28,28,2095,-3475,-2667
31,36,-93,2504,-4561,-1717
126,-30,75,226,-4561,-643
-45,-62,-84,-269,-2455,-543
18,-110,-14,-146,-2072,-58
-27,13,-30,1137,-1692,661
39,35,-61,1976,-339,1266
108,83,-30,2730,-149,4195
33,13,76,1542,2792,4261
94,-68,32,430,1103,9484
-31,4,44,-266,-1182,4183
82,-54,74,-1668,-2068,88
23,60,-122,-2858,-720,-4001
-72,-49,8,-2248,-11,-3568
-45,21,-29,-1953,976,-5382
55,-77,93,1630,1236,-5352
-92,-64,66,-1225,-1803,-610
16,86,-113,-374,-293,1378
-58,-41,-47,-912,-696,813
14,112,101,333,1025,-678
-81,56,122,-1294,657,-1392
-31,25,107,-4411,600,-342
99,122,-24,-7854,1382,689
65,-108,112,-4332,1169,4039
-54,62,86,-3093,2467,3878
-93,-3,111,-2958,1368,5322
-73,10,-38,1645,-1689,4592
-32,-78,-52,-523,-63,1904
100,41,0,601,247,1486
-27,93,40,2209,-433,961
-63,-50,32,2307,-646,698
-125,55,53,2417,-1830,944
-109,-13,114,1946,730,-360
123,-46,-78,-671,594,-311
109,60,-127,866,-629,650
-121,-111,120,-162,-233,260
-121,122,91,55,-210,222
-105,122,98,144,-154,188
-100,-106,103,-132,-180,210
-111,-96,91,-276,-260,174
-113,-97,85,-380,-169,130
-114,-94,72,-697,-193,165
-110,-95,63,-428,-269,214
-122,124,61,544,-766,574
-106,-74,38,-714,-100,76
-111,-85,13,-495,-171,71
-119,-105,12,80,-328,175
-116,-83,9,-97,-205,111
-110,-73,13,100,-342,196
-110,-71,14,315,-384,201
-84,-11,-55,3054,-4038,-1212
-92,-74,9,643,-4964,-1511
-107,111,122,-1847,-2947,-2413
80,-116,-21,2135,-3038,-996
-44,-27,95,-704,-3016,-1079
124,-128,-103,707,-1820,-192
74,125,-93,313,-963,491
99,105,53,2187,-389,837
1,-49,38,2249,-786,4082
97,119,58,1329,512,6211
-90,-108,-43,-437,-317,7546
-107,5,-7,895,557,6334
-92,-92,57,-697,-1818,1893
73,-120,-116,-1817,-735,-2951
-41,-96,23,-1580,1176,-5874
-66,34,-114,40,198,-4354
123,82,-110,890,437,-6528
26,93,16,-716,947,-2652
11,34,-48,-935,-2579,3445
-25,-20,-83,-476,-792,204
-52,107,86,101,89,81
103,47,-12,-540,315,-918
-95,20,-2,-2860,-327,192
-38,16,-32,-4242,-163,-128
-69,110,-88,-6267,652,-113
-28,35,77,-7383,1307,1238
-63,-54,105,-1781,1391,3180
-110,86,-51,-3686,1385,5494
55,30,-13,575,20,5158
48,-106,35,-49,-1449,4671
-70,7,86,1910,-1096,1967
122,-99,33,3268,-115,2070
-74,117,50,-288,-29,-397
-110,84,-82,6279,-100,-100
-86,-24,99,-3399,329,-495
-124,-88,125,-458,-275,59
-101,-95,112,-547,-233,184
-90,-100,68,173,-533,387
-84,-64,69,261,-322,233
-96,-54,77,325,-301,167
-100,-48,66,72,-277,153
-76,-42,64,-55,-226,217
-73,-31,63,-63,-258,139
-70,-21,63,-285,-212,44
-81,-38,53,-160,-194,66
-79,-45,45,147,-272,162
-74,-32,41,138,-257,141
-72,-15,54,-22,-288,88
-63,-16,55,-133,-239,124
-66,-14,40,-108,-286,142
44,3,11,-687,-97,8322
89,-79,60,3228,-209,6193
13,59,-14,-2627,-2068,2674
94,46,-125,-1657,644,-4061
11,99,32,-1497,982,-5491
-73,-53,-122,-816,524,-3731
-46,-70,66,821,540,-5579
55,115,102,-1674,-704,-2271
6,34,-53,-1468,611,1780
-84,-85,-128,286,-1063,744
-85,48,100,350,-289,-53
-7,107,69,-1367,870,-327
58,-128,50,-4495,755,-1060
-93,-21,-36,-7655,1274,-801
-78,-75,-118,-4971,1346,1052
-58,-126,-35,-4510,495,3001
73,-68,-55,-867,759,4327
-99,-70,6,-2398,-495,3994
-54,-40,64,-379,-754,3317
-74,-92,119,3485,-717,2891
112,-101,75,1690,30,1194
-39,-7,91,602,-60,700
-73,126,113,1463,-526,985
-96,45,122,847,-458,421
-110,-18,-113,787,-514,214
-109,-58,-116,318,-202,1
-88,-84,-112,-171,-168,61
-87,-119,-105,604,-391,347
-88,-76,-90,146,-229,264
-82,-72,-120,-361,-21,-40
-93,-92,115,-202,-348,164
-80,-93,100,-139,-280,217
-74,-68,100,-433,-236,247
-80,-65,84,-380,-187,163
-79,-69,70,-351,-224,154
-80,-90,57,8,-261,227
-82,-75,59,181,-409,374
-65,-29,71,-140,-297,282
-73,-33,49,-255,-165,91
-89,-58,50,131,-350,233
-69,-27,47,-66,-229,183
-62,-7,41,-188,-253,145
-61,8,49,-567,-247,186
-43,10,24,-714,41,101
-44,3,7,-277,-123,205
-72,-10,8,288,-212,173
-71,-6,23,139,-169,133
-54,-13,22,307,-60,159
-52,-10,23,429,-360,241
-47,-2,21,119,-231,113
107,-69,-39,2699,94,5313
-66,-37,-102,-375,1357,5618
-87,-16,1,1083,-393,3529
90,58,-109,-2219,-2120,481
30,21,-104,-2393,-620,-4144
19,-102,11,-2078,531,-4181
-117,-52,46,-468,52,-3882
89,-68,86,260,2535,-5807
30,100,46,-2237,-2883,136
-56,76,-123,206,63,285
-101,-5,-97,-1304,-637,670
-72,-76,82,-3410,227,-1249
36,-118,-12,-2710,1516,-1191
71,47,-37,-4766,125,-405
107,-65,-64,-7830,155,-349
-55,123,114,-2923,664,1759
-49,-3,19,-2353,-134,3453
63,8,-39,-520,-220,4470
-126,-74,45,-1614,-1022,4442
-51,-114,69,242,-1336,4492
-34,-24,115,2066,-858,3466
-118,31,-105,676,-550,1961
-3,106,-116,2652,-1010,994
-93,-17,-118,2071,-744,365
126,126,115,301,56,-244
120,32,-123,252,90,27
124,-48,-52,-460,194,-49
-116,126,-104,-47,-569,309
-93,-101,94,181,-419,312
-101,-66,90,2,-276,120
-105,-73,81,178,-268,107
-97,-82,88,361,-211,222
-90,-80,93,377,-307,305
-89,-36,109,-491,-319,285
-88,-28,89,-985,-276,278
-101,-31,53,-936,-277,242
-105,-37,28,-517,-247,242
-94,-20,25,-530,-258,279
-97,-6,27,-449,-225,271
-95,4,16,-349,-234,234
-90,8,15,-303,-280,262
-84,26,17,-416,-244,211
-83,36,2,-288,-252,121
-84,31,-1,40,-298,190
-82,40,-3,208,-320,174
-87,59,5,136,-278,75
-75,56,12,-12,-258,63
-66,49,-2,108,-262,9
-68,25,-10,337,-291,84
-71,31,5,466,-350,199
-65,61,-41,-5113,1031,2190
-6,109,-100,-4095,732,3971
-66,-99,-66,-1587,1273,4612
55,81,-15,-915,-772,5845
115,-84,72,1948,-1080,4351
89,45,54,490,-199,2672
113,41,69,125,-1065,1128
-70,44,-126,2229,-1327,149
-118,-94,104,1854,-125,-564
-98,34,-85,3262,1122,437
76,-3,-26,-1313,-895,152
-123,-112,-105,-720,-172,162
-116,-109,99,-902,-318,62
-107,123,90,-349,-210,100
-105,-125,84,48,-301,252
-93,-106,84,334,-231,240
-86,-90,88,162,-234,156
-92,-82,95,-104,-281,229
-98,-66,81,-428,-258,222
-102,-57,57,-485,-223,177
-105,-55,44,-263,-234,122
-98,-55,45,-141,-251,148
-87,-44,46,-20,-253,124
-85,-41,39,81,-285,52
-84,-49,39,199,-304,104
-76,-26,43,75,-293,150
-76,-10,28,-159,-251,48
-81,-22,30,-74,-309,118
-72,-17,25,-76,-245,89
-63,-5,17,54,-328,132
-57,-5,20,-23,-228,90
-73,-7,23,49,-308,163
-64,7,12,-17,-269,138
-61,14,7,-35,-294,138
-62,5,14,-53,-228,96
-55,9,4,47,-299,226
-56,24,3,1,-258,135
-65,21,11,94,-288,146
-58,29,6,29,-261,115
-55,31,-1,54,-282,132
-52,32,-3,-95,-273,136
-52,36,5,-203,-279,151
-50,40,1,-115,-311,161
-45,47,-11,-61,-265,129
-47,40,-19,90,-252,154
-45,46,-12,114,-243,161
-43,54,-3,-5,-245,148
-42,52,-6,-23,-273,168
-44,52,-13,-3,-252,166
-41,55,-15,38,-241,162
-43,-70,10,3019,-1250,3895
-62,-76,4,770,-1537,6066
-21,63,94,760,-694,8212
-47,55,-99,312,-1540,2210
117,119,118,-103,-15,-1638
5,-82,10,-2504,623,-3579
46,72,-4,-1031,1906,-3604
-112,-10,-82,459,822,-4490
-77,-83,-93,-1516,876,-6136
-22,-74,-55,-126,-1298,-1712
33,74,61,-405,-801,-105
-76,125,-117,-1416,-1162,2181
123,1,104,-104,-757,-519
-37,-49,87,-2290,921,-873
8,106,79,-2279,360,-554
72,104,31,-3036,1109,720
105,-106,-3,-3907,1544,1826
-43,127,-122,-6179,2592,3681
26,-72,-118,204,2095,4627
57,65,-98,-3502,2329,5149
19,93,109,-2772,-2768,6001
103,40,59,1518,-2192,4778
9,45,-11,2022,47,910
20,84,37,-644,-488,-272
-110,-94,72,1686,-1005,-8
81,25,77,2349,-738,-760
126,-9,83,1016,-12,-903
-96,-58,95,416,123,-249
111,-95,109,-31,-556,213
-107,-72,-94,-1518,1106,-233
114,97,-51,-41,-506,-27
-86,-108,61,-408,-526,438
-93,-65,27,-702,-98,-14
-116,-85,27,-13,-335,67
-116,-66,42,43,-448,217
-99,-62,46,51,-222,85
-85,-47,40,-5,-345,188
-64,-25,30,-123,-245,255
-82,-15,26,-251,-250,196
-87,-21,23,-297,-242,236
-76,-15,16,-361,-148,265
-89,-9,9,-258,-245,291
-83,4,18,-344,-246,295
-81,34,9,-398,-222,229
-75,45,3,-510,-212,175
-71,50,-3,-549,-160,130
-68,44,-11,-463,-140,72
-68,44,-10,-326,-261,115
-58,54,-10,-325,-263,144
-56,77,-17,-158,-231,112
73,64,1,1498,668,6065
32,7,87,1355,-11,6895
121,-80,0,148,-434,4009
-96,-90,-111,-1375,-1223,-751
63,-13,126,-2472,-1397,-4238
38,-54,40,-748,1090,-4670
-125,96,-5,-1012,-215,-4105
-113,29,15,1568,716,-5079
17,62,-85,-4174,-437,-760
121,-47,101,1590,1541,1179
67,30,66,-1082,-1424,592
85,44,87,-143,-832,91
-79,103,68,-1957,1188,-660
-59,121,43,-3728,879,-154
26,109,-30,-3795,1339,1107
72,46,-123,-6214,1697,1971
-123,-40,51,-1594,2125,3511
30,70,98,-3738,1523,5122
123,-116,-89,-2571,249,4114
16,94,-43,4218,-520,4120
-79,30,55,116,-1146,2410
52,116,-20,728,363,614
-83,46,65,-55,-441,729
-110,-112,85,1641,-518,297
-109,-5,-107,5393,-286,363
-94,16,-39,435,390,13
125,-81,-36,-243,-370,139
-124,-109,-65,-265,-438,220
-109,-97,-113,-656,-316,60
-104,-95,114,-659,-138,40
-107,-87,98,-364,-250,141
-92,-81,88,-123,-243,101
-81,-73,96,-273,81,-178
-82,-81,101,-76,-338,101
-77,-55,95,-199,-402,409
-79,-31,77,-373,-322,252
-82,-15,63,-529,-342,245
-89,0,47,-633,-331,197
-84,8,36,-766,-284,131
-78,17,33,-605,-306,172
-68,33,22,-375,-233,127
-73,40,13,-252,-259,97
-73,39,9,-118,-294,158
-75,49,19,-49,-314,186
-64,60,16,-70,-272,111
-56,65,15,-100,-260,95
-54,61,10,-61,-236,110
-56,60,11,74,-237,144
-58,68,10,176,-247,139
-52,68,9,249,-278,184
-25,-31,32,2827,-2175,-3057
-48,23,86,4701,-3671,-2434
-83,-75,-86,2416,-3289,-1759
15,13,68,2253,-3442,-657
106,7,-58,417,-2949,-49
7,-29,-34,45,-1706,219
-116,-106,-27,400,-1741,654
-108,27,-47,442,-518,728
-16,71,-124,2231,569,2177
120,65,85,2998,1272,3713
-22,40,-85,1054,490,6523
-11,31,-51,-468,1472,7003
-126,-56,28,993,-927,4662
-79,-58,113,-2930,-1175,-63
0,-59,-24,-1235,-1770,-4573
124,-37,100,-780,1455,-5146
48,-105,-59,-677,-600,-4653
-118,-27,-38,-385,674,-3892
54,-29,83,-468,-1678,154
-81,-78,-76,-1491,-1755,1190
30,125,-64,-349,-653,825
4,73,-41,-706,59,-633
122,55,-64,-1661,877,-561
-41,81,122,-4375,971,57
15,117,15,-6774,1916,96
61,82,45,-3985,3128,2004
-95,33,-110,-4142,2758,3842
38,29,57,-5338,2475,4971
-45,34,-69,-1864,-1377,4930
42,-41,-26,4405,-2066,3635
-34,-33,121,-1419,343,1007
-105,-117,8,966,-1006,190
-98,-83,24,6057,1136,89
-121,-69,-96,-389,275,496
-122,-3,-101,-1650,-284,-118
-71,-73,-51,34,-27,241
-84,-84,-67,564,-261,324
-93,-68,-89,669,-218,387
-86,-66,-95,984,-98,442
-68,-45,-76,762,-59,356
-52,-24,-57,424,-55,236
-57,-23,-57,135,-219,214
-68,-24,-52,15,-348,128
-65,-29,-57,-146,-455,277
-75,-17,-70,-460,-629,324
-84,-10,-94,-561,-641,265
-96,-17,-127,-754,-754,274
-96,-34,105,-451,-651,214
-80,-27,101,-190,-510,265
-52,12,121,63,-294,167
127,62,68,1307,-277,6548
-98,106,35,2915,1253,4598
-95,-15,-32,-1969,-1266,1146
31,84,115,-2375,-437,-3216
29,59,70,-1315,914,-4658
98,-3,54,-2503,-426,-2606
-4,51,-20,735,1907,-5288
-64,93,112,184,1312,-2232
-7,95,-67,-1664,-2555,1999
93,-124,-83,-1054,56,294
-23,93,-49,-1656,-496,573
69,-45,122,-4808,1238,-1288
-83,124,70,-3997,1643,-160
-66,22,24,-5843,1371,1731
26,120,-80,-6279,1747,2925
118,90,-1,-2511,884,4318
-23,39,56,-906,-678,4746
39,62,-114,-10,-1210,4367
-3,87,-116,2057,-1392,3568
-115,113,-105,1713,-1135,2164
15,42,-109,1353,-783,963
-113,-89,-118,293,-389,44
105,34,-88,985,-769,86
117,-44,-66,1255,-715,-45
124,-113,-75,926,-179,-455
118,123,-72,235,-171,-194
117,103,-60,215,-387,326
115,44,38,921,-133,344
125,-121,-85,-433,-346,189
-108,-123,126,-278,-131,38
-115,95,119,373,-288,125
-116,105,-127,524,-359,320
-112,118,-119,604,-330,315
-105,-126,-105,505,-366,261
-103,-126,-108,72,-208,257
-113,-126,-125,-148,-255,283
127,-123,108,-93,-410,381
-119,-105,99,-398,-342,409
-118,-87,88,-462,-287,370
-125,-70,68,-591,-302,211
-126,-66,57,-910,-311,123
-103,-52,38,-1164,-224,91
-106,-37,-5,-1280,-219,35
-110,-33,-17,-1015,-275,73
-93,-6,-30,-821,-295,212
-82,3,-53,308,-576,318
-97,-28,-14,396,-136,-15
-102,-30,-5,-75,-133,175
-105,-6,-23,308,-498,314
-99,11,-35,453,-423,109
-127,108,-64,98,-3195,4823
-78,-95,-107,2439,-227,7255
-22,36,92,998,-851,4753
99,-100,-95,-1266,-1805,-1198
-44,-64,-113,-1149,765,-3233
121,-51,32,-2185,1688,-3936
49,52,77,-84,1811,-2567
102,16,117,1179,2591,-6821
-115,122,4,-1351,-594,-2128
-55,-15,-110,-79,-1797,2426
-16,51,-114,-1712,-690,371
85,76,-21,-4796,-632,187
-47,-113,25,-8250,2475,-1070
67,-40,87,-7610,2466,754
101,62,-88,-2799,-777,4378
-1,35,-67,-1602,-156,4571
-51,-40,52,-1912,-1279,4758
-56,-91,44,653,-1426,3836
-41,-10,82,1201,-402,3141
-123,-38,89,2182,-1065,2253
-47,-113,69,1251,-870,445
-105,-11,82,1425,-298,927
122,-91,77,1655,-76,47
118,66,69,1529,-195,325
108,14,89,74,-83,32
-124,-51,77,-506,142,5
124,-87,121,-88,-163,365
-125,-82,123,-175,-61,446
-113,-52,73,-504,-131,293
-107,-53,70,-192,-152,286
-112,-45,81,-174,-54,186
-112,-35,87,-383,-118,150
-96,-20,85,-434,-99,63
-80,-25,57,-349,-55,-38
-73,-36,63,-146,-33,56
-62,-21,70,5,-15,100
-60,-5,75,91,-25,62
-54,1,87,204,-42,66
-45,14,86,278,-76,92
-41,33,100,180,-135,132
-35,32,96,206,-167,194
-39,34,99,130,-224,216
-35,42,100,-60,-235,223
-36,41,97,-166,-255,237
-31,32,87,100,-330,301
-30,49,99,346,-306,279
-42,71,86,222,-241,118
-33,68,88,56,-164,143
-28,57,92,61,-302,250
-18,64,90,9,-279,170
-31,108,-116,2131,-4263,-1612
-49,-11,-22,871,-3895,-709
39,-111,-122,701,-4021,-123
105,-121,16,-60,-2911,394
50,59,-15,547,-1376,651
48,-55,-54,1014,-1706,1317
-116,-101,-42,1350,-1975,4179
-64,31,-62,1728,-843,4617
108,55,45,641,-456,6203
-49,66,55,1173,-787,4668
-120,54,102,-2606,-811,258
123,-59,95,-862,549,-4248
-71,23,-101,-1410,2286,-5006
77,-99,-123,116,-90,-2638
3,106,-41,551,2725,-5613
-126,94,44,-3080,-235,-2560
86,-93,123,-323,-3483,3742
12,109,100,369,1308,-362
-122,109,-108,-2709,-889,759
-80,-75,84,-3476,-324,599
-18,-40,8,-5433,1450,461
47,12,-98,-5496,1975,1945
-85,40,-92,-3498,1523,3859
18,32,-85,-4161,543,5509
-79,61,35,1738,-1214,6021
113,-41,48,1952,-714,4314
-37,-25,-13,1393,-700,2175
50,-83,47,914,-1073,1113
-120,-21,68,1357,-690,217
90,111,98,1957,-528,148
82,33,97,943,56,-176
115,-37,96,-74,253,-23
90,-69,97,-112,-415,258
97,-82,103,-115,-481,278
103,-72,96,-408,-305,196
111,-79,96,130,-359,163
-125,-81,94,265,-365,108
-124,-84,79,28,-215,-28
114,-99,92,129,-364,265
121,-71,61,130,-395,376
119,-43,44,-2,-410,355
111,-25,31,-362,-401,370
111,-23,17,-300,-483,330
116,-13,25,-408,-341,280
-127,-10,23,-847,-133,160
-116,-4,0,-1013,-93,212
-123,18,-20,-1117,-240,246
-118,30,-28,-1058,-151,169
-120,51,-47,-962,-191,112
-106,61,-60,-746,-223,84
10,-64,100,3656,-1110,-3503
5,72,99,3937,-2607,-3251
-21,-62,-105,2870,-3309,-2466
-52,118,-19,1964,-3144,-1566
29,46,110,1639,-3537,-254
-81,34,-114,251,-2495,413
105,4,109,342,-1424,522
-96,106,27,1783,-1570,653
23,-120,18,2937,-1160,2343
-81,49,39,-596,-1005,5652
64,-11,70,1272,-1774,6177
66,112,-112,209,-283,6147
-21,-79,-24,93,-1105,2063
31,-95,-52,-1275,30,-3587
86,112,75,-550,1043,-4408
-86,48,11,-1517,821,-3018
24,-92,60,1791,1346,-4812
63,58,-119,1415,442,-4706
-51,67,-113,-1308,-1758,1526
117,42,-102,-551,-1142,1823
-55,59,-86,-1577,-805,686
-35,121,-111,298,824,63
113,-87,-94,-2478,1183,-1498
-106,34,-93,-1218,574,-42
27,-84,-102,-4724,931,1888
45,7,1,-7266,2410,3147
-45,-107,118,-2013,3012,5284
50,-127,27,-4970,578,5550
-113,-41,48,1980,-776,4331
120,27,104,680,-786,3381
89,88,86,2585,-714,317
-42,-31,121,2037,-615,13
-93,49,-88,2621,-429,51
126,-52,-55,749,-13,-328
-114,-89,-34,-598,-91,163
-98,111,-43,-813,-18,168
-99,77,-48,-556,-152,216
-93,45,-42,719,-387,475
-72,62,-54,861,28,419
-86,-127,-91,157,-92,559
-96,-110,-98,15,-295,277
-72,-112,-75,-34,4,163
-87,105,-79,41,237,39
-111,91,-93,438,-247,451
-107,96,-98,662,-414,479
-97,-128,-87,525,-429,497
-85,-121,-89,201,-416,389
-86,-127,-86,-40,-361,252
-79,83,-108,53,-171,302
-93,107,-112,-181,-227,368
100,-29,97,4186,-1606,-2210
126,-88,91,4132,-3090,-2089
-99,61,102,2134,-2885,-2169
112,92,-34,2599,-3504,-976
17,46,36,269,-3444,-268
-104,-47,116,-185,-2800,-11
91,27,-115,974,-1786,224
-124,-34,-116,856,-2382,1803
-123,29,-19,1301,-2412,2936
-48,-122,1,1962,66,4129
-33,-41,-51,1184,-679,6113
47,-99,-78,809,-841,5223
-51,-8,-65,-1566,-576,1428
-80,-47,25,-1575,578,-4249
-85,7,-100,-1029,2083,-4901
-7,-53,125,-469,383,-2601
53,-117,19,856,2641,-5084
-4,58,99,-766,-1220,95
-93,102,-96,-55,-1192,2127
116,46,-36,-2404,-1313,709
-81,-3,-45,-305,704,-135
-14,-106,-73,-4814,2085,-1908
111,-60,31,-8830,1454,-909
-57,-118,66,-4885,1498,2736
-55,-90,-48,-4507,-109,4093
125,14,-32,246,-432,4635
-103,-85,-4,255,-571,4636
-62,-47,24,-631,25,2811
96,89,26,2522,-967,2485
-23,-9,86,3008,-1248,1477
-57,-60,41,1534,522,832
110,91,75,1195,-92,996
116,55,90,324,-497,648
119,21,101,-493,-315,223
105,-74,122,203,-458,68
106,-95,117,242,-442,42
106,-108,98,-331,-483,-11
80,-110,89,-763,-690,1
101,-114,82,-750,-403,358
105,-86,65,-878,-144,243
110,-44,25,-117,-123,34
91,-70,28,825,-591,-140
111,-72,54,344,-465,142
-116,-68,43,-112,-104,297
-111,-43,2,-331,-117,289
-118,-31,-13,-594,-319,148
124,-28,-2,-688,-498,181
-124,-31,1,-282,-264,248
-101,-1,-4,-518,-79,248
-93,7,-50,-260,27,140
-40,14,76,2907,-3196,-2450
-59,-110,-114,2632,-4315,-1483
-81,82,-65,916,-3283,-1458
11,-30,56,1015,-3320,-453
-82,-36,77,-486,-2220,-90
51,-97,123,665,-2247,454
15,51,81,364,-1469,534
-110,45,68,2480,-1300,418
96,-43,105,1608,569,4445
43,-39,113,487,-1817,7455
-57,127,-125,826,351,5969
61,-14,113,-1028,-1788,3893
-64,67,-106,-1441,-1328,-2281
-117,12,78,-782,401,-4071
-10,-92,48,-1860,1453,-3694
-66,-27,-127,736,118,-4256
-76,-33,-79,300,1696,-4962
46,-52,-116,-1187,-1865,1312
-109,74,114,-805,1492,-93
107,-3,-105,-1228,-1069,1361
-86,-115,126,-2622,787,-901
27,-80,59,-5135,1755,-930
-102,19,-64,-7330,1387,89
-19,37,77,-6514,1489,1991
36,38,-124,-5342,-206,4521
-114,85,96,1431,-2460,5517
19,6,70,1889,-725,4045
-2,7,-7,344,-173,2621
52,-91,57,1203,-1215,2115
5,73,33,1699,-449,1588
-54,-19,24,1176,-463,667
-110,88,46,1436,-758,577
-103,29,59,887,-381,272
-117,-18,53,472,-221,211
120,-59,68,-109,-433,91
-120,-51,69,-825,-367,212
-127,-116,-127,745,-211,418
122,-109,-111,-1218,-7,208
-118,-51,10,-708,-435,266
-102,-58,-11,-236,-203,-37
-109,-38,-15,-317,-152,50
-110,-43,-15,50,-212,43
-113,-52,0,61,-253,102
-110,-72,19,304,-391,228
-95,-52,12,394,-490,270
-81,-26,-5,45,-212,182
-97,-17,-11,-59,-208,123
-100,-25,-7,99,-306,170
-96,-23,-2,33,-309,175
-79,-21,-10,-12,-219,207
-49,2,-99,5087,-1799,1476
92,51,-30,3736,151,3309
67,-92,61,-472,-993,6239
-29,82,-14,2126,-1157,6598
109,-26,-55,-883,100,4467
-70,-18,-67,-356,-1154,126
57,-106,-38,-2508,110,-3794
80,-42,83,-1315,792,-3182
-30,-3,-8,-778,841,-2968
-22,-105,31,664,2804,-5812
77,96,-42,-1026,-953,-2336
-31,97,69,-998,-1639,2155
69,-107,37,-753,-133,243
-111,-92,120,-1672,-1338,-39
-2,-96,21,-2978,1253,-467
55,-53,-1,-3346,1008,452
-106,-49,-65,-3085,1696,1026
-16,-55,-85,-2788,2290,1917
17,-48,-59,-5601,1284,3481
-90,-109,-121,-2667,986,4349
-48,-21,42,-602,-1587,4814
39,-128,25,-876,-1521,3251
-74,101,-116,1608,-1640,1919
92,47,82,1603,-478,1305
-36,31,102,-365,-766,715
113,85,106,1526,-948,539
114,31,117,2580,-727,449
123,-10,99,1842,-412,290
100,-93,-72,507,-126,19
112,-105,-125,-810,-160,52
-125,125,55,-492,-257,105
121,124,51,-638,-123,97
113,120,51,-409,-187,145
122,-113,33,-394,-325,189
-114,-93,15,-327,-231,65
-114,-96,7,-254,-172,80
-117,-103,0,66,-296,154
-118,-94,1,278,-338,223
-112,-76,8,246,-354,203
-112,-73,11,76,-396,230
-105,-65,7,-217,-217,187
-107,-55,-6,-231,-285,216
-102,-52,-14,-175,-238,201
-103,-54,-15,-25,-280,210
-102,-47,-17,57,-268,223
-102,-34,-26,98,-305,197
-92,-29,-20,23,-239,204
-95,-21,-23,-47,-258,168
-93,-25,-28,-32,-259,169
-87,-25,-33,-9,-278,209
