AccX,AccY,AccZ,GyroX,GyroY,GyroZ
-82,3,-49,5402,-1919,911
-66,62,93,4694,-1319,-1268
79,34,-98,5079,668,-1764
52,68,-48,2667,-4503,-2164
-30,-93,5,1000,-4950,-1694
29,20,113,2294,-3843,-2541
44,43,100,-594,-3838,-1099
68,-106,97,-1401,-4227,43
-111,73,-90,-244,-1472,-734
4,48,-120,1504,-26,-357
-108,54,67,81,-1019,2265
85,-38,93,2164,-1838,3935
3,-98,76,2078,418,5636
2,26,-51,2639,911,6528
84,-47,30,222,262,2943
93,-105,-68,-3458,-113,-2170
37,-88,-3,-759,1141,-4614
66,94,-72,-2186,1255,-4577
60,-93,37,433,526,-5451
-7,61,-54,-391,436,-4127
64,86,-93,-347,-1405,1973
117,112,23,-791,-272,611
72,49,-6,37,440,354
-65,-108,-41,-1089,563,-682
29,32,-115,-3541,1405,-1124
126,-37,60,-11498,2745,424
-126,34,-43,-8122,2568,2895
34,-84,-60,1025,-1083,7728
101,-59,105,178,308,5728
38,-67,-122,-174,1045,3503
107,-120,114,3873,-147,3295
65,71,8,1160,-401,155
115,14,-9,3076,-721,549
42,-27,-40,-191,311,-125
61,-87,-14,-1099,268,-167
76,53,9,872,58,-94
109,-24,38,2034,155,-222
116,-54,58,2255,45,-32
110,-32,100,877,-408,39
112,-19,118,-494,-76,-169
110,-54,100,-206,112,-164
109,-50,86,-104,-82,42
100,-10,67,-380,-84,24
99,10,41,-341,183,-200
105,14,16,52,177,-182
97,26,-2,227,-97,-125
111,54,-1,-296,-43,-165
125,59,-6,-206,52,-195
-120,71,-15,14,64,-349
-121,64,-20,275,4,-373
-111,105,-67,1046,-3975,-2989
1,114,102,2218,-5647,-2613
-34,-38,84,850,-5119,-1614
106,-119,-112,-1833,-4941,-1097
68,28,-89,-1048,482,516
-40,-106,-57,690,-402,-156
19,106,49,2064,-3020,2943
53,7,20,3322,-3017,4877
-31,59,-128,347,-1632,6084
95,-53,-22,3040,203,5356
-6,64,90,-115,-1570,2053
52,114,121,-2804,481,-3904
-96,-77,123,-650,2844,-5606
-24,-102,127,-695,1864,-5677
-112,33,49,4025,2000,-6168
116,102,-9,-1377,-1581,-1280
110,75,-97,-749,647,1854
15,-8,-93,-756,-786,413
41,-99,-96,-2110,248,-83
-72,-119,42,-5004,1678,-985
11,125,-8,-5237,1215,-458
22,-54,-88,-5753,1283,889
-112,53,110,-2174,1201,3841
31,38,-67,-1282,796,5262
-53,-48,-38,1008,531,5127
40,10,28,-1164,489,4131
-41,89,6,2572,486,2155
91,59,-35,2025,533,1510
-102,112,-38,2047,-399,1039
98,18,-15,330,-462,508
85,-64,-5,-234,-486,355
91,64,12,930,-296,-159
100,62,29,594,58,-403
100,29,25,292,58,-477
105,-5,39,699,-108,-179
96,4,30,333,-99,-241
108,34,53,-234,-119,-150
117,-1,26,646,206,-154
-128,35,8,-42,58,-202
120,41,-5,-287,-103,-159
116,45,-17,-149,15,-172
-120,57,-24,-143,90,-129
-116,68,-35,-39,6,-132
-123,87,-39,-20,-86,-176
-120,98,-36,-137,-74,-217
-120,108,-39,-67,-56,-234
-115,115,-40,41,-38,-298
-109,112,-45,279,15,-314
-104,110,-46,337,-80,-271
-101,118,-40,262,20,-328
-5,32,-60,3116,-860,-4149
-98,36,79,2021,-4593,-3458
-34,-74,85,-2391,-5288,-3009
-58,49,21,1654,-3518,-3165
-126,43,-54,2370,-4491,-1495
-86,81,23,941,-1194,-909
43,58,-38,1071,265,100
-86,-100,93,3401,-703,2966
14,14,-59,-163,-2084,3631
-128,45,-126,918,-889,7270
-107,125,25,1393,-616,6201
25,-42,22,-450,89,543
-78,24,11,-679,1164,-3756
-33,73,69,-772,2332,-6933
-79,-120,75,150,291,-2904
125,48,-77,3481,2594,-4668
66,103,68,-2058,-694,-1628
-72,103,20,236,-480,1589
68,-23,71,-823,-1273,179
67,114,68,-59,-497,-379
-45,-112,119,-3082,909,-2115
-24,84,122,-5279,832,-1194
-47,64,-112,-5590,2678,2112
-10,105,111,-2541,2373,5391
-64,-128,120,-1828,1782,6277
-30,-128,71,816,1327,5471
-48,26,-53,3531,332,3438
-47,-68,98,2640,1117,1283
-47,-124,-72,-440,-471,506
83,3,-41,-1128,-583,60
96,104,-14,663,-306,487
-95,49,-1,1380,369,249
120,51,26,971,-31,90
93,-62,57,2262,-394,41
76,-55,82,1062,-171,-495
114,-80,71,-215,509,-909
-91,-120,66,-467,366,-638
-80,-112,61,2,-6,122
-116,-44,39,-446,-14,31
111,-16,4,-480,115,-431
-126,-13,6,-346,20,-260
-111,6,2,-184,46,-53
-93,14,-29,233,295,-147
-80,14,-50,64,269,-263
-94,8,-51,26,-128,-87
-99,8,-39,163,-77,14
-88,22,-29,77,73,-52
-69,27,-25,98,0,43
-85,57,-12,-173,-170,-7
-120,67,-9,-37,-122,-86
35,64,75,2241,-2908,-2985
-83,93,-94,1602,-5135,-2983
-113,81,-111,1179,-5121,-2726
-35,-120,-104,653,-3954,-2094
-24,86,34,-36,-2531,-984
98,-12,49,682,-1269,-342
-16,-85,-48,3226,-841,846
75,89,5,1756,-2506,6338
-34,-82,37,400,-1198,5301
-30,34,36,1928,1184,6812
-112,-85,-68,81,-183,2502
-110,-123,73,-2454,-233,-2991
122,-65,-7,-995,1722,-5426
32,70,-40,256,635,-3884
120,2,-117,-71,626,-5853
84,-14,35,-2794,543,-2439
28,-35,49,-72,-504,2134
40,87,100,-31,-755,-757
-20,-52,-88,-1006,-816,-50
126,63,100,-1487,1542,-186
-89,100,38,-3685,2413,165
37,-109,83,-5234,3132,1610
126,-8,73,-2365,1442,4878
-21,-22,9,-2123,1860,4366
-22,88,57,-3290,1494,4448
-94,97,-57,2436,-1318,3728
-68,-93,-5,428,1061,1393
75,7,-126,316,1256,1354
120,-117,-11,1025,-1617,1049
-124,47,-32,572,-351,350
-120,4,-40,-461,465,-23
108,-74,-21,149,44,-273
115,-120,-13,743,-42,-321
121,110,-20,711,87,-472
127,109,-21,242,86,-483
-126,94,-22,239,56,-409
-116,92,-15,141,13,-352
-114,89,-22,157,93,-322
-115,100,-17,17,29,-284
-86,94,-23,206,272,-164
-82,99,-37,404,186,-108
-85,107,-40,401,-19,-68
-102,118,-48,87,23,-152
-102,116,-45,18,5,-4
-94,-127,-42,4,-45,126
-87,-97,-36,-138,-65,124
-77,-80,-31,-161,-11,0
-77,-79,-31,188,-17,-130
-80,-86,-33,441,-47,-206
-82,-85,-36,224,4,-194
65,61,-127,1819,-2992,-3709
-18,-102,-47,2526,-3293,-2922
81,83,38,845,-2832,-2153
-116,-17,98,874,-2267,-1115
17,-86,85,922,-1148,-236
5,86,12,2283,-688,313
73,-69,-42,4489,-495,1757
-47,-92,16,2604,-360,4044
-109,-101,6,-671,133,6044
-77,22,-60,2470,39,6708
-109,-74,-101,-1046,80,4508
-7,-98,96,-201,255,-491
123,-9,-123,-2078,-475,-5443
-99,18,121,-686,570,-2918
83,-9,113,-1366,861,-5260
-75,72,32,1845,335,-6292
-85,-78,69,-2029,-1066,-1344
56,-52,65,-1944,-278,898
-118,-86,46,490,-251,159
7,-90,80,-267,-913,111
121,-98,13,-1615,1504,-292
-101,-41,9,-2624,1179,45
-34,-78,-37,-2602,1228,555
96,69,108,-6455,3118,1654
-108,119,10,-4179,2013,3556
24,9,91,-55,724,5053
-72,-68,18,698,-679,4820
21,-29,-47,2438,607,3215
-89,67,0,-668,310,2190
44,105,2,1941,-110,1628
-60,80,-3,371,-10,920
97,-47,27,401,-56,686
115,-106,30,533,227,574
122,-121,24,33,312,241
-118,97,29,78,25,-244
-127,61,24,626,-137,-592
-128,48,32,497,-134,-694
-121,29,18,416,58,-642
-125,26,12,261,-33,-485
-122,36,14,-87,-170,-310
-118,49,10,-207,-97,-285
-112,46,3,64,57,-331
-106,53,0,146,-13,-211
-105,70,-12,67,-26,-182
-100,77,-13,55,18,-159
-91,79,-23,214,18,-112
-96,99,-22,-29,-97,-2
-93,109,-26,2,33,-71
-88,117,-25,136,-2,-8
-88,124,-32,203,28,-45
-20,-23,48,3036,-1897,-3302
14,64,-123,3422,-3887,-2905
-12,-65,-39,1986,-3880,-2278
62,76,110,398,-3792,-1721
-117,4,-98,425,-2521,-499
39,-85,111,814,-526,-556
43,-42,25,3135,-387,-336
-51,94,73,3160,-1033,1761
77,-53,-114,982,-437,4674
-39,21,-116,-24,-150,8500
92,-104,-104,1601,-50,6764
-38,90,-101,-1220,-1491,4003
-106,-92,-76,-2650,-634,-2884
103,-43,80,-1371,1462,-4555
116,-62,87,-3615,2258,-4600
-40,-16,20,-733,860,-6012
43,-58,99,-123,3036,-7558
-9,6,10,-2130,-2955,5638
53,70,95,1683,6,-150
-61,61,22,637,-412,-92
-3,-27,-3,1129,911,-121
45,14,-24,675,89,442
113,-36,-75,777,1480,-539
-101,-33,-66,803,849,103
-45,-41,-82,960,686,-296
-38,-47,-27,15,643,-170
-16,-91,29,341,539,233
66,3,73,-1744,988,116
96,-80,55,-3114,2206,-565
-96,10,34,-5757,2753,617
-69,-22,-92,-3965,2664,2032
26,-128,116,-2659,2637,2681
62,-86,10,328,-51,3097
111,98,1,-1913,108,2387
48,73,53,-1496,-160,1875
29,-27,71,2566,-497,2161
-26,-27,72,1785,68,602
-85,-64,72,-139,152,407
-100,101,75,292,29,765
-116,85,98,246,-454,554
-119,62,97,506,-336,172
125,29,92,826,-189,-168
103,20,83,603,-207,-372
105,15,76,174,-218,-303
115,10,55,129,49,-213
118,5,37,297,96,-229
126,9,29,253,-1,-197
-115,21,22,195,-33,-248
-112,17,15,325,-14,-324
-110,22,14,227,-12,-322
126,-110,-118,3802,-1710,-2517
83,35,-89,3795,-2511,-1834
-10,-109,-3,2948,-2664,-1245
-112,77,107,498,-1691,-526
95,107,109,2460,-437,-206
-88,3,51,3538,803,939
82,-69,37,2889,759,3353
-98,-1,21,-1078,-831,5598
13,-15,-61,631,-2413,7756
-82,-106,-113,428,-175,2710
5,14,111,-150,-1107,175
112,-103,-54,-1189,716,-3657
-78,38,-44,-335,2160,-3555
83,-107,-1,-1654,757,-4123
57,52,85,4188,1647,-6966
116,-125,0,-2450,-1768,82
76,43,114,-822,353,40
-61,29,-69,-172,-987,896
-33,-49,78,335,915,-420
-13,-56,65,492,235,-486
84,-47,99,-1372,315,-632
-90,-114,-101,-4142,523,-740
-45,-106,109,-5527,854,10
5,-97,0,-5423,1737,1712
71,30,-102,-4233,2517,4597
-71,-48,-96,-3405,2399,4270
-34,-66,86,-1204,-1162,4466
81,-47,86,3147,-1,2787
120,29,-107,-403,-385,1208
5,34,89,2398,-73,1742
-77,-22,82,1042,-74,711
-77,-97,65,-124,52,-5
-96,76,77,314,-346,-111
-117,15,88,637,-495,-393
127,20,83,292,-261,-425
-116,9,79,-6,-51,-531
-97,8,77,-261,-149,-359
-119,19,67,-272,-262,-291
-112,20,62,-65,-16,-439
-98,1,30,626,257,-364
-93,26,17,290,-10,-223
-87,48,6,-198,-135,-205
-92,49,0,-12,-77,-262
-78,39,-6,552,111,-291
-76,54,-13,366,-43,-165
-72,77,-33,74,-8,-196
-72,83,-30,-63,-152,-138
-75,100,-33,-131,-103,-11
-81,-123,-34,-327,-117,-66
-61,-108,-34,-325,44,-195
-36,-49,51,3167,-1692,-3615
33,75,122,3224,-3575,-2961
24,-65,-39,703,-3540,-3047
-52,49,41,1289,-2833,-2001
-34,5,-74,605,-2692,-1157
-123,-39,-109,478,-480,-701
61,-12,102,432,-679,105
-125,48,-43,2252,-563,-31
24,-50,-27,2370,-1508,2254
-49,-16,42,704,-948,4638
1,3,112,2288,-1222,5855
96,-74,-25,-1522,-2188,6944
12,-103,97,565,-158,1795
-30,-13,78,-441,744,-2603
46,43,114,-717,1873,-4690
124,-56,59,-952,1909,-3479
80,45,67,-435,2036,-4304
-83,25,-5,951,1006,-5751
90,82,35,-626,-2387,144
32,-119,4,-1808,832,-6
62,-82,19,-5614,-1096,-1779
-126,-46,-41,-5492,368,-1932
121,46,-76,-4354,613,208
-88,-45,-91,146,1022,2577
13,37,-72,-164,1131,4080
-80,-65,-109,-417,328,6131
80,105,93,-1092,874,5851
62,-106,4,409,-1179,4135
-9,-17,15,3768,-2055,4214
119,-110,4,3363,-822,205
7,97,-46,-1518,1125,-1453
77,105,9,-1902,906,-875
73,8,47,605,49,-131
-116,-24,27,1566,458,-92
-127,-66,40,1937,-193,151
50,-30,37,425,-403,-223
58,-55,18,334,151,-275
-113,-55,11,-281,709,-336
-75,-90,6,499,199,233
-93,-25,9,-323,-204,285
-128,-7,2,-430,-426,111
-121,1,16,-348,-245,-71
127,9,6,15,47,-148
118,27,-3,-46,168,-169
123,45,-15,-328,77,-159
-117,47,-22,-79,96,-381
122,18,-40,524,33,-441
-117,17,-40,196,37,-193
-101,48,-40,-165,119,239
-85,71,-61,-129,301,-26
100,115,-25,2134,-2595,-3325
-90,-86,97,3319,-4634,-3534
-84,-18,-42,2425,-4517,-2751
107,10,-51,1423,-4177,-1601
-85,-25,36,-495,-1365,-1295
-37,56,75,937,-1076,-722
30,127,-83,1441,408,156
85,95,119,1276,-1324,1926
45,122,69,2676,-275,4064
-68,55,-23,653,869,6496
-48,101,-31,1814,1474,5574
-56,122,22,-323,-1444,1839
17,34,75,-1760,-176,-1568
-45,-125,60,-1090,457,-4120
102,-48,-16,-3112,643,-3145
-94,33,-14,4051,4354,-7812
-7,-62,12,-1153,-1570,-3584
103,-52,-80,-1062,16,815
-86,-35,97,-4538,-2444,-198
30,117,7,-5056,1930,-1945
47,112,-66,-4139,2087,-430
119,-22,-95,-4035,725,1236
-32,103,86,-3106,644,3711
-124,-108,-86,217,-245,6270
72,-47,-63,-811,-361,5107
57,107,19,545,-546,4300
97,-55,47,4572,-994,3651
96,-9,-92,2084,297,1125
-31,-4,-94,-1857,297,-230
-113,-97,-28,658,-173,-258
-107,94,14,1353,-308,-214
-110,64,20,909,83,-247
111,45,19,228,246,-168
125,58,18,-770,179,-244
-108,58,19,-750,110,-255
-98,47,3,-22,129,-324
-100,34,0,733,66,-391
-106,39,3,712,-107,-168
-107,72,3,-59,-133,-50
-102,96,7,-614,-60,-122
-81,107,-1,-527,166,-297
-74,96,-13,210,145,-380
-81,90,-21,567,-35,-346
-75,114,-28,-121,21,-340
-83,114,-29,-104,-72,-121
-81,123,-31,50,-31,-66
-72,-117,-35,24,12,-132
-63,-109,-37,126,-73,-139
-66,-105,-36,235,-55,-185
-68,-109,-38,337,-23,-197
48,-110,107,2787,-3109,-2853
107,-50,15,2594,-5042,-2534
118,61,-45,161,-4937,-2059
102,94,-9,997,-4332,-1024
-82,-120,76,-952,-1948,-267
-18,28,106,329,-1235,201
-48,-78,-26,2045,-377,984
13,-78,-57,2207,-891,2913
-125,-2,-112,1845,616,4276
47,104,28,954,690,5631
66,94,-87,954,688,6442
23,-110,-15,-519,-788,811
54,-125,56,-2222,-1043,-2175
13,-124,86,-1244,752,-6389
-93,-22,89,-338,2291,-5711
45,-4,4,2307,676,-4340
102,-2,93,-4042,2269,-3715
29,71,-63,1437,-1958,-656
42,-69,77,-2804,-660,-1159
-13,19,62,-4262,171,-854
26,-42,1,-7495,425,-1371
-121,-56,46,-5871,1159,240
-118,-11,-126,-2143,-131,3537
-18,65,-111,559,67,5344
66,62,-102,-337,867,6494
-101,10,7,92,-1037,6269
-26,-96,10,835,-770,4655
24,86,100,2392,-341,1788
104,-3,-9,2272,215,1478
-92,-104,26,1062,-734,413
81,-52,42,796,-521,-401
92,102,48,934,41,-419
80,63,63,-7,322,-666
50,-20,73,875,-89,-582
68,-17,99,397,-170,-118
73,7,93,-633,99,-471
91,-21,75,-265,184,-574
107,-18,67,147,-47,-260
117,6,54,299,-196,-24
-118,38,41,-38,108,-50
-112,55,24,-142,104,-181
-120,58,18,142,-56,-38
-114,72,12,137,86,-108
-108,86,5,90,99,-208
-101,90,-6,304,-11,-251
-102,88,-9,431,-77,-270
-103,93,-11,260,-61,-218
-99,103,-11,139,-81,-178
-99,105,-10,206,-64,-221
-95,111,-3,359,-73,-193
44,-23,93,4314,-2395,-1757
-55,-74,-36,642,-5625,-336
64,40,103,-1762,-4878,-612
19,-72,23,225,-3967,-1098
109,116,-25,56,-3475,-867
-74,-126,107,-488,-2531,-43
63,9,-111,51,-374,-291
115,72,20,2133,600,546
15,122,-4,1329,-418,3698
-34,119,-47,1139,-591,6870
-78,46,-75,872,1503,6505
42,-97,122,1047,-449,3454
-26,126,-21,-1398,-911,-1140
-66,-39,-65,-1355,-160,-4840
-12,93,62,-2153,292,-4354
92,-61,-55,127,1735,-4811
-4,-46,-2,-285,3146,-3697
-10,-114,-57,58,-1338,-1501
112,-25,111,307,-823,-718
-23,53,99,-2466,-95,474
-42,104,106,-3756,-124,-1814
87,-81,-9,-6558,2343,-1615
-119,-110,-112,-5619,1501,942
-36,36,49,-5853,1467,3428
-101,-13,-4,-3436,-144,6676
18,49,39,1219,-3523,5772
-32,-120,-6,-1473,-955,4483
29,-37,-25,-319,-1155,2584
-100,77,-91,3677,-367,1829
-39,12,-109,2109,-870,63
121,28,93,2876,-623,-277
84,-90,41,756,321,-1158
115,98,30,-139,775,-992
106,5,22,1007,232,-508
115,-29,27,1382,-188,-176
-117,-17,37,1005,-203,-58
-105,-15,38,438,28,-225
-108,-26,38,284,-7,-179
-115,-26,43,336,-113,0
-105,-13,44,267,4,73
-111,2,31,255,72,139
-107,28,30,-103,7,162
-103,41,20,-20,51,23
-111,43,9,306,66,-92
-95,45,5,504,83,-195
-77,26,-2,864,102,-232
-78,29,-7,450,-176,-91
-88,43,-2,-104,-178,7
-97,43,-7,-78,-71,-18
-102,58,0,-140,-218,148
83,-108,35,2423,-951,5092
-53,-120,56,2919,164,6079
118,-74,-123,-9,233,4313
-8,118,15,-1524,-101,-2171
126,-94,-13,-1386,951,-4819
-53,-13,-37,-1979,1635,-3976
-87,5,121,2247,1513,-5607
-79,-31,-79,-536,-769,-2731
-27,-16,-15,-825,-880,1701
-106,-37,126,-1264,-1144,1185
-77,-24,55,-4407,2364,-2805
93,-54,77,-11744,2178,-4211
-25,74,31,-7847,348,208
-14,31,36,-3325,-2089,5110
99,109,-82,633,-1319,6166
22,-42,-55,-327,-1342,5905
-114,89,-7,2464,-832,4656
73,-31,9,1972,-1883,3982
89,108,-36,2247,-947,984
-113,-110,-79,2774,240,-673
71,31,-49,725,815,-1131
60,124,-16,1307,431,-592
67,13,8,1611,17,-335
77,-26,24,1762,-300,-209
86,-47,38,1283,-236,-212
69,-44,60,321,-426,-103
94,-46,67,-330,-66,-25
103,-24,44,-731,92,71
96,-4,10,-729,-25,30
86,21,-6,-540,-16,-107
83,36,-29,-333,84,-437
85,13,-44,387,-46,-377
101,20,-48,176,-113,-389
116,13,-56,165,8,-498
-125,18,-37,194,-110,-141
101,39,-45,323,-31,-219
110,49,-49,278,35,-338
104,61,-54,144,8,-396
106,53,-54,340,58,-272
107,73,-56,197,-119,-129
113,102,-61,-41,-123,-34
125,-125,-72,-678,-79,-88
108,-112,-70,-606,-130,-110
-126,-94,-66,-285,103,-80
127,-99,-87,316,27,-331
101,-122,-98,978,-317,-351
-71,-125,-88,447,-66,-164
-78,-118,-83,-233,-448,246
-62,-56,-64,-1056,56,-9
-93,-92,-83,295,202,-355
85,94,13,-1556,1859,-4694
11,-109,49,-88,472,-3720
10,-3,-41,569,1956,-4644
117,-57,-106,-3643,-98,-1815
-113,38,103,-2759,-686,511
7,8,86,-3151,90,-667
-6,-53,-10,-5908,209,-538
63,113,-95,-2720,1085,1452
68,90,-87,-2668,382,3518
2,-55,-123,-2128,1247,4249
60,-54,-49,-751,-548,4891
9,76,-78,197,-8,3941
-44,125,15,900,-372,3009
103,-1,-87,2820,305,1419
-26,-8,-76,134,-200,936
-118,46,-40,2582,-479,863
101,-50,-28,1962,-181,454
114,-80,-25,55,81,-81
85,85,1,220,-232,-81
107,35,3,767,-33,-198
101,32,21,520,-165,-250
125,2,17,518,154,-328
123,-12,2,411,179,-343
-126,-16,-5,182,61,-170
126,-2,-15,-83,-17,-67
-122,10,-20,-85,4,-43
-127,23,-27,210,-25,-33
-114,43,-25,67,60,-38
-100,53,-33,193,127,-136
-99,54,-44,290,89,-250
-98,50,-45,255,55,-311
-94,38,-45,390,101,-290
-84,41,-31,380,133,-111
-70,46,-31,568,290,-110
-65,47,-30,782,301,-149
-73,41,-26,956,103,-141
-66,35,-14,918,220,-158
-81,45,0,574,-13,32
-107,70,4,119,-62,64
-111,87,4,-239,-87,33
-105,80,-8,22,28,-74
-75,96,-16,24,83,-108
-107,95,-32,295,-169,-381
-92,48,-20,731,-522,-445
-13,60,3,277,-165,211
-10,-107,3,-1575,-260,104
-45,-121,-18,-644,-145,-181
-56,120,-8,583,99,-293
-67,121,-24,924,135,-430
-63,105,-27,673,-90,-231
61,74,55,2779,342,5071
37,74,-101,293,916,4052
28,-36,23,-1513,-850,-651
109,84,-67,-1264,922,-3722
-90,-4,3,-1806,2108,-4962
47,-117,-26,-1013,227,-4329
-52,122,-110,1746,2698,-6628
48,80,-33,-653,-399,-1366
25,-49,-98,-1578,-1102,2748
30,112,-56,-2980,-1364,-431
45,56,-118,-6619,468,-1798
-49,43,-50,-3852,2139,-460
46,-3,-59,-5057,507,1867
106,98,83,-3323,-215,3974
43,-55,80,-409,188,5487
-109,-22,-41,-1219,-1452,5933
98,0,-99,2780,-602,3883
35,11,-57,640,-687,3009
73,-110,-48,1691,-1134,1421
-107,3,-27,2666,-1169,702
65,-122,-20,2625,-540,351
49,1,-48,1344,706,-686
70,-83,-30,498,769,-1081
88,84,-2,790,191,-924
84,13,10,1211,-181,-775
79,-11,23,1141,-229,-736
78,-30,23,802,80,-591
88,-42,19,377,261,-187
104,-31,12,-61,269,306
-108,17,5,-656,322,616
-117,65,-35,-759,258,335
-115,88,-32,-726,-9,-77
-117,111,-28,-559,-59,-126
-122,119,-23,-88,63,-216
-116,117,-34,358,299,-193
-111,124,-51,391,304,-265
-100,111,-70,607,126,-292
-90,110,-74,434,-17,-333
-87,110,-69,180,-103,-330
-81,104,-38,457,-266,-299
-89,76,-31,1282,-41,-298
-88,96,-28,502,-31,-290
-76,110,-29,-376,-145,-146
-82,106,-28,-195,-195,-126
-94,118,-19,14,-177,-143
-107,-110,13,-16,-341,-149
-92,99,-3,1446,198,52
-82,127,-13,874,183,22
-75,-109,-30,-45,36,6
-74,-111,-36,-241,-74,7
-120,42,6,-988,-2083,5007
18,-106,8,1195,-1756,4113
-42,36,127,1444,-1597,2367
51,-89,35,3733,-384,1083
112,-70,12,19,-172,210
23,-79,33,1673,-219,-304
45,28,15,2162,381,-541
52,-81,-2,1205,377,-887
75,105,0,849,154,-883
100,51,-1,814,95,-739
118,5,-7,944,247,-487
96,4,-15,1045,186,-82
110,9,-15,1076,99,151
117,16,-22,1116,159,225
127,29,-26,780,285,174
-126,27,-32,669,218,162
-99,40,-24,261,266,44
-90,23,-30,508,256,-17
-95,24,-24,377,1,-108
-105,10,-15,680,-171,-65
122,23,-4,305,-354,-187
109,40,9,-286,-355,-183
116,40,27,-238,-241,-179
-120,38,29,199,-15,-71
-107,54,16,150,129,-268
-95,57,12,159,-44,-250
-96,54,6,254,53,-294
-104,49,-2,597,35,-297
-106,34,-3,1028,124,-239
-92,40,3,1170,234,-97
-81,35,-1,1388,171,-67
-86,66,16,722,-146,104
-110,90,31,223,-168,47
-117,86,29,206,87,-39
-125,88,0,242,89,-147
-80,74,-4,371,112,-84
-92,105,-9,31,-88,-192
-93,53,-21,1233,-207,-268
-44,83,15,679,-18,-248
-38,65,1,395,-364,167
-27,103,-3,-775,-157,116
-37,-124,1,-953,-11,-132
-47,95,-24,58,67,-412
-68,89,-9,470,-464,-169
-75,110,-17,39,-70,-179
-93,112,-15,-94,-188,-53
-91,-126,-21,-236,-78,133
-76,-115,-21,18,46,55
-69,-99,-29,140,-114,170
-62,-78,-28,-102,-56,104
56,-120,-22,2199,571,5439
41,-25,91,847,1286,4254
48,28,87,-1287,-1159,510
-118,-124,-35,-2392,-193,-4571
126,90,-31,-2079,1401,-5325
16,-46,2,1208,-183,-3134
-111,-16,-58,-1307,1348,-5558
-4,90,116,-1930,549,-2339
-62,105,-114,-1936,-1501,1896
102,-20,-103,1357,848,-1222
21,-67,-115,-2966,-33,-977
104,-103,10,-4304,74,34
-64,-23,-99,-6204,747,-277
15,5,41,-4677,755,1196
72,-112,23,-2300,187,3600
119,-29,-24,829,-1571,4765
66,-26,-18,62,44,4997
-95,101,-68,1592,859,4200
-34,73,-43,3678,-37,3540
91,31,123,1942,514,1373
-22,11,-118,-358,326,1217
95,79,-70,1487,-507,662
66,-4,-30,1852,-416,-127
87,-91,-23,752,255,-650
-126,56,4,702,512,-372
121,4,3,1148,335,-80
94,25,32,444,-301,155
81,22,45,136,-261,108
92,37,60,-87,-86,182
108,61,43,-468,231,18
106,46,33,225,53,35
101,70,17,36,10,-126
96,64,10,182,-28,-131
109,74,2,36,55,-99
116,83,-5,69,-46,-107
124,99,-8,6,-62,-200
-118,96,-11,279,-45,-353
-119,92,-17,266,-112,-377
-121,102,-21,-31,-159,-347
-115,99,-22,64,-147,-292
-106,104,-18,129,-186,-229
-96,118,-14,41,-160,-232
-94,124,-9,141,-155,-187
-100,-125,-6,214,-126,-146
-99,-114,-6,196,-16,-144
-86,-113,-13,422,133,-115
-82,-121,-22,924,106,-83
-76,-115,-31,949,196,-213
-77,114,-35,1199,60,-151
-90,-124,-27,472,-107,8
-22,-68,-95,2501,-2613,-3015
51,-12,8,2533,-4174,-2467
14,49,-94,1905,-4693,-1456
85,-32,-126,278,-4449,-617
87,-73,50,-251,-2663,-322
-39,-103,36,185,-836,-500
-77,61,-25,1461,-1517,798
-9,-53,-6,1414,-1134,2171
-114,-45,-32,1762,342,3228
36,82,106,1980,-342,6144
77,-49,-119,1454,1067,5267
-126,67,67,147,-924,3651
-66,-82,25,-1308,4,-2080
-96,-46,7,-1413,818,-5263
-3,51,-20,-1253,1486,-3901
33,57,87,1966,1258,-5040
-121,-37,-19,-786,275,-5216
-115,83,114,-316,-259,63
77,75,118,-1152,-606,163
-102,-25,124,360,-815,187
-120,-88,94,-3375,-105,39
-102,115,45,-2460,467,26
-2,-87,-36,-2547,1395,245
73,84,-70,-1923,1832,1399
112,34,-121,-4054,1903,3687
-3,-55,28,-4168,2399,4231
7,-86,52,2222,1688,6446
102,39,103,690,-795,5071
-42,-105,-80,-903,-840,1910
106,-26,-61,2724,613,1242
-69,-70,-23,1081,28,227
85,-22,11,1335,-107,-192
96,-124,24,1598,134,-287
124,86,31,856,493,-499
113,-1,33,946,309,-594
125,-25,43,917,40,-423
-116,-37,58,655,-28,-248
-117,-53,69,591,14,-266
-122,-70,77,919,-57,-28
-103,-33,90,76,-49,144
-105,-10,81,-307,63,110
-108,-6,68,-156,148,6
-94,-3,57,185,177,71
-98,11,42,311,16,80
-109,35,31,-53,-36,19
-104,45,22,-202,-43,-49
-95,57,20,-154,-87,-72
-95,63,16,117,-79,-181
-94,68,8,188,-74,-298
-91,74,6,113,-139,-307
-18,3,-117,8868,-1646,6512
-61,-113,63,-3377,-187,1189
-69,79,100,-1659,747,-55
-128,-57,2,4300,171,1247
86,120,-43,4418,295,-346
113,-114,-40,826,676,-296
95,126,10,-1208,11,-280
77,10,36,-746,-253,-693
87,-11,27,0,293,-633
99,-13,30,10,334,-509
108,15,22,-352,201,-264
109,45,5,-692,71,-51
-41,-69,-70,10,-99,36
-36,-60,-67,113,-89,-37
-34,-54,-67,118,-88,-98
-35,-50,-66,119,-60,-139
-34,-52,-69,114,-46,-140
-34,-52,-74,156,-24,-160
-42,-49,-78,119,-58,-141
-37,-42,-80,68,-8,-74
-34,-32,-80,107,-23,-61
-21,-26,-82,194,36,-109
-14,-19,-85,178,-25,-135
-15,-18,-85,149,-74,-162
-20,-19,-80,164,-34,-190
-26,-20,-81,100,-71,-162
-25,-20,-81,44,-66,-80
-22,-20,-82,155,-111,-49
-21,-11,-75,80,-168,-54
-31,-7,-64,97,-177,-74
-38,-7,-55,166,-136,-98
-15,-93,83,3118,-2667,-2350
-90,-34,101,-1843,-5129,-2193
37,-28,4,1693,-6470,-3646
123,76,-89,-196,-5475,-1352
-3,-2,102,-353,-2667,-529
13,36,-90,-99,-954,-283
-122,-58,39,1942,-20,-41
-21,-115,-75,2278,-1102,1442
-66,-106,123,2366,240,3443
-109,-88,87,1750,593,5459
106,-65,-105,1441,619,7128
32,-31,-16,1803,13,2883
10,-60,-114,-2120,-1227,-330
16,22,108,-1703,160,-4657
-4,-123,-29,-1608,477,-5304
4,59,88,-844,645,-5038
-93,-72,12,1536,1725,-4798
53,91,59,-838,-1297,222
70,123,90,-238,-1022,593
80,72,60,-5049,1511,2932
122,72,34,-601,1577,4371
74,-89,105,-2429,805,5614
100,-74,67,2205,-2285,5291
90,-97,-84,1322,2312,2523
102,-97,3,571,-326,1732
-67,-7,-19,1302,-535,834
106,-118,-3,-342,129,-341
94,-40,11,1303,308,-199
-126,117,18,1921,285,40
-117,49,35,1621,-154,213
-109,40,44,841,-245,290
-113,50,66,87,-438,141
-123,26,67,194,-266,-105
117,29,59,242,-128,-47
112,26,44,361,47,-63
121,28,22,200,1,29
125,44,15,-102,-21,54
125,60,2,-298,-119,-2
-115,65,8,-162,12,-39
-106,77,-1,-54,82,-50
-108,91,-18,-78,-4,-203
-106,88,-25,81,58,-233
-111,85,-39,241,25,-265
-107,94,-44,159,-70,-146
-99,94,-45,344,-119,-167
-84,103,-30,315,-201,-120
-93,114,-20,438,-160,-193
-87,107,-12,625,-74,-238
-87,117,-10,457,-25,-159
-79,121,-4,501,15,-184
-71,114,-4,930,133,-129
-68,113,-5,1047,3,-76
-71,124,0,633,-143,-18
-88,-110,3,-173,-114,-10
-95,-92,5,-503,-55,-9
-10,50,-89,2540,-2494,-3155
89,102,-55,1945,-3585,-3912
65,73,127,2864,-4714,-2302
-18,-30,41,1155,-3839,-2183
-117,-91,125,16,-3587,-507
-8,-116,99,242,-601,-13
-79,72,-7,1375,-622,-450
79,96,-103,3376,-933,799
45,55,-69,2046,-1085,3788
-21,13,7,1261,-434,5800
95,45,-39,2056,1245,7215
-84,13,119,508,371,3611
78,-116,-44,-953,-966,-1424
-27,-67,-107,-2133,1021,-5537
97,-41,91,-2501,2212,3326
-77,79,-110,-1793,1502,3881
54,-112,79,977,2043,4334
125,10,-59,-321,760,3254
125,-3,-74,-676,-67,2359
10,-75,55,844,-376,748
-46,-10,63,3297,432,1198
-124,18,65,171,-103,46
97,117,93,1134,-617,494
117,33,110,1626,-127,464
109,13,89,903,176,-93
111,26,97,-322,35,-195
104,-25,94,328,-75,56
116,-25,87,633,13,2
120,-11,73,472,10,35
127,3,64,234,6,-43
-116,44,47,-949,282,-226
-121,33,37,-317,22,-74
124,17,47,1071,-233,105
-106,53,45,231,95,-105
-81,95,30,-841,425,-252
-110,59,38,412,-466,29
-109,61,40,902,-399,-7
-103,84,41,438,-24,-168
-116,80,21,221,64,-269
-99,68,22,359,-94,-114
-96,79,8,292,-153,-20
-87,101,12,-67,-165,-87
-87,107,14,109,-150,-162
-87,106,16,317,-21,-226
-84,115,13,193,-23,-149
-76,119,8,235,-239,25
-67,-116,0,132,-113,-92
-72,-120,-8,362,-42,-187
-69,-121,-16,358,-102,-145
-8,11,-47,1748,-3809,-2486
47,103,127,1328,-5196,-2004
11,-25,57,316,-4562,-1145
61,-119,-11,-405,-3539,-902
39,117,-82,-102,-2439,261
-67,90,-107,367,-452,-288
-15,-93,7,2771,683,-172
60,-26,-68,3245,927,1080
122,-51,-7,604,-389,6334
13,70,-40,2091,1272,8272
19,125,71,461,391,3997
-39,-97,82,-1379,-1072,1087
49,7,67,-2951,-320,-6117
62,78,65,-573,1285,-5254
44,-127,121,-311,150,-4018
33,-71,-28,-5978,604,1514
90,127,113,-2533,1423,3434
-86,85,-70,-2411,1278,5105
63,-125,120,1475,1134,5816
69,98,-89,2203,893,7358
127,50,-106,3155,-427,3601
-96,-101,58,-2992,589,293
-85,68,-39,2824,-651,826
61,-40,0,2417,-236,-311
40,-128,-18,1056,268,-644
9,51,51,1081,-509,-265
34,-16,86,744,-183,-329
51,-14,89,-203,212,-425
59,-58,76,180,16,-323
65,-77,72,549,-69,-102
74,-54,54,22,154,-84
61,-61,49,355,-106,-39
73,-51,37,473,-71,43
79,-25,27,2,44,-74
73,-27,14,242,12,-89
85,-35,13,736,-39,-30
88,-44,1,848,-38,74
82,-20,1,302,-122,263
89,-3,-11,-46,-90,171
83,8,-8,46,-217,210
93,27,-7,88,-162,59
103,33,-18,82,-78,-136
84,33,-24,59,-264,-90
87,39,-26,45,-151,-152
90,34,-36,265,-48,-186
92,39,-45,157,-120,-132
96,41,-54,192,-72,-149
99,40,-64,261,-110,-141
97,50,-64,254,-199,-42
94,38,-60,698,-224,57
98,73,-68,-97,-86,-23
100,74,-69,61,-97,23
104,83,-73,298,-70,-80
-18,12,-96,2084,-4506,-1677
48,-109,80,721,-5825,-2084
-56,51,-118,-582,-5806,-1084
106,-15,-69,-707,-4535,-808
122,-100,49,277,-32,-550
-9,111,-57,811,293,-288
-88,78,-52,4116,1100,-196
79,-123,-65,1195,-1496,3984
64,77,-62,1687,949,5836
-5,43,19,2226,1590,5484
-98,52,14,1421,1047,4791
-45,32,64,-2757,-691,-1177
-94,85,46,-5073,2019,1259
-21,-104,-90,-6159,2462,2402
1,13,66,-3530,1666,4669
-27,-121,74,-571,833,4785
106,54,-95,-867,880,4070
97,-74,-82,-5,-671,2685
-13,-107,-9,-1277,-833,1342
-117,51,28,61,-554,974
43,-114,66,1541,-476,389
63,97,25,1171,188,280
69,31,-6,1195,150,30
58,-65,-21,1810,-140,-203
72,-113,-22,2039,-241,-153
71,116,-10,1531,-255,-133
81,94,-3,761,-168,-153
81,80,-9,223,9,-272
87,70,-13,82,-57,-155
84,75,-13,47,-174,-13
94,90,-16,-104,-74,-89
96,100,-20,-71,-42,-106
106,103,-40,84,13,-77
104,115,-52,44,-106,-27
106,123,-69,-58,-76,-26
103,-106,-67,-405,-42,-133
107,-118,-71,211,-9,-70
112,-102,-77,128,16,-112
124,-103,-92,249,-13,-112
-124,-100,-96,260,-141,-62
127,-95,-95,305,-239,-100
-126,-89,-83,213,-258,-88
126,-84,-73,233,-289,-62
124,-77,-63,240,-276,-81
122,-78,-64,306,-165,-61
127,-75,-65,266,-210,9
-115,-61,-64,147,-160,5
-116,-59,-67,318,-96,-68
-119,-66,-71,488,-134,-103
-119,-67,-77,365,-68,-72
-126,84,-84,1754,-3145,-3269
-81,-122,84,3155,-5647,-2821
-80,25,3,1670,-5304,-1988
-18,-45,-62,64,-4748,-1018
35,-107,-91,-787,-2965,156
-65,105,77,605,-499,-142
-125,104,-31,1503,-1122,87
-27,-11,124,2540,-957,1062
-114,-79,121,2048,912,2203
-109,-101,76,2242,193,4612
64,-78,-122,28,1581,6655
-40,-4,83,1738,404,4207
33,-61,-25,-2054,1277,-4709
78,56,11,-1127,-532,-3472
-57,-84,-45,2146,2434,-6960
102,-26,93,-3959,-891,-235
-8,-12,48,1188,226,1064
-99,-99,-53,-2603,-578,56
-115,-112,-17,715,-768,-452
-80,12,9,-3431,-46,-1370
35,-22,-35,-6078,674,-681
36,-104,-95,-3815,355,1154
119,-62,-121,-2323,1037,2983
8,-42,-89,836,1062,5146
-79,-24,-79,-1021,736,6805
-21,-80,99,-281,1938,5541
-50,16,43,2812,-777,4896
56,26,-74,1612,285,2840
-9,-70,-15,280,-915,449
-95,9,-20,2200,-629,54
113,-73,-40,1087,102,-572
83,75,-27,476,216,-701
73,6,20,987,-544,-438
77,-39,43,1055,-555,-394
92,-36,64,346,-270,-215
104,-48,58,3,-121,-119
85,-31,62,-437,-348,-38
98,-27,42,-396,-86,-23
88,-11,34,-336,-105,49
78,2,9,-102,34,121
74,47,-17,-359,69,-30
80,41,-43,73,121,-48
102,53,-56,102,25,-41
111,61,-80,114,-50,-40
115,80,-75,-152,-259,-117
124,84,-66,-26,-248,-156
-123,90,-55,174,-36,-324
-123,72,-55,779,-15,-294
-125,59,-56,1433,-297,-194
-113,47,-44,1934,-135,-310
-121,47,-40,1089,-6,-356
-118,57,-25,235,73,-167
-117,48,-26,311,73,-140
-122,54,-29,501,-54,-2
127,69,-39,258,-81,30
124,119,-41,-554,-48,-72
123,103,-54,124,112,-195
-99,90,-60,536,47,-208
-103,112,-116,-652,-5623,-1795
-41,54,11,302,-6381,-1979
47,-127,-112,-540,-5311,-392
89,-85,-122,-263,-1849,334
35,-69,-15,-4570,2787,2001
113,-125,89,-2894,3781,3061
-36,74,2,-2746,2741,4759
-109,-35,42,-3921,-42,5452
-98,-45,13,1067,-1273,2932
-70,106,32,6821,-740,3672
72,99,-93,-1144,966,320
51,83,-22,-824,-394,109
25,-74,38,1856,-721,791
33,-55,27,313,157,176
58,105,-9,190,708,-374
46,68,1,656,25,-357
57,29,7,1097,-426,-416
82,32,8,555,-182,-498
86,22,-1,-1,85,-519
78,22,-6,-387,-133,-408
80,35,-12,-523,-194,-202
85,50,-17,-437,-47,-255
82,59,-30,-44,7,-193
91,49,-38,698,-101,112
103,93,-50,-159,99,12
121,104,-65,-329,62,30
119,121,-66,-97,-224,44
121,-119,-63,-20,-226,-137
125,-112,-54,-106,-198,-91
-112,-103,-40,-77,-12,54
-112,-95,-47,172,87,148
-118,-84,-63,433,-16,107
127,-80,-74,452,-87,-74
125,-91,-70,571,-129,-106
125,-120,-84,836,-179,-131
120,-118,-82,532,-345,-57
117,-113,-67,283,-339,-3
121,-104,-47,248,-283,-13
-102,-105,-39,475,-13,2
-111,-96,-37,552,-152,44
13,2,-110,3047,-1374,-3793
78,115,12,3308,-4249,-3217
93,-22,-122,1593,-5136,-2685
-74,43,37,2138,-4632,-1832
-63,24,-62,800,-4135,-1000
-54,21,69,-582,-2354,-213
65,84,16,1292,-142,-668
-77,-75,-84,3302,396,-190
19,-104,-58,1473,-241,2101
94,-15,-112,723,198,3808
22,84,15,1918,864,7156
-62,-4,-26,2079,2013,5528
-19,35,-70,1019,-29,2788
-9,-54,-61,-3042,-1417,-1192
-17,40,81,-2271,2755,3629
86,-126,-21,363,2354,4845
-128,105,94,5702,-365,6030
-128,124,19,-2673,1472,277
17,22,50,-2292,1435,939
-123,113,-69,2931,1,2093
107,-75,-38,2064,-392,840
86,-98,-25,236,104,-239
58,93,20,507,-110,-270
38,29,60,390,-163,-702
80,-8,50,245,367,-816
75,-37,50,292,203,-718
98,-43,67,114,-167,-488
99,-36,64,-111,-170,-384
101,-33,56,-92,-17,-375
105,-39,42,190,93,-239
116,-27,29,237,106,104
104,-2,11,-22,-32,160
110,35,-1,-452,-77,171
126,62,0,-723,-21,114
-123,88,-16,-601,3,65
126,115,-16,-580,-190,-8
119,-119,-23,-514,-197,-120
123,-109,-33,-239,-26,-281
125,-110,-38,67,-50,-212
-117,-103,-51,124,33,-168
-112,-101,-69,305,-41,-149
-101,-90,-72,164,-177,-140
-94,-79,-77,-50,-255,-187
-92,-76,-69,-58,-351,-211
-108,-66,-63,-108,-410,-239
-119,-55,-60,-342,-384,-221
-124,-31,-52,-613,-361,-197
65,82,16,4505,-1712,-1898
118,-59,33,3260,-3288,-1450
-127,89,-102,2202,-4293,-429
-110,-4,19,1454,-3157,-850
113,-42,-86,1113,-3295,75
-46,-77,101,290,-3320,924
115,-126,-97,42,-1339,589
44,9,-117,1146,-487,775
-101,24,-91,1743,-511,2620
-3,94,-77,904,-407,4746
73,3,55,3631,464,4634
28,-19,11,1452,1226,5584
48,-111,124,1366,498,2731
48,-56,-67,-2944,169,-1632
-1,55,-10,-1461,-179,-4252
-117,76,17,-407,550,-4166
-84,66,-83,202,136,-5497
-51,-50,-10,-5381,1038,-2809
120,-109,46,-9161,2305,-2369
-53,23,-104,-4762,524,1646
-103,-37,-60,-2853,-971,4083
23,-50,108,-3499,728,4206
-108,-33,-104,674,-134,5466
-26,4,0,296,-974,4057
-76,74,20,-466,-860,2811
81,-75,18,2633,-594,2397
-87,-50,55,590,-853,1471
121,6,32,2961,-495,754
105,-64,16,2309,63,-268
90,96,31,907,196,-693
81,35,43,506,60,-498
67,-10,41,472,53,-454
76,-16,37,155,119,-255
103,16,27,-536,141,18
110,43,5,-896,58,-214
93,44,-14,-441,-75,-607
93,33,-13,144,-94,-609
102,40,-14,131,-6,-478
118,40,-33,300,156,-181
-122,63,-51,15,91,-23
-114,82,-58,-58,-146,-144
-112,94,-54,49,-217,-307
-118,89,-48,281,-124,-315
-121,88,-48,314,-89,-152
-117,99,-54,166,-116,85
-114,125,-53,-131,-218,177
-101,-109,-49,-176,-164,81
-99,-81,-41,-222,-210,-8
-109,-75,-41,-32,-242,-99
-103,-73,-35,124,-147,-92
-106,-61,-41,161,-43,-79
-109,-65,-53,295,-55,-125
-92,-56,-60,6,-56,-56
-81,-48,-69,-1,-118,-77
-89,-53,-74,267,-178,-198
-100,-48,-74,103,-192,-240
-21,-75,-85,1223,-548,6690
-44,-115,-60,2279,288,6417
-66,118,125,985,-158,2965
-25,23,2,-90,18,-916
4,2,-99,-2472,-50,-4739
66,44,-64,-1532,62,-3916
64,-105,-89,-40,-29,-5218
-123,-4,-61,-595,2141,-4953
-104,-118,105,161,-1170,283
-89,-3,-73,-2393,-2698,1359
105,-82,6,-232,262,-477
125,-121,-94,-8056,2204,-649
-105,-72,47,-5838,688,2457
-74,-78,70,-4100,-719,4271
75,59,-52,703,-1518,5455
-70,63,-39,-36,-1380,4648
-105,110,27,2024,-650,2802
-105,83,-4,2642,-328,2676
-49,-96,32,-496,-531,760
79,40,19,4595,-483,564
57,43,19,1537,-101,-308
43,-75,15,573,378,-474
79,108,32,-233,443,73
91,83,19,-495,246,35
106,82,15,-426,130,-167
117,55,-9,310,62,-276
114,62,-18,242,-79,-447
119,64,-33,-135,3,-501
125,61,-46,-285,-72,-422
124,55,-57,148,-32,-129
125,73,-67,106,-130,-20
-123,113,-66,-370,-230,6
-108,118,-66,-211,-104,-9
-111,-126,-65,38,-220,5
-123,-102,-62,-35,-320,57
127,-85,-59,-175,-235,-16
-121,-84,-57,109,-148,-18
-109,-74,-57,253,-153,-39
-105,-79,-66,464,-131,-146
-107,-88,-62,638,-134,-121
-102,-106,-56,895,-40,-50
-102,-101,-54,864,65,-73
-87,-108,-47,875,159,-137
-76,-82,-46,68,386,-291
-92,-96,-40,559,-37,47
-120,-113,-56,1255,-81,85
-117,-67,-59,-279,-129,-59
-124,-42,-60,-932,-210,-20
-94,-55,-53,-162,-127,-91
-85,-58,-61,598,19,-211
-66,-59,-63,599,-171,-141
-72,-57,-72,487,-283,-133
-69,-63,-67,605,-271,-102
-39,-62,-65,106,-367,26
-29,-27,-49,-504,-197,-79
-39,-59,-49,436,-121,-153
-65,-54,-61,452,40,-313
-79,-81,-72,638,-299,-38
96,108,-115,2858,169,5063
39,-92,-116,139,64,6416
-23,-25,103,1254,-640,3687
38,-105,-36,-909,2847,-5158
90,-61,112,-174,60,-3584
104,21,-42,782,1363,-4670
-40,-6,82,59,-168,-2259
-63,117,-122,-1262,-1707,1425
-128,115,-52,-583,-887,228
-105,66,-40,-3356,626,-753
-56,-97,98,-6121,977,-1026
87,-101,-128,-6251,1906,18
95,-87,89,-2728,1090,2524
-122,71,-114,-756,536,4189
-117,39,62,-1085,2320,4754
118,84,-56,1266,-732,5076
31,-103,123,888,861,3733
-81,12,-64,-2040,-359,2194
36,-100,-9,529,-1326,1692
-68,73,19,2163,-616,1156
121,8,4,2009,-48,218
94,-61,-8,1111,122,-273
96,95,-2,590,178,-480
96,49,6,672,-2,-483
90,5,15,940,-141,-531
110,-8,41,643,-223,-421
116,-33,46,661,-100,-395
-124,-18,45,45,-32,-352
104,-15,12,-180,-82,-346
93,-10,3,-185,-203,-204
97,10,-4,-122,-66,130
-121,36,-26,100,260,304
-100,61,-43,91,210,300
-96,87,-57,-84,23,98
-108,111,-55,-276,-403,-71
-124,114,-51,-213,-366,-181
-128,116,-47,-33,-175,-153
-115,121,-54,178,-72,-14
-106,-110,-60,-153,-234,-53
-92,-83,-58,-523,-239,-189
-94,-75,-56,-378,-130,-386
-98,-85,-56,188,-128,-366
-110,-88,-65,393,-143,-313
-114,-89,-81,387,-99,-282
-112,-101,-90,461,-161,-113
-111,-80,-88,-20,-304,122
-109,-56,-83,-192,-239,63
-112,-52,-73,147,-243,53
-103,-47,-70,386,-178,70
-80,-43,-71,480,-105,14
-76,-50,-73,718,-114,-54
-66,-58,-67,762,-105,-38
-83,-53,-78,382,-73,-67
41,80,-68,4581,-3258,-742
-117,63,26,-117,-4567,-161
-73,86,-85,-740,-4047,2
123,85,110,178,-4261,-189
39,-93,77,-607,-3162,-322
72,-85,-9,147,-2873,597
-20,-115,2,-92,-563,-13
-77,-34,-114,871,202,1075
98,50,-76,2940,402,2608
64,36,-30,-593,-2122,3784
-6,-71,-91,3257,1086,5323
-37,113,108,1989,360,5554
-84,-28,-106,1592,1061,1656
-64,34,-97,-2582,-248,-502
-69,25,-1,-1604,-291,-6322
14,-47,29,-3023,763,-3899
32,-4,-106,-1361,-118,-3433
-57,74,28,1964,3228,-5771
-55,-6,49,346,-763,-226
53,-63,75,-2784,-2005,411
14,-51,-78,180,-717,1112
47,-107,-49,-1385,1370,-1833
-60,-52,96,-5158,749,-1919
123,-10,-51,-8667,877,-1397
109,47,95,-3076,-76,427
-25,127,-67,-567,405,4026
104,45,122,-2070,1343,6195
15,16,124,-472,229,7161
-12,41,-40,1254,-1173,6368
87,66,-40,2155,-574,2543
103,-11,14,-1143,-703,1279
113,-126,87,2825,-779,590
90,78,22,1304,596,-3
62,-57,-16,1191,734,-625
61,54,-15,1490,160,-1123
81,3,6,1495,-129,-897
100,-22,25,948,-99,-520
99,-24,39,108,-192,-194
100,-14,36,-597,-328,-135
99,14,33,-1130,-359,-163
91,40,14,-964,-254,-148
76,56,-8,-648,-145,-246
93,78,-11,-662,-72,-9
97,120,-51,-588,11,5
107,120,-66,-102,-88,-177
121,-106,-68,-233,-121,-163
127,-108,-77,-74,-43,-196
125,-104,-77,82,-111,-118
-105,-94,-81,146,-53,-82
-113,-84,-76,313,-163,-129
32,56,-111,2451,1388,4576
85,-9,52,2031,-542,4749
-113,126,-109,-504,-772,2914
64,13,-41,-4085,-556,-1056
-120,127,35,-1081,1124,-4314
-109,45,71,-1698,3160,-3863
-4,-127,120,1314,1504,-5760
-108,-60,-105,2996,691,-4986
-52,20,-29,-1150,-2352,1141
-44,7,-12,-1877,-1053,2129
-46,-4,109,-736,-1118,198
53,16,30,72,1308,-1210
-87,64,0,-3686,1537,-1537
-88,-4,-93,-5303,1393,-462
73,-37,-106,-8418,2594,1506
62,-88,58,-1254,981,2972
-109,-86,-81,1353,412,4054
0,63,-61,-3149,1461,2287
34,-117,-90,2906,953,2687
37,-124,-117,-1132,752,2319
-62,-38,-102,943,121,1576
-103,-94,-59,1651,-144,1525
104,104,-75,987,-112,843
55,-5,-47,1598,-842,592
82,-60,2,17,-561,-141
117,-127,-8,66,323,-530
94,63,0,908,-20,-453
81,90,35,-1,-738,-378
95,70,31,12,-81,-560
103,78,1,-437,317,-633
124,59,-39,-567,176,-801
-113,58,-57,-235,39,-426
125,76,-70,-138,-230,-175
121,98,-69,-70,-224,-61
-115,119,-60,-215,-109,116
-125,-94,-47,-485,-199,311
-118,-42,-42,-615,-46,280
-107,-27,-44,-342,72,100
-115,-23,-43,271,-46,40
-112,-24,-44,677,-148,-38
-114,-16,-49,252,-122,-75
-109,-21,-52,74,-81,16
-95,-22,-59,157,-54,116
-77,-14,-63,113,-189,128
-87,0,-67,-35,-285,11
-106,13,-62,-199,-315,-213
-106,0,-51,139,-203,-263
-90,-9,-46,348,-76,-184
-90,-14,-57,566,-72,-126
-88,-19,-66,597,-93,-167
-115,51,35,1822,-80,6225
79,38,46,1670,958,5471
-16,49,-39,602,-714,2650
91,122,-23,-2739,418,-2352
27,59,-80,38,1222,-5867
53,43,56,-1057,-757,-4165
75,-11,17,440,388,-4924
-13,125,94,618,286,-3325
58,52,-5,-933,-755,1473
-60,108,-22,-979,-1165,1495
82,94,-58,100,366,-332
-92,-118,-100,-1201,608,-1042
54,102,-118,-4267,610,-1586
-114,123,58,-7548,1074,-104
-47,72,120,-5441,1759,2110
-58,-8,-60,-2135,406,5403
2,-69,99,-459,1244,7553
-56,81,-81,-2347,-732,6571
-89,86,22,1517,-2607,4527
-45,106,-34,710,-1142,1871
-6,-85,-37,3388,-561,228
109,72,-52,3369,-227,-394
86,1,-30,1487,154,-884
71,111,7,1622,19,-931
89,-27,54,2180,-230,-653
98,-37,75,1287,56,-309
64,-40,110,-97,-174,-514
47,-81,127,-504,-304,-327
65,-68,112,-550,-161,-397
103,-89,63,114,172,-392
-122,-51,7,-64,-8,34
101,-23,-25,165,-266,218
93,7,-37,68,-306,-28
100,30,-55,-188,-103,-161
106,46,-56,-419,-168,-115
106,55,-61,-267,-166,-62
109,74,-75,-260,-135,-120
105,95,-77,-317,-336,2
106,120,-77,-272,-232,-210
122,112,-75,217,-184,-177
120,-119,-71,29,-237,-69
-125,-102,-74,-72,-104,-224
-125,-94,-68,-183,-96,-250
112,-95,-73,-4,-14,-270
124,-75,-72,-127,-46,-137
-109,-77,-82,293,92,-137
-84,-65,-69,498,90,-117
-86,-70,-67,1055,55,-132
-96,-78,-52,1257,-111,-140
-127,-88,-71,1098,12,-206
63,26,-119,2183,1015,4839
-4,59,87,3424,-17,6414
-84,-46,-58,-892,1371,2644
83,-6,124,-2243,-973,-1257
35,-48,87,-2448,-434,-4884
-13,3,41,-1197,1738,-4562
82,-67,107,932,291,-5436
-37,52,-48,-546,785,-4565
-13,27,-40,-765,-240,526
-47,-47,83,-5445,815,-1202
-60,114,-92,-4394,75,-1539
-44,-29,-21,-2256,280,-1160
39,124,-29,-5974,1807,-1453
122,53,97,-3516,872,1255
-77,75,97,-1588,-128,3063
-38,-41,-77,-1643,-1811,4581
-66,-37,113,1635,-536,5551
31,83,-59,-2377,-1472,4756
-11,40,85,1884,-2247,4237
-2,42,-9,4463,-61,2184
43,-95,-56,-722,-551,688
113,-96,5,1336,-1190,688
49,-32,51,2632,-550,355
70,-82,10,1560,325,-269
67,113,11,645,-102,-178
56,53,9,403,-261,72
59,35,1,198,-74,-96
65,55,6,-443,-177,-30
83,56,-10,-547,-35,-113
100,49,-31,-252,67,-274
89,47,-44,-83,-201,-502
66,31,-60,548,-191,-674
66,16,-66,878,-118,-753
73,9,-66,741,-48,-310
86,35,-73,182,-69,311
100,64,-76,-104,38,201
-126,82,-75,-54,75,180
-116,101,-80,197,-41,77
-113,107,-71,502,-212,45
-122,126,-67,446,-55,-126
-126,104,-66,1014,34,-134
121,107,-70,1041,-32,-89
122,90,-79,1123,-23,-87
125,118,-65,349,-143,-12
-111,104,-62,610,70,-187
-118,91,-61,861,-95,-126
-111,110,-65,302,-82,-37
-113,117,-63,158,-96,-101
-123,107,-59,830,-227,-104
-116,108,-57,676,-90,-304
34,-51,51,2531,-3175,-2417
97,3,-29,389,-5143,-1894
55,30,-38,1034,-5094,-811
-19,34,35,498,-4060,-185
47,124,107,-41,-893,-51
-90,-107,57,84,-888,-9
-128,113,-40,1110,-2484,1488
-63,6,-54,2046,-2232,1877
109,-30,-25,2739,-411,3084
85,19,-81,1741,735,5813
-13,-63,94,2919,1348,5456
72,-87,118,386,-1713,2291
-72,33,27,-1443,-57,-1963
97,-113,57,-1398,527,-4473
-114,47,-18,-2228,889,-3614
-78,20,73,2253,869,-5545
64,-6,-23,618,194,-4196
8,-65,-104,-1766,-1892,730
110,-45,-18,-395,224,898
-118,77,-41,-945,-843,538
-44,78,-107,252,780,-517
33,-86,-124,-3288,1196,-1244
-126,-98,59,-6621,1886,-1469
-27,-104,119,-7558,2278,-763
50,-65,-34,-6410,623,2031
77,-45,-77,1109,-1259,4482
-31,-18,-10,-815,-292,3738
44,109,5,-1179,526,2668
45,75,78,1428,-1258,3548
59,90,16,1201,440,1746
-29,-1,-11,1154,-473,1335
-79,-104,-4,1971,-350,1244
-87,93,-29,1756,250,383
-121,110,-28,-1404,-132,-286
123,20,7,-734,-884,457
103,-10,9,2,-1133,706
54,-88,-9,489,-714,79
100,-55,-21,-1051,479,-268
125,-82,-40,-639,734,-301
109,-77,-42,161,-286,-37
110,-75,-38,710,-397,33
-113,-47,-38,127,92,-93
-96,-24,-40,-218,20,-33
-112,-12,-35,-60,-232,27
-116,8,-23,-30,-284,-2
-109,16,-26,31,-60,42
-112,28,-26,-142,-94,34
-103,32,-30,-124,10,-52
-96,41,-24,-88,-146,-56
-95,42,-27,15,-149,-137
59,53,-64,4193,-1535,-2512
89,-118,-76,5181,-3422,-2552
109,-29,-7,3385,-4531,-1566
47,60,-63,2002,-4536,-807
-29,-6,71,822,-3112,-558
-8,-41,87,488,-3683,881
112,-53,-124,-644,-49,139
35,-112,61,129,-720,662
24,112,-62,-390,-543,1065
64,58,-110,1092,-1053,1750
-64,-101,115,1692,380,1765
1,-4,59,4006,-387,3276
73,-109,-11,-596,-101,5410
45,99,20,280,1767,5933
121,45,-113,-348,-1020,357
9,-77,-15,-1846,-254,-4065
-43,-12,118,-1027,1265,-3191
118,-39,-29,-405,-88,-4673
-42,104,-111,3778,912,-7135
10,-94,-71,-2910,-1721,2097
127,-59,-33,-399,96,1764
80,87,70,-766,-586,-403
-64,-9,-118,2455,928,-306
-58,-95,-56,222,-600,346
75,100,16,-106,939,-640
98,-128,-26,-3377,2340,-501
-49,62,118,-4426,3188,159
10,57,-65,-4801,3389,1527
82,-70,105,-838,1598,4475
-38,-96,-120,1961,1501,3459
77,122,52,-4422,2161,1748
-28,66,82,2408,934,1612
-28,-108,-128,-98,389,1422
119,-120,-124,-2230,-167,834
126,63,-64,365,-831,1013
114,-9,-55,2369,-468,392
72,-19,-40,723,-320,-366
64,-71,-24,145,-256,-278
49,-109,-10,473,-331,-20
53,-127,-13,314,-37,-222
82,126,-26,139,151,-326
110,99,-37,668,225,-324
96,61,-60,1595,57,-95
85,73,-63,1087,-194,-88
90,71,-64,512,58,-210
103,60,-69,369,77,-55
107,54,-61,727,-61,98
111,59,-59,842,44,112
-115,83,-42,505,143,-12
-97,57,-47,1049,181,29
-23,106,80,2439,-548,5432
-27,-83,13,986,-865,4260
41,-67,-50,-1006,-907,873
49,59,112,-465,467,-2438
-2,32,104,-1787,1547,-4188
26,-55,20,-322,724,-3593
17,-104,89,2147,2853,-6682
-36,78,37,-2555,-1966,-65
-120,30,-91,1104,-694,859
-99,-48,-59,-1734,-1529,1045
91,11,47,-172,-862,251
-16,-99,-72,-6227,3706,-2233
53,40,0,-6206,2877,460
117,-114,61,-4585,1433,2653
-73,24,-56,-992,-737,4057
45,-41,-98,-1326,976,3022
-124,-108,-19,-560,259,3885
-110,-75,1,838,-323,3712
126,-8,-34,1094,-92,2240
-16,-125,-31,2943,-707,1168
-97,80,-48,1470,-354,718
90,1,-38,919,-158,287
76,-118,-19,1309,-139,35
102,89,-9,977,-31,-417
102,45,11,681,-204,-448
99,3,17,602,-225,-426
89,13,27,-152,-317,-538
108,-11,18,-29,64,-565
111,-31,-2,517,226,-307
121,-29,-13,756,176,-139
-118,-18,-25,520,146,-8
-106,4,-30,176,46,119
-109,20,-33,66,10,127
-103,37,-33,63,41,58
-97,64,-33,85,-53,7
-91,77,-36,96,-120,6
-81,81,-32,203,-211,-210
-88,72,-27,614,-275,-275
-94,71,-22,636,-251,-394
-106,73,-23,297,-181,-321
-106,76,-22,98,-135,-91
-107,85,-27,156,-81,26
-100,107,-27,146,-51,-34
-93,109,-27,404,-56,-38
-83,116,-24,468,-164,-42
-76,-128,-19,233,-184,-1
-72,-120,-14,86,-175,54
-76,-110,-13,175,-133,128
-86,-101,-17,391,-84,116
-82,-92,-18,365,-64,147
-58,-70,55,1800,275,6090
-105,4,6,1644,343,5494
-85,-26,48,-1536,-1153,1864
-16,-39,92,-1805,406,-3482
-75,-13,64,-825,1273,-5548
45,66,53,-841,597,-3516
-12,91,22,-1364,1595,-5110
122,-65,-92,713,275,-3095
118,69,27,-4498,-1828,-613
38,96,-36,1386,357,426
-43,5,124,-5348,-1488,-691
-114,-76,-43,-6150,2347,-1982
-42,113,-85,-2761,1835,942
-4,58,-102,-2232,381,2352
59,-87,-120,-1857,-86,3393
-96,-2,-81,-417,45,3470
80,-122,-102,673,101,4388
-113,-22,-45,899,-102,3724
-92,-32,-122,1287,91,3119
42,49,-37,-681,-1339,1882
-18,-118,-11,2827,-596,1595
-92,91,-25,1919,-286,1096
97,50,-5,-80,-276,601
94,-56,-5,1359,-204,542
92,-67,-17,678,31,38
82,-84,-27,-418,-8,-365
82,-94,-25,-953,-105,-618
108,121,-27,-84,-67,-657
99,78,-47,848,54,-784
107,30,-55,1759,-1,-776
90,18,-64,1492,-367,-513
95,12,-63,712,-232,-143
121,34,-53,-176,148,22
-124,49,-49,29,173,150
-119,81,-51,658,-135,304
-116,110,-47,678,-107,160
-108,114,-55,742,76,-64
-111,114,-38,821,-122,78
-123,113,-44,764,-25,34
124,-126,-40,169,-154,-120
127,115,-38,133,-33,-158
-116,115,-37,40,13,-261
-112,97,-51,382,44,-254
-128,79,-65,446,-225,-354
-100,72,-38,809,-196,282
-87,83,-52,926,-126,240
-38,-96,-25,-862,-394,-26
-50,116,-18,427,68,-186
-71,120,2,787,-172,-93
-71,118,-28,692,78,16
-104,121,0,2671,-4118,-1299
112,17,-110,1927,-4653,-646
47,-40,63,823,-4257,125
112,-26,27,-400,-4037,353
-62,-10,115,-922,-2134,271
56,-95,122,1645,-1194,180
67,7,36,2205,427,301
-88,112,41,734,-516,2591
39,-93,-25,2087,792,4113
14,-94,44,577,1914,7192
-77,-54,-54,3201,-547,6532
-116,-110,45,-1305,-329,46
123,-91,-57,-2618,-1367,-3471
-24,1,11,-752,1280,-6047
-29,107,-61,-526,82,-5071
111,-112,-52,404,-525,-4901
60,-58,-123,-1521,687,-2164
48,127,-12,340,-1609,1836
-62,41,-13,-718,-1204,239
-94,102,-21,-608,-534,-34
6,104,-41,-558,1274,-1043
41,-91,-86,-4970,923,-1235
-87,117,-15,-6568,1589,314
-41,-64,82,-5222,1415,2822
-31,80,90,-1589,654,3306
-64,101,95,-1972,1682,3672
-70,-35,-49,560,-997,4513
95,-75,-21,-300,-376,3299
1,-51,58,500,-922,2681
-11,91,21,1942,-68,1394
117,14,-13,845,-232,661
61,110,-8,2060,-782,687
50,51,-17,1262,-291,329
35,-64,-20,1219,-197,247
39,-63,0,161,-270,219
88,-87,-9,-271,328,18
90,-104,-21,-249,206,-317
92,119,-30,571,-111,-403
85,118,-32,466,-71,-548
93,101,-49,479,247,-493
110,90,-61,582,334,-238
117,97,-68,600,137,26
-128,109,-73,475,-30,128
-127,124,-71,192,-56,104
-115,-123,-62,167,-72,135
-97,-104,-48,108,-134,162
-95,-127,-50,921,-30,5
-99,-124,-36,954,-343,93
-114,-111,-35,361,-275,-12
-118,-112,-27,118,-222,-42
-18,18,86,1767,1135,-5666
57,108,-79,-1236,-940,-3567
-92,22,-67,99,-1348,1240
51,110,7,-1562,-1396,777
-67,64,37,-560,-20,-203
21,-52,-56,-4584,1461,-1888
-128,-41,58,-8659,1748,-2207
41,-35,5,-9781,1213,-587
11,-28,30,-3111,-1240,2843
81,9,-81,1883,-1713,5072
8,-19,-36,1067,-555,5263
-88,-116,-81,191,-274,4890
-60,20,77,1687,-1928,4779
2,38,-58,3046,493,2513
56,-106,-62,-288,-515,1720
-126,-117,-9,3727,-1614,1189
66,-124,-13,696,-208,-63
17,-21,-3,1577,184,154
9,-85,15,1215,-53,22
18,110,16,708,93,-193
40,95,20,33,17,-283
59,110,30,-899,-100,-473
57,72,6,-502,133,-899
51,20,-7,876,136,-962
60,-1,-13,1398,37,-660
81,-7,-30,1196,148,-175
96,20,-34,233,70,236
104,48,-43,-354,-107,346
104,94,-40,-554,-398,357
88,120,-41,-390,-316,61
73,112,-48,254,-193,-48
76,-127,-45,325,-213,81
88,-118,-57,250,-118,111
99,-109,-66,185,-207,73
107,-89,-63,-34,-298,21
111,-86,-59,21,-257,-107
118,-87,-53,106,-283,-85
108,-74,-51,42,-310,-129
114,-72,-48,59,-202,-163
112,-69,-48,58,-135,-109
111,-67,-57,253,-82,-73
118,-67,-68,437,-73,-71
126,-59,-74,308,-131,-9
-127,-55,-78,311,-139,2
127,-51,-76,344,-153,0
-123,-50,-77,399,-105,15
-118,-49,-79,453,-148,32
-115,-48,-82,505,-206,31
-113,-41,-82,344,-208,5
-112,-45,-77,416,-152,-32
12,-60,-59,2050,867,5525
-72,28,7,4272,-376,4896
11,-86,-24,-133,412,4685
17,11,105,-2261,697,-1220
-19,123,92,-1880,-294,-4968
-18,118,-90,-591,738,-4837
-66,104,45,-2413,-614,-4959
-124,-113,0,2535,2976,-5217
66,20,58,-1922,-2567,811
-32,-14,-112,-1373,541,1116
-103,86,1,79,-1533,-366
58,-54,-83,-5168,1907,-2000
-44,-66,-4,-9321,2610,-2459
35,33,-57,-9952,357,-209
67,106,33,-2019,-1309,3867
-30,-65,-2,3504,-1692,5737
76,-3,-18,-912,-985,5268
-107,35,13,854,-978,4306
-53,-76,37,1088,-1065,4242
-114,16,-27,3720,-336,1916
23,95,-92,878,58,1032
90,95,-54,2569,-1089,954
60,54,-46,1316,-648,190
56,-39,-49,1053,-8,-134
39,-110,-23,504,-75,-345
37,92,-12,731,-227,-291
68,75,0,428,-127,-188
83,85,7,-189,25,-223
85,52,-5,328,107,-490
86,30,-16,581,98,-565
76,0,-28,991,152,-504
103,-1,-28,1097,292,-330
123,-6,-36,1161,366,-205
-122,-7,-47,1310,172,-23
83,33,-35,536,-450,157
93,88,-22,-756,-207,-8
117,97,-26,-921,36,-213
-126,104,-28,-277,-68,-165
105,82,-42,815,-235,-300
-80,67,-28,1069,-86,-15
-58,102,-11,90,-366,299
-67,-126,-14,-234,-23,62
-91,-109,-22,-129,-43,-246
-94,-120,-26,25,-108,-252
-99,-118,-21,297,-45,-134
-128,-111,-14,512,-213,-64
-115,-91,-12,51,72,24
-94,-85,-8,53,-24,128
-72,-61,-3,-12,-128,184
-70,-60,-6,312,10,211
-31,-107,-23,3936,-2528,-1661
-102,112,-51,66,-4944,-3250
74,-20,110,-236,-4936,-2867
-95,-19,-48,2357,-6022,-1228
52,7,-106,279,-5580,-644
74,54,10,-645,-72,730
87,68,-36,-208,-305,-66
-108,-58,-14,2058,-649,837
60,-81,-94,3025,-1353,3374
-94,36,-81,1177,-334,3231
-24,110,98,2613,146,7066
3,32,18,1981,1704,5952
51,23,42,6,-829,2160
84,-42,106,-2363,-1626,-1823
4,-18,-116,-2882,663,-6456
-24,80,74,-1064,1658,-5265
-6,-113,-98,1972,2882,-5377
55,-42,-103,-3109,-663,-1861
-29,90,-19,-489,-326,281
-120,-71,40,-1076,-948,-308
65,80,115,-2054,-676,-285
-128,-35,15,-6357,710,-1140
-78,-121,-52,-4714,926,444
-16,51,110,-3022,525,3033
94,-89,-76,4376,-1661,-2264
-114,49,-67,3889,-4179,-1867
-58,59,21,2415,-5031,-795
-104,-72,-17,459,-4466,-318
43,-98,-96,727,-3749,247
93,40,8,2349,1991,-311
105,46,-10,1963,-329,2121
100,111,18,2197,859,4537
63,-40,-61,2528,772,6798
82,-67,-49,1150,2194,3669
17,-119,83,-711,-101,1579
-6,47,-22,-2381,-1645,-4925
46,14,52,-905,117,-5152
-19,-20,79,50,-136,-4789
40,73,-126,438,161,-4007
-25,-33,5,-423,-561,-410
84,-78,78,-1927,-1172,1540
81,-55,58,-158,235,240
115,-126,0,-3458,367,-1225
-89,35,-52,-2216,1060,-691
46,99,-72,-4032,1346,390
81,85,65,-3923,1836,1000
-108,77,-12,-2055,1809,2524
16,-107,-67,-2855,1180,3312
76,-54,-52,967,5,4845
-88,36,-62,1943,738,4322
51,77,-13,2148,-1017,4932
76,96,26,1711,1539,5458
-9,-17,3,2454,1055,4245
-18,29,-120,359,292,-333
10,-49,-12,-2910,-547,-3304
-21,-5,-93,-1882,1073,-5152
-24,67,-127,-680,-174,-4659
-98,-88,124,1452,757,-5406
87,-81,-59,21,-767,-2049
84,52,-1,-2452,-1228,2652
22,-74,32,357,-787,224
-71,-14,11,-207,337,-935
22,-58,-4,-660,539,-416
79,-114,-24,-3465,762,-348
-106,61,-60,-2876,1587,844
-88,-12,83,89,1467,2162
41,-64,41,-125,1906,2682
110,20,-98,-1596,2371,2157
-21,70,49,172,2301,2836
25,-52,43,652,1075,3147
23,53,37,-80,371,2851
-44,70,-14,-132,1347,753
-116,59,83,-299,-355,1478
94,29,120,209,-93,982
46,37,-63,-638,100,175
24,-24,-25,123,13,399
26,-67,-7,704,132,294
28,-66,3,278,-144,214
44,-94,1,406,-148,-73
42,-123,-3,675,-198,-303
44,90,-28,765,-168,-547
53,78,-49,595,54,-436
64,46,-61,694,145,-301
72,42,-73,494,195,-208
91,54,-79,261,114,-168
102,62,-67,418,-28,-49
109,80,-72,251,-145,105
108,85,-64,243,-143,102
119,110,-49,73,-184,126
97,121,-50,236,-192,83
94,-123,-43,131,-273,-17
109,-122,-35,144,-106,-62
121,126,-51,364,-48,41
112,-120,-55,280,-204,56
115,-110,-49,270,-171,49
119,-99,-47,265,-140,15
112,-99,-47,409,-213,-24
114,-98,-45,452,-222,-51
-125,-96,-40,400,-217,24
-111,-89,-38,377,-255,60
127,106,59,-1962,1451,-4660
-48,-124,-14,880,1483,-5300
-44,123,56,-3032,-1061,-826
-80,-91,5,1033,57,477
-2,72,59,-2639,-1340,-299
18,45,56,459,-128,387
-17,53,85,-4184,-32,-490
86,-1,-49,-5329,1195,-1290
-121,-124,-99,-7281,769,-737
-54,-45,76,-6015,952,-788
-65,-74,-16,-4041,-1098,1530
39,-91,106,2069,-1383,3610
121,-96,-112,-666,-760,2407
125,-32,-7,-617,-1850,2620
-111,-73,12,-274,-845,2262
-76,-76,11,483,-1063,2385
104,-91,19,-43,-1358,1305
-122,76,-8,1104,-389,1429
84,64,-24,284,-532,749
85,-58,-57,1462,-279,890
97,-87,-88,1069,-258,462
90,86,-89,1340,-351,593
107,28,-101,1274,-110,424
120,-1,-123,1241,-240,321
-122,-20,114,786,-427,247
-111,-75,100,1056,-305,139
-116,-57,103,252,-248,162
-116,-96,101,819,-196,66
-110,-78,101,311,-164,251
-118,-99,111,766,-426,330
-117,-67,122,287,-362,274
-110,-98,116,1098,-283,426
-114,-88,100,1070,-306,219
-119,123,89,2136,-490,399
-115,-114,87,1303,-569,309
-115,-119,85,694,-437,308
-115,-67,64,-1057,-327,-14
126,-107,58,-121,-546,318
126,-79,58,-174,-573,395
-126,-91,49,390,-535,420
-116,-68,43,-174,-342,75
-112,-76,31,-56,-127,-162
-104,-79,20,143,56,-375
-103,-111,16,1048,-61,-332
-101,-92,9,683,-86,-264
-111,-120,8,1369,-330,-15
-111,105,14,1942,-482,253
-98,-121,13,778,-262,183
-96,-104,10,-280,-193,30
-83,-40,-1,-2066,37,-109
44,-61,55,2674,-2708,-2767
-93,-54,-51,1506,-5345,-2053
-74,101,-68,632,-6164,-414
95,41,-13,863,-5129,-568
28,-75,-24,-121,-4260,987
82,-20,-15,-613,-1098,22
49,0,-24,-4,-1005,123
52,-84,123,1112,-421,685
119,-70,17,2798,-491,929
39,76,-12,3414,698,3040
62,75,-49,1660,-66,5015
73,126,-68,2616,1247,5880
-82,-104,67,481,1912,4548
-116,-32,37,-1510,127,1319
73,-17,-90,-1565,-1816,-3662
38,34,-63,-872,-84,-4844
117,-46,17,-562,-325,-4361
-82,37,-14,-337,-618,-4702
-36,-34,-7,504,-717,-2743
61,11,-99,-68,903,815
-33,-76,36,-1302,-1069,531
-26,13,-17,723,-217,-606
-22,-71,8,-1435,292,-883
32,77,6,-1266,829,-173
108,-90,-24,-4152,1074,-115
-112,68,77,-4251,1726,246
-51,105,-7,-2593,2105,1471
-9,-29,-28,-2093,1675,2942
-108,85,127,68,2583,2819
-5,96,-124,-1807,1314,3918
75,82,111,-6,1078,3457
53,39,-87,-1169,-6,2575
0,41,0,-304,-62,2061
-65,-93,41,2054,-198,957
-123,120,28,1308,-104,708
69,21,26,1046,-334,516
36,-49,21,534,-382,318
50,-65,37,-144,-302,55
33,120,51,324,-276,-52
51,93,43,522,52,-308
73,80,33,666,144,-640
87,70,19,804,-62,-643
80,85,18,637,-303,-354
68,77,23,679,-320,-147
88,82,21,665,-45,-59
-122,88,26,452,-146,-24
-110,113,26,113,-349,189
109,-119,22,-104,-540,162
79,-92,21,-229,-485,149
92,-80,7,-204,-167,134
93,117,-74,2772,682,5076
-59,93,123,446,602,5016
-106,-28,-76,-318,120,1492
54,-32,-31,-1383,-1344,-4900
44,-64,-8,211,442,-4254
110,61,25,-909,-395,-4665
-22,75,121,496,176,-4066
114,-108,5,-402,-712,-2128
3,-46,-90,-673,-1175,-469
116,82,-73,-566,-961,434
-60,54,-6,-794,-671,-33
-26,78,-8,268,510,-204
-9,-62,7,-2344,183,-248
-83,32,-72,-1086,2039,-130
-80,-127,106,-3727,1786,873
-8,119,-30,-2877,1541,1833
98,58,112,-1606,1408,3515
-93,64,75,26,1944,2516
5,-101,13,-1266,1636,3445
64,-72,32,-484,1333,3446
27,39,85,-263,270,2902
1,64,-52,-368,-111,1830
-45,-79,-39,1729,57,1070
-125,79,-19,1961,-362,665
99,22,-11,112,-210,392
63,-53,-13,176,-282,502
46,-56,12,-245,-619,277
58,-100,16,-33,-249,-205
55,105,14,611,2,-575
71,64,14,883,-255,-428
69,30,-13,1044,-481,-139
77,54,-19,375,-195,57
82,49,-26,266,112,-151
93,51,-20,535,6,7
98,62,-23,661,-137,153
103,84,-19,449,-128,121
108,88,-17,459,-137,215
113,109,-13,220,-171,349
119,-121,-13,4,-126,320
123,-100,-12,114,-127,240
121,-94,-11,336,-169,176
-127,-86,-12,419,-137,77
-121,-81,-14,406,-85,-23
-120,-78,-14,325,-56,-133
-124,-96,-25,565,9,-264
-128,-114,-36,695,-30,-257
-122,-116,-44,580,-97,-152
-112,-117,-50,464,-161,-64
-112,-108,-47,337,-320,56
-110,-98,-44,280,-316,38
66,60,-76,-1287,-5390,-1542
-49,-7,-17,1217,-6518,-1602
-3,33,84,262,-4972,-1006
-22,24,-87,600,-5117,-99
70,-59,-80,-480,-1799,392
80,4,-95,-382,-513,-35
-4,-108,16,-163,463,-174
98,41,-27,2214,330,1357
-36,126,-54,1124,-1616,4592
56,48,-97,2019,505,4387
116,112,-87,4463,1688,5246
-104,116,-85,87,625,5437
93,114,-16,-1015,-433,-1104
26,-12,-63,-1206,-1152,-4144
16,48,-122,-1700,1216,-5936
-76,-15,-42,-712,-1348,-4576
-59,-18,-93,78,799,-4865
51,-91,-47,425,-1678,148
126,-67,107,-675,-812,755
-128,42,101,-564,-946,895
-108,-127,40,333,870,-1010
-12,-94,-9,-2006,545,-882
69,-16,-41,-1603,474,621
101,103,-96,-4540,1531,1234
-128,13,-23,-3278,1834,1966
39,-118,-69,-2670,2631,3998
-117,-89,90,-2480,1002,5306
-106,-113,34,422,1529,3832
-70,-117,-126,113,-620,4166
89,37,62,3384,-209,2226
-40,-76,68,-399,-288,888
72,-61,-111,1522,-598,207
28,81,-67,2446,-565,17
7,-21,-50,1665,-209,-409
20,-76,-31,806,-59,-233
14,94,-16,1324,-214,-328
23,77,-10,580,-119,-234
32,88,-12,-280,-69,-90
17,68,-25,-74,6,-185
26,73,-39,-28,180,-308
36,52,-65,555,237,-97
53,56,-83,785,-23,99
72,94,-101,272,-54,85
90,106,-106,3,42,-96
98,107,-81,366,-132,-212
100,95,-68,563,-236,-90
127,111,-69,-148,12,95
66,-111,-80,-360,-316,107
60,-97,-67,-284,-371,-100
110,-82,-47,-371,98,-54
-118,7,56,2473,1695,4511
-116,-112,-5,1513,422,6821
-111,11,99,1685,776,2697
9,85,50,196,-647,-238
-92,-117,-37,-2527,-1328,-2788
-114,-117,-92,-1476,762,-5358
-6,-52,-91,-574,-1309,-4138
32,-85,-97,-621,210,-4595
18,125,-29,1634,-597,-1648
22,-78,34,-1642,-1614,1971
-20,-22,18,-14,-455,116
-75,-127,-26,-431,-210,-28
13,92,-61,5,207,-1
44,118,-29,-1016,553,18
73,23,-46,-924,1336,453
-82,111,-125,-3262,1851,650
-58,76,24,-2525,2195,2063
41,-6,-121,-3743,3150,1757
-120,117,42,-2522,1346,3437
-62,80,37,-3097,903,3197
-10,-84,97,-908,600,2672
22,44,-28,-208,-735,2479
-3,-30,-76,1924,241,1630
-46,-27,-47,789,-371,995
100,107,-57,433,-510,536
80,45,-14,329,-416,564
72,-31,-25,871,17,315
86,-88,-26,1380,410,-192
91,-90,-24,1134,62,-263
103,-115,-29,679,-62,-423
111,112,-21,404,-101,-420
102,113,-22,-46,-385,-84
75,124,-53,-273,-622,-4
101,124,-78,255,199,319
109,-126,-85,480,340,-53
-120,-120,-93,647,119,57
-113,-117,-104,686,-131,-2
-113,-117,-91,583,-148,-80
-114,-118,-82,392,-161,23
-110,117,-58,813,-45,28
-107,125,-52,698,-186,32
-101,122,-51,543,-266,46
-99,125,-38,279,-283,138
-117,-118,-38,154,-305,101
-128,-117,-26,305,-240,9
-113,-113,-23,253,-78,94
-106,-113,-35,478,-146,106
-105,-100,-41,463,-232,51
-99,-95,-38,354,-176,22
-100,-97,-38,466,-132,-10
-115,-2,-25,2406,-3603,-1998
-59,-113,114,965,-5068,-1495
-56,3,112,1365,-5209,-977
125,-3,72,659,-4575,-893
76,22,-70,-563,-4101,529
-120,-10,10,-465,-578,-180
-20,61,-87,954,315,-724
86,89,55,2232,358,765
68,10,-26,2860,834,2683
127,11,-114,898,46,6380
-119,-55,-73,2377,1688,6767
47,-24,-11,1236,83,5163
61,-44,4,-1072,-342,-54
30,-102,-35,-2360,-1123,-4154
0,11,-74,-1004,401,-5071
90,9,71,-427,-317,-4589
-61,57,-77,-540,923,-5016
97,33,-101,1180,332,-1808
56,113,-5,-1306,-1232,1820
121,8,-30,-491,-540,891
87,-58,-79,-246,430,-300
-79,-25,120,-918,668,-896
-29,-64,79,-3884,494,-311
80,-86,20,-4829,1055,542
50,-23,-117,-4513,1166,1930
126,113,105,-3058,907,2687
-40,20,116,-1092,1038,3384
112,-63,89,461,773,3341
-71,-96,-87,-1167,-235,3040
-38,127,-69,485,-290,2695
-40,109,-16,2472,-271,2003
-51,87,-58,2055,-282,1451
-124,-2,-89,1103,-113,657
67,74,-54,1932,-435,655
61,42,-37,909,-403,294
44,-10,-19,354,-224,182
73,-51,-2,-154,-5,92
78,-67,6,-93,-104,138
49,-89,-3,481,-127,18
46,-102,-13,621,-75,-176
74,-113,-27,581,86,-98
82,-117,-41,476,28,24
96,-108,-51,394,-32,39
111,-108,-51,492,-60,-20
114,-103,-52,500,-206,-20
111,-107,-44,587,-179,-17
114,-95,-41,346,-152,20
121,-97,-41,468,-185,11
-127,-92,-35,535,-257,18
-122,-86,-29,420,-290,19
-75,103,24,169,-4802,-3214
19,-112,90,661,-5293,-2589
-90,20,121,745,-4718,-1358
-44,-10,-25,626,-3246,-192
-14,-106,-61,-925,-210,-276
91,-118,-125,578,-522,366
82,-125,-118,2220,-52,428
-69,-72,24,3182,-601,799
68,-56,25,1434,-42,3647
57,58,48,1799,637,4469
-94,-58,73,1334,-812,6888
14,56,108,506,1079,3863
30,-124,43,-779,-901,2151
-66,3,-78,-1087,-877,-4390
-52,92,119,-966,664,-3799
-24,-128,43,-1093,-135,-3145
-97,44,-87,1450,1325,-4782
-79,-29,18,1145,65,-3068
-77,94,90,-715,-1496,483
-63,-15,127,-197,-1052,836
-28,-34,-72,-17,-797,435
0,111,-112,479,650,-460
23,127,-89,252,107,-247
-106,109,-90,-1595,725,-262
-99,87,-101,-2121,441,261
-40,93,111,-4474,1003,184
-14,76,-92,-3030,2042,2247
41,4,-68,-3143,1587,3231
-66,117,22,-1579,3020,2386
-3,-117,96,-2008,142,4263
100,-106,105,-626,536,3113
94,63,-38,-119,-747,2938
21,3,-25,839,113,1597
-67,-108,-27,2658,-283,945
118,66,-28,1521,-361,283
98,-1,-16,686,-192,247
78,-111,0,1375,-230,-26
60,105,23,849,-386,-199
70,79,40,133,-337,-271
76,63,51,-169,-250,-222
104,37,51,108,-11,-266
127,16,42,840,142,-166
-101,20,31,902,11,-24
-112,46,17,491,-154,73
116,46,8,545,-119,111
103,64,5,450,-133,241
112,76,-3,353,14,268
-126,85,-7,375,-38,306
-101,98,-11,352,-108,250
-105,103,-15,404,-227,33
-107,62,0,994,-862,6594
101,-88,-2,1443,334,6330
19,-25,127,238,-1175,3313
119,-21,-51,-700,-1068,-1252
-42,18,-94,-1019,1878,-4617
23,-66,68,-2220,770,-2743
-6,-90,-63,1097,1859,-4997
-49,9,3,3268,270,-6487
-80,-102,41,-1440,-2056,-462
-47,120,-97,-966,-1252,2190
-64,-18,-23,-435,-684,299
-58,77,-78,1079,1191,-209
50,-81,92,288,108,-59
-96,69,-94,-706,-65,-145
-104,73,-42,-4539,694,175
64,104,0,-5425,2346,1432
82,22,-75,-2486,1937,2821
-32,-13,94,-2322,1726,4236
-70,112,117,-2563,128,5822
5,81,29,1893,407,4041
26,113,127,1024,-419,3228
98,88,103,2303,-1166,1549
-92,10,-114,1551,-456,381
76,79,-70,2808,-318,-36
21,-74,-55,1905,37,-663
37,101,-7,1057,-350,-539
39,-5,20,1215,-257,-645
70,-46,39,593,-27,-385
61,-58,40,154,-183,47
79,-53,30,19,35,107
83,-52,6,376,51,69
80,-44,7,801,-174,199
83,-21,-2,446,7,137
82,-9,-14,262,-40,235
94,1,-20,234,28,219
108,6,-37,359,-1,140
105,13,-42,430,-219,119
105,21,-45,427,-146,-3
100,20,-44,450,-190,-60
109,13,-45,580,-162,-94
104,7,-51,604,-251,-24
104,25,-48,225,-235,64
108,26,-49,358,-148,58
111,33,-55,397,-145,89
119,51,-61,279,-217,74
117,57,-62,316,-189,17
122,57,-62,443,-175,6
122,63,-67,413,-171,4
124,68,-69,356,-183,29
126,69,-75,400,-171,19
-111,127,23,2672,-4210,-1221
-27,33,-99,598,-5366,-663
-4,-71,-44,-360,-4766,-967
68,-88,-25,44,-4166,-64
95,-58,-33,-302,-2848,-191
-116,-50,44,-185,-1091,446
-16,-35,-11,-233,-239,754
-30,-111,-14,811,556,584
121,-67,7,1783,-1262,1855
-22,-95,36,349,-2748,4740
33,-86,115,739,-396,4039
31,93,-80,2796,-179,6776
65,-59,-68,328,-763,3214
95,105,-32,348,-90,-2138
87,123,-119,-998,991,-4068
-63,37,45,-2063,2176,-3238
-58,78,-66,-239,694,-5775
65,68,-100,2250,1068,-6218
-61,-39,-100,-1641,-1110,-1193
43,7,111,-835,-323,1078
-67,-12,-76,161,-898,827
-80,-78,103,476,536,-99
-29,-62,61,-63,-57,16
52,107,95,-990,71,118
123,-104,-103,-3919,143,-824
-102,103,100,-6516,857,119
33,-55,127,-6452,1332,2766
78,-33,115,-2121,170,4341
57,20,102,530,106,4829
-93,67,-35,595,-794,4795
-21,-47,114,4261,-51,3575
75,-9,120,-523,-54,2419
-42,81,-101,2354,-497,1357
-119,34,125,2345,-306,150
14,96,-55,1512,-771,-813
-2,-50,-7,926,-108,-294
18,115,5,1044,28,-44
35,71,5,808,-128,6
70,53,3,789,-250,-8
81,88,0,-607,-43,-234
64,23,-4,387,-188,89
63,27,-3,709,-234,162
68,44,-17,254,14,-67
73,53,-29,27,32,61
84,44,-33,497,-39,271
89,50,-45,615,-50,258
99,64,-54,695,-174,324
97,63,-62,692,-232,173
102,80,-66,113,-113,74
95,70,-69,326,-232,99
-72,119,9,2310,-263,5775
-48,-120,26,2461,701,4529
-5,18,-2,1163,-1206,3271
-43,33,1,-1288,-1057,-2429
-112,7,31,-1304,216,-3469
-18,120,-29,-2191,2194,-3914
-108,-84,-22,731,-196,-4958
4,-1,-86,-641,668,-5171
-81,-78,61,-650,411,-42
-103,-108,-56,200,-1006,780
28,18,-103,-377,124,298
-28,-126,77,1084,14,-264
35,-105,85,-958,-26,-302
-113,-121,104,-3136,222,-727
-59,72,120,-5594,1330,-608
42,-112,-63,-5685,1108,1723
127,-62,109,-2902,646,4067
-4,-81,-126,-642,564,4173
116,-43,120,-245,118,4032
-50,98,111,-208,362,3007
66,-36,-15,-685,-1576,2977
19,67,10,1987,-419,2073
-81,64,-8,1335,100,911
114,-61,-26,1320,-339,583
108,107,-23,893,-267,476
102,-48,-13,1838,-88,128
98,-91,-19,1287,-91,-348
92,108,-19,1058,-141,-275
81,65,8,879,-549,88
97,69,4,347,-252,193
100,37,14,887,-339,267
111,40,1,901,-35,-21
114,54,-9,235,10,-136
105,42,-11,470,-206,189
106,53,-25,499,-122,190
111,59,-21,715,-133,230
118,63,-31,642,-50,168
-126,86,-52,-10,-58,116
-125,75,-47,394,-176,152
-113,80,-53,482,-106,55
-114,87,-59,390,-243,-3
-115,82,-55,526,-294,-26
-123,61,-52,933,-310,29
-119,86,-46,263,-228,9
-120,82,-53,156,-188,43
-119,78,-52,443,-265,136
-104,100,-56,346,-178,91
-105,101,-60,450,-227,79
-109,109,-59,401,-242,94
-109,112,-59,420,-180,92
30,-20,114,1888,-913,5327
98,-111,-14,-455,-258,4979
-88,-112,-21,-79,-759,1125
-36,-49,32,-1100,-147,-2522
-10,55,-78,-471,2428,-5615
72,22,-99,-203,508,-3728
-64,-29,24,1834,651,-5711
-58,-57,19,-199,-835,-3772
-120,-47,75,-1073,-478,1179
90,52,-35,-895,-1760,816
-13,98,-35,-247,331,31
21,-97,-69,-1283,-4,-422
-91,109,-77,-2994,531,-620
-4,22,114,-4913,683,190
76,24,-27,-4426,925,2901
-64,26,90,-958,1542,4617
-126,-121,83,-1316,767,5928
116,61,-13,501,1248,5168
-79,75,-33,925,-366,4610
-39,91,-86,1300,-764,2214
45,-82,-125,4104,-320,1190
79,-103,-93,625,-446,-174
-14,43,-43,1462,-15,-415
7,-101,-25,1210,-91,-432
18,61,-3,744,-378,-457
62,-33,15,799,-168,-321
66,-47,19,738,-201,-265
82,-57,12,528,-151,-114
76,-56,7,371,-173,2
74,-39,-3,423,-143,59
77,-28,-16,461,-116,129
82,-12,-42,546,-50,198
74,8,-50,199,-240,204
77,16,-49,262,-195,270
73,34,-51,264,-171,169
80,42,-51,289,-122,26
91,45,-60,351,-118,149
94,56,-62,245,-250,122
97,59,-60,302,-219,75
97,57,-64,379,-211,37
95,59,-66,365,-197,35
97,63,-68,331,-200,63
101,65,-74,389,-214,61
105,78,-79,260,-202,76
107,81,-78,381,-201,90
108,89,-83,376,-176,88
111,97,-86,354,-186,105
117,101,-90,401,-169,69
116,103,-94,399,-236,82
112,111,-95,330,-223,92
27,78,-77,1768,-3707,-2704
-79,127,80,1754,-6144,-1811
-72,18,-63,101,-6223,-1732
17,-1,-2,-1530,-3818,-2282
88,121,12,1634,-2266,15
115,1,-57,-1064,-1883,114
-5,-86,-123,1260,-1105,691
-19,71,-82,2240,390,566
89,-116,23,3900,205,2104
-8,-97,-53,26,514,3340
3,16,105,2034,562,4772
-11,-10,-15,1673,-1066,6325
48,-49,27,98,-100,4073
-61,99,-78,-2014,-412,-671
90,-80,-111,-486,91,-4832
-88,-49,99,-1267,2184,-4395
-120,81,-106,-936,-857,-2987
10,-70,5,1267,1460,-6495
-106,2,56,631,-666,-2079
58,118,101,-2446,-1381,772
-34,-88,-79,-1538,-210,305
-71,-75,-73,-2268,1039,-1353
94,-95,119,-5469,746,-1302
19,85,-46,-5151,1318,587
30,55,-68,-1591,-567,3949
-95,-54,123,-1476,338,5089
91,24,-101,-1048,-180,5460
62,101,-117,1248,-387,5500
72,-99,4,3568,598,2860
126,-38,116,-1327,-701,1663
-90,6,-117,4522,-182,962
86,-16,84,840,92,-105
22,95,-102,-311,-483,45
34,124,-46,1101,-98,-85
43,103,-42,823,-203,17
62,79,-40,655,-342,215
65,70,-39,373,-164,213
73,90,-47,-276,-58,-3
66,71,-56,219,-49,-12
70,71,-59,584,-207,196
78,87,-66,529,-107,132
82,94,-73,298,-123,153
88,103,-77,105,-96,101
88,114,-79,-103,-144,102
92,124,-72,-2,-164,140
99,-118,-80,173,-106,111
102,-117,-80,368,-121,141
109,-104,-86,405,-246,213
111,-103,-88,284,-118,-172
116,-102,-91,329,-99,-33
-114,107,-99,3395,-2480,-2155
60,-67,-84,946,-4953,-1902
-8,-13,-60,203,-6759,-1333
30,-124,59,347,-6352,-1216
-21,88,-10,629,-4036,-484
104,-72,126,-533,-2535,773
100,-9,-112,-889,-412,333
-60,-62,-120,1090,1046,371
38,80,97,2203,383,556
-54,-101,-28,1096,-203,1913
42,51,-17,1472,-1621,4602
-26,64,-5,375,1108,4616
-110,24,114,2218,288,6557
-3,-35,28,522,-608,3489
-69,-3,92,-1524,-738,-2542
-87,45,56,-673,-247,-3975
35,93,-3,-1218,480,-3887
36,94,54,-230,-169,-4845
25,66,-3,1528,1288,-5650
-4,-24,-85,-1791,-1695,986
-31,-74,-87,182,235,643
-56,61,-41,-687,-857,-73
49,-82,-54,-2619,1158,-1315
123,89,-101,-5680,1054,-1544
33,123,-23,-7017,1276,375
69,56,82,-2363,497,4054
-111,-52,125,-2858,-191,4850
102,82,87,-1680,596,4263
-58,-46,-113,3878,-852,4878
-58,-1,-52,-283,-676,3071
91,-104,-41,1371,-239,2414
-78,79,-51,1819,-187,1175
106,-50,-75,1536,-176,519
54,84,-64,1351,-90,412
56,-44,-49,984,9,87
71,-118,-38,946,-42,13
69,95,-26,846,-271,146
72,60,-7,700,-352,151
84,55,-2,543,-183,88
82,47,-1,526,-273,148
82,45,-8,592,-158,51
88,45,-16,521,-85,57
88,47,-26,378,-123,138
91,55,-35,337,-127,193
97,69,-40,136,-113,162
97,72,-50,363,-108,63
99,74,-61,379,-207,17
106,70,-66,407,-177,21
110,73,-69,404,-214,4
110,75,-71,422,-284,30
-37,-75,-18,2040,-4247,-2054
-80,53,-101,1704,-6789,-1343
-20,-39,-4,341,-6759,-834
-26,-51,120,-112,-5122,-837
92,-97,-125,754,-1423,-749
106,6,125,-1034,-1201,705
4,-94,-54,697,154,421
14,25,-109,2037,300,681
-84,120,50,1266,-446,2022
97,-48,71,1399,-36,3772
-62,-119,-53,969,347,5018
-19,118,76,2224,635,6416
-23,44,20,597,105,3090
-71,46,61,-2204,-983,-1764
-78,54,14,-942,-49,-4841
-5,112,11,-940,688,-4925
-107,-108,-124,-463,-571,-4921
-18,-95,51,468,1343,-4715
7,-54,3,-1,-1480,516
-115,97,-59,-874,158,1096
4,44,-72,-317,-525,59
13,-83,-21,-2798,-114,-1067
-2,46,-122,-5933,1284,-1333
44,57,-8,-6724,1117,1564
90,-92,92,-4830,923,2763
-42,28,-127,-3372,-437,5367
112,123,-77,2580,-174,5095
-25,20,-64,666,-460,4752
98,45,-60,963,-73,2274
-10,-42,-45,1293,-391,1729
125,40,14,2441,-659,1242
90,-92,-26,1097,177,459
65,19,-45,1228,-122,207
61,-66,-27,1207,-541,234
66,124,-29,999,-373,142
71,91,-25,810,-169,-49
77,85,-18,462,-229,67
81,69,-17,469,-330,-2
84,63,-16,458,-275,-124
92,58,-16,364,-282,-97
90,53,-22,352,-274,-5
88,63,-23,178,-246,81
90,68,-31,286,-119,132
97,84,-47,262,-148,113
100,90,-54,364,-242,146
106,90,-56,594,-171,170
111,110,-69,300,-174,143
113,114,-71,192,-203,85
118,112,-73,433,-186,31
112,113,-75,409,-282,65
94,29,97,1338,-5414,-1626
-34,-123,99,1706,-6631,-1031
-103,-126,-91,-224,-5288,-615
-3,-93,68,260,-3412,-152
-7,-69,87,600,-926,-395
99,-53,-8,-360,-1038,315
111,-56,32,2180,-247,807
34,92,-114,2005,-567,1984
-57,-1,-109,842,-69,4975
-85,-80,102,615,520,6237
-118,30,126,2218,802,5973
-90,36,78,-310,-413,1006
-99,-43,50,-576,-350,-2730
-73,-99,-27,-1956,365,-4658
113,-85,-63,1,43,-3758
109,40,98,415,577,-6812
21,57,-90,685,-14,-1771
103,29,-48,-1133,-996,1122
17,-99,-74,-102,-805,495
-38,115,-76,-886,3,-89
33,-128,-87,-1039,524,-788
-103,104,-99,-3414,268,-435
-15,68,59,-5149,1348,442
22,-88,-87,-5363,1389,2407
-114,43,42,-3037,1271,3804
-51,95,57,-2820,49,4450
89,-41,-118,-99,-224,4039
-91,-104,-41,954,-532,3963
78,118,-70,1992,102,2143
0,24,-26,2580,-724,1748
-110,-58,-32,640,-188,783
87,74,-32,1481,7,952
65,13,-30,1298,-115,716
92,-70,-45,1539,25,317
78,126,-32,1917,-420,85
98,71,-20,1889,-266,-152
97,16,9,1703,-398,-129
86,27,21,658,-435,-114
77,5,46,658,-445,-85
93,-17,56,944,-220,-38
97,-18,52,979,-100,45
112,4,34,23,8,54
109,40,9,-863,-194,157
109,18,0,87,-347,151
124,49,0,-53,-310,160
106,81,-17,-318,-387,185
100,88,-24,-158,-307,87
103,102,-32,-120,-268,69
110,107,-47,89,-229,66
123,120,-53,124,-255,111
122,46,-42,2261,-103,5958
88,13,-45,264,-351,4593
109,-79,-96,-477,-1228,-447
127,36,122,-1223,180,-3873
12,-102,-105,-1500,2197,-4174
-83,99,11,123,-1,-3771
-97,-19,-83,1780,1835,-7492
91,3,16,-498,-978,-310
-64,99,92,-1974,-926,108
-78,-83,73,-865,-335,508
102,-98,72,-3167,-479,-574
-66,-71,42,-2919,441,-693
20,-20,-23,-3726,76,345
83,-34,-66,-2622,530,1506
65,62,-105,-2716,462,2202
-103,-47,-109,-1685,653,2701
-66,56,-64,-464,294,3402
17,97,-111,255,353,3428
76,-44,-27,-177,-180,2834
73,91,-70,1611,-14,3139
38,-70,-38,-216,-72,2227
-8,75,-30,994,-384,2225
-31,69,-36,1356,-44,1654
-86,48,-25,973,-389,939
114,-14,2,467,-457,573
104,-81,14,923,-261,418
96,122,20,1024,-297,221
91,84,17,690,-364,71
90,59,19,501,-361,-58
91,37,15,498,-259,-159
104,10,0,588,-109,-79
97,14,-6,463,-274,86
97,9,-21,469,-167,116
107,27,-27,280,-176,144
110,34,-29,319,-199,152
115,45,-33,314,-169,155
124,58,-40,374,-190,148
121,67,-46,342,-223,134
122,71,-48,377,-191,31
-115,51,-60,636,-127,101
-123,76,-54,150,-302,309
123,83,-56,361,-147,121
-118,86,-54,479,-3,18
-94,82,-57,550,-13,96
-92,76,-72,667,40,34
-100,83,-73,427,-43,84
-94,79,-72,512,58,90
-78,76,-69,719,67,106
-55,74,-65,817,40,137
-54,63,-64,843,-62,204
